TrialType,TrialNumber,WarningType,TargetType,FlankerType,TargetDirection,W,f,Y,corr,imageFile,condition,endtext,Yw,Yf,Yt,Corr,imagefile,trials_3.thisRepN,trials_3.thisTrialN,trials_3.thisN,trials_3.thisIndex,trials_2.thisRepN,trials_2.thisTrialN,trials_2.thisN,trials_2.thisIndex,trials.thisRepN,trials.thisTrialN,trials.thisN,trials.thisIndex,instr.started,instr.stopped,key_resp.keys,key_resp.rt,key_resp.started,key_resp.stopped,image.started,image.stopped,key_resp_6.keys,key_resp_6.rt,key_resp_6.started,key_resp_6.stopped,EX_L.started,EX_L.stopped,AL.started,AL.stopped,key_resp_7.keys,key_resp_7.rt,key_resp_7.started,key_resp_7.stopped,EX_R.started,EX_R.stopped,RR.started,RR.stopped,key_resp_8.keys,key_resp_8.rt,key_resp_8.started,key_resp_8.stopped,image_2.started,image_2.stopped,key_resp_9.keys,key_resp_9.rt,key_resp_9.started,key_resp_9.stopped,image_3.started,image_3.stopped,key_resp_10.keys,key_resp_10.rt,key_resp_10.started,key_resp_10.stopped,fix.started,fix.stopped,war.started,war.stopped,tar.started,tar.stopped,key_resp_4.keys,key_resp_4.corr,key_resp_4.rt,key_resp_4.started,key_resp_4.stopped,fix2.started,fix2.stopped,fix_2.started,fix_2.stopped,Feedback.started,Feedback.stopped,text.started,text.stopped,key_resp_11.keys,key_resp_11.rt,key_resp_11.started,key_resp_11.stopped,key_resp_2.keys,key_resp_2.rt,key_resp_2.started,key_resp_2.stopped,text_5.started,text_5.stopped,fix2_1.started,fix2_1.stopped,Warn.started,Warn.stopped,Tar.started,Tar.stopped,key_resp_5.keys,key_resp_5.corr,key_resp_5.rt,key_resp_5.started,key_resp_5.stopped,Fix_2.started,Fix_2.stopped,fix2_2.started,fix2_2.stopped,text_4.started,text_4.stopped,key_resp_3.keys,key_resp_3.rt,key_resp_3.started,key_resp_3.stopped,text_3.started,text_3.stopped,participant,session,date,expName,psychopyVersion,frameRate,
,,,,,,,,,,,,,,,,,,,,,,,,,,,,,,10.330009100027382,None,space,1.6217742000008002,10.330009100027382,None,,,,,,,,,,,,,,,,,,,,,,,,,,,,,,,,,,,,,,,,,,,,,,,,,,,,,,,,,,,,,,,,,,,,,,,,,,,,,,,,,,,,,,,11006,001,2024_Jan_01_1021,ANT,2021.2.3,60.10381130269098,
,,,,,,,,,,,,,,,,,,,,,,,,,,,,,,,,,,,,11.98236269998597,None,space,20.498198900022544,11.98236269998597,None,,,,,,,,,,,,,,,,,,,,,,,,,,,,,,,,,,,,,,,,,,,,,,,,,,,,,,,,,,,,,,,,,,,,,,,,,,,,,,,,,11006,001,2024_Jan_01_1021,ANT,2021.2.3,60.10381130269098,
,,,,,,,,,,,,,,,,,,,,,,,,,,,,,,,,,,,,,,,,,,32.49569160002284,None,32.49569160002284,None,left,1.3285496999742463,32.49569160002284,None,,,,,,,,,,,,,,,,,,,,,,,,,,,,,,,,,,,,,,,,,,,,,,,,,,,,,,,,,,,,,,,,,,,,,,,,,11006,001,2024_Jan_01_1021,ANT,2021.2.3,60.10381130269098,
,,,,,,,,,,,,,,,,,,,,,,,,,,,,,,,,,,,,,,,,,,,,,,,,,,33.84786320000421,None,33.84786320000421,None,right,1.2323854999849573,33.84786320000421,None,,,,,,,,,,,,,,,,,,,,,,,,,,,,,,,,,,,,,,,,,,,,,,,,,,,,,,,,,,,,,,,,,11006,001,2024_Jan_01_1021,ANT,2021.2.3,60.10381130269098,
,,,,,,,,,,,,,,,,,,,,,,,,,,,,,,,,,,,,,,,,,,,,,,,,,,,,,,,,,,35.09969020000426,None,space,33.21331919997465,35.09969020000426,None,,,,,,,,,,,,,,,,,,,,,,,,,,,,,,,,,,,,,,,,,,,,,,,,,,,,,,,,,,,11006,001,2024_Jan_01_1021,ANT,2021.2.3,60.10381130269098,
,,,,,,,,,,,,,,,,,,,,,,,,,,,,,,,,,,,,,,,,,,,,,,,,,,,,,,,,,,,,,,,,68.33222750003915,None,space,4.963726500049233,68.33222750003915,None,,,,,,,,,,,,,,,,,,,,,,,,,,,,,,,,,,,,,,,,,,,,,,,,,,,,,11006,001,2024_Jan_01_1021,ANT,2021.2.3,60.10381130269098,
0,3,no,down,C,R,50,0,-1.5,right,RRRRR.png,,,,,,,,0,0,0,2,,,,,,,,,,,,,,,,,,,,,,,,,,,,,,,,,,,,,,,,,,,,,,,,,73.38930069998605,73.79097219998948,73.7744160000002,73.87598449998768,74.27514390001306,None,right,1,0.7089695999748074,74.27514390001306,None,73.7744160000002,73.87598449998768,73.87598449998768,None,75.02640530001372,None,,,,,,,,,,,,,,,,,,,,,,,,,,,,,,,,,,,,11006,001,2024_Jan_01_1021,ANT,2021.2.3,60.10381130269098,
0,8,center,down,IC,L,0,50,-1.5,left,RRLRR.png,,,,,,,,0,1,1,7,,,,,,,,,,,,,,,,,,,,,,,,,,,,,,,,,,,,,,,,,,,,,,,,,77.02939239999978,77.43046519998461,77.41278409998631,77.51451190002263,77.91483710001921,None,left,1,0.6695825000060722,77.91483710001921,None,77.41278409998631,77.51451190002263,77.51451190002263,None,78.6141806000378,None,,,,,,,,,,,,,,,,,,,,,,,,,,,,,,,,,,,,11006,001,2024_Jan_01_1021,ANT,2021.2.3,60.10381130269098,
0,9,spatial,up,C,R,1.5,0,1.5,right,RRRRR.png,,,,,,,,0,2,2,8,,,,,,,,,,,,,,,,,,,,,,,,,,,,,,,,,,,,,,,,,,,,,,,,,80.61716790002538,81.02014939999208,81.0014714000281,81.10309420002159,81.50187979999464,None,right,1,0.5308511999901384,81.50187979999464,None,81.0014714000281,81.10309420002159,81.10309420002159,None,82.05257090000669,None,,,,,,,,,,,,,,,,,,,,,,,,,,,,,,,,,,,,11006,001,2024_Jan_01_1021,ANT,2021.2.3,60.10381130269098,
0,12,spatial,down,IC,R,-1.5,0,-1.5,right,LLRLL.png,,,,,,,,0,3,3,11,,,,,,,,,,,,,,,,,,,,,,,,,,,,,,,,,,,,,,,,,,,,,,,,,84.05559790000552,84.45619180001086,84.4408143000328,84.53983150003478,84.94120390003081,None,left,0,0.3869039000128396,84.94120390003081,None,84.4408143000328,84.53983150003478,84.53983150003478,None,85.35749940003734,None,,,,,,,,,,,,,,,,,,,,,,,,,,,,,,,,,,,,11006,001,2024_Jan_01_1021,ANT,2021.2.3,60.10381130269098,
0,5,center,up,C,L,0,50,1.5,left,LLLLL.png,,,,,,,,0,4,4,4,,,,,,,,,,,,,,,,,,,,,,,,,,,,,,,,,,,,,,,,,,,,,,,,,87.36054720001994,87.76193760003662,87.74447949999012,87.84570730000269,88.24614509998355,None,left,1,0.5460074000293389,88.24614509998355,None,87.74447949999012,87.84570730000269,87.84570730000269,None,88.81246310001006,None,,,,,,,,,,,,,,,,,,,,,,,,,,,,,,,,,,,,11006,001,2024_Jan_01_1021,ANT,2021.2.3,60.10381130269098,
0,10,spatial,up,IC,L,1.5,0,1.5,left,RRLRR.png,,,,,,,,0,5,5,9,,,,,,,,,,,,,,,,,,,,,,,,,,,,,,,,,,,,,,,,,,,,,,,,,90.81634590000613,91.21860240004025,91.20053560001543,91.30121390003478,91.70285060000606,None,left,1,0.4336638000095263,91.70285060000606,None,91.20053560001543,91.30121390003478,91.30121390003478,None,92.15088620001916,None,,,,,,,,,,,,,,,,,,,,,,,,,,,,,,,,,,,,11006,001,2024_Jan_01_1021,ANT,2021.2.3,60.10381130269098,
0,7,center,down,C,R,0,50,-1.5,right,RRRRR.png,,,,,,,,0,6,6,6,,,,,,,,,,,,,,,,,,,,,,,,,,,,,,,,,,,,,,,,,,,,,,,,,94.15373010002077,94.55489090003539,94.53913580003427,94.63809910003329,95.0390643000137,None,right,1,0.4893714000354521,95.0390643000137,None,94.53913580003427,94.63809910003329,94.63809910003329,None,95.55597680003848,None,,,,,,,,,,,,,,,,,,,,,,,,,,,,,,,,,,,,11006,001,2024_Jan_01_1021,ANT,2021.2.3,60.10381130269098,
0,6,center,up,IC,R,0,50,1.5,right,LLRLL.png,,,,,,,,0,7,7,5,,,,,,,,,,,,,,,,,,,,,,,,,,,,,,,,,,,,,,,,,,,,,,,,,97.55951400002232,97.96120940003311,97.94296220003162,98.04310760000953,98.44447230000515,None,left,0,0.39617880003061146,98.44447230000515,None,97.94296220003162,98.04310760000953,98.04310760000953,None,98.86096260003978,None,,,,,,,,,,,,,,,,,,,,,,,,,,,,,,,,,,,,11006,001,2024_Jan_01_1021,ANT,2021.2.3,60.10381130269098,
0,1,no,up,C,L,50,0,1.5,left,LLLLL.png,,,,,,,,0,8,8,0,,,,,,,,,,,,,,,,,,,,,,,,,,,,,,,,,,,,,,,,,,,,,,,,,100.86390810000012,101.26604230003431,101.24777230003383,101.34865910001099,101.7492836000165,None,left,1,0.5470390999689698,101.7492836000165,None,101.24777230003383,101.34865910001099,101.34865910001099,None,102.3161579000298,None,,,,,,,,,,,,,,,,,,,,,,,,,,,,,,,,,,,,11006,001,2024_Jan_01_1021,ANT,2021.2.3,60.10381130269098,
0,2,no,up,IC,R,50,0,1.5,right,LLRLL.png,,,,,,,,0,9,9,1,,,,,,,,,,,,,,,,,,,,,,,,,,,,,,,,,,,,,,,,,,,,,,,,,104.31944709998788,104.72055359999649,104.70354780001799,104.80410720000509,105.20414400001755,None,right,1,0.6122057999600656,105.20414400001755,None,104.70354780001799,104.80410720000509,104.80410720000509,None,105.83791380003095,None,,,,,,,,,,,,,,,,,,,,,,,,,,,,,,,,,,,,11006,001,2024_Jan_01_1021,ANT,2021.2.3,60.10381130269098,
0,11,spatial,down,C,L,-1.5,0,-1.5,left,LLLLL.png,,,,,,,,0,10,10,10,,,,,,,,,,,,,,,,,,,,,,,,,,,,,,,,,,,,,,,,,,,,,,,,,107.84098540002014,108.24303499999223,108.22533550002845,108.3267139000236,108.72565249999752,None,left,1,0.41065590002108365,108.72565249999752,None,108.22533550002845,108.3267139000236,108.3267139000236,None,109.15957300004084,None,,,,,,,,,,,,,,,,,,,,,,,,,,,,,,,,,,,,11006,001,2024_Jan_01_1021,ANT,2021.2.3,60.10381130269098,
0,4,no,down,IC,L,50,0,-1.5,left,RRLRR.png,,,,,,,,0,11,11,3,,,,,,,,,,,,,,,,,,,,,,,,,,,,,,,,,,,,,,,,,,,,,,,,,111.16300490003778,111.56474200001685,111.54701430001296,111.64800849999301,112.047805899987,None,left,1,0.7133284999872558,112.047805899987,None,111.54701430001296,111.64800849999301,111.64800849999301,None,112.78161820000969,None,,,,,,,,,,,,,,,,,,,,,,,,,,,,,,,,,,,,11006,001,2024_Jan_01_1021,ANT,2021.2.3,60.10381130269098,
,,,,,,,,,,,,,,,,,,,,,,,,,,,,,,,,,,,,,,,,,,,,,,,,,,,,,,,,,,,,,,,,,,,,,,,,,,,,,,,,,,,,,,,114.78445149998879,None,space,2.5837283000000753,114.78445149998879,None,,,,,,,,,,,,,,,,,,,,,,,,,,,,,,11006,001,2024_Jan_01_1021,ANT,2021.2.3,60.10381130269098,
,,,,,,,,,,,,,,,,,,,,,,,,,,,,,,,,,,,,,,,,,,,,,,,,,,,,,,,,,,,,,,,,,,,,,,,,,,,,,,,,,,,,,,,,,,,,,space,7.524078500049654,117.38846660003765,None,,,,,,,,,,,,,,,,,,,,,,,,,,11006,001,2024_Jan_01_1021,ANT,2021.2.3,60.10381130269098,
1,6,no,down,C,R,,,,,,Block.xlsx,"你已经完成了第一个实验区组

请稍作休息


点击空格键进入下一个区组。",50,0,-1.5,right,RRRRR.png,,,,,0,0,0,0,0,0,0,5,,,,,,,,,,,,,,,,,,,,,,,,,,,,,,,,,,,,,,,,,,,,,,,,,,,,,,,,,,,,,,,,,,,,117.38846660003765,None,124.96787719998974,125.36766839999473,125.35123369999928,125.45176730002277,125.85131709999405,None,right,1,0.7493302999646403,125.85131709999405,None,125.35123369999928,125.45176730002277,125.45176730002277,None,126.61856380000245,None,,,,,,,11006,001,2024_Jan_01_1021,ANT,2021.2.3,60.10381130269098,
1,7,no,down,IC,L,,,,,,Block.xlsx,"你已经完成了第一个实验区组

请稍作休息


点击空格键进入下一个区组。",50,0,-1.5,left,RRLRR.png,,,,,0,0,0,0,0,1,1,6,,,,,,,,,,,,,,,,,,,,,,,,,,,,,,,,,,,,,,,,,,,,,,,,,,,,,,,,,,,,,,,,,,,,,,127.01943480002228,127.42018640000606,127.40379660000326,127.50410610000836,127.90480740001658,None,left,1,0.5914613999775611,127.90480740001658,None,127.40379660000326,127.50410610000836,127.50410610000836,None,128.5220457999967,None,,,,,,,11006,001,2024_Jan_01_1021,ANT,2021.2.3,60.10381130269098,
1,24,spatial,down,IC,R,,,,,,Block.xlsx,"你已经完成了第一个实验区组

请稍作休息


点击空格键进入下一个区组。",-1.5,0,-1.5,right,LLRLL.png,,,,,0,0,0,0,0,2,2,23,,,,,,,,,,,,,,,,,,,,,,,,,,,,,,,,,,,,,,,,,,,,,,,,,,,,,,,,,,,,,,,,,,,,,,128.92290070001036,129.3238692000159,129.3067100000335,129.40647980000358,129.80742440000176,None,right,1,0.5691943000419997,129.80742440000176,None,129.3067100000335,129.40647980000358,129.40647980000358,None,130.39093019999564,None,,,,,,,11006,001,2024_Jan_01_1021,ANT,2021.2.3,60.10381130269098,
1,22,spatial,down,C,R,,,,,,Block.xlsx,"你已经完成了第一个实验区组

请稍作休息


点击空格键进入下一个区组。",-1.5,0,-1.5,right,RRRRR.png,,,,,0,0,0,0,0,3,3,21,,,,,,,,,,,,,,,,,,,,,,,,,,,,,,,,,,,,,,,,,,,,,,,,,,,,,,,,,,,,,,,,,,,,,,130.79152239998803,131.1929712999845,131.17692900000839,131.29466130002402,131.67651359998854,None,right,1,0.4596870999666862,131.67651359998854,None,131.17692900000839,131.29466130002402,131.27645440003835,None,132.1601845000405,None,,,,,,,11006,001,2024_Jan_01_1021,ANT,2021.2.3,60.10381130269098,
1,11,center,up,IC,L,,,,,,Block.xlsx,"你已经完成了第一个实验区组

请稍作休息


点击空格键进入下一个区组。",0,50,1.5,left,RRLRR.png,,,,,0,0,0,0,0,4,4,10,,,,,,,,,,,,,,,,,,,,,,,,,,,,,,,,,,,,,,,,,,,,,,,,,,,,,,,,,,,,,,,,,,,,,,132.56086780002806,132.9639680000255,132.94510310003534,133.04558119998546,133.44621239998378,None,left,1,0.6508018000167795,133.44621239998378,None,132.94510310003534,133.04558119998546,133.04558119998546,None,134.1132983000134,None,,,,,,,11006,001,2024_Jan_01_1021,ANT,2021.2.3,60.10381130269098,
1,14,center,down,C,R,,,,,,Block.xlsx,"你已经完成了第一个实验区组

请稍作休息


点击空格键进入下一个区组。",0,50,-1.5,right,RRRRR.png,,,,,0,0,0,0,0,5,5,13,,,,,,,,,,,,,,,,,,,,,,,,,,,,,,,,,,,,,,,,,,,,,,,,,,,,,,,,,,,,,,,,,,,,,,134.5137073000078,134.9150904000271,134.89896630001022,135.0144439000287,135.39934480004013,None,right,1,0.3768147000228055,135.39934480004013,None,134.89896630001022,135.0144439000287,134.99857629998587,None,135.79891519999364,None,,,,,,,11006,001,2024_Jan_01_1021,ANT,2021.2.3,60.10381130269098,
1,21,spatial,down,C,L,,,,,,Block.xlsx,"你已经完成了第一个实验区组

请稍作休息


点击空格键进入下一个区组。",-1.5,0,-1.5,left,LLLLL.png,,,,,0,0,0,0,0,6,6,20,,,,,,,,,,,,,,,,,,,,,,,,,,,,,,,,,,,,,,,,,,,,,,,,,,,,,,,,,,,,,,,,,,,,,,136.19940019998467,136.60093080002116,136.58526000002166,136.68393490003655,137.08523450000212,None,left,1,0.37124589999439195,137.08523450000212,None,136.58526000002166,136.68393490003655,136.68393490003655,None,137.4847072000266,None,,,,,,,11006,001,2024_Jan_01_1021,ANT,2021.2.3,60.10381130269098,
1,16,center,down,IC,R,,,,,,Block.xlsx,"你已经完成了第一个实验区组

请稍作休息


点击空格键进入下一个区组。",0,50,-1.5,right,LLRLL.png,,,,,0,0,0,0,0,7,7,15,,,,,,,,,,,,,,,,,,,,,,,,,,,,,,,,,,,,,,,,,,,,,,,,,,,,,,,,,,,,,,,,,,,,,,137.88581290002912,138.28813410003204,138.27002070000162,138.37058779998915,138.77035390003584,None,right,1,0.5738172000274062,138.77035390003584,None,138.27002070000162,138.37058779998915,138.37058779998915,None,139.37100360001205,None,,,,,,,11006,001,2024_Jan_01_1021,ANT,2021.2.3,60.10381130269098,
1,3,no,up,IC,L,,,,,,Block.xlsx,"你已经完成了第一个实验区组

请稍作休息


点击空格键进入下一个区组。",50,0,1.5,left,RRLRR.png,,,,,0,0,0,0,0,8,8,2,,,,,,,,,,,,,,,,,,,,,,,,,,,,,,,,,,,,,,,,,,,,,,,,,,,,,,,,,,,,,,,,,,,,,,139.77141960000154,140.17232020001393,140.15599250001833,140.25608850002754,140.65622090001125,None,left,1,0.6005044999765232,140.65622090001125,None,140.15599250001833,140.25608850002754,140.25608850002754,None,141.27388669998618,None,,,,,,,11006,001,2024_Jan_01_1021,ANT,2021.2.3,60.10381130269098,
1,10,center,up,C,R,,,,,,Block.xlsx,"你已经完成了第一个实验区组

请稍作休息


点击空格键进入下一个区组。",0,50,1.5,right,RRRRR.png,,,,,0,0,0,0,0,9,9,9,,,,,,,,,,,,,,,,,,,,,,,,,,,,,,,,,,,,,,,,,,,,,,,,,,,,,,,,,,,,,,,,,,,,,,141.6754700000165,142.0750723000383,142.060338100011,142.16028980002739,142.55987330002245,None,right,1,0.3522328999824822,142.55987330002245,None,142.060338100011,142.16028980002739,142.16028980002739,None,142.92593550001038,None,,,,,,,11006,001,2024_Jan_01_1021,ANT,2021.2.3,60.10381130269098,
1,20,spatial,up,IC,R,,,,,,Block.xlsx,"你已经完成了第一个实验区组

请稍作休息


点击空格键进入下一个区组。",1.5,0,1.5,right,LLRLL.png,,,,,0,0,0,0,0,10,10,19,,,,,,,,,,,,,,,,,,,,,,,,,,,,,,,,,,,,,,,,,,,,,,,,,,,,,,,,,,,,,,,,,,,,,,143.32782290002797,143.72792000003392,143.71181529999012,143.8128122999915,144.2121318000136,None,right,1,0.56471629999578,144.2121318000136,None,143.71181529999012,143.8128122999915,143.8128122999915,None,144.79579280002508,None,,,,,,,11006,001,2024_Jan_01_1021,ANT,2021.2.3,60.10381130269098,
1,12,center,up,IC,R,,,,,,Block.xlsx,"你已经完成了第一个实验区组

请稍作休息


点击空格键进入下一个区组。",0,50,1.5,right,LLRLL.png,,,,,0,0,0,0,0,11,11,11,,,,,,,,,,,,,,,,,,,,,,,,,,,,,,,,,,,,,,,,,,,,,,,,,,,,,,,,,,,,,,,,,,,,,,145.19664480001666,145.59799670003122,145.58069020003313,145.68071630003396,146.08154240000295,None,right,1,0.422678500006441,146.08154240000295,None,145.58069020003313,145.68071630003396,145.68071630003396,None,146.53192470001522,None,,,,,,,11006,001,2024_Jan_01_1021,ANT,2021.2.3,60.10381130269098,
1,16,center,down,IC,R,,,,,,Block.xlsx,"你已经完成了第一个实验区组

请稍作休息


点击空格键进入下一个区组。",0,50,-1.5,right,LLRLL.png,,,,,0,0,0,0,0,12,12,15,,,,,,,,,,,,,,,,,,,,,,,,,,,,,,,,,,,,,,,,,,,,,,,,,,,,,,,,,,,,,,,,,,,,,,146.9324146999861,147.33439139998518,147.31646040000487,147.41667180001969,147.8170628999942,None,right,1,0.6071671000099741,147.8170628999942,None,147.31646040000487,147.41667180001969,147.41667180001969,None,148.45095800003037,None,,,,,,,11006,001,2024_Jan_01_1021,ANT,2021.2.3,60.10381130269098,
1,8,no,down,IC,R,,,,,,Block.xlsx,"你已经完成了第一个实验区组

请稍作休息


点击空格键进入下一个区组。",50,0,-1.5,right,LLRLL.png,,,,,0,0,0,0,0,13,13,7,,,,,,,,,,,,,,,,,,,,,,,,,,,,,,,,,,,,,,,,,,,,,,,,,,,,,,,,,,,,,,,,,,,,,,148.85168570000678,149.25471260002814,149.2361905000289,149.33692259999225,149.7383845000295,None,right,1,0.4700627999845892,149.7383845000295,None,149.2361905000289,149.33692259999225,149.33692259999225,None,150.23819830000866,None,,,,,,,11006,001,2024_Jan_01_1021,ANT,2021.2.3,60.10381130269098,
1,7,no,down,IC,L,,,,,,Block.xlsx,"你已经完成了第一个实验区组

请稍作休息


点击空格键进入下一个区组。",50,0,-1.5,left,RRLRR.png,,,,,0,0,0,0,0,14,14,6,,,,,,,,,,,,,,,,,,,,,,,,,,,,,,,,,,,,,,,,,,,,,,,,,,,,,,,,,,,,,,,,,,,,,,150.6385702000116,151.03901659999974,151.0227179999929,151.12399220000952,151.5241270000115,None,left,1,0.6441597999655642,151.5241270000115,None,151.0227179999929,151.12399220000952,151.12399220000952,None,152.19052860001102,None,,,,,,,11006,001,2024_Jan_01_1021,ANT,2021.2.3,60.10381130269098,
1,12,center,up,IC,R,,,,,,Block.xlsx,"你已经完成了第一个实验区组

请稍作休息


点击空格键进入下一个区组。",0,50,1.5,right,LLRLL.png,,,,,0,0,0,0,0,15,15,11,,,,,,,,,,,,,,,,,,,,,,,,,,,,,,,,,,,,,,,,,,,,,,,,,,,,,,,,,,,,,,,,,,,,,,152.59131320001325,152.9917725000414,152.97586970002158,153.07515390001936,153.4754060000414,None,right,1,0.581406400015112,153.4754060000414,None,152.97586970002158,153.07515390001936,153.07515390001936,None,154.07608189998427,None,,,,,,,11006,001,2024_Jan_01_1021,ANT,2021.2.3,60.10381130269098,
1,7,no,down,IC,L,,,,,,Block.xlsx,"你已经完成了第一个实验区组

请稍作休息


点击空格键进入下一个区组。",50,0,-1.5,left,RRLRR.png,,,,,0,0,0,0,0,16,16,6,,,,,,,,,,,,,,,,,,,,,,,,,,,,,,,,,,,,,,,,,,,,,,,,,,,,,,,,,,,,,,,,,,,,,,154.4770423999871,154.8782487999997,154.86168430000544,154.96156150003662,155.3612104000058,None,left,1,0.5430135999922641,155.3612104000058,None,154.86168430000544,154.96156150003662,154.96156150003662,None,155.92870749998838,None,,,,,,,11006,001,2024_Jan_01_1021,ANT,2021.2.3,60.10381130269098,
1,13,center,down,C,L,,,,,,Block.xlsx,"你已经完成了第一个实验区组

请稍作休息


点击空格键进入下一个区组。",0,50,-1.5,left,LLLLL.png,,,,,0,0,0,0,0,17,17,12,,,,,,,,,,,,,,,,,,,,,,,,,,,,,,,,,,,,,,,,,,,,,,,,,,,,,,,,,,,,,,,,,,,,,,156.33022499998333,156.73116490000393,156.7156818000367,156.83123609999893,157.21571240003686,None,left,1,0.4727913000388071,157.21571240003686,None,156.7156818000367,156.83123609999893,156.81409180001356,None,157.71486639999785,None,,,,,,,11006,001,2024_Jan_01_1021,ANT,2021.2.3,60.10381130269098,
1,11,center,up,IC,L,,,,,,Block.xlsx,"你已经完成了第一个实验区组

请稍作休息


点击空格键进入下一个区组。",0,50,1.5,left,RRLRR.png,,,,,0,0,0,0,0,18,18,10,,,,,,,,,,,,,,,,,,,,,,,,,,,,,,,,,,,,,,,,,,,,,,,,,,,,,,,,,,,,,,,,,,,,,,158.11649839999154,158.5180929999915,158.5000039000297,158.60041439998895,159.00070860004053,None,left,1,0.655878399964422,159.00070860004053,None,158.5000039000297,158.60041439998895,158.60041439998895,None,159.68437390000327,None,,,,,,,11006,001,2024_Jan_01_1021,ANT,2021.2.3,60.10381130269098,
1,11,center,up,IC,L,,,,,,Block.xlsx,"你已经完成了第一个实验区组

请稍作休息


点击空格键进入下一个区组。",0,50,1.5,left,RRLRR.png,,,,,0,0,0,0,0,19,19,10,,,,,,,,,,,,,,,,,,,,,,,,,,,,,,,,,,,,,,,,,,,,,,,,,,,,,,,,,,,,,,,,,,,,,,160.0856661000289,160.48617620003643,160.47054519999074,160.57075010001427,160.97092370002065,None,left,1,0.437205099966377,160.97092370002065,None,160.47054519999074,160.57075010001427,160.57075010001427,None,161.43682480003918,None,,,,,,,11006,001,2024_Jan_01_1021,ANT,2021.2.3,60.10381130269098,
1,6,no,down,C,R,,,,,,Block.xlsx,"你已经完成了第一个实验区组

请稍作休息


点击空格键进入下一个区组。",50,0,-1.5,right,RRRRR.png,,,,,0,0,0,0,0,20,20,5,,,,,,,,,,,,,,,,,,,,,,,,,,,,,,,,,,,,,,,,,,,,,,,,,,,,,,,,,,,,,,,,,,,,,,161.83849170000758,162.23897430003854,162.2222379000159,162.32262340001762,162.7229706000071,None,right,1,0.5092930999817327,162.7229706000071,None,162.2222379000159,162.32262340001762,162.32262340001762,None,163.25667470000917,None,,,,,,,11006,001,2024_Jan_01_1021,ANT,2021.2.3,60.10381130269098,
1,14,center,down,C,R,,,,,,Block.xlsx,"你已经完成了第一个实验区组

请稍作休息


点击空格键进入下一个区组。",0,50,-1.5,right,RRRRR.png,,,,,0,0,0,0,0,21,21,13,,,,,,,,,,,,,,,,,,,,,,,,,,,,,,,,,,,,,,,,,,,,,,,,,,,,,,,,,,,,,,,,,,,,,,163.6576293000253,164.06027670000913,164.04177210002672,164.14176930004032,164.54253420000896,None,right,1,0.417645999987144,164.54253420000896,None,164.04177210002672,164.14176930004032,164.14176930004032,None,164.97549440001603,None,,,,,,,11006,001,2024_Jan_01_1021,ANT,2021.2.3,60.10381130269098,
1,11,center,up,IC,L,,,,,,Block.xlsx,"你已经完成了第一个实验区组

请稍作休息


点击空格键进入下一个区组。",0,50,1.5,left,RRLRR.png,,,,,0,0,0,0,0,22,22,10,,,,,,,,,,,,,,,,,,,,,,,,,,,,,,,,,,,,,,,,,,,,,,,,,,,,,,,,,,,,,,,,,,,,,,165.37607920001028,165.77829749998637,165.76050700002816,165.8609041000018,166.2615087000304,None,left,1,0.610910999996122,166.2615087000304,None,165.76050700002816,165.8609041000018,165.8609041000018,None,166.89507959998446,None,,,,,,,11006,001,2024_Jan_01_1021,ANT,2021.2.3,60.10381130269098,
1,16,center,down,IC,R,,,,,,Block.xlsx,"你已经完成了第一个实验区组

请稍作休息


点击空格键进入下一个区组。",0,50,-1.5,right,LLRLL.png,,,,,0,0,0,0,0,23,23,15,,,,,,,,,,,,,,,,,,,,,,,,,,,,,,,,,,,,,,,,,,,,,,,,,,,,,,,,,,,,,,,,,,,,,,167.29666019999422,167.6984664000338,167.68030280002858,167.78122150001582,168.1812272000243,None,right,1,0.5711124999797903,168.1812272000243,None,167.68030280002858,167.78122150001582,167.78122150001582,None,168.78088089998346,None,,,,,,,11006,001,2024_Jan_01_1021,ANT,2021.2.3,60.10381130269098,
1,7,no,down,IC,L,,,,,,Block.xlsx,"你已经完成了第一个实验区组

请稍作休息


点击空格键进入下一个区组。",50,0,-1.5,left,RRLRR.png,,,,,0,0,0,0,1,0,24,6,,,,,,,,,,,,,,,,,,,,,,,,,,,,,,,,,,,,,,,,,,,,,,,,,,,,,,,,,,,,,,,,,,,,,,169.1817647999851,169.583082200028,169.56683750002412,169.66840070002945,170.06662629998755,None,None,0,,170.06662629998755,None,169.56683750002412,169.66840070002945,169.66840070002945,None,171.7701706000371,None,,,,,,,11006,001,2024_Jan_01_1021,ANT,2021.2.3,60.10381130269098,
1,19,spatial,up,IC,L,,,,,,Block.xlsx,"你已经完成了第一个实验区组

请稍作休息


点击空格键进入下一个区组。",1.5,0,1.5,left,RRLRR.png,,,,,0,0,0,0,1,1,25,18,,,,,,,,,,,,,,,,,,,,,,,,,,,,,,,,,,,,,,,,,,,,,,,,,,,,,,,,,,,,,,,,,,,,,,172.1699469999876,172.57143130002078,172.55403120000847,172.65427070000442,173.0548725000117,None,left,1,0.4413762000040151,173.0548725000117,None,172.55403120000847,172.65427070000442,172.65427070000442,None,173.52162920002593,None,,,,,,,11006,001,2024_Jan_01_1021,ANT,2021.2.3,60.10381130269098,
1,5,no,down,C,L,,,,,,Block.xlsx,"你已经完成了第一个实验区组

请稍作休息


点击空格键进入下一个区组。",50,0,-1.5,left,LLLLL.png,,,,,0,0,0,0,1,2,26,4,,,,,,,,,,,,,,,,,,,,,,,,,,,,,,,,,,,,,,,,,,,,,,,,,,,,,,,,,,,,,,,,,,,,,,173.92286990000866,174.32372129999567,174.30641120002838,174.40696570003638,174.80893900000956,None,left,1,0.6314220000058413,174.80893900000956,None,174.30641120002838,174.40696570003638,174.40696570003638,None,175.4578560999944,None,,,,,,,11006,001,2024_Jan_01_1021,ANT,2021.2.3,60.10381130269098,
1,4,no,up,IC,R,,,,,,Block.xlsx,"你已经完成了第一个实验区组

请稍作休息


点击空格键进入下一个区组。",50,0,1.5,right,LLRLL.png,,,,,0,0,0,0,1,3,27,3,,,,,,,,,,,,,,,,,,,,,,,,,,,,,,,,,,,,,,,,,,,,,,,,,,,,,,,,,,,,,,,,,,,,,,175.85843960003695,176.25995830004103,176.24313660000917,176.3440677000326,176.74452420003945,None,right,1,0.5119216000312008,176.74452420003945,None,176.24313660000917,176.3440677000326,176.3440677000326,None,177.27715889998944,None,,,,,,,11006,001,2024_Jan_01_1021,ANT,2021.2.3,60.10381130269098,
1,13,center,down,C,L,,,,,,Block.xlsx,"你已经完成了第一个实验区组

请稍作休息


点击空格键进入下一个区组。",0,50,-1.5,left,LLLLL.png,,,,,0,0,0,0,1,4,28,12,,,,,,,,,,,,,,,,,,,,,,,,,,,,,,,,,,,,,,,,,,,,,,,,,,,,,,,,,,,,,,,,,,,,,,177.67763360001845,178.07923380000284,178.06207789998734,178.1626915000379,178.56421260000207,None,left,1,0.5161031999741681,178.56421260000207,None,178.06207789998734,178.1626915000379,178.1626915000379,None,179.09646239998983,None,,,,,,,11006,001,2024_Jan_01_1021,ANT,2021.2.3,60.10381130269098,
1,5,no,down,C,L,,,,,,Block.xlsx,"你已经完成了第一个实验区组

请稍作休息


点击空格键进入下一个区组。",50,0,-1.5,left,LLLLL.png,,,,,0,0,0,0,1,5,29,4,,,,,,,,,,,,,,,,,,,,,,,,,,,,,,,,,,,,,,,,,,,,,,,,,,,,,,,,,,,,,,,,,,,,,,179.4969420999987,179.8981661000289,179.8824956000317,179.98111819999758,180.38184220000403,None,left,1,0.4744796000304632,180.38184220000403,None,179.8824956000317,179.98111819999758,179.98111819999758,None,180.8827983000083,None,,,,,,,11006,001,2024_Jan_01_1021,ANT,2021.2.3,60.10381130269098,
1,15,center,down,IC,L,,,,,,Block.xlsx,"你已经完成了第一个实验区组

请稍作休息


点击空格键进入下一个区组。",0,50,-1.5,left,RRLRR.png,,,,,0,0,0,0,1,6,30,14,,,,,,,,,,,,,,,,,,,,,,,,,,,,,,,,,,,,,,,,,,,,,,,,,,,,,,,,,,,,,,,,,,,,,,181.28434559999732,181.6843577999971,181.66763610002818,181.76716500002658,182.16834360000212,None,left,1,0.4400080000050366,182.16834360000212,None,181.66763610002818,181.76716500002658,181.76716500002658,None,182.6351757000084,None,,,,,,,11006,001,2024_Jan_01_1021,ANT,2021.2.3,60.10381130269098,
1,19,spatial,up,IC,L,,,,,,Block.xlsx,"你已经完成了第一个实验区组

请稍作休息


点击空格键进入下一个区组。",1.5,0,1.5,left,RRLRR.png,,,,,0,0,0,0,1,7,31,18,,,,,,,,,,,,,,,,,,,,,,,,,,,,,,,,,,,,,,,,,,,,,,,,,,,,,,,,,,,,,,,,,,,,,,183.03640470001847,183.43633930000942,183.42062990000704,183.52034670003923,183.92070110002533,None,left,1,0.4557403000071645,183.92070110002533,None,183.42062990000704,183.52034670003923,183.52034670003923,None,184.4042656000238,None,,,,,,,11006,001,2024_Jan_01_1021,ANT,2021.2.3,60.10381130269098,
1,18,spatial,up,C,R,,,,,,Block.xlsx,"你已经完成了第一个实验区组

请稍作休息


点击空格键进入下一个区组。",1.5,0,1.5,right,RRRRR.png,,,,,0,0,0,0,1,8,32,17,,,,,,,,,,,,,,,,,,,,,,,,,,,,,,,,,,,,,,,,,,,,,,,,,,,,,,,,,,,,,,,,,,,,,,184.80494510004064,185.20561260002432,185.1905265999958,185.29017079999903,185.6917615000275,None,right,1,0.39706679998198524,185.6917615000275,None,185.1905265999958,185.29017079999903,185.29017079999903,None,186.10675350000383,None,,,,,,,11006,001,2024_Jan_01_1021,ANT,2021.2.3,60.10381130269098,
1,8,no,down,IC,R,,,,,,Block.xlsx,"你已经完成了第一个实验区组

请稍作休息


点击空格键进入下一个区组。",50,0,-1.5,right,LLRLL.png,,,,,0,0,0,0,1,9,33,7,,,,,,,,,,,,,,,,,,,,,,,,,,,,,,,,,,,,,,,,,,,,,,,,,,,,,,,,,,,,,,,,,,,,,,186.5079967000056,186.91039330000058,186.89215780002996,186.99260350002442,187.39292110002134,None,right,1,0.5677622999646701,187.39292110002134,None,186.89215780002996,186.99260350002442,186.99260350002442,None,187.97623999998905,None,,,,,,,11006,001,2024_Jan_01_1021,ANT,2021.2.3,60.10381130269098,
1,18,spatial,up,C,R,,,,,,Block.xlsx,"你已经完成了第一个实验区组

请稍作休息


点击空格键进入下一个区组。",1.5,0,1.5,right,RRRRR.png,,,,,0,0,0,0,1,10,34,17,,,,,,,,,,,,,,,,,,,,,,,,,,,,,,,,,,,,,,,,,,,,,,,,,,,,,,,,,,,,,,,,,,,,,,188.37783260003198,188.78006730001653,188.76120639999863,188.86286789999576,189.26365460001398,None,right,1,0.3926977999508381,189.26365460001398,None,188.76120639999863,188.86286789999576,188.86286789999576,None,189.6788138000411,None,,,,,,,11006,001,2024_Jan_01_1021,ANT,2021.2.3,60.10381130269098,
1,17,spatial,up,C,L,,,,,,Block.xlsx,"你已经完成了第一个实验区组

请稍作休息


点击空格键进入下一个区组。",1.5,0,1.5,left,LLLLL.png,,,,,0,0,0,0,1,11,35,16,,,,,,,,,,,,,,,,,,,,,,,,,,,,,,,,,,,,,,,,,,,,,,,,,,,,,,,,,,,,,,,,,,,,,,190.0802340999944,190.4799914000323,190.46402660000604,190.56383669999195,190.96461000002455,None,left,1,0.35601330001372844,190.96461000002455,None,190.46402660000604,190.56383669999195,190.56383669999195,None,191.34789959999034,None,,,,,,,11006,001,2024_Jan_01_1021,ANT,2021.2.3,60.10381130269098,
1,18,spatial,up,C,R,,,,,,Block.xlsx,"你已经完成了第一个实验区组

请稍作休息


点击空格键进入下一个区组。",1.5,0,1.5,right,RRRRR.png,,,,,0,0,0,0,1,12,36,17,,,,,,,,,,,,,,,,,,,,,,,,,,,,,,,,,,,,,,,,,,,,,,,,,,,,,,,,,,,,,,,,,,,,,,191.74858120002318,192.14959410001757,192.13321220001671,192.2332322000293,192.63420670002233,None,right,1,0.3739587000454776,192.63420670002233,None,192.13321220001671,192.2332322000293,192.2332322000293,None,193.03381490003085,None,,,,,,,11006,001,2024_Jan_01_1021,ANT,2021.2.3,60.10381130269098,
1,21,spatial,down,C,L,,,,,,Block.xlsx,"你已经完成了第一个实验区组

请稍作休息


点击空格键进入下一个区组。",-1.5,0,-1.5,left,LLLLL.png,,,,,0,0,0,0,1,13,37,20,,,,,,,,,,,,,,,,,,,,,,,,,,,,,,,,,,,,,,,,,,,,,,,,,,,,,,,,,,,,,,,,,,,,,,193.43507020000834,193.83503030001884,193.8207328999997,193.91932819999056,194.32014620001428,None,left,1,0.351987799978815,194.32014620001428,None,193.8207328999997,193.91932819999056,193.91932819999056,None,194.6864413000294,None,,,,,,,11006,001,2024_Jan_01_1021,ANT,2021.2.3,60.10381130269098,
1,15,center,down,IC,L,,,,,,Block.xlsx,"你已经完成了第一个实验区组

请稍作休息


点击空格键进入下一个区组。",0,50,-1.5,left,RRLRR.png,,,,,0,0,0,0,1,14,38,14,,,,,,,,,,,,,,,,,,,,,,,,,,,,,,,,,,,,,,,,,,,,,,,,,,,,,,,,,,,,,,,,,,,,,,195.08752619998995,195.48826640000334,195.47080519999145,195.57153519999702,195.97347030002857,None,left,1,0.48330359999090433,195.97347030002857,None,195.47080519999145,195.57153519999702,195.57153519999702,None,196.472638700041,None,,,,,,,11006,001,2024_Jan_01_1021,ANT,2021.2.3,60.10381130269098,
1,23,spatial,down,IC,L,,,,,,Block.xlsx,"你已经完成了第一个实验区组

请稍作休息


点击空格键进入下一个区组。",-1.5,0,-1.5,left,RRLRR.png,,,,,0,0,0,0,1,15,39,22,,,,,,,,,,,,,,,,,,,,,,,,,,,,,,,,,,,,,,,,,,,,,,,,,,,,,,,,,,,,,,,,,,,,,,196.87302330002422,197.2751186999958,197.2573553000111,197.35964730003616,197.758962300024,None,left,1,0.3456759999971837,197.758962300024,None,197.2573553000111,197.35964730003616,197.35964730003616,None,198.12437500001397,None,,,,,,,11006,001,2024_Jan_01_1021,ANT,2021.2.3,60.10381130269098,
1,23,spatial,down,IC,L,,,,,,Block.xlsx,"你已经完成了第一个实验区组

请稍作休息


点击空格键进入下一个区组。",-1.5,0,-1.5,left,RRLRR.png,,,,,0,0,0,0,1,16,40,22,,,,,,,,,,,,,,,,,,,,,,,,,,,,,,,,,,,,,,,,,,,,,,,,,,,,,,,,,,,,,,,,,,,,,,198.5253318999894,198.92787830001907,198.90988110000035,199.01158769999165,199.41098919999786,None,left,1,0.3092823000042699,199.41098919999786,None,198.90988110000035,199.01158769999165,199.01158769999165,None,199.74378690001322,None,,,,,,,11006,001,2024_Jan_01_1021,ANT,2021.2.3,60.10381130269098,
1,3,no,up,IC,L,,,,,,Block.xlsx,"你已经完成了第一个实验区组

请稍作休息


点击空格键进入下一个区组。",50,0,1.5,left,RRLRR.png,,,,,0,0,0,0,1,17,41,2,,,,,,,,,,,,,,,,,,,,,,,,,,,,,,,,,,,,,,,,,,,,,,,,,,,,,,,,,,,,,,,,,,,,,,200.14442279998912,200.54588560003322,200.52950060000876,200.62915679998696,201.02992589998757,None,left,1,0.6584478999720886,201.02992589998757,None,200.52950060000876,200.62915679998696,200.62915679998696,None,201.71374610002385,None,,,,,,,11006,001,2024_Jan_01_1021,ANT,2021.2.3,60.10381130269098,
1,1,no,up,C,L,,,,,,Block.xlsx,"你已经完成了第一个实验区组

请稍作休息


点击空格键进入下一个区组。",50,0,1.5,left,LLLLL.png,,,,,0,0,0,0,1,18,42,0,,,,,,,,,,,,,,,,,,,,,,,,,,,,,,,,,,,,,,,,,,,,,,,,,,,,,,,,,,,,,,,,,,,,,,202.1139736000332,202.51509260002058,202.49882500001695,202.5988917000359,203.00064650003333,None,left,1,0.40056490001734346,203.00064650003333,None,202.49882500001695,202.5988917000359,202.5988917000359,None,203.41584909998346,None,,,,,,,11006,001,2024_Jan_01_1021,ANT,2021.2.3,60.10381130269098,
1,1,no,up,C,L,,,,,,Block.xlsx,"你已经完成了第一个实验区组

请稍作休息


点击空格键进入下一个区组。",50,0,1.5,left,LLLLL.png,,,,,0,0,0,0,1,19,43,0,,,,,,,,,,,,,,,,,,,,,,,,,,,,,,,,,,,,,,,,,,,,,,,,,,,,,,,,,,,,,,,,,,,,,,203.81629819999216,204.21886710001854,204.20062920002965,204.3012388999923,204.70129290001933,None,left,1,0.4430999999749474,204.70129290001933,None,204.20062920002965,204.3012388999923,204.3012388999923,None,205.16859870002372,None,,,,,,,11006,001,2024_Jan_01_1021,ANT,2021.2.3,60.10381130269098,
1,6,no,down,C,R,,,,,,Block.xlsx,"你已经完成了第一个实验区组

请稍作休息


点击空格键进入下一个区组。",50,0,-1.5,right,RRRRR.png,,,,,0,0,0,0,1,20,44,5,,,,,,,,,,,,,,,,,,,,,,,,,,,,,,,,,,,,,,,,,,,,,,,,,,,,,,,,,,,,,,,,,,,,,,205.56958350003697,205.97106489998987,205.9530192000093,206.05378580000252,206.45404640003107,None,right,1,0.5144383999868296,206.45404640003107,None,205.9530192000093,206.05378580000252,206.05378580000252,None,206.98773440002697,None,,,,,,,11006,001,2024_Jan_01_1021,ANT,2021.2.3,60.10381130269098,
1,10,center,up,C,R,,,,,,Block.xlsx,"你已经完成了第一个实验区组

请稍作休息


点击空格键进入下一个区组。",0,50,1.5,right,RRRRR.png,,,,,0,0,0,0,1,21,45,9,,,,,,,,,,,,,,,,,,,,,,,,,,,,,,,,,,,,,,,,,,,,,,,,,,,,,,,,,,,,,,,,,,,,,,207.3883313999977,207.79091740003787,207.77280320000136,207.8732491999981,208.27316450001672,None,right,1,0.4159523000125773,208.27316450001672,None,207.77280320000136,207.8732491999981,207.8732491999981,None,208.706961399992,None,,,,,,,11006,001,2024_Jan_01_1021,ANT,2021.2.3,60.10381130269098,
1,24,spatial,down,IC,R,,,,,,Block.xlsx,"你已经完成了第一个实验区组

请稍作休息


点击空格键进入下一个区组。",-1.5,0,-1.5,right,LLRLL.png,,,,,0,0,0,0,1,22,46,23,,,,,,,,,,,,,,,,,,,,,,,,,,,,,,,,,,,,,,,,,,,,,,,,,,,,,,,,,,,,,,,,,,,,,,209.10788480000338,209.51084070000798,209.49220889998833,209.5921102000284,209.99298330000602,None,right,1,0.5034012999967672,209.99298330000602,None,209.49220889998833,209.5921102000284,209.5921102000284,None,210.50961649999954,None,,,,,,,11006,001,2024_Jan_01_1021,ANT,2021.2.3,60.10381130269098,
1,9,center,up,C,L,,,,,,Block.xlsx,"你已经完成了第一个实验区组

请稍作休息


点击空格键进入下一个区组。",0,50,1.5,left,LLLLL.png,,,,,0,0,0,0,1,23,47,8,,,,,,,,,,,,,,,,,,,,,,,,,,,,,,,,,,,,,,,,,,,,,,,,,,,,,,,,,,,,,,,,,,,,,,210.91094090003753,211.31209349998971,211.29524519998813,211.39596340002026,211.79520400002366,None,left,1,0.38168440002482384,211.79520400002366,None,211.29524519998813,211.39596340002026,211.39596340002026,None,212.19572240003617,None,,,,,,,11006,001,2024_Jan_01_1021,ANT,2021.2.3,60.10381130269098,
1,21,spatial,down,C,L,,,,,,Block.xlsx,"你已经完成了第一个实验区组

请稍作休息


点击空格键进入下一个区组。",-1.5,0,-1.5,left,LLLLL.png,,,,,0,0,0,0,2,0,48,20,,,,,,,,,,,,,,,,,,,,,,,,,,,,,,,,,,,,,,,,,,,,,,,,,,,,,,,,,,,,,,,,,,,,,,212.59712230000878,212.99670740001602,212.98066830000607,213.0819350000238,213.48186010000063,None,left,1,0.34282809996511787,213.48186010000063,None,212.98066830000607,213.0819350000238,213.0819350000238,None,213.84795279998798,None,,,,,,,11006,001,2024_Jan_01_1021,ANT,2021.2.3,60.10381130269098,
1,9,center,up,C,L,,,,,,Block.xlsx,"你已经完成了第一个实验区组

请稍作休息


点击空格键进入下一个区组。",0,50,1.5,left,LLLLL.png,,,,,0,0,0,0,2,1,49,8,,,,,,,,,,,,,,,,,,,,,,,,,,,,,,,,,,,,,,,,,,,,,,,,,,,,,,,,,,,,,,,,,,,,,,214.24899210000876,214.6490507000126,214.63469000003533,214.75140519998968,215.1341610000236,None,left,1,0.37858260003849864,215.1341610000236,None,214.63469000003533,214.75140519998968,214.73317240003962,None,215.53381769999396,None,,,,,,,11006,001,2024_Jan_01_1021,ANT,2021.2.3,60.10381130269098,
1,15,center,down,IC,L,,,,,,Block.xlsx,"你已经完成了第一个实验区组

请稍作休息


点击空格键进入下一个区组。",0,50,-1.5,left,RRLRR.png,,,,,0,0,0,0,2,2,50,14,,,,,,,,,,,,,,,,,,,,,,,,,,,,,,,,,,,,,,,,,,,,,,,,,,,,,,,,,,,,,,,,,,,,,,215.9347984000342,216.33740489999764,216.31923220003955,216.4194831000059,216.82008239999413,None,left,1,0.5162782999686897,216.82008239999413,None,216.31923220003955,216.4194831000059,216.4194831000059,None,217.35314479999943,None,,,,,,,11006,001,2024_Jan_01_1021,ANT,2021.2.3,60.10381130269098,
1,19,spatial,up,IC,L,,,,,,Block.xlsx,"你已经完成了第一个实验区组

请稍作休息


点击空格键进入下一个区组。",1.5,0,1.5,left,RRLRR.png,,,,,0,0,0,0,2,3,51,18,,,,,,,,,,,,,,,,,,,,,,,,,,,,,,,,,,,,,,,,,,,,,,,,,,,,,,,,,,,,,,,,,,,,,,217.75440490001347,218.1551357000135,218.13881410000613,218.23889590002364,218.6388698000228,None,left,1,0.43354210001416504,218.6388698000228,None,218.13881410000613,218.23889590002364,218.23889590002364,None,219.08895619999385,None,,,,,,,11006,001,2024_Jan_01_1021,ANT,2021.2.3,60.10381130269098,
1,9,center,up,C,L,,,,,,Block.xlsx,"你已经完成了第一个实验区组

请稍作休息


点击空格键进入下一个区组。",0,50,1.5,left,LLLLL.png,,,,,0,0,0,0,2,4,52,8,,,,,,,,,,,,,,,,,,,,,,,,,,,,,,,,,,,,,,,,,,,,,,,,,,,,,,,,,,,,,,,,,,,,,,219.48969900002703,219.891466400004,219.87409260001732,219.97474620002322,220.37551470001927,None,left,1,0.9134125999989919,220.37551470001927,None,219.87409260001732,219.97474620002322,219.97474620002322,None,221.3091309000156,None,,,,,,,11006,001,2024_Jan_01_1021,ANT,2021.2.3,60.10381130269098,
1,4,no,up,IC,R,,,,,,Block.xlsx,"你已经完成了第一个实验区组

请稍作休息


点击空格键进入下一个区组。",50,0,1.5,right,LLRLL.png,,,,,0,0,0,0,2,5,53,3,,,,,,,,,,,,,,,,,,,,,,,,,,,,,,,,,,,,,,,,,,,,,,,,,,,,,,,,,,,,,,,,,,,,,,221.7096563000232,222.110895299993,222.09569600003306,222.1944264000049,222.59497780003585,None,right,1,0.5573258999502286,222.59497780003585,None,222.09569600003306,222.1944264000049,222.1944264000049,None,223.17847440001788,None,,,,,,,11006,001,2024_Jan_01_1021,ANT,2021.2.3,60.10381130269098,
1,6,no,down,C,R,,,,,,Block.xlsx,"你已经完成了第一个实验区组

请稍作休息


点击空格键进入下一个区组。",50,0,-1.5,right,RRRRR.png,,,,,0,0,0,0,2,6,54,5,,,,,,,,,,,,,,,,,,,,,,,,,,,,,,,,,,,,,,,,,,,,,,,,,,,,,,,,,,,,,,,,,,,,,,223.57987820002018,223.979734499997,223.9636587999994,224.06502480001654,224.46445600001607,None,right,1,0.47225270001217723,224.46445600001607,None,223.9636587999994,224.06502480001654,224.06502480001654,None,224.96454250003444,None,,,,,,,11006,001,2024_Jan_01_1021,ANT,2021.2.3,60.10381130269098,
1,23,spatial,down,IC,L,,,,,,Block.xlsx,"你已经完成了第一个实验区组

请稍作休息


点击空格键进入下一个区组。",-1.5,0,-1.5,left,RRLRR.png,,,,,0,0,0,0,2,7,55,22,,,,,,,,,,,,,,,,,,,,,,,,,,,,,,,,,,,,,,,,,,,,,,,,,,,,,,,,,,,,,,,,,,,,,,225.365096500027,225.7678779999842,225.7492338999873,225.85001729999203,226.25167570001213,None,left,1,0.38119459996232763,226.25167570001213,None,225.7492338999873,225.85001729999203,225.85001729999203,None,226.65018110000528,None,,,,,,,11006,001,2024_Jan_01_1021,ANT,2021.2.3,60.10381130269098,
1,13,center,down,C,L,,,,,,Block.xlsx,"你已经完成了第一个实验区组

请稍作休息


点击空格键进入下一个区组。",0,50,-1.5,left,LLLLL.png,,,,,0,0,0,0,2,8,56,12,,,,,,,,,,,,,,,,,,,,,,,,,,,,,,,,,,,,,,,,,,,,,,,,,,,,,,,,,,,,,,,,,,,,,,227.051746800018,227.45303000003332,227.43485680001322,227.53531479998492,227.9359778999933,None,left,1,0.4242334999726154,227.9359778999933,None,227.43485680001322,227.53531479998492,227.53531479998492,None,228.38691470003687,None,,,,,,,11006,001,2024_Jan_01_1021,ANT,2021.2.3,60.10381130269098,
1,16,center,down,IC,R,,,,,,Block.xlsx,"你已经完成了第一个实验区组

请稍作休息


点击空格键进入下一个区组。",0,50,-1.5,right,LLRLL.png,,,,,0,0,0,0,2,9,57,15,,,,,,,,,,,,,,,,,,,,,,,,,,,,,,,,,,,,,,,,,,,,,,,,,,,,,,,,,,,,,,,,,,,,,,228.78699649998453,229.188101799984,229.17131910001626,229.27354220004054,229.67158080002991,None,right,1,0.5366553000058047,229.67158080002991,None,229.17131910001626,229.27354220004054,229.27354220004054,None,230.2387516000308,None,,,,,,,11006,001,2024_Jan_01_1021,ANT,2021.2.3,60.10381130269098,
1,8,no,down,IC,R,,,,,,Block.xlsx,"你已经完成了第一个实验区组

请稍作休息


点击空格键进入下一个区组。",50,0,-1.5,right,LLRLL.png,,,,,0,0,0,0,2,10,58,7,,,,,,,,,,,,,,,,,,,,,,,,,,,,,,,,,,,,,,,,,,,,,,,,,,,,,,,,,,,,,,,,,,,,,,230.63967330002924,231.04054910002742,231.0252900000196,231.1405665000202,231.52608109998982,None,right,1,0.46674359997268766,231.52608109998982,None,231.0252900000196,231.1405665000202,231.12557159998687,None,232.0086742999847,None,,,,,,,11006,001,2024_Jan_01_1021,ANT,2021.2.3,60.10381130269098,
1,2,no,up,C,R,,,,,,Block.xlsx,"你已经完成了第一个实验区组

请稍作休息


点击空格键进入下一个区组。",50,0,1.5,right,RRRRR.png,,,,,0,0,0,0,2,11,59,1,,,,,,,,,,,,,,,,,,,,,,,,,,,,,,,,,,,,,,,,,,,,,,,,,,,,,,,,,,,,,,,,,,,,,,232.40939829999115,232.8111883000238,232.79305989999557,232.89361480000662,233.2941914999974,None,right,1,0.4262470999965444,233.2941914999974,None,232.79305989999557,232.89361480000662,232.89361480000662,None,233.74406440003077,None,,,,,,,11006,001,2024_Jan_01_1021,ANT,2021.2.3,60.10381130269098,
1,24,spatial,down,IC,R,,,,,,Block.xlsx,"你已经完成了第一个实验区组

请稍作休息


点击空格键进入下一个区组。",-1.5,0,-1.5,right,LLRLL.png,,,,,0,0,0,0,2,12,60,23,,,,,,,,,,,,,,,,,,,,,,,,,,,,,,,,,,,,,,,,,,,,,,,,,,,,,,,,,,,,,,,,,,,,,,234.14471940003568,234.54590470000403,234.5293595000403,234.62965980003355,235.03102270001546,None,right,1,0.4977779999608174,235.03102270001546,None,234.5293595000403,234.62965980003355,234.62965980003355,None,235.5471777000348,None,,,,,,,11006,001,2024_Jan_01_1021,ANT,2021.2.3,60.10381130269098,
1,5,no,down,C,L,,,,,,Block.xlsx,"你已经完成了第一个实验区组

请稍作休息


点击空格键进入下一个区组。",50,0,-1.5,left,LLLLL.png,,,,,0,0,0,0,2,13,61,4,,,,,,,,,,,,,,,,,,,,,,,,,,,,,,,,,,,,,,,,,,,,,,,,,,,,,,,,,,,,,,,,,,,,,,235.94755009998335,236.3481411000248,236.3319010999985,236.43297790002543,236.83291520003695,None,left,1,0.7752879000036046,236.83291520003695,None,236.3319010999985,236.43297790002543,236.43297790002543,None,237.63321270002052,None,,,,,,,11006,001,2024_Jan_01_1021,ANT,2021.2.3,60.10381130269098,
1,1,no,up,C,L,,,,,,Block.xlsx,"你已经完成了第一个实验区组

请稍作休息


点击空格键进入下一个区组。",50,0,1.5,left,LLLLL.png,,,,,0,0,0,0,2,14,62,0,,,,,,,,,,,,,,,,,,,,,,,,,,,,,,,,,,,,,,,,,,,,,,,,,,,,,,,,,,,,,,,,,,,,,,238.03455889999168,238.4354195999913,238.41790930001298,238.51990220003063,238.91925690002972,None,left,1,0.5450270000146702,238.91925690002972,None,238.41790930001298,238.51990220003063,238.51990220003063,None,239.48594620003132,None,,,,,,,11006,001,2024_Jan_01_1021,ANT,2021.2.3,60.10381130269098,
1,2,no,up,C,R,,,,,,Block.xlsx,"你已经完成了第一个实验区组

请稍作休息


点击空格键进入下一个区组。",50,0,1.5,right,RRRRR.png,,,,,0,0,0,0,2,15,63,1,,,,,,,,,,,,,,,,,,,,,,,,,,,,,,,,,,,,,,,,,,,,,,,,,,,,,,,,,,,,,,,,,,,,,,239.88662050000858,240.2879316000035,240.27158050000435,240.37211719999323,240.77191690000473,None,right,1,0.3648447999730706,240.77191690000473,None,240.27158050000435,240.37211719999323,240.37211719999323,None,241.15513369999826,None,,,,,,,11006,001,2024_Jan_01_1021,ANT,2021.2.3,60.10381130269098,
1,2,no,up,C,R,,,,,,Block.xlsx,"你已经完成了第一个实验区组

请稍作休息


点击空格键进入下一个区组。",50,0,1.5,right,RRRRR.png,,,,,0,0,0,0,2,16,64,1,,,,,,,,,,,,,,,,,,,,,,,,,,,,,,,,,,,,,,,,,,,,,,,,,,,,,,,,,,,,,,,,,,,,,,241.55576489999657,241.9567192000104,241.940734600008,242.0402466999949,242.4419206000166,None,right,1,0.39932579995365813,242.4419206000166,None,241.940734600008,242.0402466999949,242.0402466999949,None,242.85763939999742,None,,,,,,,11006,001,2024_Jan_01_1021,ANT,2021.2.3,60.10381130269098,
1,2,no,up,C,R,,,,,,Block.xlsx,"你已经完成了第一个实验区组

请稍作休息


点击空格键进入下一个区组。",50,0,1.5,right,RRRRR.png,,,,,0,0,0,0,2,17,65,1,,,,,,,,,,,,,,,,,,,,,,,,,,,,,,,,,,,,,,,,,,,,,,,,,,,,,,,,,,,,,,,,,,,,,,243.25892250001198,243.66089820000343,243.6421629000106,243.74472550000064,244.1435939000221,None,right,1,0.3611139000277035,244.1435939000221,None,243.6421629000106,243.74472550000064,243.74472550000064,None,244.52660230000038,None,,,,,,,11006,001,2024_Jan_01_1021,ANT,2021.2.3,60.10381130269098,
1,22,spatial,down,C,R,,,,,,Block.xlsx,"你已经完成了第一个实验区组

请稍作休息


点击空格键进入下一个区组。",-1.5,0,-1.5,right,RRRRR.png,,,,,0,0,0,0,2,18,66,21,,,,,,,,,,,,,,,,,,,,,,,,,,,,,,,,,,,,,,,,,,,,,,,,,,,,,,,,,,,,,,,,,,,,,,244.92740210000193,245.33026539999992,245.31228280003415,245.41279169998597,245.81291119998787,None,right,1,0.40382780000800267,245.81291119998787,None,245.31228280003415,245.41279169998597,245.41279169998597,None,246.24618750001537,None,,,,,,,11006,001,2024_Jan_01_1021,ANT,2021.2.3,60.10381130269098,
1,23,spatial,down,IC,L,,,,,,Block.xlsx,"你已经完成了第一个实验区组

请稍作休息


点击空格键进入下一个区组。",-1.5,0,-1.5,left,RRLRR.png,,,,,0,0,0,0,2,19,67,22,,,,,,,,,,,,,,,,,,,,,,,,,,,,,,,,,,,,,,,,,,,,,,,,,,,,,,,,,,,,,,,,,,,,,,246.64659130002838,247.04740370000945,247.03255410003476,247.13290650001727,247.5327011999907,None,left,1,0.4595734999747947,247.5327011999907,None,247.03255410003476,247.13290650001727,247.13290650001727,None,248.0165828000172,None,,,,,,,11006,001,2024_Jan_01_1021,ANT,2021.2.3,60.10381130269098,
1,13,center,down,C,L,,,,,,Block.xlsx,"你已经完成了第一个实验区组

请稍作休息


点击空格键进入下一个区组。",0,50,-1.5,left,LLLLL.png,,,,,0,0,0,0,2,20,68,12,,,,,,,,,,,,,,,,,,,,,,,,,,,,,,,,,,,,,,,,,,,,,,,,,,,,,,,,,,,,,,,,,,,,,,248.4170352999936,248.81674420001218,248.8012793000089,248.90017079998506,249.30066970002372,None,left,1,0.4358143999706954,249.30066970002372,None,248.8012793000089,248.90017079998506,248.90017079998506,None,249.76859069999773,None,,,,,,,11006,001,2024_Jan_01_1021,ANT,2021.2.3,60.10381130269098,
1,17,spatial,up,C,L,,,,,,Block.xlsx,"你已经完成了第一个实验区组

请稍作休息


点击空格键进入下一个区组。",1.5,0,1.5,left,LLLLL.png,,,,,0,0,0,0,2,21,69,16,,,,,,,,,,,,,,,,,,,,,,,,,,,,,,,,,,,,,,,,,,,,,,,,,,,,,,,,,,,,,,,,,,,,,,250.1685162000358,250.57055890001357,250.5531851000269,250.6530713000102,251.05309539998416,None,left,1,0.4192159000085667,251.05309539998416,None,250.5531851000269,250.6530713000102,250.6530713000102,None,251.48710630001733,None,,,,,,,11006,001,2024_Jan_01_1021,ANT,2021.2.3,60.10381130269098,
1,17,spatial,up,C,L,,,,,,Block.xlsx,"你已经完成了第一个实验区组

请稍作休息


点击空格键进入下一个区组。",1.5,0,1.5,left,LLLLL.png,,,,,0,0,0,0,2,22,70,16,,,,,,,,,,,,,,,,,,,,,,,,,,,,,,,,,,,,,,,,,,,,,,,,,,,,,,,,,,,,,,,,,,,,,,251.88858249998884,252.28905540000414,252.27241340000182,252.3722310999874,252.77294759999495,None,left,1,0.3639688999974169,252.77294759999495,None,252.27241340000182,252.3722310999874,252.3722310999874,None,253.15672460000496,None,,,,,,,11006,001,2024_Jan_01_1021,ANT,2021.2.3,60.10381130269098,
1,17,spatial,up,C,L,,,,,,Block.xlsx,"你已经完成了第一个实验区组

请稍作休息


点击空格键进入下一个区组。",1.5,0,1.5,left,LLLLL.png,,,,,0,0,0,0,2,23,71,16,,,,,,,,,,,,,,,,,,,,,,,,,,,,,,,,,,,,,,,,,,,,,,,,,,,,,,,,,,,,,,,,,,,,,,253.55699439998716,253.95742980000796,253.94211990002077,254.04120470001362,254.44236370001454,None,left,1,0.3741734999930486,254.44236370001454,None,253.94211990002077,254.04120470001362,254.04120470001362,None,254.84209270001156,None,,,,,,,11006,001,2024_Jan_01_1021,ANT,2021.2.3,60.10381130269098,
1,19,spatial,up,IC,L,,,,,,Block.xlsx,"你已经完成了第一个实验区组

请稍作休息


点击空格键进入下一个区组。",1.5,0,1.5,left,RRLRR.png,,,,,0,0,0,0,3,0,72,18,,,,,,,,,,,,,,,,,,,,,,,,,,,,,,,,,,,,,,,,,,,,,,,,,,,,,,,,,,,,,,,,,,,,,,255.2425219999859,255.6436534000095,255.62714970001252,255.72813639999367,256.12942070001736,None,left,1,0.40015599998878315,256.12942070001736,None,255.62714970001252,255.72813639999367,255.72813639999367,None,256.54500610003015,None,,,,,,,11006,001,2024_Jan_01_1021,ANT,2021.2.3,60.10381130269098,
1,10,center,up,C,R,,,,,,Block.xlsx,"你已经完成了第一个实验区组

请稍作休息


点击空格键进入下一个区组。",0,50,1.5,right,RRRRR.png,,,,,0,0,0,0,3,1,73,9,,,,,,,,,,,,,,,,,,,,,,,,,,,,,,,,,,,,,,,,,,,,,,,,,,,,,,,,,,,,,,,,,,,,,,256.945864600013,257.3474757000222,257.3296553000109,257.43005660001654,257.8302962000016,None,right,1,0.4421931999968365,257.8302962000016,None,257.3296553000109,257.43005660001654,257.43005660001654,None,258.2971131000086,None,,,,,,,11006,001,2024_Jan_01_1021,ANT,2021.2.3,60.10381130269098,
1,5,no,down,C,L,,,,,,Block.xlsx,"你已经完成了第一个实验区组

请稍作休息


点击空格键进入下一个区组。",50,0,-1.5,left,LLLLL.png,,,,,0,0,0,0,3,2,74,4,,,,,,,,,,,,,,,,,,,,,,,,,,,,,,,,,,,,,,,,,,,,,,,,,,,,,,,,,,,,,,,,,,,,,,258.6977893000003,259.09936759999255,259.08198459999403,259.18294500000775,259.58356410003034,None,left,1,0.4815130000351928,259.58356410003034,None,259.08198459999403,259.18294500000775,259.18294500000775,None,260.0834177000215,None,,,,,,,11006,001,2024_Jan_01_1021,ANT,2021.2.3,60.10381130269098,
1,4,no,up,IC,R,,,,,,Block.xlsx,"你已经完成了第一个实验区组

请稍作休息


点击空格键进入下一个区组。",50,0,1.5,right,LLRLL.png,,,,,0,0,0,0,3,3,75,3,,,,,,,,,,,,,,,,,,,,,,,,,,,,,,,,,,,,,,,,,,,,,,,,,,,,,,,,,,,,,,,,,,,,,,260.48477640002966,260.8867612000322,260.8675702000037,260.9700048000086,261.3701130999834,None,right,1,0.5427890999708325,261.3701130999834,None,260.8675702000037,260.9700048000086,260.9700048000086,None,261.9357475999859,None,,,,,,,11006,001,2024_Jan_01_1021,ANT,2021.2.3,60.10381130269098,
1,20,spatial,up,IC,R,,,,,,Block.xlsx,"你已经完成了第一个实验区组

请稍作休息


点击空格键进入下一个区组。",1.5,0,1.5,right,LLRLL.png,,,,,0,0,0,0,3,4,76,19,,,,,,,,,,,,,,,,,,,,,,,,,,,,,,,,,,,,,,,,,,,,,,,,,,,,,,,,,,,,,,,,,,,,,,262.3363035999937,262.73784600000363,262.7215588000254,262.8220999999903,263.22174070001347,None,right,1,0.45867809996707365,263.22174070001347,None,262.7215588000254,262.8220999999903,262.8220999999903,None,263.70519529999,None,,,,,,,11006,001,2024_Jan_01_1021,ANT,2021.2.3,60.10381130269098,
1,15,center,down,IC,L,,,,,,Block.xlsx,"你已经完成了第一个实验区组

请稍作休息


点击空格键进入下一个区组。",0,50,-1.5,left,RRLRR.png,,,,,0,0,0,0,3,5,77,14,,,,,,,,,,,,,,,,,,,,,,,,,,,,,,,,,,,,,,,,,,,,,,,,,,,,,,,,,,,,,,,,,,,,,,264.1058977000066,264.5067255999893,264.49242980004055,264.60675450001145,264.9908975000144,None,left,1,0.4654316999949515,264.9908975000144,None,264.49242980004055,264.60675450001145,264.59176650003064,None,265.4746166000259,None,,,,,,,11006,001,2024_Jan_01_1021,ANT,2021.2.3,60.10381130269098,
1,24,spatial,down,IC,R,,,,,,Block.xlsx,"你已经完成了第一个实验区组

请稍作休息


点击空格键进入下一个区组。",-1.5,0,-1.5,right,LLRLL.png,,,,,0,0,0,0,3,6,78,23,,,,,,,,,,,,,,,,,,,,,,,,,,,,,,,,,,,,,,,,,,,,,,,,,,,,,,,,,,,,,,,,,,,,,,265.87589460000163,266.2780941000092,266.2595949000097,266.3589189000195,266.76148859999375,None,right,1,0.46327810001093894,266.76148859999375,None,266.2595949000097,266.3589189000195,266.3589189000195,None,267.2443715999834,None,,,,,,,11006,001,2024_Jan_01_1021,ANT,2021.2.3,60.10381130269098,
1,20,spatial,up,IC,R,,,,,,Block.xlsx,"你已经完成了第一个实验区组

请稍作休息


点击空格键进入下一个区组。",1.5,0,1.5,right,LLRLL.png,,,,,0,0,0,0,3,7,79,19,,,,,,,,,,,,,,,,,,,,,,,,,,,,,,,,,,,,,,,,,,,,,,,,,,,,,,,,,,,,,,,,,,,,,,267.64426570001524,268.0451120000216,268.02955440001097,268.1306454000296,268.52986720000627,None,right,1,0.39938159997109324,268.52986720000627,None,268.02955440001097,268.1306454000296,268.1306454000296,None,268.9460636000149,None,,,,,,,11006,001,2024_Jan_01_1021,ANT,2021.2.3,60.10381130269098,
1,4,no,up,IC,R,,,,,,Block.xlsx,"你已经完成了第一个实验区组

请稍作休息


点击空格键进入下一个区组。",50,0,1.5,right,LLRLL.png,,,,,0,0,0,0,3,8,80,3,,,,,,,,,,,,,,,,,,,,,,,,,,,,,,,,,,,,,,,,,,,,,,,,,,,,,,,,,,,,,,,,,,,,,,269.34768479998456,269.7493390000309,269.73118230002,269.8312883999897,270.23190509999404,None,right,1,0.4491985000204295,270.23190509999404,None,269.73118230002,269.8312883999897,269.8312883999897,None,270.6992651000037,None,,,,,,,11006,001,2024_Jan_01_1021,ANT,2021.2.3,60.10381130269098,
1,14,center,down,C,R,,,,,,Block.xlsx,"你已经完成了第一个实验区组

请稍作休息


点击空格键进入下一个区组。",0,50,-1.5,right,RRRRR.png,,,,,0,0,0,0,3,9,81,13,,,,,,,,,,,,,,,,,,,,,,,,,,,,,,,,,,,,,,,,,,,,,,,,,,,,,,,,,,,,,,,,,,,,,,271.0996368000051,271.50113019999117,271.4840113000246,271.58590529998764,271.9854298999999,None,right,1,0.38405520003288984,271.9854298999999,None,271.4840113000246,271.58590529998764,271.58590529998764,None,272.3850632000249,None,,,,,,,11006,001,2024_Jan_01_1021,ANT,2021.2.3,60.10381130269098,
1,12,center,up,IC,R,,,,,,Block.xlsx,"你已经完成了第一个实验区组

请稍作休息


点击空格键进入下一个区组。",0,50,1.5,right,LLRLL.png,,,,,0,0,0,0,3,10,82,11,,,,,,,,,,,,,,,,,,,,,,,,,,,,,,,,,,,,,,,,,,,,,,,,,,,,,,,,,,,,,,,,,,,,,,272.78552400000626,273.1882731000078,273.1699873000034,273.2708205000381,273.6705529000028,None,right,1,0.5305269000236876,273.6705529000028,None,273.1699873000034,273.2708205000381,273.2708205000381,None,274.2205672999844,None,,,,,,,11006,001,2024_Jan_01_1021,ANT,2021.2.3,60.10381130269098,
1,22,spatial,down,C,R,,,,,,Block.xlsx,"你已经完成了第一个实验区组

请稍作休息


点击空格键进入下一个区组。",-1.5,0,-1.5,right,RRRRR.png,,,,,0,0,0,0,3,11,83,21,,,,,,,,,,,,,,,,,,,,,,,,,,,,,,,,,,,,,,,,,,,,,,,,,,,,,,,,,,,,,,,,,,,,,,274.62148070003605,275.0222549000173,275.00603420002153,275.10640520002926,275.5068288000184,None,right,1,0.3980706000002101,275.5068288000184,None,275.00603420002153,275.10640520002926,275.10640520002926,None,275.9236222000327,None,,,,,,,11006,001,2024_Jan_01_1021,ANT,2021.2.3,60.10381130269098,
1,10,center,up,C,R,,,,,,Block.xlsx,"你已经完成了第一个实验区组

请稍作休息


点击空格键进入下一个区组。",0,50,1.5,right,RRRRR.png,,,,,0,0,0,0,3,12,84,9,,,,,,,,,,,,,,,,,,,,,,,,,,,,,,,,,,,,,,,,,,,,,,,,,,,,,,,,,,,,,,,,,,,,,,276.3239346999908,276.72643480001716,276.7084856000147,276.810006899992,277.21067599998787,None,right,1,0.3817146000219509,277.21067599998787,None,276.7084856000147,276.810006899992,276.810006899992,None,277.60906600003364,None,,,,,,,11006,001,2024_Jan_01_1021,ANT,2021.2.3,60.10381130269098,
1,9,center,up,C,L,,,,,,Block.xlsx,"你已经完成了第一个实验区组

请稍作休息


点击空格键进入下一个区组。",0,50,1.5,left,LLLLL.png,,,,,0,0,0,0,3,13,85,8,,,,,,,,,,,,,,,,,,,,,,,,,,,,,,,,,,,,,,,,,,,,,,,,,,,,,,,,,,,,,,,,,,,,,,278.0104523000191,278.4110104999854,278.3957887000288,278.493743500032,278.8950659999973,None,left,1,0.37730609998106956,278.8950659999973,None,278.3957887000288,278.493743500032,278.493743500032,None,279.2955623000162,None,,,,,,,11006,001,2024_Jan_01_1021,ANT,2021.2.3,60.10381130269098,
1,22,spatial,down,C,R,,,,,,Block.xlsx,"你已经完成了第一个实验区组

请稍作休息


点击空格键进入下一个区组。",-1.5,0,-1.5,right,RRRRR.png,,,,,0,0,0,0,3,14,86,21,,,,,,,,,,,,,,,,,,,,,,,,,,,,,,,,,,,,,,,,,,,,,,,,,,,,,,,,,,,,,,,,,,,,,,279.69564380001975,280.0968648000271,280.0801086000283,280.18168159999186,280.58027590002166,None,right,1,0.38073610002174973,280.58027590002166,None,280.0801086000283,280.18168159999186,280.18168159999186,None,280.98136770003475,None,,,,,,,11006,001,2024_Jan_01_1021,ANT,2021.2.3,60.10381130269098,
1,8,no,down,IC,R,,,,,,Block.xlsx,"你已经完成了第一个实验区组

请稍作休息


点击空格键进入下一个区组。",50,0,-1.5,right,LLRLL.png,,,,,0,0,0,0,3,15,87,7,,,,,,,,,,,,,,,,,,,,,,,,,,,,,,,,,,,,,,,,,,,,,,,,,,,,,,,,,,,,,,,,,,,,,,281.3820131000248,281.7819643000257,281.7664425999974,281.8660214000265,282.2668040000135,None,right,1,0.4619352999725379,282.2668040000135,None,281.7664425999974,281.8660214000265,281.8660214000265,None,282.74998070002766,None,,,,,,,11006,001,2024_Jan_01_1021,ANT,2021.2.3,60.10381130269098,
1,18,spatial,up,C,R,,,,,,Block.xlsx,"你已经完成了第一个实验区组

请稍作休息


点击空格键进入下一个区组。",1.5,0,1.5,right,RRRRR.png,,,,,0,0,0,0,3,16,88,17,,,,,,,,,,,,,,,,,,,,,,,,,,,,,,,,,,,,,,,,,,,,,,,,,,,,,,,,,,,,,,,,,,,,,,283.15164689999074,283.55253400001675,283.53505160001805,283.6358500000206,284.0372190999915,None,right,1,0.4192569999722764,284.0372190999915,None,283.53505160001805,283.6358500000206,283.6358500000206,None,284.4868654999882,None,,,,,,,11006,001,2024_Jan_01_1021,ANT,2021.2.3,60.10381130269098,
1,21,spatial,down,C,L,,,,,,Block.xlsx,"你已经完成了第一个实验区组

请稍作休息


点击空格键进入下一个区组。",-1.5,0,-1.5,left,LLLLL.png,,,,,0,0,0,0,3,17,89,20,,,,,,,,,,,,,,,,,,,,,,,,,,,,,,,,,,,,,,,,,,,,,,,,,,,,,,,,,,,,,,,,,,,,,,284.8864396000281,285.2891644000192,285.27112150000175,285.3725502000307,285.77161639998667,None,left,1,0.4051933999871835,285.77161639998667,None,285.27112150000175,285.3725502000307,285.3725502000307,None,286.2052906000172,None,,,,,,,11006,001,2024_Jan_01_1021,ANT,2021.2.3,60.10381130269098,
1,12,center,up,IC,R,,,,,,Block.xlsx,"你已经完成了第一个实验区组

请稍作休息


点击空格键进入下一个区组。",0,50,1.5,right,LLRLL.png,,,,,0,0,0,0,3,18,90,11,,,,,,,,,,,,,,,,,,,,,,,,,,,,,,,,,,,,,,,,,,,,,,,,,,,,,,,,,,,,,,,,,,,,,,286.6058613000205,287.00833889999194,286.9902283999836,287.09040380001534,287.4911013999954,None,right,1,0.5091616000281647,287.4911013999954,None,286.9902283999836,287.09040380001534,287.09040380001534,None,288.0245466000051,None,,,,,,,11006,001,2024_Jan_01_1021,ANT,2021.2.3,60.10381130269098,
1,1,no,up,C,L,,,,,,Block.xlsx,"你已经完成了第一个实验区组

请稍作休息


点击空格键进入下一个区组。",50,0,1.5,left,LLLLL.png,,,,,0,0,0,0,3,19,91,0,,,,,,,,,,,,,,,,,,,,,,,,,,,,,,,,,,,,,,,,,,,,,,,,,,,,,,,,,,,,,,,,,,,,,,288.4257791999844,288.82719610002823,288.80957580002723,288.90954630001215,289.3101430000388,None,left,1,0.34667940001236275,289.3101430000388,None,288.80957580002723,288.90954630001215,288.90954630001215,None,289.6770114999963,None,,,,,,,11006,001,2024_Jan_01_1021,ANT,2021.2.3,60.10381130269098,
1,14,center,down,C,R,,,,,,Block.xlsx,"你已经完成了第一个实验区组

请稍作休息


点击空格键进入下一个区组。",0,50,-1.5,right,RRRRR.png,,,,,0,0,0,0,3,20,92,13,,,,,,,,,,,,,,,,,,,,,,,,,,,,,,,,,,,,,,,,,,,,,,,,,,,,,,,,,,,,,,,,,,,,,,290.07884460000787,290.4792491000262,290.4617488000076,290.56258289999096,290.962747499987,None,right,1,0.43791000003693625,290.962747499987,None,290.4617488000076,290.56258289999096,290.56258289999096,None,291.43018850003136,None,,,,,,,11006,001,2024_Jan_01_1021,ANT,2021.2.3,60.10381130269098,
1,3,no,up,IC,L,,,,,,Block.xlsx,"你已经完成了第一个实验区组

请稍作休息


点击空格键进入下一个区组。",50,0,1.5,left,RRLRR.png,,,,,0,0,0,0,3,21,93,2,,,,,,,,,,,,,,,,,,,,,,,,,,,,,,,,,,,,,,,,,,,,,,,,,,,,,,,,,,,,,,,,,,,,,,291.83028809999814,292.2327733000275,292.2145128999837,292.31653650000226,292.7155897000339,None,left,1,0.42133570002624765,292.7155897000339,None,292.2145128999837,292.31653650000226,292.31653650000226,None,293.1655596999917,None,,,,,,,11006,001,2024_Jan_01_1021,ANT,2021.2.3,60.10381130269098,
1,20,spatial,up,IC,R,,,,,,Block.xlsx,"你已经完成了第一个实验区组

请稍作休息


点击空格键进入下一个区组。",1.5,0,1.5,right,LLRLL.png,,,,,0,0,0,0,3,22,94,19,,,,,,,,,,,,,,,,,,,,,,,,,,,,,,,,,,,,,,,,,,,,,,,,,,,,,,,,,,,,,,,,,,,,,,293.5664106000331,293.9674695000285,293.95071120001376,294.05076090001967,294.45308680000016,None,right,1,0.33940529997926205,294.45308680000016,None,293.95071120001376,294.05076090001967,294.05076090001967,None,294.81809850002173,None,,,,,,,11006,001,2024_Jan_01_1021,ANT,2021.2.3,60.10381130269098,
1,3,no,up,IC,L,,,,,,Block.xlsx,"你已经完成了第一个实验区组

请稍作休息


点击空格键进入下一个区组。",50,0,1.5,left,RRLRR.png,,,,,0,0,0,0,3,23,95,2,,,,,,,,,,,,,,,,,,,,,,,,,,,,,,,,,,,,,,,,,,,,,,,,,,,,,,,,,,,,,,,,,,,,,,295.21885850001127,295.6192244000267,295.6042998000048,295.70366490003653,296.10413410002366,None,left,1,0.36850199999753386,296.10413410002366,None,295.6042998000048,295.70366490003653,295.70366490003653,None,296.4869941000361,None,,,,,,,11006,001,2024_Jan_01_1021,ANT,2021.2.3,60.10381130269098,
,,,,,,,,,,,Block.xlsx,"你已经完成了第一个实验区组

请稍作休息


点击空格键进入下一个区组。",,,,,,,,,,0,0,0,0,,,,,,,,,,,,,,,,,,,,,,,,,,,,,,,,,,,,,,,,,,,,,,,,,,,,,,,,,,,,,,,,,,,,,,,,,,,,,,,,,,,,,,,,,,,space,3.0807106000138447,296.8874039000366,None,296.8874039000366,None,11006,001,2024_Jan_01_1021,ANT,2021.2.3,60.10381130269098,
1,20,spatial,up,IC,R,,,,,,Block.xlsx,"你已经完成了整个实验（三个区组）。

请报告实验者已完成实验

非常感谢，再见！",1.5,0,1.5,right,LLRLL.png,,,,,0,1,1,1,0,0,0,19,,,,,,,,,,,,,,,,,,,,,,,,,,,,,,,,,,,,,,,,,,,,,,,,,,,,,,,,,,,,,,,,,,,,,,300.00838030001614,300.4099173999857,300.3953129000147,300.51110360003076,300.8957831999869,None,right,1,0.5446654999977909,300.8957831999869,None,300.3953129000147,300.51110360003076,300.49397439998575,None,301.46168220002437,None,,,,,,,11006,001,2024_Jan_01_1021,ANT,2021.2.3,60.10381130269098,
1,21,spatial,down,C,L,,,,,,Block.xlsx,"你已经完成了整个实验（三个区组）。

请报告实验者已完成实验

非常感谢，再见！",-1.5,0,-1.5,left,LLLLL.png,,,,,0,1,1,1,0,1,1,20,,,,,,,,,,,,,,,,,,,,,,,,,,,,,,,,,,,,,,,,,,,,,,,,,,,,,,,,,,,,,,,,,,,,,,301.86238880001474,302.2637792000314,302.24618600000395,302.3478793000104,302.7470012999838,None,left,1,0.373420600022655,302.7470012999838,None,302.24618600000395,302.3478793000104,302.3478793000104,None,303.14698489999864,None,,,,,,,11006,001,2024_Jan_01_1021,ANT,2021.2.3,60.10381130269098,
1,16,center,down,IC,R,,,,,,Block.xlsx,"你已经完成了整个实验（三个区组）。

请报告实验者已完成实验

非常感谢，再见！",0,50,-1.5,right,LLRLL.png,,,,,0,1,1,1,0,2,2,15,,,,,,,,,,,,,,,,,,,,,,,,,,,,,,,,,,,,,,,,,,,,,,,,,,,,,,,,,,,,,,,,,,,,,,303.54756700003054,303.9489227000158,303.9325105000171,304.03300380002474,304.4341201999923,None,right,1,0.5266804000129923,304.4341201999923,None,303.9325105000171,304.03300380002474,304.03300380002474,None,304.98329880001256,None,,,,,,,11006,001,2024_Jan_01_1021,ANT,2021.2.3,60.10381130269098,
1,9,center,up,C,L,,,,,,Block.xlsx,"你已经完成了整个实验（三个区组）。

请报告实验者已完成实验

非常感谢，再见！",0,50,1.5,left,LLLLL.png,,,,,0,1,1,1,0,3,3,8,,,,,,,,,,,,,,,,,,,,,,,,,,,,,,,,,,,,,,,,,,,,,,,,,,,,,,,,,,,,,,,,,,,,,,305.3844590000226,305.7846065000049,305.76920360000804,305.8679934000247,306.26879679999547,None,left,1,0.37179160001687706,306.26879679999547,None,305.76920360000804,305.8679934000247,305.8679934000247,None,306.66916990000755,None,,,,,,,11006,001,2024_Jan_01_1021,ANT,2021.2.3,60.10381130269098,
1,12,center,up,IC,R,,,,,,Block.xlsx,"你已经完成了整个实验（三个区组）。

请报告实验者已完成实验

非常感谢，再见！",0,50,1.5,right,LLRLL.png,,,,,0,1,1,1,0,4,4,11,,,,,,,,,,,,,,,,,,,,,,,,,,,,,,,,,,,,,,,,,,,,,,,,,,,,,,,,,,,,,,,,,,,,,,307.0693058000179,307.4714064000291,307.45438589999685,307.5540895999875,307.9551165000303,None,right,1,0.421638100000564,307.9551165000303,None,307.45438589999685,307.5540895999875,307.5540895999875,None,308.40471430000616,None,,,,,,,11006,001,2024_Jan_01_1021,ANT,2021.2.3,60.10381130269098,
1,8,no,down,IC,R,,,,,,Block.xlsx,"你已经完成了整个实验（三个区组）。

请报告实验者已完成实验

非常感谢，再见！",50,0,-1.5,right,LLRLL.png,,,,,0,1,1,1,0,5,5,7,,,,,,,,,,,,,,,,,,,,,,,,,,,,,,,,,,,,,,,,,,,,,,,,,,,,,,,,,,,,,,,,,,,,,,308.8060805000132,309.20657859998755,309.1899727000273,309.2901372000342,309.690422100015,None,right,1,0.6383690999937244,309.690422100015,None,309.1899727000273,309.2901372000342,309.2901372000342,None,310.35771310003474,None,,,,,,,11006,001,2024_Jan_01_1021,ANT,2021.2.3,60.10381130269098,
1,13,center,down,C,L,,,,,,Block.xlsx,"你已经完成了整个实验（三个区组）。

请报告实验者已完成实验

非常感谢，再见！",0,50,-1.5,left,LLLLL.png,,,,,0,1,1,1,0,6,6,12,,,,,,,,,,,,,,,,,,,,,,,,,,,,,,,,,,,,,,,,,,,,,,,,,,,,,,,,,,,,,,,,,,,,,,310.758933300036,311.1598523000139,311.1438427999965,311.25988940004027,311.6439162000315,None,left,1,0.5086314000072889,311.6439162000315,None,311.1438427999965,311.25988940004027,311.24256149999565,None,312.17708920000587,None,,,,,,,11006,001,2024_Jan_01_1021,ANT,2021.2.3,60.10381130269098,
1,3,no,up,IC,L,,,,,,Block.xlsx,"你已经完成了整个实验（三个区组）。

请报告实验者已完成实验

非常感谢，再见！",50,0,1.5,left,RRLRR.png,,,,,0,1,1,1,0,7,7,2,,,,,,,,,,,,,,,,,,,,,,,,,,,,,,,,,,,,,,,,,,,,,,,,,,,,,,,,,,,,,,,,,,,,,,312.5787190999836,312.98033560003387,312.9620523999911,313.062183400034,313.4637176000397,None,left,1,0.521368200017605,313.4637176000397,None,312.9620523999911,313.062183400034,313.062183400034,None,314.01341150002554,None,,,,,,,11006,001,2024_Jan_01_1021,ANT,2021.2.3,60.10381130269098,
1,8,no,down,IC,R,,,,,,Block.xlsx,"你已经完成了整个实验（三个区组）。

请报告实验者已完成实验

非常感谢，再见！",50,0,-1.5,right,LLRLL.png,,,,,0,1,1,1,0,8,8,7,,,,,,,,,,,,,,,,,,,,,,,,,,,,,,,,,,,,,,,,,,,,,,,,,,,,,,,,,,,,,,,,,,,,,,314.4148107999936,314.81536780000897,314.7974204000202,314.8982254000148,315.29909220000263,None,right,1,0.5663815999869257,315.29909220000263,None,314.7974204000202,314.8982254000148,314.8982254000148,None,315.88228870002786,None,,,,,,,11006,001,2024_Jan_01_1021,ANT,2021.2.3,60.10381130269098,
1,4,no,up,IC,R,,,,,,Block.xlsx,"你已经完成了整个实验（三个区组）。

请报告实验者已完成实验

非常感谢，再见！",50,0,1.5,right,LLRLL.png,,,,,0,1,1,1,0,9,9,3,,,,,,,,,,,,,,,,,,,,,,,,,,,,,,,,,,,,,,,,,,,,,,,,,,,,,,,,,,,,,,,,,,,,,,316.2842130000354,316.68469790002564,316.66723359999014,316.7686614000122,317.1686020999914,None,right,1,0.48802140000043437,317.1686020999914,None,316.66723359999014,316.7686614000122,316.7686614000122,None,317.68518530001165,None,,,,,,,11006,001,2024_Jan_01_1021,ANT,2021.2.3,60.10381130269098,
1,19,spatial,up,IC,L,,,,,,Block.xlsx,"你已经完成了整个实验（三个区组）。

请报告实验者已完成实验

非常感谢，再见！",1.5,0,1.5,left,RRLRR.png,,,,,0,1,1,1,0,10,10,18,,,,,,,,,,,,,,,,,,,,,,,,,,,,,,,,,,,,,,,,,,,,,,,,,,,,,,,,,,,,,,,,,,,,,,318.0859671999933,318.4872653000057,318.47048150002956,318.5713989000069,318.97245950001525,None,left,1,0.4042757999850437,318.97245950001525,None,318.47048150002956,318.5713989000069,318.5713989000069,None,319.4045018000179,None,,,,,,,11006,001,2024_Jan_01_1021,ANT,2021.2.3,60.10381130269098,
1,19,spatial,up,IC,L,,,,,,Block.xlsx,"你已经完成了整个实验（三个区组）。

请报告实验者已完成实验

非常感谢，再见！",1.5,0,1.5,left,RRLRR.png,,,,,0,1,1,1,0,11,11,18,,,,,,,,,,,,,,,,,,,,,,,,,,,,,,,,,,,,,,,,,,,,,,,,,,,,,,,,,,,,,,,,,,,,,,319.8054344000411,320.20760190003784,320.1889307000092,320.2892314000055,320.6902584999916,None,left,1,0.40620229998603463,320.6902584999916,None,320.1889307000092,320.2892314000055,320.2892314000055,None,321.12409180001123,None,,,,,,,11006,001,2024_Jan_01_1021,ANT,2021.2.3,60.10381130269098,
1,24,spatial,down,IC,R,,,,,,Block.xlsx,"你已经完成了整个实验（三个区组）。

请报告实验者已完成实验

非常感谢，再见！",-1.5,0,-1.5,right,LLRLL.png,,,,,0,1,1,1,0,12,12,23,,,,,,,,,,,,,,,,,,,,,,,,,,,,,,,,,,,,,,,,,,,,,,,,,,,,,,,,,,,,,,,,,,,,,,321.5242761000409,321.9253829999943,321.9092685999931,322.008839600021,322.4091273000231,None,right,1,0.5031200000084937,322.4091273000231,None,321.9092685999931,322.008839600021,322.008839600021,None,322.94335590000264,None,,,,,,,11006,001,2024_Jan_01_1021,ANT,2021.2.3,60.10381130269098,
1,5,no,down,C,L,,,,,,Block.xlsx,"你已经完成了整个实验（三个区组）。

请报告实验者已完成实验

非常感谢，再见！",50,0,-1.5,left,LLLLL.png,,,,,0,1,1,1,0,13,13,4,,,,,,,,,,,,,,,,,,,,,,,,,,,,,,,,,,,,,,,,,,,,,,,,,,,,,,,,,,,,,,,,,,,,,,323.3437278000056,323.7452108000289,323.7281510999892,323.8281415000092,324.22912690002704,None,left,1,0.4433085999917239,324.22912690002704,None,323.7281510999892,323.8281415000092,323.8281415000092,None,324.6954351000022,None,,,,,,,11006,001,2024_Jan_01_1021,ANT,2021.2.3,60.10381130269098,
1,7,no,down,IC,L,,,,,,Block.xlsx,"你已经完成了整个实验（三个区组）。

请报告实验者已完成实验

非常感谢，再见！",50,0,-1.5,left,RRLRR.png,,,,,0,1,1,1,0,14,14,6,,,,,,,,,,,,,,,,,,,,,,,,,,,,,,,,,,,,,,,,,,,,,,,,,,,,,,,,,,,,,,,,,,,,,,325.09683779999614,325.49729309999384,325.4824037000071,325.5970903999987,325.98156620003283,None,left,1,0.5629823000053875,325.98156620003283,None,325.4824037000071,325.5970903999987,325.5809731000336,None,326.565697300015,None,,,,,,,11006,001,2024_Jan_01_1021,ANT,2021.2.3,60.10381130269098,
1,17,spatial,up,C,L,,,,,,Block.xlsx,"你已经完成了整个实验（三个区组）。

请报告实验者已完成实验

非常感谢，再见！",1.5,0,1.5,left,LLLLL.png,,,,,0,1,1,1,0,15,15,16,,,,,,,,,,,,,,,,,,,,,,,,,,,,,,,,,,,,,,,,,,,,,,,,,,,,,,,,,,,,,,,,,,,,,,326.96540889999596,327.3677132999874,327.3499092999846,327.44992929999717,327.85143530002097,None,left,1,0.36557510000420734,327.85143530002097,None,327.3499092999846,327.44992929999717,327.44992929999717,None,328.23405900003854,None,,,,,,,11006,001,2024_Jan_01_1021,ANT,2021.2.3,60.10381130269098,
1,5,no,down,C,L,,,,,,Block.xlsx,"你已经完成了整个实验（三个区组）。

请报告实验者已完成实验

非常感谢，再见！",50,0,-1.5,left,LLLLL.png,,,,,0,1,1,1,0,16,16,4,,,,,,,,,,,,,,,,,,,,,,,,,,,,,,,,,,,,,,,,,,,,,,,,,,,,,,,,,,,,,,,,,,,,,,328.63475229998585,329.03668290004134,329.01872829999775,329.1210024000029,329.51968090003356,None,left,1,0.5289623999851756,329.51968090003356,None,329.01872829999775,329.1210024000029,329.1210024000029,None,330.0703502999968,None,,,,,,,11006,001,2024_Jan_01_1021,ANT,2021.2.3,60.10381130269098,
1,13,center,down,C,L,,,,,,Block.xlsx,"你已经完成了整个实验（三个区组）。

请报告实验者已完成实验

非常感谢，再见！",0,50,-1.5,left,LLLLL.png,,,,,0,1,1,1,0,17,17,12,,,,,,,,,,,,,,,,,,,,,,,,,,,,,,,,,,,,,,,,,,,,,,,,,,,,,,,,,,,,,,,,,,,,,,330.4707811999833,330.8719426000025,330.85555969999405,330.95574480004143,331.3561101999949,None,left,1,0.4202186999609694,331.3561101999949,None,330.85555969999405,330.95574480004143,330.95574480004143,None,331.80644519999623,None,,,,,,,11006,001,2024_Jan_01_1021,ANT,2021.2.3,60.10381130269098,
1,17,spatial,up,C,L,,,,,,Block.xlsx,"你已经完成了整个实验（三个区组）。

请报告实验者已完成实验

非常感谢，再见！",1.5,0,1.5,left,LLLLL.png,,,,,0,1,1,1,0,18,18,16,,,,,,,,,,,,,,,,,,,,,,,,,,,,,,,,,,,,,,,,,,,,,,,,,,,,,,,,,,,,,,,,,,,,,,332.2079756000312,332.6082451000111,332.59132659999887,332.6912243000115,333.09234959998867,None,left,1,0.356642400030978,333.09234959998867,None,332.59132659999887,332.6912243000115,332.6912243000115,None,333.47525479999604,None,,,,,,,11006,001,2024_Jan_01_1021,ANT,2021.2.3,60.10381130269098,
1,14,center,down,C,R,,,,,,Block.xlsx,"你已经完成了整个实验（三个区组）。

请报告实验者已完成实验

非常感谢，再见！",0,50,-1.5,right,RRRRR.png,,,,,0,1,1,1,0,19,19,13,,,,,,,,,,,,,,,,,,,,,,,,,,,,,,,,,,,,,,,,,,,,,,,,,,,,,,,,,,,,,,,,,,,,,,333.8759696999914,334.2769968000357,334.2614578999928,334.36088709998876,334.7616401000414,None,right,1,0.4636529000126757,334.7616401000414,None,334.2614578999928,334.36088709998876,334.36088709998876,None,335.2445394000388,None,,,,,,,11006,001,2024_Jan_01_1021,ANT,2021.2.3,60.10381130269098,
1,11,center,up,IC,L,,,,,,Block.xlsx,"你已经完成了整个实验（三个区组）。

请报告实验者已完成实验

非常感谢，再见！",0,50,1.5,left,RRLRR.png,,,,,0,1,1,1,0,20,20,10,,,,,,,,,,,,,,,,,,,,,,,,,,,,,,,,,,,,,,,,,,,,,,,,,,,,,,,,,,,,,,,,,,,,,,335.64520480000647,336.0460189000005,336.0300331999897,336.1313936000224,336.530737699999,None,left,1,0.46185540000442415,336.530737699999,None,336.0300331999897,336.1313936000224,336.1313936000224,None,337.01376440003514,None,,,,,,,11006,001,2024_Jan_01_1021,ANT,2021.2.3,60.10381130269098,
1,14,center,down,C,R,,,,,,Block.xlsx,"你已经完成了整个实验（三个区组）。

请报告实验者已完成实验

非常感谢，再见！",0,50,-1.5,right,RRRRR.png,,,,,0,1,1,1,0,21,21,13,,,,,,,,,,,,,,,,,,,,,,,,,,,,,,,,,,,,,,,,,,,,,,,,,,,,,,,,,,,,,,,,,,,,,,337.4150552999927,337.8171587000252,337.79870230000233,337.90016080002533,338.29982539999764,None,right,1,0.4767305999994278,338.29982539999764,None,337.79870230000233,337.90016080002533,337.90016080002533,None,338.79969190002885,None,,,,,,,11006,001,2024_Jan_01_1021,ANT,2021.2.3,60.10381130269098,
1,9,center,up,C,L,,,,,,Block.xlsx,"你已经完成了整个实验（三个区组）。

请报告实验者已完成实验

非常感谢，再见！",0,50,1.5,left,LLLLL.png,,,,,0,1,1,1,0,22,22,8,,,,,,,,,,,,,,,,,,,,,,,,,,,,,,,,,,,,,,,,,,,,,,,,,,,,,,,,,,,,,,,,,,,,,,339.200373700005,339.602718500013,339.58490220003296,339.685092300002,340.0869432000327,None,left,1,0.346277300035581,340.0869432000327,None,339.58490220003296,339.685092300002,339.685092300002,None,340.45262920000823,None,,,,,,,11006,001,2024_Jan_01_1021,ANT,2021.2.3,60.10381130269098,
1,4,no,up,IC,R,,,,,,Block.xlsx,"你已经完成了整个实验（三个区组）。

请报告实验者已完成实验

非常感谢，再见！",50,0,1.5,right,LLRLL.png,,,,,0,1,1,1,0,23,23,3,,,,,,,,,,,,,,,,,,,,,,,,,,,,,,,,,,,,,,,,,,,,,,,,,,,,,,,,,,,,,,,,,,,,,,340.85408190003363,341.2542325000395,341.23799190000864,341.33907799998997,341.7385418000049,None,right,1,0.4858235999708995,341.7385418000049,None,341.23799190000864,341.33907799998997,341.33907799998997,None,342.25504429999273,None,,,,,,,11006,001,2024_Jan_01_1021,ANT,2021.2.3,60.10381130269098,
1,23,spatial,down,IC,L,,,,,,Block.xlsx,"你已经完成了整个实验（三个区组）。

请报告实验者已完成实验

非常感谢，再见！",-1.5,0,-1.5,left,RRLRR.png,,,,,0,1,1,1,1,0,24,22,,,,,,,,,,,,,,,,,,,,,,,,,,,,,,,,,,,,,,,,,,,,,,,,,,,,,,,,,,,,,,,,,,,,,,342.6561861000373,343.05703999998514,343.04155490000267,343.15669000003254,343.5408149000141,None,left,1,0.4755410000216216,343.5408149000141,None,343.04155490000267,343.15669000003254,343.14200960000744,None,344.0411916000303,None,,,,,,,11006,001,2024_Jan_01_1021,ANT,2021.2.3,60.10381130269098,
1,5,no,down,C,L,,,,,,Block.xlsx,"你已经完成了整个实验（三个区组）。

请报告实验者已完成实验

非常感谢，再见！",50,0,-1.5,left,LLLLL.png,,,,,0,1,1,1,1,1,25,4,,,,,,,,,,,,,,,,,,,,,,,,,,,,,,,,,,,,,,,,,,,,,,,,,,,,,,,,,,,,,,,,,,,,,,344.44222030002857,344.8428742000251,344.825909200008,344.92607450002106,345.327145999996,None,left,1,0.5215750000206754,345.327145999996,None,344.825909200008,344.92607450002106,344.92607450002106,None,345.8773101000115,None,,,,,,,11006,001,2024_Jan_01_1021,ANT,2021.2.3,60.10381130269098,
1,11,center,up,IC,L,,,,,,Block.xlsx,"你已经完成了整个实验（三个区组）。

请报告实验者已完成实验

非常感谢，再见！",0,50,1.5,left,RRLRR.png,,,,,0,1,1,1,1,2,26,10,,,,,,,,,,,,,,,,,,,,,,,,,,,,,,,,,,,,,,,,,,,,,,,,,,,,,,,,,,,,,,,,,,,,,,346.27823930000886,346.6798733000178,346.6621846000198,346.7632864000043,347.16413150000153,None,left,1,0.7562922000070103,347.16413150000153,None,346.6621846000198,346.7632864000043,346.7632864000043,None,347.9468062000233,None,,,,,,,11006,001,2024_Jan_01_1021,ANT,2021.2.3,60.10381130269098,
1,7,no,down,IC,L,,,,,,Block.xlsx,"你已经完成了整个实验（三个区组）。

请报告实验者已完成实验

非常感谢，再见！",50,0,-1.5,left,RRLRR.png,,,,,0,1,1,1,1,3,27,6,,,,,,,,,,,,,,,,,,,,,,,,,,,,,,,,,,,,,,,,,,,,,,,,,,,,,,,,,,,,,,,,,,,,,,348.34768509998685,348.75021309999283,348.73208640003577,348.83362930000294,349.232686000003,None,left,1,0.519655000010971,349.232686000003,None,348.73208640003577,348.83362930000294,348.83362930000294,None,349.7839138000272,None,,,,,,,11006,001,2024_Jan_01_1021,ANT,2021.2.3,60.10381130269098,
1,21,spatial,down,C,L,,,,,,Block.xlsx,"你已经完成了整个实验（三个区组）。

请报告实验者已完成实验

非常感谢，再见！",-1.5,0,-1.5,left,LLLLL.png,,,,,0,1,1,1,1,4,28,20,,,,,,,,,,,,,,,,,,,,,,,,,,,,,,,,,,,,,,,,,,,,,,,,,,,,,,,,,,,,,,,,,,,,,,350.18379360000836,350.5848437999957,350.5673683999921,350.667432199989,351.07087350002257,None,left,1,0.35383510001702234,351.07087350002257,None,350.5673683999921,350.667432199989,350.667432199989,None,351.45191740000155,None,,,,,,,11006,001,2024_Jan_01_1021,ANT,2021.2.3,60.10381130269098,
1,6,no,down,C,R,,,,,,Block.xlsx,"你已经完成了整个实验（三个区组）。

请报告实验者已完成实验

非常感谢，再见！",50,0,-1.5,right,RRRRR.png,,,,,0,1,1,1,1,5,29,5,,,,,,,,,,,,,,,,,,,,,,,,,,,,,,,,,,,,,,,,,,,,,,,,,,,,,,,,,,,,,,,,,,,,,,351.85341300000437,352.2543549000402,352.2374127000221,352.3372885999852,352.73779320000904,None,right,1,0.5671808999613859,352.73779320000904,None,352.2374127000221,352.3372885999852,352.3372885999852,None,353.32149860000936,None,,,,,,,11006,001,2024_Jan_01_1021,ANT,2021.2.3,60.10381130269098,
1,19,spatial,up,IC,L,,,,,,Block.xlsx,"你已经完成了整个实验（三个区组）。

请报告实验者已完成实验

非常感谢，再见！",1.5,0,1.5,left,RRLRR.png,,,,,0,1,1,1,1,6,30,18,,,,,,,,,,,,,,,,,,,,,,,,,,,,,,,,,,,,,,,,,,,,,,,,,,,,,,,,,,,,,,,,,,,,,,353.72258860000875,354.12341850000666,354.10601069999393,354.2068757000379,354.60689580003964,None,left,1,0.4017582000233233,354.60689580003964,None,354.10601069999393,354.2068757000379,354.2068757000379,None,355.02394680003636,None,,,,,,,11006,001,2024_Jan_01_1021,ANT,2021.2.3,60.10381130269098,
1,18,spatial,up,C,R,,,,,,Block.xlsx,"你已经完成了整个实验（三个区组）。

请报告实验者已完成实验

非常感谢，再见！",1.5,0,1.5,right,RRRRR.png,,,,,0,1,1,1,1,7,31,17,,,,,,,,,,,,,,,,,,,,,,,,,,,,,,,,,,,,,,,,,,,,,,,,,,,,,,,,,,,,,,,,,,,,,,355.4244120999938,355.82602380000753,355.809009300021,355.9097844000207,356.3097489000065,None,right,1,0.36332830000901595,356.3097489000065,None,355.809009300021,355.9097844000207,355.9097844000207,None,356.693171299994,None,,,,,,,11006,001,2024_Jan_01_1021,ANT,2021.2.3,60.10381130269098,
1,18,spatial,up,C,R,,,,,,Block.xlsx,"你已经完成了整个实验（三个区组）。

请报告实验者已完成实验

非常感谢，再见！",1.5,0,1.5,right,RRRRR.png,,,,,0,1,1,1,1,8,32,17,,,,,,,,,,,,,,,,,,,,,,,,,,,,,,,,,,,,,,,,,,,,,,,,,,,,,,,,,,,,,,,,,,,,,,357.0948577999952,357.4965649000369,357.4782683000085,357.579164499999,357.980261299992,None,right,1,0.34012589999474585,357.980261299992,None,357.4782683000085,357.579164499999,357.579164499999,None,358.345868400007,None,,,,,,,11006,001,2024_Jan_01_1021,ANT,2021.2.3,60.10381130269098,
1,2,no,up,C,R,,,,,,Block.xlsx,"你已经完成了整个实验（三个区组）。

请报告实验者已完成实验

非常感谢，再见！",50,0,1.5,right,RRRRR.png,,,,,0,1,1,1,1,9,33,1,,,,,,,,,,,,,,,,,,,,,,,,,,,,,,,,,,,,,,,,,,,,,,,,,,,,,,,,,,,,,,,,,,,,,,358.7462808000273,359.1485646000365,359.1307334000012,359.23052740003914,359.63225840002997,None,right,1,0.36047850002069026,359.63225840002997,None,359.1307334000012,359.23052740003914,359.23052740003914,None,360.0149083000142,None,,,,,,,11006,001,2024_Jan_01_1021,ANT,2021.2.3,60.10381130269098,
1,22,spatial,down,C,R,,,,,,Block.xlsx,"你已经完成了整个实验（三个区组）。

请报告实验者已完成实验

非常感谢，再见！",-1.5,0,-1.5,right,RRRRR.png,,,,,0,1,1,1,1,10,34,21,,,,,,,,,,,,,,,,,,,,,,,,,,,,,,,,,,,,,,,,,,,,,,,,,,,,,,,,,,,,,,,,,,,,,,360.4159183999873,360.8179938000394,360.7996654000017,360.8999446000089,361.3003294999944,None,right,1,0.3808827000320889,361.3003294999944,None,360.7996654000017,360.8999446000089,360.8999446000089,None,361.7004316000384,None,,,,,,,11006,001,2024_Jan_01_1021,ANT,2021.2.3,60.10381130269098,
1,21,spatial,down,C,L,,,,,,Block.xlsx,"你已经完成了整个实验（三个区组）。

请报告实验者已完成实验

非常感谢，再见！",-1.5,0,-1.5,left,LLLLL.png,,,,,0,1,1,1,1,11,35,20,,,,,,,,,,,,,,,,,,,,,,,,,,,,,,,,,,,,,,,,,,,,,,,,,,,,,,,,,,,,,,,,,,,,,,362.1012494000024,362.50384479999775,362.4855985000031,362.58782549999887,362.9865434000385,None,left,1,0.3672156000393443,362.9865434000385,None,362.4855985000031,362.58782549999887,362.58782549999887,None,363.3696542000398,None,,,,,,,11006,001,2024_Jan_01_1021,ANT,2021.2.3,60.10381130269098,
1,3,no,up,IC,L,,,,,,Block.xlsx,"你已经完成了整个实验（三个区组）。

请报告实验者已完成实验

非常感谢，再见！",50,0,1.5,left,RRLRR.png,,,,,0,1,1,1,1,12,36,2,,,,,,,,,,,,,,,,,,,,,,,,,,,,,,,,,,,,,,,,,,,,,,,,,,,,,,,,,,,,,,,,,,,,,,363.7709227000014,364.1727377999923,364.1548660999979,364.2549081000034,364.6552743000211,None,left,1,0.5135485999635421,364.6552743000211,None,364.1548660999979,364.2549081000034,364.2549081000034,None,365.1889840000076,None,,,,,,,11006,001,2024_Jan_01_1021,ANT,2021.2.3,60.10381130269098,
1,12,center,up,IC,R,,,,,,Block.xlsx,"你已经完成了整个实验（三个区组）。

请报告实验者已完成实验

非常感谢，再见！",0,50,1.5,right,LLRLL.png,,,,,0,1,1,1,1,13,37,11,,,,,,,,,,,,,,,,,,,,,,,,,,,,,,,,,,,,,,,,,,,,,,,,,,,,,,,,,,,,,,,,,,,,,,365.5904628999997,365.99111490004,365.97415180003736,366.07419590000063,366.47527729999274,None,right,1,0.5251077000284567,366.47527729999274,None,365.97415180003736,366.07419590000063,366.07419590000063,None,367.0250017000362,None,,,,,,,11006,001,2024_Jan_01_1021,ANT,2021.2.3,60.10381130269098,
1,17,spatial,up,C,L,,,,,,Block.xlsx,"你已经完成了整个实验（三个区组）。

请报告实验者已完成实验

非常感谢，再见！",1.5,0,1.5,left,LLLLL.png,,,,,0,1,1,1,1,14,38,16,,,,,,,,,,,,,,,,,,,,,,,,,,,,,,,,,,,,,,,,,,,,,,,,,,,,,,,,,,,,,,,,,,,,,,367.42588070000056,367.8268994000391,367.8115332000307,367.9099937999854,368.3108263000031,None,left,1,0.39362879999680445,368.3108263000031,None,367.8115332000307,367.9099937999854,367.9099937999854,None,368.72767799999565,None,,,,,,,11006,001,2024_Jan_01_1021,ANT,2021.2.3,60.10381130269098,
1,1,no,up,C,L,,,,,,Block.xlsx,"你已经完成了整个实验（三个区组）。

请报告实验者已完成实验

非常感谢，再见！",50,0,1.5,left,LLLLL.png,,,,,0,1,1,1,1,15,39,0,,,,,,,,,,,,,,,,,,,,,,,,,,,,,,,,,,,,,,,,,,,,,,,,,,,,,,,,,,,,,,,,,,,,,,369.12825410004007,369.52869489998557,369.512580300041,369.6130143000046,370.01395430002594,None,left,1,0.39490610000211746,370.01395430002594,None,369.512580300041,369.6130143000046,369.6130143000046,None,370.430008299998,None,,,,,,,11006,001,2024_Jan_01_1021,ANT,2021.2.3,60.10381130269098,
1,11,center,up,IC,L,,,,,,Block.xlsx,"你已经完成了整个实验（三个区组）。

请报告实验者已完成实验

非常感谢，再见！",0,50,1.5,left,RRLRR.png,,,,,0,1,1,1,1,16,40,10,,,,,,,,,,,,,,,,,,,,,,,,,,,,,,,,,,,,,,,,,,,,,,,,,,,,,,,,,,,,,,,,,,,,,,370.8308934000088,371.233783600037,371.2151434000116,371.3158098999993,371.7158449999988,None,left,1,0.4211043000104837,371.7158449999988,None,371.2151434000116,371.3158098999993,371.3158098999993,None,372.165999800025,None,,,,,,,11006,001,2024_Jan_01_1021,ANT,2021.2.3,60.10381130269098,
1,17,spatial,up,C,L,,,,,,Block.xlsx,"你已经完成了整个实验（三个区组）。

请报告实验者已完成实验

非常感谢，再见！",1.5,0,1.5,left,LLLLL.png,,,,,0,1,1,1,1,17,41,16,,,,,,,,,,,,,,,,,,,,,,,,,,,,,,,,,,,,,,,,,,,,,,,,,,,,,,,,,,,,,,,,,,,,,,372.5666790000396,372.96736360003706,372.95148139999947,373.0529936000239,373.4520979000372,None,left,1,0.34032730001490563,373.4520979000372,None,372.95148139999947,373.0529936000239,373.0529936000239,None,373.81939489999786,None,,,,,,,11006,001,2024_Jan_01_1021,ANT,2021.2.3,60.10381130269098,
1,8,no,down,IC,R,,,,,,Block.xlsx,"你已经完成了整个实验（三个区组）。

请报告实验者已完成实验

非常感谢，再见！",50,0,-1.5,right,LLRLL.png,,,,,0,1,1,1,1,18,42,7,,,,,,,,,,,,,,,,,,,,,,,,,,,,,,,,,,,,,,,,,,,,,,,,,,,,,,,,,,,,,,,,,,,,,,374.2187541000312,374.62181159999454,374.6029825999867,374.7039439000073,375.104418300034,None,right,1,0.6242160000256263,375.104418300034,None,374.6029825999867,374.7039439000073,374.7039439000073,None,375.75454649998574,None,,,,,,,11006,001,2024_Jan_01_1021,ANT,2021.2.3,60.10381130269098,
1,22,spatial,down,C,R,,,,,,Block.xlsx,"你已经完成了整个实验（三个区组）。

请报告实验者已完成实验

非常感谢，再见！",-1.5,0,-1.5,right,RRRRR.png,,,,,0,1,1,1,1,19,43,21,,,,,,,,,,,,,,,,,,,,,,,,,,,,,,,,,,,,,,,,,,,,,,,,,,,,,,,,,,,,,,,,,,,,,,376.1557682999992,376.5566424999852,376.5396982000093,376.6393387999851,377.0404320000089,None,right,1,0.34464679996017367,377.0404320000089,None,376.5396982000093,376.6393387999851,376.6393387999851,None,377.406977000006,None,,,,,,,11006,001,2024_Jan_01_1021,ANT,2021.2.3,60.10381130269098,
1,23,spatial,down,IC,L,,,,,,Block.xlsx,"你已经完成了整个实验（三个区组）。

请报告实验者已完成实验

非常感谢，再见！",-1.5,0,-1.5,left,RRLRR.png,,,,,0,1,1,1,1,20,44,22,,,,,,,,,,,,,,,,,,,,,,,,,,,,,,,,,,,,,,,,,,,,,,,,,,,,,,,,,,,,,,,,,,,,,,377.8082276000059,378.20954050001455,378.19211320002796,378.2924526000279,378.69433259998914,None,left,1,0.3860745000420138,378.69433259998914,None,378.19211320002796,378.2924526000279,378.2924526000279,None,379.11019710003166,None,,,,,,,11006,001,2024_Jan_01_1021,ANT,2021.2.3,60.10381130269098,
1,4,no,up,IC,R,,,,,,Block.xlsx,"你已经完成了整个实验（三个区组）。

请报告实验者已完成实验

非常感谢，再见！",50,0,1.5,right,LLRLL.png,,,,,0,1,1,1,1,21,45,3,,,,,,,,,,,,,,,,,,,,,,,,,,,,,,,,,,,,,,,,,,,,,,,,,,,,,,,,,,,,,,,,,,,,,,379.5104984000209,379.9110453000176,379.89546490000794,379.9965596999973,380.3965091999853,None,right,1,0.5881276000291109,380.3965091999853,None,379.89546490000794,379.9965596999973,379.9965596999973,None,381.01224310003454,None,,,,,,,11006,001,2024_Jan_01_1021,ANT,2021.2.3,60.10381130269098,
1,6,no,down,C,R,,,,,,Block.xlsx,"你已经完成了整个实验（三个区组）。

请报告实验者已完成实验

非常感谢，再见！",50,0,-1.5,right,RRRRR.png,,,,,0,1,1,1,1,22,46,5,,,,,,,,,,,,,,,,,,,,,,,,,,,,,,,,,,,,,,,,,,,,,,,,,,,,,,,,,,,,,,,,,,,,,,381.41358759999275,381.8141883999924,381.7975725000142,381.8975615000236,382.29935889999615,None,right,1,0.47788620000937954,382.29935889999615,None,381.7975725000142,381.8975615000236,381.8975615000236,None,382.7984204000095,None,,,,,,,11006,001,2024_Jan_01_1021,ANT,2021.2.3,60.10381130269098,
1,18,spatial,up,C,R,,,,,,Block.xlsx,"你已经完成了整个实验（三个区组）。

请报告实验者已完成实验

非常感谢，再见！",1.5,0,1.5,right,RRRRR.png,,,,,0,1,1,1,1,23,47,17,,,,,,,,,,,,,,,,,,,,,,,,,,,,,,,,,,,,,,,,,,,,,,,,,,,,,,,,,,,,,,,,,,,,,,383.19887890003156,383.60161850001896,383.5835497000371,383.68532769999,384.08461120002903,None,right,1,0.3643125999951735,384.08461120002903,None,383.5835497000371,383.68532769999,383.68532769999,None,384.46748310001567,None,,,,,,,11006,001,2024_Jan_01_1021,ANT,2021.2.3,60.10381130269098,
1,2,no,up,C,R,,,,,,Block.xlsx,"你已经完成了整个实验（三个区组）。

请报告实验者已完成实验

非常感谢，再见！",50,0,1.5,right,RRRRR.png,,,,,0,1,1,1,2,0,48,1,,,,,,,,,,,,,,,,,,,,,,,,,,,,,,,,,,,,,,,,,,,,,,,,,,,,,,,,,,,,,,,,,,,,,,384.86909649998415,385.271106900007,385.2531721999985,385.35278539999854,385.75336020003306,None,right,1,0.37511650001397356,385.75336020003306,None,385.2531721999985,385.35278539999854,385.35278539999854,None,386.15325229999144,None,,,,,,,11006,001,2024_Jan_01_1021,ANT,2021.2.3,60.10381130269098,
1,20,spatial,up,IC,R,,,,,,Block.xlsx,"你已经完成了整个实验（三个区组）。

请报告实验者已完成实验

非常感谢，再见！",1.5,0,1.5,right,LLRLL.png,,,,,0,1,1,1,2,1,49,19,,,,,,,,,,,,,,,,,,,,,,,,,,,,,,,,,,,,,,,,,,,,,,,,,,,,,,,,,,,,,,,,,,,,,,386.5544258999871,386.95489819999784,386.9384938000003,387.0381632000208,387.43966640002327,None,right,1,0.345192099979613,387.43966640002327,None,386.9384938000003,387.0381632000208,387.0381632000208,None,387.8057256999891,None,,,,,,,11006,001,2024_Jan_01_1021,ANT,2021.2.3,60.10381130269098,
1,7,no,down,IC,L,,,,,,Block.xlsx,"你已经完成了整个实验（三个区组）。

请报告实验者已完成实验

非常感谢，再见！",50,0,-1.5,left,RRLRR.png,,,,,0,1,1,1,2,2,50,6,,,,,,,,,,,,,,,,,,,,,,,,,,,,,,,,,,,,,,,,,,,,,,,,,,,,,,,,,,,,,,,,,,,,,,388.20752060000086,388.6084974000114,388.5908642000286,388.6917840000242,389.0912040999974,None,left,1,0.5343937000143342,389.0912040999974,None,388.5908642000286,388.6917840000242,388.6917840000242,None,389.6416284000152,None,,,,,,,11006,001,2024_Jan_01_1021,ANT,2021.2.3,60.10381130269098,
1,21,spatial,down,C,L,,,,,,Block.xlsx,"你已经完成了整个实验（三个区组）。

请报告实验者已完成实验

非常感谢，再见！",-1.5,0,-1.5,left,LLLLL.png,,,,,0,1,1,1,2,3,51,20,,,,,,,,,,,,,,,,,,,,,,,,,,,,,,,,,,,,,,,,,,,,,,,,,,,,,,,,,,,,,,,,,,,,,,390.0420788000338,390.44538350001676,390.4265514999861,390.52850220003165,390.92708100000164,None,left,1,0.35333849996095523,390.92708100000164,None,390.4265514999861,390.52850220003165,390.52850220003165,None,391.2944468000205,None,,,,,,,11006,001,2024_Jan_01_1021,ANT,2021.2.3,60.10381130269098,
1,12,center,up,IC,R,,,,,,Block.xlsx,"你已经完成了整个实验（三个区组）。

请报告实验者已完成实验

非常感谢，再见！",0,50,1.5,right,LLRLL.png,,,,,0,1,1,1,2,4,52,11,,,,,,,,,,,,,,,,,,,,,,,,,,,,,,,,,,,,,,,,,,,,,,,,,,,,,,,,,,,,,,,,,,,,,,391.6961014000117,392.0980748999864,392.07931500003906,392.1809755000286,392.58057859999826,None,right,1,0.5005034999921918,392.58057859999826,None,392.07931500003906,392.1809755000286,392.1809755000286,None,393.0969591999892,None,,,,,,,11006,001,2024_Jan_01_1021,ANT,2021.2.3,60.10381130269098,
1,7,no,down,IC,L,,,,,,Block.xlsx,"你已经完成了整个实验（三个区组）。

请报告实验者已完成实验

非常感谢，再见！",50,0,-1.5,left,RRLRR.png,,,,,0,1,1,1,2,5,53,6,,,,,,,,,,,,,,,,,,,,,,,,,,,,,,,,,,,,,,,,,,,,,,,,,,,,,,,,,,,,,,,,,,,,,,393.49752080003964,393.89955199998803,393.8826943000313,393.98243810003623,394.38326100003906,None,left,1,0.5538996999966912,394.38326100003906,None,393.8826943000313,393.98243810003623,393.98243810003623,None,394.966373400006,None,,,,,,,11006,001,2024_Jan_01_1021,ANT,2021.2.3,60.10381130269098,
1,10,center,up,C,R,,,,,,Block.xlsx,"你已经完成了整个实验（三个区组）。

请报告实验者已完成实验

非常感谢，再见！",0,50,1.5,right,RRRRR.png,,,,,0,1,1,1,2,6,54,9,,,,,,,,,,,,,,,,,,,,,,,,,,,,,,,,,,,,,,,,,,,,,,,,,,,,,,,,,,,,,,,,,,,,,,395.36712499998976,395.76815570000326,395.7532319999882,395.85205729998415,396.25200060004136,None,right,1,0.397061700001359,396.25200060004136,None,395.7532319999882,395.85205729998415,395.85205729998415,None,396.66876680002315,None,,,,,,,11006,001,2024_Jan_01_1021,ANT,2021.2.3,60.10381130269098,
1,23,spatial,down,IC,L,,,,,,Block.xlsx,"你已经完成了整个实验（三个区组）。

请报告实验者已完成实验

非常感谢，再见！",-1.5,0,-1.5,left,RRLRR.png,,,,,0,1,1,1,2,7,55,22,,,,,,,,,,,,,,,,,,,,,,,,,,,,,,,,,,,,,,,,,,,,,,,,,,,,,,,,,,,,,,,,,,,,,,397.0698695000028,397.47180800000206,397.4540477999835,397.5552294999943,397.9548138999962,None,left,1,0.4942093000281602,397.9548138999962,None,397.4540477999835,397.5552294999943,397.5552294999943,None,398.4717665000353,None,,,,,,,11006,001,2024_Jan_01_1021,ANT,2021.2.3,60.10381130269098,
1,15,center,down,IC,L,,,,,,Block.xlsx,"你已经完成了整个实验（三个区组）。

请报告实验者已完成实验

非常感谢，再见！",0,50,-1.5,left,RRLRR.png,,,,,0,1,1,1,2,8,56,14,,,,,,,,,,,,,,,,,,,,,,,,,,,,,,,,,,,,,,,,,,,,,,,,,,,,,,,,,,,,,,,,,,,,,,398.8729983000085,399.2746170000173,399.2565388000221,399.3572299000225,399.7588740999927,None,left,1,0.4102176000014879,399.7588740999927,None,399.2565388000221,399.3572299000225,399.3572299000225,None,400.19123930000933,None,,,,,,,11006,001,2024_Jan_01_1021,ANT,2021.2.3,60.10381130269098,
1,24,spatial,down,IC,R,,,,,,Block.xlsx,"你已经完成了整个实验（三个区组）。

请报告实验者已完成实验

非常感谢，再见！",-1.5,0,-1.5,right,LLRLL.png,,,,,0,1,1,1,2,9,57,23,,,,,,,,,,,,,,,,,,,,,,,,,,,,,,,,,,,,,,,,,,,,,,,,,,,,,,,,,,,,,,,,,,,,,,400.59142320003593,400.9929184000357,400.9754241000046,401.075619500014,401.47725210001227,None,right,1,0.4673857999732718,401.47725210001227,None,400.9754241000046,401.075619500014,401.075619500014,None,401.9602460000315,None,,,,,,,11006,001,2024_Jan_01_1021,ANT,2021.2.3,60.10381130269098,
1,14,center,down,C,R,,,,,,Block.xlsx,"你已经完成了整个实验（三个区组）。

请报告实验者已完成实验

非常感谢，再见！",0,50,-1.5,right,RRRRR.png,,,,,0,1,1,1,2,10,58,13,,,,,,,,,,,,,,,,,,,,,,,,,,,,,,,,,,,,,,,,,,,,,,,,,,,,,,,,,,,,,,,,,,,,,,402.3609744000132,402.76218640001025,402.7452351000393,402.84480160003295,403.24610190000385,None,right,1,0.36283060000278056,403.24610190000385,None,402.7452351000393,402.84480160003295,402.84480160003295,None,403.6293526000227,None,,,,,,,11006,001,2024_Jan_01_1021,ANT,2021.2.3,60.10381130269098,
1,20,spatial,up,IC,R,,,,,,Block.xlsx,"你已经完成了整个实验（三个区组）。

请报告实验者已完成实验

非常感谢，再见！",1.5,0,1.5,right,LLRLL.png,,,,,0,1,1,1,2,11,59,19,,,,,,,,,,,,,,,,,,,,,,,,,,,,,,,,,,,,,,,,,,,,,,,,,,,,,,,,,,,,,,,,,,,,,,404.02973499998916,404.4312285000342,404.4146234000218,404.51410100003704,404.9149533000309,None,right,1,0.430902199994307,404.9149533000309,None,404.4146234000218,404.51410100003704,404.51410100003704,None,405.3649787000031,None,,,,,,,11006,001,2024_Jan_01_1021,ANT,2021.2.3,60.10381130269098,
1,15,center,down,IC,L,,,,,,Block.xlsx,"你已经完成了整个实验（三个区组）。

请报告实验者已完成实验

非常感谢，再见！",0,50,-1.5,left,RRLRR.png,,,,,0,1,1,1,2,12,60,14,,,,,,,,,,,,,,,,,,,,,,,,,,,,,,,,,,,,,,,,,,,,,,,,,,,,,,,,,,,,,,,,,,,,,,405.7655173999956,406.166335100017,406.1502768000355,406.25071400002344,406.650534800021,None,left,1,0.5667541000293568,406.650534800021,None,406.1502768000355,406.25071400002344,406.25071400002344,None,407.23440570000093,None,,,,,,,11006,001,2024_Jan_01_1021,ANT,2021.2.3,60.10381130269098,
1,15,center,down,IC,L,,,,,,Block.xlsx,"你已经完成了整个实验（三个区组）。

请报告实验者已完成实验

非常感谢，再见！",0,50,-1.5,left,RRLRR.png,,,,,0,1,1,1,2,13,61,14,,,,,,,,,,,,,,,,,,,,,,,,,,,,,,,,,,,,,,,,,,,,,,,,,,,,,,,,,,,,,,,,,,,,,,407.6351483000326,408.0360911000171,408.01961960003246,408.1202791000251,408.52112490002764,None,left,1,0.48754609999014065,408.52112490002764,None,408.01961960003246,408.1202791000251,408.1202791000251,None,409.03743140003644,None,,,,,,,11006,001,2024_Jan_01_1021,ANT,2021.2.3,60.10381130269098,
1,2,no,up,C,R,,,,,,Block.xlsx,"你已经完成了整个实验（三个区组）。

请报告实验者已完成实验

非常感谢，再见！",50,0,1.5,right,RRRRR.png,,,,,0,1,1,1,2,14,62,1,,,,,,,,,,,,,,,,,,,,,,,,,,,,,,,,,,,,,,,,,,,,,,,,,,,,,,,,,,,,,,,,,,,,,,409.43819820001954,409.8399690000224,409.82233220001217,409.9228434000397,410.3234728000243,None,right,1,0.4456295000272803,410.3234728000243,None,409.82233220001217,409.9228434000397,409.9228434000397,None,410.78983730002074,None,,,,,,,11006,001,2024_Jan_01_1021,ANT,2021.2.3,60.10381130269098,
1,10,center,up,C,R,,,,,,Block.xlsx,"你已经完成了整个实验（三个区组）。

请报告实验者已完成实验

非常感谢，再见！",0,50,1.5,right,RRRRR.png,,,,,0,1,1,1,2,15,63,9,,,,,,,,,,,,,,,,,,,,,,,,,,,,,,,,,,,,,,,,,,,,,,,,,,,,,,,,,,,,,,,,,,,,,,411.1905928000342,411.59336330002407,411.5752026999835,411.6746540000313,412.07736470003147,None,right,1,0.38729460001923144,412.07736470003147,None,411.5752026999835,411.6746540000313,411.6746540000313,None,412.4924348000204,None,,,,,,,11006,001,2024_Jan_01_1021,ANT,2021.2.3,60.10381130269098,
1,14,center,down,C,R,,,,,,Block.xlsx,"你已经完成了整个实验（三个区组）。

请报告实验者已完成实验

非常感谢，再见！",0,50,-1.5,right,RRRRR.png,,,,,0,1,1,1,2,16,64,13,,,,,,,,,,,,,,,,,,,,,,,,,,,,,,,,,,,,,,,,,,,,,,,,,,,,,,,,,,,,,,,,,,,,,,412.89388200000394,413.2942279999843,413.27751149999676,413.37752510001883,413.77769270003773,None,right,1,0.39078419998986647,413.77769270003773,None,413.27751149999676,413.37752510001883,413.37752510001883,None,414.19459670002107,None,,,,,,,11006,001,2024_Jan_01_1021,ANT,2021.2.3,60.10381130269098,
1,1,no,up,C,L,,,,,,Block.xlsx,"你已经完成了整个实验（三个区组）。

请报告实验者已完成实验

非常感谢，再见！",50,0,1.5,left,LLLLL.png,,,,,0,1,1,1,2,17,65,0,,,,,,,,,,,,,,,,,,,,,,,,,,,,,,,,,,,,,,,,,,,,,,,,,,,,,,,,,,,,,,,,,,,,,,414.59559929999523,414.9961188000161,414.9809159000288,415.0961571999942,415.481983900012,None,left,1,0.3585342000005767,415.481983900012,None,414.9809159000288,415.0961571999942,415.0818478000001,None,415.8639120000298,None,,,,,,,11006,001,2024_Jan_01_1021,ANT,2021.2.3,60.10381130269098,
1,12,center,up,IC,R,,,,,,Block.xlsx,"你已经完成了整个实验（三个区组）。

请报告实验者已完成实验

非常感谢，再见！",0,50,1.5,right,LLRLL.png,,,,,0,1,1,1,2,18,66,11,,,,,,,,,,,,,,,,,,,,,,,,,,,,,,,,,,,,,,,,,,,,,,,,,,,,,,,,,,,,,,,,,,,,,,416.26466400001664,416.66596090001985,416.64844280004036,416.7507811000105,417.15028240001993,None,right,1,0.37057079997612163,417.15028240001993,None,416.64844280004036,416.7507811000105,416.7507811000105,None,417.55010400002357,None,,,,,,,11006,001,2024_Jan_01_1021,ANT,2021.2.3,60.10381130269098,
1,18,spatial,up,C,R,,,,,,Block.xlsx,"你已经完成了整个实验（三个区组）。

请报告实验者已完成实验

非常感谢，再见！",1.5,0,1.5,right,RRRRR.png,,,,,0,1,1,1,2,19,67,17,,,,,,,,,,,,,,,,,,,,,,,,,,,,,,,,,,,,,,,,,,,,,,,,,,,,,,,,,,,,,,,,,,,,,,417.9511786000221,418.3516826000414,418.33550350001315,418.4351819999865,418.8371380000026,None,right,1,0.34822599997278303,418.8371380000026,None,418.33550350001315,418.4351819999865,418.4351819999865,None,419.202266999986,None,,,,,,,11006,001,2024_Jan_01_1021,ANT,2021.2.3,60.10381130269098,
1,13,center,down,C,L,,,,,,Block.xlsx,"你已经完成了整个实验（三个区组）。

请报告实验者已完成实验

非常感谢，再见！",0,50,-1.5,left,LLLLL.png,,,,,0,1,1,1,2,20,68,12,,,,,,,,,,,,,,,,,,,,,,,,,,,,,,,,,,,,,,,,,,,,,,,,,,,,,,,,,,,,,,,,,,,,,,419.6029806000297,420.00394600001164,419.98734530003276,420.08757999999216,420.4899996999884,None,left,1,0.5027324000257067,420.4899996999884,None,419.98734530003276,420.08757999999216,420.08757999999216,None,421.0215574000031,None,,,,,,,11006,001,2024_Jan_01_1021,ANT,2021.2.3,60.10381130269098,
1,10,center,up,C,R,,,,,,Block.xlsx,"你已经完成了整个实验（三个区组）。

请报告实验者已完成实验

非常感谢，再见！",0,50,1.5,right,RRRRR.png,,,,,0,1,1,1,2,21,69,9,,,,,,,,,,,,,,,,,,,,,,,,,,,,,,,,,,,,,,,,,,,,,,,,,,,,,,,,,,,,,,,,,,,,,,421.4221114999964,421.8233629000024,421.80679260002216,421.907331000024,422.30797480000183,None,right,1,0.41323649999685585,422.30797480000183,None,421.80679260002216,421.907331000024,421.907331000024,None,422.74085500004,None,,,,,,,11006,001,2024_Jan_01_1021,ANT,2021.2.3,60.10381130269098,
1,16,center,down,IC,R,,,,,,Block.xlsx,"你已经完成了整个实验（三个区组）。

请报告实验者已完成实验

非常感谢，再见！",0,50,-1.5,right,LLRLL.png,,,,,0,1,1,1,2,22,70,15,,,,,,,,,,,,,,,,,,,,,,,,,,,,,,,,,,,,,,,,,,,,,,,,,,,,,,,,,,,,,,,,,,,,,,423.1422537000035,423.5433529000147,423.5258331000223,423.62738319998607,424.0272462000139,None,right,1,0.6301016999641433,424.0272462000139,None,423.5258331000223,423.62738319998607,423.62738319998607,None,424.67689780000364,None,,,,,,,11006,001,2024_Jan_01_1021,ANT,2021.2.3,60.10381130269098,
1,6,no,down,C,R,,,,,,Block.xlsx,"你已经完成了整个实验（三个区组）。

请报告实验者已完成实验

非常感谢，再见！",50,0,-1.5,right,RRRRR.png,,,,,0,1,1,1,2,23,71,5,,,,,,,,,,,,,,,,,,,,,,,,,,,,,,,,,,,,,,,,,,,,,,,,,,,,,,,,,,,,,,,,,,,,,,425.07886300003156,425.47862290003104,425.4635300000082,425.5625147999963,425.9647804000415,None,right,1,0.37184969999361783,425.9647804000415,None,425.4635300000082,425.5625147999963,425.5625147999963,None,426.3631164000253,None,,,,,,,11006,001,2024_Jan_01_1021,ANT,2021.2.3,60.10381130269098,
1,10,center,up,C,R,,,,,,Block.xlsx,"你已经完成了整个实验（三个区组）。

请报告实验者已完成实验

非常感谢，再见！",0,50,1.5,right,RRRRR.png,,,,,0,1,1,1,3,0,72,9,,,,,,,,,,,,,,,,,,,,,,,,,,,,,,,,,,,,,,,,,,,,,,,,,,,,,,,,,,,,,,,,,,,,,,426.7638488000375,427.16485360002844,427.1493725000182,427.2496009999886,427.6503250999958,None,right,1,0.3423338999855332,427.6503250999958,None,427.1493725000182,427.2496009999886,427.2496009999886,None,428.0152152000228,None,,,,,,,11006,001,2024_Jan_01_1021,ANT,2021.2.3,60.10381130269098,
1,13,center,down,C,L,,,,,,Block.xlsx,"你已经完成了整个实验（三个区组）。

请报告实验者已完成实验

非常感谢，再见！",0,50,-1.5,left,LLLLL.png,,,,,0,1,1,1,3,1,73,12,,,,,,,,,,,,,,,,,,,,,,,,,,,,,,,,,,,,,,,,,,,,,,,,,,,,,,,,,,,,,,,,,,,,,,428.4160144000198,428.81720610003686,428.8004711000249,428.90243260003626,429.3014025000157,None,left,1,0.44304620003094897,429.3014025000157,None,428.8004711000249,428.90243260003626,428.90243260003626,None,429.7677929000347,None,,,,,,,11006,001,2024_Jan_01_1021,ANT,2021.2.3,60.10381130269098,
1,5,no,down,C,L,,,,,,Block.xlsx,"你已经完成了整个实验（三个区组）。

请报告实验者已完成实验

非常感谢，再见！",50,0,-1.5,left,LLLLL.png,,,,,0,1,1,1,3,2,74,4,,,,,,,,,,,,,,,,,,,,,,,,,,,,,,,,,,,,,,,,,,,,,,,,,,,,,,,,,,,,,,,,,,,,,,430.16830550000304,430.56913050002186,430.55327390000457,430.65328979998594,431.0531047999975,None,left,1,0.40400969999609515,431.0531047999975,None,430.55327390000457,430.65328979998594,430.65328979998594,None,431.4878977999906,None,,,,,,,11006,001,2024_Jan_01_1021,ANT,2021.2.3,60.10381130269098,
1,2,no,up,C,R,,,,,,Block.xlsx,"你已经完成了整个实验（三个区组）。

请报告实验者已完成实验

非常感谢，再见！",50,0,1.5,right,RRRRR.png,,,,,0,1,1,1,3,3,75,1,,,,,,,,,,,,,,,,,,,,,,,,,,,,,,,,,,,,,,,,,,,,,,,,,,,,,,,,,,,,,,,,,,,,,,431.88774269999703,432.28894100000616,432.2735767000122,432.3737300999928,432.7731663000304,None,right,1,0.3717109000426717,432.7731663000304,None,432.2735767000122,432.3737300999928,432.3737300999928,None,433.17297010001494,None,,,,,,,11006,001,2024_Jan_01_1021,ANT,2021.2.3,60.10381130269098,
1,22,spatial,down,C,R,,,,,,Block.xlsx,"你已经完成了整个实验（三个区组）。

请报告实验者已完成实验

非常感谢，再见！",-1.5,0,-1.5,right,RRRRR.png,,,,,0,1,1,1,3,4,76,21,,,,,,,,,,,,,,,,,,,,,,,,,,,,,,,,,,,,,,,,,,,,,,,,,,,,,,,,,,,,,,,,,,,,,,433.5735990999965,433.9744616000098,433.95776880002813,434.059361600026,434.4586788000306,None,right,1,0.390654299990274,434.4586788000306,None,433.95776880002813,434.059361600026,434.059361600026,None,434.8755609000218,None,,,,,,,11006,001,2024_Jan_01_1021,ANT,2021.2.3,60.10381130269098,
1,15,center,down,IC,L,,,,,,Block.xlsx,"你已经完成了整个实验（三个区组）。

请报告实验者已完成实验

非常感谢，再见！",0,50,-1.5,left,RRLRR.png,,,,,0,1,1,1,3,5,77,14,,,,,,,,,,,,,,,,,,,,,,,,,,,,,,,,,,,,,,,,,,,,,,,,,,,,,,,,,,,,,,,,,,,,,,435.27600060001714,435.67667040001834,435.6601806000108,435.76235400000587,436.16136570001254,None,left,1,0.551792599959299,436.16136570001254,None,435.6601806000108,435.76235400000587,435.76235400000587,None,436.7282219000044,None,,,,,,,11006,001,2024_Jan_01_1021,ANT,2021.2.3,60.10381130269098,
1,24,spatial,down,IC,R,,,,,,Block.xlsx,"你已经完成了整个实验（三个区组）。

请报告实验者已完成实验

非常感谢，再见！",-1.5,0,-1.5,right,LLRLL.png,,,,,0,1,1,1,3,6,78,23,,,,,,,,,,,,,,,,,,,,,,,,,,,,,,,,,,,,,,,,,,,,,,,,,,,,,,,,,,,,,,,,,,,,,,437.12876440002583,437.53008820000105,437.5141436000122,437.61295590002555,438.0138991000131,None,right,1,0.4507206999696791,438.0138991000131,None,437.5141436000122,437.61295590002555,437.61295590002555,None,438.4813823000295,None,,,,,,,11006,001,2024_Jan_01_1021,ANT,2021.2.3,60.10381130269098,
1,9,center,up,C,L,,,,,,Block.xlsx,"你已经完成了整个实验（三个区组）。

请报告实验者已完成实验

非常感谢，再见！",0,50,1.5,left,LLLLL.png,,,,,0,1,1,1,3,7,79,8,,,,,,,,,,,,,,,,,,,,,,,,,,,,,,,,,,,,,,,,,,,,,,,,,,,,,,,,,,,,,,,,,,,,,,438.88140589999966,439.2826922000386,439.2661581999855,439.3676928000059,439.76633379998384,None,left,1,0.42632779997074977,439.76633379998384,None,439.2661581999855,439.3676928000059,439.3676928000059,None,440.2170540000079,None,,,,,,,11006,001,2024_Jan_01_1021,ANT,2021.2.3,60.10381130269098,
1,24,spatial,down,IC,R,,,,,,Block.xlsx,"你已经完成了整个实验（三个区组）。

请报告实验者已完成实验

非常感谢，再见！",-1.5,0,-1.5,right,LLRLL.png,,,,,0,1,1,1,3,8,80,23,,,,,,,,,,,,,,,,,,,,,,,,,,,,,,,,,,,,,,,,,,,,,,,,,,,,,,,,,,,,,,,,,,,,,,440.6180596000049,441.02062580001075,441.0015805999865,441.1039524000371,441.5022020000033,None,right,1,0.5627648999798112,441.5022020000033,None,441.0015805999865,441.1039524000371,441.1039524000371,None,442.0861473000259,None,,,,,,,11006,001,2024_Jan_01_1021,ANT,2021.2.3,60.10381130269098,
1,8,no,down,IC,R,,,,,,Block.xlsx,"你已经完成了整个实验（三个区组）。

请报告实验者已完成实验

非常感谢，再见！",50,0,-1.5,right,LLRLL.png,,,,,0,1,1,1,3,9,81,7,,,,,,,,,,,,,,,,,,,,,,,,,,,,,,,,,,,,,,,,,,,,,,,,,,,,,,,,,,,,,,,,,,,,,,442.4879560000263,442.8884713000152,442.8712833999889,442.9719308000058,443.3721162999864,None,right,1,0.4851440000347793,443.3721162999864,None,442.8712833999889,442.9719308000058,442.9719308000058,None,443.8721960000112,None,,,,,,,11006,001,2024_Jan_01_1021,ANT,2021.2.3,60.10381130269098,
1,22,spatial,down,C,R,,,,,,Block.xlsx,"你已经完成了整个实验（三个区组）。

请报告实验者已完成实验

非常感谢，再见！",-1.5,0,-1.5,right,RRRRR.png,,,,,0,1,1,1,3,10,82,21,,,,,,,,,,,,,,,,,,,,,,,,,,,,,,,,,,,,,,,,,,,,,,,,,,,,,,,,,,,,,,,,,,,,,,444.2728390999837,444.6753127000411,444.6572102000355,444.7580084000365,445.1583045999869,None,right,1,0.3391080999863334,445.1583045999869,None,444.6572102000355,444.7580084000365,444.7580084000365,None,445.52469580003526,None,,,,,,,11006,001,2024_Jan_01_1021,ANT,2021.2.3,60.10381130269098,
1,3,no,up,IC,L,,,,,,Block.xlsx,"你已经完成了整个实验（三个区组）。

请报告实验者已完成实验

非常感谢，再见！",50,0,1.5,left,RRLRR.png,,,,,0,1,1,1,3,11,83,2,,,,,,,,,,,,,,,,,,,,,,,,,,,,,,,,,,,,,,,,,,,,,,,,,,,,,,,,,,,,,,,,,,,,,,445.92628200002946,446.3279587000143,446.30933720001485,446.40996730001643,446.81125850003446,None,left,1,0.4613460000255145,446.81125850003446,None,446.30933720001485,446.40996730001643,446.40996730001643,None,447.294105100038,None,,,,,,,11006,001,2024_Jan_01_1021,ANT,2021.2.3,60.10381130269098,
1,16,center,down,IC,R,,,,,,Block.xlsx,"你已经完成了整个实验（三个区组）。

请报告实验者已完成实验

非常感谢，再见！",0,50,-1.5,right,LLRLL.png,,,,,0,1,1,1,3,12,84,15,,,,,,,,,,,,,,,,,,,,,,,,,,,,,,,,,,,,,,,,,,,,,,,,,,,,,,,,,,,,,,,,,,,,,,447.69455529999686,448.09586260002106,448.07913060003193,448.17933290003566,448.58001720003085,None,right,1,0.48474770004395396,448.58001720003085,None,448.07913060003193,448.17933290003566,448.17933290003566,None,449.07979799999157,None,,,,,,,11006,001,2024_Jan_01_1021,ANT,2021.2.3,60.10381130269098,
1,23,spatial,down,IC,L,,,,,,Block.xlsx,"你已经完成了整个实验（三个区组）。

请报告实验者已完成实验

非常感谢，再见！",-1.5,0,-1.5,left,RRLRR.png,,,,,0,1,1,1,3,13,85,22,,,,,,,,,,,,,,,,,,,,,,,,,,,,,,,,,,,,,,,,,,,,,,,,,,,,,,,,,,,,,,,,,,,,,,449.4811433000141,449.8816489999881,449.8663055000361,449.9663101999904,450.3656047999975,None,left,1,0.38683319999836385,450.3656047999975,None,449.8663055000361,449.9663101999904,449.9663101999904,None,450.78239910001867,None,,,,,,,11006,001,2024_Jan_01_1021,ANT,2021.2.3,60.10381130269098,
1,16,center,down,IC,R,,,,,,Block.xlsx,"你已经完成了整个实验（三个区组）。

请报告实验者已完成实验

非常感谢，再见！",0,50,-1.5,right,LLRLL.png,,,,,0,1,1,1,3,14,86,15,,,,,,,,,,,,,,,,,,,,,,,,,,,,,,,,,,,,,,,,,,,,,,,,,,,,,,,,,,,,,,,,,,,,,,451.18377970001893,451.58468510000966,451.5670022999984,451.6676298000384,452.06929150002543,None,right,1,0.5875210000085644,452.06929150002543,None,451.5670022999984,451.6676298000384,451.6676298000384,None,452.68526090000523,None,,,,,,,11006,001,2024_Jan_01_1021,ANT,2021.2.3,60.10381130269098,
1,6,no,down,C,R,,,,,,Block.xlsx,"你已经完成了整个实验（三个区组）。

请报告实验者已完成实验

非常感谢，再见！",50,0,-1.5,right,RRRRR.png,,,,,0,1,1,1,3,15,87,5,,,,,,,,,,,,,,,,,,,,,,,,,,,,,,,,,,,,,,,,,,,,,,,,,,,,,,,,,,,,,,,,,,,,,,453.0857577000279,453.4872756000259,453.471174300008,453.5699575000326,453.97046959999716,None,right,1,0.374098900007084,453.97046959999716,None,453.471174300008,453.5699575000326,453.5699575000326,None,454.3717367000063,None,,,,,,,11006,001,2024_Jan_01_1021,ANT,2021.2.3,60.10381130269098,
1,1,no,up,C,L,,,,,,Block.xlsx,"你已经完成了整个实验（三个区组）。

请报告实验者已完成实验

非常感谢，再见！",50,0,1.5,left,LLLLL.png,,,,,0,1,1,1,3,16,88,0,,,,,,,,,,,,,,,,,,,,,,,,,,,,,,,,,,,,,,,,,,,,,,,,,,,,,,,,,,,,,,,,,,,,,,454.77266399998916,455.173955700011,455.15556450001895,455.2576417000382,455.6581917000003,None,left,1,0.42247069999575615,455.6581917000003,None,455.15556450001895,455.2576417000382,455.2576417000382,None,456.10711280000396,None,,,,,,,11006,001,2024_Jan_01_1021,ANT,2021.2.3,60.10381130269098,
1,4,no,up,IC,R,,,,,,Block.xlsx,"你已经完成了整个实验（三个区组）。

请报告实验者已完成实验

