TrialType,TrialNumber,WarningType,TargetType,FlankerType,TargetDirection,W,f,Y,corr,imageFile,condition,endtext,Yw,Yf,Yt,Corr,imagefile,trials_3.thisRepN,trials_3.thisTrialN,trials_3.thisN,trials_3.thisIndex,trials_2.thisRepN,trials_2.thisTrialN,trials_2.thisN,trials_2.thisIndex,trials.thisRepN,trials.thisTrialN,trials.thisN,trials.thisIndex,instr.started,instr.stopped,key_resp.keys,key_resp.rt,key_resp.started,key_resp.stopped,image.started,image.stopped,key_resp_6.keys,key_resp_6.rt,key_resp_6.started,key_resp_6.stopped,EX_L.started,EX_L.stopped,AL.started,AL.stopped,key_resp_7.keys,key_resp_7.rt,key_resp_7.started,key_resp_7.stopped,EX_R.started,EX_R.stopped,RR.started,RR.stopped,key_resp_8.keys,key_resp_8.rt,key_resp_8.started,key_resp_8.stopped,image_2.started,image_2.stopped,key_resp_9.keys,key_resp_9.rt,key_resp_9.started,key_resp_9.stopped,image_3.started,image_3.stopped,key_resp_10.keys,key_resp_10.rt,key_resp_10.started,key_resp_10.stopped,fix.started,fix.stopped,war.started,war.stopped,tar.started,tar.stopped,key_resp_4.keys,key_resp_4.corr,key_resp_4.rt,key_resp_4.started,key_resp_4.stopped,fix2.started,fix2.stopped,fix_2.started,fix_2.stopped,Feedback.started,Feedback.stopped,text.started,text.stopped,key_resp_11.keys,key_resp_11.rt,key_resp_11.started,key_resp_11.stopped,key_resp_2.keys,key_resp_2.rt,key_resp_2.started,key_resp_2.stopped,text_5.started,text_5.stopped,fix2_1.started,fix2_1.stopped,Warn.started,Warn.stopped,Tar.started,Tar.stopped,key_resp_5.keys,key_resp_5.corr,key_resp_5.rt,key_resp_5.started,key_resp_5.stopped,Fix_2.started,Fix_2.stopped,fix2_2.started,fix2_2.stopped,text_4.started,text_4.stopped,key_resp_3.keys,key_resp_3.rt,key_resp_3.started,key_resp_3.stopped,text_3.started,text_3.stopped,participant,session,date,expName,psychopyVersion,frameRate,
,,,,,,,,,,,,,,,,,,,,,,,,,,,,,,9.76959480001824,None,space,2.9933639999944717,9.76959480001824,None,,,,,,,,,,,,,,,,,,,,,,,,,,,,,,,,,,,,,,,,,,,,,,,,,,,,,,,,,,,,,,,,,,,,,,,,,,,,,,,,,,,,,,,11005,001,2024_Jan_01_0924,ANT,2021.2.3,60.253087065082774,
,,,,,,,,,,,,,,,,,,,,,,,,,,,,,,,,,,,,12.790042600012384,None,space,16.612971199967433,12.790042600012384,None,,,,,,,,,,,,,,,,,,,,,,,,,,,,,,,,,,,,,,,,,,,,,,,,,,,,,,,,,,,,,,,,,,,,,,,,,,,,,,,,,11005,001,2024_Jan_01_0924,ANT,2021.2.3,60.253087065082774,
,,,,,,,,,,,,,,,,,,,,,,,,,,,,,,,,,,,,,,,,,,29.43175660003908,None,29.43175660003908,None,left,1.3478060999768786,29.43175660003908,None,,,,,,,,,,,,,,,,,,,,,,,,,,,,,,,,,,,,,,,,,,,,,,,,,,,,,,,,,,,,,,,,,,,,,,,,,11005,001,2024_Jan_01_0924,ANT,2021.2.3,60.253087065082774,
,,,,,,,,,,,,,,,,,,,,,,,,,,,,,,,,,,,,,,,,,,,,,,,,,,30.801333800016437,None,30.801333800016437,None,right,0.6417229999788105,30.801333800016437,None,,,,,,,,,,,,,,,,,,,,,,,,,,,,,,,,,,,,,,,,,,,,,,,,,,,,,,,,,,,,,,,,,11005,001,2024_Jan_01_0924,ANT,2021.2.3,60.253087065082774,
,,,,,,,,,,,,,,,,,,,,,,,,,,,,,,,,,,,,,,,,,,,,,,,,,,,,,,,,,,31.467669300036505,None,space,3.2402016000123695,31.467669300036505,None,,,,,,,,,,,,,,,,,,,,,,,,,,,,,,,,,,,,,,,,,,,,,,,,,,,,,,,,,,,11005,001,2024_Jan_01_0924,ANT,2021.2.3,60.253087065082774,
,,,,,,,,,,,,,,,,,,,,,,,,,,,,,,,,,,,,,,,,,,,,,,,,,,,,,,,,,,,,,,,,34.72270010004286,None,space,34.71267470001476,34.72270010004286,None,,,,,,,,,,,,,,,,,,,,,,,,,,,,,,,,,,,,,,,,,,,,,,,,,,,,,11005,001,2024_Jan_01_0924,ANT,2021.2.3,60.253087065082774,
0,11,spatial,down,C,L,-1.5,0,-1.5,left,LLLLL.png,,,,,,,,0,0,0,10,,,,,,,,,,,,,,,,,,,,,,,,,,,,,,,,,,,,,,,,,,,,,,,,,69.52356070000678,69.92522830003873,69.92522830003873,70.02491810003994,70.42593880003551,None,left,1,0.7141223000362515,70.42593880003551,None,69.92522830003873,70.02491810003994,70.02491810003994,None,71.1776953000226,None,,,,,,,,,,,,,,,,,,,,,,,,,,,,,,,,,,,,11005,001,2024_Jan_01_0924,ANT,2021.2.3,60.253087065082774,
0,5,center,up,C,L,0,50,1.5,left,LLLLL.png,,,,,,,,0,1,1,4,,,,,,,,,,,,,,,,,,,,,,,,,,,,,,,,,,,,,,,,,,,,,,,,,73.18033910001395,73.58180550002726,73.56359070003964,73.66439789999276,74.06480920000467,None,left,1,1.362934300035704,74.06480920000467,None,73.56359070003964,73.66439789999276,73.66439789999276,None,75.44935680000344,None,,,,,,,,,,,,,,,,,,,,,,,,,,,,,,,,,,,,11005,001,2024_Jan_01_0924,ANT,2021.2.3,60.253087065082774,
0,4,no,down,IC,L,50,0,-1.5,left,RRLRR.png,,,,,,,,0,2,2,3,,,,,,,,,,,,,,,,,,,,,,,,,,,,,,,,,,,,,,,,,,,,,,,,,77.45248470001388,77.8552354000276,77.83729039999889,77.93821880000178,78.33955289999722,None,None,0,,78.33955289999722,None,77.83729039999889,77.93821880000178,77.93821880000178,None,80.03950330003863,None,,,,,,,,,,,,,,,,,,,,,,,,,,,,,,,,,,,,11005,001,2024_Jan_01_0924,ANT,2021.2.3,60.253087065082774,
0,6,center,up,IC,R,0,50,1.5,right,LLRLL.png,,,,,,,,0,3,3,5,,,,,,,,,,,,,,,,,,,,,,,,,,,,,,,,,,,,,,,,,,,,,,,,,82.04375830001663,82.44499560003169,82.42752600001404,82.5272920000134,82.92814880004153,None,right,1,0.7071257999632508,82.92814880004153,None,82.42752600001404,82.5272920000134,82.5272920000134,None,83.6618804000318,None,,,,,,,,,,,,,,,,,,,,,,,,,,,,,,,,,,,,11005,001,2024_Jan_01_0924,ANT,2021.2.3,60.253087065082774,
0,8,center,down,IC,L,0,50,-1.5,left,RRLRR.png,,,,,,,,0,4,4,7,,,,,,,,,,,,,,,,,,,,,,,,,,,,,,,,,,,,,,,,,,,,,,,,,85.66476640000474,86.06609020003816,86.05099330004305,86.16608260001522,86.54991820000578,None,left,1,0.6216253000311553,86.54991820000578,None,86.05099330004305,86.16608260001522,86.15088160004234,None,87.20010110002477,None,,,,,,,,,,,,,,,,,,,,,,,,,,,,,,,,,,,,11005,001,2024_Jan_01_0924,ANT,2021.2.3,60.253087065082774,
0,12,spatial,down,IC,R,-1.5,0,-1.5,right,LLRLL.png,,,,,,,,0,5,5,11,,,,,,,,,,,,,,,,,,,,,,,,,,,,,,,,,,,,,,,,,,,,,,,,,89.20323810004629,89.60553180001443,89.5876336999936,89.68811740004458,90.08871899999212,None,right,1,0.45055019995197654,90.08871899999212,None,89.5876336999936,89.68811740004458,89.68811740004458,None,90.5551884000306,None,,,,,,,,,,,,,,,,,,,,,,,,,,,,,,,,,,,,11005,001,2024_Jan_01_0924,ANT,2021.2.3,60.253087065082774,
0,9,spatial,up,C,R,1.5,0,1.5,right,RRRRR.png,,,,,,,,0,6,6,8,,,,,,,,,,,,,,,,,,,,,,,,,,,,,,,,,,,,,,,,,,,,,,,,,92.55814219999593,92.95937100000447,92.94276960002026,93.04323340003612,93.44379280001158,None,right,1,0.5356438000453636,93.44379280001158,None,92.94276960002026,93.04323340003612,93.04323340003612,None,93.9935414000065,None,,,,,,,,,,,,,,,,,,,,,,,,,,,,,,,,,,,,11005,001,2024_Jan_01_0924,ANT,2021.2.3,60.253087065082774,
0,1,no,up,C,L,50,0,1.5,left,LLLLL.png,,,,,,,,0,7,7,0,,,,,,,,,,,,,,,,,,,,,,,,,,,,,,,,,,,,,,,,,,,,,,,,,95.99661150004249,96.39985250000609,96.3815476000309,96.48127330001444,96.88204009999754,None,left,1,0.5774146999465302,96.88204009999754,None,96.3815476000309,96.48127330001444,96.48127330001444,None,97.48238590004621,None,,,,,,,,,,,,,,,,,,,,,,,,,,,,,,,,,,,,11005,001,2024_Jan_01_0924,ANT,2021.2.3,60.253087065082774,
0,2,no,up,IC,R,50,0,1.5,right,LLRLL.png,,,,,,,,0,8,8,1,,,,,,,,,,,,,,,,,,,,,,,,,,,,,,,,,,,,,,,,,,,,,,,,,99.48505290003959,99.88748370000394,99.869828600029,99.97114280000096,100.37068450002698,None,right,1,0.5525339000159875,100.37068450002698,None,99.869828600029,99.97114280000096,99.97114280000096,None,100.95387430000119,None,,,,,,,,,,,,,,,,,,,,,,,,,,,,,,,,,,,,11005,001,2024_Jan_01_0924,ANT,2021.2.3,60.253087065082774,
0,3,no,down,C,R,50,0,-1.5,right,RRRRR.png,,,,,,,,0,9,9,2,,,,,,,,,,,,,,,,,,,,,,,,,,,,,,,,,,,,,,,,,,,,,,,,,102.95673460001126,103.3599367000279,103.3419586000382,103.44300150003983,103.84250080003403,None,right,1,0.3611741000204347,103.84250080003403,None,103.3419586000382,103.44300150003983,103.44300150003983,None,104.22558230004506,None,,,,,,,,,,,,,,,,,,,,,,,,,,,,,,,,,,,,11005,001,2024_Jan_01_0924,ANT,2021.2.3,60.253087065082774,
0,7,center,down,C,R,0,50,-1.5,right,RRRRR.png,,,,,,,,0,10,10,6,,,,,,,,,,,,,,,,,,,,,,,,,,,,,,,,,,,,,,,,,,,,,,,,,106.22915860003559,106.63021760003176,106.61344899999676,106.71552830003202,107.11399889999302,None,right,1,0.4980228000204079,107.11399889999302,None,106.61344899999676,106.71552830003202,106.71552830003202,None,107.63036120001925,None,,,,,,,,,,,,,,,,,,,,,,,,,,,,,,,,,,,,11005,001,2024_Jan_01_0924,ANT,2021.2.3,60.253087065082774,
0,10,spatial,up,IC,L,1.5,0,1.5,left,RRLRR.png,,,,,,,,0,11,11,9,,,,,,,,,,,,,,,,,,,,,,,,,,,,,,,,,,,,,,,,,,,,,,,,,109.634149599995,110.03504470002372,110.01807120000012,110.11861240002327,110.51911990001099,None,left,1,0.3654862999683246,110.51911990001099,None,110.01807120000012,110.11861240002327,110.11861240002327,None,110.90215110004647,None,,,,,,,,,,,,,,,,,,,,,,,,,,,,,,,,,,,,11005,001,2024_Jan_01_0924,ANT,2021.2.3,60.253087065082774,
,,,,,,,,,,,,,,,,,,,,,,,,,,,,,,,,,,,,,,,,,,,,,,,,,,,,,,,,,,,,,,,,,,,,,,,,,,,,,,,,,,,,,,,112.92216290003853,None,space,4.528893199982122,112.92216290003853,None,,,,,,,,,,,,,,,,,,,,,,,,,,,,,,11005,001,2024_Jan_01_0924,ANT,2021.2.3,60.253087065082774,
,,,,,,,,,,,,,,,,,,,,,,,,,,,,,,,,,,,,,,,,,,,,,,,,,,,,,,,,,,,,,,,,,,,,,,,,,,,,,,,,,,,,,,,,,,,,,space,2.9798987000249326,117.4791353000328,None,,,,,,,,,,,,,,,,,,,,,,,,,,11005,001,2024_Jan_01_0924,ANT,2021.2.3,60.253087065082774,
1,12,center,up,IC,R,,,,,,Block.xlsx,"你已经完成了第一个实验区组

请稍作休息


点击空格键进入下一个区组。",0,50,1.5,right,LLRLL.png,,,,,0,0,0,0,0,0,0,11,,,,,,,,,,,,,,,,,,,,,,,,,,,,,,,,,,,,,,,,,,,,,,,,,,,,,,,,,,,,,,,,,,,,117.4791353000328,None,120.51740870001959,120.91817509999964,120.90087559999665,121.00241310003912,121.40152440004749,None,right,1,0.4738098999951035,121.40152440004749,None,120.90087559999665,121.00241310003912,121.00241310003912,None,121.90165300003719,None,,,,,,,11005,001,2024_Jan_01_0924,ANT,2021.2.3,60.253087065082774,
1,13,center,down,C,L,,,,,,Block.xlsx,"你已经完成了第一个实验区组

请稍作休息


点击空格键进入下一个区组。",0,50,-1.5,left,LLLLL.png,,,,,0,0,0,0,0,1,1,12,,,,,,,,,,,,,,,,,,,,,,,,,,,,,,,,,,,,,,,,,,,,,,,,,,,,,,,,,,,,,,,,,,,,,,122.30255340004805,122.70367890002672,122.6868620000314,122.78737170004752,123.18768850003835,None,left,1,0.44007869996130466,123.18768850003835,None,122.6868620000314,122.78737170004752,122.78737170004752,None,123.6544177000178,None,,,,,,,11005,001,2024_Jan_01_0924,ANT,2021.2.3,60.253087065082774,
1,17,spatial,up,C,L,,,,,,Block.xlsx,"你已经完成了第一个实验区组

请稍作休息


点击空格键进入下一个区组。",1.5,0,1.5,left,LLLLL.png,,,,,0,0,0,0,0,2,2,16,,,,,,,,,,,,,,,,,,,,,,,,,,,,,,,,,,,,,,,,,,,,,,,,,,,,,,,,,,,,,,,,,,,,,,124.05535650003003,124.45625450002262,124.43964420002885,124.53955159999896,124.93993970000884,None,left,1,0.35199009999632835,124.93993970000884,None,124.43964420002885,124.53955159999896,124.53955159999896,None,125.30681520001963,None,,,,,,,11005,001,2024_Jan_01_0924,ANT,2021.2.3,60.253087065082774,
1,6,no,down,C,R,,,,,,Block.xlsx,"你已经完成了第一个实验区组

请稍作休息


点击空格键进入下一个区组。",50,0,-1.5,right,RRRRR.png,,,,,0,0,0,0,0,3,3,5,,,,,,,,,,,,,,,,,,,,,,,,,,,,,,,,,,,,,,,,,,,,,,,,,,,,,,,,,,,,,,,,,,,,,,125.70850070001325,126.10925900004804,126.09205219999421,126.19169579999289,126.59277000004658,None,right,1,0.4342944999807514,126.59277000004658,None,126.09205219999421,126.19169579999289,126.19169579999289,None,127.04258599999594,None,,,,,,,11005,001,2024_Jan_01_0924,ANT,2021.2.3,60.253087065082774,
1,7,no,down,IC,L,,,,,,Block.xlsx,"你已经完成了第一个实验区组

请稍作休息


点击空格键进入下一个区组。",50,0,-1.5,left,RRLRR.png,,,,,0,0,0,0,0,4,4,6,,,,,,,,,,,,,,,,,,,,,,,,,,,,,,,,,,,,,,,,,,,,,,,,,,,,,,,,,,,,,,,,,,,,,,127.44335180002963,127.84468320000451,127.82796389999567,127.92821620003087,128.3286417000345,None,left,1,0.5313726000022143,128.3286417000345,None,127.82796389999567,127.92821620003087,127.92821620003087,None,128.87977080000564,None,,,,,,,11005,001,2024_Jan_01_0924,ANT,2021.2.3,60.253087065082774,
1,1,no,up,C,L,,,,,,Block.xlsx,"你已经完成了第一个实验区组

请稍作休息


点击空格键进入下一个区组。",50,0,1.5,left,LLLLL.png,,,,,0,0,0,0,0,5,5,0,,,,,,,,,,,,,,,,,,,,,,,,,,,,,,,,,,,,,,,,,,,,,,,,,,,,,,,,,,,,,,,,,,,,,,129.27997380000306,129.68062080000527,129.6654930000077,129.76511670002947,130.16484219999984,None,left,1,0.5995242999633774,130.16484219999984,None,129.6654930000077,129.76511670002947,129.76511670002947,None,130.78203070000745,None,,,,,,,11005,001,2024_Jan_01_0924,ANT,2021.2.3,60.253087065082774,
1,9,center,up,C,L,,,,,,Block.xlsx,"你已经完成了第一个实验区组

请稍作休息


点击空格键进入下一个区组。",0,50,1.5,left,LLLLL.png,,,,,0,0,0,0,0,6,6,8,,,,,,,,,,,,,,,,,,,,,,,,,,,,,,,,,,,,,,,,,,,,,,,,,,,,,,,,,,,,,,,,,,,,,,131.1821066000266,131.5831381000462,131.5676916000084,131.66735930001596,132.06769220001297,None,left,1,0.34349329996621236,132.06769220001297,None,131.5676916000084,131.66735930001596,131.66735930001596,None,132.43476050003665,None,,,,,,,11005,001,2024_Jan_01_0924,ANT,2021.2.3,60.253087065082774,
1,8,no,down,IC,R,,,,,,Block.xlsx,"你已经完成了第一个实验区组

请稍作休息


点击空格键进入下一个区组。",50,0,-1.5,right,LLRLL.png,,,,,0,0,0,0,0,7,7,7,,,,,,,,,,,,,,,,,,,,,,,,,,,,,,,,,,,,,,,,,,,,,,,,,,,,,,,,,,,,,,,,,,,,,,132.83504370000446,133.23714090004796,133.21915030002128,133.3192484000465,133.71946890000254,None,right,1,0.5484519000165164,133.71946890000254,None,133.21915030002128,133.3192484000465,133.3192484000465,None,134.28705750004156,None,,,,,,,11005,001,2024_Jan_01_0924,ANT,2021.2.3,60.253087065082774,
1,11,center,up,IC,L,,,,,,Block.xlsx,"你已经完成了第一个实验区组

请稍作休息


点击空格键进入下一个区组。",0,50,1.5,left,RRLRR.png,,,,,0,0,0,0,0,8,8,10,,,,,,,,,,,,,,,,,,,,,,,,,,,,,,,,,,,,,,,,,,,,,,,,,,,,,,,,,,,,,,,,,,,,,,134.68734639999457,135.0892042000196,135.07229520002147,135.17320370004745,135.5727132000029,None,left,1,0.6232839000294916,135.5727132000029,None,135.07229520002147,135.17320370004745,135.17320370004745,None,136.2231895000441,None,,,,,,,11005,001,2024_Jan_01_0924,ANT,2021.2.3,60.253087065082774,
1,18,spatial,up,C,R,,,,,,Block.xlsx,"你已经完成了第一个实验区组

请稍作休息


点击空格键进入下一个区组。",1.5,0,1.5,right,RRRRR.png,,,,,0,0,0,0,0,9,9,17,,,,,,,,,,,,,,,,,,,,,,,,,,,,,,,,,,,,,,,,,,,,,,,,,,,,,,,,,,,,,,,,,,,,,,136.62357850000262,137.02445339999394,137.0079187999945,137.10990209999727,137.51057159999618,None,right,1,0.3089643999701366,137.51057159999618,None,137.0079187999945,137.10990209999727,137.10990209999727,None,137.8420644000289,None,,,,,,,11005,001,2024_Jan_01_0924,ANT,2021.2.3,60.253087065082774,
1,4,no,up,IC,R,,,,,,Block.xlsx,"你已经完成了第一个实验区组

请稍作休息


点击空格键进入下一个区组。",50,0,1.5,right,LLRLL.png,,,,,0,0,0,0,0,10,10,3,,,,,,,,,,,,,,,,,,,,,,,,,,,,,,,,,,,,,,,,,,,,,,,,,,,,,,,,,,,,,,,,,,,,,,138.24346319999313,138.64324030000716,138.62713350000558,138.7276924000471,139.12820000003558,None,right,1,0.3638428999693133,139.12820000003558,None,138.62713350000558,138.7276924000471,138.7276924000471,None,139.51113340002485,None,,,,,,,11005,001,2024_Jan_01_0924,ANT,2021.2.3,60.253087065082774,
1,14,center,down,C,R,,,,,,Block.xlsx,"你已经完成了第一个实验区组

请稍作休息


点击空格键进入下一个区组。",0,50,-1.5,right,RRRRR.png,,,,,0,0,0,0,0,11,11,13,,,,,,,,,,,,,,,,,,,,,,,,,,,,,,,,,,,,,,,,,,,,,,,,,,,,,,,,,,,,,,,,,,,,,,139.91171240003314,140.31362850003643,140.29577250004513,140.3967421000125,140.7972142000217,None,right,1,0.5021685000392608,140.7972142000217,None,140.29577250004513,140.3967421000125,140.3967421000125,None,141.31406460003927,None,,,,,,,11005,001,2024_Jan_01_0924,ANT,2021.2.3,60.253087065082774,
1,1,no,up,C,L,,,,,,Block.xlsx,"你已经完成了第一个实验区组

请稍作休息


点击空格键进入下一个区组。",50,0,1.5,left,LLLLL.png,,,,,0,0,0,0,0,12,12,0,,,,,,,,,,,,,,,,,,,,,,,,,,,,,,,,,,,,,,,,,,,,,,,,,,,,,,,,,,,,,,,,,,,,,,141.7152440000209,142.11745250003878,142.0985763000208,142.2006781999953,142.6000293000252,None,left,1,0.3392687999876216,142.6000293000252,None,142.0985763000208,142.2006781999953,142.2006781999953,None,142.96620300004724,None,,,,,,,11005,001,2024_Jan_01_0924,ANT,2021.2.3,60.253087065082774,
1,10,center,up,C,R,,,,,,Block.xlsx,"你已经完成了第一个实验区组

请稍作休息


点击空格键进入下一个区组。",0,50,1.5,right,RRRRR.png,,,,,0,0,0,0,0,13,13,9,,,,,,,,,,,,,,,,,,,,,,,,,,,,,,,,,,,,,,,,,,,,,,,,,,,,,,,,,,,,,,,,,,,,,,143.36690510000335,143.76810300000943,143.75152009999147,143.8508554000291,144.25211490003858,None,right,1,0.36812239995924756,144.25211490003858,None,143.75152009999147,143.8508554000291,143.8508554000291,None,144.63533940003254,None,,,,,,,11005,001,2024_Jan_01_0924,ANT,2021.2.3,60.253087065082774,
1,2,no,up,C,R,,,,,,Block.xlsx,"你已经完成了第一个实验区组

请稍作休息


点击空格键进入下一个区组。",50,0,1.5,right,RRRRR.png,,,,,0,0,0,0,0,14,14,1,,,,,,,,,,,,,,,,,,,,,,,,,,,,,,,,,,,,,,,,,,,,,,,,,,,,,,,,,,,,,,,,,,,,,,145.03599540004507,145.43836140003987,145.42055660003098,145.52054630004568,145.9216665000422,None,right,1,0.40214179997565225,145.9216665000422,None,145.42055660003098,145.52054630004568,145.52054630004568,None,146.35465620004106,None,,,,,,,11005,001,2024_Jan_01_0924,ANT,2021.2.3,60.253087065082774,
1,14,center,down,C,R,,,,,,Block.xlsx,"你已经完成了第一个实验区组

请稍作休息


点击空格键进入下一个区组。",0,50,-1.5,right,RRRRR.png,,,,,0,0,0,0,0,15,15,13,,,,,,,,,,,,,,,,,,,,,,,,,,,,,,,,,,,,,,,,,,,,,,,,,,,,,,,,,,,,,,,,,,,,,,146.75554330000887,147.15825860004406,147.13982300000498,147.24067400000058,147.64059980004095,None,right,1,0.45877859997563064,147.64059980004095,None,147.13982300000498,147.24067400000058,147.24067400000058,None,148.12389350001467,None,,,,,,,11005,001,2024_Jan_01_0924,ANT,2021.2.3,60.253087065082774,
1,9,center,up,C,L,,,,,,Block.xlsx,"你已经完成了第一个实验区组

请稍作休息


点击空格键进入下一个区组。",0,50,1.5,left,LLLLL.png,,,,,0,0,0,0,0,16,16,8,,,,,,,,,,,,,,,,,,,,,,,,,,,,,,,,,,,,,,,,,,,,,,,,,,,,,,,,,,,,,,,,,,,,,,148.52447840000968,148.92636070004664,148.90853489999427,149.0106572000077,149.40929820004385,None,left,1,0.40993570000864565,149.40929820004385,None,148.90853489999427,149.0106572000077,149.0106572000077,None,149.84312580002006,None,,,,,,,11005,001,2024_Jan_01_0924,ANT,2021.2.3,60.253087065082774,
1,12,center,up,IC,R,,,,,,Block.xlsx,"你已经完成了第一个实验区组

请稍作休息


点击空格键进入下一个区组。",0,50,1.5,right,LLRLL.png,,,,,0,0,0,0,0,17,17,11,,,,,,,,,,,,,,,,,,,,,,,,,,,,,,,,,,,,,,,,,,,,,,,,,,,,,,,,,,,,,,,,,,,,,,150.24482620001072,150.64517090003937,150.62844669999322,150.72844750003424,151.12901380000403,None,right,1,0.6194066000171006,151.12901380000403,None,150.62844669999322,150.72844750003424,150.72844750003424,None,151.76250650000293,None,,,,,,,11005,001,2024_Jan_01_0924,ANT,2021.2.3,60.253087065082774,
1,5,no,down,C,L,,,,,,Block.xlsx,"你已经完成了第一个实验区组

请稍作休息


点击空格键进入下一个区组。",50,0,-1.5,left,LLLLL.png,,,,,0,0,0,0,0,18,18,4,,,,,,,,,,,,,,,,,,,,,,,,,,,,,,,,,,,,,,,,,,,,,,,,,,,,,,,,,,,,,,,,,,,,,,152.16394570004195,152.5638177000219,152.54888290003873,152.6488455000217,153.0490381999989,None,left,1,0.43506230000639334,153.0490381999989,None,152.54888290003873,152.6488455000217,152.6488455000217,None,153.49847150000278,None,,,,,,,11005,001,2024_Jan_01_0924,ANT,2021.2.3,60.253087065082774,
1,11,center,up,IC,L,,,,,,Block.xlsx,"你已经完成了第一个实验区组

请稍作休息


点击空格键进入下一个区组。",0,50,1.5,left,RRLRR.png,,,,,0,0,0,0,0,19,19,10,,,,,,,,,,,,,,,,,,,,,,,,,,,,,,,,,,,,,,,,,,,,,,,,,,,,,,,,,,,,,,,,,,,,,,153.89921709999908,154.30095580004854,154.28377690003254,154.3835454999935,154.7844274000381,None,left,1,0.5712183999712579,154.7844274000381,None,154.28377690003254,154.3835454999935,154.3835454999935,None,155.3849796000286,None,,,,,,,11005,001,2024_Jan_01_0924,ANT,2021.2.3,60.253087065082774,
1,23,spatial,down,IC,L,,,,,,Block.xlsx,"你已经完成了第一个实验区组

请稍作休息


点击空格键进入下一个区组。",-1.5,0,-1.5,left,RRLRR.png,,,,,0,0,0,0,0,20,20,22,,,,,,,,,,,,,,,,,,,,,,,,,,,,,,,,,,,,,,,,,,,,,,,,,,,,,,,,,,,,,,,,,,,,,,155.7851026999997,156.18605429999297,156.1699123000144,156.26936860004207,156.67120040004374,None,left,1,0.44459919998189434,156.67120040004374,None,156.1699123000144,156.26936860004207,156.26936860004207,None,157.13744130003033,None,,,,,,,11005,001,2024_Jan_01_0924,ANT,2021.2.3,60.253087065082774,
1,1,no,up,C,L,,,,,,Block.xlsx,"你已经完成了第一个实验区组

请稍作休息


点击空格键进入下一个区组。",50,0,1.5,left,LLLLL.png,,,,,0,0,0,0,0,21,21,0,,,,,,,,,,,,,,,,,,,,,,,,,,,,,,,,,,,,,,,,,,,,,,,,,,,,,,,,,,,,,,,,,,,,,,157.5385404000408,157.94124310003826,157.92232970002806,158.02239350002492,158.42352200002642,None,left,1,0.46886999998241663,158.42352200002642,None,157.92232970002806,158.02239350002492,158.02239350002492,None,158.90649439999834,None,,,,,,,11005,001,2024_Jan_01_0924,ANT,2021.2.3,60.253087065082774,
1,22,spatial,down,C,R,,,,,,Block.xlsx,"你已经完成了第一个实验区组

请稍作休息


点击空格键进入下一个区组。",-1.5,0,-1.5,right,RRRRR.png,,,,,0,0,0,0,0,22,22,21,,,,,,,,,,,,,,,,,,,,,,,,,,,,,,,,,,,,,,,,,,,,,,,,,,,,,,,,,,,,,,,,,,,,,,159.30784790002508,159.70998600003077,159.69180770003004,159.7926398999989,160.19302390003577,None,right,1,0.4422908999840729,160.19302390003577,None,159.69180770003004,159.7926398999989,159.7926398999989,None,160.65929969999706,None,,,,,,,11005,001,2024_Jan_01_0924,ANT,2021.2.3,60.253087065082774,
1,9,center,up,C,L,,,,,,Block.xlsx,"你已经完成了第一个实验区组

请稍作休息


点击空格键进入下一个区组。",0,50,1.5,left,LLLLL.png,,,,,0,0,0,0,0,23,23,8,,,,,,,,,,,,,,,,,,,,,,,,,,,,,,,,,,,,,,,,,,,,,,,,,,,,,,,,,,,,,,,,,,,,,,161.06025570002384,161.4623015000252,161.4442696000333,161.54476810002234,161.94572060002247,None,left,1,0.40213550004409626,161.94572060002247,None,161.4442696000333,161.54476810002234,161.54476810002234,None,162.3783448000322,None,,,,,,,11005,001,2024_Jan_01_0924,ANT,2021.2.3,60.253087065082774,
1,3,no,up,IC,L,,,,,,Block.xlsx,"你已经完成了第一个实验区组

请稍作休息


点击空格键进入下一个区组。",50,0,1.5,left,RRLRR.png,,,,,0,0,0,0,1,0,24,2,,,,,,,,,,,,,,,,,,,,,,,,,,,,,,,,,,,,,,,,,,,,,,,,,,,,,,,,,,,,,,,,,,,,,,162.77999280003132,163.18033550004475,163.16479820001405,163.26585020002676,163.66362170001958,None,left,1,0.45963850000407547,163.66362170001958,None,163.16479820001405,163.26585020002676,163.26585020002676,None,164.1483925000066,None,,,,,,,11005,001,2024_Jan_01_0924,ANT,2021.2.3,60.253087065082774,
1,23,spatial,down,IC,L,,,,,,Block.xlsx,"你已经完成了第一个实验区组

请稍作休息


点击空格键进入下一个区组。",-1.5,0,-1.5,left,RRLRR.png,,,,,0,0,0,0,1,1,25,22,,,,,,,,,,,,,,,,,,,,,,,,,,,,,,,,,,,,,,,,,,,,,,,,,,,,,,,,,,,,,,,,,,,,,,164.54844040004537,164.95037350000348,164.93278580001788,165.03211600001669,165.43336950003868,None,left,1,0.44187300000339746,165.43336950003868,None,164.93278580001788,165.03211600001669,165.03211600001669,None,165.90030910004862,None,,,,,,,11005,001,2024_Jan_01_0924,ANT,2021.2.3,60.253087065082774,
1,10,center,up,C,R,,,,,,Block.xlsx,"你已经完成了第一个实验区组

请稍作休息


点击空格键进入下一个区组。",0,50,1.5,right,RRRRR.png,,,,,0,0,0,0,1,2,26,9,,,,,,,,,,,,,,,,,,,,,,,,,,,,,,,,,,,,,,,,,,,,,,,,,,,,,,,,,,,,,,,,,,,,,,166.3016048000427,166.70349899999565,166.6856198000023,166.7867221000488,167.1866022000322,None,right,1,0.38582069997210056,167.1866022000322,None,166.6856198000023,166.7867221000488,166.7867221000488,None,167.58611790003488,None,,,,,,,11005,001,2024_Jan_01_0924,ANT,2021.2.3,60.253087065082774,
1,16,center,down,IC,R,,,,,,Block.xlsx,"你已经完成了第一个实验区组

请稍作休息


点击空格键进入下一个区组。",0,50,-1.5,right,LLRLL.png,,,,,0,0,0,0,1,3,27,15,,,,,,,,,,,,,,,,,,,,,,,,,,,,,,,,,,,,,,,,,,,,,,,,,,,,,,,,,,,,,,,,,,,,,,167.98702970001614,168.3883733000257,168.372994400037,168.4714886000147,168.87218390003545,None,right,1,0.6112197000184096,168.87218390003545,None,168.372994400037,168.4714886000147,168.4714886000147,None,169.5056193000055,None,,,,,,,11005,001,2024_Jan_01_0924,ANT,2021.2.3,60.253087065082774,
1,24,spatial,down,IC,R,,,,,,Block.xlsx,"你已经完成了第一个实验区组

请稍作休息


点击空格键进入下一个区组。",-1.5,0,-1.5,right,LLRLL.png,,,,,0,0,0,0,1,4,28,23,,,,,,,,,,,,,,,,,,,,,,,,,,,,,,,,,,,,,,,,,,,,,,,,,,,,,,,,,,,,,,,,,,,,,,169.9062014000374,170.30801080004312,170.29151360003743,170.39095000003,170.79194180003833,None,right,1,0.47531419998267666,170.79194180003833,None,170.29151360003743,170.39095000003,170.39095000003,None,171.29167340003187,None,,,,,,,11005,001,2024_Jan_01_0924,ANT,2021.2.3,60.253087065082774,
1,19,spatial,up,IC,L,,,,,,Block.xlsx,"你已经完成了第一个实验区组

请稍作休息


点击空格键进入下一个区组。",1.5,0,1.5,left,RRLRR.png,,,,,0,0,0,0,1,5,29,18,,,,,,,,,,,,,,,,,,,,,,,,,,,,,,,,,,,,,,,,,,,,,,,,,,,,,,,,,,,,,,,,,,,,,,171.6926251000259,172.09305780002614,172.077787599992,172.17696410004282,172.57803820003755,None,left,1,0.42519219999667257,172.57803820003755,None,172.077787599992,172.17696410004282,172.17696410004282,None,173.02704970003106,None,,,,,,,11005,001,2024_Jan_01_0924,ANT,2021.2.3,60.253087065082774,
1,17,spatial,up,C,L,,,,,,Block.xlsx,"你已经完成了第一个实验区组

请稍作休息


点击空格键进入下一个区组。",1.5,0,1.5,left,LLLLL.png,,,,,0,0,0,0,1,6,30,16,,,,,,,,,,,,,,,,,,,,,,,,,,,,,,,,,,,,,,,,,,,,,,,,,,,,,,,,,,,,,,,,,,,,,,173.42835020000348,173.82977330003632,173.81202130002202,173.91437330003828,174.31277310004225,None,left,1,0.378529499983415,174.31277310004225,None,173.81202130002202,173.91437330003828,173.91437330003828,None,174.71357530000387,None,,,,,,,11005,001,2024_Jan_01_0924,ANT,2021.2.3,60.253087065082774,
1,24,spatial,down,IC,R,,,,,,Block.xlsx,"你已经完成了第一个实验区组

请稍作休息


点击空格键进入下一个区组。",-1.5,0,-1.5,right,LLRLL.png,,,,,0,0,0,0,1,7,31,23,,,,,,,,,,,,,,,,,,,,,,,,,,,,,,,,,,,,,,,,,,,,,,,,,,,,,,,,,,,,,,,,,,,,,,175.11404290003702,175.5160656000371,175.49820170004386,175.59917350002797,175.99866000004113,None,right,1,0.4534760999958962,175.99866000004113,None,175.49820170004386,175.59917350002797,175.59917350002797,None,176.48331610002788,None,,,,,,,11005,001,2024_Jan_01_0924,ANT,2021.2.3,60.253087065082774,
1,20,spatial,up,IC,R,,,,,,Block.xlsx,"你已经完成了第一个实验区组

请稍作休息


点击空格键进入下一个区组。",1.5,0,1.5,right,LLRLL.png,,,,,0,0,0,0,1,8,32,19,,,,,,,,,,,,,,,,,,,,,,,,,,,,,,,,,,,,,,,,,,,,,,,,,,,,,,,,,,,,,,,,,,,,,,176.8838813000475,177.28594990004785,177.26822970004287,177.36907469999278,177.76895370002603,None,right,1,0.4983751999679953,177.76895370002603,None,177.26822970004287,177.36907469999278,177.36907469999278,None,178.28523580002366,None,,,,,,,11005,001,2024_Jan_01_0924,ANT,2021.2.3,60.253087065082774,
1,7,no,down,IC,L,,,,,,Block.xlsx,"你已经完成了第一个实验区组

请稍作休息


点击空格键进入下一个区组。",50,0,-1.5,left,RRLRR.png,,,,,0,0,0,0,1,9,33,6,,,,,,,,,,,,,,,,,,,,,,,,,,,,,,,,,,,,,,,,,,,,,,,,,,,,,,,,,,,,,,,,,,,,,,178.68680500000482,179.0871146999998,179.0707037000102,179.17105679999804,179.5716245000367,None,left,1,0.5844568999600597,179.5716245000367,None,179.0707037000102,179.17105679999804,179.17105679999804,None,180.17154830001527,None,,,,,,,11005,001,2024_Jan_01_0924,ANT,2021.2.3,60.253087065082774,
1,16,center,down,IC,R,,,,,,Block.xlsx,"你已经完成了第一个实验区组

请稍作休息


点击空格键进入下一个区组。",0,50,-1.5,right,LLRLL.png,,,,,0,0,0,0,1,10,34,15,,,,,,,,,,,,,,,,,,,,,,,,,,,,,,,,,,,,,,,,,,,,,,,,,,,,,,,,,,,,,,,,,,,,,,180.5731184000033,180.9739957000129,180.9560934000183,181.05651070002932,181.45867419999558,None,right,1,0.52898170001572,181.45867419999558,None,180.9560934000183,181.05651070002932,181.05651070002932,None,182.00839420000557,None,,,,,,,11005,001,2024_Jan_01_0924,ANT,2021.2.3,60.253087065082774,
1,19,spatial,up,IC,L,,,,,,Block.xlsx,"你已经完成了第一个实验区组

请稍作休息


点击空格键进入下一个区组。",1.5,0,1.5,left,RRLRR.png,,,,,0,0,0,0,1,11,35,18,,,,,,,,,,,,,,,,,,,,,,,,,,,,,,,,,,,,,,,,,,,,,,,,,,,,,,,,,,,,,,,,,,,,,,182.40825169999152,182.80992170004174,182.79245410003932,182.89268390001962,183.29500560002634,None,left,1,0.4768428999814205,183.29500560002634,None,182.79245410003932,182.89268390001962,182.89268390001962,None,183.79353500000434,None,,,,,,,11005,001,2024_Jan_01_0924,ANT,2021.2.3,60.253087065082774,
1,10,center,up,C,R,,,,,,Block.xlsx,"你已经完成了第一个实验区组

请稍作休息


点击空格键进入下一个区组。",0,50,1.5,right,RRRRR.png,,,,,0,0,0,0,1,12,36,9,,,,,,,,,,,,,,,,,,,,,,,,,,,,,,,,,,,,,,,,,,,,,,,,,,,,,,,,,,,,,,,,,,,,,,184.19412410003133,184.5956439000438,184.5781444000313,184.67936690000352,185.08098880003672,None,right,1,0.3628280999837443,185.08098880003672,None,184.5781444000313,184.67936690000352,184.67936690000352,None,185.46335720003117,None,,,,,,,11005,001,2024_Jan_01_0924,ANT,2021.2.3,60.253087065082774,
1,3,no,up,IC,L,,,,,,Block.xlsx,"你已经完成了第一个实验区组

请稍作休息


点击空格键进入下一个区组。",50,0,1.5,left,RRLRR.png,,,,,0,0,0,0,1,13,37,2,,,,,,,,,,,,,,,,,,,,,,,,,,,,,,,,,,,,,,,,,,,,,,,,,,,,,,,,,,,,,,,,,,,,,,185.864017600019,186.2645567000145,186.24711759999627,186.34813320002286,186.74895470001502,None,left,1,0.49476189998677,186.74895470001502,None,186.24711759999627,186.34813320002286,186.34813320002286,None,187.26576460001525,None,,,,,,,11005,001,2024_Jan_01_0924,ANT,2021.2.3,60.253087065082774,
1,21,spatial,down,C,L,,,,,,Block.xlsx,"你已经完成了第一个实验区组

请稍作休息


点击空格键进入下一个区组。",-1.5,0,-1.5,left,LLLLL.png,,,,,0,0,0,0,1,14,38,20,,,,,,,,,,,,,,,,,,,,,,,,,,,,,,,,,,,,,,,,,,,,,,,,,,,,,,,,,,,,,,,,,,,,,,187.66595630004304,188.0681035000016,188.0497202000115,188.15014750004048,188.5522803000058,None,left,1,0.347601699992083,188.5522803000058,None,188.0497202000115,188.15014750004048,188.15014750004048,None,188.917782500037,None,,,,,,,11005,001,2024_Jan_01_0924,ANT,2021.2.3,60.253087065082774,
1,16,center,down,IC,R,,,,,,Block.xlsx,"你已经完成了第一个实验区组

请稍作休息


点击空格键进入下一个区组。",0,50,-1.5,right,LLRLL.png,,,,,0,0,0,0,1,15,39,15,,,,,,,,,,,,,,,,,,,,,,,,,,,,,,,,,,,,,,,,,,,,,,,,,,,,,,,,,,,,,,,,,,,,,,189.31840920000104,189.7195663000457,189.70331110002007,189.80363149999175,190.20495169999776,None,right,1,0.526628100022208,190.20495169999776,None,189.70331110002007,189.80363149999175,189.80363149999175,None,190.7544664000161,None,,,,,,,11005,001,2024_Jan_01_0924,ANT,2021.2.3,60.253087065082774,
1,6,no,down,C,R,,,,,,Block.xlsx,"你已经完成了第一个实验区组

请稍作休息


点击空格键进入下一个区组。",50,0,-1.5,right,RRRRR.png,,,,,0,0,0,0,1,16,40,5,,,,,,,,,,,,,,,,,,,,,,,,,,,,,,,,,,,,,,,,,,,,,,,,,,,,,,,,,,,,,,,,,,,,,,191.154577600013,191.55566010001348,191.53933380002854,191.640862500004,192.03960630000802,None,right,1,0.38017279998166487,192.03960630000802,None,191.53933380002854,191.640862500004,191.640862500004,None,192.44054850004613,None,,,,,,,11005,001,2024_Jan_01_0924,ANT,2021.2.3,60.253087065082774,
1,4,no,up,IC,R,,,,,,Block.xlsx,"你已经完成了第一个实验区组

请稍作休息


点击空格键进入下一个区组。",50,0,1.5,right,LLRLL.png,,,,,0,0,0,0,1,17,41,3,,,,,,,,,,,,,,,,,,,,,,,,,,,,,,,,,,,,,,,,,,,,,,,,,,,,,,,,,,,,,,,,,,,,,,192.8413894000114,193.24222860002192,193.22414230002323,193.32499839999946,193.72713450004812,None,right,1,0.5562083000550047,193.72713450004812,None,193.22414230002323,193.32499839999946,193.32499839999946,None,194.30886859999737,None,,,,,,,11005,001,2024_Jan_01_0924,ANT,2021.2.3,60.253087065082774,
1,3,no,up,IC,L,,,,,,Block.xlsx,"你已经完成了第一个实验区组

请稍作休息


点击空格键进入下一个区组。",50,0,1.5,left,RRLRR.png,,,,,0,0,0,0,1,18,42,2,,,,,,,,,,,,,,,,,,,,,,,,,,,,,,,,,,,,,,,,,,,,,,,,,,,,,,,,,,,,,,,,,,,,,,194.70988880004734,195.1111094999942,195.0935746000032,195.19483170000603,195.59503359999508,None,left,1,0.5130314000416547,195.59503359999508,None,195.0935746000032,195.19483170000603,195.19483170000603,None,196.128480400017,None,,,,,,,11005,001,2024_Jan_01_0924,ANT,2021.2.3,60.253087065082774,
1,2,no,up,C,R,,,,,,Block.xlsx,"你已经完成了第一个实验区组

请稍作休息


点击空格键进入下一个区组。",50,0,1.5,right,RRRRR.png,,,,,0,0,0,0,1,19,43,1,,,,,,,,,,,,,,,,,,,,,,,,,,,,,,,,,,,,,,,,,,,,,,,,,,,,,,,,,,,,,,,,,,,,,,196.52899330004584,196.93149670003913,196.9134612000198,197.0144693000475,197.41427380003734,None,right,1,0.645166700007394,197.41427380003734,None,196.9134612000198,197.0144693000475,197.0144693000475,None,198.08162020001328,None,,,,,,,11005,001,2024_Jan_01_0924,ANT,2021.2.3,60.253087065082774,
1,5,no,down,C,L,,,,,,Block.xlsx,"你已经完成了第一个实验区组

请稍作休息


点击空格键进入下一个区组。",50,0,-1.5,left,LLLLL.png,,,,,0,0,0,0,1,20,44,4,,,,,,,,,,,,,,,,,,,,,,,,,,,,,,,,,,,,,,,,,,,,,,,,,,,,,,,,,,,,,,,,,,,,,,198.4826762000448,198.8832192000118,198.86739020003006,198.9679094000021,199.36942540004384,None,left,1,0.45813310000812635,199.36942540004384,None,198.86739020003006,198.9679094000021,198.9679094000021,None,199.85063659999287,None,,,,,,,11005,001,2024_Jan_01_0924,ANT,2021.2.3,60.253087065082774,
1,8,no,down,IC,R,,,,,,Block.xlsx,"你已经完成了第一个实验区组

请稍作休息


点击空格键进入下一个区组。",50,0,-1.5,right,LLRLL.png,,,,,0,0,0,0,1,21,45,7,,,,,,,,,,,,,,,,,,,,,,,,,,,,,,,,,,,,,,,,,,,,,,,,,,,,,,,,,,,,,,,,,,,,,,200.25123530003475,200.65198730002157,200.63497710000956,200.73608120001154,201.13651060004486,None,right,1,0.5153556999866851,201.13651060004486,None,200.63497710000956,200.73608120001154,200.73608120001154,None,201.66991140000755,None,,,,,,,11005,001,2024_Jan_01_0924,ANT,2021.2.3,60.253087065082774,
1,11,center,up,IC,L,,,,,,Block.xlsx,"你已经完成了第一个实验区组

请稍作休息


点击空格键进入下一个区组。",0,50,1.5,left,RRLRR.png,,,,,0,0,0,0,1,22,46,10,,,,,,,,,,,,,,,,,,,,,,,,,,,,,,,,,,,,,,,,,,,,,,,,,,,,,,,,,,,,,,,,,,,,,,202.07058950001374,202.47316190000856,202.45477640000172,202.55559110001195,202.9578170000459,None,left,1,0.43820519995642826,202.9578170000459,None,202.45477640000172,202.55559110001195,202.55559110001195,None,203.4234835000243,None,,,,,,,11005,001,2024_Jan_01_0924,ANT,2021.2.3,60.253087065082774,
1,13,center,down,C,L,,,,,,Block.xlsx,"你已经完成了第一个实验区组

请稍作休息


点击空格键进入下一个区组。",0,50,-1.5,left,LLLLL.png,,,,,0,0,0,0,1,23,47,12,,,,,,,,,,,,,,,,,,,,,,,,,,,,,,,,,,,,,,,,,,,,,,,,,,,,,,,,,,,,,,,,,,,,,,203.8241954999976,204.22434890002478,204.20707480004057,204.30786110000918,204.70916230004514,None,left,1,0.45473349996609613,204.70916230004514,None,204.20707480004057,204.30786110000918,204.30786110000918,None,205.1921030000085,None,,,,,,,11005,001,2024_Jan_01_0924,ANT,2021.2.3,60.253087065082774,
1,17,spatial,up,C,L,,,,,,Block.xlsx,"你已经完成了第一个实验区组

请稍作休息


点击空格键进入下一个区组。",1.5,0,1.5,left,LLLLL.png,,,,,0,0,0,0,2,0,48,16,,,,,,,,,,,,,,,,,,,,,,,,,,,,,,,,,,,,,,,,,,,,,,,,,,,,,,,,,,,,,,,,,,,,,,205.59319440001855,205.99389630003134,205.97733510000398,206.07702120003523,206.4771943000378,None,left,1,0.350722000002861,206.4771943000378,None,205.97733510000398,206.07702120003523,206.07702120003523,None,206.84419289999641,None,,,,,,,11005,001,2024_Jan_01_0924,ANT,2021.2.3,60.253087065082774,
1,8,no,down,IC,R,,,,,,Block.xlsx,"你已经完成了第一个实验区组

请稍作休息


点击空格键进入下一个区组。",50,0,-1.5,right,LLRLL.png,,,,,0,0,0,0,2,1,49,7,,,,,,,,,,,,,,,,,,,,,,,,,,,,,,,,,,,,,,,,,,,,,,,,,,,,,,,,,,,,,,,,,,,,,,207.24489490000997,207.64789510000264,207.6305600000196,207.73001810000278,208.13007020001533,None,right,1,0.5457336000399664,208.13007020001533,None,207.6305600000196,207.73001810000278,207.73001810000278,None,208.69701720000012,None,,,,,,,11005,001,2024_Jan_01_0924,ANT,2021.2.3,60.253087065082774,
1,20,spatial,up,IC,R,,,,,,Block.xlsx,"你已经完成了第一个实验区组

请稍作休息


点击空格键进入下一个区组。",1.5,0,1.5,right,LLRLL.png,,,,,0,0,0,0,2,2,50,19,,,,,,,,,,,,,,,,,,,,,,,,,,,,,,,,,,,,,,,,,,,,,,,,,,,,,,,,,,,,,,,,,,,,,,209.09770650003338,209.49935620004544,209.4825392999919,209.58248159999494,209.98283470002934,None,right,1,0.4286203000228852,209.98283470002934,None,209.4825392999919,209.58248159999494,209.58248159999494,None,210.432919999992,None,,,,,,,11005,001,2024_Jan_01_0924,ANT,2021.2.3,60.253087065082774,
1,16,center,down,IC,R,,,,,,Block.xlsx,"你已经完成了第一个实验区组

请稍作休息


点击空格键进入下一个区组。",0,50,-1.5,right,LLRLL.png,,,,,0,0,0,0,2,3,51,15,,,,,,,,,,,,,,,,,,,,,,,,,,,,,,,,,,,,,,,,,,,,,,,,,,,,,,,,,,,,,,,,,,,,,,210.83457550004823,211.23631250002654,211.21757919999072,211.31837550003547,211.71928900002968,None,right,1,0.6203841000096872,211.71928900002968,None,211.21757919999072,211.31837550003547,211.31837550003547,None,212.36914329999126,None,,,,,,,11005,001,2024_Jan_01_0924,ANT,2021.2.3,60.253087065082774,
1,10,center,up,C,R,,,,,,Block.xlsx,"你已经完成了第一个实验区组

请稍作休息


点击空格键进入下一个区组。",0,50,1.5,right,RRRRR.png,,,,,0,0,0,0,2,4,52,9,,,,,,,,,,,,,,,,,,,,,,,,,,,,,,,,,,,,,,,,,,,,,,,,,,,,,,,,,,,,,,,,,,,,,,212.7698702000198,213.1710629000445,213.15574230003403,213.2555075000273,213.65489440003876,None,right,1,0.34054440003819764,213.65489440003876,None,213.15574230003403,213.2555075000273,213.2555075000273,None,214.02178030001232,None,,,,,,,11005,001,2024_Jan_01_0924,ANT,2021.2.3,60.253087065082774,
1,6,no,down,C,R,,,,,,Block.xlsx,"你已经完成了第一个实验区组

请稍作休息


点击空格键进入下一个区组。",50,0,-1.5,right,RRRRR.png,,,,,0,0,0,0,2,5,53,5,,,,,,,,,,,,,,,,,,,,,,,,,,,,,,,,,,,,,,,,,,,,,,,,,,,,,,,,,,,,,,,,,,,,,,214.42231840000022,214.82398889999604,214.80645910004387,214.90765240002656,215.3074458000483,None,right,1,0.312322799989488,215.3074458000483,None,214.80645910004387,214.90765240002656,214.90765240002656,None,215.64060080004856,None,,,,,,,11005,001,2024_Jan_01_0924,ANT,2021.2.3,60.253087065082774,
1,2,no,up,C,R,,,,,,Block.xlsx,"你已经完成了第一个实验区组

请稍作休息


点击空格键进入下一个区组。",50,0,1.5,right,RRRRR.png,,,,,0,0,0,0,2,6,54,1,,,,,,,,,,,,,,,,,,,,,,,,,,,,,,,,,,,,,,,,,,,,,,,,,,,,,,,,,,,,,,,,,,,,,,216.04220030002762,216.44270590000087,216.42587420000928,216.52570310002193,216.92812729999423,None,right,1,0.2992272999836132,216.92812729999423,None,216.42587420000928,216.52570310002193,216.52570310002193,None,217.24284970003646,None,,,,,,,11005,001,2024_Jan_01_0924,ANT,2021.2.3,60.253087065082774,
1,22,spatial,down,C,R,,,,,,Block.xlsx,"你已经完成了第一个实验区组

请稍作休息


点击空格键进入下一个区组。",-1.5,0,-1.5,right,RRRRR.png,,,,,0,0,0,0,2,7,55,21,,,,,,,,,,,,,,,,,,,,,,,,,,,,,,,,,,,,,,,,,,,,,,,,,,,,,,,,,,,,,,,,,,,,,,217.64370380004402,218.04475980001735,218.02823490003357,218.1287525999942,218.5290379000362,None,right,1,0.3311581999878399,218.5290379000362,None,218.02823490003357,218.1287525999942,218.1287525999942,None,218.8787016000133,None,,,,,,,11005,001,2024_Jan_01_0924,ANT,2021.2.3,60.253087065082774,
1,23,spatial,down,IC,L,,,,,,Block.xlsx,"你已经完成了第一个实验区组

请稍作休息


点击空格键进入下一个区组。",-1.5,0,-1.5,left,RRLRR.png,,,,,0,0,0,0,2,8,56,22,,,,,,,,,,,,,,,,,,,,,,,,,,,,,,,,,,,,,,,,,,,,,,,,,,,,,,,,,,,,,,,,,,,,,,219.28065790003166,219.67998110002372,219.66394110000692,219.76559850003105,220.16571720002685,None,left,1,0.4858990000211634,220.16571720002685,None,219.66394110000692,219.76559850003105,219.76559850003105,None,220.66543079999974,None,,,,,,,11005,001,2024_Jan_01_0924,ANT,2021.2.3,60.253087065082774,
1,7,no,down,IC,L,,,,,,Block.xlsx,"你已经完成了第一个实验区组

请稍作休息


点击空格键进入下一个区组。",50,0,-1.5,left,RRLRR.png,,,,,0,0,0,0,2,9,57,6,,,,,,,,,,,,,,,,,,,,,,,,,,,,,,,,,,,,,,,,,,,,,,,,,,,,,,,,,,,,,,,,,,,,,,221.0653346000472,221.4666467999923,221.44996660004836,221.55003859999124,221.95108790002996,None,left,1,0.5004231999628246,221.95108790002996,None,221.44996660004836,221.55003859999124,221.55003859999124,None,222.46790410001995,None,,,,,,,11005,001,2024_Jan_01_0924,ANT,2021.2.3,60.253087065082774,
1,18,spatial,up,C,R,,,,,,Block.xlsx,"你已经完成了第一个实验区组

请稍作休息


点击空格键进入下一个区组。",1.5,0,1.5,right,RRRRR.png,,,,,0,0,0,0,2,10,58,17,,,,,,,,,,,,,,,,,,,,,,,,,,,,,,,,,,,,,,,,,,,,,,,,,,,,,,,,,,,,,,,,,,,,,,222.86868230003165,223.27094429999124,223.25288310000906,223.35269190004328,223.75357240001904,None,right,1,0.28986339998664334,223.75357240001904,None,223.25288310000906,223.35269190004328,223.35269190004328,None,224.06971010001143,None,,,,,,,11005,001,2024_Jan_01_0924,ANT,2021.2.3,60.253087065082774,
1,14,center,down,C,R,,,,,,Block.xlsx,"你已经完成了第一个实验区组

请稍作休息


点击空格键进入下一个区组。",0,50,-1.5,right,RRRRR.png,,,,,0,0,0,0,2,11,59,13,,,,,,,,,,,,,,,,,,,,,,,,,,,,,,,,,,,,,,,,,,,,,,,,,,,,,,,,,,,,,,,,,,,,,,224.47090070002014,224.87299430003623,224.8542437000433,224.95527420000872,225.3558428999968,None,right,1,0.47988830000394955,225.3558428999968,None,224.8542437000433,224.95527420000872,224.95527420000872,None,225.85659229999874,None,,,,,,,11005,001,2024_Jan_01_0924,ANT,2021.2.3,60.253087065082774,
1,2,no,up,C,R,,,,,,Block.xlsx,"你已经完成了第一个实验区组

请稍作休息


点击空格键进入下一个区组。",50,0,1.5,right,RRRRR.png,,,,,0,0,0,0,2,12,60,1,,,,,,,,,,,,,,,,,,,,,,,,,,,,,,,,,,,,,,,,,,,,,,,,,,,,,,,,,,,,,,,,,,,,,,226.2574335000245,226.65724470000714,226.64100679999683,226.74139260000084,227.14203550003003,None,right,1,0.36606520001078025,227.14203550003003,None,226.64100679999683,226.74139260000084,226.74139260000084,None,227.5250672000111,None,,,,,,,11005,001,2024_Jan_01_0924,ANT,2021.2.3,60.253087065082774,
1,23,spatial,down,IC,L,,,,,,Block.xlsx,"你已经完成了第一个实验区组

请稍作休息


点击空格键进入下一个区组。",-1.5,0,-1.5,left,RRLRR.png,,,,,0,0,0,0,2,13,61,22,,,,,,,,,,,,,,,,,,,,,,,,,,,,,,,,,,,,,,,,,,,,,,,,,,,,,,,,,,,,,,,,,,,,,,227.92606780002825,228.3265910000191,228.30983260000357,228.40981360001024,228.81019780004863,None,left,1,0.3695168999838643,228.81019780004863,None,228.30983260000357,228.40981360001024,228.40981360001024,None,229.19433080003364,None,,,,,,,11005,001,2024_Jan_01_0924,ANT,2021.2.3,60.253087065082774,
1,22,spatial,down,C,R,,,,,,Block.xlsx,"你已经完成了第一个实验区组

请稍作休息


点击空格键进入下一个区组。",-1.5,0,-1.5,right,RRRRR.png,,,,,0,0,0,0,2,14,62,21,,,,,,,,,,,,,,,,,,,,,,,,,,,,,,,,,,,,,,,,,,,,,,,,,,,,,,,,,,,,,,,,,,,,,,229.594857899996,229.9972861999995,229.97904510004446,230.0789017000352,230.47980430000462,None,right,1,0.3317947000032291,230.47980430000462,None,229.97904510004446,230.0789017000352,230.0789017000352,None,230.82995670003584,None,,,,,,,11005,001,2024_Jan_01_0924,ANT,2021.2.3,60.253087065082774,
1,15,center,down,IC,L,,,,,,Block.xlsx,"你已经完成了第一个实验区组

请稍作休息


点击空格键进入下一个区组。",0,50,-1.5,left,RRLRR.png,,,,,0,0,0,0,2,15,63,14,,,,,,,,,,,,,,,,,,,,,,,,,,,,,,,,,,,,,,,,,,,,,,,,,,,,,,,,,,,,,,,,,,,,,,231.23135740001453,231.63320080004632,231.61468550004065,231.7160212000017,232.11509760003537,None,right,0,0.3443302999949083,232.11509760003537,None,231.61468550004065,231.7160212000017,231.7160212000017,None,232.4834449000191,None,,,,,,,11005,001,2024_Jan_01_0924,ANT,2021.2.3,60.253087065082774,
1,18,spatial,up,C,R,,,,,,Block.xlsx,"你已经完成了第一个实验区组

请稍作休息


点击空格键进入下一个区组。",1.5,0,1.5,right,RRRRR.png,,,,,0,0,0,0,2,16,64,17,,,,,,,,,,,,,,,,,,,,,,,,,,,,,,,,,,,,,,,,,,,,,,,,,,,,,,,,,,,,,,,,,,,,,,232.88298799999757,233.28348270000424,233.26776100002462,233.368287099991,233.76794410002185,None,right,1,0.33205939998151734,233.76794410002185,None,233.26776100002462,233.368287099991,233.368287099991,None,234.1185325999977,None,,,,,,,11005,001,2024_Jan_01_0924,ANT,2021.2.3,60.253087065082774,
1,24,spatial,down,IC,R,,,,,,Block.xlsx,"你已经完成了第一个实验区组

请稍作休息


点击空格键进入下一个区组。",-1.5,0,-1.5,right,LLRLL.png,,,,,0,0,0,0,2,17,65,23,,,,,,,,,,,,,,,,,,,,,,,,,,,,,,,,,,,,,,,,,,,,,,,,,,,,,,,,,,,,,,,,,,,,,,234.5198707000236,234.9192795000272,234.90399100002833,235.0047057000338,235.4040299000335,None,right,1,0.3756649999995716,235.4040299000335,None,234.90399100002833,235.0047057000338,235.0047057000338,None,235.8040345000336,None,,,,,,,11005,001,2024_Jan_01_0924,ANT,2021.2.3,60.253087065082774,
1,14,center,down,C,R,,,,,,Block.xlsx,"你已经完成了第一个实验区组

请稍作休息


点击空格键进入下一个区组。",0,50,-1.5,right,RRRRR.png,,,,,0,0,0,0,2,18,66,13,,,,,,,,,,,,,,,,,,,,,,,,,,,,,,,,,,,,,,,,,,,,,,,,,,,,,,,,,,,,,,,,,,,,,,236.20456420001574,236.60552169999573,236.59035559999757,236.7062670000014,237.0905527000432,None,right,1,0.35291130002588034,237.0905527000432,None,236.59035559999757,236.7062670000014,236.6902254000306,None,237.47308130003512,None,,,,,,,11005,001,2024_Jan_01_0924,ANT,2021.2.3,60.253087065082774,
1,13,center,down,C,L,,,,,,Block.xlsx,"你已经完成了第一个实验区组

请稍作休息


点击空格键进入下一个区组。",0,50,-1.5,left,LLLLL.png,,,,,0,0,0,0,2,19,67,12,,,,,,,,,,,,,,,,,,,,,,,,,,,,,,,,,,,,,,,,,,,,,,,,,,,,,,,,,,,,,,,,,,,,,,237.87364310002886,238.27575900004013,238.25815470004454,238.3582488000393,238.7603082000278,None,left,1,0.4278679999988526,238.7603082000278,None,238.25815470004454,238.3582488000393,238.3582488000393,None,239.20892500004265,None,,,,,,,11005,001,2024_Jan_01_0924,ANT,2021.2.3,60.253087065082774,
1,5,no,down,C,L,,,,,,Block.xlsx,"你已经完成了第一个实验区组

请稍作休息


点击空格键进入下一个区组。",50,0,-1.5,left,LLLLL.png,,,,,0,0,0,0,2,20,68,4,,,,,,,,,,,,,,,,,,,,,,,,,,,,,,,,,,,,,,,,,,,,,,,,,,,,,,,,,,,,,,,,,,,,,,239.61000020004576,240.01084310002625,239.9954625000246,240.11124160001054,240.4945864000474,None,left,1,0.39710449997801334,240.4945864000474,None,239.9954625000246,240.11124160001054,240.0940711000003,None,240.91177320003044,None,,,,,,,11005,001,2024_Jan_01_0924,ANT,2021.2.3,60.253087065082774,
1,20,spatial,up,IC,R,,,,,,Block.xlsx,"你已经完成了第一个实验区组

请稍作休息


点击空格键进入下一个区组。",1.5,0,1.5,right,LLRLL.png,,,,,0,0,0,0,2,21,69,19,,,,,,,,,,,,,,,,,,,,,,,,,,,,,,,,,,,,,,,,,,,,,,,,,,,,,,,,,,,,,,,,,,,,,,241.3129034000449,241.71260570001323,241.69744150002953,241.7973291000235,242.1976508999942,None,right,1,0.4219635000335984,242.1976508999942,None,241.69744150002953,241.7973291000235,241.7973291000235,None,242.64738280000165,None,,,,,,,11005,001,2024_Jan_01_0924,ANT,2021.2.3,60.253087065082774,
1,15,center,down,IC,L,,,,,,Block.xlsx,"你已经完成了第一个实验区组

请稍作休息


点击空格键进入下一个区组。",0,50,-1.5,left,RRLRR.png,,,,,0,0,0,0,2,22,70,14,,,,,,,,,,,,,,,,,,,,,,,,,,,,,,,,,,,,,,,,,,,,,,,,,,,,,,,,,,,,,,,,,,,,,,243.0480256000301,243.449690700043,243.43255890003638,243.53427960001864,243.93319509999128,None,right,0,0.3511613999726251,243.93319509999128,None,243.43255890003638,243.53427960001864,243.53427960001864,None,244.29983390000416,None,,,,,,,11005,001,2024_Jan_01_0924,ANT,2021.2.3,60.253087065082774,
1,8,no,down,IC,R,,,,,,Block.xlsx,"你已经完成了第一个实验区组

请稍作休息


点击空格键进入下一个区组。",50,0,-1.5,right,LLRLL.png,,,,,0,0,0,0,2,23,71,7,,,,,,,,,,,,,,,,,,,,,,,,,,,,,,,,,,,,,,,,,,,,,,,,,,,,,,,,,,,,,,,,,,,,,,244.70107990002725,245.10212610004237,245.08440440002596,245.18508490000386,245.5868841999909,None,right,1,0.5293310999986716,245.5868841999909,None,245.08440440002596,245.18508490000386,245.18508490000386,None,246.13583770004334,None,,,,,,,11005,001,2024_Jan_01_0924,ANT,2021.2.3,60.253087065082774,
1,15,center,down,IC,L,,,,,,Block.xlsx,"你已经完成了第一个实验区组

请稍作休息


点击空格键进入下一个区组。",0,50,-1.5,left,RRLRR.png,,,,,0,0,0,0,3,0,72,14,,,,,,,,,,,,,,,,,,,,,,,,,,,,,,,,,,,,,,,,,,,,,,,,,,,,,,,,,,,,,,,,,,,,,,246.53739120002137,246.9385352000245,246.92099150002468,247.02067260001786,247.42184490000363,None,left,1,0.7660261000273749,247.42184490000363,None,246.92099150002468,247.02067260001786,247.02067260001786,None,248.2059402000159,None,,,,,,,11005,001,2024_Jan_01_0924,ANT,2021.2.3,60.253087065082774,
1,13,center,down,C,L,,,,,,Block.xlsx,"你已经完成了第一个实验区组

请稍作休息


点击空格键进入下一个区组。",0,50,-1.5,left,LLLLL.png,,,,,0,0,0,0,3,1,73,12,,,,,,,,,,,,,,,,,,,,,,,,,,,,,,,,,,,,,,,,,,,,,,,,,,,,,,,,,,,,,,,,,,,,,,248.60634630004643,249.00798749999376,248.99067359999754,249.09065780002857,249.49153920001118,None,left,1,0.4398257000138983,249.49153920001118,None,248.99067359999754,249.09065780002857,249.09065780002857,None,249.95815870002843,None,,,,,,,11005,001,2024_Jan_01_0924,ANT,2021.2.3,60.253087065082774,
1,7,no,down,IC,L,,,,,,Block.xlsx,"你已经完成了第一个实验区组

请稍作休息


点击空格键进入下一个区组。",50,0,-1.5,left,RRLRR.png,,,,,0,0,0,0,3,2,74,6,,,,,,,,,,,,,,,,,,,,,,,,,,,,,,,,,,,,,,,,,,,,,,,,,,,,,,,,,,,,,,,,,,,,,,250.35879230004502,250.75994950003223,250.74524300004123,250.8609848000342,251.24393090000376,None,left,1,0.40096630004700273,251.24393090000376,None,250.74524300004123,250.8609848000342,250.84432010003366,None,251.66118580003968,None,,,,,,,11005,001,2024_Jan_01_0924,ANT,2021.2.3,60.253087065082774,
1,9,center,up,C,L,,,,,,Block.xlsx,"你已经完成了第一个实验区组

请稍作休息


点击空格键进入下一个区组。",0,50,1.5,left,LLLLL.png,,,,,0,0,0,0,3,3,75,8,,,,,,,,,,,,,,,,,,,,,,,,,,,,,,,,,,,,,,,,,,,,,,,,,,,,,,,,,,,,,,,,,,,,,,252.0621965000173,252.46319550002227,252.4450036000344,252.54759420000482,252.94685510004638,None,left,1,0.3845809999620542,252.94685510004638,None,252.4450036000344,252.54759420000482,252.54759420000482,None,253.3464457000373,None,,,,,,,11005,001,2024_Jan_01_0924,ANT,2021.2.3,60.253087065082774,
1,21,spatial,down,C,L,,,,,,Block.xlsx,"你已经完成了第一个实验区组

请稍作休息


点击空格键进入下一个区组。",-1.5,0,-1.5,left,LLLLL.png,,,,,0,0,0,0,3,4,76,20,,,,,,,,,,,,,,,,,,,,,,,,,,,,,,,,,,,,,,,,,,,,,,,,,,,,,,,,,,,,,,,,,,,,,,253.74823980004294,254.14863710000645,254.13084560004063,254.2313976000296,254.63396380003542,None,left,1,0.3375725999940187,254.63396380003542,None,254.13084560004063,254.2313976000296,254.2313976000296,None,254.99987860000692,None,,,,,,,11005,001,2024_Jan_01_0924,ANT,2021.2.3,60.253087065082774,
1,4,no,up,IC,R,,,,,,Block.xlsx,"你已经完成了第一个实验区组

请稍作休息


点击空格键进入下一个区组。",50,0,1.5,right,LLRLL.png,,,,,0,0,0,0,3,5,77,3,,,,,,,,,,,,,,,,,,,,,,,,,,,,,,,,,,,,,,,,,,,,,,,,,,,,,,,,,,,,,,,,,,,,,,255.39941610000096,255.80187770002522,255.78442320000613,255.8845690000453,256.285661300004,None,right,1,0.566590600006748,256.285661300004,None,255.78442320000613,255.8845690000453,255.8845690000453,None,256.8682406000444,None,,,,,,,11005,001,2024_Jan_01_0924,ANT,2021.2.3,60.253087065082774,
1,3,no,up,IC,L,,,,,,Block.xlsx,"你已经完成了第一个实验区组

请稍作休息


点击空格键进入下一个区组。",50,0,1.5,left,RRLRR.png,,,,,0,0,0,0,3,6,78,2,,,,,,,,,,,,,,,,,,,,,,,,,,,,,,,,,,,,,,,,,,,,,,,,,,,,,,,,,,,,,,,,,,,,,,257.2689851000323,257.6698138000211,257.65364730003057,257.7542850000318,258.1540038000094,None,left,1,0.5215962000074796,258.1540038000094,None,257.65364730003057,257.7542850000318,257.7542850000318,None,258.70577890001005,None,,,,,,,11005,001,2024_Jan_01_0924,ANT,2021.2.3,60.253087065082774,
1,19,spatial,up,IC,L,,,,,,Block.xlsx,"你已经完成了第一个实验区组

请稍作休息


点击空格键进入下一个区组。",1.5,0,1.5,left,RRLRR.png,,,,,0,0,0,0,3,7,79,18,,,,,,,,,,,,,,,,,,,,,,,,,,,,,,,,,,,,,,,,,,,,,,,,,,,,,,,,,,,,,,,,,,,,,,259.105330099992,259.5072642000159,259.4900906000403,259.59017300000414,259.9905868000351,None,left,1,0.4450177999678999,259.9905868000351,None,259.4900906000403,259.59017300000414,259.59017300000414,None,260.4570988000487,None,,,,,,,11005,001,2024_Jan_01_0924,ANT,2021.2.3,60.253087065082774,
1,4,no,up,IC,R,,,,,,Block.xlsx,"你已经完成了第一个实验区组

请稍作休息


点击空格键进入下一个区组。",50,0,1.5,right,LLRLL.png,,,,,0,0,0,0,3,8,80,3,,,,,,,,,,,,,,,,,,,,,,,,,,,,,,,,,,,,,,,,,,,,,,,,,,,,,,,,,,,,,,,,,,,,,,260.8577737000305,261.2588819999946,261.24311540002236,261.3590622000047,261.7442692000186,None,right,1,0.443236600025557,261.7442692000186,None,261.24311540002236,261.3590622000047,261.3435573000461,None,262.20956920000026,None,,,,,,,11005,001,2024_Jan_01_0924,ANT,2021.2.3,60.253087065082774,
1,22,spatial,down,C,R,,,,,,Block.xlsx,"你已经完成了第一个实验区组

请稍作休息


点击空格键进入下一个区组。",-1.5,0,-1.5,right,RRRRR.png,,,,,0,0,0,0,3,9,81,21,,,,,,,,,,,,,,,,,,,,,,,,,,,,,,,,,,,,,,,,,,,,,,,,,,,,,,,,,,,,,,,,,,,,,,262.6104190000333,263.01154580002185,262.99476610001875,263.0954351000255,263.49650910001947,None,right,1,0.37956049997592345,263.49650910001947,None,262.99476610001875,263.0954351000255,263.0954351000255,None,263.8958350000321,None,,,,,,,11005,001,2024_Jan_01_0924,ANT,2021.2.3,60.253087065082774,
1,21,spatial,down,C,L,,,,,,Block.xlsx,"你已经完成了第一个实验区组

请稍作休息


点击空格键进入下一个区组。",-1.5,0,-1.5,left,LLLLL.png,,,,,0,0,0,0,3,10,82,20,,,,,,,,,,,,,,,,,,,,,,,,,,,,,,,,,,,,,,,,,,,,,,,,,,,,,,,,,,,,,,,,,,,,,,264.2961704999907,264.69679980003275,264.68042109999806,264.7822370000067,265.18133180000586,None,left,1,0.3582079000188969,265.18133180000586,None,264.68042109999806,264.7822370000067,264.7822370000067,None,265.56462950003333,None,,,,,,,11005,001,2024_Jan_01_0924,ANT,2021.2.3,60.253087065082774,
1,15,center,down,IC,L,,,,,,Block.xlsx,"你已经完成了第一个实验区组

请稍作休息


点击空格键进入下一个区组。",0,50,-1.5,left,RRLRR.png,,,,,0,0,0,0,3,11,83,14,,,,,,,,,,,,,,,,,,,,,,,,,,,,,,,,,,,,,,,,,,,,,,,,,,,,,,,,,,,,,,,,,,,,,,265.9653436000226,266.3680592000019,266.35022970003774,266.44951050000964,266.85202650004067,None,left,1,0.5516798000317067,266.85202650004067,None,266.35022970003774,266.44951050000964,266.44951050000964,None,267.43417580000823,None,,,,,,,11005,001,2024_Jan_01_0924,ANT,2021.2.3,60.253087065082774,
1,11,center,up,IC,L,,,,,,Block.xlsx,"你已经完成了第一个实验区组

请稍作休息


点击空格键进入下一个区组。",0,50,1.5,left,RRLRR.png,,,,,0,0,0,0,3,12,84,10,,,,,,,,,,,,,,,,,,,,,,,,,,,,,,,,,,,,,,,,,,,,,,,,,,,,,,,,,,,,,,,,,,,,,,267.83535860001575,268.2371342999977,268.2193238000036,268.3206341000041,268.72003600001335,None,left,1,0.5474038000102155,268.72003600001335,None,268.2193238000036,268.3206341000041,268.3206341000041,None,269.2870980000007,None,,,,,,,11005,001,2024_Jan_01_0924,ANT,2021.2.3,60.253087065082774,
1,21,spatial,down,C,L,,,,,,Block.xlsx,"你已经完成了第一个实验区组

请稍作休息


点击空格键进入下一个区组。",-1.5,0,-1.5,left,LLLLL.png,,,,,0,0,0,0,3,13,85,20,,,,,,,,,,,,,,,,,,,,,,,,,,,,,,,,,,,,,,,,,,,,,,,,,,,,,,,,,,,,,,,,,,,,,,269.68828280002344,270.0892859000014,270.07208470004844,270.1729099000222,270.57305950002046,None,left,1,0.326353200012818,270.57305950002046,None,270.07208470004844,270.1729099000222,270.1729099000222,None,270.9230422000401,None,,,,,,,11005,001,2024_Jan_01_0924,ANT,2021.2.3,60.253087065082774,
1,6,no,down,C,R,,,,,,Block.xlsx,"你已经完成了第一个实验区组

请稍作休息


点击空格键进入下一个区组。",50,0,-1.5,right,RRRRR.png,,,,,0,0,0,0,3,14,86,5,,,,,,,,,,,,,,,,,,,,,,,,,,,,,,,,,,,,,,,,,,,,,,,,,,,,,,,,,,,,,,,,,,,,,,271.3238283999963,271.7243563000229,271.7095593000413,271.807905499998,272.21017880004365,None,right,1,0.40120779996505007,272.21017880004365,None,271.7095593000413,271.807905499998,271.807905499998,None,272.6416149000288,None,,,,,,,11005,001,2024_Jan_01_0924,ANT,2021.2.3,60.253087065082774,
1,5,no,down,C,L,,,,,,Block.xlsx,"你已经完成了第一个实验区组

请稍作休息


点击空格键进入下一个区组。",50,0,-1.5,left,LLLLL.png,,,,,0,0,0,0,3,15,87,4,,,,,,,,,,,,,,,,,,,,,,,,,,,,,,,,,,,,,,,,,,,,,,,,,,,,,,,,,,,,,,,,,,,,,,273.0436797000002,273.4446373000392,273.427169600036,273.52709889999824,273.92786080000224,None,left,1,0.3721417000051588,273.92786080000224,None,273.427169600036,273.52709889999824,273.52709889999824,None,274.32787390000885,None,,,,,,,11005,001,2024_Jan_01_0924,ANT,2021.2.3,60.253087065082774,
1,20,spatial,up,IC,R,,,,,,Block.xlsx,"你已经完成了第一个实验区组

请稍作休息


点击空格键进入下一个区组。",1.5,0,1.5,right,LLRLL.png,,,,,0,0,0,0,3,16,88,19,,,,,,,,,,,,,,,,,,,,,,,,,,,,,,,,,,,,,,,,,,,,,,,,,,,,,,,,,,,,,,,,,,,,,,274.72832920000656,275.1294560999959,275.1144411000423,275.2130244,275.61496179999085,None,right,1,0.3809954999596812,275.61496179999085,None,275.1144411000423,275.2130244,275.2130244,None,276.0137185000349,None,,,,,,,11005,001,2024_Jan_01_0924,ANT,2021.2.3,60.253087065082774,
1,18,spatial,up,C,R,,,,,,Block.xlsx,"你已经完成了第一个实验区组

请稍作休息


点击空格键进入下一个区组。",1.5,0,1.5,right,RRRRR.png,,,,,0,0,0,0,3,17,89,17,,,,,,,,,,,,,,,,,,,,,,,,,,,,,,,,,,,,,,,,,,,,,,,,,,,,,,,,,,,,,,,,,,,,,,276.415075100027,276.8164282999933,276.7987174000009,276.90031420002924,277.2987710000016,None,right,1,0.30564180004876107,277.2987710000016,None,276.7987174000009,276.90031420002924,276.90031420002924,None,277.6328247000347,None,,,,,,,11005,001,2024_Jan_01_0924,ANT,2021.2.3,60.253087065082774,
1,17,spatial,up,C,L,,,,,,Block.xlsx,"你已经完成了第一个实验区组

请稍作休息


点击空格键进入下一个区组。",1.5,0,1.5,left,LLLLL.png,,,,,0,0,0,0,3,18,90,16,,,,,,,,,,,,,,,,,,,,,,,,,,,,,,,,,,,,,,,,,,,,,,,,,,,,,,,,,,,,,,,,,,,,,,278.0334049999947,278.4356597000151,278.4173487999942,278.5180396999931,278.91900769999484,None,left,1,0.3408294999971986,278.91900769999484,None,278.4173487999942,278.5180396999931,278.5180396999931,None,279.2850421000039,None,,,,,,,11005,001,2024_Jan_01_0924,ANT,2021.2.3,60.253087065082774,
1,12,center,up,IC,R,,,,,,Block.xlsx,"你已经完成了第一个实验区组

请稍作休息


点击空格键进入下一个区组。",0,50,1.5,right,LLRLL.png,,,,,0,0,0,0,3,19,91,11,,,,,,,,,,,,,,,,,,,,,,,,,,,,,,,,,,,,,,,,,,,,,,,,,,,,,,,,,,,,,,,,,,,,,,279.68633480003336,280.0882883000304,280.07015530002536,280.17118980002124,280.571039500006,None,left,0,0.37694839999312535,280.571039500006,None,280.07015530002536,280.17118980002124,280.17118980002124,None,280.97086080000736,None,,,,,,,11005,001,2024_Jan_01_0924,ANT,2021.2.3,60.253087065082774,
1,24,spatial,down,IC,R,,,,,,Block.xlsx,"你已经完成了第一个实验区组

请稍作休息


点击空格键进入下一个区组。",-1.5,0,-1.5,right,LLRLL.png,,,,,0,0,0,0,3,20,92,23,,,,,,,,,,,,,,,,,,,,,,,,,,,,,,,,,,,,,,,,,,,,,,,,,,,,,,,,,,,,,,,,,,,,,,281.3714932000148,281.772638000024,281.756060899992,281.8574808000121,282.2586053000414,None,right,1,0.41675480001140386,282.2586053000414,None,281.756060899992,281.8574808000121,281.8574808000121,None,282.7071079000016,None,,,,,,,11005,001,2024_Jan_01_0924,ANT,2021.2.3,60.253087065082774,
1,12,center,up,IC,R,,,,,,Block.xlsx,"你已经完成了第一个实验区组

请稍作休息


点击空格键进入下一个区组。",0,50,1.5,right,LLRLL.png,,,,,0,0,0,0,3,21,93,11,,,,,,,,,,,,,,,,,,,,,,,,,,,,,,,,,,,,,,,,,,,,,,,,,,,,,,,,,,,,,,,,,,,,,,283.10727480001515,283.50875159999123,283.4931948000449,283.5920965000405,283.9920872999937,None,right,1,0.49144980002893135,283.9920872999937,None,283.4931948000449,283.5920965000405,283.5920965000405,None,284.5094903000281,None,,,,,,,11005,001,2024_Jan_01_0924,ANT,2021.2.3,60.253087065082774,
1,1,no,up,C,L,,,,,,Block.xlsx,"你已经完成了第一个实验区组

请稍作休息


点击空格键进入下一个区组。",50,0,1.5,left,LLLLL.png,,,,,0,0,0,0,3,22,94,0,,,,,,,,,,,,,,,,,,,,,,,,,,,,,,,,,,,,,,,,,,,,,,,,,,,,,,,,,,,,,,,,,,,,,,284.9106369999936,285.3116012000246,285.2948295000242,285.3948037000373,285.79466640000464,None,left,1,0.5691970000043511,285.79466640000464,None,285.2948295000242,285.3948037000373,285.3948037000373,None,286.39671320002526,None,,,,,,,11005,001,2024_Jan_01_0924,ANT,2021.2.3,60.253087065082774,
1,19,spatial,up,IC,L,,,,,,Block.xlsx,"你已经完成了第一个实验区组

请稍作休息


点击空格键进入下一个区组。",1.5,0,1.5,left,RRLRR.png,,,,,0,0,0,0,3,23,95,18,,,,,,,,,,,,,,,,,,,,,,,,,,,,,,,,,,,,,,,,,,,,,,,,,,,,,,,,,,,,,,,,,,,,,,286.7962448000326,287.19722720002756,287.18063590000384,287.2814109000028,287.6810388000449,None,left,1,0.3785145999863744,287.6810388000449,None,287.18063590000384,287.2814109000028,287.2814109000028,None,288.08133930002805,None,,,,,,,11005,001,2024_Jan_01_0924,ANT,2021.2.3,60.253087065082774,
,,,,,,,,,,,Block.xlsx,"你已经完成了第一个实验区组

请稍作休息


点击空格键进入下一个区组。",,,,,,,,,,0,0,0,0,,,,,,,,,,,,,,,,,,,,,,,,,,,,,,,,,,,,,,,,,,,,,,,,,,,,,,,,,,,,,,,,,,,,,,,,,,,,,,,,,,,,,,,,,,,space,1.1997056999825872,288.5002634000266,None,288.5002634000266,None,11005,001,2024_Jan_01_0924,ANT,2021.2.3,60.253087065082774,
1,19,spatial,up,IC,L,,,,,,Block.xlsx,"你已经完成了整个实验（三个区组）。

请报告实验者已完成实验

非常感谢，再见！",1.5,0,1.5,left,RRLRR.png,,,,,0,1,1,1,0,0,0,18,,,,,,,,,,,,,,,,,,,,,,,,,,,,,,,,,,,,,,,,,,,,,,,,,,,,,,,,,,,,,,,,,,,,,,289.7335828000214,290.1364864000352,290.11845750000793,290.2181671000435,290.61921920004534,None,left,1,0.38471319997916,290.61921920004534,None,290.11845750000793,290.2181671000435,290.2181671000435,None,291.0192674000282,None,,,,,,,11005,001,2024_Jan_01_0924,ANT,2021.2.3,60.253087065082774,
1,1,no,up,C,L,,,,,,Block.xlsx,"你已经完成了整个实验（三个区组）。

请报告实验者已完成实验

非常感谢，再见！",50,0,1.5,left,LLLLL.png,,,,,0,1,1,1,0,1,1,0,,,,,,,,,,,,,,,,,,,,,,,,,,,,,,,,,,,,,,,,,,,,,,,,,,,,,,,,,,,,,,,,,,,,,,291.42024210002273,291.82175380003173,291.80414020002354,291.90445400000317,292.30470500001684,None,left,1,0.36337559996172786,292.30470500001684,None,291.80414020002354,291.90445400000317,291.90445400000317,None,292.6881868999917,None,,,,,,,11005,001,2024_Jan_01_0924,ANT,2021.2.3,60.253087065082774,
1,4,no,up,IC,R,,,,,,Block.xlsx,"你已经完成了整个实验（三个区组）。

请报告实验者已完成实验

非常感谢，再见！",50,0,1.5,right,LLRLL.png,,,,,0,1,1,1,0,2,2,3,,,,,,,,,,,,,,,,,,,,,,,,,,,,,,,,,,,,,,,,,,,,,,,,,,,,,,,,,,,,,,,,,,,,,,293.08918519999133,293.49015870003495,293.4750658000121,293.59154110000236,293.9739713000017,None,right,1,0.43736470001749694,293.9739713000017,None,293.4750658000121,293.59154110000236,293.5732917000423,None,294.44076840003254,None,,,,,,,11005,001,2024_Jan_01_0924,ANT,2021.2.3,60.253087065082774,
1,22,spatial,down,C,R,,,,,,Block.xlsx,"你已经完成了整个实验（三个区组）。

请报告实验者已完成实验

非常感谢，再见！",-1.5,0,-1.5,right,RRRRR.png,,,,,0,1,1,1,0,3,3,21,,,,,,,,,,,,,,,,,,,,,,,,,,,,,,,,,,,,,,,,,,,,,,,,,,,,,,,,,,,,,,,,,,,,,,294.8422971999971,295.2439548000111,295.2262373000267,295.328102200001,295.7280372999958,None,right,1,0.5395216000033543,295.7280372999958,None,295.2262373000267,295.328102200001,295.328102200001,None,296.29364360001637,None,,,,,,,11005,001,2024_Jan_01_0924,ANT,2021.2.3,60.253087065082774,
1,20,spatial,up,IC,R,,,,,,Block.xlsx,"你已经完成了整个实验（三个区组）。

请报告实验者已完成实验

非常感谢，再见！",1.5,0,1.5,right,LLRLL.png,,,,,0,1,1,1,0,4,4,19,,,,,,,,,,,,,,,,,,,,,,,,,,,,,,,,,,,,,,,,,,,,,,,,,,,,,,,,,,,,,,,,,,,,,,296.69477060000645,297.0962186999968,297.078522900003,297.17935930000385,297.5789873000467,None,right,1,0.4008647000300698,297.5789873000467,None,297.078522900003,297.17935930000385,297.17935930000385,None,297.9962361000362,None,,,,,,,11005,001,2024_Jan_01_0924,ANT,2021.2.3,60.253087065082774,
1,15,center,down,IC,L,,,,,,Block.xlsx,"你已经完成了整个实验（三个区组）。

请报告实验者已完成实验

非常感谢，再见！",0,50,-1.5,left,RRLRR.png,,,,,0,1,1,1,0,5,5,14,,,,,,,,,,,,,,,,,,,,,,,,,,,,,,,,,,,,,,,,,,,,,,,,,,,,,,,,,,,,,,,,,,,,,,298.39729300001636,298.7985370000242,298.78072979999706,298.88241030002246,299.2814842000371,None,left,1,0.5702960999915376,299.2814842000371,None,298.78072979999706,298.88241030002246,298.88241030002246,None,299.8824656000361,None,,,,,,,11005,001,2024_Jan_01_0924,ANT,2021.2.3,60.253087065082774,
1,11,center,up,IC,L,,,,,,Block.xlsx,"你已经完成了整个实验（三个区组）。

请报告实验者已完成实验

非常感谢，再见！",0,50,1.5,left,RRLRR.png,,,,,0,1,1,1,0,6,6,10,,,,,,,,,,,,,,,,,,,,,,,,,,,,,,,,,,,,,,,,,,,,,,,,,,,,,,,,,,,,,,,,,,,,,,300.28355739999097,300.6853005000157,300.6677685000468,300.7683023000136,301.16811040003086,None,left,1,0.5400025999988429,301.16811040003086,None,300.6677685000468,300.7683023000136,300.7683023000136,None,301.7349484000006,None,,,,,,,11005,001,2024_Jan_01_0924,ANT,2021.2.3,60.253087065082774,
1,17,spatial,up,C,L,,,,,,Block.xlsx,"你已经完成了整个实验（三个区组）。

请报告实验者已完成实验

非常感谢，再见！",1.5,0,1.5,left,LLLLL.png,,,,,0,1,1,1,0,7,7,16,,,,,,,,,,,,,,,,,,,,,,,,,,,,,,,,,,,,,,,,,,,,,,,,,,,,,,,,,,,,,,,,,,,,,,302.13616240001284,302.5376000000397,302.52007420000155,302.6196539000375,303.0218515000306,None,left,1,0.3419539000024088,303.0218515000306,None,302.52007420000155,302.6196539000375,302.6196539000375,None,303.38743230002,None,,,,,,,11005,001,2024_Jan_01_0924,ANT,2021.2.3,60.253087065082774,
1,21,spatial,down,C,L,,,,,,Block.xlsx,"你已经完成了整个实验（三个区组）。

请报告实验者已完成实验

非常感谢，再见！",-1.5,0,-1.5,left,LLLLL.png,,,,,0,1,1,1,0,8,8,20,,,,,,,,,,,,,,,,,,,,,,,,,,,,,,,,,,,,,,,,,,,,,,,,,,,,,,,,,,,,,,,,,,,,,,303.7885355000035,304.18848020001315,304.17284300003666,304.27399930002866,304.67344530002447,None,left,1,0.32214140001451597,304.67344530002447,None,304.17284300003666,304.27399930002866,304.27399930002866,None,305.02319440001156,None,,,,,,,11005,001,2024_Jan_01_0924,ANT,2021.2.3,60.253087065082774,
1,10,center,up,C,R,,,,,,Block.xlsx,"你已经完成了整个实验（三个区组）。

请报告实验者已完成实验

非常感谢，再见！",0,50,1.5,right,RRRRR.png,,,,,0,1,1,1,0,9,9,9,,,,,,,,,,,,,,,,,,,,,,,,,,,,,,,,,,,,,,,,,,,,,,,,,,,,,,,,,,,,,,,,,,,,,,305.4241066999966,305.82499759999337,305.8086983000394,305.9079778000014,306.30880659999093,None,right,1,0.40685389999998733,306.30880659999093,None,305.8086983000394,305.9079778000014,305.9079778000014,None,306.7425852000015,None,,,,,,,11005,001,2024_Jan_01_0924,ANT,2021.2.3,60.253087065082774,
1,7,no,down,IC,L,,,,,,Block.xlsx,"你已经完成了整个实验（三个区组）。

请报告实验者已完成实验

非常感谢，再见！",50,0,-1.5,left,RRLRR.png,,,,,0,1,1,1,0,10,10,6,,,,,,,,,,,,,,,,,,,,,,,,,,,,,,,,,,,,,,,,,,,,,,,,,,,,,,,,,,,,,,,,,,,,,,307.1429372000275,307.5454071999993,307.5269837999949,307.62801020004554,308.0279939000029,None,left,1,0.6238199999788776,308.0279939000029,None,307.5269837999949,307.62801020004554,307.62801020004554,None,308.6787225000444,None,,,,,,,11005,001,2024_Jan_01_0924,ANT,2021.2.3,60.253087065082774,
1,10,center,up,C,R,,,,,,Block.xlsx,"你已经完成了整个实验（三个区组）。

请报告实验者已完成实验

非常感谢，再见！",0,50,1.5,right,RRRRR.png,,,,,0,1,1,1,0,11,11,9,,,,,,,,,,,,,,,,,,,,,,,,,,,,,,,,,,,,,,,,,,,,,,,,,,,,,,,,,,,,,,,,,,,,,,309.0796262000222,309.4807324000285,309.46418440004345,309.5647872000118,309.964305600035,None,right,1,0.3672781999921426,309.964305600035,None,309.46418440004345,309.5647872000118,309.5647872000118,None,310.3481052000425,None,,,,,,,11005,001,2024_Jan_01_0924,ANT,2021.2.3,60.253087065082774,
1,15,center,down,IC,L,,,,,,Block.xlsx,"你已经完成了整个实验（三个区组）。

请报告实验者已完成实验

非常感谢，再见！",0,50,-1.5,left,RRLRR.png,,,,,0,1,1,1,0,12,12,14,,,,,,,,,,,,,,,,,,,,,,,,,,,,,,,,,,,,,,,,,,,,,,,,,,,,,,,,,,,,,,,,,,,,,,310.7493074000231,311.1495130000403,311.1352001000196,311.25055769999744,311.63524730002973,None,left,1,0.4966582999913953,311.63524730002973,None,311.1352001000196,311.25055769999744,311.23342659999616,None,312.1503766000387,None,,,,,,,11005,001,2024_Jan_01_0924,ANT,2021.2.3,60.253087065082774,
1,7,no,down,IC,L,,,,,,Block.xlsx,"你已经完成了整个实验（三个区组）。

请报告实验者已完成实验

非常感谢，再见！",50,0,-1.5,left,RRLRR.png,,,,,0,1,1,1,0,13,13,6,,,,,,,,,,,,,,,,,,,,,,,,,,,,,,,,,,,,,,,,,,,,,,,,,,,,,,,,,,,,,,,,,,,,,,312.55159280000953,312.9525825000019,312.9350245000096,313.0356652000337,313.43610560003435,None,left,1,0.44779030000790954,313.43610560003435,None,312.9350245000096,313.0356652000337,313.0356652000337,None,313.9026902000187,None,,,,,,,11005,001,2024_Jan_01_0924,ANT,2021.2.3,60.253087065082774,
1,22,spatial,down,C,R,,,,,,Block.xlsx,"你已经完成了整个实验（三个区组）。

请报告实验者已完成实验

非常感谢，再见！",-1.5,0,-1.5,right,RRRRR.png,,,,,0,1,1,1,0,14,14,21,,,,,,,,,,,,,,,,,,,,,,,,,,,,,,,,,,,,,,,,,,,,,,,,,,,,,,,,,,,,,,,,,,,,,,314.30385399999795,314.7047703000135,314.68819250003435,314.78775550000137,315.18913370004157,None,right,1,0.3833454000414349,315.18913370004157,None,314.68819250003435,314.78775550000137,314.78775550000137,None,315.5888743000105,None,,,,,,,11005,001,2024_Jan_01_0924,ANT,2021.2.3,60.253087065082774,
1,14,center,down,C,R,,,,,,Block.xlsx,"你已经完成了整个实验（三个区组）。

请报告实验者已完成实验

非常感谢，再见！",0,50,-1.5,right,RRRRR.png,,,,,0,1,1,1,0,15,15,13,,,,,,,,,,,,,,,,,,,,,,,,,,,,,,,,,,,,,,,,,,,,,,,,,,,,,,,,,,,,,,,,,,,,,,315.9894981000107,316.39045700000133,316.37383480003336,316.4742415000219,316.87456240004394,None,right,1,0.4013422999996692,316.87456240004394,None,316.37383480003336,316.4742415000219,316.4742415000219,None,317.2916904000449,None,,,,,,,11005,001,2024_Jan_01_0924,ANT,2021.2.3,60.253087065082774,
1,3,no,up,IC,L,,,,,,Block.xlsx,"你已经完成了整个实验（三个区组）。

请报告实验者已完成实验

非常感谢，再见！",50,0,1.5,left,RRLRR.png,,,,,0,1,1,1,0,16,16,2,,,,,,,,,,,,,,,,,,,,,,,,,,,,,,,,,,,,,,,,,,,,,,,,,,,,,,,,,,,,,,,,,,,,,,317.6924251000164,318.09394809999503,318.0765338999918,318.1766348000383,318.57730080001056,None,left,1,0.5789698999724351,318.57730080001056,None,318.0765338999918,318.1766348000383,318.1766348000383,None,319.1774648000137,None,,,,,,,11005,001,2024_Jan_01_0924,ANT,2021.2.3,60.253087065082774,
1,24,spatial,down,IC,R,,,,,,Block.xlsx,"你已经完成了整个实验（三个区组）。

请报告实验者已完成实验

非常感谢，再见！",-1.5,0,-1.5,right,LLRLL.png,,,,,0,1,1,1,0,17,17,23,,,,,,,,,,,,,,,,,,,,,,,,,,,,,,,,,,,,,,,,,,,,,,,,,,,,,,,,,,,,,,,,,,,,,,319.5785899000475,319.9796113000484,319.9635178000317,320.0626906999969,320.4637706000358,None,right,1,0.5080976000172086,320.4637706000358,None,319.9635178000317,320.0626906999969,320.0626906999969,None,320.9969057000126,None,,,,,,,11005,001,2024_Jan_01_0924,ANT,2021.2.3,60.253087065082774,
1,16,center,down,IC,R,,,,,,Block.xlsx,"你已经完成了整个实验（三个区组）。

请报告实验者已完成实验

非常感谢，再见！",0,50,-1.5,right,LLRLL.png,,,,,0,1,1,1,0,18,18,15,,,,,,,,,,,,,,,,,,,,,,,,,,,,,,,,,,,,,,,,,,,,,,,,,,,,,,,,,,,,,,,,,,,,,,321.39726300002076,321.8002923000022,321.7823410000419,321.88182400004007,322.2827576000127,None,right,1,0.528787299990654,322.2827576000127,None,321.7823410000419,321.88182400004007,321.88182400004007,None,322.83322080003563,None,,,,,,,11005,001,2024_Jan_01_0924,ANT,2021.2.3,60.253087065082774,
1,5,no,down,C,L,,,,,,Block.xlsx,"你已经完成了整个实验（三个区组）。

请报告实验者已完成实验

非常感谢，再见！",50,0,-1.5,left,LLLLL.png,,,,,0,1,1,1,0,19,19,4,,,,,,,,,,,,,,,,,,,,,,,,,,,,,,,,,,,,,,,,,,,,,,,,,,,,,,,,,,,,,,,,,,,,,,323.234145800001,323.63440070004435,323.61845770000946,323.71961640001973,324.1187813000288,None,left,1,0.4771078999619931,324.1187813000288,None,323.61845770000946,323.71961640001973,323.71961640001973,None,324.61916740000015,None,,,,,,,11005,001,2024_Jan_01_0924,ANT,2021.2.3,60.253087065082774,
1,13,center,down,C,L,,,,,,Block.xlsx,"你已经完成了整个实验（三个区组）。

请报告实验者已完成实验

非常感谢，再见！",0,50,-1.5,left,LLLLL.png,,,,,0,1,1,1,0,20,20,12,,,,,,,,,,,,,,,,,,,,,,,,,,,,,,,,,,,,,,,,,,,,,,,,,,,,,,,,,,,,,,,,,,,,,,325.020049200044,325.4210970000131,325.4040824000258,325.50511930003995,325.9046317000175,None,left,1,0.44311649998417124,325.9046317000175,None,325.4040824000258,325.50511930003995,325.50511930003995,None,326.37191250000615,None,,,,,,,11005,001,2024_Jan_01_0924,ANT,2021.2.3,60.253087065082774,
1,6,no,down,C,R,,,,,,Block.xlsx,"你已经完成了整个实验（三个区组）。

请报告实验者已完成实验

非常感谢，再见！",50,0,-1.5,right,RRRRR.png,,,,,0,1,1,1,0,21,21,5,,,,,,,,,,,,,,,,,,,,,,,,,,,,,,,,,,,,,,,,,,,,,,,,,,,,,,,,,,,,,,,,,,,,,,326.7726735000033,327.17462380003417,327.15595030004624,327.2571603000397,327.6583553000237,None,right,1,0.4414119999855757,327.6583553000237,None,327.15595030004624,327.2571603000397,327.2571603000397,None,328.12399260001257,None,,,,,,,11005,001,2024_Jan_01_0924,ANT,2021.2.3,60.253087065082774,
1,2,no,up,C,R,,,,,,Block.xlsx,"你已经完成了整个实验（三个区组）。

请报告实验者已完成实验

非常感谢，再见！",50,0,1.5,right,RRRRR.png,,,,,0,1,1,1,0,22,22,1,,,,,,,,,,,,,,,,,,,,,,,,,,,,,,,,,,,,,,,,,,,,,,,,,,,,,,,,,,,,,,,,,,,,,,328.5252810000093,328.92698760004714,328.9093450999935,329.0090745000052,329.4094419000321,None,right,1,0.4740286000305787,329.4094419000321,None,328.9093450999935,329.0090745000052,329.0090745000052,None,329.9102533000405,None,,,,,,,11005,001,2024_Jan_01_0924,ANT,2021.2.3,60.253087065082774,
1,10,center,up,C,R,,,,,,Block.xlsx,"你已经完成了整个实验（三个区组）。

请报告实验者已完成实验

非常感谢，再见！",0,50,1.5,right,RRRRR.png,,,,,0,1,1,1,0,23,23,9,,,,,,,,,,,,,,,,,,,,,,,,,,,,,,,,,,,,,,,,,,,,,,,,,,,,,,,,,,,,,,,,,,,,,,330.3105774000287,330.71316760004265,330.69465990003664,330.7967496000347,331.1959629000048,None,right,1,0.44821100000990555,331.1959629000048,None,330.69465990003664,330.7967496000347,330.7967496000347,None,331.6626483,None,,,,,,,11005,001,2024_Jan_01_0924,ANT,2021.2.3,60.253087065082774,
1,4,no,up,IC,R,,,,,,Block.xlsx,"你已经完成了整个实验（三个区组）。

请报告实验者已完成实验

非常感谢，再见！",50,0,1.5,right,LLRLL.png,,,,,0,1,1,1,1,0,24,3,,,,,,,,,,,,,,,,,,,,,,,,,,,,,,,,,,,,,,,,,,,,,,,,,,,,,,,,,,,,,,,,,,,,,,332.0631308000302,332.46439290000126,332.44795780000277,332.54850279999664,332.9488234000164,None,right,1,0.5107092999969609,332.9488234000164,None,332.44795780000277,332.54850279999664,332.54850279999664,None,333.48207379999803,None,,,,,,,11005,001,2024_Jan_01_0924,ANT,2021.2.3,60.253087065082774,
1,24,spatial,down,IC,R,,,,,,Block.xlsx,"你已经完成了整个实验（三个区组）。

请报告实验者已完成实验

非常感谢，再见！",-1.5,0,-1.5,right,LLRLL.png,,,,,0,1,1,1,1,1,25,23,,,,,,,,,,,,,,,,,,,,,,,,,,,,,,,,,,,,,,,,,,,,,,,,,,,,,,,,,,,,,,,,,,,,,,333.88252159999683,334.28328480001073,334.26745849999133,334.36732240003766,334.76901029999135,None,right,1,0.4104815000318922,334.76901029999135,None,334.26745849999133,334.36732240003766,334.36732240003766,None,335.2010539000039,None,,,,,,,11005,001,2024_Jan_01_0924,ANT,2021.2.3,60.253087065082774,
1,12,center,up,IC,R,,,,,,Block.xlsx,"你已经完成了整个实验（三个区组）。

请报告实验者已完成实验

非常感谢，再见！",0,50,1.5,right,LLRLL.png,,,,,0,1,1,1,1,2,26,11,,,,,,,,,,,,,,,,,,,,,,,,,,,,,,,,,,,,,,,,,,,,,,,,,,,,,,,,,,,,,,,,,,,,,,335.6019062999985,336.00387250003405,335.9861193000106,336.08809440000914,336.48722910002107,None,right,1,0.44512779999058694,336.48722910002107,None,335.9861193000106,336.08809440000914,336.08809440000914,None,336.95445550000295,None,,,,,,,11005,001,2024_Jan_01_0924,ANT,2021.2.3,60.253087065082774,
1,8,no,down,IC,R,,,,,,Block.xlsx,"你已经完成了整个实验（三个区组）。

请报告实验者已完成实验

非常感谢，再见！",50,0,-1.5,right,LLRLL.png,,,,,0,1,1,1,1,3,27,7,,,,,,,,,,,,,,,,,,,,,,,,,,,,,,,,,,,,,,,,,,,,,,,,,,,,,,,,,,,,,,,,,,,,,,337.35478090000106,337.7562245000154,337.73825970001053,337.8391230000416,338.2402328000171,None,right,1,0.44345189997693524,338.2402328000171,None,337.73825970001053,337.8391230000416,337.8391230000416,None,338.70642669999506,None,,,,,,,11005,001,2024_Jan_01_0924,ANT,2021.2.3,60.253087065082774,
1,10,center,up,C,R,,,,,,Block.xlsx,"你已经完成了整个实验（三个区组）。

请报告实验者已完成实验

非常感谢，再见！",0,50,1.5,right,RRRRR.png,,,,,0,1,1,1,1,4,28,9,,,,,,,,,,,,,,,,,,,,,,,,,,,,,,,,,,,,,,,,,,,,,,,,,,,,,,,,,,,,,,,,,,,,,,339.106973499991,339.5097418000223,339.4915324000176,339.5914745000191,339.99309090001043,None,right,1,0.3154560999828391,339.99309090001043,None,339.4915324000176,339.5914745000191,339.5914745000191,None,340.32531169999857,None,,,,,,,11005,001,2024_Jan_01_0924,ANT,2021.2.3,60.253087065082774,
1,4,no,up,IC,R,,,,,,Block.xlsx,"你已经完成了整个实验（三个区组）。

请报告实验者已完成实验

非常感谢，再见！",50,0,1.5,right,LLRLL.png,,,,,0,1,1,1,1,5,29,3,,,,,,,,,,,,,,,,,,,,,,,,,,,,,,,,,,,,,,,,,,,,,,,,,,,,,,,,,,,,,,,,,,,,,,340.7261467000353,341.12723790004384,341.1106184000382,341.2108506000368,341.6113765000482,None,right,1,0.44062700000358745,341.6113765000482,None,341.1106184000382,341.2108506000368,341.2108506000368,None,342.0781084000482,None,,,,,,,11005,001,2024_Jan_01_0924,ANT,2021.2.3,60.253087065082774,
1,15,center,down,IC,L,,,,,,Block.xlsx,"你已经完成了整个实验（三个区组）。

请报告实验者已完成实验

非常感谢，再见！",0,50,-1.5,left,RRLRR.png,,,,,0,1,1,1,1,6,30,14,,,,,,,,,,,,,,,,,,,,,,,,,,,,,,,,,,,,,,,,,,,,,,,,,,,,,,,,,,,,,,,,,,,,,,342.4786846000352,342.88036980002653,342.86343299999135,342.96387550001964,343.3633783000405,None,left,1,0.5689250000286847,343.3633783000405,None,342.86343299999135,342.96387550001964,342.96387550001964,None,343.94754290004494,None,,,,,,,11005,001,2024_Jan_01_0924,ANT,2021.2.3,60.253087065082774,
1,21,spatial,down,C,L,,,,,,Block.xlsx,"你已经完成了整个实验（三个区组）。

请报告实验者已完成实验

非常感谢，再见！",-1.5,0,-1.5,left,LLLLL.png,,,,,0,1,1,1,1,7,31,20,,,,,,,,,,,,,,,,,,,,,,,,,,,,,,,,,,,,,,,,,,,,,,,,,,,,,,,,,,,,,,,,,,,,,,344.34834640001645,344.7499141000444,344.7321569999913,344.83314500004053,345.233871000004,None,left,1,0.32172890001675114,345.233871000004,None,344.7321569999913,344.83314500004053,344.83314500004053,None,345.5840752000222,None,,,,,,,11005,001,2024_Jan_01_0924,ANT,2021.2.3,60.253087065082774,
1,15,center,down,IC,L,,,,,,Block.xlsx,"你已经完成了整个实验（三个区组）。

请报告实验者已完成实验

非常感谢，再见！",0,50,-1.5,left,RRLRR.png,,,,,0,1,1,1,1,8,32,14,,,,,,,,,,,,,,,,,,,,,,,,,,,,,,,,,,,,,,,,,,,,,,,,,,,,,,,,,,,,,,,,,,,,,,345.9844752000063,346.3869064000319,346.36861090001184,346.4680871000164,346.869465900003,None,left,1,0.3901190999895334,346.869465900003,None,346.36861090001184,346.4680871000164,346.4680871000164,None,347.28567930002464,None,,,,,,,11005,001,2024_Jan_01_0924,ANT,2021.2.3,60.253087065082774,
1,19,spatial,up,IC,L,,,,,,Block.xlsx,"你已经完成了整个实验（三个区组）。

请报告实验者已完成实验

非常感谢，再见！",1.5,0,1.5,left,RRLRR.png,,,,,0,1,1,1,1,9,33,18,,,,,,,,,,,,,,,,,,,,,,,,,,,,,,,,,,,,,,,,,,,,,,,,,,,,,,,,,,,,,,,,,,,,,,347.6866164000239,348.0873851000215,348.07096899999306,348.17008350003744,348.57134110003244,None,left,1,0.44068719999631867,348.57134110003244,None,348.07096899999306,348.17008350003744,348.17008350003744,None,349.0384374000132,None,,,,,,,11005,001,2024_Jan_01_0924,ANT,2021.2.3,60.253087065082774,
1,20,spatial,up,IC,R,,,,,,Block.xlsx,"你已经完成了整个实验（三个区组）。

请报告实验者已完成实验

非常感谢，再见！",1.5,0,1.5,right,LLRLL.png,,,,,0,1,1,1,1,10,34,19,,,,,,,,,,,,,,,,,,,,,,,,,,,,,,,,,,,,,,,,,,,,,,,,,,,,,,,,,,,,,,,,,,,,,,349.4389971999917,349.84060950001003,349.82402380002895,349.9251132000354,350.32571870001266,None,right,1,0.42194989998824894,350.32571870001266,None,349.82402380002895,349.9251132000354,349.9251132000354,None,350.7742515000282,None,,,,,,,11005,001,2024_Jan_01_0924,ANT,2021.2.3,60.253087065082774,
1,7,no,down,IC,L,,,,,,Block.xlsx,"你已经完成了整个实验（三个区组）。

请报告实验者已完成实验

非常感谢，再见！",50,0,-1.5,left,RRLRR.png,,,,,0,1,1,1,1,11,35,6,,,,,,,,,,,,,,,,,,,,,,,,,,,,,,,,,,,,,,,,,,,,,,,,,,,,,,,,,,,,,,,,,,,,,,351.1751970000332,351.57612490002066,351.5595767000341,351.6593940000166,352.0606103000464,None,left,1,0.5028229999588802,352.0606103000464,None,351.5595767000341,351.6593940000166,351.6593940000166,None,352.59399230004055,None,,,,,,,11005,001,2024_Jan_01_0924,ANT,2021.2.3,60.253087065082774,
1,9,center,up,C,L,,,,,,Block.xlsx,"你已经完成了整个实验（三个区组）。

请报告实验者已完成实验

非常感谢，再见！",0,50,1.5,left,LLLLL.png,,,,,0,1,1,1,1,12,36,8,,,,,,,,,,,,,,,,,,,,,,,,,,,,,,,,,,,,,,,,,,,,,,,,,,,,,,,,,,,,,,,,,,,,,,352.99523669999326,353.39558490004856,353.37924939999357,353.4794885000447,353.8810245000059,None,left,1,0.3548220999655314,353.8810245000059,None,353.37924939999357,353.4794885000447,353.4794885000447,None,354.26292250002734,None,,,,,,,11005,001,2024_Jan_01_0924,ANT,2021.2.3,60.253087065082774,
1,3,no,up,IC,L,,,,,,Block.xlsx,"你已经完成了整个实验（三个区组）。

请报告实验者已完成实验

非常感谢，再见！",50,0,1.5,left,RRLRR.png,,,,,0,1,1,1,1,13,37,2,,,,,,,,,,,,,,,,,,,,,,,,,,,,,,,,,,,,,,,,,,,,,,,,,,,,,,,,,,,,,,,,,,,,,,354.66341300000204,355.0641752000083,355.0480649000383,355.14871650002897,355.5487259000074,None,left,1,0.43929340003523976,355.5487259000074,None,355.0480649000383,355.14871650002897,355.14871650002897,None,356.01574290002463,None,,,,,,,11005,001,2024_Jan_01_0924,ANT,2021.2.3,60.253087065082774,
1,14,center,down,C,R,,,,,,Block.xlsx,"你已经完成了整个实验（三个区组）。

请报告实验者已完成实验

非常感谢，再见！",0,50,-1.5,right,RRRRR.png,,,,,0,1,1,1,1,14,38,13,,,,,,,,,,,,,,,,,,,,,,,,,,,,,,,,,,,,,,,,,,,,,,,,,,,,,,,,,,,,,,,,,,,,,,356.4166554000112,356.8170534000383,356.8004842000082,356.9021055000485,357.30084969999734,None,right,1,0.35149759997148067,357.30084969999734,None,356.8004842000082,356.9021055000485,356.9021055000485,None,357.6681748999981,None,,,,,,,11005,001,2024_Jan_01_0924,ANT,2021.2.3,60.253087065082774,
1,22,spatial,down,C,R,,,,,,Block.xlsx,"你已经完成了整个实验（三个区组）。

请报告实验者已完成实验

非常感谢，再见！",-1.5,0,-1.5,right,RRRRR.png,,,,,0,1,1,1,1,15,39,21,,,,,,,,,,,,,,,,,,,,,,,,,,,,,,,,,,,,,,,,,,,,,,,,,,,,,,,,,,,,,,,,,,,,,,358.06908390001627,358.4698212000076,358.4531265000114,358.553198300011,358.95537660003174,None,right,1,0.30436499998904765,358.95537660003174,None,358.4531265000114,358.553198300011,358.553198300011,None,359.28697210003156,None,,,,,,,11005,001,2024_Jan_01_0924,ANT,2021.2.3,60.253087065082774,
1,2,no,up,C,R,,,,,,Block.xlsx,"你已经完成了整个实验（三个区组）。

请报告实验者已完成实验

非常感谢，再见！",50,0,1.5,right,RRRRR.png,,,,,0,1,1,1,1,16,40,1,,,,,,,,,,,,,,,,,,,,,,,,,,,,,,,,,,,,,,,,,,,,,,,,,,,,,,,,,,,,,,,,,,,,,,359.6878765000147,360.0884764000075,360.07325360004324,360.18871250003576,360.57261890004156,None,right,1,0.43166829994879663,360.57261890004156,None,360.07325360004324,360.18871250003576,360.17340630001854,None,361.0228874000022,None,,,,,,,11005,001,2024_Jan_01_0924,ANT,2021.2.3,60.253087065082774,
1,2,no,up,C,R,,,,,,Block.xlsx,"你已经完成了整个实验（三个区组）。

请报告实验者已完成实验

非常感谢，再见！",50,0,1.5,right,RRRRR.png,,,,,0,1,1,1,1,17,41,1,,,,,,,,,,,,,,,,,,,,,,,,,,,,,,,,,,,,,,,,,,,,,,,,,,,,,,,,,,,,,,,,,,,,,,361.42422380001517,361.825965200027,361.8077215999947,361.90988759999163,362.31000450003194,None,right,1,0.46227790002012625,362.31000450003194,None,361.8077215999947,361.90988759999163,361.90988759999163,None,362.7926630000002,None,,,,,,,11005,001,2024_Jan_01_0924,ANT,2021.2.3,60.253087065082774,
1,13,center,down,C,L,,,,,,Block.xlsx,"你已经完成了整个实验（三个区组）。

请报告实验者已完成实验

非常感谢，再见！",0,50,-1.5,left,LLLLL.png,,,,,0,1,1,1,1,18,42,12,,,,,,,,,,,,,,,,,,,,,,,,,,,,,,,,,,,,,,,,,,,,,,,,,,,,,,,,,,,,,,,,,,,,,,363.1929154000245,363.5939553999924,363.57752819999587,363.6783062000177,364.079116900044,None,left,1,0.4843618999584578,364.079116900044,None,363.57752819999587,363.6783062000177,363.6783062000177,None,364.57804440002656,None,,,,,,,11005,001,2024_Jan_01_0924,ANT,2021.2.3,60.253087065082774,
1,9,center,up,C,L,,,,,,Block.xlsx,"你已经完成了整个实验（三个区组）。

请报告实验者已完成实验

非常感谢，再见！",0,50,1.5,left,LLLLL.png,,,,,0,1,1,1,1,19,43,8,,,,,,,,,,,,,,,,,,,,,,,,,,,,,,,,,,,,,,,,,,,,,,,,,,,,,,,,,,,,,,,,,,,,,,364.9790004999959,365.3805329000461,365.3630137,365.46434450004017,365.86338930000784,None,left,1,0.48506640002597123,365.86338930000784,None,365.3630137,365.46434450004017,365.46434450004017,None,366.3640406000195,None,,,,,,,11005,001,2024_Jan_01_0924,ANT,2021.2.3,60.253087065082774,
1,9,center,up,C,L,,,,,,Block.xlsx,"你已经完成了整个实验（三个区组）。

请报告实验者已完成实验

非常感谢，再见！",0,50,1.5,left,LLLLL.png,,,,,0,1,1,1,1,20,44,8,,,,,,,,,,,,,,,,,,,,,,,,,,,,,,,,,,,,,,,,,,,,,,,,,,,,,,,,,,,,,,,,,,,,,,366.76471340004355,367.16562400001567,367.14914080000017,367.2498595000361,367.6509968000464,None,left,1,0.37682359997415915,367.6509968000464,None,367.14914080000017,367.2498595000361,367.2498595000361,None,368.04988490004325,None,,,,,,,11005,001,2024_Jan_01_0924,ANT,2021.2.3,60.253087065082774,
1,12,center,up,IC,R,,,,,,Block.xlsx,"你已经完成了整个实验（三个区组）。

请报告实验者已完成实验

非常感谢，再见！",0,50,1.5,right,LLRLL.png,,,,,0,1,1,1,1,21,45,11,,,,,,,,,,,,,,,,,,,,,,,,,,,,,,,,,,,,,,,,,,,,,,,,,,,,,,,,,,,,,,,,,,,,,,368.4509670000407,368.85235380002996,368.8345973000396,368.9358393000439,369.3350033000461,None,left,0,0.3650441000354476,369.3350033000461,None,368.8345973000396,368.9358393000439,368.9358393000439,None,369.719118900015,None,,,,,,,11005,001,2024_Jan_01_0924,ANT,2021.2.3,60.253087065082774,
1,18,spatial,up,C,R,,,,,,Block.xlsx,"你已经完成了整个实验（三个区组）。

请报告实验者已完成实验

非常感谢，再见！",1.5,0,1.5,right,RRRRR.png,,,,,0,1,1,1,1,22,46,17,,,,,,,,,,,,,,,,,,,,,,,,,,,,,,,,,,,,,,,,,,,,,,,,,,,,,,,,,,,,,,,,,,,,,,370.1197852000478,370.521692600043,370.50400760001503,370.6057166000246,371.00497960002394,None,right,1,0.3671950999996625,371.00497960002394,None,370.50400760001503,370.6057166000246,370.6057166000246,None,371.3881254000007,None,,,,,,,11005,001,2024_Jan_01_0924,ANT,2021.2.3,60.253087065082774,
1,19,spatial,up,IC,L,,,,,,Block.xlsx,"你已经完成了整个实验（三个区组）。

请报告实验者已完成实验

非常感谢，再见！",1.5,0,1.5,left,RRLRR.png,,,,,0,1,1,1,1,23,47,18,,,,,,,,,,,,,,,,,,,,,,,,,,,,,,,,,,,,,,,,,,,,,,,,,,,,,,,,,,,,,,,,,,,,,,371.78881759999786,372.19016140000895,372.17317550000735,372.2747715000296,372.6737700999947,None,left,1,0.3863292000023648,372.6737700999947,None,372.17317550000735,372.2747715000296,372.2747715000296,None,373.07454000000143,None,,,,,,,11005,001,2024_Jan_01_0924,ANT,2021.2.3,60.253087065082774,
1,3,no,up,IC,L,,,,,,Block.xlsx,"你已经完成了整个实验（三个区组）。

请报告实验者已完成实验

非常感谢，再见！",50,0,1.5,left,RRLRR.png,,,,,0,1,1,1,2,0,48,2,,,,,,,,,,,,,,,,,,,,,,,,,,,,,,,,,,,,,,,,,,,,,,,,,,,,,,,,,,,,,,,,,,,,,,373.4757028000313,373.87583219999215,373.8590449000476,373.9591175999958,374.35984520002967,None,left,1,0.6118706000270322,374.35984520002967,None,373.8590449000476,373.9591175999958,373.9591175999958,None,374.99349419999635,None,,,,,,,11005,001,2024_Jan_01_0924,ANT,2021.2.3,60.253087065082774,
1,5,no,down,C,L,,,,,,Block.xlsx,"你已经完成了整个实验（三个区组）。

请报告实验者已完成实验

非常感谢，再见！",50,0,-1.5,left,LLLLL.png,,,,,0,1,1,1,2,1,49,4,,,,,,,,,,,,,,,,,,,,,,,,,,,,,,,,,,,,,,,,,,,,,,,,,,,,,,,,,,,,,,,,,,,,,,375.3940402000444,375.7952404000098,375.7785667999997,375.87920570001006,376.2811181000434,None,left,1,0.5548353999620304,376.2811181000434,None,375.7785667999997,375.87920570001006,375.87920570001006,None,376.8630927000195,None,,,,,,,11005,001,2024_Jan_01_0924,ANT,2021.2.3,60.253087065082774,
1,8,no,down,IC,R,,,,,,Block.xlsx,"你已经完成了整个实验（三个区组）。

请报告实验者已完成实验

非常感谢，再见！",50,0,-1.5,right,LLRLL.png,,,,,0,1,1,1,2,2,50,7,,,,,,,,,,,,,,,,,,,,,,,,,,,,,,,,,,,,,,,,,,,,,,,,,,,,,,,,,,,,,,,,,,,,,,377.2639885999961,377.6646640000399,377.6482161000022,377.7481398000382,378.1487545000273,None,right,1,0.4639564999961294,378.1487545000273,None,377.6482161000022,377.7481398000382,377.7481398000382,None,378.6323219000478,None,,,,,,,11005,001,2024_Jan_01_0924,ANT,2021.2.3,60.253087065082774,
1,21,spatial,down,C,L,,,,,,Block.xlsx,"你已经完成了整个实验（三个区组）。

请报告实验者已完成实验

非常感谢，再见！",-1.5,0,-1.5,left,LLLLL.png,,,,,0,1,1,1,2,3,51,20,,,,,,,,,,,,,,,,,,,,,,,,,,,,,,,,,,,,,,,,,,,,,,,,,,,,,,,,,,,,,,,,,,,,,,379.0336903000134,379.4340809000423,379.41751280002063,379.5179799000034,379.9183944000397,None,left,1,0.39784679998410866,379.9183944000397,None,379.41751280002063,379.5179799000034,379.5179799000034,None,380.33468379999977,None,,,,,,,11005,001,2024_Jan_01_0924,ANT,2021.2.3,60.253087065082774,
1,14,center,down,C,R,,,,,,Block.xlsx,"你已经完成了整个实验（三个区组）。

请报告实验者已完成实验

非常感谢，再见！",0,50,-1.5,right,RRRRR.png,,,,,0,1,1,1,2,4,52,13,,,,,,,,,,,,,,,,,,,,,,,,,,,,,,,,,,,,,,,,,,,,,,,,,,,,,,,,,,,,,,,,,,,,,,380.7355716000311,381.1368611000362,381.12143749999814,381.2194053000421,381.62013190001016,None,right,1,0.4157503000460565,381.62013190001016,None,381.12143749999814,381.2194053000421,381.2194053000421,None,382.0544699000311,None,,,,,,,11005,001,2024_Jan_01_0924,ANT,2021.2.3,60.253087065082774,
1,17,spatial,up,C,L,,,,,,Block.xlsx,"你已经完成了整个实验（三个区组）。

请报告实验者已完成实验

非常感谢，再见！",1.5,0,1.5,left,LLLLL.png,,,,,0,1,1,1,2,5,53,16,,,,,,,,,,,,,,,,,,,,,,,,,,,,,,,,,,,,,,,,,,,,,,,,,,,,,,,,,,,,,,,,,,,,,,382.4546588000376,382.85640390001936,382.8383478000178,382.9389908000012,383.33984030003194,None,left,1,0.34405040001729503,383.33984030003194,None,382.8383478000178,382.9389908000012,382.9389908000012,None,383.70678589999443,None,,,,,,,11005,001,2024_Jan_01_0924,ANT,2021.2.3,60.253087065082774,
1,11,center,up,IC,L,,,,,,Block.xlsx,"你已经完成了整个实验（三个区组）。

请报告实验者已完成实验

非常感谢，再见！",0,50,1.5,left,RRLRR.png,,,,,0,1,1,1,2,6,54,10,,,,,,,,,,,,,,,,,,,,,,,,,,,,,,,,,,,,,,,,,,,,,,,,,,,,,,,,,,,,,,,,,,,,,,384.10791000002064,384.5086991999997,384.49198270001216,384.5930866000126,384.99370220000856,None,left,1,0.38597280002431944,384.99370220000856,None,384.49198270001216,384.5930866000126,384.5930866000126,None,385.4099870999926,None,,,,,,,11005,001,2024_Jan_01_0924,ANT,2021.2.3,60.253087065082774,
1,24,spatial,down,IC,R,,,,,,Block.xlsx,"你已经完成了整个实验（三个区组）。

请报告实验者已完成实验

非常感谢，再见！",-1.5,0,-1.5,right,LLRLL.png,,,,,0,1,1,1,2,7,55,23,,,,,,,,,,,,,,,,,,,,,,,,,,,,,,,,,,,,,,,,,,,,,,,,,,,,,,,,,,,,,,,,,,,,,,385.8096629999927,386.2108117000316,386.1942290000152,386.29452410002705,386.6959725000197,None,right,1,0.35577660001581535,386.6959725000197,None,386.1942290000152,386.29452410002705,386.29452410002705,None,387.077979099995,None,,,,,,,11005,001,2024_Jan_01_0924,ANT,2021.2.3,60.253087065082774,
1,6,no,down,C,R,,,,,,Block.xlsx,"你已经完成了整个实验（三个区组）。

请报告实验者已完成实验

非常感谢，再见！",50,0,-1.5,right,RRRRR.png,,,,,0,1,1,1,2,8,56,5,,,,,,,,,,,,,,,,,,,,,,,,,,,,,,,,,,,,,,,,,,,,,,,,,,,,,,,,,,,,,,,,,,,,,,387.47966480004834,387.88187550002476,387.8635586000164,387.96340230002534,388.36454450001474,None,right,1,0.42318619997240603,388.36454450001474,None,387.8635586000164,387.96340230002534,387.96340230002534,None,388.81414999999106,None,,,,,,,11005,001,2024_Jan_01_0924,ANT,2021.2.3,60.253087065082774,
1,18,spatial,up,C,R,,,,,,Block.xlsx,"你已经完成了整个实验（三个区组）。

请报告实验者已完成实验

非常感谢，再见！",1.5,0,1.5,right,RRRRR.png,,,,,0,1,1,1,2,9,57,17,,,,,,,,,,,,,,,,,,,,,,,,,,,,,,,,,,,,,,,,,,,,,,,,,,,,,,,,,,,,,,,,,,,,,,389.21472750004614,389.6155625000247,389.5994319000165,389.70060260000173,390.0996991000138,None,right,1,0.29706190002616495,390.0996991000138,None,389.5994319000165,389.70060260000173,389.70060260000173,None,390.416212000011,None,,,,,,,11005,001,2024_Jan_01_0924,ANT,2021.2.3,60.253087065082774,
1,13,center,down,C,L,,,,,,Block.xlsx,"你已经完成了整个实验（三个区组）。

请报告实验者已完成实验

非常感谢，再见！",0,50,-1.5,left,LLLLL.png,,,,,0,1,1,1,2,10,58,12,,,,,,,,,,,,,,,,,,,,,,,,,,,,,,,,,,,,,,,,,,,,,,,,,,,,,,,,,,,,,,,,,,,,,,390.81733930000337,391.2194941000198,391.2015528000193,391.30165040004067,391.70235720003257,None,left,1,0.5020535999792628,391.70235720003257,None,391.2015528000193,391.30165040004067,391.30165040004067,None,392.2194594000466,None,,,,,,,11005,001,2024_Jan_01_0924,ANT,2021.2.3,60.253087065082774,
1,1,no,up,C,L,,,,,,Block.xlsx,"你已经完成了整个实验（三个区组）。

请报告实验者已完成实验

非常感谢，再见！",50,0,1.5,left,LLLLL.png,,,,,0,1,1,1,2,11,59,0,,,,,,,,,,,,,,,,,,,,,,,,,,,,,,,,,,,,,,,,,,,,,,,,,,,,,,,,,,,,,,,,,,,,,,392.62040640000487,393.02039479999803,393.0042723999941,393.1044671999989,393.5050700000138,None,left,1,0.43527449999237433,393.5050700000138,None,393.0042723999941,393.1044671999989,393.1044671999989,None,393.9549438999966,None,,,,,,,11005,001,2024_Jan_01_0924,ANT,2021.2.3,60.253087065082774,
1,13,center,down,C,L,,,,,,Block.xlsx,"你已经完成了整个实验（三个区组）。

请报告实验者已完成实验

非常感谢，再见！",0,50,-1.5,left,LLLLL.png,,,,,0,1,1,1,2,12,60,12,,,,,,,,,,,,,,,,,,,,,,,,,,,,,,,,,,,,,,,,,,,,,,,,,,,,,,,,,,,,,,,,,,,,,,394.35555610002484,394.7581155000371,394.73962830001255,394.8415430000168,395.2408421,None,left,1,0.4673514000023715,395.2408421,None,394.73962830001255,394.8415430000168,394.8415430000168,None,395.72435259999475,None,,,,,,,11005,001,2024_Jan_01_0924,ANT,2021.2.3,60.253087065082774,
1,18,spatial,up,C,R,,,,,,Block.xlsx,"你已经完成了整个实验（三个区组）。

请报告实验者已完成实验

非常感谢，再见！",1.5,0,1.5,right,RRRRR.png,,,,,0,1,1,1,2,13,61,17,,,,,,,,,,,,,,,,,,,,,,,,,,,,,,,,,,,,,,,,,,,,,,,,,,,,,,,,,,,,,,,,,,,,,,396.12565750000067,396.5259209999931,396.51050309999846,396.6089367000386,397.00989020004636,None,right,1,0.32237379997968674,397.00989020004636,None,396.51050309999846,396.6089367000386,396.6089367000386,None,397.3607595000067,None,,,,,,,11005,001,2024_Jan_01_0924,ANT,2021.2.3,60.253087065082774,
1,24,spatial,down,IC,R,,,,,,Block.xlsx,"你已经完成了整个实验（三个区组）。

请报告实验者已完成实验

非常感谢，再见！",-1.5,0,-1.5,right,LLRLL.png,,,,,0,1,1,1,2,14,62,23,,,,,,,,,,,,,,,,,,,,,,,,,,,,,,,,,,,,,,,,,,,,,,,,,,,,,,,,,,,,,,,,,,,,,,397.76061260001734,398.1617761999951,398.1458515000413,398.2446058000205,398.64540560002206,None,right,1,0.47014689998468384,398.64540560002206,None,398.1458515000413,398.2446058000205,398.2446058000205,None,399.12927580001997,None,,,,,,,11005,001,2024_Jan_01_0924,ANT,2021.2.3,60.253087065082774,
1,6,no,down,C,R,,,,,,Block.xlsx,"你已经完成了整个实验（三个区组）。

请报告实验者已完成实验

非常感谢，再见！",50,0,-1.5,right,RRRRR.png,,,,,0,1,1,1,2,15,63,5,,,,,,,,,,,,,,,,,,,,,,,,,,,,,,,,,,,,,,,,,,,,,,,,,,,,,,,,,,,,,,,,,,,,,,399.5307167000137,399.9328429000452,399.91485100000864,400.0145510000293,400.4152010999969,None,right,1,0.35644760000286624,400.4152010999969,None,399.91485100000864,400.0145510000293,400.0145510000293,None,400.7990103000193,None,,,,,,,11005,001,2024_Jan_01_0924,ANT,2021.2.3,60.253087065082774,
1,22,spatial,down,C,R,,,,,,Block.xlsx,"你已经完成了整个实验（三个区组）。

请报告实验者已完成实验

非常感谢，再见！",-1.5,0,-1.5,right,RRRRR.png,,,,,0,1,1,1,2,16,64,21,,,,,,,,,,,,,,,,,,,,,,,,,,,,,,,,,,,,,,,,,,,,,,,,,,,,,,,,,,,,,,,,,,,,,,401.198857600044,401.60118260001764,401.5835594999953,401.68457240000134,402.0838692000252,None,right,1,0.3519192000385374,402.0838692000252,None,401.5835594999953,401.68457240000134,401.68457240000134,None,402.45128530001966,None,,,,,,,11005,001,2024_Jan_01_0924,ANT,2021.2.3,60.253087065082774,
1,5,no,down,C,L,,,,,,Block.xlsx,"你已经完成了整个实验（三个区组）。

请报告实验者已完成实验

非常感谢，再见！",50,0,-1.5,left,LLLLL.png,,,,,0,1,1,1,2,17,65,4,,,,,,,,,,,,,,,,,,,,,,,,,,,,,,,,,,,,,,,,,,,,,,,,,,,,,,,,,,,,,,,,,,,,,,402.852268800023,403.2538969000452,403.23611950001214,403.3361445000046,403.73692540003685,None,left,1,0.45863140001893044,403.73692540003685,None,403.23611950001214,403.3361445000046,403.3361445000046,None,404.220206100028,None,,,,,,,11005,001,2024_Jan_01_0924,ANT,2021.2.3,60.253087065082774,
1,11,center,up,IC,L,,,,,,Block.xlsx,"你已经完成了整个实验（三个区组）。

请报告实验者已完成实验

非常感谢，再见！",0,50,1.5,left,RRLRR.png,,,,,0,1,1,1,2,18,66,10,,,,,,,,,,,,,,,,,,,,,,,,,,,,,,,,,,,,,,,,,,,,,,,,,,,,,,,,,,,,,,,,,,,,,,404.6215788000263,405.0220345000271,405.0053222000133,405.1069499000441,405.5075683000032,None,left,1,0.5608023999957368,405.5075683000032,None,405.0053222000133,405.1069499000441,405.1069499000441,None,406.08960740000475,None,,,,,,,11005,001,2024_Jan_01_0924,ANT,2021.2.3,60.253087065082774,
1,7,no,down,IC,L,,,,,,Block.xlsx,"你已经完成了整个实验（三个区组）。

请报告实验者已完成实验

非常感谢，再见！",50,0,-1.5,left,RRLRR.png,,,,,0,1,1,1,2,19,67,6,,,,,,,,,,,,,,,,,,,,,,,,,,,,,,,,,,,,,,,,,,,,,,,,,,,,,,,,,,,,,,,,,,,,,,406.49049500003457,406.8907287000329,406.8748429000261,406.97611059999326,407.37719309999375,None,left,1,0.5705385000328533,407.37719309999375,None,406.8748429000261,406.97611059999326,406.97611059999326,None,407.9756697000121,None,,,,,,,11005,001,2024_Jan_01_0924,ANT,2021.2.3,60.253087065082774,
1,14,center,down,C,R,,,,,,Block.xlsx,"你已经完成了整个实验（三个区组）。

请报告实验者已完成实验

非常感谢，再见！",0,50,-1.5,right,RRRRR.png,,,,,0,1,1,1,2,20,68,13,,,,,,,,,,,,,,,,,,,,,,,,,,,,,,,,,,,,,,,,,,,,,,,,,,,,,,,,,,,,,,,,,,,,,,408.3772447000374,408.7790519000264,408.76121389999753,408.86067210003966,409.26159080001526,None,right,1,0.46242749999510124,409.26159080001526,None,408.76121389999753,408.86067210003966,408.86067210003966,None,409.7450203000335,None,,,,,,,11005,001,2024_Jan_01_0924,ANT,2021.2.3,60.253087065082774,
1,1,no,up,C,L,,,,,,Block.xlsx,"你已经完成了整个实验（三个区组）。

请报告实验者已完成实验

非常感谢，再见！",50,0,1.5,left,LLLLL.png,,,,,0,1,1,1,2,21,69,0,,,,,,,,,,,,,,,,,,,,,,,,,,,,,,,,,,,,,,,,,,,,,,,,,,,,,,,,,,,,,,,,,,,,,,410.1468309999909,410.54839390004054,410.5301252999925,410.6301750999992,411.0321098000277,None,left,1,0.5235128999920562,411.0321098000277,None,410.5301252999925,410.6301750999992,410.6301750999992,None,411.5813187000458,None,,,,,,,11005,001,2024_Jan_01_0924,ANT,2021.2.3,60.253087065082774,
1,12,center,up,IC,R,,,,,,Block.xlsx,"你已经完成了整个实验（三个区组）。

请报告实验者已完成实验

非常感谢，再见！",0,50,1.5,right,LLRLL.png,,,,,0,1,1,1,2,22,70,11,,,,,,,,,,,,,,,,,,,,,,,,,,,,,,,,,,,,,,,,,,,,,,,,,,,,,,,,,,,,,,,,,,,,,,411.98232210002607,412.3830149000278,412.36619100003736,412.4656479000114,412.86848540004576,None,right,1,1.2633124999701977,412.86848540004576,None,412.36619100003736,412.4656479000114,412.4656479000114,None,414.1514897000161,None,,,,,,,11005,001,2024_Jan_01_0924,ANT,2021.2.3,60.253087065082774,
1,18,spatial,up,C,R,,,,,,Block.xlsx,"你已经完成了整个实验（三个区组）。

请报告实验者已完成实验

非常感谢，再见！",1.5,0,1.5,right,RRRRR.png,,,,,0,1,1,1,2,23,71,17,,,,,,,,,,,,,,,,,,,,,,,,,,,,,,,,,,,,,,,,,,,,,,,,,,,,,,,,,,,,,,,,,,,,,,414.55268330004765,414.9537786000292,414.93703990004724,415.03696150000906,415.4389999000123,None,right,1,0.3406847000005655,415.4389999000123,None,414.93703990004724,415.03696150000906,415.03696150000906,None,415.8044215000118,None,,,,,,,11005,001,2024_Jan_01_0924,ANT,2021.2.3,60.253087065082774,
1,19,spatial,up,IC,L,,,,,,Block.xlsx,"你已经完成了整个实验（三个区组）。

请报告实验者已完成实验

非常感谢，再见！",1.5,0,1.5,left,RRLRR.png,,,,,0,1,1,1,3,0,72,18,,,,,,,,,,,,,,,,,,,,,,,,,,,,,,,,,,,,,,,,,,,,,,,,,,,,,,,,,,,,,,,,,,,,,,416.204620500037,416.60714850004297,416.5894000999979,416.6899534999975,417.09090030001244,None,left,1,0.440897100022994,417.09090030001244,None,416.5894000999979,416.6899534999975,416.6899534999975,None,417.55640950001543,None,,,,,,,11005,001,2024_Jan_01_0924,ANT,2021.2.3,60.253087065082774,
1,23,spatial,down,IC,L,,,,,,Block.xlsx,"你已经完成了整个实验（三个区组）。

请报告实验者已完成实验

非常感谢，再见！",-1.5,0,-1.5,left,RRLRR.png,,,,,0,1,1,1,3,1,73,22,,,,,,,,,,,,,,,,,,,,,,,,,,,,,,,,,,,,,,,,,,,,,,,,,,,,,,,,,,,,,,,,,,,,,,417.9572012000135,418.35853040002985,418.34130130003905,418.4419674000237,418.84283010003855,None,left,1,0.4247817999566905,418.84283010003855,None,418.34130130003905,418.4419674000237,418.4419674000237,None,419.2925014999928,None,,,,,,,11005,001,2024_Jan_01_0924,ANT,2021.2.3,60.253087065082774,
1,6,no,down,C,R,,,,,,Block.xlsx,"你已经完成了整个实验（三个区组）。

请报告实验者已完成实验

非常感谢，再见！",50,0,-1.5,right,RRRRR.png,,,,,0,1,1,1,3,2,74,5,,,,,,,,,,,,,,,,,,,,,,,,,,,,,,,,,,,,,,,,,,,,,,,,,,,,,,,,,,,,,,,,,,,,,,419.6934553000028,420.095532700012,420.0777661000029,420.1777629000135,420.57851010002196,None,right,1,0.4411419000243768,420.57851010002196,None,420.0777661000029,420.1777629000135,420.1777629000135,None,421.0460932000424,None,,,,,,,11005,001,2024_Jan_01_0924,ANT,2021.2.3,60.253087065082774,
1,4,no,up,IC,R,,,,,,Block.xlsx,"你已经完成了整个实验（三个区组）。

请报告实验者已完成实验

非常感谢，再见！",50,0,1.5,right,LLRLL.png,,,,,0,1,1,1,3,3,75,3,,,,,,,,,,,,,,,,,,,,,,,,,,,,,,,,,,,,,,,,,,,,,,,,,,,,,,,,,,,,,,,,,,,,,,421.4465081000235,421.847116000019,421.8298111000331,421.9310130000231,422.33021360001294,None,right,1,0.5935008000233211,422.33021360001294,None,421.8298111000331,421.9310130000231,421.9310130000231,None,422.94784969999455,None,,,,,,,11005,001,2024_Jan_01_0924,ANT,2021.2.3,60.253087065082774,
1,9,center,up,C,L,,,,,,Block.xlsx,"你已经完成了整个实验（三个区组）。

请报告实验者已完成实验

非常感谢，再见！",0,50,1.5,left,LLLLL.png,,,,,0,1,1,1,3,4,76,8,,,,,,,,,,,,,,,,,,,,,,,,,,,,,,,,,,,,,,,,,,,,,,,,,,,,,,,,,,,,,,,,,,,,,,423.34910809999565,423.74946610000916,423.7334663000074,423.8339274000027,424.23370530002285,None,left,1,0.4581307000480592,424.23370530002285,None,423.7334663000074,423.8339274000027,423.8339274000027,None,424.7174530000193,None,,,,,,,11005,001,2024_Jan_01_0924,ANT,2021.2.3,60.253087065082774,
1,20,spatial,up,IC,R,,,,,,Block.xlsx,"你已经完成了整个实验（三个区组）。

请报告实验者已完成实验

非常感谢，再见！",1.5,0,1.5,right,LLRLL.png,,,,,0,1,1,1,3,5,77,19,,,,,,,,,,,,,,,,,,,,,,,,,,,,,,,,,,,,,,,,,,,,,,,,,,,,,,,,,,,,,,,,,,,,,,425.1184750000248,425.518819799996,425.50413430004846,425.6027659000247,426.0035282000317,None,right,1,0.42422619997523725,426.0035282000317,None,425.50413430004846,425.6027659000247,425.6027659000247,None,426.4531287000282,None,,,,,,,11005,001,2024_Jan_01_0924,ANT,2021.2.3,60.253087065082774,
1,1,no,up,C,L,,,,,,Block.xlsx,"你已经完成了整个实验（三个区组）。

请报告实验者已完成实验

非常感谢，再见！",50,0,1.5,left,LLLLL.png,,,,,0,1,1,1,3,6,78,0,,,,,,,,,,,,,,,,,,,,,,,,,,,,,,,,,,,,,,,,,,,,,,,,,,,,,,,,,,,,,,,,,,,,,,426.85371860000305,427.25532370002475,427.2384197000065,427.33846120000817,427.73909460002324,None,left,1,0.5690006000222638,427.73909460002324,None,427.2384197000065,427.33846120000817,427.33846120000817,None,428.3224840000039,None,,,,,,,11005,001,2024_Jan_01_0924,ANT,2021.2.3,60.253087065082774,
1,5,no,down,C,L,,,,,,Block.xlsx,"你已经完成了整个实验（三个区组）。

请报告实验者已完成实验

非常感谢，再见！",50,0,-1.5,left,LLLLL.png,,,,,0,1,1,1,3,7,79,4,,,,,,,,,,,,,,,,,,,,,,,,,,,,,,,,,,,,,,,,,,,,,,,,,,,,,,,,,,,,,,,,,,,,,,428.7235595000093,429.1238050000393,429.10683810000774,429.20768829999724,429.6076187000144,None,left,1,0.42815449996851385,429.6076187000144,None,429.10683810000774,429.20768829999724,429.20768829999724,None,430.058430700039,None,,,,,,,11005,001,2024_Jan_01_0924,ANT,2021.2.3,60.253087065082774,
1,2,no,up,C,R,,,,,,Block.xlsx,"你已经完成了整个实验（三个区组）。

请报告实验者已完成实验

非常感谢，再见！",50,0,1.5,right,RRRRR.png,,,,,0,1,1,1,3,8,80,1,,,,,,,,,,,,,,,,,,,,,,,,,,,,,,,,,,,,,,,,,,,,,,,,,,,,,,,,,,,,,,,,,,,,,,430.45971880003344,430.86040560004767,430.8436768000247,430.9437209000462,431.34397300001,None,right,1,0.4758346999878995,431.34397300001,None,430.8436768000247,430.9437209000462,430.9437209000462,None,431.84454489999916,None,,,,,,,11005,001,2024_Jan_01_0924,ANT,2021.2.3,60.253087065082774,
1,23,spatial,down,IC,L,,,,,,Block.xlsx,"你已经完成了整个实验（三个区组）。

请报告实验者已完成实验

非常感谢，再见！",-1.5,0,-1.5,left,RRLRR.png,,,,,0,1,1,1,3,9,81,22,,,,,,,,,,,,,,,,,,,,,,,,,,,,,,,,,,,,,,,,,,,,,,,,,,,,,,,,,,,,,,,,,,,,,,432.2456374000176,432.6469204000314,432.6291419000481,432.7294363999972,433.1305817000102,None,left,1,0.4250222999835387,433.1305817000102,None,432.6291419000481,432.7294363999972,432.7294363999972,None,433.58022450003773,None,,,,,,,11005,001,2024_Jan_01_0924,ANT,2021.2.3,60.253087065082774,
1,20,spatial,up,IC,R,,,,,,Block.xlsx,"你已经完成了整个实验（三个区组）。

请报告实验者已完成实验

非常感谢，再见！",1.5,0,1.5,right,LLRLL.png,,,,,0,1,1,1,3,10,82,19,,,,,,,,,,,,,,,,,,,,,,,,,,,,,,,,,,,,,,,,,,,,,,,,,,,,,,,,,,,,,,,,,,,,,,433.98164190002717,434.3826490000356,434.36497009999584,434.4669925000053,434.8666408000281,None,right,1,0.47363109997240826,434.8666408000281,None,434.36497009999584,434.4669925000053,434.4669925000053,None,435.36644170002546,None,,,,,,,11005,001,2024_Jan_01_0924,ANT,2021.2.3,60.253087065082774,
1,3,no,up,IC,L,,,,,,Block.xlsx,"你已经完成了整个实验（三个区组）。

请报告实验者已完成实验

非常感谢，再见！",50,0,1.5,left,RRLRR.png,,,,,0,1,1,1,3,11,83,2,,,,,,,,,,,,,,,,,,,,,,,,,,,,,,,,,,,,,,,,,,,,,,,,,,,,,,,,,,,,,,,,,,,,,,435.76742069999455,436.1684627000359,436.15188150003087,436.2532485999982,436.6525945000467,None,left,1,0.3835905999876559,436.6525945000467,None,436.15188150003087,436.2532485999982,436.2532485999982,None,437.05197770002997,None,,,,,,,11005,001,2024_Jan_01_0924,ANT,2021.2.3,60.253087065082774,
1,17,spatial,up,C,L,,,,,,Block.xlsx,"你已经完成了整个实验（三个区组）。

请报告实验者已完成实验

非常感谢，再见！",1.5,0,1.5,left,LLLLL.png,,,,,0,1,1,1,3,12,84,16,,,,,,,,,,,,,,,,,,,,,,,,,,,,,,,,,,,,,,,,,,,,,,,,,,,,,,,,,,,,,,,,,,,,,,437.4534063000465,437.854280700034,437.8388009000337,437.9383641000022,438.3377300000284,None,left,1,0.35402349999640137,438.3377300000284,None,437.8388009000337,437.9383641000022,437.9383641000022,None,438.7214721000055,None,,,,,,,11005,001,2024_Jan_01_0924,ANT,2021.2.3,60.253087065082774,
1,16,center,down,IC,R,,,,,,Block.xlsx,"你已经完成了整个实验（三个区组）。

请报告实验者已完成实验

非常感谢，再见！",0,50,-1.5,right,LLRLL.png,,,,,0,1,1,1,3,13,85,15,,,,,,,,,,,,,,,,,,,,,,,,,,,,,,,,,,,,,,,,,,,,,,,,,,,,,,,,,,,,,,,,,,,,,,439.1219462000299,439.52303450001637,439.50778500002343,439.60670270002447,440.006823200034,None,right,1,0.5496588999521919,440.006823200034,None,439.50778500002343,439.60670270002447,439.60670270002447,None,440.57405380002456,None,,,,,,,11005,001,2024_Jan_01_0924,ANT,2021.2.3,60.253087065082774,
1,23,spatial,down,IC,L,,,,,,Block.xlsx,"你已经完成了整个实验（三个区组）。

请报告实验者已完成实验

非常感谢，再见！",-1.5,0,-1.5,left,RRLRR.png,,,,,0,1,1,1,3,14,86,22,,,,,,,,,,,,,,,,,,,,,,,,,,,,,,,,,,,,,,,,,,,,,,,,,,,,,,,,,,,,,,,,,,,,,,440.9746753000072,441.376862300036,441.35863960004644,441.4599849000224,441.8593408000306,None,left,1,0.4650731000001542,441.8593408000306,None,441.35863960004644,441.4599849000224,441.4599849000224,None,442.34319310000865,None,,,,,,,11005,001,2024_Jan_01_0924,ANT,2021.2.3,60.253087065082774,
1,8,no,down,IC,R,,,,,,Block.xlsx,"你已经完成了整个实验（三个区组）。

请报告实验者已完成实验

非常感谢，再见！",50,0,-1.5,right,LLRLL.png,,,,,0,1,1,1,3,15,87,7,,,,,,,,,,,,,,,,,,,,,,,,,,,,,,,,,,,,,,,,,,,,,,,,,,,,,,,,,,,,,,,,,,,,,,442.74386879999656,443.1452583000064,443.12840290000895,443.22943370003486,443.63010090001626,None,right,1,0.6541360999690369,443.63010090001626,None,443.12840290000895,443.22943370003486,443.22943370003486,None,444.312818800041,None,,,,,,,11005,001,2024_Jan_01_0924,ANT,2021.2.3,60.253087065082774,
1,23,spatial,down,IC,L,,,,,,Block.xlsx,"你已经完成了整个实验（三个区组）。

请报告实验者已完成实验

非常感谢，再见！",-1.5,0,-1.5,left,RRLRR.png,,,,,0,1,1,1,3,16,88,22,,,,,,,,,,,,,,,,,,,,,,,,,,,,,,,,,,,,,,,,,,,,,,,,,,,,,,,,,,,,,,,,,,,,,,444.7134738000459,445.1143480000319,445.0986622000346,445.1980656000087,445.59998830000404,None,left,1,0.435704400006216,445.59998830000404,None,445.0986622000346,445.1980656000087,445.1980656000087,None,446.06557100004284,None,,,,,,,11005,001,2024_Jan_01_0924,ANT,2021.2.3,60.253087065082774,
1,21,spatial,down,C,L,,,,,,Block.xlsx,"你已经完成了整个实验（三个区组）。

请报告实验者已完成实验

