TrialType,TrialNumber,WarningType,TargetType,FlankerType,TargetDirection,W,f,Y,corr,imageFile,condition,endtext,Yw,Yf,Yt,Corr,imagefile,trials_3.thisRepN,trials_3.thisTrialN,trials_3.thisN,trials_3.thisIndex,trials_2.thisRepN,trials_2.thisTrialN,trials_2.thisN,trials_2.thisIndex,trials.thisRepN,trials.thisTrialN,trials.thisN,trials.thisIndex,instr.started,instr.stopped,key_resp.keys,key_resp.rt,key_resp.started,key_resp.stopped,image.started,image.stopped,key_resp_6.keys,key_resp_6.rt,key_resp_6.started,key_resp_6.stopped,EX_L.started,EX_L.stopped,AL.started,AL.stopped,key_resp_7.keys,key_resp_7.rt,key_resp_7.started,key_resp_7.stopped,EX_R.started,EX_R.stopped,RR.started,RR.stopped,key_resp_8.keys,key_resp_8.rt,key_resp_8.started,key_resp_8.stopped,image_2.started,image_2.stopped,key_resp_9.keys,key_resp_9.rt,key_resp_9.started,key_resp_9.stopped,image_3.started,image_3.stopped,key_resp_10.keys,key_resp_10.rt,key_resp_10.started,key_resp_10.stopped,fix.started,fix.stopped,war.started,war.stopped,tar.started,tar.stopped,key_resp_4.keys,key_resp_4.corr,key_resp_4.started,key_resp_4.stopped,fix2.started,fix2.stopped,fix_2.started,fix_2.stopped,Feedback.started,Feedback.stopped,key_resp_4.rt,text.started,text.stopped,key_resp_11.keys,key_resp_11.rt,key_resp_11.started,key_resp_11.stopped,key_resp_2.keys,key_resp_2.rt,key_resp_2.started,key_resp_2.stopped,text_5.started,text_5.stopped,fix2_1.started,fix2_1.stopped,Warn.started,Warn.stopped,Tar.started,Tar.stopped,key_resp_5.keys,key_resp_5.corr,key_resp_5.started,key_resp_5.stopped,Fix_2.started,Fix_2.stopped,fix2_2.started,fix2_2.stopped,text_4.started,text_4.stopped,key_resp_5.rt,key_resp_3.keys,key_resp_3.rt,key_resp_3.started,key_resp_3.stopped,text_3.started,text_3.stopped,participant,session,date,expName,psychopyVersion,frameRate,
,,,,,,,,,,,,,,,,,,,,,,,,,,,,,,9.288861499997438,None,space,7.696657899999991,9.288861499997438,None,,,,,,,,,,,,,,,,,,,,,,,,,,,,,,,,,,,,,,,,,,,,,,,,,,,,,,,,,,,,,,,,,,,,,,,,,,,,,,,,,,,,,,,11003,001,2023_Dec_29_1148,ANT,2021.2.3,59.53894233827601,
,,,,,,,,,,,,,,,,,,,,,,,,,,,,,,,,,,,,17.01632409999729,None,space,29.785312400003022,17.01632409999729,None,,,,,,,,,,,,,,,,,,,,,,,,,,,,,,,,,,,,,,,,,,,,,,,,,,,,,,,,,,,,,,,,,,,,,,,,,,,,,,,,,11003,001,2023_Dec_29_1148,ANT,2021.2.3,59.53894233827601,
,,,,,,,,,,,,,,,,,,,,,,,,,,,,,,,,,,,,,,,,,,46.827302699995926,None,46.827302699995926,None,left,2.262605199997779,46.827302699995926,None,,,,,,,,,,,,,,,,,,,,,,,,,,,,,,,,,,,,,,,,,,,,,,,,,,,,,,,,,,,,,,,,,,,,,,,,,11003,001,2023_Dec_29_1148,ANT,2021.2.3,59.53894233827601,
,,,,,,,,,,,,,,,,,,,,,,,,,,,,,,,,,,,,,,,,,,,,,,,,,,49.11396439999953,None,49.11396439999953,None,right,0.968825799995102,49.11396439999953,None,,,,,,,,,,,,,,,,,,,,,,,,,,,,,,,,,,,,,,,,,,,,,,,,,,,,,,,,,,,,,,,,,11003,001,2023_Dec_29_1148,ANT,2021.2.3,59.53894233827601,
,,,,,,,,,,,,,,,,,,,,,,,,,,,,,,,,,,,,,,,,,,,,,,,,,,,,,,,,,,50.099144299994805,None,space,1.2067305000018678,50.099144299994805,None,,,,,,,,,,,,,,,,,,,,,,,,,,,,,,,,,,,,,,,,,,,,,,,,,,,,,,,,,,,11003,001,2023_Dec_29_1148,ANT,2021.2.3,59.53894233827601,
,,,,,,,,,,,,,,,,,,,,,,,,,,,,,,,,,,,,,,,,,,,,,,,,,,,,,,,,,,,,,,,,51.33392119999917,None,space,89.86010879999958,51.33392119999917,None,,,,,,,,,,,,,,,,,,,,,,,,,,,,,,,,,,,,,,,,,,,,,,,,,,,,,11003,001,2023_Dec_29_1148,ANT,2021.2.3,59.53894233827601,
0,2,no,up,IC,R,50,0,1.5,right,LLRLL.png,,,,,,,,0,0,0,1,,,,,,,,,,,,,,,,,,,,,,,,,,,,,,,,,,,,,,,,,,,,,,,,,141.3007204999958,141.70184909999807,141.6842672999992,141.7862049999967,142.1860713999995,None,None,0,142.1860713999995,None,141.6842672999992,141.7862049999967,141.7862049999967,None,143.82097769999382,None,,,,,,,,,,,,,,,,,,,,,,,,,,,,,,,,,,,,,11003,001,2023_Dec_29_1148,ANT,2021.2.3,59.53894233827601,
0,4,no,down,IC,L,50,0,-1.5,left,RRLRR.png,,,,,,,,0,1,1,3,,,,,,,,,,,,,,,,,,,,,,,,,,,,,,,,,,,,,,,,,,,,,,,,,145.82405379999545,146.22531809999782,146.2079322999998,146.3093557999964,146.7099248999948,None,left,1,146.7099248999948,None,146.2079322999998,146.3093557999964,146.3093557999964,None,147.4938231999986,None,0.7485269000026165,,,,,,,,,,,,,,,,,,,,,,,,,,,,,,,,,,,,11003,001,2023_Dec_29_1148,ANT,2021.2.3,59.53894233827601,
0,6,center,up,IC,R,0,50,1.5,right,LLRLL.png,,,,,,,,0,2,2,5,,,,,,,,,,,,,,,,,,,,,,,,,,,,,,,,,,,,,,,,,,,,,,,,,149.49613919999683,149.89655619999394,149.88094669999555,149.980020899995,150.3823682000002,None,right,1,150.3823682000002,None,149.88094669999555,149.980020899995,149.980020899995,None,151.11503389999416,None,0.7076425999985076,,,,,,,,,,,,,,,,,,,,,,,,,,,,,,,,,,,,11003,001,2023_Dec_29_1148,ANT,2021.2.3,59.53894233827601,
0,3,no,down,C,R,50,0,-1.5,right,RRRRR.png,,,,,,,,0,3,3,2,,,,,,,,,,,,,,,,,,,,,,,,,,,,,,,,,,,,,,,,,,,,,,,,,153.11853580000025,153.52078319999418,153.50259789999836,153.60267190000013,154.00435019999713,None,right,1,154.00435019999713,None,153.50259789999836,153.60267190000013,153.60267190000013,None,154.57048809999833,None,0.5497277000031318,,,,,,,,,,,,,,,,,,,,,,,,,,,,,,,,,,,,11003,001,2023_Dec_29_1148,ANT,2021.2.3,59.53894233827601,
0,9,spatial,up,C,R,1.5,0,1.5,right,RRRRR.png,,,,,,,,0,4,4,8,,,,,,,,,,,,,,,,,,,,,,,,,,,,,,,,,,,,,,,,,,,,,,,,,156.57331339999655,156.97520459999942,156.9575979999936,157.05793509999785,157.4587090999994,None,right,1,157.4587090999994,None,156.9575979999936,157.05793509999785,157.05793509999785,None,158.39243349999742,None,0.9119038999997429,,,,,,,,,,,,,,,,,,,,,,,,,,,,,,,,,,,,11003,001,2023_Dec_29_1148,ANT,2021.2.3,59.53894233827601,
0,10,spatial,up,IC,L,1.5,0,1.5,left,RRLRR.png,,,,,,,,0,5,5,9,,,,,,,,,,,,,,,,,,,,,,,,,,,,,,,,,,,,,,,,,,,,,,,,,160.39534429999912,160.79674479999812,160.780282599997,160.8817737999998,161.28092819999438,None,left,1,161.28092819999438,None,160.780282599997,160.8817737999998,160.8817737999998,None,161.96441429999686,None,0.6656612000006135,,,,,,,,,,,,,,,,,,,,,,,,,,,,,,,,,,,,11003,001,2023_Dec_29_1148,ANT,2021.2.3,59.53894233827601,
0,8,center,down,IC,L,0,50,-1.5,left,RRLRR.png,,,,,,,,0,6,6,7,,,,,,,,,,,,,,,,,,,,,,,,,,,,,,,,,,,,,,,,,,,,,,,,,163.9675117999941,164.3687773999991,164.35194389999378,164.45316369999637,164.85280349999812,None,left,1,164.85280349999812,None,164.35194389999378,164.45316369999637,164.45316369999637,None,165.70331849999639,None,0.8211547000028077,,,,,,,,,,,,,,,,,,,,,,,,,,,,,,,,,,,,11003,001,2023_Dec_29_1148,ANT,2021.2.3,59.53894233827601,
0,11,spatial,down,C,L,-1.5,0,-1.5,left,LLLLL.png,,,,,,,,0,7,7,10,,,,,,,,,,,,,,,,,,,,,,,,,,,,,,,,,,,,,,,,,,,,,,,,,167.7062594999952,168.1069320999959,168.09115089999977,168.1912050999963,168.5933189999996,None,left,1,168.5933189999996,None,168.09115089999977,168.1912050999963,168.1912050999963,None,169.1917517999973,None,0.5685662000032607,,,,,,,,,,,,,,,,,,,,,,,,,,,,,,,,,,,,11003,001,2023_Dec_29_1148,ANT,2021.2.3,59.53894233827601,
0,5,center,up,C,L,0,50,1.5,left,LLLLL.png,,,,,,,,0,8,8,4,,,,,,,,,,,,,,,,,,,,,,,,,,,,,,,,,,,,,,,,,,,,,,,,,171.19629429999623,171.59652789999382,171.57981139999902,171.6802835999988,172.08035779999773,None,left,1,172.08035779999773,None,171.57981139999902,171.6802835999988,171.6802835999988,None,172.71364339999855,None,0.6181508000008762,,,,,,,,,,,,,,,,,,,,,,,,,,,,,,,,,,,,11003,001,2023_Dec_29_1148,ANT,2021.2.3,59.53894233827601,
0,12,spatial,down,IC,R,-1.5,0,-1.5,right,LLRLL.png,,,,,,,,0,9,9,11,,,,,,,,,,,,,,,,,,,,,,,,,,,,,,,,,,,,,,,,,,,,,,,,,174.71680529999867,175.11721789999865,175.1018738999992,175.20198629999504,175.60132979999617,None,right,1,175.60132979999617,None,175.1018738999992,175.20198629999504,175.20198629999504,None,176.36857999999484,None,0.7534106000020984,,,,,,,,,,,,,,,,,,,,,,,,,,,,,,,,,,,,11003,001,2023_Dec_29_1148,ANT,2021.2.3,59.53894233827601,
0,1,no,up,C,L,50,0,1.5,left,LLLLL.png,,,,,,,,0,10,10,0,,,,,,,,,,,,,,,,,,,,,,,,,,,,,,,,,,,,,,,,,,,,,,,,,178.3720617999934,178.7738734999948,178.75757309999608,178.873694599999,179.25692569999956,None,left,1,179.25692569999956,None,178.75757309999608,178.873694599999,178.85763079999742,None,179.80763369999477,None,0.5210483999981079,,,,,,,,,,,,,,,,,,,,,,,,,,,,,,,,,,,,11003,001,2023_Dec_29_1148,ANT,2021.2.3,59.53894233827601,
0,7,center,down,C,R,0,50,-1.5,right,RRRRR.png,,,,,,,,0,11,11,6,,,,,,,,,,,,,,,,,,,,,,,,,,,,,,,,,,,,,,,,,,,,,,,,,181.81057609999698,182.21142279999913,182.1951207999955,182.29654449999362,182.6961655999985,None,right,1,182.6961655999985,None,182.1951207999955,182.29654449999362,182.29654449999362,None,183.26332769999863,None,0.5462004000000888,,,,,,,,,,,,,,,,,,,,,,,,,,,,,,,,,,,,11003,001,2023_Dec_29_1148,ANT,2021.2.3,59.53894233827601,
,,,,,,,,,,,,,,,,,,,,,,,,,,,,,,,,,,,,,,,,,,,,,,,,,,,,,,,,,,,,,,,,,,,,,,,,,,,,,,,,,,,,,,,185.26544539999304,None,space,1.8883046999981161,185.26544539999304,None,,,,,,,,,,,,,,,,,,,,,,,,,,,,,,11003,001,2023_Dec_29_1148,ANT,2021.2.3,59.53894233827601,
,,,,,,,,,,,,,,,,,,,,,,,,,,,,,,,,,,,,,,,,,,,,,,,,,,,,,,,,,,,,,,,,,,,,,,,,,,,,,,,,,,,,,,,,,,,,,space,11.073512200004188,187.16837010000017,None,,,,,,,,,,,,,,,,,,,,,,,,,,11003,001,2023_Dec_29_1148,ANT,2021.2.3,59.53894233827601,
1,2,no,up,C,R,,,,,,Block.xlsx,"你已经完成了第一个实验区组

请稍作休息


点击空格键进入下一个区组。",50,0,1.5,right,RRRRR.png,,,,,0,0,0,0,0,0,0,1,,,,,,,,,,,,,,,,,,,,,,,,,,,,,,,,,,,,,,,,,,,,,,,,,,,,,,,,,,,,,,,,,,,,187.16837010000017,None,198.30212959999335,198.70328669999435,198.68581069999345,198.7871498999957,199.18849259999843,None,None,0,199.18849259999843,None,198.68581069999345,198.7871498999957,198.7871498999957,None,200.8729475,None,,,,,,,,11003,001,2023_Dec_29_1148,ANT,2021.2.3,59.53894233827601,
1,22,spatial,down,C,R,,,,,,Block.xlsx,"你已经完成了第一个实验区组

请稍作休息


点击空格键进入下一个区组。",-1.5,0,-1.5,right,RRRRR.png,,,,,0,0,0,0,0,1,1,21,,,,,,,,,,,,,,,,,,,,,,,,,,,,,,,,,,,,,,,,,,,,,,,,,,,,,,,,,,,,,,,,,,,,,,201.27265929999703,201.6743473999959,201.65754789999482,201.7568964999955,202.15817279999465,None,right,1,202.15817279999465,None,201.65754789999482,201.7568964999955,201.7568964999955,None,202.6915155999959,None,0.5157609000016237,,,,,,,11003,001,2023_Dec_29_1148,ANT,2021.2.3,59.53894233827601,
1,24,spatial,down,IC,R,,,,,,Block.xlsx,"你已经完成了第一个实验区组

请稍作休息


点击空格键进入下一个区组。",-1.5,0,-1.5,right,LLRLL.png,,,,,0,0,0,0,0,2,2,23,,,,,,,,,,,,,,,,,,,,,,,,,,,,,,,,,,,,,,,,,,,,,,,,,,,,,,,,,,,,,,,,,,,,,,203.09218609999516,203.49285699999746,203.4769068999958,203.57697599999665,203.97761019999598,None,right,1,203.97761019999598,None,203.4769068999958,203.57697599999665,203.57697599999665,None,204.7282869999981,None,0.7202037000024575,,,,,,,11003,001,2023_Dec_29_1148,ANT,2021.2.3,59.53894233827601,
1,5,no,down,C,L,,,,,,Block.xlsx,"你已经完成了第一个实验区组

请稍作休息


点击空格键进入下一个区组。",50,0,-1.5,left,LLLLL.png,,,,,0,0,0,0,0,3,3,4,,,,,,,,,,,,,,,,,,,,,,,,,,,,,,,,,,,,,,,,,,,,,,,,,,,,,,,,,,,,,,,,,,,,,,205.12917829999788,205.53094789999886,205.51262519999727,205.6125436999937,206.0132925999933,None,left,1,206.0132925999933,None,205.51262519999727,205.6125436999937,205.6125436999937,None,206.54726669999945,None,0.5171731000009459,,,,,,,11003,001,2023_Dec_29_1148,ANT,2021.2.3,59.53894233827601,
1,6,no,down,C,R,,,,,,Block.xlsx,"你已经完成了第一个实验区组

请稍作休息


点击空格键进入下一个区组。",50,0,-1.5,right,RRRRR.png,,,,,0,0,0,0,0,4,4,5,,,,,,,,,,,,,,,,,,,,,,,,,,,,,,,,,,,,,,,,,,,,,,,,,,,,,,,,,,,,,,,,,,,,,,206.9476746999935,207.34931059999508,207.3324375999946,207.4322170999949,207.83348519999709,None,right,1,207.83348519999709,None,207.3324375999946,207.4322170999949,207.4322170999949,None,208.28307039999345,None,0.43346459999884246,,,,,,,11003,001,2023_Dec_29_1148,ANT,2021.2.3,59.53894233827601,
1,15,center,down,IC,L,,,,,,Block.xlsx,"你已经完成了第一个实验区组

请稍作休息


点击空格键进入下一个区组。",0,50,-1.5,left,RRLRR.png,,,,,0,0,0,0,0,5,5,14,,,,,,,,,,,,,,,,,,,,,,,,,,,,,,,,,,,,,,,,,,,,,,,,,,,,,,,,,,,,,,,,,,,,,,208.68368969999574,209.08480979999877,209.0693045999942,209.16898599999695,209.5694974999933,None,left,1,209.5694974999933,None,209.0693045999942,209.16898599999695,209.16898599999695,None,210.1189807999981,None,0.5292558000001009,,,,,,,11003,001,2023_Dec_29_1148,ANT,2021.2.3,59.53894233827601,
1,20,spatial,up,IC,R,,,,,,Block.xlsx,"你已经完成了第一个实验区组

请稍作休息


点击空格键进入下一个区组。",1.5,0,1.5,right,LLRLL.png,,,,,0,0,0,0,0,6,6,19,,,,,,,,,,,,,,,,,,,,,,,,,,,,,,,,,,,,,,,,,,,,,,,,,,,,,,,,,,,,,,,,,,,,,,210.5208122999975,210.92139429999952,210.9037068999969,211.0042159999939,211.40652859999682,None,left,0,211.40652859999682,None,210.9037068999969,211.0042159999939,211.0042159999939,None,211.98863109999365,None,0.5553705999991507,,,,,,,11003,001,2023_Dec_29_1148,ANT,2021.2.3,59.53894233827601,
1,18,spatial,up,C,R,,,,,,Block.xlsx,"你已经完成了第一个实验区组

请稍作休息


点击空格键进入下一个区组。",1.5,0,1.5,right,RRRRR.png,,,,,0,0,0,0,0,7,7,17,,,,,,,,,,,,,,,,,,,,,,,,,,,,,,,,,,,,,,,,,,,,,,,,,,,,,,,,,,,,,,,,,,,,,,212.38925709999603,212.7921154999931,212.77376029999868,212.87389129999792,213.27447759999632,None,right,1,213.27447759999632,None,212.77376029999868,212.87389129999792,212.87389129999792,None,213.808077099995,None,0.5037295000001905,,,,,,,11003,001,2023_Dec_29_1148,ANT,2021.2.3,59.53894233827601,
1,13,center,down,C,L,,,,,,Block.xlsx,"你已经完成了第一个实验区组

请稍作休息


点击空格键进入下一个区组。",0,50,-1.5,left,LLLLL.png,,,,,0,0,0,0,0,8,8,12,,,,,,,,,,,,,,,,,,,,,,,,,,,,,,,,,,,,,,,,,,,,,,,,,,,,,,,,,,,,,,,,,,,,,,214.20903179999732,214.61015529999713,214.59332689999428,214.6942459999991,215.0943832999983,None,left,1,215.0943832999983,None,214.59332689999428,214.6942459999991,214.6942459999991,None,215.66074029999436,None,0.5477593999967212,,,,,,,11003,001,2023_Dec_29_1148,ANT,2021.2.3,59.53894233827601,
1,13,center,down,C,L,,,,,,Block.xlsx,"你已经完成了第一个实验区组

请稍作休息


点击空格键进入下一个区组。",0,50,-1.5,left,LLLLL.png,,,,,0,0,0,0,0,9,9,12,,,,,,,,,,,,,,,,,,,,,,,,,,,,,,,,,,,,,,,,,,,,,,,,,,,,,,,,,,,,,,,,,,,,,,216.06136629999673,216.46424249999836,216.44606879999628,216.5454627999934,216.94606869999552,None,left,1,216.94606869999552,None,216.44606879999628,216.5454627999934,216.5454627999934,None,217.53017529999488,None,0.5680436999973608,,,,,,,11003,001,2023_Dec_29_1148,ANT,2021.2.3,59.53894233827601,
1,1,no,up,C,L,,,,,,Block.xlsx,"你已经完成了第一个实验区组

请稍作休息


点击空格键进入下一个区组。",50,0,1.5,left,LLLLL.png,,,,,0,0,0,0,0,10,10,0,,,,,,,,,,,,,,,,,,,,,,,,,,,,,,,,,,,,,,,,,,,,,,,,,,,,,,,,,,,,,,,,,,,,,,217.93081969999912,218.33261169999605,218.31481209999765,218.4151708999998,218.81684729999688,None,left,1,218.81684729999688,None,218.31481209999765,218.4151708999998,218.4151708999998,None,219.4162234999967,None,0.5780358999982127,,,,,,,11003,001,2023_Dec_29_1148,ANT,2021.2.3,59.53894233827601,
1,22,spatial,down,C,R,,,,,,Block.xlsx,"你已经完成了第一个实验区组

请稍作休息


点击空格键进入下一个区组。",-1.5,0,-1.5,right,RRRRR.png,,,,,0,0,0,0,0,11,11,21,,,,,,,,,,,,,,,,,,,,,,,,,,,,,,,,,,,,,,,,,,,,,,,,,,,,,,,,,,,,,,,,,,,,,,219.81681489999755,220.21863189999567,220.20184729999892,220.30181739999534,220.70299859999795,None,right,1,220.70299859999795,None,220.20184729999892,220.30181739999534,220.30181739999534,None,221.21963409999444,None,0.4992141000038828,,,,,,,11003,001,2023_Dec_29_1148,ANT,2021.2.3,59.53894233827601,
1,24,spatial,down,IC,R,,,,,,Block.xlsx,"你已经完成了第一个实验区组

请稍作休息


点击空格键进入下一个区组。",-1.5,0,-1.5,right,LLRLL.png,,,,,0,0,0,0,0,12,12,23,,,,,,,,,,,,,,,,,,,,,,,,,,,,,,,,,,,,,,,,,,,,,,,,,,,,,,,,,,,,,,,,,,,,,,221.61981869999727,222.02099859999726,222.00439019999612,222.10447679999925,222.504823999996,None,right,1,222.504823999996,None,222.00439019999612,222.10447679999925,222.10447679999925,None,223.18850589999784,None,0.6658045000003767,,,,,,,11003,001,2023_Dec_29_1148,ANT,2021.2.3,59.53894233827601,
1,10,center,up,C,R,,,,,,Block.xlsx,"你已经完成了第一个实验区组

请稍作休息


点击空格键进入下一个区组。",0,50,1.5,right,RRRRR.png,,,,,0,0,0,0,0,13,13,9,,,,,,,,,,,,,,,,,,,,,,,,,,,,,,,,,,,,,,,,,,,,,,,,,,,,,,,,,,,,,,,,,,,,,,223.58983289999742,223.99056339999515,223.97558019999997,224.09169779999502,224.47374769999442,None,right,1,224.47374769999442,None,223.97558019999997,224.09169779999502,224.07430929999828,None,225.12454979999893,None,0.6244447999997647,,,,,,,11003,001,2023_Dec_29_1148,ANT,2021.2.3,59.53894233827601,
1,3,no,up,IC,L,,,,,,Block.xlsx,"你已经完成了第一个实验区组

请稍作休息


点击空格键进入下一个区组。",50,0,1.5,left,RRLRR.png,,,,,0,0,0,0,0,14,14,2,,,,,,,,,,,,,,,,,,,,,,,,,,,,,,,,,,,,,,,,,,,,,,,,,,,,,,,,,,,,,,,,,,,,,,225.52557869999873,225.92614089999552,225.91038349999872,226.01064109999425,226.40991579999536,None,left,1,226.40991579999536,None,225.91038349999872,226.01064109999425,226.01064109999425,None,227.07762599999842,None,0.6403445999967516,,,,,,,11003,001,2023_Dec_29_1148,ANT,2021.2.3,59.53894233827601,
1,6,no,down,C,R,,,,,,Block.xlsx,"你已经完成了第一个实验区组

请稍作休息


点击空格键进入下一个区组。",50,0,-1.5,right,RRRRR.png,,,,,0,0,0,0,0,15,15,5,,,,,,,,,,,,,,,,,,,,,,,,,,,,,,,,,,,,,,,,,,,,,,,,,,,,,,,,,,,,,,,,,,,,,,227.47828519999894,227.8795336999974,227.86299039999722,227.96243509999476,228.36373089999688,None,right,1,228.36373089999688,None,227.86299039999722,227.96243509999476,227.96243509999476,None,229.0140401999961,None,0.6225313999966602,,,,,,,11003,001,2023_Dec_29_1148,ANT,2021.2.3,59.53894233827601,
1,9,center,up,C,L,,,,,,Block.xlsx,"你已经完成了第一个实验区组

请稍作休息


点击空格键进入下一个区组。",0,50,1.5,left,LLLLL.png,,,,,0,0,0,0,0,16,16,8,,,,,,,,,,,,,,,,,,,,,,,,,,,,,,,,,,,,,,,,,,,,,,,,,,,,,,,,,,,,,,,,,,,,,,229.41449979999743,229.81623069999478,229.7983793999956,229.90009319999808,230.30091989999346,None,left,1,230.30091989999346,None,229.7983793999956,229.90009319999808,229.90009319999808,None,230.8667811999985,None,0.550037599998177,,,,,,,11003,001,2023_Dec_29_1148,ANT,2021.2.3,59.53894233827601,
1,1,no,up,C,L,,,,,,Block.xlsx,"你已经完成了第一个实验区组

请稍作休息


点击空格键进入下一个区组。",50,0,1.5,left,LLLLL.png,,,,,0,0,0,0,0,17,17,0,,,,,,,,,,,,,,,,,,,,,,,,,,,,,,,,,,,,,,,,,,,,,,,,,,,,,,,,,,,,,,,,,,,,,,231.26763229999779,231.66778359999444,231.65125169999374,231.7526663999961,232.15198789999704,None,left,1,232.15198789999704,None,231.65125169999374,231.7526663999961,231.7526663999961,None,232.71929899999668,None,0.5383195000031264,,,,,,,11003,001,2023_Dec_29_1148,ANT,2021.2.3,59.53894233827601,
1,13,center,down,C,L,,,,,,Block.xlsx,"你已经完成了第一个实验区组

请稍作休息


点击空格键进入下一个区组。",0,50,-1.5,left,LLLLL.png,,,,,0,0,0,0,0,18,18,12,,,,,,,,,,,,,,,,,,,,,,,,,,,,,,,,,,,,,,,,,,,,,,,,,,,,,,,,,,,,,,,,,,,,,,233.1199087999994,233.52250300000014,233.5044964999979,233.6051942999984,234.0051600999941,None,left,1,234.0051600999941,None,233.5044964999979,233.6051942999984,233.6051942999984,None,234.78907069999696,None,0.7652548999976716,,,,,,,11003,001,2023_Dec_29_1148,ANT,2021.2.3,59.53894233827601,
1,9,center,up,C,L,,,,,,Block.xlsx,"你已经完成了第一个实验区组

请稍作休息


点击空格键进入下一个区组。",0,50,1.5,left,LLLLL.png,,,,,0,0,0,0,0,19,19,8,,,,,,,,,,,,,,,,,,,,,,,,,,,,,,,,,,,,,,,,,,,,,,,,,,,,,,,,,,,,,,,,,,,,,,235.18959360000008,235.59123790000012,235.57431519999955,235.67444509999768,236.0754592999947,None,left,1,236.0754592999947,None,235.57431519999955,235.67444509999768,235.67444509999768,None,236.6084364999988,None,0.5030877000026521,,,,,,,11003,001,2023_Dec_29_1148,ANT,2021.2.3,59.53894233827601,
1,7,no,down,IC,L,,,,,,Block.xlsx,"你已经完成了第一个实验区组

请稍作休息


点击空格键进入下一个区组。",50,0,-1.5,left,RRLRR.png,,,,,0,0,0,0,0,20,20,6,,,,,,,,,,,,,,,,,,,,,,,,,,,,,,,,,,,,,,,,,,,,,,,,,,,,,,,,,,,,,,,,,,,,,,237.00912009999593,237.41086019999784,237.39279039999383,237.49477999999363,237.89623500000016,None,left,1,237.89623500000016,None,237.39279039999383,237.49477999999363,237.49477999999363,None,238.67823439999484,None,0.7621346000014455,,,,,,,11003,001,2023_Dec_29_1148,ANT,2021.2.3,59.53894233827601,
1,2,no,up,C,R,,,,,,Block.xlsx,"你已经完成了第一个实验区组

请稍作休息


点击空格键进入下一个区组。",50,0,1.5,right,RRRRR.png,,,,,0,0,0,0,0,21,21,1,,,,,,,,,,,,,,,,,,,,,,,,,,,,,,,,,,,,,,,,,,,,,,,,,,,,,,,,,,,,,,,,,,,,,,239.07866519999516,239.4796081999957,239.46445059999678,239.56376219999947,239.96435429999838,None,right,1,239.96435429999838,None,239.46445059999678,239.56376219999947,239.56376219999947,None,240.89792489999672,None,0.9096471999946516,,,,,,,11003,001,2023_Dec_29_1148,ANT,2021.2.3,59.53894233827601,
1,11,center,up,IC,L,,,,,,Block.xlsx,"你已经完成了第一个实验区组

请稍作休息


点击空格键进入下一个区组。",0,50,1.5,left,RRLRR.png,,,,,0,0,0,0,0,22,22,10,,,,,,,,,,,,,,,,,,,,,,,,,,,,,,,,,,,,,,,,,,,,,,,,,,,,,,,,,,,,,,,,,,,,,,241.29999580000003,241.70077279999532,241.6827645999947,241.7837212999948,242.1841662999941,None,left,1,242.1841662999941,None,241.6827645999947,241.7837212999948,241.7837212999948,None,242.86775189999753,None,0.6577269999979762,,,,,,,11003,001,2023_Dec_29_1148,ANT,2021.2.3,59.53894233827601,
1,17,spatial,up,C,L,,,,,,Block.xlsx,"你已经完成了第一个实验区组

请稍作休息


点击空格键进入下一个区组。",1.5,0,1.5,left,LLLLL.png,,,,,0,0,0,0,0,23,23,16,,,,,,,,,,,,,,,,,,,,,,,,,,,,,,,,,,,,,,,,,,,,,,,,,,,,,,,,,,,,,,,,,,,,,,243.26923479999823,243.67140079999808,243.65294299999368,243.7526915999988,244.1535625999968,None,left,1,244.1535625999968,None,243.65294299999368,243.7526915999988,243.7526915999988,None,244.72056259999954,None,0.5364312999954564,,,,,,,11003,001,2023_Dec_29_1148,ANT,2021.2.3,59.53894233827601,
1,20,spatial,up,IC,R,,,,,,Block.xlsx,"你已经完成了第一个实验区组

请稍作休息


点击空格键进入下一个区组。",1.5,0,1.5,right,LLRLL.png,,,,,0,0,0,0,1,0,24,19,,,,,,,,,,,,,,,,,,,,,,,,,,,,,,,,,,,,,,,,,,,,,,,,,,,,,,,,,,,,,,,,,,,,,,245.12301019999722,245.53860399999394,245.50485999999364,245.6069692999954,246.00663789999817,None,right,1,246.00663789999817,None,245.50485999999364,245.6069692999954,245.6069692999954,None,246.52316429999337,None,0.49941910000052303,,,,,,,11003,001,2023_Dec_29_1148,ANT,2021.2.3,59.53894233827601,
1,5,no,down,C,L,,,,,,Block.xlsx,"你已经完成了第一个实验区组

请稍作休息


点击空格键进入下一个区组。",50,0,-1.5,left,LLLLL.png,,,,,0,0,0,0,1,1,25,4,,,,,,,,,,,,,,,,,,,,,,,,,,,,,,,,,,,,,,,,,,,,,,,,,,,,,,,,,,,,,,,,,,,,,,246.92500549999386,247.32537579999916,247.30897109999933,247.40818529999524,247.81014349999896,None,left,1,247.81014349999896,None,247.30897109999933,247.40818529999524,247.40818529999524,None,248.40903639999306,None,0.5759382000032929,,,,,,,11003,001,2023_Dec_29_1148,ANT,2021.2.3,59.53894233827601,
1,22,spatial,down,C,R,,,,,,Block.xlsx,"你已经完成了第一个实验区组

请稍作休息


点击空格键进入下一个区组。",-1.5,0,-1.5,right,RRRRR.png,,,,,0,0,0,0,1,2,26,21,,,,,,,,,,,,,,,,,,,,,,,,,,,,,,,,,,,,,,,,,,,,,,,,,,,,,,,,,,,,,,,,,,,,,,248.81055569999444,249.21182439999393,249.1951431999987,249.29573819999496,249.69443899999897,None,right,1,249.69443899999897,None,249.1951431999987,249.29573819999496,249.29573819999496,None,250.21205539999937,None,0.4998751999955857,,,,,,,11003,001,2023_Dec_29_1148,ANT,2021.2.3,59.53894233827601,
1,8,no,down,IC,R,,,,,,Block.xlsx,"你已经完成了第一个实验区组

请稍作休息


点击空格键进入下一个区组。",50,0,-1.5,right,LLRLL.png,,,,,0,0,0,0,1,3,27,7,,,,,,,,,,,,,,,,,,,,,,,,,,,,,,,,,,,,,,,,,,,,,,,,,,,,,,,,,,,,,,,,,,,,,,250.61328979999962,251.01468000000023,250.99643529999594,251.09714439999516,251.49840399999812,None,right,1,251.49840399999812,None,250.99643529999594,251.09714439999516,251.09714439999516,None,252.2483546999938,None,0.7195605000015348,,,,,,,11003,001,2023_Dec_29_1148,ANT,2021.2.3,59.53894233827601,
1,16,center,down,IC,R,,,,,,Block.xlsx,"你已经完成了第一个实验区组

请稍作休息


点击空格键进入下一个区组。",0,50,-1.5,right,LLRLL.png,,,,,0,0,0,0,1,4,28,15,,,,,,,,,,,,,,,,,,,,,,,,,,,,,,,,,,,,,,,,,,,,,,,,,,,,,,,,,,,,,,,,,,,,,,252.6487804999997,253.05112419999932,253.03265629999805,253.1350747999968,253.53393009999854,None,right,1,253.53393009999854,None,253.03265629999805,253.1350747999968,253.1350747999968,None,254.23467179999716,None,0.6842611000029137,,,,,,,11003,001,2023_Dec_29_1148,ANT,2021.2.3,59.53894233827601,
1,12,center,up,IC,R,,,,,,Block.xlsx,"你已经完成了第一个实验区组

请稍作休息


点击空格键进入下一个区组。",0,50,1.5,right,LLRLL.png,,,,,0,0,0,0,1,5,29,11,,,,,,,,,,,,,,,,,,,,,,,,,,,,,,,,,,,,,,,,,,,,,,,,,,,,,,,,,,,,,,,,,,,,,,254.63505839999561,255.03698659999645,255.01928579999367,255.1194749999995,255.52168179999717,None,left,0,255.52168179999717,None,255.01928579999367,255.1194749999995,255.1194749999995,None,256.0205150999973,None,0.4730227999971248,,,,,,,11003,001,2023_Dec_29_1148,ANT,2021.2.3,59.53894233827601,
1,18,spatial,up,C,R,,,,,,Block.xlsx,"你已经完成了第一个实验区组

请稍作休息


点击空格键进入下一个区组。",1.5,0,1.5,right,RRRRR.png,,,,,0,0,0,0,1,6,30,17,,,,,,,,,,,,,,,,,,,,,,,,,,,,,,,,,,,,,,,,,,,,,,,,,,,,,,,,,,,,,,,,,,,,,,256.42181379999965,256.8219264999934,256.805775599998,256.9062966999991,257.3073726999937,None,right,1,257.3073726999937,None,256.805775599998,256.9062966999991,256.9062966999991,None,257.99021739999444,None,0.6547226999973645,,,,,,,11003,001,2023_Dec_29_1148,ANT,2021.2.3,59.53894233827601,
1,20,spatial,up,IC,R,,,,,,Block.xlsx,"你已经完成了第一个实验区组

请稍作休息


点击空格键进入下一个区组。",1.5,0,1.5,right,LLRLL.png,,,,,0,0,0,0,1,7,31,19,,,,,,,,,,,,,,,,,,,,,,,,,,,,,,,,,,,,,,,,,,,,,,,,,,,,,,,,,,,,,,,,,,,,,,258.39083689999825,258.7919325999974,258.7750569999989,258.87499159999425,259.27598849999777,None,right,1,259.27598849999777,None,258.7750569999989,258.87499159999425,258.87499159999425,None,260.2436574999956,None,0.9420535000026575,,,,,,,11003,001,2023_Dec_29_1148,ANT,2021.2.3,59.53894233827601,
1,14,center,down,C,R,,,,,,Block.xlsx,"你已经完成了第一个实验区组

请稍作休息


点击空格键进入下一个区组。",0,50,-1.5,right,RRRRR.png,,,,,0,0,0,0,1,8,32,13,,,,,,,,,,,,,,,,,,,,,,,,,,,,,,,,,,,,,,,,,,,,,,,,,,,,,,,,,,,,,,,,,,,,,,260.64445619999606,261.04476689999865,261.0288714999988,261.1300900999995,261.53025089999574,None,right,1,261.53025089999574,None,261.0288714999988,261.1300900999995,261.1300900999995,None,262.1646335999976,None,0.6078599000029499,,,,,,,11003,001,2023_Dec_29_1148,ANT,2021.2.3,59.53894233827601,
1,11,center,up,IC,L,,,,,,Block.xlsx,"你已经完成了第一个实验区组

请稍作休息


点击空格键进入下一个区组。",0,50,1.5,left,RRLRR.png,,,,,0,0,0,0,1,9,33,10,,,,,,,,,,,,,,,,,,,,,,,,,,,,,,,,,,,,,,,,,,,,,,,,,,,,,,,,,,,,,,,,,,,,,,262.56437749999895,262.9651120999988,262.94821599999705,263.04861319999327,263.4488895999966,None,left,1,263.4488895999966,None,262.94821599999705,263.04861319999327,263.04861319999327,None,264.1158353999999,None,0.649780700005067,,,,,,,11003,001,2023_Dec_29_1148,ANT,2021.2.3,59.53894233827601,
1,17,spatial,up,C,L,,,,,,Block.xlsx,"你已经完成了第一个实验区组

请稍作休息


点击空格键进入下一个区组。",1.5,0,1.5,left,LLLLL.png,,,,,0,0,0,0,1,10,34,16,,,,,,,,,,,,,,,,,,,,,,,,,,,,,,,,,,,,,,,,,,,,,,,,,,,,,,,,,,,,,,,,,,,,,,264.5165818999958,264.91834019999806,264.9003847999993,265.0012925999981,265.4016519999932,None,left,1,265.4016519999932,None,264.9003847999993,265.0012925999981,265.0012925999981,None,265.93519319999905,None,0.5128922000003513,,,,,,,11003,001,2023_Dec_29_1148,ANT,2021.2.3,59.53894233827601,
1,23,spatial,down,IC,L,,,,,,Block.xlsx,"你已经完成了第一个实验区组

请稍作休息


点击空格键进入下一个区组。",-1.5,0,-1.5,left,RRLRR.png,,,,,0,0,0,0,1,11,35,22,,,,,,,,,,,,,,,,,,,,,,,,,,,,,,,,,,,,,,,,,,,,,,,,,,,,,,,,,,,,,,,,,,,,,,266.3367309999958,266.73643959999754,266.7207920000001,266.82078249999904,267.2204352999979,None,left,1,267.2204352999979,None,266.7207920000001,266.82078249999904,266.82078249999904,None,267.8046588999932,None,0.5658571000021766,,,,,,,11003,001,2023_Dec_29_1148,ANT,2021.2.3,59.53894233827601,
1,11,center,up,IC,L,,,,,,Block.xlsx,"你已经完成了第一个实验区组

请稍作休息


点击空格键进入下一个区组。",0,50,1.5,left,RRLRR.png,,,,,0,0,0,0,1,12,36,10,,,,,,,,,,,,,,,,,,,,,,,,,,,,,,,,,,,,,,,,,,,,,,,,,,,,,,,,,,,,,,,,,,,,,,268.2059985999949,268.6069809999972,268.58986809999624,268.6905418999959,269.0911955999982,None,left,1,269.0911955999982,None,268.58986809999624,268.6905418999959,268.6905418999959,None,269.6741778999931,None,0.5672363999983645,,,,,,,11003,001,2023_Dec_29_1148,ANT,2021.2.3,59.53894233827601,
1,4,no,up,IC,R,,,,,,Block.xlsx,"你已经完成了第一个实验区组

请稍作休息


点击空格键进入下一个区组。",50,0,1.5,right,LLRLL.png,,,,,0,0,0,0,1,13,37,3,,,,,,,,,,,,,,,,,,,,,,,,,,,,,,,,,,,,,,,,,,,,,,,,,,,,,,,,,,,,,,,,,,,,,,270.0746643999955,270.47724699999526,270.4595935999969,270.55937959999574,270.9611470999953,None,right,1,270.9611470999953,None,270.4595935999969,270.55937959999574,270.55937959999574,None,271.6609504999942,None,0.6815557000008994,,,,,,,11003,001,2023_Dec_29_1148,ANT,2021.2.3,59.53894233827601,
1,12,center,up,IC,R,,,,,,Block.xlsx,"你已经完成了第一个实验区组

请稍作休息


点击空格键进入下一个区组。",0,50,1.5,right,LLRLL.png,,,,,0,0,0,0,1,14,38,11,,,,,,,,,,,,,,,,,,,,,,,,,,,,,,,,,,,,,,,,,,,,,,,,,,,,,,,,,,,,,,,,,,,,,,272.06104179999966,272.46240179999586,272.4447727999941,272.54611839999416,272.94589039999846,None,right,1,272.94589039999846,None,272.4447727999941,272.54611839999416,272.54611839999416,None,273.6466838999986,None,0.672430800004804,,,,,,,11003,001,2023_Dec_29_1148,ANT,2021.2.3,59.53894233827601,
1,4,no,up,IC,R,,,,,,Block.xlsx,"你已经完成了第一个实验区组

请稍作休息


点击空格键进入下一个区组。",50,0,1.5,right,LLRLL.png,,,,,0,0,0,0,1,15,39,3,,,,,,,,,,,,,,,,,,,,,,,,,,,,,,,,,,,,,,,,,,,,,,,,,,,,,,,,,,,,,,,,,,,,,,274.0473232999939,274.4486115999971,274.432584999995,274.54799189999903,274.9325344999961,None,right,1,274.9325344999961,None,274.432584999995,274.54799189999903,274.5335635999945,None,275.58287500000006,None,0.6300201999983983,,,,,,,11003,001,2023_Dec_29_1148,ANT,2021.2.3,59.53894233827601,
1,8,no,down,IC,R,,,,,,Block.xlsx,"你已经完成了第一个实验区组

请稍作休息


点击空格键进入下一个区组。",50,0,-1.5,right,LLRLL.png,,,,,0,0,0,0,1,16,40,7,,,,,,,,,,,,,,,,,,,,,,,,,,,,,,,,,,,,,,,,,,,,,,,,,,,,,,,,,,,,,,,,,,,,,,275.9835027999943,276.384135399996,276.36880719999317,276.4676166999998,276.8686741999991,None,right,1,276.8686741999991,None,276.36880719999317,276.4676166999998,276.4676166999998,None,277.73618319999514,None,0.8459370999989915,,,,,,,11003,001,2023_Dec_29_1148,ANT,2021.2.3,59.53894233827601,
1,16,center,down,IC,R,,,,,,Block.xlsx,"你已经完成了第一个实验区组

请稍作休息


点击空格键进入下一个区组。",0,50,-1.5,right,LLRLL.png,,,,,0,0,0,0,1,17,41,15,,,,,,,,,,,,,,,,,,,,,,,,,,,,,,,,,,,,,,,,,,,,,,,,,,,,,,,,,,,,,,,,,,,,,,278.1380801999985,278.5371748999969,278.5221313000002,278.62113529999624,279.02213949999714,None,right,1,279.02213949999714,None,278.5221313000002,278.62113529999624,278.62113529999624,None,279.87250809999387,None,0.8281276999987313,,,,,,,11003,001,2023_Dec_29_1148,ANT,2021.2.3,59.53894233827601,
1,18,spatial,up,C,R,,,,,,Block.xlsx,"你已经完成了第一个实验区组

请稍作休息


点击空格键进入下一个区组。",1.5,0,1.5,right,RRRRR.png,,,,,0,0,0,0,1,18,42,17,,,,,,,,,,,,,,,,,,,,,,,,,,,,,,,,,,,,,,,,,,,,,,,,,,,,,,,,,,,,,,,,,,,,,,280.2735982999948,280.6738688999976,280.65809809999337,280.7586008999933,281.15796269999555,None,right,1,281.15796269999555,None,280.65809809999337,280.7586008999933,280.7586008999933,None,281.6754624999958,None,0.5001981000023079,,,,,,,11003,001,2023_Dec_29_1148,ANT,2021.2.3,59.53894233827601,
1,6,no,down,C,R,,,,,,Block.xlsx,"你已经完成了第一个实验区组

请稍作休息


点击空格键进入下一个区组。",50,0,-1.5,right,RRRRR.png,,,,,0,0,0,0,1,19,43,5,,,,,,,,,,,,,,,,,,,,,,,,,,,,,,,,,,,,,,,,,,,,,,,,,,,,,,,,,,,,,,,,,,,,,,282.07598059999873,282.4779128999944,282.4600450999933,282.5597395999939,282.9604184999989,None,right,1,282.9604184999989,None,282.4600450999933,282.5597395999939,282.5597395999939,None,283.59479389999615,None,0.6181169000046793,,,,,,,11003,001,2023_Dec_29_1148,ANT,2021.2.3,59.53894233827601,
1,8,no,down,IC,R,,,,,,Block.xlsx,"你已经完成了第一个实验区组

请稍作休息


点击空格键进入下一个区组。",50,0,-1.5,right,LLRLL.png,,,,,0,0,0,0,1,20,44,7,,,,,,,,,,,,,,,,,,,,,,,,,,,,,,,,,,,,,,,,,,,,,,,,,,,,,,,,,,,,,,,,,,,,,,283.9954987999954,284.39688139999635,284.3801184999975,284.4797788999931,284.8809243999931,None,right,1,284.8809243999931,None,284.3801184999975,284.4797788999931,284.4797788999931,None,285.5476700999934,None,0.6416362000018125,,,,,,,11003,001,2023_Dec_29_1148,ANT,2021.2.3,59.53894233827601,
1,3,no,up,IC,L,,,,,,Block.xlsx,"你已经完成了第一个实验区组

请稍作休息


点击空格键进入下一个区组。",50,0,1.5,left,RRLRR.png,,,,,0,0,0,0,1,21,45,2,,,,,,,,,,,,,,,,,,,,,,,,,,,,,,,,,,,,,,,,,,,,,,,,,,,,,,,,,,,,,,,,,,,,,,285.94861699999456,286.3489514999965,286.33250149999367,286.433266,286.83336319999944,None,left,1,286.83336319999944,None,286.33250149999367,286.433266,286.433266,None,287.6007111999934,None,0.7450449000025401,,,,,,,11003,001,2023_Dec_29_1148,ANT,2021.2.3,59.53894233827601,
1,6,no,down,C,R,,,,,,Block.xlsx,"你已经完成了第一个实验区组

请稍作休息


点击空格键进入下一个区组。",50,0,-1.5,right,RRRRR.png,,,,,0,0,0,0,1,22,46,5,,,,,,,,,,,,,,,,,,,,,,,,,,,,,,,,,,,,,,,,,,,,,,,,,,,,,,,,,,,,,,,,,,,,,,288.0016342999952,288.40289649999613,288.3861709999983,288.4857652999999,288.88748959999793,None,right,1,288.88748959999793,None,288.3861709999983,288.4857652999999,288.4857652999999,None,289.67032139999355,None,0.7627626000030432,,,,,,,11003,001,2023_Dec_29_1148,ANT,2021.2.3,59.53894233827601,
1,3,no,up,IC,L,,,,,,Block.xlsx,"你已经完成了第一个实验区组

请稍作休息


点击空格键进入下一个区组。",50,0,1.5,left,RRLRR.png,,,,,0,0,0,0,1,23,47,2,,,,,,,,,,,,,,,,,,,,,,,,,,,,,,,,,,,,,,,,,,,,,,,,,,,,,,,,,,,,,,,,,,,,,,290.07094619999407,290.4740030999965,290.45559409999987,290.5555815999978,290.95556139999826,None,left,1,290.95556139999826,None,290.45559409999987,290.5555815999978,290.5555815999978,None,291.65676889999304,None,0.6786305000059656,,,,,,,11003,001,2023_Dec_29_1148,ANT,2021.2.3,59.53894233827601,
1,9,center,up,C,L,,,,,,Block.xlsx,"你已经完成了第一个实验区组

请稍作休息


点击空格键进入下一个区组。",0,50,1.5,left,LLLLL.png,,,,,0,0,0,0,2,0,48,8,,,,,,,,,,,,,,,,,,,,,,,,,,,,,,,,,,,,,,,,,,,,,,,,,,,,,,,,,,,,,,,,,,,,,,292.0571906999976,292.458819499996,292.442020399998,292.5421175999945,292.9421782999998,None,left,1,292.9421782999998,None,292.442020399998,292.5421175999945,292.5421175999945,None,293.55946619999304,None,0.5878654999978608,,,,,,,11003,001,2023_Dec_29_1148,ANT,2021.2.3,59.53894233827601,
1,17,spatial,up,C,L,,,,,,Block.xlsx,"你已经完成了第一个实验区组

请稍作休息


点击空格键进入下一个区组。",1.5,0,1.5,left,LLLLL.png,,,,,0,0,0,0,2,1,49,16,,,,,,,,,,,,,,,,,,,,,,,,,,,,,,,,,,,,,,,,,,,,,,,,,,,,,,,,,,,,,,,,,,,,,,293.9600752999977,294.36231819999375,294.3441041999977,294.44568399999844,294.84576709999965,None,left,1,294.84576709999965,None,294.3441041999977,294.44568399999844,294.44568399999844,None,295.3786831999969,None,0.5084122999978717,,,,,,,11003,001,2023_Dec_29_1148,ANT,2021.2.3,59.53894233827601,
1,10,center,up,C,R,,,,,,Block.xlsx,"你已经完成了第一个实验区组

请稍作休息


点击空格键进入下一个区组。",0,50,1.5,right,RRRRR.png,,,,,0,0,0,0,2,2,50,9,,,,,,,,,,,,,,,,,,,,,,,,,,,,,,,,,,,,,,,,,,,,,,,,,,,,,,,,,,,,,,,,,,,,,,295.7794947000002,296.180686599997,296.16406299999653,296.26494829999865,296.6649172999969,None,right,1,296.6649172999969,None,296.16406299999653,296.26494829999865,296.26494829999865,None,297.164938899994,None,0.4811935999969137,,,,,,,11003,001,2023_Dec_29_1148,ANT,2021.2.3,59.53894233827601,
1,14,center,down,C,R,,,,,,Block.xlsx,"你已经完成了第一个实验区组

请稍作休息


点击空格键进入下一个区组。",0,50,-1.5,right,RRRRR.png,,,,,0,0,0,0,2,3,51,13,,,,,,,,,,,,,,,,,,,,,,,,,,,,,,,,,,,,,,,,,,,,,,,,,,,,,,,,,,,,,,,,,,,,,,297.5663024999958,297.9678436999966,297.9495594999971,298.0509388999999,298.4507569999987,None,right,1,298.4507569999987,None,297.9495594999971,298.0509388999999,298.0509388999999,None,299.16793340000004,None,0.6875533000056748,,,,,,,11003,001,2023_Dec_29_1148,ANT,2021.2.3,59.53894233827601,
1,14,center,down,C,R,,,,,,Block.xlsx,"你已经完成了第一个实验区组

请稍作休息


点击空格键进入下一个区组。",0,50,-1.5,right,RRRRR.png,,,,,0,0,0,0,2,4,52,13,,,,,,,,,,,,,,,,,,,,,,,,,,,,,,,,,,,,,,,,,,,,,,,,,,,,,,,,,,,,,,,,,,,,,,299.56855599999835,299.97061889999895,299.9523215999943,300.05311859999347,300.45306359999813,None,right,1,300.45306359999813,None,299.9523215999943,300.05311859999347,300.05311859999347,None,301.02063059999637,None,0.5492306999949506,,,,,,,11003,001,2023_Dec_29_1148,ANT,2021.2.3,59.53894233827601,
1,1,no,up,C,L,,,,,,Block.xlsx,"你已经完成了第一个实验区组

请稍作休息


点击空格键进入下一个区组。",50,0,1.5,left,LLLLL.png,,,,,0,0,0,0,2,5,53,0,,,,,,,,,,,,,,,,,,,,,,,,,,,,,,,,,,,,,,,,,,,,,,,,,,,,,,,,,,,,,,,,,,,,,,301.4221649999963,301.82305669999914,301.80488749999495,301.90538209999795,302.30601499999466,None,left,1,302.30601499999466,None,301.80488749999495,301.90538209999795,301.90538209999795,None,302.9065951999946,None,0.5844883000027039,,,,,,,11003,001,2023_Dec_29_1148,ANT,2021.2.3,59.53894233827601,
1,17,spatial,up,C,L,,,,,,Block.xlsx,"你已经完成了第一个实验区组

请稍作休息


点击空格键进入下一个区组。",1.5,0,1.5,left,LLLLL.png,,,,,0,0,0,0,2,6,54,16,,,,,,,,,,,,,,,,,,,,,,,,,,,,,,,,,,,,,,,,,,,,,,,,,,,,,,,,,,,,,,,,,,,,,,303.3083716999972,303.7085364999948,303.69193229999655,303.7920712999985,304.1926122999939,None,left,1,304.1926122999939,None,303.69193229999655,303.7920712999985,303.7920712999985,None,304.72649879999517,None,0.5142661999998381,,,,,,,11003,001,2023_Dec_29_1148,ANT,2021.2.3,59.53894233827601,
1,15,center,down,IC,L,,,,,,Block.xlsx,"你已经完成了第一个实验区组

请稍作休息


点击空格键进入下一个区组。",0,50,-1.5,left,RRLRR.png,,,,,0,0,0,0,2,7,55,14,,,,,,,,,,,,,,,,,,,,,,,,,,,,,,,,,,,,,,,,,,,,,,,,,,,,,,,,,,,,,,,,,,,,,,305.126666499993,305.52795729999343,305.5122257999974,305.6125766999976,306.0140662999984,None,left,1,306.0140662999984,None,305.5122257999974,305.6125766999976,305.6125766999976,None,306.87929159999476,None,0.8444754000011017,,,,,,,11003,001,2023_Dec_29_1148,ANT,2021.2.3,59.53894233827601,
1,21,spatial,down,C,L,,,,,,Block.xlsx,"你已经完成了第一个实验区组

请稍作休息


点击空格键进入下一个区组。",-1.5,0,-1.5,left,LLLLL.png,,,,,0,0,0,0,2,8,56,20,,,,,,,,,,,,,,,,,,,,,,,,,,,,,,,,,,,,,,,,,,,,,,,,,,,,,,,,,,,,,,,,,,,,,,307.27982399999746,307.6812143999996,307.6637241999997,307.76460389999556,308.16529649999575,None,left,1,308.16529649999575,None,307.6637241999997,307.76460389999556,307.76460389999556,None,308.6992440999966,None,0.5176565000001574,,,,,,,11003,001,2023_Dec_29_1148,ANT,2021.2.3,59.53894233827601,
1,1,no,up,C,L,,,,,,Block.xlsx,"你已经完成了第一个实验区组

请稍作休息


点击空格键进入下一个区组。",50,0,1.5,left,LLLLL.png,,,,,0,0,0,0,2,9,57,0,,,,,,,,,,,,,,,,,,,,,,,,,,,,,,,,,,,,,,,,,,,,,,,,,,,,,,,,,,,,,,,,,,,,,,309.09955599999375,309.4997798999975,309.48521519999485,309.6017232999948,309.9845204999947,None,left,1,309.9845204999947,None,309.48521519999485,309.6017232999948,309.58389539999916,None,310.6179625999939,None,0.6182382999977563,,,,,,,11003,001,2023_Dec_29_1148,ANT,2021.2.3,59.53894233827601,
1,4,no,up,IC,R,,,,,,Block.xlsx,"你已经完成了第一个实验区组

请稍作休息


点击空格键进入下一个区组。",50,0,1.5,right,LLRLL.png,,,,,0,0,0,0,2,10,58,3,,,,,,,,,,,,,,,,,,,,,,,,,,,,,,,,,,,,,,,,,,,,,,,,,,,,,,,,,,,,,,,,,,,,,,311.01934329999494,311.4193732999993,311.4033307999998,311.50315939999564,311.90457599999354,None,right,1,311.90457599999354,None,311.4033307999998,311.50315939999564,311.50315939999564,None,313.02157409999927,None,1.0895441000029678,,,,,,,11003,001,2023_Dec_29_1148,ANT,2021.2.3,59.53894233827601,
1,11,center,up,IC,L,,,,,,Block.xlsx,"你已经完成了第一个实验区组

请稍作休息


点击空格键进入下一个区组。",0,50,1.5,left,RRLRR.png,,,,,0,0,0,0,2,11,59,10,,,,,,,,,,,,,,,,,,,,,,,,,,,,,,,,,,,,,,,,,,,,,,,,,,,,,,,,,,,,,,,,,,,,,,313.4226345999996,313.824003099995,313.8062034999966,313.90713289999985,314.3075914999936,None,left,1,314.3075914999936,None,313.8062034999966,313.90713289999985,313.90713289999985,None,315.00778879999416,None,0.6789043999960995,,,,,,,11003,001,2023_Dec_29_1148,ANT,2021.2.3,59.53894233827601,
1,5,no,down,C,L,,,,,,Block.xlsx,"你已经完成了第一个实验区组

请稍作休息


点击空格键进入下一个区组。",50,0,-1.5,left,LLLLL.png,,,,,0,0,0,0,2,12,60,4,,,,,,,,,,,,,,,,,,,,,,,,,,,,,,,,,,,,,,,,,,,,,,,,,,,,,,,,,,,,,,,,,,,,,,315.40875839999353,315.809846499993,315.7937916999945,315.89357289999316,316.2940291999985,None,left,1,316.2940291999985,None,315.7937916999945,315.89357289999316,315.89357289999316,None,316.92747699999745,None,0.6121725999983028,,,,,,,11003,001,2023_Dec_29_1148,ANT,2021.2.3,59.53894233827601,
1,7,no,down,IC,L,,,,,,Block.xlsx,"你已经完成了第一个实验区组

请稍作休息


点击空格键进入下一个区组。",50,0,-1.5,left,RRLRR.png,,,,,0,0,0,0,2,13,61,6,,,,,,,,,,,,,,,,,,,,,,,,,,,,,,,,,,,,,,,,,,,,,,,,,,,,,,,,,,,,,,,,,,,,,,317.3284683999955,317.729405099999,317.7130254999938,317.81221849999565,318.2135214999944,None,left,1,318.2135214999944,None,317.7130254999938,317.81221849999565,317.81221849999565,None,318.91364780000004,None,0.6767524000024423,,,,,,,11003,001,2023_Dec_29_1148,ANT,2021.2.3,59.53894233827601,
1,5,no,down,C,L,,,,,,Block.xlsx,"你已经完成了第一个实验区组

请稍作休息


点击空格键进入下一个区组。",50,0,-1.5,left,LLLLL.png,,,,,0,0,0,0,2,14,62,4,,,,,,,,,,,,,,,,,,,,,,,,,,,,,,,,,,,,,,,,,,,,,,,,,,,,,,,,,,,,,,,,,,,,,,319.31444669999473,319.7150526999976,319.70047739999427,319.8162802999941,320.2009289999987,None,left,1,320.2009289999987,None,319.70047739999427,319.8162802999941,319.80011899999954,None,320.84986959999515,None,0.6253290000022389,,,,,,,11003,001,2023_Dec_29_1148,ANT,2021.2.3,59.53894233827601,
1,20,spatial,up,IC,R,,,,,,Block.xlsx,"你已经完成了第一个实验区组

请稍作休息


点击空格键进入下一个区组。",1.5,0,1.5,right,LLRLL.png,,,,,0,0,0,0,2,15,63,19,,,,,,,,,,,,,,,,,,,,,,,,,,,,,,,,,,,,,,,,,,,,,,,,,,,,,,,,,,,,,,,,,,,,,,321.2505683999989,321.653661999997,321.63497389999975,321.7362484999976,322.13607009999396,None,right,1,322.13607009999396,None,321.63497389999975,321.7362484999976,321.7362484999976,None,322.93623059999663,None,0.7863297000003513,,,,,,,11003,001,2023_Dec_29_1148,ANT,2021.2.3,59.53894233827601,
1,19,spatial,up,IC,L,,,,,,Block.xlsx,"你已经完成了第一个实验区组

请稍作休息


点击空格键进入下一个区组。",1.5,0,1.5,left,RRLRR.png,,,,,0,0,0,0,2,16,64,18,,,,,,,,,,,,,,,,,,,,,,,,,,,,,,,,,,,,,,,,,,,,,,,,,,,,,,,,,,,,,,,,,,,,,,323.3372251999972,323.7381977999976,323.72147449999466,323.82273119999445,324.2219715999963,None,left,1,324.2219715999963,None,323.72147449999466,323.82273119999445,323.82273119999445,None,325.12294219999603,None,0.8762922999958391,,,,,,,11003,001,2023_Dec_29_1148,ANT,2021.2.3,59.53894233827601,
1,24,spatial,down,IC,R,,,,,,Block.xlsx,"你已经完成了第一个实验区组

请稍作休息


点击空格键进入下一个区组。",-1.5,0,-1.5,right,LLRLL.png,,,,,0,0,0,0,2,17,65,23,,,,,,,,,,,,,,,,,,,,,,,,,,,,,,,,,,,,,,,,,,,,,,,,,,,,,,,,,,,,,,,,,,,,,,325.5243660999986,325.9248080999969,325.9089545999959,326.02505409999867,326.40825929999846,None,right,1,326.40825929999846,None,325.9089545999959,326.02505409999867,326.0092555999945,None,327.0926657999953,None,0.6662182999934885,,,,,,,11003,001,2023_Dec_29_1148,ANT,2021.2.3,59.53894233827601,
1,10,center,up,C,R,,,,,,Block.xlsx,"你已经完成了第一个实验区组

请稍作休息


点击空格键进入下一个区组。",0,50,1.5,right,RRRRR.png,,,,,0,0,0,0,2,18,66,9,,,,,,,,,,,,,,,,,,,,,,,,,,,,,,,,,,,,,,,,,,,,,,,,,,,,,,,,,,,,,,,,,,,,,,327.49327529999573,327.89638399999967,327.87797949999367,327.9778590999995,328.3798702999993,None,right,1,328.3798702999993,None,327.87797949999367,327.9778590999995,327.9778590999995,None,328.9290043000001,None,0.534533799997007,,,,,,,11003,001,2023_Dec_29_1148,ANT,2021.2.3,59.53894233827601,
1,7,no,down,IC,L,,,,,,Block.xlsx,"你已经完成了第一个实验区组

请稍作休息


点击空格键进入下一个区组。",50,0,-1.5,left,RRLRR.png,,,,,0,0,0,0,2,19,67,6,,,,,,,,,,,,,,,,,,,,,,,,,,,,,,,,,,,,,,,,,,,,,,,,,,,,,,,,,,,,,,,,,,,,,,329.32945809999364,329.7312438999943,329.71370199999365,329.81397239999933,330.2139470999973,None,left,1,330.2139470999973,None,329.71370199999365,329.81397239999933,329.81397239999933,None,330.93152339999506,None,0.7008896999977878,,,,,,,11003,001,2023_Dec_29_1148,ANT,2021.2.3,59.53894233827601,
1,21,spatial,down,C,L,,,,,,Block.xlsx,"你已经完成了第一个实验区组

请稍作休息


点击空格键进入下一个区组。",-1.5,0,-1.5,left,LLLLL.png,,,,,0,0,0,0,2,20,68,20,,,,,,,,,,,,,,,,,,,,,,,,,,,,,,,,,,,,,,,,,,,,,,,,,,,,,,,,,,,,,,,,,,,,,,331.3320887999944,331.7343480999989,331.71642679999786,331.8165752999994,332.2176305999965,None,left,1,332.2176305999965,None,331.71642679999786,331.8165752999994,331.8165752999994,None,332.7677329999933,None,0.5209404999986873,,,,,,,11003,001,2023_Dec_29_1148,ANT,2021.2.3,59.53894233827601,
1,21,spatial,down,C,L,,,,,,Block.xlsx,"你已经完成了第一个实验区组

请稍作休息


点击空格键进入下一个区组。",-1.5,0,-1.5,left,LLLLL.png,,,,,0,0,0,0,2,21,69,20,,,,,,,,,,,,,,,,,,,,,,,,,,,,,,,,,,,,,,,,,,,,,,,,,,,,,,,,,,,,,,,,,,,,,,333.16903629999433,333.5702025999999,333.55286559999513,333.65403179999703,334.0538710999972,None,left,1,334.0538710999972,None,333.55286559999513,333.65403179999703,333.65403179999703,None,334.5540731999936,None,0.48449120000441326,,,,,,,11003,001,2023_Dec_29_1148,ANT,2021.2.3,59.53894233827601,
1,14,center,down,C,R,,,,,,Block.xlsx,"你已经完成了第一个实验区组

请稍作休息


点击空格键进入下一个区组。",0,50,-1.5,right,RRRRR.png,,,,,0,0,0,0,2,22,70,13,,,,,,,,,,,,,,,,,,,,,,,,,,,,,,,,,,,,,,,,,,,,,,,,,,,,,,,,,,,,,,,,,,,,,,334.95435959999304,335.35645739999745,335.33874719999585,335.4400456999938,335.83982779999496,None,right,1,335.83982779999496,None,335.33874719999585,335.4400456999938,335.4400456999938,None,336.35641719999694,None,0.49034730000130367,,,,,,,11003,001,2023_Dec_29_1148,ANT,2021.2.3,59.53894233827601,
1,23,spatial,down,IC,L,,,,,,Block.xlsx,"你已经完成了第一个实验区组

请稍作休息


点击空格键进入下一个区组。",-1.5,0,-1.5,left,RRLRR.png,,,,,0,0,0,0,2,23,71,22,,,,,,,,,,,,,,,,,,,,,,,,,,,,,,,,,,,,,,,,,,,,,,,,,,,,,,,,,,,,,,,,,,,,,,336.7569067999939,337.1586360999936,337.14089709999826,337.2411858999985,337.64217639999697,None,left,1,337.64217639999697,None,337.14089709999826,337.2411858999985,337.2411858999985,None,338.24248069999885,None,0.5846726000017952,,,,,,,11003,001,2023_Dec_29_1148,ANT,2021.2.3,59.53894233827601,
1,15,center,down,IC,L,,,,,,Block.xlsx,"你已经完成了第一个实验区组

请稍作休息


点击空格键进入下一个区组。",0,50,-1.5,left,RRLRR.png,,,,,0,0,0,0,3,0,72,14,,,,,,,,,,,,,,,,,,,,,,,,,,,,,,,,,,,,,,,,,,,,,,,,,,,,,,,,,,,,,,,,,,,,,,338.64374329999555,339.0442858999959,339.02666179999505,339.1288093999974,339.5283997999941,None,left,1,339.5283997999941,None,339.02666179999505,339.1288093999974,339.1288093999974,None,340.2787959999987,None,0.7304962999987765,,,,,,,11003,001,2023_Dec_29_1148,ANT,2021.2.3,59.53894233827601,
1,23,spatial,down,IC,L,,,,,,Block.xlsx,"你已经完成了第一个实验区组

请稍作休息


点击空格键进入下一个区组。",-1.5,0,-1.5,left,RRLRR.png,,,,,0,0,0,0,3,1,73,22,,,,,,,,,,,,,,,,,,,,,,,,,,,,,,,,,,,,,,,,,,,,,,,,,,,,,,,,,,,,,,,,,,,,,,340.6800135999947,341.08048099999723,341.0643931999948,341.1653506999937,341.56401699999697,None,left,1,341.56401699999697,None,341.0643931999948,341.1653506999937,341.1653506999937,None,342.19932299999346,None,0.6065058000021963,,,,,,,11003,001,2023_Dec_29_1148,ANT,2021.2.3,59.53894233827601,
1,19,spatial,up,IC,L,,,,,,Block.xlsx,"你已经完成了第一个实验区组

请稍作休息


点击空格键进入下一个区组。",1.5,0,1.5,left,RRLRR.png,,,,,0,0,0,0,3,2,74,18,,,,,,,,,,,,,,,,,,,,,,,,,,,,,,,,,,,,,,,,,,,,,,,,,,,,,,,,,,,,,,,,,,,,,,342.59892739999486,342.9998390999972,342.98309669999435,343.0831573999967,343.48380879999604,None,left,1,343.48380879999604,None,342.98309669999435,343.0831573999967,343.0831573999967,None,344.10108119999495,None,0.5903773000027286,,,,,,,11003,001,2023_Dec_29_1148,ANT,2021.2.3,59.53894233827601,
1,3,no,up,IC,L,,,,,,Block.xlsx,"你已经完成了第一个实验区组

请稍作休息


点击空格键进入下一个区组。",50,0,1.5,left,RRLRR.png,,,,,0,0,0,0,3,3,75,2,,,,,,,,,,,,,,,,,,,,,,,,,,,,,,,,,,,,,,,,,,,,,,,,,,,,,,,,,,,,,,,,,,,,,,344.50316109999403,344.90225429999555,344.8863431999998,344.9863439999972,345.3870223999984,None,left,1,345.3870223999984,None,344.8863431999998,344.9863439999972,344.9863439999972,None,346.0203790999949,None,0.616530999999668,,,,,,,11003,001,2023_Dec_29_1148,ANT,2021.2.3,59.53894233827601,
1,15,center,down,IC,L,,,,,,Block.xlsx,"你已经完成了第一个实验区组

请稍作休息


点击空格键进入下一个区组。",0,50,-1.5,left,RRLRR.png,,,,,0,0,0,0,3,4,76,14,,,,,,,,,,,,,,,,,,,,,,,,,,,,,,,,,,,,,,,,,,,,,,,,,,,,,,,,,,,,,,,,,,,,,,346.42242819999956,346.8224642999994,346.80590119999397,346.90607949999685,347.30672489999415,None,left,1,347.30672489999415,None,346.80590119999397,346.90607949999685,346.90607949999685,None,347.95690679999825,None,0.6232697000014014,,,,,,,11003,001,2023_Dec_29_1148,ANT,2021.2.3,59.53894233827601,
1,19,spatial,up,IC,L,,,,,,Block.xlsx,"你已经完成了第一个实验区组

请稍作休息


点击空格键进入下一个区组。",1.5,0,1.5,left,RRLRR.png,,,,,0,0,0,0,3,5,77,18,,,,,,,,,,,,,,,,,,,,,,,,,,,,,,,,,,,,,,,,,,,,,,,,,,,,,,,,,,,,,,,,,,,,,,348.357405799994,348.7586237999931,348.74204499999905,348.84199239999725,349.24219959999755,None,left,1,349.24219959999755,None,348.74204499999905,348.84199239999725,348.84199239999725,None,349.8596267999965,None,0.591894900004263,,,,,,,11003,001,2023_Dec_29_1148,ANT,2021.2.3,59.53894233827601,
1,18,spatial,up,C,R,,,,,,Block.xlsx,"你已经完成了第一个实验区组

请稍作休息


点击空格键进入下一个区组。",1.5,0,1.5,right,RRRRR.png,,,,,0,0,0,0,3,6,78,17,,,,,,,,,,,,,,,,,,,,,,,,,,,,,,,,,,,,,,,,,,,,,,,,,,,,,,,,,,,,,,,,,,,,,,350.26023809999606,350.6610756999944,350.64523879999615,350.74436309999874,351.14556009999797,None,right,1,351.14556009999797,None,350.64523879999615,350.74436309999874,350.74436309999874,None,351.6623888999966,None,0.49764600000344217,,,,,,,11003,001,2023_Dec_29_1148,ANT,2021.2.3,59.53894233827601,
1,8,no,down,IC,R,,,,,,Block.xlsx,"你已经完成了第一个实验区组

请稍作休息


点击空格键进入下一个区组。",50,0,-1.5,right,LLRLL.png,,,,,0,0,0,0,3,7,79,7,,,,,,,,,,,,,,,,,,,,,,,,,,,,,,,,,,,,,,,,,,,,,,,,,,,,,,,,,,,,,,,,,,,,,,352.062778099993,352.46410209999885,352.4475147999983,352.54709109999385,352.9484319999974,None,right,1,352.9484319999974,None,352.4475147999983,352.54709109999385,352.54709109999385,None,353.6985513999971,None,0.7339655999967363,,,,,,,11003,001,2023_Dec_29_1148,ANT,2021.2.3,59.53894233827601,
1,9,center,up,C,L,,,,,,Block.xlsx,"你已经完成了第一个实验区组

请稍作休息


点击空格键进入下一个区组。",0,50,1.5,left,LLLLL.png,,,,,0,0,0,0,3,8,80,8,,,,,,,,,,,,,,,,,,,,,,,,,,,,,,,,,,,,,,,,,,,,,,,,,,,,,,,,,,,,,,,,,,,,,,354.0992722999945,354.4999866999933,354.4845362999986,354.5842128999939,354.98464849999436,None,left,1,354.98464849999436,None,354.4845362999986,354.5842128999939,354.5842128999939,None,355.5352589999966,None,0.5217585999998846,,,,,,,11003,001,2023_Dec_29_1148,ANT,2021.2.3,59.53894233827601,
1,12,center,up,IC,R,,,,,,Block.xlsx,"你已经完成了第一个实验区组

请稍作休息


点击空格键进入下一个区组。",0,50,1.5,right,LLRLL.png,,,,,0,0,0,0,3,9,81,11,,,,,,,,,,,,,,,,,,,,,,,,,,,,,,,,,,,,,,,,,,,,,,,,,,,,,,,,,,,,,,,,,,,,,,355.9351607999997,356.33658369999466,356.3211206999986,356.43686079999316,356.8208025999993,None,right,1,356.8208025999993,None,356.3211206999986,356.43686079999316,356.42152409999835,None,357.8882694999993,None,1.0373330999937025,,,,,,,11003,001,2023_Dec_29_1148,ANT,2021.2.3,59.53894233827601,
1,13,center,down,C,L,,,,,,Block.xlsx,"你已经完成了第一个实验区组

请稍作休息


点击空格键进入下一个区组。",0,50,-1.5,left,LLLLL.png,,,,,0,0,0,0,3,10,82,12,,,,,,,,,,,,,,,,,,,,,,,,,,,,,,,,,,,,,,,,,,,,,,,,,,,,,,,,,,,,,,,,,,,,,,358.28872969999793,358.6903499999971,358.6726694999961,358.7739799999981,359.17429529999936,None,left,1,359.17429529999936,None,358.6726694999961,358.7739799999981,358.7739799999981,None,359.8243339999972,None,0.6359675000057905,,,,,,,11003,001,2023_Dec_29_1148,ANT,2021.2.3,59.53894233827601,
1,2,no,up,C,R,,,,,,Block.xlsx,"你已经完成了第一个实验区组

请稍作休息


点击空格键进入下一个区组。",50,0,1.5,right,RRRRR.png,,,,,0,0,0,0,3,11,83,1,,,,,,,,,,,,,,,,,,,,,,,,,,,,,,,,,,,,,,,,,,,,,,,,,,,,,,,,,,,,,,,,,,,,,,360.2252101999984,360.62710179999704,360.60897859999386,360.7099659999949,361.1112114999996,None,right,1,361.1112114999996,None,360.60897859999386,360.7099659999949,360.7099659999949,None,361.66032350000023,None,0.5230350000056205,,,,,,,11003,001,2023_Dec_29_1148,ANT,2021.2.3,59.53894233827601,
1,16,center,down,IC,R,,,,,,Block.xlsx,"你已经完成了第一个实验区组

请稍作休息


点击空格键进入下一个区组。",0,50,-1.5,right,LLRLL.png,,,,,0,0,0,0,3,12,84,15,,,,,,,,,,,,,,,,,,,,,,,,,,,,,,,,,,,,,,,,,,,,,,,,,,,,,,,,,,,,,,,,,,,,,,362.06124249999993,362.4635261999938,362.44549579999875,362.5453506999984,362.9457670999982,None,right,1,362.9457670999982,None,362.44549579999875,362.5453506999984,362.5453506999984,None,363.8134793999998,None,0.8494856999968761,,,,,,,11003,001,2023_Dec_29_1148,ANT,2021.2.3,59.53894233827601,
1,24,spatial,down,IC,R,,,,,,Block.xlsx,"你已经完成了第一个实验区组

请稍作休息


点击空格键进入下一个区组。",-1.5,0,-1.5,right,LLRLL.png,,,,,0,0,0,0,3,13,85,23,,,,,,,,,,,,,,,,,,,,,,,,,,,,,,,,,,,,,,,,,,,,,,,,,,,,,,,,,,,,,,,,,,,,,,364.2141738999999,364.614757299998,364.5979318999962,364.698533099996,365.09866489999695,None,right,1,365.09866489999695,None,364.5979318999962,364.698533099996,364.698533099996,None,365.7333881999948,None,0.6075341000032495,,,,,,,11003,001,2023_Dec_29_1148,ANT,2021.2.3,59.53894233827601,
1,12,center,up,IC,R,,,,,,Block.xlsx,"你已经完成了第一个实验区组

请稍作休息


点击空格键进入下一个区组。",0,50,1.5,right,LLRLL.png,,,,,0,0,0,0,3,14,86,11,,,,,,,,,,,,,,,,,,,,,,,,,,,,,,,,,,,,,,,,,,,,,,,,,,,,,,,,,,,,,,,,,,,,,,366.13369819999934,366.5342690999969,366.5193527999945,366.63537209999777,367.019257999993,None,right,1,367.019257999993,None,366.5193527999945,366.63537209999777,366.6178273999976,None,367.82120209999994,None,0.7750298000028124,,,,,,,11003,001,2023_Dec_29_1148,ANT,2021.2.3,59.53894233827601,
1,23,spatial,down,IC,L,,,,,,Block.xlsx,"你已经完成了第一个实验区组

请稍作休息


点击空格键进入下一个区组。",-1.5,0,-1.5,left,RRLRR.png,,,,,0,0,0,0,3,15,87,22,,,,,,,,,,,,,,,,,,,,,,,,,,,,,,,,,,,,,,,,,,,,,,,,,,,,,,,,,,,,,,,,,,,,,,368.2201444999955,368.62227499999426,368.6046694999968,368.7051108999949,369.10534149999876,None,left,1,369.10534149999876,None,368.6046694999968,368.7051108999949,368.7051108999949,None,369.77242779999506,None,0.6496253000004799,,,,,,,11003,001,2023_Dec_29_1148,ANT,2021.2.3,59.53894233827601,
1,7,no,down,IC,L,,,,,,Block.xlsx,"你已经完成了第一个实验区组

请稍作休息


点击空格键进入下一个区组。",50,0,-1.5,left,RRLRR.png,,,,,0,0,0,0,3,16,88,6,,,,,,,,,,,,,,,,,,,,,,,,,,,,,,,,,,,,,,,,,,,,,,,,,,,,,,,,,,,,,,,,,,,,,,370.1742696000001,370.5749069999947,370.5571190999981,370.65768599999865,371.0580206999948,None,left,1,371.0580206999948,None,370.5571190999981,370.65768599999865,370.65768599999865,None,371.7087437999944,None,0.6322801000060281,,,,,,,11003,001,2023_Dec_29_1148,ANT,2021.2.3,59.53894233827601,
1,19,spatial,up,IC,L,,,,,,Block.xlsx,"你已经完成了第一个实验区组

请稍作休息


点击空格键进入下一个区组。",1.5,0,1.5,left,RRLRR.png,,,,,0,0,0,0,3,17,89,18,,,,,,,,,,,,,,,,,,,,,,,,,,,,,,,,,,,,,,,,,,,,,,,,,,,,,,,,,,,,,,,,,,,,,,372.1094077999951,372.50981189999584,372.493513399997,372.5940627999953,372.99381359999825,None,left,1,372.99381359999825,None,372.493513399997,372.5940627999953,372.5940627999953,None,373.6781855999943,None,0.6565659000043524,,,,,,,11003,001,2023_Dec_29_1148,ANT,2021.2.3,59.53894233827601,
1,2,no,up,C,R,,,,,,Block.xlsx,"你已经完成了第一个实验区组

请稍作休息


点击空格键进入下一个区组。",50,0,1.5,right,RRRRR.png,,,,,0,0,0,0,3,18,90,1,,,,,,,,,,,,,,,,,,,,,,,,,,,,,,,,,,,,,,,,,,,,,,,,,,,,,,,,,,,,,,,,,,,,,,374.0789829999994,374.4804956999942,374.4639152999953,374.56301049999456,374.9648326999959,None,right,1,374.9648326999959,None,374.4639152999953,374.56301049999456,374.56301049999456,None,375.56453179999517,None,0.5732957999935024,,,,,,,11003,001,2023_Dec_29_1148,ANT,2021.2.3,59.53894233827601,
1,4,no,up,IC,R,,,,,,Block.xlsx,"你已经完成了第一个实验区组

请稍作休息


点击空格键进入下一个区组。",50,0,1.5,right,LLRLL.png,,,,,0,0,0,0,3,19,91,3,,,,,,,,,,,,,,,,,,,,,,,,,,,,,,,,,,,,,,,,,,,,,,,,,,,,,,,,,,,,,,,,,,,,,,375.96521189999476,376.3656362999973,376.350875499993,376.46653389999847,376.8503015999959,None,right,1,376.8503015999959,None,376.350875499993,376.46653389999847,376.45117319999554,None,377.5006574999934,None,0.6327624999976251,,,,,,,11003,001,2023_Dec_29_1148,ANT,2021.2.3,59.53894233827601,
1,10,center,up,C,R,,,,,,Block.xlsx,"你已经完成了第一个实验区组

请稍作休息


点击空格键进入下一个区组。",0,50,1.5,right,RRRRR.png,,,,,0,0,0,0,3,20,92,9,,,,,,,,,,,,,,,,,,,,,,,,,,,,,,,,,,,,,,,,,,,,,,,,,,,,,,,,,,,,,,,,,,,,,,377.9018372999999,378.30286449999403,378.28571309999825,378.385944799993,378.78704899999866,None,right,1,378.78704899999866,None,378.28571309999825,378.385944799993,378.385944799993,None,379.3700424999988,None,0.5678732000014861,,,,,,,11003,001,2023_Dec_29_1148,ANT,2021.2.3,59.53894233827601,
1,21,spatial,down,C,L,,,,,,Block.xlsx,"你已经完成了第一个实验区组

请稍作休息


点击空格键进入下一个区组。",-1.5,0,-1.5,left,LLLLL.png,,,,,0,0,0,0,3,21,93,20,,,,,,,,,,,,,,,,,,,,,,,,,,,,,,,,,,,,,,,,,,,,,,,,,,,,,,,,,,,,,,,,,,,,,,379.77158749999944,380.1725118999966,380.1544508999941,380.2550149999952,380.6561436999982,None,left,1,380.6561436999982,None,380.1544508999941,380.2550149999952,380.2550149999952,None,381.18976129999646,None,0.5145554999980959,,,,,,,11003,001,2023_Dec_29_1148,ANT,2021.2.3,59.53894233827601,
1,16,center,down,IC,R,,,,,,Block.xlsx,"你已经完成了第一个实验区组

请稍作休息


点击空格键进入下一个区组。",0,50,-1.5,right,LLRLL.png,,,,,0,0,0,0,3,22,94,15,,,,,,,,,,,,,,,,,,,,,,,,,,,,,,,,,,,,,,,,,,,,,,,,,,,,,,,,,,,,,,,,,,,,,,381.5902047999989,381.99152779999713,381.97457149999536,382.074792899999,382.4752980999983,None,right,1,382.4752980999983,None,381.97457149999536,382.074792899999,382.074792899999,None,383.1756765999962,None,0.6791349999984959,,,,,,,11003,001,2023_Dec_29_1148,ANT,2021.2.3,59.53894233827601,
1,22,spatial,down,C,R,,,,,,Block.xlsx,"你已经完成了第一个实验区组

请稍作休息


点击空格键进入下一个区组。",-1.5,0,-1.5,right,RRRRR.png,,,,,0,0,0,0,3,23,95,21,,,,,,,,,,,,,,,,,,,,,,,,,,,,,,,,,,,,,,,,,,,,,,,,,,,,,,,,,,,,,,,,,,,,,,383.5774999999994,383.9790486999991,383.96069209999405,384.06210109999665,384.46143939999456,None,right,1,384.46143939999456,None,383.96069209999405,384.06210109999665,384.06210109999665,None,385.0616038999942,None,0.5806720000036876,,,,,,,11003,001,2023_Dec_29_1148,ANT,2021.2.3,59.53894233827601,
,,,,,,,,,,,Block.xlsx,"你已经完成了第一个实验区组

请稍作休息


点击空格键进入下一个区组。",,,,,,,,,,0,0,0,0,,,,,,,,,,,,,,,,,,,,,,,,,,,,,,,,,,,,,,,,,,,,,,,,,,,,,,,,,,,,,,,,,,,,,,,,,,,,,,,,,,,,,,,,,,,space,3.108062899998913,385.4621562999964,None,385.4621562999964,None,11003,001,2023_Dec_29_1148,ANT,2021.2.3,59.53894233827601,
1,15,center,down,IC,L,,,,,,Block.xlsx,"你已经完成了整个实验（三个区组）。

请报告实验者已完成实验

非常感谢，再见！",0,50,-1.5,left,RRLRR.png,,,,,0,1,1,1,0,0,0,14,,,,,,,,,,,,,,,,,,,,,,,,,,,,,,,,,,,,,,,,,,,,,,,,,,,,,,,,,,,,,,,,,,,,,,388.6185075999965,389.0182305999988,389.0030220999979,389.10138869999355,389.50197689999914,None,left,1,389.50197689999914,None,389.0030220999979,389.10138869999355,389.10138869999355,None,390.75400189999345,None,1.2284424000026775,,,,,,,11003,001,2023_Dec_29_1148,ANT,2021.2.3,59.53894233827601,
1,14,center,down,C,R,,,,,,Block.xlsx,"你已经完成了整个实验（三个区组）。

请报告实验者已完成实验

非常感谢，再见！",0,50,-1.5,right,RRRRR.png,,,,,0,1,1,1,0,1,1,13,,,,,,,,,,,,,,,,,,,,,,,,,,,,,,,,,,,,,,,,,,,,,,,,,,,,,,,,,,,,,,,,,,,,,,391.1541545,391.55591289999575,391.5380018999931,391.6387644999995,392.03970679999475,None,right,1,392.03970679999475,None,391.5380018999931,391.6387644999995,391.6387644999995,None,392.6729811999976,None,0.6109198999984073,,,,,,,11003,001,2023_Dec_29_1148,ANT,2021.2.3,59.53894233827601,
1,19,spatial,up,IC,L,,,,,,Block.xlsx,"你已经完成了整个实验（三个区组）。

请报告实验者已完成实验

非常感谢，再见！",1.5,0,1.5,left,RRLRR.png,,,,,0,1,1,1,0,2,2,18,,,,,,,,,,,,,,,,,,,,,,,,,,,,,,,,,,,,,,,,,,,,,,,,,,,,,,,,,,,,,,,,,,,,,,393.0746625999964,393.47481049999624,393.458232099998,393.55810550000024,393.9599542999931,None,left,1,393.9599542999931,None,393.458232099998,393.55810550000024,393.55810550000024,None,394.52640899999824,None,0.5385529000050155,,,,,,,11003,001,2023_Dec_29_1148,ANT,2021.2.3,59.53894233827601,
1,13,center,down,C,L,,,,,,Block.xlsx,"你已经完成了整个实验（三个区组）。

请报告实验者已完成实验

非常感谢，再见！",0,50,-1.5,left,LLLLL.png,,,,,0,1,1,1,0,3,3,12,,,,,,,,,,,,,,,,,,,,,,,,,,,,,,,,,,,,,,,,,,,,,,,,,,,,,,,,,,,,,,,,,,,,,,394.9266883999953,395.32733009999356,395.31155690000014,395.4276178,395.81256929999654,None,left,1,395.81256929999654,None,395.31155690000014,395.4276178,395.41262739999365,None,396.5121128999963,None,0.6775710000001709,,,,,,,11003,001,2023_Dec_29_1148,ANT,2021.2.3,59.53894233827601,
1,22,spatial,down,C,R,,,,,,Block.xlsx,"你已经完成了整个实验（三个区组）。

请报告实验者已完成实验

非常感谢，再见！",-1.5,0,-1.5,right,RRRRR.png,,,,,0,1,1,1,0,4,4,21,,,,,,,,,,,,,,,,,,,,,,,,,,,,,,,,,,,,,,,,,,,,,,,,,,,,,,,,,,,,,,,,,,,,,,396.9127320999978,397.3133339999986,397.2989652999968,397.41479139999865,397.7978825999962,None,right,1,397.7978825999962,None,397.2989652999968,397.41479139999865,397.3978954999984,None,398.348032599999,None,0.5325717000014265,,,,,,,11003,001,2023_Dec_29_1148,ANT,2021.2.3,59.53894233827601,
1,4,no,up,IC,R,,,,,,Block.xlsx,"你已经完成了整个实验（三个区组）。

请报告实验者已完成实验

非常感谢，再见！",50,0,1.5,right,LLRLL.png,,,,,0,1,1,1,0,5,5,3,,,,,,,,,,,,,,,,,,,,,,,,,,,,,,,,,,,,,,,,,,,,,,,,,,,,,,,,,,,,,,,,,,,,,,398.7493026999946,399.15000249999866,399.1327072999993,399.23350849999406,399.63495089999924,None,right,1,399.63495089999924,None,399.1327072999993,399.23350849999406,399.23350849999406,None,400.4178491999992,None,0.7593907000045874,,,,,,,11003,001,2023_Dec_29_1148,ANT,2021.2.3,59.53894233827601,
1,3,no,up,IC,L,,,,,,Block.xlsx,"你已经完成了整个实验（三个区组）。

请报告实验者已完成实验

非常感谢，再见！",50,0,1.5,left,RRLRR.png,,,,,0,1,1,1,0,6,6,2,,,,,,,,,,,,,,,,,,,,,,,,,,,,,,,,,,,,,,,,,,,,,,,,,,,,,,,,,,,,,,,,,,,,,,400.8192729999937,401.2207586999939,401.20341269999335,401.303184599994,401.70365769999626,None,left,1,401.70365769999626,None,401.20341269999335,401.303184599994,401.303184599994,None,402.3208562,None,0.5949937000041245,,,,,,,11003,001,2023_Dec_29_1148,ANT,2021.2.3,59.53894233827601,
1,4,no,up,IC,R,,,,,,Block.xlsx,"你已经完成了整个实验（三个区组）。

请报告实验者已完成实验

非常感谢，再见！",50,0,1.5,right,LLRLL.png,,,,,0,1,1,1,0,7,7,3,,,,,,,,,,,,,,,,,,,,,,,,,,,,,,,,,,,,,,,,,,,,,,,,,,,,,,,,,,,,,,,,,,,,,,402.72109459999774,403.1222207999963,403.105215699994,403.20574929999566,403.6057639999999,None,right,1,403.6057639999999,None,403.105215699994,403.20574929999566,403.20574929999566,None,404.6907218999986,None,1.0694435999976122,,,,,,,11003,001,2023_Dec_29_1148,ANT,2021.2.3,59.53894233827601,
1,19,spatial,up,IC,L,,,,,,Block.xlsx,"你已经完成了整个实验（三个区组）。

请报告实验者已完成实验

非常感谢，再见！",1.5,0,1.5,left,RRLRR.png,,,,,0,1,1,1,0,8,8,18,,,,,,,,,,,,,,,,,,,,,,,,,,,,,,,,,,,,,,,,,,,,,,,,,,,,,,,,,,,,,,,,,,,,,,405.09131909999996,405.49359159999585,405.47536579999723,405.5761824000001,405.976731799994,None,left,1,405.976731799994,None,405.47536579999723,405.5761824000001,405.5761824000001,None,406.6105494999938,None,0.6176898999983678,,,,,,,11003,001,2023_Dec_29_1148,ANT,2021.2.3,59.53894233827601,
1,22,spatial,down,C,R,,,,,,Block.xlsx,"你已经完成了整个实验（三个区组）。

请报告实验者已完成实验

非常感谢，再见！",-1.5,0,-1.5,right,RRRRR.png,,,,,0,1,1,1,0,9,9,21,,,,,,,,,,,,,,,,,,,,,,,,,,,,,,,,,,,,,,,,,,,,,,,,,,,,,,,,,,,,,,,,,,,,,,407.0111867999949,407.4124406999981,407.39575189999596,407.4950430999961,407.89701539999805,None,right,1,407.89701539999805,None,407.39575189999596,407.4950430999961,407.4950430999961,None,408.37949399999343,None,0.4658841000054963,,,,,,,11003,001,2023_Dec_29_1148,ANT,2021.2.3,59.53894233827601,
1,2,no,up,C,R,,,,,,Block.xlsx,"你已经完成了整个实验（三个区组）。

请报告实验者已完成实验

非常感谢，再见！",50,0,1.5,right,RRRRR.png,,,,,0,1,1,1,0,10,10,1,,,,,,,,,,,,,,,,,,,,,,,,,,,,,,,,,,,,,,,,,,,,,,,,,,,,,,,,,,,,,,,,,,,,,,408.7802833999958,409.1821823999999,409.16412039999705,409.26483699999517,409.66478359999746,None,right,1,409.66478359999746,None,409.16412039999705,409.26483699999517,409.26483699999517,None,410.2994789999939,None,0.6179386000003433,,,,,,,11003,001,2023_Dec_29_1148,ANT,2021.2.3,59.53894233827601,
1,16,center,down,IC,R,,,,,,Block.xlsx,"你已经完成了整个实验（三个区组）。

请报告实验者已完成实验

非常感谢，再见！",0,50,-1.5,right,LLRLL.png,,,,,0,1,1,1,0,11,11,15,,,,,,,,,,,,,,,,,,,,,,,,,,,,,,,,,,,,,,,,,,,,,,,,,,,,,,,,,,,,,,,,,,,,,,410.70085509999626,411.1004704999941,411.08549339999445,411.18414969999867,411.5858281999972,None,right,1,411.5858281999972,None,411.08549339999445,411.18414969999867,411.18414969999867,None,412.2522809000002,None,0.6407619000019622,,,,,,,11003,001,2023_Dec_29_1148,ANT,2021.2.3,59.53894233827601,
1,1,no,up,C,L,,,,,,Block.xlsx,"你已经完成了整个实验（三个区组）。

请报告实验者已完成实验

非常感谢，再见！",50,0,1.5,left,LLLLL.png,,,,,0,1,1,1,0,12,12,0,,,,,,,,,,,,,,,,,,,,,,,,,,,,,,,,,,,,,,,,,,,,,,,,,,,,,,,,,,,,,,,,,,,,,,412.6526217999999,413.0546650999968,413.0365881999969,413.13799019999715,413.53776229999494,None,left,1,413.53776229999494,None,413.0365881999969,413.13799019999715,413.13799019999715,None,414.1049827999959,None,0.544854600004328,,,,,,,11003,001,2023_Dec_29_1148,ANT,2021.2.3,59.53894233827601,
1,18,spatial,up,C,R,,,,,,Block.xlsx,"你已经完成了整个实验（三个区组）。

请报告实验者已完成实验

非常感谢，再见！",1.5,0,1.5,right,RRRRR.png,,,,,0,1,1,1,0,13,13,17,,,,,,,,,,,,,,,,,,,,,,,,,,,,,,,,,,,,,,,,,,,,,,,,,,,,,,,,,,,,,,,,,,,,,,414.5059342999957,414.90700939999806,414.8910886999947,415.0077111999999,415.3901306999978,None,right,1,415.3901306999978,None,414.8910886999947,415.0077111999999,414.9898352999953,None,415.8739362999986,None,0.46826359999977285,,,,,,,11003,001,2023_Dec_29_1148,ANT,2021.2.3,59.53894233827601,
1,7,no,down,IC,L,,,,,,Block.xlsx,"你已经完成了整个实验（三个区组）。

请报告实验者已完成实验

非常感谢，再见！",50,0,-1.5,left,RRLRR.png,,,,,0,1,1,1,0,14,14,6,,,,,,,,,,,,,,,,,,,,,,,,,,,,,,,,,,,,,,,,,,,,,,,,,,,,,,,,,,,,,,,,,,,,,,416.2756289999961,416.6767011999982,416.65972429999965,416.75881449999724,417.1604187999983,None,left,1,417.1604187999983,None,416.65972429999965,416.75881449999724,416.75881449999724,None,417.8437718999994,None,0.657944899998256,,,,,,,11003,001,2023_Dec_29_1148,ANT,2021.2.3,59.53894233827601,
1,24,spatial,down,IC,R,,,,,,Block.xlsx,"你已经完成了整个实验（三个区组）。

请报告实验者已完成实验

非常感谢，再见！",-1.5,0,-1.5,right,LLRLL.png,,,,,0,1,1,1,0,15,15,23,,,,,,,,,,,,,,,,,,,,,,,,,,,,,,,,,,,,,,,,,,,,,,,,,,,,,,,,,,,,,,,,,,,,,,418.2450772999946,418.645311399996,418.62910539999575,418.72914630000014,419.13062449999416,None,right,1,419.13062449999416,None,418.62910539999575,418.72914630000014,418.72914630000014,None,419.7463009999992,None,0.5919007999982568,,,,,,,11003,001,2023_Dec_29_1148,ANT,2021.2.3,59.53894233827601,
1,15,center,down,IC,L,,,,,,Block.xlsx,"你已经完成了整个实验（三个区组）。

请报告实验者已完成实验

非常感谢，再见！",0,50,-1.5,left,RRLRR.png,,,,,0,1,1,1,0,16,16,14,,,,,,,,,,,,,,,,,,,,,,,,,,,,,,,,,,,,,,,,,,,,,,,,,,,,,,,,,,,,,,,,,,,,,,420.1470390999966,420.54839809999976,420.5310962999938,420.63243859999784,421.03244849999464,None,left,1,421.03244849999464,None,420.5310962999938,420.63243859999784,420.63243859999784,None,421.6995592999956,None,0.6417616000035196,,,,,,,11003,001,2023_Dec_29_1148,ANT,2021.2.3,59.53894233827601,
1,24,spatial,down,IC,R,,,,,,Block.xlsx,"你已经完成了整个实验（三个区组）。

请报告实验者已完成实验

非常感谢，再见！",-1.5,0,-1.5,right,LLRLL.png,,,,,0,1,1,1,0,17,17,23,,,,,,,,,,,,,,,,,,,,,,,,,,,,,,,,,,,,,,,,,,,,,,,,,,,,,,,,,,,,,,,,,,,,,,422.1000455999965,422.5013368999935,422.4854178999958,422.5840152999954,422.9868667999981,None,right,1,422.9868667999981,None,422.4854178999958,422.5840152999954,422.5840152999954,None,423.6021208999955,None,0.6000057999990531,,,,,,,11003,001,2023_Dec_29_1148,ANT,2021.2.3,59.53894233827601,
1,3,no,up,IC,L,,,,,,Block.xlsx,"你已经完成了整个实验（三个区组）。

请报告实验者已完成实验

非常感谢，再见！",50,0,1.5,left,RRLRR.png,,,,,0,1,1,1,0,18,18,2,,,,,,,,,,,,,,,,,,,,,,,,,,,,,,,,,,,,,,,,,,,,,,,,,,,,,,,,,,,,,,,,,,,,,,424.0031272999986,424.40417659999366,424.3876236999931,424.48810299999604,424.8896973999945,None,left,1,424.8896973999945,None,424.3876236999931,424.48810299999604,424.48810299999604,None,425.50522259999707,None,0.5846000000019558,,,,,,,11003,001,2023_Dec_29_1148,ANT,2021.2.3,59.53894233827601,
1,17,spatial,up,C,L,,,,,,Block.xlsx,"你已经完成了整个实验（三个区组）。

请报告实验者已完成实验

非常感谢，再见！",1.5,0,1.5,left,LLLLL.png,,,,,0,1,1,1,0,19,19,16,,,,,,,,,,,,,,,,,,,,,,,,,,,,,,,,,,,,,,,,,,,,,,,,,,,,,,,,,,,,,,,,,,,,,,425.90569879999384,426.3063295999964,426.2905108999985,426.39061149999907,426.79258339999797,None,left,1,426.79258339999797,None,426.2905108999985,426.39061149999907,426.39061149999907,None,427.3578220999989,None,0.546219600000768,,,,,,,11003,001,2023_Dec_29_1148,ANT,2021.2.3,59.53894233827601,
1,24,spatial,down,IC,R,,,,,,Block.xlsx,"你已经完成了整个实验（三个区组）。

请报告实验者已完成实验

非常感谢，再见！",-1.5,0,-1.5,right,LLRLL.png,,,,,0,1,1,1,0,20,20,23,,,,,,,,,,,,,,,,,,,,,,,,,,,,,,,,,,,,,,,,,,,,,,,,,,,,,,,,,,,,,,,,,,,,,,427.75947919999453,428.1595746999956,428.14312579999387,428.2429498999991,428.6435064999969,None,right,1,428.6435064999969,None,428.14312579999387,428.2429498999991,428.2429498999991,None,429.2771395999953,None,0.6152375000019674,,,,,,,11003,001,2023_Dec_29_1148,ANT,2021.2.3,59.53894233827601,
1,2,no,up,C,R,,,,,,Block.xlsx,"你已经完成了整个实验（三个区组）。

请报告实验者已完成实验

非常感谢，再见！",50,0,1.5,right,RRRRR.png,,,,,0,1,1,1,0,21,21,1,,,,,,,,,,,,,,,,,,,,,,,,,,,,,,,,,,,,,,,,,,,,,,,,,,,,,,,,,,,,,,,,,,,,,,429.6785261999976,430.0794131999937,430.0619712999978,430.1629490999985,430.5625519999958,None,right,1,430.5625519999958,None,430.0619712999978,430.1629490999985,430.1629490999985,None,431.24701999999525,None,0.6563048999960301,,,,,,,11003,001,2023_Dec_29_1148,ANT,2021.2.3,59.53894233827601,
1,21,spatial,down,C,L,,,,,,Block.xlsx,"你已经完成了整个实验（三个区组）。

请报告实验者已完成实验

非常感谢，再见！",-1.5,0,-1.5,left,LLLLL.png,,,,,0,1,1,1,0,22,22,20,,,,,,,,,,,,,,,,,,,,,,,,,,,,,,,,,,,,,,,,,,,,,,,,,,,,,,,,,,,,,,,,,,,,,,431.6475103999983,432.04895069999475,432.03227279999555,432.13221159999375,432.53358099999605,None,left,1,432.53358099999605,None,432.03227279999555,432.13221159999375,432.13221159999375,None,433.0161478999944,None,0.4610759999995935,,,,,,,11003,001,2023_Dec_29_1148,ANT,2021.2.3,59.53894233827601,
1,7,no,down,IC,L,,,,,,Block.xlsx,"你已经完成了整个实验（三个区组）。

请报告实验者已完成实验

非常感谢，再见！",50,0,-1.5,left,RRLRR.png,,,,,0,1,1,1,0,23,23,6,,,,,,,,,,,,,,,,,,,,,,,,,,,,,,,,,,,,,,,,,,,,,,,,,,,,,,,,,,,,,,,,,,,,,,433.4168662999946,433.81796799999574,433.8026611999958,433.9175868999955,434.3020999999935,None,left,1,434.3020999999935,None,433.8026611999958,433.9175868999955,433.9023629999938,None,435.0360315999933,None,0.7168813999960548,,,,,,,11003,001,2023_Dec_29_1148,ANT,2021.2.3,59.53894233827601,
1,12,center,up,IC,R,,,,,,Block.xlsx,"你已经完成了整个实验（三个区组）。

请报告实验者已完成实验

非常感谢，再见！",0,50,1.5,right,LLRLL.png,,,,,0,1,1,1,1,0,24,11,,,,,,,,,,,,,,,,,,,,,,,,,,,,,,,,,,,,,,,,,,,,,,,,,,,,,,,,,,,,,,,,,,,,,,435.43647889999556,435.8386799999935,435.82085019999795,435.9223198999971,436.3210758999994,None,right,1,436.3210758999994,None,435.82085019999795,435.9223198999971,435.9223198999971,None,437.0222513999979,None,0.6734360999980709,,,,,,,11003,001,2023_Dec_29_1148,ANT,2021.2.3,59.53894233827601,
1,10,center,up,C,R,,,,,,Block.xlsx,"你已经完成了整个实验（三个区组）。

请报告实验者已完成实验

非常感谢，再见！",0,50,1.5,right,RRRRR.png,,,,,0,1,1,1,1,1,25,9,,,,,,,,,,,,,,,,,,,,,,,,,,,,,,,,,,,,,,,,,,,,,,,,,,,,,,,,,,,,,,,,,,,,,,437.4227485999945,437.8238129999954,437.80737089999457,437.90681859999313,438.3079052999965,None,right,1,438.3079052999965,None,437.80737089999457,437.90681859999313,437.90681859999313,None,439.1420230999938,None,0.8070297000012943,,,,,,,11003,001,2023_Dec_29_1148,ANT,2021.2.3,59.53894233827601,
1,12,center,up,IC,R,,,,,,Block.xlsx,"你已经完成了整个实验（三个区组）。

请报告实验者已完成实验

非常感谢，再见！",0,50,1.5,right,LLRLL.png,,,,,0,1,1,1,1,2,26,11,,,,,,,,,,,,,,,,,,,,,,,,,,,,,,,,,,,,,,,,,,,,,,,,,,,,,,,,,,,,,,,,,,,,,,439.5424370999972,439.94312139999965,439.9275123999978,440.02704199999425,440.4284528999997,None,right,1,440.4284528999997,None,439.9275123999978,440.02704199999425,440.02704199999425,None,441.1449173000001,None,0.7017645999949309,,,,,,,11003,001,2023_Dec_29_1148,ANT,2021.2.3,59.53894233827601,
1,10,center,up,C,R,,,,,,Block.xlsx,"你已经完成了整个实验（三个区组）。

请报告实验者已完成实验

非常感谢，再见！",0,50,1.5,right,RRRRR.png,,,,,0,1,1,1,1,3,27,9,,,,,,,,,,,,,,,,,,,,,,,,,,,,,,,,,,,,,,,,,,,,,,,,,,,,,,,,,,,,,,,,,,,,,,441.5460760999995,441.94761099999596,441.92938879999565,442.0312441999995,442.430624099994,None,right,1,442.430624099994,None,441.92938879999565,442.0312441999995,442.0312441999995,None,442.99845309999364,None,0.5481655999974464,,,,,,,11003,001,2023_Dec_29_1148,ANT,2021.2.3,59.53894233827601,
1,6,no,down,C,R,,,,,,Block.xlsx,"你已经完成了整个实验（三个区组）。

请报告实验者已完成实验

非常感谢，再见！",50,0,-1.5,right,RRRRR.png,,,,,0,1,1,1,1,4,28,5,,,,,,,,,,,,,,,,,,,,,,,,,,,,,,,,,,,,,,,,,,,,,,,,,,,,,,,,,,,,,,,,,,,,,,443.3981940999947,443.8003461999979,443.78271129999484,443.88240779999614,444.2831604999956,None,right,1,444.2831604999956,None,443.78271129999484,443.88240779999614,443.88240779999614,None,444.9672412999935,None,0.6630972999992082,,,,,,,11003,001,2023_Dec_29_1148,ANT,2021.2.3,59.53894233827601,
1,12,center,up,IC,R,,,,,,Block.xlsx,"你已经完成了整个实验（三个区组）。

请报告实验者已完成实验

非常感谢，再见！",0,50,1.5,right,LLRLL.png,,,,,0,1,1,1,1,5,29,11,,,,,,,,,,,,,,,,,,,,,,,,,,,,,,,,,,,,,,,,,,,,,,,,,,,,,,,,,,,,,,,,,,,,,,445.3679148999945,445.7694476999968,445.7517793999941,445.85223309999856,446.2530736999979,None,right,1,446.2530736999979,None,445.7517793999941,445.85223309999856,445.85223309999856,None,447.03760209999746,None,0.7580621999950381,,,,,,,11003,001,2023_Dec_29_1148,ANT,2021.2.3,59.53894233827601,
1,13,center,down,C,L,,,,,,Block.xlsx,"你已经完成了整个实验（三个区组）。

请报告实验者已完成实验

非常感谢，再见！",0,50,-1.5,left,LLLLL.png,,,,,0,1,1,1,1,6,30,12,,,,,,,,,,,,,,,,,,,,,,,,,,,,,,,,,,,,,,,,,,,,,,,,,,,,,,,,,,,,,,,,,,,,,,447.4375340999977,447.8396455999973,447.8222558999987,447.9224030999976,448.3234647999998,None,left,1,448.3234647999998,None,447.8222558999987,447.9224030999976,447.9224030999976,None,448.84000549999473,None,0.4950214999989839,,,,,,,11003,001,2023_Dec_29_1148,ANT,2021.2.3,59.53894233827601,
1,11,center,up,IC,L,,,,,,Block.xlsx,"你已经完成了整个实验（三个区组）。

请报告实验者已完成实验

非常感谢，再见！",0,50,1.5,left,RRLRR.png,,,,,0,1,1,1,1,7,31,10,,,,,,,,,,,,,,,,,,,,,,,,,,,,,,,,,,,,,,,,,,,,,,,,,,,,,,,,,,,,,,,,,,,,,,449.24060139999347,449.64159639999707,449.62489029999415,449.72469949999504,450.12551139999414,None,left,1,450.12551139999414,None,449.62489029999415,449.72469949999504,449.72469949999504,None,450.7758396999998,None,0.6293235999983153,,,,,,,11003,001,2023_Dec_29_1148,ANT,2021.2.3,59.53894233827601,
1,20,spatial,up,IC,R,,,,,,Block.xlsx,"你已经完成了整个实验（三个区组）。

请报告实验者已完成实验

非常感谢，再见！",1.5,0,1.5,right,LLRLL.png,,,,,0,1,1,1,1,8,32,19,,,,,,,,,,,,,,,,,,,,,,,,,,,,,,,,,,,,,,,,,,,,,,,,,,,,,,,,,,,,,,,,,,,,,,451.1771773999935,451.5778857999976,451.56188159999874,451.66153369999665,452.06231789999583,None,right,1,452.06231789999583,None,451.56188159999874,451.66153369999665,451.66153369999665,None,452.72983309999836,None,0.6361389000012423,,,,,,,11003,001,2023_Dec_29_1148,ANT,2021.2.3,59.53894233827601,
1,11,center,up,IC,L,,,,,,Block.xlsx,"你已经完成了整个实验（三个区组）。

请报告实验者已完成实验

非常感谢，再见！",0,50,1.5,left,RRLRR.png,,,,,0,1,1,1,1,9,33,10,,,,,,,,,,,,,,,,,,,,,,,,,,,,,,,,,,,,,,,,,,,,,,,,,,,,,,,,,,,,,,,,,,,,,,453.12931379999645,453.5317181999999,453.51326329999574,453.61423689999356,454.01505409999663,None,left,1,454.01505409999663,None,453.51326329999574,453.61423689999356,453.61423689999356,None,454.63149009999324,None,0.5876759000020684,,,,,,,11003,001,2023_Dec_29_1148,ANT,2021.2.3,59.53894233827601,
1,2,no,up,C,R,,,,,,Block.xlsx,"你已经完成了整个实验（三个区组）。

请报告实验者已完成实验

非常感谢，再见！",50,0,1.5,right,RRRRR.png,,,,,0,1,1,1,1,10,34,1,,,,,,,,,,,,,,,,,,,,,,,,,,,,,,,,,,,,,,,,,,,,,,,,,,,,,,,,,,,,,,,,,,,,,,455.032152199994,455.4336192999981,455.4174406999955,455.53284419999545,455.91709089999495,None,right,1,455.91709089999495,None,455.4174406999955,455.53284419999545,455.5175542999932,None,456.45077799999854,None,0.5172448999946937,,,,,,,11003,001,2023_Dec_29_1148,ANT,2021.2.3,59.53894233827601,
1,19,spatial,up,IC,L,,,,,,Block.xlsx,"你已经完成了整个实验（三个区组）。

请报告实验者已完成实验

非常感谢，再见！",1.5,0,1.5,left,RRLRR.png,,,,,0,1,1,1,1,11,35,18,,,,,,,,,,,,,,,,,,,,,,,,,,,,,,,,,,,,,,,,,,,,,,,,,,,,,,,,,,,,,,,,,,,,,,456.851431199997,457.25417749999906,457.2361504999935,457.33698000000004,457.73703119999846,None,left,1,457.73703119999846,None,457.2361504999935,457.33698000000004,457.33698000000004,None,458.23681609999767,None,0.48141810000379337,,,,,,,11003,001,2023_Dec_29_1148,ANT,2021.2.3,59.53894233827601,
1,10,center,up,C,R,,,,,,Block.xlsx,"你已经完成了整个实验（三个区组）。

请报告实验者已完成实验

非常感谢，再见！",0,50,1.5,right,RRRRR.png,,,,,0,1,1,1,1,12,36,9,,,,,,,,,,,,,,,,,,,,,,,,,,,,,,,,,,,,,,,,,,,,,,,,,,,,,,,,,,,,,,,,,,,,,,458.63801769999554,459.0393633999993,459.02230909999344,459.12232409999706,459.52200269999594,None,right,1,459.52200269999594,None,459.02230909999344,459.12232409999706,459.12232409999706,None,460.04032789999474,None,0.489034599995648,,,,,,,11003,001,2023_Dec_29_1148,ANT,2021.2.3,59.53894233827601,
1,6,no,down,C,R,,,,,,Block.xlsx,"你已经完成了整个实验（三个区组）。

请报告实验者已完成实验

非常感谢，再见！",50,0,-1.5,right,RRRRR.png,,,,,0,1,1,1,1,13,37,5,,,,,,,,,,,,,,,,,,,,,,,,,,,,,,,,,,,,,,,,,,,,,,,,,,,,,,,,,,,,,,,,,,,,,,460.4405034999945,460.8415970999995,460.823884999998,460.9259052999987,461.3253812999974,None,right,1,461.3253812999974,None,460.823884999998,460.9259052999987,460.9259052999987,None,461.9090387999968,None,0.5574215000015101,,,,,,,11003,001,2023_Dec_29_1148,ANT,2021.2.3,59.53894233827601,
1,12,center,up,IC,R,,,,,,Block.xlsx,"你已经完成了整个实验（三个区组）。

请报告实验者已完成实验

非常感谢，再见！",0,50,1.5,right,LLRLL.png,,,,,0,1,1,1,1,14,38,11,,,,,,,,,,,,,,,,,,,,,,,,,,,,,,,,,,,,,,,,,,,,,,,,,,,,,,,,,,,,,,,,,,,,,,462.3094639999981,462.7125590999931,462.69458639999357,462.79473669999425,463.1949355999968,None,right,1,463.1949355999968,None,462.69458639999357,462.79473669999425,462.79473669999425,None,463.96191479999834,None,0.7432737000053748,,,,,,,11003,001,2023_Dec_29_1148,ANT,2021.2.3,59.53894233827601,
1,11,center,up,IC,L,,,,,,Block.xlsx,"你已经完成了整个实验（三个区组）。

请报告实验者已完成实验

非常感谢，再见！",0,50,1.5,left,RRLRR.png,,,,,0,1,1,1,1,15,39,10,,,,,,,,,,,,,,,,,,,,,,,,,,,,,,,,,,,,,,,,,,,,,,,,,,,,,,,,,,,,,,,,,,,,,,464.36269419999735,464.7638424999968,464.7471385999961,464.846727499993,465.2476159999933,None,left,1,465.2476159999933,None,464.7471385999961,464.846727499993,464.846727499993,None,466.115289399997,None,0.8428678999989643,,,,,,,11003,001,2023_Dec_29_1148,ANT,2021.2.3,59.53894233827601,
1,4,no,up,IC,R,,,,,,Block.xlsx,"你已经完成了整个实验（三个区组）。

请报告实验者已完成实验

非常感谢，再见！",50,0,1.5,right,LLRLL.png,,,,,0,1,1,1,1,16,40,3,,,,,,,,,,,,,,,,,,,,,,,,,,,,,,,,,,,,,,,,,,,,,,,,,,,,,,,,,,,,,,,,,,,,,,466.51670329999615,466.9164791999938,466.90102130000014,467.00174849999894,467.40195459999813,None,right,1,467.40195459999813,None,466.90102130000014,467.00174849999894,467.00174849999894,None,468.01795149999816,None,0.5925162000057753,,,,,,,11003,001,2023_Dec_29_1148,ANT,2021.2.3,59.53894233827601,
1,9,center,up,C,L,,,,,,Block.xlsx,"你已经完成了整个实验（三个区组）。

请报告实验者已完成实验

非常感谢，再见！",0,50,1.5,left,LLLLL.png,,,,,0,1,1,1,1,17,41,8,,,,,,,,,,,,,,,,,,,,,,,,,,,,,,,,,,,,,,,,,,,,,,,,,,,,,,,,,,,,,,,,,,,,,,468.4187387999991,468.8198728999996,468.8044501999975,468.9033877999973,469.3035662999973,None,left,1,469.3035662999973,None,468.8044501999975,468.9033877999973,468.9033877999973,None,469.7539933999942,None,0.43546999999671243,,,,,,,11003,001,2023_Dec_29_1148,ANT,2021.2.3,59.53894233827601,
1,8,no,down,IC,R,,,,,,Block.xlsx,"你已经完成了整个实验（三个区组）。

请报告实验者已完成实验

非常感谢，再见！",50,0,-1.5,right,LLRLL.png,,,,,0,1,1,1,1,18,42,7,,,,,,,,,,,,,,,,,,,,,,,,,,,,,,,,,,,,,,,,,,,,,,,,,,,,,,,,,,,,,,,,,,,,,,470.15471139999863,470.5555026000002,470.5389004999961,470.6393051999985,471.03997399999935,None,right,1,471.03997399999935,None,470.5389004999961,470.6393051999985,470.6393051999985,None,472.00768719999905,None,0.9467199000064284,,,,,,,11003,001,2023_Dec_29_1148,ANT,2021.2.3,59.53894233827601,
1,16,center,down,IC,R,,,,,,Block.xlsx,"你已经完成了整个实验（三个区组）。

请报告实验者已完成实验

非常感谢，再见！",0,50,-1.5,right,LLRLL.png,,,,,0,1,1,1,1,19,43,15,,,,,,,,,,,,,,,,,,,,,,,,,,,,,,,,,,,,,,,,,,,,,,,,,,,,,,,,,,,,,,,,,,,,,,472.4082879999987,472.8103031999999,472.7928538999986,472.8927037999965,473.2940218999938,None,right,1,473.2940218999938,None,472.7928538999986,472.8927037999965,472.8927037999965,None,473.9938431999981,None,0.676310700000613,,,,,,,11003,001,2023_Dec_29_1148,ANT,2021.2.3,59.53894233827601,
1,1,no,up,C,L,,,,,,Block.xlsx,"你已经完成了整个实验（三个区组）。

请报告实验者已完成实验

非常感谢，再见！",50,0,1.5,left,LLLLL.png,,,,,0,1,1,1,1,20,44,0,,,,,,,,,,,,,,,,,,,,,,,,,,,,,,,,,,,,,,,,,,,,,,,,,,,,,,,,,,,,,,,,,,,,,,474.39421969999967,474.79566969999723,474.7780480999936,474.8788196999958,475.2796167999986,None,left,1,475.2796167999986,None,474.7780480999936,474.8788196999958,474.8788196999958,None,475.9296617999935,None,0.6269305000023451,,,,,,,11003,001,2023_Dec_29_1148,ANT,2021.2.3,59.53894233827601,
1,8,no,down,IC,R,,,,,,Block.xlsx,"你已经完成了整个实验（三个区组）。

请报告实验者已完成实验

非常感谢，再见！",50,0,-1.5,right,LLRLL.png,,,,,0,1,1,1,1,21,45,7,,,,,,,,,,,,,,,,,,,,,,,,,,,,,,,,,,,,,,,,,,,,,,,,,,,,,,,,,,,,,,,,,,,,,,476.33106759999646,476.73199380000005,476.7143025999976,476.8146994999988,477.21494489999895,None,right,1,477.21494489999895,None,476.7143025999976,476.8146994999988,476.8146994999988,None,477.9660345999946,None,0.73166659999697,,,,,,,11003,001,2023_Dec_29_1148,ANT,2021.2.3,59.53894233827601,
1,21,spatial,down,C,L,,,,,,Block.xlsx,"你已经完成了整个实验（三个区组）。

请报告实验者已完成实验

非常感谢，再见！",-1.5,0,-1.5,left,LLLLL.png,,,,,0,1,1,1,1,22,46,20,,,,,,,,,,,,,,,,,,,,,,,,,,,,,,,,,,,,,,,,,,,,,,,,,,,,,,,,,,,,,,,,,,,,,,478.367493699996,478.7683771999946,478.75146679999307,478.8521927999973,479.2514744999935,None,left,1,479.2514744999935,None,478.75146679999307,478.8521927999973,478.8521927999973,None,479.73545389999344,None,0.4550833000030252,,,,,,,11003,001,2023_Dec_29_1148,ANT,2021.2.3,59.53894233827601,
1,13,center,down,C,L,,,,,,Block.xlsx,"你已经完成了整个实验（三个区组）。

请报告实验者已完成实验

非常感谢，再见！",0,50,-1.5,left,LLLLL.png,,,,,0,1,1,1,1,23,47,12,,,,,,,,,,,,,,,,,,,,,,,,,,,,,,,,,,,,,,,,,,,,,,,,,,,,,,,,,,,,,,,,,,,,,,480.1360921999949,480.5390428999963,480.5206346999985,480.62081449999823,481.021791799998,None,left,1,481.021791799998,None,480.5206346999985,480.62081449999823,480.62081449999823,None,481.5556983999995,None,0.5169326000032015,,,,,,,11003,001,2023_Dec_29_1148,ANT,2021.2.3,59.53894233827601,
1,11,center,up,IC,L,,,,,,Block.xlsx,"你已经完成了整个实验（三个区组）。

请报告实验者已完成实验

非常感谢，再见！",0,50,1.5,left,RRLRR.png,,,,,0,1,1,1,2,0,48,10,,,,,,,,,,,,,,,,,,,,,,,,,,,,,,,,,,,,,,,,,,,,,,,,,,,,,,,,,,,,,,,,,,,,,,481.95540329999494,482.35787689999415,482.3399100999959,482.4400217999937,482.83972549999453,None,left,1,482.83972549999453,None,482.3399100999959,482.4400217999937,482.4400217999937,None,483.50763029999507,None,0.6514071999990847,,,,,,,11003,001,2023_Dec_29_1148,ANT,2021.2.3,59.53894233827601,
1,5,no,down,C,L,,,,,,Block.xlsx,"你已经完成了整个实验（三个区组）。

请报告实验者已完成实验

非常感谢，再见！",50,0,-1.5,left,LLLLL.png,,,,,0,1,1,1,2,1,49,4,,,,,,,,,,,,,,,,,,,,,,,,,,,,,,,,,,,,,,,,,,,,,,,,,,,,,,,,,,,,,,,,,,,,,,483.90928809999605,484.3088404999944,484.29335299999366,484.3939476999949,484.79480469999544,None,left,1,484.79480469999544,None,484.29335299999366,484.3939476999949,484.3939476999949,None,485.51089559999673,None,0.6878280999953859,,,,,,,11003,001,2023_Dec_29_1148,ANT,2021.2.3,59.53894233827601,
1,23,spatial,down,IC,L,,,,,,Block.xlsx,"你已经完成了整个实验（三个区组）。

请报告实验者已完成实验

非常感谢，再见！",-1.5,0,-1.5,left,RRLRR.png,,,,,0,1,1,1,2,2,50,22,,,,,,,,,,,,,,,,,,,,,,,,,,,,,,,,,,,,,,,,,,,,,,,,,,,,,,,,,,,,,,,,,,,,,,485.91121129999374,486.31317059999856,486.2958034999974,486.3960864999972,486.7961213999952,None,left,1,486.7961213999952,None,486.2958034999974,486.3960864999972,486.3960864999972,None,487.5135594999956,None,0.7023671999995713,,,,,,,11003,001,2023_Dec_29_1148,ANT,2021.2.3,59.53894233827601,
1,2,no,up,C,R,,,,,,Block.xlsx,"你已经完成了整个实验（三个区组）。

请报告实验者已完成实验

非常感谢，再见！",50,0,1.5,right,RRRRR.png,,,,,0,1,1,1,2,3,51,1,,,,,,,,,,,,,,,,,,,,,,,,,,,,,,,,,,,,,,,,,,,,,,,,,,,,,,,,,,,,,,,,,,,,,,487.9139500999954,488.3165988999972,488.2981770999977,488.3984724999973,488.7997203999985,None,right,1,488.7997203999985,None,488.2981770999977,488.3984724999973,488.3984724999973,None,489.4498270999975,None,0.6266335000036634,,,,,,,11003,001,2023_Dec_29_1148,ANT,2021.2.3,59.53894233827601,
1,14,center,down,C,R,,,,,,Block.xlsx,"你已经完成了整个实验（三个区组）。

请报告实验者已完成实验

非常感谢，再见！",0,50,-1.5,right,RRRRR.png,,,,,0,1,1,1,2,4,52,13,,,,,,,,,,,,,,,,,,,,,,,,,,,,,,,,,,,,,,,,,,,,,,,,,,,,,,,,,,,,,,,,,,,,,,489.85057329999836,490.2516556999981,490.2360109000001,490.3351746999979,490.7357914999957,None,right,1,490.7357914999957,None,490.2360109000001,490.3351746999979,490.3351746999979,None,491.28661589999683,None,0.5229462999996031,,,,,,,11003,001,2023_Dec_29_1148,ANT,2021.2.3,59.53894233827601,
1,23,spatial,down,IC,L,,,,,,Block.xlsx,"你已经完成了整个实验（三个区组）。

请报告实验者已完成实验

非常感谢，再见！",-1.5,0,-1.5,left,RRLRR.png,,,,,0,1,1,1,2,5,53,22,,,,,,,,,,,,,,,,,,,,,,,,,,,,,,,,,,,,,,,,,,,,,,,,,,,,,,,,,,,,,,,,,,,,,,491.6865525999965,492.0877271999998,492.0711209999936,492.1711037999994,492.57176759999857,None,left,1,492.57176759999857,None,492.0711209999936,492.1711037999994,492.1711037999994,None,493.1553333999982,None,0.5586956000042846,,,,,,,11003,001,2023_Dec_29_1148,ANT,2021.2.3,59.53894233827601,
1,7,no,down,IC,L,,,,,,Block.xlsx,"你已经完成了整个实验（三个区组）。

请报告实验者已完成实验

非常感谢，再见！",50,0,-1.5,left,RRLRR.png,,,,,0,1,1,1,2,6,54,6,,,,,,,,,,,,,,,,,,,,,,,,,,,,,,,,,,,,,,,,,,,,,,,,,,,,,,,,,,,,,,,,,,,,,,493.5561207999999,493.95789579999837,493.9397392999963,494.04153279999446,494.4404820999989,None,left,1,494.4404820999989,None,493.9397392999963,494.04153279999446,494.04153279999446,None,495.05819709999923,None,0.5937518999999156,,,,,,,11003,001,2023_Dec_29_1148,ANT,2021.2.3,59.53894233827601,
1,5,no,down,C,L,,,,,,Block.xlsx,"你已经完成了整个实验（三个区组）。

请报告实验者已完成实验

非常感谢，再见！",50,0,-1.5,left,LLLLL.png,,,,,0,1,1,1,2,7,55,4,,,,,,,,,,,,,,,,,,,,,,,,,,,,,,,,,,,,,,,,,,,,,,,,,,,,,,,,,,,,,,,,,,,,,,495.4595782999968,495.860683699997,495.8430644999971,495.9439308999936,496.3434053999954,None,left,1,496.3434053999954,None,495.8430644999971,495.9439308999936,495.9439308999936,None,496.8941863,None,0.5315350000018952,,,,,,,11003,001,2023_Dec_29_1148,ANT,2021.2.3,59.53894233827601,
1,10,center,up,C,R,,,,,,Block.xlsx,"你已经完成了整个实验（三个区组）。

请报告实验者已完成实验

非常感谢，再见！",0,50,1.5,right,RRRRR.png,,,,,0,1,1,1,2,8,56,9,,,,,,,,,,,,,,,,,,,,,,,,,,,,,,,,,,,,,,,,,,,,,,,,,,,,,,,,,,,,,,,,,,,,,,497.2956622999991,497.69592179999745,497.67928779999784,497.7791559999969,498.17974979999417,None,right,1,498.17974979999417,None,497.67928779999784,497.7791559999969,497.7791559999969,None,498.79681659999915,None,0.5989122000028146,,,,,,,11003,001,2023_Dec_29_1148,ANT,2021.2.3,59.53894233827601,
1,17,spatial,up,C,L,,,,,,Block.xlsx,"你已经完成了整个实验（三个区组）。

请报告实验者已完成实验

非常感谢，再见！",1.5,0,1.5,left,LLLLL.png,,,,,0,1,1,1,2,9,57,16,,,,,,,,,,,,,,,,,,,,,,,,,,,,,,,,,,,,,,,,,,,,,,,,,,,,,,,,,,,,,,,,,,,,,,499.1979307999936,499.5992021999991,499.58264029999555,499.683689999998,500.08449599999585,None,left,1,500.08449599999585,None,499.58264029999555,499.683689999998,499.683689999998,None,500.56692149999435,None,0.45427220000419766,,,,,,,11003,001,2023_Dec_29_1148,ANT,2021.2.3,59.53894233827601,
1,15,center,down,IC,L,,,,,,Block.xlsx,"你已经完成了整个实验（三个区组）。

请报告实验者已完成实验

非常感谢，再见！",0,50,-1.5,left,RRLRR.png,,,,,0,1,1,1,2,10,58,14,,,,,,,,,,,,,,,,,,,,,,,,,,,,,,,,,,,,,,,,,,,,,,,,,,,,,,,,,,,,,,,,,,,,,,500.9669542999982,501.3695368999979,501.3508105000001,501.45161469999584,501.8533613999971,None,left,1,501.8533613999971,None,501.3508105000001,501.45161469999584,501.45161469999584,None,502.5358436999959,None,0.6537609999941196,,,,,,,11003,001,2023_Dec_29_1148,ANT,2021.2.3,59.53894233827601,
1,16,center,down,IC,R,,,,,,Block.xlsx,"你已经完成了整个实验（三个区组）。

请报告实验者已完成实验

非常感谢，再见！",0,50,-1.5,right,LLRLL.png,,,,,0,1,1,1,2,11,59,15,,,,,,,,,,,,,,,,,,,,,,,,,,,,,,,,,,,,,,,,,,,,,,,,,,,,,,,,,,,,,,,,,,,,,,502.93650859999616,503.33757749999495,503.3221753999969,503.4215511999937,503.82296629999473,None,right,1,503.82296629999473,None,503.3221753999969,503.4215511999937,503.4215511999937,None,504.58886489999713,None,0.7393066999939037,,,,,,,11003,001,2023_Dec_29_1148,ANT,2021.2.3,59.53894233827601,
1,3,no,up,IC,L,,,,,,Block.xlsx,"你已经完成了整个实验（三个区组）。

请报告实验者已完成实验

非常感谢，再见！",50,0,1.5,left,RRLRR.png,,,,,0,1,1,1,2,12,60,2,,,,,,,,,,,,,,,,,,,,,,,,,,,,,,,,,,,,,,,,,,,,,,,,,,,,,,,,,,,,,,,,,,,,,,504.99006109999755,505.3915893999947,505.3741591999933,505.4748374999981,505.87420589999965,None,left,1,505.87420589999965,None,505.3741591999933,505.4748374999981,505.4748374999981,None,506.5086161999934,None,0.6167677999983425,,,,,,,11003,001,2023_Dec_29_1148,ANT,2021.2.3,59.53894233827601,
1,5,no,down,C,L,,,,,,Block.xlsx,"你已经完成了整个实验（三个区组）。

请报告实验者已完成实验

非常感谢，再见！",50,0,-1.5,left,LLLLL.png,,,,,0,1,1,1,2,13,61,4,,,,,,,,,,,,,,,,,,,,,,,,,,,,,,,,,,,,,,,,,,,,,,,,,,,,,,,,,,,,,,,,,,,,,,506.9090051999956,507.3117332999973,507.2933697999979,507.3938463999948,507.7943802999944,None,left,1,507.7943802999944,None,507.2933697999979,507.3938463999948,507.3938463999948,None,508.3443010999981,None,0.5280246999973315,,,,,,,11003,001,2023_Dec_29_1148,ANT,2021.2.3,59.53894233827601,
1,1,no,up,C,L,,,,,,Block.xlsx,"你已经完成了整个实验（三个区组）。

请报告实验者已完成实验

非常感谢，再见！",50,0,1.5,left,LLLLL.png,,,,,0,1,1,1,2,14,62,0,,,,,,,,,,,,,,,,,,,,,,,,,,,,,,,,,,,,,,,,,,,,,,,,,,,,,,,,,,,,,,,,,,,,,,508.7458209999968,509.1476465999949,509.12903129999904,509.2314245999951,509.6322163999939,None,left,1,509.6322163999939,None,509.12903129999904,509.2314245999951,509.2314245999951,None,510.1971917999981,None,0.5468895999947563,,,,,,,11003,001,2023_Dec_29_1148,ANT,2021.2.3,59.53894233827601,
1,8,no,down,IC,R,,,,,,Block.xlsx,"你已经完成了整个实验（三个区组）。

请报告实验者已完成实验

非常感谢，再见！",50,0,-1.5,right,LLRLL.png,,,,,0,1,1,1,2,15,63,7,,,,,,,,,,,,,,,,,,,,,,,,,,,,,,,,,,,,,,,,,,,,,,,,,,,,,,,,,,,,,,,,,,,,,,510.59862579999754,510.9992950999949,510.9817264999947,511.08360019999964,511.4836402000001,None,right,1,511.4836402000001,None,510.9817264999947,511.08360019999964,511.08360019999964,None,512.1000418999974,None,0.5994357000017771,,,,,,,11003,001,2023_Dec_29_1148,ANT,2021.2.3,59.53894233827601,
1,14,center,down,C,R,,,,,,Block.xlsx,"你已经完成了整个实验（三个区组）。

请报告实验者已完成实验

非常感谢，再见！",0,50,-1.5,right,RRRRR.png,,,,,0,1,1,1,2,16,64,13,,,,,,,,,,,,,,,,,,,,,,,,,,,,,,,,,,,,,,,,,,,,,,,,,,,,,,,,,,,,,,,,,,,,,,512.5015283999965,512.9020626999991,512.8855339000002,512.9858576999977,513.3877884999965,None,right,1,513.3877884999965,None,512.8855339000002,512.9858576999977,512.9858576999977,None,514.3032682999983,None,0.8946256000053836,,,,,,,11003,001,2023_Dec_29_1148,ANT,2021.2.3,59.53894233827601,
1,9,center,up,C,L,,,,,,Block.xlsx,"你已经完成了整个实验（三个区组）。

请报告实验者已完成实验

非常感谢，再见！",0,50,1.5,left,LLLLL.png,,,,,0,1,1,1,2,17,65,8,,,,,,,,,,,,,,,,,,,,,,,,,,,,,,,,,,,,,,,,,,,,,,,,,,,,,,,,,,,,,,,,,,,,,,514.7048577999958,515.1063881999944,515.0878553000002,515.1893151999975,515.5892494,None,left,1,515.5892494,None,515.0878553000002,515.1893151999975,515.1893151999975,None,517.0248137999952,None,1.4050838999974076,,,,,,,11003,001,2023_Dec_29_1148,ANT,2021.2.3,59.53894233827601,
1,16,center,down,IC,R,,,,,,Block.xlsx,"你已经完成了整个实验（三个区组）。

请报告实验者已完成实验

非常感谢，再见！",0,50,-1.5,right,LLRLL.png,,,,,0,1,1,1,2,18,66,15,,,,,,,,,,,,,,,,,,,,,,,,,,,,,,,,,,,,,,,,,,,,,,,,,,,,,,,,,,,,,,,,,,,,,,517.4252547999931,517.8258592999991,517.8091391999988,517.9097068999981,518.3095535999964,None,right,1,518.3095535999964,None,517.8091391999988,517.9097068999981,517.9097068999981,None,519.2773978999976,None,0.9492864999992889,,,,,,,11003,001,2023_Dec_29_1148,ANT,2021.2.3,59.53894233827601,
1,22,spatial,down,C,R,,,,,,Block.xlsx,"你已经完成了整个实验（三个区组）。

请报告实验者已完成实验

非常感谢，再见！",-1.5,0,-1.5,right,RRRRR.png,,,,,0,1,1,1,2,19,67,21,,,,,,,,,,,,,,,,,,,,,,,,,,,,,,,,,,,,,,,,,,,,,,,,,,,,,,,,,,,,,,,,,,,,,,519.6787009999971,520.0788859999957,520.0626897999973,520.1621110999986,520.5627415999988,None,right,1,520.5627415999988,None,520.0626897999973,520.1621110999986,520.1621110999986,None,521.514021899995,None,0.9363683999981731,,,,,,,11003,001,2023_Dec_29_1148,ANT,2021.2.3,59.53894233827601,
1,24,spatial,down,IC,R,,,,,,Block.xlsx,"你已经完成了整个实验（三个区组）。

请报告实验者已完成实验

非常感谢，再见！",-1.5,0,-1.5,right,LLRLL.png,,,,,0,1,1,1,2,20,68,23,,,,,,,,,,,,,,,,,,,,,,,,,,,,,,,,,,,,,,,,,,,,,,,,,,,,,,,,,,,,,,,,,,,,,,521.9144238999943,522.3169606999945,522.2994645999934,522.3990631999986,522.7998018999933,None,right,1,522.7998018999933,None,522.2994645999934,522.3990631999986,522.3990631999986,None,523.517031299998,None,0.690981699997792,,,,,,,11003,001,2023_Dec_29_1148,ANT,2021.2.3,59.53894233827601,
1,8,no,down,IC,R,,,,,,Block.xlsx,"你已经完成了整个实验（三个区组）。

请报告实验者已完成实验

非常感谢，再见！",50,0,-1.5,right,LLRLL.png,,,,,0,1,1,1,2,21,69,7,,,,,,,,,,,,,,,,,,,,,,,,,,,,,,,,,,,,,,,,,,,,,,,,,,,,,,,,,,,,,,,,,,,,,,523.9174250999931,524.318711699998,524.3014371999961,524.4025863999996,524.8033297000002,None,right,1,524.8033297000002,None,524.3014371999961,524.4025863999996,524.4025863999996,None,525.5041688999991,None,0.6714685000042664,,,,,,,11003,001,2023_Dec_29_1148,ANT,2021.2.3,59.53894233827601,
1,21,spatial,down,C,L,,,,,,Block.xlsx,"你已经完成了整个实验（三个区组）。

请报告实验者已完成实验

非常感谢，再见！",-1.5,0,-1.5,left,LLLLL.png,,,,,0,1,1,1,2,22,70,20,,,,,,,,,,,,,,,,,,,,,,,,,,,,,,,,,,,,,,,,,,,,,,,,,,,,,,,,,,,,,,,,,,,,,,525.9038023999965,526.3056383999938,526.2892799999972,526.4045975999979,526.7890670999986,None,left,1,526.7890670999986,None,526.2892799999972,526.4045975999979,526.3897523999985,None,527.3397001999983,None,0.5252885999943828,,,,,,,11003,001,2023_Dec_29_1148,ANT,2021.2.3,59.53894233827601,
1,21,spatial,down,C,L,,,,,,Block.xlsx,"你已经完成了整个实验（三个区组）。

请报告实验者已完成实验

非常感谢，再见！",-1.5,0,-1.5,left,LLLLL.png,,,,,0,1,1,1,2,23,71,20,,,,,,,,,,,,,,,,,,,,,,,,,,,,,,,,,,,,,,,,,,,,,,,,,,,,,,,,,,,,,,,,,,,,,,527.7401213999983,528.1404144999979,528.1245191999988,528.2241970999967,528.6251621999982,None,left,1,528.6251621999982,None,528.1245191999988,528.2241970999967,528.2241970999967,None,529.2087867999944,None,0.5531090000004042,,,,,,,11003,001,2023_Dec_29_1148,ANT,2021.2.3,59.53894233827601,
1,3,no,up,IC,L,,,,,,Block.xlsx,"你已经完成了整个实验（三个区组）。

请报告实验者已完成实验

非常感谢，再见！",50,0,1.5,left,RRLRR.png,,,,,0,1,1,1,3,0,72,2,,,,,,,,,,,,,,,,,,,,,,,,,,,,,,,,,,,,,,,,,,,,,,,,,,,,,,,,,,,,,,,,,,,,,,529.6099240999974,530.0109945999939,529.9940474999967,530.0943988999934,530.4961225999941,None,left,1,530.4961225999941,None,529.9940474999967,530.0943988999934,530.0943988999934,None,531.2449930000002,None,0.722721600002842,,,,,,,11003,001,2023_Dec_29_1148,ANT,2021.2.3,59.53894233827601,
1,18,spatial,up,C,R,,,,,,Block.xlsx,"你已经完成了整个实验（三个区组）。

请报告实验者已完成实验

非常感谢，再见！",1.5,0,1.5,right,RRRRR.png,,,,,0,1,1,1,3,1,73,17,,,,,,,,,,,,,,,,,,,,,,,,,,,,,,,,,,,,,,,,,,,,,,,,,,,,,,,,,,,,,,,,,,,,,,531.6464469999992,532.0481136999952,532.0295673999935,532.1317042999945,532.5305074999997,None,right,1,532.5305074999997,None,532.0295673999935,532.1317042999945,532.1317042999945,None,533.1979513999977,None,0.640038799996546,,,,,,,11003,001,2023_Dec_29_1148,ANT,2021.2.3,59.53894233827601,
1,5,no,down,C,L,,,,,,Block.xlsx,"你已经完成了整个实验（三个区组）。

请报告实验者已完成实验

非常感谢，再见！",50,0,-1.5,left,LLLLL.png,,,,,0,1,1,1,3,2,74,4,,,,,,,,,,,,,,,,,,,,,,,,,,,,,,,,,,,,,,,,,,,,,,,,,,,,,,,,,,,,,,,,,,,,,,533.5993093999932,533.9991779999982,533.9832027999946,534.0839289999931,534.4838974999948,None,left,1,534.4838974999948,None,533.9832027999946,534.0839289999931,534.0839289999931,None,535.0009871999937,None,0.5025280999980168,,,,,,,11003,001,2023_Dec_29_1148,ANT,2021.2.3,59.53894233827601,
1,7,no,down,IC,L,,,,,,Block.xlsx,"你已经完成了整个实验（三个区组）。

请报告实验者已完成实验

非常感谢，再见！",50,0,-1.5,left,RRLRR.png,,,,,0,1,1,1,3,3,75,6,,,,,,,,,,,,,,,,,,,,,,,,,,,,,,,,,,,,,,,,,,,,,,,,,,,,,,,,,,,,,,,,,,,,,,535.4012645999974,535.8033639999994,535.7853074999948,535.8860738999938,536.2871532999998,None,left,1,536.2871532999998,None,535.7853074999948,535.8860738999938,535.8860738999938,None,536.887306699995,None,0.5716641999970307,,,,,,,11003,001,2023_Dec_29_1148,ANT,2021.2.3,59.53894233827601,
1,18,spatial,up,C,R,,,,,,Block.xlsx,"你已经完成了整个实验（三个区组）。

请报告实验者已完成实验

非常感谢，再见！",1.5,0,1.5,right,RRRRR.png,,,,,0,1,1,1,3,4,76,17,,,,,,,,,,,,,,,,,,,,,,,,,,,,,,,,,,,,,,,,,,,,,,,,,,,,,,,,,,,,,,,,,,,,,,537.2873529999997,537.6886939999968,537.6725828999988,537.771945499997,538.1726495999974,None,right,1,538.1726495999974,None,537.6725828999988,537.771945499997,537.771945499997,None,538.6894476999951,None,0.49376520000078017,,,,,,,11003,001,2023_Dec_29_1148,ANT,2021.2.3,59.53894233827601,
1,20,spatial,up,IC,R,,,,,,Block.xlsx,"你已经完成了整个实验（三个区组）。

请报告实验者已完成实验

非常感谢，再见！",1.5,0,1.5,right,LLRLL.png,,,,,0,1,1,1,3,5,77,19,,,,,,,,,,,,,,,,,,,,,,,,,,,,,,,,,,,,,,,,,,,,,,,,,,,,,,,,,,,,,,,,,,,,,,539.0901386999976,539.4917169999972,539.4740194999977,539.5748854999983,539.9746887999936,None,right,1,539.9746887999936,None,539.4740194999977,539.5748854999983,539.5748854999983,None,540.7592595999959,None,0.7643581000011181,,,,,,,11003,001,2023_Dec_29_1148,ANT,2021.2.3,59.53894233827601,
1,23,spatial,down,IC,L,,,,,,Block.xlsx,"你已经完成了整个实验（三个区组）。

请报告实验者已完成实验

非常感谢，再见！",-1.5,0,-1.5,left,RRLRR.png,,,,,0,1,1,1,3,6,78,22,,,,,,,,,,,,,,,,,,,,,,,,,,,,,,,,,,,,,,,,,,,,,,,,,,,,,,,,,,,,,,,,,,,,,,541.1597853999992,541.5618560999937,541.5435823999942,541.644698199998,542.0450760999956,None,left,1,542.0450760999956,None,541.5435823999942,541.644698199998,541.644698199998,None,542.612045899994,None,0.550372999998217,,,,,,,11003,001,2023_Dec_29_1148,ANT,2021.2.3,59.53894233827601,
1,17,spatial,up,C,L,,,,,,Block.xlsx,"你已经完成了整个实验（三个区组）。

请报告实验者已完成实验

非常感谢，再见！",1.5,0,1.5,left,LLLLL.png,,,,,0,1,1,1,3,7,79,16,,,,,,,,,,,,,,,,,,,,,,,,,,,,,,,,,,,,,,,,,,,,,,,,,,,,,,,,,,,,,,,,,,,,,,543.0135546999954,543.4156662999958,543.3973563999971,543.4976769999994,543.8976354999977,None,left,1,543.8976354999977,None,543.3973563999971,543.4976769999994,543.4976769999994,None,544.4151634999944,None,0.4973783000023104,,,,,,,11003,001,2023_Dec_29_1148,ANT,2021.2.3,59.53894233827601,
1,1,no,up,C,L,,,,,,Block.xlsx,"你已经完成了整个实验（三个区组）。

请报告实验者已完成实验

非常感谢，再见！",50,0,1.5,left,LLLLL.png,,,,,0,1,1,1,3,8,80,0,,,,,,,,,,,,,,,,,,,,,,,,,,,,,,,,,,,,,,,,,,,,,,,,,,,,,,,,,,,,,,,,,,,,,,544.8151941999968,545.2166066999998,545.1990731999977,545.2998816999971,545.7001392999955,None,left,1,545.7001392999955,None,545.1990731999977,545.2998816999971,545.2998816999971,None,546.267594099998,None,0.5423033999977633,,,,,,,11003,001,2023_Dec_29_1148,ANT,2021.2.3,59.53894233827601,
1,20,spatial,up,IC,R,,,,,,Block.xlsx,"你已经完成了整个实验（三个区组）。

请报告实验者已完成实验

非常感谢，再见！",1.5,0,1.5,right,LLRLL.png,,,,,0,1,1,1,3,9,81,19,,,,,,,,,,,,,,,,,,,,,,,,,,,,,,,,,,,,,,,,,,,,,,,,,,,,,,,,,,,,,,,,,,,,,,546.667884699993,547.0697473999971,547.0531686999966,547.1524472999954,547.5527882999959,None,right,1,547.5527882999959,None,547.0531686999966,547.1524472999954,547.1524472999954,None,548.0535326999961,None,0.48161049999907846,,,,,,,11003,001,2023_Dec_29_1148,ANT,2021.2.3,59.53894233827601,
1,9,center,up,C,L,,,,,,Block.xlsx,"你已经完成了整个实验（三个区组）。

请报告实验者已完成实验

非常感谢，再见！",0,50,1.5,left,LLLLL.png,,,,,0,1,1,1,3,10,82,8,,,,,,,,,,,,,,,,,,,,,,,,,,,,,,,,,,,,,,,,,,,,,,,,,,,,,,,,,,,,,,,,,,,,,,548.4546274999957,548.8555658999976,548.8380980000002,548.9387093999976,549.3386207999938,None,left,1,549.3386207999938,None,548.8380980000002,548.9387093999976,548.9387093999976,None,549.7725367999956,None,0.4162655999971321,,,,,,,11003,001,2023_Dec_29_1148,ANT,2021.2.3,59.53894233827601,
1,19,spatial,up,IC,L,,,,,,Block.xlsx,"你已经完成了整个实验（三个区组）。

请报告实验者已完成实验

非常感谢，再见！",1.5,0,1.5,left,RRLRR.png,,,,,0,1,1,1,3,11,83,18,,,,,,,,,,,,,,,,,,,,,,,,,,,,,,,,,,,,,,,,,,,,,,,,,,,,,,,,,,,,,,,,,,,,,,550.173192299997,550.573845299994,550.5582587999961,550.6572937999954,551.0575732999932,None,None,0,551.0575732999932,None,550.5582587999961,550.6572937999954,550.6572937999954,None,552.7613469999997,None,,,,,,,,11003,001,2023_Dec_29_1148,ANT,2021.2.3,59.53894233827601,
1,17,spatial,up,C,L,,,,,,Block.xlsx,"你已经完成了整个实验（三个区组）。

请报告实验者已完成实验

非常感谢，再见！",1.5,0,1.5,left,LLLLL.png,,,,,0,1,1,1,3,12,84,16,,,,,,,,,,,,,,,,,,,,,,,,,,,,,,,,,,,,,,,,,,,,,,,,,,,,,,,,,,,,,,,,,,,,,,553.1613919999945,553.5627077999961,553.5449205999976,553.6447501999937,554.046016399996,None,left,1,554.046016399996,None,553.5449205999976,553.6447501999937,553.6447501999937,None,554.5964585999973,None,0.5244373000023188,,,,,,,11003,001,2023_Dec_29_1148,ANT,2021.2.3,59.53894233827601,
1,22,spatial,down,C,R,,,,,,Block.xlsx,"你已经完成了整个实验（三个区组）。

请报告实验者已完成实验

非常感谢，再见！",-1.5,0,-1.5,right,RRRRR.png,,,,,0,1,1,1,3,13,85,21,,,,,,,,,,,,,,,,,,,,,,,,,,,,,,,,,,,,,,,,,,,,,,,,,,,,,,,,,,,,,,,,,,,,,,554.9975540999949,555.3986559999976,555.3808797999955,555.4822118999946,555.8825598999974,None,right,1,555.8825598999974,None,555.3808797999955,555.4822118999946,555.4822118999946,None,556.4490380999996,None,0.5358692999943742,,,,,,,11003,001,2023_Dec_29_1148,ANT,2021.2.3,59.53894233827601,
1,23,spatial,down,IC,L,,,,,,Block.xlsx,"你已经完成了整个实验（三个区组）。

请报告实验者已完成实验

非常感谢，再见！",-1.5,0,-1.5,left,RRLRR.png,,,,,0,1,1,1,3,14,86,22,,,,,,,,,,,,,,,,,,,,,,,,,,,,,,,,,,,,,,,,,,,,,,,,,,,,,,,,,,,,,,,,,,,,,,556.8496522999994,557.250901499996,557.2345400999984,557.3342682999937,557.7350580999992,None,left,1,557.7350580999992,None,557.2345400999984,557.3342682999937,557.3342682999937,None,558.3355732999989,None,0.5798093999983394,,,,,,,11003,001,2023_Dec_29_1148,ANT,2021.2.3,59.53894233827601,
1,14,center,down,C,R,,,,,,Block.xlsx,"你已经完成了整个实验（三个区组）。

请报告实验者已完成实验

非常感谢，再见！",0,50,-1.5,right,RRRRR.png,,,,,0,1,1,1,3,15,87,13,,,,,,,,,,,,,,,,,,,,,,,,,,,,,,,,,,,,,,,,,,,,,,,,,,,,,,,,,,,,,,,,,,,,,,558.7358322,559.1385595999964,559.1204645999969,559.2204294999974,559.6210385999948,None,right,1,559.6210385999948,None,559.1204645999969,559.2204294999974,559.2204294999974,None,560.1545502999943,None,0.5096130000019912,,,,,,,11003,001,2023_Dec_29_1148,ANT,2021.2.3,59.53894233827601,
1,20,spatial,up,IC,R,,,,,,Block.xlsx,"你已经完成了整个实验（三个区组）。

请报告实验者已完成实验

非常感谢，再见！",1.5,0,1.5,right,LLRLL.png,,,,,0,1,1,1,3,16,88,19,,,,,,,,,,,,,,,,,,,,,,,,,,,,,,,,,,,,,,,,,,,,,,,,,,,,,,,,,,,,,,,,,,,,,,560.5552513000002,560.9564104999954,560.9409998999981,561.0559304999988,561.4407522999973,None,right,1,561.4407522999973,None,560.9409998999981,561.0559304999988,561.0409063999978,None,562.2911472999986,None,0.8339059999998426,,,,,,,11003,001,2023_Dec_29_1148,ANT,2021.2.3,59.53894233827601,
1,6,no,down,C,R,,,,,,Block.xlsx,"你已经完成了整个实验（三个区组）。

请报告实验者已完成实验

非常感谢，再见！",50,0,-1.5,right,RRRRR.png,,,,,0,1,1,1,3,17,89,5,,,,,,,,,,,,,,,,,,,,,,,,,,,,,,,,,,,,,,,,,,,,,,,,,,,,,,,,,,,,,,,,,,,,,,562.6916797999947,563.0930153999943,563.0755114999993,563.1764941999936,563.5779691999996,None,right,1,563.5779691999996,None,563.0755114999993,563.1764941999936,563.1764941999936,None,564.3115082999939,None,0.7128511000046274,,,,,,,11003,001,2023_Dec_29_1148,ANT,2021.2.3,59.53894233827601,
1,4,no,up,IC,R,,,,,,Block.xlsx,"你已经完成了整个实验（三个区组）。

请报告实验者已完成实验

