TrialType,TrialNumber,WarningType,TargetType,FlankerType,TargetDirection,W,f,Y,corr,imageFile,condition,endtext,Yw,Yf,Yt,Corr,imagefile,trials_3.thisRepN,trials_3.thisTrialN,trials_3.thisN,trials_3.thisIndex,trials_2.thisRepN,trials_2.thisTrialN,trials_2.thisN,trials_2.thisIndex,trials.thisRepN,trials.thisTrialN,trials.thisN,trials.thisIndex,instr.started,instr.stopped,key_resp.keys,key_resp.rt,key_resp.started,key_resp.stopped,image.started,image.stopped,key_resp_6.keys,key_resp_6.rt,key_resp_6.started,key_resp_6.stopped,EX_L.started,EX_L.stopped,AL.started,AL.stopped,key_resp_7.keys,key_resp_7.rt,key_resp_7.started,key_resp_7.stopped,EX_R.started,EX_R.stopped,RR.started,RR.stopped,key_resp_8.keys,key_resp_8.rt,key_resp_8.started,key_resp_8.stopped,image_2.started,image_2.stopped,key_resp_9.keys,key_resp_9.rt,key_resp_9.started,key_resp_9.stopped,image_3.started,image_3.stopped,key_resp_10.keys,key_resp_10.rt,key_resp_10.started,key_resp_10.stopped,fix.started,fix.stopped,war.started,war.stopped,tar.started,tar.stopped,key_resp_4.keys,key_resp_4.corr,key_resp_4.rt,key_resp_4.started,key_resp_4.stopped,fix2.started,fix2.stopped,fix_2.started,fix_2.stopped,Feedback.started,Feedback.stopped,text.started,text.stopped,key_resp_11.keys,key_resp_11.rt,key_resp_11.started,key_resp_11.stopped,key_resp_2.keys,key_resp_2.rt,key_resp_2.started,key_resp_2.stopped,text_5.started,text_5.stopped,fix2_1.started,fix2_1.stopped,Warn.started,Warn.stopped,Tar.started,Tar.stopped,key_resp_5.keys,key_resp_5.corr,key_resp_5.rt,key_resp_5.started,key_resp_5.stopped,Fix_2.started,Fix_2.stopped,fix2_2.started,fix2_2.stopped,text_4.started,text_4.stopped,key_resp_3.keys,key_resp_3.rt,key_resp_3.started,key_resp_3.stopped,text_3.started,text_3.stopped,participant,session,date,expName,psychopyVersion,frameRate,
,,,,,,,,,,,,,,,,,,,,,,,,,,,,,,21.60265709995292,None,space,7.621228499978315,21.60265709995292,None,,,,,,,,,,,,,,,,,,,,,,,,,,,,,,,,,,,,,,,,,,,,,,,,,,,,,,,,,,,,,,,,,,,,,,,,,,,,,,,,,,,,,,,11009,001,2024_Jan_01_1631,ANT,2021.2.3,60.00672076897275,
,,,,,,,,,,,,,,,,,,,,,,,,,,,,,,,,,,,,29.247619099973235,None,space,21.84027829999104,29.247619099973235,None,,,,,,,,,,,,,,,,,,,,,,,,,,,,,,,,,,,,,,,,,,,,,,,,,,,,,,,,,,,,,,,,,,,,,,,,,,,,,,,,,11009,001,2024_Jan_01_1631,ANT,2021.2.3,60.00672076897275,
,,,,,,,,,,,,,,,,,,,,,,,,,,,,,,,,,,,,,,,,,,51.11392769997474,None,51.11392769997474,None,left,1.0941452999832109,51.11392769997474,None,,,,,,,,,,,,,,,,,,,,,,,,,,,,,,,,,,,,,,,,,,,,,,,,,,,,,,,,,,,,,,,,,,,,,,,,,11009,001,2024_Jan_01_1631,ANT,2021.2.3,60.00672076897275,
,,,,,,,,,,,,,,,,,,,,,,,,,,,,,,,,,,,,,,,,,,,,,,,,,,52.231010299990885,None,52.231010299990885,None,right,0.7696138999890536,52.231010299990885,None,,,,,,,,,,,,,,,,,,,,,,,,,,,,,,,,,,,,,,,,,,,,,,,,,,,,,,,,,,,,,,,,,11009,001,2024_Jan_01_1631,ANT,2021.2.3,60.00672076897275,
,,,,,,,,,,,,,,,,,,,,,,,,,,,,,,,,,,,,,,,,,,,,,,,,,,,,,,,,,,53.01560519996565,None,space,63.0088949999772,53.01560519996565,None,,,,,,,,,,,,,,,,,,,,,,,,,,,,,,,,,,,,,,,,,,,,,,,,,,,,,,,,,,,11009,001,2024_Jan_01_1631,ANT,2021.2.3,60.00672076897275,
,,,,,,,,,,,,,,,,,,,,,,,,,,,,,,,,,,,,,,,,,,,,,,,,,,,,,,,,,,,,,,,,116.04224260000046,None,space,4.093747700040694,116.04224260000046,None,,,,,,,,,,,,,,,,,,,,,,,,,,,,,,,,,,,,,,,,,,,,,,,,,,,,,11009,001,2024_Jan_01_1631,ANT,2021.2.3,60.00672076897275,
0,7,center,down,C,R,0,50,-1.5,right,RRRRR.png,,,,,,,,0,0,0,6,,,,,,,,,,,,,,,,,,,,,,,,,,,,,,,,,,,,,,,,,,,,,,,,,120.2314629999455,120.6330292999628,120.6330292999628,120.7336683999747,121.11729119997472,None,left,0,0.1714393000002019,121.11729119997472,None,120.6330292999628,120.7336683999747,120.71644329995615,None,121.3167976999539,None,,,,,,,,,,,,,,,,,,,,,,,,,,,,,,,,,,,,11009,001,2024_Jan_01_1631,ANT,2021.2.3,60.00672076897275,
0,2,no,up,IC,R,50,0,1.5,right,LLRLL.png,,,,,,,,0,1,1,1,,,,,,,,,,,,,,,,,,,,,,,,,,,,,,,,,,,,,,,,,,,,,,,,,123.3198379999958,123.7203651999589,123.70413969998481,123.80465549998917,124.20690259995172,None,right,1,0.6662242000456899,124.20690259995172,None,123.70413969998481,123.80465549998917,123.80465549998917,None,124.90553609997733,None,,,,,,,,,,,,,,,,,,,,,,,,,,,,,,,,,,,,11009,001,2024_Jan_01_1631,ANT,2021.2.3,60.00672076897275,
0,3,no,down,C,R,50,0,-1.5,right,RRRRR.png,,,,,,,,0,2,2,2,,,,,,,,,,,,,,,,,,,,,,,,,,,,,,,,,,,,,,,,,,,,,,,,,126.90843899996253,127.30959259998053,127.29415299999528,127.40940389997559,127.7936496999464,None,right,1,0.5268345999647863,127.7936496999464,None,127.29415299999528,127.40940389997559,127.39388469996629,None,128.3436705999775,None,,,,,,,,,,,,,,,,,,,,,,,,,,,,,,,,,,,,11009,001,2024_Jan_01_1631,ANT,2021.2.3,60.00672076897275,
0,4,no,down,IC,L,50,0,-1.5,left,RRLRR.png,,,,,,,,0,3,3,3,,,,,,,,,,,,,,,,,,,,,,,,,,,,,,,,,,,,,,,,,,,,,,,,,130.34674829995492,130.74753789999522,130.73104549996788,130.83192269998835,131.23286809999263,None,left,1,0.5995845000143163,131.23286809999263,None,130.73104549996788,130.83192269998835,130.83192269998835,None,131.84912509995047,None,,,,,,,,,,,,,,,,,,,,,,,,,,,,,,,,,,,,11009,001,2024_Jan_01_1631,ANT,2021.2.3,60.00672076897275,
0,10,spatial,up,IC,L,1.5,0,1.5,left,RRLRR.png,,,,,,,,0,4,4,9,,,,,,,,,,,,,,,,,,,,,,,,,,,,,,,,,,,,,,,,,,,,,,,,,133.85207719996106,134.25373789999867,134.23593649995746,134.3374160999665,134.73702289996436,None,left,1,0.7115421000053175,134.73702289996436,None,134.23593649995746,134.3374160999665,134.3374160999665,None,135.47078029997647,None,,,,,,,,,,,,,,,,,,,,,,,,,,,,,,,,,,,,11009,001,2024_Jan_01_1631,ANT,2021.2.3,60.00672076897275,
0,8,center,down,IC,L,0,50,-1.5,left,RRLRR.png,,,,,,,,0,5,5,7,,,,,,,,,,,,,,,,,,,,,,,,,,,,,,,,,,,,,,,,,,,,,,,,,137.4740424999618,137.8761991999927,137.85784319997765,137.95873539999593,138.35993069998221,None,right,0,0.4564415999921039,138.35993069998221,None,137.85784319997765,137.95873539999593,137.95873539999593,None,138.8426961999503,None,,,,,,,,,,,,,,,,,,,,,,,,,,,,,,,,,,,,11009,001,2024_Jan_01_1631,ANT,2021.2.3,60.00672076897275,
0,1,no,up,C,L,50,0,1.5,left,LLLLL.png,,,,,,,,0,6,6,0,,,,,,,,,,,,,,,,,,,,,,,,,,,,,,,,,,,,,,,,,,,,,,,,,140.84675669996068,141.24635959998704,141.23040729999775,141.33062199997948,141.73048159998143,None,left,1,0.4862686999840662,141.73048159998143,None,141.23040729999775,141.33062199997948,141.33062199997948,None,142.23077209998155,None,,,,,,,,,,,,,,,,,,,,,,,,,,,,,,,,,,,,11009,001,2024_Jan_01_1631,ANT,2021.2.3,60.00672076897275,
0,9,spatial,up,C,R,1.5,0,1.5,right,RRRRR.png,,,,,,,,0,7,7,8,,,,,,,,,,,,,,,,,,,,,,,,,,,,,,,,,,,,,,,,,,,,,,,,,144.2342864999664,144.6364040999906,144.6186469999957,144.71820889995433,145.11948349996237,None,right,1,0.4728519000345841,145.11948349996237,None,144.6186469999957,144.71820889995433,144.71820889995433,None,145.61939859995618,None,,,,,,,,,,,,,,,,,,,,,,,,,,,,,,,,,,,,11009,001,2024_Jan_01_1631,ANT,2021.2.3,60.00672076897275,
0,5,center,up,C,L,0,50,1.5,left,LLLLL.png,,,,,,,,0,8,8,4,,,,,,,,,,,,,,,,,,,,,,,,,,,,,,,,,,,,,,,,,,,,,,,,,147.62271709996276,148.02370469999732,148.00782299996354,148.10716580000008,148.5085681999917,None,left,1,0.4037485999870114,148.5085681999917,None,148.00782299996354,148.10716580000008,148.10716580000008,None,148.94126539997524,None,,,,,,,,,,,,,,,,,,,,,,,,,,,,,,,,,,,,11009,001,2024_Jan_01_1631,ANT,2021.2.3,60.00672076897275,
0,6,center,up,IC,R,0,50,1.5,right,LLRLL.png,,,,,,,,0,9,9,5,,,,,,,,,,,,,,,,,,,,,,,,,,,,,,,,,,,,,,,,,,,,,,,,,150.9443507999531,151.34512799995719,151.33010520000244,151.44477699999698,151.8294998999918,None,right,1,0.5066918999655172,151.8294998999918,None,151.33010520000244,151.44477699999698,151.4287531999871,None,152.3627779999515,None,,,,,,,,,,,,,,,,,,,,,,,,,,,,,,,,,,,,11009,001,2024_Jan_01_1631,ANT,2021.2.3,60.00672076897275,
0,11,spatial,down,C,L,-1.5,0,-1.5,left,LLLLL.png,,,,,,,,0,10,10,10,,,,,,,,,,,,,,,,,,,,,,,,,,,,,,,,,,,,,,,,,,,,,,,,,154.36601279996103,154.76649859995814,154.75080119998893,154.85041859996272,155.25185229995986,None,left,1,0.45282659999793395,155.25185229995986,None,154.75080119998893,154.85041859996272,154.85041859996272,None,155.73445009998977,None,,,,,,,,,,,,,,,,,,,,,,,,,,,,,,,,,,,,11009,001,2024_Jan_01_1631,ANT,2021.2.3,60.00672076897275,
0,12,spatial,down,IC,R,-1.5,0,-1.5,right,LLRLL.png,,,,,,,,0,11,11,11,,,,,,,,,,,,,,,,,,,,,,,,,,,,,,,,,,,,,,,,,,,,,,,,,157.73753939999733,158.14018859999487,158.12202379998052,158.22302039997885,158.62210799998138,None,right,1,0.5781454999814741,158.62210799998138,None,158.12202379998052,158.22302039997885,158.22302039997885,None,159.22285349998856,None,,,,,,,,,,,,,,,,,,,,,,,,,,,,,,,,,,,,11009,001,2024_Jan_01_1631,ANT,2021.2.3,60.00672076897275,
,,,,,,,,,,,,,,,,,,,,,,,,,,,,,,,,,,,,,,,,,,,,,,,,,,,,,,,,,,,,,,,,,,,,,,,,,,,,,,,,,,,,,,,161.2251725999522,None,space,7.15938389999792,161.2251725999522,None,,,,,,,,,,,,,,,,,,,,,,,,,,,,,,11009,001,2024_Jan_01_1631,ANT,2021.2.3,60.00672076897275,
,,,,,,,,,,,,,,,,,,,,,,,,,,,,,,,,,,,,,,,,,,,,,,,,,,,,,,,,,,,,,,,,,,,,,,,,,,,,,,,,,,,,,,,,,,,,,space,5.125179200025741,168.40320329996757,None,,,,,,,,,,,,,,,,,,,,,,,,,,11009,001,2024_Jan_01_1631,ANT,2021.2.3,60.00672076897275,
1,13,center,down,C,L,,,,,,Block.xlsx,"你已经完成了第一个实验区组

请稍作休息


点击空格键进入下一个区组。",0,50,-1.5,left,LLLLL.png,,,,,0,0,0,0,0,0,0,12,,,,,,,,,,,,,,,,,,,,,,,,,,,,,,,,,,,,,,,,,,,,,,,,,,,,,,,,,,,,,,,,,,,,168.40320329996757,None,173.57834759994876,173.97921629995108,173.96270499995444,174.06228969997028,174.46288729994558,None,left,1,0.4253588999854401,174.46288729994558,None,173.96270499995444,174.06228969997028,174.06228969997028,None,174.91269239998655,None,,,,,,,11009,001,2024_Jan_01_1631,ANT,2021.2.3,60.00672076897275,
1,18,spatial,up,C,R,,,,,,Block.xlsx,"你已经完成了第一个实验区组

请稍作休息


点击空格键进入下一个区组。",1.5,0,1.5,right,RRRRR.png,,,,,0,0,0,0,0,1,1,17,,,,,,,,,,,,,,,,,,,,,,,,,,,,,,,,,,,,,,,,,,,,,,,,,,,,,,,,,,,,,,,,,,,,,,175.3134635000024,175.71566239994718,175.69810089998646,175.79817289998755,176.1995713999495,None,right,1,0.39270699996268377,176.1995713999495,None,175.69810089998646,175.79817289998755,175.79817289998755,None,176.6152996000019,None,,,,,,,11009,001,2024_Jan_01_1631,ANT,2021.2.3,60.00672076897275,
1,11,center,up,IC,L,,,,,,Block.xlsx,"你已经完成了第一个实验区组

请稍作休息


点击空格键进入下一个区组。",0,50,1.5,left,RRLRR.png,,,,,0,0,0,0,0,2,2,10,,,,,,,,,,,,,,,,,,,,,,,,,,,,,,,,,,,,,,,,,,,,,,,,,,,,,,,,,,,,,,,,,,,,,,177.01636459998554,177.41843219997827,177.40094269998372,177.50105359998997,177.90145749994554,None,left,1,0.4348671000334434,177.90145749994554,None,177.40094269998372,177.50105359998997,177.50105359998997,None,178.35139539994998,None,,,,,,,11009,001,2024_Jan_01_1631,ANT,2021.2.3,60.00672076897275,
1,14,center,down,C,R,,,,,,Block.xlsx,"你已经完成了第一个实验区组

请稍作休息


点击空格键进入下一个区组。",0,50,-1.5,right,RRRRR.png,,,,,0,0,0,0,0,3,3,13,,,,,,,,,,,,,,,,,,,,,,,,,,,,,,,,,,,,,,,,,,,,,,,,,,,,,,,,,,,,,,,,,,,,,,178.75189989997307,179.1529937000014,179.1358307999908,179.23617089999607,179.63794779998716,None,right,1,0.3782066999701783,179.63794779998716,None,179.1358307999908,179.23617089999607,179.23617089999607,None,180.03693929995643,None,,,,,,,11009,001,2024_Jan_01_1631,ANT,2021.2.3,60.00672076897275,
1,1,no,up,C,L,,,,,,Block.xlsx,"你已经完成了第一个实验区组

请稍作休息


点击空格键进入下一个区组。",50,0,1.5,left,LLLLL.png,,,,,0,0,0,0,0,4,4,0,,,,,,,,,,,,,,,,,,,,,,,,,,,,,,,,,,,,,,,,,,,,,,,,,,,,,,,,,,,,,,,,,,,,,,180.43798059999244,180.839988599997,180.8218862999929,180.92185230000177,181.32218919997104,None,left,1,0.42219990002922714,181.32218919997104,None,180.8218862999929,180.92185230000177,180.92185230000177,None,181.77312559995335,None,,,,,,,11009,001,2024_Jan_01_1631,ANT,2021.2.3,60.00672076897275,
1,10,center,up,C,R,,,,,,Block.xlsx,"你已经完成了第一个实验区组

请稍作休息


点击空格键进入下一个区组。",0,50,1.5,right,RRRRR.png,,,,,0,0,0,0,0,5,5,9,,,,,,,,,,,,,,,,,,,,,,,,,,,,,,,,,,,,,,,,,,,,,,,,,,,,,,,,,,,,,,,,,,,,,,182.17367819999345,182.57550669997,182.558138399967,182.6587225999683,183.05841629998758,None,right,1,0.40640009997878224,183.05841629998758,None,182.558138399967,182.6587225999683,182.6587225999683,None,183.49227689998224,None,,,,,,,11009,001,2024_Jan_01_1631,ANT,2021.2.3,60.00672076897275,
1,24,spatial,down,IC,R,,,,,,Block.xlsx,"你已经完成了第一个实验区组

请稍作休息


点击空格键进入下一个区组。",-1.5,0,-1.5,right,LLRLL.png,,,,,0,0,0,0,0,6,6,23,,,,,,,,,,,,,,,,,,,,,,,,,,,,,,,,,,,,,,,,,,,,,,,,,,,,,,,,,,,,,,,,,,,,,,183.89352099999087,184.29370649997145,184.27842219994636,184.378001199977,184.77893289999338,None,left,0,0.333206599985715,184.77893289999338,None,184.27842219994636,184.378001199977,184.378001199977,None,185.12873309996212,None,,,,,,,11009,001,2024_Jan_01_1631,ANT,2021.2.3,60.00672076897275,
1,18,spatial,up,C,R,,,,,,Block.xlsx,"你已经完成了第一个实验区组

请稍作休息


点击空格键进入下一个区组。",1.5,0,1.5,right,RRRRR.png,,,,,0,0,0,0,0,7,7,17,,,,,,,,,,,,,,,,,,,,,,,,,,,,,,,,,,,,,,,,,,,,,,,,,,,,,,,,,,,,,,,,,,,,,,185.52858499996364,185.9299950999557,185.91244479996385,186.01264119998086,186.41394249995938,None,right,1,0.3543169000186026,186.41394249995938,None,185.91244479996385,186.01264119998086,186.01264119998086,None,186.79722289997153,None,,,,,,,11009,001,2024_Jan_01_1631,ANT,2021.2.3,60.00672076897275,
1,5,no,down,C,L,,,,,,Block.xlsx,"你已经完成了第一个实验区组

请稍作休息


点击空格键进入下一个区组。",50,0,-1.5,left,LLLLL.png,,,,,0,0,0,0,0,8,8,4,,,,,,,,,,,,,,,,,,,,,,,,,,,,,,,,,,,,,,,,,,,,,,,,,,,,,,,,,,,,,,,,,,,,,,187.19862260000082,187.59953700000187,187.58160889998544,187.68266149994452,188.08309939998435,None,left,1,0.4530534999794327,188.08309939998435,None,187.58160889998544,187.68266149994452,187.68266149994452,None,188.56649279996054,None,,,,,,,11009,001,2024_Jan_01_1631,ANT,2021.2.3,60.00672076897275,
1,20,spatial,up,IC,R,,,,,,Block.xlsx,"你已经完成了第一个实验区组

请稍作休息


点击空格键进入下一个区组。",1.5,0,1.5,right,LLRLL.png,,,,,0,0,0,0,0,9,9,19,,,,,,,,,,,,,,,,,,,,,,,,,,,,,,,,,,,,,,,,,,,,,,,,,,,,,,,,,,,,,,,,,,,,,,188.96703479997814,189.37037639995106,189.35201659996528,189.45201179996366,189.8519298999454,None,right,1,0.4282897999510169,189.8519298999454,None,189.35201659996528,189.45201179996366,189.45201179996366,None,190.30240950000007,None,,,,,,,11009,001,2024_Jan_01_1631,ANT,2021.2.3,60.00672076897275,
1,2,no,up,C,R,,,,,,Block.xlsx,"你已经完成了第一个实验区组

请稍作休息


点击空格键进入下一个区组。",50,0,1.5,right,RRRRR.png,,,,,0,0,0,0,0,10,10,1,,,,,,,,,,,,,,,,,,,,,,,,,,,,,,,,,,,,,,,,,,,,,,,,,,,,,,,,,,,,,,,,,,,,,,190.70289179997053,191.10443039995153,191.0870732999756,191.18914409994613,191.5877363999607,None,right,1,0.45305690000532195,191.5877363999607,None,191.0870732999756,191.18914409994613,191.18914409994613,None,192.05496389995096,None,,,,,,,11009,001,2024_Jan_01_1631,ANT,2021.2.3,60.00672076897275,
1,16,center,down,IC,R,,,,,,Block.xlsx,"你已经完成了第一个实验区组

请稍作休息


点击空格键进入下一个区组。",0,50,-1.5,right,LLRLL.png,,,,,0,0,0,0,0,11,11,15,,,,,,,,,,,,,,,,,,,,,,,,,,,,,,,,,,,,,,,,,,,,,,,,,,,,,,,,,,,,,,,,,,,,,,192.4555688999826,192.85844659997383,192.83995179994963,192.94014189997688,193.34258279995993,None,right,1,0.521606799971778,193.34258279995993,None,192.83995179994963,192.94014189997688,192.94014189997688,None,193.89122429996496,None,,,,,,,11009,001,2024_Jan_01_1631,ANT,2021.2.3,60.00672076897275,
1,4,no,up,IC,R,,,,,,Block.xlsx,"你已经完成了第一个实验区组

请稍作休息


点击空格键进入下一个区组。",50,0,1.5,right,LLRLL.png,,,,,0,0,0,0,0,12,12,3,,,,,,,,,,,,,,,,,,,,,,,,,,,,,,,,,,,,,,,,,,,,,,,,,,,,,,,,,,,,,,,,,,,,,,194.29165899998043,194.69300459994702,194.67781129997456,194.79338209994603,195.1779372000019,None,right,1,0.5347393000265583,195.1779372000019,None,194.67781129997456,194.79338209994603,194.77567429997725,None,195.72696030000225,None,,,,,,,11009,001,2024_Jan_01_1631,ANT,2021.2.3,60.00672076897275,
1,20,spatial,up,IC,R,,,,,,Block.xlsx,"你已经完成了第一个实验区组

请稍作休息


点击空格键进入下一个区组。",1.5,0,1.5,right,LLRLL.png,,,,,0,0,0,0,0,13,13,19,,,,,,,,,,,,,,,,,,,,,,,,,,,,,,,,,,,,,,,,,,,,,,,,,,,,,,,,,,,,,,,,,,,,,,196.12759569997434,196.52863249997608,196.51325719995657,196.62894179997966,197.0130938999937,None,right,1,0.3317440000246279,197.0130938999937,None,196.51325719995657,196.62894179997966,196.61208689998602,None,197.36276829999406,None,,,,,,,11009,001,2024_Jan_01_1631,ANT,2021.2.3,60.00672076897275,
1,24,spatial,down,IC,R,,,,,,Block.xlsx,"你已经完成了第一个实验区组

请稍作休息


点击空格键进入下一个区组。",-1.5,0,-1.5,right,LLRLL.png,,,,,0,0,0,0,0,14,14,23,,,,,,,,,,,,,,,,,,,,,,,,,,,,,,,,,,,,,,,,,,,,,,,,,,,,,,,,,,,,,,,,,,,,,,197.76357359997928,198.16432319994783,198.14764799998375,198.24976929998957,198.64878619997762,None,right,1,0.47143550001783296,198.64878619997762,None,198.14764799998375,198.24976929998957,198.24976929998957,None,199.14878899999894,None,,,,,,,11009,001,2024_Jan_01_1631,ANT,2021.2.3,60.00672076897275,
1,12,center,up,IC,R,,,,,,Block.xlsx,"你已经完成了第一个实验区组

请稍作休息


点击空格键进入下一个区组。",0,50,1.5,right,LLRLL.png,,,,,0,0,0,0,0,15,15,11,,,,,,,,,,,,,,,,,,,,,,,,,,,,,,,,,,,,,,,,,,,,,,,,,,,,,,,,,,,,,,,,,,,,,,199.54943279997678,199.9509154999978,199.93334419996245,200.03420469997218,200.43526599998586,None,right,1,0.3810594000387937,200.43526599998586,None,199.93334419996245,200.03420469997218,200.03420469997218,None,200.83476269996027,None,,,,,,,11009,001,2024_Jan_01_1631,ANT,2021.2.3,60.00672076897275,
1,17,spatial,up,C,L,,,,,,Block.xlsx,"你已经完成了第一个实验区组

请稍作休息


点击空格键进入下一个区组。",1.5,0,1.5,left,LLLLL.png,,,,,0,0,0,0,0,16,16,16,,,,,,,,,,,,,,,,,,,,,,,,,,,,,,,,,,,,,,,,,,,,,,,,,,,,,,,,,,,,,,,,,,,,,,201.2352957999683,201.6372969999793,201.61963559995638,201.71937809995143,202.12009549996583,None,left,1,0.4481404999969527,202.12009549996583,None,201.61963559995638,201.71937809995143,201.71937809995143,None,202.58703689998947,None,,,,,,,11009,001,2024_Jan_01_1631,ANT,2021.2.3,60.00672076897275,
1,7,no,down,IC,L,,,,,,Block.xlsx,"你已经完成了第一个实验区组

请稍作休息


点击空格键进入下一个区组。",50,0,-1.5,left,RRLRR.png,,,,,0,0,0,0,0,17,17,6,,,,,,,,,,,,,,,,,,,,,,,,,,,,,,,,,,,,,,,,,,,,,,,,,,,,,,,,,,,,,,,,,,,,,,202.98775349999778,203.39080409996677,203.37196339998627,203.47200429998338,203.8739337999723,None,left,1,0.5824523000046611,203.8739337999723,None,203.37196339998627,203.47200429998338,203.47200429998338,None,204.47325629997067,None,,,,,,,11009,001,2024_Jan_01_1631,ANT,2021.2.3,60.00672076897275,
1,24,spatial,down,IC,R,,,,,,Block.xlsx,"你已经完成了第一个实验区组

请稍作休息


点击空格键进入下一个区组。",-1.5,0,-1.5,right,LLRLL.png,,,,,0,0,0,0,0,18,18,23,,,,,,,,,,,,,,,,,,,,,,,,,,,,,,,,,,,,,,,,,,,,,,,,,,,,,,,,,,,,,,,,,,,,,,204.87387519999174,205.27576509997016,205.2579187999945,205.35888639994664,205.758972599986,None,right,1,0.529081100015901,205.758972599986,None,205.2579187999945,205.35888639994664,205.35888639994664,None,206.30927559995325,None,,,,,,,11009,001,2024_Jan_01_1631,ANT,2021.2.3,60.00672076897275,
1,7,no,down,IC,L,,,,,,Block.xlsx,"你已经完成了第一个实验区组

请稍作休息


点击空格键进入下一个区组。",50,0,-1.5,left,RRLRR.png,,,,,0,0,0,0,0,19,19,6,,,,,,,,,,,,,,,,,,,,,,,,,,,,,,,,,,,,,,,,,,,,,,,,,,,,,,,,,,,,,,,,,,,,,,206.7099933999707,207.11092069995357,207.09488339995733,207.1945287999697,207.59527759999037,None,left,1,0.4131400999613106,207.59527759999037,None,207.09488339995733,207.1945287999697,207.1945287999697,None,208.02906380000059,None,,,,,,,11009,001,2024_Jan_01_1631,ANT,2021.2.3,60.00672076897275,
1,6,no,down,C,R,,,,,,Block.xlsx,"你已经完成了第一个实验区组

请稍作休息


点击空格键进入下一个区组。",50,0,-1.5,right,RRRRR.png,,,,,0,0,0,0,0,20,20,5,,,,,,,,,,,,,,,,,,,,,,,,,,,,,,,,,,,,,,,,,,,,,,,,,,,,,,,,,,,,,,,,,,,,,,208.42933499999344,208.8306401000009,208.81315679999534,208.91357899998548,209.3138600999955,None,right,1,0.45451980002690107,209.3138600999955,None,208.81315679999534,208.91357899998548,208.91357899998548,None,209.79797529999632,None,,,,,,,11009,001,2024_Jan_01_1631,ANT,2021.2.3,60.00672076897275,
1,1,no,up,C,L,,,,,,Block.xlsx,"你已经完成了第一个实验区组

请稍作休息


点击空格键进入下一个区组。",50,0,1.5,left,LLLLL.png,,,,,0,0,0,0,0,21,21,0,,,,,,,,,,,,,,,,,,,,,,,,,,,,,,,,,,,,,,,,,,,,,,,,,,,,,,,,,,,,,,,,,,,,,,210.1987767999526,210.5993769999477,210.58235269994475,210.68469369999366,211.08346009999514,None,left,1,0.46095699997385964,211.08346009999514,None,210.58235269994475,210.68469369999366,210.68469369999366,None,211.56719390000217,None,,,,,,,11009,001,2024_Jan_01_1631,ANT,2021.2.3,60.00672076897275,
1,18,spatial,up,C,R,,,,,,Block.xlsx,"你已经完成了第一个实验区组

请稍作休息


点击空格键进入下一个区组。",1.5,0,1.5,right,RRRRR.png,,,,,0,0,0,0,0,22,22,17,,,,,,,,,,,,,,,,,,,,,,,,,,,,,,,,,,,,,,,,,,,,,,,,,,,,,,,,,,,,,,,,,,,,,,211.968027099967,212.3686044999631,212.35196939995512,212.452200300002,212.85409779998008,None,right,1,0.3703694000141695,212.85409779998008,None,212.35196939995512,212.452200300002,212.452200300002,None,213.2528653999907,None,,,,,,,11009,001,2024_Jan_01_1631,ANT,2021.2.3,60.00672076897275,
1,4,no,up,IC,R,,,,,,Block.xlsx,"你已经完成了第一个实验区组

请稍作休息


点击空格键进入下一个区组。",50,0,1.5,right,LLRLL.png,,,,,0,0,0,0,0,23,23,3,,,,,,,,,,,,,,,,,,,,,,,,,,,,,,,,,,,,,,,,,,,,,,,,,,,,,,,,,,,,,,,,,,,,,,213.6540864999988,214.05511279997882,214.03786089998903,214.1380599999684,214.53811179997865,None,right,1,0.414327000034973,214.53811179997865,None,214.03786089998903,214.1380599999684,214.1380599999684,None,214.97238890000153,None,,,,,,,11009,001,2024_Jan_01_1631,ANT,2021.2.3,60.00672076897275,
1,19,spatial,up,IC,L,,,,,,Block.xlsx,"你已经完成了第一个实验区组

请稍作休息


点击空格键进入下一个区组。",1.5,0,1.5,left,RRLRR.png,,,,,0,0,0,0,1,0,24,18,,,,,,,,,,,,,,,,,,,,,,,,,,,,,,,,,,,,,,,,,,,,,,,,,,,,,,,,,,,,,,,,,,,,,,215.37293610000052,215.77437569998438,215.7578433000017,215.85701889998745,216.2581042999518,None,left,1,0.3902345999958925,216.2581042999518,None,215.7578433000017,215.85701889998745,215.85701889998745,None,216.67480149999028,None,,,,,,,11009,001,2024_Jan_01_1631,ANT,2021.2.3,60.00672076897275,
1,14,center,down,C,R,,,,,,Block.xlsx,"你已经完成了第一个实验区组

请稍作休息


点击空格键进入下一个区组。",0,50,-1.5,right,RRRRR.png,,,,,0,0,0,0,1,1,25,13,,,,,,,,,,,,,,,,,,,,,,,,,,,,,,,,,,,,,,,,,,,,,,,,,,,,,,,,,,,,,,,,,,,,,,217.07537119998597,217.47596630000044,217.4602238999796,217.5598275999655,217.96127699996578,None,right,1,0.4154160000034608,217.96127699996578,None,217.4602238999796,217.5598275999655,217.5598275999655,None,218.3937935999711,None,,,,,,,11009,001,2024_Jan_01_1631,ANT,2021.2.3,60.00672076897275,
1,23,spatial,down,IC,L,,,,,,Block.xlsx,"你已经完成了第一个实验区组

请稍作休息


点击空格键进入下一个区组。",-1.5,0,-1.5,left,RRLRR.png,,,,,0,0,0,0,1,2,26,22,,,,,,,,,,,,,,,,,,,,,,,,,,,,,,,,,,,,,,,,,,,,,,,,,,,,,,,,,,,,,,,,,,,,,,218.79491729999427,219.19524839997757,219.18052179994993,219.29531119996682,219.67926389997592,None,left,1,0.37706540001090616,219.67926389997592,None,219.18052179994993,219.29531119996682,219.28096779994667,None,220.0797939999611,None,,,,,,,11009,001,2024_Jan_01_1631,ANT,2021.2.3,60.00672076897275,
1,2,no,up,C,R,,,,,,Block.xlsx,"你已经完成了第一个实验区组

请稍作休息


点击空格键进入下一个区组。",50,0,1.5,right,RRRRR.png,,,,,0,0,0,0,1,3,27,1,,,,,,,,,,,,,,,,,,,,,,,,,,,,,,,,,,,,,,,,,,,,,,,,,,,,,,,,,,,,,,,,,,,,,,220.48036219994538,220.88172079995275,220.8647678999696,220.96449099999154,221.3656182999839,None,right,1,0.4109811999951489,221.3656182999839,None,220.8647678999696,220.96449099999154,220.96449099999154,None,221.79905779997353,None,,,,,,,11009,001,2024_Jan_01_1631,ANT,2021.2.3,60.00672076897275,
1,22,spatial,down,C,R,,,,,,Block.xlsx,"你已经完成了第一个实验区组

请稍作休息


点击空格键进入下一个区组。",-1.5,0,-1.5,right,RRRRR.png,,,,,0,0,0,0,1,4,28,21,,,,,,,,,,,,,,,,,,,,,,,,,,,,,,,,,,,,,,,,,,,,,,,,,,,,,,,,,,,,,,,,,,,,,,222.19947629998205,222.60044209996704,222.5843535999884,222.68408279999858,223.0851690999698,None,right,1,0.38728269998682663,223.0851690999698,None,222.5843535999884,222.68408279999858,222.68408279999858,None,223.50168779998785,None,,,,,,,11009,001,2024_Jan_01_1631,ANT,2021.2.3,60.00672076897275,
1,6,no,down,C,R,,,,,,Block.xlsx,"你已经完成了第一个实验区组

请稍作休息


点击空格键进入下一个区组。",50,0,-1.5,right,RRRRR.png,,,,,0,0,0,0,1,5,29,5,,,,,,,,,,,,,,,,,,,,,,,,,,,,,,,,,,,,,,,,,,,,,,,,,,,,,,,,,,,,,,,,,,,,,,223.90216459997464,224.30357879999792,224.2869861999643,224.38664179999614,224.78759539994644,None,right,1,0.42910810001194477,224.78759539994644,None,224.2869861999643,224.38664179999614,224.38664179999614,None,225.2374755999772,None,,,,,,,11009,001,2024_Jan_01_1631,ANT,2021.2.3,60.00672076897275,
1,17,spatial,up,C,L,,,,,,Block.xlsx,"你已经完成了第一个实验区组

请稍作休息


点击空格键进入下一个区组。",1.5,0,1.5,left,LLLLL.png,,,,,0,0,0,0,1,6,30,16,,,,,,,,,,,,,,,,,,,,,,,,,,,,,,,,,,,,,,,,,,,,,,,,,,,,,,,,,,,,,,,,,,,,,,225.638138099981,226.03951229999075,226.0241939999978,226.13871319999453,226.52342089999001,None,left,1,0.35685949999606237,226.52342089999001,None,226.0241939999978,226.13871319999453,226.12306009995518,None,226.90660399995977,None,,,,,,,11009,001,2024_Jan_01_1631,ANT,2021.2.3,60.00672076897275,
1,17,spatial,up,C,L,,,,,,Block.xlsx,"你已经完成了第一个实验区组

请稍作休息


点击空格键进入下一个区组。",1.5,0,1.5,left,LLLLL.png,,,,,0,0,0,0,1,7,31,16,,,,,,,,,,,,,,,,,,,,,,,,,,,,,,,,,,,,,,,,,,,,,,,,,,,,,,,,,,,,,,,,,,,,,,227.30724639998516,227.70816280000145,227.6911508999765,227.79134080000222,228.1922765999916,None,left,1,0.37613440002314746,228.1922765999916,None,227.6911508999765,227.79134080000222,227.79134080000222,None,228.59287709998898,None,,,,,,,11009,001,2024_Jan_01_1631,ANT,2021.2.3,60.00672076897275,
1,3,no,up,IC,L,,,,,,Block.xlsx,"你已经完成了第一个实验区组

请稍作休息


点击空格键进入下一个区组。",50,0,1.5,left,RRLRR.png,,,,,0,0,0,0,1,8,32,2,,,,,,,,,,,,,,,,,,,,,,,,,,,,,,,,,,,,,,,,,,,,,,,,,,,,,,,,,,,,,,,,,,,,,,228.9933628999861,229.39535469998373,229.3776932999608,229.47715229995083,229.87776039994787,None,left,1,0.4024364000069909,229.87776039994787,None,229.3776932999608,229.47715229995083,229.47715229995083,None,230.31178659998113,None,,,,,,,11009,001,2024_Jan_01_1631,ANT,2021.2.3,60.00672076897275,
1,2,no,up,C,R,,,,,,Block.xlsx,"你已经完成了第一个实验区组

请稍作休息


点击空格键进入下一个区组。",50,0,1.5,right,RRRRR.png,,,,,0,0,0,0,1,9,33,1,,,,,,,,,,,,,,,,,,,,,,,,,,,,,,,,,,,,,,,,,,,,,,,,,,,,,,,,,,,,,,,,,,,,,,230.71223259996623,231.11406509997323,231.09609209996415,231.19701659999555,231.59868269995786,None,right,1,0.3615565000218339,231.59868269995786,None,231.09609209996415,231.19701659999555,231.19701659999555,None,231.98064809996868,None,,,,,,,11009,001,2024_Jan_01_1631,ANT,2021.2.3,60.00672076897275,
1,23,spatial,down,IC,L,,,,,,Block.xlsx,"你已经完成了第一个实验区组

请稍作休息


点击空格键进入下一个区组。",-1.5,0,-1.5,left,RRLRR.png,,,,,0,0,0,0,1,10,34,22,,,,,,,,,,,,,,,,,,,,,,,,,,,,,,,,,,,,,,,,,,,,,,,,,,,,,,,,,,,,,,,,,,,,,,232.38128619996132,232.78263099998003,232.76534179999726,232.86568309995346,233.267063999956,None,left,1,0.4452622000244446,233.267063999956,None,232.76534179999726,232.86568309995346,232.86568309995346,None,233.73385369998869,None,,,,,,,11009,001,2024_Jan_01_1631,ANT,2021.2.3,60.00672076897275,
1,18,spatial,up,C,R,,,,,,Block.xlsx,"你已经完成了第一个实验区组

请稍作休息


点击空格键进入下一个区组。",1.5,0,1.5,right,RRRRR.png,,,,,0,0,0,0,1,11,35,17,,,,,,,,,,,,,,,,,,,,,,,,,,,,,,,,,,,,,,,,,,,,,,,,,,,,,,,,,,,,,,,,,,,,,,234.13514739996754,234.53635409998242,234.51807140000165,234.6180774999666,235.01871299999766,None,right,1,0.3820555999991484,235.01871299999766,None,234.51807140000165,234.6180774999666,234.6180774999666,None,235.41909879999002,None,,,,,,,11009,001,2024_Jan_01_1631,ANT,2021.2.3,60.00672076897275,
1,11,center,up,IC,L,,,,,,Block.xlsx,"你已经完成了第一个实验区组

请稍作休息


点击空格键进入下一个区组。",0,50,1.5,left,RRLRR.png,,,,,0,0,0,0,1,12,36,10,,,,,,,,,,,,,,,,,,,,,,,,,,,,,,,,,,,,,,,,,,,,,,,,,,,,,,,,,,,,,,,,,,,,,,235.8201181999757,236.22153529996285,236.20406299998285,236.30586539994692,236.70597079995787,None,left,1,0.3902411000453867,236.70597079995787,None,236.20406299998285,236.30586539994692,236.30586539994692,None,237.1216134999995,None,,,,,,,11009,001,2024_Jan_01_1631,ANT,2021.2.3,60.00672076897275,
1,22,spatial,down,C,R,,,,,,Block.xlsx,"你已经完成了第一个实验区组

请稍作休息


点击空格键进入下一个区组。",-1.5,0,-1.5,right,RRRRR.png,,,,,0,0,0,0,1,13,37,21,,,,,,,,,,,,,,,,,,,,,,,,,,,,,,,,,,,,,,,,,,,,,,,,,,,,,,,,,,,,,,,,,,,,,,237.52242699998897,237.9245095999795,237.90668479999295,238.0072450999869,238.40756339998916,None,right,1,0.3606796999811195,238.40756339998916,None,237.90668479999295,238.0072450999869,238.0072450999869,None,238.7908318999689,None,,,,,,,11009,001,2024_Jan_01_1631,ANT,2021.2.3,60.00672076897275,
1,15,center,down,IC,L,,,,,,Block.xlsx,"你已经完成了第一个实验区组

请稍作休息


点击空格键进入下一个区组。",0,50,-1.5,left,RRLRR.png,,,,,0,0,0,0,1,14,38,14,,,,,,,,,,,,,,,,,,,,,,,,,,,,,,,,,,,,,,,,,,,,,,,,,,,,,,,,,,,,,,,,,,,,,,239.19191259995569,239.59242239996092,239.5769076999859,239.67687069997191,240.07641579996562,None,left,1,0.40508569998200983,240.07641579996562,None,239.5769076999859,239.67687069997191,239.67687069997191,None,240.51072539994493,None,,,,,,,11009,001,2024_Jan_01_1631,ANT,2021.2.3,60.00672076897275,
1,23,spatial,down,IC,L,,,,,,Block.xlsx,"你已经完成了第一个实验区组

请稍作休息


点击空格键进入下一个区组。",-1.5,0,-1.5,left,RRLRR.png,,,,,0,0,0,0,1,15,39,22,,,,,,,,,,,,,,,,,,,,,,,,,,,,,,,,,,,,,,,,,,,,,,,,,,,,,,,,,,,,,,,,,,,,,,240.91063449997455,241.3111549000023,241.29544699995313,241.39702179998858,241.79563789995154,None,left,1,0.3648270000121556,241.79563789995154,None,241.29544699995313,241.39702179998858,241.39702179998858,None,242.1792623999645,None,,,,,,,11009,001,2024_Jan_01_1631,ANT,2021.2.3,60.00672076897275,
1,21,spatial,down,C,L,,,,,,Block.xlsx,"你已经完成了第一个实验区组

请稍作休息


点击空格键进入下一个区组。",-1.5,0,-1.5,left,LLLLL.png,,,,,0,0,0,0,1,16,40,20,,,,,,,,,,,,,,,,,,,,,,,,,,,,,,,,,,,,,,,,,,,,,,,,,,,,,,,,,,,,,,,,,,,,,,242.57990640000207,242.98099489999004,242.96455949998926,243.0650481999619,243.46460189996287,None,left,1,0.3117407000390813,243.46460189996287,None,242.96455949998926,243.0650481999619,243.0650481999619,None,243.79826559999492,None,,,,,,,11009,001,2024_Jan_01_1631,ANT,2021.2.3,60.00672076897275,
1,10,center,up,C,R,,,,,,Block.xlsx,"你已经完成了第一个实验区组

请稍作休息


点击空格键进入下一个区组。",0,50,1.5,right,RRRRR.png,,,,,0,0,0,0,1,17,41,9,,,,,,,,,,,,,,,,,,,,,,,,,,,,,,,,,,,,,,,,,,,,,,,,,,,,,,,,,,,,,,,,,,,,,,244.1988911999506,244.60020329995314,244.58290919999126,244.6836024999502,245.0832852999447,None,right,1,0.4048598000081256,245.0832852999447,None,244.58290919999126,244.6836024999502,244.6836024999502,None,245.51723019999918,None,,,,,,,11009,001,2024_Jan_01_1631,ANT,2021.2.3,60.00672076897275,
1,23,spatial,down,IC,L,,,,,,Block.xlsx,"你已经完成了第一个实验区组

请稍作休息


点击空格键进入下一个区组。",-1.5,0,-1.5,left,RRLRR.png,,,,,0,0,0,0,1,18,42,22,,,,,,,,,,,,,,,,,,,,,,,,,,,,,,,,,,,,,,,,,,,,,,,,,,,,,,,,,,,,,,,,,,,,,,245.9181394999614,246.31930279999506,246.30392819998087,246.40431589999935,246.80349859996932,None,left,1,0.5330760999931954,246.80349859996932,None,246.30392819998087,246.40431589999935,246.40431589999935,None,247.35409280000022,None,,,,,,,11009,001,2024_Jan_01_1631,ANT,2021.2.3,60.00672076897275,
1,20,spatial,up,IC,R,,,,,,Block.xlsx,"你已经完成了第一个实验区组

请稍作休息


点击空格键进入下一个区组。",1.5,0,1.5,right,LLRLL.png,,,,,0,0,0,0,1,19,43,19,,,,,,,,,,,,,,,,,,,,,,,,,,,,,,,,,,,,,,,,,,,,,,,,,,,,,,,,,,,,,,,,,,,,,,247.7542184999911,248.1551317999838,248.13810409995494,248.23972989997128,248.6394963999628,None,right,1,0.4088911000289954,248.6394963999628,None,248.13810409995494,248.23972989997128,248.23972989997128,None,249.07263769995188,None,,,,,,,11009,001,2024_Jan_01_1631,ANT,2021.2.3,60.00672076897275,
1,1,no,up,C,L,,,,,,Block.xlsx,"你已经完成了第一个实验区组

请稍作休息


点击空格键进入下一个区组。",50,0,1.5,left,LLLLL.png,,,,,0,0,0,0,1,20,44,0,,,,,,,,,,,,,,,,,,,,,,,,,,,,,,,,,,,,,,,,,,,,,,,,,,,,,,,,,,,,,,,,,,,,,,249.47338839998702,249.8739435999887,249.85854799998924,249.97430359997088,250.3606491999817,None,left,1,0.4637510000029579,250.3606491999817,None,249.85854799998924,249.97430359997088,249.95919499994488,None,250.8418723999639,None,,,,,,,11009,001,2024_Jan_01_1631,ANT,2021.2.3,60.00672076897275,
1,6,no,down,C,R,,,,,,Block.xlsx,"你已经完成了第一个实验区组

请稍作休息


点击空格键进入下一个区组。",50,0,-1.5,right,RRRRR.png,,,,,0,0,0,0,1,21,45,5,,,,,,,,,,,,,,,,,,,,,,,,,,,,,,,,,,,,,,,,,,,,,,,,,,,,,,,,,,,,,,,,,,,,,,251.24262399994768,251.64429339999333,251.6268221999635,251.7276397999958,252.12715379998554,None,right,1,0.44122939999215305,252.12715379998554,None,251.6268221999635,251.7276397999958,251.7276397999958,None,252.59464249998564,None,,,,,,,11009,001,2024_Jan_01_1631,ANT,2021.2.3,60.00672076897275,
1,2,no,up,C,R,,,,,,Block.xlsx,"你已经完成了第一个实验区组

请稍作休息


点击空格键进入下一个区组。",50,0,1.5,right,RRRRR.png,,,,,0,0,0,0,1,22,46,1,,,,,,,,,,,,,,,,,,,,,,,,,,,,,,,,,,,,,,,,,,,,,,,,,,,,,,,,,,,,,,,,,,,,,,252.995351199992,253.39701259997673,253.3792123000021,253.48048369999742,253.87993099994492,None,right,1,0.3763050999841653,253.87993099994492,None,253.3792123000021,253.48048369999742,253.48048369999742,None,254.28053579997504,None,,,,,,,11009,001,2024_Jan_01_1631,ANT,2021.2.3,60.00672076897275,
1,8,no,down,IC,R,,,,,,Block.xlsx,"你已经完成了第一个实验区组

请稍作休息


点击空格键进入下一个区组。",50,0,-1.5,right,LLRLL.png,,,,,0,0,0,0,1,23,47,7,,,,,,,,,,,,,,,,,,,,,,,,,,,,,,,,,,,,,,,,,,,,,,,,,,,,,,,,,,,,,,,,,,,,,,254.6818056999473,255.08390299999155,255.06587929994566,255.16665499994997,255.56702799996128,None,left,0,0.40124470001319423,255.56702799996128,None,255.06587929994566,255.16665499994997,255.16665499994997,None,255.98282949998975,None,,,,,,,11009,001,2024_Jan_01_1631,ANT,2021.2.3,60.00672076897275,
1,21,spatial,down,C,L,,,,,,Block.xlsx,"你已经完成了第一个实验区组

请稍作休息


点击空格键进入下一个区组。",-1.5,0,-1.5,left,LLLLL.png,,,,,0,0,0,0,2,0,48,20,,,,,,,,,,,,,,,,,,,,,,,,,,,,,,,,,,,,,,,,,,,,,,,,,,,,,,,,,,,,,,,,,,,,,,256.38380659994436,256.78419419995043,256.76844679994974,256.86846809997223,257.2689598999568,None,left,1,0.3236334000248462,257.2689598999568,None,256.76844679994974,256.86846809997223,256.86846809997223,None,257.61869749997277,None,,,,,,,11009,001,2024_Jan_01_1631,ANT,2021.2.3,60.00672076897275,
1,13,center,down,C,L,,,,,,Block.xlsx,"你已经完成了第一个实验区组

请稍作休息


点击空格键进入下一个区组。",0,50,-1.5,left,LLLLL.png,,,,,0,0,0,0,2,1,49,12,,,,,,,,,,,,,,,,,,,,,,,,,,,,,,,,,,,,,,,,,,,,,,,,,,,,,,,,,,,,,,,,,,,,,,258.0196310999454,258.4209486999898,258.40325049997773,258.5043160999776,258.9038134999573,None,left,1,0.37630810000700876,258.9038134999573,None,258.40325049997773,258.5043160999776,258.5043160999776,None,259.30470419995254,None,,,,,,,11009,001,2024_Jan_01_1631,ANT,2021.2.3,60.00672076897275,
1,1,no,up,C,L,,,,,,Block.xlsx,"你已经完成了第一个实验区组

请稍作休息


点击空格键进入下一个区组。",50,0,1.5,left,LLLLL.png,,,,,0,0,0,0,2,2,50,0,,,,,,,,,,,,,,,,,,,,,,,,,,,,,,,,,,,,,,,,,,,,,,,,,,,,,,,,,,,,,,,,,,,,,,259.7054350999533,260.10641529998975,260.09063759999117,260.1904069999582,260.5916751999757,None,left,1,0.4168394000153057,260.5916751999757,None,260.09063759999117,260.1904069999582,260.1904069999582,None,261.02384149999125,None,,,,,,,11009,001,2024_Jan_01_1631,ANT,2021.2.3,60.00672076897275,
1,11,center,up,IC,L,,,,,,Block.xlsx,"你已经完成了第一个实验区组

请稍作休息


点击空格键进入下一个区组。",0,50,1.5,left,RRLRR.png,,,,,0,0,0,0,2,3,51,10,,,,,,,,,,,,,,,,,,,,,,,,,,,,,,,,,,,,,,,,,,,,,,,,,,,,,,,,,,,,,,,,,,,,,,261.42448379995767,261.8252161999699,261.80931809998583,261.908713599958,262.309787999955,None,right,0,0.41863330005435273,262.309787999955,None,261.80931809998583,261.908713599958,261.908713599958,None,262.7601544999634,None,,,,,,,11009,001,2024_Jan_01_1631,ANT,2021.2.3,60.00672076897275,
1,13,center,down,C,L,,,,,,Block.xlsx,"你已经完成了第一个实验区组

请稍作休息


点击空格键进入下一个区组。",0,50,-1.5,left,LLLLL.png,,,,,0,0,0,0,2,4,52,12,,,,,,,,,,,,,,,,,,,,,,,,,,,,,,,,,,,,,,,,,,,,,,,,,,,,,,,,,,,,,,,,,,,,,,263.16021479998017,263.56178599997656,263.5442949999706,263.64518079999834,264.0459468999761,None,left,1,0.4343047000002116,264.0459468999761,None,263.5442949999706,263.64518079999834,263.64518079999834,None,264.4955729999929,None,,,,,,,11009,001,2024_Jan_01_1631,ANT,2021.2.3,60.00672076897275,
1,7,no,down,IC,L,,,,,,Block.xlsx,"你已经完成了第一个实验区组

请稍作休息


点击空格键进入下一个区组。",50,0,-1.5,left,RRLRR.png,,,,,0,0,0,0,2,5,53,6,,,,,,,,,,,,,,,,,,,,,,,,,,,,,,,,,,,,,,,,,,,,,,,,,,,,,,,,,,,,,,,,,,,,,,264.89626429998316,265.29787869995926,265.28025939996587,265.3810425999691,265.7807863999624,None,left,1,0.5558487999951467,265.7807863999624,None,265.28025939996587,265.3810425999691,265.3810425999691,None,266.36511699995026,None,,,,,,,11009,001,2024_Jan_01_1631,ANT,2021.2.3,60.00672076897275,
1,21,spatial,down,C,L,,,,,,Block.xlsx,"你已经完成了第一个实验区组

请稍作休息


点击空格键进入下一个区组。",-1.5,0,-1.5,left,LLLLL.png,,,,,0,0,0,0,2,6,54,20,,,,,,,,,,,,,,,,,,,,,,,,,,,,,,,,,,,,,,,,,,,,,,,,,,,,,,,,,,,,,,,,,,,,,,266.76578580000205,267.16803020000225,267.1496790999663,267.2505036999937,267.6509431999875,None,left,1,0.32545740000205114,267.6509431999875,None,267.1496790999663,267.2505036999937,267.2505036999937,None,268.00083659996744,None,,,,,,,11009,001,2024_Jan_01_1631,ANT,2021.2.3,60.00672076897275,
1,10,center,up,C,R,,,,,,Block.xlsx,"你已经完成了第一个实验区组

请稍作休息


点击空格键进入下一个区组。",0,50,1.5,right,RRRRR.png,,,,,0,0,0,0,2,7,55,9,,,,,,,,,,,,,,,,,,,,,,,,,,,,,,,,,,,,,,,,,,,,,,,,,,,,,,,,,,,,,,,,,,,,,,268.4018984999857,268.80314659996657,268.7853186999564,268.8872394999489,269.286048799986,None,right,1,0.4581898000324145,269.286048799986,None,268.7853186999564,268.8872394999489,268.8872394999489,None,269.7700012999703,None,,,,,,,11009,001,2024_Jan_01_1631,ANT,2021.2.3,60.00672076897275,
1,19,spatial,up,IC,L,,,,,,Block.xlsx,"你已经完成了第一个实验区组

请稍作休息


点击空格键进入下一个区组。",1.5,0,1.5,left,RRLRR.png,,,,,0,0,0,0,2,8,56,18,,,,,,,,,,,,,,,,,,,,,,,,,,,,,,,,,,,,,,,,,,,,,,,,,,,,,,,,,,,,,,,,,,,,,,270.1707336999825,270.57161059998907,270.556734999991,270.65618699998595,271.05617559998063,None,left,1,0.38415040000109,271.05617559998063,None,270.556734999991,270.65618699998595,270.65618699998595,None,271.45594209997216,None,,,,,,,11009,001,2024_Jan_01_1631,ANT,2021.2.3,60.00672076897275,
1,15,center,down,IC,L,,,,,,Block.xlsx,"你已经完成了第一个实验区组

请稍作休息


点击空格键进入下一个区组。",0,50,-1.5,left,RRLRR.png,,,,,0,0,0,0,2,9,57,14,,,,,,,,,,,,,,,,,,,,,,,,,,,,,,,,,,,,,,,,,,,,,,,,,,,,,,,,,,,,,,,,,,,,,,271.8566565999645,272.2582957999548,272.2404379999498,272.3408607999445,272.74180369998794,None,left,1,0.4910057000233792,272.74180369998794,None,272.2404379999498,272.3408607999445,272.3408607999445,None,273.25852959998883,None,,,,,,,11009,001,2024_Jan_01_1631,ANT,2021.2.3,60.00672076897275,
1,12,center,up,IC,R,,,,,,Block.xlsx,"你已经完成了第一个实验区组

请稍作休息


点击空格键进入下一个区组。",0,50,1.5,right,LLRLL.png,,,,,0,0,0,0,2,10,58,11,,,,,,,,,,,,,,,,,,,,,,,,,,,,,,,,,,,,,,,,,,,,,,,,,,,,,,,,,,,,,,,,,,,,,,273.65918299998157,274.0598433999694,274.0438093999983,274.1443348999601,274.545281699975,None,right,1,0.5269875000230968,274.545281699975,None,274.0438093999983,274.1443348999601,274.1443348999601,None,275.09494489995996,None,,,,,,,11009,001,2024_Jan_01_1631,ANT,2021.2.3,60.00672076897275,
1,16,center,down,IC,R,,,,,,Block.xlsx,"你已经完成了第一个实验区组

请稍作休息


点击空格键进入下一个区组。",0,50,-1.5,right,LLRLL.png,,,,,0,0,0,0,2,11,59,15,,,,,,,,,,,,,,,,,,,,,,,,,,,,,,,,,,,,,,,,,,,,,,,,,,,,,,,,,,,,,,,,,,,,,,275.49540669994894,275.8969583999715,275.88021009997465,275.9792956999736,276.37996349995956,None,right,1,0.5726321999682114,276.37996349995956,None,275.88021009997465,275.9792956999736,275.9792956999736,None,276.98081269999966,None,,,,,,,11009,001,2024_Jan_01_1631,ANT,2021.2.3,60.00672076897275,
1,15,center,down,IC,L,,,,,,Block.xlsx,"你已经完成了第一个实验区组

请稍作休息


点击空格键进入下一个区组。",0,50,-1.5,left,RRLRR.png,,,,,0,0,0,0,2,12,60,14,,,,,,,,,,,,,,,,,,,,,,,,,,,,,,,,,,,,,,,,,,,,,,,,,,,,,,,,,,,,,,,,,,,,,,277.382162599999,277.78213189996313,277.76741449994734,277.8655421999865,278.2666481999913,None,left,1,0.42171790002612397,278.2666481999913,None,277.76741449994734,277.8655421999865,277.8655421999865,None,278.7165339999483,None,,,,,,,11009,001,2024_Jan_01_1631,ANT,2021.2.3,60.00672076897275,
1,7,no,down,IC,L,,,,,,Block.xlsx,"你已经完成了第一个实验区组

请稍作休息


点击空格键进入下一个区组。",50,0,-1.5,left,RRLRR.png,,,,,0,0,0,0,2,13,61,6,,,,,,,,,,,,,,,,,,,,,,,,,,,,,,,,,,,,,,,,,,,,,,,,,,,,,,,,,,,,,,,,,,,,,,279.11721249995753,279.5189713999862,279.50121019996004,279.60371129994746,280.00183089997154,None,left,1,0.4785831999615766,280.00183089997154,None,279.50121019996004,279.60371129994746,279.60371129994746,None,280.5026493999758,None,,,,,,,11009,001,2024_Jan_01_1631,ANT,2021.2.3,60.00672076897275,
1,14,center,down,C,R,,,,,,Block.xlsx,"你已经完成了第一个实验区组

请稍作休息


点击空格键进入下一个区组。",0,50,-1.5,right,RRRRR.png,,,,,0,0,0,0,2,14,62,13,,,,,,,,,,,,,,,,,,,,,,,,,,,,,,,,,,,,,,,,,,,,,,,,,,,,,,,,,,,,,,,,,,,,,,280.9031574999681,281.3048555999994,281.287891999993,281.3878133999533,281.7879476999515,None,right,1,0.46048619999783114,281.7879476999515,None,281.287891999993,281.3878133999533,281.3878133999533,None,282.27188939996995,None,,,,,,,11009,001,2024_Jan_01_1631,ANT,2021.2.3,60.00672076897275,
1,4,no,up,IC,R,,,,,,Block.xlsx,"你已经完成了第一个实验区组

请稍作休息


点击空格键进入下一个区组。",50,0,1.5,right,LLRLL.png,,,,,0,0,0,0,2,15,63,3,,,,,,,,,,,,,,,,,,,,,,,,,,,,,,,,,,,,,,,,,,,,,,,,,,,,,,,,,,,,,,,,,,,,,,282.6725486999494,283.0731990999775,283.0577015999588,283.17360629996983,283.55962129996624,None,right,1,0.5767388999811374,283.55962129996624,None,283.0577015999588,283.17360629996983,283.1571490999777,None,284.1582076999475,None,,,,,,,11009,001,2024_Jan_01_1631,ANT,2021.2.3,60.00672076897275,
1,6,no,down,C,R,,,,,,Block.xlsx,"你已经完成了第一个实验区组

请稍作休息


点击空格键进入下一个区组。",50,0,-1.5,right,RRRRR.png,,,,,0,0,0,0,2,16,64,5,,,,,,,,,,,,,,,,,,,,,,,,,,,,,,,,,,,,,,,,,,,,,,,,,,,,,,,,,,,,,,,,,,,,,,284.5594593999558,284.96036759996787,284.94290619995445,285.04358749999665,285.44356539996807,None,right,1,0.5086481000180356,285.44356539996807,None,284.94290619995445,285.04358749999665,285.04358749999665,None,285.9774998999783,None,,,,,,,11009,001,2024_Jan_01_1631,ANT,2021.2.3,60.00672076897275,
1,16,center,down,IC,R,,,,,,Block.xlsx,"你已经完成了第一个实验区组

请稍作休息


点击空格键进入下一个区组。",0,50,-1.5,right,LLRLL.png,,,,,0,0,0,0,2,17,65,15,,,,,,,,,,,,,,,,,,,,,,,,,,,,,,,,,,,,,,,,,,,,,,,,,,,,,,,,,,,,,,,,,,,,,,286.3788140999968,286.78098260000115,286.7627739000018,286.8624286999693,287.26312399999006,None,right,1,0.4816387000028044,287.26312399999006,None,286.7627739000018,286.8624286999693,286.8624286999693,None,287.7635047999793,None,,,,,,,11009,001,2024_Jan_01_1631,ANT,2021.2.3,60.00672076897275,
1,5,no,down,C,L,,,,,,Block.xlsx,"你已经完成了第一个实验区组

请稍作休息


点击空格键进入下一个区组。",50,0,-1.5,left,LLLLL.png,,,,,0,0,0,0,2,18,66,4,,,,,,,,,,,,,,,,,,,,,,,,,,,,,,,,,,,,,,,,,,,,,,,,,,,,,,,,,,,,,,,,,,,,,,288.1647411999875,288.56530519999797,288.55007479997585,288.6482729999698,289.04962119995616,None,left,1,0.4392255999846384,289.04962119995616,None,288.55007479997585,288.6482729999698,288.6482729999698,None,289.5161437999923,None,,,,,,,11009,001,2024_Jan_01_1631,ANT,2021.2.3,60.00672076897275,
1,9,center,up,C,L,,,,,,Block.xlsx,"你已经完成了第一个实验区组

请稍作休息


点击空格键进入下一个区组。",0,50,1.5,left,LLLLL.png,,,,,0,0,0,0,2,19,67,8,,,,,,,,,,,,,,,,,,,,,,,,,,,,,,,,,,,,,,,,,,,,,,,,,,,,,,,,,,,,,,,,,,,,,,289.91650839999784,290.31749950000085,290.3027798999683,290.4181754999445,290.80208329996094,None,left,1,0.5023642999585718,290.80208329996094,None,290.3027798999683,290.4181754999445,290.40316459996393,None,291.33544009999605,None,,,,,,,11009,001,2024_Jan_01_1631,ANT,2021.2.3,60.00672076897275,
1,16,center,down,IC,R,,,,,,Block.xlsx,"你已经完成了第一个实验区组

请稍作休息


点击空格键进入下一个区组。",0,50,-1.5,right,LLRLL.png,,,,,0,0,0,0,2,20,68,15,,,,,,,,,,,,,,,,,,,,,,,,,,,,,,,,,,,,,,,,,,,,,,,,,,,,,,,,,,,,,,,,,,,,,,291.73583899997175,292.1382713999483,292.1211187999579,292.23809329996584,292.6212967999745,None,right,1,0.4918489000410773,292.6212967999745,None,292.1211187999579,292.23809329996584,292.2206181999645,None,293.1380560999969,None,,,,,,,11009,001,2024_Jan_01_1631,ANT,2021.2.3,60.00672076897275,
1,20,spatial,up,IC,R,,,,,,Block.xlsx,"你已经完成了第一个实验区组

请稍作休息


点击空格键进入下一个区组。",1.5,0,1.5,right,LLRLL.png,,,,,0,0,0,0,2,21,69,19,,,,,,,,,,,,,,,,,,,,,,,,,,,,,,,,,,,,,,,,,,,,,,,,,,,,,,,,,,,,,,,,,,,,,,293.5387449999689,293.94003669999074,293.9226042999653,294.02346609998494,294.4244828999508,None,right,1,0.5198642000323161,294.4244828999508,None,293.9226042999653,294.02346609998494,294.02346609998494,None,294.9742704999517,None,,,,,,,11009,001,2024_Jan_01_1631,ANT,2021.2.3,60.00672076897275,
1,24,spatial,down,IC,R,,,,,,Block.xlsx,"你已经完成了第一个实验区组

请稍作休息


点击空格键进入下一个区组。",-1.5,0,-1.5,right,LLRLL.png,,,,,0,0,0,0,2,22,70,23,,,,,,,,,,,,,,,,,,,,,,,,,,,,,,,,,,,,,,,,,,,,,,,,,,,,,,,,,,,,,,,,,,,,,,295.37559650000185,295.77718889998505,295.7586242999532,295.8597338999971,296.261303199979,None,right,1,0.40304949996061623,296.261303199979,None,295.7586242999532,295.8597338999971,295.8597338999971,None,296.69327949994477,None,,,,,,,11009,001,2024_Jan_01_1631,ANT,2021.2.3,60.00672076897275,
1,8,no,down,IC,R,,,,,,Block.xlsx,"你已经完成了第一个实验区组

请稍作休息


点击空格键进入下一个区组。",50,0,-1.5,right,LLRLL.png,,,,,0,0,0,0,2,23,71,7,,,,,,,,,,,,,,,,,,,,,,,,,,,,,,,,,,,,,,,,,,,,,,,,,,,,,,,,,,,,,,,,,,,,,,297.0941732999636,297.49516819999553,297.4779957999708,297.57805109996116,297.97853199997917,None,right,1,0.4302563000237569,297.97853199997917,None,297.4779957999708,297.57805109996116,297.57805109996116,None,298.4293000999605,None,,,,,,,11009,001,2024_Jan_01_1631,ANT,2021.2.3,60.00672076897275,
1,21,spatial,down,C,L,,,,,,Block.xlsx,"你已经完成了第一个实验区组

请稍作休息


点击空格键进入下一个区组。",-1.5,0,-1.5,left,LLLLL.png,,,,,0,0,0,0,3,0,72,20,,,,,,,,,,,,,,,,,,,,,,,,,,,,,,,,,,,,,,,,,,,,,,,,,,,,,,,,,,,,,,,,,,,,,,298.8299031999777,299.2328609999968,299.21474549995037,299.3140663999948,299.7151994999731,None,left,1,0.38170759996864945,299.7151994999731,None,299.21474549995037,299.3140663999948,299.3140663999948,None,300.115531599964,None,,,,,,,11009,001,2024_Jan_01_1631,ANT,2021.2.3,60.00672076897275,
1,4,no,up,IC,R,,,,,,Block.xlsx,"你已经完成了第一个实验区组

请稍作休息


点击空格键进入下一个区组。",50,0,1.5,right,LLRLL.png,,,,,0,0,0,0,3,1,73,3,,,,,,,,,,,,,,,,,,,,,,,,,,,,,,,,,,,,,,,,,,,,,,,,,,,,,,,,,,,,,,,,,,,,,,300.51574079995044,300.91719139995985,300.9000081999693,301.00079929997446,301.4013033999945,None,right,1,0.5830426999600604,301.4013033999945,None,300.9000081999693,301.00079929997446,301.00079929997446,None,302.00156769994646,None,,,,,,,11009,001,2024_Jan_01_1631,ANT,2021.2.3,60.00672076897275,
1,15,center,down,IC,L,,,,,,Block.xlsx,"你已经完成了第一个实验区组

请稍作休息


点击空格键进入下一个区组。",0,50,-1.5,left,RRLRR.png,,,,,0,0,0,0,3,2,74,14,,,,,,,,,,,,,,,,,,,,,,,,,,,,,,,,,,,,,,,,,,,,,,,,,,,,,,,,,,,,,,,,,,,,,,302.4027082999819,302.80287189997034,302.78570819995366,302.886790199962,303.28633489995264,None,left,1,0.49011509999400005,303.28633489995264,None,302.78570819995366,302.886790199962,302.886790199962,None,303.8046548999846,None,,,,,,,11009,001,2024_Jan_01_1631,ANT,2021.2.3,60.00672076897275,
1,13,center,down,C,L,,,,,,Block.xlsx,"你已经完成了第一个实验区组

请稍作休息


点击空格键进入下一个区组。",0,50,-1.5,left,LLLLL.png,,,,,0,0,0,0,3,3,75,12,,,,,,,,,,,,,,,,,,,,,,,,,,,,,,,,,,,,,,,,,,,,,,,,,,,,,,,,,,,,,,,,,,,,,,304.2045769999968,304.6054285999853,304.58963299996685,304.7063816000009,305.0891992999823,None,left,1,0.4712368000182323,305.0891992999823,None,304.58963299996685,304.7063816000009,304.6889822999947,None,305.5899828999536,None,,,,,,,11009,001,2024_Jan_01_1631,ANT,2021.2.3,60.00672076897275,
1,3,no,up,IC,L,,,,,,Block.xlsx,"你已经完成了第一个实验区组

请稍作休息


点击空格键进入下一个区组。",50,0,1.5,left,RRLRR.png,,,,,0,0,0,0,3,4,76,2,,,,,,,,,,,,,,,,,,,,,,,,,,,,,,,,,,,,,,,,,,,,,,,,,,,,,,,,,,,,,,,,,,,,,,305.99047979997704,306.3911468999577,306.3753885999904,306.49124379997374,306.8752949999762,None,left,1,0.6219773000339046,306.8752949999762,None,306.3753885999904,306.49124379997374,306.4756648999755,None,307.5262547999737,None,,,,,,,11009,001,2024_Jan_01_1631,ANT,2021.2.3,60.00672076897275,
1,8,no,down,IC,R,,,,,,Block.xlsx,"你已经完成了第一个实验区组

请稍作休息


点击空格键进入下一个区组。",50,0,-1.5,right,LLRLL.png,,,,,0,0,0,0,3,5,77,7,,,,,,,,,,,,,,,,,,,,,,,,,,,,,,,,,,,,,,,,,,,,,,,,,,,,,,,,,,,,,,,,,,,,,,307.9267283999943,308.3280962999561,308.31049059994984,308.4125895999605,308.81268199998885,None,right,1,0.5718377999728546,308.81268199998885,None,308.31049059994984,308.4125895999605,308.4125895999605,None,309.4121660999954,None,,,,,,,11009,001,2024_Jan_01_1631,ANT,2021.2.3,60.00672076897275,
1,11,center,up,IC,L,,,,,,Block.xlsx,"你已经完成了第一个实验区组

请稍作休息


点击空格键进入下一个区组。",0,50,1.5,left,RRLRR.png,,,,,0,0,0,0,3,6,78,10,,,,,,,,,,,,,,,,,,,,,,,,,,,,,,,,,,,,,,,,,,,,,,,,,,,,,,,,,,,,,,,,,,,,,,309.81279399996856,310.21452149999095,310.196732899989,310.29856249998556,310.70000719995005,None,left,1,0.5322378000128083,310.70000719995005,None,310.196732899989,310.29856249998556,310.29856249998556,None,311.24831679998897,None,,,,,,,11009,001,2024_Jan_01_1631,ANT,2021.2.3,60.00672076897275,
1,22,spatial,down,C,R,,,,,,Block.xlsx,"你已经完成了第一个实验区组

请稍作休息


点击空格键进入下一个区组。",-1.5,0,-1.5,right,RRRRR.png,,,,,0,0,0,0,3,7,79,21,,,,,,,,,,,,,,,,,,,,,,,,,,,,,,,,,,,,,,,,,,,,,,,,,,,,,,,,,,,,,,,,,,,,,,311.6489316999796,312.0511720999493,312.0334253999754,312.1340602999553,312.53364669997245,None,right,1,0.5229779999936,312.53364669997245,None,312.0334253999754,312.1340602999553,312.1340602999553,None,313.08424399996875,None,,,,,,,11009,001,2024_Jan_01_1631,ANT,2021.2.3,60.00672076897275,
1,5,no,down,C,L,,,,,,Block.xlsx,"你已经完成了第一个实验区组

请稍作休息


点击空格键进入下一个区组。",50,0,-1.5,left,LLLLL.png,,,,,0,0,0,0,3,8,80,4,,,,,,,,,,,,,,,,,,,,,,,,,,,,,,,,,,,,,,,,,,,,,,,,,,,,,,,,,,,,,,,,,,,,,,313.48496789997444,313.8865192999947,313.86879519996,313.96921789995395,314.3701040999731,None,left,1,0.43048659997293726,314.3701040999731,None,313.86879519996,313.96921789995395,313.96921789995395,None,314.82033359998604,None,,,,,,,11009,001,2024_Jan_01_1631,ANT,2021.2.3,60.00672076897275,
1,5,no,down,C,L,,,,,,Block.xlsx,"你已经完成了第一个实验区组

请稍作休息


点击空格键进入下一个区组。",50,0,-1.5,left,LLLLL.png,,,,,0,0,0,0,3,9,81,4,,,,,,,,,,,,,,,,,,,,,,,,,,,,,,,,,,,,,,,,,,,,,,,,,,,,,,,,,,,,,,,,,,,,,,315.2207462999504,315.6214778999565,315.6065266999649,315.7226931999903,316.10571289999643,None,left,1,0.4637127000023611,316.10571289999643,None,315.6065266999649,315.7226931999903,315.7049955999828,None,316.5894739999785,None,,,,,,,11009,001,2024_Jan_01_1631,ANT,2021.2.3,60.00672076897275,
1,9,center,up,C,L,,,,,,Block.xlsx,"你已经完成了第一个实验区组

请稍作休息


点击空格键进入下一个区组。",0,50,1.5,left,LLLLL.png,,,,,0,0,0,0,3,10,82,8,,,,,,,,,,,,,,,,,,,,,,,,,,,,,,,,,,,,,,,,,,,,,,,,,,,,,,,,,,,,,,,,,,,,,,316.99028389999876,317.3925069999532,317.3747813999653,317.4740833999822,317.87511709996033,None,left,1,0.5415500000235625,317.87511709996033,None,317.3747813999653,317.4740833999822,317.4740833999822,None,318.4423319999478,None,,,,,,,11009,001,2024_Jan_01_1631,ANT,2021.2.3,60.00672076897275,
1,8,no,down,IC,R,,,,,,Block.xlsx,"你已经完成了第一个实验区组

请稍作休息


点击空格键进入下一个区组。",50,0,-1.5,right,LLRLL.png,,,,,0,0,0,0,3,11,83,7,,,,,,,,,,,,,,,,,,,,,,,,,,,,,,,,,,,,,,,,,,,,,,,,,,,,,,,,,,,,,,,,,,,,,,318.8430526999873,319.2436917999876,319.2273629999836,319.32725349999964,319.7275148999761,None,right,1,0.552854799956549,319.7275148999761,None,319.2273629999836,319.32725349999964,319.32725349999964,None,320.29502079996746,None,,,,,,,11009,001,2024_Jan_01_1631,ANT,2021.2.3,60.00672076897275,
1,19,spatial,up,IC,L,,,,,,Block.xlsx,"你已经完成了第一个实验区组

请稍作休息


点击空格键进入下一个区组。",1.5,0,1.5,left,RRLRR.png,,,,,0,0,0,0,3,12,84,18,,,,,,,,,,,,,,,,,,,,,,,,,,,,,,,,,,,,,,,,,,,,,,,,,,,,,,,,,,,,,,,,,,,,,,320.69550409994554,321.09689929999877,321.0800420999876,321.18010979995597,321.58067559998017,None,left,1,0.5158250000094995,321.58067559998017,None,321.0800420999876,321.18010979995597,321.18010979995597,None,322.1143986999523,None,,,,,,,11009,001,2024_Jan_01_1631,ANT,2021.2.3,60.00672076897275,
1,12,center,up,IC,R,,,,,,Block.xlsx,"你已经完成了第一个实验区组

请稍作休息


点击空格键进入下一个区组。",0,50,1.5,right,LLRLL.png,,,,,0,0,0,0,3,13,85,11,,,,,,,,,,,,,,,,,,,,,,,,,,,,,,,,,,,,,,,,,,,,,,,,,,,,,,,,,,,,,,,,,,,,,,322.51500339998165,322.9167047999799,322.8988887000014,323.00067749997834,323.3999082999653,None,right,1,0.5127325000357814,323.3999082999653,None,322.8988887000014,323.00067749997834,323.00067749997834,None,323.9336731999647,None,,,,,,,11009,001,2024_Jan_01_1631,ANT,2021.2.3,60.00672076897275,
1,14,center,down,C,R,,,,,,Block.xlsx,"你已经完成了第一个实验区组

请稍作休息


点击空格键进入下一个区组。",0,50,-1.5,right,RRRRR.png,,,,,0,0,0,0,3,14,86,13,,,,,,,,,,,,,,,,,,,,,,,,,,,,,,,,,,,,,,,,,,,,,,,,,,,,,,,,,,,,,,,,,,,,,,324.3343882999616,324.73565940000117,324.7205494999653,324.8349847999634,325.2190909999772,None,right,1,0.5252972000162117,325.2190909999772,None,324.7205494999653,324.8349847999634,324.8200462999521,None,325.76987339998595,None,,,,,,,11009,001,2024_Jan_01_1631,ANT,2021.2.3,60.00672076897275,
1,12,center,up,IC,R,,,,,,Block.xlsx,"你已经完成了第一个实验区组

请稍作休息


点击空格键进入下一个区组。",0,50,1.5,right,LLRLL.png,,,,,0,0,0,0,3,15,87,11,,,,,,,,,,,,,,,,,,,,,,,,,,,,,,,,,,,,,,,,,,,,,,,,,,,,,,,,,,,,,,,,,,,,,,326.1703799999668,326.57155939994846,326.55427079997025,326.65466469997773,327.05680139997276,None,right,1,0.5276456999708898,327.05680139997276,None,326.55427079997025,326.65466469997773,326.65466469997773,None,327.6061605999712,None,,,,,,,11009,001,2024_Jan_01_1631,ANT,2021.2.3,60.00672076897275,
1,3,no,up,IC,L,,,,,,Block.xlsx,"你已经完成了第一个实验区组

请稍作休息


点击空格键进入下一个区组。",50,0,1.5,left,RRLRR.png,,,,,0,0,0,0,3,16,88,2,,,,,,,,,,,,,,,,,,,,,,,,,,,,,,,,,,,,,,,,,,,,,,,,,,,,,,,,,,,,,,,,,,,,,,328.0070274999598,328.409678099968,328.39048750000075,328.49200259998906,328.8919353999663,None,left,1,0.44445260002976283,328.8919353999663,None,328.39048750000075,328.49200259998906,328.49200259998906,None,329.3583030999871,None,,,,,,,11009,001,2024_Jan_01_1631,ANT,2021.2.3,60.00672076897275,
1,9,center,up,C,L,,,,,,Block.xlsx,"你已经完成了第一个实验区组

请稍作休息


点击空格键进入下一个区组。",0,50,1.5,left,LLLLL.png,,,,,0,0,0,0,3,17,89,8,,,,,,,,,,,,,,,,,,,,,,,,,,,,,,,,,,,,,,,,,,,,,,,,,,,,,,,,,,,,,,,,,,,,,,329.7589487999794,330.15970149997156,330.1438206000021,330.2437656999682,330.6438903999515,None,left,1,0.44446690002223477,330.6438903999515,None,330.1438206000021,330.2437656999682,330.2437656999682,None,331.11132409999846,None,,,,,,,11009,001,2024_Jan_01_1631,ANT,2021.2.3,60.00672076897275,
1,19,spatial,up,IC,L,,,,,,Block.xlsx,"你已经完成了第一个实验区组

请稍作休息


点击空格键进入下一个区组。",1.5,0,1.5,left,RRLRR.png,,,,,0,0,0,0,3,18,90,18,,,,,,,,,,,,,,,,,,,,,,,,,,,,,,,,,,,,,,,,,,,,,,,,,,,,,,,,,,,,,,,,,,,,,,331.511723899981,331.9129041999695,331.8963094999781,331.9973893999704,332.3978503999533,None,left,1,0.4676740000140853,332.3978503999533,None,331.8963094999781,331.9973893999704,331.9973893999704,None,332.880283699953,None,,,,,,,11009,001,2024_Jan_01_1631,ANT,2021.2.3,60.00672076897275,
1,22,spatial,down,C,R,,,,,,Block.xlsx,"你已经完成了第一个实验区组

请稍作休息


点击空格键进入下一个区组。",-1.5,0,-1.5,right,RRRRR.png,,,,,0,0,0,0,3,19,91,21,,,,,,,,,,,,,,,,,,,,,,,,,,,,,,,,,,,,,,,,,,,,,,,,,,,,,,,,,,,,,,,,,,,,,,333.2815906999749,333.68153309996706,333.66571999998996,333.76612679997925,334.16675439995015,None,right,1,0.5147862000158057,334.16675439995015,None,333.66571999998996,333.76612679997925,333.76612679997925,None,334.6998500999762,None,,,,,,,11009,001,2024_Jan_01_1631,ANT,2021.2.3,60.00672076897275,
1,3,no,up,IC,L,,,,,,Block.xlsx,"你已经完成了第一个实验区组

请稍作休息


点击空格键进入下一个区组。",50,0,1.5,left,RRLRR.png,,,,,0,0,0,0,3,20,92,2,,,,,,,,,,,,,,,,,,,,,,,,,,,,,,,,,,,,,,,,,,,,,,,,,,,,,,,,,,,,,,,,,,,,,,335.10028729995247,335.500782899966,335.4842170999618,335.58522019995144,335.98515129997395,None,left,1,0.5674223999958485,335.98515129997395,None,335.4842170999618,335.58522019995144,335.58522019995144,None,336.5689963999903,None,,,,,,,11009,001,2024_Jan_01_1631,ANT,2021.2.3,60.00672076897275,
1,17,spatial,up,C,L,,,,,,Block.xlsx,"你已经完成了第一个实验区组

请稍作休息


点击空格键进入下一个区组。",1.5,0,1.5,left,LLLLL.png,,,,,0,0,0,0,3,21,93,16,,,,,,,,,,,,,,,,,,,,,,,,,,,,,,,,,,,,,,,,,,,,,,,,,,,,,,,,,,,,,,,,,,,,,,336.9697312999633,337.3713606999954,337.35422779998044,337.4542234999826,337.8559478999814,None,left,1,0.4246023000450805,337.8559478999814,None,337.35422779998044,337.4542234999826,337.4542234999826,None,338.3051753999898,None,,,,,,,11009,001,2024_Jan_01_1631,ANT,2021.2.3,60.00672076897275,
1,9,center,up,C,L,,,,,,Block.xlsx,"你已经完成了第一个实验区组

请稍作休息


点击空格键进入下一个区组。",0,50,1.5,left,LLLLL.png,,,,,0,0,0,0,3,22,94,8,,,,,,,,,,,,,,,,,,,,,,,,,,,,,,,,,,,,,,,,,,,,,,,,,,,,,,,,,,,,,,,,,,,,,,338.70624739996856,339.1084893999505,339.0901054999558,339.19219209998846,339.5920161999529,None,left,1,0.45671360002597794,339.5920161999529,None,339.0901054999558,339.19219209998846,339.19219209998846,None,340.0743555999943,None,,,,,,,11009,001,2024_Jan_01_1631,ANT,2021.2.3,60.00672076897275,
1,10,center,up,C,R,,,,,,Block.xlsx,"你已经完成了第一个实验区组

请稍作休息


点击空格键进入下一个区组。",0,50,1.5,right,RRRRR.png,,,,,0,0,0,0,3,23,95,9,,,,,,,,,,,,,,,,,,,,,,,,,,,,,,,,,,,,,,,,,,,,,,,,,,,,,,,,,,,,,,,,,,,,,,340.47489749995293,340.87632069998654,340.858916600002,340.9590181999956,341.360126799962,None,right,1,0.4809743000078015,341.360126799962,None,340.858916600002,340.9590181999956,340.9590181999956,None,341.8601171999471,None,,,,,,,11009,001,2024_Jan_01_1631,ANT,2021.2.3,60.00672076897275,
,,,,,,,,,,,Block.xlsx,"你已经完成了第一个实验区组

请稍作休息


点击空格键进入下一个区组。",,,,,,,,,,0,0,0,0,,,,,,,,,,,,,,,,,,,,,,,,,,,,,,,,,,,,,,,,,,,,,,,,,,,,,,,,,,,,,,,,,,,,,,,,,,,,,,,,,,,,,,,,,,,space,6.283733299991582,342.2606318999897,None,342.2606318999897,None,11009,001,2024_Jan_01_1631,ANT,2021.2.3,60.00672076897275,
1,4,no,up,IC,R,,,,,,Block.xlsx,"你已经完成了整个实验（三个区组）。

请报告实验者已完成实验

非常感谢，再见！",50,0,1.5,right,LLRLL.png,,,,,0,1,1,1,0,0,0,3,,,,,,,,,,,,,,,,,,,,,,,,,,,,,,,,,,,,,,,,,,,,,,,,,,,,,,,,,,,,,,,,,,,,,,348.5865508999559,348.9878159999498,348.97162589995423,349.0732580999611,349.47161449998384,None,right,1,0.5689129999955185,349.47161449998384,None,348.97162589995423,349.0732580999611,349.0732580999611,None,350.0560939999996,None,,,,,,,11009,001,2024_Jan_01_1631,ANT,2021.2.3,60.00672076897275,
1,6,no,down,C,R,,,,,,Block.xlsx,"你已经完成了整个实验（三个区组）。

请报告实验者已完成实验

非常感谢，再见！",50,0,-1.5,right,RRRRR.png,,,,,0,1,1,1,0,1,1,5,,,,,,,,,,,,,,,,,,,,,,,,,,,,,,,,,,,,,,,,,,,,,,,,,,,,,,,,,,,,,,,,,,,,,,350.45748599997023,350.8571620999719,350.84215429995675,350.94123099994613,351.34227999998257,None,right,1,0.4580464999889955,351.34227999998257,None,350.84215429995675,350.94123099994613,350.94123099994613,None,351.8251475999714,None,,,,,,,11009,001,2024_Jan_01_1631,ANT,2021.2.3,60.00672076897275,
1,8,no,down,IC,R,,,,,,Block.xlsx,"你已经完成了整个实验（三个区组）。

请报告实验者已完成实验

非常感谢，再见！",50,0,-1.5,right,LLRLL.png,,,,,0,1,1,1,0,2,2,7,,,,,,,,,,,,,,,,,,,,,,,,,,,,,,,,,,,,,,,,,,,,,,,,,,,,,,,,,,,,,,,,,,,,,,352.22572429996217,352.62740579998353,352.6096256999881,352.7106973999762,353.11058859998593,None,right,1,0.49051749997306615,353.11058859998593,None,352.6096256999881,352.7106973999762,352.7106973999762,None,353.62773099995684,None,,,,,,,11009,001,2024_Jan_01_1631,ANT,2021.2.3,60.00672076897275,
1,15,center,down,IC,L,,,,,,Block.xlsx,"你已经完成了整个实验（三个区组）。

请报告实验者已完成实验

非常感谢，再见！",0,50,-1.5,left,RRLRR.png,,,,,0,1,1,1,0,3,3,14,,,,,,,,,,,,,,,,,,,,,,,,,,,,,,,,,,,,,,,,,,,,,,,,,,,,,,,,,,,,,,,,,,,,,,354.02837209997233,354.4308594999602,354.41289709997363,354.51358759996947,354.91440749994945,None,left,1,0.4701124000130221,354.91440749994945,None,354.41289709997363,354.51358759996947,354.51358759996947,None,355.4135864999844,None,,,,,,,11009,001,2024_Jan_01_1631,ANT,2021.2.3,60.00672076897275,
1,8,no,down,IC,R,,,,,,Block.xlsx,"你已经完成了整个实验（三个区组）。

请报告实验者已完成实验

非常感谢，再见！",50,0,-1.5,right,LLRLL.png,,,,,0,1,1,1,0,4,4,7,,,,,,,,,,,,,,,,,,,,,,,,,,,,,,,,,,,,,,,,,,,,,,,,,,,,,,,,,,,,,,,,,,,,,,355.81446359999245,356.2166503999615,356.19890889996896,356.29928179999115,356.70090269995853,None,right,1,0.4595553000108339,356.70090269995853,None,356.19890889996896,356.29928179999115,356.29928179999115,None,357.18301789998077,None,,,,,,,11009,001,2024_Jan_01_1631,ANT,2021.2.3,60.00672076897275,
1,20,spatial,up,IC,R,,,,,,Block.xlsx,"你已经完成了整个实验（三个区组）。

请报告实验者已完成实验

非常感谢，再见！",1.5,0,1.5,right,LLRLL.png,,,,,0,1,1,1,0,5,5,19,,,,,,,,,,,,,,,,,,,,,,,,,,,,,,,,,,,,,,,,,,,,,,,,,,,,,,,,,,,,,,,,,,,,,,357.5838458999642,357.9846373999608,357.9673752999515,358.06817089999095,358.4690286999685,None,right,1,0.5321130999946035,358.4690286999685,None,357.9673752999515,358.06817089999095,358.06817089999095,None,359.0193669999717,None,,,,,,,11009,001,2024_Jan_01_1631,ANT,2021.2.3,60.00672076897275,
1,15,center,down,IC,L,,,,,,Block.xlsx,"你已经完成了整个实验（三个区组）。

请报告实验者已完成实验

非常感谢，再见！",0,50,-1.5,left,RRLRR.png,,,,,0,1,1,1,0,6,6,14,,,,,,,,,,,,,,,,,,,,,,,,,,,,,,,,,,,,,,,,,,,,,,,,,,,,,,,,,,,,,,,,,,,,,,359.41944359999616,359.8209129999741,359.80332359997556,359.90438939997694,360.3044574999949,None,left,1,0.4885051000164822,360.3044574999949,None,359.80332359997556,359.90438939997694,359.90438939997694,None,360.82176299998537,None,,,,,,,11009,001,2024_Jan_01_1631,ANT,2021.2.3,60.00672076897275,
1,22,spatial,down,C,R,,,,,,Block.xlsx,"你已经完成了整个实验（三个区组）。

请报告实验者已完成实验

非常感谢，再见！",-1.5,0,-1.5,right,RRRRR.png,,,,,0,1,1,1,0,7,7,21,,,,,,,,,,,,,,,,,,,,,,,,,,,,,,,,,,,,,,,,,,,,,,,,,,,,,,,,,,,,,,,,,,,,,,361.2224416999961,361.6238017999567,361.60658349998994,361.70680549996905,362.1077379999915,None,right,1,0.42072920000646263,362.1077379999915,None,361.60658349998994,361.70680549996905,361.70680549996905,None,362.5575996999978,None,,,,,,,11009,001,2024_Jan_01_1631,ANT,2021.2.3,60.00672076897275,
1,22,spatial,down,C,R,,,,,,Block.xlsx,"你已经完成了整个实验（三个区组）。

请报告实验者已完成实验

非常感谢，再见！",-1.5,0,-1.5,right,RRRRR.png,,,,,0,1,1,1,0,8,8,21,,,,,,,,,,,,,,,,,,,,,,,,,,,,,,,,,,,,,,,,,,,,,,,,,,,,,,,,,,,,,,,,,,,,,,362.95817489997717,363.3594191999873,363.34239700000035,363.44237299996894,363.84379639994586,None,right,1,0.5246225000009872,363.84379639994586,None,363.34239700000035,363.44237299996894,363.44237299996894,None,364.39353169995593,None,,,,,,,11009,001,2024_Jan_01_1631,ANT,2021.2.3,60.00672076897275,
1,21,spatial,down,C,L,,,,,,Block.xlsx,"你已经完成了整个实验（三个区组）。

请报告实验者已完成实验

非常感谢，再见！",-1.5,0,-1.5,left,LLLLL.png,,,,,0,1,1,1,0,9,9,20,,,,,,,,,,,,,,,,,,,,,,,,,,,,,,,,,,,,,,,,,,,,,,,,,,,,,,,,,,,,,,,,,,,,,,364.79437809996307,365.195097799995,365.18016599997645,365.2795868999674,365.6798758999794,None,left,1,0.4245883999974467,365.6798758999794,None,365.18016599997645,365.2795868999674,365.2795868999674,None,366.12965639994945,None,,,,,,,11009,001,2024_Jan_01_1631,ANT,2021.2.3,60.00672076897275,
1,22,spatial,down,C,R,,,,,,Block.xlsx,"你已经完成了整个实验（三个区组）。

请报告实验者已完成实验

非常感谢，再见！",-1.5,0,-1.5,right,RRRRR.png,,,,,0,1,1,1,0,10,10,21,,,,,,,,,,,,,,,,,,,,,,,,,,,,,,,,,,,,,,,,,,,,,,,,,,,,,,,,,,,,,,,,,,,,,,366.5302994999802,366.9317098999745,366.91491919994587,367.0142966999556,367.4154004000011,None,right,1,0.4658625999582,367.4154004000011,None,366.91491919994587,367.0142966999556,367.0142966999556,None,367.89925339998445,None,,,,,,,11009,001,2024_Jan_01_1631,ANT,2021.2.3,60.00672076897275,
1,11,center,up,IC,L,,,,,,Block.xlsx,"你已经完成了整个实验（三个区组）。

请报告实验者已完成实验

非常感谢，再见！",0,50,1.5,left,RRLRR.png,,,,,0,1,1,1,0,11,11,10,,,,,,,,,,,,,,,,,,,,,,,,,,,,,,,,,,,,,,,,,,,,,,,,,,,,,,,,,,,,,,,,,,,,,,368.2994016999728,368.70151609997265,368.6846603999729,368.8014241999481,369.18546189996414,None,left,1,0.5999483999912627,369.18546189996414,None,368.6846603999729,368.8014241999481,368.78458869998576,None,369.8016319999588,None,,,,,,,11009,001,2024_Jan_01_1631,ANT,2021.2.3,60.00672076897275,
1,2,no,up,C,R,,,,,,Block.xlsx,"你已经完成了整个实验（三个区组）。

请报告实验者已完成实验

非常感谢，再见！",50,0,1.5,right,RRRRR.png,,,,,0,1,1,1,0,12,12,1,,,,,,,,,,,,,,,,,,,,,,,,,,,,,,,,,,,,,,,,,,,,,,,,,,,,,,,,,,,,,,,,,,,,,,370.20227079995675,370.603249399981,370.5872610999504,370.6871486999444,371.0887040999951,None,right,1,0.45577529998263344,371.0887040999951,None,370.5872610999504,370.6871486999444,370.6871486999444,None,371.57123879995197,None,,,,,,,11009,001,2024_Jan_01_1631,ANT,2021.2.3,60.00672076897275,
1,4,no,up,IC,R,,,,,,Block.xlsx,"你已经完成了整个实验（三个区组）。

请报告实验者已完成实验

非常感谢，再见！",50,0,1.5,right,LLRLL.png,,,,,0,1,1,1,0,13,13,3,,,,,,,,,,,,,,,,,,,,,,,,,,,,,,,,,,,,,,,,,,,,,,,,,,,,,,,,,,,,,,,,,,,,,,371.971576299984,372.372244499973,372.355519899982,372.45546689996263,372.8560925999773,None,right,1,0.5924766999669373,372.8560925999773,None,372.355519899982,372.45546689996263,372.45546689996263,None,373.4741293999832,None,,,,,,,11009,001,2024_Jan_01_1631,ANT,2021.2.3,60.00672076897275,
1,12,center,up,IC,R,,,,,,Block.xlsx,"你已经完成了整个实验（三个区组）。

请报告实验者已完成实验

非常感谢，再见！",0,50,1.5,right,LLRLL.png,,,,,0,1,1,1,0,14,14,11,,,,,,,,,,,,,,,,,,,,,,,,,,,,,,,,,,,,,,,,,,,,,,,,,,,,,,,,,,,,,,,,,,,,,,373.874462399981,374.2753268999513,374.2583363999729,374.35889879998285,374.75961179996375,None,right,1,0.48094010003842413,374.75961179996375,None,374.2583363999729,374.35889879998285,374.35889879998285,None,375.26000889996067,None,,,,,,,11009,001,2024_Jan_01_1631,ANT,2021.2.3,60.00672076897275,
1,11,center,up,IC,L,,,,,,Block.xlsx,"你已经完成了整个实验（三个区组）。

请报告实验者已完成实验

非常感谢，再见！",0,50,1.5,left,RRLRR.png,,,,,0,1,1,1,0,15,15,10,,,,,,,,,,,,,,,,,,,,,,,,,,,,,,,,,,,,,,,,,,,,,,,,,,,,,,,,,,,,,,,,,,,,,,375.6603277999675,376.0611791999545,376.0442382999463,376.1444732999662,376.5456643999787,None,left,1,0.5190293999621645,376.5456643999787,None,376.0442382999463,376.1444732999662,376.1444732999662,None,377.07903299998725,None,,,,,,,11009,001,2024_Jan_01_1631,ANT,2021.2.3,60.00672076897275,
1,13,center,down,C,L,,,,,,Block.xlsx,"你已经完成了整个实验（三个区组）。

请报告实验者已完成实验

非常感谢，再见！",0,50,-1.5,left,LLLLL.png,,,,,0,1,1,1,0,16,16,12,,,,,,,,,,,,,,,,,,,,,,,,,,,,,,,,,,,,,,,,,,,,,,,,,,,,,,,,,,,,,,,,,,,,,,377.4805098999641,377.8804551999783,377.8647383999778,377.9636944999802,378.36521849996643,None,left,1,0.5072244000039063,378.36521849996643,None,377.8647383999778,377.9636944999802,377.9636944999802,None,378.8985378999496,None,,,,,,,11009,001,2024_Jan_01_1631,ANT,2021.2.3,60.00672076897275,
1,7,no,down,IC,L,,,,,,Block.xlsx,"你已经完成了整个实验（三个区组）。

请报告实验者已完成实验

非常感谢，再见！",50,0,-1.5,left,RRLRR.png,,,,,0,1,1,1,0,17,17,6,,,,,,,,,,,,,,,,,,,,,,,,,,,,,,,,,,,,,,,,,,,,,,,,,,,,,,,,,,,,,,,,,,,,,,379.3002516999841,379.6999040999799,379.68300499999896,379.7836172999814,380.18432010000106,None,left,1,0.4884258000529371,380.18432010000106,None,379.68300499999896,379.7836172999814,379.7836172999814,None,380.70099109999137,None,,,,,,,11009,001,2024_Jan_01_1631,ANT,2021.2.3,60.00672076897275,
1,18,spatial,up,C,R,,,,,,Block.xlsx,"你已经完成了整个实验（三个区组）。

请报告实验者已完成实验

非常感谢，再见！",1.5,0,1.5,right,RRRRR.png,,,,,0,1,1,1,0,18,18,17,,,,,,,,,,,,,,,,,,,,,,,,,,,,,,,,,,,,,,,,,,,,,,,,,,,,,,,,,,,,,,,,,,,,,,381.1016621000017,381.5023579999688,381.4857764999615,381.58669359999476,381.9864894999773,None,right,1,0.4301203000359237,381.9864894999773,None,381.4857764999615,381.58669359999476,381.58669359999476,None,382.43706239998573,None,,,,,,,11009,001,2024_Jan_01_1631,ANT,2021.2.3,60.00672076897275,
1,23,spatial,down,IC,L,,,,,,Block.xlsx,"你已经完成了整个实验（三个区组）。

请报告实验者已完成实验

非常感谢，再见！",-1.5,0,-1.5,left,RRLRR.png,,,,,0,1,1,1,0,19,19,22,,,,,,,,,,,,,,,,,,,,,,,,,,,,,,,,,,,,,,,,,,,,,,,,,,,,,,,,,,,,,,,,,,,,,,382.83770599996205,383.2398113999516,383.2221817999962,383.32192529999884,383.7229901999817,None,left,1,0.3982399000087753,383.7229901999817,None,383.2221817999962,383.32192529999884,383.32192529999884,None,384.139820899989,None,,,,,,,11009,001,2024_Jan_01_1631,ANT,2021.2.3,60.00672076897275,
1,9,center,up,C,L,,,,,,Block.xlsx,"你已经完成了整个实验（三个区组）。

请报告实验者已完成实验

非常感谢，再见！",0,50,1.5,left,LLLLL.png,,,,,0,1,1,1,0,20,20,8,,,,,,,,,,,,,,,,,,,,,,,,,,,,,,,,,,,,,,,,,,,,,,,,,,,,,,,,,,,,,,,,,,,,,,384.5414106999524,384.94103919999907,384.9261912999791,385.0252469999832,385.4256981999497,None,left,1,0.4629719000076875,385.4256981999497,None,384.9261912999791,385.0252469999832,385.0252469999832,None,385.9091344999615,None,,,,,,,11009,001,2024_Jan_01_1631,ANT,2021.2.3,60.00672076897275,
1,16,center,down,IC,R,,,,,,Block.xlsx,"你已经完成了整个实验（三个区组）。

请报告实验者已完成实验

非常感谢，再见！",0,50,-1.5,right,LLRLL.png,,,,,0,1,1,1,0,21,21,15,,,,,,,,,,,,,,,,,,,,,,,,,,,,,,,,,,,,,,,,,,,,,,,,,,,,,,,,,,,,,,,,,,,,,,386.3101049999823,386.71012419997714,386.6934886999661,386.7948071999708,387.1940418999875,None,right,1,0.550883200019598,387.1940418999875,None,386.6934886999661,386.7948071999708,386.7948071999708,None,387.76190259994473,None,,,,,,,11009,001,2024_Jan_01_1631,ANT,2021.2.3,60.00672076897275,
1,17,spatial,up,C,L,,,,,,Block.xlsx,"你已经完成了整个实验（三个区组）。

请报告实验者已完成实验

非常感谢，再见！",1.5,0,1.5,left,LLLLL.png,,,,,0,1,1,1,0,22,22,16,,,,,,,,,,,,,,,,,,,,,,,,,,,,,,,,,,,,,,,,,,,,,,,,,,,,,,,,,,,,,,,,,,,,,,388.1623206999502,388.5645855999901,388.54695789999096,388.6471691999468,389.0471981999581,None,left,1,0.3858483000076376,389.0471981999581,None,388.54695789999096,388.6471691999468,388.6471691999468,None,389.44753899995703,None,,,,,,,11009,001,2024_Jan_01_1631,ANT,2021.2.3,60.00672076897275,
1,10,center,up,C,R,,,,,,Block.xlsx,"你已经完成了整个实验（三个区组）。

请报告实验者已完成实验

非常感谢，再见！",0,50,1.5,right,RRRRR.png,,,,,0,1,1,1,0,23,23,9,,,,,,,,,,,,,,,,,,,,,,,,,,,,,,,,,,,,,,,,,,,,,,,,,,,,,,,,,,,,,,,,,,,,,,389.8481700999546,390.24842839996563,390.23317389999283,390.3328019999899,390.7338026999496,None,right,1,0.3642913000076078,390.7338026999496,None,390.23317389999283,390.3328019999899,390.3328019999899,None,391.11717799998587,None,,,,,,,11009,001,2024_Jan_01_1631,ANT,2021.2.3,60.00672076897275,
1,24,spatial,down,IC,R,,,,,,Block.xlsx,"你已经完成了整个实验（三个区组）。

请报告实验者已完成实验

非常感谢，再见！",-1.5,0,-1.5,right,LLRLL.png,,,,,0,1,1,1,1,0,24,23,,,,,,,,,,,,,,,,,,,,,,,,,,,,,,,,,,,,,,,,,,,,,,,,,,,,,,,,,,,,,,,,,,,,,,391.5172425999772,391.9180555999628,391.9027175999945,392.0013375999988,392.4020101999631,None,right,1,0.535288099956233,392.4020101999631,None,391.9027175999945,392.0013375999988,392.0013375999988,None,392.95275329996366,None,,,,,,,11009,001,2024_Jan_01_1631,ANT,2021.2.3,60.00672076897275,
1,1,no,up,C,L,,,,,,Block.xlsx,"你已经完成了整个实验（三个区组）。

请报告实验者已完成实验

非常感谢，再见！",50,0,1.5,left,LLLLL.png,,,,,0,1,1,1,1,1,25,0,,,,,,,,,,,,,,,,,,,,,,,,,,,,,,,,,,,,,,,,,,,,,,,,,,,,,,,,,,,,,,,,,,,,,,393.3537013999885,393.7544930999866,393.73770619998686,393.83769079996273,394.23887699999614,None,left,1,0.47362529998645186,394.23887699999614,None,393.73770619998686,393.83769079996273,393.83769079996273,None,394.7388521999819,None,,,,,,,11009,001,2024_Jan_01_1631,ANT,2021.2.3,60.00672076897275,
1,7,no,down,IC,L,,,,,,Block.xlsx,"你已经完成了整个实验（三个区组）。

请报告实验者已完成实验

非常感谢，再见！",50,0,-1.5,left,RRLRR.png,,,,,0,1,1,1,1,2,26,6,,,,,,,,,,,,,,,,,,,,,,,,,,,,,,,,,,,,,,,,,,,,,,,,,,,,,,,,,,,,,,,,,,,,,,395.1391848999774,395.54118959995685,395.52316439995775,395.6237741999794,396.0241502999561,None,left,1,0.6403973000124097,396.0241502999561,None,395.52316439995775,395.6237741999794,395.6237741999794,None,396.69144279998727,None,,,,,,,11009,001,2024_Jan_01_1631,ANT,2021.2.3,60.00672076897275,
1,12,center,up,IC,R,,,,,,Block.xlsx,"你已经完成了整个实验（三个区组）。

请报告实验者已完成实验

非常感谢，再见！",0,50,1.5,right,LLRLL.png,,,,,0,1,1,1,1,3,27,11,,,,,,,,,,,,,,,,,,,,,,,,,,,,,,,,,,,,,,,,,,,,,,,,,,,,,,,,,,,,,,,,,,,,,,397.09238019998884,397.49429699999746,397.4764173000003,397.57719039998483,397.9774666999583,None,right,1,0.5112944000284187,397.9774666999583,None,397.4764173000003,397.57719039998483,397.57719039998483,None,398.51071599998977,None,,,,,,,11009,001,2024_Jan_01_1631,ANT,2021.2.3,60.00672076897275,
1,8,no,down,IC,R,,,,,,Block.xlsx,"你已经完成了整个实验（三个区组）。

请报告实验者已完成实验

非常感谢，再见！",50,0,-1.5,right,LLRLL.png,,,,,0,1,1,1,1,4,28,7,,,,,,,,,,,,,,,,,,,,,,,,,,,,,,,,,,,,,,,,,,,,,,,,,,,,,,,,,,,,,,,,,,,,,,398.91182129998924,399.31380539998645,399.2955324999639,399.3965469999821,399.7980464999564,None,right,1,0.5626649000332691,399.7980464999564,None,399.2955324999639,399.3965469999821,399.3965469999821,None,400.3802644999814,None,,,,,,,11009,001,2024_Jan_01_1631,ANT,2021.2.3,60.00672076897275,
1,16,center,down,IC,R,,,,,,Block.xlsx,"你已经完成了整个实验（三个区组）。

请报告实验者已完成实验

非常感谢，再见！",0,50,-1.5,right,LLRLL.png,,,,,0,1,1,1,1,5,29,15,,,,,,,,,,,,,,,,,,,,,,,,,,,,,,,,,,,,,,,,,,,,,,,,,,,,,,,,,,,,,,,,,,,,,,400.780902199971,401.1824118999648,401.16479109996,401.26481579995016,401.666691099992,None,right,1,0.46255589998327196,401.666691099992,None,401.16479109996,401.26481579995016,401.26481579995016,None,402.14959619997535,None,,,,,,,11009,001,2024_Jan_01_1631,ANT,2021.2.3,60.00672076897275,
1,23,spatial,down,IC,L,,,,,,Block.xlsx,"你已经完成了整个实验（三个区组）。

请报告实验者已完成实验

非常感谢，再见！",-1.5,0,-1.5,left,RRLRR.png,,,,,0,1,1,1,1,6,30,22,,,,,,,,,,,,,,,,,,,,,,,,,,,,,,,,,,,,,,,,,,,,,,,,,,,,,,,,,,,,,,,,,,,,,,402.5501367999823,402.9522908999934,402.9351307999459,403.0350653999485,403.4359796999488,None,left,1,0.485017400002107,403.4359796999488,None,402.9351307999459,403.0350653999485,403.0350653999485,None,403.93557669996517,None,,,,,,,11009,001,2024_Jan_01_1631,ANT,2021.2.3,60.00672076897275,
1,19,spatial,up,IC,L,,,,,,Block.xlsx,"你已经完成了整个实验（三个区组）。

请报告实验者已完成实验

非常感谢，再见！",1.5,0,1.5,left,RRLRR.png,,,,,0,1,1,1,1,7,31,18,,,,,,,,,,,,,,,,,,,,,,,,,,,,,,,,,,,,,,,,,,,,,,,,,,,,,,,,,,,,,,,,,,,,,,404.3362776999711,404.73845139995683,404.7212318999809,404.82165539998095,405.22174509998877,None,left,1,0.4108771000173874,405.22174509998877,None,404.7212318999809,404.82165539998095,404.82165539998095,None,405.65462839999236,None,,,,,,,11009,001,2024_Jan_01_1631,ANT,2021.2.3,60.00672076897275,
1,14,center,down,C,R,,,,,,Block.xlsx,"你已经完成了整个实验（三个区组）。

请报告实验者已完成实验

非常感谢，再见！",0,50,-1.5,right,RRRRR.png,,,,,0,1,1,1,1,8,32,13,,,,,,,,,,,,,,,,,,,,,,,,,,,,,,,,,,,,,,,,,,,,,,,,,,,,,,,,,,,,,,,,,,,,,,406.0556468999712,406.45614369999385,406.44070259999717,406.55745259998366,406.94035779999103,None,right,1,0.5162972999969497,406.94035779999103,None,406.44070259999717,406.55745259998366,406.54024239996215,None,407.47423899994465,None,,,,,,,11009,001,2024_Jan_01_1631,ANT,2021.2.3,60.00672076897275,
1,17,spatial,up,C,L,,,,,,Block.xlsx,"你已经完成了整个实验（三个区组）。

请报告实验者已完成实验

非常感谢，再见！",1.5,0,1.5,left,LLLLL.png,,,,,0,1,1,1,1,9,33,16,,,,,,,,,,,,,,,,,,,,,,,,,,,,,,,,,,,,,,,,,,,,,,,,,,,,,,,,,,,,,,,,,,,,,,407.87463629996637,408.2752799000009,408.259268099966,408.3597950999974,408.76225109997904,None,left,1,0.39051719999406487,408.76225109997904,None,408.259268099966,408.3597950999974,408.3597950999974,None,409.1766083999537,None,,,,,,,11009,001,2024_Jan_01_1631,ANT,2021.2.3,60.00672076897275,
1,18,spatial,up,C,R,,,,,,Block.xlsx,"你已经完成了整个实验（三个区组）。

请报告实验者已完成实验

非常感谢，再见！",1.5,0,1.5,right,RRRRR.png,,,,,0,1,1,1,1,10,34,17,,,,,,,,,,,,,,,,,,,,,,,,,,,,,,,,,,,,,,,,,,,,,,,,,,,,,,,,,,,,,,,,,,,,,,409.5775493999827,409.97990819998085,409.96180369996,410.06133429997135,410.4622603999451,None,right,1,0.3942774999886751,410.4622603999451,None,409.96180369996,410.06133429997135,410.06133429997135,None,410.8791887999978,None,,,,,,,11009,001,2024_Jan_01_1631,ANT,2021.2.3,60.00672076897275,
1,4,no,up,IC,R,,,,,,Block.xlsx,"你已经完成了整个实验（三个区组）。

请报告实验者已完成实验

非常感谢，再见！",50,0,1.5,right,LLRLL.png,,,,,0,1,1,1,1,11,35,3,,,,,,,,,,,,,,,,,,,,,,,,,,,,,,,,,,,,,,,,,,,,,,,,,,,,,,,,,,,,,,,,,,,,,,411.28028299997095,411.6807070999639,411.66477639996447,411.7651253999793,412.1656624999596,None,right,1,0.5313322000438347,412.1656624999596,None,411.66477639996447,411.7651253999793,411.7651253999793,None,412.7153256999445,None,,,,,,,11009,001,2024_Jan_01_1631,ANT,2021.2.3,60.00672076897275,
1,19,spatial,up,IC,L,,,,,,Block.xlsx,"你已经完成了整个实验（三个区组）。

请报告实验者已完成实验

非常感谢，再见！",1.5,0,1.5,left,RRLRR.png,,,,,0,1,1,1,1,12,36,18,,,,,,,,,,,,,,,,,,,,,,,,,,,,,,,,,,,,,,,,,,,,,,,,,,,,,,,,,,,,,,,,,,,,,,413.11628439999186,413.51750859996537,413.50021999998717,413.6014710999443,414.00052329996834,None,left,1,0.4330828000092879,414.00052329996834,None,413.50021999998717,413.6014710999443,413.6014710999443,None,414.45111869997345,None,,,,,,,11009,001,2024_Jan_01_1631,ANT,2021.2.3,60.00672076897275,
1,2,no,up,C,R,,,,,,Block.xlsx,"你已经完成了整个实验（三个区组）。

请报告实验者已完成实验

非常感谢，再见！",50,0,1.5,right,RRRRR.png,,,,,0,1,1,1,1,13,37,1,,,,,,,,,,,,,,,,,,,,,,,,,,,,,,,,,,,,,,,,,,,,,,,,,,,,,,,,,,,,,,,,,,,,,,414.85190519999014,415.2545340999495,415.2356126999948,415.33699999999953,415.7387103999499,None,right,1,0.48579519998747855,415.7387103999499,None,415.2356126999948,415.33699999999953,415.33699999999953,None,416.2540231999592,None,,,,,,,11009,001,2024_Jan_01_1631,ANT,2021.2.3,60.00672076897275,
1,11,center,up,IC,L,,,,,,Block.xlsx,"你已经完成了整个实验（三个区组）。

请报告实验者已完成实验

非常感谢，再见！",0,50,1.5,left,RRLRR.png,,,,,0,1,1,1,1,14,38,10,,,,,,,,,,,,,,,,,,,,,,,,,,,,,,,,,,,,,,,,,,,,,,,,,,,,,,,,,,,,,,,,,,,,,,416.6554611999891,417.0553604000015,417.03810559998965,417.1399868999724,417.5419622999616,None,left,1,0.5385814000037499,417.5419622999616,None,417.03810559998965,417.1399868999724,417.1399868999724,None,418.1064808999654,None,,,,,,,11009,001,2024_Jan_01_1631,ANT,2021.2.3,60.00672076897275,
1,14,center,down,C,R,,,,,,Block.xlsx,"你已经完成了整个实验（三个区组）。

请报告实验者已完成实验

非常感谢，再见！",0,50,-1.5,right,RRRRR.png,,,,,0,1,1,1,1,15,39,13,,,,,,,,,,,,,,,,,,,,,,,,,,,,,,,,,,,,,,,,,,,,,,,,,,,,,,,,,,,,,,,,,,,,,,418.50767889997223,418.9095215999987,418.8916945999954,418.9934037999483,419.3923061999958,None,right,1,0.472738400043454,419.3923061999958,None,418.8916945999954,418.9934037999483,418.9934037999483,None,419.89304239995545,None,,,,,,,11009,001,2024_Jan_01_1631,ANT,2021.2.3,60.00672076897275,
1,8,no,down,IC,R,,,,,,Block.xlsx,"你已经完成了整个实验（三个区组）。

请报告实验者已完成实验

非常感谢，再见！",50,0,-1.5,right,LLRLL.png,,,,,0,1,1,1,1,16,40,7,,,,,,,,,,,,,,,,,,,,,,,,,,,,,,,,,,,,,,,,,,,,,,,,,,,,,,,,,,,,,,,,,,,,,,420.29459109995514,420.69583679997595,420.6770378999645,420.7777511999593,421.1786654999596,None,right,1,0.5417928000097163,421.1786654999596,None,420.6770378999645,420.7777511999593,420.7777511999593,None,421.7454417999834,None,,,,,,,11009,001,2024_Jan_01_1631,ANT,2021.2.3,60.00672076897275,
1,20,spatial,up,IC,R,,,,,,Block.xlsx,"你已经完成了整个实验（三个区组）。

请报告实验者已完成实验

非常感谢，再见！",1.5,0,1.5,right,LLRLL.png,,,,,0,1,1,1,1,17,41,19,,,,,,,,,,,,,,,,,,,,,,,,,,,,,,,,,,,,,,,,,,,,,,,,,,,,,,,,,,,,,,,,,,,,,,422.14600869995775,422.5478855999536,422.53028169996105,422.63013119995594,423.0310618999647,None,right,1,0.5134888999746181,423.0310618999647,None,422.53028169996105,422.63013119995594,422.63013119995594,None,423.5647591999732,None,,,,,,,11009,001,2024_Jan_01_1631,ANT,2021.2.3,60.00672076897275,
1,23,spatial,down,IC,L,,,,,,Block.xlsx,"你已经完成了整个实验（三个区组）。

请报告实验者已完成实验

非常感谢，再见！",-1.5,0,-1.5,left,RRLRR.png,,,,,0,1,1,1,1,18,42,22,,,,,,,,,,,,,,,,,,,,,,,,,,,,,,,,,,,,,,,,,,,,,,,,,,,,,,,,,,,,,,,,,,,,,,423.9653893999639,424.3671819999581,424.3495621999609,424.4495307999896,424.8504040999687,None,left,1,0.5581131000071764,424.8504040999687,None,424.3495621999609,424.4495307999896,424.4495307999896,None,425.4342787999776,None,,,,,,,11009,001,2024_Jan_01_1631,ANT,2021.2.3,60.00672076897275,
1,17,spatial,up,C,L,,,,,,Block.xlsx,"你已经完成了整个实验（三个区组）。

请报告实验者已完成实验

非常感谢，再见！",1.5,0,1.5,left,LLLLL.png,,,,,0,1,1,1,1,19,43,16,,,,,,,,,,,,,,,,,,,,,,,,,,,,,,,,,,,,,,,,,,,,,,,,,,,,,,,,,,,,,,,,,,,,,,425.8347690999508,426.2358488999889,426.2188366999617,426.3188648999785,426.72148409998044,None,left,1,0.40717749996110797,426.72148409998044,None,426.2188366999617,426.3188648999785,426.3188648999785,None,427.15330369997537,None,,,,,,,11009,001,2024_Jan_01_1631,ANT,2021.2.3,60.00672076897275,
1,2,no,up,C,R,,,,,,Block.xlsx,"你已经完成了整个实验（三个区组）。

请报告实验者已完成实验

非常感谢，再见！",50,0,1.5,right,RRRRR.png,,,,,0,1,1,1,1,20,44,1,,,,,,,,,,,,,,,,,,,,,,,,,,,,,,,,,,,,,,,,,,,,,,,,,,,,,,,,,,,,,,,,,,,,,,427.55447289999574,427.9569890999701,427.9387584999786,428.038473099994,428.43940749997273,None,right,1,0.481337999983225,428.43940749997273,None,427.9387584999786,428.038473099994,428.038473099994,None,428.9391809999943,None,,,,,,,11009,001,2024_Jan_01_1631,ANT,2021.2.3,60.00672076897275,
1,21,spatial,down,C,L,,,,,,Block.xlsx,"你已经完成了整个实验（三个区组）。

请报告实验者已完成实验

非常感谢，再见！",-1.5,0,-1.5,left,LLLLL.png,,,,,0,1,1,1,1,21,45,20,,,,,,,,,,,,,,,,,,,,,,,,,,,,,,,,,,,,,,,,,,,,,,,,,,,,,,,,,,,,,,,,,,,,,,429.3401996999746,429.74053769995226,429.72430939995684,429.82626799994614,430.22692279994953,None,left,1,0.4701158000389114,430.22692279994953,None,429.72430939995684,429.82626799994614,429.82626799994614,None,430.7253015000024,None,,,,,,,11009,001,2024_Jan_01_1631,ANT,2021.2.3,60.00672076897275,
1,4,no,up,IC,R,,,,,,Block.xlsx,"你已经完成了整个实验（三个区组）。

请报告实验者已完成实验

非常感谢，再见！",50,0,1.5,right,LLRLL.png,,,,,0,1,1,1,1,22,46,3,,,,,,,,,,,,,,,,,,,,,,,,,,,,,,,,,,,,,,,,,,,,,,,,,,,,,,,,,,,,,,,,,,,,,,431.12617319996934,431.52646679995814,431.51059749996057,431.6100823999732,432.01143479999155,None,right,1,0.5730767999775708,432.01143479999155,None,431.51059749996057,431.6100823999732,431.6100823999732,None,432.6119423999917,None,,,,,,,11009,001,2024_Jan_01_1631,ANT,2021.2.3,60.00672076897275,
1,3,no,up,IC,L,,,,,,Block.xlsx,"你已经完成了整个实验（三个区组）。

请报告实验者已完成实验

非常感谢，再见！",50,0,1.5,left,RRLRR.png,,,,,0,1,1,1,1,23,47,2,,,,,,,,,,,,,,,,,,,,,,,,,,,,,,,,,,,,,,,,,,,,,,,,,,,,,,,,,,,,,,,,,,,,,,433.01223479997134,433.4134538999642,433.395927799982,433.4977621999569,433.89742599998135,None,left,1,0.48701569996774197,433.89742599998135,None,433.395927799982,433.4977621999569,433.4977621999569,None,434.41491870000027,None,,,,,,,11009,001,2024_Jan_01_1631,ANT,2021.2.3,60.00672076897275,
1,24,spatial,down,IC,R,,,,,,Block.xlsx,"你已经完成了整个实验（三个区组）。

请报告实验者已完成实验

非常感谢，再见！",-1.5,0,-1.5,right,LLRLL.png,,,,,0,1,1,1,2,0,48,23,,,,,,,,,,,,,,,,,,,,,,,,,,,,,,,,,,,,,,,,,,,,,,,,,,,,,,,,,,,,,,,,,,,,,,434.8151233999524,435.21649479999905,435.19910249998793,435.2993237999617,435.701806499972,None,right,1,0.5388659000163898,435.701806499972,None,435.19910249998793,435.2993237999617,435.2993237999617,None,436.2668328,None,,,,,,,11009,001,2024_Jan_01_1631,ANT,2021.2.3,60.00672076897275,
1,22,spatial,down,C,R,,,,,,Block.xlsx,"你已经完成了整个实验（三个区组）。

请报告实验者已完成实验

非常感谢，再见！",-1.5,0,-1.5,right,RRRRR.png,,,,,0,1,1,1,2,1,49,21,,,,,,,,,,,,,,,,,,,,,,,,,,,,,,,,,,,,,,,,,,,,,,,,,,,,,,,,,,,,,,,,,,,,,,436.6673058999586,437.06798849999905,437.05139149999013,437.1534888999886,437.55196759995306,None,right,1,0.43297999998321757,437.55196759995306,None,437.05139149999013,437.1534888999886,437.1534888999886,None,438.00281009997707,None,,,,,,,11009,001,2024_Jan_01_1631,ANT,2021.2.3,60.00672076897275,
1,5,no,down,C,L,,,,,,Block.xlsx,"你已经完成了整个实验（三个区组）。

请报告实验者已完成实验

非常感谢，再见！",50,0,-1.5,left,LLLLL.png,,,,,0,1,1,1,2,2,50,4,,,,,,,,,,,,,,,,,,,,,,,,,,,,,,,,,,,,,,,,,,,,,,,,,,,,,,,,,,,,,,,,,,,,,,438.4033219999983,438.80528469994897,438.7880039999727,438.8876728999894,439.2881582999835,None,left,1,0.480417899962049,439.2881582999835,None,438.7880039999727,438.8876728999894,438.8876728999894,None,439.7895648999838,None,,,,,,,11009,001,2024_Jan_01_1631,ANT,2021.2.3,60.00672076897275,
1,20,spatial,up,IC,R,,,,,,Block.xlsx,"你已经完成了整个实验（三个区组）。

请报告实验者已完成实验

非常感谢，再见！",1.5,0,1.5,right,LLRLL.png,,,,,0,1,1,1,2,3,51,19,,,,,,,,,,,,,,,,,,,,,,,,,,,,,,,,,,,,,,,,,,,,,,,,,,,,,,,,,,,,,,,,,,,,,,440.18940149998525,440.5918849000009,440.57379639998544,440.6740793999634,441.0754152999725,None,right,1,0.4694287999882363,441.0754152999725,None,440.57379639998544,440.6740793999634,440.6740793999634,None,441.57489099999657,None,,,,,,,11009,001,2024_Jan_01_1631,ANT,2021.2.3,60.00672076897275,
1,21,spatial,down,C,L,,,,,,Block.xlsx,"你已经完成了整个实验（三个区组）。

请报告实验者已完成实验

非常感谢，再见！",-1.5,0,-1.5,left,LLLLL.png,,,,,0,1,1,1,2,4,52,20,,,,,,,,,,,,,,,,,,,,,,,,,,,,,,,,,,,,,,,,,,,,,,,,,,,,,,,,,,,,,,,,,,,,,,441.975552399992,442.37759389996063,442.36008610000135,442.46178129996406,442.86038989998633,None,left,1,0.4361636000103317,442.86038989998633,None,442.36008610000135,442.46178129996406,442.46178129996406,None,443.3274778999621,None,,,,,,,11009,001,2024_Jan_01_1631,ANT,2021.2.3,60.00672076897275,
1,10,center,up,C,R,,,,,,Block.xlsx,"你已经完成了整个实验（三个区组）。

请报告实验者已完成实验

非常感谢，再见！",0,50,1.5,right,RRRRR.png,,,,,0,1,1,1,2,5,53,9,,,,,,,,,,,,,,,,,,,,,,,,,,,,,,,,,,,,,,,,,,,,,,,,,,,,,,,,,,,,,,,,,,,,,,443.72794579999754,444.12902100000065,444.11335329996655,444.2288386999862,444.61462229996687,None,right,1,0.47408650000579655,444.61462229996687,None,444.11335329996655,444.2288386999862,444.21321779995924,None,445.11321829998633,None,,,,,,,11009,001,2024_Jan_01_1631,ANT,2021.2.3,60.00672076897275,
1,23,spatial,down,IC,L,,,,,,Block.xlsx,"你已经完成了整个实验（三个区组）。

请报告实验者已完成实验

非常感谢，再见！",-1.5,0,-1.5,left,RRLRR.png,,,,,0,1,1,1,2,6,54,22,,,,,,,,,,,,,,,,,,,,,,,,,,,,,,,,,,,,,,,,,,,,,,,,,,,,,,,,,,,,,,,,,,,,,,445.5140891999472,445.91694769996684,445.8982488999609,445.9981741999509,446.3988260999904,None,left,1,0.5379278000327758,446.3988260999904,None,445.8982488999609,445.9981741999509,445.9981741999509,None,446.96602309995797,None,,,,,,,11009,001,2024_Jan_01_1631,ANT,2021.2.3,60.00672076897275,
1,6,no,down,C,R,,,,,,Block.xlsx,"你已经完成了整个实验（三个区组）。

请报告实验者已完成实验

非常感谢，再见！",50,0,-1.5,right,RRRRR.png,,,,,0,1,1,1,2,7,55,5,,,,,,,,,,,,,,,,,,,,,,,,,,,,,,,,,,,,,,,,,,,,,,,,,,,,,,,,,,,,,,,,,,,,,,447.36715549998917,447.76767679996556,447.7519246999873,447.8521900999476,448.2537017999566,None,right,1,0.4748029999900609,448.2537017999566,None,447.7519246999873,447.8521900999476,447.8521900999476,None,448.7518252999871,None,,,,,,,11009,001,2024_Jan_01_1631,ANT,2021.2.3,60.00672076897275,
1,19,spatial,up,IC,L,,,,,,Block.xlsx,"你已经完成了整个实验（三个区组）。

请报告实验者已完成实验

非常感谢，再见！",1.5,0,1.5,left,RRLRR.png,,,,,0,1,1,1,2,8,56,18,,,,,,,,,,,,,,,,,,,,,,,,,,,,,,,,,,,,,,,,,,,,,,,,,,,,,,,,,,,,,,,,,,,,,,449.1526815999532,449.5535746999667,449.5365613999893,449.63677969999844,450.0376893999637,None,left,1,0.410969499964267,450.0376893999637,None,449.5365613999893,449.63677969999844,449.63677969999844,None,450.4714124999591,None,,,,,,,11009,001,2024_Jan_01_1631,ANT,2021.2.3,60.00672076897275,
1,13,center,down,C,L,,,,,,Block.xlsx,"你已经完成了整个实验（三个区组）。

请报告实验者已完成实验

非常感谢，再见！",0,50,-1.5,left,LLLLL.png,,,,,0,1,1,1,2,9,57,12,,,,,,,,,,,,,,,,,,,,,,,,,,,,,,,,,,,,,,,,,,,,,,,,,,,,,,,,,,,,,,,,,,,,,,450.8724209999782,451.27308759995503,451.2561080000014,451.35718859999906,451.7573296999908,None,left,1,0.4674680999596603,451.7573296999908,None,451.2561080000014,451.35718859999906,451.35718859999906,None,452.2404622999602,None,,,,,,,11009,001,2024_Jan_01_1631,ANT,2021.2.3,60.00672076897275,
1,24,spatial,down,IC,R,,,,,,Block.xlsx,"你已经完成了整个实验（三个区组）。

请报告实验者已完成实验

非常感谢，再见！",-1.5,0,-1.5,right,LLRLL.png,,,,,0,1,1,1,2,10,58,23,,,,,,,,,,,,,,,,,,,,,,,,,,,,,,,,,,,,,,,,,,,,,,,,,,,,,,,,,,,,,,,,,,,,,,452.6410274999798,453.0417322999565,453.02529299998423,453.1259405000019,453.5272314999602,None,right,1,0.47313980001490563,453.5272314999602,None,453.02529299998423,453.1259405000019,453.1259405000019,None,454.02683190000243,None,,,,,,,11009,001,2024_Jan_01_1631,ANT,2021.2.3,60.00672076897275,
1,21,spatial,down,C,L,,,,,,Block.xlsx,"你已经完成了整个实验（三个区组）。

请报告实验者已完成实验

非常感谢，再见！",-1.5,0,-1.5,left,LLLLL.png,,,,,0,1,1,1,2,11,59,20,,,,,,,,,,,,,,,,,,,,,,,,,,,,,,,,,,,,,,,,,,,,,,,,,,,,,,,,,,,,,,,,,,,,,,454.42699709994486,454.8288687999593,454.8121364999679,454.9130829999922,455.3121667999658,None,left,1,0.39246830000774935,455.3121667999658,None,454.8121364999679,454.9130829999922,454.9130829999922,None,455.7289179999498,None,,,,,,,11009,001,2024_Jan_01_1631,ANT,2021.2.3,60.00672076897275,
1,17,spatial,up,C,L,,,,,,Block.xlsx,"你已经完成了整个实验（三个区组）。

请报告实验者已完成实验

非常感谢，再见！",1.5,0,1.5,left,LLLLL.png,,,,,0,1,1,1,2,12,60,16,,,,,,,,,,,,,,,,,,,,,,,,,,,,,,,,,,,,,,,,,,,,,,,,,,,,,,,,,,,,,,,,,,,,,,456.1295524999732,456.5317329999525,456.51370379998116,456.6152881999733,457.0144311999902,None,left,1,0.458514700003434,457.0144311999902,None,456.51370379998116,456.6152881999733,456.6152881999733,None,457.49834369996097,None,,,,,,,11009,001,2024_Jan_01_1631,ANT,2021.2.3,60.00672076897275,
1,5,no,down,C,L,,,,,,Block.xlsx,"你已经完成了整个实验（三个区组）。

请报告实验者已完成实验

非常感谢，再见！",50,0,-1.5,left,LLLLL.png,,,,,0,1,1,1,2,13,61,4,,,,,,,,,,,,,,,,,,,,,,,,,,,,,,,,,,,,,,,,,,,,,,,,,,,,,,,,,,,,,,,,,,,,,,457.8997365999967,458.30081989994505,458.2838912999723,458.3839138999465,458.7838661999558,None,left,1,0.47321159997954965,458.7838661999558,None,458.2838912999723,458.3839138999465,458.3839138999465,None,459.2842702999478,None,,,,,,,11009,001,2024_Jan_01_1631,ANT,2021.2.3,60.00672076897275,
1,9,center,up,C,L,,,,,,Block.xlsx,"你已经完成了整个实验（三个区组）。

请报告实验者已完成实验

非常感谢，再见！",0,50,1.5,left,LLLLL.png,,,,,0,1,1,1,2,14,62,8,,,,,,,,,,,,,,,,,,,,,,,,,,,,,,,,,,,,,,,,,,,,,,,,,,,,,,,,,,,,,,,,,,,,,,459.6849864999531,460.0861850999645,460.07093879999593,460.18769130000146,460.5715467999689,None,left,1,0.4611484999768436,460.5715467999689,None,460.07093879999593,460.18769130000146,460.1696902999538,None,461.05334199999925,None,,,,,,,11009,001,2024_Jan_01_1631,ANT,2021.2.3,60.00672076897275,
1,24,spatial,down,IC,R,,,,,,Block.xlsx,"你已经完成了整个实验（三个区组）。

请报告实验者已完成实验

非常感谢，再见！",-1.5,0,-1.5,right,LLRLL.png,,,,,0,1,1,1,2,15,63,23,,,,,,,,,,,,,,,,,,,,,,,,,,,,,,,,,,,,,,,,,,,,,,,,,,,,,,,,,,,,,,,,,,,,,,461.454413999978,461.855413399986,461.83829669997795,461.93963049998274,462.3386313999654,None,right,1,0.48628130002180114,462.3386313999654,None,461.83829669997795,461.93963049998274,461.93963049998274,None,462.8561366999638,None,,,,,,,11009,001,2024_Jan_01_1631,ANT,2021.2.3,60.00672076897275,
1,13,center,down,C,L,,,,,,Block.xlsx,"你已经完成了整个实验（三个区组）。

请报告实验者已完成实验

非常感谢，再见！",0,50,-1.5,left,LLLLL.png,,,,,0,1,1,1,2,16,64,12,,,,,,,,,,,,,,,,,,,,,,,,,,,,,,,,,,,,,,,,,,,,,,,,,,,,,,,,,,,,,,,,,,,,,,463.25750319997314,463.657547299983,463.6413951999857,463.7437341999612,464.1418856999953,None,left,1,0.4358691000379622,464.1418856999953,None,463.6413951999857,463.7437341999612,463.7437341999612,None,464.5922674999456,None,,,,,,,11009,001,2024_Jan_01_1631,ANT,2021.2.3,60.00672076897275,
1,14,center,down,C,R,,,,,,Block.xlsx,"你已经完成了整个实验（三个区组）。

请报告实验者已完成实验

非常感谢，再见！",0,50,-1.5,right,RRRRR.png,,,,,0,1,1,1,2,17,65,13,,,,,,,,,,,,,,,,,,,,,,,,,,,,,,,,,,,,,,,,,,,,,,,,,,,,,,,,,,,,,,,,,,,,,,464.9930083999643,465.39470599999186,465.3766437000013,465.4785088999779,465.87920649995795,None,right,1,0.40127739997114986,465.87920649995795,None,465.3766437000013,465.4785088999779,465.4785088999779,None,466.3119198999484,None,,,,,,,11009,001,2024_Jan_01_1631,ANT,2021.2.3,60.00672076897275,
1,10,center,up,C,R,,,,,,Block.xlsx,"你已经完成了整个实验（三个区组）。

请报告实验者已完成实验

非常感谢，再见！",0,50,1.5,right,RRRRR.png,,,,,0,1,1,1,2,18,66,9,,,,,,,,,,,,,,,,,,,,,,,,,,,,,,,,,,,,,,,,,,,,,,,,,,,,,,,,,,,,,,,,,,,,,,466.7118996999925,467.11297969997395,467.0964847999858,467.1963906000019,467.59665119997226,None,right,1,0.5318776000058278,467.59665119997226,None,467.0964847999858,467.1963906000019,467.1963906000019,None,468.14742110000225,None,,,,,,,11009,001,2024_Jan_01_1631,ANT,2021.2.3,60.00672076897275,
1,20,spatial,up,IC,R,,,,,,Block.xlsx,"你已经完成了整个实验（三个区组）。

请报告实验者已完成实验

非常感谢，再见！",1.5,0,1.5,right,LLRLL.png,,,,,0,1,1,1,2,19,67,19,,,,,,,,,,,,,,,,,,,,,,,,,,,,,,,,,,,,,,,,,,,,,,,,,,,,,,,,,,,,,,,,,,,,,,468.5482027999824,468.950760799984,468.93258869997226,469.0328067999799,469.43261560000246,None,right,1,0.5438282000250183,469.43261560000246,None,468.93258869997226,469.0328067999799,469.0328067999799,None,470.0001942999661,None,,,,,,,11009,001,2024_Jan_01_1631,ANT,2021.2.3,60.00672076897275,
1,12,center,up,IC,R,,,,,,Block.xlsx,"你已经完成了整个实验（三个区组）。

请报告实验者已完成实验

非常感谢，再见！",0,50,1.5,right,LLRLL.png,,,,,0,1,1,1,2,20,68,11,,,,,,,,,,,,,,,,,,,,,,,,,,,,,,,,,,,,,,,,,,,,,,,,,,,,,,,,,,,,,,,,,,,,,,470.40126859996235,470.8013299999875,470.78582929994445,470.88592799997423,471.28550489997724,None,right,1,0.47527629998512566,471.28550489997724,None,470.78582929994445,470.88592799997423,470.88592799997423,None,471.7862283999566,None,,,,,,,11009,001,2024_Jan_01_1631,ANT,2021.2.3,60.00672076897275,
1,11,center,up,IC,L,,,,,,Block.xlsx,"你已经完成了整个实验（三个区组）。

请报告实验者已完成实验

非常感谢，再见！",0,50,1.5,left,RRLRR.png,,,,,0,1,1,1,2,21,69,10,,,,,,,,,,,,,,,,,,,,,,,,,,,,,,,,,,,,,,,,,,,,,,,,,,,,,,,,,,,,,,,,,,,,,,472.18773939996026,472.58856809994904,472.57101889996557,472.670842099993,473.07165459997486,None,left,1,0.4891335999709554,473.07165459997486,None,472.57101889996557,472.670842099993,472.670842099993,None,473.5887919999659,None,,,,,,,11009,001,2024_Jan_01_1631,ANT,2021.2.3,60.00672076897275,
1,10,center,up,C,R,,,,,,Block.xlsx,"你已经完成了整个实验（三个区组）。

请报告实验者已完成实验

非常感谢，再见！",0,50,1.5,right,RRRRR.png,,,,,0,1,1,1,2,22,70,9,,,,,,,,,,,,,,,,,,,,,,,,,,,,,,,,,,,,,,,,,,,,,,,,,,,,,,,,,,,,,,,,,,,,,,473.9898873999482,474.3900376999518,474.37654519994976,474.4907416999922,474.8742939999793,None,right,1,0.40683470002841204,474.8742939999793,None,474.37654519994976,474.4907416999922,474.47460169997066,None,475.3081931999768,None,,,,,,,11009,001,2024_Jan_01_1631,ANT,2021.2.3,60.00672076897275,
1,9,center,up,C,L,,,,,,Block.xlsx,"你已经完成了整个实验（三个区组）。

请报告实验者已完成实验

非常感谢，再见！",0,50,1.5,left,LLLLL.png,,,,,0,1,1,1,2,23,71,8,,,,,,,,,,,,,,,,,,,,,,,,,,,,,,,,,,,,,,,,,,,,,,,,,,,,,,,,,,,,,,,,,,,,,,475.7089960000012,476.1104284999892,476.0929639999522,476.1933181999484,476.5943502999726,None,left,1,0.438465700019151,476.5943502999726,None,476.0929639999522,476.1933181999484,476.1933181999484,None,477.06068229995435,None,,,,,,,11009,001,2024_Jan_01_1631,ANT,2021.2.3,60.00672076897275,
1,3,no,up,IC,L,,,,,,Block.xlsx,"你已经完成了整个实验（三个区组）。

请报告实验者已完成实验

非常感谢，再见！",50,0,1.5,left,RRLRR.png,,,,,0,1,1,1,3,0,72,2,,,,,,,,,,,,,,,,,,,,,,,,,,,,,,,,,,,,,,,,,,,,,,,,,,,,,,,,,,,,,,,,,,,,,,477.46169589995407,477.8625657999655,477.8459521999466,477.9465695999679,478.3461110999924,None,left,1,0.6150639000115916,478.3461110999924,None,477.8459521999466,477.9465695999679,477.9465695999679,None,478.9806273999857,None,,,,,,,11009,001,2024_Jan_01_1631,ANT,2021.2.3,60.00672076897275,
1,15,center,down,IC,L,,,,,,Block.xlsx,"你已经完成了整个实验（三个区组）。

请报告实验者已完成实验

非常感谢，再见！",0,50,-1.5,left,RRLRR.png,,,,,0,1,1,1,3,1,73,14,,,,,,,,,,,,,,,,,,,,,,,,,,,,,,,,,,,,,,,,,,,,,,,,,,,,,,,,,,,,,,,,,,,,,,479.3817852999782,479.7816442999756,479.76456539996434,479.86487559997477,480.2656860999996,None,left,1,0.6237094000098296,480.2656860999996,None,479.76456539996434,479.86487559997477,479.86487559997477,None,480.91631279996363,None,,,,,,,11009,001,2024_Jan_01_1631,ANT,2021.2.3,60.00672076897275,
1,2,no,up,C,R,,,,,,Block.xlsx,"你已经完成了整个实验（三个区组）。

请报告实验者已完成实验

非常感谢，再见！",50,0,1.5,right,RRRRR.png,,,,,0,1,1,1,3,2,74,1,,,,,,,,,,,,,,,,,,,,,,,,,,,,,,,,,,,,,,,,,,,,,,,,,,,,,,,,,,,,,,,,,,,,,,481.31751529994654,481.7185732999933,481.7013912999537,481.80198309995467,482.2024879999808,None,right,1,0.510076200007461,482.2024879999808,None,481.7013912999537,481.80198309995467,481.80198309995467,None,482.7358286999515,None,,,,,,,11009,001,2024_Jan_01_1631,ANT,2021.2.3,60.00672076897275,
1,15,center,down,IC,L,,,,,,Block.xlsx,"你已经完成了整个实验（三个区组）。

请报告实验者已完成实验

非常感谢，再见！",0,50,-1.5,left,RRLRR.png,,,,,0,1,1,1,3,3,75,14,,,,,,,,,,,,,,,,,,,,,,,,,,,,,,,,,,,,,,,,,,,,,,,,,,,,,,,,,,,,,,,,,,,,,,483.13636649999535,483.5369558999664,483.5216742999619,483.620871799998,484.0216248999932,None,left,1,0.5870777999516577,484.0216248999932,None,483.5216742999619,483.620871799998,483.620871799998,None,484.6385584999807,None,,,,,,,11009,001,2024_Jan_01_1631,ANT,2021.2.3,60.00672076897275,
1,16,center,down,IC,R,,,,,,Block.xlsx,"你已经完成了整个实验（三个区组）。

请报告实验者已完成实验

非常感谢，再见！",0,50,-1.5,right,LLRLL.png,,,,,0,1,1,1,3,4,76,15,,,,,,,,,,,,,,,,,,,,,,,,,,,,,,,,,,,,,,,,,,,,,,,,,,,,,,,,,,,,,,,,,,,,,,485.03923209995264,485.4413562999689,485.42423649999546,485.5404812999768,485.9247476999881,None,right,1,0.5557084999745712,485.9247476999881,None,485.42423649999546,485.5404812999768,485.52451289998135,None,486.5079113999964,None,,,,,,,11009,001,2024_Jan_01_1631,ANT,2021.2.3,60.00672076897275,
1,1,no,up,C,L,,,,,,Block.xlsx,"你已经完成了整个实验（三个区组）。

请报告实验者已完成实验

非常感谢，再见！",50,0,1.5,left,LLLLL.png,,,,,0,1,1,1,3,5,77,0,,,,,,,,,,,,,,,,,,,,,,,,,,,,,,,,,,,,,,,,,,,,,,,,,,,,,,,,,,,,,,,,,,,,,,486.9083701999625,487.309254999971,487.29391729994677,487.4094074999448,487.79397999995854,None,left,1,0.511110799969174,487.79397999995854,None,487.29391729994677,487.4094074999448,487.3927107999916,None,488.32740119996015,None,,,,,,,11009,001,2024_Jan_01_1631,ANT,2021.2.3,60.00672076897275,
1,1,no,up,C,L,,,,,,Block.xlsx,"你已经完成了整个实验（三个区组）。

请报告实验者已完成实验

非常感谢，再见！",50,0,1.5,left,LLLLL.png,,,,,0,1,1,1,3,6,78,0,,,,,,,,,,,,,,,,,,,,,,,,,,,,,,,,,,,,,,,,,,,,,,,,,,,,,,,,,,,,,,,,,,,,,,488.7279826999875,489.12988049996784,489.11386219999986,489.2306330999709,489.6133753999602,None,left,1,0.4595967999775894,489.6133753999602,None,489.11386219999986,489.2306330999709,489.2124346999917,None,490.0965286999708,None,,,,,,,11009,001,2024_Jan_01_1631,ANT,2021.2.3,60.00672076897275,
1,12,center,up,IC,R,,,,,,Block.xlsx,"你已经完成了整个实验（三个区组）。

请报告实验者已完成实验

非常感谢，再见！",0,50,1.5,right,LLRLL.png,,,,,0,1,1,1,3,7,79,11,,,,,,,,,,,,,,,,,,,,,,,,,,,,,,,,,,,,,,,,,,,,,,,,,,,,,,,,,,,,,,,,,,,,,,490.4978957999847,490.89813929999946,490.8817347000004,490.9819126999937,491.38184859999456,None,right,1,0.707022099988535,491.38184859999456,None,490.8817347000004,490.9819126999937,490.9819126999937,None,492.1162818999728,None,,,,,,,11009,001,2024_Jan_01_1631,ANT,2021.2.3,60.00672076897275,
1,3,no,up,IC,L,,,,,,Block.xlsx,"你已经完成了整个实验（三个区组）。

请报告实验者已完成实验

非常感谢，再见！",50,0,1.5,left,RRLRR.png,,,,,0,1,1,1,3,8,80,2,,,,,,,,,,,,,,,,,,,,,,,,,,,,,,,,,,,,,,,,,,,,,,,,,,,,,,,,,,,,,,,,,,,,,,492.517411799985,492.92002859996865,492.901673699962,493.0030220999615,493.40324889996555,None,left,1,0.47848479996901006,493.40324889996555,None,492.901673699962,493.0030220999615,493.0030220999615,None,493.9022648999817,None,,,,,,,11009,001,2024_Jan_01_1631,ANT,2021.2.3,60.00672076897275,
1,5,no,down,C,L,,,,,,Block.xlsx,"你已经完成了整个实验（三个区组）。

请报告实验者已完成实验

非常感谢，再见！",50,0,-1.5,left,LLLLL.png,,,,,0,1,1,1,3,9,81,4,,,,,,,,,,,,,,,,,,,,,,,,,,,,,,,,,,,,,,,,,,,,,,,,,,,,,,,,,,,,,,,,,,,,,,494.3029078999534,494.70446249999804,494.6868057999527,494.78739249997307,495.18959759996505,None,left,1,0.49100340000586584,495.18959759996505,None,494.6868057999527,494.78739249997307,494.78739249997307,None,495.7049536999548,None,,,,,,,11009,001,2024_Jan_01_1631,ANT,2021.2.3,60.00672076897275,
1,3,no,up,IC,L,,,,,,Block.xlsx,"你已经完成了整个实验（三个区组）。

请报告实验者已完成实验

非常感谢，再见！",50,0,1.5,left,RRLRR.png,,,,,0,1,1,1,3,10,82,2,,,,,,,,,,,,,,,,,,,,,,,,,,,,,,,,,,,,,,,,,,,,,,,,,,,,,,,,,,,,,,,,,,,,,,496.1057535999571,496.50633109995397,496.4903454000014,496.5920366999926,496.9908269000007,None,left,1,0.5857173999538645,496.9908269000007,None,496.4903454000014,496.5920366999926,496.5920366999926,None,497.59115789999487,None,,,,,,,11009,001,2024_Jan_01_1631,ANT,2021.2.3,60.00672076897275,
1,7,no,down,IC,L,,,,,,Block.xlsx,"你已经完成了整个实验（三个区组）。

请报告实验者已完成实验

非常感谢，再见！",50,0,-1.5,left,RRLRR.png,,,,,0,1,1,1,3,11,83,6,,,,,,,,,,,,,,,,,,,,,,,,,,,,,,,,,,,,,,,,,,,,,,,,,,,,,,,,,,,,,,,,,,,,,,497.9919126999448,498.3943379999837,498.3759771999903,498.476643699978,498.8772930999985,None,left,1,0.483625499997288,498.8772930999985,None,498.3759771999903,498.476643699978,498.476643699978,None,499.37708929996006,None,,,,,,,11009,001,2024_Jan_01_1631,ANT,2021.2.3,60.00672076897275,
1,18,spatial,up,C,R,,,,,,Block.xlsx,"你已经完成了整个实验（三个区组）。

请报告实验者已完成实验

非常感谢，再见！",1.5,0,1.5,right,RRRRR.png,,,,,0,1,1,1,3,12,84,17,,,,,,,,,,,,,,,,,,,,,,,,,,,,,,,,,,,,,,,,,,,,,,,,,,,,,,,,,,,,,,,,,,,,,,499.7780349999666,500.17922869999893,500.16318419994786,500.26312679995317,500.6631793999695,None,right,1,0.4416188999894075,500.6631793999695,None,500.16318419994786,500.26312679995317,500.26312679995317,None,501.1299473999534,None,,,,,,,11009,001,2024_Jan_01_1631,ANT,2021.2.3,60.00672076897275,
1,18,spatial,up,C,R,,,,,,Block.xlsx,"你已经完成了整个实验（三个区组）。

请报告实验者已完成实验

非常感谢，再见！",1.5,0,1.5,right,RRRRR.png,,,,,0,1,1,1,3,13,85,17,,,,,,,,,,,,,,,,,,,,,,,,,,,,,,,,,,,,,,,,,,,,,,,,,,,,,,,,,,,,,,,,,,,,,,501.5302492999472,501.9323233999894,501.91419979999773,502.01567219995195,502.4150081999833,None,right,1,0.3936853999621235,502.4150081999833,None,501.91419979999773,502.01567219995195,502.01567219995195,None,502.83221739996225,None,,,,,,,11009,001,2024_Jan_01_1631,ANT,2021.2.3,60.00672076897275,
1,5,no,down,C,L,,,,,,Block.xlsx,"你已经完成了整个实验（三个区组）。

请报告实验者已完成实验

非常感谢，再见！",50,0,-1.5,left,LLLLL.png,,,,,0,1,1,1,3,14,86,4,,,,,,,,,,,,,,,,,,,,,,,,,,,,,,,,,,,,,,,,,,,,,,,,,,,,,,,,,,,,,,,,,,,,,,503.23260079999454,503.63347549998434,503.6188326999545,503.73417929996504,504.1182748999563,None,left,1,0.4824436000199057,504.1182748999563,None,503.6188326999545,503.73417929996504,503.7190389999887,None,504.6181902999524,None,,,,,,,11009,001,2024_Jan_01_1631,ANT,2021.2.3,60.00672076897275,
1,6,no,down,C,R,,,,,,Block.xlsx,"你已经完成了整个实验（三个区组）。

请报告实验者已完成实验

非常感谢，再见！",50,0,-1.5,right,RRRRR.png,,,,,0,1,1,1,3,15,87,5,,,,,,,,,,,,,,,,,,,,,,,,,,,,,,,,,,,,,,,,,,,,,,,,,,,,,,,,,,,,,,,,,,,,,,505.01877099997364,505.4204993999447,505.4034856999642,505.5026920999517,505.9042422999628,None,right,1,0.6081989000085741,505.9042422999628,None,505.4034856999642,505.5026920999517,505.5026920999517,None,506.53748179995455,None,,,,,,,11009,001,2024_Jan_01_1631,ANT,2021.2.3,60.00672076897275,
1,6,no,down,C,R,,,,,,Block.xlsx,"你已经完成了整个实验（三个区组）。

请报告实验者已完成实验

非常感谢，再见！",50,0,-1.5,right,RRRRR.png,,,,,0,1,1,1,3,16,88,5,,,,,,,,,,,,,,,,,,,,,,,,,,,,,,,,,,,,,,,,,,,,,,,,,,,,,,,,,,,,,,,,,,,,,,506.938463999948,507.33929249999346,507.3231095999945,507.4223866999964,507.82383229996776,None,right,1,0.48114250000799075,507.82383229996776,None,507.3231095999945,507.4223866999964,507.4223866999964,None,508.3237164999591,None,,,,,,,11009,001,2024_Jan_01_1631,ANT,2021.2.3,60.00672076897275,
1,13,center,down,C,L,,,,,,Block.xlsx,"你已经完成了整个实验（三个区组）。

请报告实验者已完成实验

