TrialType,TrialNumber,WarningType,TargetType,FlankerType,TargetDirection,W,f,Y,corr,imageFile,condition,endtext,Yw,Yf,Yt,Corr,imagefile,trials_3.thisRepN,trials_3.thisTrialN,trials_3.thisN,trials_3.thisIndex,trials_2.thisRepN,trials_2.thisTrialN,trials_2.thisN,trials_2.thisIndex,trials.thisRepN,trials.thisTrialN,trials.thisN,trials.thisIndex,instr.started,instr.stopped,key_resp.keys,key_resp.rt,key_resp.started,key_resp.stopped,image.started,image.stopped,key_resp_6.keys,key_resp_6.rt,key_resp_6.started,key_resp_6.stopped,EX_L.started,EX_L.stopped,AL.started,AL.stopped,key_resp_7.keys,key_resp_7.rt,key_resp_7.started,key_resp_7.stopped,EX_R.started,EX_R.stopped,RR.started,RR.stopped,key_resp_8.keys,key_resp_8.rt,key_resp_8.started,key_resp_8.stopped,image_2.started,image_2.stopped,key_resp_9.keys,key_resp_9.rt,key_resp_9.started,key_resp_9.stopped,image_3.started,image_3.stopped,key_resp_10.keys,key_resp_10.rt,key_resp_10.started,key_resp_10.stopped,fix.started,fix.stopped,war.started,war.stopped,tar.started,tar.stopped,key_resp_4.keys,key_resp_4.corr,key_resp_4.rt,key_resp_4.started,key_resp_4.stopped,fix2.started,fix2.stopped,fix_2.started,fix_2.stopped,Feedback.started,Feedback.stopped,text.started,text.stopped,key_resp_11.keys,key_resp_11.rt,key_resp_11.started,key_resp_11.stopped,key_resp_2.keys,key_resp_2.rt,key_resp_2.started,key_resp_2.stopped,text_5.started,text_5.stopped,fix2_1.started,fix2_1.stopped,Warn.started,Warn.stopped,Tar.started,Tar.stopped,key_resp_5.keys,key_resp_5.corr,key_resp_5.rt,key_resp_5.started,key_resp_5.stopped,Fix_2.started,Fix_2.stopped,fix2_2.started,fix2_2.stopped,text_4.started,text_4.stopped,key_resp_3.keys,key_resp_3.rt,key_resp_3.started,key_resp_3.stopped,text_3.started,text_3.stopped,participant,session,date,expName,psychopyVersion,frameRate,
,,,,,,,,,,,,,,,,,,,,,,,,,,,,,,11.782555599987973,None,space,108.58017550001387,11.782555599987973,None,,,,,,,,,,,,,,,,,,,,,,,,,,,,,,,,,,,,,,,,,,,,,,,,,,,,,,,,,,,,,,,,,,,,,,,,,,,,,,,,,,,,,,,11008,001,2024_Jan_01_1530,ANT,2021.2.3,59.816983948097025,
,,,,,,,,,,,,,,,,,,,,,,,,,,,,,,,,,,,,120.39322709996486,None,space,24.738654599990696,120.39322709996486,None,,,,,,,,,,,,,,,,,,,,,,,,,,,,,,,,,,,,,,,,,,,,,,,,,,,,,,,,,,,,,,,,,,,,,,,,,,,,,,,,,11008,001,2024_Jan_01_1530,ANT,2021.2.3,59.816983948097025,
,,,,,,,,,,,,,,,,,,,,,,,,,,,,,,,,,,,,,,,,,,145.14641290000873,None,145.14641290000873,None,left,1.0324498999980278,145.14641290000873,None,,,,,,,,,,,,,,,,,,,,,,,,,,,,,,,,,,,,,,,,,,,,,,,,,,,,,,,,,,,,,,,,,,,,,,,,,11008,001,2024_Jan_01_1530,ANT,2021.2.3,59.816983948097025,
,,,,,,,,,,,,,,,,,,,,,,,,,,,,,,,,,,,,,,,,,,,,,,,,,,146.19791389995953,None,146.19791389995953,None,right,0.7650977000012062,146.19791389995953,None,,,,,,,,,,,,,,,,,,,,,,,,,,,,,,,,,,,,,,,,,,,,,,,,,,,,,,,,,,,,,,,,,11008,001,2024_Jan_01_1530,ANT,2021.2.3,59.816983948097025,
,,,,,,,,,,,,,,,,,,,,,,,,,,,,,,,,,,,,,,,,,,,,,,,,,,,,,,,,,,146.9828205999802,None,space,52.051935700001195,146.9828205999802,None,,,,,,,,,,,,,,,,,,,,,,,,,,,,,,,,,,,,,,,,,,,,,,,,,,,,,,,,,,,11008,001,2024_Jan_01_1530,ANT,2021.2.3,59.816983948097025,
,,,,,,,,,,,,,,,,,,,,,,,,,,,,,,,,,,,,,,,,,,,,,,,,,,,,,,,,,,,,,,,,199.05974489997607,None,space,15.703666599991266,199.05974489997607,None,,,,,,,,,,,,,,,,,,,,,,,,,,,,,,,,,,,,,,,,,,,,,,,,,,,,,11008,001,2024_Jan_01_1530,ANT,2021.2.3,59.816983948097025,
0,12,spatial,down,IC,R,-1.5,0,-1.5,right,LLRLL.png,,,,,,,,0,0,0,11,,,,,,,,,,,,,,,,,,,,,,,,,,,,,,,,,,,,,,,,,,,,,,,,,214.84943889995338,215.2515440999996,215.2343335999758,215.33375759999035,215.73572050000075,None,right,1,0.7636524000554346,215.73572050000075,None,215.2343335999758,215.33375759999035,215.33375759999035,None,216.53636029997142,None,,,,,,,,,,,,,,,,,,,,,,,,,,,,,,,,,,,,11008,001,2024_Jan_01_1530,ANT,2021.2.3,59.816983948097025,
0,3,no,down,C,R,50,0,-1.5,right,RRRRR.png,,,,,,,,0,1,1,2,,,,,,,,,,,,,,,,,,,,,,,,,,,,,,,,,,,,,,,,,,,,,,,,,218.53852349997032,218.9410413999576,218.92296979995444,219.02261260000523,219.42428719997406,None,right,1,0.5150502999895252,219.42428719997406,None,218.92296979995444,219.02261260000523,219.02261260000523,None,219.95720919995802,None,,,,,,,,,,,,,,,,,,,,,,,,,,,,,,,,,,,,11008,001,2024_Jan_01_1530,ANT,2021.2.3,59.816983948097025,
0,7,center,down,C,R,0,50,-1.5,right,RRRRR.png,,,,,,,,0,2,2,6,,,,,,,,,,,,,,,,,,,,,,,,,,,,,,,,,,,,,,,,,,,,,,,,,221.96043799998006,222.36313879996305,222.34494099998847,222.44479189999402,222.8451773999841,None,right,1,0.39851639996049926,222.8451773999841,None,222.34494099998847,222.44479189999402,222.44479189999402,None,223.26211339997826,None,,,,,,,,,,,,,,,,,,,,,,,,,,,,,,,,,,,,11008,001,2024_Jan_01_1530,ANT,2021.2.3,59.816983948097025,
0,10,spatial,up,IC,L,1.5,0,1.5,left,RRLRR.png,,,,,,,,0,3,3,9,,,,,,,,,,,,,,,,,,,,,,,,,,,,,,,,,,,,,,,,,,,,,,,,,225.26542019995395,225.66632359998766,225.64931179996347,225.75040209997678,226.1515434999601,None,left,1,0.635484499973245,226.1515434999601,None,225.64931179996347,225.75040209997678,225.75040209997678,None,226.81758460000856,None,,,,,,,,,,,,,,,,,,,,,,,,,,,,,,,,,,,,11008,001,2024_Jan_01_1530,ANT,2021.2.3,59.816983948097025,
0,4,no,down,IC,L,50,0,-1.5,left,RRLRR.png,,,,,,,,0,4,4,3,,,,,,,,,,,,,,,,,,,,,,,,,,,,,,,,,,,,,,,,,,,,,,,,,228.82054879999487,229.22215599997435,229.20437379996292,229.30451980000362,229.70543769997312,None,left,1,0.5382623000186868,229.70543769997312,None,229.20437379996292,229.30451980000362,229.30451980000362,None,230.27254809997976,None,,,,,,,,,,,,,,,,,,,,,,,,,,,,,,,,,,,,11008,001,2024_Jan_01_1530,ANT,2021.2.3,59.816983948097025,
0,5,center,up,C,L,0,50,1.5,left,LLLLL.png,,,,,,,,0,5,5,4,,,,,,,,,,,,,,,,,,,,,,,,,,,,,,,,,,,,,,,,,,,,,,,,,232.2758668999886,232.67675629997393,232.65955409995513,232.76040609995835,233.16100859997096,None,left,1,0.45799950003856793,233.16100859997096,None,232.65955409995513,232.76040609995835,232.76040609995835,None,233.64410629996564,None,,,,,,,,,,,,,,,,,,,,,,,,,,,,,,,,,,,,11008,001,2024_Jan_01_1530,ANT,2021.2.3,59.816983948097025,
0,11,spatial,down,C,L,-1.5,0,-1.5,left,LLLLL.png,,,,,,,,0,6,6,10,,,,,,,,,,,,,,,,,,,,,,,,,,,,,,,,,,,,,,,,,,,,,,,,,235.64729719999013,236.04763709998224,236.03203249996295,236.13349019997986,236.53278459998546,None,left,1,0.38246390002314,236.53278459998546,None,236.03203249996295,236.13349019997986,236.13349019997986,None,236.9326105999644,None,,,,,,,,,,,,,,,,,,,,,,,,,,,,,,,,,,,,11008,001,2024_Jan_01_1530,ANT,2021.2.3,59.816983948097025,
0,9,spatial,up,C,R,1.5,0,1.5,right,RRRRR.png,,,,,,,,0,7,7,8,,,,,,,,,,,,,,,,,,,,,,,,,,,,,,,,,,,,,,,,,,,,,,,,,238.93537289998494,239.33705969998846,239.3197067999863,239.4213675999781,239.82152709999355,None,right,1,0.397962799994275,239.82152709999355,None,239.3197067999863,239.4213675999781,239.4213675999781,None,240.23744429997168,None,,,,,,,,,,,,,,,,,,,,,,,,,,,,,,,,,,,,11008,001,2024_Jan_01_1530,ANT,2021.2.3,59.816983948097025,
0,2,no,up,IC,R,50,0,1.5,right,LLRLL.png,,,,,,,,0,8,8,1,,,,,,,,,,,,,,,,,,,,,,,,,,,,,,,,,,,,,,,,,,,,,,,,,242.24028019997058,242.64336139999796,242.62490110000363,242.72589529998368,243.12424519995693,None,right,1,0.5587913999916054,243.12424519995693,None,242.62490110000363,242.72589529998368,242.72589529998368,None,243.70918909995817,None,,,,,,,,,,,,,,,,,,,,,,,,,,,,,,,,,,,,11008,001,2024_Jan_01_1530,ANT,2021.2.3,59.816983948097025,
0,6,center,up,IC,R,0,50,1.5,right,LLRLL.png,,,,,,,,0,9,9,5,,,,,,,,,,,,,,,,,,,,,,,,,,,,,,,,,,,,,,,,,,,,,,,,,245.71280569996452,246.11299259995576,246.09736559999874,246.19729129999178,246.5987909999676,None,right,1,0.5566132999956608,246.5987909999676,None,246.09736559999874,246.19729129999178,246.19729129999178,None,247.18107729998883,None,,,,,,,,,,,,,,,,,,,,,,,,,,,,,,,,,,,,11008,001,2024_Jan_01_1530,ANT,2021.2.3,59.816983948097025,
0,8,center,down,IC,L,0,50,-1.5,left,RRLRR.png,,,,,,,,0,10,10,7,,,,,,,,,,,,,,,,,,,,,,,,,,,,,,,,,,,,,,,,,,,,,,,,,249.18411709996872,249.584808399959,249.57026760000736,249.66805029998068,250.06944619998103,None,left,1,0.5665606000111438,250.06944619998103,None,249.57026760000736,249.66805029998068,249.66805029998068,None,250.65280669997446,None,,,,,,,,,,,,,,,,,,,,,,,,,,,,,,,,,,,,11008,001,2024_Jan_01_1530,ANT,2021.2.3,59.816983948097025,
0,1,no,up,C,L,50,0,1.5,left,LLLLL.png,,,,,,,,0,11,11,0,,,,,,,,,,,,,,,,,,,,,,,,,,,,,,,,,,,,,,,,,,,,,,,,,252.65613289998146,253.05648009997094,253.0403471000027,253.14155469997786,253.54044259997318,None,left,1,0.39062570000533015,253.54044259997318,None,253.0403471000027,253.14155469997786,253.14155469997786,None,253.9577245999826,None,,,,,,,,,,,,,,,,,,,,,,,,,,,,,,,,,,,,11008,001,2024_Jan_01_1530,ANT,2021.2.3,59.816983948097025,
,,,,,,,,,,,,,,,,,,,,,,,,,,,,,,,,,,,,,,,,,,,,,,,,,,,,,,,,,,,,,,,,,,,,,,,,,,,,,,,,,,,,,,,255.9606472000014,None,space,1.7703200000105426,255.9606472000014,None,,,,,,,,,,,,,,,,,,,,,,,,,,,,,,11008,001,2024_Jan_01_1530,ANT,2021.2.3,59.816983948097025,
,,,,,,,,,,,,,,,,,,,,,,,,,,,,,,,,,,,,,,,,,,,,,,,,,,,,,,,,,,,,,,,,,,,,,,,,,,,,,,,,,,,,,,,,,,,,,space,11.296425400010776,257.74664239998674,None,,,,,,,,,,,,,,,,,,,,,,,,,,11008,001,2024_Jan_01_1530,ANT,2021.2.3,59.816983948097025,
1,10,center,up,C,R,,,,,,Block.xlsx,"你已经完成了第一个实验区组

请稍作休息


点击空格键进入下一个区组。",0,50,1.5,right,RRRRR.png,,,,,0,0,0,0,0,0,0,9,,,,,,,,,,,,,,,,,,,,,,,,,,,,,,,,,,,,,,,,,,,,,,,,,,,,,,,,,,,,,,,,,,,,257.74664239998674,None,269.0975084999809,269.49791609996464,269.48148829996353,269.58094029995846,269.98226809996413,None,right,1,0.4848776999861002,269.98226809996413,None,269.48148829996353,269.58094029995846,269.58094029995846,None,270.48223470000084,None,,,,,,,11008,001,2024_Jan_01_1530,ANT,2021.2.3,59.816983948097025,
1,11,center,up,IC,L,,,,,,Block.xlsx,"你已经完成了第一个实验区组

请稍作休息


点击空格键进入下一个区组。",0,50,1.5,left,RRLRR.png,,,,,0,0,0,0,0,1,1,10,,,,,,,,,,,,,,,,,,,,,,,,,,,,,,,,,,,,,,,,,,,,,,,,,,,,,,,,,,,,,,,,,,,,,,270.8838188999798,271.2838111000019,271.26667889999226,271.36803569999756,271.7680865000002,None,left,1,0.4833680000156164,271.7680865000002,None,271.26667889999226,271.36803569999756,271.36803569999756,None,272.26812799996696,None,,,,,,,11008,001,2024_Jan_01_1530,ANT,2021.2.3,59.816983948097025,
1,4,no,up,IC,R,,,,,,Block.xlsx,"你已经完成了第一个实验区组

请稍作休息


点击空格键进入下一个区组。",50,0,1.5,right,LLRLL.png,,,,,0,0,0,0,0,2,2,3,,,,,,,,,,,,,,,,,,,,,,,,,,,,,,,,,,,,,,,,,,,,,,,,,,,,,,,,,,,,,,,,,,,,,,272.6689181999536,273.0699321999564,273.05357819999335,273.1548218000098,273.55461699998705,None,right,1,0.5132876999559812,273.55461699998705,None,273.05357819999335,273.1548218000098,273.1548218000098,None,274.0875674999552,None,,,,,,,11008,001,2024_Jan_01_1530,ANT,2021.2.3,59.816983948097025,
1,19,spatial,up,IC,L,,,,,,Block.xlsx,"你已经完成了第一个实验区组

请稍作休息


点击空格键进入下一个区组。",1.5,0,1.5,left,RRLRR.png,,,,,0,0,0,0,0,3,3,18,,,,,,,,,,,,,,,,,,,,,,,,,,,,,,,,,,,,,,,,,,,,,,,,,,,,,,,,,,,,,,,,,,,,,,274.4890209999867,274.8899615999544,274.8721120999544,274.974156399956,275.37373910000315,None,left,1,0.41323990002274513,275.37373910000315,None,274.8721120999544,274.974156399956,274.974156399956,None,275.8067875999841,None,,,,,,,11008,001,2024_Jan_01_1530,ANT,2021.2.3,59.816983948097025,
1,14,center,down,C,R,,,,,,Block.xlsx,"你已经完成了第一个实验区组

请稍作休息


点击空格键进入下一个区组。",0,50,-1.5,right,RRRRR.png,,,,,0,0,0,0,0,4,4,13,,,,,,,,,,,,,,,,,,,,,,,,,,,,,,,,,,,,,,,,,,,,,,,,,,,,,,,,,,,,,,,,,,,,,,276.20723910001107,276.60917099996004,276.59154039999703,276.6937174999621,277.09288179996656,None,right,1,0.4701862999936566,277.09288179996656,None,276.59154039999703,276.6937174999621,276.6937174999621,None,277.59271749999607,None,,,,,,,11008,001,2024_Jan_01_1530,ANT,2021.2.3,59.816983948097025,
1,24,spatial,down,IC,R,,,,,,Block.xlsx,"你已经完成了第一个实验区组

请稍作休息


点击空格键进入下一个区组。",-1.5,0,-1.5,right,LLRLL.png,,,,,0,0,0,0,0,5,5,23,,,,,,,,,,,,,,,,,,,,,,,,,,,,,,,,,,,,,,,,,,,,,,,,,,,,,,,,,,,,,,,,,,,,,,277.99339459999464,278.3956792000099,278.3772748999763,278.47764249995816,278.8788961999817,None,right,1,0.38830519997281954,278.8788961999817,None,278.3772748999763,278.47764249995816,278.47764249995816,None,279.29533799999626,None,,,,,,,11008,001,2024_Jan_01_1530,ANT,2021.2.3,59.816983948097025,
1,2,no,up,C,R,,,,,,Block.xlsx,"你已经完成了第一个实验区组

请稍作休息


点击空格键进入下一个区组。",50,0,1.5,right,RRRRR.png,,,,,0,0,0,0,0,6,6,1,,,,,,,,,,,,,,,,,,,,,,,,,,,,,,,,,,,,,,,,,,,,,,,,,,,,,,,,,,,,,,,,,,,,,,279.69671180000296,280.09854099998483,280.0796724999673,280.1806615999667,280.58041180000873,None,right,1,0.5353264000150375,280.58041180000873,None,280.0796724999673,280.1806615999667,280.1806615999667,None,281.1314414999797,None,,,,,,,11008,001,2024_Jan_01_1530,ANT,2021.2.3,59.816983948097025,
1,2,no,up,C,R,,,,,,Block.xlsx,"你已经完成了第一个实验区组

请稍作休息


点击空格键进入下一个区组。",50,0,1.5,right,RRRRR.png,,,,,0,0,0,0,0,7,7,1,,,,,,,,,,,,,,,,,,,,,,,,,,,,,,,,,,,,,,,,,,,,,,,,,,,,,,,,,,,,,,,,,,,,,,281.5321241999627,281.9325695000007,281.9170858999714,282.01665050000884,282.41742499999236,None,right,1,0.40166480001062155,282.41742499999236,None,281.9170858999714,282.01665050000884,282.01665050000884,None,282.8507655999856,None,,,,,,,11008,001,2024_Jan_01_1530,ANT,2021.2.3,59.816983948097025,
1,9,center,up,C,L,,,,,,Block.xlsx,"你已经完成了第一个实验区组

请稍作休息


点击空格键进入下一个区组。",0,50,1.5,left,LLLLL.png,,,,,0,0,0,0,0,8,8,8,,,,,,,,,,,,,,,,,,,,,,,,,,,,,,,,,,,,,,,,,,,,,,,,,,,,,,,,,,,,,,,,,,,,,,283.25125239999034,283.6523569999845,283.63503219996346,283.7362489000079,284.136421800009,None,left,1,0.41084950004005805,284.136421800009,None,283.63503219996346,283.7362489000079,283.7362489000079,None,284.5701621999615,None,,,,,,,11008,001,2024_Jan_01_1530,ANT,2021.2.3,59.816983948097025,
1,12,center,up,IC,R,,,,,,Block.xlsx,"你已经完成了第一个实验区组

请稍作休息


点击空格键进入下一个区组。",0,50,1.5,right,LLRLL.png,,,,,0,0,0,0,0,9,9,11,,,,,,,,,,,,,,,,,,,,,,,,,,,,,,,,,,,,,,,,,,,,,,,,,,,,,,,,,,,,,,,,,,,,,,284.97117719997186,285.37181679997593,285.3542463000049,285.45501299999887,285.8567217999953,None,left,0,0.41112569998949766,285.8567217999953,None,285.3542463000049,285.45501299999887,285.45501299999887,None,286.28883989999304,None,,,,,,,11008,001,2024_Jan_01_1530,ANT,2021.2.3,59.816983948097025,
1,12,center,up,IC,R,,,,,,Block.xlsx,"你已经完成了第一个实验区组

请稍作休息


点击空格键进入下一个区组。",0,50,1.5,right,LLRLL.png,,,,,0,0,0,0,0,10,10,11,,,,,,,,,,,,,,,,,,,,,,,,,,,,,,,,,,,,,,,,,,,,,,,,,,,,,,,,,,,,,,,,,,,,,,286.6897808999638,287.090492599993,287.07467860000907,287.17557620001025,287.5750114999828,None,right,1,0.4120500000426546,287.5750114999828,None,287.07467860000907,287.17557620001025,287.17557620001025,None,288.0080483999918,None,,,,,,,11008,001,2024_Jan_01_1530,ANT,2021.2.3,59.816983948097025,
1,15,center,down,IC,L,,,,,,Block.xlsx,"你已经完成了第一个实验区组

请稍作休息


点击空格键进入下一个区组。",0,50,-1.5,left,RRLRR.png,,,,,0,0,0,0,0,11,11,14,,,,,,,,,,,,,,,,,,,,,,,,,,,,,,,,,,,,,,,,,,,,,,,,,,,,,,,,,,,,,,,,,,,,,,288.40879059996223,288.80947410000954,288.7939780000015,288.8930134999682,289.29347729997244,None,left,1,0.6059042999986559,289.29347729997244,None,288.7939780000015,288.8930134999682,288.8930134999682,None,289.92771379998885,None,,,,,,,11008,001,2024_Jan_01_1530,ANT,2021.2.3,59.816983948097025,
1,7,no,down,IC,L,,,,,,Block.xlsx,"你已经完成了第一个实验区组

请稍作休息


点击空格键进入下一个区组。",50,0,-1.5,left,RRLRR.png,,,,,0,0,0,0,0,12,12,6,,,,,,,,,,,,,,,,,,,,,,,,,,,,,,,,,,,,,,,,,,,,,,,,,,,,,,,,,,,,,,,,,,,,,,290.32852719997754,290.7289860000019,290.714205199969,290.8305726000108,291.2129995999858,None,left,1,0.5260130000533536,291.2129995999858,None,290.714205199969,290.8305726000108,290.8130774999736,None,291.763841899985,None,,,,,,,11008,001,2024_Jan_01_1530,ANT,2021.2.3,59.816983948097025,
1,18,spatial,up,C,R,,,,,,Block.xlsx,"你已经完成了第一个实验区组

请稍作休息


点击空格键进入下一个区组。",1.5,0,1.5,right,RRRRR.png,,,,,0,0,0,0,0,13,13,17,,,,,,,,,,,,,,,,,,,,,,,,,,,,,,,,,,,,,,,,,,,,,,,,,,,,,,,,,,,,,,,,,,,,,,292.1647418999928,292.5656197000062,292.5499054999673,292.64833979995456,293.0489683999913,None,right,1,0.3789268000400625,293.0489683999913,None,292.5499054999673,292.64833979995456,292.64833979995456,None,293.4493162999861,None,,,,,,,11008,001,2024_Jan_01_1530,ANT,2021.2.3,59.816983948097025,
1,17,spatial,up,C,L,,,,,,Block.xlsx,"你已经完成了第一个实验区组

请稍作休息


点击空格键进入下一个区组。",1.5,0,1.5,left,LLLLL.png,,,,,0,0,0,0,0,14,14,16,,,,,,,,,,,,,,,,,,,,,,,,,,,,,,,,,,,,,,,,,,,,,,,,,,,,,,,,,,,,,,,,,,,,,,293.8502423999598,294.2509210999706,294.2359523999621,294.3350991999614,294.7369992999593,None,left,1,0.37018410000018775,294.7369992999593,None,294.2359523999621,294.3350991999614,294.3350991999614,None,295.13545030000387,None,,,,,,,11008,001,2024_Jan_01_1530,ANT,2021.2.3,59.816983948097025,
1,22,spatial,down,C,R,,,,,,Block.xlsx,"你已经完成了第一个实验区组

请稍作休息


点击空格键进入下一个区组。",-1.5,0,-1.5,right,RRRRR.png,,,,,0,0,0,0,0,15,15,21,,,,,,,,,,,,,,,,,,,,,,,,,,,,,,,,,,,,,,,,,,,,,,,,,,,,,,,,,,,,,,,,,,,,,,295.535967600008,295.9372883999604,295.92144149995875,296.02026739995927,296.42077939998126,None,right,1,0.4385063999798149,296.42077939998126,None,295.92144149995875,296.02026739995927,296.02026739995927,None,296.88799339998513,None,,,,,,,11008,001,2024_Jan_01_1530,ANT,2021.2.3,59.816983948097025,
1,16,center,down,IC,R,,,,,,Block.xlsx,"你已经完成了第一个实验区组

请稍作休息


点击空格键进入下一个区组。",0,50,-1.5,right,LLRLL.png,,,,,0,0,0,0,0,16,16,15,,,,,,,,,,,,,,,,,,,,,,,,,,,,,,,,,,,,,,,,,,,,,,,,,,,,,,,,,,,,,,,,,,,,,,297.28953809995437,297.6909089999972,297.67231259995606,297.77420919999713,298.1754251999664,None,right,1,0.6516915000393055,298.1754251999664,None,297.67231259995606,297.77420919999713,297.77420919999713,None,298.8408739999868,None,,,,,,,11008,001,2024_Jan_01_1530,ANT,2021.2.3,59.816983948097025,
1,10,center,up,C,R,,,,,,Block.xlsx,"你已经完成了第一个实验区组

请稍作休息


点击空格键进入下一个区组。",0,50,1.5,right,RRRRR.png,,,,,0,0,0,0,0,17,17,9,,,,,,,,,,,,,,,,,,,,,,,,,,,,,,,,,,,,,,,,,,,,,,,,,,,,,,,,,,,,,,,,,,,,,,299.24178380001104,299.6435371999978,299.6260892999708,299.72676260001026,300.1276700999588,None,right,1,0.38796540000475943,300.1276700999588,None,299.6260892999708,299.72676260001026,299.72676260001026,None,300.5434370999574,None,,,,,,,11008,001,2024_Jan_01_1530,ANT,2021.2.3,59.816983948097025,
1,2,no,up,C,R,,,,,,Block.xlsx,"你已经完成了第一个实验区组

请稍作休息


点击空格键进入下一个区组。",50,0,1.5,right,RRRRR.png,,,,,0,0,0,0,0,18,18,1,,,,,,,,,,,,,,,,,,,,,,,,,,,,,,,,,,,,,,,,,,,,,,,,,,,,,,,,,,,,,,,,,,,,,,300.944955999963,301.3457820999902,301.32957549998537,301.42976779997116,301.83045239996864,None,right,1,0.4608886999776587,301.83045239996864,None,301.32957549998537,301.42976779997116,301.42976779997116,None,302.31268440000713,None,,,,,,,11008,001,2024_Jan_01_1530,ANT,2021.2.3,59.816983948097025,
1,13,center,down,C,L,,,,,,Block.xlsx,"你已经完成了第一个实验区组

请稍作休息


点击空格键进入下一个区组。",0,50,-1.5,left,LLLLL.png,,,,,0,0,0,0,0,19,19,12,,,,,,,,,,,,,,,,,,,,,,,,,,,,,,,,,,,,,,,,,,,,,,,,,,,,,,,,,,,,,,,,,,,,,,302.71325089997845,303.1148446999723,303.098656999995,303.2144406999578,303.600012699957,None,left,1,0.4510084000066854,303.600012699957,None,303.098656999995,303.2144406999578,303.19923009997,None,304.0818858999992,None,,,,,,,11008,001,2024_Jan_01_1530,ANT,2021.2.3,59.816983948097025,
1,16,center,down,IC,R,,,,,,Block.xlsx,"你已经完成了第一个实验区组

请稍作休息


点击空格键进入下一个区组。",0,50,-1.5,right,LLRLL.png,,,,,0,0,0,0,0,20,20,15,,,,,,,,,,,,,,,,,,,,,,,,,,,,,,,,,,,,,,,,,,,,,,,,,,,,,,,,,,,,,,,,,,,,,,304.4836600999697,304.88325529999565,304.86683079996146,304.9678028000053,305.3685822999687,None,right,1,0.5787585999933071,305.3685822999687,None,304.86683079996146,304.9678028000053,304.9678028000053,None,305.96848619997036,None,,,,,,,11008,001,2024_Jan_01_1530,ANT,2021.2.3,59.816983948097025,
1,12,center,up,IC,R,,,,,,Block.xlsx,"你已经完成了第一个实验区组

请稍作休息


点击空格键进入下一个区组。",0,50,1.5,right,LLRLL.png,,,,,0,0,0,0,0,21,21,11,,,,,,,,,,,,,,,,,,,,,,,,,,,,,,,,,,,,,,,,,,,,,,,,,,,,,,,,,,,,,,,,,,,,,,306.3687393,306.76960589998635,306.75308180000866,306.85295769997174,307.2540557999746,None,right,1,0.48495419998653233,307.2540557999746,None,306.75308180000866,306.85295769997174,306.85295769997174,None,307.7538810999831,None,,,,,,,11008,001,2024_Jan_01_1530,ANT,2021.2.3,59.816983948097025,
1,5,no,down,C,L,,,,,,Block.xlsx,"你已经完成了第一个实验区组

请稍作休息


点击空格键进入下一个区组。",50,0,-1.5,left,LLLLL.png,,,,,0,0,0,0,0,22,22,4,,,,,,,,,,,,,,,,,,,,,,,,,,,,,,,,,,,,,,,,,,,,,,,,,,,,,,,,,,,,,,,,,,,,,,308.15484939998714,308.55599369999254,308.540491199994,308.65537900000345,309.0407884999877,None,left,1,0.5063655999838375,309.0407884999877,None,308.540491199994,308.65537900000345,308.6398810999817,None,309.5734720999608,None,,,,,,,11008,001,2024_Jan_01_1530,ANT,2021.2.3,59.816983948097025,
1,19,spatial,up,IC,L,,,,,,Block.xlsx,"你已经完成了第一个实验区组

请稍作休息


点击空格键进入下一个区组。",1.5,0,1.5,left,RRLRR.png,,,,,0,0,0,0,0,23,23,18,,,,,,,,,,,,,,,,,,,,,,,,,,,,,,,,,,,,,,,,,,,,,,,,,,,,,,,,,,,,,,,,,,,,,,309.97402480000164,310.3763197999797,310.358671199996,310.4583166000084,310.8592427999829,None,left,1,0.5197788999648765,310.8592427999829,None,310.358671199996,310.4583166000084,310.4583166000084,None,311.4098573999945,None,,,,,,,11008,001,2024_Jan_01_1530,ANT,2021.2.3,59.816983948097025,
1,14,center,down,C,R,,,,,,Block.xlsx,"你已经完成了第一个实验区组

请稍作休息


点击空格键进入下一个区组。",0,50,-1.5,right,RRRRR.png,,,,,0,0,0,0,1,0,24,13,,,,,,,,,,,,,,,,,,,,,,,,,,,,,,,,,,,,,,,,,,,,,,,,,,,,,,,,,,,,,,,,,,,,,,311.8105132000055,312.21082350000506,312.1959986999864,312.2942569999723,312.69513849995565,None,right,1,0.4679183000116609,312.69513849995565,None,312.1959986999864,312.2942569999723,312.2942569999723,None,313.17875779996393,None,,,,,,,11008,001,2024_Jan_01_1530,ANT,2021.2.3,59.816983948097025,
1,21,spatial,down,C,L,,,,,,Block.xlsx,"你已经完成了第一个实验区组

请稍作休息


点击空格键进入下一个区组。",-1.5,0,-1.5,left,LLLLL.png,,,,,0,0,0,0,1,1,25,20,,,,,,,,,,,,,,,,,,,,,,,,,,,,,,,,,,,,,,,,,,,,,,,,,,,,,,,,,,,,,,,,,,,,,,313.57974189997185,313.98100450000493,313.9641635000007,314.0656871999963,314.4646633999655,None,left,1,0.4266226000036113,314.4646633999655,None,313.9641635000007,314.0656871999963,314.0656871999963,None,314.9149071999709,None,,,,,,,11008,001,2024_Jan_01_1530,ANT,2021.2.3,59.816983948097025,
1,24,spatial,down,IC,R,,,,,,Block.xlsx,"你已经完成了第一个实验区组

请稍作休息


点击空格键进入下一个区组。",-1.5,0,-1.5,right,LLRLL.png,,,,,0,0,0,0,1,2,26,23,,,,,,,,,,,,,,,,,,,,,,,,,,,,,,,,,,,,,,,,,,,,,,,,,,,,,,,,,,,,,,,,,,,,,,315.31532769999467,315.7165793000022,315.699329999974,315.7993984000059,316.2013021999737,None,right,1,0.43400830001337454,316.2013021999737,None,315.699329999974,315.7993984000059,315.7993984000059,None,316.6505667999736,None,,,,,,,11008,001,2024_Jan_01_1530,ANT,2021.2.3,59.816983948097025,
1,3,no,up,IC,L,,,,,,Block.xlsx,"你已经完成了第一个实验区组

请稍作休息


点击空格键进入下一个区组。",50,0,1.5,left,RRLRR.png,,,,,0,0,0,0,1,3,27,2,,,,,,,,,,,,,,,,,,,,,,,,,,,,,,,,,,,,,,,,,,,,,,,,,,,,,,,,,,,,,,,,,,,,,,317.05199199996423,317.45273749995977,317.4352171999635,317.5373193999985,317.9362464000005,None,left,1,0.5868949000141583,317.9362464000005,None,317.4352171999635,317.5373193999985,317.5373193999985,None,318.55381549999584,None,,,,,,,11008,001,2024_Jan_01_1530,ANT,2021.2.3,59.816983948097025,
1,7,no,down,IC,L,,,,,,Block.xlsx,"你已经完成了第一个实验区组

请稍作休息


点击空格键进入下一个区组。",50,0,-1.5,left,RRLRR.png,,,,,0,0,0,0,1,4,28,6,,,,,,,,,,,,,,,,,,,,,,,,,,,,,,,,,,,,,,,,,,,,,,,,,,,,,,,,,,,,,,,,,,,,,,318.9539592000074,319.35485730000073,319.33794999995735,319.4389763000072,319.8390706999926,None,left,1,0.5963752000243403,319.8390706999926,None,319.33794999995735,319.4389763000072,319.4389763000072,None,320.45624869997846,None,,,,,,,11008,001,2024_Jan_01_1530,ANT,2021.2.3,59.816983948097025,
1,20,spatial,up,IC,R,,,,,,Block.xlsx,"你已经完成了第一个实验区组

请稍作休息


点击空格键进入下一个区组。",1.5,0,1.5,right,LLRLL.png,,,,,0,0,0,0,1,5,29,19,,,,,,,,,,,,,,,,,,,,,,,,,,,,,,,,,,,,,,,,,,,,,,,,,,,,,,,,,,,,,,,,,,,,,,320.8570832000114,321.25918569997884,321.2413711999543,321.3407777000102,321.7419843999669,None,right,1,0.46145960001740605,321.7419843999669,None,321.2413711999543,321.3407777000102,321.3407777000102,None,322.2255652999738,None,,,,,,,11008,001,2024_Jan_01_1530,ANT,2021.2.3,59.816983948097025,
1,10,center,up,C,R,,,,,,Block.xlsx,"你已经完成了第一个实验区组

请稍作休息


点击空格键进入下一个区组。",0,50,1.5,right,RRRRR.png,,,,,0,0,0,0,1,6,30,9,,,,,,,,,,,,,,,,,,,,,,,,,,,,,,,,,,,,,,,,,,,,,,,,,,,,,,,,,,,,,,,,,,,,,,322.62628939998103,323.0279861000017,323.0099777999567,323.1107578999945,323.51282289996743,None,right,1,0.45840609999140725,323.51282289996743,None,323.0099777999567,323.1107578999945,323.1107578999945,None,323.99477569997543,None,,,,,,,11008,001,2024_Jan_01_1530,ANT,2021.2.3,59.816983948097025,
1,18,spatial,up,C,R,,,,,,Block.xlsx,"你已经完成了第一个实验区组

请稍作休息


点击空格键进入下一个区组。",1.5,0,1.5,right,RRRRR.png,,,,,0,0,0,0,1,7,31,17,,,,,,,,,,,,,,,,,,,,,,,,,,,,,,,,,,,,,,,,,,,,,,,,,,,,,,,,,,,,,,,,,,,,,,324.39553079998586,324.79806369997095,324.78029639995657,324.87993609998375,325.2800799999968,None,right,1,0.41114780004136264,325.2800799999968,None,324.78029639995657,324.87993609998375,324.87993609998375,None,325.7139523999649,None,,,,,,,11008,001,2024_Jan_01_1530,ANT,2021.2.3,59.816983948097025,
1,10,center,up,C,R,,,,,,Block.xlsx,"你已经完成了第一个实验区组

请稍作休息


点击空格键进入下一个区组。",0,50,1.5,right,RRRRR.png,,,,,0,0,0,0,1,8,32,9,,,,,,,,,,,,,,,,,,,,,,,,,,,,,,,,,,,,,,,,,,,,,,,,,,,,,,,,,,,,,,,,,,,,,,326.1144598000101,326.5158124999725,326.5004517000052,326.5987193000037,327.00098019995494,None,right,1,0.4422082999954,327.00098019995494,None,326.5004517000052,326.5987193000037,326.5987193000037,None,327.4668321000063,None,,,,,,,11008,001,2024_Jan_01_1530,ANT,2021.2.3,59.816983948097025,
1,20,spatial,up,IC,R,,,,,,Block.xlsx,"你已经完成了第一个实验区组

请稍作休息


点击空格键进入下一个区组。",1.5,0,1.5,right,LLRLL.png,,,,,0,0,0,0,1,9,33,19,,,,,,,,,,,,,,,,,,,,,,,,,,,,,,,,,,,,,,,,,,,,,,,,,,,,,,,,,,,,,,,,,,,,,,327.8672546999878,328.26805959997,328.2520113000064,328.35130539996317,328.75257369998144,None,right,1,0.49109849997330457,328.75257369998144,None,328.2520113000064,328.35130539996317,328.35130539996317,None,329.26952749997145,None,,,,,,,11008,001,2024_Jan_01_1530,ANT,2021.2.3,59.816983948097025,
1,21,spatial,down,C,L,,,,,,Block.xlsx,"你已经完成了第一个实验区组

请稍作休息


点击空格键进入下一个区组。",-1.5,0,-1.5,left,LLLLL.png,,,,,0,0,0,0,1,10,34,20,,,,,,,,,,,,,,,,,,,,,,,,,,,,,,,,,,,,,,,,,,,,,,,,,,,,,,,,,,,,,,,,,,,,,,329.6700268999557,330.0717242999817,330.0538152999943,330.1541824999731,330.55599419999635,None,left,1,0.3911802999791689,330.55599419999635,None,330.0538152999943,330.1541824999731,330.1541824999731,None,330.97182869998505,None,,,,,,,11008,001,2024_Jan_01_1530,ANT,2021.2.3,59.816983948097025,
1,1,no,up,C,L,,,,,,Block.xlsx,"你已经完成了第一个实验区组

请稍作休息


点击空格键进入下一个区组。",50,0,1.5,left,LLLLL.png,,,,,0,0,0,0,1,11,35,0,,,,,,,,,,,,,,,,,,,,,,,,,,,,,,,,,,,,,,,,,,,,,,,,,,,,,,,,,,,,,,,,,,,,,,331.3724927000003,331.77329219999956,331.7562145999982,331.8587196999579,332.25823509995826,None,left,1,0.48893480002880096,332.25823509995826,None,331.7562145999982,331.8587196999579,331.8587196999579,None,332.7744532999932,None,,,,,,,11008,001,2024_Jan_01_1530,ANT,2021.2.3,59.816983948097025,
1,24,spatial,down,IC,R,,,,,,Block.xlsx,"你已经完成了第一个实验区组

请稍作休息


点击空格键进入下一个区组。",-1.5,0,-1.5,right,LLRLL.png,,,,,0,0,0,0,1,12,36,23,,,,,,,,,,,,,,,,,,,,,,,,,,,,,,,,,,,,,,,,,,,,,,,,,,,,,,,,,,,,,,,,,,,,,,333.17510220000986,333.5769136999734,333.55916409997735,333.6591080999933,334.0610478000017,None,right,1,0.4303993000066839,334.0610478000017,None,333.55916409997735,333.6591080999933,333.6591080999933,None,334.5104014999815,None,,,,,,,11008,001,2024_Jan_01_1530,ANT,2021.2.3,59.816983948097025,
1,14,center,down,C,R,,,,,,Block.xlsx,"你已经完成了第一个实验区组

请稍作休息


点击空格键进入下一个区组。",0,50,-1.5,right,RRRRR.png,,,,,0,0,0,0,1,13,37,13,,,,,,,,,,,,,,,,,,,,,,,,,,,,,,,,,,,,,,,,,,,,,,,,,,,,,,,,,,,,,,,,,,,,,,334.91087069996865,335.3115397999645,335.29675659997156,335.395690299978,335.79674580000574,None,right,1,0.47047190001467243,335.79674580000574,None,335.29675659997156,335.395690299978,335.395690299978,None,336.2964752999833,None,,,,,,,11008,001,2024_Jan_01_1530,ANT,2021.2.3,59.816983948097025,
1,6,no,down,C,R,,,,,,Block.xlsx,"你已经完成了第一个实验区组

请稍作休息


点击空格键进入下一个区组。",50,0,-1.5,right,RRRRR.png,,,,,0,0,0,0,1,14,38,5,,,,,,,,,,,,,,,,,,,,,,,,,,,,,,,,,,,,,,,,,,,,,,,,,,,,,,,,,,,,,,,,,,,,,,336.6971333999536,337.09829850000096,337.08097839995753,337.18105089996243,337.58182639995357,None,right,1,0.5256428000284359,337.58182639995357,None,337.08097839995753,337.18105089996243,337.18105089996243,None,338.1325087999576,None,,,,,,,11008,001,2024_Jan_01_1530,ANT,2021.2.3,59.816983948097025,
1,13,center,down,C,L,,,,,,Block.xlsx,"你已经完成了第一个实验区组

请稍作休息


点击空格键进入下一个区组。",0,50,-1.5,left,LLLLL.png,,,,,0,0,0,0,1,15,39,12,,,,,,,,,,,,,,,,,,,,,,,,,,,,,,,,,,,,,,,,,,,,,,,,,,,,,,,,,,,,,,,,,,,,,,338.53369089995977,338.9341805999866,338.91704239998944,339.0170983999851,339.4186572000035,None,left,1,0.43327670003054664,339.4186572000035,None,338.91704239998944,339.0170983999851,339.0170983999851,None,339.868134999997,None,,,,,,,11008,001,2024_Jan_01_1530,ANT,2021.2.3,59.816983948097025,
1,9,center,up,C,L,,,,,,Block.xlsx,"你已经完成了第一个实验区组

请稍作休息


点击空格键进入下一个区组。",0,50,1.5,left,LLLLL.png,,,,,0,0,0,0,1,16,40,8,,,,,,,,,,,,,,,,,,,,,,,,,,,,,,,,,,,,,,,,,,,,,,,,,,,,,,,,,,,,,,,,,,,,,,340.26900799997384,340.6711013999884,340.65326489997096,340.7551437999937,341.1545822999906,None,left,1,0.4405333999893628,341.1545822999906,None,340.65326489997096,340.7551437999937,340.7551437999937,None,341.6209055999643,None,,,,,,,11008,001,2024_Jan_01_1530,ANT,2021.2.3,59.816983948097025,
1,8,no,down,IC,R,,,,,,Block.xlsx,"你已经完成了第一个实验区组

请稍作休息


点击空格键进入下一个区组。",50,0,-1.5,right,LLRLL.png,,,,,0,0,0,0,1,17,41,7,,,,,,,,,,,,,,,,,,,,,,,,,,,,,,,,,,,,,,,,,,,,,,,,,,,,,,,,,,,,,,,,,,,,,,342.0219029999571,342.4233478999813,342.40603329997975,342.50645039998926,342.90628709999146,None,right,1,0.5367619000026025,342.90628709999146,None,342.40603329997975,342.50645039998926,342.50645039998926,None,343.4744556999649,None,,,,,,,11008,001,2024_Jan_01_1530,ANT,2021.2.3,59.816983948097025,
1,4,no,up,IC,R,,,,,,Block.xlsx,"你已经完成了第一个实验区组

请稍作休息


点击空格键进入下一个区组。",50,0,1.5,right,LLRLL.png,,,,,0,0,0,0,1,18,42,3,,,,,,,,,,,,,,,,,,,,,,,,,,,,,,,,,,,,,,,,,,,,,,,,,,,,,,,,,,,,,,,,,,,,,,343.87433570000576,344.27512690000003,344.2584088000003,344.3589993999922,344.759091099957,None,right,1,0.5326587000163272,344.759091099957,None,344.2584088000003,344.3589993999922,344.3589993999922,None,345.30977009999333,None,,,,,,,11008,001,2024_Jan_01_1530,ANT,2021.2.3,59.816983948097025,
1,8,no,down,IC,R,,,,,,Block.xlsx,"你已经完成了第一个实验区组

请稍作休息


点击空格键进入下一个区组。",50,0,-1.5,right,LLRLL.png,,,,,0,0,0,0,1,19,43,7,,,,,,,,,,,,,,,,,,,,,,,,,,,,,,,,,,,,,,,,,,,,,,,,,,,,,,,,,,,,,,,,,,,,,,345.71045640000375,346.1111047999584,346.0940982999746,346.1951529000071,346.5950816999539,None,right,1,0.5439476000028662,346.5950816999539,None,346.0940982999746,346.1951529000071,346.1951529000071,None,347.1625178999966,None,,,,,,,11008,001,2024_Jan_01_1530,ANT,2021.2.3,59.816983948097025,
1,2,no,up,C,R,,,,,,Block.xlsx,"你已经完成了第一个实验区组

请稍作休息


点击空格键进入下一个区组。",50,0,1.5,right,RRRRR.png,,,,,0,0,0,0,1,20,44,1,,,,,,,,,,,,,,,,,,,,,,,,,,,,,,,,,,,,,,,,,,,,,,,,,,,,,,,,,,,,,,,,,,,,,,347.5628789999755,347.9636877999874,347.94778089999454,348.0472262999974,348.44879950000905,None,right,1,0.4422272999654524,348.44879950000905,None,347.94778089999454,348.0472262999974,348.0472262999974,None,348.9150373999728,None,,,,,,,11008,001,2024_Jan_01_1530,ANT,2021.2.3,59.816983948097025,
1,1,no,up,C,L,,,,,,Block.xlsx,"你已经完成了第一个实验区组

请稍作休息


点击空格键进入下一个区组。",50,0,1.5,left,LLLLL.png,,,,,0,0,0,0,1,21,45,0,,,,,,,,,,,,,,,,,,,,,,,,,,,,,,,,,,,,,,,,,,,,,,,,,,,,,,,,,,,,,,,,,,,,,,349.3157721000025,349.71641559997806,349.70047499996144,349.80001549998997,350.20141829998465,None,left,1,0.5056628999882378,350.20141829998465,None,349.70047499996144,349.80001549998997,349.80001549998997,None,350.73429339996073,None,,,,,,,11008,001,2024_Jan_01_1530,ANT,2021.2.3,59.816983948097025,
1,1,no,up,C,L,,,,,,Block.xlsx,"你已经完成了第一个实验区组

请稍作休息


点击空格键进入下一个区组。",50,0,1.5,left,LLLLL.png,,,,,0,0,0,0,1,22,46,0,,,,,,,,,,,,,,,,,,,,,,,,,,,,,,,,,,,,,,,,,,,,,,,,,,,,,,,,,,,,,,,,,,,,,,351.1351238999632,351.5360951999901,351.5190134999575,351.619865799963,352.01965609996114,None,left,1,0.4874885999597609,352.01965609996114,None,351.5190134999575,351.619865799963,351.619865799963,None,352.5370158999576,None,,,,,,,11008,001,2024_Jan_01_1530,ANT,2021.2.3,59.816983948097025,
1,19,spatial,up,IC,L,,,,,,Block.xlsx,"你已经完成了第一个实验区组

请稍作休息


点击空格键进入下一个区组。",1.5,0,1.5,left,RRLRR.png,,,,,0,0,0,0,1,23,47,18,,,,,,,,,,,,,,,,,,,,,,,,,,,,,,,,,,,,,,,,,,,,,,,,,,,,,,,,,,,,,,,,,,,,,,352.9375633999589,353.3383366999915,353.3220371999778,353.42179210000904,353.82233509997604,None,left,1,0.47671339998487383,353.82233509997604,None,353.3220371999778,353.42179210000904,353.42179210000904,None,354.3231674999697,None,,,,,,,11008,001,2024_Jan_01_1530,ANT,2021.2.3,59.816983948097025,
1,13,center,down,C,L,,,,,,Block.xlsx,"你已经完成了第一个实验区组

请稍作休息


点击空格键进入下一个区组。",0,50,-1.5,left,LLLLL.png,,,,,0,0,0,0,2,0,48,12,,,,,,,,,,,,,,,,,,,,,,,,,,,,,,,,,,,,,,,,,,,,,,,,,,,,,,,,,,,,,,,,,,,,,,354.72347159998026,355.124175200006,355.1075705999974,355.20818969997345,355.6088094000006,None,left,1,0.46720999997342005,355.6088094000006,None,355.1075705999974,355.20818969997345,355.20818969997345,None,356.0923945999821,None,,,,,,,11008,001,2024_Jan_01_1530,ANT,2021.2.3,59.816983948097025,
1,14,center,down,C,R,,,,,,Block.xlsx,"你已经完成了第一个实验区组

请稍作休息


点击空格键进入下一个区组。",0,50,-1.5,right,RRRRR.png,,,,,0,0,0,0,2,1,49,13,,,,,,,,,,,,,,,,,,,,,,,,,,,,,,,,,,,,,,,,,,,,,,,,,,,,,,,,,,,,,,,,,,,,,,356.4930759999552,356.8944167000009,356.8773482000106,356.9770201999927,357.37761899997713,None,right,1,0.521522700029891,357.37761899997713,None,356.8773482000106,356.9770201999927,356.9770201999927,None,357.92845609999495,None,,,,,,,11008,001,2024_Jan_01_1530,ANT,2021.2.3,59.816983948097025,
1,9,center,up,C,L,,,,,,Block.xlsx,"你已经完成了第一个实验区组

请稍作休息


点击空格键进入下一个区组。",0,50,1.5,left,LLLLL.png,,,,,0,0,0,0,2,2,50,8,,,,,,,,,,,,,,,,,,,,,,,,,,,,,,,,,,,,,,,,,,,,,,,,,,,,,,,,,,,,,,,,,,,,,,358.32911419996526,358.7305823999923,358.71315019996837,358.81305299996166,359.2163535999716,None,left,1,0.43475479999324307,359.2163535999716,None,358.71315019996837,358.81305299996166,358.81305299996166,None,359.6809096999932,None,,,,,,,11008,001,2024_Jan_01_1530,ANT,2021.2.3,59.816983948097025,
1,23,spatial,down,IC,L,,,,,,Block.xlsx,"你已经完成了第一个实验区组

请稍作休息


点击空格键进入下一个区组。",-1.5,0,-1.5,left,RRLRR.png,,,,,0,0,0,0,2,3,51,22,,,,,,,,,,,,,,,,,,,,,,,,,,,,,,,,,,,,,,,,,,,,,,,,,,,,,,,,,,,,,,,,,,,,,,360.08173360000364,360.4825527999783,360.4662432000041,360.5665404999745,360.96761399996467,None,left,1,0.43543830001726747,360.96761399996467,None,360.4662432000041,360.5665404999745,360.5665404999745,None,361.43371829995885,None,,,,,,,11008,001,2024_Jan_01_1530,ANT,2021.2.3,59.816983948097025,
1,6,no,down,C,R,,,,,,Block.xlsx,"你已经完成了第一个实验区组

请稍作休息


点击空格键进入下一个区组。",50,0,-1.5,right,RRRRR.png,,,,,0,0,0,0,2,4,52,5,,,,,,,,,,,,,,,,,,,,,,,,,,,,,,,,,,,,,,,,,,,,,,,,,,,,,,,,,,,,,,,,,,,,,,361.8342575999559,362.235237099987,362.2194666999858,362.31897369999206,362.7189795000013,None,right,1,0.46834469999885187,362.7189795000013,None,362.2194666999858,362.31897369999206,362.31897369999206,None,363.2030620999867,None,,,,,,,11008,001,2024_Jan_01_1530,ANT,2021.2.3,59.816983948097025,
1,23,spatial,down,IC,L,,,,,,Block.xlsx,"你已经完成了第一个实验区组

请稍作休息


点击空格键进入下一个区组。",-1.5,0,-1.5,left,RRLRR.png,,,,,0,0,0,0,2,5,53,22,,,,,,,,,,,,,,,,,,,,,,,,,,,,,,,,,,,,,,,,,,,,,,,,,,,,,,,,,,,,,,,,,,,,,,363.60347619996173,364.0045899999677,363.98772279999685,364.08824419998564,364.4889334999607,None,left,1,0.4345762999728322,364.4889334999607,None,363.98772279999685,364.08824419998564,364.08824419998564,None,364.9389552999637,None,,,,,,,11008,001,2024_Jan_01_1530,ANT,2021.2.3,59.816983948097025,
1,13,center,down,C,L,,,,,,Block.xlsx,"你已经完成了第一个实验区组

请稍作休息


点击空格键进入下一个区组。",0,50,-1.5,left,LLLLL.png,,,,,0,0,0,0,2,6,54,12,,,,,,,,,,,,,,,,,,,,,,,,,,,,,,,,,,,,,,,,,,,,,,,,,,,,,,,,,,,,,,,,,,,,,,365.3401600999641,365.7407478999812,365.7241030999576,365.8240944999852,366.2246874999837,None,left,1,0.4105282000382431,366.2246874999837,None,365.7241030999576,365.8240944999852,365.8240944999852,None,366.6582480999641,None,,,,,,,11008,001,2024_Jan_01_1530,ANT,2021.2.3,59.816983948097025,
1,18,spatial,up,C,R,,,,,,Block.xlsx,"你已经完成了第一个实验区组

请稍作休息


点击空格键进入下一个区组。",1.5,0,1.5,right,RRRRR.png,,,,,0,0,0,0,2,7,55,17,,,,,,,,,,,,,,,,,,,,,,,,,,,,,,,,,,,,,,,,,,,,,,,,,,,,,,,,,,,,,,,,,,,,,,367.0586320000002,367.4602345000021,367.4429029999883,367.54256059997715,367.94370209996123,None,right,1,0.39550189999863505,367.94370209996123,None,367.4429029999883,367.54256059997715,367.54256059997715,None,368.36058909998974,None,,,,,,,11008,001,2024_Jan_01_1530,ANT,2021.2.3,59.816983948097025,
1,12,center,up,IC,R,,,,,,Block.xlsx,"你已经完成了第一个实验区组

请稍作休息


点击空格键进入下一个区组。",0,50,1.5,right,LLRLL.png,,,,,0,0,0,0,2,8,56,11,,,,,,,,,,,,,,,,,,,,,,,,,,,,,,,,,,,,,,,,,,,,,,,,,,,,,,,,,,,,,,,,,,,,,,368.7618669999647,369.1626099999994,369.14515019999817,369.24708999996074,369.6470616000006,None,right,1,0.5961705999798141,369.6470616000006,None,369.14515019999817,369.24708999996074,369.24708999996074,None,370.2635119999759,None,,,,,,,11008,001,2024_Jan_01_1530,ANT,2021.2.3,59.816983948097025,
1,8,no,down,IC,R,,,,,,Block.xlsx,"你已经完成了第一个实验区组

请稍作休息


点击空格键进入下一个区组。",50,0,-1.5,right,LLRLL.png,,,,,0,0,0,0,2,9,57,7,,,,,,,,,,,,,,,,,,,,,,,,,,,,,,,,,,,,,,,,,,,,,,,,,,,,,,,,,,,,,,,,,,,,,,370.66442669997923,371.0648540999973,371.04838559997734,371.14987359999213,371.54939770000055,None,right,1,0.5660526000428945,371.54939770000055,None,371.04838559997734,371.14987359999213,371.14987359999213,None,372.13263119995827,None,,,,,,,11008,001,2024_Jan_01_1530,ANT,2021.2.3,59.816983948097025,
1,17,spatial,up,C,L,,,,,,Block.xlsx,"你已经完成了第一个实验区组

请稍作休息


点击空格键进入下一个区组。",1.5,0,1.5,left,LLLLL.png,,,,,0,0,0,0,2,10,58,16,,,,,,,,,,,,,,,,,,,,,,,,,,,,,,,,,,,,,,,,,,,,,,,,,,,,,,,,,,,,,,,,,,,,,,372.53332149999915,372.93412399996305,372.9181136999978,373.01879790000385,373.4182851999649,None,left,1,0.4009508000453934,373.4182851999649,None,372.9181136999978,373.01879790000385,373.01879790000385,None,373.83530689997133,None,,,,,,,11008,001,2024_Jan_01_1530,ANT,2021.2.3,59.816983948097025,
1,7,no,down,IC,L,,,,,,Block.xlsx,"你已经完成了第一个实验区组

请稍作休息


点击空格键进入下一个区组。",50,0,-1.5,left,RRLRR.png,,,,,0,0,0,0,2,11,59,6,,,,,,,,,,,,,,,,,,,,,,,,,,,,,,,,,,,,,,,,,,,,,,,,,,,,,,,,,,,,,,,,,,,,,,374.236018399999,374.6372208999819,374.6223793000099,374.7366701999563,375.120628100005,None,left,1,0.6824113000184298,375.120628100005,None,374.6223793000099,374.7366701999563,374.7217540999991,None,375.8213708999683,None,,,,,,,11008,001,2024_Jan_01_1530,ANT,2021.2.3,59.816983948097025,
1,22,spatial,down,C,R,,,,,,Block.xlsx,"你已经完成了第一个实验区组

请稍作休息


点击空格键进入下一个区组。",-1.5,0,-1.5,right,RRRRR.png,,,,,0,0,0,0,2,12,60,21,,,,,,,,,,,,,,,,,,,,,,,,,,,,,,,,,,,,,,,,,,,,,,,,,,,,,,,,,,,,,,,,,,,,,,376.22256349999225,376.6244868999929,376.6065018000081,376.70673249999527,377.1086768999812,None,right,1,0.406688499962911,377.1086768999812,None,376.6065018000081,376.70673249999527,376.70673249999527,None,377.5408701999695,None,,,,,,,11008,001,2024_Jan_01_1530,ANT,2021.2.3,59.816983948097025,
1,3,no,up,IC,L,,,,,,Block.xlsx,"你已经完成了第一个实验区组

请稍作休息


点击空格键进入下一个区组。",50,0,1.5,left,RRLRR.png,,,,,0,0,0,0,2,13,61,2,,,,,,,,,,,,,,,,,,,,,,,,,,,,,,,,,,,,,,,,,,,,,,,,,,,,,,,,,,,,,,,,,,,,,,377.94186039996566,378.3426977999625,378.32639010000275,378.4254957999801,378.8261763000046,None,left,1,0.5530322000267915,378.8261763000046,None,378.32639010000275,378.4254957999801,378.4254957999801,None,379.4109063000069,None,,,,,,,11008,001,2024_Jan_01_1530,ANT,2021.2.3,59.816983948097025,
1,21,spatial,down,C,L,,,,,,Block.xlsx,"你已经完成了第一个实验区组

请稍作休息


点击空格键进入下一个区组。",-1.5,0,-1.5,left,LLLLL.png,,,,,0,0,0,0,2,14,62,20,,,,,,,,,,,,,,,,,,,,,,,,,,,,,,,,,,,,,,,,,,,,,,,,,,,,,,,,,,,,,,,,,,,,,,379.81127509998623,380.21269939997,380.19588469999144,380.294833699998,380.69620239996584,None,left,1,0.4270404999842867,380.69620239996584,None,380.19588469999144,380.294833699998,380.294833699998,None,381.1460436999914,None,,,,,,,11008,001,2024_Jan_01_1530,ANT,2021.2.3,59.816983948097025,
1,3,no,up,IC,L,,,,,,Block.xlsx,"你已经完成了第一个实验区组

请稍作休息


点击空格键进入下一个区组。",50,0,1.5,left,RRLRR.png,,,,,0,0,0,0,2,15,63,2,,,,,,,,,,,,,,,,,,,,,,,,,,,,,,,,,,,,,,,,,,,,,,,,,,,,,,,,,,,,,,,,,,,,,,381.5469374000095,381.9473936999566,381.9311117999605,382.0322223000112,382.4324256000109,None,left,1,0.5628064000047743,382.4324256000109,None,381.9311117999605,382.0322223000112,382.0322223000112,None,383.0155921999831,None,,,,,,,11008,001,2024_Jan_01_1530,ANT,2021.2.3,59.816983948097025,
1,11,center,up,IC,L,,,,,,Block.xlsx,"你已经完成了第一个实验区组

请稍作休息


点击空格键进入下一个区组。",0,50,1.5,left,RRLRR.png,,,,,0,0,0,0,2,16,64,10,,,,,,,,,,,,,,,,,,,,,,,,,,,,,,,,,,,,,,,,,,,,,,,,,,,,,,,,,,,,,,,,,,,,,,383.41679789999034,383.81744519999484,383.80061549996026,383.9011542999651,384.3017478999682,None,left,1,0.5895031000254676,384.3017478999682,None,383.80061549996026,383.9011542999651,383.9011542999651,None,384.91889949998586,None,,,,,,,11008,001,2024_Jan_01_1530,ANT,2021.2.3,59.816983948097025,
1,16,center,down,IC,R,,,,,,Block.xlsx,"你已经完成了第一个实验区组

请稍作休息


点击空格键进入下一个区组。",0,50,-1.5,right,LLRLL.png,,,,,0,0,0,0,2,17,65,15,,,,,,,,,,,,,,,,,,,,,,,,,,,,,,,,,,,,,,,,,,,,,,,,,,,,,,,,,,,,,,,,,,,,,,385.32000579999294,385.7200916999718,385.7033703000052,385.80385739996564,386.20529329997953,None,right,1,0.5262791000423022,386.20529329997953,None,385.7033703000052,385.80385739996564,385.80385739996564,None,386.75458349997643,None,,,,,,,11008,001,2024_Jan_01_1530,ANT,2021.2.3,59.816983948097025,
1,11,center,up,IC,L,,,,,,Block.xlsx,"你已经完成了第一个实验区组

请稍作休息


点击空格键进入下一个区组。",0,50,1.5,left,RRLRR.png,,,,,0,0,0,0,2,18,66,10,,,,,,,,,,,,,,,,,,,,,,,,,,,,,,,,,,,,,,,,,,,,,,,,,,,,,,,,,,,,,,,,,,,,,,387.15508479997516,387.55592049995903,387.5397296999581,387.63963910000166,388.0405586999841,None,left,1,0.5395189999835566,388.0405586999841,None,387.5397296999581,387.63963910000166,387.63963910000166,None,388.60726469999645,None,,,,,,,11008,001,2024_Jan_01_1530,ANT,2021.2.3,59.816983948097025,
1,15,center,down,IC,L,,,,,,Block.xlsx,"你已经完成了第一个实验区组

请稍作休息


点击空格键进入下一个区组。",0,50,-1.5,left,RRLRR.png,,,,,0,0,0,0,2,19,67,14,,,,,,,,,,,,,,,,,,,,,,,,,,,,,,,,,,,,,,,,,,,,,,,,,,,,,,,,,,,,,,,,,,,,,,389.0077089999686,389.4096247999696,389.3922968999832,389.4921995999757,389.8934245999553,None,left,1,0.5176743000047281,389.8934245999553,None,389.3922968999832,389.4921995999757,389.4921995999757,None,390.4265682999976,None,,,,,,,11008,001,2024_Jan_01_1530,ANT,2021.2.3,59.816983948097025,
1,21,spatial,down,C,L,,,,,,Block.xlsx,"你已经完成了第一个实验区组

请稍作休息


点击空格键进入下一个区组。",-1.5,0,-1.5,left,LLLLL.png,,,,,0,0,0,0,2,20,68,20,,,,,,,,,,,,,,,,,,,,,,,,,,,,,,,,,,,,,,,,,,,,,,,,,,,,,,,,,,,,,,,,,,,,,,390.82714039995335,391.2290081999963,391.21137019997695,391.31280129996594,391.71279189997585,None,left,1,0.4024305999628268,391.71279189997585,None,391.21137019997695,391.31280129996594,391.31280129996594,None,392.14605629997095,None,,,,,,,11008,001,2024_Jan_01_1530,ANT,2021.2.3,59.816983948097025,
1,11,center,up,IC,L,,,,,,Block.xlsx,"你已经完成了第一个实验区组

请稍作休息


点击空格键进入下一个区组。",0,50,1.5,left,RRLRR.png,,,,,0,0,0,0,2,21,69,10,,,,,,,,,,,,,,,,,,,,,,,,,,,,,,,,,,,,,,,,,,,,,,,,,,,,,,,,,,,,,,,,,,,,,,392.54623269999865,392.94834439997794,392.93095770000946,393.03114739997545,393.43235849996563,None,left,1,0.5311850999714807,393.43235849996563,None,392.93095770000946,393.03114739997545,393.03114739997545,None,393.9820381999598,None,,,,,,,11008,001,2024_Jan_01_1530,ANT,2021.2.3,59.816983948097025,
1,15,center,down,IC,L,,,,,,Block.xlsx,"你已经完成了第一个实验区组

请稍作休息


点击空格键进入下一个区组。",0,50,-1.5,left,RRLRR.png,,,,,0,0,0,0,2,22,70,14,,,,,,,,,,,,,,,,,,,,,,,,,,,,,,,,,,,,,,,,,,,,,,,,,,,,,,,,,,,,,,,,,,,,,,394.38262069999473,394.784897000005,394.7669550999999,394.8673134999699,395.26753969996935,None,left,1,0.559581600013189,395.26753969996935,None,394.7669550999999,394.8673134999699,394.8673134999699,None,395.8512889999547,None,,,,,,,11008,001,2024_Jan_01_1530,ANT,2021.2.3,59.816983948097025,
1,23,spatial,down,IC,L,,,,,,Block.xlsx,"你已经完成了第一个实验区组

请稍作休息


点击空格键进入下一个区组。",-1.5,0,-1.5,left,RRLRR.png,,,,,0,0,0,0,2,23,71,22,,,,,,,,,,,,,,,,,,,,,,,,,,,,,,,,,,,,,,,,,,,,,,,,,,,,,,,,,,,,,,,,,,,,,,396.2519093999872,396.6524844999658,396.63640610000584,396.7358074999647,397.1380410999991,None,left,1,0.4089942999999039,397.1380410999991,None,396.63640610000584,396.7358074999647,396.7358074999647,None,397.57089299999643,None,,,,,,,11008,001,2024_Jan_01_1530,ANT,2021.2.3,59.816983948097025,
1,8,no,down,IC,R,,,,,,Block.xlsx,"你已经完成了第一个实验区组

请稍作休息


点击空格键进入下一个区组。",50,0,-1.5,right,LLRLL.png,,,,,0,0,0,0,3,0,72,7,,,,,,,,,,,,,,,,,,,,,,,,,,,,,,,,,,,,,,,,,,,,,,,,,,,,,,,,,,,,,,,,,,,,,,397.9721408999758,398.3723172000027,398.35616769996705,398.45498929999303,398.8575570000103,None,right,1,0.5615982000017539,398.8575570000103,None,398.35616769996705,398.45498929999303,398.45498929999303,None,399.4400229000021,None,,,,,,,11008,001,2024_Jan_01_1530,ANT,2021.2.3,59.816983948097025,
1,18,spatial,up,C,R,,,,,,Block.xlsx,"你已经完成了第一个实验区组

请稍作休息


点击空格键进入下一个区组。",1.5,0,1.5,right,RRRRR.png,,,,,0,0,0,0,3,1,73,17,,,,,,,,,,,,,,,,,,,,,,,,,,,,,,,,,,,,,,,,,,,,,,,,,,,,,,,,,,,,,,,,,,,,,,399.840619399969,400.2433416999993,400.2245835000067,400.32569879997754,400.72514399996726,None,right,1,0.40611459995852783,400.72514399996726,None,400.2245835000067,400.32569879997754,400.32569879997754,None,401.1591408000095,None,,,,,,,11008,001,2024_Jan_01_1530,ANT,2021.2.3,59.816983948097025,
1,5,no,down,C,L,,,,,,Block.xlsx,"你已经完成了第一个实验区组

请稍作休息


点击空格键进入下一个区组。",50,0,-1.5,left,LLLLL.png,,,,,0,0,0,0,3,2,74,4,,,,,,,,,,,,,,,,,,,,,,,,,,,,,,,,,,,,,,,,,,,,,,,,,,,,,,,,,,,,,,,,,,,,,,401.5598299999838,401.96090369997546,401.94365470000776,402.0453983999905,402.4460162000032,None,left,1,0.4213743000291288,402.4460162000032,None,401.94365470000776,402.0453983999905,402.0453983999905,None,402.895123699971,None,,,,,,,11008,001,2024_Jan_01_1530,ANT,2021.2.3,59.816983948097025,
1,24,spatial,down,IC,R,,,,,,Block.xlsx,"你已经完成了第一个实验区组

请稍作休息


点击空格键进入下一个区组。",-1.5,0,-1.5,right,LLRLL.png,,,,,0,0,0,0,3,3,75,23,,,,,,,,,,,,,,,,,,,,,,,,,,,,,,,,,,,,,,,,,,,,,,,,,,,,,,,,,,,,,,,,,,,,,,403.2960735000088,403.6975705999648,403.67962760000955,403.7814895999618,404.1821557999938,None,right,1,0.39694810000946745,404.1821557999938,None,403.67962760000955,403.7814895999618,403.7814895999618,None,404.5974214999587,None,,,,,,,11008,001,2024_Jan_01_1530,ANT,2021.2.3,59.816983948097025,
1,5,no,down,C,L,,,,,,Block.xlsx,"你已经完成了第一个实验区组

请稍作休息


点击空格键进入下一个区组。",50,0,-1.5,left,LLLLL.png,,,,,0,0,0,0,3,4,76,4,,,,,,,,,,,,,,,,,,,,,,,,,,,,,,,,,,,,,,,,,,,,,,,,,,,,,,,,,,,,,,,,,,,,,,404.9984607999795,405.3987253999803,405.3833969999687,405.48364519997267,405.8840069999569,None,left,1,0.4873830000287853,405.8840069999569,None,405.3833969999687,405.48364519997267,405.48364519997267,None,406.40067149995593,None,,,,,,,11008,001,2024_Jan_01_1530,ANT,2021.2.3,59.816983948097025,
1,7,no,down,IC,L,,,,,,Block.xlsx,"你已经完成了第一个实验区组

请稍作休息


点击空格键进入下一个区组。",50,0,-1.5,left,RRLRR.png,,,,,0,0,0,0,3,5,77,6,,,,,,,,,,,,,,,,,,,,,,,,,,,,,,,,,,,,,,,,,,,,,,,,,,,,,,,,,,,,,,,,,,,,,,406.80067919997964,407.20284619997256,407.1847453999799,407.28674599999795,407.68591179995565,None,left,1,0.4615707999910228,407.68591179995565,None,407.1847453999799,407.28674599999795,407.28674599999795,None,408.16987129999325,None,,,,,,,11008,001,2024_Jan_01_1530,ANT,2021.2.3,59.816983948097025,
1,1,no,up,C,L,,,,,,Block.xlsx,"你已经完成了第一个实验区组

请稍作休息


点击空格键进入下一个区组。",50,0,1.5,left,LLLLL.png,,,,,0,0,0,0,3,6,78,0,,,,,,,,,,,,,,,,,,,,,,,,,,,,,,,,,,,,,,,,,,,,,,,,,,,,,,,,,,,,,,,,,,,,,,408.5702689999598,408.9728734999662,408.95461640000576,409.0544995999662,409.4565728000016,None,left,1,0.4508201999706216,409.4565728000016,None,408.95461640000576,409.0544995999662,409.0544995999662,None,409.9226395000005,None,,,,,,,11008,001,2024_Jan_01_1530,ANT,2021.2.3,59.816983948097025,
1,20,spatial,up,IC,R,,,,,,Block.xlsx,"你已经完成了第一个实验区组

请稍作休息


点击空格键进入下一个区组。",1.5,0,1.5,right,LLRLL.png,,,,,0,0,0,0,3,7,79,19,,,,,,,,,,,,,,,,,,,,,,,,,,,,,,,,,,,,,,,,,,,,,,,,,,,,,,,,,,,,,,,,,,,,,,410.3229352000053,410.72354919998907,410.7065411999938,410.80741020001005,411.207640299981,None,right,1,0.484370999969542,411.207640299981,None,410.7065411999938,410.80741020001005,410.80741020001005,None,411.70822929998394,None,,,,,,,11008,001,2024_Jan_01_1530,ANT,2021.2.3,59.816983948097025,
1,15,center,down,IC,L,,,,,,Block.xlsx,"你已经完成了第一个实验区组

请稍作休息


点击空格键进入下一个区组。",0,50,-1.5,left,RRLRR.png,,,,,0,0,0,0,3,8,80,14,,,,,,,,,,,,,,,,,,,,,,,,,,,,,,,,,,,,,,,,,,,,,,,,,,,,,,,,,,,,,,,,,,,,,,412.1094516000012,412.51060429995414,412.4928937999648,412.5935259999824,412.9935605999781,None,left,1,0.5064032999798656,412.9935605999781,None,412.4928937999648,412.5935259999824,412.5935259999824,None,413.52784449997125,None,,,,,,,11008,001,2024_Jan_01_1530,ANT,2021.2.3,59.816983948097025,
1,20,spatial,up,IC,R,,,,,,Block.xlsx,"你已经完成了第一个实验区组

请稍作休息


点击空格键进入下一个区组。",1.5,0,1.5,right,LLRLL.png,,,,,0,0,0,0,3,9,81,19,,,,,,,,,,,,,,,,,,,,,,,,,,,,,,,,,,,,,,,,,,,,,,,,,,,,,,,,,,,,,,,,,,,,,,413.9281595000066,414.3292213999666,414.31296139996266,414.4129452999914,414.81323829997564,None,right,1,0.4699644999927841,414.81323829997564,None,414.31296139996266,414.4129452999914,414.4129452999914,None,415.3134678999777,None,,,,,,,11008,001,2024_Jan_01_1530,ANT,2021.2.3,59.816983948097025,
1,22,spatial,down,C,R,,,,,,Block.xlsx,"你已经完成了第一个实验区组

请稍作休息


点击空格键进入下一个区组。",-1.5,0,-1.5,right,RRRRR.png,,,,,0,0,0,0,3,10,82,21,,,,,,,,,,,,,,,,,,,,,,,,,,,,,,,,,,,,,,,,,,,,,,,,,,,,,,,,,,,,,,,,,,,,,,415.71423789998516,416.11504949996015,416.09981049998896,416.2170457000029,416.6003703000024,None,right,1,0.38686470000538975,416.6003703000024,None,416.09981049998896,416.2170457000029,416.1983728999621,None,417.0159539000015,None,,,,,,,11008,001,2024_Jan_01_1530,ANT,2021.2.3,59.816983948097025,
1,16,center,down,IC,R,,,,,,Block.xlsx,"你已经完成了第一个实验区组

请稍作休息


点击空格键进入下一个区组。",0,50,-1.5,right,LLRLL.png,,,,,0,0,0,0,3,11,83,15,,,,,,,,,,,,,,,,,,,,,,,,,,,,,,,,,,,,,,,,,,,,,,,,,,,,,,,,,,,,,,,,,,,,,,417.41764389997115,417.8193148999708,417.80089389998466,417.9012710999814,418.30170760001056,None,right,1,0.5816434000153095,418.30170760001056,None,417.80089389998466,417.9012710999814,417.9012710999814,None,418.90221599995857,None,,,,,,,11008,001,2024_Jan_01_1530,ANT,2021.2.3,59.816983948097025,
1,9,center,up,C,L,,,,,,Block.xlsx,"你已经完成了第一个实验区组

请稍作休息


点击空格键进入下一个区组。",0,50,1.5,left,LLLLL.png,,,,,0,0,0,0,3,12,84,8,,,,,,,,,,,,,,,,,,,,,,,,,,,,,,,,,,,,,,,,,,,,,,,,,,,,,,,,,,,,,,,,,,,,,,419.30266569997184,419.70370339998044,419.6866677000071,419.7875069999718,420.1877777999616,None,left,1,0.43153940001502633,420.1877777999616,None,419.6866677000071,419.7875069999718,419.7875069999718,None,420.6381484000012,None,,,,,,,11008,001,2024_Jan_01_1530,ANT,2021.2.3,59.816983948097025,
1,22,spatial,down,C,R,,,,,,Block.xlsx,"你已经完成了第一个实验区组

请稍作休息


点击空格键进入下一个区组。",-1.5,0,-1.5,right,RRRRR.png,,,,,0,0,0,0,3,13,85,21,,,,,,,,,,,,,,,,,,,,,,,,,,,,,,,,,,,,,,,,,,,,,,,,,,,,,,,,,,,,,,,,,,,,,,421.0385752999573,421.4402584999916,421.4231613999582,421.52265499997884,421.9245954999933,None,right,1,0.39093379996484146,421.9245954999933,None,421.4231613999582,421.52265499997884,421.52265499997884,None,422.34061640000436,None,,,,,,,11008,001,2024_Jan_01_1530,ANT,2021.2.3,59.816983948097025,
1,6,no,down,C,R,,,,,,Block.xlsx,"你已经完成了第一个实验区组

请稍作休息


点击空格键进入下一个区组。",50,0,-1.5,right,RRRRR.png,,,,,0,0,0,0,3,14,86,5,,,,,,,,,,,,,,,,,,,,,,,,,,,,,,,,,,,,,,,,,,,,,,,,,,,,,,,,,,,,,,,,,,,,,,422.7411429999629,423.1424339999794,423.12488939997274,423.2259526999551,423.62590019998606,None,right,1,0.48938230000203475,423.62590019998606,None,423.12488939997274,423.2259526999551,423.2259526999551,None,424.1433495999663,None,,,,,,,11008,001,2024_Jan_01_1530,ANT,2021.2.3,59.816983948097025,
1,17,spatial,up,C,L,,,,,,Block.xlsx,"你已经完成了第一个实验区组

请稍作休息


点击空格键进入下一个区组。",1.5,0,1.5,left,LLLLL.png,,,,,0,0,0,0,3,15,87,16,,,,,,,,,,,,,,,,,,,,,,,,,,,,,,,,,,,,,,,,,,,,,,,,,,,,,,,,,,,,,,,,,,,,,,424.5445763999596,424.94455739995465,424.9280065000057,425.0283239999553,425.43012149998685,None,left,1,0.38916570000583306,425.43012149998685,None,424.9280065000057,425.0283239999553,425.0283239999553,None,425.8460592000047,None,,,,,,,11008,001,2024_Jan_01_1530,ANT,2021.2.3,59.816983948097025,
1,5,no,down,C,L,,,,,,Block.xlsx,"你已经完成了第一个实验区组

请稍作休息


点击空格键进入下一个区组。",50,0,-1.5,left,LLLLL.png,,,,,0,0,0,0,3,16,88,4,,,,,,,,,,,,,,,,,,,,,,,,,,,,,,,,,,,,,,,,,,,,,,,,,,,,,,,,,,,,,,,,,,,,,,426.246198799985,426.6476157999714,426.6304899000097,426.7310842999723,427.13164109998615,None,left,1,0.4400090000126511,427.13164109998615,None,426.6304899000097,426.7310842999723,426.7310842999723,None,427.5985474999761,None,,,,,,,11008,001,2024_Jan_01_1530,ANT,2021.2.3,59.816983948097025,
1,19,spatial,up,IC,L,,,,,,Block.xlsx,"你已经完成了第一个实验区组

请稍作休息


点击空格键进入下一个区组。",1.5,0,1.5,left,RRLRR.png,,,,,0,0,0,0,3,17,89,18,,,,,,,,,,,,,,,,,,,,,,,,,,,,,,,,,,,,,,,,,,,,,,,,,,,,,,,,,,,,,,,,,,,,,,427.9990183999762,428.4004443999729,428.38342679996276,428.48388670000713,428.8852633999777,None,left,1,0.5502919999998994,428.8852633999777,None,428.38342679996276,428.48388670000713,428.48388670000713,None,429.4511707999627,None,,,,,,,11008,001,2024_Jan_01_1530,ANT,2021.2.3,59.816983948097025,
1,23,spatial,down,IC,L,,,,,,Block.xlsx,"你已经完成了第一个实验区组

请稍作休息


点击空格键进入下一个区组。",-1.5,0,-1.5,left,RRLRR.png,,,,,0,0,0,0,3,18,90,22,,,,,,,,,,,,,,,,,,,,,,,,,,,,,,,,,,,,,,,,,,,,,,,,,,,,,,,,,,,,,,,,,,,,,,429.8521297999541,430.2534764999873,430.2356879999861,430.3360086999601,430.7367410999723,None,left,1,0.44264670001575723,430.7367410999723,None,430.2356879999861,430.3360086999601,430.3360086999601,None,431.2034807999735,None,,,,,,,11008,001,2024_Jan_01_1530,ANT,2021.2.3,59.816983948097025,
1,6,no,down,C,R,,,,,,Block.xlsx,"你已经完成了第一个实验区组

请稍作休息


点击空格键进入下一个区组。",50,0,-1.5,right,RRRRR.png,,,,,0,0,0,0,3,19,91,5,,,,,,,,,,,,,,,,,,,,,,,,,,,,,,,,,,,,,,,,,,,,,,,,,,,,,,,,,,,,,,,,,,,,,,431.60450719995424,432.0067025999888,431.9887968999683,432.0889798999997,432.49042779998854,None,right,1,0.4654463999904692,432.49042779998854,None,431.9887968999683,432.0889798999997,432.0889798999997,None,432.97309879999375,None,,,,,,,11008,001,2024_Jan_01_1530,ANT,2021.2.3,59.816983948097025,
1,4,no,up,IC,R,,,,,,Block.xlsx,"你已经完成了第一个实验区组

请稍作休息


点击空格键进入下一个区组。",50,0,1.5,right,LLRLL.png,,,,,0,0,0,0,3,20,92,3,,,,,,,,,,,,,,,,,,,,,,,,,,,,,,,,,,,,,,,,,,,,,,,,,,,,,,,,,,,,,,,,,,,,,,433.37388400000054,433.7758818999864,433.75819560000673,433.85856610001065,434.2585168000078,None,right,1,0.47305820003384724,434.2585168000078,None,433.75819560000673,433.85856610001065,433.85856610001065,None,434.75899110001046,None,,,,,,,11008,001,2024_Jan_01_1530,ANT,2021.2.3,59.816983948097025,
1,3,no,up,IC,L,,,,,,Block.xlsx,"你已经完成了第一个实验区组

请稍作休息


点击空格键进入下一个区组。",50,0,1.5,left,RRLRR.png,,,,,0,0,0,0,3,21,93,2,,,,,,,,,,,,,,,,,,,,,,,,,,,,,,,,,,,,,,,,,,,,,,,,,,,,,,,,,,,,,,,,,,,,,,435.1602760999813,435.5611307999934,435.5435034999973,435.6435335999704,436.0448258999968,None,left,1,0.5743684999761172,436.0448258999968,None,435.5435034999973,435.6435335999704,435.6435335999704,None,436.64518459996907,None,,,,,,,11008,001,2024_Jan_01_1530,ANT,2021.2.3,59.816983948097025,
1,4,no,up,IC,R,,,,,,Block.xlsx,"你已经完成了第一个实验区组

请稍作休息


点击空格键进入下一个区组。",50,0,1.5,right,LLRLL.png,,,,,0,0,0,0,3,22,94,3,,,,,,,,,,,,,,,,,,,,,,,,,,,,,,,,,,,,,,,,,,,,,,,,,,,,,,,,,,,,,,,,,,,,,,437.0457391999662,437.4475035999785,437.42962579999585,437.5307319999556,437.93105939996894,None,right,1,0.6006412000278942,437.93105939996894,None,437.42962579999585,437.5307319999556,437.5307319999556,None,438.5478320000111,None,,,,,,,11008,001,2024_Jan_01_1530,ANT,2021.2.3,59.816983948097025,
1,17,spatial,up,C,L,,,,,,Block.xlsx,"你已经完成了第一个实验区组

请稍作休息


点击空格键进入下一个区组。",1.5,0,1.5,left,LLLLL.png,,,,,0,0,0,0,3,23,95,16,,,,,,,,,,,,,,,,,,,,,,,,,,,,,,,,,,,,,,,,,,,,,,,,,,,,,,,,,,,,,,,,,,,,,,438.9484820999787,439.3506520999945,439.3338659000001,439.43380939995404,439.83301919995574,None,left,1,0.37830809998558834,439.83301919995574,None,439.3338659000001,439.43380939995404,439.43380939995404,None,440.2338638000074,None,,,,,,,11008,001,2024_Jan_01_1530,ANT,2021.2.3,59.816983948097025,
,,,,,,,,,,,Block.xlsx,"你已经完成了第一个实验区组

请稍作休息


点击空格键进入下一个区组。",,,,,,,,,,0,0,0,0,,,,,,,,,,,,,,,,,,,,,,,,,,,,,,,,,,,,,,,,,,,,,,,,,,,,,,,,,,,,,,,,,,,,,,,,,,,,,,,,,,,,,,,,,,,space,21.36935110000195,440.63373449997744,None,440.63373449997744,None,11008,001,2024_Jan_01_1530,ANT,2021.2.3,59.816983948097025,
1,5,no,down,C,L,,,,,,Block.xlsx,"你已经完成了整个实验（三个区组）。

请报告实验者已完成实验

非常感谢，再见！",50,0,-1.5,left,LLLLL.png,,,,,0,1,1,1,0,0,0,4,,,,,,,,,,,,,,,,,,,,,,,,,,,,,,,,,,,,,,,,,,,,,,,,,,,,,,,,,,,,,,,,,,,,,,462.0487950000097,462.4506510999636,462.4339947999688,462.5340015999973,462.93426269997144,None,left,1,0.5972248000325635,462.93426269997144,None,462.4339947999688,462.5340015999973,462.5340015999973,None,463.55157640000107,None,,,,,,,11008,001,2024_Jan_01_1530,ANT,2021.2.3,59.816983948097025,
1,19,spatial,up,IC,L,,,,,,Block.xlsx,"你已经完成了整个实验（三个区组）。

请报告实验者已完成实验

非常感谢，再见！",1.5,0,1.5,left,RRLRR.png,,,,,0,1,1,1,0,1,1,18,,,,,,,,,,,,,,,,,,,,,,,,,,,,,,,,,,,,,,,,,,,,,,,,,,,,,,,,,,,,,,,,,,,,,,463.952318799973,464.3537297999719,464.33627779997187,464.4375320999534,464.8372829,None,left,1,0.5343391000060365,464.8372829,None,464.33627779997187,464.4375320999534,464.4375320999534,None,465.387677599967,None,,,,,,,11008,001,2024_Jan_01_1530,ANT,2021.2.3,59.816983948097025,
1,17,spatial,up,C,L,,,,,,Block.xlsx,"你已经完成了整个实验（三个区组）。

请报告实验者已完成实验

非常感谢，再见！",1.5,0,1.5,left,LLLLL.png,,,,,0,1,1,1,0,2,2,16,,,,,,,,,,,,,,,,,,,,,,,,,,,,,,,,,,,,,,,,,,,,,,,,,,,,,,,,,,,,,,,,,,,,,,465.7887750999653,466.18894299998647,466.17349839996314,466.2722643999732,466.67348489997676,None,left,1,0.3785842999932356,466.67348489997676,None,466.17349839996314,466.2722643999732,466.2722643999732,None,467.0735866999603,None,,,,,,,11008,001,2024_Jan_01_1530,ANT,2021.2.3,59.816983948097025,
1,19,spatial,up,IC,L,,,,,,Block.xlsx,"你已经完成了整个实验（三个区组）。

请报告实验者已完成实验

非常感谢，再见！",1.5,0,1.5,left,RRLRR.png,,,,,0,1,1,1,0,3,3,18,,,,,,,,,,,,,,,,,,,,,,,,,,,,,,,,,,,,,,,,,,,,,,,,,,,,,,,,,,,,,,,,,,,,,,467.4746199999936,467.8762301999959,467.8587736999616,467.95916069997475,468.359862399986,None,left,1,0.37171120004495606,468.359862399986,None,467.8587736999616,467.95916069997475,467.95916069997475,None,468.7594933999935,None,,,,,,,11008,001,2024_Jan_01_1530,ANT,2021.2.3,59.816983948097025,
1,3,no,up,IC,L,,,,,,Block.xlsx,"你已经完成了整个实验（三个区组）。

请报告实验者已完成实验

非常感谢，再见！",50,0,1.5,left,RRLRR.png,,,,,0,1,1,1,0,4,4,2,,,,,,,,,,,,,,,,,,,,,,,,,,,,,,,,,,,,,,,,,,,,,,,,,,,,,,,,,,,,,,,,,,,,,,469.16009689995553,469.5624561999575,469.544296499982,469.64575409999816,470.0469877999858,None,left,1,0.4045533000025898,470.0469877999858,None,469.544296499982,469.64575409999816,469.64575409999816,None,470.478684599977,None,,,,,,,11008,001,2024_Jan_01_1530,ANT,2021.2.3,59.816983948097025,
1,11,center,up,IC,L,,,,,,Block.xlsx,"你已经完成了整个实验（三个区组）。

请报告实验者已完成实验

非常感谢，再见！",0,50,1.5,left,RRLRR.png,,,,,0,1,1,1,0,5,5,10,,,,,,,,,,,,,,,,,,,,,,,,,,,,,,,,,,,,,,,,,,,,,,,,,,,,,,,,,,,,,,,,,,,,,,470.8791470999713,471.280210900004,471.2646250000107,471.36368859995855,471.7642544999835,None,left,1,0.5349020999856293,471.7642544999835,None,471.2646250000107,471.36368859995855,471.36368859995855,None,472.3315583000076,None,,,,,,,11008,001,2024_Jan_01_1530,ANT,2021.2.3,59.816983948097025,
1,2,no,up,C,R,,,,,,Block.xlsx,"你已经完成了整个实验（三个区组）。

请报告实验者已完成实验

非常感谢，再见！",50,0,1.5,right,RRRRR.png,,,,,0,1,1,1,0,6,6,1,,,,,,,,,,,,,,,,,,,,,,,,,,,,,,,,,,,,,,,,,,,,,,,,,,,,,,,,,,,,,,,,,,,,,,472.73198499996215,473.13411579997046,473.116094099998,473.2177761999774,473.6173496999545,None,right,1,0.4825661000213586,473.6173496999545,None,473.116094099998,473.2177761999774,473.2177761999774,None,474.11713430000236,None,,,,,,,11008,001,2024_Jan_01_1530,ANT,2021.2.3,59.816983948097025,
1,15,center,down,IC,L,,,,,,Block.xlsx,"你已经完成了整个实验（三个区组）。

请报告实验者已完成实验

非常感谢，再见！",0,50,-1.5,left,RRLRR.png,,,,,0,1,1,1,0,7,7,14,,,,,,,,,,,,,,,,,,,,,,,,,,,,,,,,,,,,,,,,,,,,,,,,,,,,,,,,,,,,,,,,,,,,,,474.51815989997704,474.92065960000036,474.90183389995946,475.00247050001053,475.4025737000047,None,left,1,0.5526505000307225,475.4025737000047,None,474.90183389995946,475.00247050001053,475.00247050001053,None,475.9866206999868,None,,,,,,,11008,001,2024_Jan_01_1530,ANT,2021.2.3,59.816983948097025,
1,8,no,down,IC,R,,,,,,Block.xlsx,"你已经完成了整个实验（三个区组）。

请报告实验者已完成实验

非常感谢，再见！",50,0,-1.5,right,LLRLL.png,,,,,0,1,1,1,0,8,8,7,,,,,,,,,,,,,,,,,,,,,,,,,,,,,,,,,,,,,,,,,,,,,,,,,,,,,,,,,,,,,,,,,,,,,,476.3874542999547,476.78971619997174,476.7715814000112,476.87124010000844,477.27280370000517,None,right,1,0.5864820000133477,477.27280370000517,None,476.7715814000112,476.87124010000844,476.87124010000844,None,477.88985410000896,None,,,,,,,11008,001,2024_Jan_01_1530,ANT,2021.2.3,59.816983948097025,
1,15,center,down,IC,L,,,,,,Block.xlsx,"你已经完成了整个实验（三个区组）。

请报告实验者已完成实验

非常感谢，再见！",0,50,-1.5,left,RRLRR.png,,,,,0,1,1,1,0,9,9,14,,,,,,,,,,,,,,,,,,,,,,,,,,,,,,,,,,,,,,,,,,,,,,,,,,,,,,,,,,,,,,,,,,,,,,478.2903273999691,478.69086819997756,478.67447759996867,478.77506449999055,479.1755411999766,None,left,1,0.5646934999967925,479.1755411999766,None,478.67447759996867,478.77506449999055,478.77506449999055,None,479.7594167999923,None,,,,,,,11008,001,2024_Jan_01_1530,ANT,2021.2.3,59.816983948097025,
1,13,center,down,C,L,,,,,,Block.xlsx,"你已经完成了整个实验（三个区组）。

请报告实验者已完成实验

非常感谢，再见！",0,50,-1.5,left,LLLLL.png,,,,,0,1,1,1,0,10,10,12,,,,,,,,,,,,,,,,,,,,,,,,,,,,,,,,,,,,,,,,,,,,,,,,,,,,,,,,,,,,,,,,,,,,,,480.15960969997104,480.5624213999836,480.54412229999434,480.6448952999781,481.0451701999991,None,left,1,0.3900826000026427,481.0451701999991,None,480.54412229999434,480.6448952999781,480.6448952999781,None,481.4612867999822,None,,,,,,,11008,001,2024_Jan_01_1530,ANT,2021.2.3,59.816983948097025,
1,10,center,up,C,R,,,,,,Block.xlsx,"你已经完成了整个实验（三个区组）。

请报告实验者已完成实验

非常感谢，再见！",0,50,1.5,right,RRRRR.png,,,,,0,1,1,1,0,11,11,9,,,,,,,,,,,,,,,,,,,,,,,,,,,,,,,,,,,,,,,,,,,,,,,,,,,,,,,,,,,,,,,,,,,,,,481.86224099999527,482.26302959996974,482.2466846999596,482.3474474999821,482.74797789996956,None,right,1,0.4552504000021145,482.74797789996956,None,482.2466846999596,482.3474474999821,482.3474474999821,None,483.23091729998123,None,,,,,,,11008,001,2024_Jan_01_1530,ANT,2021.2.3,59.816983948097025,
1,13,center,down,C,L,,,,,,Block.xlsx,"你已经完成了整个实验（三个区组）。

请报告实验者已完成实验

非常感谢，再见！",0,50,-1.5,left,LLLLL.png,,,,,0,1,1,1,0,12,12,12,,,,,,,,,,,,,,,,,,,,,,,,,,,,,,,,,,,,,,,,,,,,,,,,,,,,,,,,,,,,,,,,,,,,,,483.6320495000109,484.03399779996835,484.01537539996207,484.1175169000053,484.51705719996244,None,left,1,0.374222100013867,484.51705719996244,None,484.01537539996207,484.1175169000053,484.1175169000053,None,484.9167296999949,None,,,,,,,11008,001,2024_Jan_01_1530,ANT,2021.2.3,59.816983948097025,
1,8,no,down,IC,R,,,,,,Block.xlsx,"你已经完成了整个实验（三个区组）。

请报告实验者已完成实验

非常感谢，再见！",50,0,-1.5,right,LLRLL.png,,,,,0,1,1,1,0,13,13,7,,,,,,,,,,,,,,,,,,,,,,,,,,,,,,,,,,,,,,,,,,,,,,,,,,,,,,,,,,,,,,,,,,,,,,485.3178052000003,485.7183771999553,485.7026392999687,485.80272979999427,486.20290179998847,None,right,1,0.5205510999658145,486.20290179998847,None,485.7026392999687,485.80272979999427,485.80272979999427,None,486.7528008999652,None,,,,,,,11008,001,2024_Jan_01_1530,ANT,2021.2.3,59.816983948097025,
1,11,center,up,IC,L,,,,,,Block.xlsx,"你已经完成了整个实验（三个区组）。

请报告实验者已完成实验

非常感谢，再见！",0,50,1.5,left,RRLRR.png,,,,,0,1,1,1,0,14,14,10,,,,,,,,,,,,,,,,,,,,,,,,,,,,,,,,,,,,,,,,,,,,,,,,,,,,,,,,,,,,,,,,,,,,,,487.1534285999951,487.55379759997595,487.5386089999811,487.6374043999822,488.03892389999237,None,left,1,0.4445715000038035,488.03892389999237,None,487.5386089999811,487.6374043999822,487.6374043999822,None,488.50584549998166,None,,,,,,,11008,001,2024_Jan_01_1530,ANT,2021.2.3,59.816983948097025,
1,24,spatial,down,IC,R,,,,,,Block.xlsx,"你已经完成了整个实验（三个区组）。

请报告实验者已完成实验

非常感谢，再见！",-1.5,0,-1.5,right,LLRLL.png,,,,,0,1,1,1,0,15,15,23,,,,,,,,,,,,,,,,,,,,,,,,,,,,,,,,,,,,,,,,,,,,,,,,,,,,,,,,,,,,,,,,,,,,,,488.9066286999732,489.3071942999959,489.2898306999705,489.39176299999235,489.7914027000079,None,right,1,0.4918700999696739,489.7914027000079,None,489.2898306999705,489.39176299999235,489.39176299999235,None,490.3080212000059,None,,,,,,,11008,001,2024_Jan_01_1530,ANT,2021.2.3,59.816983948097025,
1,8,no,down,IC,R,,,,,,Block.xlsx,"你已经完成了整个实验（三个区组）。

请报告实验者已完成实验

非常感谢，再见！",50,0,-1.5,right,LLRLL.png,,,,,0,1,1,1,0,16,16,7,,,,,,,,,,,,,,,,,,,,,,,,,,,,,,,,,,,,,,,,,,,,,,,,,,,,,,,,,,,,,,,,,,,,,,490.7085478999652,491.11081649997504,491.09259029995883,491.193325500004,491.595230899984,None,right,1,0.5446813000016846,491.595230899984,None,491.09259029995883,491.193325500004,491.193325500004,None,492.1606417999719,None,,,,,,,11008,001,2024_Jan_01_1530,ANT,2021.2.3,59.816983948097025,
1,6,no,down,C,R,,,,,,Block.xlsx,"你已经完成了整个实验（三个区组）。

请报告实验者已完成实验

非常感谢，再见！",50,0,-1.5,right,RRRRR.png,,,,,0,1,1,1,0,17,17,5,,,,,,,,,,,,,,,,,,,,,,,,,,,,,,,,,,,,,,,,,,,,,,,,,,,,,,,,,,,,,,,,,,,,,,492.56222689995775,492.96275589999277,492.94538869999815,493.046156299999,493.4471219999832,None,right,1,0.42866769997635856,493.4471219999832,None,492.94538869999815,493.046156299999,493.046156299999,None,493.89664699998684,None,,,,,,,11008,001,2024_Jan_01_1530,ANT,2021.2.3,59.816983948097025,
1,6,no,down,C,R,,,,,,Block.xlsx,"你已经完成了整个实验（三个区组）。

请报告实验者已完成实验

非常感谢，再见！",50,0,-1.5,right,RRRRR.png,,,,,0,1,1,1,0,18,18,5,,,,,,,,,,,,,,,,,,,,,,,,,,,,,,,,,,,,,,,,,,,,,,,,,,,,,,,,,,,,,,,,,,,,,,494.29720759997144,494.6979494999978,494.6821549999877,494.78253339999355,495.18241119995946,None,right,1,0.38170460000401363,495.18241119995946,None,494.6821549999877,494.78253339999355,494.78253339999355,None,495.5822754999972,None,,,,,,,11008,001,2024_Jan_01_1530,ANT,2021.2.3,59.816983948097025,
1,5,no,down,C,L,,,,,,Block.xlsx,"你已经完成了整个实验（三个区组）。

请报告实验者已完成实验

非常感谢，再见！",50,0,-1.5,left,LLLLL.png,,,,,0,1,1,1,0,19,19,4,,,,,,,,,,,,,,,,,,,,,,,,,,,,,,,,,,,,,,,,,,,,,,,,,,,,,,,,,,,,,,,,,,,,,,495.98309860000154,496.38480169995455,496.36714879999636,496.467791699979,496.86984579998534,None,left,1,0.398062199994456,496.86984579998534,None,496.36714879999636,496.467791699979,496.467791699979,None,497.2851738999598,None,,,,,,,11008,001,2024_Jan_01_1530,ANT,2021.2.3,59.816983948097025,
1,17,spatial,up,C,L,,,,,,Block.xlsx,"你已经完成了整个实验（三个区组）。

请报告实验者已完成实验

非常感谢，再见！",1.5,0,1.5,left,LLLLL.png,,,,,0,1,1,1,0,20,20,16,,,,,,,,,,,,,,,,,,,,,,,,,,,,,,,,,,,,,,,,,,,,,,,,,,,,,,,,,,,,,,,,,,,,,,497.6855238999706,498.0878956000088,498.06959829997504,498.1699611999793,498.57043779996457,None,left,1,0.39306729997042567,498.57043779996457,None,498.06959829997504,498.1699611999793,498.1699611999793,None,498.98758049996104,None,,,,,,,11008,001,2024_Jan_01_1530,ANT,2021.2.3,59.816983948097025,
1,3,no,up,IC,L,,,,,,Block.xlsx,"你已经完成了整个实验（三个区组）。

请报告实验者已完成实验

非常感谢，再见！",50,0,1.5,left,RRLRR.png,,,,,0,1,1,1,0,21,21,2,,,,,,,,,,,,,,,,,,,,,,,,,,,,,,,,,,,,,,,,,,,,,,,,,,,,,,,,,,,,,,,,,,,,,,499.38890049996553,499.7887622999842,499.7725854999735,499.8727238999563,500.2746796999709,None,left,1,0.6086343000060879,500.2746796999709,None,499.7725854999735,499.8727238999563,499.8727238999563,None,500.90728300000774,None,,,,,,,11008,001,2024_Jan_01_1530,ANT,2021.2.3,59.816983948097025,
1,23,spatial,down,IC,L,,,,,,Block.xlsx,"你已经完成了整个实验（三个区组）。

请报告实验者已完成实验

非常感谢，再见！",-1.5,0,-1.5,left,RRLRR.png,,,,,0,1,1,1,0,22,22,22,,,,,,,,,,,,,,,,,,,,,,,,,,,,,,,,,,,,,,,,,,,,,,,,,,,,,,,,,,,,,,,,,,,,,,501.30841800000053,501.709418799961,501.6917517000111,501.79246279998915,502.1931728000054,None,left,1,0.4670948999701068,502.1931728000054,None,501.6917517000111,501.79246279998915,501.79246279998915,None,502.67632909998065,None,,,,,,,11008,001,2024_Jan_01_1530,ANT,2021.2.3,59.816983948097025,
1,18,spatial,up,C,R,,,,,,Block.xlsx,"你已经完成了整个实验（三个区组）。

请报告实验者已完成实验

非常感谢，再见！",1.5,0,1.5,right,RRRRR.png,,,,,0,1,1,1,0,23,23,17,,,,,,,,,,,,,,,,,,,,,,,,,,,,,,,,,,,,,,,,,,,,,,,,,,,,,,,,,,,,,,,,,,,,,,503.0769215999753,503.47782989998814,503.46142790000886,503.56224379997,503.96247649996076,None,right,1,0.38471720000961795,503.96247649996076,None,503.46142790000886,503.56224379997,503.56224379997,None,504.362113399955,None,,,,,,,11008,001,2024_Jan_01_1530,ANT,2021.2.3,59.816983948097025,
1,12,center,up,IC,R,,,,,,Block.xlsx,"你已经完成了整个实验（三个区组）。

请报告实验者已完成实验

非常感谢，再见！",0,50,1.5,right,LLRLL.png,,,,,0,1,1,1,1,0,24,11,,,,,,,,,,,,,,,,,,,,,,,,,,,,,,,,,,,,,,,,,,,,,,,,,,,,,,,,,,,,,,,,,,,,,,504.7626382999588,505.1647464999696,505.146446299972,505.24715959996684,505.6473746999982,None,right,1,0.580714000039734,505.6473746999982,None,505.146446299972,505.24715959996684,505.24715959996684,None,506.2485963999643,None,,,,,,,11008,001,2024_Jan_01_1530,ANT,2021.2.3,59.816983948097025,
1,4,no,up,IC,R,,,,,,Block.xlsx,"你已经完成了整个实验（三个区组）。

请报告实验者已完成实验

非常感谢，再见！",50,0,1.5,right,LLRLL.png,,,,,0,1,1,1,1,1,25,3,,,,,,,,,,,,,,,,,,,,,,,,,,,,,,,,,,,,,,,,,,,,,,,,,,,,,,,,,,,,,,,,,,,,,,506.6490084999823,507.0494602000108,507.03461380000226,507.13288329995703,507.53498150000814,None,right,1,0.5489616999984719,507.53498150000814,None,507.03461380000226,507.13288329995703,507.13288329995703,None,508.1010154999676,None,,,,,,,11008,001,2024_Jan_01_1530,ANT,2021.2.3,59.816983948097025,
1,16,center,down,IC,R,,,,,,Block.xlsx,"你已经完成了整个实验（三个区组）。

请报告实验者已完成实验

非常感谢，再见！",0,50,-1.5,right,LLRLL.png,,,,,0,1,1,1,1,2,26,15,,,,,,,,,,,,,,,,,,,,,,,,,,,,,,,,,,,,,,,,,,,,,,,,,,,,,,,,,,,,,,,,,,,,,,508.5015916999546,508.9022088999627,508.88708959997166,509.0031551999855,509.3880330999964,None,right,1,0.5352003999869339,509.3880330999964,None,508.88708959997166,509.0031551999855,508.98764279996976,None,509.954082799959,None,,,,,,,11008,001,2024_Jan_01_1530,ANT,2021.2.3,59.816983948097025,
1,20,spatial,up,IC,R,,,,,,Block.xlsx,"你已经完成了整个实验（三个区组）。

请报告实验者已完成实验

非常感谢，再见！",1.5,0,1.5,right,LLRLL.png,,,,,0,1,1,1,1,3,27,19,,,,,,,,,,,,,,,,,,,,,,,,,,,,,,,,,,,,,,,,,,,,,,,,,,,,,,,,,,,,,,,,,,,,,,510.3547181999893,510.75581469997996,510.7389936999534,510.83898780000163,511.23924769996665,None,right,1,0.3884027000167407,511.23924769996665,None,510.7389936999534,510.83898780000163,510.83898780000163,None,511.6563438999583,None,,,,,,,11008,001,2024_Jan_01_1530,ANT,2021.2.3,59.816983948097025,
1,7,no,down,IC,L,,,,,,Block.xlsx,"你已经完成了整个实验（三个区组）。

请报告实验者已完成实验

非常感谢，再见！",50,0,-1.5,left,RRLRR.png,,,,,0,1,1,1,1,4,28,6,,,,,,,,,,,,,,,,,,,,,,,,,,,,,,,,,,,,,,,,,,,,,,,,,,,,,,,,,,,,,,,,,,,,,,512.057204999961,512.4583989999956,512.441219899978,512.5418330999673,512.9437947999686,None,left,1,0.5477219999884255,512.9437947999686,None,512.441219899978,512.5418330999673,512.5418330999673,None,513.50912469998,None,,,,,,,11008,001,2024_Jan_01_1530,ANT,2021.2.3,59.816983948097025,
1,16,center,down,IC,R,,,,,,Block.xlsx,"你已经完成了整个实验（三个区组）。

请报告实验者已完成实验

非常感谢，再见！",0,50,-1.5,right,LLRLL.png,,,,,0,1,1,1,1,5,29,15,,,,,,,,,,,,,,,,,,,,,,,,,,,,,,,,,,,,,,,,,,,,,,,,,,,,,,,,,,,,,,,,,,,,,,513.9096250999719,514.3114047999843,514.2934041999979,514.3958037999691,514.7953651999705,None,right,1,0.5360013000317849,514.7953651999705,None,514.2934041999979,514.3958037999691,514.3958037999691,None,515.361682399991,None,,,,,,,11008,001,2024_Jan_01_1530,ANT,2021.2.3,59.816983948097025,
1,7,no,down,IC,L,,,,,,Block.xlsx,"你已经完成了整个实验（三个区组）。

请报告实验者已完成实验

非常感谢，再见！",50,0,-1.5,left,RRLRR.png,,,,,0,1,1,1,1,6,30,6,,,,,,,,,,,,,,,,,,,,,,,,,,,,,,,,,,,,,,,,,,,,,,,,,,,,,,,,,,,,,,,,,,,,,,515.7622008000035,516.1632464999566,516.1461971999961,516.2469890000066,516.6481039999635,None,left,1,0.5157191000180319,516.6481039999635,None,516.1461971999961,516.2469890000066,516.2469890000066,None,517.1811452999827,None,,,,,,,11008,001,2024_Jan_01_1530,ANT,2021.2.3,59.816983948097025,
1,20,spatial,up,IC,R,,,,,,Block.xlsx,"你已经完成了整个实验（三个区组）。

请报告实验者已完成实验

非常感谢，再见！",1.5,0,1.5,right,LLRLL.png,,,,,0,1,1,1,1,7,31,19,,,,,,,,,,,,,,,,,,,,,,,,,,,,,,,,,,,,,,,,,,,,,,,,,,,,,,,,,,,,,,,,,,,,,,517.5827047000057,517.9836590999621,517.965477699996,518.0664061999996,518.4667800999596,None,right,1,0.45019780000438914,518.4667800999596,None,517.965477699996,518.0664061999996,518.0664061999996,None,518.9336875999579,None,,,,,,,11008,001,2024_Jan_01_1530,ANT,2021.2.3,59.816983948097025,
1,18,spatial,up,C,R,,,,,,Block.xlsx,"你已经完成了整个实验（三个区组）。

请报告实验者已完成实验

非常感谢，再见！",1.5,0,1.5,right,RRRRR.png,,,,,0,1,1,1,1,8,32,17,,,,,,,,,,,,,,,,,,,,,,,,,,,,,,,,,,,,,,,,,,,,,,,,,,,,,,,,,,,,,,,,,,,,,,519.3343838999863,519.7358597999555,519.7184905000031,519.8189658999909,520.2189863999956,None,right,1,0.36042670003371313,520.2189863999956,None,519.7184905000031,519.8189658999909,519.8189658999909,None,520.6028822999797,None,,,,,,,11008,001,2024_Jan_01_1530,ANT,2021.2.3,59.816983948097025,
1,18,spatial,up,C,R,,,,,,Block.xlsx,"你已经完成了整个实验（三个区组）。

请报告实验者已完成实验

非常感谢，再见！",1.5,0,1.5,right,RRRRR.png,,,,,0,1,1,1,1,9,33,17,,,,,,,,,,,,,,,,,,,,,,,,,,,,,,,,,,,,,,,,,,,,,,,,,,,,,,,,,,,,,,,,,,,,,,521.0040220000083,521.4048841999611,521.3878626999795,521.4888119999669,521.8895544999978,None,right,1,0.36216540000168607,521.8895544999978,None,521.3878626999795,521.4888119999669,521.4888119999669,None,522.2720086000045,None,,,,,,,11008,001,2024_Jan_01_1530,ANT,2021.2.3,59.816983948097025,
1,9,center,up,C,L,,,,,,Block.xlsx,"你已经完成了整个实验（三个区组）。

请报告实验者已完成实验

非常感谢，再见！",0,50,1.5,left,LLLLL.png,,,,,0,1,1,1,1,10,34,8,,,,,,,,,,,,,,,,,,,,,,,,,,,,,,,,,,,,,,,,,,,,,,,,,,,,,,,,,,,,,,,,,,,,,,522.6726785000064,523.073855399969,523.0566189999809,523.1570671999943,523.55955060001,None,left,1,0.3558894000016153,523.55955060001,None,523.0566189999809,523.1570671999943,523.1570671999943,None,523.9411039999686,None,,,,,,,11008,001,2024_Jan_01_1530,ANT,2021.2.3,59.816983948097025,
1,23,spatial,down,IC,L,,,,,,Block.xlsx,"你已经完成了整个实验（三个区组）。

请报告实验者已完成实验

非常感谢，再见！",-1.5,0,-1.5,left,RRLRR.png,,,,,0,1,1,1,1,11,35,22,,,,,,,,,,,,,,,,,,,,,,,,,,,,,,,,,,,,,,,,,,,,,,,,,,,,,,,,,,,,,,,,,,,,,,524.3418360999785,524.743376999977,524.7265785000054,524.8262113999808,525.226393799996,None,left,1,0.39296859997557476,525.226393799996,None,524.7265785000054,524.8262113999808,524.8262113999808,None,525.6435393999564,None,,,,,,,11008,001,2024_Jan_01_1530,ANT,2021.2.3,59.816983948097025,
1,14,center,down,C,R,,,,,,Block.xlsx,"你已经完成了整个实验（三个区组）。

请报告实验者已完成实验

非常感谢，再见！",0,50,-1.5,right,RRRRR.png,,,,,0,1,1,1,1,12,36,13,,,,,,,,,,,,,,,,,,,,,,,,,,,,,,,,,,,,,,,,,,,,,,,,,,,,,,,,,,,,,,,,,,,,,,526.0443816999905,526.4448028999614,526.4293482999783,526.5288533999701,526.9294973000069,None,right,1,0.4339896000456065,526.9294973000069,None,526.4293482999783,526.5288533999701,526.5288533999701,None,527.3795133999665,None,,,,,,,11008,001,2024_Jan_01_1530,ANT,2021.2.3,59.816983948097025,
1,9,center,up,C,L,,,,,,Block.xlsx,"你已经完成了整个实验（三个区组）。

请报告实验者已完成实验

非常感谢，再见！",0,50,1.5,left,LLLLL.png,,,,,0,1,1,1,1,13,37,8,,,,,,,,,,,,,,,,,,,,,,,,,,,,,,,,,,,,,,,,,,,,,,,,,,,,,,,,,,,,,,,,,,,,,,527.7803287999704,528.1814389000065,528.1641330999555,528.2653403999866,528.6664449999807,None,left,1,0.42491090000839904,528.6664449999807,None,528.1641330999555,528.2653403999866,528.2653403999866,None,529.115545699955,None,,,,,,,11008,001,2024_Jan_01_1530,ANT,2021.2.3,59.816983948097025,
1,11,center,up,IC,L,,,,,,Block.xlsx,"你已经完成了整个实验（三个区组）。

请报告实验者已完成实验

非常感谢，再见！",0,50,1.5,left,RRLRR.png,,,,,0,1,1,1,1,14,38,10,,,,,,,,,,,,,,,,,,,,,,,,,,,,,,,,,,,,,,,,,,,,,,,,,,,,,,,,,,,,,,,,,,,,,,529.517259699991,529.9174286999623,529.8998126999941,530.0014239999582,530.4007707999554,None,left,1,0.5227748999604955,530.4007707999554,None,529.8998126999941,530.0014239999582,530.0014239999582,None,530.9516089999815,None,,,,,,,11008,001,2024_Jan_01_1530,ANT,2021.2.3,59.816983948097025,
1,21,spatial,down,C,L,,,,,,Block.xlsx,"你已经完成了整个实验（三个区组）。

请报告实验者已完成实验

非常感谢，再见！",-1.5,0,-1.5,left,LLLLL.png,,,,,0,1,1,1,1,15,39,20,,,,,,,,,,,,,,,,,,,,,,,,,,,,,,,,,,,,,,,,,,,,,,,,,,,,,,,,,,,,,,,,,,,,,,531.3518892999855,531.7540808999911,531.7360102999955,531.8379963999614,532.2367297000019,None,left,1,0.406693400000222,532.2367297000019,None,531.7360102999955,531.8379963999614,531.8379963999614,None,532.6706430999911,None,,,,,,,11008,001,2024_Jan_01_1530,ANT,2021.2.3,59.816983948097025,
1,6,no,down,C,R,,,,,,Block.xlsx,"你已经完成了整个实验（三个区组）。

请报告实验者已完成实验

非常感谢，再见！",50,0,-1.5,right,RRRRR.png,,,,,0,1,1,1,1,16,40,5,,,,,,,,,,,,,,,,,,,,,,,,,,,,,,,,,,,,,,,,,,,,,,,,,,,,,,,,,,,,,,,,,,,,,,533.071395499981,533.4742920999997,533.4557187999599,533.5556769999675,533.9559592999867,None,right,1,0.4395894999615848,533.9559592999867,None,533.4557187999599,533.5556769999675,533.5556769999675,None,534.4233407999855,None,,,,,,,11008,001,2024_Jan_01_1530,ANT,2021.2.3,59.816983948097025,
1,6,no,down,C,R,,,,,,Block.xlsx,"你已经完成了整个实验（三个区组）。

请报告实验者已完成实验

非常感谢，再见！",50,0,-1.5,right,RRRRR.png,,,,,0,1,1,1,1,17,41,5,,,,,,,,,,,,,,,,,,,,,,,,,,,,,,,,,,,,,,,,,,,,,,,,,,,,,,,,,,,,,,,,,,,,,,534.8246712999535,535.2251657999586,535.20769869996,535.3083394999849,535.7093434999697,None,right,1,0.4141045000287704,535.7093434999697,None,535.20769869996,535.3083394999849,535.3083394999849,None,536.1425828000065,None,,,,,,,11008,001,2024_Jan_01_1530,ANT,2021.2.3,59.816983948097025,
1,5,no,down,C,L,,,,,,Block.xlsx,"你已经完成了整个实验（三个区组）。

请报告实验者已完成实验

非常感谢，再见！",50,0,-1.5,left,LLLLL.png,,,,,0,1,1,1,1,18,42,4,,,,,,,,,,,,,,,,,,,,,,,,,,,,,,,,,,,,,,,,,,,,,,,,,,,,,,,,,,,,,,,,,,,,,,536.5437043999555,536.9456943999976,536.9274613999878,537.0288351000054,537.4285054999636,None,left,1,0.43078409996815026,537.4285054999636,None,536.9274613999878,537.0288351000054,537.0288351000054,None,537.8785066999844,None,,,,,,,11008,001,2024_Jan_01_1530,ANT,2021.2.3,59.816983948097025,
1,2,no,up,C,R,,,,,,Block.xlsx,"你已经完成了整个实验（三个区组）。

请报告实验者已完成实验

非常感谢，再见！",50,0,1.5,right,RRRRR.png,,,,,0,1,1,1,1,19,43,1,,,,,,,,,,,,,,,,,,,,,,,,,,,,,,,,,,,,,,,,,,,,,,,,,,,,,,,,,,,,,,,,,,,,,,538.2791705999989,538.6809497000067,538.6630682999967,538.7631809999584,539.1644747999962,None,right,1,0.47103910002624616,539.1644747999962,None,538.6630682999967,538.7631809999584,538.7631809999584,None,539.6644296000013,None,,,,,,,11008,001,2024_Jan_01_1530,ANT,2021.2.3,59.816983948097025,
1,20,spatial,up,IC,R,,,,,,Block.xlsx,"你已经完成了整个实验（三个区组）。

请报告实验者已完成实验

非常感谢，再见！",1.5,0,1.5,right,LLRLL.png,,,,,0,1,1,1,1,20,44,19,,,,,,,,,,,,,,,,,,,,,,,,,,,,,,,,,,,,,,,,,,,,,,,,,,,,,,,,,,,,,,,,,,,,,,540.0650357999839,540.4657001000014,540.4500240999623,540.5501631000079,540.9505204999587,None,right,1,0.42118000000482425,540.9505204999587,None,540.4500240999623,540.5501631000079,540.5501631000079,None,541.40043899999,None,,,,,,,11008,001,2024_Jan_01_1530,ANT,2021.2.3,59.816983948097025,
1,4,no,up,IC,R,,,,,,Block.xlsx,"你已经完成了整个实验（三个区组）。

请报告实验者已完成实验

非常感谢，再见！",50,0,1.5,right,LLRLL.png,,,,,0,1,1,1,1,21,45,3,,,,,,,,,,,,,,,,,,,,,,,,,,,,,,,,,,,,,,,,,,,,,,,,,,,,,,,,,,,,,,,,,,,,,,541.8011897999677,542.203732999973,542.1856360000093,542.285692400008,542.6859227999812,None,right,1,0.5818320999969728,542.6859227999812,None,542.1856360000093,542.285692400008,542.285692400008,None,543.2863961000112,None,,,,,,,11008,001,2024_Jan_01_1530,ANT,2021.2.3,59.816983948097025,
1,14,center,down,C,R,,,,,,Block.xlsx,"你已经完成了整个实验（三个区组）。

请报告实验者已完成实验

非常感谢，再见！",0,50,-1.5,right,RRRRR.png,,,,,0,1,1,1,1,22,46,13,,,,,,,,,,,,,,,,,,,,,,,,,,,,,,,,,,,,,,,,,,,,,,,,,,,,,,,,,,,,,,,,,,,,,,543.6877774999593,544.087993299996,544.073173999961,544.1896165999933,544.5732442999724,None,right,1,0.3740772000164725,544.5732442999724,None,544.073173999961,544.1896165999933,544.1718067000038,None,544.97233650001,None,,,,,,,11008,001,2024_Jan_01_1530,ANT,2021.2.3,59.816983948097025,
1,7,no,down,IC,L,,,,,,Block.xlsx,"你已经完成了整个实验（三个区组）。

请报告实验者已完成实验

非常感谢，再见！",50,0,-1.5,left,RRLRR.png,,,,,0,1,1,1,1,23,47,6,,,,,,,,,,,,,,,,,,,,,,,,,,,,,,,,,,,,,,,,,,,,,,,,,,,,,,,,,,,,,,,,,,,,,,545.372853000008,545.7757786999573,545.757718799985,545.8572050000075,546.2588641999755,None,right,0,0.42451009998330846,546.2588641999755,None,545.757718799985,545.8572050000075,545.8572050000075,None,546.7084113999736,None,,,,,,,11008,001,2024_Jan_01_1530,ANT,2021.2.3,59.816983948097025,
1,16,center,down,IC,R,,,,,,Block.xlsx,"你已经完成了整个实验（三个区组）。

请报告实验者已完成实验

非常感谢，再见！",0,50,-1.5,right,LLRLL.png,,,,,0,1,1,1,2,0,48,15,,,,,,,,,,,,,,,,,,,,,,,,,,,,,,,,,,,,,,,,,,,,,,,,,,,,,,,,,,,,,,,,,,,,,,547.1088952999562,547.5113511999953,547.4933546999819,547.5944496999728,547.993560199975,None,right,1,0.5537978999782354,547.993560199975,None,547.4933546999819,547.5944496999728,547.5944496999728,None,548.5775499999872,None,,,,,,,11008,001,2024_Jan_01_1530,ANT,2021.2.3,59.816983948097025,
1,2,no,up,C,R,,,,,,Block.xlsx,"你已经完成了整个实验（三个区组）。

请报告实验者已完成实验

非常感谢，再见！",50,0,1.5,right,RRRRR.png,,,,,0,1,1,1,2,1,49,1,,,,,,,,,,,,,,,,,,,,,,,,,,,,,,,,,,,,,,,,,,,,,,,,,,,,,,,,,,,,,,,,,,,,,,548.9782315999619,549.3798474000068,549.3619789999793,549.464640799968,549.8637534999871,None,right,1,0.45175289997132495,549.8637534999871,None,549.3619789999793,549.464640799968,549.464640799968,None,550.3301722999895,None,,,,,,,11008,001,2024_Jan_01_1530,ANT,2021.2.3,59.816983948097025,
1,22,spatial,down,C,R,,,,,,Block.xlsx,"你已经完成了整个实验（三个区组）。

请报告实验者已完成实验

非常感谢，再见！",-1.5,0,-1.5,right,RRRRR.png,,,,,0,1,1,1,2,2,50,21,,,,,,,,,,,,,,,,,,,,,,,,,,,,,,,,,,,,,,,,,,,,,,,,,,,,,,,,,,,,,,,,,,,,,,550.7317795999697,551.1322138999822,551.1159130999586,551.2155409999541,551.6171873999992,None,right,1,0.3786287999828346,551.6171873999992,None,551.1159130999586,551.2155409999541,551.2155409999541,None,552.0160794999683,None,,,,,,,11008,001,2024_Jan_01_1530,ANT,2021.2.3,59.816983948097025,
1,24,spatial,down,IC,R,,,,,,Block.xlsx,"你已经完成了整个实验（三个区组）。

请报告实验者已完成实验

非常感谢，再见！",-1.5,0,-1.5,right,LLRLL.png,,,,,0,1,1,1,2,3,51,23,,,,,,,,,,,,,,,,,,,,,,,,,,,,,,,,,,,,,,,,,,,,,,,,,,,,,,,,,,,,,,,,,,,,,,552.417346799979,552.8179768999689,552.80184619996,552.9022676000022,553.3025660999701,None,right,1,0.43711900000926107,553.3025660999701,None,552.80184619996,552.9022676000022,552.9022676000022,None,553.7693447999773,None,,,,,,,11008,001,2024_Jan_01_1530,ANT,2021.2.3,59.816983948097025,
1,1,no,up,C,L,,,,,,Block.xlsx,"你已经完成了整个实验（三个区组）。

请报告实验者已完成实验

非常感谢，再见！",50,0,1.5,left,LLLLL.png,,,,,0,1,1,1,2,4,52,0,,,,,,,,,,,,,,,,,,,,,,,,,,,,,,,,,,,,,,,,,,,,,,,,,,,,,,,,,,,,,,,,,,,,,,554.1692284999881,554.5708711000043,554.5532308999682,554.654221499979,555.0554518999998,None,left,1,0.5081522000255063,555.0554518999998,None,554.5532308999682,554.654221499979,554.654221499979,None,555.587953499984,None,,,,,,,11008,001,2024_Jan_01_1530,ANT,2021.2.3,59.816983948097025,
1,13,center,down,C,L,,,,,,Block.xlsx,"你已经完成了整个实验（三个区组）。

请报告实验者已完成实验

非常感谢，再见！",0,50,-1.5,left,LLLLL.png,,,,,0,1,1,1,2,5,53,12,,,,,,,,,,,,,,,,,,,,,,,,,,,,,,,,,,,,,,,,,,,,,,,,,,,,,,,,,,,,,,,,,,,,,,555.9889215999865,556.3905420000083,556.3732018999872,556.4736943999887,556.8745459999773,None,left,1,0.41739670000970364,556.8745459999773,None,556.3732018999872,556.4736943999887,556.4736943999887,None,557.3072206999641,None,,,,,,,11008,001,2024_Jan_01_1530,ANT,2021.2.3,59.816983948097025,
1,17,spatial,up,C,L,,,,,,Block.xlsx,"你已经完成了整个实验（三个区组）。

请报告实验者已完成实验

非常感谢，再见！",1.5,0,1.5,left,LLLLL.png,,,,,0,1,1,1,2,6,54,16,,,,,,,,,,,,,,,,,,,,,,,,,,,,,,,,,,,,,,,,,,,,,,,,,,,,,,,,,,,,,,,,,,,,,,557.7082459999947,558.1095422999933,558.0920057999901,558.1917816000059,558.592596500006,None,left,1,0.40288469998631626,558.592596500006,None,558.0920057999901,558.1917816000059,558.1917816000059,None,559.0098741999827,None,,,,,,,11008,001,2024_Jan_01_1530,ANT,2021.2.3,59.816983948097025,
1,23,spatial,down,IC,L,,,,,,Block.xlsx,"你已经完成了整个实验（三个区组）。

请报告实验者已完成实验

非常感谢，再见！",-1.5,0,-1.5,left,RRLRR.png,,,,,0,1,1,1,2,7,55,22,,,,,,,,,,,,,,,,,,,,,,,,,,,,,,,,,,,,,,,,,,,,,,,,,,,,,,,,,,,,,,,,,,,,,,559.4102620999911,559.8130067999591,559.79505039996,559.895321399963,560.2961153999786,None,left,1,0.43527600000379607,560.2961153999786,None,559.79505039996,559.895321399963,559.895321399963,None,560.7455951999873,None,,,,,,,11008,001,2024_Jan_01_1530,ANT,2021.2.3,59.816983948097025,
1,12,center,up,IC,R,,,,,,Block.xlsx,"你已经完成了整个实验（三个区组）。

请报告实验者已完成实验

非常感谢，再见！",0,50,1.5,right,LLRLL.png,,,,,0,1,1,1,2,8,56,11,,,,,,,,,,,,,,,,,,,,,,,,,,,,,,,,,,,,,,,,,,,,,,,,,,,,,,,,,,,,,,,,,,,,,,561.1465308999759,561.5485651000054,561.5304403000046,561.6320634000003,562.0312319999794,None,right,1,0.6200224999920465,562.0312319999794,None,561.5304403000046,561.6320634000003,561.6320634000003,None,562.681865599996,None,,,,,,,11008,001,2024_Jan_01_1530,ANT,2021.2.3,59.816983948097025,
1,22,spatial,down,C,R,,,,,,Block.xlsx,"你已经完成了整个实验（三个区组）。

请报告实验者已完成实验

非常感谢，再见！",-1.5,0,-1.5,right,RRRRR.png,,,,,0,1,1,1,2,9,57,21,,,,,,,,,,,,,,,,,,,,,,,,,,,,,,,,,,,,,,,,,,,,,,,,,,,,,,,,,,,,,,,,,,,,,,563.0832786000101,563.4836671999656,563.4682839000016,563.583321699989,563.9674969000043,None,right,1,0.3880467999842949,563.9674969000043,None,563.4682839000016,563.583321699989,563.5682956000092,None,564.384341500001,None,,,,,,,11008,001,2024_Jan_01_1530,ANT,2021.2.3,59.816983948097025,
1,21,spatial,down,C,L,,,,,,Block.xlsx,"你已经完成了整个实验（三个区组）。

请报告实验者已完成实验

非常感谢，再见！",-1.5,0,-1.5,left,LLLLL.png,,,,,0,1,1,1,2,10,58,20,,,,,,,,,,,,,,,,,,,,,,,,,,,,,,,,,,,,,,,,,,,,,,,,,,,,,,,,,,,,,,,,,,,,,,564.7852207999676,565.1881472999812,565.1699299999746,565.2701100999839,565.6698495000019,None,left,1,0.3899723999784328,565.6698495000019,None,565.1699299999746,565.2701100999839,565.2701100999839,None,566.0869028999587,None,,,,,,,11008,001,2024_Jan_01_1530,ANT,2021.2.3,59.816983948097025,
1,12,center,up,IC,R,,,,,,Block.xlsx,"你已经完成了整个实验（三个区组）。

请报告实验者已完成实验

非常感谢，再见！",0,50,1.5,right,LLRLL.png,,,,,0,1,1,1,2,11,59,11,,,,,,,,,,,,,,,,,,,,,,,,,,,,,,,,,,,,,,,,,,,,,,,,,,,,,,,,,,,,,,,,,,,,,,566.4875627000001,566.890373400005,566.8721460999805,566.9714835999766,567.3721529999748,None,right,1,0.5352792999474332,567.3721529999748,None,566.8721460999805,566.9714835999766,566.9714835999766,None,567.9229077000055,None,,,,,,,11008,001,2024_Jan_01_1530,ANT,2021.2.3,59.816983948097025,
1,10,center,up,C,R,,,,,,Block.xlsx,"你已经完成了整个实验（三个区组）。

请报告实验者已完成实验

非常感谢，再见！",0,50,1.5,right,RRRRR.png,,,,,0,1,1,1,2,12,60,9,,,,,,,,,,,,,,,,,,,,,,,,,,,,,,,,,,,,,,,,,,,,,,,,,,,,,,,,,,,,,,,,,,,,,,568.3240119999973,568.7246282999986,568.7100101999822,568.8259444999858,569.2081618999946,None,right,1,0.4912790000089444,569.2081618999946,None,568.7100101999822,568.8259444999858,568.8081670000101,None,569.7258922999608,None,,,,,,,11008,001,2024_Jan_01_1530,ANT,2021.2.3,59.816983948097025,
1,19,spatial,up,IC,L,,,,,,Block.xlsx,"你已经完成了整个实验（三个区组）。

请报告实验者已完成实验

非常感谢，再见！",1.5,0,1.5,left,RRLRR.png,,,,,0,1,1,1,2,13,61,18,,,,,,,,,,,,,,,,,,,,,,,,,,,,,,,,,,,,,,,,,,,,,,,,,,,,,,,,,,,,,,,,,,,,,,570.1266360000009,570.5272833000054,570.512134199962,570.6278848999646,571.01133389998,None,left,1,0.4324692999944091,571.01133389998,None,570.512134199962,570.6278848999646,570.6101819999749,None,571.461568299972,None,,,,,,,11008,001,2024_Jan_01_1530,ANT,2021.2.3,59.816983948097025,
1,5,no,down,C,L,,,,,,Block.xlsx,"你已经完成了整个实验（三个区组）。

请报告实验者已完成实验

非常感谢，再见！",50,0,-1.5,left,LLLLL.png,,,,,0,1,1,1,2,14,62,4,,,,,,,,,,,,,,,,,,,,,,,,,,,,,,,,,,,,,,,,,,,,,,,,,,,,,,,,,,,,,,,,,,,,,,571.8622401999892,572.2640431000036,572.2468078999664,572.3476043999544,572.7478497999837,None,left,1,0.4557053999742493,572.7478497999837,None,572.2468078999664,572.3476043999544,572.3476043999544,None,573.2310858999845,None,,,,,,,11008,001,2024_Jan_01_1530,ANT,2021.2.3,59.816983948097025,
1,20,spatial,up,IC,R,,,,,,Block.xlsx,"你已经完成了整个实验（三个区组）。

请报告实验者已完成实验

非常感谢，再见！",1.5,0,1.5,right,LLRLL.png,,,,,0,1,1,1,2,15,63,19,,,,,,,,,,,,,,,,,,,,,,,,,,,,,,,,,,,,,,,,,,,,,,,,,,,,,,,,,,,,,,,,,,,,,,573.6314730999875,574.0326436999603,574.0173398999614,574.11803469999,574.5181540999911,None,right,1,0.3574003999819979,574.5181540999911,None,574.0173398999614,574.11803469999,574.11803469999,None,574.9000936999801,None,,,,,,,11008,001,2024_Jan_01_1530,ANT,2021.2.3,59.816983948097025,
1,24,spatial,down,IC,R,,,,,,Block.xlsx,"你已经完成了整个实验（三个区组）。

请报告实验者已完成实验

非常感谢，再见！",-1.5,0,-1.5,right,LLRLL.png,,,,,0,1,1,1,2,16,64,23,,,,,,,,,,,,,,,,,,,,,,,,,,,,,,,,,,,,,,,,,,,,,,,,,,,,,,,,,,,,,,,,,,,,,,575.3007032999885,575.7016444999608,575.6865032999776,575.7848573999945,576.1856892000069,None,right,1,0.45064440002897754,576.1856892000069,None,575.6865032999776,575.7848573999945,575.7848573999945,None,576.6526831999654,None,,,,,,,11008,001,2024_Jan_01_1530,ANT,2021.2.3,59.816983948097025,
1,14,center,down,C,R,,,,,,Block.xlsx,"你已经完成了整个实验（三个区组）。

请报告实验者已完成实验

非常感谢，再见！",0,50,-1.5,right,RRRRR.png,,,,,0,1,1,1,2,17,65,13,,,,,,,,,,,,,,,,,,,,,,,,,,,,,,,,,,,,,,,,,,,,,,,,,,,,,,,,,,,,,,,,,,,,,,577.053223099967,577.4558305999963,577.4375834999955,577.5374990999699,577.9381351000047,None,right,1,0.4174921000376344,577.9381351000047,None,577.4375834999955,577.5374990999699,577.5374990999699,None,578.3717415999854,None,,,,,,,11008,001,2024_Jan_01_1530,ANT,2021.2.3,59.816983948097025,
1,7,no,down,IC,L,,,,,,Block.xlsx,"你已经完成了整个实验（三个区组）。

请报告实验者已完成实验

非常感谢，再见！",50,0,-1.5,left,RRLRR.png,,,,,0,1,1,1,2,18,66,6,,,,,,,,,,,,,,,,,,,,,,,,,,,,,,,,,,,,,,,,,,,,,,,,,,,,,,,,,,,,,,,,,,,,,,578.7723435999942,579.1737867000047,579.1567748999805,579.2585770000005,579.6576000999776,None,right,0,0.4825976000283845,579.6576000999776,None,579.1567748999805,579.2585770000005,579.2585770000005,None,580.1579587999731,None,,,,,,,11008,001,2024_Jan_01_1530,ANT,2021.2.3,59.816983948097025,
1,4,no,up,IC,R,,,,,,Block.xlsx,"你已经完成了整个实验（三个区组）。

请报告实验者已完成实验

非常感谢，再见！",50,0,1.5,right,LLRLL.png,,,,,0,1,1,1,2,19,67,3,,,,,,,,,,,,,,,,,,,,,,,,,,,,,,,,,,,,,,,,,,,,,,,,,,,,,,,,,,,,,,,,,,,,,,580.5584327999968,580.959635199979,580.9422737999703,581.0441290999879,581.4438407999696,None,right,1,0.5596459000371397,581.4438407999696,None,580.9422737999703,581.0441290999879,581.0441290999879,None,582.0272031999775,None,,,,,,,11008,001,2024_Jan_01_1530,ANT,2021.2.3,59.816983948097025,
1,21,spatial,down,C,L,,,,,,Block.xlsx,"你已经完成了整个实验（三个区组）。

请报告实验者已完成实验

非常感谢，再见！",-1.5,0,-1.5,left,LLLLL.png,,,,,0,1,1,1,2,20,68,20,,,,,,,,,,,,,,,,,,,,,,,,,,,,,,,,,,,,,,,,,,,,,,,,,,,,,,,,,,,,,,,,,,,,,,582.4282443999546,582.8296820999822,582.8117760999594,582.9139549999963,583.3133086999878,None,left,1,0.410090500023216,583.3133086999878,None,582.8117760999594,582.9139549999963,582.9139549999963,None,583.7467677000095,None,,,,,,,11008,001,2024_Jan_01_1530,ANT,2021.2.3,59.816983948097025,
1,3,no,up,IC,L,,,,,,Block.xlsx,"你已经完成了整个实验（三个区组）。

请报告实验者已完成实验

非常感谢，再见！",50,0,1.5,left,RRLRR.png,,,,,0,1,1,1,2,21,69,2,,,,,,,,,,,,,,,,,,,,,,,,,,,,,,,,,,,,,,,,,,,,,,,,,,,,,,,,,,,,,,,,,,,,,,584.1471618000069,584.5485736999544,584.5308510999894,584.6315709999762,585.0325433000107,None,left,1,0.6117915000068024,585.0325433000107,None,584.5308510999894,584.6315709999762,584.6315709999762,None,585.6658124999958,None,,,,,,,11008,001,2024_Jan_01_1530,ANT,2021.2.3,59.816983948097025,
1,2,no,up,C,R,,,,,,Block.xlsx,"你已经完成了整个实验（三个区组）。

请报告实验者已完成实验

非常感谢，再见！",50,0,1.5,right,RRRRR.png,,,,,0,1,1,1,2,22,70,1,,,,,,,,,,,,,,,,,,,,,,,,,,,,,,,,,,,,,,,,,,,,,,,,,,,,,,,,,,,,,,,,,,,,,,586.0665937999729,586.4680508999736,586.4504943999927,586.5505250999704,586.9510617000051,None,right,1,0.5486201000167057,586.9510617000051,None,586.4504943999927,586.5505250999704,586.5505250999704,None,587.518711199984,None,,,,,,,11008,001,2024_Jan_01_1530,ANT,2021.2.3,59.816983948097025,
1,13,center,down,C,L,,,,,,Block.xlsx,"你已经完成了整个实验（三个区组）。

请报告实验者已完成实验

非常感谢，再见！",0,50,-1.5,left,LLLLL.png,,,,,0,1,1,1,2,23,71,12,,,,,,,,,,,,,,,,,,,,,,,,,,,,,,,,,,,,,,,,,,,,,,,,,,,,,,,,,,,,,,,,,,,,,,587.9194872999797,588.319837099989,588.303531499987,588.4036282000015,588.8054041999858,None,left,1,0.39015519997337833,588.8054041999858,None,588.303531499987,588.4036282000015,588.4036282000015,None,589.2211487999884,None,,,,,,,11008,001,2024_Jan_01_1530,ANT,2021.2.3,59.816983948097025,
1,1,no,up,C,L,,,,,,Block.xlsx,"你已经完成了整个实验（三个区组）。

请报告实验者已完成实验

非常感谢，再见！",50,0,1.5,left,LLLLL.png,,,,,0,1,1,1,3,0,72,0,,,,,,,,,,,,,,,,,,,,,,,,,,,,,,,,,,,,,,,,,,,,,,,,,,,,,,,,,,,,,,,,,,,,,,589.6218529999605,590.022339499963,590.0077364000026,590.1072515999549,590.508352099976,None,left,1,0.46314010000787675,590.508352099976,None,590.0077364000026,590.1072515999549,590.1072515999549,None,590.9907554999809,None,,,,,,,11008,001,2024_Jan_01_1530,ANT,2021.2.3,59.816983948097025,
1,16,center,down,IC,R,,,,,,Block.xlsx,"你已经完成了整个实验（三个区组）。

请报告实验者已完成实验

非常感谢，再见！",0,50,-1.5,right,LLRLL.png,,,,,0,1,1,1,3,1,73,15,,,,,,,,,,,,,,,,,,,,,,,,,,,,,,,,,,,,,,,,,,,,,,,,,,,,,,,,,,,,,,,,,,,,,,591.3913910999545,591.7917383000022,591.7752678999677,591.8763021999621,592.2762217999552,None,right,1,0.527390800009016,592.2762217999552,None,591.7752678999677,591.8763021999621,591.8763021999621,None,592.8275781999691,None,,,,,,,11008,001,2024_Jan_01_1530,ANT,2021.2.3,59.816983948097025,
1,23,spatial,down,IC,L,,,,,,Block.xlsx,"你已经完成了整个实验（三个区组）。

请报告实验者已完成实验

非常感谢，再见！",-1.5,0,-1.5,left,RRLRR.png,,,,,0,1,1,1,3,2,74,22,,,,,,,,,,,,,,,,,,,,,,,,,,,,,,,,,,,,,,,,,,,,,,,,,,,,,,,,,,,,,,,,,,,,,,593.2270917999558,593.6279735999997,593.6117917000083,593.7119535999955,594.111819999991,None,left,1,0.4195892999996431,594.111819999991,None,593.6117917000083,593.7119535999955,593.7119535999955,None,594.5625485999626,None,,,,,,,11008,001,2024_Jan_01_1530,ANT,2021.2.3,59.816983948097025,
1,12,center,up,IC,R,,,,,,Block.xlsx,"你已经完成了整个实验（三个区组）。

请报告实验者已完成实验

非常感谢，再见！",0,50,1.5,right,LLRLL.png,,,,,0,1,1,1,3,3,75,11,,,,,,,,,,,,,,,,,,,,,,,,,,,,,,,,,,,,,,,,,,,,,,,,,,,,,,,,,,,,,,,,,,,,,,594.96361539996,595.363971099956,595.3475889999536,595.4471349999658,595.8480175999575,None,right,1,0.5075118000386283,595.8480175999575,None,595.3475889999536,595.4471349999658,595.4471349999658,None,596.38179819996,None,,,,,,,11008,001,2024_Jan_01_1530,ANT,2021.2.3,59.816983948097025,
1,3,no,up,IC,L,,,,,,Block.xlsx,"你已经完成了整个实验（三个区组）。

请报告实验者已完成实验

非常感谢，再见！",50,0,1.5,left,RRLRR.png,,,,,0,1,1,1,3,4,76,2,,,,,,,,,,,,,,,,,,,,,,,,,,,,,,,,,,,,,,,,,,,,,,,,,,,,,,,,,,,,,,,,,,,,,,596.7825334999943,597.1831173999817,597.1673142999643,597.2677819000091,597.6684577999986,None,left,1,0.42331250000279397,597.6684577999986,None,597.1673142999643,597.2677819000091,597.2677819000091,None,598.1179980000015,None,,,,,,,11008,001,2024_Jan_01_1530,ANT,2021.2.3,59.816983948097025,
1,22,spatial,down,C,R,,,,,,Block.xlsx,"你已经完成了整个实验（三个区组）。

请报告实验者已完成实验

非常感谢，再见！",-1.5,0,-1.5,right,RRRRR.png,,,,,0,1,1,1,3,5,77,21,,,,,,,,,,,,,,,,,,,,,,,,,,,,,,,,,,,,,,,,,,,,,,,,,,,,,,,,,,,,,,,,,,,,,,598.5182629000046,598.9188747999724,598.904010600003,599.0029230999644,599.4030362999765,None,right,1,0.3455154999974184,599.4030362999765,None,598.904010600003,599.0029230999644,599.0029230999644,None,599.7701115999953,None,,,,,,,11008,001,2024_Jan_01_1530,ANT,2021.2.3,59.816983948097025,
1,1,no,up,C,L,,,,,,Block.xlsx,"你已经完成了整个实验（三个区组）。

请报告实验者已完成实验

非常感谢，再见！",50,0,1.5,left,LLLLL.png,,,,,0,1,1,1,3,6,78,0,,,,,,,,,,,,,,,,,,,,,,,,,,,,,,,,,,,,,,,,,,,,,,,,,,,,,,,,,,,,,,,,,,,,,,600.1707969999989,600.5727396999719,600.5549801999587,600.655749699974,601.0568119999953,None,left,1,0.45054990000789985,601.0568119999953,None,600.5549801999587,600.655749699974,600.655749699974,None,601.5227845999761,None,,,,,,,11008,001,2024_Jan_01_1530,ANT,2021.2.3,59.816983948097025,
1,17,spatial,up,C,L,,,,,,Block.xlsx,"你已经完成了整个实验（三个区组）。

请报告实验者已完成实验

非常感谢，再见！",1.5,0,1.5,left,LLLLL.png,,,,,0,1,1,1,3,7,79,16,,,,,,,,,,,,,,,,,,,,,,,,,,,,,,,,,,,,,,,,,,,,,,,,,,,,,,,,,,,,,,,,,,,,,,601.9239099000115,602.3259246000089,602.3076626999537,602.4080949999625,602.8099571999628,None,left,1,0.40157250000629574,602.8099571999628,None,602.3076626999537,602.4080949999625,602.4080949999625,None,603.2420530999661,None,,,,,,,11008,001,2024_Jan_01_1530,ANT,2021.2.3,59.816983948097025,
1,22,spatial,down,C,R,,,,,,Block.xlsx,"你已经完成了整个实验（三个区组）。

请报告实验者已完成实验

非常感谢，再见！",-1.5,0,-1.5,right,RRRRR.png,,,,,0,1,1,1,3,8,80,21,,,,,,,,,,,,,,,,,,,,,,,,,,,,,,,,,,,,,,,,,,,,,,,,,,,,,,,,,,,,,,,,,,,,,,603.6439119999995,604.0432807999896,604.027035999985,604.1274977999856,604.5272368000005,None,right,1,0.3566112000262365,604.5272368000005,None,604.027035999985,604.1274977999856,604.1274977999856,None,604.9108730999869,None,,,,,,,11008,001,2024_Jan_01_1530,ANT,2021.2.3,59.816983948097025,
1,15,center,down,IC,L,,,,,,Block.xlsx,"你已经完成了整个实验（三个区组）。

请报告实验者已完成实验

非常感谢，再见！",0,50,-1.5,left,RRLRR.png,,,,,0,1,1,1,3,9,81,14,,,,,,,,,,,,,,,,,,,,,,,,,,,,,,,,,,,,,,,,,,,,,,,,,,,,,,,,,,,,,,,,,,,,,,605.3128475999692,605.7138298999635,605.6955788999912,605.7963783000014,606.1970278999652,None,right,0,0.40633440000237897,606.1970278999652,None,605.6955788999912,605.7963783000014,605.7963783000014,None,606.6305725999991,None,,,,,,,11008,001,2024_Jan_01_1530,ANT,2021.2.3,59.816983948097025,
1,19,spatial,up,IC,L,,,,,,Block.xlsx,"你已经完成了整个实验（三个区组）。

请报告实验者已完成实验

非常感谢，再见！",1.5,0,1.5,left,RRLRR.png,,,,,0,1,1,1,3,10,82,18,,,,,,,,,,,,,,,,,,,,,,,,,,,,,,,,,,,,,,,,,,,,,,,,,,,,,,,,,,,,,,,,,,,,,,607.0310669000028,607.4317077999585,607.4154954999685,607.5161998999538,607.9155780999572,None,left,1,0.36799670004984364,607.9155780999572,None,607.4154954999685,607.5161998999538,607.5161998999538,None,608.2994043999934,None,,,,,,,11008,001,2024_Jan_01_1530,ANT,2021.2.3,59.816983948097025,
1,4,no,up,IC,R,,,,,,Block.xlsx,"你已经完成了整个实验（三个区组）。

请报告实验者已完成实验

非常感谢，再见！",50,0,1.5,right,LLRLL.png,,,,,0,1,1,1,3,11,83,3,,,,,,,,,,,,,,,,,,,,,,,,,,,,,,,,,,,,,,,,,,,,,,,,,,,,,,,,,,,,,,,,,,,,,,608.7002005999675,609.1007321999641,609.0846974999877,609.1843182999874,609.5866136999684,None,right,1,0.753054200031329,609.5866136999684,None,609.0846974999877,609.1843182999874,609.1843182999874,None,610.3692314999644,None,,,,,,,11008,001,2024_Jan_01_1530,ANT,2021.2.3,59.816983948097025,
1,14,center,down,C,R,,,,,,Block.xlsx,"你已经完成了整个实验（三个区组）。

请报告实验者已完成实验

非常感谢，再见！",0,50,-1.5,right,RRRRR.png,,,,,0,1,1,1,3,12,84,13,,,,,,,,,,,,,,,,,,,,,,,,,,,,,,,,,,,,,,,,,,,,,,,,,,,,,,,,,,,,,,,,,,,,,,610.7697411999688,611.1710887000081,611.1550487999921,611.2551294000004,611.6544725999702,None,right,1,0.41338689997792244,611.6544725999702,None,611.1550487999921,611.2551294000004,611.2551294000004,None,612.0883672999917,None,,,,,,,11008,001,2024_Jan_01_1530,ANT,2021.2.3,59.816983948097025,
1,18,spatial,up,C,R,,,,,,Block.xlsx,"你已经完成了整个实验（三个区组）。

请报告实验者已完成实验

非常感谢，再见！",1.5,0,1.5,right,RRRRR.png,,,,,0,1,1,1,3,13,85,17,,,,,,,,,,,,,,,,,,,,,,,,,,,,,,,,,,,,,,,,,,,,,,,,,,,,,,,,,,,,,,,,,,,,,,612.4890826999908,612.889716500009,612.8738126999815,612.9751706999959,613.3754157999647,None,right,1,0.3648930000490509,613.3754157999647,None,612.8738126999815,612.9751706999959,612.9751706999959,None,613.7577638999792,None,,,,,,,11008,001,2024_Jan_01_1530,ANT,2021.2.3,59.816983948097025,
1,15,center,down,IC,L,,,,,,Block.xlsx,"你已经完成了整个实验（三个区组）。

请报告实验者已完成实验

非常感谢，再见！",0,50,-1.5,left,RRLRR.png,,,,,0,1,1,1,3,14,86,14,,,,,,,,,,,,,,,,,,,,,,,,,,,,,,,,,,,,,,,,,,,,,,,,,,,,,,,,,,,,,,,,,,,,,,614.1589012999902,614.5593729999964,614.5420618999633,614.6435576999793,615.0428758999915,None,left,1,0.44907730002887547,615.0428758999915,None,614.5420618999633,614.6435576999793,614.6435576999793,None,615.5102062000078,None,,,,,,,11008,001,2024_Jan_01_1530,ANT,2021.2.3,59.816983948097025,
1,8,no,down,IC,R,,,,,,Block.xlsx,"你已经完成了整个实验（三个区组）。

请报告实验者已完成实验

非常感谢，再见！",50,0,-1.5,right,LLRLL.png,,,,,0,1,1,1,3,15,87,7,,,,,,,,,,,,,,,,,,,,,,,,,,,,,,,,,,,,,,,,,,,,,,,,,,,,,,,,,,,,,,,,,,,,,,615.910731699958,616.3129857999738,616.2947640999919,616.3964266999974,616.7955531000043,None,right,1,0.4962743000360206,616.7955531000043,None,616.2947640999919,616.3964266999974,616.3964266999974,None,617.3131551999832,None,,,,,,,11008,001,2024_Jan_01_1530,ANT,2021.2.3,59.816983948097025,
1,10,center,up,C,R,,,,,,Block.xlsx,"你已经完成了整个实验（三个区组）。

请报告实验者已完成实验

非常感谢，再见！",0,50,1.5,right,RRRRR.png,,,,,0,1,1,1,3,16,88,9,,,,,,,,,,,,,,,,,,,,,,,,,,,,,,,,,,,,,,,,,,,,,,,,,,,,,,,,,,,,,,,,,,,,,,617.7133411999675,618.1143837999552,618.098026099964,618.1974073000019,618.5989273999585,None,right,1,0.37265919998753816,618.5989273999585,None,618.098026099964,618.1974073000019,618.1974073000019,None,618.9985715000075,None,,,,,,,11008,001,2024_Jan_01_1530,ANT,2021.2.3,59.816983948097025,
1,1,no,up,C,L,,,,,,Block.xlsx,"你已经完成了整个实验（三个区组）。

请报告实验者已完成实验

非常感谢，再见！",50,0,1.5,left,LLLLL.png,,,,,0,1,1,1,3,17,89,0,,,,,,,,,,,,,,,,,,,,,,,,,,,,,,,,,,,,,,,,,,,,,,,,,,,,,,,,,,,,,,,,,,,,,,619.399128399964,619.7999618999893,619.7842207999784,619.8852646999876,620.2859269999899,None,left,1,0.42171899997629225,620.2859269999899,None,619.7842207999784,619.8852646999876,619.8852646999876,None,620.7347170999856,None,,,,,,,11008,001,2024_Jan_01_1530,ANT,2021.2.3,59.816983948097025,
