TrialType,TrialNumber,WarningType,TargetType,FlankerType,TargetDirection,W,f,Y,corr,imageFile,condition,endtext,Yw,Yf,Yt,Corr,imagefile,trials_3.thisRepN,trials_3.thisTrialN,trials_3.thisN,trials_3.thisIndex,trials_2.thisRepN,trials_2.thisTrialN,trials_2.thisN,trials_2.thisIndex,trials.thisRepN,trials.thisTrialN,trials.thisN,trials.thisIndex,instr.started,instr.stopped,key_resp.keys,key_resp.rt,key_resp.started,key_resp.stopped,image.started,image.stopped,key_resp_6.keys,key_resp_6.rt,key_resp_6.started,key_resp_6.stopped,EX_L.started,EX_L.stopped,AL.started,AL.stopped,key_resp_7.keys,key_resp_7.rt,key_resp_7.started,key_resp_7.stopped,EX_R.started,EX_R.stopped,RR.started,RR.stopped,key_resp_8.keys,key_resp_8.rt,key_resp_8.started,key_resp_8.stopped,image_2.started,image_2.stopped,key_resp_9.keys,key_resp_9.rt,key_resp_9.started,key_resp_9.stopped,image_3.started,image_3.stopped,key_resp_10.keys,key_resp_10.rt,key_resp_10.started,key_resp_10.stopped,fix.started,fix.stopped,war.started,war.stopped,tar.started,tar.stopped,key_resp_4.keys,key_resp_4.corr,key_resp_4.rt,key_resp_4.started,key_resp_4.stopped,fix2.started,fix2.stopped,fix_2.started,fix_2.stopped,Feedback.started,Feedback.stopped,text.started,text.stopped,key_resp_11.keys,key_resp_11.rt,key_resp_11.started,key_resp_11.stopped,key_resp_2.keys,key_resp_2.rt,key_resp_2.started,key_resp_2.stopped,text_5.started,text_5.stopped,fix2_1.started,fix2_1.stopped,Warn.started,Warn.stopped,Tar.started,Tar.stopped,key_resp_5.keys,key_resp_5.corr,key_resp_5.rt,key_resp_5.started,key_resp_5.stopped,Fix_2.started,Fix_2.stopped,fix2_2.started,fix2_2.stopped,text_4.started,text_4.stopped,key_resp_3.keys,key_resp_3.rt,key_resp_3.started,key_resp_3.stopped,text_3.started,text_3.stopped,participant,session,date,expName,psychopyVersion,frameRate,
,,,,,,,,,,,,,,,,,,,,,,,,,,,,,,10.334097699997074,None,space,3.0889185999985784,10.334097699997074,None,,,,,,,,,,,,,,,,,,,,,,,,,,,,,,,,,,,,,,,,,,,,,,,,,,,,,,,,,,,,,,,,,,,,,,,,,,,,,,,,,,,,,,,11004,001,2023_Dec_29_1353,ANT,2021.2.3,60.20418852642138,
,,,,,,,,,,,,,,,,,,,,,,,,,,,,,,,,,,,,13.438633099998697,None,space,30.184836799999175,13.438633099998697,None,,,,,,,,,,,,,,,,,,,,,,,,,,,,,,,,,,,,,,,,,,,,,,,,,,,,,,,,,,,,,,,,,,,,,,,,,,,,,,,,,11004,001,2023_Dec_29_1353,ANT,2021.2.3,60.20418852642138,
,,,,,,,,,,,,,,,,,,,,,,,,,,,,,,,,,,,,,,,,,,43.65014769999834,None,43.65014769999834,None,left,2.293179499996768,43.65014769999834,None,,,,,,,,,,,,,,,,,,,,,,,,,,,,,,,,,,,,,,,,,,,,,,,,,,,,,,,,,,,,,,,,,,,,,,,,,11004,001,2023_Dec_29_1353,ANT,2021.2.3,60.20418852642138,
,,,,,,,,,,,,,,,,,,,,,,,,,,,,,,,,,,,,,,,,,,,,,,,,,,45.970020400003705,None,45.970020400003705,None,right,1.3736411999998381,45.970020400003705,None,,,,,,,,,,,,,,,,,,,,,,,,,,,,,,,,,,,,,,,,,,,,,,,,,,,,,,,,,,,,,,,,,11004,001,2023_Dec_29_1353,ANT,2021.2.3,60.20418852642138,
,,,,,,,,,,,,,,,,,,,,,,,,,,,,,,,,,,,,,,,,,,,,,,,,,,,,,,,,,,47.372443499996734,None,space,24.419941000000108,47.372443499996734,None,,,,,,,,,,,,,,,,,,,,,,,,,,,,,,,,,,,,,,,,,,,,,,,,,,,,,,,,,,,11004,001,2023_Dec_29_1353,ANT,2021.2.3,60.20418852642138,
,,,,,,,,,,,,,,,,,,,,,,,,,,,,,,,,,,,,,,,,,,,,,,,,,,,,,,,,,,,,,,,,71.8089919999984,None,space,11.662544699996943,71.8089919999984,None,,,,,,,,,,,,,,,,,,,,,,,,,,,,,,,,,,,,,,,,,,,,,,,,,,,,,11004,001,2023_Dec_29_1353,ANT,2021.2.3,60.20418852642138,
0,4,no,down,IC,L,50,0,-1.5,left,RRLRR.png,,,,,,,,0,0,0,3,,,,,,,,,,,,,,,,,,,,,,,,,,,,,,,,,,,,,,,,,,,,,,,,,83.55914179999672,83.96046200000274,83.94372149999981,84.04384669999854,84.4449655999997,None,left,1,1.3945891999974265,84.4449655999997,None,83.94372149999981,84.04384669999854,84.04384669999854,None,85.87992069999746,None,,,,,,,,,,,,,,,,,,,,,,,,,,,,,,,,,,,,11004,001,2023_Dec_29_1353,ANT,2021.2.3,60.20418852642138,
0,10,spatial,up,IC,L,1.5,0,1.5,left,RRLRR.png,,,,,,,,0,1,1,9,,,,,,,,,,,,,,,,,,,,,,,,,,,,,,,,,,,,,,,,,,,,,,,,,87.88228769999841,88.2841103000028,88.26619979999668,88.36823629999708,88.76703899999848,None,left,1,0.6004178000002867,88.76703899999848,None,88.26619979999668,88.36823629999708,88.36823629999708,None,89.38449640000181,None,,,,,,,,,,,,,,,,,,,,,,,,,,,,,,,,,,,,11004,001,2023_Dec_29_1353,ANT,2021.2.3,60.20418852642138,
0,12,spatial,down,IC,R,-1.5,0,-1.5,right,LLRLL.png,,,,,,,,0,2,2,11,,,,,,,,,,,,,,,,,,,,,,,,,,,,,,,,,,,,,,,,,,,,,,,,,91.38749390000157,91.78964850000193,91.77177720000327,91.87441679999756,92.27390739999828,None,right,1,0.5416464000009,92.27390739999828,None,91.77177720000327,91.87441679999756,91.87441679999756,None,92.83968070000265,None,,,,,,,,,,,,,,,,,,,,,,,,,,,,,,,,,,,,11004,001,2023_Dec_29_1353,ANT,2021.2.3,60.20418852642138,
0,9,spatial,up,C,R,1.5,0,1.5,right,RRRRR.png,,,,,,,,0,3,3,8,,,,,,,,,,,,,,,,,,,,,,,,,,,,,,,,,,,,,,,,,,,,,,,,,94.84269160000258,95.24482140000327,95.22695329999988,95.3283580999996,95.72759119999682,None,right,1,0.3845108000023174,95.72759119999682,None,95.22695329999988,95.3283580999996,95.3283580999996,None,96.12777250000363,None,,,,,,,,,,,,,,,,,,,,,,,,,,,,,,,,,,,,11004,001,2023_Dec_29_1353,ANT,2021.2.3,60.20418852642138,
0,11,spatial,down,C,L,-1.5,0,-1.5,left,LLLLL.png,,,,,,,,0,4,4,10,,,,,,,,,,,,,,,,,,,,,,,,,,,,,,,,,,,,,,,,,,,,,,,,,98.13088810000045,98.53194580000127,98.51527930000157,98.61719840000296,99.01718139999866,None,left,1,0.34230370000295807,99.01718139999866,None,98.51527930000157,98.61719840000296,98.61719840000296,None,99.38281170000118,None,,,,,,,,,,,,,,,,,,,,,,,,,,,,,,,,,,,,11004,001,2023_Dec_29_1353,ANT,2021.2.3,60.20418852642138,
0,2,no,up,IC,R,50,0,1.5,right,LLRLL.png,,,,,,,,0,5,5,1,,,,,,,,,,,,,,,,,,,,,,,,,,,,,,,,,,,,,,,,,,,,,,,,,101.38589969999884,101.78668669999752,101.76950020000368,101.87176110000291,102.27107519999845,None,right,1,0.5925993999990169,102.27107519999845,None,101.76950020000368,101.87176110000291,101.87176110000291,None,102.88781469999958,None,,,,,,,,,,,,,,,,,,,,,,,,,,,,,,,,,,,,11004,001,2023_Dec_29_1353,ANT,2021.2.3,60.20418852642138,
0,5,center,up,C,L,0,50,1.5,left,LLLLL.png,,,,,,,,0,6,6,4,,,,,,,,,,,,,,,,,,,,,,,,,,,,,,,,,,,,,,,,,,,,,,,,,104.89076519999799,105.29322900000261,105.27549439999711,105.37482610000006,105.77641949999816,None,left,1,0.38330080000014277,105.77641949999816,None,105.27549439999711,105.37482610000006,105.37482610000006,None,106.17593599999964,None,,,,,,,,,,,,,,,,,,,,,,,,,,,,,,,,,,,,11004,001,2023_Dec_29_1353,ANT,2021.2.3,60.20418852642138,
0,3,no,down,C,R,50,0,-1.5,right,RRRRR.png,,,,,,,,0,7,7,2,,,,,,,,,,,,,,,,,,,,,,,,,,,,,,,,,,,,,,,,,,,,,,,,,108.18007930000022,108.58022789999814,108.56309170000168,108.66437600000063,109.06560380000155,None,right,1,0.3822561000051792,109.06560380000155,None,108.56309170000168,108.66437600000063,108.66437600000063,None,109.46414589999767,None,,,,,,,,,,,,,,,,,,,,,,,,,,,,,,,,,,,,11004,001,2023_Dec_29_1353,ANT,2021.2.3,60.20418852642138,
0,8,center,down,IC,L,0,50,-1.5,left,RRLRR.png,,,,,,,,0,8,8,7,,,,,,,,,,,,,,,,,,,,,,,,,,,,,,,,,,,,,,,,,,,,,,,,,111.4671662000037,111.86786749999737,111.85151110000152,111.9524631000022,112.35295770000084,None,left,1,0.5585410999992746,112.35295770000084,None,111.85151110000152,111.9524631000022,111.9524631000022,None,112.93600680000236,None,,,,,,,,,,,,,,,,,,,,,,,,,,,,,,,,,,,,11004,001,2023_Dec_29_1353,ANT,2021.2.3,60.20418852642138,
0,7,center,down,C,R,0,50,-1.5,right,RRRRR.png,,,,,,,,0,9,9,6,,,,,,,,,,,,,,,,,,,,,,,,,,,,,,,,,,,,,,,,,,,,,,,,,114.93886740000016,115.34093070000381,115.32387900000322,115.42376499999955,115.82415429999674,None,right,1,0.3996620999969309,115.82415429999674,None,115.32387900000322,115.42376499999955,115.42376499999955,None,116.24081540000043,None,,,,,,,,,,,,,,,,,,,,,,,,,,,,,,,,,,,,11004,001,2023_Dec_29_1353,ANT,2021.2.3,60.20418852642138,
0,6,center,up,IC,R,0,50,1.5,right,LLRLL.png,,,,,,,,0,10,10,5,,,,,,,,,,,,,,,,,,,,,,,,,,,,,,,,,,,,,,,,,,,,,,,,,118.24510320000263,118.64644899999985,118.62855729999865,118.72809889999917,119.12926270000025,None,left,0,0.3505470000018249,119.12926270000025,None,118.62855729999865,118.72809889999917,118.72809889999917,None,119.49582910000026,None,,,,,,,,,,,,,,,,,,,,,,,,,,,,,,,,,,,,11004,001,2023_Dec_29_1353,ANT,2021.2.3,60.20418852642138,
0,1,no,up,C,L,50,0,1.5,left,LLLLL.png,,,,,,,,0,11,11,0,,,,,,,,,,,,,,,,,,,,,,,,,,,,,,,,,,,,,,,,,,,,,,,,,121.49944439999672,121.90069110000331,121.88264579999668,121.98333260000072,122.38407610000286,None,left,1,0.6396605999980238,122.38407610000286,None,121.88264579999668,121.98333260000072,121.98333260000072,None,123.05117459999747,None,,,,,,,,,,,,,,,,,,,,,,,,,,,,,,,,,,,,11004,001,2023_Dec_29_1353,ANT,2021.2.3,60.20418852642138,
,,,,,,,,,,,,,,,,,,,,,,,,,,,,,,,,,,,,,,,,,,,,,,,,,,,,,,,,,,,,,,,,,,,,,,,,,,,,,,,,,,,,,,,125.05351730000257,None,space,1.802333899999212,125.05351730000257,None,,,,,,,,,,,,,,,,,,,,,,,,,,,,,,11004,001,2023_Dec_29_1353,ANT,2021.2.3,60.20418852642138,
,,,,,,,,,,,,,,,,,,,,,,,,,,,,,,,,,,,,,,,,,,,,,,,,,,,,,,,,,,,,,,,,,,,,,,,,,,,,,,,,,,,,,,,,,,,,,space,6.148892400000477,126.87432989999797,None,,,,,,,,,,,,,,,,,,,,,,,,,,11004,001,2023_Dec_29_1353,ANT,2021.2.3,60.20418852642138,
1,13,center,down,C,L,,,,,,Block.xlsx,"你已经完成了第一个实验区组

请稍作休息


点击空格键进入下一个区组。",0,50,-1.5,left,LLLLL.png,,,,,0,0,0,0,0,0,0,12,,,,,,,,,,,,,,,,,,,,,,,,,,,,,,,,,,,,,,,,,,,,,,,,,,,,,,,,,,,,,,,,,,,,126.87432989999797,None,133.08407699999952,133.48504890000186,133.46694569999818,133.5668874999974,133.9694285000005,None,left,1,0.45439360000455054,133.9694285000005,None,133.46694569999818,133.5668874999974,133.5668874999974,None,134.45126670000172,None,,,,,,,11004,001,2023_Dec_29_1353,ANT,2021.2.3,60.20418852642138,
1,15,center,down,IC,L,,,,,,Block.xlsx,"你已经完成了第一个实验区组

请稍作休息


点击空格键进入下一个区组。",0,50,-1.5,left,RRLRR.png,,,,,0,0,0,0,0,1,1,14,,,,,,,,,,,,,,,,,,,,,,,,,,,,,,,,,,,,,,,,,,,,,,,,,,,,,,,,,,,,,,,,,,,,,,134.85203000000183,135.25261589999718,135.23733399999765,135.35337569999683,135.73740869999892,None,right,0,0.4223742999965907,135.73740869999892,None,135.23733399999765,135.35337569999683,135.3375328999973,None,136.18751850000262,None,,,,,,,11004,001,2023_Dec_29_1353,ANT,2021.2.3,60.20418852642138,
1,10,center,up,C,R,,,,,,Block.xlsx,"你已经完成了第一个实验区组

请稍作休息


点击空格键进入下一个区组。",0,50,1.5,right,RRRRR.png,,,,,0,0,0,0,0,2,2,9,,,,,,,,,,,,,,,,,,,,,,,,,,,,,,,,,,,,,,,,,,,,,,,,,,,,,,,,,,,,,,,,,,,,,,136.58767010000156,136.989728200002,136.97180610000214,137.07359700000234,137.47356579999905,None,right,1,0.5100163000024622,137.47356579999905,None,136.97180610000214,137.07359700000234,137.07359700000234,None,138.00668849999784,None,,,,,,,11004,001,2023_Dec_29_1353,ANT,2021.2.3,60.20418852642138,
1,11,center,up,IC,L,,,,,,Block.xlsx,"你已经完成了第一个实验区组

请稍作休息


点击空格键进入下一个区组。",0,50,1.5,left,RRLRR.png,,,,,0,0,0,0,0,3,3,10,,,,,,,,,,,,,,,,,,,,,,,,,,,,,,,,,,,,,,,,,,,,,,,,,,,,,,,,,,,,,,,,,,,,,,138.4070337000012,138.8097013000006,138.79186469999695,138.89207349999924,139.29193800000212,None,right,0,0.39574310000170954,139.29193800000212,None,138.79186469999695,138.89207349999924,138.89207349999924,None,139.70901810000214,None,,,,,,,11004,001,2023_Dec_29_1353,ANT,2021.2.3,60.20418852642138,
1,7,no,down,IC,L,,,,,,Block.xlsx,"你已经完成了第一个实验区组

请稍作休息


点击空格键进入下一个区组。",50,0,-1.5,left,RRLRR.png,,,,,0,0,0,0,0,4,4,6,,,,,,,,,,,,,,,,,,,,,,,,,,,,,,,,,,,,,,,,,,,,,,,,,,,,,,,,,,,,,,,,,,,,,,140.11096920000273,140.51129539999965,140.49374569999782,140.5944324000011,140.9949628999966,None,left,1,0.6125554000027478,140.9949628999966,None,140.49374569999782,140.5944324000011,140.5944324000011,None,141.6287016999995,None,,,,,,,11004,001,2023_Dec_29_1353,ANT,2021.2.3,60.20418852642138,
1,13,center,down,C,L,,,,,,Block.xlsx,"你已经完成了第一个实验区组

请稍作休息


点击空格键进入下一个区组。",0,50,-1.5,left,LLLLL.png,,,,,0,0,0,0,0,5,5,12,,,,,,,,,,,,,,,,,,,,,,,,,,,,,,,,,,,,,,,,,,,,,,,,,,,,,,,,,,,,,,,,,,,,,,142.02974930000346,142.42988129999867,142.41391399999702,142.5140317999976,142.91579410000122,None,left,1,0.4440487999963807,142.91579410000122,None,142.41391399999702,142.5140317999976,142.5140317999976,None,143.38108530000318,None,,,,,,,11004,001,2023_Dec_29_1353,ANT,2021.2.3,60.20418852642138,
1,2,no,up,C,R,,,,,,Block.xlsx,"你已经完成了第一个实验区组

请稍作休息


点击空格键进入下一个区组。",50,0,1.5,right,RRRRR.png,,,,,0,0,0,0,0,6,6,1,,,,,,,,,,,,,,,,,,,,,,,,,,,,,,,,,,,,,,,,,,,,,,,,,,,,,,,,,,,,,,,,,,,,,,143.7825987000033,144.1829962999982,144.16700649999984,144.26651980000315,144.66745049999736,None,right,1,0.38142270000389544,144.66745049999736,None,144.16700649999984,144.26651980000315,144.26651980000315,None,145.06698100000358,None,,,,,,,11004,001,2023_Dec_29_1353,ANT,2021.2.3,60.20418852642138,
1,19,spatial,up,IC,L,,,,,,Block.xlsx,"你已经完成了第一个实验区组

请稍作休息


点击空格键进入下一个区组。",1.5,0,1.5,left,RRLRR.png,,,,,0,0,0,0,0,7,7,18,,,,,,,,,,,,,,,,,,,,,,,,,,,,,,,,,,,,,,,,,,,,,,,,,,,,,,,,,,,,,,,,,,,,,,145.46757770000113,145.8693265999973,145.85170700000162,145.95290419999947,146.3523942000029,None,left,1,0.5111784000037005,146.3523942000029,None,145.85170700000162,145.95290419999947,145.95290419999947,None,146.88637690000178,None,,,,,,,11004,001,2023_Dec_29_1353,ANT,2021.2.3,60.20418852642138,
1,17,spatial,up,C,L,,,,,,Block.xlsx,"你已经完成了第一个实验区组

请稍作休息


点击空格键进入下一个区组。",1.5,0,1.5,left,LLLLL.png,,,,,0,0,0,0,0,8,8,16,,,,,,,,,,,,,,,,,,,,,,,,,,,,,,,,,,,,,,,,,,,,,,,,,,,,,,,,,,,,,,,,,,,,,,147.28725709999708,147.68807789999846,147.67298180000216,147.78898240000126,148.1742352000001,None,left,1,0.3538297999984934,148.1742352000001,None,147.67298180000216,147.78898240000126,147.77090280000266,None,148.55568250000215,None,,,,,,,11004,001,2023_Dec_29_1353,ANT,2021.2.3,60.20418852642138,
1,6,no,down,C,R,,,,,,Block.xlsx,"你已经完成了第一个实验区组

请稍作休息


点击空格键进入下一个区组。",50,0,-1.5,right,RRRRR.png,,,,,0,0,0,0,0,9,9,5,,,,,,,,,,,,,,,,,,,,,,,,,,,,,,,,,,,,,,,,,,,,,,,,,,,,,,,,,,,,,,,,,,,,,,148.95767219999834,149.3569123999987,149.34186420000333,149.45874219999678,149.84266539999953,None,right,1,0.46105510000052163,149.84266539999953,None,149.34186420000333,149.45874219999678,149.44119740000315,None,150.324798200003,None,,,,,,,11004,001,2023_Dec_29_1353,ANT,2021.2.3,60.20418852642138,
1,23,spatial,down,IC,L,,,,,,Block.xlsx,"你已经完成了第一个实验区组

请稍作休息


点击空格键进入下一个区组。",-1.5,0,-1.5,left,RRLRR.png,,,,,0,0,0,0,0,10,10,22,,,,,,,,,,,,,,,,,,,,,,,,,,,,,,,,,,,,,,,,,,,,,,,,,,,,,,,,,,,,,,,,,,,,,,150.72542450000037,151.12657610000315,151.10983249999845,151.209909600002,151.6123968000029,None,left,1,0.4911722000033478,151.6123968000029,None,151.10983249999845,151.209909600002,151.209909600002,None,152.12763280000217,None,,,,,,,11004,001,2023_Dec_29_1353,ANT,2021.2.3,60.20418852642138,
1,23,spatial,down,IC,L,,,,,,Block.xlsx,"你已经完成了第一个实验区组

请稍作休息


点击空格键进入下一个区组。",-1.5,0,-1.5,left,RRLRR.png,,,,,0,0,0,0,0,11,11,22,,,,,,,,,,,,,,,,,,,,,,,,,,,,,,,,,,,,,,,,,,,,,,,,,,,,,,,,,,,,,,,,,,,,,,152.5290948999973,152.9310439999972,152.91277919999993,153.01378780000232,153.4145617000031,None,left,1,0.36176170000544516,153.4145617000031,None,152.91277919999993,153.01378780000232,153.01378780000232,None,153.79650969999784,None,,,,,,,11004,001,2023_Dec_29_1353,ANT,2021.2.3,60.20418852642138,
1,5,no,down,C,L,,,,,,Block.xlsx,"你已经完成了第一个实验区组

请稍作休息


点击空格键进入下一个区组。",50,0,-1.5,left,LLLLL.png,,,,,0,0,0,0,0,12,12,4,,,,,,,,,,,,,,,,,,,,,,,,,,,,,,,,,,,,,,,,,,,,,,,,,,,,,,,,,,,,,,,,,,,,,,154.19722750000074,154.5984099999987,154.5822124999977,154.68191210000077,155.08339849999902,None,left,1,0.3563150000045425,155.08339849999902,None,154.5822124999977,154.68191210000077,154.68191210000077,None,155.46581490000244,None,,,,,,,11004,001,2023_Dec_29_1353,ANT,2021.2.3,60.20418852642138,
1,1,no,up,C,L,,,,,,Block.xlsx,"你已经完成了第一个实验区组

请稍作休息


点击空格键进入下一个区组。",50,0,1.5,left,LLLLL.png,,,,,0,0,0,0,0,13,13,0,,,,,,,,,,,,,,,,,,,,,,,,,,,,,,,,,,,,,,,,,,,,,,,,,,,,,,,,,,,,,,,,,,,,,,155.86621829999785,156.26736939999682,156.25089809999918,156.35178330000053,156.75305769999977,None,left,1,0.3987099000005401,156.75305769999977,None,156.25089809999918,156.35178330000053,156.35178330000053,None,157.16829529999814,None,,,,,,,11004,001,2023_Dec_29_1353,ANT,2021.2.3,60.20418852642138,
1,9,center,up,C,L,,,,,,Block.xlsx,"你已经完成了第一个实验区组

请稍作休息


点击空格键进入下一个区组。",0,50,1.5,left,LLLLL.png,,,,,0,0,0,0,0,14,14,8,,,,,,,,,,,,,,,,,,,,,,,,,,,,,,,,,,,,,,,,,,,,,,,,,,,,,,,,,,,,,,,,,,,,,,157.5695728999999,157.96960879999824,157.95319249999739,158.05361399999674,158.4539059000017,None,left,1,0.3456000000005588,158.4539059000017,None,157.95319249999739,158.05361399999674,158.05361399999674,None,158.82063560000097,None,,,,,,,11004,001,2023_Dec_29_1353,ANT,2021.2.3,60.20418852642138,
1,7,no,down,IC,L,,,,,,Block.xlsx,"你已经完成了第一个实验区组

请稍作休息


点击空格键进入下一个区组。",50,0,-1.5,left,RRLRR.png,,,,,0,0,0,0,0,15,15,6,,,,,,,,,,,,,,,,,,,,,,,,,,,,,,,,,,,,,,,,,,,,,,,,,,,,,,,,,,,,,,,,,,,,,,159.22160379999696,159.62252910000097,159.6053122000012,159.70674639999925,160.10601399999723,None,right,0,0.4940146000008099,160.10601399999723,None,159.6053122000012,159.70674639999925,159.70674639999925,None,160.62330729999667,None,,,,,,,11004,001,2023_Dec_29_1353,ANT,2021.2.3,60.20418852642138,
1,18,spatial,up,C,R,,,,,,Block.xlsx,"你已经完成了第一个实验区组

请稍作休息


点击空格键进入下一个区组。",1.5,0,1.5,right,RRRRR.png,,,,,0,0,0,0,0,16,16,17,,,,,,,,,,,,,,,,,,,,,,,,,,,,,,,,,,,,,,,,,,,,,,,,,,,,,,,,,,,,,,,,,,,,,,161.02458810000098,161.4250159000003,161.41007849999733,161.50899930000014,161.90891120000015,None,right,1,0.426609299996926,161.90891120000015,None,161.41007849999733,161.50899930000014,161.50899930000014,None,162.3593230999977,None,,,,,,,11004,001,2023_Dec_29_1353,ANT,2021.2.3,60.20418852642138,
1,2,no,up,C,R,,,,,,Block.xlsx,"你已经完成了第一个实验区组

请稍作休息


点击空格键进入下一个区组。",50,0,1.5,right,RRRRR.png,,,,,0,0,0,0,0,17,17,1,,,,,,,,,,,,,,,,,,,,,,,,,,,,,,,,,,,,,,,,,,,,,,,,,,,,,,,,,,,,,,,,,,,,,,162.76108640000166,163.1625886000038,163.14402970000083,163.24469680000038,163.64491350000026,None,right,1,0.3550245999940671,163.64491350000026,None,163.14402970000083,163.24469680000038,163.24469680000038,None,164.02852320000238,None,,,,,,,11004,001,2023_Dec_29_1353,ANT,2021.2.3,60.20418852642138,
1,21,spatial,down,C,L,,,,,,Block.xlsx,"你已经完成了第一个实验区组

请稍作休息


点击空格键进入下一个区组。",-1.5,0,-1.5,left,LLLLL.png,,,,,0,0,0,0,0,18,18,20,,,,,,,,,,,,,,,,,,,,,,,,,,,,,,,,,,,,,,,,,,,,,,,,,,,,,,,,,,,,,,,,,,,,,,164.4292467999985,164.82968940000137,164.81400790000043,164.91484820000187,165.31559679999918,None,left,1,0.4442256000038469,165.31559679999918,None,164.81400790000043,164.91484820000187,164.91484820000187,None,165.78103279999777,None,,,,,,,11004,001,2023_Dec_29_1353,ANT,2021.2.3,60.20418852642138,
1,22,spatial,down,C,R,,,,,,Block.xlsx,"你已经完成了第一个实验区组

请稍作休息


点击空格键进入下一个区组。",-1.5,0,-1.5,right,RRRRR.png,,,,,0,0,0,0,0,19,19,21,,,,,,,,,,,,,,,,,,,,,,,,,,,,,,,,,,,,,,,,,,,,,,,,,,,,,,,,,,,,,,,,,,,,,,166.18164889999753,166.58309929999814,166.56639020000148,166.667059899999,167.06762750000053,None,right,1,0.34861329999694135,167.06762750000053,None,166.56639020000148,166.667059899999,166.667059899999,None,167.43375519999972,None,,,,,,,11004,001,2023_Dec_29_1353,ANT,2021.2.3,60.20418852642138,
1,21,spatial,down,C,L,,,,,,Block.xlsx,"你已经完成了第一个实验区组

请稍作休息


点击空格键进入下一个区组。",-1.5,0,-1.5,left,LLLLL.png,,,,,0,0,0,0,0,20,20,20,,,,,,,,,,,,,,,,,,,,,,,,,,,,,,,,,,,,,,,,,,,,,,,,,,,,,,,,,,,,,,,,,,,,,,167.83414410000114,168.23703599999862,168.21823420000146,168.32001730000047,168.72006449999753,None,left,1,0.375462999996671,168.72006449999753,None,168.21823420000146,168.32001730000047,168.32001730000047,None,169.11928890000127,None,,,,,,,11004,001,2023_Dec_29_1353,ANT,2021.2.3,60.20418852642138,
1,15,center,down,IC,L,,,,,,Block.xlsx,"你已经完成了第一个实验区组

请稍作休息


点击空格键进入下一个区组。",0,50,-1.5,left,RRLRR.png,,,,,0,0,0,0,0,21,21,14,,,,,,,,,,,,,,,,,,,,,,,,,,,,,,,,,,,,,,,,,,,,,,,,,,,,,,,,,,,,,,,,,,,,,,169.52003839999816,169.92161589999887,169.90474410000024,170.00471030000335,170.4051202999981,None,left,1,0.5227614999967045,170.4051202999981,None,169.90474410000024,170.00471030000335,170.00471030000335,None,170.95601660000102,None,,,,,,,11004,001,2023_Dec_29_1353,ANT,2021.2.3,60.20418852642138,
1,11,center,up,IC,L,,,,,,Block.xlsx,"你已经完成了第一个实验区组

请稍作休息


点击空格键进入下一个区组。",0,50,1.5,left,RRLRR.png,,,,,0,0,0,0,0,22,22,10,,,,,,,,,,,,,,,,,,,,,,,,,,,,,,,,,,,,,,,,,,,,,,,,,,,,,,,,,,,,,,,,,,,,,,171.35687699999835,171.75768950000202,171.73997860000236,171.84052759999759,172.24072600000363,None,left,1,0.6635183000034885,172.24072600000363,None,171.73997860000236,171.84052759999759,171.84052759999759,None,172.9248332999996,None,,,,,,,11004,001,2023_Dec_29_1353,ANT,2021.2.3,60.20418852642138,
1,9,center,up,C,L,,,,,,Block.xlsx,"你已经完成了第一个实验区组

请稍作休息


点击空格键进入下一个区组。",0,50,1.5,left,LLLLL.png,,,,,0,0,0,0,0,23,23,8,,,,,,,,,,,,,,,,,,,,,,,,,,,,,,,,,,,,,,,,,,,,,,,,,,,,,,,,,,,,,,,,,,,,,,173.3263392000008,173.72673129999748,173.70957739999722,173.81155720000243,174.21122699999978,None,left,1,0.39634799999475945,174.21122699999978,None,173.70957739999722,173.81155720000243,173.81155720000243,None,174.62765480000235,None,,,,,,,11004,001,2023_Dec_29_1353,ANT,2021.2.3,60.20418852642138,
1,18,spatial,up,C,R,,,,,,Block.xlsx,"你已经完成了第一个实验区组

请稍作休息


点击空格键进入下一个区组。",1.5,0,1.5,right,RRRRR.png,,,,,0,0,0,0,1,0,24,17,,,,,,,,,,,,,,,,,,,,,,,,,,,,,,,,,,,,,,,,,,,,,,,,,,,,,,,,,,,,,,,,,,,,,,175.0281068999975,175.4311474999995,175.41263030000118,175.51312509999843,175.91397570000117,None,right,1,0.6382833999959985,175.91397570000117,None,175.41263030000118,175.51312509999843,175.51312509999843,None,176.5802412999983,None,,,,,,,11004,001,2023_Dec_29_1353,ANT,2021.2.3,60.20418852642138,
1,20,spatial,up,IC,R,,,,,,Block.xlsx,"你已经完成了第一个实验区组

请稍作休息


点击空格键进入下一个区组。",1.5,0,1.5,right,LLRLL.png,,,,,0,0,0,0,1,1,25,19,,,,,,,,,,,,,,,,,,,,,,,,,,,,,,,,,,,,,,,,,,,,,,,,,,,,,,,,,,,,,,,,,,,,,,176.98183479999716,177.38238609999826,177.36571630000253,177.46676229999866,177.86762910000107,None,right,1,0.5560982000024524,177.86762910000107,None,177.36571630000253,177.46676229999866,177.46676229999866,None,178.44998779999878,None,,,,,,,11004,001,2023_Dec_29_1353,ANT,2021.2.3,60.20418852642138,
1,10,center,up,C,R,,,,,,Block.xlsx,"你已经完成了第一个实验区组

请稍作休息


点击空格键进入下一个区组。",0,50,1.5,right,RRRRR.png,,,,,0,0,0,0,1,2,26,9,,,,,,,,,,,,,,,,,,,,,,,,,,,,,,,,,,,,,,,,,,,,,,,,,,,,,,,,,,,,,,,,,,,,,,178.8510823999968,179.25189710000268,179.23499530000117,179.33538769999723,179.73595639999985,None,right,1,0.39152479999756906,179.73595639999985,None,179.23499530000117,179.33538769999723,179.33538769999723,None,180.1523875999992,None,,,,,,,11004,001,2023_Dec_29_1353,ANT,2021.2.3,60.20418852642138,
1,16,center,down,IC,R,,,,,,Block.xlsx,"你已经完成了第一个实验区组

请稍作休息


点击空格键进入下一个区组。",0,50,-1.5,right,LLRLL.png,,,,,0,0,0,0,1,3,27,15,,,,,,,,,,,,,,,,,,,,,,,,,,,,,,,,,,,,,,,,,,,,,,,,,,,,,,,,,,,,,,,,,,,,,,180.55409070000314,180.953623399997,180.93751209999755,181.03848180000205,181.4387557000009,None,left,0,0.46548900000198046,181.4387557000009,None,180.93751209999755,181.03848180000205,181.03848180000205,None,181.92165599999862,None,,,,,,,11004,001,2023_Dec_29_1353,ANT,2021.2.3,60.20418852642138,
1,1,no,up,C,L,,,,,,Block.xlsx,"你已经完成了第一个实验区组

请稍作休息


点击空格键进入下一个区组。",50,0,1.5,left,LLLLL.png,,,,,0,0,0,0,1,4,28,0,,,,,,,,,,,,,,,,,,,,,,,,,,,,,,,,,,,,,,,,,,,,,,,,,,,,,,,,,,,,,,,,,,,,,,182.3234072999985,182.72460090000095,182.70645360000344,182.80696899999748,183.20721539999795,None,left,1,0.5444633000006434,183.20721539999795,None,182.70645360000344,182.80696899999748,182.80696899999748,None,183.77460769999743,None,,,,,,,11004,001,2023_Dec_29_1353,ANT,2021.2.3,60.20418852642138,
1,22,spatial,down,C,R,,,,,,Block.xlsx,"你已经完成了第一个实验区组

请稍作休息


点击空格键进入下一个区组。",-1.5,0,-1.5,right,RRRRR.png,,,,,0,0,0,0,1,5,29,21,,,,,,,,,,,,,,,,,,,,,,,,,,,,,,,,,,,,,,,,,,,,,,,,,,,,,,,,,,,,,,,,,,,,,,184.1752861999994,184.57625769999868,184.55976889999874,184.65912319999916,185.06107480000355,None,right,1,0.4510279999958584,185.06107480000355,None,184.55976889999874,184.65912319999916,184.65912319999916,None,185.52711809999892,None,,,,,,,11004,001,2023_Dec_29_1353,ANT,2021.2.3,60.20418852642138,
1,17,spatial,up,C,L,,,,,,Block.xlsx,"你已经完成了第一个实验区组

请稍作休息


点击空格键进入下一个区组。",1.5,0,1.5,left,LLLLL.png,,,,,0,0,0,0,1,6,30,16,,,,,,,,,,,,,,,,,,,,,,,,,,,,,,,,,,,,,,,,,,,,,,,,,,,,,,,,,,,,,,,,,,,,,,185.92761189999874,186.32821110000077,186.31257290000212,186.41165170000022,186.8128996000014,None,left,1,0.3790705000064918,186.8128996000014,None,186.31257290000212,186.41165170000022,186.41165170000022,None,187.2126083999974,None,,,,,,,11004,001,2023_Dec_29_1353,ANT,2021.2.3,60.20418852642138,
1,13,center,down,C,L,,,,,,Block.xlsx,"你已经完成了第一个实验区组

请稍作休息


点击空格键进入下一个区组。",0,50,-1.5,left,LLLLL.png,,,,,0,0,0,0,1,7,31,12,,,,,,,,,,,,,,,,,,,,,,,,,,,,,,,,,,,,,,,,,,,,,,,,,,,,,,,,,,,,,,,,,,,,,,187.61346369999956,188.01551140000083,187.99799000000348,188.09822829999757,188.49877550000383,None,left,1,0.43728910000209,188.49877550000383,None,187.99799000000348,188.09822829999757,188.09822829999757,None,188.96551580000232,None,,,,,,,11004,001,2023_Dec_29_1353,ANT,2021.2.3,60.20418852642138,
1,21,spatial,down,C,L,,,,,,Block.xlsx,"你已经完成了第一个实验区组

请稍作休息


点击空格键进入下一个区组。",-1.5,0,-1.5,left,LLLLL.png,,,,,0,0,0,0,1,8,32,20,,,,,,,,,,,,,,,,,,,,,,,,,,,,,,,,,,,,,,,,,,,,,,,,,,,,,,,,,,,,,,,,,,,,,,189.36619020000217,189.76755630000116,189.75093750000087,189.85170910000306,190.252553600003,None,left,1,0.3632489000010537,190.252553600003,None,189.75093750000087,189.85170910000306,189.85170910000306,None,190.63456700000097,None,,,,,,,11004,001,2023_Dec_29_1353,ANT,2021.2.3,60.20418852642138,
1,19,spatial,up,IC,L,,,,,,Block.xlsx,"你已经完成了第一个实验区组

请稍作休息


点击空格键进入下一个区组。",1.5,0,1.5,left,RRLRR.png,,,,,0,0,0,0,1,9,33,18,,,,,,,,,,,,,,,,,,,,,,,,,,,,,,,,,,,,,,,,,,,,,,,,,,,,,,,,,,,,,,,,,,,,,,191.03664949999802,191.4381349000032,191.4200404000003,191.5192934000006,191.92019569999684,None,left,1,0.6076544000025024,191.92019569999684,None,191.4200404000003,191.5192934000006,191.5192934000006,None,192.55404219999764,None,,,,,,,11004,001,2023_Dec_29_1353,ANT,2021.2.3,60.20418852642138,
1,6,no,down,C,R,,,,,,Block.xlsx,"你已经完成了第一个实验区组

请稍作休息


点击空格键进入下一个区组。",50,0,-1.5,right,RRRRR.png,,,,,0,0,0,0,1,10,34,5,,,,,,,,,,,,,,,,,,,,,,,,,,,,,,,,,,,,,,,,,,,,,,,,,,,,,,,,,,,,,,,,,,,,,,192.95469749999756,193.35575799999788,193.3408614,193.45573490000243,193.8418754000013,None,right,1,0.37377980000019306,193.8418754000013,None,193.3408614,193.45573490000243,193.44018199999846,None,194.23984909999854,None,,,,,,,11004,001,2023_Dec_29_1353,ANT,2021.2.3,60.20418852642138,
1,4,no,up,IC,R,,,,,,Block.xlsx,"你已经完成了第一个实验区组

请稍作休息


点击空格键进入下一个区组。",50,0,1.5,right,LLRLL.png,,,,,0,0,0,0,1,11,35,3,,,,,,,,,,,,,,,,,,,,,,,,,,,,,,,,,,,,,,,,,,,,,,,,,,,,,,,,,,,,,,,,,,,,,,194.64102060000005,195.042077099999,195.02442619999783,195.12560739999753,195.52823109999736,None,right,1,0.5355607999954373,195.52823109999736,None,195.02442619999783,195.12560739999753,195.12560739999753,None,196.09383979999984,None,,,,,,,11004,001,2023_Dec_29_1353,ANT,2021.2.3,60.20418852642138,
1,24,spatial,down,IC,R,,,,,,Block.xlsx,"你已经完成了第一个实验区组

请稍作休息


点击空格键进入下一个区组。",-1.5,0,-1.5,right,LLRLL.png,,,,,0,0,0,0,1,12,36,23,,,,,,,,,,,,,,,,,,,,,,,,,,,,,,,,,,,,,,,,,,,,,,,,,,,,,,,,,,,,,,,,,,,,,,196.49342790000082,196.89393469999777,196.87945819999732,196.99543280000216,197.37876590000087,None,right,1,0.5249111999946763,197.37876590000087,None,196.87945819999732,196.99543280000216,196.97790969999915,None,197.92868389999785,None,,,,,,,11004,001,2023_Dec_29_1353,ANT,2021.2.3,60.20418852642138,
1,24,spatial,down,IC,R,,,,,,Block.xlsx,"你已经完成了第一个实验区组

请稍作休息


点击空格键进入下一个区组。",-1.5,0,-1.5,right,LLRLL.png,,,,,0,0,0,0,1,13,37,23,,,,,,,,,,,,,,,,,,,,,,,,,,,,,,,,,,,,,,,,,,,,,,,,,,,,,,,,,,,,,,,,,,,,,,198.32934840000235,198.73153479999746,198.71370449999813,198.81385790000058,199.21398780000163,None,right,1,0.46556669999699807,199.21398780000163,None,198.71370449999813,198.81385790000058,198.81385790000058,None,199.69788970000081,None,,,,,,,11004,001,2023_Dec_29_1353,ANT,2021.2.3,60.20418852642138,
1,18,spatial,up,C,R,,,,,,Block.xlsx,"你已经完成了第一个实验区组

请稍作休息


点击空格键进入下一个区组。",1.5,0,1.5,right,RRRRR.png,,,,,0,0,0,0,1,14,38,17,,,,,,,,,,,,,,,,,,,,,,,,,,,,,,,,,,,,,,,,,,,,,,,,,,,,,,,,,,,,,,,,,,,,,,200.0986847000022,200.5013143000033,200.48309500000323,200.58251290000044,200.9840095000036,None,right,1,0.35943020000559045,200.9840095000036,None,200.48309500000323,200.58251290000044,200.58251290000044,None,201.36717299999873,None,,,,,,,11004,001,2023_Dec_29_1353,ANT,2021.2.3,60.20418852642138,
1,8,no,down,IC,R,,,,,,Block.xlsx,"你已经完成了第一个实验区组

请稍作休息


点击空格键进入下一个区组。",50,0,-1.5,right,LLRLL.png,,,,,0,0,0,0,1,15,39,7,,,,,,,,,,,,,,,,,,,,,,,,,,,,,,,,,,,,,,,,,,,,,,,,,,,,,,,,,,,,,,,,,,,,,,201.76773929999763,202.16919829999824,202.15167649999785,202.25195160000294,202.65335980000236,None,right,1,0.6102784000031534,202.65335980000236,None,202.15167649999785,202.25195160000294,202.25195160000294,None,203.28672160000133,None,,,,,,,11004,001,2023_Dec_29_1353,ANT,2021.2.3,60.20418852642138,
1,14,center,down,C,R,,,,,,Block.xlsx,"你已经完成了第一个实验区组

请稍作休息


点击空格键进入下一个区组。",0,50,-1.5,right,RRRRR.png,,,,,0,0,0,0,1,16,40,13,,,,,,,,,,,,,,,,,,,,,,,,,,,,,,,,,,,,,,,,,,,,,,,,,,,,,,,,,,,,,,,,,,,,,,203.68793130000267,204.08945159999712,204.07097120000253,204.17288009999902,204.57372020000184,None,right,1,0.37014840000483673,204.57372020000184,None,204.07097120000253,204.17288009999902,204.17288009999902,None,204.9722477999967,None,,,,,,,11004,001,2023_Dec_29_1353,ANT,2021.2.3,60.20418852642138,
1,9,center,up,C,L,,,,,,Block.xlsx,"你已经完成了第一个实验区组

请稍作休息


点击空格键进入下一个区组。",0,50,1.5,left,LLLLL.png,,,,,0,0,0,0,1,17,41,8,,,,,,,,,,,,,,,,,,,,,,,,,,,,,,,,,,,,,,,,,,,,,,,,,,,,,,,,,,,,,,,,,,,,,,205.37296870000137,205.77371770000173,205.75828699999693,205.8578542999967,206.2584904999967,None,left,1,0.6052006000027177,206.2584904999967,None,205.75828699999693,205.8578542999967,205.8578542999967,None,206.89211749999959,None,,,,,,,11004,001,2023_Dec_29_1353,ANT,2021.2.3,60.20418852642138,
1,20,spatial,up,IC,R,,,,,,Block.xlsx,"你已经完成了第一个实验区组

请稍作休息


点击空格键进入下一个区组。",1.5,0,1.5,right,LLRLL.png,,,,,0,0,0,0,1,18,42,19,,,,,,,,,,,,,,,,,,,,,,,,,,,,,,,,,,,,,,,,,,,,,,,,,,,,,,,,,,,,,,,,,,,,,,207.29304050000064,207.69405469999765,207.6768516000011,207.7777489,208.1786764999997,None,right,1,0.5091988000058336,208.1786764999997,None,207.6768516000011,207.7777489,207.7777489,None,208.71145640000032,None,,,,,,,11004,001,2023_Dec_29_1353,ANT,2021.2.3,60.20418852642138,
1,6,no,down,C,R,,,,,,Block.xlsx,"你已经完成了第一个实验区组

请稍作休息


点击空格键进入下一个区组。",50,0,-1.5,right,RRRRR.png,,,,,0,0,0,0,1,19,43,5,,,,,,,,,,,,,,,,,,,,,,,,,,,,,,,,,,,,,,,,,,,,,,,,,,,,,,,,,,,,,,,,,,,,,,209.111951400002,209.5140698000032,209.49613430000318,209.59733969999797,209.99909650000336,None,right,1,0.4647192999982508,209.99909650000336,None,209.49613430000318,209.59733969999797,209.59733969999797,None,210.48043280000275,None,,,,,,,11004,001,2023_Dec_29_1353,ANT,2021.2.3,60.20418852642138,
1,10,center,up,C,R,,,,,,Block.xlsx,"你已经完成了第一个实验区组

请稍作休息


点击空格键进入下一个区组。",0,50,1.5,right,RRRRR.png,,,,,0,0,0,0,1,20,44,9,,,,,,,,,,,,,,,,,,,,,,,,,,,,,,,,,,,,,,,,,,,,,,,,,,,,,,,,,,,,,,,,,,,,,,210.88105570000334,211.28305040000123,211.2651851999981,211.36537720000342,211.76646900000196,None,right,1,0.5217083000025013,211.76646900000196,None,211.2651851999981,211.36537720000342,211.36537720000342,None,212.31672940000135,None,,,,,,,11004,001,2023_Dec_29_1353,ANT,2021.2.3,60.20418852642138,
1,24,spatial,down,IC,R,,,,,,Block.xlsx,"你已经完成了第一个实验区组

请稍作休息


点击空格键进入下一个区组。",-1.5,0,-1.5,right,LLRLL.png,,,,,0,0,0,0,1,21,45,23,,,,,,,,,,,,,,,,,,,,,,,,,,,,,,,,,,,,,,,,,,,,,,,,,,,,,,,,,,,,,,,,,,,,,,212.71739640000305,213.11964470000385,213.10123739999835,213.20210000000225,213.6027774999966,None,right,1,0.6457322999995085,213.6027774999966,None,213.10123739999835,213.20210000000225,213.20210000000225,None,214.2696397999971,None,,,,,,,11004,001,2023_Dec_29_1353,ANT,2021.2.3,60.20418852642138,
1,9,center,up,C,L,,,,,,Block.xlsx,"你已经完成了第一个实验区组

请稍作休息


点击空格键进入下一个区组。",0,50,1.5,left,LLLLL.png,,,,,0,0,0,0,1,22,46,8,,,,,,,,,,,,,,,,,,,,,,,,,,,,,,,,,,,,,,,,,,,,,,,,,,,,,,,,,,,,,,,,,,,,,,214.67030079999677,215.07286459999887,215.05506849999801,215.1547791999983,215.5565704000037,None,left,1,0.4108416000017314,215.5565704000037,None,215.05506849999801,215.1547791999983,215.1547791999983,None,215.98865020000085,None,,,,,,,11004,001,2023_Dec_29_1353,ANT,2021.2.3,60.20418852642138,
1,17,spatial,up,C,L,,,,,,Block.xlsx,"你已经完成了第一个实验区组

请稍作休息


点击空格键进入下一个区组。",1.5,0,1.5,left,LLLLL.png,,,,,0,0,0,0,1,23,47,16,,,,,,,,,,,,,,,,,,,,,,,,,,,,,,,,,,,,,,,,,,,,,,,,,,,,,,,,,,,,,,,,,,,,,,216.38953089999995,216.79119860000355,216.77590100000089,216.8742843,217.2754055999976,None,left,1,0.4762246999962372,217.2754055999976,None,216.77590100000089,216.8742843,216.8742843,None,217.77485470000101,None,,,,,,,11004,001,2023_Dec_29_1353,ANT,2021.2.3,60.20418852642138,
1,23,spatial,down,IC,L,,,,,,Block.xlsx,"你已经完成了第一个实验区组

请稍作休息


点击空格键进入下一个区组。",-1.5,0,-1.5,left,RRLRR.png,,,,,0,0,0,0,2,0,48,22,,,,,,,,,,,,,,,,,,,,,,,,,,,,,,,,,,,,,,,,,,,,,,,,,,,,,,,,,,,,,,,,,,,,,,218.17528100000345,218.57620670000324,218.5597271000006,218.66004870000324,219.06186709999747,None,left,1,0.5779557999994722,219.06186709999747,None,218.5597271000006,218.66004870000324,218.66004870000324,None,219.66069270000298,None,,,,,,,11004,001,2023_Dec_29_1353,ANT,2021.2.3,60.20418852642138,
1,18,spatial,up,C,R,,,,,,Block.xlsx,"你已经完成了第一个实验区组

请稍作休息


点击空格键进入下一个区组。",1.5,0,1.5,right,RRRRR.png,,,,,0,0,0,0,2,1,49,17,,,,,,,,,,,,,,,,,,,,,,,,,,,,,,,,,,,,,,,,,,,,,,,,,,,,,,,,,,,,,,,,,,,,,,220.06142859999818,220.46271759999945,220.44607859999815,220.54657179999776,220.94719820000319,None,right,1,0.5971176999955787,220.94719820000319,None,220.44607859999815,220.54657179999776,220.54657179999776,None,221.5636444999982,None,,,,,,,11004,001,2023_Dec_29_1353,ANT,2021.2.3,60.20418852642138,
1,1,no,up,C,L,,,,,,Block.xlsx,"你已经完成了第一个实验区组

请稍作休息


点击空格键进入下一个区组。",50,0,1.5,left,LLLLL.png,,,,,0,0,0,0,2,2,50,0,,,,,,,,,,,,,,,,,,,,,,,,,,,,,,,,,,,,,,,,,,,,,,,,,,,,,,,,,,,,,,,,,,,,,,221.9643348000027,222.3663777000038,222.34823689999757,222.44922029999725,222.85005690000253,None,left,1,0.5014711999974679,222.85005690000253,None,222.34823689999757,222.44922029999725,222.44922029999725,None,223.38313090000156,None,,,,,,,11004,001,2023_Dec_29_1353,ANT,2021.2.3,60.20418852642138,
1,1,no,up,C,L,,,,,,Block.xlsx,"你已经完成了第一个实验区组

请稍作休息


点击空格键进入下一个区组。",50,0,1.5,left,LLLLL.png,,,,,0,0,0,0,2,3,51,0,,,,,,,,,,,,,,,,,,,,,,,,,,,,,,,,,,,,,,,,,,,,,,,,,,,,,,,,,,,,,,,,,,,,,,223.785398,224.18510680000327,224.16929920000257,224.26869920000172,224.6688076999999,None,left,1,0.5152118999976665,224.6688076999999,None,224.16929920000257,224.26869920000172,224.26869920000172,None,225.20240409999678,None,,,,,,,11004,001,2023_Dec_29_1353,ANT,2021.2.3,60.20418852642138,
1,14,center,down,C,R,,,,,,Block.xlsx,"你已经完成了第一个实验区组

请稍作休息


点击空格键进入下一个区组。",0,50,-1.5,right,RRRRR.png,,,,,0,0,0,0,2,4,52,13,,,,,,,,,,,,,,,,,,,,,,,,,,,,,,,,,,,,,,,,,,,,,,,,,,,,,,,,,,,,,,,,,,,,,,225.60299579999992,226.00559939999948,225.98720799999865,226.0888774999985,226.48961840000266,None,right,1,0.4539803000006941,226.48961840000266,None,225.98720799999865,226.0888774999985,226.0888774999985,None,226.97177910000028,None,,,,,,,11004,001,2023_Dec_29_1353,ANT,2021.2.3,60.20418852642138,
1,19,spatial,up,IC,L,,,,,,Block.xlsx,"你已经完成了第一个实验区组

请稍作休息


点击空格键进入下一个区组。",1.5,0,1.5,left,RRLRR.png,,,,,0,0,0,0,2,5,53,18,,,,,,,,,,,,,,,,,,,,,,,,,,,,,,,,,,,,,,,,,,,,,,,,,,,,,,,,,,,,,,,,,,,,,,227.37235910000163,227.7747509000037,227.75645069999882,227.85701179999887,228.25772660000075,None,right,0,0.4221006000007037,228.25772660000075,None,227.75645069999882,227.85701179999887,227.85701179999887,None,228.70781629999692,None,,,,,,,11004,001,2023_Dec_29_1353,ANT,2021.2.3,60.20418852642138,
1,16,center,down,IC,R,,,,,,Block.xlsx,"你已经完成了第一个实验区组

请稍作休息


点击空格键进入下一个区组。",0,50,-1.5,right,LLRLL.png,,,,,0,0,0,0,2,6,54,15,,,,,,,,,,,,,,,,,,,,,,,,,,,,,,,,,,,,,,,,,,,,,,,,,,,,,,,,,,,,,,,,,,,,,,229.10829080000258,229.50952050000342,229.49280459999864,229.59313100000145,229.99322029999894,None,right,1,0.5906638000014937,229.99322029999894,None,229.49280459999864,229.59313100000145,229.59313100000145,None,230.61117419999937,None,,,,,,,11004,001,2023_Dec_29_1353,ANT,2021.2.3,60.20418852642138,
1,3,no,up,IC,L,,,,,,Block.xlsx,"你已经完成了第一个实验区组

请稍作休息


点击空格键进入下一个区组。",50,0,1.5,left,RRLRR.png,,,,,0,0,0,0,2,7,55,2,,,,,,,,,,,,,,,,,,,,,,,,,,,,,,,,,,,,,,,,,,,,,,,,,,,,,,,,,,,,,,,,,,,,,,231.01194180000311,231.41240459999972,231.39570159999857,231.49727710000298,231.89632790000178,None,left,1,0.48744499999884283,231.89632790000178,None,231.39570159999857,231.49727710000298,231.49727710000298,None,232.41323920000286,None,,,,,,,11004,001,2023_Dec_29_1353,ANT,2021.2.3,60.20418852642138,
1,13,center,down,C,L,,,,,,Block.xlsx,"你已经完成了第一个实验区组

请稍作休息


点击空格键进入下一个区组。",0,50,-1.5,left,LLLLL.png,,,,,0,0,0,0,2,8,56,12,,,,,,,,,,,,,,,,,,,,,,,,,,,,,,,,,,,,,,,,,,,,,,,,,,,,,,,,,,,,,,,,,,,,,,232.81403400000272,233.2162868000014,233.19886309999856,233.29868069999793,233.6991898999986,None,left,1,0.38134760000684764,233.6991898999986,None,233.19886309999856,233.29868069999793,233.29868069999793,None,234.09960129999672,None,,,,,,,11004,001,2023_Dec_29_1353,ANT,2021.2.3,60.20418852642138,
1,17,spatial,up,C,L,,,,,,Block.xlsx,"你已经完成了第一个实验区组

请稍作休息


点击空格键进入下一个区组。",1.5,0,1.5,left,LLLLL.png,,,,,0,0,0,0,2,9,57,16,,,,,,,,,,,,,,,,,,,,,,,,,,,,,,,,,,,,,,,,,,,,,,,,,,,,,,,,,,,,,,,,,,,,,,234.49953110000206,234.90145050000137,234.88426410000102,234.98539419999724,235.38500970000314,None,left,1,0.4231392000001506,235.38500970000314,None,234.88426410000102,234.98539419999724,234.98539419999724,None,235.83476350000274,None,,,,,,,11004,001,2023_Dec_29_1353,ANT,2021.2.3,60.20418852642138,
1,20,spatial,up,IC,R,,,,,,Block.xlsx,"你已经完成了第一个实验区组

请稍作休息


点击空格键进入下一个区组。",1.5,0,1.5,right,LLRLL.png,,,,,0,0,0,0,2,10,58,19,,,,,,,,,,,,,,,,,,,,,,,,,,,,,,,,,,,,,,,,,,,,,,,,,,,,,,,,,,,,,,,,,,,,,,236.23623699999735,236.63700100000278,236.61937300000136,236.72069249999913,237.12018559999706,None,right,1,0.5118116000012378,237.12018559999706,None,236.61937300000136,236.72069249999913,236.72069249999913,None,237.65503319999698,None,,,,,,,11004,001,2023_Dec_29_1353,ANT,2021.2.3,60.20418852642138,
1,3,no,up,IC,L,,,,,,Block.xlsx,"你已经完成了第一个实验区组

请稍作休息


点击空格键进入下一个区组。",50,0,1.5,left,RRLRR.png,,,,,0,0,0,0,2,11,59,2,,,,,,,,,,,,,,,,,,,,,,,,,,,,,,,,,,,,,,,,,,,,,,,,,,,,,,,,,,,,,,,,,,,,,,238.05484419999993,238.45566099999996,238.43929029999708,238.53973679999763,238.93942409999727,None,left,1,0.4764136999947368,238.93942409999727,None,238.43929029999708,238.53973679999763,238.53973679999763,None,239.4410022000011,None,,,,,,,11004,001,2023_Dec_29_1353,ANT,2021.2.3,60.20418852642138,
1,3,no,up,IC,L,,,,,,Block.xlsx,"你已经完成了第一个实验区组

请稍作休息


点击空格键进入下一个区组。",50,0,1.5,left,RRLRR.png,,,,,0,0,0,0,2,12,60,2,,,,,,,,,,,,,,,,,,,,,,,,,,,,,,,,,,,,,,,,,,,,,,,,,,,,,,,,,,,,,,,,,,,,,,239.84067759999743,240.24278480000066,240.22494000000006,240.32485540000198,240.7257180000015,None,left,1,0.45790109999506967,240.7257180000015,None,240.22494000000006,240.32485540000198,240.32485540000198,None,241.20952930000203,None,,,,,,,11004,001,2023_Dec_29_1353,ANT,2021.2.3,60.20418852642138,
1,8,no,down,IC,R,,,,,,Block.xlsx,"你已经完成了第一个实验区组

请稍作休息


点击空格键进入下一个区组。",50,0,-1.5,right,LLRLL.png,,,,,0,0,0,0,2,13,61,7,,,,,,,,,,,,,,,,,,,,,,,,,,,,,,,,,,,,,,,,,,,,,,,,,,,,,,,,,,,,,,,,,,,,,,241.61045430000377,242.01127850000194,241.99474210000335,242.09613499999978,242.4965091999984,None,right,1,0.6953529999955208,242.4965091999984,None,241.99474210000335,242.09613499999978,242.09613499999978,None,243.21242350000102,None,,,,,,,11004,001,2023_Dec_29_1353,ANT,2021.2.3,60.20418852642138,
1,22,spatial,down,C,R,,,,,,Block.xlsx,"你已经完成了第一个实验区组

请稍作休息


点击空格键进入下一个区组。",-1.5,0,-1.5,right,RRRRR.png,,,,,0,0,0,0,2,14,62,21,,,,,,,,,,,,,,,,,,,,,,,,,,,,,,,,,,,,,,,,,,,,,,,,,,,,,,,,,,,,,,,,,,,,,,243.61307150000357,244.01508900000044,243.9976538999981,244.09823830000096,244.4977874000033,None,right,1,0.39002069999696687,244.4977874000033,None,243.9976538999981,244.09823830000096,244.09823830000096,None,244.91508969999995,None,,,,,,,11004,001,2023_Dec_29_1353,ANT,2021.2.3,60.20418852642138,
1,12,center,up,IC,R,,,,,,Block.xlsx,"你已经完成了第一个实验区组

请稍作休息


点击空格键进入下一个区组。",0,50,1.5,right,LLRLL.png,,,,,0,0,0,0,2,15,63,11,,,,,,,,,,,,,,,,,,,,,,,,,,,,,,,,,,,,,,,,,,,,,,,,,,,,,,,,,,,,,,,,,,,,,,245.31568759999936,245.7167036000028,245.70041140000103,245.79990170000383,246.20134120000148,None,left,0,0.43053920000238577,246.20134120000148,None,245.70041140000103,245.79990170000383,245.79990170000383,None,246.65101829999912,None,,,,,,,11004,001,2023_Dec_29_1353,ANT,2021.2.3,60.20418852642138,
1,14,center,down,C,R,,,,,,Block.xlsx,"你已经完成了第一个实验区组

请稍作休息


点击空格键进入下一个区组。",0,50,-1.5,right,RRRRR.png,,,,,0,0,0,0,2,16,64,13,,,,,,,,,,,,,,,,,,,,,,,,,,,,,,,,,,,,,,,,,,,,,,,,,,,,,,,,,,,,,,,,,,,,,,247.05207209999935,247.45290499999828,247.43673580000177,247.5532303,247.93697979999706,None,right,1,0.5267611000017496,247.93697979999706,None,247.43673580000177,247.5532303,247.53705829999672,None,248.48790430000372,None,,,,,,,11004,001,2023_Dec_29_1353,ANT,2021.2.3,60.20418852642138,
1,5,no,down,C,L,,,,,,Block.xlsx,"你已经完成了第一个实验区组

请稍作休息


点击空格键进入下一个区组。",50,0,-1.5,left,LLLLL.png,,,,,0,0,0,0,2,17,65,4,,,,,,,,,,,,,,,,,,,,,,,,,,,,,,,,,,,,,,,,,,,,,,,,,,,,,,,,,,,,,,,,,,,,,,248.88817600000039,249.28870520000055,249.27203480000026,249.37321930000326,249.77281539999967,None,left,1,0.5716641999970307,249.77281539999967,None,249.27203480000026,249.37321930000326,249.37321930000326,None,250.3730779000034,None,,,,,,,11004,001,2023_Dec_29_1353,ANT,2021.2.3,60.20418852642138,
1,4,no,up,IC,R,,,,,,Block.xlsx,"你已经完成了第一个实验区组

请稍作休息


点击空格键进入下一个区组。",50,0,1.5,right,LLRLL.png,,,,,0,0,0,0,2,18,66,3,,,,,,,,,,,,,,,,,,,,,,,,,,,,,,,,,,,,,,,,,,,,,,,,,,,,,,,,,,,,,,,,,,,,,,250.77370630000223,251.17495809999673,251.1600585999986,251.27436039999884,251.6606163999968,None,right,1,0.5468185999998241,251.6606163999968,None,251.1600585999986,251.27436039999884,251.25936699999875,None,252.2258784000005,None,,,,,,,11004,001,2023_Dec_29_1353,ANT,2021.2.3,60.20418852642138,
1,12,center,up,IC,R,,,,,,Block.xlsx,"你已经完成了第一个实验区组

请稍作休息


点击空格键进入下一个区组。",0,50,1.5,right,LLRLL.png,,,,,0,0,0,0,2,19,67,11,,,,,,,,,,,,,,,,,,,,,,,,,,,,,,,,,,,,,,,,,,,,,,,,,,,,,,,,,,,,,,,,,,,,,,252.62675709999894,253.02887249999912,253.01101560000097,253.1105796999982,253.5126225999993,None,right,1,0.4793333999987226,253.5126225999993,None,253.01101560000097,253.1105796999982,253.1105796999982,None,254.01201310000033,None,,,,,,,11004,001,2023_Dec_29_1353,ANT,2021.2.3,60.20418852642138,
1,3,no,up,IC,L,,,,,,Block.xlsx,"你已经完成了第一个实验区组

请稍作休息


点击空格键进入下一个区组。",50,0,1.5,left,RRLRR.png,,,,,0,0,0,0,2,20,68,2,,,,,,,,,,,,,,,,,,,,,,,,,,,,,,,,,,,,,,,,,,,,,,,,,,,,,,,,,,,,,,,,,,,,,,254.41288209999766,254.8149265000029,254.79706740000256,254.89808289999928,255.29816440000286,None,left,1,0.5498922999977367,255.29816440000286,None,254.79706740000256,254.89808289999928,254.89808289999928,None,255.86456709999766,None,,,,,,,11004,001,2023_Dec_29_1353,ANT,2021.2.3,60.20418852642138,
1,8,no,down,IC,R,,,,,,Block.xlsx,"你已经完成了第一个实验区组

请稍作休息


点击空格键进入下一个区组。",50,0,-1.5,right,LLRLL.png,,,,,0,0,0,0,2,21,69,7,,,,,,,,,,,,,,,,,,,,,,,,,,,,,,,,,,,,,,,,,,,,,,,,,,,,,,,,,,,,,,,,,,,,,,256.26520419999724,256.6667690999966,256.64982160000363,256.749785400003,257.1503989999983,None,right,1,0.6178605000022799,257.1503989999983,None,256.64982160000363,256.749785400003,256.749785400003,None,257.78411600000254,None,,,,,,,11004,001,2023_Dec_29_1353,ANT,2021.2.3,60.20418852642138,
1,20,spatial,up,IC,R,,,,,,Block.xlsx,"你已经完成了第一个实验区组

请稍作休息


点击空格键进入下一个区组。",1.5,0,1.5,right,LLRLL.png,,,,,0,0,0,0,2,22,70,19,,,,,,,,,,,,,,,,,,,,,,,,,,,,,,,,,,,,,,,,,,,,,,,,,,,,,,,,,,,,,,,,,,,,,,258.1854927000022,258.58571340000344,258.56993659999716,258.66911139999866,259.0699253999992,None,right,1,0.5137231999979122,259.0699253999992,None,258.56993659999716,258.66911139999866,258.66911139999866,None,259.603557800001,None,,,,,,,11004,001,2023_Dec_29_1353,ANT,2021.2.3,60.20418852642138,
1,23,spatial,down,IC,L,,,,,,Block.xlsx,"你已经完成了第一个实验区组

请稍作休息


点击空格键进入下一个区组。",-1.5,0,-1.5,left,RRLRR.png,,,,,0,0,0,0,2,23,71,22,,,,,,,,,,,,,,,,,,,,,,,,,,,,,,,,,,,,,,,,,,,,,,,,,,,,,,,,,,,,,,,,,,,,,,260.0058202,260.40550580000127,260.3890284000008,260.4900905999966,260.88939989999926,None,left,1,0.6227389999985462,260.88939989999926,None,260.3890284000008,260.4900905999966,260.4900905999966,None,261.5396936000034,None,,,,,,,11004,001,2023_Dec_29_1353,ANT,2021.2.3,60.20418852642138,
1,12,center,up,IC,R,,,,,,Block.xlsx,"你已经完成了第一个实验区组

请稍作休息


点击空格键进入下一个区组。",0,50,1.5,right,LLRLL.png,,,,,0,0,0,0,3,0,72,11,,,,,,,,,,,,,,,,,,,,,,,,,,,,,,,,,,,,,,,,,,,,,,,,,,,,,,,,,,,,,,,,,,,,,,261.94021310000244,262.34176180000213,262.3242473999999,262.42575639999995,262.82487519999995,None,right,1,0.5514761000013095,262.82487519999995,None,262.3242473999999,262.42575639999995,262.42575639999995,None,263.39272309999797,None,,,,,,,11004,001,2023_Dec_29_1353,ANT,2021.2.3,60.20418852642138,
1,10,center,up,C,R,,,,,,Block.xlsx,"你已经完成了第一个实验区组

请稍作休息


点击空格键进入下一个区组。",0,50,1.5,right,RRRRR.png,,,,,0,0,0,0,3,1,73,9,,,,,,,,,,,,,,,,,,,,,,,,,,,,,,,,,,,,,,,,,,,,,,,,,,,,,,,,,,,,,,,,,,,,,,263.79394290000346,264.1942349000019,264.1776086000027,264.27833210000244,264.6790297999978,None,right,1,0.40050049999990733,264.6790297999978,None,264.1776086000027,264.27833210000244,264.27833210000244,None,265.094981000002,None,,,,,,,11004,001,2023_Dec_29_1353,ANT,2021.2.3,60.20418852642138,
1,7,no,down,IC,L,,,,,,Block.xlsx,"你已经完成了第一个实验区组

请稍作休息


点击空格键进入下一个区组。",50,0,-1.5,left,RRLRR.png,,,,,0,0,0,0,3,2,74,6,,,,,,,,,,,,,,,,,,,,,,,,,,,,,,,,,,,,,,,,,,,,,,,,,,,,,,,,,,,,,,,,,,,,,,265.49553880000167,265.89656670000113,265.8803753000029,265.98005600000033,266.3808917999995,None,left,1,0.5870509000014863,266.3808917999995,None,265.8803753000029,265.98005600000033,265.98005600000033,None,266.99768459999905,None,,,,,,,11004,001,2023_Dec_29_1353,ANT,2021.2.3,60.20418852642138,
1,19,spatial,up,IC,L,,,,,,Block.xlsx,"你已经完成了第一个实验区组

请稍作休息


点击空格键进入下一个区组。",1.5,0,1.5,left,RRLRR.png,,,,,0,0,0,0,3,3,75,18,,,,,,,,,,,,,,,,,,,,,,,,,,,,,,,,,,,,,,,,,,,,,,,,,,,,,,,,,,,,,,,,,,,,,,267.39939230000164,267.7997039000038,267.7838496999975,267.89916829999856,268.28363669999817,None,left,1,0.4601514000023599,268.28363669999817,None,267.7838496999975,267.89916829999856,267.8830893999984,None,268.76707149999856,None,,,,,,,11004,001,2023_Dec_29_1353,ANT,2021.2.3,60.20418852642138,
1,8,no,down,IC,R,,,,,,Block.xlsx,"你已经完成了第一个实验区组

请稍作休息


点击空格键进入下一个区组。",50,0,-1.5,right,LLRLL.png,,,,,0,0,0,0,3,4,76,7,,,,,,,,,,,,,,,,,,,,,,,,,,,,,,,,,,,,,,,,,,,,,,,,,,,,,,,,,,,,,,,,,,,,,,269.16828859999805,269.5680011000004,269.5516370999976,269.652436999997,270.0523482999997,None,right,1,0.5716712000066764,270.0523482999997,None,269.5516370999976,269.652436999997,269.652436999997,None,270.65311349999683,None,,,,,,,11004,001,2023_Dec_29_1353,ANT,2021.2.3,60.20418852642138,
1,16,center,down,IC,R,,,,,,Block.xlsx,"你已经完成了第一个实验区组

请稍作休息


点击空格键进入下一个区组。",0,50,-1.5,right,LLRLL.png,,,,,0,0,0,0,3,5,77,15,,,,,,,,,,,,,,,,,,,,,,,,,,,,,,,,,,,,,,,,,,,,,,,,,,,,,,,,,,,,,,,,,,,,,,271.0548127000002,271.45493310000165,271.43926849999843,271.55501920000097,271.9395826999971,None,right,1,0.4600875999967684,271.9395826999971,None,271.43926849999843,271.55501920000097,271.53877430000284,None,272.4227615999989,None,,,,,,,11004,001,2023_Dec_29_1353,ANT,2021.2.3,60.20418852642138,
1,21,spatial,down,C,L,,,,,,Block.xlsx,"你已经完成了第一个实验区组

请稍作休息


点击空格键进入下一个区组。",-1.5,0,-1.5,left,LLLLL.png,,,,,0,0,0,0,3,6,78,20,,,,,,,,,,,,,,,,,,,,,,,,,,,,,,,,,,,,,,,,,,,,,,,,,,,,,,,,,,,,,,,,,,,,,,272.82312049999746,273.22367600000143,273.20715239999845,273.3077865000014,273.70841669999936,None,left,1,0.45965939999587135,273.70841669999936,None,273.20715239999845,273.3077865000014,273.3077865000014,None,274.1918785000016,None,,,,,,,11004,001,2023_Dec_29_1353,ANT,2021.2.3,60.20418852642138,
1,4,no,up,IC,R,,,,,,Block.xlsx,"你已经完成了第一个实验区组

请稍作休息


点击空格键进入下一个区组。",50,0,1.5,right,LLRLL.png,,,,,0,0,0,0,3,7,79,3,,,,,,,,,,,,,,,,,,,,,,,,,,,,,,,,,,,,,,,,,,,,,,,,,,,,,,,,,,,,,,,,,,,,,,274.5930928000016,274.99296740000136,274.9769727000021,275.0764175000004,275.4786183999968,None,right,1,0.6896638000034727,275.4786183999968,None,274.9769727000021,275.0764175000004,275.0764175000004,None,276.19462080000085,None,,,,,,,11004,001,2023_Dec_29_1353,ANT,2021.2.3,60.20418852642138,
1,2,no,up,C,R,,,,,,Block.xlsx,"你已经完成了第一个实验区组

请稍作休息


点击空格键进入下一个区组。",50,0,1.5,right,RRRRR.png,,,,,0,0,0,0,3,8,80,1,,,,,,,,,,,,,,,,,,,,,,,,,,,,,,,,,,,,,,,,,,,,,,,,,,,,,,,,,,,,,,,,,,,,,,276.5960486999975,276.99673520000215,276.97921810000116,277.08114919999935,277.4806991000005,None,right,1,0.5591234000021359,277.4806991000005,None,276.97921810000116,277.08114919999935,277.08114919999935,None,278.0640452000007,None,,,,,,,11004,001,2023_Dec_29_1353,ANT,2021.2.3,60.20418852642138,
1,12,center,up,IC,R,,,,,,Block.xlsx,"你已经完成了第一个实验区组

请稍作休息


点击空格键进入下一个区组。",0,50,1.5,right,LLRLL.png,,,,,0,0,0,0,3,9,81,11,,,,,,,,,,,,,,,,,,,,,,,,,,,,,,,,,,,,,,,,,,,,,,,,,,,,,,,,,,,,,,,,,,,,,,278.4648436999996,278.8663505000004,278.84877119999874,278.94996269999683,279.3499465999994,None,right,1,0.5295296000040253,279.3499465999994,None,278.84877119999874,278.94996269999683,278.94996269999683,None,279.900043499998,None,,,,,,,11004,001,2023_Dec_29_1353,ANT,2021.2.3,60.20418852642138,
1,5,no,down,C,L,,,,,,Block.xlsx,"你已经完成了第一个实验区组

请稍作休息


点击空格键进入下一个区组。",50,0,-1.5,left,LLLLL.png,,,,,0,0,0,0,3,10,82,4,,,,,,,,,,,,,,,,,,,,,,,,,,,,,,,,,,,,,,,,,,,,,,,,,,,,,,,,,,,,,,,,,,,,,,280.3015427999999,280.7020889999985,280.6850445000018,280.78628700000263,281.1857622000025,None,left,1,0.5903281999999308,281.1857622000025,None,280.6850445000018,280.78628700000263,280.78628700000263,None,281.80307509999693,None,,,,,,,11004,001,2023_Dec_29_1353,ANT,2021.2.3,60.20418852642138,
1,16,center,down,IC,R,,,,,,Block.xlsx,"你已经完成了第一个实验区组

请稍作休息


点击空格键进入下一个区组。",0,50,-1.5,right,LLRLL.png,,,,,0,0,0,0,3,11,83,15,,,,,,,,,,,,,,,,,,,,,,,,,,,,,,,,,,,,,,,,,,,,,,,,,,,,,,,,,,,,,,,,,,,,,,282.2035908999969,282.6052419999978,282.58823649999977,282.6881758000018,283.0895167999988,None,right,1,0.4860899999985122,283.0895167999988,None,282.58823649999977,282.6881758000018,282.6881758000018,None,283.6062194999977,None,,,,,,,11004,001,2023_Dec_29_1353,ANT,2021.2.3,60.20418852642138,
1,11,center,up,IC,L,,,,,,Block.xlsx,"你已经完成了第一个实验区组

请稍作休息


点击空格键进入下一个区组。",0,50,1.5,left,RRLRR.png,,,,,0,0,0,0,3,12,84,10,,,,,,,,,,,,,,,,,,,,,,,,,,,,,,,,,,,,,,,,,,,,,,,,,,,,,,,,,,,,,,,,,,,,,,284.0065360000008,284.4081920000026,284.3909638999976,284.49107430000004,284.8916606999992,None,left,1,0.620006299999659,284.8916606999992,None,284.3909638999976,284.49107430000004,284.49107430000004,None,285.5419907000032,None,,,,,,,11004,001,2023_Dec_29_1353,ANT,2021.2.3,60.20418852642138,
1,24,spatial,down,IC,R,,,,,,Block.xlsx,"你已经完成了第一个实验区组

请稍作休息


点击空格键进入下一个区组。",-1.5,0,-1.5,right,LLRLL.png,,,,,0,0,0,0,3,13,85,23,,,,,,,,,,,,,,,,,,,,,,,,,,,,,,,,,,,,,,,,,,,,,,,,,,,,,,,,,,,,,,,,,,,,,,285.9424693000037,286.3437875000018,286.32696769999893,286.42757240000356,286.8295698000002,None,right,1,0.5464863999950467,286.8295698000002,None,286.32696769999893,286.42757240000356,286.42757240000356,None,287.39481030000024,None,,,,,,,11004,001,2023_Dec_29_1353,ANT,2021.2.3,60.20418852642138,
1,4,no,up,IC,R,,,,,,Block.xlsx,"你已经完成了第一个实验区组

请稍作休息


点击空格键进入下一个区组。",50,0,1.5,right,LLRLL.png,,,,,0,0,0,0,3,14,86,3,,,,,,,,,,,,,,,,,,,,,,,,,,,,,,,,,,,,,,,,,,,,,,,,,,,,,,,,,,,,,,,,,,,,,,287.79581340000004,288.1976649999997,288.17924810000113,288.2802264999991,288.68055489999824,None,right,1,0.5352978999944753,288.68055489999824,None,288.17924810000113,288.2802264999991,288.2802264999991,None,289.23051600000326,None,,,,,,,11004,001,2023_Dec_29_1353,ANT,2021.2.3,60.20418852642138,
1,5,no,down,C,L,,,,,,Block.xlsx,"你已经完成了第一个实验区组

请稍作休息


点击空格键进入下一个区组。",50,0,-1.5,left,LLLLL.png,,,,,0,0,0,0,3,15,87,4,,,,,,,,,,,,,,,,,,,,,,,,,,,,,,,,,,,,,,,,,,,,,,,,,,,,,,,,,,,,,,,,,,,,,,289.6318898000027,290.03246599999693,290.01705819999916,290.13298909999867,290.5162122000038,None,left,1,0.8682495999964885,290.5162122000038,None,290.01705819999916,290.13298909999867,290.1169966000016,None,291.40037080000184,None,,,,,,,11004,001,2023_Dec_29_1353,ANT,2021.2.3,60.20418852642138,
1,15,center,down,IC,L,,,,,,Block.xlsx,"你已经完成了第一个实验区组

请稍作休息


点击空格键进入下一个区组。",0,50,-1.5,left,RRLRR.png,,,,,0,0,0,0,3,16,88,14,,,,,,,,,,,,,,,,,,,,,,,,,,,,,,,,,,,,,,,,,,,,,,,,,,,,,,,,,,,,,,,,,,,,,,291.80185899999924,292.20389460000297,292.18646530000115,292.2863992999992,292.6883716000011,None,left,1,0.5830058999999892,292.6883716000011,None,292.18646530000115,292.2863992999992,292.2863992999992,None,293.2865221000029,None,,,,,,,11004,001,2023_Dec_29_1353,ANT,2021.2.3,60.20418852642138,
1,7,no,down,IC,L,,,,,,Block.xlsx,"你已经完成了第一个实验区组

请稍作休息


点击空格键进入下一个区组。",50,0,-1.5,left,RRLRR.png,,,,,0,0,0,0,3,17,89,6,,,,,,,,,,,,,,,,,,,,,,,,,,,,,,,,,,,,,,,,,,,,,,,,,,,,,,,,,,,,,,,,,,,,,,293.6875155000016,294.0887048000004,294.07236009999906,294.17260089999763,294.57274940000207,None,left,1,0.5394532999998773,294.57274940000207,None,294.07236009999906,294.17260089999763,294.17260089999763,None,295.13997879999806,None,,,,,,,11004,001,2023_Dec_29_1353,ANT,2021.2.3,60.20418852642138,
1,6,no,down,C,R,,,,,,Block.xlsx,"你已经完成了第一个实验区组

请稍作休息


点击空格键进入下一个区组。",50,0,-1.5,right,RRRRR.png,,,,,0,0,0,0,3,18,90,5,,,,,,,,,,,,,,,,,,,,,,,,,,,,,,,,,,,,,,,,,,,,,,,,,,,,,,,,,,,,,,,,,,,,,,295.54094520000217,295.9414300999997,295.9264500999998,296.0414413000035,296.4253026000006,None,right,1,0.3823859000040102,296.4253026000006,None,295.9264500999998,296.0414413000035,296.02509629999986,None,296.8252945999993,None,,,,,,,11004,001,2023_Dec_29_1353,ANT,2021.2.3,60.20418852642138,
1,14,center,down,C,R,,,,,,Block.xlsx,"你已经完成了第一个实验区组

请稍作休息


点击空格键进入下一个区组。",0,50,-1.5,right,RRRRR.png,,,,,0,0,0,0,3,19,91,13,,,,,,,,,,,,,,,,,,,,,,,,,,,,,,,,,,,,,,,,,,,,,,,,,,,,,,,,,,,,,,,,,,,,,,297.22581640000135,297.62676730000385,297.60973640000157,297.7104954000024,298.11126440000226,None,right,1,0.3525969999973313,298.11126440000226,None,297.60973640000157,297.7104954000024,297.7104954000024,None,298.49440080000204,None,,,,,,,11004,001,2023_Dec_29_1353,ANT,2021.2.3,60.20418852642138,
1,2,no,up,C,R,,,,,,Block.xlsx,"你已经完成了第一个实验区组

请稍作休息


点击空格键进入下一个区组。",50,0,1.5,right,RRRRR.png,,,,,0,0,0,0,3,20,92,1,,,,,,,,,,,,,,,,,,,,,,,,,,,,,,,,,,,,,,,,,,,,,,,,,,,,,,,,,,,,,,,,,,,,,,298.8959568999999,299.2956775999992,299.2799615999975,299.3800110000011,299.780302500003,None,right,1,0.45200389999808976,299.780302500003,None,299.2799615999975,299.3800110000011,299.3800110000011,None,300.24699880000117,None,,,,,,,11004,001,2023_Dec_29_1353,ANT,2021.2.3,60.20418852642138,
1,22,spatial,down,C,R,,,,,,Block.xlsx,"你已经完成了第一个实验区组

请稍作休息


点击空格键进入下一个区组。",-1.5,0,-1.5,right,RRRRR.png,,,,,0,0,0,0,3,21,93,21,,,,,,,,,,,,,,,,,,,,,,,,,,,,,,,,,,,,,,,,,,,,,,,,,,,,,,,,,,,,,,,,,,,,,,300.6478772999981,301.04957560000184,301.0319227,301.13413939999737,301.53384409999853,None,right,1,0.3379999000026146,301.53384409999853,None,301.0319227,301.13413939999737,301.13413939999737,None,301.8998001,None,,,,,,,11004,001,2023_Dec_29_1353,ANT,2021.2.3,60.20418852642138,
1,11,center,up,IC,L,,,,,,Block.xlsx,"你已经完成了第一个实验区组

请稍作休息


点击空格键进入下一个区组。",0,50,1.5,left,RRLRR.png,,,,,0,0,0,0,3,22,94,10,,,,,,,,,,,,,,,,,,,,,,,,,,,,,,,,,,,,,,,,,,,,,,,,,,,,,,,,,,,,,,,,,,,,,,302.30032129999745,302.70199539999885,302.68401900000026,302.7852844000008,303.18604429999687,None,right,0,0.31758959999569925,303.18604429999687,None,302.68401900000026,302.7852844000008,302.7852844000008,None,303.53537450000294,None,,,,,,,11004,001,2023_Dec_29_1353,ANT,2021.2.3,60.20418852642138,
1,15,center,down,IC,L,,,,,,Block.xlsx,"你已经完成了第一个实验区组

请稍作休息


点击空格键进入下一个区组。",0,50,-1.5,left,RRLRR.png,,,,,0,0,0,0,3,23,95,14,,,,,,,,,,,,,,,,,,,,,,,,,,,,,,,,,,,,,,,,,,,,,,,,,,,,,,,,,,,,,,,,,,,,,,303.9358837999971,304.33699360000173,304.3205753000002,304.42014619999827,304.8220711000031,None,left,1,0.5777852000028361,304.8220711000031,None,304.3205753000002,304.42014619999827,304.42014619999827,None,305.42137029999867,None,,,,,,,11004,001,2023_Dec_29_1353,ANT,2021.2.3,60.20418852642138,
,,,,,,,,,,,Block.xlsx,"你已经完成了第一个实验区组

请稍作休息


点击空格键进入下一个区组。",,,,,,,,,,0,0,0,0,,,,,,,,,,,,,,,,,,,,,,,,,,,,,,,,,,,,,,,,,,,,,,,,,,,,,,,,,,,,,,,,,,,,,,,,,,,,,,,,,,,,,,,,,,,space,4.170146700002078,305.82168880000245,None,305.82168880000245,None,11004,001,2023_Dec_29_1353,ANT,2021.2.3,60.20418852642138,
1,11,center,up,IC,L,,,,,,Block.xlsx,"你已经完成了整个实验（三个区组）。

请报告实验者已完成实验

非常感谢，再见！",0,50,1.5,left,RRLRR.png,,,,,0,1,1,1,0,0,0,10,,,,,,,,,,,,,,,,,,,,,,,,,,,,,,,,,,,,,,,,,,,,,,,,,,,,,,,,,,,,,,,,,,,,,,310.0279557000031,310.43076799999835,310.4128787000009,310.5124166000023,310.9304854000002,None,left,1,0.5339623000036227,310.9304854000002,None,310.4128787000009,310.5124166000023,310.5305434999973,None,311.4802802999984,None,,,,,,,11004,001,2023_Dec_29_1353,ANT,2021.2.3,60.20418852642138,
1,2,no,up,C,R,,,,,,Block.xlsx,"你已经完成了整个实验（三个区组）。

请报告实验者已完成实验

非常感谢，再见！",50,0,1.5,right,RRRRR.png,,,,,0,1,1,1,0,1,1,1,,,,,,,,,,,,,,,,,,,,,,,,,,,,,,,,,,,,,,,,,,,,,,,,,,,,,,,,,,,,,,,,,,,,,,311.8808327000006,312.2820004000023,312.26640829999815,312.36550400000124,312.7658812000009,None,right,1,0.3784531999990577,312.7658812000009,None,312.26640829999815,312.36550400000124,312.36550400000124,None,313.1663100000005,None,,,,,,,11004,001,2023_Dec_29_1353,ANT,2021.2.3,60.20418852642138,
1,16,center,down,IC,R,,,,,,Block.xlsx,"你已经完成了整个实验（三个区组）。

请报告实验者已完成实验

非常感谢，再见！",0,50,-1.5,right,LLRLL.png,,,,,0,1,1,1,0,2,2,15,,,,,,,,,,,,,,,,,,,,,,,,,,,,,,,,,,,,,,,,,,,,,,,,,,,,,,,,,,,,,,,,,,,,,,313.5676065000007,313.9680809999991,313.95063590000063,314.0526641000033,314.45220359999803,None,right,1,0.6126710000025923,314.45220359999803,None,313.95063590000063,314.0526641000033,314.0526641000033,None,315.0855478000012,None,,,,,,,11004,001,2023_Dec_29_1353,ANT,2021.2.3,60.20418852642138,
1,20,spatial,up,IC,R,,,,,,Block.xlsx,"你已经完成了整个实验（三个区组）。

请报告实验者已完成实验

非常感谢，再见！",1.5,0,1.5,right,LLRLL.png,,,,,0,1,1,1,0,3,3,19,,,,,,,,,,,,,,,,,,,,,,,,,,,,,,,,,,,,,,,,,,,,,,,,,,,,,,,,,,,,,,,,,,,,,,315.48621840000123,315.88869259999774,315.8708020999984,315.9711946000025,316.3719598000025,None,right,1,0.443793899998127,316.3719598000025,None,315.8708020999984,315.9711946000025,315.9711946000025,None,316.8382972000036,None,,,,,,,11004,001,2023_Dec_29_1353,ANT,2021.2.3,60.20418852642138,
1,10,center,up,C,R,,,,,,Block.xlsx,"你已经完成了整个实验（三个区组）。

请报告实验者已完成实验

非常感谢，再见！",0,50,1.5,right,RRRRR.png,,,,,0,1,1,1,0,4,4,9,,,,,,,,,,,,,,,,,,,,,,,,,,,,,,,,,,,,,,,,,,,,,,,,,,,,,,,,,,,,,,,,,,,,,,317.2393198999998,317.6398934000026,317.6233954999989,317.7233935999975,318.12365529999806,None,right,1,0.34048149999580346,318.12365529999806,None,317.6233954999989,317.7233935999975,317.7233935999975,None,318.49097739999706,None,,,,,,,11004,001,2023_Dec_29_1353,ANT,2021.2.3,60.20418852642138,
1,4,no,up,IC,R,,,,,,Block.xlsx,"你已经完成了整个实验（三个区组）。

请报告实验者已完成实验

非常感谢，再见！",50,0,1.5,right,LLRLL.png,,,,,0,1,1,1,0,5,5,3,,,,,,,,,,,,,,,,,,,,,,,,,,,,,,,,,,,,,,,,,,,,,,,,,,,,,,,,,,,,,,,,,,,,,,318.8926630999995,319.29282319999766,319.2761556999976,319.37734980000096,319.7765217999986,None,right,1,0.519347800000105,319.7765217999986,None,319.2761556999976,319.37734980000096,319.37734980000096,None,320.32679050000297,None,,,,,,,11004,001,2023_Dec_29_1353,ANT,2021.2.3,60.20418852642138,
1,6,no,down,C,R,,,,,,Block.xlsx,"你已经完成了整个实验（三个区组）。

请报告实验者已完成实验

非常感谢，再见！",50,0,-1.5,right,RRRRR.png,,,,,0,1,1,1,0,6,6,5,,,,,,,,,,,,,,,,,,,,,,,,,,,,,,,,,,,,,,,,,,,,,,,,,,,,,,,,,,,,,,,,,,,,,,320.72729940000136,321.12933899999916,321.1114168999993,321.21188619999884,321.61214420000033,None,right,1,0.6194097999978112,321.61214420000033,None,321.1114168999993,321.21188619999884,321.21188619999884,None,322.2465701999972,None,,,,,,,11004,001,2023_Dec_29_1353,ANT,2021.2.3,60.20418852642138,
1,18,spatial,up,C,R,,,,,,Block.xlsx,"你已经完成了整个实验（三个区组）。

请报告实验者已完成实验

非常感谢，再见！",1.5,0,1.5,right,RRRRR.png,,,,,0,1,1,1,0,7,7,17,,,,,,,,,,,,,,,,,,,,,,,,,,,,,,,,,,,,,,,,,,,,,,,,,,,,,,,,,,,,,,,,,,,,,,322.64757429999736,323.0482241999998,323.0315233000001,323.1315831000029,323.5334107000017,None,right,1,0.3784423000033712,323.5334107000017,None,323.0315233000001,323.1315831000029,323.1315831000029,None,323.93230210000183,None,,,,,,,11004,001,2023_Dec_29_1353,ANT,2021.2.3,60.20418852642138,
1,16,center,down,IC,R,,,,,,Block.xlsx,"你已经完成了整个实验（三个区组）。

请报告实验者已完成实验

非常感谢，再见！",0,50,-1.5,right,LLRLL.png,,,,,0,1,1,1,0,8,8,15,,,,,,,,,,,,,,,,,,,,,,,,,,,,,,,,,,,,,,,,,,,,,,,,,,,,,,,,,,,,,,,,,,,,,,324.33329439999943,324.73408680000284,324.7170308999994,324.81875279999804,325.2197060000035,None,right,1,0.5645704999988084,325.2197060000035,None,324.7170308999994,324.81875279999804,324.81875279999804,None,325.80174629999965,None,,,,,,,11004,001,2023_Dec_29_1353,ANT,2021.2.3,60.20418852642138,
1,8,no,down,IC,R,,,,,,Block.xlsx,"你已经完成了整个实验（三个区组）。

请报告实验者已完成实验

非常感谢，再见！",50,0,-1.5,right,LLRLL.png,,,,,0,1,1,1,0,9,9,7,,,,,,,,,,,,,,,,,,,,,,,,,,,,,,,,,,,,,,,,,,,,,,,,,,,,,,,,,,,,,,,,,,,,,,326.2027889000019,326.60367779999797,326.5869817999992,326.6876740000007,327.0881995000018,None,right,1,0.448359400004847,327.0881995000018,None,326.5869817999992,326.6876740000007,326.6876740000007,None,327.5540906000024,None,,,,,,,11004,001,2023_Dec_29_1353,ANT,2021.2.3,60.20418852642138,
1,23,spatial,down,IC,L,,,,,,Block.xlsx,"你已经完成了整个实验（三个区组）。

请报告实验者已完成实验

非常感谢，再见！",-1.5,0,-1.5,left,RRLRR.png,,,,,0,1,1,1,0,10,10,22,,,,,,,,,,,,,,,,,,,,,,,,,,,,,,,,,,,,,,,,,,,,,,,,,,,,,,,,,,,,,,,,,,,,,,327.95472670000163,328.356689799999,328.33913590000157,328.44078029999946,328.8415029000025,None,left,1,0.5181741999986116,328.8415029000025,None,328.33913590000157,328.44078029999946,328.44078029999946,None,329.39006260000315,None,,,,,,,11004,001,2023_Dec_29_1353,ANT,2021.2.3,60.20418852642138,
1,6,no,down,C,R,,,,,,Block.xlsx,"你已经完成了整个实验（三个区组）。

请报告实验者已完成实验

非常感谢，再见！",50,0,-1.5,right,RRRRR.png,,,,,0,1,1,1,0,11,11,5,,,,,,,,,,,,,,,,,,,,,,,,,,,,,,,,,,,,,,,,,,,,,,,,,,,,,,,,,,,,,,,,,,,,,,329.79089289999683,330.19337149999774,330.17536120000295,330.2756109000038,330.67649679999886,None,right,1,0.35526150000077905,330.67649679999886,None,330.17536120000295,330.2756109000038,330.2756109000038,None,331.05938980000064,None,,,,,,,11004,001,2023_Dec_29_1353,ANT,2021.2.3,60.20418852642138,
1,4,no,up,IC,R,,,,,,Block.xlsx,"你已经完成了整个实验（三个区组）。

请报告实验者已完成实验

非常感谢，再见！",50,0,1.5,right,LLRLL.png,,,,,0,1,1,1,0,12,12,3,,,,,,,,,,,,,,,,,,,,,,,,,,,,,,,,,,,,,,,,,,,,,,,,,,,,,,,,,,,,,,,,,,,,,,331.46052020000207,331.8612376000019,331.84451640000043,331.94495180000376,332.3465597000031,None,right,1,0.5330125999971642,332.3465597000031,None,331.84451640000043,331.94495180000376,331.94495180000376,None,332.8954548999973,None,,,,,,,11004,001,2023_Dec_29_1353,ANT,2021.2.3,60.20418852642138,
1,14,center,down,C,R,,,,,,Block.xlsx,"你已经完成了整个实验（三个区组）。

请报告实验者已完成实验

非常感谢，再见！",0,50,-1.5,right,RRRRR.png,,,,,0,1,1,1,0,13,13,13,,,,,,,,,,,,,,,,,,,,,,,,,,,,,,,,,,,,,,,,,,,,,,,,,,,,,,,,,,,,,,,,,,,,,,333.29642030000105,333.6976222000012,333.6802633999978,333.7817037999994,334.1812713000036,None,right,1,0.586358200001996,334.1812713000036,None,333.6802633999978,333.7817037999994,333.7817037999994,None,334.781608199999,None,,,,,,,11004,001,2023_Dec_29_1353,ANT,2021.2.3,60.20418852642138,
1,18,spatial,up,C,R,,,,,,Block.xlsx,"你已经完成了整个实验（三个区组）。

请报告实验者已完成实验

非常感谢，再见！",1.5,0,1.5,right,RRRRR.png,,,,,0,1,1,1,0,14,14,17,,,,,,,,,,,,,,,,,,,,,,,,,,,,,,,,,,,,,,,,,,,,,,,,,,,,,,,,,,,,,,,,,,,,,,335.18262400000094,335.5847152999995,335.56681599999865,335.66698339999857,336.06737799999974,None,right,1,0.3486782999971183,336.06737799999974,None,335.56681599999865,335.66698339999857,335.66698339999857,None,336.43401930000255,None,,,,,,,11004,001,2023_Dec_29_1353,ANT,2021.2.3,60.20418852642138,
1,5,no,down,C,L,,,,,,Block.xlsx,"你已经完成了整个实验（三个区组）。

请报告实验者已完成实验

非常感谢，再见！",50,0,-1.5,left,LLLLL.png,,,,,0,1,1,1,0,15,15,4,,,,,,,,,,,,,,,,,,,,,,,,,,,,,,,,,,,,,,,,,,,,,,,,,,,,,,,,,,,,,,,,,,,,,,336.8351997999998,337.2351864000011,337.2188920999979,337.31905109999934,337.7199580000015,None,left,1,0.6161207999975886,337.7199580000015,None,337.2188920999979,337.31905109999934,337.31905109999934,None,338.3535312000022,None,,,,,,,11004,001,2023_Dec_29_1353,ANT,2021.2.3,60.20418852642138,
1,1,no,up,C,L,,,,,,Block.xlsx,"你已经完成了整个实验（三个区组）。

请报告实验者已完成实验

非常感谢，再见！",50,0,1.5,left,LLLLL.png,,,,,0,1,1,1,0,16,16,0,,,,,,,,,,,,,,,,,,,,,,,,,,,,,,,,,,,,,,,,,,,,,,,,,,,,,,,,,,,,,,,,,,,,,,338.75405019999744,339.15638410000247,339.13875360000384,339.238053699999,339.6397494999983,None,left,1,0.4241357999999309,339.6397494999983,None,339.13875360000384,339.238053699999,339.238053699999,None,340.0898535000015,None,,,,,,,11004,001,2023_Dec_29_1353,ANT,2021.2.3,60.20418852642138,
1,9,center,up,C,L,,,,,,Block.xlsx,"你已经完成了整个实验（三个区组）。

请报告实验者已完成实验

非常感谢，再见！",0,50,1.5,left,LLLLL.png,,,,,0,1,1,1,0,17,17,8,,,,,,,,,,,,,,,,,,,,,,,,,,,,,,,,,,,,,,,,,,,,,,,,,,,,,,,,,,,,,,,,,,,,,,340.49045710000064,340.89057760000287,340.87429449999763,340.97479819999717,341.3747277000002,None,left,1,0.41728790000342997,341.3747277000002,None,340.87429449999763,340.97479819999717,340.97479819999717,None,341.80874120000226,None,,,,,,,11004,001,2023_Dec_29_1353,ANT,2021.2.3,60.20418852642138,
1,8,no,down,IC,R,,,,,,Block.xlsx,"你已经完成了整个实验（三个区组）。

请报告实验者已完成实验

非常感谢，再见！",50,0,-1.5,right,LLRLL.png,,,,,0,1,1,1,0,18,18,7,,,,,,,,,,,,,,,,,,,,,,,,,,,,,,,,,,,,,,,,,,,,,,,,,,,,,,,,,,,,,,,,,,,,,,342.20898170000146,342.61083820000204,342.5930989999979,342.69354960000055,343.0957794999995,None,left,0,0.4559173000016017,343.0957794999995,None,342.5930989999979,342.69354960000055,342.69354960000055,None,343.57790060000116,None,,,,,,,11004,001,2023_Dec_29_1353,ANT,2021.2.3,60.20418852642138,
1,11,center,up,IC,L,,,,,,Block.xlsx,"你已经完成了整个实验（三个区组）。

请报告实验者已完成实验

非常感谢，再见！",0,50,1.5,left,RRLRR.png,,,,,0,1,1,1,0,19,19,10,,,,,,,,,,,,,,,,,,,,,,,,,,,,,,,,,,,,,,,,,,,,,,,,,,,,,,,,,,,,,,,,,,,,,,343.97964109999884,344.3812687000027,344.3627431999994,344.4629236999972,344.8642480999988,None,left,1,0.623550600001181,344.8642480999988,None,344.3627431999994,344.4629236999972,344.4629236999972,None,345.51398889999837,None,,,,,,,11004,001,2023_Dec_29_1353,ANT,2021.2.3,60.20418852642138,
1,23,spatial,down,IC,L,,,,,,Block.xlsx,"你已经完成了整个实验（三个区组）。

请报告实验者已完成实验

非常感谢，再见！",-1.5,0,-1.5,left,RRLRR.png,,,,,0,1,1,1,0,20,20,22,,,,,,,,,,,,,,,,,,,,,,,,,,,,,,,,,,,,,,,,,,,,,,,,,,,,,,,,,,,,,,,,,,,,,,345.91459410000243,346.31533650000347,346.299305499997,346.3993335999985,346.7992604000028,None,left,1,0.4972550000020419,346.7992604000028,None,346.299305499997,346.3993335999985,346.3993335999985,None,347.31714179999835,None,,,,,,,11004,001,2023_Dec_29_1353,ANT,2021.2.3,60.20418852642138,
1,21,spatial,down,C,L,,,,,,Block.xlsx,"你已经完成了整个实验（三个区组）。

请报告实验者已完成实验

非常感谢，再见！",-1.5,0,-1.5,left,LLLLL.png,,,,,0,1,1,1,0,21,21,20,,,,,,,,,,,,,,,,,,,,,,,,,,,,,,,,,,,,,,,,,,,,,,,,,,,,,,,,,,,,,,,,,,,,,,347.7172228999989,348.11994479999703,348.10158319999755,348.202729800003,348.60294859999703,None,left,1,0.5330608000003849,348.60294859999703,None,348.10158319999755,348.202729800003,348.202729800003,None,349.1528965999969,None,,,,,,,11004,001,2023_Dec_29_1353,ANT,2021.2.3,60.20418852642138,
1,22,spatial,down,C,R,,,,,,Block.xlsx,"你已经完成了整个实验（三个区组）。

请报告实验者已完成实验

非常感谢，再见！",-1.5,0,-1.5,right,RRRRR.png,,,,,0,1,1,1,0,22,22,21,,,,,,,,,,,,,,,,,,,,,,,,,,,,,,,,,,,,,,,,,,,,,,,,,,,,,,,,,,,,,,,,,,,,,,349.553364899999,349.9556001000019,349.9374217000004,350.0400066000002,350.4389943999995,None,right,1,0.40177050000056624,350.4389943999995,None,349.9374217000004,350.0400066000002,350.0400066000002,None,350.85556489999726,None,,,,,,,11004,001,2023_Dec_29_1353,ANT,2021.2.3,60.20418852642138,
1,14,center,down,C,R,,,,,,Block.xlsx,"你已经完成了整个实验（三个区组）。

请报告实验者已完成实验

非常感谢，再见！",0,50,-1.5,right,RRRRR.png,,,,,0,1,1,1,0,23,23,13,,,,,,,,,,,,,,,,,,,,,,,,,,,,,,,,,,,,,,,,,,,,,,,,,,,,,,,,,,,,,,,,,,,,,,351.25595939999766,351.6586135000034,351.64056050000363,351.7412809000016,352.14050919999863,None,right,1,0.42724599999928614,352.14050919999863,None,351.64056050000363,351.7412809000016,351.7412809000016,None,352.5917915000027,None,,,,,,,11004,001,2023_Dec_29_1353,ANT,2021.2.3,60.20418852642138,
1,12,center,up,IC,R,,,,,,Block.xlsx,"你已经完成了整个实验（三个区组）。

请报告实验者已完成实验

非常感谢，再见！",0,50,1.5,right,LLRLL.png,,,,,0,1,1,1,1,0,24,11,,,,,,,,,,,,,,,,,,,,,,,,,,,,,,,,,,,,,,,,,,,,,,,,,,,,,,,,,,,,,,,,,,,,,,352.99190980000276,353.3929601999989,353.37689130000217,353.47616720000224,353.87827670000115,None,right,1,0.5702401000016835,353.87827670000115,None,353.37689130000217,353.47616720000224,353.47616720000224,None,354.4772507000016,None,,,,,,,11004,001,2023_Dec_29_1353,ANT,2021.2.3,60.20418852642138,
1,9,center,up,C,L,,,,,,Block.xlsx,"你已经完成了整个实验（三个区组）。

请报告实验者已完成实验

非常感谢，再见！",0,50,1.5,left,LLLLL.png,,,,,0,1,1,1,1,1,25,8,,,,,,,,,,,,,,,,,,,,,,,,,,,,,,,,,,,,,,,,,,,,,,,,,,,,,,,,,,,,,,,,,,,,,,354.8785914999971,355.27913139999873,355.2638941999976,355.38121200000023,355.763535099999,None,left,1,0.5402718999976059,355.763535099999,None,355.2638941999976,355.38121200000023,355.36273860000074,None,356.3299124999976,None,,,,,,,11004,001,2023_Dec_29_1353,ANT,2021.2.3,60.20418852642138,
1,11,center,up,IC,L,,,,,,Block.xlsx,"你已经完成了整个实验（三个区组）。

请报告实验者已完成实验

非常感谢，再见！",0,50,1.5,left,RRLRR.png,,,,,0,1,1,1,1,2,26,10,,,,,,,,,,,,,,,,,,,,,,,,,,,,,,,,,,,,,,,,,,,,,,,,,,,,,,,,,,,,,,,,,,,,,,356.7307007999989,357.1321528999979,357.1145770000003,357.2146875000035,357.61624989999837,None,left,1,0.7996735000051558,357.61624989999837,None,357.1145770000003,357.2146875000035,357.2146875000035,None,358.43324730000313,None,,,,,,,11004,001,2023_Dec_29_1353,ANT,2021.2.3,60.20418852642138,
1,17,spatial,up,C,L,,,,,,Block.xlsx,"你已经完成了整个实验（三个区组）。

请报告实验者已完成实验

非常感谢，再见！",1.5,0,1.5,left,LLLLL.png,,,,,0,1,1,1,1,3,27,16,,,,,,,,,,,,,,,,,,,,,,,,,,,,,,,,,,,,,,,,,,,,,,,,,,,,,,,,,,,,,,,,,,,,,,358.8340609000006,359.2357306999984,359.2183337000024,359.31831930000044,359.71987519999675,None,left,1,0.40788079999765614,359.71987519999675,None,359.2183337000024,359.31831930000044,359.31831930000044,None,360.1525363000037,None,,,,,,,11004,001,2023_Dec_29_1353,ANT,2021.2.3,60.20418852642138,
1,20,spatial,up,IC,R,,,,,,Block.xlsx,"你已经完成了整个实验（三个区组）。

请报告实验者已完成实验

非常感谢，再见！",1.5,0,1.5,right,LLRLL.png,,,,,0,1,1,1,1,4,28,19,,,,,,,,,,,,,,,,,,,,,,,,,,,,,,,,,,,,,,,,,,,,,,,,,,,,,,,,,,,,,,,,,,,,,,360.55292680000275,360.9545989000035,360.93808480000007,361.0379271999991,361.4377031999975,None,right,1,0.4831687999976566,361.4377031999975,None,360.93808480000007,361.0379271999991,361.0379271999991,None,361.93917440000223,None,,,,,,,11004,001,2023_Dec_29_1353,ANT,2021.2.3,60.20418852642138,
1,16,center,down,IC,R,,,,,,Block.xlsx,"你已经完成了整个实验（三个区组）。

请报告实验者已完成实验

非常感谢，再见！",0,50,-1.5,right,LLRLL.png,,,,,0,1,1,1,1,5,29,15,,,,,,,,,,,,,,,,,,,,,,,,,,,,,,,,,,,,,,,,,,,,,,,,,,,,,,,,,,,,,,,,,,,,,,362.33911259999877,362.73944889999984,362.7240585999971,362.82405899999867,363.22431569999753,None,right,1,0.5596652999956859,363.22431569999753,None,362.7240585999971,362.82405899999867,362.82405899999867,None,363.8088934999978,None,,,,,,,11004,001,2023_Dec_29_1353,ANT,2021.2.3,60.20418852642138,
1,19,spatial,up,IC,L,,,,,,Block.xlsx,"你已经完成了整个实验（三个区组）。

请报告实验者已完成实验

非常感谢，再见！",1.5,0,1.5,left,RRLRR.png,,,,,0,1,1,1,1,6,30,18,,,,,,,,,,,,,,,,,,,,,,,,,,,,,,,,,,,,,,,,,,,,,,,,,,,,,,,,,,,,,,,,,,,,,,364.2083172999992,364.6101179000034,364.5922200999994,364.693154200002,365.09384950000094,None,left,1,0.4990618999945582,365.09384950000094,None,364.5922200999994,364.693154200002,364.693154200002,None,365.61083759999747,None,,,,,,,11004,001,2023_Dec_29_1353,ANT,2021.2.3,60.20418852642138,
1,17,spatial,up,C,L,,,,,,Block.xlsx,"你已经完成了整个实验（三个区组）。

请报告实验者已完成实验

非常感谢，再见！",1.5,0,1.5,left,LLLLL.png,,,,,0,1,1,1,1,7,31,16,,,,,,,,,,,,,,,,,,,,,,,,,,,,,,,,,,,,,,,,,,,,,,,,,,,,,,,,,,,,,,,,,,,,,,366.01109310000174,366.41253880000295,366.3958539000014,366.49594259999867,366.8964485999968,None,left,1,0.4559399000063422,366.8964485999968,None,366.3958539000014,366.49594259999867,366.49594259999867,None,367.38074520000373,None,,,,,,,11004,001,2023_Dec_29_1353,ANT,2021.2.3,60.20418852642138,
1,18,spatial,up,C,R,,,,,,Block.xlsx,"你已经完成了整个实验（三个区组）。

请报告实验者已完成实验

非常感谢，再见！",1.5,0,1.5,right,RRRRR.png,,,,,0,1,1,1,1,8,32,17,,,,,,,,,,,,,,,,,,,,,,,,,,,,,,,,,,,,,,,,,,,,,,,,,,,,,,,,,,,,,,,,,,,,,,367.7810338999989,368.1826602000001,368.1643089999998,368.2653894999967,368.6675901999988,None,right,1,0.3645546000043396,368.6675901999988,None,368.1643089999998,368.2653894999967,368.2653894999967,None,369.0489548999976,None,,,,,,,11004,001,2023_Dec_29_1353,ANT,2021.2.3,60.20418852642138,
1,15,center,down,IC,L,,,,,,Block.xlsx,"你已经完成了整个实验（三个区组）。

请报告实验者已完成实验

非常感谢，再见！",0,50,-1.5,left,RRLRR.png,,,,,0,1,1,1,1,9,33,14,,,,,,,,,,,,,,,,,,,,,,,,,,,,,,,,,,,,,,,,,,,,,,,,,,,,,,,,,,,,,,,,,,,,,,369.4505078000002,369.8509666000027,369.8344861000005,369.9358432000008,370.3345040999993,None,left,1,0.5693686999948113,370.3345040999993,None,369.8344861000005,369.9358432000008,369.9358432000008,None,370.93519289999676,None,,,,,,,11004,001,2023_Dec_29_1353,ANT,2021.2.3,60.20418852642138,
1,15,center,down,IC,L,,,,,,Block.xlsx,"你已经完成了整个实验（三个区组）。

请报告实验者已完成实验

非常感谢，再见！",0,50,-1.5,left,RRLRR.png,,,,,0,1,1,1,1,10,34,14,,,,,,,,,,,,,,,,,,,,,,,,,,,,,,,,,,,,,,,,,,,,,,,,,,,,,,,,,,,,,,,,,,,,,,371.33589550000033,371.73721300000034,371.7196210999973,371.8212652000002,372.2204226000031,None,left,1,0.6275803000025917,372.2204226000031,None,371.7196210999973,371.8212652000002,371.8212652000002,None,372.87211730000126,None,,,,,,,11004,001,2023_Dec_29_1353,ANT,2021.2.3,60.20418852642138,
1,7,no,down,IC,L,,,,,,Block.xlsx,"你已经完成了整个实验（三个区组）。

请报告实验者已完成实验

非常感谢，再见！",50,0,-1.5,left,RRLRR.png,,,,,0,1,1,1,1,11,35,6,,,,,,,,,,,,,,,,,,,,,,,,,,,,,,,,,,,,,,,,,,,,,,,,,,,,,,,,,,,,,,,,,,,,,,373.2727576000034,373.6729364999992,373.656158400001,373.7567449999988,374.1576548000012,None,left,1,0.5468537000051583,374.1576548000012,None,373.656158400001,373.7567449999988,373.7567449999988,None,374.72428129999753,None,,,,,,,11004,001,2023_Dec_29_1353,ANT,2021.2.3,60.20418852642138,
1,13,center,down,C,L,,,,,,Block.xlsx,"你已经完成了整个实验（三个区组）。

请报告实验者已完成实验

非常感谢，再见！",0,50,-1.5,left,LLLLL.png,,,,,0,1,1,1,1,12,36,12,,,,,,,,,,,,,,,,,,,,,,,,,,,,,,,,,,,,,,,,,,,,,,,,,,,,,,,,,,,,,,,,,,,,,,375.1247571999993,375.52546509999956,375.5091575999977,375.6093047000031,376.00964470000326,None,left,1,0.31854220000241185,376.00964470000326,None,375.5091575999977,375.6093047000031,375.6093047000031,None,376.34305080000195,None,,,,,,,11004,001,2023_Dec_29_1353,ANT,2021.2.3,60.20418852642138,
1,14,center,down,C,R,,,,,,Block.xlsx,"你已经完成了整个实验（三个区组）。

请报告实验者已完成实验

非常感谢，再见！",0,50,-1.5,right,RRRRR.png,,,,,0,1,1,1,1,13,37,13,,,,,,,,,,,,,,,,,,,,,,,,,,,,,,,,,,,,,,,,,,,,,,,,,,,,,,,,,,,,,,,,,,,,,,376.74359790000017,377.1446777000019,377.1282876999976,377.2280316000033,377.6307945000008,None,right,1,0.38495220000186237,377.6307945000008,None,377.1282876999976,377.2280316000033,377.2280316000033,None,378.0456008999972,None,,,,,,,11004,001,2023_Dec_29_1353,ANT,2021.2.3,60.20418852642138,
1,8,no,down,IC,R,,,,,,Block.xlsx,"你已经完成了整个实验（三个区组）。

请报告实验者已完成实验

非常感谢，再见！",50,0,-1.5,right,LLRLL.png,,,,,0,1,1,1,1,14,38,7,,,,,,,,,,,,,,,,,,,,,,,,,,,,,,,,,,,,,,,,,,,,,,,,,,,,,,,,,,,,,,,,,,,,,,378.4469589,378.8476157999976,378.8310205000016,378.9309474999973,379.33251590000145,None,right,1,0.4595158000010997,379.33251590000145,None,378.8310205000016,378.9309474999973,378.9309474999973,None,379.81483480000315,None,,,,,,,11004,001,2023_Dec_29_1353,ANT,2021.2.3,60.20418852642138,
1,24,spatial,down,IC,R,,,,,,Block.xlsx,"你已经完成了整个实验（三个区组）。

请报告实验者已完成实验

非常感谢，再见！",-1.5,0,-1.5,right,LLRLL.png,,,,,0,1,1,1,1,15,39,23,,,,,,,,,,,,,,,,,,,,,,,,,,,,,,,,,,,,,,,,,,,,,,,,,,,,,,,,,,,,,,,,,,,,,,380.2155139000024,380.6174333000017,380.59941830000025,380.70045850000315,381.1011256999991,None,right,1,0.4186464000013075,381.1011256999991,None,380.59941830000025,380.70045850000315,380.70045850000315,None,381.53424780000205,None,,,,,,,11004,001,2023_Dec_29_1353,ANT,2021.2.3,60.20418852642138,
1,13,center,down,C,L,,,,,,Block.xlsx,"你已经完成了整个实验（三个区组）。

请报告实验者已完成实验

非常感谢，再见！",0,50,-1.5,left,LLLLL.png,,,,,0,1,1,1,1,16,40,12,,,,,,,,,,,,,,,,,,,,,,,,,,,,,,,,,,,,,,,,,,,,,,,,,,,,,,,,,,,,,,,,,,,,,,381.93554700000095,382.3360939999984,382.3194074999992,382.41907340000034,382.8214558999971,None,left,1,0.37055420000251615,382.8214558999971,None,382.3194074999992,382.41907340000034,382.41907340000034,None,383.22003250000125,None,,,,,,,11004,001,2023_Dec_29_1353,ANT,2021.2.3,60.20418852642138,
1,14,center,down,C,R,,,,,,Block.xlsx,"你已经完成了整个实验（三个区组）。

请报告实验者已完成实验

非常感谢，再见！",0,50,-1.5,right,RRRRR.png,,,,,0,1,1,1,1,17,41,13,,,,,,,,,,,,,,,,,,,,,,,,,,,,,,,,,,,,,,,,,,,,,,,,,,,,,,,,,,,,,,,,,,,,,,383.6219807000016,384.02208529999916,384.0050101000015,384.1063556000008,384.50527870000224,None,right,1,0.3670505999980378,384.50527870000224,None,384.0050101000015,384.1063556000008,384.1063556000008,None,384.8891771999988,None,,,,,,,11004,001,2023_Dec_29_1353,ANT,2021.2.3,60.20418852642138,
1,15,center,down,IC,L,,,,,,Block.xlsx,"你已经完成了整个实验（三个区组）。

请报告实验者已完成实验

非常感谢，再见！",0,50,-1.5,left,RRLRR.png,,,,,0,1,1,1,1,18,42,14,,,,,,,,,,,,,,,,,,,,,,,,,,,,,,,,,,,,,,,,,,,,,,,,,,,,,,,,,,,,,,,,,,,,,,385.2905694000001,385.69042310000077,385.6736161000008,385.7746052000002,386.17592790000344,None,left,1,0.504150100001425,386.17592790000344,None,385.6736161000008,385.7746052000002,385.7746052000002,None,386.70913109999674,None,,,,,,,11004,001,2023_Dec_29_1353,ANT,2021.2.3,60.20418852642138,
1,19,spatial,up,IC,L,,,,,,Block.xlsx,"你已经完成了整个实验（三个区组）。

请报告实验者已完成实验

非常感谢，再见！",1.5,0,1.5,left,RRLRR.png,,,,,0,1,1,1,1,19,43,18,,,,,,,,,,,,,,,,,,,,,,,,,,,,,,,,,,,,,,,,,,,,,,,,,,,,,,,,,,,,,,,,,,,,,,387.109057499998,387.510904499999,387.4951091999974,387.6109159999978,387.9946562999976,None,right,0,0.49369540000043344,387.9946562999976,None,387.4951091999974,387.6109159999978,387.59314820000145,None,388.51185209999676,None,,,,,,,11004,001,2023_Dec_29_1353,ANT,2021.2.3,60.20418852642138,
1,6,no,down,C,R,,,,,,Block.xlsx,"你已经完成了整个实验（三个区组）。

请报告实验者已完成实验

非常感谢，再见！",50,0,-1.5,right,RRRRR.png,,,,,0,1,1,1,1,20,44,5,,,,,,,,,,,,,,,,,,,,,,,,,,,,,,,,,,,,,,,,,,,,,,,,,,,,,,,,,,,,,,,,,,,,,,388.9119225999966,389.31239300000016,389.2959830999971,389.39662269999826,389.79637789999833,None,right,1,0.47536180000315653,389.79637789999833,None,389.2959830999971,389.39662269999826,389.39662269999826,None,390.2971602999969,None,,,,,,,11004,001,2023_Dec_29_1353,ANT,2021.2.3,60.20418852642138,
1,16,center,down,IC,R,,,,,,Block.xlsx,"你已经完成了整个实验（三个区组）。

请报告实验者已完成实验

非常感谢，再见！",0,50,-1.5,right,LLRLL.png,,,,,0,1,1,1,1,21,45,15,,,,,,,,,,,,,,,,,,,,,,,,,,,,,,,,,,,,,,,,,,,,,,,,,,,,,,,,,,,,,,,,,,,,,,390.6983126999985,391.0988722999973,391.08240099999966,391.1832884999967,391.5825227000023,None,right,1,0.5612473000001046,391.5825227000023,None,391.08240099999966,391.1832884999967,391.1832884999967,None,392.166845300002,None,,,,,,,11004,001,2023_Dec_29_1353,ANT,2021.2.3,60.20418852642138,
1,18,spatial,up,C,R,,,,,,Block.xlsx,"你已经完成了整个实验（三个区组）。

请报告实验者已完成实验

非常感谢，再见！",1.5,0,1.5,right,RRRRR.png,,,,,0,1,1,1,1,22,46,17,,,,,,,,,,,,,,,,,,,,,,,,,,,,,,,,,,,,,,,,,,,,,,,,,,,,,,,,,,,,,,,,,,,,,,392.5672240999993,392.9685591000016,392.9518687000018,393.052176600002,393.45180670000263,None,right,1,0.45994680000148946,393.45180670000263,None,392.9518687000018,393.052176600002,393.052176600002,None,393.9359009000036,None,,,,,,,11004,001,2023_Dec_29_1353,ANT,2021.2.3,60.20418852642138,
1,20,spatial,up,IC,R,,,,,,Block.xlsx,"你已经完成了整个实验（三个区组）。

请报告实验者已完成实验

非常感谢，再见！",1.5,0,1.5,right,LLRLL.png,,,,,0,1,1,1,1,23,47,19,,,,,,,,,,,,,,,,,,,,,,,,,,,,,,,,,,,,,,,,,,,,,,,,,,,,,,,,,,,,,,,,,,,,,,394.33665420000034,394.73721790000127,394.72179360000155,394.82269870000164,395.2209883000032,None,right,1,0.5232179000013275,395.2209883000032,None,394.72179360000155,394.82269870000164,394.82269870000164,None,395.77171760000056,None,,,,,,,11004,001,2023_Dec_29_1353,ANT,2021.2.3,60.20418852642138,
1,5,no,down,C,L,,,,,,Block.xlsx,"你已经完成了整个实验（三个区组）。

请报告实验者已完成实验

非常感谢，再见！",50,0,-1.5,left,LLLLL.png,,,,,0,1,1,1,2,0,48,4,,,,,,,,,,,,,,,,,,,,,,,,,,,,,,,,,,,,,,,,,,,,,,,,,,,,,,,,,,,,,,,,,,,,,,396.17248570000083,396.5746367000029,396.55702929999825,396.65844669999933,397.0592774999968,None,left,1,0.5406901999958791,397.0592774999968,None,396.55702929999825,396.65844669999933,396.65844669999933,None,397.62467240000115,None,,,,,,,11004,001,2023_Dec_29_1353,ANT,2021.2.3,60.20418852642138,
1,10,center,up,C,R,,,,,,Block.xlsx,"你已经完成了整个实验（三个区组）。

请报告实验者已完成实验

非常感谢，再见！",0,50,1.5,right,RRRRR.png,,,,,0,1,1,1,2,1,49,9,,,,,,,,,,,,,,,,,,,,,,,,,,,,,,,,,,,,,,,,,,,,,,,,,,,,,,,,,,,,,,,,,,,,,,398.025189400003,398.42662610000116,398.4091929999995,398.5100304000007,398.91126259999874,None,right,1,0.4729541999986395,398.91126259999874,None,398.4091929999995,398.5100304000007,398.5100304000007,None,399.41063099999883,None,,,,,,,11004,001,2023_Dec_29_1353,ANT,2021.2.3,60.20418852642138,
1,4,no,up,IC,R,,,,,,Block.xlsx,"你已经完成了整个实验（三个区组）。

请报告实验者已完成实验

非常感谢，再见！",50,0,1.5,right,LLRLL.png,,,,,0,1,1,1,2,2,50,3,,,,,,,,,,,,,,,,,,,,,,,,,,,,,,,,,,,,,,,,,,,,,,,,,,,,,,,,,,,,,,,,,,,,,,399.8116059000022,400.2126827000029,400.1960751000006,400.2979692000008,400.69663410000067,None,right,1,0.5110488000063924,400.69663410000067,None,400.1960751000006,400.2979692000008,400.2979692000008,None,401.2300591000021,None,,,,,,,11004,001,2023_Dec_29_1353,ANT,2021.2.3,60.20418852642138,
1,2,no,up,C,R,,,,,,Block.xlsx,"你已经完成了整个实验（三个区组）。

请报告实验者已完成实验

非常感谢，再见！",50,0,1.5,right,RRRRR.png,,,,,0,1,1,1,2,3,51,1,,,,,,,,,,,,,,,,,,,,,,,,,,,,,,,,,,,,,,,,,,,,,,,,,,,,,,,,,,,,,,,,,,,,,,401.6305044999972,402.03236820000166,402.01553740000236,402.11538460000156,402.51557429999957,None,right,1,0.3647125999996206,402.51557429999957,None,402.01553740000236,402.11538460000156,402.11538460000156,None,402.8989861000009,None,,,,,,,11004,001,2023_Dec_29_1353,ANT,2021.2.3,60.20418852642138,
1,22,spatial,down,C,R,,,,,,Block.xlsx,"你已经完成了整个实验（三个区组）。

请报告实验者已完成实验

非常感谢，再见！",-1.5,0,-1.5,right,RRRRR.png,,,,,0,1,1,1,2,4,52,21,,,,,,,,,,,,,,,,,,,,,,,,,,,,,,,,,,,,,,,,,,,,,,,,,,,,,,,,,,,,,,,,,,,,,,403.2997749999995,403.70017650000227,403.68574290000106,403.8013673000023,404.1842980000001,None,right,1,0.3754633999997168,404.1842980000001,None,403.68574290000106,403.8013673000023,403.78603799999837,None,404.58505650000006,None,,,,,,,11004,001,2023_Dec_29_1353,ANT,2021.2.3,60.20418852642138,
1,22,spatial,down,C,R,,,,,,Block.xlsx,"你已经完成了整个实验（三个区组）。

请报告实验者已完成实验

非常感谢，再见！",-1.5,0,-1.5,right,RRRRR.png,,,,,0,1,1,1,2,5,53,21,,,,,,,,,,,,,,,,,,,,,,,,,,,,,,,,,,,,,,,,,,,,,,,,,,,,,,,,,,,,,,,,,,,,,,404.98613589999877,405.3878889999978,405.3701461000019,405.47122720000334,405.8711521000005,None,right,1,0.345595200000389,405.8711521000005,None,405.3701461000019,405.47122720000334,405.47122720000334,None,406.2374484000029,None,,,,,,,11004,001,2023_Dec_29_1353,ANT,2021.2.3,60.20418852642138,
1,6,no,down,C,R,,,,,,Block.xlsx,"你已经完成了整个实验（三个区组）。

请报告实验者已完成实验

非常感谢，再见！",50,0,-1.5,right,RRRRR.png,,,,,0,1,1,1,2,6,54,5,,,,,,,,,,,,,,,,,,,,,,,,,,,,,,,,,,,,,,,,,,,,,,,,,,,,,,,,,,,,,,,,,,,,,,406.6382462000038,407.0391812000016,407.0225371999986,407.1219168000025,407.52352699999756,None,right,1,0.29245280000031926,407.52352699999756,None,407.0225371999986,407.1219168000025,407.1219168000025,None,407.84111180000036,None,,,,,,,11004,001,2023_Dec_29_1353,ANT,2021.2.3,60.20418852642138,
1,10,center,up,C,R,,,,,,Block.xlsx,"你已经完成了整个实验（三个区组）。

请报告实验者已完成实验

非常感谢，再见！",0,50,1.5,right,RRRRR.png,,,,,0,1,1,1,2,7,55,9,,,,,,,,,,,,,,,,,,,,,,,,,,,,,,,,,,,,,,,,,,,,,,,,,,,,,,,,,,,,,,,,,,,,,,408.24030170000333,408.64230569999927,408.62507529999857,408.7254874999999,409.1266428000017,None,right,1,0.3851028999997652,409.1266428000017,None,408.62507529999857,408.7254874999999,408.7254874999999,None,409.52554780000355,None,,,,,,,11004,001,2023_Dec_29_1353,ANT,2021.2.3,60.20418852642138,
1,19,spatial,up,IC,L,,,,,,Block.xlsx,"你已经完成了整个实验（三个区组）。

请报告实验者已完成实验

非常感谢，再见！",1.5,0,1.5,left,RRLRR.png,,,,,0,1,1,1,2,8,56,18,,,,,,,,,,,,,,,,,,,,,,,,,,,,,,,,,,,,,,,,,,,,,,,,,,,,,,,,,,,,,,,,,,,,,,409.92624570000044,410.32688710000366,410.31087670000124,410.4115535000019,410.81165570000303,None,right,0,0.30078259999572765,410.81165570000303,None,410.31087670000124,410.4115535000019,410.4115535000019,None,411.12836860000243,None,,,,,,,11004,001,2023_Dec_29_1353,ANT,2021.2.3,60.20418852642138,
1,11,center,up,IC,L,,,,,,Block.xlsx,"你已经完成了整个实验（三个区组）。

请报告实验者已完成实验

非常感谢，再见！",0,50,1.5,left,RRLRR.png,,,,,0,1,1,1,2,9,57,10,,,,,,,,,,,,,,,,,,,,,,,,,,,,,,,,,,,,,,,,,,,,,,,,,,,,,,,,,,,,,,,,,,,,,,411.52849810000043,411.9294735000003,411.91333920000034,412.013048599998,412.414377699999,None,left,1,0.6898987000022316,412.414377699999,None,411.91333920000034,412.013048599998,412.013048599998,None,413.1318326000037,None,,,,,,,11004,001,2023_Dec_29_1353,ANT,2021.2.3,60.20418852642138,
1,5,no,down,C,L,,,,,,Block.xlsx,"你已经完成了整个实验（三个区组）。

请报告实验者已完成实验

非常感谢，再见！",50,0,-1.5,left,LLLLL.png,,,,,0,1,1,1,2,10,58,4,,,,,,,,,,,,,,,,,,,,,,,,,,,,,,,,,,,,,,,,,,,,,,,,,,,,,,,,,,,,,,,,,,,,,,413.53135830000247,413.9337203000032,413.9155073000002,414.01689449999685,414.41701230000035,None,left,1,0.4710759000008693,414.41701230000035,None,413.9155073000002,414.01689449999685,414.01689449999685,None,414.91740749999735,None,,,,,,,11004,001,2023_Dec_29_1353,ANT,2021.2.3,60.20418852642138,
1,3,no,up,IC,L,,,,,,Block.xlsx,"你已经完成了整个实验（三个区组）。

请报告实验者已完成实验

非常感谢，再见！",50,0,1.5,left,RRLRR.png,,,,,0,1,1,1,2,11,59,2,,,,,,,,,,,,,,,,,,,,,,,,,,,,,,,,,,,,,,,,,,,,,,,,,,,,,,,,,,,,,,,,,,,,,,415.3182767000035,415.7195858999985,415.7016797000033,415.8037645000004,416.2028663000019,None,right,0,0.3972806999954628,416.2028663000019,None,415.7016797000033,415.8037645000004,415.8037645000004,None,416.6194753000018,None,,,,,,,11004,001,2023_Dec_29_1353,ANT,2021.2.3,60.20418852642138,
1,10,center,up,C,R,,,,,,Block.xlsx,"你已经完成了整个实验（三个区组）。

请报告实验者已完成实验

非常感谢，再见！",0,50,1.5,right,RRRRR.png,,,,,0,1,1,1,2,12,60,9,,,,,,,,,,,,,,,,,,,,,,,,,,,,,,,,,,,,,,,,,,,,,,,,,,,,,,,,,,,,,,,,,,,,,,417.02004229999875,417.42194980000204,417.40411830000085,417.5047140000024,417.90528079999785,None,right,1,0.4066882999977679,417.90528079999785,None,417.40411830000085,417.5047140000024,417.5047140000024,None,418.3387905999989,None,,,,,,,11004,001,2023_Dec_29_1353,ANT,2021.2.3,60.20418852642138,
1,1,no,up,C,L,,,,,,Block.xlsx,"你已经完成了整个实验（三个区组）。

请报告实验者已完成实验

非常感谢，再见！",50,0,1.5,left,LLLLL.png,,,,,0,1,1,1,2,13,61,0,,,,,,,,,,,,,,,,,,,,,,,,,,,,,,,,,,,,,,,,,,,,,,,,,,,,,,,,,,,,,,,,,,,,,,418.73943190000136,419.1405761999995,419.1239426000029,419.22352910000336,419.6250452000022,None,left,1,0.4390181000053417,419.6250452000022,None,419.1239426000029,419.22352910000336,419.22352910000336,None,420.0917017000029,None,,,,,,,11004,001,2023_Dec_29_1353,ANT,2021.2.3,60.20418852642138,
1,7,no,down,IC,L,,,,,,Block.xlsx,"你已经完成了整个实验（三个区组）。

请报告实验者已完成实验

非常感谢，再见！",50,0,-1.5,left,RRLRR.png,,,,,0,1,1,1,2,14,62,6,,,,,,,,,,,,,,,,,,,,,,,,,,,,,,,,,,,,,,,,,,,,,,,,,,,,,,,,,,,,,,,,,,,,,,420.49192069999845,420.8931853000031,420.87563840000075,420.97634809999727,421.37731850000273,None,left,1,0.5905525999987731,421.37731850000273,None,420.87563840000075,420.97634809999727,420.97634809999727,None,421.9940759000019,None,,,,,,,11004,001,2023_Dec_29_1353,ANT,2021.2.3,60.20418852642138,
1,21,spatial,down,C,L,,,,,,Block.xlsx,"你已经完成了整个实验（三个区组）。

请报告实验者已完成实验

非常感谢，再见！",-1.5,0,-1.5,left,LLLLL.png,,,,,0,1,1,1,2,15,63,20,,,,,,,,,,,,,,,,,,,,,,,,,,,,,,,,,,,,,,,,,,,,,,,,,,,,,,,,,,,,,,,,,,,,,,422.3954969999977,422.7959843999997,422.7789158000014,422.8803085999971,423.2801212999984,None,left,1,0.3757075000030454,423.2801212999984,None,422.7789158000014,422.8803085999971,422.8803085999971,None,423.6801648999972,None,,,,,,,11004,001,2023_Dec_29_1353,ANT,2021.2.3,60.20418852642138,
1,9,center,up,C,L,,,,,,Block.xlsx,"你已经完成了整个实验（三个区组）。

请报告实验者已完成实验

非常感谢，再见！",0,50,1.5,left,LLLLL.png,,,,,0,1,1,1,2,16,64,8,,,,,,,,,,,,,,,,,,,,,,,,,,,,,,,,,,,,,,,,,,,,,,,,,,,,,,,,,,,,,,,,,,,,,,424.0806827999986,424.48305280000204,424.46507030000066,424.5669112999967,424.9669384000008,None,left,1,0.3850026000000071,424.9669384000008,None,424.46507030000066,424.5669112999967,424.5669112999967,None,425.38255780000327,None,,,,,,,11004,001,2023_Dec_29_1353,ANT,2021.2.3,60.20418852642138,
1,12,center,up,IC,R,,,,,,Block.xlsx,"你已经完成了整个实验（三个区组）。

请报告实验者已完成实验

非常感谢，再见！",0,50,1.5,right,LLRLL.png,,,,,0,1,1,1,2,17,65,11,,,,,,,,,,,,,,,,,,,,,,,,,,,,,,,,,,,,,,,,,,,,,,,,,,,,,,,,,,,,,,,,,,,,,,425.78345640000043,426.18431789999886,426.1688023000024,426.2846037999989,426.66819530000066,None,right,1,0.5076929000060773,426.66819530000066,None,426.1688023000024,426.2846037999989,426.26714860000357,None,427.202131799997,None,,,,,,,11004,001,2023_Dec_29_1353,ANT,2021.2.3,60.20418852642138,
1,12,center,up,IC,R,,,,,,Block.xlsx,"你已经完成了整个实验（三个区组）。

请报告实验者已完成实验

非常感谢，再见！",0,50,1.5,right,LLRLL.png,,,,,0,1,1,1,2,18,66,11,,,,,,,,,,,,,,,,,,,,,,,,,,,,,,,,,,,,,,,,,,,,,,,,,,,,,,,,,,,,,,,,,,,,,,427.6030701999989,428.0040150999994,427.9881632999968,428.0864440000005,428.4873854000034,None,right,1,0.4811210000043502,428.4873854000034,None,427.9881632999968,428.0864440000005,428.0864440000005,None,428.98773580000125,None,,,,,,,11004,001,2023_Dec_29_1353,ANT,2021.2.3,60.20418852642138,
1,24,spatial,down,IC,R,,,,,,Block.xlsx,"你已经完成了整个实验（三个区组）。

请报告实验者已完成实验

非常感谢，再见！",-1.5,0,-1.5,right,LLRLL.png,,,,,0,1,1,1,2,19,67,23,,,,,,,,,,,,,,,,,,,,,,,,,,,,,,,,,,,,,,,,,,,,,,,,,,,,,,,,,,,,,,,,,,,,,,429.38842170000135,429.78988180000306,429.77253319999727,429.87473150000005,430.2737285999974,None,right,1,0.5260698999991291,430.2737285999974,None,429.77253319999727,429.87473150000005,429.87473150000005,None,430.82429660000344,None,,,,,,,11004,001,2023_Dec_29_1353,ANT,2021.2.3,60.20418852642138,
1,1,no,up,C,L,,,,,,Block.xlsx,"你已经完成了整个实验（三个区组）。

请报告实验者已完成实验

非常感谢，再见！",50,0,1.5,left,LLLLL.png,,,,,0,1,1,1,2,20,68,0,,,,,,,,,,,,,,,,,,,,,,,,,,,,,,,,,,,,,,,,,,,,,,,,,,,,,,,,,,,,,,,,,,,,,,431.2246895999997,431.6271731000015,431.60883900000044,431.70823519999976,432.11015960000077,None,left,1,0.5617754999984754,432.11015960000077,None,431.60883900000044,431.70823519999976,431.70823519999976,None,432.69319130000076,None,,,,,,,11004,001,2023_Dec_29_1353,ANT,2021.2.3,60.20418852642138,
1,1,no,up,C,L,,,,,,Block.xlsx,"你已经完成了整个实验（三个区组）。

请报告实验者已完成实验

非常感谢，再见！",50,0,1.5,left,LLLLL.png,,,,,0,1,1,1,2,21,69,0,,,,,,,,,,,,,,,,,,,,,,,,,,,,,,,,,,,,,,,,,,,,,,,,,,,,,,,,,,,,,,,,,,,,,,433.0945001,433.4971962999989,433.47864709999703,433.577876299998,433.9785189000031,None,left,1,0.3895466000030865,433.9785189000031,None,433.47864709999703,433.577876299998,433.577876299998,None,434.3958958000003,None,,,,,,,11004,001,2023_Dec_29_1353,ANT,2021.2.3,60.20418852642138,
1,8,no,down,IC,R,,,,,,Block.xlsx,"你已经完成了整个实验（三个区组）。

请报告实验者已完成实验

非常感谢，再见！",50,0,-1.5,right,LLRLL.png,,,,,0,1,1,1,2,22,70,7,,,,,,,,,,,,,,,,,,,,,,,,,,,,,,,,,,,,,,,,,,,,,,,,,,,,,,,,,,,,,,,,,,,,,,434.7964329000024,435.1983537999986,435.18011359999946,435.280946400002,435.6817599999995,None,right,1,0.6542169999956968,435.6817599999995,None,435.18011359999946,435.280946400002,435.280946400002,None,436.3654674999998,None,,,,,,,11004,001,2023_Dec_29_1353,ANT,2021.2.3,60.20418852642138,
1,13,center,down,C,L,,,,,,Block.xlsx,"你已经完成了整个实验（三个区组）。

请报告实验者已完成实验

非常感谢，再见！",0,50,-1.5,left,LLLLL.png,,,,,0,1,1,1,2,23,71,12,,,,,,,,,,,,,,,,,,,,,,,,,,,,,,,,,,,,,,,,,,,,,,,,,,,,,,,,,,,,,,,,,,,,,,436.76639740000246,437.16872460000013,437.1505321000004,437.2526713999978,437.6510369000025,None,left,1,0.5892778999987058,437.6510369000025,None,437.1505321000004,437.2526713999978,437.2526713999978,None,438.26829590000125,None,,,,,,,11004,001,2023_Dec_29_1353,ANT,2021.2.3,60.20418852642138,
1,20,spatial,up,IC,R,,,,,,Block.xlsx,"你已经完成了整个实验（三个区组）。

请报告实验者已完成实验

非常感谢，再见！",1.5,0,1.5,right,LLRLL.png,,,,,0,1,1,1,3,0,72,19,,,,,,,,,,,,,,,,,,,,,,,,,,,,,,,,,,,,,,,,,,,,,,,,,,,,,,,,,,,,,,,,,,,,,,438.66928310000367,439.0721107999998,439.05364140000165,439.1543337999974,439.5545706999983,None,right,1,0.541275499999756,439.5545706999983,None,439.05364140000165,439.1543337999974,439.1543337999974,None,440.12101529999927,None,,,,,,,11004,001,2023_Dec_29_1353,ANT,2021.2.3,60.20418852642138,
1,24,spatial,down,IC,R,,,,,,Block.xlsx,"你已经完成了整个实验（三个区组）。

请报告实验者已完成实验

非常感谢，再见！",-1.5,0,-1.5,right,LLRLL.png,,,,,0,1,1,1,3,1,73,23,,,,,,,,,,,,,,,,,,,,,,,,,,,,,,,,,,,,,,,,,,,,,,,,,,,,,,,,,,,,,,,,,,,,,,440.52152509999723,440.9222940999971,440.9069670000026,441.007792299999,441.40888370000175,None,right,1,0.5197874999939813,441.40888370000175,None,440.9069670000026,441.007792299999,441.007792299999,None,441.95705520000047,None,,,,,,,11004,001,2023_Dec_29_1353,ANT,2021.2.3,60.20418852642138,
1,2,no,up,C,R,,,,,,Block.xlsx,"你已经完成了整个实验（三个区组）。

请报告实验者已完成实验

非常感谢，再见！",50,0,1.5,right,RRRRR.png,,,,,0,1,1,1,3,2,74,1,,,,,,,,,,,,,,,,,,,,,,,,,,,,,,,,,,,,,,,,,,,,,,,,,,,,,,,,,,,,,,,,,,,,,,442.3574669000009,442.7591113000017,442.74242499999673,442.8421415999983,443.2442564000012,None,right,1,0.39549389999592677,443.2442564000012,None,442.74242499999673,442.8421415999983,442.8421415999983,None,443.6595280000038,None,,,,,,,11004,001,2023_Dec_29_1353,ANT,2021.2.3,60.20418852642138,
1,5,no,down,C,L,,,,,,Block.xlsx,"你已经完成了整个实验（三个区组）。

请报告实验者已完成实验

非常感谢，再见！",50,0,-1.5,left,LLLLL.png,,,,,0,1,1,1,3,3,75,4,,,,,,,,,,,,,,,,,,,,,,,,,,,,,,,,,,,,,,,,,,,,,,,,,,,,,,,,,,,,,,,,,,,,,,444.0603104999973,444.4609674000021,444.4451992000031,444.5453301000016,444.9459044999967,None,left,1,0.5524669000005815,444.9459044999967,None,444.4451992000031,444.5453301000016,444.5453301000016,None,445.5122018999973,None,,,,,,,11004,001,2023_Dec_29_1353,ANT,2021.2.3,60.20418852642138,
1,22,spatial,down,C,R,,,,,,Block.xlsx,"你已经完成了整个实验（三个区组）。

请报告实验者已完成实验

非常感谢，再见！",-1.5,0,-1.5,right,RRRRR.png,,,,,0,1,1,1,3,4,76,21,,,,,,,,,,,,,,,,,,,,,,,,,,,,,,,,,,,,,,,,,,,,,,,,,,,,,,,,,,,,,,,,,,,,,,445.913478399998,446.3147061999989,446.2967911000014,446.39755680000235,446.7980766000037,None,right,1,0.4578763000026811,446.7980766000037,None,446.2967911000014,446.39755680000235,446.39755680000235,None,447.2816038000019,None,,,,,,,11004,001,2023_Dec_29_1353,ANT,2021.2.3,60.20418852642138,
1,24,spatial,down,IC,R,,,,,,Block.xlsx,"你已经完成了整个实验（三个区组）。

请报告实验者已完成实验

非常感谢，再见！",-1.5,0,-1.5,right,LLRLL.png,,,,,0,1,1,1,3,5,77,23,,,,,,,,,,,,,,,,,,,,,,,,,,,,,,,,,,,,,,,,,,,,,,,,,,,,,,,,,,,,,,,,,,,,,,447.6827392999985,448.08400450000045,448.06772150000324,448.16625080000085,448.567546899998,None,right,1,0.5129011999961222,448.567546899998,None,448.06772150000324,448.16625080000085,448.16625080000085,None,449.10082559999864,None,,,,,,,11004,001,2023_Dec_29_1353,ANT,2021.2.3,60.20418852642138,
1,12,center,up,IC,R,,,,,,Block.xlsx,"你已经完成了整个实验（三个区组）。

请报告实验者已完成实验

非常感谢，再见！",0,50,1.5,right,LLRLL.png,,,,,0,1,1,1,3,6,78,11,,,,,,,,,,,,,,,,,,,,,,,,,,,,,,,,,,,,,,,,,,,,,,,,,,,,,,,,,,,,,,,,,,,,,,449.5014319999973,449.90279700000247,449.88706249999814,450.00413030000345,450.3871278000006,None,right,1,0.5815892000027816,450.3871278000006,None,449.88706249999814,450.00413030000345,449.9856308000017,None,450.9872292,None,,,,,,,11004,001,2023_Dec_29_1353,ANT,2021.2.3,60.20418852642138,
1,7,no,down,IC,L,,,,,,Block.xlsx,"你已经完成了整个实验（三个区组）。

请报告实验者已完成实验

非常感谢，再见！",50,0,-1.5,left,RRLRR.png,,,,,0,1,1,1,3,7,79,6,,,,,,,,,,,,,,,,,,,,,,,,,,,,,,,,,,,,,,,,,,,,,,,,,,,,,,,,,,,,,,,,,,,,,,451.3875917999976,451.78891889999795,451.77232319999894,451.87264049999794,452.2731767000005,None,left,1,0.6949036000005435,452.2731767000005,None,451.77232319999894,451.87264049999794,451.87264049999794,None,452.9899038000003,None,,,,,,,11004,001,2023_Dec_29_1353,ANT,2021.2.3,60.20418852642138,
1,23,spatial,down,IC,L,,,,,,Block.xlsx,"你已经完成了整个实验（三个区组）。

请报告实验者已完成实验

非常感谢，再见！",-1.5,0,-1.5,left,RRLRR.png,,,,,0,1,1,1,3,8,80,22,,,,,,,,,,,,,,,,,,,,,,,,,,,,,,,,,,,,,,,,,,,,,,,,,,,,,,,,,,,,,,,,,,,,,,453.3906252000015,453.79267029999755,453.77504439999757,453.87571410000237,454.2762567000027,None,left,1,0.4915502000003471,454.2762567000027,None,453.77504439999757,453.87571410000237,453.87571410000237,None,454.7926108000029,None,,,,,,,11004,001,2023_Dec_29_1353,ANT,2021.2.3,60.20418852642138,
1,23,spatial,down,IC,L,,,,,,Block.xlsx,"你已经完成了整个实验（三个区组）。

请报告实验者已完成实验

非常感谢，再见！",-1.5,0,-1.5,left,RRLRR.png,,,,,0,1,1,1,3,9,81,22,,,,,,,,,,,,,,,,,,,,,,,,,,,,,,,,,,,,,,,,,,,,,,,,,,,,,,,,,,,,,,,,,,,,,,455.1932289999968,455.595648399998,455.57733919999737,455.6785751999996,456.0782146999991,None,left,1,0.48236500000348315,456.0782146999991,None,455.57733919999737,455.6785751999996,455.6785751999996,None,456.5787310000014,None,,,,,,,11004,001,2023_Dec_29_1353,ANT,2021.2.3,60.20418852642138,
1,3,no,up,IC,L,,,,,,Block.xlsx,"你已经完成了整个实验（三个区组）。

请报告实验者已完成实验

非常感谢，再见！",50,0,1.5,left,RRLRR.png,,,,,0,1,1,1,3,10,82,2,,,,,,,,,,,,,,,,,,,,,,,,,,,,,,,,,,,,,,,,,,,,,,,,,,,,,,,,,,,,,,,,,,,,,,456.9801477000001,457.38142840000364,457.3634183999966,457.4645526000022,457.86465009999665,None,left,1,0.6553538999942248,457.86465009999665,None,457.3634183999966,457.4645526000022,457.4645526000022,None,458.5484589999978,None,,,,,,,11004,001,2023_Dec_29_1353,ANT,2021.2.3,60.20418852642138,
1,17,spatial,up,C,L,,,,,,Block.xlsx,"你已经完成了整个实验（三个区组）。

请报告实验者已完成实验

非常感谢，再见！",1.5,0,1.5,left,LLLLL.png,,,,,0,1,1,1,3,11,83,16,,,,,,,,,,,,,,,,,,,,,,,,,,,,,,,,,,,,,,,,,,,,,,,,,,,,,,,,,,,,,,,,,,,,,,458.94887120000203,459.3500914000033,459.3336311000021,459.434107699999,459.83352220000234,None,left,1,0.41550139999890234,459.83352220000234,None,459.3336311000021,459.434107699999,459.434107699999,None,460.2674696000031,None,,,,,,,11004,001,2023_Dec_29_1353,ANT,2021.2.3,60.20418852642138,
1,21,spatial,down,C,L,,,,,,Block.xlsx,"你已经完成了整个实验（三个区组）。

请报告实验者已完成实验

非常感谢，再见！",-1.5,0,-1.5,left,LLLLL.png,,,,,0,1,1,1,3,12,84,20,,,,,,,,,,,,,,,,,,,,,,,,,,,,,,,,,,,,,,,,,,,,,,,,,,,,,,,,,,,,,,,,,,,,,,460.6680008999974,461.06856600000174,461.053021300002,461.15311199999996,461.55320049999864,None,left,1,0.4150398999991012,461.55320049999864,None,461.053021300002,461.15311199999996,461.15311199999996,None,461.98840539999946,None,,,,,,,11004,001,2023_Dec_29_1353,ANT,2021.2.3,60.20418852642138,
1,15,center,down,IC,L,,,,,,Block.xlsx,"你已经完成了整个实验（三个区组）。

请报告实验者已完成实验

非常感谢，再见！",0,50,-1.5,left,RRLRR.png,,,,,0,1,1,1,3,13,85,14,,,,,,,,,,,,,,,,,,,,,,,,,,,,,,,,,,,,,,,,,,,,,,,,,,,,,,,,,,,,,,,,,,,,,,462.38799909999943,462.78996729999926,462.7721582000013,462.8725164999996,463.2738176999992,None,left,1,0.5422834000055445,463.2738176999992,None,462.7721582000013,462.8725164999996,462.8725164999996,None,463.8393597999966,None,,,,,,,11004,001,2023_Dec_29_1353,ANT,2021.2.3,60.20418852642138,
1,3,no,up,IC,L,,,,,,Block.xlsx,"你已经完成了整个实验（三个区组）。

请报告实验者已完成实验

非常感谢，再见！",50,0,1.5,left,RRLRR.png,,,,,0,1,1,1,3,14,86,2,,,,,,,,,,,,,,,,,,,,,,,,,,,,,,,,,,,,,,,,,,,,,,,,,,,,,,,,,,,,,,,,,,,,,,464.24060420000023,464.64162119999673,464.6240104000026,464.7262142000036,465.1257865000007,None,left,1,0.5941164999967441,465.1257865000007,None,464.6240104000026,464.7262142000036,464.7262142000036,None,465.74229029999697,None,,,,,,,11004,001,2023_Dec_29_1353,ANT,2021.2.3,60.20418852642138,
1,13,center,down,C,L,,,,,,Block.xlsx,"你已经完成了整个实验（三个区组）。

请报告实验者已完成实验

非常感谢，再见！",0,50,-1.5,left,LLLLL.png,,,,,0,1,1,1,3,15,87,12,,,,,,,,,,,,,,,,,,,,,,,,,,,,,,,,,,,,,,,,,,,,,,,,,,,,,,,,,,,,,,,,,,,,,,466.14299459999893,466.54442299999937,466.5276559999984,466.627445099999,467.0286347000001,None,left,1,0.4196776000026148,467.0286347000001,None,466.5276559999984,466.627445099999,466.627445099999,None,467.47832650000055,None,,,,,,,11004,001,2023_Dec_29_1353,ANT,2021.2.3,60.20418852642138,
1,19,spatial,up,IC,L,,,,,,Block.xlsx,"你已经完成了整个实验（三个区组）。

请报告实验者已完成实验

非常感谢，再见！",1.5,0,1.5,left,RRLRR.png,,,,,0,1,1,1,3,16,88,18,,,,,,,,,,,,,,,,,,,,,,,,,,,,,,,,,,,,,,,,,,,,,,,,,,,,,,,,,,,,,,,,,,,,,,467.87954629999876,468.280239300002,468.2628399000023,468.36353390000295,468.7634328999993,None,left,1,0.5492185999974026,468.7634328999993,None,468.2628399000023,468.36353390000295,468.36353390000295,None,469.3307188000035,None,,,,,,,11004,001,2023_Dec_29_1353,ANT,2021.2.3,60.20418852642138,
1,4,no,up,IC,R,,,,,,Block.xlsx,"你已经完成了整个实验（三个区组）。

请报告实验者已完成实验

