TrialType,TrialNumber,WarningType,TargetType,FlankerType,TargetDirection,W,f,Y,corr,imageFile,condition,endtext,Yw,Yf,Yt,Corr,imagefile,trials_3.thisRepN,trials_3.thisTrialN,trials_3.thisN,trials_3.thisIndex,trials_2.thisRepN,trials_2.thisTrialN,trials_2.thisN,trials_2.thisIndex,trials.thisRepN,trials.thisTrialN,trials.thisN,trials.thisIndex,instr.started,instr.stopped,key_resp.keys,key_resp.rt,key_resp.started,key_resp.stopped,image.started,image.stopped,key_resp_6.keys,key_resp_6.rt,key_resp_6.started,key_resp_6.stopped,EX_L.started,EX_L.stopped,AL.started,AL.stopped,key_resp_7.keys,key_resp_7.rt,key_resp_7.started,key_resp_7.stopped,EX_R.started,EX_R.stopped,RR.started,RR.stopped,key_resp_8.keys,key_resp_8.rt,key_resp_8.started,key_resp_8.stopped,image_2.started,image_2.stopped,key_resp_9.keys,key_resp_9.rt,key_resp_9.started,key_resp_9.stopped,image_3.started,image_3.stopped,key_resp_10.keys,key_resp_10.rt,key_resp_10.started,key_resp_10.stopped,fix.started,fix.stopped,war.started,war.stopped,tar.started,tar.stopped,key_resp_4.keys,key_resp_4.corr,key_resp_4.rt,key_resp_4.started,key_resp_4.stopped,fix2.started,fix2.stopped,fix_2.started,fix_2.stopped,Feedback.started,Feedback.stopped,text.started,text.stopped,key_resp_11.keys,key_resp_11.rt,key_resp_11.started,key_resp_11.stopped,key_resp_2.keys,key_resp_2.rt,key_resp_2.started,key_resp_2.stopped,text_5.started,text_5.stopped,fix2_1.started,fix2_1.stopped,Warn.started,Warn.stopped,Tar.started,Tar.stopped,key_resp_5.keys,key_resp_5.corr,key_resp_5.rt,key_resp_5.started,key_resp_5.stopped,Fix_2.started,Fix_2.stopped,fix2_2.started,fix2_2.stopped,text_4.started,text_4.stopped,key_resp_3.keys,key_resp_3.rt,key_resp_3.started,key_resp_3.stopped,text_3.started,text_3.stopped,participant,session,date,expName,psychopyVersion,frameRate,
,,,,,,,,,,,,,,,,,,,,,,,,,,,,,,11.521654499985743,None,space,10.908604299998842,11.521654499985743,None,,,,,,,,,,,,,,,,,,,,,,,,,,,,,,,,,,,,,,,,,,,,,,,,,,,,,,,,,,,,,,,,,,,,,,,,,,,,,,,,,,,,,,,11007,001,2024_Jan_01_1430,ANT,2021.2.3,60.274659562034465,
,,,,,,,,,,,,,,,,,,,,,,,,,,,,,,,,,,,,22.454466700030025,None,space,18.45620030001737,22.454466700030025,None,,,,,,,,,,,,,,,,,,,,,,,,,,,,,,,,,,,,,,,,,,,,,,,,,,,,,,,,,,,,,,,,,,,,,,,,,,,,,,,,,11007,001,2024_Jan_01_1430,ANT,2021.2.3,60.274659562034465,
,,,,,,,,,,,,,,,,,,,,,,,,,,,,,,,,,,,,,,,,,,40.932013700017706,None,40.932013700017706,None,left,2.873941999976523,40.932013700017706,None,,,,,,,,,,,,,,,,,,,,,,,,,,,,,,,,,,,,,,,,,,,,,,,,,,,,,,,,,,,,,,,,,,,,,,,,,11007,001,2024_Jan_01_1430,ANT,2021.2.3,60.274659562034465,
,,,,,,,,,,,,,,,,,,,,,,,,,,,,,,,,,,,,,,,,,,,,,,,,,,43.835882399987895,None,43.835882399987895,None,right,1.1380226999754086,43.835882399987895,None,,,,,,,,,,,,,,,,,,,,,,,,,,,,,,,,,,,,,,,,,,,,,,,,,,,,,,,,,,,,,,,,,11007,001,2024_Jan_01_1430,ANT,2021.2.3,60.274659562034465,
,,,,,,,,,,,,,,,,,,,,,,,,,,,,,,,,,,,,,,,,,,,,,,,,,,,,,,,,,,45.004495200002566,None,space,39.329698299989104,45.004495200002566,None,,,,,,,,,,,,,,,,,,,,,,,,,,,,,,,,,,,,,,,,,,,,,,,,,,,,,,,,,,,11007,001,2024_Jan_01_1430,ANT,2021.2.3,60.274659562034465,
,,,,,,,,,,,,,,,,,,,,,,,,,,,,,,,,,,,,,,,,,,,,,,,,,,,,,,,,,,,,,,,,84.36369269998977,None,space,16.386378000024706,84.36369269998977,None,,,,,,,,,,,,,,,,,,,,,,,,,,,,,,,,,,,,,,,,,,,,,,,,,,,,,11007,001,2024_Jan_01_1430,ANT,2021.2.3,60.274659562034465,
0,6,center,up,IC,R,0,50,1.5,right,LLRLL.png,,,,,,,,0,0,0,5,,,,,,,,,,,,,,,,,,,,,,,,,,,,,,,,,,,,,,,,,,,,,,,,,100.85438080003951,101.25526649999665,101.23882219998632,101.33812249999028,101.73942080000415,None,right,1,0.6994061000295915,101.73942080000415,None,101.23882219998632,101.33812249999028,101.33812249999028,None,102.47335109999403,None,,,,,,,,,,,,,,,,,,,,,,,,,,,,,,,,,,,,11007,001,2024_Jan_01_1430,ANT,2021.2.3,60.274659562034465,
0,7,center,down,C,R,0,50,-1.5,right,RRRRR.png,,,,,,,,0,1,1,6,,,,,,,,,,,,,,,,,,,,,,,,,,,,,,,,,,,,,,,,,,,,,,,,,104.47707319998881,104.8773337000166,104.86102549999487,104.96069229999557,105.36075620003976,None,right,1,0.5500405000057071,105.36075620003976,None,104.86102549999487,104.96069229999557,104.96069229999557,None,105.92813770001521,None,,,,,,,,,,,,,,,,,,,,,,,,,,,,,,,,,,,,11007,001,2024_Jan_01_1430,ANT,2021.2.3,60.274659562034465,
0,2,no,up,IC,R,50,0,1.5,right,LLRLL.png,,,,,,,,0,2,2,1,,,,,,,,,,,,,,,,,,,,,,,,,,,,,,,,,,,,,,,,,,,,,,,,,107.93134720000671,108.33338450000156,108.31576359999599,108.4161494,108.81587759999093,None,right,1,0.5904466999927536,108.81587759999093,None,108.31576359999599,108.4161494,108.4161494,None,109.43341709999368,None,,,,,,,,,,,,,,,,,,,,,,,,,,,,,,,,,,,,11007,001,2024_Jan_01_1430,ANT,2021.2.3,60.274659562034465,
0,11,spatial,down,C,L,-1.5,0,-1.5,left,LLLLL.png,,,,,,,,0,3,3,10,,,,,,,,,,,,,,,,,,,,,,,,,,,,,,,,,,,,,,,,,,,,,,,,,111.43732210004237,111.83906710002339,111.82075160002569,111.92235720000463,112.3208553000004,None,left,1,0.381528600002639,112.3208553000004,None,111.82075160002569,111.92235720000463,111.92235720000463,None,112.72125270002289,None,,,,,,,,,,,,,,,,,,,,,,,,,,,,,,,,,,,,11007,001,2024_Jan_01_1430,ANT,2021.2.3,60.274659562034465,
0,1,no,up,C,L,50,0,1.5,left,LLLLL.png,,,,,,,,0,4,4,0,,,,,,,,,,,,,,,,,,,,,,,,,,,,,,,,,,,,,,,,,,,,,,,,,114.72514480003156,115.12616710003931,115.10899500001688,115.20903349999571,115.60915840003872,None,left,1,0.4210651000030339,115.60915840003872,None,115.10899500001688,115.20903349999571,115.20903349999571,None,116.0598571000155,None,,,,,,,,,,,,,,,,,,,,,,,,,,,,,,,,,,,,11007,001,2024_Jan_01_1430,ANT,2021.2.3,60.274659562034465,
0,4,no,down,IC,L,50,0,-1.5,left,RRLRR.png,,,,,,,,0,5,5,3,,,,,,,,,,,,,,,,,,,,,,,,,,,,,,,,,,,,,,,,,,,,,,,,,118.06282330001704,118.4634156000102,118.44703490001848,118.5491742999875,118.94993110001087,None,left,1,0.5043400999857113,118.94993110001087,None,118.44703490001848,118.5491742999875,118.5491742999875,None,119.48132260004058,None,,,,,,,,,,,,,,,,,,,,,,,,,,,,,,,,,,,,11007,001,2024_Jan_01_1430,ANT,2021.2.3,60.274659562034465,
0,8,center,down,IC,L,0,50,-1.5,left,RRLRR.png,,,,,,,,0,6,6,7,,,,,,,,,,,,,,,,,,,,,,,,,,,,,,,,,,,,,,,,,,,,,,,,,121.48445580003317,121.88585389999207,121.86845509998966,121.96903979999479,122.36932040000102,None,left,1,0.5499842999852262,122.36932040000102,None,121.86845509998966,121.96903979999479,121.96903979999479,None,122.93660970003111,None,,,,,,,,,,,,,,,,,,,,,,,,,,,,,,,,,,,,11007,001,2024_Jan_01_1430,ANT,2021.2.3,60.274659562034465,
0,10,spatial,up,IC,L,1.5,0,1.5,left,RRLRR.png,,,,,,,,0,7,7,9,,,,,,,,,,,,,,,,,,,,,,,,,,,,,,,,,,,,,,,,,,,,,,,,,124.93985349999275,125.34104550001211,125.32383150001988,125.42469840002013,125.82461569999577,None,left,1,0.48580830002902076,125.82461569999577,None,125.32383150001988,125.42469840002013,125.42469840002013,None,126.32509860000573,None,,,,,,,,,,,,,,,,,,,,,,,,,,,,,,,,,,,,11007,001,2024_Jan_01_1430,ANT,2021.2.3,60.274659562034465,
0,5,center,up,C,L,0,50,1.5,left,LLLLL.png,,,,,,,,0,8,8,4,,,,,,,,,,,,,,,,,,,,,,,,,,,,,,,,,,,,,,,,,,,,,,,,,128.32814789999975,128.72945650003385,128.71196690003853,128.81247150001582,129.21267530001933,None,left,1,0.4015512999612838,129.21267530001933,None,128.71196690003853,128.81247150001582,128.81247150001582,None,129.6299885000335,None,,,,,,,,,,,,,,,,,,,,,,,,,,,,,,,,,,,,11007,001,2024_Jan_01_1430,ANT,2021.2.3,60.274659562034465,
0,3,no,down,C,R,50,0,-1.5,right,RRRRR.png,,,,,,,,0,9,9,2,,,,,,,,,,,,,,,,,,,,,,,,,,,,,,,,,,,,,,,,,,,,,,,,,131.63339239999186,132.03447000001324,132.01742069999455,132.11884270003065,132.51911059999838,None,right,1,0.4714149999781512,132.51911059999838,None,132.01742069999455,132.11884270003065,132.11884270003065,None,133.01827830000548,None,,,,,,,,,,,,,,,,,,,,,,,,,,,,,,,,,,,,11007,001,2024_Jan_01_1430,ANT,2021.2.3,60.274659562034465,
0,9,spatial,up,C,R,1.5,0,1.5,right,RRRRR.png,,,,,,,,0,10,10,8,,,,,,,,,,,,,,,,,,,,,,,,,,,,,,,,,,,,,,,,,,,,,,,,,135.0215211000177,135.42388499999652,135.40538890002063,135.5070926999906,135.9066135000321,None,right,1,0.4036265999893658,135.9066135000321,None,135.40538890002063,135.5070926999906,135.5070926999906,None,136.34128659998532,None,,,,,,,,,,,,,,,,,,,,,,,,,,,,,,,,,,,,11007,001,2024_Jan_01_1430,ANT,2021.2.3,60.274659562034465,
0,12,spatial,down,IC,R,-1.5,0,-1.5,right,LLRLL.png,,,,,,,,0,11,11,11,,,,,,,,,,,,,,,,,,,,,,,,,,,,,,,,,,,,,,,,,,,,,,,,,138.34309169999324,138.74342830001842,138.7283322000294,138.8284149999963,139.2286252999911,None,right,1,0.4256685999571346,139.2286252999911,None,138.7283322000294,138.8284149999963,138.8284149999963,None,139.67843700002413,None,,,,,,,,,,,,,,,,,,,,,,,,,,,,,,,,,,,,11007,001,2024_Jan_01_1430,ANT,2021.2.3,60.274659562034465,
,,,,,,,,,,,,,,,,,,,,,,,,,,,,,,,,,,,,,,,,,,,,,,,,,,,,,,,,,,,,,,,,,,,,,,,,,,,,,,,,,,,,,,,141.69848230003845,None,space,3.371635499992408,141.69848230003845,None,,,,,,,,,,,,,,,,,,,,,,,,,,,,,,11007,001,2024_Jan_01_1430,ANT,2021.2.3,60.274659562034465,
,,,,,,,,,,,,,,,,,,,,,,,,,,,,,,,,,,,,,,,,,,,,,,,,,,,,,,,,,,,,,,,,,,,,,,,,,,,,,,,,,,,,,,,,,,,,,space,9.344667099998333,145.0860107000335,None,,,,,,,,,,,,,,,,,,,,,,,,,,11007,001,2024_Jan_01_1430,ANT,2021.2.3,60.274659562034465,
1,15,center,down,IC,L,,,,,,Block.xlsx,"你已经完成了第一个实验区组

请稍作休息


点击空格键进入下一个区组。",0,50,-1.5,left,RRLRR.png,,,,,0,0,0,0,0,0,0,14,,,,,,,,,,,,,,,,,,,,,,,,,,,,,,,,,,,,,,,,,,,,,,,,,,,,,,,,,,,,,,,,,,,,145.0860107000335,None,154.48524990002625,154.88637630001176,154.86824270000216,154.96762680000393,155.36809060000814,None,left,1,0.4947888000169769,155.36809060000814,None,154.86824270000216,154.96762680000393,154.96762680000393,None,155.8854207000113,None,,,,,,,11007,001,2024_Jan_01_1430,ANT,2021.2.3,60.274659562034465,
1,13,center,down,C,L,,,,,,Block.xlsx,"你已经完成了第一个实验区组

请稍作休息


点击空格键进入下一个区组。",0,50,-1.5,left,LLLLL.png,,,,,0,0,0,0,0,1,1,12,,,,,,,,,,,,,,,,,,,,,,,,,,,,,,,,,,,,,,,,,,,,,,,,,,,,,,,,,,,,,,,,,,,,,,156.28603060002206,156.68875780003145,156.67025120003382,156.7709240000113,157.17165899998508,None,left,1,0.3866334999911487,157.17165899998508,None,156.67025120003382,156.7709240000113,156.7709240000113,None,157.58791950001614,None,,,,,,,11007,001,2024_Jan_01_1430,ANT,2021.2.3,60.274659562034465,
1,1,no,up,C,L,,,,,,Block.xlsx,"你已经完成了第一个实验区组

请稍作休息


点击空格键进入下一个区组。",50,0,1.5,left,LLLLL.png,,,,,0,0,0,0,0,2,2,0,,,,,,,,,,,,,,,,,,,,,,,,,,,,,,,,,,,,,,,,,,,,,,,,,,,,,,,,,,,,,,,,,,,,,,157.9886735000182,158.39123930002097,158.37267310003517,158.47324449999724,158.87549679999938,None,left,1,0.3957510000327602,158.87549679999938,None,158.37267310003517,158.47324449999724,158.47324449999724,None,159.29053350002505,None,,,,,,,11007,001,2024_Jan_01_1430,ANT,2021.2.3,60.274659562034465,
1,3,no,up,IC,L,,,,,,Block.xlsx,"你已经完成了第一个实验区组

请稍作休息


点击空格键进入下一个区组。",50,0,1.5,left,RRLRR.png,,,,,0,0,0,0,0,3,3,2,,,,,,,,,,,,,,,,,,,,,,,,,,,,,,,,,,,,,,,,,,,,,,,,,,,,,,,,,,,,,,,,,,,,,,159.69147580000572,160.09275630000047,160.0757344000158,160.17567550000967,160.57794809999177,None,left,1,0.5489156999974512,160.57794809999177,None,160.0757344000158,160.17567550000967,160.17567550000967,None,161.1433388000005,None,,,,,,,11007,001,2024_Jan_01_1430,ANT,2021.2.3,60.274659562034465,
1,14,center,down,C,R,,,,,,Block.xlsx,"你已经完成了第一个实验区组

请稍作休息


点击空格键进入下一个区组。",0,50,-1.5,right,RRRRR.png,,,,,0,0,0,0,0,4,4,13,,,,,,,,,,,,,,,,,,,,,,,,,,,,,,,,,,,,,,,,,,,,,,,,,,,,,,,,,,,,,,,,,,,,,,161.54498340003192,161.94641450000927,161.9281251000357,162.02888120000716,162.42979070002912,None,right,1,0.40853279997827485,162.42979070002912,None,161.9281251000357,162.02888120000716,162.02888120000716,None,162.8622691000346,None,,,,,,,11007,001,2024_Jan_01_1430,ANT,2021.2.3,60.274659562034465,
1,19,spatial,up,IC,L,,,,,,Block.xlsx,"你已经完成了第一个实验区组

请稍作休息


点击空格键进入下一个区组。",1.5,0,1.5,left,RRLRR.png,,,,,0,0,0,0,0,5,5,18,,,,,,,,,,,,,,,,,,,,,,,,,,,,,,,,,,,,,,,,,,,,,,,,,,,,,,,,,,,,,,,,,,,,,,163.26331760000903,163.66565889999038,163.64739100000588,163.74786220001988,164.14972720004153,None,left,1,0.34467769996263087,164.14972720004153,None,163.64739100000588,163.74786220001988,163.74786220001988,None,164.5147541000042,None,,,,,,,11007,001,2024_Jan_01_1430,ANT,2021.2.3,60.274659562034465,
1,17,spatial,up,C,L,,,,,,Block.xlsx,"你已经完成了第一个实验区组

请稍作休息


点击空格键进入下一个区组。",1.5,0,1.5,left,LLLLL.png,,,,,0,0,0,0,0,6,6,16,,,,,,,,,,,,,,,,,,,,,,,,,,,,,,,,,,,,,,,,,,,,,,,,,,,,,,,,,,,,,,,,,,,,,,164.91614039998967,165.31817939999746,165.29958970000735,165.40062850003596,165.80091260001063,None,left,1,0.2777528000297025,165.80091260001063,None,165.29958970000735,165.40062850003596,165.40062850003596,None,166.1006680999999,None,,,,,,,11007,001,2024_Jan_01_1430,ANT,2021.2.3,60.274659562034465,
1,15,center,down,IC,L,,,,,,Block.xlsx,"你已经完成了第一个实验区组

请稍作休息


点击空格键进入下一个区组。",0,50,-1.5,left,RRLRR.png,,,,,0,0,0,0,0,7,7,14,,,,,,,,,,,,,,,,,,,,,,,,,,,,,,,,,,,,,,,,,,,,,,,,,,,,,,,,,,,,,,,,,,,,,,166.50142190000042,166.90256670000963,166.8859536999953,166.98565109999618,167.38644080003724,None,left,1,0.4598870999761857,167.38644080003724,None,166.8859536999953,166.98565109999618,166.98565109999618,None,167.86996159999399,None,,,,,,,11007,001,2024_Jan_01_1430,ANT,2021.2.3,60.274659562034465,
1,4,no,up,IC,R,,,,,,Block.xlsx,"你已经完成了第一个实验区组

请稍作休息


点击空格键进入下一个区组。",50,0,1.5,right,LLRLL.png,,,,,0,0,0,0,0,8,8,3,,,,,,,,,,,,,,,,,,,,,,,,,,,,,,,,,,,,,,,,,,,,,,,,,,,,,,,,,,,,,,,,,,,,,,168.27083659998607,168.67186559998663,168.65676039998652,168.7556146000279,169.1561256000423,None,right,1,0.4504654999473132,169.1561256000423,None,168.65676039998652,168.7556146000279,168.7556146000279,None,169.62254040001426,None,,,,,,,11007,001,2024_Jan_01_1430,ANT,2021.2.3,60.274659562034465,
1,19,spatial,up,IC,L,,,,,,Block.xlsx,"你已经完成了第一个实验区组

请稍作休息


点击空格键进入下一个区组。",1.5,0,1.5,left,RRLRR.png,,,,,0,0,0,0,0,9,9,18,,,,,,,,,,,,,,,,,,,,,,,,,,,,,,,,,,,,,,,,,,,,,,,,,,,,,,,,,,,,,,,,,,,,,,170.02318120002747,170.4262881000177,170.40799760003574,170.50826329999836,170.91040829999838,None,left,1,0.4003534000366926,170.91040829999838,None,170.40799760003574,170.50826329999836,170.50826329999836,None,171.32513610000024,None,,,,,,,11007,001,2024_Jan_01_1430,ANT,2021.2.3,60.274659562034465,
1,18,spatial,up,C,R,,,,,,Block.xlsx,"你已经完成了第一个实验区组

请稍作休息


点击空格键进入下一个区组。",1.5,0,1.5,right,RRRRR.png,,,,,0,0,0,0,0,10,10,17,,,,,,,,,,,,,,,,,,,,,,,,,,,,,,,,,,,,,,,,,,,,,,,,,,,,,,,,,,,,,,,,,,,,,,171.72621069999877,172.12663469999097,172.11040750000393,172.210118899995,172.61074360000202,None,right,1,0.40349180001067,172.61074360000202,None,172.11040750000393,172.210118899995,172.210118899995,None,173.04426980001153,None,,,,,,,11007,001,2024_Jan_01_1430,ANT,2021.2.3,60.274659562034465,
1,3,no,up,IC,L,,,,,,Block.xlsx,"你已经完成了第一个实验区组

请稍作休息


点击空格键进入下一个区组。",50,0,1.5,left,RRLRR.png,,,,,0,0,0,0,0,11,11,2,,,,,,,,,,,,,,,,,,,,,,,,,,,,,,,,,,,,,,,,,,,,,,,,,,,,,,,,,,,,,,,,,,,,,,173.44555190001847,173.8472389000235,173.82958359998884,173.93019610003103,174.32999310002197,None,left,1,0.48500710004009306,174.32999310002197,None,173.82958359998884,173.93019610003103,173.93019610003103,None,174.8302321000374,None,,,,,,,11007,001,2024_Jan_01_1430,ANT,2021.2.3,60.274659562034465,
1,19,spatial,up,IC,L,,,,,,Block.xlsx,"你已经完成了第一个实验区组

请稍作休息


点击空格键进入下一个区组。",1.5,0,1.5,left,RRLRR.png,,,,,0,0,0,0,0,12,12,18,,,,,,,,,,,,,,,,,,,,,,,,,,,,,,,,,,,,,,,,,,,,,,,,,,,,,,,,,,,,,,,,,,,,,,175.23088620003546,175.63360050000483,175.6152521999902,175.71685920003802,176.11594799999148,None,left,1,0.5623533999896608,176.11594799999148,None,175.6152521999902,175.71685920003802,175.71685920003802,None,176.6998534000013,None,,,,,,,11007,001,2024_Jan_01_1430,ANT,2021.2.3,60.274659562034465,
1,22,spatial,down,C,R,,,,,,Block.xlsx,"你已经完成了第一个实验区组

请稍作休息


点击空格键进入下一个区组。",-1.5,0,-1.5,right,RRRRR.png,,,,,0,0,0,0,0,13,13,21,,,,,,,,,,,,,,,,,,,,,,,,,,,,,,,,,,,,,,,,,,,,,,,,,,,,,,,,,,,,,,,,,,,,,,177.1009850000264,177.5009541999898,177.4843136999989,177.58560930000385,177.98499730002368,None,right,1,0.3652627000119537,177.98499730002368,None,177.4843136999989,177.58560930000385,177.58560930000385,None,178.36879690003116,None,,,,,,,11007,001,2024_Jan_01_1430,ANT,2021.2.3,60.274659562034465,
1,5,no,down,C,L,,,,,,Block.xlsx,"你已经完成了第一个实验区组

请稍作休息


点击空格键进入下一个区组。",50,0,-1.5,left,LLLLL.png,,,,,0,0,0,0,0,14,14,4,,,,,,,,,,,,,,,,,,,,,,,,,,,,,,,,,,,,,,,,,,,,,,,,,,,,,,,,,,,,,,,,,,,,,,178.76940210000612,179.1707727999892,179.153748599987,179.25535570003558,179.65482799999882,None,left,1,0.4800608000368811,179.65482799999882,None,179.153748599987,179.25535570003558,179.25535570003558,None,180.1550226000254,None,,,,,,,11007,001,2024_Jan_01_1430,ANT,2021.2.3,60.274659562034465,
1,17,spatial,up,C,L,,,,,,Block.xlsx,"你已经完成了第一个实验区组

请稍作休息


点击空格键进入下一个区组。",1.5,0,1.5,left,LLLLL.png,,,,,0,0,0,0,0,15,15,16,,,,,,,,,,,,,,,,,,,,,,,,,,,,,,,,,,,,,,,,,,,,,,,,,,,,,,,,,,,,,,,,,,,,,,180.55616859998554,180.9583412000211,180.93982100003632,181.03971819998696,181.44082960003288,None,left,1,0.3338821000070311,181.44082960003288,None,180.93982100003632,181.03971819998696,181.03971819998696,None,181.7906022000243,None,,,,,,,11007,001,2024_Jan_01_1430,ANT,2021.2.3,60.274659562034465,
1,4,no,up,IC,R,,,,,,Block.xlsx,"你已经完成了第一个实验区组

请稍作休息


点击空格键进入下一个区组。",50,0,1.5,right,LLRLL.png,,,,,0,0,0,0,0,16,16,3,,,,,,,,,,,,,,,,,,,,,,,,,,,,,,,,,,,,,,,,,,,,,,,,,,,,,,,,,,,,,,,,,,,,,,182.19142869999632,182.59226420003688,182.5757274000207,182.675776100019,183.0757429000223,None,right,1,0.5388468999881297,183.0757429000223,None,182.5757274000207,182.675776100019,182.675776100019,None,183.6435269000358,None,,,,,,,11007,001,2024_Jan_01_1430,ANT,2021.2.3,60.274659562034465,
1,5,no,down,C,L,,,,,,Block.xlsx,"你已经完成了第一个实验区组

请稍作休息


点击空格键进入下一个区组。",50,0,-1.5,left,LLLLL.png,,,,,0,0,0,0,0,17,17,4,,,,,,,,,,,,,,,,,,,,,,,,,,,,,,,,,,,,,,,,,,,,,,,,,,,,,,,,,,,,,,,,,,,,,,184.04415690002497,184.445308400027,184.4291116000386,184.54509249998955,184.9303513999912,None,left,1,0.4599688000162132,184.9303513999912,None,184.4291116000386,184.54509249998955,184.52961630001664,None,185.4129155999981,None,,,,,,,11007,001,2024_Jan_01_1430,ANT,2021.2.3,60.274659562034465,
1,18,spatial,up,C,R,,,,,,Block.xlsx,"你已经完成了第一个实验区组

请稍作休息


点击空格键进入下一个区组。",1.5,0,1.5,right,RRRRR.png,,,,,0,0,0,0,0,18,18,17,,,,,,,,,,,,,,,,,,,,,,,,,,,,,,,,,,,,,,,,,,,,,,,,,,,,,,,,,,,,,,,,,,,,,,185.8135845999932,186.21582809998654,186.1979044000036,186.2982645999873,186.69905360002303,None,right,1,0.40338939998764545,186.69905360002303,None,186.1979044000036,186.2982645999873,186.2982645999873,None,187.13177800003905,None,,,,,,,11007,001,2024_Jan_01_1430,ANT,2021.2.3,60.274659562034465,
1,9,center,up,C,L,,,,,,Block.xlsx,"你已经完成了第一个实验区组

请稍作休息


点击空格键进入下一个区组。",0,50,1.5,left,LLLLL.png,,,,,0,0,0,0,0,19,19,8,,,,,,,,,,,,,,,,,,,,,,,,,,,,,,,,,,,,,,,,,,,,,,,,,,,,,,,,,,,,,,,,,,,,,,187.53248900000472,187.93388760002563,187.9166423000279,188.01725450000959,188.41708460001973,None,left,1,0.35017500002868474,188.41708460001973,None,187.9166423000279,188.01725450000959,188.01725450000959,None,188.78423240000848,None,,,,,,,11007,001,2024_Jan_01_1430,ANT,2021.2.3,60.274659562034465,
1,23,spatial,down,IC,L,,,,,,Block.xlsx,"你已经完成了第一个实验区组

请稍作休息


点击空格键进入下一个区组。",-1.5,0,-1.5,left,RRLRR.png,,,,,0,0,0,0,0,20,20,22,,,,,,,,,,,,,,,,,,,,,,,,,,,,,,,,,,,,,,,,,,,,,,,,,,,,,,,,,,,,,,,,,,,,,,189.18484609998995,189.58793089998653,189.56925370002864,189.66987590002827,190.07031490001827,None,left,1,0.4169753000023775,190.07031490001827,None,189.56925370002864,189.66987590002827,189.66987590002827,None,190.5035135000362,None,,,,,,,11007,001,2024_Jan_01_1430,ANT,2021.2.3,60.274659562034465,
1,1,no,up,C,L,,,,,,Block.xlsx,"你已经完成了第一个实验区组

请稍作休息


点击空格键进入下一个区组。",50,0,1.5,left,LLLLL.png,,,,,0,0,0,0,0,21,21,0,,,,,,,,,,,,,,,,,,,,,,,,,,,,,,,,,,,,,,,,,,,,,,,,,,,,,,,,,,,,,,,,,,,,,,190.90484490001108,191.30503019999014,191.2897520000115,191.38999360002344,191.7895501999883,None,left,1,0.3449158000294119,191.7895501999883,None,191.2897520000115,191.38999360002344,191.38999360002344,None,192.15588690002915,None,,,,,,,11007,001,2024_Jan_01_1430,ANT,2021.2.3,60.274659562034465,
1,13,center,down,C,L,,,,,,Block.xlsx,"你已经完成了第一个实验区组

请稍作休息


点击空格键进入下一个区组。",0,50,-1.5,left,LLLLL.png,,,,,0,0,0,0,0,22,22,12,,,,,,,,,,,,,,,,,,,,,,,,,,,,,,,,,,,,,,,,,,,,,,,,,,,,,,,,,,,,,,,,,,,,,,192.5564372999943,192.95775470003719,192.941065800027,193.04169179999735,193.44350130000385,None,left,1,0.3719899000134319,193.44350130000385,None,192.941065800027,193.04169179999735,193.04169179999735,None,193.8417433000286,None,,,,,,,11007,001,2024_Jan_01_1430,ANT,2021.2.3,60.274659562034465,
1,12,center,up,IC,R,,,,,,Block.xlsx,"你已经完成了第一个实验区组

请稍作休息


点击空格键进入下一个区组。",0,50,1.5,right,LLRLL.png,,,,,0,0,0,0,0,23,23,11,,,,,,,,,,,,,,,,,,,,,,,,,,,,,,,,,,,,,,,,,,,,,,,,,,,,,,,,,,,,,,,,,,,,,,194.2422607000335,194.64482940000016,194.62661400000798,194.7269912000047,195.12709790002555,None,right,1,0.5193335000076331,195.12709790002555,None,194.62661400000798,194.7269912000047,194.7269912000047,None,195.67821809998713,None,,,,,,,11007,001,2024_Jan_01_1430,ANT,2021.2.3,60.274659562034465,
1,24,spatial,down,IC,R,,,,,,Block.xlsx,"你已经完成了第一个实验区组

请稍作休息


点击空格键进入下一个区组。",-1.5,0,-1.5,right,LLRLL.png,,,,,0,0,0,0,1,0,24,23,,,,,,,,,,,,,,,,,,,,,,,,,,,,,,,,,,,,,,,,,,,,,,,,,,,,,,,,,,,,,,,,,,,,,,196.07918830000563,196.4806130999932,196.46250920003513,196.56463750003604,196.96395750000374,None,left,0,0.34649500000523403,196.96395750000374,None,196.46250920003513,196.56463750003604,196.56463750003604,None,197.3302771000308,None,,,,,,,11007,001,2024_Jan_01_1430,ANT,2021.2.3,60.274659562034465,
1,10,center,up,C,R,,,,,,Block.xlsx,"你已经完成了第一个实验区组

请稍作休息


点击空格键进入下一个区组。",0,50,1.5,right,RRRRR.png,,,,,0,0,0,0,1,1,25,9,,,,,,,,,,,,,,,,,,,,,,,,,,,,,,,,,,,,,,,,,,,,,,,,,,,,,,,,,,,,,,,,,,,,,,197.73078990000067,198.13146589999087,198.11512760003097,198.2155012000003,198.61588580004172,None,right,1,0.45499960001325235,198.61588580004172,None,198.11512760003097,198.2155012000003,198.2155012000003,None,199.1000258999993,None,,,,,,,11007,001,2024_Jan_01_1430,ANT,2021.2.3,60.274659562034465,
1,4,no,up,IC,R,,,,,,Block.xlsx,"你已经完成了第一个实验区组

请稍作休息


点击空格键进入下一个区组。",50,0,1.5,right,LLRLL.png,,,,,0,0,0,0,1,2,26,3,,,,,,,,,,,,,,,,,,,,,,,,,,,,,,,,,,,,,,,,,,,,,,,,,,,,,,,,,,,,,,,,,,,,,,199.4999089000048,199.9014297000249,199.88518209999893,199.9861103000003,200.38722319999943,None,right,1,0.5955648000235669,200.38722319999943,None,199.88518209999893,199.9861103000003,199.9861103000003,None,201.00248100003228,None,,,,,,,11007,001,2024_Jan_01_1430,ANT,2021.2.3,60.274659562034465,
1,2,no,up,C,R,,,,,,Block.xlsx,"你已经完成了第一个实验区组

请稍作休息


点击空格键进入下一个区组。",50,0,1.5,right,RRRRR.png,,,,,0,0,0,0,1,3,27,1,,,,,,,,,,,,,,,,,,,,,,,,,,,,,,,,,,,,,,,,,,,,,,,,,,,,,,,,,,,,,,,,,,,,,,201.4029572000145,201.8041240000166,201.7885249000392,201.90478079998866,202.28834780002944,None,right,1,0.5580453000147827,202.28834780002944,None,201.7885249000392,201.90478079998866,201.88962130004074,None,202.8716060000006,None,,,,,,,11007,001,2024_Jan_01_1430,ANT,2021.2.3,60.274659562034465,
1,23,spatial,down,IC,L,,,,,,Block.xlsx,"你已经完成了第一个实验区组

请稍作休息


点击空格键进入下一个区组。",-1.5,0,-1.5,left,RRLRR.png,,,,,0,0,0,0,1,4,28,22,,,,,,,,,,,,,,,,,,,,,,,,,,,,,,,,,,,,,,,,,,,,,,,,,,,,,,,,,,,,,,,,,,,,,,203.27248610003153,203.67474099999527,203.6564280000166,203.75907209998695,204.15784569998505,None,left,1,0.49663779995171353,204.15784569998505,None,203.6564280000166,203.75907209998695,203.75907209998695,None,204.67490450001787,None,,,,,,,11007,001,2024_Jan_01_1430,ANT,2021.2.3,60.274659562034465,
1,20,spatial,up,IC,R,,,,,,Block.xlsx,"你已经完成了第一个实验区组

请稍作休息


点击空格键进入下一个区组。",1.5,0,1.5,right,LLRLL.png,,,,,0,0,0,0,1,5,29,19,,,,,,,,,,,,,,,,,,,,,,,,,,,,,,,,,,,,,,,,,,,,,,,,,,,,,,,,,,,,,,,,,,,,,,205.07554440002423,205.477206200012,205.459650600038,205.55992590001551,205.96092089999001,None,right,1,0.43055850005475804,205.96092089999001,None,205.459650600038,205.55992590001551,205.55992590001551,None,206.41067720000865,None,,,,,,,11007,001,2024_Jan_01_1430,ANT,2021.2.3,60.274659562034465,
1,18,spatial,up,C,R,,,,,,Block.xlsx,"你已经完成了第一个实验区组

请稍作休息


点击空格键进入下一个区组。",1.5,0,1.5,right,RRRRR.png,,,,,0,0,0,0,1,6,30,17,,,,,,,,,,,,,,,,,,,,,,,,,,,,,,,,,,,,,,,,,,,,,,,,,,,,,,,,,,,,,,,,,,,,,,206.81137770001078,207.21263349999208,207.19565680000233,207.29601620003814,207.6977699000272,None,right,1,0.3726530999992974,207.6977699000272,None,207.19565680000233,207.29601620003814,207.29601620003814,None,208.09685480000917,None,,,,,,,11007,001,2024_Jan_01_1430,ANT,2021.2.3,60.274659562034465,
1,21,spatial,down,C,L,,,,,,Block.xlsx,"你已经完成了第一个实验区组

请稍作休息


点击空格键进入下一个区组。",-1.5,0,-1.5,left,LLLLL.png,,,,,0,0,0,0,1,7,31,20,,,,,,,,,,,,,,,,,,,,,,,,,,,,,,,,,,,,,,,,,,,,,,,,,,,,,,,,,,,,,,,,,,,,,,208.49694049998652,208.89883690001443,208.88115189998643,208.9824176999973,209.38322469999548,None,left,1,0.35140270000556484,209.38322469999548,None,208.88115189998643,208.9824176999973,208.9824176999973,None,209.7654537000344,None,,,,,,,11007,001,2024_Jan_01_1430,ANT,2021.2.3,60.274659562034465,
1,24,spatial,down,IC,R,,,,,,Block.xlsx,"你已经完成了第一个实验区组

请稍作休息


点击空格键进入下一个区组。",-1.5,0,-1.5,right,LLRLL.png,,,,,0,0,0,0,1,8,32,23,,,,,,,,,,,,,,,,,,,,,,,,,,,,,,,,,,,,,,,,,,,,,,,,,,,,,,,,,,,,,,,,,,,,,,210.1663234999869,210.56723370001419,210.55177510000067,210.65029140003026,211.0511603000341,None,right,1,0.4593540000496432,211.0511603000341,None,210.55177510000067,210.65029140003026,210.65029140003026,None,211.53469040000346,None,,,,,,,11007,001,2024_Jan_01_1430,ANT,2021.2.3,60.274659562034465,
1,20,spatial,up,IC,R,,,,,,Block.xlsx,"你已经完成了第一个实验区组

请稍作休息


点击空格键进入下一个区组。",1.5,0,1.5,right,LLRLL.png,,,,,0,0,0,0,1,9,33,19,,,,,,,,,,,,,,,,,,,,,,,,,,,,,,,,,,,,,,,,,,,,,,,,,,,,,,,,,,,,,,,,,,,,,,211.93536090000998,212.33812460000627,212.3195498000132,212.4212317999918,212.82063249999192,None,right,1,0.5535832999739796,212.82063249999192,None,212.3195498000132,212.4212317999918,212.4212317999918,None,213.40408720000414,None,,,,,,,11007,001,2024_Jan_01_1430,ANT,2021.2.3,60.274659562034465,
1,16,center,down,IC,R,,,,,,Block.xlsx,"你已经完成了第一个实验区组

请稍作休息


点击空格键进入下一个区组。",0,50,-1.5,right,LLRLL.png,,,,,0,0,0,0,1,10,34,15,,,,,,,,,,,,,,,,,,,,,,,,,,,,,,,,,,,,,,,,,,,,,,,,,,,,,,,,,,,,,,,,,,,,,,213.8053893999895,214.20647540001664,214.18926120002288,214.29106830002274,214.68955770001048,None,right,1,0.5412998999818228,214.68955770001048,None,214.18926120002288,214.29106830002274,214.29106830002274,None,215.2572676000418,None,,,,,,,11007,001,2024_Jan_01_1430,ANT,2021.2.3,60.274659562034465,
1,24,spatial,down,IC,R,,,,,,Block.xlsx,"你已经完成了第一个实验区组

请稍作休息


点击空格键进入下一个区组。",-1.5,0,-1.5,right,LLRLL.png,,,,,0,0,0,0,1,11,35,23,,,,,,,,,,,,,,,,,,,,,,,,,,,,,,,,,,,,,,,,,,,,,,,,,,,,,,,,,,,,,,,,,,,,,,215.65761679998832,216.06056250003166,216.041963900032,216.14333270001225,216.54275030002464,None,right,1,0.5203693999792449,216.54275030002464,None,216.041963900032,216.14333270001225,216.14333270001225,None,217.09344490000512,None,,,,,,,11007,001,2024_Jan_01_1430,ANT,2021.2.3,60.274659562034465,
1,16,center,down,IC,R,,,,,,Block.xlsx,"你已经完成了第一个实验区组

请稍作休息


点击空格键进入下一个区组。",0,50,-1.5,right,LLRLL.png,,,,,0,0,0,0,1,12,36,15,,,,,,,,,,,,,,,,,,,,,,,,,,,,,,,,,,,,,,,,,,,,,,,,,,,,,,,,,,,,,,,,,,,,,,217.4941686000093,217.8954267000081,217.87734290002845,217.97847880003974,218.37871900002938,None,right,1,0.5076684000086971,218.37871900002938,None,217.87734290002845,217.97847880003974,217.97847880003974,None,218.9121552000288,None,,,,,,,11007,001,2024_Jan_01_1430,ANT,2021.2.3,60.274659562034465,
1,5,no,down,C,L,,,,,,Block.xlsx,"你已经完成了第一个实验区组

请稍作休息


点击空格键进入下一个区组。",50,0,-1.5,left,LLLLL.png,,,,,0,0,0,0,1,13,37,4,,,,,,,,,,,,,,,,,,,,,,,,,,,,,,,,,,,,,,,,,,,,,,,,,,,,,,,,,,,,,,,,,,,,,,219.31336730002658,219.71561590000056,219.6975303000072,219.79757759999484,220.19799459999194,None,left,1,0.4812534000375308,220.19799459999194,None,219.6975303000072,219.79757759999484,219.79757759999484,None,220.6981743000215,None,,,,,,,11007,001,2024_Jan_01_1430,ANT,2021.2.3,60.274659562034465,
1,6,no,down,C,R,,,,,,Block.xlsx,"你已经完成了第一个实验区组

请稍作休息


点击空格键进入下一个区组。",50,0,-1.5,right,RRRRR.png,,,,,0,0,0,0,1,14,38,5,,,,,,,,,,,,,,,,,,,,,,,,,,,,,,,,,,,,,,,,,,,,,,,,,,,,,,,,,,,,,,,,,,,,,,221.09909100004006,221.49999109999044,221.48286109999754,221.58330320002278,221.98410400003195,None,right,1,0.5675085000111721,221.98410400003195,None,221.48286109999754,221.58330320002278,221.58330320002278,None,222.56767469999613,None,,,,,,,11007,001,2024_Jan_01_1430,ANT,2021.2.3,60.274659562034465,
1,11,center,up,IC,L,,,,,,Block.xlsx,"你已经完成了第一个实验区组

请稍作休息


点击空格键进入下一个区组。",0,50,1.5,left,RRLRR.png,,,,,0,0,0,0,1,15,39,10,,,,,,,,,,,,,,,,,,,,,,,,,,,,,,,,,,,,,,,,,,,,,,,,,,,,,,,,,,,,,,,,,,,,,,222.9682429000386,223.36922350001987,223.3545024000341,223.4536683000042,223.85527050000383,None,left,1,0.5351639000000432,223.85527050000383,None,223.3545024000341,223.4536683000042,223.4536683000042,None,224.42046170000685,None,,,,,,,11007,001,2024_Jan_01_1430,ANT,2021.2.3,60.274659562034465,
1,8,no,down,IC,R,,,,,,Block.xlsx,"你已经完成了第一个实验区组

请稍作休息


点击空格键进入下一个区组。",50,0,-1.5,right,LLRLL.png,,,,,0,0,0,0,1,16,40,7,,,,,,,,,,,,,,,,,,,,,,,,,,,,,,,,,,,,,,,,,,,,,,,,,,,,,,,,,,,,,,,,,,,,,,224.82098560000304,225.2215269000153,225.2049237000174,225.30542570003308,225.70562130003236,None,right,1,0.5568812999990769,225.70562130003236,None,225.2049237000174,225.30542570003308,225.30542570003308,None,226.28985609998927,None,,,,,,,11007,001,2024_Jan_01_1430,ANT,2021.2.3,60.274659562034465,
1,10,center,up,C,R,,,,,,Block.xlsx,"你已经完成了第一个实验区组

请稍作休息


点击空格键进入下一个区组。",0,50,1.5,right,RRRRR.png,,,,,0,0,0,0,1,17,41,9,,,,,,,,,,,,,,,,,,,,,,,,,,,,,,,,,,,,,,,,,,,,,,,,,,,,,,,,,,,,,,,,,,,,,,226.6904544000281,227.0908277000417,227.07505270000547,227.17498190002516,227.5751758000115,None,right,1,0.45515890000388026,227.5751758000115,None,227.07505270000547,227.17498190002516,227.17498190002516,None,228.05904510000255,None,,,,,,,11007,001,2024_Jan_01_1430,ANT,2021.2.3,60.274659562034465,
1,19,spatial,up,IC,L,,,,,,Block.xlsx,"你已经完成了第一个实验区组

请稍作休息


点击空格键进入下一个区组。",1.5,0,1.5,left,RRLRR.png,,,,,0,0,0,0,1,18,42,18,,,,,,,,,,,,,,,,,,,,,,,,,,,,,,,,,,,,,,,,,,,,,,,,,,,,,,,,,,,,,,,,,,,,,,228.45963699999265,228.8609548000386,228.8437505000038,228.94460200000321,229.34428379999008,None,left,1,0.43792499997653067,229.34428379999008,None,228.8437505000038,228.94460200000321,228.94460200000321,None,229.81172050000168,None,,,,,,,11007,001,2024_Jan_01_1430,ANT,2021.2.3,60.274659562034465,
1,22,spatial,down,C,R,,,,,,Block.xlsx,"你已经完成了第一个实验区组

请稍作休息


点击空格键进入下一个区组。",-1.5,0,-1.5,right,RRRRR.png,,,,,0,0,0,0,1,19,43,21,,,,,,,,,,,,,,,,,,,,,,,,,,,,,,,,,,,,,,,,,,,,,,,,,,,,,,,,,,,,,,,,,,,,,,230.21218080003746,230.61288339999737,230.59755420003785,230.71375049999915,231.09695680002915,None,right,1,0.39758539997274056,231.09695680002915,None,230.59755420003785,230.71375049999915,230.69705359998625,None,231.51414000004297,None,,,,,,,11007,001,2024_Jan_01_1430,ANT,2021.2.3,60.274659562034465,
1,7,no,down,IC,L,,,,,,Block.xlsx,"你已经完成了第一个实验区组

请稍作休息


点击空格键进入下一个区组。",50,0,-1.5,left,RRLRR.png,,,,,0,0,0,0,1,20,44,6,,,,,,,,,,,,,,,,,,,,,,,,,,,,,,,,,,,,,,,,,,,,,,,,,,,,,,,,,,,,,,,,,,,,,,231.91470710001886,232.3153636000352,232.29928800003836,232.39863330003573,232.7997616000357,None,left,1,0.4626243999809958,232.7997616000357,None,232.29928800003836,232.39863330003573,232.39863330003573,None,233.28362350002863,None,,,,,,,11007,001,2024_Jan_01_1430,ANT,2021.2.3,60.274659562034465,
1,16,center,down,IC,R,,,,,,Block.xlsx,"你已经完成了第一个实验区组

请稍作休息


点击空格键进入下一个区组。",0,50,-1.5,right,LLRLL.png,,,,,0,0,0,0,1,21,45,15,,,,,,,,,,,,,,,,,,,,,,,,,,,,,,,,,,,,,,,,,,,,,,,,,,,,,,,,,,,,,,,,,,,,,,233.68390870001167,234.0845823000418,234.06842259998666,234.16860350000206,234.5693050000118,None,right,1,0.5494211000041105,234.5693050000118,None,234.06842259998666,234.16860350000206,234.16860350000206,None,235.1360184000223,None,,,,,,,11007,001,2024_Jan_01_1430,ANT,2021.2.3,60.274659562034465,
1,14,center,down,C,R,,,,,,Block.xlsx,"你已经完成了第一个实验区组

请稍作休息


点击空格键进入下一个区组。",0,50,-1.5,right,RRRRR.png,,,,,0,0,0,0,1,22,46,13,,,,,,,,,,,,,,,,,,,,,,,,,,,,,,,,,,,,,,,,,,,,,,,,,,,,,,,,,,,,,,,,,,,,,,235.53686550003476,235.93768620002083,235.92210249998607,236.02164689998608,236.42124749999493,None,right,1,0.5689638000330888,236.42124749999493,None,235.92210249998607,236.02164689998608,236.02164689998608,None,237.00551789999008,None,,,,,,,11007,001,2024_Jan_01_1430,ANT,2021.2.3,60.274659562034465,
1,17,spatial,up,C,L,,,,,,Block.xlsx,"你已经完成了第一个实验区组

请稍作休息


点击空格键进入下一个区组。",1.5,0,1.5,left,LLLLL.png,,,,,0,0,0,0,1,23,47,16,,,,,,,,,,,,,,,,,,,,,,,,,,,,,,,,,,,,,,,,,,,,,,,,,,,,,,,,,,,,,,,,,,,,,,237.4061490999884,237.80756879999535,237.79018270003144,237.89113970001927,238.29084299999522,None,left,1,0.4115598000353202,238.29084299999522,None,237.79018270003144,237.89113970001927,237.89113970001927,None,238.72486960003152,None,,,,,,,11007,001,2024_Jan_01_1430,ANT,2021.2.3,60.274659562034465,
1,2,no,up,C,R,,,,,,Block.xlsx,"你已经完成了第一个实验区组

请稍作休息


点击空格键进入下一个区组。",50,0,1.5,right,RRRRR.png,,,,,0,0,0,0,2,0,48,1,,,,,,,,,,,,,,,,,,,,,,,,,,,,,,,,,,,,,,,,,,,,,,,,,,,,,,,,,,,,,,,,,,,,,,239.125595599995,239.52625360002276,239.51012280001305,239.60953350004274,240.01013240002794,None,right,1,0.4602461999747902,240.01013240002794,None,239.51012280001305,239.60953350004274,239.60953350004274,None,240.4939003000036,None,,,,,,,11007,001,2024_Jan_01_1430,ANT,2021.2.3,60.274659562034465,
1,22,spatial,down,C,R,,,,,,Block.xlsx,"你已经完成了第一个实验区组

请稍作休息


点击空格键进入下一个区组。",-1.5,0,-1.5,right,RRRRR.png,,,,,0,0,0,0,2,1,49,21,,,,,,,,,,,,,,,,,,,,,,,,,,,,,,,,,,,,,,,,,,,,,,,,,,,,,,,,,,,,,,,,,,,,,,240.89474670001073,241.29609170003096,241.2787118999986,241.37975389999337,241.7806072999956,None,right,1,0.43398590001743287,241.7806072999956,None,241.2787118999986,241.37975389999337,241.37975389999337,None,242.2301626999979,None,,,,,,,11007,001,2024_Jan_01_1430,ANT,2021.2.3,60.274659562034465,
1,9,center,up,C,L,,,,,,Block.xlsx,"你已经完成了第一个实验区组

请稍作休息


点击空格键进入下一个区组。",0,50,1.5,left,LLLLL.png,,,,,0,0,0,0,2,2,50,8,,,,,,,,,,,,,,,,,,,,,,,,,,,,,,,,,,,,,,,,,,,,,,,,,,,,,,,,,,,,,,,,,,,,,,242.63076170004206,243.0322541000205,243.01480500004254,243.11525179998716,243.51533800002653,None,left,1,0.42711140000028536,243.51533800002653,None,243.01480500004254,243.11525179998716,243.11525179998716,None,243.96582959999796,None,,,,,,,11007,001,2024_Jan_01_1430,ANT,2021.2.3,60.274659562034465,
1,9,center,up,C,L,,,,,,Block.xlsx,"你已经完成了第一个实验区组

请稍作休息


点击空格键进入下一个区组。",0,50,1.5,left,LLLLL.png,,,,,0,0,0,0,2,3,51,8,,,,,,,,,,,,,,,,,,,,,,,,,,,,,,,,,,,,,,,,,,,,,,,,,,,,,,,,,,,,,,,,,,,,,,244.36655370000517,244.76750369998626,244.75119939999422,244.85097999998834,245.25116059998982,None,left,1,0.46758779999800026,245.25116059998982,None,244.75119939999422,244.85097999998834,244.85097999998834,None,245.73541500000283,None,,,,,,,11007,001,2024_Jan_01_1430,ANT,2021.2.3,60.274659562034465,
1,12,center,up,IC,R,,,,,,Block.xlsx,"你已经完成了第一个实验区组

请稍作休息


点击空格键进入下一个区组。",0,50,1.5,right,LLRLL.png,,,,,0,0,0,0,2,4,52,11,,,,,,,,,,,,,,,,,,,,,,,,,,,,,,,,,,,,,,,,,,,,,,,,,,,,,,,,,,,,,,,,,,,,,,246.13603009999497,246.53749120002612,246.51995929999975,246.61996790004196,247.0215625000419,None,right,1,0.5608023999957368,247.0215625000419,None,246.51995929999975,246.61996790004196,246.61996790004196,None,247.60477840004023,None,,,,,,,11007,001,2024_Jan_01_1430,ANT,2021.2.3,60.274659562034465,
1,2,no,up,C,R,,,,,,Block.xlsx,"你已经完成了第一个实验区组

请稍作休息


点击空格键进入下一个区组。",50,0,1.5,right,RRRRR.png,,,,,0,0,0,0,2,5,53,1,,,,,,,,,,,,,,,,,,,,,,,,,,,,,,,,,,,,,,,,,,,,,,,,,,,,,,,,,,,,,,,,,,,,,,248.00518080004258,248.40640560002066,248.38926610001363,248.49094650003826,248.89002590003656,None,right,1,0.5643399000400677,248.89002590003656,None,248.38926610001363,248.49094650003826,248.49094650003826,None,249.47396760003176,None,,,,,,,11007,001,2024_Jan_01_1430,ANT,2021.2.3,60.274659562034465,
1,23,spatial,down,IC,L,,,,,,Block.xlsx,"你已经完成了第一个实验区组

请稍作休息


点击空格键进入下一个区组。",-1.5,0,-1.5,left,RRLRR.png,,,,,0,0,0,0,2,6,54,22,,,,,,,,,,,,,,,,,,,,,,,,,,,,,,,,,,,,,,,,,,,,,,,,,,,,,,,,,,,,,,,,,,,,,,249.87464739999268,250.2754094999982,250.26018700003624,250.35950550000416,250.75989089999348,None,left,1,0.4305319999693893,250.75989089999348,None,250.26018700003624,250.35950550000416,250.35950550000416,None,251.2100221000146,None,,,,,,,11007,001,2024_Jan_01_1430,ANT,2021.2.3,60.274659562034465,
1,2,no,up,C,R,,,,,,Block.xlsx,"你已经完成了第一个实验区组

请稍作休息


点击空格键进入下一个区组。",50,0,1.5,right,RRRRR.png,,,,,0,0,0,0,2,7,55,1,,,,,,,,,,,,,,,,,,,,,,,,,,,,,,,,,,,,,,,,,,,,,,,,,,,,,,,,,,,,,,,,,,,,,,251.61078720004298,252.01219280000078,251.99498000001768,252.09500229998957,252.49567840003874,None,right,1,0.5267803000169806,252.49567840003874,None,251.99498000001768,252.09500229998957,252.09500229998957,None,253.0461176999961,None,,,,,,,11007,001,2024_Jan_01_1430,ANT,2021.2.3,60.274659562034465,
1,9,center,up,C,L,,,,,,Block.xlsx,"你已经完成了第一个实验区组

请稍作休息


点击空格键进入下一个区组。",0,50,1.5,left,LLLLL.png,,,,,0,0,0,0,2,8,56,8,,,,,,,,,,,,,,,,,,,,,,,,,,,,,,,,,,,,,,,,,,,,,,,,,,,,,,,,,,,,,,,,,,,,,,253.4473513000412,253.84809939999832,253.83081040001707,253.9307770000305,254.33305070002098,None,left,1,0.529265100019984,254.33305070002098,None,253.83081040001707,253.9307770000305,253.9307770000305,None,254.88221439998597,None,,,,,,,11007,001,2024_Jan_01_1430,ANT,2021.2.3,60.274659562034465,
1,8,no,down,IC,R,,,,,,Block.xlsx,"你已经完成了第一个实验区组

请稍作休息


点击空格键进入下一个区组。",50,0,-1.5,right,LLRLL.png,,,,,0,0,0,0,2,9,57,7,,,,,,,,,,,,,,,,,,,,,,,,,,,,,,,,,,,,,,,,,,,,,,,,,,,,,,,,,,,,,,,,,,,,,,255.2828947000089,255.68324460001895,255.66785640001763,255.76830870000413,256.1678117000265,None,right,1,0.6547721999813803,256.1678117000265,None,255.66785640001763,255.76830870000413,255.76830870000413,None,256.85214239999186,None,,,,,,,11007,001,2024_Jan_01_1430,ANT,2021.2.3,60.274659562034465,
1,16,center,down,IC,R,,,,,,Block.xlsx,"你已经完成了第一个实验区组

请稍作休息


点击空格键进入下一个区组。",0,50,-1.5,right,LLRLL.png,,,,,0,0,0,0,2,10,58,15,,,,,,,,,,,,,,,,,,,,,,,,,,,,,,,,,,,,,,,,,,,,,,,,,,,,,,,,,,,,,,,,,,,,,,257.2526574000367,257.6538076000288,257.63669040001696,257.7372716999962,258.13805050001247,None,right,1,0.5724637999664992,258.13805050001247,None,257.63669040001696,257.7372716999962,257.7372716999962,None,258.7379663999891,None,,,,,,,11007,001,2024_Jan_01_1430,ANT,2021.2.3,60.274659562034465,
1,10,center,up,C,R,,,,,,Block.xlsx,"你已经完成了第一个实验区组

请稍作休息


点击空格键进入下一个区组。",0,50,1.5,right,RRRRR.png,,,,,0,0,0,0,2,11,59,9,,,,,,,,,,,,,,,,,,,,,,,,,,,,,,,,,,,,,,,,,,,,,,,,,,,,,,,,,,,,,,,,,,,,,,259.1385247000144,259.5402584000258,259.5225027000415,259.62414379999973,260.0231991999899,None,right,1,0.44726270000683144,260.0231991999899,None,259.5225027000415,259.62414379999973,259.62414379999973,None,260.4903312000097,None,,,,,,,11007,001,2024_Jan_01_1430,ANT,2021.2.3,60.274659562034465,
1,13,center,down,C,L,,,,,,Block.xlsx,"你已经完成了第一个实验区组

请稍作休息


点击空格键进入下一个区组。",0,50,-1.5,left,LLLLL.png,,,,,0,0,0,0,2,12,60,12,,,,,,,,,,,,,,,,,,,,,,,,,,,,,,,,,,,,,,,,,,,,,,,,,,,,,,,,,,,,,,,,,,,,,,260.89119019999634,261.2931436999934,261.27500010002404,261.3760877000168,261.7756421000231,None,left,1,0.45468379999510944,261.7756421000231,None,261.27500010002404,261.3760877000168,261.3760877000168,None,262.2597952000215,None,,,,,,,11007,001,2024_Jan_01_1430,ANT,2021.2.3,60.274659562034465,
1,18,spatial,up,C,R,,,,,,Block.xlsx,"你已经完成了第一个实验区组

请稍作休息


点击空格键进入下一个区组。",1.5,0,1.5,right,RRRRR.png,,,,,0,0,0,0,2,13,61,17,,,,,,,,,,,,,,,,,,,,,,,,,,,,,,,,,,,,,,,,,,,,,,,,,,,,,,,,,,,,,,,,,,,,,,262.6608813999919,263.06199429999106,263.0442697000108,263.14461600000504,263.54545959999086,None,right,1,0.4051116000046022,263.54545959999086,None,263.0442697000108,263.14461600000504,263.14461600000504,None,263.9788302000379,None,,,,,,,11007,001,2024_Jan_01_1430,ANT,2021.2.3,60.274659562034465,
1,21,spatial,down,C,L,,,,,,Block.xlsx,"你已经完成了第一个实验区组

请稍作休息


点击空格键进入下一个区组。",-1.5,0,-1.5,left,LLLLL.png,,,,,0,0,0,0,2,14,62,20,,,,,,,,,,,,,,,,,,,,,,,,,,,,,,,,,,,,,,,,,,,,,,,,,,,,,,,,,,,,,,,,,,,,,,264.37963129999116,264.78053029999137,264.7635605999967,264.8634779000422,265.26415609999094,None,left,1,0.39821590000065044,265.26415609999094,None,264.7635605999967,264.8634779000422,264.8634779000422,None,265.68150160001824,None,,,,,,,11007,001,2024_Jan_01_1430,ANT,2021.2.3,60.274659562034465,
1,12,center,up,IC,R,,,,,,Block.xlsx,"你已经完成了第一个实验区组

请稍作休息


点击空格键进入下一个区组。",0,50,1.5,right,LLRLL.png,,,,,0,0,0,0,2,15,63,11,,,,,,,,,,,,,,,,,,,,,,,,,,,,,,,,,,,,,,,,,,,,,,,,,,,,,,,,,,,,,,,,,,,,,,266.0822111000307,266.48268150002696,266.46600610000314,266.56603490002453,266.9673252000357,None,right,1,0.471022300014738,266.9673252000357,None,266.46600610000314,266.56603490002453,266.56603490002453,None,267.46735200000694,None,,,,,,,11007,001,2024_Jan_01_1430,ANT,2021.2.3,60.274659562034465,
1,6,no,down,C,R,,,,,,Block.xlsx,"你已经完成了第一个实验区组

请稍作休息


点击空格键进入下一个区组。",50,0,-1.5,right,RRRRR.png,,,,,0,0,0,0,2,16,64,5,,,,,,,,,,,,,,,,,,,,,,,,,,,,,,,,,,,,,,,,,,,,,,,,,,,,,,,,,,,,,,,,,,,,,,267.86811000003945,268.2699674000032,268.2520672000246,268.35319440002786,268.7526460000081,None,right,1,0.4297925000428222,268.7526460000081,None,268.2520672000246,268.35319440002786,268.35319440002786,None,269.20345610001823,None,,,,,,,11007,001,2024_Jan_01_1430,ANT,2021.2.3,60.274659562034465,
1,7,no,down,IC,L,,,,,,Block.xlsx,"你已经完成了第一个实验区组

请稍作休息


点击空格键进入下一个区组。",50,0,-1.5,left,RRLRR.png,,,,,0,0,0,0,2,17,65,6,,,,,,,,,,,,,,,,,,,,,,,,,,,,,,,,,,,,,,,,,,,,,,,,,,,,,,,,,,,,,,,,,,,,,,269.6043475000188,270.0058702999959,269.988499100029,270.08825060003437,270.48918620002223,None,left,1,0.5896737999864854,270.48918620002223,None,269.988499100029,270.08825060003437,270.08825060003437,None,271.1060856000404,None,,,,,,,11007,001,2024_Jan_01_1430,ANT,2021.2.3,60.274659562034465,
1,21,spatial,down,C,L,,,,,,Block.xlsx,"你已经完成了第一个实验区组

请稍作休息


点击空格键进入下一个区组。",-1.5,0,-1.5,left,LLLLL.png,,,,,0,0,0,0,2,18,66,20,,,,,,,,,,,,,,,,,,,,,,,,,,,,,,,,,,,,,,,,,,,,,,,,,,,,,,,,,,,,,,,,,,,,,,271.50682200002484,271.90877939999336,271.8910164000117,271.9911316999933,272.3918706999975,None,left,1,0.3584252999862656,272.3918706999975,None,271.8910164000117,271.9911316999933,271.9911316999933,None,272.7755157999927,None,,,,,,,11007,001,2024_Jan_01_1430,ANT,2021.2.3,60.274659562034465,
1,11,center,up,IC,L,,,,,,Block.xlsx,"你已经完成了第一个实验区组

请稍作休息


点击空格键进入下一个区组。",0,50,1.5,left,RRLRR.png,,,,,0,0,0,0,2,19,67,10,,,,,,,,,,,,,,,,,,,,,,,,,,,,,,,,,,,,,,,,,,,,,,,,,,,,,,,,,,,,,,,,,,,,,,273.1758692000294,273.5767174999928,273.56139230000554,273.676509300014,274.0617198999971,None,left,1,0.5525597000378184,274.0617198999971,None,273.56139230000554,273.676509300014,273.660926200042,None,274.6450484000379,None,,,,,,,11007,001,2024_Jan_01_1430,ANT,2021.2.3,60.274659562034465,
1,7,no,down,IC,L,,,,,,Block.xlsx,"你已经完成了第一个实验区组

请稍作休息


点击空格键进入下一个区组。",50,0,-1.5,left,RRLRR.png,,,,,0,0,0,0,2,20,68,6,,,,,,,,,,,,,,,,,,,,,,,,,,,,,,,,,,,,,,,,,,,,,,,,,,,,,,,,,,,,,,,,,,,,,,275.0456900999998,275.4469567000051,275.42951530002756,275.5303964000195,275.93063950003125,None,left,1,0.6679897999856621,275.93063950003125,None,275.42951530002756,275.5303964000195,275.5303964000195,None,276.6145397000364,None,,,,,,,11007,001,2024_Jan_01_1430,ANT,2021.2.3,60.274659562034465,
1,4,no,up,IC,R,,,,,,Block.xlsx,"你已经完成了第一个实验区组

请稍作休息


点击空格键进入下一个区组。",50,0,1.5,right,LLRLL.png,,,,,0,0,0,0,2,21,69,3,,,,,,,,,,,,,,,,,,,,,,,,,,,,,,,,,,,,,,,,,,,,,,,,,,,,,,,,,,,,,,,,,,,,,,277.0149603000027,277.4156073000049,277.39982600003714,277.499491900031,277.89951060002204,None,right,1,0.5154778000432998,277.89951060002204,None,277.39982600003714,277.499491900031,277.499491900031,None,278.43359700002475,None,,,,,,,11007,001,2024_Jan_01_1430,ANT,2021.2.3,60.274659562034465,
1,1,no,up,C,L,,,,,,Block.xlsx,"你已经完成了第一个实验区组

请稍作休息


点击空格键进入下一个区组。",50,0,1.5,left,LLLLL.png,,,,,0,0,0,0,2,22,70,0,,,,,,,,,,,,,,,,,,,,,,,,,,,,,,,,,,,,,,,,,,,,,,,,,,,,,,,,,,,,,,,,,,,,,,278.83425409998745,279.2348343000049,279.2188865999924,279.31850260001374,279.7188377000275,None,left,1,0.46356579998973757,279.7188377000275,None,279.2188865999924,279.31850260001374,279.31850260001374,None,280.20310049998807,None,,,,,,,11007,001,2024_Jan_01_1430,ANT,2021.2.3,60.274659562034465,
1,12,center,up,IC,R,,,,,,Block.xlsx,"你已经完成了第一个实验区组

请稍作休息


点击空格键进入下一个区组。",0,50,1.5,right,LLRLL.png,,,,,0,0,0,0,2,23,71,11,,,,,,,,,,,,,,,,,,,,,,,,,,,,,,,,,,,,,,,,,,,,,,,,,,,,,,,,,,,,,,,,,,,,,,280.60384280001745,281.00492680002935,280.98795899999095,281.08811330003664,281.48895410000114,None,right,1,0.5417163000092842,281.48895410000114,None,280.98795899999095,281.08811330003664,281.08811330003664,None,282.05578799999785,None,,,,,,,11007,001,2024_Jan_01_1430,ANT,2021.2.3,60.274659562034465,
1,20,spatial,up,IC,R,,,,,,Block.xlsx,"你已经完成了第一个实验区组

请稍作休息


点击空格键进入下一个区组。",1.5,0,1.5,right,LLRLL.png,,,,,0,0,0,0,3,0,72,19,,,,,,,,,,,,,,,,,,,,,,,,,,,,,,,,,,,,,,,,,,,,,,,,,,,,,,,,,,,,,,,,,,,,,,282.45613800000865,282.8579613000038,282.8404717000085,282.941151200037,283.3416895000264,None,right,1,0.4171002000221051,283.3416895000264,None,282.8404717000085,282.941151200037,282.941151200037,None,283.7748321000254,None,,,,,,,11007,001,2024_Jan_01_1430,ANT,2021.2.3,60.274659562034465,
1,21,spatial,down,C,L,,,,,,Block.xlsx,"你已经完成了第一个实验区组

请稍作休息


点击空格键进入下一个区组。",-1.5,0,-1.5,left,LLLLL.png,,,,,0,0,0,0,3,1,73,20,,,,,,,,,,,,,,,,,,,,,,,,,,,,,,,,,,,,,,,,,,,,,,,,,,,,,,,,,,,,,,,,,,,,,,284.17582410003524,284.57623410003725,284.5611026000115,284.6607870000298,285.0613663000404,None,left,1,0.3451796999434009,285.0613663000404,None,284.5611026000115,284.6607870000298,284.6607870000298,None,285.4273314999882,None,,,,,,,11007,001,2024_Jan_01_1430,ANT,2021.2.3,60.274659562034465,
1,6,no,down,C,R,,,,,,Block.xlsx,"你已经完成了第一个实验区组

请稍作休息


点击空格键进入下一个区组。",50,0,-1.5,right,RRRRR.png,,,,,0,0,0,0,3,2,74,5,,,,,,,,,,,,,,,,,,,,,,,,,,,,,,,,,,,,,,,,,,,,,,,,,,,,,,,,,,,,,,,,,,,,,,285.8280630999943,286.22959930001525,286.2119703000062,286.3123235999956,286.7130661000265,None,right,1,0.46958159998757765,286.7130661000265,None,286.2119703000062,286.3123235999956,286.3123235999956,None,287.2134912000038,None,,,,,,,11007,001,2024_Jan_01_1430,ANT,2021.2.3,60.274659562034465,
1,10,center,up,C,R,,,,,,Block.xlsx,"你已经完成了第一个实验区组

请稍作休息


点击空格键进入下一个区组。",0,50,1.5,right,RRRRR.png,,,,,0,0,0,0,3,3,75,9,,,,,,,,,,,,,,,,,,,,,,,,,,,,,,,,,,,,,,,,,,,,,,,,,,,,,,,,,,,,,,,,,,,,,,287.6138143000426,288.0144890000229,287.9986091000028,288.09820200002287,288.49875570001313,None,right,1,0.4597590999910608,288.49875570001313,None,287.9986091000028,288.09820200002287,288.09820200002287,None,288.9827810000279,None,,,,,,,11007,001,2024_Jan_01_1430,ANT,2021.2.3,60.274659562034465,
1,11,center,up,IC,L,,,,,,Block.xlsx,"你已经完成了第一个实验区组

请稍作休息


点击空格键进入下一个区组。",0,50,1.5,left,RRLRR.png,,,,,0,0,0,0,3,4,76,10,,,,,,,,,,,,,,,,,,,,,,,,,,,,,,,,,,,,,,,,,,,,,,,,,,,,,,,,,,,,,,,,,,,,,,289.38336159999017,289.78510700003244,289.76790430000983,289.8678886000416,290.2685897999909,None,left,1,0.5059874000144191,290.2685897999909,None,289.76790430000983,289.8678886000416,289.8678886000416,None,290.80204530002084,None,,,,,,,11007,001,2024_Jan_01_1430,ANT,2021.2.3,60.274659562034465,
1,7,no,down,IC,L,,,,,,Block.xlsx,"你已经完成了第一个实验区组

请稍作休息


点击空格键进入下一个区组。",50,0,-1.5,left,RRLRR.png,,,,,0,0,0,0,3,5,77,6,,,,,,,,,,,,,,,,,,,,,,,,,,,,,,,,,,,,,,,,,,,,,,,,,,,,,,,,,,,,,,,,,,,,,,291.2030686000362,291.60501250001835,291.5867455000407,291.68667820002884,292.08850110002095,None,left,1,0.597845199983567,292.08850110002095,None,291.5867455000407,291.68667820002884,291.68667820002884,None,292.7048712000251,None,,,,,,,11007,001,2024_Jan_01_1430,ANT,2021.2.3,60.274659562034465,
1,1,no,up,C,L,,,,,,Block.xlsx,"你已经完成了第一个实验区组

请稍作休息


点击空格键进入下一个区组。",50,0,1.5,left,LLLLL.png,,,,,0,0,0,0,3,6,78,0,,,,,,,,,,,,,,,,,,,,,,,,,,,,,,,,,,,,,,,,,,,,,,,,,,,,,,,,,,,,,,,,,,,,,,293.1053305999958,293.5062515999889,293.49076780001633,293.589543100039,293.9902299999958,None,left,1,0.41660350002348423,293.9902299999958,None,293.49076780001633,293.589543100039,293.589543100039,None,294.42398040002445,None,,,,,,,11007,001,2024_Jan_01_1430,ANT,2021.2.3,60.274659562034465,
1,20,spatial,up,IC,R,,,,,,Block.xlsx,"你已经完成了第一个实验区组

请稍作休息


点击空格键进入下一个区组。",1.5,0,1.5,right,LLRLL.png,,,,,0,0,0,0,3,7,79,19,,,,,,,,,,,,,,,,,,,,,,,,,,,,,,,,,,,,,,,,,,,,,,,,,,,,,,,,,,,,,,,,,,,,,,294.8247021000134,295.22573290002765,295.2085739999893,295.30974240001524,295.7105244999984,None,right,1,0.42402320000110194,295.7105244999984,None,295.2085739999893,295.30974240001524,295.30974240001524,None,296.1601471999893,None,,,,,,,11007,001,2024_Jan_01_1430,ANT,2021.2.3,60.274659562034465,
1,14,center,down,C,R,,,,,,Block.xlsx,"你已经完成了第一个实验区组

请稍作休息


点击空格键进入下一个区组。",0,50,-1.5,right,RRRRR.png,,,,,0,0,0,0,3,8,80,13,,,,,,,,,,,,,,,,,,,,,,,,,,,,,,,,,,,,,,,,,,,,,,,,,,,,,,,,,,,,,,,,,,,,,,296.5607676000218,296.9616643000045,296.945662299986,297.0450269000139,297.446760300023,None,right,1,0.4395284000202082,297.446760300023,None,296.945662299986,297.0450269000139,297.0450269000139,None,297.9125313000404,None,,,,,,,11007,001,2024_Jan_01_1430,ANT,2021.2.3,60.274659562034465,
1,5,no,down,C,L,,,,,,Block.xlsx,"你已经完成了第一个实验区组

请稍作休息


点击空格键进入下一个区组。",50,0,-1.5,left,LLLLL.png,,,,,0,0,0,0,3,9,81,4,,,,,,,,,,,,,,,,,,,,,,,,,,,,,,,,,,,,,,,,,,,,,,,,,,,,,,,,,,,,,,,,,,,,,,298.31315190001624,298.7141579000163,298.69737990002614,298.79824850003934,299.1982689999859,None,left,1,0.47239409998292103,299.1982689999859,None,298.69737990002614,298.79824850003934,298.79824850003934,None,299.69866829999955,None,,,,,,,11007,001,2024_Jan_01_1430,ANT,2021.2.3,60.274659562034465,
1,24,spatial,down,IC,R,,,,,,Block.xlsx,"你已经完成了第一个实验区组

请稍作休息


点击空格键进入下一个区组。",-1.5,0,-1.5,right,LLRLL.png,,,,,0,0,0,0,3,10,82,23,,,,,,,,,,,,,,,,,,,,,,,,,,,,,,,,,,,,,,,,,,,,,,,,,,,,,,,,,,,,,,,,,,,,,,300.0990510000265,300.50009430001955,300.48350239999127,300.5843068000395,300.9850301000406,None,right,1,0.4853315000073053,300.9850301000406,None,300.48350239999127,300.5843068000395,300.5843068000395,None,301.5013316000113,None,,,,,,,11007,001,2024_Jan_01_1430,ANT,2021.2.3,60.274659562034465,
1,3,no,up,IC,L,,,,,,Block.xlsx,"你已经完成了第一个实验区组

请稍作休息


点击空格键进入下一个区组。",50,0,1.5,left,RRLRR.png,,,,,0,0,0,0,3,11,83,2,,,,,,,,,,,,,,,,,,,,,,,,,,,,,,,,,,,,,,,,,,,,,,,,,,,,,,,,,,,,,,,,,,,,,,301.90213920001406,302.30359840003075,302.2856918000034,302.3867256999947,302.78734290000284,None,left,1,0.571295999980066,302.78734290000284,None,302.2856918000034,302.3867256999947,302.3867256999947,None,303.38729169999715,None,,,,,,,11007,001,2024_Jan_01_1430,ANT,2021.2.3,60.274659562034465,
1,6,no,down,C,R,,,,,,Block.xlsx,"你已经完成了第一个实验区组

请稍作休息


点击空格键进入下一个区组。",50,0,-1.5,right,RRRRR.png,,,,,0,0,0,0,3,12,84,5,,,,,,,,,,,,,,,,,,,,,,,,,,,,,,,,,,,,,,,,,,,,,,,,,,,,,,,,,,,,,,,,,,,,,,303.7879117000266,304.18855210003676,304.17299600003753,304.2723830000032,304.67353229998844,None,right,1,0.39688030001707375,304.67353229998844,None,304.17299600003753,304.2723830000032,304.2723830000032,None,305.08986460004235,None,,,,,,,11007,001,2024_Jan_01_1430,ANT,2021.2.3,60.274659562034465,
1,3,no,up,IC,L,,,,,,Block.xlsx,"你已经完成了第一个实验区组

请稍作休息


点击空格键进入下一个区组。",50,0,1.5,left,RRLRR.png,,,,,0,0,0,0,3,13,85,2,,,,,,,,,,,,,,,,,,,,,,,,,,,,,,,,,,,,,,,,,,,,,,,,,,,,,,,,,,,,,,,,,,,,,,305.4904915000079,305.8920545000001,305.8749470000039,305.97569460002705,306.3752281999914,None,left,1,0.5031897000153549,306.3752281999914,None,305.8749470000039,305.97569460002705,305.97569460002705,None,306.90919830003986,None,,,,,,,11007,001,2024_Jan_01_1430,ANT,2021.2.3,60.274659562034465,
1,8,no,down,IC,R,,,,,,Block.xlsx,"你已经完成了第一个实验区组

请稍作休息


点击空格键进入下一个区组。",50,0,-1.5,right,LLRLL.png,,,,,0,0,0,0,3,14,86,7,,,,,,,,,,,,,,,,,,,,,,,,,,,,,,,,,,,,,,,,,,,,,,,,,,,,,,,,,,,,,,,,,,,,,,307.3100889000343,307.7106276000268,307.69391160004307,307.7949416000047,308.19438220001757,None,right,1,0.5645958000095561,308.19438220001757,None,307.69391160004307,307.7949416000047,307.7949416000047,None,308.7787311000284,None,,,,,,,11007,001,2024_Jan_01_1430,ANT,2021.2.3,60.274659562034465,
1,17,spatial,up,C,L,,,,,,Block.xlsx,"你已经完成了第一个实验区组

请稍作休息


点击空格键进入下一个区组。",1.5,0,1.5,left,LLLLL.png,,,,,0,0,0,0,3,15,87,16,,,,,,,,,,,,,,,,,,,,,,,,,,,,,,,,,,,,,,,,,,,,,,,,,,,,,,,,,,,,,,,,,,,,,,309.1794504999998,309.5809051000397,309.5639494000352,309.66331130004255,310.06452110002283,None,left,1,0.3420274999807589,310.06452110002283,None,309.5639494000352,309.66331130004255,309.66331130004255,None,310.4311153999879,None,,,,,,,11007,001,2024_Jan_01_1430,ANT,2021.2.3,60.274659562034465,
1,14,center,down,C,R,,,,,,Block.xlsx,"你已经完成了第一个实验区组

请稍作休息


点击空格键进入下一个区组。",0,50,-1.5,right,RRRRR.png,,,,,0,0,0,0,3,16,88,13,,,,,,,,,,,,,,,,,,,,,,,,,,,,,,,,,,,,,,,,,,,,,,,,,,,,,,,,,,,,,,,,,,,,,,310.8320306999958,311.23249910003506,311.2175098999869,311.3167256999877,311.7164322999888,None,right,1,0.43417959997896105,311.7164322999888,None,311.2175098999869,311.3167256999877,311.3167256999877,None,312.1671040999936,None,,,,,,,11007,001,2024_Jan_01_1430,ANT,2021.2.3,60.274659562034465,
1,13,center,down,C,L,,,,,,Block.xlsx,"你已经完成了第一个实验区组

请稍作休息


点击空格键进入下一个区组。",0,50,-1.5,left,LLLLL.png,,,,,0,0,0,0,3,17,89,12,,,,,,,,,,,,,,,,,,,,,,,,,,,,,,,,,,,,,,,,,,,,,,,,,,,,,,,,,,,,,,,,,,,,,,312.5679224000196,312.9693735000328,312.95147259999067,313.0518157000188,313.4535293999943,None,left,1,0.3849247000180185,313.4535293999943,None,312.95147259999067,313.0518157000188,313.0518157000188,None,313.86955810000654,None,,,,,,,11007,001,2024_Jan_01_1430,ANT,2021.2.3,60.274659562034465,
1,8,no,down,IC,R,,,,,,Block.xlsx,"你已经完成了第一个实验区组

请稍作休息


点击空格键进入下一个区组。",50,0,-1.5,right,LLRLL.png,,,,,0,0,0,0,3,18,90,7,,,,,,,,,,,,,,,,,,,,,,,,,,,,,,,,,,,,,,,,,,,,,,,,,,,,,,,,,,,,,,,,,,,,,,314.2701468000305,314.67127099999925,314.6543376999907,314.75484280003,315.1550341999973,None,right,1,0.4994398999842815,315.1550341999973,None,314.6543376999907,314.75484280003,314.75484280003,None,315.67205620004097,None,,,,,,,11007,001,2024_Jan_01_1430,ANT,2021.2.3,60.274659562034465,
1,22,spatial,down,C,R,,,,,,Block.xlsx,"你已经完成了第一个实验区组

请稍作休息


点击空格键进入下一个区组。",-1.5,0,-1.5,right,RRRRR.png,,,,,0,0,0,0,3,19,91,21,,,,,,,,,,,,,,,,,,,,,,,,,,,,,,,,,,,,,,,,,,,,,,,,,,,,,,,,,,,,,,,,,,,,,,316.0727278999984,316.4746071000118,316.4571753999917,316.55689280002844,316.9584205999854,None,right,1,0.40009579999605194,316.9584205999854,None,316.4571753999917,316.55689280002844,316.55689280002844,None,317.37465320003685,None,,,,,,,11007,001,2024_Jan_01_1430,ANT,2021.2.3,60.274659562034465,
1,15,center,down,IC,L,,,,,,Block.xlsx,"你已经完成了第一个实验区组

请稍作休息


点击空格键进入下一个区组。",0,50,-1.5,left,RRLRR.png,,,,,0,0,0,0,3,20,92,14,,,,,,,,,,,,,,,,,,,,,,,,,,,,,,,,,,,,,,,,,,,,,,,,,,,,,,,,,,,,,,,,,,,,,,317.7753004000406,318.1769064000109,318.1592976000393,318.259368500032,318.66031010000734,None,left,1,0.5463061000336893,318.66031010000734,None,318.1592976000393,318.259368500032,318.259368500032,None,319.2275696999859,None,,,,,,,11007,001,2024_Jan_01_1430,ANT,2021.2.3,60.274659562034465,
1,15,center,down,IC,L,,,,,,Block.xlsx,"你已经完成了第一个实验区组

请稍作休息


点击空格键进入下一个区组。",0,50,-1.5,left,RRLRR.png,,,,,0,0,0,0,3,21,93,14,,,,,,,,,,,,,,,,,,,,,,,,,,,,,,,,,,,,,,,,,,,,,,,,,,,,,,,,,,,,,,,,,,,,,,319.6289589999942,320.0296042000409,320.01217920001363,320.11268449999625,320.51387560000876,None,left,1,0.4607588999788277,320.51387560000876,None,320.01217920001363,320.11268449999625,320.11268449999625,None,320.99672830000054,None,,,,,,,11007,001,2024_Jan_01_1430,ANT,2021.2.3,60.274659562034465,
1,23,spatial,down,IC,L,,,,,,Block.xlsx,"你已经完成了第一个实验区组

请稍作休息


点击空格键进入下一个区组。",-1.5,0,-1.5,left,RRLRR.png,,,,,0,0,0,0,3,22,94,22,,,,,,,,,,,,,,,,,,,,,,,,,,,,,,,,,,,,,,,,,,,,,,,,,,,,,,,,,,,,,,,,,,,,,,321.3977674000198,321.79931050003506,321.78172960004304,321.8826022000285,322.281912400038,None,left,1,0.4689348000101745,322.281912400038,None,321.78172960004304,321.8826022000285,321.8826022000285,None,322.7661856000195,None,,,,,,,11007,001,2024_Jan_01_1430,ANT,2021.2.3,60.274659562034465,
1,11,center,up,IC,L,,,,,,Block.xlsx,"你已经完成了第一个实验区组

请稍作休息


点击空格键进入下一个区组。",0,50,1.5,left,RRLRR.png,,,,,0,0,0,0,3,23,95,10,,,,,,,,,,,,,,,,,,,,,,,,,,,,,,,,,,,,,,,,,,,,,,,,,,,,,,,,,,,,,,,,,,,,,,323.16680820001056,323.5692720999941,323.55053460004274,323.65149220003514,324.05228200001875,None,left,1,0.5860874999780208,324.05228200001875,None,323.55053460004274,323.65149220003514,323.65149220003514,None,324.6687699999893,None,,,,,,,11007,001,2024_Jan_01_1430,ANT,2021.2.3,60.274659562034465,
,,,,,,,,,,,Block.xlsx,"你已经完成了第一个实验区组

请稍作休息


点击空格键进入下一个区组。",,,,,,,,,,0,0,0,0,,,,,,,,,,,,,,,,,,,,,,,,,,,,,,,,,,,,,,,,,,,,,,,,,,,,,,,,,,,,,,,,,,,,,,,,,,,,,,,,,,,,,,,,,,,space,3.3839435999980196,325.0868032000144,None,325.0868032000144,None,11007,001,2024_Jan_01_1430,ANT,2021.2.3,60.274659562034465,
1,4,no,up,IC,R,,,,,,Block.xlsx,"你已经完成了整个实验（三个区组）。

请报告实验者已完成实验

非常感谢，再见！",50,0,1.5,right,LLRLL.png,,,,,0,1,1,1,0,0,0,3,,,,,,,,,,,,,,,,,,,,,,,,,,,,,,,,,,,,,,,,,,,,,,,,,,,,,,,,,,,,,,,,,,,,,,328.5077934000292,328.9086050000042,328.8921294999891,328.99270579998847,329.39343649998773,None,right,1,0.5489519000402652,329.39343649998773,None,328.8921294999891,328.99270579998847,328.99270579998847,None,329.96011380001437,None,,,,,,,11007,001,2024_Jan_01_1430,ANT,2021.2.3,60.274659562034465,
1,8,no,down,IC,R,,,,,,Block.xlsx,"你已经完成了整个实验（三个区组）。

请报告实验者已完成实验

非常感谢，再见！",50,0,-1.5,right,LLRLL.png,,,,,0,1,1,1,0,1,1,7,,,,,,,,,,,,,,,,,,,,,,,,,,,,,,,,,,,,,,,,,,,,,,,,,,,,,,,,,,,,,,,,,,,,,,330.36059430002933,330.76172980002593,330.74455030000536,330.84551569999894,331.24553760001436,None,right,1,0.5529714999720454,331.24553760001436,None,330.74455030000536,330.84551569999894,330.84551569999894,None,331.83006499998737,None,,,,,,,11007,001,2024_Jan_01_1430,ANT,2021.2.3,60.274659562034465,
1,6,no,down,C,R,,,,,,Block.xlsx,"你已经完成了整个实验（三个区组）。

请报告实验者已完成实验

非常感谢，再见！",50,0,-1.5,right,RRRRR.png,,,,,0,1,1,1,0,2,2,5,,,,,,,,,,,,,,,,,,,,,,,,,,,,,,,,,,,,,,,,,,,,,,,,,,,,,,,,,,,,,,,,,,,,,,332.230126200011,332.6313468000153,332.61407050001435,332.7150432000053,333.11476850003237,None,right,1,0.6278947999817319,333.11476850003237,None,332.61407050001435,332.7150432000053,332.7150432000053,None,333.7657831000397,None,,,,,,,11007,001,2024_Jan_01_1430,ANT,2021.2.3,60.274659562034465,
1,7,no,down,IC,L,,,,,,Block.xlsx,"你已经完成了整个实验（三个区组）。

请报告实验者已完成实验

非常感谢，再见！",50,0,-1.5,left,RRLRR.png,,,,,0,1,1,1,0,3,3,6,,,,,,,,,,,,,,,,,,,,,,,,,,,,,,,,,,,,,,,,,,,,,,,,,,,,,,,,,,,,,,,,,,,,,,334.1667977999896,334.56720819999464,334.55014050001046,334.65098350000335,335.05171999998856,None,left,1,0.5226751000154763,335.05171999998856,None,334.55014050001046,334.65098350000335,334.65098350000335,None,335.60438149998663,None,,,,,,,11007,001,2024_Jan_01_1430,ANT,2021.2.3,60.274659562034465,
1,21,spatial,down,C,L,,,,,,Block.xlsx,"你已经完成了整个实验（三个区组）。

请报告实验者已完成实验

非常感谢，再见！",-1.5,0,-1.5,left,LLLLL.png,,,,,0,1,1,1,0,4,4,20,,,,,,,,,,,,,,,,,,,,,,,,,,,,,,,,,,,,,,,,,,,,,,,,,,,,,,,,,,,,,,,,,,,,,,336.0028261000407,336.4043280000333,336.38646690000314,336.48652020003647,336.88714499998605,None,left,1,0.3675251000095159,336.88714499998605,None,336.38646690000314,336.48652020003647,336.48652020003647,None,337.2709612000035,None,,,,,,,11007,001,2024_Jan_01_1430,ANT,2021.2.3,60.274659562034465,
1,9,center,up,C,L,,,,,,Block.xlsx,"你已经完成了整个实验（三个区组）。

请报告实验者已完成实验

非常感谢，再见！",0,50,1.5,left,LLLLL.png,,,,,0,1,1,1,0,5,5,8,,,,,,,,,,,,,,,,,,,,,,,,,,,,,,,,,,,,,,,,,,,,,,,,,,,,,,,,,,,,,,,,,,,,,,337.67196150001837,338.07214750000276,338.05536390002817,338.1559727000422,338.5565397000173,None,left,1,0.3699453999870457,338.5565397000173,None,338.05536390002817,338.1559727000422,338.1559727000422,None,338.95652190002147,None,,,,,,,11007,001,2024_Jan_01_1430,ANT,2021.2.3,60.274659562034465,
1,20,spatial,up,IC,R,,,,,,Block.xlsx,"你已经完成了整个实验（三个区组）。

请报告实验者已完成实验

非常感谢，再见！",1.5,0,1.5,right,LLRLL.png,,,,,0,1,1,1,0,6,6,19,,,,,,,,,,,,,,,,,,,,,,,,,,,,,,,,,,,,,,,,,,,,,,,,,,,,,,,,,,,,,,,,,,,,,,339.35719380003866,339.7583988000406,339.7412352000247,339.8419297999935,340.2428418000345,None,right,1,0.44369250000454485,340.2428418000345,None,339.7412352000247,339.8419297999935,339.8419297999935,None,340.70937210001284,None,,,,,,,11007,001,2024_Jan_01_1430,ANT,2021.2.3,60.274659562034465,
1,21,spatial,down,C,L,,,,,,Block.xlsx,"你已经完成了整个实验（三个区组）。

请报告实验者已完成实验

非常感谢，再见！",-1.5,0,-1.5,left,LLLLL.png,,,,,0,1,1,1,0,7,7,20,,,,,,,,,,,,,,,,,,,,,,,,,,,,,,,,,,,,,,,,,,,,,,,,,,,,,,,,,,,,,,,,,,,,,,341.11002090002876,341.5110838999972,341.4939494000282,341.59402960003354,341.99467430001823,None,left,1,0.34769650001544505,341.99467430001823,None,341.4939494000282,341.59402960003354,341.59402960003354,None,342.36173370003235,None,,,,,,,11007,001,2024_Jan_01_1430,ANT,2021.2.3,60.274659562034465,
1,9,center,up,C,L,,,,,,Block.xlsx,"你已经完成了整个实验（三个区组）。

请报告实验者已完成实验

非常感谢，再见！",0,50,1.5,left,LLLLL.png,,,,,0,1,1,1,0,8,8,8,,,,,,,,,,,,,,,,,,,,,,,,,,,,,,,,,,,,,,,,,,,,,,,,,,,,,,,,,,,,,,,,,,,,,,342.76245470001595,343.16386110003805,343.147048600018,343.24644260003697,343.6471218999941,None,left,1,0.35942259995499626,343.6471218999941,None,343.147048600018,343.24644260003697,343.24644260003697,None,344.03099709999515,None,,,,,,,11007,001,2024_Jan_01_1430,ANT,2021.2.3,60.274659562034465,
1,23,spatial,down,IC,L,,,,,,Block.xlsx,"你已经完成了整个实验（三个区组）。

请报告实验者已完成实验

非常感谢，再见！",-1.5,0,-1.5,left,RRLRR.png,,,,,0,1,1,1,0,9,9,22,,,,,,,,,,,,,,,,,,,,,,,,,,,,,,,,,,,,,,,,,,,,,,,,,,,,,,,,,,,,,,,,,,,,,,344.43172150000464,344.8335016000201,344.8156278000097,344.91615210002055,345.31691090000095,None,left,1,0.4502856999752112,345.31691090000095,None,344.8156278000097,344.91615210002055,344.91615210002055,None,345.7833946000319,None,,,,,,,11007,001,2024_Jan_01_1430,ANT,2021.2.3,60.274659562034465,
1,3,no,up,IC,L,,,,,,Block.xlsx,"你已经完成了整个实验（三个区组）。

请报告实验者已完成实验

非常感谢，再见！",50,0,1.5,left,RRLRR.png,,,,,0,1,1,1,0,10,10,2,,,,,,,,,,,,,,,,,,,,,,,,,,,,,,,,,,,,,,,,,,,,,,,,,,,,,,,,,,,,,,,,,,,,,,346.18455220002215,346.5865660000127,346.5695096999989,346.68477210000856,347.0701958000427,None,left,1,0.4488221000065096,347.0701958000427,None,346.5695096999989,346.68477210000856,346.66928219998954,None,347.5363060000236,None,,,,,,,11007,001,2024_Jan_01_1430,ANT,2021.2.3,60.274659562034465,
1,19,spatial,up,IC,L,,,,,,Block.xlsx,"你已经完成了整个实验（三个区组）。

请报告实验者已完成实验

非常感谢，再见！",1.5,0,1.5,left,RRLRR.png,,,,,0,1,1,1,0,11,11,18,,,,,,,,,,,,,,,,,,,,,,,,,,,,,,,,,,,,,,,,,,,,,,,,,,,,,,,,,,,,,,,,,,,,,,347.9367940000375,348.3371915000025,348.3204929000349,348.4214566000155,348.82202459999826,None,left,1,0.4726818999624811,348.82202459999826,None,348.3204929000349,348.4214566000155,348.4214566000155,None,349.3222022000118,None,,,,,,,11007,001,2024_Jan_01_1430,ANT,2021.2.3,60.274659562034465,
1,15,center,down,IC,L,,,,,,Block.xlsx,"你已经完成了整个实验（三个区组）。

请报告实验者已完成实验

非常感谢，再见！",0,50,-1.5,left,RRLRR.png,,,,,0,1,1,1,0,12,12,14,,,,,,,,,,,,,,,,,,,,,,,,,,,,,,,,,,,,,,,,,,,,,,,,,,,,,,,,,,,,,,,,,,,,,,349.7227916000411,350.12398979999125,350.1067847000086,350.20692269998835,350.6077046000282,None,left,1,0.470849699981045,350.6077046000282,None,350.1067847000086,350.20692269998835,350.20692269998835,None,351.1080464000115,None,,,,,,,11007,001,2024_Jan_01_1430,ANT,2021.2.3,60.274659562034465,
1,22,spatial,down,C,R,,,,,,Block.xlsx,"你已经完成了整个实验（三个区组）。

请报告实验者已完成实验

非常感谢，再见！",-1.5,0,-1.5,right,RRRRR.png,,,,,0,1,1,1,0,13,13,21,,,,,,,,,,,,,,,,,,,,,,,,,,,,,,,,,,,,,,,,,,,,,,,,,,,,,,,,,,,,,,,,,,,,,,351.5089524000068,351.90942730003735,351.893226300017,351.99298530002125,352.39396240003407,None,right,1,0.39663749997271225,352.39396240003407,None,351.893226300017,351.99298530002125,351.99298530002125,None,352.8106762000243,None,,,,,,,11007,001,2024_Jan_01_1430,ANT,2021.2.3,60.274659562034465,
1,20,spatial,up,IC,R,,,,,,Block.xlsx,"你已经完成了整个实验（三个区组）。

请报告实验者已完成实验

非常感谢，再见！",1.5,0,1.5,right,LLRLL.png,,,,,0,1,1,1,0,14,14,19,,,,,,,,,,,,,,,,,,,,,,,,,,,,,,,,,,,,,,,,,,,,,,,,,,,,,,,,,,,,,,,,,,,,,,353.21131750004133,353.61206870002206,353.5963556999923,353.71209340001224,354.09601040004054,None,right,1,0.4464966999948956,354.09601040004054,None,353.5963556999923,353.71209340001224,353.69629610003904,None,354.5630617000279,None,,,,,,,11007,001,2024_Jan_01_1430,ANT,2021.2.3,60.274659562034465,
1,19,spatial,up,IC,L,,,,,,Block.xlsx,"你已经完成了整个实验（三个区组）。

请报告实验者已完成实验

非常感谢，再见！",1.5,0,1.5,left,RRLRR.png,,,,,0,1,1,1,0,15,15,18,,,,,,,,,,,,,,,,,,,,,,,,,,,,,,,,,,,,,,,,,,,,,,,,,,,,,,,,,,,,,,,,,,,,,,354.9636753000086,355.3656034999876,355.3488273000112,355.4483853999991,355.8494761000038,None,left,1,0.3894160999916494,355.8494761000038,None,355.3488273000112,355.4483853999991,355.4483853999991,None,356.2656662000227,None,,,,,,,11007,001,2024_Jan_01_1430,ANT,2021.2.3,60.274659562034465,
1,2,no,up,C,R,,,,,,Block.xlsx,"你已经完成了整个实验（三个区组）。

请报告实验者已完成实验

非常感谢，再见！",50,0,1.5,right,RRRRR.png,,,,,0,1,1,1,0,16,16,1,,,,,,,,,,,,,,,,,,,,,,,,,,,,,,,,,,,,,,,,,,,,,,,,,,,,,,,,,,,,,,,,,,,,,,356.6663726000115,357.0676862000255,357.05031000002054,357.1503466999857,357.5509938999894,None,right,1,0.567773999995552,357.5509938999894,None,357.05031000002054,357.1503466999857,357.1503466999857,None,358.13521700003184,None,,,,,,,11007,001,2024_Jan_01_1430,ANT,2021.2.3,60.274659562034465,
1,8,no,down,IC,R,,,,,,Block.xlsx,"你已经完成了整个实验（三个区组）。

请报告实验者已完成实验

非常感谢，再见！",50,0,-1.5,right,LLRLL.png,,,,,0,1,1,1,0,17,17,7,,,,,,,,,,,,,,,,,,,,,,,,,,,,,,,,,,,,,,,,,,,,,,,,,,,,,,,,,,,,,,,,,,,,,,358.53582029999234,358.93738790001953,358.9202481000102,359.0203912000288,359.42124019999756,None,right,1,0.6653663000324741,359.42124019999756,None,358.9202481000102,359.0203912000288,359.0203912000288,None,360.1047241000342,None,,,,,,,11007,001,2024_Jan_01_1430,ANT,2021.2.3,60.274659562034465,
1,1,no,up,C,L,,,,,,Block.xlsx,"你已经完成了整个实验（三个区组）。

请报告实验者已完成实验

非常感谢，再见！",50,0,1.5,left,LLLLL.png,,,,,0,1,1,1,0,18,18,0,,,,,,,,,,,,,,,,,,,,,,,,,,,,,,,,,,,,,,,,,,,,,,,,,,,,,,,,,,,,,,,,,,,,,,360.50530530000106,360.906327100005,360.88926060002996,360.9904189000372,361.3899257000303,None,left,1,0.4486163000110537,361.3899257000303,None,360.88926060002996,360.9904189000372,360.9904189000372,None,361.85763879999286,None,,,,,,,11007,001,2024_Jan_01_1430,ANT,2021.2.3,60.274659562034465,
1,1,no,up,C,L,,,,,,Block.xlsx,"你已经完成了整个实验（三个区组）。

请报告实验者已完成实验

非常感谢，再见！",50,0,1.5,left,LLLLL.png,,,,,0,1,1,1,0,19,19,0,,,,,,,,,,,,,,,,,,,,,,,,,,,,,,,,,,,,,,,,,,,,,,,,,,,,,,,,,,,,,,,,,,,,,,362.2578774000285,362.65900320000947,362.64308870001696,362.7422183000017,363.14290480001364,None,left,1,0.41556240001227707,363.14290480001364,None,362.64308870001696,362.7422183000017,362.7422183000017,None,363.57652390003204,None,,,,,,,11007,001,2024_Jan_01_1430,ANT,2021.2.3,60.274659562034465,
1,15,center,down,IC,L,,,,,,Block.xlsx,"你已经完成了整个实验（三个区组）。

请报告实验者已完成实验

非常感谢，再见！",0,50,-1.5,left,RRLRR.png,,,,,0,1,1,1,0,20,20,14,,,,,,,,,,,,,,,,,,,,,,,,,,,,,,,,,,,,,,,,,,,,,,,,,,,,,,,,,,,,,,,,,,,,,,363.97729559999425,364.37785410002107,364.3611770000425,364.461868399987,364.862551600032,None,left,1,0.5361252999864519,364.862551600032,None,364.3611770000425,364.461868399987,364.461868399987,None,365.42931740003405,None,,,,,,,11007,001,2024_Jan_01_1430,ANT,2021.2.3,60.274659562034465,
1,19,spatial,up,IC,L,,,,,,Block.xlsx,"你已经完成了整个实验（三个区组）。

请报告实验者已完成实验

非常感谢，再见！",1.5,0,1.5,left,RRLRR.png,,,,,0,1,1,1,0,21,21,18,,,,,,,,,,,,,,,,,,,,,,,,,,,,,,,,,,,,,,,,,,,,,,,,,,,,,,,,,,,,,,,,,,,,,,365.82991450000554,366.231134200003,366.21386740001617,366.31457250000676,366.71562189998804,None,left,1,0.4430498000001535,366.71562189998804,None,366.21386740001617,366.31457250000676,366.31457250000676,None,367.1819562999881,None,,,,,,,11007,001,2024_Jan_01_1430,ANT,2021.2.3,60.274659562034465,
1,12,center,up,IC,R,,,,,,Block.xlsx,"你已经完成了整个实验（三个区组）。

请报告实验者已完成实验

非常感谢，再见！",0,50,1.5,right,LLRLL.png,,,,,0,1,1,1,0,22,22,11,,,,,,,,,,,,,,,,,,,,,,,,,,,,,,,,,,,,,,,,,,,,,,,,,,,,,,,,,,,,,,,,,,,,,,367.5824467000202,367.98437820002437,367.9662728999974,368.06699940003455,368.4682727000327,None,right,1,0.5623390999971889,368.4682727000327,None,367.9662728999974,368.06699940003455,368.06699940003455,None,369.0513740000315,None,,,,,,,11007,001,2024_Jan_01_1430,ANT,2021.2.3,60.274659562034465,
1,24,spatial,down,IC,R,,,,,,Block.xlsx,"你已经完成了整个实验（三个区组）。

请报告实验者已完成实验

非常感谢，再见！",-1.5,0,-1.5,right,LLRLL.png,,,,,0,1,1,1,0,23,23,23,,,,,,,,,,,,,,,,,,,,,,,,,,,,,,,,,,,,,,,,,,,,,,,,,,,,,,,,,,,,,,,,,,,,,,369.4518195000128,369.8531600999995,369.8359476000187,369.93687040003715,370.3373188000405,None,right,1,0.46122610004385933,370.3373188000405,None,369.8359476000187,369.93687040003715,369.93687040003715,None,370.82079590001376,None,,,,,,,11007,001,2024_Jan_01_1430,ANT,2021.2.3,60.274659562034465,
1,2,no,up,C,R,,,,,,Block.xlsx,"你已经完成了整个实验（三个区组）。

请报告实验者已完成实验

非常感谢，再见！",50,0,1.5,right,RRRRR.png,,,,,0,1,1,1,1,0,24,1,,,,,,,,,,,,,,,,,,,,,,,,,,,,,,,,,,,,,,,,,,,,,,,,,,,,,,,,,,,,,,,,,,,,,,371.2213383000344,371.62242420000257,371.60569140000734,371.7060355999856,372.1069204999949,None,right,1,0.4436505000339821,372.1069204999949,None,371.60569140000734,371.7060355999856,371.7060355999856,None,372.5732514000265,None,,,,,,,11007,001,2024_Jan_01_1430,ANT,2021.2.3,60.274659562034465,
1,18,spatial,up,C,R,,,,,,Block.xlsx,"你已经完成了整个实验（三个区组）。

请报告实验者已完成实验

非常感谢，再见！",1.5,0,1.5,right,RRRRR.png,,,,,0,1,1,1,1,1,25,17,,,,,,,,,,,,,,,,,,,,,,,,,,,,,,,,,,,,,,,,,,,,,,,,,,,,,,,,,,,,,,,,,,,,,,372.9739035000093,373.3761974000372,373.35935929999687,373.45776950003346,373.85982380004134,None,right,1,0.3471923999604769,373.85982380004134,None,373.35935929999687,373.45776950003346,373.45776950003346,None,374.2256101000239,None,,,,,,,11007,001,2024_Jan_01_1430,ANT,2021.2.3,60.274659562034465,
1,6,no,down,C,R,,,,,,Block.xlsx,"你已经完成了整个实验（三个区组）。

请报告实验者已完成实验

非常感谢，再见！",50,0,-1.5,right,RRRRR.png,,,,,0,1,1,1,1,2,26,5,,,,,,,,,,,,,,,,,,,,,,,,,,,,,,,,,,,,,,,,,,,,,,,,,,,,,,,,,,,,,,,,,,,,,,374.62631389999297,375.02696410001954,375.0110382999992,375.11090840003453,375.51239240000723,None,right,1,0.48616269999183714,375.51239240000723,None,375.0110382999992,375.11090840003453,375.11090840003453,None,376.02824370004237,None,,,,,,,11007,001,2024_Jan_01_1430,ANT,2021.2.3,60.274659562034465,
1,18,spatial,up,C,R,,,,,,Block.xlsx,"你已经完成了整个实验（三个区组）。

请报告实验者已完成实验

非常感谢，再见！",1.5,0,1.5,right,RRRRR.png,,,,,0,1,1,1,1,3,27,17,,,,,,,,,,,,,,,,,,,,,,,,,,,,,,,,,,,,,,,,,,,,,,,,,,,,,,,,,,,,,,,,,,,,,,376.4292056999984,376.8308939000126,376.8131771000335,376.91316430002917,377.3149294999894,None,right,1,0.3556698000174947,377.3149294999894,None,376.8131771000335,376.91316430002917,376.91316430002917,None,377.6974542000098,None,,,,,,,11007,001,2024_Jan_01_1430,ANT,2021.2.3,60.274659562034465,
1,5,no,down,C,L,,,,,,Block.xlsx,"你已经完成了整个实验（三个区组）。

请报告实验者已完成实验

非常感谢，再见！",50,0,-1.5,left,LLLLL.png,,,,,0,1,1,1,1,4,28,4,,,,,,,,,,,,,,,,,,,,,,,,,,,,,,,,,,,,,,,,,,,,,,,,,,,,,,,,,,,,,,,,,,,,,,378.09808170003816,378.5004766000202,378.4834457000252,378.5830061000306,378.9842562000267,None,left,1,0.4544053000281565,378.9842562000267,None,378.4834457000252,378.5830061000306,378.5830061000306,None,379.46682259999216,None,,,,,,,11007,001,2024_Jan_01_1430,ANT,2021.2.3,60.274659562034465,
1,17,spatial,up,C,L,,,,,,Block.xlsx,"你已经完成了整个实验（三个区组）。

请报告实验者已完成实验

非常感谢，再见！",1.5,0,1.5,left,LLLLL.png,,,,,0,1,1,1,1,5,29,16,,,,,,,,,,,,,,,,,,,,,,,,,,,,,,,,,,,,,,,,,,,,,,,,,,,,,,,,,,,,,,,,,,,,,,379.8672682000324,380.26868199999444,380.2533039000118,380.36819459998515,380.7522437000298,None,left,1,0.3184228999889456,380.7522437000298,None,380.2533039000118,380.36819459998515,380.35294190002605,None,381.1027075999882,None,,,,,,,11007,001,2024_Jan_01_1430,ANT,2021.2.3,60.274659562034465,
1,11,center,up,IC,L,,,,,,Block.xlsx,"你已经完成了整个实验（三个区组）。

请报告实验者已完成实验

非常感谢，再见！",0,50,1.5,left,RRLRR.png,,,,,0,1,1,1,1,6,30,10,,,,,,,,,,,,,,,,,,,,,,,,,,,,,,,,,,,,,,,,,,,,,,,,,,,,,,,,,,,,,,,,,,,,,,381.50323370000115,381.9037663000054,381.8869929999928,381.987469899992,382.3878936000401,None,left,1,0.5226585000054911,382.3878936000401,None,381.8869929999928,381.987469899992,381.987469899992,None,382.93877100001555,None,,,,,,,11007,001,2024_Jan_01_1430,ANT,2021.2.3,60.274659562034465,
1,14,center,down,C,R,,,,,,Block.xlsx,"你已经完成了整个实验（三个区组）。

请报告实验者已完成实验

非常感谢，再见！",0,50,-1.5,right,RRRRR.png,,,,,0,1,1,1,1,7,31,13,,,,,,,,,,,,,,,,,,,,,,,,,,,,,,,,,,,,,,,,,,,,,,,,,,,,,,,,,,,,,,,,,,,,,,383.3393025000114,383.7407561999862,383.7233600000036,383.823474600038,384.2239625999937,None,right,1,0.5110088000074029,384.2239625999937,None,383.7233600000036,383.823474600038,383.823474600038,None,384.75803050003015,None,,,,,,,11007,001,2024_Jan_01_1430,ANT,2021.2.3,60.274659562034465,
1,2,no,up,C,R,,,,,,Block.xlsx,"你已经完成了整个实验（三个区组）。

请报告实验者已完成实验

非常感谢，再见！",50,0,1.5,right,RRRRR.png,,,,,0,1,1,1,1,8,32,1,,,,,,,,,,,,,,,,,,,,,,,,,,,,,,,,,,,,,,,,,,,,,,,,,,,,,,,,,,,,,,,,,,,,,,385.15878380002687,385.5590888999868,385.54279169999063,385.64335060003214,386.04327439999906,None,right,1,0.42744439997477457,386.04327439999906,None,385.54279169999063,385.64335060003214,385.64335060003214,None,386.49390510004014,None,,,,,,,11007,001,2024_Jan_01_1430,ANT,2021.2.3,60.274659562034465,
1,21,spatial,down,C,L,,,,,,Block.xlsx,"你已经完成了整个实验（三个区组）。

请报告实验者已完成实验

非常感谢，再见！",-1.5,0,-1.5,left,LLLLL.png,,,,,0,1,1,1,1,9,33,20,,,,,,,,,,,,,,,,,,,,,,,,,,,,,,,,,,,,,,,,,,,,,,,,,,,,,,,,,,,,,,,,,,,,,,386.89468170003965,387.2951987000415,387.2798904000083,387.37976300000446,387.77996190002887,None,left,1,0.41050690005067736,387.77996190002887,None,387.2798904000083,387.37976300000446,387.37976300000446,None,388.21305190003477,None,,,,,,,11007,001,2024_Jan_01_1430,ANT,2021.2.3,60.274659562034465,
1,7,no,down,IC,L,,,,,,Block.xlsx,"你已经完成了整个实验（三个区组）。

请报告实验者已完成实验

非常感谢，再见！",50,0,-1.5,left,RRLRR.png,,,,,0,1,1,1,1,10,34,6,,,,,,,,,,,,,,,,,,,,,,,,,,,,,,,,,,,,,,,,,,,,,,,,,,,,,,,,,,,,,,,,,,,,,,388.61373260000255,389.01508540002396,388.9984538999852,389.0992163000046,389.4990428999881,None,left,1,0.5480416999780573,389.4990428999881,None,388.9984538999852,389.0992163000046,389.0992163000046,None,390.065805500024,None,,,,,,,11007,001,2024_Jan_01_1430,ANT,2021.2.3,60.274659562034465,
1,15,center,down,IC,L,,,,,,Block.xlsx,"你已经完成了整个实验（三个区组）。

请报告实验者已完成实验

非常感谢，再见！",0,50,-1.5,left,RRLRR.png,,,,,0,1,1,1,1,11,35,14,,,,,,,,,,,,,,,,,,,,,,,,,,,,,,,,,,,,,,,,,,,,,,,,,,,,,,,,,,,,,,,,,,,,,,390.46701690001646,390.86764710000716,390.8514903000323,390.9525045999908,391.352049899986,None,left,1,0.49467649997677654,391.352049899986,None,390.8514903000323,390.9525045999908,390.9525045999908,None,391.86867809999967,None,,,,,,,11007,001,2024_Jan_01_1430,ANT,2021.2.3,60.274659562034465,
1,5,no,down,C,L,,,,,,Block.xlsx,"你已经完成了整个实验（三个区组）。

请报告实验者已完成实验

非常感谢，再见！",50,0,-1.5,left,LLLLL.png,,,,,0,1,1,1,1,12,36,4,,,,,,,,,,,,,,,,,,,,,,,,,,,,,,,,,,,,,,,,,,,,,,,,,,,,,,,,,,,,,,,,,,,,,,392.2697100000223,392.670142100018,392.6540721000056,392.75399980001384,393.15434280002955,None,left,1,0.42087510001147166,393.15434280002955,None,392.6540721000056,392.75399980001384,392.75399980001384,None,393.604457700043,None,,,,,,,11007,001,2024_Jan_01_1430,ANT,2021.2.3,60.274659562034465,
1,12,center,up,IC,R,,,,,,Block.xlsx,"你已经完成了整个实验（三个区组）。

请报告实验者已完成实验

非常感谢，再见！",0,50,1.5,right,LLRLL.png,,,,,0,1,1,1,1,13,37,11,,,,,,,,,,,,,,,,,,,,,,,,,,,,,,,,,,,,,,,,,,,,,,,,,,,,,,,,,,,,,,,,,,,,,,394.00527399999555,394.40625759999966,394.3901889999979,394.4897681000293,394.8922793000238,None,right,1,0.5548223999794573,394.8922793000238,None,394.3901889999979,394.4897681000293,394.4897681000293,None,395.47383070003707,None,,,,,,,11007,001,2024_Jan_01_1430,ANT,2021.2.3,60.274659562034465,
1,14,center,down,C,R,,,,,,Block.xlsx,"你已经完成了整个实验（三个区组）。

请报告实验者已完成实验

非常感谢，再见！",0,50,-1.5,right,RRRRR.png,,,,,0,1,1,1,1,14,38,13,,,,,,,,,,,,,,,,,,,,,,,,,,,,,,,,,,,,,,,,,,,,,,,,,,,,,,,,,,,,,,,,,,,,,,395.87522440002067,396.2757520999876,396.2597448999877,396.35969910002314,396.7599648000323,None,right,1,0.4066950000124052,396.7599648000323,None,396.2597448999877,396.35969910002314,396.35969910002314,None,397.1934649000177,None,,,,,,,11007,001,2024_Jan_01_1430,ANT,2021.2.3,60.274659562034465,
1,4,no,up,IC,R,,,,,,Block.xlsx,"你已经完成了整个实验（三个区组）。

请报告实验者已完成实验

非常感谢，再见！",50,0,1.5,right,LLRLL.png,,,,,0,1,1,1,1,15,39,3,,,,,,,,,,,,,,,,,,,,,,,,,,,,,,,,,,,,,,,,,,,,,,,,,,,,,,,,,,,,,,,,,,,,,,397.59373490000144,397.99518080003327,397.97796029999154,398.07864210003754,398.47896149998996,None,right,1,0.5760087000089698,398.47896149998996,None,397.97796029999154,398.07864210003754,398.07864210003754,None,399.0797030000249,None,,,,,,,11007,001,2024_Jan_01_1430,ANT,2021.2.3,60.274659562034465,
1,3,no,up,IC,L,,,,,,Block.xlsx,"你已经完成了整个实验（三个区组）。

请报告实验者已完成实验

非常感谢，再见！",50,0,1.5,left,RRLRR.png,,,,,0,1,1,1,1,16,40,2,,,,,,,,,,,,,,,,,,,,,,,,,,,,,,,,,,,,,,,,,,,,,,,,,,,,,,,,,,,,,,,,,,,,,,399.48052680003457,399.8810426000273,399.86600209999597,399.98200339998584,400.3671163000399,None,left,1,0.495677099970635,400.3671163000399,None,399.86600209999597,399.98200339998584,399.96415310003795,None,400.88271330000134,None,,,,,,,11007,001,2024_Jan_01_1430,ANT,2021.2.3,60.274659562034465,
1,24,spatial,down,IC,R,,,,,,Block.xlsx,"你已经完成了整个实验（三个区组）。

请报告实验者已完成实验

非常感谢，再见！",-1.5,0,-1.5,right,LLRLL.png,,,,,0,1,1,1,1,17,41,23,,,,,,,,,,,,,,,,,,,,,,,,,,,,,,,,,,,,,,,,,,,,,,,,,,,,,,,,,,,,,,,,,,,,,,401.28261980001116,401.68398660002276,401.6670841000159,401.7673204999883,402.16728350002086,None,right,1,0.5116170999826863,402.16728350002086,None,401.6670841000159,401.7673204999883,401.7673204999883,None,402.70178539998597,None,,,,,,,11007,001,2024_Jan_01_1430,ANT,2021.2.3,60.274659562034465,
1,9,center,up,C,L,,,,,,Block.xlsx,"你已经完成了整个实验（三个区组）。

请报告实验者已完成实验

非常感谢，再见！",0,50,1.5,left,LLLLL.png,,,,,0,1,1,1,1,18,42,8,,,,,,,,,,,,,,,,,,,,,,,,,,,,,,,,,,,,,,,,,,,,,,,,,,,,,,,,,,,,,,,,,,,,,,403.10226220003096,403.503528500034,403.4886261000065,403.5859601999982,403.9889536999981,None,left,1,0.3216551999794319,403.9889536999981,None,403.4886261000065,403.5859601999982,403.5859601999982,None,404.33717870002147,None,,,,,,,11007,001,2024_Jan_01_1430,ANT,2021.2.3,60.274659562034465,
1,19,spatial,up,IC,L,,,,,,Block.xlsx,"你已经完成了整个实验（三个区组）。

请报告实验者已完成实验

非常感谢，再见！",1.5,0,1.5,left,RRLRR.png,,,,,0,1,1,1,1,19,43,18,,,,,,,,,,,,,,,,,,,,,,,,,,,,,,,,,,,,,,,,,,,,,,,,,,,,,,,,,,,,,,,,,,,,,,404.7381537000183,405.14086059998954,405.1223394999979,405.22230329999,405.6230921000242,None,left,1,0.4236839000368491,405.6230921000242,None,405.1223394999979,405.22230329999,405.22230329999,None,406.0730045000091,None,,,,,,,11007,001,2024_Jan_01_1430,ANT,2021.2.3,60.274659562034465,
1,16,center,down,IC,R,,,,,,Block.xlsx,"你已经完成了整个实验（三个区组）。

请报告实验者已完成实验

非常感谢，再见！",0,50,-1.5,right,LLRLL.png,,,,,0,1,1,1,1,20,44,15,,,,,,,,,,,,,,,,,,,,,,,,,,,,,,,,,,,,,,,,,,,,,,,,,,,,,,,,,,,,,,,,,,,,,,406.4735337999882,406.87418310000794,406.8581354999915,406.95822440000484,407.35806360002607,None,right,1,0.49668989999918267,407.35806360002607,None,406.8581354999915,406.95822440000484,406.95822440000484,None,407.8757369000232,None,,,,,,,11007,001,2024_Jan_01_1430,ANT,2021.2.3,60.274659562034465,
1,11,center,up,IC,L,,,,,,Block.xlsx,"你已经完成了整个实验（三个区组）。

请报告实验者已完成实验

非常感谢，再见！",0,50,1.5,left,RRLRR.png,,,,,0,1,1,1,1,21,45,10,,,,,,,,,,,,,,,,,,,,,,,,,,,,,,,,,,,,,,,,,,,,,,,,,,,,,,,,,,,,,,,,,,,,,,408.2762638000422,408.67677540000295,408.6623352000024,408.77798220003024,409.1624344000011,None,left,1,0.5490090000093915,409.1624344000011,None,408.6623352000024,408.77798220003024,408.7627607000177,None,409.7283588999999,None,,,,,,,11007,001,2024_Jan_01_1430,ANT,2021.2.3,60.274659562034465,
1,13,center,down,C,L,,,,,,Block.xlsx,"你已经完成了整个实验（三个区组）。

请报告实验者已完成实验

非常感谢，再见！",0,50,-1.5,left,LLLLL.png,,,,,0,1,1,1,1,22,46,12,,,,,,,,,,,,,,,,,,,,,,,,,,,,,,,,,,,,,,,,,,,,,,,,,,,,,,,,,,,,,,,,,,,,,,410.1297738000285,410.5297796000377,410.5127657999983,410.61371529998723,411.01529320003465,None,left,1,0.45558680000249296,411.01529320003465,None,410.5127657999983,410.61371529998723,410.61371529998723,None,411.4976877000299,None,,,,,,,11007,001,2024_Jan_01_1430,ANT,2021.2.3,60.274659562034465,
1,1,no,up,C,L,,,,,,Block.xlsx,"你已经完成了整个实验（三个区组）。

请报告实验者已完成实验

非常感谢，再见！",50,0,1.5,left,LLLLL.png,,,,,0,1,1,1,1,23,47,0,,,,,,,,,,,,,,,,,,,,,,,,,,,,,,,,,,,,,,,,,,,,,,,,,,,,,,,,,,,,,,,,,,,,,,411.89822740003,412.2993148000096,412.28214200004004,412.38298260001466,412.7831882000319,None,left,1,0.45567559998016804,412.7831882000319,None,412.28214200004004,412.38298260001466,412.38298260001466,None,413.2671494000242,None,,,,,,,11007,001,2024_Jan_01_1430,ANT,2021.2.3,60.274659562034465,
1,20,spatial,up,IC,R,,,,,,Block.xlsx,"你已经完成了整个实验（三个区组）。

请报告实验者已完成实验

非常感谢，再见！",1.5,0,1.5,right,LLRLL.png,,,,,0,1,1,1,2,0,48,19,,,,,,,,,,,,,,,,,,,,,,,,,,,,,,,,,,,,,,,,,,,,,,,,,,,,,,,,,,,,,,,,,,,,,,413.6677706000046,414.0692932000384,414.0518654999905,414.15367530001095,414.5521948999958,None,right,1,0.43915749998996034,414.5521948999958,None,414.0518654999905,414.15367530001095,414.15367530001095,None,415.0197002000059,None,,,,,,,11007,001,2024_Jan_01_1430,ANT,2021.2.3,60.274659562034465,
1,13,center,down,C,L,,,,,,Block.xlsx,"你已经完成了整个实验（三个区组）。

请报告实验者已完成实验

非常感谢，再见！",0,50,-1.5,left,LLLLL.png,,,,,0,1,1,1,2,1,49,12,,,,,,,,,,,,,,,,,,,,,,,,,,,,,,,,,,,,,,,,,,,,,,,,,,,,,,,,,,,,,,,,,,,,,,415.4201522000367,415.8213643000345,415.80527370003983,415.90531540004304,416.3056596000097,None,left,1,0.41327740001725033,416.3056596000097,None,415.80527370003983,415.90531540004304,415.90531540004304,None,416.7391540000099,None,,,,,,,11007,001,2024_Jan_01_1430,ANT,2021.2.3,60.274659562034465,
1,14,center,down,C,R,,,,,,Block.xlsx,"你已经完成了整个实验（三个区组）。

请报告实验者已完成实验

非常感谢，再见！",0,50,-1.5,right,RRRRR.png,,,,,0,1,1,1,2,2,50,13,,,,,,,,,,,,,,,,,,,,,,,,,,,,,,,,,,,,,,,,,,,,,,,,,,,,,,,,,,,,,,,,,,,,,,417.1393100999994,417.54073120001704,417.5230387999909,417.6241848000209,418.02471700002206,None,right,1,0.5421510000014678,418.02471700002206,None,417.5230387999909,417.6241848000209,417.6241848000209,None,418.5913772000349,None,,,,,,,11007,001,2024_Jan_01_1430,ANT,2021.2.3,60.274659562034465,
1,20,spatial,up,IC,R,,,,,,Block.xlsx,"你已经完成了整个实验（三个区组）。

请报告实验者已完成实验

非常感谢，再见！",1.5,0,1.5,right,LLRLL.png,,,,,0,1,1,1,2,3,51,19,,,,,,,,,,,,,,,,,,,,,,,,,,,,,,,,,,,,,,,,,,,,,,,,,,,,,,,,,,,,,,,,,,,,,,418.99204919999465,419.3936307000113,419.3763143999968,419.47753540001577,419.87877370003844,None,right,1,0.5678883999935351,419.87877370003844,None,419.3763143999968,419.47753540001577,419.47753540001577,None,420.46108510001795,None,,,,,,,11007,001,2024_Jan_01_1430,ANT,2021.2.3,60.274659562034465,
1,16,center,down,IC,R,,,,,,Block.xlsx,"你已经完成了整个实验（三个区组）。

请报告实验者已完成实验

非常感谢，再见！",0,50,-1.5,right,LLRLL.png,,,,,0,1,1,1,2,4,52,15,,,,,,,,,,,,,,,,,,,,,,,,,,,,,,,,,,,,,,,,,,,,,,,,,,,,,,,,,,,,,,,,,,,,,,420.8620922000264,421.2645097000059,421.2461261000135,421.3466916999896,421.747011200001,None,right,1,0.5156572999549098,421.747011200001,None,421.2461261000135,421.3466916999896,421.3466916999896,None,422.2802969000186,None,,,,,,,11007,001,2024_Jan_01_1430,ANT,2021.2.3,60.274659562034465,
1,18,spatial,up,C,R,,,,,,Block.xlsx,"你已经完成了整个实验（三个区组）。

请报告实验者已完成实验

非常感谢，再见！",1.5,0,1.5,right,RRRRR.png,,,,,0,1,1,1,2,5,53,17,,,,,,,,,,,,,,,,,,,,,,,,,,,,,,,,,,,,,,,,,,,,,,,,,,,,,,,,,,,,,,,,,,,,,,422.6809498000075,423.0826429000008,423.06512129999464,423.1649373000255,423.5663079000078,None,right,1,0.40123110002605245,423.5663079000078,None,423.06512129999464,423.1649373000255,423.1649373000255,None,423.98275680001825,None,,,,,,,11007,001,2024_Jan_01_1430,ANT,2021.2.3,60.274659562034465,
1,22,spatial,down,C,R,,,,,,Block.xlsx,"你已经完成了整个实验（三个区组）。

请报告实验者已完成实验

非常感谢，再见！",-1.5,0,-1.5,right,RRRRR.png,,,,,0,1,1,1,2,6,54,21,,,,,,,,,,,,,,,,,,,,,,,,,,,,,,,,,,,,,,,,,,,,,,,,,,,,,,,,,,,,,,,,,,,,,,424.3835468000034,424.78569739998784,424.76768540003104,424.8683427000069,425.26873940002406,None,right,1,0.3699274000246078,425.26873940002406,None,424.76768540003104,424.8683427000069,424.8683427000069,None,425.6687624999904,None,,,,,,,11007,001,2024_Jan_01_1430,ANT,2021.2.3,60.274659562034465,
1,8,no,down,IC,R,,,,,,Block.xlsx,"你已经完成了整个实验（三个区组）。

请报告实验者已完成实验

非常感谢，再见！",50,0,-1.5,right,LLRLL.png,,,,,0,1,1,1,2,7,55,7,,,,,,,,,,,,,,,,,,,,,,,,,,,,,,,,,,,,,,,,,,,,,,,,,,,,,,,,,,,,,,,,,,,,,,426.0696409000084,426.4706654000329,426.45416760002263,426.5537903000368,426.95493619999615,None,right,1,0.5723090000101365,426.95493619999615,None,426.45416760002263,426.5537903000368,426.5537903000368,None,427.55494480003836,None,,,,,,,11007,001,2024_Jan_01_1430,ANT,2021.2.3,60.274659562034465,
1,5,no,down,C,L,,,,,,Block.xlsx,"你已经完成了整个实验（三个区组）。

请报告实验者已完成实验

非常感谢，再见！",50,0,-1.5,left,LLLLL.png,,,,,0,1,1,1,2,8,56,4,,,,,,,,,,,,,,,,,,,,,,,,,,,,,,,,,,,,,,,,,,,,,,,,,,,,,,,,,,,,,,,,,,,,,,427.95552449999377,428.35598659998504,428.3408347000368,428.4413623000146,428.8407743999851,None,left,1,0.6697806000011042,428.8407743999851,None,428.3408347000368,428.4413623000146,428.4413623000146,None,429.5244232999976,None,,,,,,,11007,001,2024_Jan_01_1430,ANT,2021.2.3,60.274659562034465,
1,16,center,down,IC,R,,,,,,Block.xlsx,"你已经完成了整个实验（三个区组）。

请报告实验者已完成实验

非常感谢，再见！",0,50,-1.5,right,LLRLL.png,,,,,0,1,1,1,2,9,57,15,,,,,,,,,,,,,,,,,,,,,,,,,,,,,,,,,,,,,,,,,,,,,,,,,,,,,,,,,,,,,,,,,,,,,,429.9253789000213,430.32598930003587,430.3098295000382,430.41085799998837,430.81058480002685,None,right,1,0.5490753000485711,430.81058480002685,None,430.3098295000382,430.41085799998837,430.41085799998837,None,431.377466200036,None,,,,,,,11007,001,2024_Jan_01_1430,ANT,2021.2.3,60.274659562034465,
1,12,center,up,IC,R,,,,,,Block.xlsx,"你已经完成了整个实验（三个区组）。

请报告实验者已完成实验

非常感谢，再见！",0,50,1.5,right,LLRLL.png,,,,,0,1,1,1,2,10,58,11,,,,,,,,,,,,,,,,,,,,,,,,,,,,,,,,,,,,,,,,,,,,,,,,,,,,,,,,,,,,,,,,,,,,,,431.7784837000072,432.17859580001095,432.1635314000305,432.2791225000401,432.6630084000062,None,right,1,0.5758495000191033,432.6630084000062,None,432.1635314000305,432.2791225000401,432.2641987000243,None,433.2634309999994,None,,,,,,,11007,001,2024_Jan_01_1430,ANT,2021.2.3,60.274659562034465,
1,4,no,up,IC,R,,,,,,Block.xlsx,"你已经完成了整个实验（三个区组）。

请报告实验者已完成实验

非常感谢，再见！",50,0,1.5,right,LLRLL.png,,,,,0,1,1,1,2,11,59,3,,,,,,,,,,,,,,,,,,,,,,,,,,,,,,,,,,,,,,,,,,,,,,,,,,,,,,,,,,,,,,,,,,,,,,433.6641371999867,434.06500980001874,434.04848830000265,434.14861510001356,434.5495378000196,None,right,1,0.5930437000351958,434.5495378000196,None,434.04848830000265,434.14861510001356,434.14861510001356,None,435.16610730002867,None,,,,,,,11007,001,2024_Jan_01_1430,ANT,2021.2.3,60.274659562034465,
1,10,center,up,C,R,,,,,,Block.xlsx,"你已经完成了整个实验（三个区组）。

请报告实验者已完成实验

非常感谢，再见！",0,50,1.5,right,RRRRR.png,,,,,0,1,1,1,2,12,60,9,,,,,,,,,,,,,,,,,,,,,,,,,,,,,,,,,,,,,,,,,,,,,,,,,,,,,,,,,,,,,,,,,,,,,,435.56704150000587,435.9684299000073,435.951223400014,436.0515929000103,436.4515863000415,None,right,1,0.42761909996625036,436.4515863000415,None,435.951223400014,436.0515929000103,436.0515929000103,None,436.9018190000206,None,,,,,,,11007,001,2024_Jan_01_1430,ANT,2021.2.3,60.274659562034465,
1,23,spatial,down,IC,L,,,,,,Block.xlsx,"你已经完成了整个实验（三个区组）。

请报告实验者已完成实验

非常感谢，再见！",-1.5,0,-1.5,left,RRLRR.png,,,,,0,1,1,1,2,13,61,22,,,,,,,,,,,,,,,,,,,,,,,,,,,,,,,,,,,,,,,,,,,,,,,,,,,,,,,,,,,,,,,,,,,,,,437.30253690003883,437.7038271999918,437.68724060000386,437.7879096000106,438.18853350001154,None,left,1,0.41805510001722723,438.18853350001154,None,437.68724060000386,437.7879096000106,437.7879096000106,None,438.6382212000317,None,,,,,,,11007,001,2024_Jan_01_1430,ANT,2021.2.3,60.274659562034465,
1,17,spatial,up,C,L,,,,,,Block.xlsx,"你已经完成了整个实验（三个区组）。

请报告实验者已完成实验

非常感谢，再见！",1.5,0,1.5,left,LLLLL.png,,,,,0,1,1,1,2,14,62,16,,,,,,,,,,,,,,,,,,,,,,,,,,,,,,,,,,,,,,,,,,,,,,,,,,,,,,,,,,,,,,,,,,,,,,439.0385293000145,439.441951100016,439.4230593999964,439.52281799999764,439.9238568000146,None,left,1,0.38676609995309263,439.9238568000146,None,439.4230593999964,439.52281799999764,439.52281799999764,None,440.3404700999963,None,,,,,,,11007,001,2024_Jan_01_1430,ANT,2021.2.3,60.274659562034465,
1,6,no,down,C,R,,,,,,Block.xlsx,"你已经完成了整个实验（三个区组）。

请报告实验者已完成实验

非常感谢，再见！",50,0,-1.5,right,RRRRR.png,,,,,0,1,1,1,2,15,63,5,,,,,,,,,,,,,,,,,,,,,,,,,,,,,,,,,,,,,,,,,,,,,,,,,,,,,,,,,,,,,,,,,,,,,,440.74165179999545,441.1421393000055,441.1253575999872,441.2255586000392,441.62812040001154,None,right,1,0.4665993999806233,441.62812040001154,None,441.1253575999872,441.2255586000392,441.2255586000392,None,442.1098757000291,None,,,,,,,11007,001,2024_Jan_01_1430,ANT,2021.2.3,60.274659562034465,
1,10,center,up,C,R,,,,,,Block.xlsx,"你已经完成了整个实验（三个区组）。

请报告实验者已完成实验

非常感谢，再见！",0,50,1.5,right,RRRRR.png,,,,,0,1,1,1,2,16,64,9,,,,,,,,,,,,,,,,,,,,,,,,,,,,,,,,,,,,,,,,,,,,,,,,,,,,,,,,,,,,,,,,,,,,,,442.51047700003255,442.91163759998744,442.8947756999987,442.9959064000286,443.3955807000166,None,right,1,0.3876159000210464,443.3955807000166,None,442.8947756999987,442.9959064000286,442.9959064000286,None,443.81278909998946,None,,,,,,,11007,001,2024_Jan_01_1430,ANT,2021.2.3,60.274659562034465,
1,10,center,up,C,R,,,,,,Block.xlsx,"你已经完成了整个实验（三个区组）。

请报告实验者已完成实验

非常感谢，再见！",0,50,1.5,right,RRRRR.png,,,,,0,1,1,1,2,17,65,9,,,,,,,,,,,,,,,,,,,,,,,,,,,,,,,,,,,,,,,,,,,,,,,,,,,,,,,,,,,,,,,,,,,,,,444.212839099986,444.6143133000005,444.598979900009,444.6978104999871,445.099709000031,None,right,1,0.5313213999615982,445.099709000031,None,444.598979900009,444.6978104999871,444.6978104999871,None,445.6483370999922,None,,,,,,,11007,001,2024_Jan_01_1430,ANT,2021.2.3,60.274659562034465,
1,18,spatial,up,C,R,,,,,,Block.xlsx,"你已经完成了整个实验（三个区组）。

请报告实验者已完成实验

非常感谢，再见！",1.5,0,1.5,right,RRRRR.png,,,,,0,1,1,1,2,18,66,17,,,,,,,,,,,,,,,,,,,,,,,,,,,,,,,,,,,,,,,,,,,,,,,,,,,,,,,,,,,,,,,,,,,,,,446.0491520999931,446.4494104000041,446.4347634000005,446.54960860003484,446.9340856000199,None,right,1,0.313254099979531,446.9340856000199,None,446.4347634000005,446.54960860003484,446.53583790000994,None,447.26758470002096,None,,,,,,,11007,001,2024_Jan_01_1430,ANT,2021.2.3,60.274659562034465,
1,13,center,down,C,L,,,,,,Block.xlsx,"你已经完成了整个实验（三个区组）。

请报告实验者已完成实验

非常感谢，再见！",0,50,-1.5,left,LLLLL.png,,,,,0,1,1,1,2,19,67,12,,,,,,,,,,,,,,,,,,,,,,,,,,,,,,,,,,,,,,,,,,,,,,,,,,,,,,,,,,,,,,,,,,,,,,447.6687252999982,448.068467300036,448.0524912000401,448.1518403000082,448.5530174000305,None,left,1,0.44625459995586425,448.5530174000305,None,448.0524912000401,448.1518403000082,448.1518403000082,None,449.0209358999855,None,,,,,,,11007,001,2024_Jan_01_1430,ANT,2021.2.3,60.274659562034465,
1,9,center,up,C,L,,,,,,Block.xlsx,"你已经完成了整个实验（三个区组）。

请报告实验者已完成实验

非常感谢，再见！",0,50,1.5,left,LLLLL.png,,,,,0,1,1,1,2,20,68,8,,,,,,,,,,,,,,,,,,,,,,,,,,,,,,,,,,,,,,,,,,,,,,,,,,,,,,,,,,,,,,,,,,,,,,449.4206720000366,449.8217561999918,449.80516029999126,449.9074671000126,450.30596940004034,None,left,1,0.4296366000198759,450.30596940004034,None,449.80516029999126,449.9074671000126,449.9074671000126,None,450.7561937000137,None,,,,,,,11007,001,2024_Jan_01_1430,ANT,2021.2.3,60.274659562034465,
1,24,spatial,down,IC,R,,,,,,Block.xlsx,"你已经完成了整个实验（三个区组）。

请报告实验者已完成实验

非常感谢，再见！",-1.5,0,-1.5,right,LLRLL.png,,,,,0,1,1,1,2,21,69,23,,,,,,,,,,,,,,,,,,,,,,,,,,,,,,,,,,,,,,,,,,,,,,,,,,,,,,,,,,,,,,,,,,,,,,451.15723200002685,451.5580883999937,451.540502000018,451.64117489999626,452.04160820000106,None,right,1,0.42158230004133657,452.04160820000106,None,451.540502000018,451.64117489999626,451.64117489999626,None,452.4915492000291,None,,,,,,,11007,001,2024_Jan_01_1430,ANT,2021.2.3,60.274659562034465,
1,2,no,up,C,R,,,,,,Block.xlsx,"你已经完成了整个实验（三个区组）。

请报告实验者已完成实验

非常感谢，再见！",50,0,1.5,right,RRRRR.png,,,,,0,1,1,1,2,22,70,1,,,,,,,,,,,,,,,,,,,,,,,,,,,,,,,,,,,,,,,,,,,,,,,,,,,,,,,,,,,,,,,,,,,,,,452.89241030003177,453.29403719998663,453.2762468000292,453.37728600000264,453.77695060003316,None,right,1,0.4464966999948956,453.77695060003316,None,453.2762468000292,453.37728600000264,453.37728600000264,None,454.24426060001133,None,,,,,,,11007,001,2024_Jan_01_1430,ANT,2021.2.3,60.274659562034465,
1,11,center,up,IC,L,,,,,,Block.xlsx,"你已经完成了整个实验（三个区组）。

请报告实验者已完成实验

非常感谢，再见！",0,50,1.5,left,RRLRR.png,,,,,0,1,1,1,2,23,71,10,,,,,,,,,,,,,,,,,,,,,,,,,,,,,,,,,,,,,,,,,,,,,,,,,,,,,,,,,,,,,,,,,,,,,,454.6450368000078,455.0467665999895,455.02913690003334,455.12944450002396,455.5316883000196,None,left,1,0.5639301000046544,455.5316883000196,None,455.02913690003334,455.12944450002396,455.12944450002396,None,456.11378850002075,None,,,,,,,11007,001,2024_Jan_01_1430,ANT,2021.2.3,60.274659562034465,
1,12,center,up,IC,R,,,,,,Block.xlsx,"你已经完成了整个实验（三个区组）。

请报告实验者已完成实验

非常感谢，再见！",0,50,1.5,right,LLRLL.png,,,,,0,1,1,1,3,0,72,11,,,,,,,,,,,,,,,,,,,,,,,,,,,,,,,,,,,,,,,,,,,,,,,,,,,,,,,,,,,,,,,,,,,,,,456.5147234000033,456.9166302999947,456.898531200015,456.9992656999966,457.399662300013,None,right,1,0.5430217999964952,457.399662300013,None,456.898531200015,456.9992656999966,456.9992656999966,None,457.9664911000291,None,,,,,,,11007,001,2024_Jan_01_1430,ANT,2021.2.3,60.274659562034465,
1,23,spatial,down,IC,L,,,,,,Block.xlsx,"你已经完成了整个实验（三个区组）。

请报告实验者已完成实验

非常感谢，再见！",-1.5,0,-1.5,left,RRLRR.png,,,,,0,1,1,1,3,1,73,22,,,,,,,,,,,,,,,,,,,,,,,,,,,,,,,,,,,,,,,,,,,,,,,,,,,,,,,,,,,,,,,,,,,,,,458.36706890002824,458.7697341000312,458.7509659000207,458.8530680999975,459.25286920001963,None,left,1,0.48998449998907745,459.25286920001963,None,458.7509659000207,458.8530680999975,458.8530680999975,None,459.7693556000013,None,,,,,,,11007,001,2024_Jan_01_1430,ANT,2021.2.3,60.274659562034465,
1,17,spatial,up,C,L,,,,,,Block.xlsx,"你已经完成了整个实验（三个区组）。

请报告实验者已完成实验

非常感谢，再见！",1.5,0,1.5,left,LLLLL.png,,,,,0,1,1,1,3,2,74,16,,,,,,,,,,,,,,,,,,,,,,,,,,,,,,,,,,,,,,,,,,,,,,,,,,,,,,,,,,,,,,,,,,,,,,460.1701183000114,460.57061870000325,460.55468500003917,460.65538569999626,461.0566717000329,None,left,1,0.4059040999854915,461.0566717000329,None,460.55468500003917,460.65538569999626,460.65538569999626,None,461.4883058000123,None,,,,,,,11007,001,2024_Jan_01_1430,ANT,2021.2.3,60.274659562034465,
1,22,spatial,down,C,R,,,,,,Block.xlsx,"你已经完成了整个实验（三个区组）。

请报告实验者已完成实验

非常感谢，再见！",-1.5,0,-1.5,right,RRRRR.png,,,,,0,1,1,1,3,3,75,21,,,,,,,,,,,,,,,,,,,,,,,,,,,,,,,,,,,,,,,,,,,,,,,,,,,,,,,,,,,,,,,,,,,,,,461.88899050001055,462.29019920004066,462.2738303000224,462.373798399989,462.77431400003843,None,right,1,0.39248600002611056,462.77431400003843,None,462.2738303000224,462.373798399989,462.373798399989,None,463.19085419998737,None,,,,,,,11007,001,2024_Jan_01_1430,ANT,2021.2.3,60.274659562034465,
1,3,no,up,IC,L,,,,,,Block.xlsx,"你已经完成了整个实验（三个区组）。

请报告实验者已完成实验

非常感谢，再见！",50,0,1.5,left,RRLRR.png,,,,,0,1,1,1,3,4,76,2,,,,,,,,,,,,,,,,,,,,,,,,,,,,,,,,,,,,,,,,,,,,,,,,,,,,,,,,,,,,,,,,,,,,,,463.5928222000366,463.9922016999917,463.9759612000198,464.07701990002533,464.47647960000904,None,left,1,0.47411740000825375,464.47647960000904,None,463.9759612000198,464.07701990002533,464.07701990002533,None,464.9767923000036,None,,,,,,,11007,001,2024_Jan_01_1430,ANT,2021.2.3,60.274659562034465,
1,10,center,up,C,R,,,,,,Block.xlsx,"你已经完成了整个实验（三个区组）。

请报告实验者已完成实验

非常感谢，再见！",0,50,1.5,right,RRRRR.png,,,,,0,1,1,1,3,5,77,9,,,,,,,,,,,,,,,,,,,,,,,,,,,,,,,,,,,,,,,,,,,,,,,,,,,,,,,,,,,,,,,,,,,,,,465.3774799000239,465.7786619000253,465.7621230999939,465.86228400003165,466.26262630004203,None,right,1,0.4244697000249289,466.26262630004203,None,465.7621230999939,465.86228400003165,465.86228400003165,None,466.7126937999856,None,,,,,,,11007,001,2024_Jan_01_1430,ANT,2021.2.3,60.274659562034465,
1,11,center,up,IC,L,,,,,,Block.xlsx,"你已经完成了整个实验（三个区组）。

请报告实验者已完成实验

非常感谢，再见！",0,50,1.5,left,RRLRR.png,,,,,0,1,1,1,3,6,78,10,,,,,,,,,,,,,,,,,,,,,,,,,,,,,,,,,,,,,,,,,,,,,,,,,,,,,,,,,,,,,,,,,,,,,,467.11459390004165,467.51606029999675,467.49799970001914,467.5982153000077,468.00022290000925,None,left,1,0.48646159999771044,468.00022290000925,None,467.49799970001914,467.5982153000077,467.5982153000077,None,468.51549580000574,None,,,,,,,11007,001,2024_Jan_01_1430,ANT,2021.2.3,60.274659562034465,
1,16,center,down,IC,R,,,,,,Block.xlsx,"你已经完成了整个实验（三个区组）。

请报告实验者已完成实验

非常感谢，再见！",0,50,-1.5,right,LLRLL.png,,,,,0,1,1,1,3,7,79,15,,,,,,,,,,,,,,,,,,,,,,,,,,,,,,,,,,,,,,,,,,,,,,,,,,,,,,,,,,,,,,,,,,,,,,468.91714590002084,469.3191540000262,469.3007153000217,469.40155190002406,469.80147060001036,None,right,1,0.5502979999873787,469.80147060001036,None,469.3007153000217,469.40155190002406,469.40155190002406,None,470.36823780002305,None,,,,,,,11007,001,2024_Jan_01_1430,ANT,2021.2.3,60.274659562034465,
1,8,no,down,IC,R,,,,,,Block.xlsx,"你已经完成了整个实验（三个区组）。

请报告实验者已完成实验

非常感谢，再见！",50,0,-1.5,right,LLRLL.png,,,,,0,1,1,1,3,8,80,7,,,,,,,,,,,,,,,,,,,,,,,,,,,,,,,,,,,,,,,,,,,,,,,,,,,,,,,,,,,,,,,,,,,,,,470.76953370001866,471.1702103000134,471.1535401000292,471.254869299999,471.6550510000088,None,right,1,0.6076166999991983,471.6550510000088,None,471.1535401000292,471.254869299999,471.254869299999,None,472.28784900001483,None,,,,,,,11007,001,2024_Jan_01_1430,ANT,2021.2.3,60.274659562034465,
1,21,spatial,down,C,L,,,,,,Block.xlsx,"你已经完成了整个实验（三个区组）。

请报告实验者已完成实验

非常感谢，再见！",-1.5,0,-1.5,left,LLLLL.png,,,,,0,1,1,1,3,9,81,20,,,,,,,,,,,,,,,,,,,,,,,,,,,,,,,,,,,,,,,,,,,,,,,,,,,,,,,,,,,,,,,,,,,,,,472.68819379998604,473.08904699998675,473.07271340000443,473.17418380000163,473.57360850000987,None,left,1,0.4251735999714583,473.57360850000987,None,473.07271340000443,473.17418380000163,473.17418380000163,None,474.023602100031,None,,,,,,,11007,001,2024_Jan_01_1430,ANT,2021.2.3,60.274659562034465,
1,7,no,down,IC,L,,,,,,Block.xlsx,"你已经完成了整个实验（三个区组）。

请报告实验者已完成实验

非常感谢，再见！",50,0,-1.5,left,RRLRR.png,,,,,0,1,1,1,3,10,82,6,,,,,,,,,,,,,,,,,,,,,,,,,,,,,,,,,,,,,,,,,,,,,,,,,,,,,,,,,,,,,,,,,,,,,,474.42423260002397,474.8258050000295,474.808934700035,474.90910049999366,475.30946399999084,None,left,1,0.6499293000088073,475.30946399999084,None,474.808934700035,474.90910049999366,474.90910049999366,None,475.9770619000192,None,,,,,,,11007,001,2024_Jan_01_1430,ANT,2021.2.3,60.274659562034465,
1,6,no,down,C,R,,,,,,Block.xlsx,"你已经完成了整个实验（三个区组）。

请报告实验者已完成实验

非常感谢，再见！",50,0,-1.5,right,RRRRR.png,,,,,0,1,1,1,3,11,83,5,,,,,,,,,,,,,,,,,,,,,,,,,,,,,,,,,,,,,,,,,,,,,,,,,,,,,,,,,,,,,,,,,,,,,,476.37779619998764,476.77773999999044,476.7617457000306,476.86231140000746,477.26285729999654,None,right,1,0.4320230000303127,477.26285729999654,None,476.7617457000306,476.86231140000746,476.86231140000746,None,477.7123859000276,None,,,,,,,11007,001,2024_Jan_01_1430,ANT,2021.2.3,60.274659562034465,
1,7,no,down,IC,L,,,,,,Block.xlsx,"你已经完成了整个实验（三个区组）。

请报告实验者已完成实验

非常感谢，再见！",50,0,-1.5,left,RRLRR.png,,,,,0,1,1,1,3,12,84,6,,,,,,,,,,,,,,,,,,,,,,,,,,,,,,,,,,,,,,,,,,,,,,,,,,,,,,,,,,,,,,,,,,,,,,478.1130906000035,478.51406320004025,478.49752720003016,478.597417699988,478.9980991000193,None,left,1,0.6016436000354588,478.9980991000193,None,478.49752720003016,478.597417699988,478.597417699988,None,479.61525680002524,None,,,,,,,11007,001,2024_Jan_01_1430,ANT,2021.2.3,60.274659562034465,
1,14,center,down,C,R,,,,,,Block.xlsx,"你已经完成了整个实验（三个区组）。

请报告实验者已完成实验

非常感谢，再见！",0,50,-1.5,right,RRRRR.png,,,,,0,1,1,1,3,13,85,13,,,,,,,,,,,,,,,,,,,,,,,,,,,,,,,,,,,,,,,,,,,,,,,,,,,,,,,,,,,,,,,,,,,,,,480.0158426000271,480.4179925000062,480.3998152000131,480.50109320000047,480.90242050000234,None,right,1,0.42432450002525,480.90242050000234,None,480.3998152000131,480.50109320000047,480.50109320000047,None,481.3511811000062,None,,,,,,,11007,001,2024_Jan_01_1430,ANT,2021.2.3,60.274659562034465,
1,22,spatial,down,C,R,,,,,,Block.xlsx,"你已经完成了整个实验（三个区组）。

请报告实验者已完成实验

非常感谢，再见！",-1.5,0,-1.5,right,RRRRR.png,,,,,0,1,1,1,3,14,86,21,,,,,,,,,,,,,,,,,,,,,,,,,,,,,,,,,,,,,,,,,,,,,,,,,,,,,,,,,,,,,,,,,,,,,,481.75230930000544,482.1531658000313,482.1375850000186,482.23601370002143,482.6366025999887,None,right,1,0.40221610001754016,482.6366025999887,None,482.1375850000186,482.23601370002143,482.23601370002143,None,483.05372030002763,None,,,,,,,11007,001,2024_Jan_01_1430,ANT,2021.2.3,60.274659562034465,
1,24,spatial,down,IC,R,,,,,,Block.xlsx,"你已经完成了整个实验（三个区组）。

请报告实验者已完成实验

非常感谢，再见！",-1.5,0,-1.5,right,LLRLL.png,,,,,0,1,1,1,3,15,87,23,,,,,,,,,,,,,,,,,,,,,,,,,,,,,,,,,,,,,,,,,,,,,,,,,,,,,,,,,,,,,,,,,,,,,,483.4543969000224,483.8553062999854,483.8403591000242,483.9398898000363,484.3393900000374,None,right,1,0.5238546999753453,484.3393900000374,None,483.8403591000242,483.9398898000363,483.9398898000363,None,484.8897264000261,None,,,,,,,11007,001,2024_Jan_01_1430,ANT,2021.2.3,60.274659562034465,
1,13,center,down,C,L,,,,,,Block.xlsx,"你已经完成了整个实验（三个区组）。

请报告实验者已完成实验

