TrialType,TrialNumber,WarningType,TargetType,FlankerType,TargetDirection,W,f,Y,corr,imageFile,condition,endtext,Yw,Yf,Yt,Corr,imagefile,trials_3.thisRepN,trials_3.thisTrialN,trials_3.thisN,trials_3.thisIndex,trials_2.thisRepN,trials_2.thisTrialN,trials_2.thisN,trials_2.thisIndex,trials.thisRepN,trials.thisTrialN,trials.thisN,trials.thisIndex,instr.started,instr.stopped,key_resp.keys,key_resp.rt,key_resp.started,key_resp.stopped,image.started,image.stopped,key_resp_6.keys,key_resp_6.rt,key_resp_6.started,key_resp_6.stopped,EX_L.started,EX_L.stopped,AL.started,AL.stopped,key_resp_7.keys,key_resp_7.rt,key_resp_7.started,key_resp_7.stopped,EX_R.started,EX_R.stopped,RR.started,RR.stopped,key_resp_8.keys,key_resp_8.rt,key_resp_8.started,key_resp_8.stopped,image_2.started,image_2.stopped,key_resp_9.keys,key_resp_9.rt,key_resp_9.started,key_resp_9.stopped,image_3.started,image_3.stopped,key_resp_10.keys,key_resp_10.rt,key_resp_10.started,key_resp_10.stopped,fix.started,fix.stopped,war.started,war.stopped,tar.started,tar.stopped,key_resp_4.keys,key_resp_4.corr,key_resp_4.rt,key_resp_4.started,key_resp_4.stopped,fix2.started,fix2.stopped,fix_2.started,fix_2.stopped,Feedback.started,Feedback.stopped,text.started,text.stopped,key_resp_11.keys,key_resp_11.rt,key_resp_11.started,key_resp_11.stopped,key_resp_2.keys,key_resp_2.rt,key_resp_2.started,key_resp_2.stopped,text_5.started,text_5.stopped,fix2_1.started,fix2_1.stopped,Warn.started,Warn.stopped,Tar.started,Tar.stopped,key_resp_5.keys,key_resp_5.corr,key_resp_5.rt,key_resp_5.started,key_resp_5.stopped,Fix_2.started,Fix_2.stopped,fix2_2.started,fix2_2.stopped,text_4.started,text_4.stopped,key_resp_3.keys,key_resp_3.rt,key_resp_3.started,key_resp_3.stopped,text_3.started,text_3.stopped,participant,session,date,expName,psychopyVersion,frameRate,
,,,,,,,,,,,,,,,,,,,,,,,,,,,,,,11.412787499997648,None,space,22.997651400000905,11.412787499997648,None,,,,,,,,,,,,,,,,,,,,,,,,,,,,,,,,,,,,,,,,,,,,,,,,,,,,,,,,,,,,,,,,,,,,,,,,,,,,,,,,,,,,,,,11001,001,2023_Dec_29_1003,ANT,2021.2.3,59.67495054592294,
,,,,,,,,,,,,,,,,,,,,,,,,,,,,,,,,,,,,34.42866810000123,None,space,36.33359249999921,34.42866810000123,None,,,,,,,,,,,,,,,,,,,,,,,,,,,,,,,,,,,,,,,,,,,,,,,,,,,,,,,,,,,,,,,,,,,,,,,,,,,,,,,,,11001,001,2023_Dec_29_1003,ANT,2021.2.3,59.67495054592294,
,,,,,,,,,,,,,,,,,,,,,,,,,,,,,,,,,,,,,,,,,,70.78315339999972,None,70.78315339999972,None,left,4.0670363000026555,70.78315339999972,None,,,,,,,,,,,,,,,,,,,,,,,,,,,,,,,,,,,,,,,,,,,,,,,,,,,,,,,,,,,,,,,,,,,,,,,,,11001,001,2023_Dec_29_1003,ANT,2021.2.3,59.67495054592294,
,,,,,,,,,,,,,,,,,,,,,,,,,,,,,,,,,,,,,,,,,,,,,,,,,,74.87138989999949,None,74.87138989999949,None,right,0.8026721999995061,74.87138989999949,None,,,,,,,,,,,,,,,,,,,,,,,,,,,,,,,,,,,,,,,,,,,,,,,,,,,,,,,,,,,,,,,,,11001,001,2023_Dec_29_1003,ANT,2021.2.3,59.67495054592294,
,,,,,,,,,,,,,,,,,,,,,,,,,,,,,,,,,,,,,,,,,,,,,,,,,,,,,,,,,,75.68911040000239,None,space,78.24095669999951,75.68911040000239,None,,,,,,,,,,,,,,,,,,,,,,,,,,,,,,,,,,,,,,,,,,,,,,,,,,,,,,,,,,,11001,001,2023_Dec_29_1003,ANT,2021.2.3,59.67495054592294,
,,,,,,,,,,,,,,,,,,,,,,,,,,,,,,,,,,,,,,,,,,,,,,,,,,,,,,,,,,,,,,,,153.9561943000008,None,space,8.653839500002505,153.9561943000008,None,,,,,,,,,,,,,,,,,,,,,,,,,,,,,,,,,,,,,,,,,,,,,,,,,,,,,11001,001,2023_Dec_29_1003,ANT,2021.2.3,59.67495054592294,
0,1,no,up,C,L,50,0,1.5,left,LLLLL.png,,,,,,,,0,0,0,0,,,,,,,,,,,,,,,,,,,,,,,,,,,,,,,,,,,,,,,,,,,,,,,,,162.76976640000066,163.17029909999837,163.1534044,163.25244789999851,163.65377050000097,None,left,1,0.9251973000064027,163.65377050000097,None,163.1534044,163.25244789999851,163.25244789999851,None,164.620949199998,None,,,,,,,,,,,,,,,,,,,,,,,,,,,,,,,,,,,,11001,001,2023_Dec_29_1003,ANT,2021.2.3,59.67495054592294,
0,12,spatial,down,IC,R,-1.5,0,-1.5,right,LLRLL.png,,,,,,,,0,1,1,11,,,,,,,,,,,,,,,,,,,,,,,,,,,,,,,,,,,,,,,,,,,,,,,,,166.62518249999994,167.02530760000082,167.00914879999618,167.1086781999984,167.50928959999874,None,left,0,0.44520400000328664,167.50928959999874,None,167.00914879999618,167.1086781999984,167.1086781999984,None,167.9757327999978,None,,,,,,,,,,,,,,,,,,,,,,,,,,,,,,,,,,,,11001,001,2023_Dec_29_1003,ANT,2021.2.3,59.67495054592294,
0,8,center,down,IC,L,0,50,-1.5,left,RRLRR.png,,,,,,,,0,2,2,7,,,,,,,,,,,,,,,,,,,,,,,,,,,,,,,,,,,,,,,,,,,,,,,,,169.9796850999992,170.38022719999572,170.36342870000226,170.46393730000273,170.8641656999971,None,left,1,0.6101214999944204,170.8641656999971,None,170.36342870000226,170.46393730000273,170.46393730000273,None,171.49914629999694,None,,,,,,,,,,,,,,,,,,,,,,,,,,,,,,,,,,,,11001,001,2023_Dec_29_1003,ANT,2021.2.3,59.67495054592294,
0,11,spatial,down,C,L,-1.5,0,-1.5,left,LLLLL.png,,,,,,,,0,3,3,10,,,,,,,,,,,,,,,,,,,,,,,,,,,,,,,,,,,,,,,,,,,,,,,,,173.50155809999706,173.9027522999968,173.885371999997,173.98490719999972,174.38654079999833,None,left,1,0.38460479999776,174.38654079999833,None,173.885371999997,173.98490719999972,173.98490719999972,None,174.78572859999986,None,,,,,,,,,,,,,,,,,,,,,,,,,,,,,,,,,,,,11001,001,2023_Dec_29_1003,ANT,2021.2.3,59.67495054592294,
0,4,no,down,IC,L,50,0,-1.5,left,RRLRR.png,,,,,,,,0,4,4,3,,,,,,,,,,,,,,,,,,,,,,,,,,,,,,,,,,,,,,,,,,,,,,,,,176.78981329999806,177.19058000000223,177.1737729000015,177.27423599999747,177.67442149999988,None,left,1,0.5597441999998409,177.67442149999988,None,177.1737729000015,177.27423599999747,177.27423599999747,None,178.25797169999714,None,,,,,,,,,,,,,,,,,,,,,,,,,,,,,,,,,,,,11001,001,2023_Dec_29_1003,ANT,2021.2.3,59.67495054592294,
0,5,center,up,C,L,0,50,1.5,left,LLLLL.png,,,,,,,,0,5,5,4,,,,,,,,,,,,,,,,,,,,,,,,,,,,,,,,,,,,,,,,,,,,,,,,,180.26162119999935,180.66225680000207,180.64562789999763,180.74597340000037,181.14634639999713,None,left,1,0.4321812999987742,181.14634639999713,None,180.64562789999763,180.74597340000037,180.74597340000037,None,181.5960180999973,None,,,,,,,,,,,,,,,,,,,,,,,,,,,,,,,,,,,,11001,001,2023_Dec_29_1003,ANT,2021.2.3,59.67495054592294,
0,10,spatial,up,IC,L,1.5,0,1.5,left,RRLRR.png,,,,,,,,0,6,6,9,,,,,,,,,,,,,,,,,,,,,,,,,,,,,,,,,,,,,,,,,,,,,,,,,183.59988919999887,184.00056010000117,183.98388749999867,184.08475100000214,184.48420339999575,None,left,1,0.43815869999525603,184.48420339999575,None,183.98388749999867,184.08475100000214,184.08475100000214,None,184.95203949999996,None,,,,,,,,,,,,,,,,,,,,,,,,,,,,,,,,,,,,11001,001,2023_Dec_29_1003,ANT,2021.2.3,59.67495054592294,
0,7,center,down,C,R,0,50,-1.5,right,RRRRR.png,,,,,,,,0,7,7,6,,,,,,,,,,,,,,,,,,,,,,,,,,,,,,,,,,,,,,,,,,,,,,,,,186.95494820000022,187.3558342999968,187.33894110000256,187.43869339999947,187.83955279999645,None,right,1,0.3629828999983147,187.83955279999645,None,187.33894110000256,187.43869339999947,187.43869339999947,None,188.22255059999588,None,,,,,,,,,,,,,,,,,,,,,,,,,,,,,,,,,,,,11001,001,2023_Dec_29_1003,ANT,2021.2.3,59.67495054592294,
0,6,center,up,IC,R,0,50,1.5,right,LLRLL.png,,,,,,,,0,8,8,5,,,,,,,,,,,,,,,,,,,,,,,,,,,,,,,,,,,,,,,,,,,,,,,,,190.226233100002,190.6270450000011,190.61012479999772,190.71045050000248,191.1126992999998,None,left,0,0.3857611999992514,191.1126992999998,None,190.61012479999772,190.71045050000248,190.71045050000248,None,191.52841210000042,None,,,,,,,,,,,,,,,,,,,,,,,,,,,,,,,,,,,,11001,001,2023_Dec_29_1003,ANT,2021.2.3,59.67495054592294,
0,3,no,down,C,R,50,0,-1.5,right,RRRRR.png,,,,,,,,0,9,9,2,,,,,,,,,,,,,,,,,,,,,,,,,,,,,,,,,,,,,,,,,,,,,,,,,193.53132729999925,193.93184299999848,193.9152690999981,194.0151640999975,194.41579079999792,None,right,1,0.362955199998396,194.41579079999792,None,193.9152690999981,194.0151640999975,194.0151640999975,None,194.7993243000019,None,,,,,,,,,,,,,,,,,,,,,,,,,,,,,,,,,,,,11001,001,2023_Dec_29_1003,ANT,2021.2.3,59.67495054592294,
0,2,no,up,IC,R,50,0,1.5,right,LLRLL.png,,,,,,,,0,10,10,1,,,,,,,,,,,,,,,,,,,,,,,,,,,,,,,,,,,,,,,,,,,,,,,,,196.8027729000023,197.20344509999995,197.18689129999984,197.28750589999981,197.68745859999763,None,right,1,0.5081112999978359,197.68745859999763,None,197.18689129999984,197.28750589999981,197.28750589999981,None,198.2208157999994,None,,,,,,,,,,,,,,,,,,,,,,,,,,,,,,,,,,,,11001,001,2023_Dec_29_1003,ANT,2021.2.3,59.67495054592294,
0,9,spatial,up,C,R,1.5,0,1.5,right,RRRRR.png,,,,,,,,0,11,11,8,,,,,,,,,,,,,,,,,,,,,,,,,,,,,,,,,,,,,,,,,,,,,,,,,200.2245025000011,200.62516280000273,200.60844489999727,200.70871009999973,201.1094618999996,None,right,1,0.3967354000051273,201.1094618999996,None,200.60844489999727,200.70871009999973,200.70871009999973,None,201.52583330000198,None,,,,,,,,,,,,,,,,,,,,,,,,,,,,,,,,,,,,11001,001,2023_Dec_29_1003,ANT,2021.2.3,59.67495054592294,
,,,,,,,,,,,,,,,,,,,,,,,,,,,,,,,,,,,,,,,,,,,,,,,,,,,,,,,,,,,,,,,,,,,,,,,,,,,,,,,,,,,,,,,203.56191330000001,None,space,195.61728339999536,203.56191330000001,None,,,,,,,,,,,,,,,,,,,,,,,,,,,,,,11001,001,2023_Dec_29_1003,ANT,2021.2.3,59.67495054592294,
,,,,,,,,,,,,,,,,,,,,,,,,,,,,,,,,,,,,,,,,,,,,,,,,,,,,,,,,,,,,,,,,,,,,,,,,,,,,,,,,,,,,,,,,,,,,,space,3.392199800000526,399.20242280000093,None,,,,,,,,,,,,,,,,,,,,,,,,,,11001,001,2023_Dec_29_1003,ANT,2021.2.3,59.67495054592294,
1,24,spatial,down,IC,R,,,,,,Block.xlsx,"你已经完成了第一个实验区组

请稍作休息


点击空格键进入下一个区组。",-1.5,0,-1.5,right,LLRLL.png,,,,,0,0,0,0,0,0,0,23,,,,,,,,,,,,,,,,,,,,,,,,,,,,,,,,,,,,,,,,,,,,,,,,,,,,,,,,,,,,,,,,,,,,399.20242280000093,None,402.6744696999958,403.0752100000027,403.05836019999697,403.1595159999997,403.55883639999956,None,right,1,0.491722499995376,403.55883639999956,None,403.05836019999697,403.1595159999997,403.1595159999997,None,404.0765809000004,None,,,,,,,11001,001,2023_Dec_29_1003,ANT,2021.2.3,59.67495054592294,
1,11,center,up,IC,L,,,,,,Block.xlsx,"你已经完成了第一个实验区组

请稍作休息


点击空格键进入下一个区组。",0,50,1.5,left,RRLRR.png,,,,,0,0,0,0,0,1,1,10,,,,,,,,,,,,,,,,,,,,,,,,,,,,,,,,,,,,,,,,,,,,,,,,,,,,,,,,,,,,,,,,,,,,,,404.47718370000075,404.8778424999982,404.8610007000025,404.9613776999977,405.3621432,None,left,1,0.5763044999985141,405.3621432,None,404.8610007000025,404.9613776999977,404.9613776999977,None,405.9621584999986,None,,,,,,,11001,001,2023_Dec_29_1003,ANT,2021.2.3,59.67495054592294,
1,22,spatial,down,C,R,,,,,,Block.xlsx,"你已经完成了第一个实验区组

请稍作休息


点击空格键进入下一个区组。",-1.5,0,-1.5,right,RRRRR.png,,,,,0,0,0,0,0,2,2,21,,,,,,,,,,,,,,,,,,,,,,,,,,,,,,,,,,,,,,,,,,,,,,,,,,,,,,,,,,,,,,,,,,,,,,406.3634036000003,406.76332099999854,406.7472590999969,406.84661129999586,407.24801450000086,None,right,1,0.34682140000222716,407.24801450000086,None,406.7472590999969,406.84661129999586,406.84661129999586,None,407.6144843000002,None,,,,,,,11001,001,2023_Dec_29_1003,ANT,2021.2.3,59.67495054592294,
1,1,no,up,C,L,,,,,,Block.xlsx,"你已经完成了第一个实验区组

请稍作休息


点击空格键进入下一个区组。",50,0,1.5,left,LLLLL.png,,,,,0,0,0,0,0,3,3,0,,,,,,,,,,,,,,,,,,,,,,,,,,,,,,,,,,,,,,,,,,,,,,,,,,,,,,,,,,,,,,,,,,,,,,408.0155636999989,408.41646110000147,408.39984379999805,408.4994219,408.9004225000026,None,left,1,0.3101204999984475,408.9004225000026,None,408.39984379999805,408.4994219,408.4994219,None,409.23345349999727,None,,,,,,,11001,001,2023_Dec_29_1003,ANT,2021.2.3,59.67495054592294,
1,16,center,down,IC,R,,,,,,Block.xlsx,"你已经完成了第一个实验区组

请稍作休息


点击空格键进入下一个区组。",0,50,-1.5,right,LLRLL.png,,,,,0,0,0,0,0,4,4,15,,,,,,,,,,,,,,,,,,,,,,,,,,,,,,,,,,,,,,,,,,,,,,,,,,,,,,,,,,,,,,,,,,,,,,409.6345857999986,410.03549190000194,410.0188044999959,410.11909110000124,410.5193166999961,None,right,1,0.41935560000274563,410.5193166999961,None,410.0188044999959,410.11909110000124,410.11909110000124,None,410.97032619999663,None,,,,,,,11001,001,2023_Dec_29_1003,ANT,2021.2.3,59.67495054592294,
1,19,spatial,up,IC,L,,,,,,Block.xlsx,"你已经完成了第一个实验区组

请稍作休息


点击空格键进入下一个区组。",1.5,0,1.5,left,RRLRR.png,,,,,0,0,0,0,0,5,5,18,,,,,,,,,,,,,,,,,,,,,,,,,,,,,,,,,,,,,,,,,,,,,,,,,,,,,,,,,,,,,,,,,,,,,,411.3708705999961,411.77152139999816,411.75478859999566,411.8548687000002,412.2555882000015,None,left,1,0.41094409999641357,412.2555882000015,None,411.75478859999566,411.8548687000002,411.8548687000002,None,412.6885714000018,None,,,,,,,11001,001,2023_Dec_29_1003,ANT,2021.2.3,59.67495054592294,
1,7,no,down,IC,L,,,,,,Block.xlsx,"你已经完成了第一个实验区组

请稍作休息


点击空格键进入下一个区组。",50,0,-1.5,left,RRLRR.png,,,,,0,0,0,0,0,6,6,6,,,,,,,,,,,,,,,,,,,,,,,,,,,,,,,,,,,,,,,,,,,,,,,,,,,,,,,,,,,,,,,,,,,,,,413.09007230000134,413.49057860000175,413.47383029999764,413.5741511000015,413.9748686000021,None,left,1,0.46832229999563424,413.9748686000021,None,413.47383029999764,413.5741511000015,413.5741511000015,None,414.4585891999959,None,,,,,,,11001,001,2023_Dec_29_1003,ANT,2021.2.3,59.67495054592294,
1,13,center,down,C,L,,,,,,Block.xlsx,"你已经完成了第一个实验区组

请稍作休息


点击空格键进入下一个区组。",0,50,-1.5,left,LLLLL.png,,,,,0,0,0,0,0,7,7,12,,,,,,,,,,,,,,,,,,,,,,,,,,,,,,,,,,,,,,,,,,,,,,,,,,,,,,,,,,,,,,,,,,,,,,414.8593940999999,415.2602979000003,415.24282870000025,415.3433836999975,415.7439632999958,None,left,1,0.39462710000225343,415.7439632999958,None,415.24282870000025,415.3433836999975,415.3433836999975,None,416.1603127999988,None,,,,,,,11001,001,2023_Dec_29_1003,ANT,2021.2.3,59.67495054592294,
1,17,spatial,up,C,L,,,,,,Block.xlsx,"你已经完成了第一个实验区组

请稍作休息


点击空格键进入下一个区组。",1.5,0,1.5,left,LLLLL.png,,,,,0,0,0,0,0,8,8,16,,,,,,,,,,,,,,,,,,,,,,,,,,,,,,,,,,,,,,,,,,,,,,,,,,,,,,,,,,,,,,,,,,,,,,416.56218490000174,416.9620133999997,416.94520109999576,417.04594019999786,417.4464980999983,None,left,1,0.348288400004094,417.4464980999983,None,416.94520109999576,417.04594019999786,417.04594019999786,None,417.8127680999969,None,,,,,,,11001,001,2023_Dec_29_1003,ANT,2021.2.3,59.67495054592294,
1,18,spatial,up,C,R,,,,,,Block.xlsx,"你已经完成了第一个实验区组

请稍作休息


点击空格键进入下一个区组。",1.5,0,1.5,right,RRRRR.png,,,,,0,0,0,0,0,9,9,17,,,,,,,,,,,,,,,,,,,,,,,,,,,,,,,,,,,,,,,,,,,,,,,,,,,,,,,,,,,,,,,,,,,,,,418.21473479999986,418.614651099997,418.59827159999986,418.69837189999816,419.0989611999976,None,right,1,0.3275664000029792,419.0989611999976,None,418.59827159999986,418.69837189999816,418.69837189999816,None,419.4490968999962,None,,,,,,,11001,001,2023_Dec_29_1003,ANT,2021.2.3,59.67495054592294,
1,2,no,up,C,R,,,,,,Block.xlsx,"你已经完成了第一个实验区组

请稍作休息


点击空格键进入下一个区组。",50,0,1.5,right,RRRRR.png,,,,,0,0,0,0,0,10,10,1,,,,,,,,,,,,,,,,,,,,,,,,,,,,,,,,,,,,,,,,,,,,,,,,,,,,,,,,,,,,,,,,,,,,,,419.8502004999973,420.2502459000025,420.2344138999979,420.334102599998,420.73456520000036,None,right,1,0.357137099999818,420.73456520000036,None,420.2344138999979,420.334102599998,420.334102599998,None,421.1186852999963,None,,,,,,,11001,001,2023_Dec_29_1003,ANT,2021.2.3,59.67495054592294,
1,14,center,down,C,R,,,,,,Block.xlsx,"你已经完成了第一个实验区组

请稍作休息


点击空格键进入下一个区组。",0,50,-1.5,right,RRRRR.png,,,,,0,0,0,0,0,11,11,13,,,,,,,,,,,,,,,,,,,,,,,,,,,,,,,,,,,,,,,,,,,,,,,,,,,,,,,,,,,,,,,,,,,,,,421.5183249999973,421.9194006999969,421.90300579999894,422.003283799997,422.4039238999976,None,right,1,0.37449629999900935,422.4039238999976,None,421.90300579999894,422.003283799997,422.003283799997,None,422.8040938999984,None,,,,,,,11001,001,2023_Dec_29_1003,ANT,2021.2.3,59.67495054592294,
1,4,no,up,IC,R,,,,,,Block.xlsx,"你已经完成了第一个实验区组

请稍作休息


点击空格键进入下一个区组。",50,0,1.5,right,LLRLL.png,,,,,0,0,0,0,0,12,12,3,,,,,,,,,,,,,,,,,,,,,,,,,,,,,,,,,,,,,,,,,,,,,,,,,,,,,,,,,,,,,,,,,,,,,,423.2049729999999,423.60559710000234,423.58877499999653,423.6891472999996,424.08968399999867,None,right,1,0.40157729999918956,424.08968399999867,None,423.58877499999653,423.6891472999996,423.6891472999996,None,424.5061824000004,None,,,,,,,11001,001,2023_Dec_29_1003,ANT,2021.2.3,59.67495054592294,
1,5,no,down,C,L,,,,,,Block.xlsx,"你已经完成了第一个实验区组

请稍作休息


点击空格键进入下一个区组。",50,0,-1.5,left,LLLLL.png,,,,,0,0,0,0,0,13,13,4,,,,,,,,,,,,,,,,,,,,,,,,,,,,,,,,,,,,,,,,,,,,,,,,,,,,,,,,,,,,,,,,,,,,,,424.9076425999956,425.30817659999593,425.2914449000018,425.39153899999656,425.7921021000002,None,left,1,0.34648120000201743,425.7921021000002,None,425.2914449000018,425.39153899999656,425.39153899999656,None,426.15860950000206,None,,,,,,,11001,001,2023_Dec_29_1003,ANT,2021.2.3,59.67495054592294,
1,7,no,down,IC,L,,,,,,Block.xlsx,"你已经完成了第一个实验区组

请稍作休息


点击空格键进入下一个区组。",50,0,-1.5,left,RRLRR.png,,,,,0,0,0,0,0,14,14,6,,,,,,,,,,,,,,,,,,,,,,,,,,,,,,,,,,,,,,,,,,,,,,,,,,,,,,,,,,,,,,,,,,,,,,426.560063799996,426.9601293000014,426.9432244999989,427.04401040000084,427.4446392000027,None,left,1,0.46230800000193994,427.4446392000027,None,426.9432244999989,427.04401040000084,427.04401040000084,None,427.9290248999969,None,,,,,,,11001,001,2023_Dec_29_1003,ANT,2021.2.3,59.67495054592294,
1,15,center,down,IC,L,,,,,,Block.xlsx,"你已经完成了第一个实验区组

请稍作休息


点击空格键进入下一个区组。",0,50,-1.5,left,RRLRR.png,,,,,0,0,0,0,0,15,15,14,,,,,,,,,,,,,,,,,,,,,,,,,,,,,,,,,,,,,,,,,,,,,,,,,,,,,,,,,,,,,,,,,,,,,,428.32914419999724,428.72983119999844,428.7131741999983,428.8134454999963,429.21424939999997,None,left,1,0.3884512999939034,429.21424939999997,None,428.7131741999983,428.8134454999963,428.8134454999963,None,429.63113449999946,None,,,,,,,11001,001,2023_Dec_29_1003,ANT,2021.2.3,59.67495054592294,
1,19,spatial,up,IC,L,,,,,,Block.xlsx,"你已经完成了第一个实验区组

请稍作休息


点击空格键进入下一个区组。",1.5,0,1.5,left,RRLRR.png,,,,,0,0,0,0,0,16,16,18,,,,,,,,,,,,,,,,,,,,,,,,,,,,,,,,,,,,,,,,,,,,,,,,,,,,,,,,,,,,,,,,,,,,,,430.0317176999961,430.4324200999981,430.4158191999959,430.51636660000077,430.9162070999955,None,left,1,0.42235889999574283,430.9162070999955,None,430.4158191999959,430.51636660000077,430.51636660000077,None,431.36717549999594,None,,,,,,,11001,001,2023_Dec_29_1003,ANT,2021.2.3,59.67495054592294,
1,12,center,up,IC,R,,,,,,Block.xlsx,"你已经完成了第一个实验区组

请稍作休息


点击空格键进入下一个区组。",0,50,1.5,right,LLRLL.png,,,,,0,0,0,0,0,17,17,11,,,,,,,,,,,,,,,,,,,,,,,,,,,,,,,,,,,,,,,,,,,,,,,,,,,,,,,,,,,,,,,,,,,,,,431.7668277999983,432.1683284999963,432.15120229999593,432.251912599997,432.6524256999983,None,left,0,0.41445519999979297,432.6524256999983,None,432.15120229999593,432.251912599997,432.251912599997,None,433.0860763000019,None,,,,,,,11001,001,2023_Dec_29_1003,ANT,2021.2.3,59.67495054592294,
1,5,no,down,C,L,,,,,,Block.xlsx,"你已经完成了第一个实验区组

请稍作休息


点击空格键进入下一个区组。",50,0,-1.5,left,LLLLL.png,,,,,0,0,0,0,0,18,18,4,,,,,,,,,,,,,,,,,,,,,,,,,,,,,,,,,,,,,,,,,,,,,,,,,,,,,,,,,,,,,,,,,,,,,,433.4869036000018,433.8875371999966,433.87079950000043,433.97113810000155,434.3721016999989,None,left,1,0.4068390000029467,434.3721016999989,None,433.87079950000043,433.97113810000155,433.97113810000155,None,434.8054951000013,None,,,,,,,11001,001,2023_Dec_29_1003,ANT,2021.2.3,59.67495054592294,
1,6,no,down,C,R,,,,,,Block.xlsx,"你已经完成了第一个实验区组

请稍作休息


点击空格键进入下一个区组。",50,0,-1.5,right,RRRRR.png,,,,,0,0,0,0,0,19,19,5,,,,,,,,,,,,,,,,,,,,,,,,,,,,,,,,,,,,,,,,,,,,,,,,,,,,,,,,,,,,,,,,,,,,,,435.2060638999974,435.606832999998,435.59001680000074,435.69002909999836,436.09059010000055,None,right,1,0.520075700005691,436.09059010000055,None,435.59001680000074,435.69002909999836,435.69002909999836,None,436.6416903999998,None,,,,,,,11001,001,2023_Dec_29_1003,ANT,2021.2.3,59.67495054592294,
1,23,spatial,down,IC,L,,,,,,Block.xlsx,"你已经完成了第一个实验区组

请稍作休息


点击空格键进入下一个区组。",-1.5,0,-1.5,left,RRLRR.png,,,,,0,0,0,0,0,20,20,22,,,,,,,,,,,,,,,,,,,,,,,,,,,,,,,,,,,,,,,,,,,,,,,,,,,,,,,,,,,,,,,,,,,,,,437.0421645000024,437.4428904000015,437.42618989999755,437.52604900000006,437.9268004999976,None,left,1,0.37181820000114385,437.9268004999976,None,437.42618989999755,437.52604900000006,437.52604900000006,None,438.3274337999974,None,,,,,,,11001,001,2023_Dec_29_1003,ANT,2021.2.3,59.67495054592294,
1,20,spatial,up,IC,R,,,,,,Block.xlsx,"你已经完成了第一个实验区组

请稍作休息


点击空格键进入下一个区组。",1.5,0,1.5,right,LLRLL.png,,,,,0,0,0,0,0,21,21,19,,,,,,,,,,,,,,,,,,,,,,,,,,,,,,,,,,,,,,,,,,,,,,,,,,,,,,,,,,,,,,,,,,,,,,438.7281189999994,439.12798869999824,439.1123898000005,439.212122500001,439.6125191999963,None,right,1,0.35796599999594036,439.6125191999963,None,439.1123898000005,439.212122500001,439.212122500001,None,439.99649489999865,None,,,,,,,11001,001,2023_Dec_29_1003,ANT,2021.2.3,59.67495054592294,
1,2,no,up,C,R,,,,,,Block.xlsx,"你已经完成了第一个实验区组

请稍作休息


点击空格键进入下一个区组。",50,0,1.5,right,RRRRR.png,,,,,0,0,0,0,0,22,22,1,,,,,,,,,,,,,,,,,,,,,,,,,,,,,,,,,,,,,,,,,,,,,,,,,,,,,,,,,,,,,,,,,,,,,,440.39740809999785,440.79770380000264,440.78148269999656,440.88123410000117,441.2819185999979,None,right,1,0.5210682999968412,441.2819185999979,None,440.78148269999656,440.88123410000117,440.88123410000117,None,441.83174639999925,None,,,,,,,11001,001,2023_Dec_29_1003,ANT,2021.2.3,59.67495054592294,
1,4,no,up,IC,R,,,,,,Block.xlsx,"你已经完成了第一个实验区组

请稍作休息


点击空格键进入下一个区组。",50,0,1.5,right,LLRLL.png,,,,,0,0,0,0,0,23,23,3,,,,,,,,,,,,,,,,,,,,,,,,,,,,,,,,,,,,,,,,,,,,,,,,,,,,,,,,,,,,,,,,,,,,,,442.233473399996,442.63378419999935,442.617613800001,442.71728769999754,443.1179362999974,None,right,1,0.5245738000012352,443.1179362999974,None,442.617613800001,442.71728769999754,442.71728769999754,None,443.668743000002,None,,,,,,,11001,001,2023_Dec_29_1003,ANT,2021.2.3,59.67495054592294,
1,13,center,down,C,L,,,,,,Block.xlsx,"你已经完成了第一个实验区组

请稍作休息


点击空格键进入下一个区组。",0,50,-1.5,left,LLLLL.png,,,,,0,0,0,0,1,0,24,12,,,,,,,,,,,,,,,,,,,,,,,,,,,,,,,,,,,,,,,,,,,,,,,,,,,,,,,,,,,,,,,,,,,,,,444.06961969999975,444.4706126000019,444.4536188999991,444.5533432000011,444.9539988999968,None,left,1,0.4645842000027187,444.9539988999968,None,444.4536188999991,444.5533432000011,444.5533432000011,None,445.4372863999961,None,,,,,,,11001,001,2023_Dec_29_1003,ANT,2021.2.3,59.67495054592294,
1,15,center,down,IC,L,,,,,,Block.xlsx,"你已经完成了第一个实验区组

请稍作休息


点击空格键进入下一个区组。",0,50,-1.5,left,RRLRR.png,,,,,0,0,0,0,1,1,25,14,,,,,,,,,,,,,,,,,,,,,,,,,,,,,,,,,,,,,,,,,,,,,,,,,,,,,,,,,,,,,,,,,,,,,,445.8385726999986,446.23923020000075,446.2225338999997,446.32226660000015,446.7232289999956,None,left,1,0.45539930000086315,446.7232289999956,None,446.2225338999997,446.32226660000015,446.32226660000015,None,447.20643279999786,None,,,,,,,11001,001,2023_Dec_29_1003,ANT,2021.2.3,59.67495054592294,
1,2,no,up,C,R,,,,,,Block.xlsx,"你已经完成了第一个实验区组

请稍作休息


点击空格键进入下一个区组。",50,0,1.5,right,RRRRR.png,,,,,0,0,0,0,1,2,26,1,,,,,,,,,,,,,,,,,,,,,,,,,,,,,,,,,,,,,,,,,,,,,,,,,,,,,,,,,,,,,,,,,,,,,,447.60764989999734,448.0082026000018,447.99171449999994,448.09202150000056,448.49219759999687,None,right,1,0.454616499999247,448.49219759999687,None,447.99171449999994,448.09202150000056,448.09202150000056,None,448.9765522000016,None,,,,,,,11001,001,2023_Dec_29_1003,ANT,2021.2.3,59.67495054592294,
1,1,no,up,C,L,,,,,,Block.xlsx,"你已经完成了第一个实验区组

请稍作休息


点击空格键进入下一个区组。",50,0,1.5,left,LLLLL.png,,,,,0,0,0,0,1,3,27,0,,,,,,,,,,,,,,,,,,,,,,,,,,,,,,,,,,,,,,,,,,,,,,,,,,,,,,,,,,,,,,,,,,,,,,449.3773080999963,449.7782512999984,449.7610053000026,449.86132599999837,450.2618586000026,None,left,1,0.5087265000038315,450.2618586000026,None,449.7610053000026,449.86132599999837,449.86132599999837,None,450.7959169999958,None,,,,,,,11001,001,2023_Dec_29_1003,ANT,2021.2.3,59.67495054592294,
1,16,center,down,IC,R,,,,,,Block.xlsx,"你已经完成了第一个实验区组

请稍作休息


点击空格键进入下一个区组。",0,50,-1.5,right,LLRLL.png,,,,,0,0,0,0,1,4,28,15,,,,,,,,,,,,,,,,,,,,,,,,,,,,,,,,,,,,,,,,,,,,,,,,,,,,,,,,,,,,,,,,,,,,,,451.19658750000235,451.59674749999976,451.58008800000243,451.68056369999977,452.0811706999957,None,right,1,0.3856766000026255,452.0811706999957,None,451.58008800000243,451.68056369999977,451.68056369999977,None,452.49824960000115,None,,,,,,,11001,001,2023_Dec_29_1003,ANT,2021.2.3,59.67495054592294,
1,13,center,down,C,L,,,,,,Block.xlsx,"你已经完成了第一个实验区组

请稍作休息


点击空格键进入下一个区组。",0,50,-1.5,left,LLLLL.png,,,,,0,0,0,0,1,5,29,12,,,,,,,,,,,,,,,,,,,,,,,,,,,,,,,,,,,,,,,,,,,,,,,,,,,,,,,,,,,,,,,,,,,,,,452.89960509999946,453.29957619999914,453.2828769999978,453.38474139999744,453.78388570000243,None,left,1,0.4352380000054836,453.78388570000243,None,453.2828769999978,453.38474139999744,453.38474139999744,None,454.2508407999994,None,,,,,,,11001,001,2023_Dec_29_1003,ANT,2021.2.3,59.67495054592294,
1,23,spatial,down,IC,L,,,,,,Block.xlsx,"你已经完成了第一个实验区组

请稍作休息


点击空格键进入下一个区组。",-1.5,0,-1.5,left,RRLRR.png,,,,,0,0,0,0,1,6,30,22,,,,,,,,,,,,,,,,,,,,,,,,,,,,,,,,,,,,,,,,,,,,,,,,,,,,,,,,,,,,,,,,,,,,,,454.65164229999937,455.0523185999991,455.0354475999993,455.135268799997,455.5358539000008,None,left,1,0.4110190999999759,455.5358539000008,None,455.0354475999993,455.135268799997,455.135268799997,None,455.97032559999934,None,,,,,,,11001,001,2023_Dec_29_1003,ANT,2021.2.3,59.67495054592294,
1,9,center,up,C,L,,,,,,Block.xlsx,"你已经完成了第一个实验区组

请稍作休息


点击空格键进入下一个区组。",0,50,1.5,left,LLLLL.png,,,,,0,0,0,0,1,7,31,8,,,,,,,,,,,,,,,,,,,,,,,,,,,,,,,,,,,,,,,,,,,,,,,,,,,,,,,,,,,,,,,,,,,,,,456.37089630000264,456.7713730999967,456.75468259999616,456.854740499999,457.2547357000003,None,left,1,0.4197987000006833,457.2547357000003,None,456.75468259999616,456.854740499999,456.854740499999,None,457.7061162000027,None,,,,,,,11001,001,2023_Dec_29_1003,ANT,2021.2.3,59.67495054592294,
1,22,spatial,down,C,R,,,,,,Block.xlsx,"你已经完成了第一个实验区组

请稍作休息


点击空格键进入下一个区组。",-1.5,0,-1.5,right,RRRRR.png,,,,,0,0,0,0,1,8,32,21,,,,,,,,,,,,,,,,,,,,,,,,,,,,,,,,,,,,,,,,,,,,,,,,,,,,,,,,,,,,,,,,,,,,,,458.1068155999965,458.5073734999969,458.4906295999972,458.59070529999735,458.9913674999989,None,right,1,0.3635039000000688,458.9913674999989,None,458.4906295999972,458.59070529999735,458.59070529999735,None,459.37526349999825,None,,,,,,,11001,001,2023_Dec_29_1003,ANT,2021.2.3,59.67495054592294,
1,6,no,down,C,R,,,,,,Block.xlsx,"你已经完成了第一个实验区组

请稍作休息


点击空格键进入下一个区组。",50,0,-1.5,right,RRRRR.png,,,,,0,0,0,0,1,9,33,5,,,,,,,,,,,,,,,,,,,,,,,,,,,,,,,,,,,,,,,,,,,,,,,,,,,,,,,,,,,,,,,,,,,,,,459.77586789999623,460.17653820000123,460.1597915999955,460.25975969999854,460.66045640000084,None,right,1,0.4302717999962624,460.66045640000084,None,460.1597915999955,460.25975969999854,460.25975969999854,None,461.1112346000009,None,,,,,,,11001,001,2023_Dec_29_1003,ANT,2021.2.3,59.67495054592294,
1,3,no,up,IC,L,,,,,,Block.xlsx,"你已经完成了第一个实验区组

请稍作休息


点击空格键进入下一个区组。",50,0,1.5,left,RRLRR.png,,,,,0,0,0,0,1,10,34,2,,,,,,,,,,,,,,,,,,,,,,,,,,,,,,,,,,,,,,,,,,,,,,,,,,,,,,,,,,,,,,,,,,,,,,461.51179879999836,461.9123527999982,461.895640499999,461.9964426000006,462.39626609999686,None,left,1,0.535091800004011,462.39626609999686,None,461.895640499999,461.9964426000006,461.9964426000006,None,462.9463304000019,None,,,,,,,11001,001,2023_Dec_29_1003,ANT,2021.2.3,59.67495054592294,
1,24,spatial,down,IC,R,,,,,,Block.xlsx,"你已经完成了第一个实验区组

请稍作休息


点击空格键进入下一个区组。",-1.5,0,-1.5,right,LLRLL.png,,,,,0,0,0,0,1,11,35,23,,,,,,,,,,,,,,,,,,,,,,,,,,,,,,,,,,,,,,,,,,,,,,,,,,,,,,,,,,,,,,,,,,,,,,463.34827719999885,463.7482063999996,463.73165419999714,463.83169120000093,464.232591699998,None,right,1,0.45093769999948563,464.232591699998,None,463.73165419999714,463.83169120000093,463.83169120000093,None,464.6991420999984,None,,,,,,,11001,001,2023_Dec_29_1003,ANT,2021.2.3,59.67495054592294,
1,12,center,up,IC,R,,,,,,Block.xlsx,"你已经完成了第一个实验区组

请稍作休息


点击空格键进入下一个区组。",0,50,1.5,right,LLRLL.png,,,,,0,0,0,0,1,12,36,11,,,,,,,,,,,,,,,,,,,,,,,,,,,,,,,,,,,,,,,,,,,,,,,,,,,,,,,,,,,,,,,,,,,,,,465.10046370000055,465.5011220000015,465.4843957999983,465.5841330999974,465.985093999996,None,right,1,0.45762529999774415,465.985093999996,None,465.4843957999983,465.5841330999974,465.5841330999974,None,466.46907199999987,None,,,,,,,11001,001,2023_Dec_29_1003,ANT,2021.2.3,59.67495054592294,
1,24,spatial,down,IC,R,,,,,,Block.xlsx,"你已经完成了第一个实验区组

请稍作休息


点击空格键进入下一个区组。",-1.5,0,-1.5,right,LLRLL.png,,,,,0,0,0,0,1,13,37,23,,,,,,,,,,,,,,,,,,,,,,,,,,,,,,,,,,,,,,,,,,,,,,,,,,,,,,,,,,,,,,,,,,,,,,466.8696817000018,467.2703460999983,467.2536370000016,467.3536774999957,467.7549093999987,None,right,1,0.3597220000010566,467.7549093999987,None,467.2536370000016,467.3536774999957,467.3536774999957,None,468.13752260000183,None,,,,,,,11001,001,2023_Dec_29_1003,ANT,2021.2.3,59.67495054592294,
1,16,center,down,IC,R,,,,,,Block.xlsx,"你已经完成了第一个实验区组

请稍作休息


点击空格键进入下一个区组。",0,50,-1.5,right,LLRLL.png,,,,,0,0,0,0,1,14,38,15,,,,,,,,,,,,,,,,,,,,,,,,,,,,,,,,,,,,,,,,,,,,,,,,,,,,,,,,,,,,,,,,,,,,,,468.5388735000015,468.9395889000007,468.9227840999956,469.0232711999997,469.4227291999996,None,right,1,0.45243219999974826,469.4227291999996,None,468.9227840999956,469.0232711999997,469.0232711999997,None,469.89089539999986,None,,,,,,,11001,001,2023_Dec_29_1003,ANT,2021.2.3,59.67495054592294,
1,24,spatial,down,IC,R,,,,,,Block.xlsx,"你已经完成了第一个实验区组

请稍作休息


点击空格键进入下一个区组。",-1.5,0,-1.5,right,LLRLL.png,,,,,0,0,0,0,1,15,39,23,,,,,,,,,,,,,,,,,,,,,,,,,,,,,,,,,,,,,,,,,,,,,,,,,,,,,,,,,,,,,,,,,,,,,,470.2916541000013,470.6926263999994,470.6749542999969,470.77549790000194,471.1761996999994,None,right,1,0.3384594999952242,471.1761996999994,None,470.6749542999969,470.77549790000194,470.77549790000194,None,471.54320039999584,None,,,,,,,11001,001,2023_Dec_29_1003,ANT,2021.2.3,59.67495054592294,
1,10,center,up,C,R,,,,,,Block.xlsx,"你已经完成了第一个实验区组

请稍作休息


点击空格键进入下一个区组。",0,50,1.5,right,RRRRR.png,,,,,0,0,0,0,1,16,40,9,,,,,,,,,,,,,,,,,,,,,,,,,,,,,,,,,,,,,,,,,,,,,,,,,,,,,,,,,,,,,,,,,,,,,,471.94412459999876,472.34444529999746,472.32820509999874,472.42796039999666,472.8284952999966,None,right,1,0.5505054000022938,472.8284952999966,None,472.32820509999874,472.42796039999666,472.42796039999666,None,473.39523909999843,None,,,,,,,11001,001,2023_Dec_29_1003,ANT,2021.2.3,59.67495054592294,
1,16,center,down,IC,R,,,,,,Block.xlsx,"你已经完成了第一个实验区组

请稍作休息


点击空格键进入下一个区组。",0,50,-1.5,right,LLRLL.png,,,,,0,0,0,0,1,17,41,15,,,,,,,,,,,,,,,,,,,,,,,,,,,,,,,,,,,,,,,,,,,,,,,,,,,,,,,,,,,,,,,,,,,,,,473.7964546000003,474.1972217000002,474.18027649999567,474.28072899999825,474.68037360000017,None,right,1,0.5942804000005708,474.68037360000017,None,474.18027649999567,474.28072899999825,474.28072899999825,None,475.29889620000176,None,,,,,,,11001,001,2023_Dec_29_1003,ANT,2021.2.3,59.67495054592294,
1,11,center,up,IC,L,,,,,,Block.xlsx,"你已经完成了第一个实验区组

请稍作休息


点击空格键进入下一个区组。",0,50,1.5,left,RRLRR.png,,,,,0,0,0,0,1,18,42,10,,,,,,,,,,,,,,,,,,,,,,,,,,,,,,,,,,,,,,,,,,,,,,,,,,,,,,,,,,,,,,,,,,,,,,475.6994016999961,476.1001619000017,476.08336650000274,476.18391059999703,476.58410549999826,None,left,1,0.4904932999997982,476.58410549999826,None,476.08336650000274,476.18391059999703,476.18391059999703,None,477.1007096999965,None,,,,,,,11001,001,2023_Dec_29_1003,ANT,2021.2.3,59.67495054592294,
1,17,spatial,up,C,L,,,,,,Block.xlsx,"你已经完成了第一个实验区组

请稍作休息


点击空格键进入下一个区组。",1.5,0,1.5,left,LLLLL.png,,,,,0,0,0,0,1,19,43,16,,,,,,,,,,,,,,,,,,,,,,,,,,,,,,,,,,,,,,,,,,,,,,,,,,,,,,,,,,,,,,,,,,,,,,477.5021487999984,477.90272410000034,477.8860483000026,477.9863483000008,478.3872096999985,None,left,1,0.3438125999964541,478.3872096999985,None,477.8860483000026,477.9863483000008,477.9863483000008,None,478.7531424999979,None,,,,,,,11001,001,2023_Dec_29_1003,ANT,2021.2.3,59.67495054592294,
1,18,spatial,up,C,R,,,,,,Block.xlsx,"你已经完成了第一个实验区组

请稍作休息


点击空格键进入下一个区组。",1.5,0,1.5,right,RRRRR.png,,,,,0,0,0,0,1,20,44,17,,,,,,,,,,,,,,,,,,,,,,,,,,,,,,,,,,,,,,,,,,,,,,,,,,,,,,,,,,,,,,,,,,,,,,479.1545589000016,479.5551847999959,479.53848930000095,479.63876110000274,480.0396851999976,None,right,1,0.44290970000292873,480.0396851999976,None,479.53848930000095,479.63876110000274,479.63876110000274,None,480.5059125999978,None,,,,,,,11001,001,2023_Dec_29_1003,ANT,2021.2.3,59.67495054592294,
1,11,center,up,IC,L,,,,,,Block.xlsx,"你已经完成了第一个实验区组

请稍作休息


点击空格键进入下一个区组。",0,50,1.5,left,RRLRR.png,,,,,0,0,0,0,1,21,45,10,,,,,,,,,,,,,,,,,,,,,,,,,,,,,,,,,,,,,,,,,,,,,,,,,,,,,,,,,,,,,,,,,,,,,,480.90728579999995,481.3081583999956,481.2909756000008,481.39116099999956,481.79148220000206,None,left,1,0.4272129000019049,481.79148220000206,None,481.2909756000008,481.39116099999956,481.39116099999956,None,482.2422634999966,None,,,,,,,11001,001,2023_Dec_29_1003,ANT,2021.2.3,59.67495054592294,
1,8,no,down,IC,R,,,,,,Block.xlsx,"你已经完成了第一个实验区组

请稍作休息


点击空格键进入下一个区组。",50,0,-1.5,right,LLRLL.png,,,,,0,0,0,0,1,22,46,7,,,,,,,,,,,,,,,,,,,,,,,,,,,,,,,,,,,,,,,,,,,,,,,,,,,,,,,,,,,,,,,,,,,,,,482.64288829999714,483.04370129999734,483.0269824999996,483.12711970000237,483.5284210000027,None,right,1,0.5861989000040921,483.5284210000027,None,483.0269824999996,483.12711970000237,483.12711970000237,None,484.14529870000115,None,,,,,,,11001,001,2023_Dec_29_1003,ANT,2021.2.3,59.67495054592294,
1,9,center,up,C,L,,,,,,Block.xlsx,"你已经完成了第一个实验区组

请稍作休息


点击空格键进入下一个区组。",0,50,1.5,left,LLLLL.png,,,,,0,0,0,0,1,23,47,8,,,,,,,,,,,,,,,,,,,,,,,,,,,,,,,,,,,,,,,,,,,,,,,,,,,,,,,,,,,,,,,,,,,,,,484.54592579999735,484.94660470000235,484.92988499999774,485.0299266000002,485.43207919999986,None,left,1,0.5152852000028361,485.43207919999986,None,484.92988499999774,485.0299266000002,485.0299266000002,None,485.9639573000022,None,,,,,,,11001,001,2023_Dec_29_1003,ANT,2021.2.3,59.67495054592294,
1,4,no,up,IC,R,,,,,,Block.xlsx,"你已经完成了第一个实验区组

请稍作休息


点击空格键进入下一个区组。",50,0,1.5,right,LLRLL.png,,,,,0,0,0,0,2,0,48,3,,,,,,,,,,,,,,,,,,,,,,,,,,,,,,,,,,,,,,,,,,,,,,,,,,,,,,,,,,,,,,,,,,,,,,486.365432300001,486.76595339999767,486.74920669999847,486.849284099997,487.2499315000023,None,right,1,0.4489720999990823,487.2499315000023,None,486.74920669999847,486.849284099997,486.849284099997,None,487.7175483999963,None,,,,,,,11001,001,2023_Dec_29_1003,ANT,2021.2.3,59.67495054592294,
1,1,no,up,C,L,,,,,,Block.xlsx,"你已经完成了第一个实验区组

请稍作休息


点击空格键进入下一个区组。",50,0,1.5,left,LLLLL.png,,,,,0,0,0,0,2,1,49,0,,,,,,,,,,,,,,,,,,,,,,,,,,,,,,,,,,,,,,,,,,,,,,,,,,,,,,,,,,,,,,,,,,,,,,488.1177609000006,488.5184414999967,488.50173039999936,488.60200449999684,489.0027456000025,None,left,1,0.5844112999984645,489.0027456000025,None,488.50173039999936,488.60200449999684,488.60200449999684,None,489.60263940000004,None,,,,,,,11001,001,2023_Dec_29_1003,ANT,2021.2.3,59.67495054592294,
1,17,spatial,up,C,L,,,,,,Block.xlsx,"你已经完成了第一个实验区组

请稍作休息


点击空格键进入下一个区组。",1.5,0,1.5,left,LLLLL.png,,,,,0,0,0,0,2,2,50,16,,,,,,,,,,,,,,,,,,,,,,,,,,,,,,,,,,,,,,,,,,,,,,,,,,,,,,,,,,,,,,,,,,,,,,490.0039751000004,490.4045804999987,490.3879869000011,490.4884308999972,490.8886093999972,None,left,1,0.37828710000030696,490.8886093999972,None,490.3879869000011,490.4884308999972,490.4884308999972,None,491.28921889999765,None,,,,,,,11001,001,2023_Dec_29_1003,ANT,2021.2.3,59.67495054592294,
1,3,no,up,IC,L,,,,,,Block.xlsx,"你已经完成了第一个实验区组

请稍作休息


点击空格键进入下一个区组。",50,0,1.5,left,RRLRR.png,,,,,0,0,0,0,2,3,51,2,,,,,,,,,,,,,,,,,,,,,,,,,,,,,,,,,,,,,,,,,,,,,,,,,,,,,,,,,,,,,,,,,,,,,,491.6899158000015,492.0900169000015,492.07353449999937,492.1736885999999,492.57445729999745,None,left,1,0.3883224000019254,492.57445729999745,None,492.07353449999937,492.1736885999999,492.1736885999999,None,492.99175309999555,None,,,,,,,11001,001,2023_Dec_29_1003,ANT,2021.2.3,59.67495054592294,
1,23,spatial,down,IC,L,,,,,,Block.xlsx,"你已经完成了第一个实验区组

请稍作休息


点击空格键进入下一个区组。",-1.5,0,-1.5,left,RRLRR.png,,,,,0,0,0,0,2,4,52,22,,,,,,,,,,,,,,,,,,,,,,,,,,,,,,,,,,,,,,,,,,,,,,,,,,,,,,,,,,,,,,,,,,,,,,493.39245500000106,493.7923870000013,493.7764554000023,493.8765473999956,494.27685969999584,None,left,1,0.4218211000043084,494.27685969999584,None,493.7764554000023,493.8765473999956,493.8765473999956,None,494.727164099997,None,,,,,,,11001,001,2023_Dec_29_1003,ANT,2021.2.3,59.67495054592294,
1,22,spatial,down,C,R,,,,,,Block.xlsx,"你已经完成了第一个实验区组

请稍作休息


点击空格键进入下一个区组。",-1.5,0,-1.5,right,RRRRR.png,,,,,0,0,0,0,2,5,53,21,,,,,,,,,,,,,,,,,,,,,,,,,,,,,,,,,,,,,,,,,,,,,,,,,,,,,,,,,,,,,,,,,,,,,,495.1274925999969,495.52896229999897,495.5122163999986,495.6125974999959,496.01280589999806,None,right,1,0.366623999994772,496.01280589999806,None,495.5122163999986,495.6125974999959,495.6125974999959,None,496.3960311999981,None,,,,,,,11001,001,2023_Dec_29_1003,ANT,2021.2.3,59.67495054592294,
1,21,spatial,down,C,L,,,,,,Block.xlsx,"你已经完成了第一个实验区组

请稍作休息


点击空格键进入下一个区组。",-1.5,0,-1.5,left,LLLLL.png,,,,,0,0,0,0,2,6,54,20,,,,,,,,,,,,,,,,,,,,,,,,,,,,,,,,,,,,,,,,,,,,,,,,,,,,,,,,,,,,,,,,,,,,,,496.7970161999983,497.1979852000004,497.18143759999657,497.2810200000022,497.6813598000008,None,left,1,0.40169630000309553,497.6813598000008,None,497.18143759999657,497.2810200000022,497.2810200000022,None,498.09866429999965,None,,,,,,,11001,001,2023_Dec_29_1003,ANT,2021.2.3,59.67495054592294,
1,2,no,up,C,R,,,,,,Block.xlsx,"你已经完成了第一个实验区组

请稍作休息


点击空格键进入下一个区组。",50,0,1.5,right,RRRRR.png,,,,,0,0,0,0,2,7,55,1,,,,,,,,,,,,,,,,,,,,,,,,,,,,,,,,,,,,,,,,,,,,,,,,,,,,,,,,,,,,,,,,,,,,,,498.49980340000184,498.90064500000153,498.88381890000164,498.9838013999979,499.3842366999961,None,right,1,0.3384539000035147,499.3842366999961,None,498.88381890000164,498.9838013999979,498.9838013999979,None,499.75193800000125,None,,,,,,,11001,001,2023_Dec_29_1003,ANT,2021.2.3,59.67495054592294,
1,14,center,down,C,R,,,,,,Block.xlsx,"你已经完成了第一个实验区组

请稍作休息


点击空格键进入下一个区组。",0,50,-1.5,right,RRRRR.png,,,,,0,0,0,0,2,8,56,13,,,,,,,,,,,,,,,,,,,,,,,,,,,,,,,,,,,,,,,,,,,,,,,,,,,,,,,,,,,,,,,,,,,,,,500.1520431999961,500.5527882999959,500.53634800000145,500.6363749000011,501.0369492999962,None,right,1,0.39071030000195606,501.0369492999962,None,500.53634800000145,500.6363749000011,500.6363749000011,None,501.4542094999997,None,,,,,,,11001,001,2023_Dec_29_1003,ANT,2021.2.3,59.67495054592294,
1,4,no,up,IC,R,,,,,,Block.xlsx,"你已经完成了第一个实验区组

请稍作休息


点击空格键进入下一个区组。",50,0,1.5,right,LLRLL.png,,,,,0,0,0,0,2,9,57,3,,,,,,,,,,,,,,,,,,,,,,,,,,,,,,,,,,,,,,,,,,,,,,,,,,,,,,,,,,,,,,,,,,,,,,501.85528599999816,502.25515099999757,502.23860160000186,502.33895479999774,502.73959119999927,None,right,1,0.5350327000051038,502.73959119999927,None,502.23860160000186,502.33895479999774,502.33895479999774,None,503.28937149999547,None,,,,,,,11001,001,2023_Dec_29_1003,ANT,2021.2.3,59.67495054592294,
1,21,spatial,down,C,L,,,,,,Block.xlsx,"你已经完成了第一个实验区组

请稍作休息


点击空格键进入下一个区组。",-1.5,0,-1.5,left,LLLLL.png,,,,,0,0,0,0,2,10,58,20,,,,,,,,,,,,,,,,,,,,,,,,,,,,,,,,,,,,,,,,,,,,,,,,,,,,,,,,,,,,,,,,,,,,,,503.69137039999623,504.0912126999974,504.07553539999935,504.175018599999,504.5754377999983,None,left,1,0.3794735000046785,504.5754377999983,None,504.07553539999935,504.175018599999,504.175018599999,None,504.97594519999984,None,,,,,,,11001,001,2023_Dec_29_1003,ANT,2021.2.3,59.67495054592294,
1,8,no,down,IC,R,,,,,,Block.xlsx,"你已经完成了第一个实验区组

请稍作休息


点击空格键进入下一个区组。",50,0,-1.5,right,LLRLL.png,,,,,0,0,0,0,2,11,59,7,,,,,,,,,,,,,,,,,,,,,,,,,,,,,,,,,,,,,,,,,,,,,,,,,,,,,,,,,,,,,,,,,,,,,,505.3767149999985,505.77946410000004,505.7603741999992,505.8608714000002,506.2610540999958,None,right,1,0.5418265999978757,506.2610540999958,None,505.7603741999992,505.8608714000002,505.8608714000002,None,506.82814759999746,None,,,,,,,11001,001,2023_Dec_29_1003,ANT,2021.2.3,59.67495054592294,
1,9,center,up,C,L,,,,,,Block.xlsx,"你已经完成了第一个实验区组

请稍作休息


点击空格键进入下一个区组。",0,50,1.5,left,LLLLL.png,,,,,0,0,0,0,2,12,60,8,,,,,,,,,,,,,,,,,,,,,,,,,,,,,,,,,,,,,,,,,,,,,,,,,,,,,,,,,,,,,,,,,,,,,,507.22949759999756,507.6302543999991,507.6134244999994,507.7138933000024,508.1140949999972,None,left,1,0.49685560000216356,508.1140949999972,None,507.6134244999994,507.7138933000024,507.7138933000024,None,508.63192459999846,None,,,,,,,11001,001,2023_Dec_29_1003,ANT,2021.2.3,59.67495054592294,
1,12,center,up,IC,R,,,,,,Block.xlsx,"你已经完成了第一个实验区组

请稍作休息


点击空格键进入下一个区组。",0,50,1.5,right,LLRLL.png,,,,,0,0,0,0,2,13,61,11,,,,,,,,,,,,,,,,,,,,,,,,,,,,,,,,,,,,,,,,,,,,,,,,,,,,,,,,,,,,,,,,,,,,,,509.03214819999994,509.4326013999962,509.4159404999955,509.5162913999957,509.91760919999797,None,right,1,0.4930937000026461,509.91760919999797,None,509.4159404999955,509.5162913999957,509.5162913999957,None,510.4344850999987,None,,,,,,,11001,001,2023_Dec_29_1003,ANT,2021.2.3,59.67495054592294,
1,18,spatial,up,C,R,,,,,,Block.xlsx,"你已经完成了第一个实验区组

请稍作休息


点击空格键进入下一个区组。",1.5,0,1.5,right,RRRRR.png,,,,,0,0,0,0,2,14,62,17,,,,,,,,,,,,,,,,,,,,,,,,,,,,,,,,,,,,,,,,,,,,,,,,,,,,,,,,,,,,,,,,,,,,,,510.8355601000003,511.2354281000007,511.2192384000009,511.318763700001,511.7199354999975,None,right,1,0.34743170000001555,511.7199354999975,None,511.2192384000009,511.318763700001,511.318763700001,None,512.0865907999978,None,,,,,,,11001,001,2023_Dec_29_1003,ANT,2021.2.3,59.67495054592294,
1,7,no,down,IC,L,,,,,,Block.xlsx,"你已经完成了第一个实验区组

请稍作休息


点击空格键进入下一个区组。",50,0,-1.5,left,RRLRR.png,,,,,0,0,0,0,2,15,63,6,,,,,,,,,,,,,,,,,,,,,,,,,,,,,,,,,,,,,,,,,,,,,,,,,,,,,,,,,,,,,,,,,,,,,,512.4876023999968,512.8876745000016,512.8710874000026,512.9713742999957,513.3717833999981,None,left,1,0.5587920999969356,513.3717833999981,None,512.8710874000026,512.9713742999957,512.9713742999957,None,513.9553244999988,None,,,,,,,11001,001,2023_Dec_29_1003,ANT,2021.2.3,59.67495054592294,
1,6,no,down,C,R,,,,,,Block.xlsx,"你已经完成了第一个实验区组

请稍作休息


点击空格键进入下一个区组。",50,0,-1.5,right,RRRRR.png,,,,,0,0,0,0,2,16,64,5,,,,,,,,,,,,,,,,,,,,,,,,,,,,,,,,,,,,,,,,,,,,,,,,,,,,,,,,,,,,,,,,,,,,,,514.3567111000011,514.7573351999963,514.7406173999989,514.8409152000022,515.2413134000017,None,right,1,0.4336540000003879,515.2413134000017,None,514.7406173999989,514.8409152000022,514.8409152000022,None,515.6913329000017,None,,,,,,,11001,001,2023_Dec_29_1003,ANT,2021.2.3,59.67495054592294,
1,15,center,down,IC,L,,,,,,Block.xlsx,"你已经完成了第一个实验区组

请稍作休息


点击空格键进入下一个区组。",0,50,-1.5,left,RRLRR.png,,,,,0,0,0,0,2,17,65,14,,,,,,,,,,,,,,,,,,,,,,,,,,,,,,,,,,,,,,,,,,,,,,,,,,,,,,,,,,,,,,,,,,,,,,516.0927547999963,516.4932924999957,516.4765837000014,516.5767481000003,516.9773390999981,None,left,1,0.5693111000000499,516.9773390999981,None,516.4765837000014,516.5767481000003,516.5767481000003,None,517.5782906999957,None,,,,,,,11001,001,2023_Dec_29_1003,ANT,2021.2.3,59.67495054592294,
1,20,spatial,up,IC,R,,,,,,Block.xlsx,"你已经完成了第一个实验区组

请稍作休息


点击空格键进入下一个区组。",1.5,0,1.5,right,LLRLL.png,,,,,0,0,0,0,2,18,66,19,,,,,,,,,,,,,,,,,,,,,,,,,,,,,,,,,,,,,,,,,,,,,,,,,,,,,,,,,,,,,,,,,,,,,,517.978695400001,518.3799624000021,518.3630105999982,518.4627177000002,518.8643126000024,None,right,1,0.402432900002168,518.8643126000024,None,518.3630105999982,518.4627177000002,518.4627177000002,None,519.2980391000019,None,,,,,,,11001,001,2023_Dec_29_1003,ANT,2021.2.3,59.67495054592294,
1,5,no,down,C,L,,,,,,Block.xlsx,"你已经完成了第一个实验区组

请稍作休息


点击空格键进入下一个区组。",50,0,-1.5,left,LLLLL.png,,,,,0,0,0,0,2,19,67,4,,,,,,,,,,,,,,,,,,,,,,,,,,,,,,,,,,,,,,,,,,,,,,,,,,,,,,,,,,,,,,,,,,,,,,519.6979406999963,520.098565399996,520.0818624000021,520.1822706999956,520.5826097000026,None,left,1,0.4919856999986223,520.5826097000026,None,520.0818624000021,520.1822706999956,520.1822706999956,None,521.0991940999957,None,,,,,,,11001,001,2023_Dec_29_1003,ANT,2021.2.3,59.67495054592294,
1,3,no,up,IC,L,,,,,,Block.xlsx,"你已经完成了第一个实验区组

请稍作休息


点击空格键进入下一个区组。",50,0,1.5,left,RRLRR.png,,,,,0,0,0,0,2,20,68,2,,,,,,,,,,,,,,,,,,,,,,,,,,,,,,,,,,,,,,,,,,,,,,,,,,,,,,,,,,,,,,,,,,,,,,521.5011940999975,521.9012637999986,521.884550099996,521.984612399996,522.3855910999991,None,left,1,0.4336468999972567,522.3855910999991,None,521.884550099996,521.984612399996,521.984612399996,None,522.8357152999961,None,,,,,,,11001,001,2023_Dec_29_1003,ANT,2021.2.3,59.67495054592294,
1,5,no,down,C,L,,,,,,Block.xlsx,"你已经完成了第一个实验区组

请稍作休息


点击空格键进入下一个区组。",50,0,-1.5,left,LLLLL.png,,,,,0,0,0,0,2,21,69,4,,,,,,,,,,,,,,,,,,,,,,,,,,,,,,,,,,,,,,,,,,,,,,,,,,,,,,,,,,,,,,,,,,,,,,523.236476799997,523.6372426000016,523.6205155999996,523.7203937000013,524.1209173000025,None,left,1,0.3540904999972554,524.1209173000025,None,523.6205155999996,523.7203937000013,523.7203937000013,None,524.5044587000011,None,,,,,,,11001,001,2023_Dec_29_1003,ANT,2021.2.3,59.67495054592294,
1,13,center,down,C,L,,,,,,Block.xlsx,"你已经完成了第一个实验区组

请稍作休息


点击空格键进入下一个区组。",0,50,-1.5,left,LLLLL.png,,,,,0,0,0,0,2,22,70,12,,,,,,,,,,,,,,,,,,,,,,,,,,,,,,,,,,,,,,,,,,,,,,,,,,,,,,,,,,,,,,,,,,,,,,524.9055308999959,525.3064297000019,525.2894652999967,525.3897390999991,525.7899199999956,None,left,1,0.38113069999963045,525.7899199999956,None,525.2894652999967,525.3897390999991,525.3897390999991,None,526.1900318999978,None,,,,,,,11001,001,2023_Dec_29_1003,ANT,2021.2.3,59.67495054592294,
1,15,center,down,IC,L,,,,,,Block.xlsx,"你已经完成了第一个实验区组

请稍作休息


点击空格键进入下一个区组。",0,50,-1.5,left,RRLRR.png,,,,,0,0,0,0,2,23,71,14,,,,,,,,,,,,,,,,,,,,,,,,,,,,,,,,,,,,,,,,,,,,,,,,,,,,,,,,,,,,,,,,,,,,,,526.5916249000002,526.9926506999982,526.9757866,527.0756481999997,527.4762530000007,None,left,1,0.4384801999985939,527.4762530000007,None,526.9757866,527.0756481999997,527.0756481999997,None,527.9428083999956,None,,,,,,,11001,001,2023_Dec_29_1003,ANT,2021.2.3,59.67495054592294,
1,20,spatial,up,IC,R,,,,,,Block.xlsx,"你已经完成了第一个实验区组

请稍作休息


点击空格键进入下一个区组。",1.5,0,1.5,right,LLRLL.png,,,,,0,0,0,0,3,0,72,19,,,,,,,,,,,,,,,,,,,,,,,,,,,,,,,,,,,,,,,,,,,,,,,,,,,,,,,,,,,,,,,,,,,,,,528.3439156000022,528.7447662999984,528.7281724999993,528.8286225999982,529.2286892999982,None,right,1,0.4220272999955341,529.2286892999982,None,528.7281724999993,528.8286225999982,528.8286225999982,None,529.679355100001,None,,,,,,,11001,001,2023_Dec_29_1003,ANT,2021.2.3,59.67495054592294,
1,1,no,up,C,L,,,,,,Block.xlsx,"你已经完成了第一个实验区组

请稍作休息


点击空格键进入下一个区组。",50,0,1.5,left,LLLLL.png,,,,,0,0,0,0,3,1,73,0,,,,,,,,,,,,,,,,,,,,,,,,,,,,,,,,,,,,,,,,,,,,,,,,,,,,,,,,,,,,,,,,,,,,,,530.0801888999995,530.4811375999998,530.464321899999,530.5640783999988,530.9647746999981,None,left,1,0.5351521000047796,530.9647746999981,None,530.464321899999,530.5640783999988,530.5640783999988,None,531.5145600999967,None,,,,,,,11001,001,2023_Dec_29_1003,ANT,2021.2.3,59.67495054592294,
1,21,spatial,down,C,L,,,,,,Block.xlsx,"你已经完成了第一个实验区组

请稍作休息


点击空格键进入下一个区组。",-1.5,0,-1.5,left,LLLLL.png,,,,,0,0,0,0,3,2,74,20,,,,,,,,,,,,,,,,,,,,,,,,,,,,,,,,,,,,,,,,,,,,,,,,,,,,,,,,,,,,,,,,,,,,,,531.9167057000013,532.3172808000018,532.3003830000016,532.4001473999961,532.8007980999973,None,left,1,0.3781488999957219,532.8007980999973,None,532.3003830000016,532.4001473999961,532.4001473999961,None,533.201627800001,None,,,,,,,11001,001,2023_Dec_29_1003,ANT,2021.2.3,59.67495054592294,
1,18,spatial,up,C,R,,,,,,Block.xlsx,"你已经完成了第一个实验区组

请稍作休息


点击空格键进入下一个区组。",1.5,0,1.5,right,RRRRR.png,,,,,0,0,0,0,3,3,75,17,,,,,,,,,,,,,,,,,,,,,,,,,,,,,,,,,,,,,,,,,,,,,,,,,,,,,,,,,,,,,,,,,,,,,,533.6025117999961,534.0026187999974,533.9857941000009,534.0864032000027,534.4867376999973,None,right,1,0.3406348999997135,534.4867376999973,None,533.9857941000009,534.0864032000027,534.0864032000027,None,534.8540195999958,None,,,,,,,11001,001,2023_Dec_29_1003,ANT,2021.2.3,59.67495054592294,
1,8,no,down,IC,R,,,,,,Block.xlsx,"你已经完成了第一个实验区组

请稍作休息


点击空格键进入下一个区组。",50,0,-1.5,right,LLRLL.png,,,,,0,0,0,0,3,4,76,7,,,,,,,,,,,,,,,,,,,,,,,,,,,,,,,,,,,,,,,,,,,,,,,,,,,,,,,,,,,,,,,,,,,,,,535.2542523000011,535.654961799999,535.6382607999985,535.7400007999968,536.1387111000004,None,right,1,0.40024569999513915,536.1387111000004,None,535.6382607999985,535.7400007999968,535.7400007999968,None,536.555712100002,None,,,,,,,11001,001,2023_Dec_29_1003,ANT,2021.2.3,59.67495054592294,
1,9,center,up,C,L,,,,,,Block.xlsx,"你已经完成了第一个实验区组

请稍作休息


点击空格键进入下一个区组。",0,50,1.5,left,LLLLL.png,,,,,0,0,0,0,3,5,77,8,,,,,,,,,,,,,,,,,,,,,,,,,,,,,,,,,,,,,,,,,,,,,,,,,,,,,,,,,,,,,,,,,,,,,,536.9561775999973,537.3575203,537.3408603999997,537.4413856999963,537.8415251999977,None,left,1,0.3851009999998496,537.8415251999977,None,537.3408603999997,537.4413856999963,537.4413856999963,None,538.2418746999974,None,,,,,,,11001,001,2023_Dec_29_1003,ANT,2021.2.3,59.67495054592294,
1,19,spatial,up,IC,L,,,,,,Block.xlsx,"你已经完成了第一个实验区组

请稍作休息


点击空格键进入下一个区组。",1.5,0,1.5,left,RRLRR.png,,,,,0,0,0,0,3,6,78,18,,,,,,,,,,,,,,,,,,,,,,,,,,,,,,,,,,,,,,,,,,,,,,,,,,,,,,,,,,,,,,,,,,,,,,538.6424599999955,539.0434468000021,539.0265727000005,539.1264645999981,539.5274122999981,None,left,1,0.371248999996169,539.5274122999981,None,539.0265727000005,539.1264645999981,539.1264645999981,None,539.9279622999966,None,,,,,,,11001,001,2023_Dec_29_1003,ANT,2021.2.3,59.67495054592294,
1,3,no,up,IC,L,,,,,,Block.xlsx,"你已经完成了第一个实验区组

请稍作休息


点击空格键进入下一个区组。",50,0,1.5,left,RRLRR.png,,,,,0,0,0,0,3,7,79,2,,,,,,,,,,,,,,,,,,,,,,,,,,,,,,,,,,,,,,,,,,,,,,,,,,,,,,,,,,,,,,,,,,,,,,540.3287015000024,540.728970199998,540.7122720999978,540.8125958000019,541.2132127000004,None,left,1,0.4295471999939764,541.2132127000004,None,540.7122720999978,540.8125958000019,540.8125958000019,None,541.6635052999991,None,,,,,,,11001,001,2023_Dec_29_1003,ANT,2021.2.3,59.67495054592294,
1,19,spatial,up,IC,L,,,,,,Block.xlsx,"你已经完成了第一个实验区组

请稍作休息


点击空格键进入下一个区组。",1.5,0,1.5,left,RRLRR.png,,,,,0,0,0,0,3,8,80,18,,,,,,,,,,,,,,,,,,,,,,,,,,,,,,,,,,,,,,,,,,,,,,,,,,,,,,,,,,,,,,,,,,,,,,542.0641241999983,542.4651166999975,542.4484536000018,542.5486462999979,542.9491533999972,None,left,1,0.3255178999970667,542.9491533999972,None,542.4484536000018,542.5486462999979,542.5486462999979,None,543.298810399996,None,,,,,,,11001,001,2023_Dec_29_1003,ANT,2021.2.3,59.67495054592294,
1,14,center,down,C,R,,,,,,Block.xlsx,"你已经完成了第一个实验区组

请稍作休息


点击空格键进入下一个区组。",0,50,-1.5,right,RRRRR.png,,,,,0,0,0,0,3,9,81,13,,,,,,,,,,,,,,,,,,,,,,,,,,,,,,,,,,,,,,,,,,,,,,,,,,,,,,,,,,,,,,,,,,,,,,543.700159,544.1008270999955,544.0840771000003,544.1857339999988,544.5851861999981,None,right,1,0.38551160000497475,544.5851861999981,None,544.0840771000003,544.1857339999988,544.1857339999988,None,544.9846767999989,None,,,,,,,11001,001,2023_Dec_29_1003,ANT,2021.2.3,59.67495054592294,
1,11,center,up,IC,L,,,,,,Block.xlsx,"你已经完成了第一个实验区组

请稍作休息


点击空格键进入下一个区组。",0,50,1.5,left,RRLRR.png,,,,,0,0,0,0,3,10,82,10,,,,,,,,,,,,,,,,,,,,,,,,,,,,,,,,,,,,,,,,,,,,,,,,,,,,,,,,,,,,,,,,,,,,,,545.3852686999962,545.7864870999983,545.7710289000024,545.8704241000014,546.2718419000012,None,left,1,0.33989670000300976,546.2718419000012,None,545.7710289000024,545.8704241000014,545.8704241000014,None,546.6385308999961,None,,,,,,,11001,001,2023_Dec_29_1003,ANT,2021.2.3,59.67495054592294,
1,22,spatial,down,C,R,,,,,,Block.xlsx,"你已经完成了第一个实验区组

请稍作休息


点击空格键进入下一个区组。",-1.5,0,-1.5,right,RRRRR.png,,,,,0,0,0,0,3,11,83,21,,,,,,,,,,,,,,,,,,,,,,,,,,,,,,,,,,,,,,,,,,,,,,,,,,,,,,,,,,,,,,,,,,,,,,547.0385405999987,547.4392456999994,547.4222217999995,547.5229928999979,547.9230611000021,None,right,1,0.29579240000020945,547.9230611000021,None,547.4222217999995,547.5229928999979,547.5229928999979,None,548.2394306999995,None,,,,,,,11001,001,2023_Dec_29_1003,ANT,2021.2.3,59.67495054592294,
1,17,spatial,up,C,L,,,,,,Block.xlsx,"你已经完成了第一个实验区组

请稍作休息


点击空格键进入下一个区组。",1.5,0,1.5,left,LLLLL.png,,,,,0,0,0,0,3,12,84,16,,,,,,,,,,,,,,,,,,,,,,,,,,,,,,,,,,,,,,,,,,,,,,,,,,,,,,,,,,,,,,,,,,,,,,548.6413563999959,549.0410495999968,549.0247330999991,549.124980499997,549.5257201999993,None,left,1,0.3090184999964549,549.5257201999993,None,549.0247330999991,549.124980499997,549.124980499997,None,549.8594508000024,None,,,,,,,11001,001,2023_Dec_29_1003,ANT,2021.2.3,59.67495054592294,
1,21,spatial,down,C,L,,,,,,Block.xlsx,"你已经完成了第一个实验区组

请稍作休息


点击空格键进入下一个区组。",-1.5,0,-1.5,left,LLLLL.png,,,,,0,0,0,0,3,13,85,20,,,,,,,,,,,,,,,,,,,,,,,,,,,,,,,,,,,,,,,,,,,,,,,,,,,,,,,,,,,,,,,,,,,,,,550.2595729000022,550.6607318000024,550.6443480000016,550.7441838000013,551.1445287999959,None,left,1,0.38611820000369335,551.1445287999959,None,550.6443480000016,550.7441838000013,550.7441838000013,None,551.5616181000005,None,,,,,,,11001,001,2023_Dec_29_1003,ANT,2021.2.3,59.67495054592294,
1,12,center,up,IC,R,,,,,,Block.xlsx,"你已经完成了第一个实验区组

请稍作休息


点击空格键进入下一个区组。",0,50,1.5,right,LLRLL.png,,,,,0,0,0,0,3,14,86,11,,,,,,,,,,,,,,,,,,,,,,,,,,,,,,,,,,,,,,,,,,,,,,,,,,,,,,,,,,,,,,,,,,,,,,551.9624590999956,552.3627713999958,552.3463675999956,552.4461311999985,552.8466810999962,None,right,1,0.4042961000013747,552.8466810999962,None,552.3463675999956,552.4461311999985,552.4461311999985,None,553.2811108999958,None,,,,,,,11001,001,2023_Dec_29_1003,ANT,2021.2.3,59.67495054592294,
1,6,no,down,C,R,,,,,,Block.xlsx,"你已经完成了第一个实验区组

请稍作休息


点击空格键进入下一个区组。",50,0,-1.5,right,RRRRR.png,,,,,0,0,0,0,3,15,87,5,,,,,,,,,,,,,,,,,,,,,,,,,,,,,,,,,,,,,,,,,,,,,,,,,,,,,,,,,,,,,,,,,,,,,,553.6818428999977,554.082304399999,554.0655670999986,554.1657103999969,554.5663266999982,None,right,1,0.3884789000003366,554.5663266999982,None,554.0655670999986,554.1657103999969,554.1657103999969,None,554.9836508000008,None,,,,,,,11001,001,2023_Dec_29_1003,ANT,2021.2.3,59.67495054592294,
1,10,center,up,C,R,,,,,,Block.xlsx,"你已经完成了第一个实验区组

请稍作休息


点击空格键进入下一个区组。",0,50,1.5,right,RRRRR.png,,,,,0,0,0,0,3,16,88,9,,,,,,,,,,,,,,,,,,,,,,,,,,,,,,,,,,,,,,,,,,,,,,,,,,,,,,,,,,,,,,,,,,,,,,555.3842323999997,555.7848124000011,555.7680080999999,555.8682971000017,556.2688949000003,None,right,1,0.390218399996229,556.2688949000003,None,555.7680080999999,555.8682971000017,555.8682971000017,None,556.6852739999958,None,,,,,,,11001,001,2023_Dec_29_1003,ANT,2021.2.3,59.67495054592294,
1,10,center,up,C,R,,,,,,Block.xlsx,"你已经完成了第一个实验区组

请稍作休息


点击空格键进入下一个区组。",0,50,1.5,right,RRRRR.png,,,,,0,0,0,0,3,17,89,9,,,,,,,,,,,,,,,,,,,,,,,,,,,,,,,,,,,,,,,,,,,,,,,,,,,,,,,,,,,,,,,,,,,,,,557.0866947999966,557.4873169999992,557.4706460000016,557.5709919000001,557.9716889999982,None,right,1,0.4403424999982235,557.9716889999982,None,557.4706460000016,557.5709919000001,557.5709919000001,None,558.438055999999,None,,,,,,,11001,001,2023_Dec_29_1003,ANT,2021.2.3,59.67495054592294,
1,14,center,down,C,R,,,,,,Block.xlsx,"你已经完成了第一个实验区组

请稍作休息


点击空格键进入下一个区组。",0,50,-1.5,right,RRRRR.png,,,,,0,0,0,0,3,18,90,13,,,,,,,,,,,,,,,,,,,,,,,,,,,,,,,,,,,,,,,,,,,,,,,,,,,,,,,,,,,,,,,,,,,,,,558.8386721999996,559.240065799997,559.2233026999966,559.3233821999966,559.7240818999999,None,right,1,0.39084689999435795,559.7240818999999,None,559.2233026999966,559.3233821999966,559.3233821999966,None,560.1412387000018,None,,,,,,,11001,001,2023_Dec_29_1003,ANT,2021.2.3,59.67495054592294,
1,8,no,down,IC,R,,,,,,Block.xlsx,"你已经完成了第一个实验区组

请稍作休息


点击空格键进入下一个区组。",50,0,-1.5,right,LLRLL.png,,,,,0,0,0,0,3,19,91,7,,,,,,,,,,,,,,,,,,,,,,,,,,,,,,,,,,,,,,,,,,,,,,,,,,,,,,,,,,,,,,,,,,,,,,560.5421184000006,560.9425381999972,560.9261869999973,561.0259794000012,561.4265710999971,None,right,1,0.5124301000032574,561.4265710999971,None,560.9261869999973,561.0259794000012,561.0259794000012,None,561.9607840000026,None,,,,,,,11001,001,2023_Dec_29_1003,ANT,2021.2.3,59.67495054592294,
1,10,center,up,C,R,,,,,,Block.xlsx,"你已经完成了第一个实验区组

请稍作休息


点击空格键进入下一个区组。",0,50,1.5,right,RRRRR.png,,,,,0,0,0,0,3,20,92,9,,,,,,,,,,,,,,,,,,,,,,,,,,,,,,,,,,,,,,,,,,,,,,,,,,,,,,,,,,,,,,,,,,,,,,562.3611354999957,562.761760100002,562.7452603999991,562.8450664999982,563.2461631999977,None,right,1,0.42077599999902304,563.2461631999977,None,562.7452603999991,562.8450664999982,562.8450664999982,None,563.6961646999989,None,,,,,,,11001,001,2023_Dec_29_1003,ANT,2021.2.3,59.67495054592294,
1,7,no,down,IC,L,,,,,,Block.xlsx,"你已经完成了第一个实验区组

请稍作休息


点击空格键进入下一个区组。",50,0,-1.5,left,RRLRR.png,,,,,0,0,0,0,3,21,93,6,,,,,,,,,,,,,,,,,,,,,,,,,,,,,,,,,,,,,,,,,,,,,,,,,,,,,,,,,,,,,,,,,,,,,,564.0971012000009,564.4976936000021,564.4810204000023,564.5811620999957,564.9824627999988,None,left,1,0.6125460999974166,564.9824627999988,None,564.4810204000023,564.5811620999957,564.5811620999957,None,565.6161146000013,None,,,,,,,11001,001,2023_Dec_29_1003,ANT,2021.2.3,59.67495054592294,
1,20,spatial,up,IC,R,,,,,,Block.xlsx,"你已经完成了第一个实验区组

请稍作休息


点击空格键进入下一个区组。",1.5,0,1.5,right,LLRLL.png,,,,,0,0,0,0,3,22,94,19,,,,,,,,,,,,,,,,,,,,,,,,,,,,,,,,,,,,,,,,,,,,,,,,,,,,,,,,,,,,,,,,,,,,,,566.0157547999988,566.4176604999957,566.4001003000012,566.5007607000007,566.901315199997,None,right,1,0.3413031000018236,566.901315199997,None,566.4001003000012,566.5007607000007,566.5007607000007,None,567.2677736999976,None,,,,,,,11001,001,2023_Dec_29_1003,ANT,2021.2.3,59.67495054592294,
1,23,spatial,down,IC,L,,,,,,Block.xlsx,"你已经完成了第一个实验区组

请稍作休息


点击空格键进入下一个区组。",-1.5,0,-1.5,left,RRLRR.png,,,,,0,0,0,0,3,23,95,22,,,,,,,,,,,,,,,,,,,,,,,,,,,,,,,,,,,,,,,,,,,,,,,,,,,,,,,,,,,,,,,,,,,,,,567.6688521999968,568.0700464999973,568.0531334999978,568.1531789000001,568.5537657999957,None,left,1,0.3929844000012963,568.5537657999957,None,568.0531334999978,568.1531789000001,568.1531789000001,None,568.9701645999958,None,,,,,,,11001,001,2023_Dec_29_1003,ANT,2021.2.3,59.67495054592294,
,,,,,,,,,,,Block.xlsx,"你已经完成了第一个实验区组

请稍作休息


点击空格键进入下一个区组。",,,,,,,,,,0,0,0,0,,,,,,,,,,,,,,,,,,,,,,,,,,,,,,,,,,,,,,,,,,,,,,,,,,,,,,,,,,,,,,,,,,,,,,,,,,,,,,,,,,,,,,,,,,,space,4.91068510000332,569.4040664999993,None,569.4040664999993,None,11001,001,2023_Dec_29_1003,ANT,2021.2.3,59.67495054592294,
1,23,spatial,down,IC,L,,,,,,Block.xlsx,"你已经完成了整个实验（三个区组）。

请报告实验者已完成实验

非常感谢，再见！",-1.5,0,-1.5,left,RRLRR.png,,,,,0,1,1,1,0,0,0,22,,,,,,,,,,,,,,,,,,,,,,,,,,,,,,,,,,,,,,,,,,,,,,,,,,,,,,,,,,,,,,,,,,,,,,574.3799275999991,574.7793336999966,574.7633526999998,574.8632261999956,575.2637821000026,None,left,1,0.4031016000008094,575.2637821000026,None,574.7633526999998,574.8632261999956,574.8632261999956,None,575.6972767999978,None,,,,,,,11001,001,2023_Dec_29_1003,ANT,2021.2.3,59.67495054592294,
1,2,no,up,C,R,,,,,,Block.xlsx,"你已经完成了整个实验（三个区组）。

请报告实验者已完成实验

非常感谢，再见！",50,0,1.5,right,RRRRR.png,,,,,0,1,1,1,0,1,1,1,,,,,,,,,,,,,,,,,,,,,,,,,,,,,,,,,,,,,,,,,,,,,,,,,,,,,,,,,,,,,,,,,,,,,,576.0982098999957,576.4988682999974,576.4821706000002,576.5824304999987,576.9835858000006,None,right,1,0.36342619999777526,576.9835858000006,None,576.4821706000002,576.5824304999987,576.5824304999987,None,577.3660717999956,None,,,,,,,11001,001,2023_Dec_29_1003,ANT,2021.2.3,59.67495054592294,
1,12,center,up,IC,R,,,,,,Block.xlsx,"你已经完成了整个实验（三个区组）。

请报告实验者已完成实验

非常感谢，再见！",0,50,1.5,right,LLRLL.png,,,,,0,1,1,1,0,2,2,11,,,,,,,,,,,,,,,,,,,,,,,,,,,,,,,,,,,,,,,,,,,,,,,,,,,,,,,,,,,,,,,,,,,,,,577.7666743000009,578.1679863000027,578.151345899998,578.2520874999973,578.6519334999975,None,right,1,0.438662699998531,578.6519334999975,None,578.151345899998,578.2520874999973,578.2520874999973,None,579.1191267999966,None,,,,,,,11001,001,2023_Dec_29_1003,ANT,2021.2.3,59.67495054592294,
1,13,center,down,C,L,,,,,,Block.xlsx,"你已经完成了整个实验（三个区组）。

请报告实验者已完成实验

非常感谢，再见！",0,50,-1.5,left,LLLLL.png,,,,,0,1,1,1,0,3,3,12,,,,,,,,,,,,,,,,,,,,,,,,,,,,,,,,,,,,,,,,,,,,,,,,,,,,,,,,,,,,,,,,,,,,,,579.5202093999978,579.920521,579.9042993999974,580.0040464999984,580.4047135000001,None,left,1,0.3664150999975391,580.4047135000001,None,579.9042993999974,580.0040464999984,580.0040464999984,None,580.7884024000014,None,,,,,,,11001,001,2023_Dec_29_1003,ANT,2021.2.3,59.67495054592294,
1,23,spatial,down,IC,L,,,,,,Block.xlsx,"你已经完成了整个实验（三个区组）。

请报告实验者已完成实验

非常感谢，再见！",-1.5,0,-1.5,left,RRLRR.png,,,,,0,1,1,1,0,4,4,22,,,,,,,,,,,,,,,,,,,,,,,,,,,,,,,,,,,,,,,,,,,,,,,,,,,,,,,,,,,,,,,,,,,,,,581.1889018000002,581.5897035000016,581.5729668999993,581.6735059999992,582.0739070999989,None,left,1,0.3928003999972134,582.0739070999989,None,581.5729668999993,581.6735059999992,581.6735059999992,None,582.4906409999967,None,,,,,,,11001,001,2023_Dec_29_1003,ANT,2021.2.3,59.67495054592294,
1,20,spatial,up,IC,R,,,,,,Block.xlsx,"你已经完成了整个实验（三个区组）。

请报告实验者已完成实验

非常感谢，再见！",1.5,0,1.5,right,LLRLL.png,,,,,0,1,1,1,0,5,5,19,,,,,,,,,,,,,,,,,,,,,,,,,,,,,,,,,,,,,,,,,,,,,,,,,,,,,,,,,,,,,,,,,,,,,,582.8916336999973,583.2923503999991,583.2755324999962,583.3759971999971,583.77592,None,right,1,0.37911909999820637,583.77592,None,583.2755324999962,583.3759971999971,583.3759971999971,None,584.1769827000026,None,,,,,,,11001,001,2023_Dec_29_1003,ANT,2021.2.3,59.67495054592294,
1,7,no,down,IC,L,,,,,,Block.xlsx,"你已经完成了整个实验（三个区组）。

请报告实验者已完成实验

非常感谢，再见！",50,0,-1.5,left,RRLRR.png,,,,,0,1,1,1,0,6,6,6,,,,,,,,,,,,,,,,,,,,,,,,,,,,,,,,,,,,,,,,,,,,,,,,,,,,,,,,,,,,,,,,,,,,,,584.5776008999965,584.9783993000019,584.9613795999976,585.0614836999957,585.4620859999995,None,left,1,0.39695080000092275,585.4620859999995,None,584.9613795999976,585.0614836999957,585.0614836999957,None,585.8792437000011,None,,,,,,,11001,001,2023_Dec_29_1003,ANT,2021.2.3,59.67495054592294,
1,18,spatial,up,C,R,,,,,,Block.xlsx,"你已经完成了整个实验（三个区组）。

请报告实验者已完成实验

非常感谢，再见！",1.5,0,1.5,right,RRRRR.png,,,,,0,1,1,1,0,7,7,17,,,,,,,,,,,,,,,,,,,,,,,,,,,,,,,,,,,,,,,,,,,,,,,,,,,,,,,,,,,,,,,,,,,,,,586.2800945999988,586.679812800001,586.6635469999965,586.7639836000017,587.1646857000014,None,right,1,0.29439120000461116,587.1646857000014,None,586.6635469999965,586.7639836000017,586.7639836000017,None,587.4810269000009,None,,,,,,,11001,001,2023_Dec_29_1003,ANT,2021.2.3,59.67495054592294,
1,12,center,up,IC,R,,,,,,Block.xlsx,"你已经完成了整个实验（三个区组）。

请报告实验者已完成实验

非常感谢，再见！",0,50,1.5,right,LLRLL.png,,,,,0,1,1,1,0,8,8,11,,,,,,,,,,,,,,,,,,,,,,,,,,,,,,,,,,,,,,,,,,,,,,,,,,,,,,,,,,,,,,,,,,,,,,587.8824685,588.2830219000025,588.2662655999957,588.3663708999957,588.7670310999965,None,right,1,0.5246201000045403,588.7670310999965,None,588.2662655999957,588.3663708999957,588.3663708999957,None,589.3171135000011,None,,,,,,,11001,001,2023_Dec_29_1003,ANT,2021.2.3,59.67495054592294,
1,19,spatial,up,IC,L,,,,,,Block.xlsx,"你已经完成了整个实验（三个区组）。

请报告实验者已完成实验

非常感谢，再见！",1.5,0,1.5,left,RRLRR.png,,,,,0,1,1,1,0,9,9,18,,,,,,,,,,,,,,,,,,,,,,,,,,,,,,,,,,,,,,,,,,,,,,,,,,,,,,,,,,,,,,,,,,,,,,589.7184247999976,590.1191103000019,590.1022173000019,590.2024339999989,590.6031672999961,None,left,1,0.4798335999948904,590.6031672999961,None,590.1022173000019,590.2024339999989,590.2024339999989,None,591.1030210999961,None,,,,,,,11001,001,2023_Dec_29_1003,ANT,2021.2.3,59.67495054592294,
1,14,center,down,C,R,,,,,,Block.xlsx,"你已经完成了整个实验（三个区组）。

请报告实验者已完成实验

非常感谢，再见！",0,50,-1.5,right,RRRRR.png,,,,,0,1,1,1,0,10,10,13,,,,,,,,,,,,,,,,,,,,,,,,,,,,,,,,,,,,,,,,,,,,,,,,,,,,,,,,,,,,,,,,,,,,,,591.5044387000016,591.9051160000017,591.8881694000011,591.9887913999992,592.3902172000016,None,right,1,0.47676700000010896,592.3902172000016,None,591.8881694000011,591.9887913999992,591.9887913999992,None,592.8895791999967,None,,,,,,,11001,001,2023_Dec_29_1003,ANT,2021.2.3,59.67495054592294,
1,3,no,up,IC,L,,,,,,Block.xlsx,"你已经完成了整个实验（三个区组）。

请报告实验者已完成实验

非常感谢，再见！",50,0,1.5,left,RRLRR.png,,,,,0,1,1,1,0,11,11,2,,,,,,,,,,,,,,,,,,,,,,,,,,,,,,,,,,,,,,,,,,,,,,,,,,,,,,,,,,,,,,,,,,,,,,593.2903536000013,593.6909645999986,593.6749838999967,593.7744373000023,594.1751425999973,None,left,1,0.3959169000008842,594.1751425999973,None,593.6749838999967,593.7744373000023,593.7744373000023,None,594.5921851999956,None,,,,,,,11001,001,2023_Dec_29_1003,ANT,2021.2.3,59.67495054592294,
1,3,no,up,IC,L,,,,,,Block.xlsx,"你已经完成了整个实验（三个区组）。

请报告实验者已完成实验

非常感谢，再见！",50,0,1.5,left,RRLRR.png,,,,,0,1,1,1,0,12,12,2,,,,,,,,,,,,,,,,,,,,,,,,,,,,,,,,,,,,,,,,,,,,,,,,,,,,,,,,,,,,,,,,,,,,,,594.992811600001,595.3936176999996,595.3767985000013,595.4774417000008,595.8775124999956,None,left,1,0.445509299999685,595.8775124999956,None,595.3767985000013,595.4774417000008,595.4774417000008,None,596.3448941000024,None,,,,,,,11001,001,2023_Dec_29_1003,ANT,2021.2.3,59.67495054592294,
1,15,center,down,IC,L,,,,,,Block.xlsx,"你已经完成了整个实验（三个区组）。

请报告实验者已完成实验

非常感谢，再见！",0,50,-1.5,left,RRLRR.png,,,,,0,1,1,1,0,13,13,14,,,,,,,,,,,,,,,,,,,,,,,,,,,,,,,,,,,,,,,,,,,,,,,,,,,,,,,,,,,,,,,,,,,,,,596.7453240999967,597.1465804999971,597.1296602000002,597.2292526000019,597.6302130999975,None,left,1,0.5569937999971444,597.6302130999975,None,597.1296602000002,597.2292526000019,597.2292526000019,None,598.2144917999976,None,,,,,,,11001,001,2023_Dec_29_1003,ANT,2021.2.3,59.67495054592294,
1,9,center,up,C,L,,,,,,Block.xlsx,"你已经完成了整个实验（三个区组）。

请报告实验者已完成实验

非常感谢，再见！",0,50,1.5,left,LLLLL.png,,,,,0,1,1,1,0,14,14,8,,,,,,,,,,,,,,,,,,,,,,,,,,,,,,,,,,,,,,,,,,,,,,,,,,,,,,,,,,,,,,,,,,,,,,598.6154248999956,599.0154559000002,598.9988400000002,599.0987880999965,599.4997059000016,None,left,1,0.3273662999999942,599.4997059000016,None,598.9988400000002,599.0987880999965,599.0987880999965,None,599.8492299999998,None,,,,,,,11001,001,2023_Dec_29_1003,ANT,2021.2.3,59.67495054592294,
1,8,no,down,IC,R,,,,,,Block.xlsx,"你已经完成了整个实验（三个区组）。

请报告实验者已完成实验

非常感谢，再见！",50,0,-1.5,right,LLRLL.png,,,,,0,1,1,1,0,15,15,7,,,,,,,,,,,,,,,,,,,,,,,,,,,,,,,,,,,,,,,,,,,,,,,,,,,,,,,,,,,,,,,,,,,,,,600.2510964999965,600.6512588999976,600.6350636999996,600.734752700002,601.1354143999997,None,right,1,0.45154610000463435,601.1354143999997,None,600.6350636999996,600.734752700002,600.734752700002,None,601.6024078999981,None,,,,,,,11001,001,2023_Dec_29_1003,ANT,2021.2.3,59.67495054592294,
1,21,spatial,down,C,L,,,,,,Block.xlsx,"你已经完成了整个实验（三个区组）。

请报告实验者已完成实验

非常感谢，再见！",-1.5,0,-1.5,left,LLLLL.png,,,,,0,1,1,1,0,16,16,20,,,,,,,,,,,,,,,,,,,,,,,,,,,,,,,,,,,,,,,,,,,,,,,,,,,,,,,,,,,,,,,,,,,,,,602.0034010000018,602.4054342000018,602.3868287000005,602.4873002999957,602.8879381000006,None,left,1,0.36311660000501433,602.8879381000006,None,602.3868287000005,602.4873002999957,602.4873002999957,None,603.2711419999978,None,,,,,,,11001,001,2023_Dec_29_1003,ANT,2021.2.3,59.67495054592294,
1,16,center,down,IC,R,,,,,,Block.xlsx,"你已经完成了整个实验（三个区组）。

请报告实验者已完成实验

非常感谢，再见！",0,50,-1.5,right,LLRLL.png,,,,,0,1,1,1,0,17,17,15,,,,,,,,,,,,,,,,,,,,,,,,,,,,,,,,,,,,,,,,,,,,,,,,,,,,,,,,,,,,,,,,,,,,,,603.6724523000012,604.0731379999997,604.056167499999,604.1578698000012,604.5567429000002,None,right,1,0.5022597999995924,604.5567429000002,None,604.056167499999,604.1578698000012,604.1578698000012,None,605.0737921999971,None,,,,,,,11001,001,2023_Dec_29_1003,ANT,2021.2.3,59.67495054592294,
1,18,spatial,up,C,R,,,,,,Block.xlsx,"你已经完成了整个实验（三个区组）。

请报告实验者已完成实验

非常感谢，再见！",1.5,0,1.5,right,RRRRR.png,,,,,0,1,1,1,0,18,18,17,,,,,,,,,,,,,,,,,,,,,,,,,,,,,,,,,,,,,,,,,,,,,,,,,,,,,,,,,,,,,,,,,,,,,,605.4751581000019,605.875718999996,605.8600619999997,605.9597839999988,606.3597262999974,None,right,1,0.33102510000026086,606.3597262999974,None,605.8600619999997,605.9597839999988,605.9597839999988,None,606.7094922999968,None,,,,,,,11001,001,2023_Dec_29_1003,ANT,2021.2.3,59.67495054592294,
1,6,no,down,C,R,,,,,,Block.xlsx,"你已经完成了整个实验（三个区组）。

请报告实验者已完成实验

非常感谢，再见！",50,0,-1.5,right,RRRRR.png,,,,,0,1,1,1,0,19,19,5,,,,,,,,,,,,,,,,,,,,,,,,,,,,,,,,,,,,,,,,,,,,,,,,,,,,,,,,,,,,,,,,,,,,,,607.1109032999957,607.5116695999968,607.4946524999978,607.5952359000003,607.9954748000018,None,right,1,0.5516581000047154,607.9954748000018,None,607.4946524999978,607.5952359000003,607.5952359000003,None,608.5622494999989,None,,,,,,,11001,001,2023_Dec_29_1003,ANT,2021.2.3,59.67495054592294,
1,23,spatial,down,IC,L,,,,,,Block.xlsx,"你已经完成了整个实验（三个区组）。

请报告实验者已完成实验

非常感谢，再见！",-1.5,0,-1.5,left,RRLRR.png,,,,,0,1,1,1,0,20,20,22,,,,,,,,,,,,,,,,,,,,,,,,,,,,,,,,,,,,,,,,,,,,,,,,,,,,,,,,,,,,,,,,,,,,,,608.9636625999992,609.3642777999994,609.3476919000022,609.4482728000003,609.8482681999958,None,left,1,0.3785437999977148,609.8482681999958,None,609.3476919000022,609.4482728000003,609.4482728000003,None,610.2481450999985,None,,,,,,,11001,001,2023_Dec_29_1003,ANT,2021.2.3,59.67495054592294,
1,21,spatial,down,C,L,,,,,,Block.xlsx,"你已经完成了整个实验（三个区组）。

请报告实验者已完成实验

非常感谢，再见！",-1.5,0,-1.5,left,LLLLL.png,,,,,0,1,1,1,0,21,21,20,,,,,,,,,,,,,,,,,,,,,,,,,,,,,,,,,,,,,,,,,,,,,,,,,,,,,,,,,,,,,,,,,,,,,,610.649519999999,611.0501736000006,611.0334322999988,611.133503099998,611.5338821999976,None,left,1,0.3654993000018294,611.5338821999976,None,611.0334322999988,611.133503099998,611.133503099998,None,611.9172905000014,None,,,,,,,11001,001,2023_Dec_29_1003,ANT,2021.2.3,59.67495054592294,
1,24,spatial,down,IC,R,,,,,,Block.xlsx,"你已经完成了整个实验（三个区组）。

请报告实验者已完成实验

非常感谢，再见！",-1.5,0,-1.5,right,LLRLL.png,,,,,0,1,1,1,0,22,22,23,,,,,,,,,,,,,,,,,,,,,,,,,,,,,,,,,,,,,,,,,,,,,,,,,,,,,,,,,,,,,,,,,,,,,,612.318703099998,612.7194211000024,612.7026035000017,612.8026402999967,613.2032547999988,None,right,1,0.3436959000027855,613.2032547999988,None,612.7026035000017,612.8026402999967,612.8026402999967,None,613.5702810000003,None,,,,,,,11001,001,2023_Dec_29_1003,ANT,2021.2.3,59.67495054592294,
1,11,center,up,IC,L,,,,,,Block.xlsx,"你已经完成了整个实验（三个区组）。

请报告实验者已完成实验

非常感谢，再见！",0,50,1.5,left,RRLRR.png,,,,,0,1,1,1,0,23,23,10,,,,,,,,,,,,,,,,,,,,,,,,,,,,,,,,,,,,,,,,,,,,,,,,,,,,,,,,,,,,,,,,,,,,,,613.9713164999994,614.3718169999993,614.3551595999961,614.4550471999974,614.8554938000016,None,left,1,0.4593122000005678,614.8554938000016,None,614.3551595999961,614.4550471999974,614.4550471999974,None,615.3395689999961,None,,,,,,,11001,001,2023_Dec_29_1003,ANT,2021.2.3,59.67495054592294,
1,22,spatial,down,C,R,,,,,,Block.xlsx,"你已经完成了整个实验（三个区组）。

请报告实验者已完成实验

非常感谢，再见！",-1.5,0,-1.5,right,RRRRR.png,,,,,0,1,1,1,1,0,24,21,,,,,,,,,,,,,,,,,,,,,,,,,,,,,,,,,,,,,,,,,,,,,,,,,,,,,,,,,,,,,,,,,,,,,,615.7403307999994,616.1409617999961,616.1243583999967,616.2248248999967,616.6249128999989,None,right,1,0.30684869999822695,616.6249128999989,None,616.1243583999967,616.2248248999967,616.2248248999967,None,616.9579927000013,None,,,,,,,11001,001,2023_Dec_29_1003,ANT,2021.2.3,59.67495054592294,
1,4,no,up,IC,R,,,,,,Block.xlsx,"你已经完成了整个实验（三个区组）。

请报告实验者已完成实验

非常感谢，再见！",50,0,1.5,right,LLRLL.png,,,,,0,1,1,1,1,1,25,3,,,,,,,,,,,,,,,,,,,,,,,,,,,,,,,,,,,,,,,,,,,,,,,,,,,,,,,,,,,,,,,,,,,,,,617.3586429999996,617.7600139999995,617.7433180000007,617.8435668999955,618.2436942999993,None,left,0,0.40783749999536667,618.2436942999993,None,617.7433180000007,617.8435668999955,617.8435668999955,None,618.6773190999957,None,,,,,,,11001,001,2023_Dec_29_1003,ANT,2021.2.3,59.67495054592294,
1,9,center,up,C,L,,,,,,Block.xlsx,"你已经完成了整个实验（三个区组）。

请报告实验者已完成实验

非常感谢，再见！",0,50,1.5,left,LLLLL.png,,,,,0,1,1,1,1,2,26,8,,,,,,,,,,,,,,,,,,,,,,,,,,,,,,,,,,,,,,,,,,,,,,,,,,,,,,,,,,,,,,,,,,,,,,619.0786378999983,619.4791775999984,619.4621425000005,619.5626534999974,619.9631867999997,None,left,1,0.42416850000154227,619.9631867999997,None,619.4621425000005,619.5626534999974,619.5626534999974,None,620.4136060000019,None,,,,,,,11001,001,2023_Dec_29_1003,ANT,2021.2.3,59.67495054592294,
1,17,spatial,up,C,L,,,,,,Block.xlsx,"你已经完成了整个实验（三个区组）。

请报告实验者已完成实验

非常感谢，再见！",1.5,0,1.5,left,LLLLL.png,,,,,0,1,1,1,1,3,27,16,,,,,,,,,,,,,,,,,,,,,,,,,,,,,,,,,,,,,,,,,,,,,,,,,,,,,,,,,,,,,,,,,,,,,,620.8146035999962,621.2151100999981,621.1979277999999,621.2986434999984,621.6992855999997,None,left,1,0.3683201000021654,621.6992855999997,None,621.1979277999999,621.2986434999984,621.2986434999984,None,622.0822286999974,None,,,,,,,11001,001,2023_Dec_29_1003,ANT,2021.2.3,59.67495054592294,
1,3,no,up,IC,L,,,,,,Block.xlsx,"你已经完成了整个实验（三个区组）。

请报告实验者已完成实验

非常感谢，再见！",50,0,1.5,left,RRLRR.png,,,,,0,1,1,1,1,4,28,2,,,,,,,,,,,,,,,,,,,,,,,,,,,,,,,,,,,,,,,,,,,,,,,,,,,,,,,,,,,,,,,,,,,,,,622.483615899997,622.8842283999984,622.8675473999974,622.9674226999996,623.3682603999987,None,left,1,0.4026534000004176,623.3682603999987,None,622.8675473999974,622.9674226999996,622.9674226999996,None,623.7848449000012,None,,,,,,,11001,001,2023_Dec_29_1003,ANT,2021.2.3,59.67495054592294,
1,9,center,up,C,L,,,,,,Block.xlsx,"你已经完成了整个实验（三个区组）。

请报告实验者已完成实验

非常感谢，再见！",0,50,1.5,left,LLLLL.png,,,,,0,1,1,1,1,5,29,8,,,,,,,,,,,,,,,,,,,,,,,,,,,,,,,,,,,,,,,,,,,,,,,,,,,,,,,,,,,,,,,,,,,,,,624.1862323000023,624.5865858999969,624.5700845999963,624.6708553999997,625.0704573999974,None,left,1,0.34043519999977434,625.0704573999974,None,624.5700845999963,624.6708553999997,624.6708553999997,None,625.4379993999974,None,,,,,,,11001,001,2023_Dec_29_1003,ANT,2021.2.3,59.67495054592294,
1,23,spatial,down,IC,L,,,,,,Block.xlsx,"你已经完成了整个实验（三个区组）。

请报告实验者已完成实验

非常感谢，再见！",-1.5,0,-1.5,left,RRLRR.png,,,,,0,1,1,1,1,6,30,22,,,,,,,,,,,,,,,,,,,,,,,,,,,,,,,,,,,,,,,,,,,,,,,,,,,,,,,,,,,,,,,,,,,,,,625.8386774999963,626.2391912999956,626.2237716000018,626.3393005999969,626.7229673999973,None,left,1,0.3597849999932805,626.7229673999973,None,626.2237716000018,626.3393005999969,626.3223517000006,None,627.1069596000016,None,,,,,,,11001,001,2023_Dec_29_1003,ANT,2021.2.3,59.67495054592294,
1,20,spatial,up,IC,R,,,,,,Block.xlsx,"你已经完成了整个实验（三个区组）。

请报告实验者已完成实验

非常感谢，再见！",1.5,0,1.5,right,LLRLL.png,,,,,0,1,1,1,1,7,31,19,,,,,,,,,,,,,,,,,,,,,,,,,,,,,,,,,,,,,,,,,,,,,,,,,,,,,,,,,,,,,,,,,,,,,,627.5079403999989,627.9074802999967,627.891713099998,627.9917864000017,628.3921891999998,None,right,1,0.3308711999998195,628.3921891999998,None,627.891713099998,627.9917864000017,627.9917864000017,None,628.7428719000018,None,,,,,,,11001,001,2023_Dec_29_1003,ANT,2021.2.3,59.67495054592294,
1,16,center,down,IC,R,,,,,,Block.xlsx,"你已经完成了整个实验（三个区组）。

请报告实验者已完成实验

非常感谢，再见！",0,50,-1.5,right,LLRLL.png,,,,,0,1,1,1,1,8,32,15,,,,,,,,,,,,,,,,,,,,,,,,,,,,,,,,,,,,,,,,,,,,,,,,,,,,,,,,,,,,,,,,,,,,,,629.1436092000004,629.5439593999981,629.5273740999983,629.6275173999966,630.0281669999968,None,right,1,0.5747447000030661,630.0281669999968,None,629.5273740999983,629.6275173999966,629.6275173999966,None,630.6284023999979,None,,,,,,,11001,001,2023_Dec_29_1003,ANT,2021.2.3,59.67495054592294,
1,8,no,down,IC,R,,,,,,Block.xlsx,"你已经完成了整个实验（三个区组）。

请报告实验者已完成实验

非常感谢，再见！",50,0,-1.5,right,LLRLL.png,,,,,0,1,1,1,1,9,33,7,,,,,,,,,,,,,,,,,,,,,,,,,,,,,,,,,,,,,,,,,,,,,,,,,,,,,,,,,,,,,,,,,,,,,,631.0297617999968,631.4305772000007,631.4136672000022,631.5137209000022,631.9143186000001,None,right,1,0.5124739000020782,631.9143186000001,None,631.4136672000022,631.5137209000022,631.5137209000022,None,632.448543999999,None,,,,,,,11001,001,2023_Dec_29_1003,ANT,2021.2.3,59.67495054592294,
1,2,no,up,C,R,,,,,,Block.xlsx,"你已经完成了整个实验（三个区组）。

请报告实验者已完成实验

非常感谢，再见！",50,0,1.5,right,RRRRR.png,,,,,0,1,1,1,1,10,34,1,,,,,,,,,,,,,,,,,,,,,,,,,,,,,,,,,,,,,,,,,,,,,,,,,,,,,,,,,,,,,,,,,,,,,,632.8487249999962,633.2494549999974,633.2330002000017,633.3331054000009,633.733736299997,None,right,1,0.5251086999996915,633.733736299997,None,633.2330002000017,633.3331054000009,633.3331054000009,None,634.2838121999957,None,,,,,,,11001,001,2023_Dec_29_1003,ANT,2021.2.3,59.67495054592294,
1,16,center,down,IC,R,,,,,,Block.xlsx,"你已经完成了整个实验（三个区组）。

请报告实验者已完成实验

非常感谢，再见！",0,50,-1.5,right,LLRLL.png,,,,,0,1,1,1,1,11,35,15,,,,,,,,,,,,,,,,,,,,,,,,,,,,,,,,,,,,,,,,,,,,,,,,,,,,,,,,,,,,,,,,,,,,,,634.6849610999998,635.0858261999965,635.0690639000022,635.1691475999978,635.5695111999958,None,right,1,0.3853025999997044,635.5695111999958,None,635.0690639000022,635.1691475999978,635.1691475999978,None,635.9703884999981,None,,,,,,,11001,001,2023_Dec_29_1003,ANT,2021.2.3,59.67495054592294,
1,1,no,up,C,L,,,,,,Block.xlsx,"你已经完成了整个实验（三个区组）。

请报告实验者已完成实验

非常感谢，再见！",50,0,1.5,left,LLLLL.png,,,,,0,1,1,1,1,12,36,0,,,,,,,,,,,,,,,,,,,,,,,,,,,,,,,,,,,,,,,,,,,,,,,,,,,,,,,,,,,,,,,,,,,,,,636.3709043999988,636.7709360000008,636.7552206999972,636.855106199997,637.2554486000008,None,left,1,0.33164640000177315,637.2554486000008,None,636.7552206999972,636.855106199997,636.855106199997,None,637.6054005999977,None,,,,,,,11001,001,2023_Dec_29_1003,ANT,2021.2.3,59.67495054592294,
1,5,no,down,C,L,,,,,,Block.xlsx,"你已经完成了整个实验（三个区组）。

请报告实验者已完成实验

非常感谢，再见！",50,0,-1.5,left,LLLLL.png,,,,,0,1,1,1,1,13,37,4,,,,,,,,,,,,,,,,,,,,,,,,,,,,,,,,,,,,,,,,,,,,,,,,,,,,,,,,,,,,,,,,,,,,,,638.0067299000002,638.4071668999968,638.3904217000018,638.4907614999975,638.8911485999997,None,left,1,0.39166360000672285,638.8911485999997,None,638.3904217000018,638.4907614999975,638.4907614999975,None,639.3077113999971,None,,,,,,,11001,001,2023_Dec_29_1003,ANT,2021.2.3,59.67495054592294,
1,22,spatial,down,C,R,,,,,,Block.xlsx,"你已经完成了整个实验（三个区组）。

请报告实验者已完成实验

非常感谢，再见！",-1.5,0,-1.5,right,RRRRR.png,,,,,0,1,1,1,1,14,38,21,,,,,,,,,,,,,,,,,,,,,,,,,,,,,,,,,,,,,,,,,,,,,,,,,,,,,,,,,,,,,,,,,,,,,,639.7096813000026,640.1097682999971,640.0930568999975,640.1933215000026,640.5939902000027,None,right,1,0.3291129999997793,640.5939902000027,None,640.0930568999975,640.1933215000026,640.1933215000026,None,640.9444691000026,None,,,,,,,11001,001,2023_Dec_29_1003,ANT,2021.2.3,59.67495054592294,
1,10,center,up,C,R,,,,,,Block.xlsx,"你已经完成了整个实验（三个区组）。

请报告实验者已完成实验

非常感谢，再见！",0,50,1.5,right,RRRRR.png,,,,,0,1,1,1,1,15,39,9,,,,,,,,,,,,,,,,,,,,,,,,,,,,,,,,,,,,,,,,,,,,,,,,,,,,,,,,,,,,,,,,,,,,,,641.3452803999971,641.7455027999968,641.7294758999997,641.8290296999985,642.229473899999,None,right,1,0.37400000000343425,642.229473899999,None,641.7294758999997,641.8290296999985,641.8290296999985,None,642.6300499999998,None,,,,,,,11001,001,2023_Dec_29_1003,ANT,2021.2.3,59.67495054592294,
1,21,spatial,down,C,L,,,,,,Block.xlsx,"你已经完成了整个实验（三个区组）。

请报告实验者已完成实验

非常感谢，再见！",-1.5,0,-1.5,left,LLLLL.png,,,,,0,1,1,1,1,16,40,20,,,,,,,,,,,,,,,,,,,,,,,,,,,,,,,,,,,,,,,,,,,,,,,,,,,,,,,,,,,,,,,,,,,,,,643.0306845000014,643.4313250999985,643.4146059999985,643.5152060999972,643.915834200001,None,left,1,0.35084460000507534,643.915834200001,None,643.4146059999985,643.5152060999972,643.5152060999972,None,644.2818600999963,None,,,,,,,11001,001,2023_Dec_29_1003,ANT,2021.2.3,59.67495054592294,
1,14,center,down,C,R,,,,,,Block.xlsx,"你已经完成了整个实验（三个区组）。

请报告实验者已完成实验

非常感谢，再见！",0,50,-1.5,right,RRRRR.png,,,,,0,1,1,1,1,17,41,13,,,,,,,,,,,,,,,,,,,,,,,,,,,,,,,,,,,,,,,,,,,,,,,,,,,,,,,,,,,,,,,,,,,,,,644.6831931999986,645.083776200001,645.0671196999974,645.1678866000002,645.5683497999999,None,right,1,0.49874269999418175,645.5683497999999,None,645.0671196999974,645.1678866000002,645.1678866000002,None,646.0843892999983,None,,,,,,,11001,001,2023_Dec_29_1003,ANT,2021.2.3,59.67495054592294,
1,19,spatial,up,IC,L,,,,,,Block.xlsx,"你已经完成了整个实验（三个区组）。

请报告实验者已完成实验

非常感谢，再见！",1.5,0,1.5,left,RRLRR.png,,,,,0,1,1,1,1,18,42,18,,,,,,,,,,,,,,,,,,,,,,,,,,,,,,,,,,,,,,,,,,,,,,,,,,,,,,,,,,,,,,,,,,,,,,646.4854631999988,646.8864181999961,646.8704992999992,646.970003399998,647.3706700999974,None,left,1,0.4572033000004012,647.3706700999974,None,646.8704992999992,646.970003399998,646.970003399998,None,647.8538515999971,None,,,,,,,11001,001,2023_Dec_29_1003,ANT,2021.2.3,59.67495054592294,
1,13,center,down,C,L,,,,,,Block.xlsx,"你已经完成了整个实验（三个区组）。

请报告实验者已完成实验

非常感谢，再见！",0,50,-1.5,left,LLLLL.png,,,,,0,1,1,1,1,19,43,12,,,,,,,,,,,,,,,,,,,,,,,,,,,,,,,,,,,,,,,,,,,,,,,,,,,,,,,,,,,,,,,,,,,,,,648.2552464999972,648.6559188999963,648.6390299999985,648.7392347999994,649.1399128999983,None,left,1,0.3428206000025966,649.1399128999983,None,648.6390299999985,648.7392347999994,648.7392347999994,None,649.5063003999967,None,,,,,,,11001,001,2023_Dec_29_1003,ANT,2021.2.3,59.67495054592294,
1,10,center,up,C,R,,,,,,Block.xlsx,"你已经完成了整个实验（三个区组）。

请报告实验者已完成实验

非常感谢，再见！",0,50,1.5,right,RRRRR.png,,,,,0,1,1,1,1,20,44,9,,,,,,,,,,,,,,,,,,,,,,,,,,,,,,,,,,,,,,,,,,,,,,,,,,,,,,,,,,,,,,,,,,,,,,649.907650299996,650.308382999996,650.2914598999996,650.3916844999985,650.7921223000012,None,right,1,0.28320560000429396,650.7921223000012,None,650.2914598999996,650.3916844999985,650.3916844999985,None,651.0926508999983,None,,,,,,,11001,001,2023_Dec_29_1003,ANT,2021.2.3,59.67495054592294,
1,18,spatial,up,C,R,,,,,,Block.xlsx,"你已经完成了整个实验（三个区组）。

请报告实验者已完成实验

非常感谢，再见！",1.5,0,1.5,right,RRRRR.png,,,,,0,1,1,1,1,21,45,17,,,,,,,,,,,,,,,,,,,,,,,,,,,,,,,,,,,,,,,,,,,,,,,,,,,,,,,,,,,,,,,,,,,,,,651.4932942000014,651.8940035999985,651.8768235000025,651.9776538000006,652.3775769999993,None,right,1,0.3295404999953462,652.3775769999993,None,651.8768235000025,651.9776538000006,651.9776538000006,None,652.7281653999962,None,,,,,,,11001,001,2023_Dec_29_1003,ANT,2021.2.3,59.67495054592294,
1,22,spatial,down,C,R,,,,,,Block.xlsx,"你已经完成了整个实验（三个区组）。

请报告实验者已完成实验

非常感谢，再见！",-1.5,0,-1.5,right,RRRRR.png,,,,,0,1,1,1,1,22,46,21,,,,,,,,,,,,,,,,,,,,,,,,,,,,,,,,,,,,,,,,,,,,,,,,,,,,,,,,,,,,,,,,,,,,,,653.129028299998,653.5292921,653.5129750999986,653.6132041000019,654.0141720999964,None,right,1,0.3492212000055588,654.0141720999964,None,653.5129750999986,653.6132041000019,653.6132041000019,None,654.3809795999987,None,,,,,,,11001,001,2023_Dec_29_1003,ANT,2021.2.3,59.67495054592294,
1,7,no,down,IC,L,,,,,,Block.xlsx,"你已经完成了整个实验（三个区组）。

请报告实验者已完成实验

非常感谢，再见！",50,0,-1.5,left,RRLRR.png,,,,,0,1,1,1,1,23,47,6,,,,,,,,,,,,,,,,,,,,,,,,,,,,,,,,,,,,,,,,,,,,,,,,,,,,,,,,,,,,,,,,,,,,,,654.7814805000016,655.1821780999962,655.1653965000005,655.2669644999987,655.6666011999987,None,right,0,0.3602852000040002,655.6666011999987,None,655.1653965000005,655.2669644999987,655.2669644999987,None,656.049274099998,None,,,,,,,11001,001,2023_Dec_29_1003,ANT,2021.2.3,59.67495054592294,
1,21,spatial,down,C,L,,,,,,Block.xlsx,"你已经完成了整个实验（三个区组）。

请报告实验者已完成实验

非常感谢，再见！",-1.5,0,-1.5,left,LLLLL.png,,,,,0,1,1,1,2,0,48,20,,,,,,,,,,,,,,,,,,,,,,,,,,,,,,,,,,,,,,,,,,,,,,,,,,,,,,,,,,,,,,,,,,,,,,656.4506340000007,656.8514128999959,656.8346300999983,656.9351516999959,657.334557000002,None,left,1,0.3414675999956671,657.334557000002,None,656.8346300999983,656.9351516999959,656.9351516999959,None,657.702129199999,None,,,,,,,11001,001,2023_Dec_29_1003,ANT,2021.2.3,59.67495054592294,
1,8,no,down,IC,R,,,,,,Block.xlsx,"你已经完成了整个实验（三个区组）。

请报告实验者已完成实验

非常感谢，再见！",50,0,-1.5,right,LLRLL.png,,,,,0,1,1,1,2,1,49,7,,,,,,,,,,,,,,,,,,,,,,,,,,,,,,,,,,,,,,,,,,,,,,,,,,,,,,,,,,,,,,,,,,,,,,658.1030853999982,658.5038514999978,658.4870188999994,658.5876019999996,658.9875188000005,None,left,0,0.3838000999967335,658.9875188000005,None,658.4870188999994,658.5876019999996,658.5876019999996,None,659.3876261999976,None,,,,,,,11001,001,2023_Dec_29_1003,ANT,2021.2.3,59.67495054592294,
1,9,center,up,C,L,,,,,,Block.xlsx,"你已经完成了整个实验（三个区组）。

请报告实验者已完成实验

非常感谢，再见！",0,50,1.5,left,LLLLL.png,,,,,0,1,1,1,2,2,50,8,,,,,,,,,,,,,,,,,,,,,,,,,,,,,,,,,,,,,,,,,,,,,,,,,,,,,,,,,,,,,,,,,,,,,,659.7888185999982,660.189618700002,660.1728612000006,660.2724285000004,660.6735438999967,None,left,1,0.3933896999951685,660.6735438999967,None,660.1728612000006,660.2724285000004,660.2724285000004,None,661.0909090999994,None,,,,,,,11001,001,2023_Dec_29_1003,ANT,2021.2.3,59.67495054592294,
1,5,no,down,C,L,,,,,,Block.xlsx,"你已经完成了整个实验（三个区组）。

请报告实验者已完成实验

非常感谢，再见！",50,0,-1.5,left,LLLLL.png,,,,,0,1,1,1,2,3,51,4,,,,,,,,,,,,,,,,,,,,,,,,,,,,,,,,,,,,,,,,,,,,,,,,,,,,,,,,,,,,,,,,,,,,,,661.4915686999957,661.8920281999963,661.8770079000024,661.9921982000014,662.3757158000008,None,left,1,0.3954301999983727,662.3757158000008,None,661.8770079000024,661.9921982000014,661.9755928000013,None,662.7925751000002,None,,,,,,,11001,001,2023_Dec_29_1003,ANT,2021.2.3,59.67495054592294,
1,20,spatial,up,IC,R,,,,,,Block.xlsx,"你已经完成了整个实验（三个区组）。

请报告实验者已完成实验

非常感谢，再见！",1.5,0,1.5,right,LLRLL.png,,,,,0,1,1,1,2,4,52,19,,,,,,,,,,,,,,,,,,,,,,,,,,,,,,,,,,,,,,,,,,,,,,,,,,,,,,,,,,,,,,,,,,,,,,663.1939416000023,663.5945756000001,663.5778804000001,663.6784302000015,664.0789371999999,None,right,1,0.3639104000030784,664.0789371999999,None,663.5778804000001,663.6784302000015,663.6784302000015,None,664.4616509999978,None,,,,,,,11001,001,2023_Dec_29_1003,ANT,2021.2.3,59.67495054592294,
1,8,no,down,IC,R,,,,,,Block.xlsx,"你已经完成了整个实验（三个区组）。

请报告实验者已完成实验

非常感谢，再见！",50,0,-1.5,right,LLRLL.png,,,,,0,1,1,1,2,5,53,7,,,,,,,,,,,,,,,,,,,,,,,,,,,,,,,,,,,,,,,,,,,,,,,,,,,,,,,,,,,,,,,,,,,,,,664.8630854000003,665.2636790999968,665.2470386999994,665.3472954999961,665.7482565999962,None,right,1,0.3671436000004178,665.7482565999962,None,665.2470386999994,665.3472954999961,665.3472954999961,None,666.1313167999979,None,,,,,,,11001,001,2023_Dec_29_1003,ANT,2021.2.3,59.67495054592294,
1,11,center,up,IC,L,,,,,,Block.xlsx,"你已经完成了整个实验（三个区组）。

请报告实验者已完成实验

非常感谢，再见！",0,50,1.5,left,RRLRR.png,,,,,0,1,1,1,2,6,54,10,,,,,,,,,,,,,,,,,,,,,,,,,,,,,,,,,,,,,,,,,,,,,,,,,,,,,,,,,,,,,,,,,,,,,,666.5322649000009,666.9329662000018,666.9162099999958,667.0165593999991,667.4168559000027,None,left,1,0.5302913999985321,667.4168559000027,None,666.9162099999958,667.0165593999991,667.0165593999991,None,667.9677958999964,None,,,,,,,11001,001,2023_Dec_29_1003,ANT,2021.2.3,59.67495054592294,
1,17,spatial,up,C,L,,,,,,Block.xlsx,"你已经完成了整个实验（三个区组）。

请报告实验者已完成实验

非常感谢，再见！",1.5,0,1.5,left,LLLLL.png,,,,,0,1,1,1,2,7,55,16,,,,,,,,,,,,,,,,,,,,,,,,,,,,,,,,,,,,,,,,,,,,,,,,,,,,,,,,,,,,,,,,,,,,,,668.3683214999983,668.7690188999986,668.7522430000026,668.8518007000021,669.2528871999966,None,left,1,0.32594999999855645,669.2528871999966,None,668.7522430000026,668.8518007000021,668.8518007000021,None,669.6031208999993,None,,,,,,,11001,001,2023_Dec_29_1003,ANT,2021.2.3,59.67495054592294,
1,2,no,up,C,R,,,,,,Block.xlsx,"你已经完成了整个实验（三个区组）。

请报告实验者已完成实验

非常感谢，再见！",50,0,1.5,right,RRRRR.png,,,,,0,1,1,1,2,8,56,1,,,,,,,,,,,,,,,,,,,,,,,,,,,,,,,,,,,,,,,,,,,,,,,,,,,,,,,,,,,,,,,,,,,,,,670.0040068000017,670.4046879000016,670.3879769999985,670.4887655999992,670.8892211999992,None,right,1,0.40171180000470486,670.8892211999992,None,670.3879769999985,670.4887655999992,670.4887655999992,None,671.3223957000009,None,,,,,,,11001,001,2023_Dec_29_1003,ANT,2021.2.3,59.67495054592294,
1,6,no,down,C,R,,,,,,Block.xlsx,"你已经完成了整个实验（三个区组）。

请报告实验者已完成实验

非常感谢，再见！",50,0,-1.5,right,RRRRR.png,,,,,0,1,1,1,2,9,57,5,,,,,,,,,,,,,,,,,,,,,,,,,,,,,,,,,,,,,,,,,,,,,,,,,,,,,,,,,,,,,,,,,,,,,,671.7233026999966,672.123978399999,672.1072525999989,672.2073414999977,672.6077412000013,None,right,1,0.5475674999979674,672.6077412000013,None,672.1072525999989,672.2073414999977,672.2073414999977,None,673.175430700001,None,,,,,,,11001,001,2023_Dec_29_1003,ANT,2021.2.3,59.67495054592294,
1,14,center,down,C,R,,,,,,Block.xlsx,"你已经完成了整个实验（三个区组）。

请报告实验者已完成实验

非常感谢，再见！",0,50,-1.5,right,RRRRR.png,,,,,0,1,1,1,2,10,58,13,,,,,,,,,,,,,,,,,,,,,,,,,,,,,,,,,,,,,,,,,,,,,,,,,,,,,,,,,,,,,,,,,,,,,,673.5756018999964,673.9786097999968,673.9604287999973,674.0600349000015,674.4607032999993,None,right,1,0.38248010000097565,674.4607032999993,None,673.9604287999973,674.0600349000015,674.0600349000015,None,674.8603731999974,None,,,,,,,11001,001,2023_Dec_29_1003,ANT,2021.2.3,59.67495054592294,
1,22,spatial,down,C,R,,,,,,Block.xlsx,"你已经完成了整个实验（三个区组）。

请报告实验者已完成实验

非常感谢，再见！",-1.5,0,-1.5,right,RRRRR.png,,,,,0,1,1,1,2,11,59,21,,,,,,,,,,,,,,,,,,,,,,,,,,,,,,,,,,,,,,,,,,,,,,,,,,,,,,,,,,,,,,,,,,,,,,675.2621171999999,675.6630803000007,675.6462131000008,675.7460501999958,676.1466050000017,None,None,0,,676.1466050000017,None,675.6462131000008,675.7460501999958,675.7460501999958,None,677.8494823000001,None,,,,,,,11001,001,2023_Dec_29_1003,ANT,2021.2.3,59.67495054592294,
1,20,spatial,up,IC,R,,,,,,Block.xlsx,"你已经完成了整个实验（三个区组）。

请报告实验者已完成实验

非常感谢，再见！",1.5,0,1.5,right,LLRLL.png,,,,,0,1,1,1,2,12,60,19,,,,,,,,,,,,,,,,,,,,,,,,,,,,,,,,,,,,,,,,,,,,,,,,,,,,,,,,,,,,,,,,,,,,,,678.2495992999975,678.6502196000001,678.6335231999983,678.7337868999966,679.134745299998,None,right,1,0.3803715000030934,679.134745299998,None,678.6335231999983,678.7337868999966,678.7337868999966,None,679.5340567999956,None,,,,,,,11001,001,2023_Dec_29_1003,ANT,2021.2.3,59.67495054592294,
1,12,center,up,IC,R,,,,,,Block.xlsx,"你已经完成了整个实验（三个区组）。

请报告实验者已完成实验

非常感谢，再见！",0,50,1.5,right,LLRLL.png,,,,,0,1,1,1,2,13,61,11,,,,,,,,,,,,,,,,,,,,,,,,,,,,,,,,,,,,,,,,,,,,,,,,,,,,,,,,,,,,,,,,,,,,,,679.935472899997,680.3360659000027,680.3194201000006,680.4199818999987,680.8200254999974,None,right,1,0.6151214000055916,680.8200254999974,None,680.3194201000006,680.4199818999987,680.4199818999987,None,681.454429999998,None,,,,,,,11001,001,2023_Dec_29_1003,ANT,2021.2.3,59.67495054592294,
1,10,center,up,C,R,,,,,,Block.xlsx,"你已经完成了整个实验（三个区组）。

请报告实验者已完成实验

非常感谢，再见！",0,50,1.5,right,RRRRR.png,,,,,0,1,1,1,2,14,62,9,,,,,,,,,,,,,,,,,,,,,,,,,,,,,,,,,,,,,,,,,,,,,,,,,,,,,,,,,,,,,,,,,,,,,,681.8550959999993,682.2554961999995,682.2393777999969,682.3391133999976,682.7394780999966,None,right,1,0.3114313000041875,682.7394780999966,None,682.2393777999969,682.3391133999976,682.3391133999976,None,683.0729207999975,None,,,,,,,11001,001,2023_Dec_29_1003,ANT,2021.2.3,59.67495054592294,
1,17,spatial,up,C,L,,,,,,Block.xlsx,"你已经完成了整个实验（三个区组）。

请报告实验者已完成实验

非常感谢，再见！",1.5,0,1.5,left,LLLLL.png,,,,,0,1,1,1,2,15,63,16,,,,,,,,,,,,,,,,,,,,,,,,,,,,,,,,,,,,,,,,,,,,,,,,,,,,,,,,,,,,,,,,,,,,,,683.474263600001,683.8745662000001,683.8577698000008,683.9580830999985,684.3577881000019,None,left,1,0.3740486000024248,684.3577881000019,None,683.8577698000008,683.9580830999985,683.9580830999985,None,684.7586092999991,None,,,,,,,11001,001,2023_Dec_29_1003,ANT,2021.2.3,59.67495054592294,
1,11,center,up,IC,L,,,,,,Block.xlsx,"你已经完成了整个实验（三个区组）。

请报告实验者已完成实验

非常感谢，再见！",0,50,1.5,left,RRLRR.png,,,,,0,1,1,1,2,16,64,10,,,,,,,,,,,,,,,,,,,,,,,,,,,,,,,,,,,,,,,,,,,,,,,,,,,,,,,,,,,,,,,,,,,,,,685.159963500002,685.5609326999984,685.5440986999965,685.6442051999984,686.0445889999974,None,left,1,0.4704381999981706,686.0445889999974,None,685.5440986999965,685.6442051999984,685.6442051999984,None,686.5452678000001,None,,,,,,,11001,001,2023_Dec_29_1003,ANT,2021.2.3,59.67495054592294,
1,7,no,down,IC,L,,,,,,Block.xlsx,"你已经完成了整个实验（三个区组）。

请报告实验者已完成实验

非常感谢，再见！",50,0,-1.5,left,RRLRR.png,,,,,0,1,1,1,2,17,65,6,,,,,,,,,,,,,,,,,,,,,,,,,,,,,,,,,,,,,,,,,,,,,,,,,,,,,,,,,,,,,,,,,,,,,,686.9458515000006,687.3469381999967,687.3298063999973,687.4298995999998,687.8303203999967,None,left,1,0.6445107999970787,687.8303203999967,None,687.3298063999973,687.4298995999998,687.4298995999998,None,688.4977849999996,None,,,,,,,11001,001,2023_Dec_29_1003,ANT,2021.2.3,59.67495054592294,
1,5,no,down,C,L,,,,,,Block.xlsx,"你已经完成了整个实验（三个区组）。

请报告实验者已完成实验

非常感谢，再见！",50,0,-1.5,left,LLLLL.png,,,,,0,1,1,1,2,18,66,4,,,,,,,,,,,,,,,,,,,,,,,,,,,,,,,,,,,,,,,,,,,,,,,,,,,,,,,,,,,,,,,,,,,,,,688.8983910999959,689.2993547000005,689.2825153000013,689.3824029000025,689.7840183000008,None,left,1,0.442878900001233,689.7840183000008,None,689.2825153000013,689.3824029000025,689.3824029000025,None,690.250080400001,None,,,,,,,11001,001,2023_Dec_29_1003,ANT,2021.2.3,59.67495054592294,
1,7,no,down,IC,L,,,,,,Block.xlsx,"你已经完成了整个实验（三个区组）。

请报告实验者已完成实验

非常感谢，再见！",50,0,-1.5,left,RRLRR.png,,,,,0,1,1,1,2,19,67,6,,,,,,,,,,,,,,,,,,,,,,,,,,,,,,,,,,,,,,,,,,,,,,,,,,,,,,,,,,,,,,,,,,,,,,690.6514397999999,691.0523708999972,691.035192299998,691.1354338000019,691.536007499999,None,left,1,0.37911719999829074,691.536007499999,None,691.035192299998,691.1354338000019,691.1354338000019,None,691.9356797,None,,,,,,,11001,001,2023_Dec_29_1003,ANT,2021.2.3,59.67495054592294,
1,4,no,up,IC,R,,,,,,Block.xlsx,"你已经完成了整个实验（三个区组）。

请报告实验者已完成实验

非常感谢，再见！",50,0,1.5,right,LLRLL.png,,,,,0,1,1,1,2,20,68,3,,,,,,,,,,,,,,,,,,,,,,,,,,,,,,,,,,,,,,,,,,,,,,,,,,,,,,,,,,,,,,,,,,,,,,692.3373825000017,692.7377363999985,692.7217539999983,692.8212913000025,693.2219270999994,None,right,1,0.5177006000012625,693.2219270999994,None,692.7217539999983,692.8212913000025,692.8212913000025,None,693.7558884999962,None,,,,,,,11001,001,2023_Dec_29_1003,ANT,2021.2.3,59.67495054592294,
1,10,center,up,C,R,,,,,,Block.xlsx,"你已经完成了整个实验（三个区组）。

请报告实验者已完成实验

非常感谢，再见！",0,50,1.5,right,RRRRR.png,,,,,0,1,1,1,2,21,69,9,,,,,,,,,,,,,,,,,,,,,,,,,,,,,,,,,,,,,,,,,,,,,,,,,,,,,,,,,,,,,,,,,,,,,,694.1567821999997,694.5584244999991,694.539849599998,694.6405670999957,695.0412703999973,None,right,1,0.3539327999969828,695.0412703999973,None,694.539849599998,694.6405670999957,694.6405670999957,None,695.4249208999972,None,,,,,,,11001,001,2023_Dec_29_1003,ANT,2021.2.3,59.67495054592294,
1,3,no,up,IC,L,,,,,,Block.xlsx,"你已经完成了整个实验（三个区组）。

请报告实验者已完成实验

非常感谢，再见！",50,0,1.5,left,RRLRR.png,,,,,0,1,1,1,2,22,70,2,,,,,,,,,,,,,,,,,,,,,,,,,,,,,,,,,,,,,,,,,,,,,,,,,,,,,,,,,,,,,,,,,,,,,,695.8251526999957,696.2262364999988,696.2095131999959,696.309703400002,696.7100965999998,None,left,1,0.388973300003272,696.7100965999998,None,696.2095131999959,696.309703400002,696.309703400002,None,697.1272286000021,None,,,,,,,11001,001,2023_Dec_29_1003,ANT,2021.2.3,59.67495054592294,
1,24,spatial,down,IC,R,,,,,,Block.xlsx,"你已经完成了整个实验（三个区组）。

请报告实验者已完成实验

非常感谢，再见！",-1.5,0,-1.5,right,LLRLL.png,,,,,0,1,1,1,2,23,71,23,,,,,,,,,,,,,,,,,,,,,,,,,,,,,,,,,,,,,,,,,,,,,,,,,,,,,,,,,,,,,,,,,,,,,,697.5281634999992,697.9283345000003,697.9120910999991,698.0125509999998,698.4134769000011,None,right,1,0.32535009999992326,698.4134769000011,None,697.9120910999991,698.0125509999998,698.0125509999998,None,698.7638246999995,None,,,,,,,11001,001,2023_Dec_29_1003,ANT,2021.2.3,59.67495054592294,
1,1,no,up,C,L,,,,,,Block.xlsx,"你已经完成了整个实验（三个区组）。

请报告实验者已完成实验

非常感谢，再见！",50,0,1.5,left,LLLLL.png,,,,,0,1,1,1,3,0,72,0,,,,,,,,,,,,,,,,,,,,,,,,,,,,,,,,,,,,,,,,,,,,,,,,,,,,,,,,,,,,,,,,,,,,,,699.1639637999979,699.5645347999962,699.547622099999,699.6481432,700.0481195999964,None,left,1,0.32357600000250386,700.0481195999964,None,699.547622099999,699.6481432,699.6481432,None,700.3994445999997,None,,,,,,,11001,001,2023_Dec_29_1003,ANT,2021.2.3,59.67495054592294,
1,16,center,down,IC,R,,,,,,Block.xlsx,"你已经完成了整个实验（三个区组）。

请报告实验者已完成实验

非常感谢，再见！",0,50,-1.5,right,LLRLL.png,,,,,0,1,1,1,3,1,73,15,,,,,,,,,,,,,,,,,,,,,,,,,,,,,,,,,,,,,,,,,,,,,,,,,,,,,,,,,,,,,,,,,,,,,,700.7996024000022,701.2003055000023,701.1835847999973,701.285020299998,701.6846275999997,None,right,1,0.38282469999830937,701.6846275999997,None,701.1835847999973,701.285020299998,701.285020299998,None,702.0847536000001,None,,,,,,,11001,001,2023_Dec_29_1003,ANT,2021.2.3,59.67495054592294,
1,1,no,up,C,L,,,,,,Block.xlsx,"你已经完成了整个实验（三个区组）。

请报告实验者已完成实验

非常感谢，再见！",50,0,1.5,left,LLLLL.png,,,,,0,1,1,1,3,2,74,0,,,,,,,,,,,,,,,,,,,,,,,,,,,,,,,,,,,,,,,,,,,,,,,,,,,,,,,,,,,,,,,,,,,,,,702.4855623999974,702.8862253999978,702.8694591000021,702.9699059999984,703.3702797000005,None,left,1,0.2966705999933765,703.3702797000005,None,702.8694591000021,702.9699059999984,702.9699059999984,None,703.687420000002,None,,,,,,,11001,001,2023_Dec_29_1003,ANT,2021.2.3,59.67495054592294,
1,6,no,down,C,R,,,,,,Block.xlsx,"你已经完成了整个实验（三个区组）。

请报告实验者已完成实验

非常感谢，再见！",50,0,-1.5,right,RRRRR.png,,,,,0,1,1,1,3,3,75,5,,,,,,,,,,,,,,,,,,,,,,,,,,,,,,,,,,,,,,,,,,,,,,,,,,,,,,,,,,,,,,,,,,,,,,704.0873070000016,704.4877153999987,704.4716124999977,704.5719440999965,704.9726933999991,None,right,1,0.286148699997284,704.9726933999991,None,704.4716124999977,704.5719440999965,704.5719440999965,None,705.289894900001,None,,,,,,,11001,001,2023_Dec_29_1003,ANT,2021.2.3,59.67495054592294,
1,24,spatial,down,IC,R,,,,,,Block.xlsx,"你已经完成了整个实验（三个区组）。

请报告实验者已完成实验

非常感谢，再见！",-1.5,0,-1.5,right,LLRLL.png,,,,,0,1,1,1,3,4,76,23,,,,,,,,,,,,,,,,,,,,,,,,,,,,,,,,,,,,,,,,,,,,,,,,,,,,,,,,,,,,,,,,,,,,,,705.6903565999964,706.0912948999976,706.0743726000001,706.1743577000016,706.5749404000017,None,right,1,0.3164866999941296,706.5749404000017,None,706.0743726000001,706.1743577000016,706.1743577000016,None,706.9091461999997,None,,,,,,,11001,001,2023_Dec_29_1003,ANT,2021.2.3,59.67495054592294,
1,19,spatial,up,IC,L,,,,,,Block.xlsx,"你已经完成了整个实验（三个区组）。

请报告实验者已完成实验

非常感谢，再见！",1.5,0,1.5,left,RRLRR.png,,,,,0,1,1,1,3,5,77,18,,,,,,,,,,,,,,,,,,,,,,,,,,,,,,,,,,,,,,,,,,,,,,,,,,,,,,,,,,,,,,,,,,,,,,707.3093749999971,707.7100377999959,707.6933295999988,707.7933623999998,708.1939607000022,None,left,1,0.31319889999576844,708.1939607000022,None,707.6933295999988,707.7933623999998,707.7933623999998,None,708.5270872999972,None,,,,,,,11001,001,2023_Dec_29_1003,ANT,2021.2.3,59.67495054592294,
1,5,no,down,C,L,,,,,,Block.xlsx,"你已经完成了整个实验（三个区组）。

请报告实验者已完成实验

非常感谢，再见！",50,0,-1.5,left,LLLLL.png,,,,,0,1,1,1,3,6,78,4,,,,,,,,,,,,,,,,,,,,,,,,,,,,,,,,,,,,,,,,,,,,,,,,,,,,,,,,,,,,,,,,,,,,,,708.9285713999998,709.3290593999991,709.3124868000014,709.4125977000003,709.8130610000007,None,left,1,0.4457786999992095,709.8130610000007,None,709.3124868000014,709.4125977000003,709.4125977000003,None,710.2795482000001,None,,,,,,,11001,001,2023_Dec_29_1003,ANT,2021.2.3,59.67495054592294,
1,2,no,up,C,R,,,,,,Block.xlsx,"你已经完成了整个实验（三个区组）。

请报告实验者已完成实验

非常感谢，再见！",50,0,1.5,right,RRRRR.png,,,,,0,1,1,1,3,7,79,1,,,,,,,,,,,,,,,,,,,,,,,,,,,,,,,,,,,,,,,,,,,,,,,,,,,,,,,,,,,,,,,,,,,,,,710.6814897000004,711.0816210999983,711.064567100002,711.1650938999956,711.5657771999977,None,right,1,0.28507510000054026,711.5657771999977,None,711.064567100002,711.1650938999956,711.1650938999956,None,711.8658750999966,None,,,,,,,11001,001,2023_Dec_29_1003,ANT,2021.2.3,59.67495054592294,
1,13,center,down,C,L,,,,,,Block.xlsx,"你已经完成了整个实验（三个区组）。

请报告实验者已完成实验

非常感谢，再见！",0,50,-1.5,left,LLLLL.png,,,,,0,1,1,1,3,8,80,12,,,,,,,,,,,,,,,,,,,,,,,,,,,,,,,,,,,,,,,,,,,,,,,,,,,,,,,,,,,,,,,,,,,,,,712.2667625999966,712.6673961999986,712.650897200001,712.750773599997,713.1512879000002,None,left,1,0.43557480000163196,713.1512879000002,None,712.650897200001,712.750773599997,712.750773599997,None,713.6018652999992,None,,,,,,,11001,001,2023_Dec_29_1003,ANT,2021.2.3,59.67495054592294,
1,13,center,down,C,L,,,,,,Block.xlsx,"你已经完成了整个实验（三个区组）。

请报告实验者已完成实验

非常感谢，再见！",0,50,-1.5,left,LLLLL.png,,,,,0,1,1,1,3,9,81,12,,,,,,,,,,,,,,,,,,,,,,,,,,,,,,,,,,,,,,,,,,,,,,,,,,,,,,,,,,,,,,,,,,,,,,714.0022196999998,714.4032159999988,714.3864979999998,714.4867709999962,714.8875238999972,None,left,1,0.3637097000028007,714.8875238999972,None,714.3864979999998,714.4867709999962,714.4867709999962,None,715.2703440999976,None,,,,,,,11001,001,2023_Dec_29_1003,ANT,2021.2.3,59.67495054592294,
1,4,no,up,IC,R,,,,,,Block.xlsx,"你已经完成了整个实验（三个区组）。

请报告实验者已完成实验

非常感谢，再见！",50,0,1.5,right,LLRLL.png,,,,,0,1,1,1,3,10,82,3,,,,,,,,,,,,,,,,,,,,,,,,,,,,,,,,,,,,,,,,,,,,,,,,,,,,,,,,,,,,,,,,,,,,,,715.6717453000019,716.0723480000015,716.0556332999986,716.1559937999991,716.5568367000014,None,right,1,0.5744621000048937,716.5568367000014,None,716.0556332999986,716.1559937999991,716.1559937999991,None,717.1572682999977,None,,,,,,,11001,001,2023_Dec_29_1003,ANT,2021.2.3,59.67495054592294,
1,18,spatial,up,C,R,,,,,,Block.xlsx,"你已经完成了整个实验（三个区组）。

请报告实验者已完成实验

非常感谢，再见！",1.5,0,1.5,right,RRRRR.png,,,,,0,1,1,1,3,11,83,17,,,,,,,,,,,,,,,,,,,,,,,,,,,,,,,,,,,,,,,,,,,,,,,,,,,,,,,,,,,,,,,,,,,,,,717.5578944000008,717.9589567000003,717.9420882999984,718.0431826999993,718.442146100002,None,right,1,0.36079700000118464,718.442146100002,None,717.9420882999984,718.0431826999993,718.0431826999993,None,718.8257711999977,None,,,,,,,11001,001,2023_Dec_29_1003,ANT,2021.2.3,59.67495054592294,
1,24,spatial,down,IC,R,,,,,,Block.xlsx,"你已经完成了整个实验（三个区组）。

请报告实验者已完成实验

非常感谢，再见！",-1.5,0,-1.5,right,LLRLL.png,,,,,0,1,1,1,3,12,84,23,,,,,,,,,,,,,,,,,,,,,,,,,,,,,,,,,,,,,,,,,,,,,,,,,,,,,,,,,,,,,,,,,,,,,,719.2270587999956,719.6276359999974,719.6109950999962,719.7109895999965,720.1116582999966,None,right,1,0.3634701000046334,720.1116582999966,None,719.6109950999962,719.7109895999965,719.7109895999965,None,720.4950974999956,None,,,,,,,11001,001,2023_Dec_29_1003,ANT,2021.2.3,59.67495054592294,
1,4,no,up,IC,R,,,,,,Block.xlsx,"你已经完成了整个实验（三个区组）。

请报告实验者已完成实验

非常感谢，再见！",50,0,1.5,right,LLRLL.png,,,,,0,1,1,1,3,13,85,3,,,,,,,,,,,,,,,,,,,,,,,,,,,,,,,,,,,,,,,,,,,,,,,,,,,,,,,,,,,,,,,,,,,,,,720.8960159999988,721.296961,721.280895099997,721.3799705999991,721.7809249999991,None,right,1,0.5020048999940627,721.7809249999991,None,721.280895099997,721.3799705999991,721.3799705999991,None,722.2975001000013,None,,,,,,,11001,001,2023_Dec_29_1003,ANT,2021.2.3,59.67495054592294,
1,11,center,up,IC,L,,,,,,Block.xlsx,"你已经完成了整个实验（三个区组）。

请报告实验者已完成实验

非常感谢，再见！",0,50,1.5,left,RRLRR.png,,,,,0,1,1,1,3,14,86,10,,,,,,,,,,,,,,,,,,,,,,,,,,,,,,,,,,,,,,,,,,,,,,,,,,,,,,,,,,,,,,,,,,,,,,722.6989718999976,723.0994513999976,723.0824627999973,723.182794100001,723.5834806999992,None,left,1,0.5082674000004772,723.5834806999992,None,723.0824627999973,723.182794100001,723.182794100001,None,724.1175953999991,None,,,,,,,11001,001,2023_Dec_29_1003,ANT,2021.2.3,59.67495054592294,
1,6,no,down,C,R,,,,,,Block.xlsx,"你已经完成了整个实验（三个区组）。

请报告实验者已完成实验

非常感谢，再见！",50,0,-1.5,right,RRRRR.png,,,,,0,1,1,1,3,15,87,5,,,,,,,,,,,,,,,,,,,,,,,,,,,,,,,,,,,,,,,,,,,,,,,,,,,,,,,,,,,,,,,,,,,,,,724.5181595999966,724.9188108000017,724.901956499998,725.0028463999988,725.4027112999975,None,right,1,0.4804546999948798,725.4027112999975,None,724.901956499998,725.0028463999988,725.0028463999988,None,725.9026747000025,None,,,,,,,11001,001,2023_Dec_29_1003,ANT,2021.2.3,59.67495054592294,
1,14,center,down,C,R,,,,,,Block.xlsx,"你已经完成了整个实验（三个区组）。

请报告实验者已完成实验

非常感谢，再见！",0,50,-1.5,right,RRRRR.png,,,,,0,1,1,1,3,16,88,13,,,,,,,,,,,,,,,,,,,,,,,,,,,,,,,,,,,,,,,,,,,,,,,,,,,,,,,,,,,,,,,,,,,,,,726.3037898999974,726.7058451999983,726.6873271000004,726.7884539000006,727.1892460000017,None,right,1,0.3256780000010622,727.1892460000017,None,726.6873271000004,726.7884539000006,726.7884539000006,None,727.539277099997,None,,,,,,,11001,001,2023_Dec_29_1003,ANT,2021.2.3,59.67495054592294,
1,12,center,up,IC,R,,,,,,Block.xlsx,"你已经完成了整个实验（三个区组）。

请报告实验者已完成实验

非常感谢，再见！",0,50,1.5,right,LLRLL.png,,,,,0,1,1,1,3,17,89,11,,,,,,,,,,,,,,,,,,,,,,,,,,,,,,,,,,,,,,,,,,,,,,,,,,,,,,,,,,,,,,,,,,,,,,727.9395951999977,728.3401570999995,728.3237655999983,728.4240941000025,728.8245172000024,None,right,1,0.45839600000181235,728.8245172000024,None,728.3237655999983,728.4240941000025,728.4240941000025,None,729.3086148000002,None,,,,,,,11001,001,2023_Dec_29_1003,ANT,2021.2.3,59.67495054592294,
1,19,spatial,up,IC,L,,,,,,Block.xlsx,"你已经完成了整个实验（三个区组）。

请报告实验者已完成实验

非常感谢，再见！",1.5,0,1.5,left,RRLRR.png,,,,,0,1,1,1,3,18,90,18,,,,,,,,,,,,,,,,,,,,,,,,,,,,,,,,,,,,,,,,,,,,,,,,,,,,,,,,,,,,,,,,,,,,,,729.7092790000024,730.1100272999975,730.0932239999966,730.1931718999986,730.5938935000013,None,left,1,0.3529240999996546,730.5938935000013,None,730.0932239999966,730.1931718999986,730.1931718999986,None,730.9777584999974,None,,,,,,,11001,001,2023_Dec_29_1003,ANT,2021.2.3,59.67495054592294,
1,1,no,up,C,L,,,,,,Block.xlsx,"你已经完成了整个实验（三个区组）。

请报告实验者已完成实验

