TrialType,TrialNumber,WarningType,TargetType,FlankerType,TargetDirection,W,f,Y,corr,imageFile,condition,endtext,Yw,Yf,Yt,Corr,imagefile,trials_3.thisRepN,trials_3.thisTrialN,trials_3.thisN,trials_3.thisIndex,trials_2.thisRepN,trials_2.thisTrialN,trials_2.thisN,trials_2.thisIndex,trials.thisRepN,trials.thisTrialN,trials.thisN,trials.thisIndex,instr.started,instr.stopped,key_resp.keys,key_resp.rt,key_resp.started,key_resp.stopped,image.started,image.stopped,key_resp_6.keys,key_resp_6.rt,key_resp_6.started,key_resp_6.stopped,EX_L.started,EX_L.stopped,AL.started,AL.stopped,key_resp_7.keys,key_resp_7.rt,key_resp_7.started,key_resp_7.stopped,EX_R.started,EX_R.stopped,RR.started,RR.stopped,key_resp_8.keys,key_resp_8.rt,key_resp_8.started,key_resp_8.stopped,image_2.started,image_2.stopped,key_resp_9.keys,key_resp_9.rt,key_resp_9.started,key_resp_9.stopped,image_3.started,image_3.stopped,key_resp_10.keys,key_resp_10.rt,key_resp_10.started,key_resp_10.stopped,fix.started,fix.stopped,war.started,war.stopped,tar.started,tar.stopped,key_resp_4.keys,key_resp_4.corr,key_resp_4.rt,key_resp_4.started,key_resp_4.stopped,fix2.started,fix2.stopped,fix_2.started,fix_2.stopped,Feedback.started,Feedback.stopped,text.started,text.stopped,key_resp_11.keys,key_resp_11.rt,key_resp_11.started,key_resp_11.stopped,key_resp_2.keys,key_resp_2.rt,key_resp_2.started,key_resp_2.stopped,text_5.started,text_5.stopped,fix2_1.started,fix2_1.stopped,Warn.started,Warn.stopped,Tar.started,Tar.stopped,key_resp_5.keys,key_resp_5.corr,key_resp_5.rt,key_resp_5.started,key_resp_5.stopped,Fix_2.started,Fix_2.stopped,fix2_2.started,fix2_2.stopped,text_4.started,text_4.stopped,key_resp_3.keys,key_resp_3.rt,key_resp_3.started,key_resp_3.stopped,text_3.started,text_3.stopped,participant,session,date,expName,psychopyVersion,frameRate,
,,,,,,,,,,,,,,,,,,,,,,,,,,,,,,56.46882549999282,None,space,37.16827829997055,56.46882549999282,None,,,,,,,,,,,,,,,,,,,,,,,,,,,,,,,,,,,,,,,,,,,,,,,,,,,,,,,,,,,,,,,,,,,,,,,,,,,,,,,,,,,,,,,11012,001,2024_Jan_02_1127,ANT,2021.2.3,59.946827164187454,
,,,,,,,,,,,,,,,,,,,,,,,,,,,,,,,,,,,,93.65747510001529,None,space,16.85928369994508,93.65747510001529,None,,,,,,,,,,,,,,,,,,,,,,,,,,,,,,,,,,,,,,,,,,,,,,,,,,,,,,,,,,,,,,,,,,,,,,,,,,,,,,,,,11012,001,2024_Jan_02_1127,ANT,2021.2.3,59.946827164187454,
,,,,,,,,,,,,,,,,,,,,,,,,,,,,,,,,,,,,,,,,,,110.53228420001687,None,110.53228420001687,None,left,5.080770699947607,110.53228420001687,None,,,,,,,,,,,,,,,,,,,,,,,,,,,,,,,,,,,,,,,,,,,,,,,,,,,,,,,,,,,,,,,,,,,,,,,,,11012,001,2024_Jan_02_1127,ANT,2021.2.3,59.946827164187454,
,,,,,,,,,,,,,,,,,,,,,,,,,,,,,,,,,,,,,,,,,,,,,,,,,,115.64106049999828,None,115.64106049999828,None,right,0.7801554999896325,115.64106049999828,None,,,,,,,,,,,,,,,,,,,,,,,,,,,,,,,,,,,,,,,,,,,,,,,,,,,,,,,,,,,,,,,,,11012,001,2024_Jan_02_1127,ANT,2021.2.3,59.946827164187454,
,,,,,,,,,,,,,,,,,,,,,,,,,,,,,,,,,,,,,,,,,,,,,,,,,,,,,,,,,,116.44115650001913,None,space,41.17196960002184,116.44115650001913,None,,,,,,,,,,,,,,,,,,,,,,,,,,,,,,,,,,,,,,,,,,,,,,,,,,,,,,,,,,,11012,001,2024_Jan_02_1127,ANT,2021.2.3,59.946827164187454,
,,,,,,,,,,,,,,,,,,,,,,,,,,,,,,,,,,,,,,,,,,,,,,,,,,,,,,,,,,,,,,,,157.6356352000148,None,space,11.305491599952802,157.6356352000148,None,,,,,,,,,,,,,,,,,,,,,,,,,,,,,,,,,,,,,,,,,,,,,,,,,,,,,11012,001,2024_Jan_02_1127,ANT,2021.2.3,59.946827164187454,
0,9,spatial,up,C,R,1.5,0,1.5,right,RRRRR.png,,,,,,,,0,0,0,8,,,,,,,,,,,,,,,,,,,,,,,,,,,,,,,,,,,,,,,,,,,,,,,,,169.0527639000211,169.45351600000868,169.42073439998785,169.5213420999935,169.92115380003816,None,right,1,0.7399065000354312,169.92115380003816,None,169.42073439998785,169.5213420999935,169.5213420999935,None,170.70563240000047,None,,,,,,,,,,,,,,,,,,,,,,,,,,,,,,,,,,,,11012,001,2024_Jan_02_1127,ANT,2021.2.3,59.946827164187454,
0,5,center,up,C,L,0,50,1.5,left,LLLLL.png,,,,,,,,0,1,1,4,,,,,,,,,,,,,,,,,,,,,,,,,,,,,,,,,,,,,,,,,,,,,,,,,172.70885779999662,173.10978719999548,173.0934428999899,173.1931621999829,173.59513720002724,None,left,1,0.6258070999756455,173.59513720002724,None,173.0934428999899,173.1931621999829,173.1931621999829,None,174.24354830000084,None,,,,,,,,,,,,,,,,,,,,,,,,,,,,,,,,,,,,11012,001,2024_Jan_02_1127,ANT,2021.2.3,59.946827164187454,
0,3,no,down,C,R,50,0,-1.5,right,RRRRR.png,,,,,,,,0,2,2,2,,,,,,,,,,,,,,,,,,,,,,,,,,,,,,,,,,,,,,,,,,,,,,,,,176.24650090001523,176.64725420001196,176.63086650002515,176.7315752999857,177.13210500002606,None,right,1,0.7049428000464104,177.13210500002606,None,176.63086650002515,176.7315752999857,176.7315752999857,None,177.8655111999833,None,,,,,,,,,,,,,,,,,,,,,,,,,,,,,,,,,,,,11012,001,2024_Jan_02_1127,ANT,2021.2.3,59.946827164187454,
0,12,spatial,down,IC,R,-1.5,0,-1.5,right,LLRLL.png,,,,,,,,0,3,3,11,,,,,,,,,,,,,,,,,,,,,,,,,,,,,,,,,,,,,,,,,,,,,,,,,179.86941560002742,180.27119920001132,180.2529046999989,180.35359860002063,180.75402779999422,None,right,1,0.5868838999886066,180.75402779999422,None,180.2529046999989,180.35359860002063,180.35359860002063,None,181.37105509999674,None,,,,,,,,,,,,,,,,,,,,,,,,,,,,,,,,,,,,11012,001,2024_Jan_02_1127,ANT,2021.2.3,59.946827164187454,
0,7,center,down,C,R,0,50,-1.5,right,RRRRR.png,,,,,,,,0,4,4,6,,,,,,,,,,,,,,,,,,,,,,,,,,,,,,,,,,,,,,,,,,,,,,,,,183.37428380001802,183.77536020003026,183.75777329999255,183.8603679999942,184.2594280000194,None,right,1,0.4337981999851763,184.2594280000194,None,183.75777329999255,183.8603679999942,183.8603679999942,None,184.70907939999597,None,,,,,,,,,,,,,,,,,,,,,,,,,,,,,,,,,,,,11012,001,2024_Jan_02_1127,ANT,2021.2.3,59.946827164187454,
0,8,center,down,IC,L,0,50,-1.5,left,RRLRR.png,,,,,,,,0,5,5,7,,,,,,,,,,,,,,,,,,,,,,,,,,,,,,,,,,,,,,,,,,,,,,,,,186.71219470002688,187.1136047000182,187.09681710001314,187.19669290003367,187.59694070002297,None,right,0,0.4240561999613419,187.59694070002297,None,187.09681710001314,187.19669290003367,187.19669290003367,None,188.0473979000235,None,,,,,,,,,,,,,,,,,,,,,,,,,,,,,,,,,,,,11012,001,2024_Jan_02_1127,ANT,2021.2.3,59.946827164187454,
0,4,no,down,IC,L,50,0,-1.5,left,RRLRR.png,,,,,,,,0,6,6,3,,,,,,,,,,,,,,,,,,,,,,,,,,,,,,,,,,,,,,,,,,,,,,,,,190.05039669998223,190.45172419998562,190.4352122999844,190.5344289999921,190.93618960003369,None,left,1,0.7176320000435226,190.93618960003369,None,190.4352122999844,190.5344289999921,190.5344289999921,None,191.6696906000143,None,,,,,,,,,,,,,,,,,,,,,,,,,,,,,,,,,,,,11012,001,2024_Jan_02_1127,ANT,2021.2.3,59.946827164187454,
0,2,no,up,IC,R,50,0,1.5,right,LLRLL.png,,,,,,,,0,7,7,1,,,,,,,,,,,,,,,,,,,,,,,,,,,,,,,,,,,,,,,,,,,,,,,,,193.6729102000245,194.07606619998114,194.05673130002106,194.1562984000193,194.55801440001233,None,right,1,0.5269580999738537,194.55801440001233,None,194.05673130002106,194.1562984000193,194.1562984000193,None,195.10783460002858,None,,,,,,,,,,,,,,,,,,,,,,,,,,,,,,,,,,,,11012,001,2024_Jan_02_1127,ANT,2021.2.3,59.946827164187454,
0,10,spatial,up,IC,L,1.5,0,1.5,left,RRLRR.png,,,,,,,,0,8,8,9,,,,,,,,,,,,,,,,,,,,,,,,,,,,,,,,,,,,,,,,,,,,,,,,,197.11197890003677,197.51196030003484,197.4961445000372,197.59478420001687,197.995464000036,None,left,1,0.5059595999773592,197.995464000036,None,197.4961445000372,197.59478420001687,197.59478420001687,None,198.52961279999,None,,,,,,,,,,,,,,,,,,,,,,,,,,,,,,,,,,,,11012,001,2024_Jan_02_1127,ANT,2021.2.3,59.946827164187454,
0,11,spatial,down,C,L,-1.5,0,-1.5,left,LLLLL.png,,,,,,,,0,9,9,10,,,,,,,,,,,,,,,,,,,,,,,,,,,,,,,,,,,,,,,,,,,,,,,,,200.5327198000159,200.9338476000121,200.91736890003085,201.0171897999826,201.41839300002903,None,left,1,0.4746369999484159,201.41839300002903,None,200.91736890003085,201.0171897999826,201.0171897999826,None,201.9180702000158,None,,,,,,,,,,,,,,,,,,,,,,,,,,,,,,,,,,,,11012,001,2024_Jan_02_1127,ANT,2021.2.3,59.946827164187454,
0,1,no,up,C,L,50,0,1.5,left,LLLLL.png,,,,,,,,0,10,10,0,,,,,,,,,,,,,,,,,,,,,,,,,,,,,,,,,,,,,,,,,,,,,,,,,203.92215320002288,204.32216869998956,204.30615530000068,204.40697379998164,204.8067197999917,None,left,1,0.4865290999878198,204.8067197999917,None,204.30615530000068,204.40697379998164,204.40697379998164,None,205.32311649998883,None,,,,,,,,,,,,,,,,,,,,,,,,,,,,,,,,,,,,11012,001,2024_Jan_02_1127,ANT,2021.2.3,59.946827164187454,
0,6,center,up,IC,R,0,50,1.5,right,LLRLL.png,,,,,,,,0,11,11,5,,,,,,,,,,,,,,,,,,,,,,,,,,,,,,,,,,,,,,,,,,,,,,,,,207.3260137999896,207.72659139998723,207.71139379998203,207.8107391000376,208.2121476000175,None,left,0,0.40104849997442216,208.2121476000175,None,207.71139379998203,207.8107391000376,207.8107391000376,None,208.62944580003386,None,,,,,,,,,,,,,,,,,,,,,,,,,,,,,,,,,,,,11012,001,2024_Jan_02_1127,ANT,2021.2.3,59.946827164187454,
,,,,,,,,,,,,,,,,,,,,,,,,,,,,,,,,,,,,,,,,,,,,,,,,,,,,,,,,,,,,,,,,,,,,,,,,,,,,,,,,,,,,,,,210.63069680001354,None,space,7.142789000004996,210.63069680001354,None,,,,,,,,,,,,,,,,,,,,,,,,,,,,,,11012,001,2024_Jan_02_1127,ANT,2021.2.3,59.946827164187454,
,,,,,,,,,,,,,,,,,,,,,,,,,,,,,,,,,,,,,,,,,,,,,,,,,,,,,,,,,,,,,,,,,,,,,,,,,,,,,,,,,,,,,,,,,,,,,space,8.925386400020216,217.79169109999202,None,,,,,,,,,,,,,,,,,,,,,,,,,,11012,001,2024_Jan_02_1127,ANT,2021.2.3,59.946827164187454,
1,13,center,down,C,L,,,,,,Block.xlsx,"你已经完成了第一个实验区组

请稍作休息


点击空格键进入下一个区组。",0,50,-1.5,left,LLLLL.png,,,,,0,0,0,0,0,0,0,12,,,,,,,,,,,,,,,,,,,,,,,,,,,,,,,,,,,,,,,,,,,,,,,,,,,,,,,,,,,,,,,,,,,,217.79169109999202,None,226.77370230003726,227.17414850002388,227.15620580001269,227.25601780001307,227.6569966999814,None,left,1,0.5562585999723524,227.6569966999814,None,227.15620580001269,227.25601780001307,227.25601780001307,None,228.24026450002566,None,,,,,,,11012,001,2024_Jan_02_1127,ANT,2021.2.3,59.946827164187454,
1,12,center,up,IC,R,,,,,,Block.xlsx,"你已经完成了第一个实验区组

请稍作休息


点击空格键进入下一个区组。",0,50,1.5,right,LLRLL.png,,,,,0,0,0,0,0,1,1,11,,,,,,,,,,,,,,,,,,,,,,,,,,,,,,,,,,,,,,,,,,,,,,,,,,,,,,,,,,,,,,,,,,,,,,228.6415060000145,229.04261720000068,229.02654130000155,229.1420431000297,229.5261629000306,None,right,1,0.6068853000178933,229.5261629000306,None,229.02654130000155,229.1420431000297,229.12678970000707,None,230.1598873999901,None,,,,,,,11012,001,2024_Jan_02_1127,ANT,2021.2.3,59.946827164187454,
1,8,no,down,IC,R,,,,,,Block.xlsx,"你已经完成了第一个实验区组

请稍作休息


点击空格键进入下一个区组。",50,0,-1.5,right,LLRLL.png,,,,,0,0,0,0,0,2,2,7,,,,,,,,,,,,,,,,,,,,,,,,,,,,,,,,,,,,,,,,,,,,,,,,,,,,,,,,,,,,,,,,,,,,,,230.56117679999443,230.9615991000319,230.9452639000374,231.04576910001924,231.4459187000175,None,right,1,0.5671548999962397,231.4459187000175,None,230.9452639000374,231.04576910001924,231.04576910001924,None,232.02917779999552,None,,,,,,,11012,001,2024_Jan_02_1127,ANT,2021.2.3,59.946827164187454,
1,8,no,down,IC,R,,,,,,Block.xlsx,"你已经完成了第一个实验区组

请稍作休息


点击空格键进入下一个区组。",50,0,-1.5,right,LLRLL.png,,,,,0,0,0,0,0,3,3,7,,,,,,,,,,,,,,,,,,,,,,,,,,,,,,,,,,,,,,,,,,,,,,,,,,,,,,,,,,,,,,,,,,,,,,232.43052250001347,232.83067510003457,232.81456989998696,232.91533480002545,233.3151499000378,None,right,1,0.6579129999736324,233.3151499000378,None,232.81456989998696,232.91533480002545,232.91533480002545,None,233.99894060002407,None,,,,,,,11012,001,2024_Jan_02_1127,ANT,2021.2.3,59.946827164187454,
1,22,spatial,down,C,R,,,,,,Block.xlsx,"你已经完成了第一个实验区组

请稍作休息


点击空格键进入下一个区组。",-1.5,0,-1.5,right,RRRRR.png,,,,,0,0,0,0,0,4,4,21,,,,,,,,,,,,,,,,,,,,,,,,,,,,,,,,,,,,,,,,,,,,,,,,,,,,,,,,,,,,,,,,,,,,,,234.39950719999615,234.80077560001519,234.78406640002504,234.88329870003508,235.2860905000125,None,right,1,0.5834103000233881,235.2860905000125,None,234.78406640002504,234.88329870003508,234.88329870003508,None,235.88503970002057,None,,,,,,,11012,001,2024_Jan_02_1127,ANT,2021.2.3,59.946827164187454,
1,19,spatial,up,IC,L,,,,,,Block.xlsx,"你已经完成了第一个实验区组

请稍作休息


点击空格键进入下一个区组。",1.5,0,1.5,left,RRLRR.png,,,,,0,0,0,0,0,5,5,18,,,,,,,,,,,,,,,,,,,,,,,,,,,,,,,,,,,,,,,,,,,,,,,,,,,,,,,,,,,,,,,,,,,,,,236.28559570002835,236.68682659999467,236.6706691000145,236.77025290002348,237.17092870001215,None,left,1,0.38621049997163936,237.17092870001215,None,236.6706691000145,236.77025290002348,236.77025290002348,None,237.58897560002515,None,,,,,,,11012,001,2024_Jan_02_1127,ANT,2021.2.3,59.946827164187454,
1,22,spatial,down,C,R,,,,,,Block.xlsx,"你已经完成了第一个实验区组

请稍作休息


点击空格键进入下一个区组。",-1.5,0,-1.5,right,RRRRR.png,,,,,0,0,0,0,0,6,6,21,,,,,,,,,,,,,,,,,,,,,,,,,,,,,,,,,,,,,,,,,,,,,,,,,,,,,,,,,,,,,,,,,,,,,,237.98796100000618,238.39022340002703,238.37276940001175,238.47392730001593,238.8747832000372,None,right,1,0.41059869999298826,238.8747832000372,None,238.37276940001175,238.47392730001593,238.47392730001593,None,239.30659089999972,None,,,,,,,11012,001,2024_Jan_02_1127,ANT,2021.2.3,59.946827164187454,
1,3,no,up,IC,L,,,,,,Block.xlsx,"你已经完成了第一个实验区组

请稍作休息


点击空格键进入下一个区组。",50,0,1.5,left,RRLRR.png,,,,,0,0,0,0,0,7,7,2,,,,,,,,,,,,,,,,,,,,,,,,,,,,,,,,,,,,,,,,,,,,,,,,,,,,,,,,,,,,,,,,,,,,,,239.70756459998665,240.10861709999153,240.09290799999144,240.19335920002777,240.59271450003143,None,left,1,0.44462670001666993,240.59271450003143,None,240.09290799999144,240.19335920002777,240.19335920002777,None,241.05942780000623,None,,,,,,,11012,001,2024_Jan_02_1127,ANT,2021.2.3,59.946827164187454,
1,6,no,down,C,R,,,,,,Block.xlsx,"你已经完成了第一个实验区组

请稍作休息


点击空格键进入下一个区组。",50,0,-1.5,right,RRRRR.png,,,,,0,0,0,0,0,8,8,5,,,,,,,,,,,,,,,,,,,,,,,,,,,,,,,,,,,,,,,,,,,,,,,,,,,,,,,,,,,,,,,,,,,,,,241.46009800001048,241.86194159998558,241.8438214000198,241.9456077000359,242.34518400003435,None,right,1,0.45185450004646555,242.34518400003435,None,241.8438214000198,241.9456077000359,241.9456077000359,None,242.81186980003258,None,,,,,,,11012,001,2024_Jan_02_1127,ANT,2021.2.3,59.946827164187454,
1,17,spatial,up,C,L,,,,,,Block.xlsx,"你已经完成了第一个实验区组

请稍作休息


点击空格键进入下一个区组。",1.5,0,1.5,left,LLLLL.png,,,,,0,0,0,0,0,9,9,16,,,,,,,,,,,,,,,,,,,,,,,,,,,,,,,,,,,,,,,,,,,,,,,,,,,,,,,,,,,,,,,,,,,,,,243.21261470002355,243.61450150003657,243.5964449000312,243.6971712000086,244.09841179999057,None,left,1,0.3388260999927297,244.09841179999057,None,243.5964449000312,243.6971712000086,243.6971712000086,None,244.4643981999834,None,,,,,,,11012,001,2024_Jan_02_1127,ANT,2021.2.3,59.946827164187454,
1,12,center,up,IC,R,,,,,,Block.xlsx,"你已经完成了第一个实验区组

请稍作休息


点击空格键进入下一个区组。",0,50,1.5,right,LLRLL.png,,,,,0,0,0,0,0,10,10,11,,,,,,,,,,,,,,,,,,,,,,,,,,,,,,,,,,,,,,,,,,,,,,,,,,,,,,,,,,,,,,,,,,,,,,244.8655504999915,245.26734299998498,245.24957769998582,245.35054950002814,245.7515437999973,None,right,1,0.5415330000105314,245.7515437999973,None,245.24957769998582,245.35054950002814,245.35054950002814,None,246.31761149998056,None,,,,,,,11012,001,2024_Jan_02_1127,ANT,2021.2.3,59.946827164187454,
1,4,no,up,IC,R,,,,,,Block.xlsx,"你已经完成了第一个实验区组

请稍作休息


点击空格键进入下一个区组。",50,0,1.5,right,LLRLL.png,,,,,0,0,0,0,0,11,11,3,,,,,,,,,,,,,,,,,,,,,,,,,,,,,,,,,,,,,,,,,,,,,,,,,,,,,,,,,,,,,,,,,,,,,,246.71843350003473,247.12046900001587,247.10242489998927,247.20334240002558,247.6025088999886,None,right,1,0.45160110003780574,247.6025088999886,None,247.10242489998927,247.20334240002558,247.20334240002558,None,248.070058399986,None,,,,,,,11012,001,2024_Jan_02_1127,ANT,2021.2.3,59.946827164187454,
1,1,no,up,C,L,,,,,,Block.xlsx,"你已经完成了第一个实验区组

请稍作休息


点击空格键进入下一个区组。",50,0,1.5,left,LLLLL.png,,,,,0,0,0,0,0,12,12,0,,,,,,,,,,,,,,,,,,,,,,,,,,,,,,,,,,,,,,,,,,,,,,,,,,,,,,,,,,,,,,,,,,,,,,248.47186200000579,248.87369360000594,248.8549058000208,248.9564255999867,249.35565729998052,None,left,1,0.7374597000307404,249.35565729998052,None,248.8549058000208,248.9564255999867,248.9564255999867,None,250.12272380001377,None,,,,,,,11012,001,2024_Jan_02_1127,ANT,2021.2.3,59.946827164187454,
1,18,spatial,up,C,R,,,,,,Block.xlsx,"你已经完成了第一个实验区组

请稍作休息


点击空格键进入下一个区组。",1.5,0,1.5,right,RRRRR.png,,,,,0,0,0,0,0,13,13,17,,,,,,,,,,,,,,,,,,,,,,,,,,,,,,,,,,,,,,,,,,,,,,,,,,,,,,,,,,,,,,,,,,,,,,250.52327740000328,250.92456349998247,250.90885700000217,251.0094963000156,251.40896010003053,None,right,1,0.4044729999732226,251.40896010003053,None,250.90885700000217,251.0094963000156,251.0094963000156,None,251.84200190001866,None,,,,,,,11012,001,2024_Jan_02_1127,ANT,2021.2.3,59.946827164187454,
1,18,spatial,up,C,R,,,,,,Block.xlsx,"你已经完成了第一个实验区组

请稍作休息


点击空格键进入下一个区组。",1.5,0,1.5,right,RRRRR.png,,,,,0,0,0,0,0,14,14,17,,,,,,,,,,,,,,,,,,,,,,,,,,,,,,,,,,,,,,,,,,,,,,,,,,,,,,,,,,,,,,,,,,,,,,252.2427134999889,252.64417889999459,252.62731619999977,252.7280256000231,253.12722800002666,None,right,1,0.40602120000403374,253.12722800002666,None,252.62731619999977,252.7280256000231,252.7280256000231,None,253.5611479000072,None,,,,,,,11012,001,2024_Jan_02_1127,ANT,2021.2.3,59.946827164187454,
1,21,spatial,down,C,L,,,,,,Block.xlsx,"你已经完成了第一个实验区组

请稍作休息


点击空格键进入下一个区组。",-1.5,0,-1.5,left,LLLLL.png,,,,,0,0,0,0,0,15,15,20,,,,,,,,,,,,,,,,,,,,,,,,,,,,,,,,,,,,,,,,,,,,,,,,,,,,,,,,,,,,,,,,,,,,,,253.96200639999006,254.36358740000287,254.34689310000977,254.44624459999613,254.84733650001,None,left,1,0.573715100006666,254.84733650001,None,254.34689310000977,254.44624459999613,254.44624459999613,None,255.4479991000262,None,,,,,,,11012,001,2024_Jan_02_1127,ANT,2021.2.3,59.946827164187454,
1,20,spatial,up,IC,R,,,,,,Block.xlsx,"你已经完成了第一个实验区组

请稍作休息


点击空格键进入下一个区组。",1.5,0,1.5,right,LLRLL.png,,,,,0,0,0,0,0,16,16,19,,,,,,,,,,,,,,,,,,,,,,,,,,,,,,,,,,,,,,,,,,,,,,,,,,,,,,,,,,,,,,,,,,,,,,255.848656999995,256.25048829999287,256.2320985000115,256.33417560003,256.733081399987,None,right,1,0.4489600000088103,256.733081399987,None,256.2320985000115,256.33417560003,256.33417560003,None,257.1999586999882,None,,,,,,,11012,001,2024_Jan_02_1127,ANT,2021.2.3,59.946827164187454,
1,3,no,up,IC,L,,,,,,Block.xlsx,"你已经完成了第一个实验区组

请稍作休息


点击空格键进入下一个区组。",50,0,1.5,left,RRLRR.png,,,,,0,0,0,0,0,17,17,2,,,,,,,,,,,,,,,,,,,,,,,,,,,,,,,,,,,,,,,,,,,,,,,,,,,,,,,,,,,,,,,,,,,,,,257.6006174000213,258.0025166000123,257.9843533000094,258.0875809999998,258.4870611000224,None,left,1,0.5104418999981135,258.4870611000224,None,257.9843533000094,258.0875809999998,258.0875809999998,None,259.01977740001166,None,,,,,,,11012,001,2024_Jan_02_1127,ANT,2021.2.3,59.946827164187454,
1,5,no,down,C,L,,,,,,Block.xlsx,"你已经完成了第一个实验区组

请稍作休息


点击空格键进入下一个区组。",50,0,-1.5,left,LLLLL.png,,,,,0,0,0,0,0,18,18,4,,,,,,,,,,,,,,,,,,,,,,,,,,,,,,,,,,,,,,,,,,,,,,,,,,,,,,,,,,,,,,,,,,,,,,259.42006690002745,259.8219312999863,259.80451320001157,259.90535389998695,260.30730570002925,None,left,1,0.5299939000396989,260.30730570002925,None,259.80451320001157,259.90535389998695,259.90535389998695,None,260.85578370001167,None,,,,,,,11012,001,2024_Jan_02_1127,ANT,2021.2.3,59.946827164187454,
1,1,no,up,C,L,,,,,,Block.xlsx,"你已经完成了第一个实验区组

请稍作休息


点击空格键进入下一个区组。",50,0,1.5,left,LLLLL.png,,,,,0,0,0,0,0,19,19,0,,,,,,,,,,,,,,,,,,,,,,,,,,,,,,,,,,,,,,,,,,,,,,,,,,,,,,,,,,,,,,,,,,,,,,261.25602100003744,261.65694840002107,261.6408287000377,261.7409844000358,262.1411878000363,None,left,1,0.6801213000435382,262.1411878000363,None,261.6408287000377,261.7409844000358,261.7409844000358,None,262.84158200002275,None,,,,,,,11012,001,2024_Jan_02_1127,ANT,2021.2.3,59.946827164187454,
1,2,no,up,C,R,,,,,,Block.xlsx,"你已经完成了第一个实验区组

请稍作休息


点击空格键进入下一个区组。",50,0,1.5,right,RRRRR.png,,,,,0,0,0,0,0,20,20,1,,,,,,,,,,,,,,,,,,,,,,,,,,,,,,,,,,,,,,,,,,,,,,,,,,,,,,,,,,,,,,,,,,,,,,263.24309599999106,263.642739300034,263.6273330000113,263.72767520003254,264.12869839998893,None,right,1,0.4364300000015646,264.12869839998893,None,263.6273330000113,263.72767520003254,263.72767520003254,None,264.5940225000377,None,,,,,,,11012,001,2024_Jan_02_1127,ANT,2021.2.3,59.946827164187454,
1,23,spatial,down,IC,L,,,,,,Block.xlsx,"你已经完成了第一个实验区组

请稍作休息


点击空格键进入下一个区组。",-1.5,0,-1.5,left,RRLRR.png,,,,,0,0,0,0,0,21,21,22,,,,,,,,,,,,,,,,,,,,,,,,,,,,,,,,,,,,,,,,,,,,,,,,,,,,,,,,,,,,,,,,,,,,,,264.99593760003336,265.3961583999917,265.3798433000338,265.4794201999903,265.8806061000214,None,left,1,0.4925111999618821,265.8806061000214,None,265.3798433000338,265.4794201999903,265.4794201999903,None,266.3969323000056,None,,,,,,,11012,001,2024_Jan_02_1127,ANT,2021.2.3,59.946827164187454,
1,14,center,down,C,R,,,,,,Block.xlsx,"你已经完成了第一个实验区组

请稍作休息


点击空格键进入下一个区组。",0,50,-1.5,right,RRRRR.png,,,,,0,0,0,0,0,22,22,13,,,,,,,,,,,,,,,,,,,,,,,,,,,,,,,,,,,,,,,,,,,,,,,,,,,,,,,,,,,,,,,,,,,,,,266.7982840000186,267.199078500038,267.1822590000229,267.2833660999895,267.683045200014,None,right,1,0.3941618999815546,267.683045200014,None,267.1822590000229,267.2833660999895,267.2833660999895,None,268.0994512999896,None,,,,,,,11012,001,2024_Jan_02_1127,ANT,2021.2.3,59.946827164187454,
1,19,spatial,up,IC,L,,,,,,Block.xlsx,"你已经完成了第一个实验区组

请稍作休息


点击空格键进入下一个区组。",1.5,0,1.5,left,RRLRR.png,,,,,0,0,0,0,0,23,23,18,,,,,,,,,,,,,,,,,,,,,,,,,,,,,,,,,,,,,,,,,,,,,,,,,,,,,,,,,,,,,,,,,,,,,,268.4999162000022,268.9010744999978,268.88448370003607,268.985402100021,269.3866121000028,None,left,1,0.427410600008443,269.3866121000028,None,268.88448370003607,268.985402100021,268.985402100021,None,269.8353122000117,None,,,,,,,11012,001,2024_Jan_02_1127,ANT,2021.2.3,59.946827164187454,
1,19,spatial,up,IC,L,,,,,,Block.xlsx,"你已经完成了第一个实验区组

请稍作休息


点击空格键进入下一个区组。",1.5,0,1.5,left,RRLRR.png,,,,,0,0,0,0,1,0,24,18,,,,,,,,,,,,,,,,,,,,,,,,,,,,,,,,,,,,,,,,,,,,,,,,,,,,,,,,,,,,,,,,,,,,,,270.23599479999393,270.63873800000874,270.6203233000124,270.72054780001054,271.12128790002316,None,left,1,0.4278442999930121,271.12128790002316,None,270.6203233000124,270.72054780001054,270.72054780001054,None,271.5711630000151,None,,,,,,,11012,001,2024_Jan_02_1127,ANT,2021.2.3,59.946827164187454,
1,10,center,up,C,R,,,,,,Block.xlsx,"你已经完成了第一个实验区组

请稍作休息


点击空格键进入下一个区组。",0,50,1.5,right,RRRRR.png,,,,,0,0,0,0,1,1,25,9,,,,,,,,,,,,,,,,,,,,,,,,,,,,,,,,,,,,,,,,,,,,,,,,,,,,,,,,,,,,,,,,,,,,,,271.9719572000322,272.3723346000188,272.3577662000316,272.4566683000303,272.85798580001574,None,right,1,0.37946559995179996,272.85798580001574,None,272.3577662000316,272.4566683000303,272.4566683000303,None,273.2570294000325,None,,,,,,,11012,001,2024_Jan_02_1127,ANT,2021.2.3,59.946827164187454,
1,9,center,up,C,L,,,,,,Block.xlsx,"你已经完成了第一个实验区组

请稍作休息


点击空格键进入下一个区组。",0,50,1.5,left,LLLLL.png,,,,,0,0,0,0,1,2,26,8,,,,,,,,,,,,,,,,,,,,,,,,,,,,,,,,,,,,,,,,,,,,,,,,,,,,,,,,,,,,,,,,,,,,,,273.6576545999851,274.0601730000344,274.04223930003354,274.1428058000165,274.5428179000155,None,left,1,0.3583663000026718,274.5428179000155,None,274.04223930003354,274.1428058000165,274.1428058000165,None,274.9262203000253,None,,,,,,,11012,001,2024_Jan_02_1127,ANT,2021.2.3,59.946827164187454,
1,9,center,up,C,L,,,,,,Block.xlsx,"你已经完成了第一个实验区组

请稍作休息


点击空格键进入下一个区组。",0,50,1.5,left,LLLLL.png,,,,,0,0,0,0,1,3,27,8,,,,,,,,,,,,,,,,,,,,,,,,,,,,,,,,,,,,,,,,,,,,,,,,,,,,,,,,,,,,,,,,,,,,,,275.3268005999853,275.7281038000365,275.71159359999,275.81182430003537,276.21221500000684,None,left,1,0.3530763000017032,276.21221500000684,None,275.71159359999,275.81182430003537,275.81182430003537,None,276.59530069999164,None,,,,,,,11012,001,2024_Jan_02_1127,ANT,2021.2.3,59.946827164187454,
1,9,center,up,C,L,,,,,,Block.xlsx,"你已经完成了第一个实验区组

请稍作休息


点击空格键进入下一个区组。",0,50,1.5,left,LLLLL.png,,,,,0,0,0,0,1,4,28,8,,,,,,,,,,,,,,,,,,,,,,,,,,,,,,,,,,,,,,,,,,,,,,,,,,,,,,,,,,,,,,,,,,,,,,276.99592910002684,277.39704569999594,277.3816082000267,277.48121709999396,277.8812737999833,None,left,1,0.3565491000190377,277.8812737999833,None,277.3816082000267,277.48121709999396,277.48121709999396,None,278.26450099999784,None,,,,,,,11012,001,2024_Jan_02_1127,ANT,2021.2.3,59.946827164187454,
1,14,center,down,C,R,,,,,,Block.xlsx,"你已经完成了第一个实验区组

请稍作休息


点击空格键进入下一个区组。",0,50,-1.5,right,RRRRR.png,,,,,0,0,0,0,1,5,29,13,,,,,,,,,,,,,,,,,,,,,,,,,,,,,,,,,,,,,,,,,,,,,,,,,,,,,,,,,,,,,,,,,,,,,,278.6653316000011,279.06646460003685,279.05005309998523,279.150534800021,279.5514675999875,None,right,1,0.46981889999005944,279.5514675999875,None,279.05005309998523,279.150534800021,279.150534800021,None,280.0513701000018,None,,,,,,,11012,001,2024_Jan_02_1127,ANT,2021.2.3,59.946827164187454,
1,23,spatial,down,IC,L,,,,,,Block.xlsx,"你已经完成了第一个实验区组

请稍作休息


点击空格键进入下一个区组。",-1.5,0,-1.5,left,RRLRR.png,,,,,0,0,0,0,1,6,30,22,,,,,,,,,,,,,,,,,,,,,,,,,,,,,,,,,,,,,,,,,,,,,,,,,,,,,,,,,,,,,,,,,,,,,,280.4511387000093,280.85294320003595,280.83531749999383,280.9352912000031,281.33572319999803,None,left,1,0.5253347000107169,281.33572319999803,None,280.83531749999383,280.9352912000031,280.9352912000031,None,281.8867391999811,None,,,,,,,11012,001,2024_Jan_02_1127,ANT,2021.2.3,59.946827164187454,
1,21,spatial,down,C,L,,,,,,Block.xlsx,"你已经完成了第一个实验区组

请稍作休息


点击空格键进入下一个区组。",-1.5,0,-1.5,left,LLLLL.png,,,,,0,0,0,0,1,7,31,20,,,,,,,,,,,,,,,,,,,,,,,,,,,,,,,,,,,,,,,,,,,,,,,,,,,,,,,,,,,,,,,,,,,,,,282.28719770000316,282.68789110000944,282.6711205000174,282.7729333000025,283.1717534000054,None,left,1,0.3774489999632351,283.1717534000054,None,282.6711205000174,282.7729333000025,282.7729333000025,None,283.57233609998366,None,,,,,,,11012,001,2024_Jan_02_1127,ANT,2021.2.3,59.946827164187454,
1,6,no,down,C,R,,,,,,Block.xlsx,"你已经完成了第一个实验区组

请稍作休息


点击空格键进入下一个区组。",50,0,-1.5,right,RRRRR.png,,,,,0,0,0,0,1,8,32,5,,,,,,,,,,,,,,,,,,,,,,,,,,,,,,,,,,,,,,,,,,,,,,,,,,,,,,,,,,,,,,,,,,,,,,283.9738914000336,284.3742405999801,284.35773380001774,284.4582670000382,284.8582705000299,None,right,1,0.39494469994679093,284.8582705000299,None,284.35773380001774,284.4582670000382,284.4582670000382,None,285.27493459999096,None,,,,,,,11012,001,2024_Jan_02_1127,ANT,2021.2.3,59.946827164187454,
1,23,spatial,down,IC,L,,,,,,Block.xlsx,"你已经完成了第一个实验区组

请稍作休息


点击空格键进入下一个区组。",-1.5,0,-1.5,left,RRLRR.png,,,,,0,0,0,0,1,9,33,22,,,,,,,,,,,,,,,,,,,,,,,,,,,,,,,,,,,,,,,,,,,,,,,,,,,,,,,,,,,,,,,,,,,,,,285.6761993999826,286.0773604999995,286.0603826000006,286.16139960003784,286.5601547000115,None,left,1,0.4214231999940239,286.5601547000115,None,286.0603826000006,286.16139960003784,286.16139960003784,None,287.010743300023,None,,,,,,,11012,001,2024_Jan_02_1127,ANT,2021.2.3,59.946827164187454,
1,21,spatial,down,C,L,,,,,,Block.xlsx,"你已经完成了第一个实验区组

请稍作休息


点击空格键进入下一个区组。",-1.5,0,-1.5,left,LLLLL.png,,,,,0,0,0,0,1,10,34,20,,,,,,,,,,,,,,,,,,,,,,,,,,,,,,,,,,,,,,,,,,,,,,,,,,,,,,,,,,,,,,,,,,,,,,287.4113679000293,287.81339710002067,287.795285900007,287.8968179000076,288.2973337000003,None,left,1,0.3958868000190705,288.2973337000003,None,287.795285900007,287.8968179000076,287.8968179000076,None,288.7137555000372,None,,,,,,,11012,001,2024_Jan_02_1127,ANT,2021.2.3,59.946827164187454,
1,5,no,down,C,L,,,,,,Block.xlsx,"你已经完成了第一个实验区组

请稍作休息


点击空格键进入下一个区组。",50,0,-1.5,left,LLLLL.png,,,,,0,0,0,0,1,11,35,4,,,,,,,,,,,,,,,,,,,,,,,,,,,,,,,,,,,,,,,,,,,,,,,,,,,,,,,,,,,,,,,,,,,,,,289.1145664000069,289.5151440000045,289.49849900003755,289.59943330002716,289.9991561000352,None,left,1,0.4780486000236124,289.9991561000352,None,289.49849900003755,289.59943330002716,289.59943330002716,None,290.499493899988,None,,,,,,,11012,001,2024_Jan_02_1127,ANT,2021.2.3,59.946827164187454,
1,2,no,up,C,R,,,,,,Block.xlsx,"你已经完成了第一个实验区组

请稍作休息


点击空格键进入下一个区组。",50,0,1.5,right,RRRRR.png,,,,,0,0,0,0,1,12,36,1,,,,,,,,,,,,,,,,,,,,,,,,,,,,,,,,,,,,,,,,,,,,,,,,,,,,,,,,,,,,,,,,,,,,,,290.89992320002057,291.3023848999874,291.28377239999827,291.384962000011,291.78573330002837,None,right,1,0.5394784999662079,291.78573330002837,None,291.28377239999827,291.384962000011,291.384962000011,None,292.3526460999856,None,,,,,,,11012,001,2024_Jan_02_1127,ANT,2021.2.3,59.946827164187454,
1,6,no,down,C,R,,,,,,Block.xlsx,"你已经完成了第一个实验区组

请稍作休息


点击空格键进入下一个区组。",50,0,-1.5,right,RRRRR.png,,,,,0,0,0,0,1,13,37,5,,,,,,,,,,,,,,,,,,,,,,,,,,,,,,,,,,,,,,,,,,,,,,,,,,,,,,,,,,,,,,,,,,,,,,292.75292040000204,293.15379070001654,293.1386491000303,293.2537800000282,293.63886579999235,None,right,1,0.4382672000210732,293.63886579999235,None,293.1386491000303,293.2537800000282,293.2378361999872,None,294.10502000001725,None,,,,,,,11012,001,2024_Jan_02_1127,ANT,2021.2.3,59.946827164187454,
1,10,center,up,C,R,,,,,,Block.xlsx,"你已经完成了第一个实验区组

请稍作休息


点击空格键进入下一个区组。",0,50,1.5,right,RRRRR.png,,,,,0,0,0,0,1,14,38,9,,,,,,,,,,,,,,,,,,,,,,,,,,,,,,,,,,,,,,,,,,,,,,,,,,,,,,,,,,,,,,,,,,,,,,294.5051957999822,294.9060264999862,294.8902889000019,294.99056459998246,295.38980010000523,None,right,1,0.47939100000075996,295.38980010000523,None,294.8902889000019,294.99056459998246,294.99056459998246,None,295.890658600023,None,,,,,,,11012,001,2024_Jan_02_1127,ANT,2021.2.3,59.946827164187454,
1,7,no,down,IC,L,,,,,,Block.xlsx,"你已经完成了第一个实验区组

请稍作休息


点击空格键进入下一个区组。",50,0,-1.5,left,RRLRR.png,,,,,0,0,0,0,1,15,39,6,,,,,,,,,,,,,,,,,,,,,,,,,,,,,,,,,,,,,,,,,,,,,,,,,,,,,,,,,,,,,,,,,,,,,,296.2912281000172,296.6918217000202,296.6759014999843,296.77538710000226,297.17766440002015,None,right,0,0.40370899997651577,297.17766440002015,None,296.6759014999843,296.77538710000226,296.77538710000226,None,297.6097051000106,None,,,,,,,11012,001,2024_Jan_02_1127,ANT,2021.2.3,59.946827164187454,
1,24,spatial,down,IC,R,,,,,,Block.xlsx,"你已经完成了第一个实验区组

请稍作休息


点击空格键进入下一个区组。",-1.5,0,-1.5,right,LLRLL.png,,,,,0,0,0,0,1,16,40,23,,,,,,,,,,,,,,,,,,,,,,,,,,,,,,,,,,,,,,,,,,,,,,,,,,,,,,,,,,,,,,,,,,,,,,298.0115444000112,298.41141739999875,298.3960357999895,298.5117847000365,298.8959918000037,None,right,1,0.724993199983146,298.8959918000037,None,298.3960357999895,298.5117847000365,298.49637750000693,None,299.64597300003516,None,,,,,,,11012,001,2024_Jan_02_1127,ANT,2021.2.3,59.946827164187454,
1,17,spatial,up,C,L,,,,,,Block.xlsx,"你已经完成了第一个实验区组

请稍作休息


点击空格键进入下一个区组。",1.5,0,1.5,left,LLLLL.png,,,,,0,0,0,0,1,17,41,16,,,,,,,,,,,,,,,,,,,,,,,,,,,,,,,,,,,,,,,,,,,,,,,,,,,,,,,,,,,,,,,,,,,,,,300.0466347000329,300.44789549999405,300.43069070001366,300.53253289998975,300.9323648000136,None,left,1,0.3774954999680631,300.9323648000136,None,300.43069070001366,300.53253289998975,300.53253289998975,None,301.33183139999164,None,,,,,,,11012,001,2024_Jan_02_1127,ANT,2021.2.3,59.946827164187454,
1,11,center,up,IC,L,,,,,,Block.xlsx,"你已经完成了第一个实验区组

请稍作休息


点击空格键进入下一个区组。",0,50,1.5,left,RRLRR.png,,,,,0,0,0,0,1,18,42,10,,,,,,,,,,,,,,,,,,,,,,,,,,,,,,,,,,,,,,,,,,,,,,,,,,,,,,,,,,,,,,,,,,,,,,301.73259820003295,302.1339085000218,302.1172084999853,302.2175408999901,302.6188715000171,None,left,1,0.44222879997687414,302.6188715000171,None,302.1172084999853,302.2175408999901,302.2175408999901,None,303.0853946999996,None,,,,,,,11012,001,2024_Jan_02_1127,ANT,2021.2.3,59.946827164187454,
1,24,spatial,down,IC,R,,,,,,Block.xlsx,"你已经完成了第一个实验区组

请稍作休息


点击空格键进入下一个区组。",-1.5,0,-1.5,right,LLRLL.png,,,,,0,0,0,0,1,19,43,23,,,,,,,,,,,,,,,,,,,,,,,,,,,,,,,,,,,,,,,,,,,,,,,,,,,,,,,,,,,,,,,,,,,,,,303.48508850001963,303.88578260003123,303.8689907999942,303.97004059999017,304.3719672000152,None,right,1,0.5372333999839611,304.3719672000152,None,303.8689907999942,303.97004059999017,303.97004059999017,None,304.9375085000065,None,,,,,,,11012,001,2024_Jan_02_1127,ANT,2021.2.3,59.946827164187454,
1,22,spatial,down,C,R,,,,,,Block.xlsx,"你已经完成了第一个实验区组

请稍作休息


点击空格键进入下一个区组。",-1.5,0,-1.5,right,RRRRR.png,,,,,0,0,0,0,1,20,44,21,,,,,,,,,,,,,,,,,,,,,,,,,,,,,,,,,,,,,,,,,,,,,,,,,,,,,,,,,,,,,,,,,,,,,,305.33784990001004,305.73909739998635,305.72292909998214,305.8227251000353,306.22310479998123,None,right,1,0.5422639000462368,306.22310479998123,None,305.72292909998214,305.8227251000353,305.8227251000353,None,306.79001029999927,None,,,,,,,11012,001,2024_Jan_02_1127,ANT,2021.2.3,59.946827164187454,
1,20,spatial,up,IC,R,,,,,,Block.xlsx,"你已经完成了第一个实验区组

请稍作休息


点击空格键进入下一个区组。",1.5,0,1.5,right,LLRLL.png,,,,,0,0,0,0,1,21,45,19,,,,,,,,,,,,,,,,,,,,,,,,,,,,,,,,,,,,,,,,,,,,,,,,,,,,,,,,,,,,,,,,,,,,,,307.19075409998186,307.59135250002146,307.57476940000197,307.67692180001177,308.0769030000083,None,right,1,0.4883612999692559,308.0769030000083,None,307.57476940000197,307.67692180001177,307.67692180001177,None,308.5930890000309,None,,,,,,,11012,001,2024_Jan_02_1127,ANT,2021.2.3,59.946827164187454,
1,4,no,up,IC,R,,,,,,Block.xlsx,"你已经完成了第一个实验区组

请稍作休息


点击空格键进入下一个区组。",50,0,1.5,right,LLRLL.png,,,,,0,0,0,0,1,22,46,3,,,,,,,,,,,,,,,,,,,,,,,,,,,,,,,,,,,,,,,,,,,,,,,,,,,,,,,,,,,,,,,,,,,,,,308.9932021999848,309.3944918999914,309.3783026000019,309.47940890002064,309.87886340002296,None,right,1,0.5188028999837115,309.87886340002296,None,309.3783026000019,309.47940890002064,309.47940890002064,None,310.4121518000029,None,,,,,,,11012,001,2024_Jan_02_1127,ANT,2021.2.3,59.946827164187454,
1,7,no,down,IC,L,,,,,,Block.xlsx,"你已经完成了第一个实验区组

请稍作休息


点击空格键进入下一个区组。",50,0,-1.5,left,RRLRR.png,,,,,0,0,0,0,1,23,47,6,,,,,,,,,,,,,,,,,,,,,,,,,,,,,,,,,,,,,,,,,,,,,,,,,,,,,,,,,,,,,,,,,,,,,,310.8126943000243,311.2148613000172,311.196522800019,311.2974461999838,311.6980964000104,None,left,1,0.6274115999694914,311.6980964000104,None,311.196522800019,311.2974461999838,311.2974461999838,None,312.34847660001833,None,,,,,,,11012,001,2024_Jan_02_1127,ANT,2021.2.3,59.946827164187454,
1,7,no,down,IC,L,,,,,,Block.xlsx,"你已经完成了第一个实验区组

请稍作休息


点击空格键进入下一个区组。",50,0,-1.5,left,RRLRR.png,,,,,0,0,0,0,2,0,48,6,,,,,,,,,,,,,,,,,,,,,,,,,,,,,,,,,,,,,,,,,,,,,,,,,,,,,,,,,,,,,,,,,,,,,,312.7492160000256,313.151501299988,313.13326770003187,313.23289879999356,313.63378600002034,None,left,1,0.5560194000136107,313.63378600002034,None,313.13326770003187,313.23289879999356,313.23289879999356,None,314.21783610002603,None,,,,,,,11012,001,2024_Jan_02_1127,ANT,2021.2.3,59.946827164187454,
1,11,center,up,IC,L,,,,,,Block.xlsx,"你已经完成了第一个实验区组

请稍作休息


点击空格键进入下一个区组。",0,50,1.5,left,RRLRR.png,,,,,0,0,0,0,2,1,49,10,,,,,,,,,,,,,,,,,,,,,,,,,,,,,,,,,,,,,,,,,,,,,,,,,,,,,,,,,,,,,,,,,,,,,,314.61906060000183,315.0189500999986,315.0037560000201,315.1032504999894,315.5036886000307,None,left,1,0.4138645999482833,315.5036886000307,None,315.0037560000201,315.1032504999894,315.1032504999894,None,315.93694650003454,None,,,,,,,11012,001,2024_Jan_02_1127,ANT,2021.2.3,59.946827164187454,
1,19,spatial,up,IC,L,,,,,,Block.xlsx,"你已经完成了第一个实验区组

请稍作休息


点击空格键进入下一个区组。",1.5,0,1.5,left,RRLRR.png,,,,,0,0,0,0,2,2,50,18,,,,,,,,,,,,,,,,,,,,,,,,,,,,,,,,,,,,,,,,,,,,,,,,,,,,,,,,,,,,,,,,,,,,,,316.3375728999963,316.73806529998546,316.72254590003286,316.82345999998506,317.22216170001775,None,left,1,0.4157559999730438,317.22216170001775,None,316.72254590003286,316.82345999998506,316.82345999998506,None,317.65740379999625,None,,,,,,,11012,001,2024_Jan_02_1127,ANT,2021.2.3,59.946827164187454,
1,16,center,down,IC,R,,,,,,Block.xlsx,"你已经完成了第一个实验区组

请稍作休息


点击空格键进入下一个区组。",0,50,-1.5,right,LLRLL.png,,,,,0,0,0,0,2,3,51,15,,,,,,,,,,,,,,,,,,,,,,,,,,,,,,,,,,,,,,,,,,,,,,,,,,,,,,,,,,,,,,,,,,,,,,318.05694320000475,318.4577350000036,318.44140589999733,318.5414444000344,318.9414701000205,None,right,1,0.5756523000309244,318.9414701000205,None,318.44140589999733,318.5414444000344,318.5414444000344,None,319.5422819000087,None,,,,,,,11012,001,2024_Jan_02_1127,ANT,2021.2.3,59.946827164187454,
1,11,center,up,IC,L,,,,,,Block.xlsx,"你已经完成了第一个实验区组

请稍作休息


点击空格键进入下一个区组。",0,50,1.5,left,RRLRR.png,,,,,0,0,0,0,2,4,52,10,,,,,,,,,,,,,,,,,,,,,,,,,,,,,,,,,,,,,,,,,,,,,,,,,,,,,,,,,,,,,,,,,,,,,,319.9437237000093,320.344358500035,320.32793420000235,320.42755309998756,320.8283891000319,None,left,1,0.5129642999963835,320.8283891000319,None,320.32793420000235,320.42755309998756,320.42755309998756,None,321.3616504999809,None,,,,,,,11012,001,2024_Jan_02_1127,ANT,2021.2.3,59.946827164187454,
1,15,center,down,IC,L,,,,,,Block.xlsx,"你已经完成了第一个实验区组

请稍作休息


点击空格键进入下一个区组。",0,50,-1.5,left,RRLRR.png,,,,,0,0,0,0,2,5,53,14,,,,,,,,,,,,,,,,,,,,,,,,,,,,,,,,,,,,,,,,,,,,,,,,,,,,,,,,,,,,,,,,,,,,,,321.76227700000163,322.16363140003523,322.1470371999894,322.24687390000327,322.64744570001494,None,left,1,0.6221790999989025,322.64744570001494,None,322.1470371999894,322.24687390000327,322.24687390000327,None,323.2979001000058,None,,,,,,,11012,001,2024_Jan_02_1127,ANT,2021.2.3,59.946827164187454,
1,1,no,up,C,L,,,,,,Block.xlsx,"你已经完成了第一个实验区组

请稍作休息


点击空格键进入下一个区组。",50,0,1.5,left,LLLLL.png,,,,,0,0,0,0,2,6,54,0,,,,,,,,,,,,,,,,,,,,,,,,,,,,,,,,,,,,,,,,,,,,,,,,,,,,,,,,,,,,,,,,,,,,,,323.6985712000169,324.09980590001214,324.08383140002843,324.1828254000284,324.5847934000194,None,left,1,0.4288916999939829,324.5847934000194,None,324.08383140002843,324.1828254000284,324.1828254000284,None,325.03420809999807,None,,,,,,,11012,001,2024_Jan_02_1127,ANT,2021.2.3,59.946827164187454,
1,12,center,up,IC,R,,,,,,Block.xlsx,"你已经完成了第一个实验区组

请稍作休息


点击空格键进入下一个区组。",0,50,1.5,right,LLRLL.png,,,,,0,0,0,0,2,7,55,11,,,,,,,,,,,,,,,,,,,,,,,,,,,,,,,,,,,,,,,,,,,,,,,,,,,,,,,,,,,,,,,,,,,,,,325.4350771000027,325.83569630002603,325.8192514000111,325.9200347000151,326.32116900000256,None,right,1,0.4759972000028938,326.32116900000256,None,325.8192514000111,325.9200347000151,325.9200347000151,None,326.8196312999935,None,,,,,,,11012,001,2024_Jan_02_1127,ANT,2021.2.3,59.946827164187454,
1,8,no,down,IC,R,,,,,,Block.xlsx,"你已经完成了第一个实验区组

请稍作休息


点击空格键进入下一个区组。",50,0,-1.5,right,LLRLL.png,,,,,0,0,0,0,2,8,56,7,,,,,,,,,,,,,,,,,,,,,,,,,,,,,,,,,,,,,,,,,,,,,,,,,,,,,,,,,,,,,,,,,,,,,,327.22182199999224,327.6218625000329,327.6061753000249,327.70493260002695,328.105415900005,None,right,1,0.6197460999828763,328.105415900005,None,327.6061753000249,327.70493260002695,327.70493260002695,None,328.7560262000188,None,,,,,,,11012,001,2024_Jan_02_1127,ANT,2021.2.3,59.946827164187454,
1,13,center,down,C,L,,,,,,Block.xlsx,"你已经完成了第一个实验区组

请稍作休息


点击空格键进入下一个区组。",0,50,-1.5,left,LLLLL.png,,,,,0,0,0,0,2,9,57,12,,,,,,,,,,,,,,,,,,,,,,,,,,,,,,,,,,,,,,,,,,,,,,,,,,,,,,,,,,,,,,,,,,,,,,329.15688630001387,329.5592814999982,329.5412536000367,329.64320960000623,330.0420480000321,None,left,1,0.45907509996322915,330.0420480000321,None,329.5412536000367,329.64320960000623,329.64320960000623,None,330.52521789999446,None,,,,,,,11012,001,2024_Jan_02_1127,ANT,2021.2.3,59.946827164187454,
1,24,spatial,down,IC,R,,,,,,Block.xlsx,"你已经完成了第一个实验区组

请稍作休息


点击空格键进入下一个区组。",-1.5,0,-1.5,right,LLRLL.png,,,,,0,0,0,0,2,10,58,23,,,,,,,,,,,,,,,,,,,,,,,,,,,,,,,,,,,,,,,,,,,,,,,,,,,,,,,,,,,,,,,,,,,,,,330.92610839998815,331.32722660002764,331.31069730001036,331.40996650001034,331.81088720000116,None,right,1,0.4423155999975279,331.81088720000116,None,331.31069730001036,331.40996650001034,331.40996650001034,None,332.2782791000209,None,,,,,,,11012,001,2024_Jan_02_1127,ANT,2021.2.3,59.946827164187454,
1,15,center,down,IC,L,,,,,,Block.xlsx,"你已经完成了第一个实验区组

请稍作休息


点击空格键进入下一个区组。",0,50,-1.5,left,RRLRR.png,,,,,0,0,0,0,2,11,59,14,,,,,,,,,,,,,,,,,,,,,,,,,,,,,,,,,,,,,,,,,,,,,,,,,,,,,,,,,,,,,,,,,,,,,,332.6796866999939,333.0802380000241,333.06273090001196,333.1630703000119,333.5641493999865,None,left,1,0.5851377000217326,333.5641493999865,None,333.06273090001196,333.1630703000119,333.1630703000119,None,334.1639384999871,None,,,,,,,11012,001,2024_Jan_02_1127,ANT,2021.2.3,59.946827164187454,
1,20,spatial,up,IC,R,,,,,,Block.xlsx,"你已经完成了第一个实验区组

请稍作休息


点击空格键进入下一个区组。",1.5,0,1.5,right,LLRLL.png,,,,,0,0,0,0,2,12,60,19,,,,,,,,,,,,,,,,,,,,,,,,,,,,,,,,,,,,,,,,,,,,,,,,,,,,,,,,,,,,,,,,,,,,,,334.565395099984,334.96599060000153,334.9491758000222,335.0498217000277,335.45058599999174,None,right,1,0.5317686999915168,335.45058599999174,None,334.9491758000222,335.0498217000277,335.0498217000277,None,335.99993310001446,None,,,,,,,11012,001,2024_Jan_02_1127,ANT,2021.2.3,59.946827164187454,
1,8,no,down,IC,R,,,,,,Block.xlsx,"你已经完成了第一个实验区组

请稍作休息


点击空格键进入下一个区组。",50,0,-1.5,right,LLRLL.png,,,,,0,0,0,0,2,13,61,7,,,,,,,,,,,,,,,,,,,,,,,,,,,,,,,,,,,,,,,,,,,,,,,,,,,,,,,,,,,,,,,,,,,,,,336.40104269998847,336.8011702999938,336.7845667999936,336.8863001000136,337.28533230000176,None,right,1,0.6487148000160232,337.28533230000176,None,336.7845667999936,336.8863001000136,336.8863001000136,None,337.9527309000259,None,,,,,,,11012,001,2024_Jan_02_1127,ANT,2021.2.3,59.946827164187454,
1,5,no,down,C,L,,,,,,Block.xlsx,"你已经完成了第一个实验区组

请稍作休息


点击空格键进入下一个区组。",50,0,-1.5,left,LLLLL.png,,,,,0,0,0,0,2,14,62,4,,,,,,,,,,,,,,,,,,,,,,,,,,,,,,,,,,,,,,,,,,,,,,,,,,,,,,,,,,,,,,,,,,,,,,338.35397470003227,338.75537750002695,338.73805970000103,338.8393820000347,339.2390243000118,None,left,1,0.5421667000046,339.2390243000118,None,338.73805970000103,338.8393820000347,338.8393820000347,None,339.8064211999881,None,,,,,,,11012,001,2024_Jan_02_1127,ANT,2021.2.3,59.946827164187454,
1,4,no,up,IC,R,,,,,,Block.xlsx,"你已经完成了第一个实验区组

请稍作休息


点击空格键进入下一个区组。",50,0,1.5,right,LLRLL.png,,,,,0,0,0,0,2,15,63,3,,,,,,,,,,,,,,,,,,,,,,,,,,,,,,,,,,,,,,,,,,,,,,,,,,,,,,,,,,,,,,,,,,,,,,340.2061462000129,340.60852080001496,340.5908499000361,340.69059710000874,341.09152040001936,None,right,1,0.6341246000374667,341.09152040001936,None,340.5908499000361,340.69059710000874,340.69059710000874,None,341.74188699998194,None,,,,,,,11012,001,2024_Jan_02_1127,ANT,2021.2.3,59.946827164187454,
1,22,spatial,down,C,R,,,,,,Block.xlsx,"你已经完成了第一个实验区组

请稍作休息


点击空格键进入下一个区组。",-1.5,0,-1.5,right,RRRRR.png,,,,,0,0,0,0,2,16,64,21,,,,,,,,,,,,,,,,,,,,,,,,,,,,,,,,,,,,,,,,,,,,,,,,,,,,,,,,,,,,,,,,,,,,,,342.1435184000293,342.5448724000016,342.52652760001365,342.6270852999878,343.0280391999986,None,right,1,0.4251295999856666,343.0280391999986,None,342.52652760001365,342.6270852999878,342.6270852999878,None,343.47778770001605,None,,,,,,,11012,001,2024_Jan_02_1127,ANT,2021.2.3,59.946827164187454,
1,11,center,up,IC,L,,,,,,Block.xlsx,"你已经完成了第一个实验区组

请稍作休息


点击空格键进入下一个区组。",0,50,1.5,left,RRLRR.png,,,,,0,0,0,0,2,17,65,10,,,,,,,,,,,,,,,,,,,,,,,,,,,,,,,,,,,,,,,,,,,,,,,,,,,,,,,,,,,,,,,,,,,,,,343.87860260001617,344.27904649998527,344.26412740000524,344.36468260001857,344.7640825000126,None,left,1,0.6496239000116475,344.7640825000126,None,344.26412740000524,344.36468260001857,344.36468260001857,None,345.4314358999836,None,,,,,,,11012,001,2024_Jan_02_1127,ANT,2021.2.3,59.946827164187454,
1,5,no,down,C,L,,,,,,Block.xlsx,"你已经完成了第一个实验区组

请稍作休息


点击空格键进入下一个区组。",50,0,-1.5,left,LLLLL.png,,,,,0,0,0,0,2,18,66,4,,,,,,,,,,,,,,,,,,,,,,,,,,,,,,,,,,,,,,,,,,,,,,,,,,,,,,,,,,,,,,,,,,,,,,345.83160600002157,346.2328785000136,346.2158644000301,346.31595540000126,346.71724919998087,None,left,1,0.45617829996626824,346.71724919998087,None,346.2158644000301,346.31595540000126,346.31595540000126,None,347.1999411000288,None,,,,,,,11012,001,2024_Jan_02_1127,ANT,2021.2.3,59.946827164187454,
1,12,center,up,IC,R,,,,,,Block.xlsx,"你已经完成了第一个实验区组

请稍作休息


点击空格键进入下一个区组。",0,50,1.5,right,LLRLL.png,,,,,0,0,0,0,2,19,67,11,,,,,,,,,,,,,,,,,,,,,,,,,,,,,,,,,,,,,,,,,,,,,,,,,,,,,,,,,,,,,,,,,,,,,,347.60068630002206,348.0018435000093,347.9862210000283,348.0850247000344,348.4851023000083,None,right,1,0.4884159999783151,348.4851023000083,None,347.9862210000283,348.0850247000344,348.0850247000344,None,349.00263270002324,None,,,,,,,11012,001,2024_Jan_02_1127,ANT,2021.2.3,59.946827164187454,
1,10,center,up,C,R,,,,,,Block.xlsx,"你已经完成了第一个实验区组

请稍作休息


点击空格键进入下一个区组。",0,50,1.5,right,RRRRR.png,,,,,0,0,0,0,2,20,68,9,,,,,,,,,,,,,,,,,,,,,,,,,,,,,,,,,,,,,,,,,,,,,,,,,,,,,,,,,,,,,,,,,,,,,,349.403313399991,349.8056538000237,349.7877939000027,349.88750130002154,350.2889559000032,None,right,1,0.3967364000272937,350.2889559000032,None,349.7877939000027,349.88750130002154,349.88750130002154,None,350.70586839999305,None,,,,,,,11012,001,2024_Jan_02_1127,ANT,2021.2.3,59.946827164187454,
1,13,center,down,C,L,,,,,,Block.xlsx,"你已经完成了第一个实验区组

请稍作休息


点击空格键进入下一个区组。",0,50,-1.5,left,LLLLL.png,,,,,0,0,0,0,2,21,69,12,,,,,,,,,,,,,,,,,,,,,,,,,,,,,,,,,,,,,,,,,,,,,,,,,,,,,,,,,,,,,,,,,,,,,,351.10646159999305,351.50703149999026,351.4916489000316,351.59053210000275,351.9921085999813,None,left,1,0.5169992000446655,351.9921085999813,None,351.4916489000316,351.59053210000275,351.59053210000275,None,352.52455969998846,None,,,,,,,11012,001,2024_Jan_02_1127,ANT,2021.2.3,59.946827164187454,
1,15,center,down,IC,L,,,,,,Block.xlsx,"你已经完成了第一个实验区组

请稍作休息


点击空格键进入下一个区组。",0,50,-1.5,left,RRLRR.png,,,,,0,0,0,0,2,22,70,14,,,,,,,,,,,,,,,,,,,,,,,,,,,,,,,,,,,,,,,,,,,,,,,,,,,,,,,,,,,,,,,,,,,,,,352.9266932000173,353.32765859999927,353.30990049999673,353.4096235000179,353.81018400000175,None,left,1,0.5713552000233904,353.81018400000175,None,353.30990049999673,353.4096235000179,353.4096235000179,None,354.41101019998314,None,,,,,,,11012,001,2024_Jan_02_1127,ANT,2021.2.3,59.946827164187454,
1,23,spatial,down,IC,L,,,,,,Block.xlsx,"你已经完成了第一个实验区组

请稍作休息


点击空格键进入下一个区组。",-1.5,0,-1.5,left,RRLRR.png,,,,,0,0,0,0,2,23,71,22,,,,,,,,,,,,,,,,,,,,,,,,,,,,,,,,,,,,,,,,,,,,,,,,,,,,,,,,,,,,,,,,,,,,,,354.8119596000179,355.21418100001756,355.1958879000158,355.2958046999993,355.69786860002205,None,left,1,0.4355173999792896,355.69786860002205,None,355.1958879000158,355.2958046999993,355.2958046999993,None,356.1644443999976,None,,,,,,,11012,001,2024_Jan_02_1127,ANT,2021.2.3,59.946827164187454,
1,10,center,up,C,R,,,,,,Block.xlsx,"你已经完成了第一个实验区组

请稍作休息


点击空格键进入下一个区组。",0,50,1.5,right,RRRRR.png,,,,,0,0,0,0,3,0,72,9,,,,,,,,,,,,,,,,,,,,,,,,,,,,,,,,,,,,,,,,,,,,,,,,,,,,,,,,,,,,,,,,,,,,,,356.56391979998443,356.96473240002524,356.9492068000254,357.0479056999902,357.4496866000118,None,right,1,0.5484944999916479,357.4496866000118,None,356.9492068000254,357.0479056999902,357.0479056999902,None,358.0160816999851,None,,,,,,,11012,001,2024_Jan_02_1127,ANT,2021.2.3,59.946827164187454,
1,14,center,down,C,R,,,,,,Block.xlsx,"你已经完成了第一个实验区组

请稍作休息


点击空格键进入下一个区组。",0,50,-1.5,right,RRRRR.png,,,,,0,0,0,0,3,1,73,13,,,,,,,,,,,,,,,,,,,,,,,,,,,,,,,,,,,,,,,,,,,,,,,,,,,,,,,,,,,,,,,,,,,,,,358.41664389998186,358.8190816999995,358.8008179999888,358.9018874000176,359.3032719999901,None,right,1,0.6220631999894977,359.3032719999901,None,358.8008179999888,358.9018874000176,358.9018874000176,None,359.952219400031,None,,,,,,,11012,001,2024_Jan_02_1127,ANT,2021.2.3,59.946827164187454,
1,15,center,down,IC,L,,,,,,Block.xlsx,"你已经完成了第一个实验区组

请稍作休息


点击空格键进入下一个区组。",0,50,-1.5,left,RRLRR.png,,,,,0,0,0,0,3,2,74,14,,,,,,,,,,,,,,,,,,,,,,,,,,,,,,,,,,,,,,,,,,,,,,,,,,,,,,,,,,,,,,,,,,,,,,360.3534367000102,360.7546209000284,360.73737400001846,360.8388116999995,361.237461599987,None,left,1,0.5277589000179432,361.237461599987,None,360.73737400001846,360.8388116999995,360.8388116999995,None,361.78818810003577,None,,,,,,,11012,001,2024_Jan_02_1127,ANT,2021.2.3,59.946827164187454,
1,13,center,down,C,L,,,,,,Block.xlsx,"你已经完成了第一个实验区组

请稍作休息


点击空格键进入下一个区组。",0,50,-1.5,left,LLLLL.png,,,,,0,0,0,0,3,3,75,12,,,,,,,,,,,,,,,,,,,,,,,,,,,,,,,,,,,,,,,,,,,,,,,,,,,,,,,,,,,,,,,,,,,,,,362.18974659999367,362.59081460000016,362.5738143000053,362.6734463000321,363.0756398999947,None,left,1,0.5538796000182629,363.0756398999947,None,362.5738143000053,362.6734463000321,362.6734463000321,None,363.65772299998207,None,,,,,,,11012,001,2024_Jan_02_1127,ANT,2021.2.3,59.946827164187454,
1,21,spatial,down,C,L,,,,,,Block.xlsx,"你已经完成了第一个实验区组

请稍作休息


点击空格键进入下一个区组。",-1.5,0,-1.5,left,LLLLL.png,,,,,0,0,0,0,3,4,76,20,,,,,,,,,,,,,,,,,,,,,,,,,,,,,,,,,,,,,,,,,,,,,,,,,,,,,,,,,,,,,,,,,,,,,,364.0583251999924,364.45934750000015,364.4441557999817,364.56056800001534,364.94339810003294,None,left,1,0.42194550001295283,364.94339810003294,None,364.4441557999817,364.56056800001534,364.5424208000186,None,365.393576500006,None,,,,,,,11012,001,2024_Jan_02_1127,ANT,2021.2.3,59.946827164187454,
1,16,center,down,IC,R,,,,,,Block.xlsx,"你已经完成了第一个实验区组

请稍作休息


点击空格键进入下一个区组。",0,50,-1.5,right,LLRLL.png,,,,,0,0,0,0,3,5,77,15,,,,,,,,,,,,,,,,,,,,,,,,,,,,,,,,,,,,,,,,,,,,,,,,,,,,,,,,,,,,,,,,,,,,,,365.794921600027,366.19561900000554,366.179306200007,366.27826960000675,366.68098230002215,None,right,1,0.4445035999524407,366.68098230002215,None,366.179306200007,366.27826960000675,366.27826960000675,None,367.1462601000094,None,,,,,,,11012,001,2024_Jan_02_1127,ANT,2021.2.3,59.946827164187454,
1,16,center,down,IC,R,,,,,,Block.xlsx,"你已经完成了第一个实验区组

请稍作休息


点击空格键进入下一个区组。",0,50,-1.5,right,LLRLL.png,,,,,0,0,0,0,3,6,78,15,,,,,,,,,,,,,,,,,,,,,,,,,,,,,,,,,,,,,,,,,,,,,,,,,,,,,,,,,,,,,,,,,,,,,,367.5468227000092,367.94796770001994,367.9305535000167,368.03288190002786,368.43312400003197,None,right,1,0.4680826000403613,368.43312400003197,None,367.9305535000167,368.03288190002786,368.03288190002786,None,368.9322535999818,None,,,,,,,11012,001,2024_Jan_02_1127,ANT,2021.2.3,59.946827164187454,
1,6,no,down,C,R,,,,,,Block.xlsx,"你已经完成了第一个实验区组

请稍作休息


点击空格键进入下一个区组。",50,0,-1.5,right,RRRRR.png,,,,,0,0,0,0,3,7,79,5,,,,,,,,,,,,,,,,,,,,,,,,,,,,,,,,,,,,,,,,,,,,,,,,,,,,,,,,,,,,,,,,,,,,,,369.33299700001953,369.7333830000134,369.7165984000312,369.81767730001593,370.21803170000203,None,right,1,0.5004371000104584,370.21803170000203,None,369.7165984000312,369.81767730001593,369.81767730001593,None,370.7354148000013,None,,,,,,,11012,001,2024_Jan_02_1127,ANT,2021.2.3,59.946827164187454,
1,1,no,up,C,L,,,,,,Block.xlsx,"你已经完成了第一个实验区组

请稍作休息


点击空格键进入下一个区组。",50,0,1.5,left,LLLLL.png,,,,,0,0,0,0,3,8,80,0,,,,,,,,,,,,,,,,,,,,,,,,,,,,,,,,,,,,,,,,,,,,,,,,,,,,,,,,,,,,,,,,,,,,,,371.1360112000257,371.53737650002586,371.52009330003057,371.6193568999879,372.02070729999105,None,left,1,0.5444738999940455,372.02070729999105,None,371.52009330003057,371.6193568999879,371.6193568999879,None,372.58759120001923,None,,,,,,,11012,001,2024_Jan_02_1127,ANT,2021.2.3,59.946827164187454,
1,7,no,down,IC,L,,,,,,Block.xlsx,"你已经完成了第一个实验区组

请稍作休息


点击空格键进入下一个区组。",50,0,-1.5,left,RRLRR.png,,,,,0,0,0,0,3,9,81,6,,,,,,,,,,,,,,,,,,,,,,,,,,,,,,,,,,,,,,,,,,,,,,,,,,,,,,,,,,,,,,,,,,,,,,372.9890371999936,373.3900020000292,373.37193219998153,373.47223600000143,373.8731123000034,None,left,1,0.5567834000103176,373.8731123000034,None,373.37193219998153,373.47223600000143,373.47223600000143,None,374.45674130000407,None,,,,,,,11012,001,2024_Jan_02_1127,ANT,2021.2.3,59.946827164187454,
1,2,no,up,C,R,,,,,,Block.xlsx,"你已经完成了第一个实验区组

请稍作休息


点击空格键进入下一个区组。",50,0,1.5,right,RRRRR.png,,,,,0,0,0,0,3,10,82,1,,,,,,,,,,,,,,,,,,,,,,,,,,,,,,,,,,,,,,,,,,,,,,,,,,,,,,,,,,,,,,,,,,,,,,374.85768359998474,375.2605830000248,375.2426141999895,375.34185309999157,375.7422857999918,None,right,1,0.5915899000247009,375.7422857999918,None,375.2426141999895,375.34185309999157,375.34185309999157,None,376.359897700022,None,,,,,,,11012,001,2024_Jan_02_1127,ANT,2021.2.3,59.946827164187454,
1,14,center,down,C,R,,,,,,Block.xlsx,"你已经完成了第一个实验区组

请稍作休息


点击空格键进入下一个区组。",0,50,-1.5,right,RRRRR.png,,,,,0,0,0,0,3,11,83,13,,,,,,,,,,,,,,,,,,,,,,,,,,,,,,,,,,,,,,,,,,,,,,,,,,,,,,,,,,,,,,,,,,,,,,376.76118979998864,377.1619040000369,377.1461110000382,377.2454202999943,377.64567960001295,None,right,1,0.7596342999604531,377.64567960001295,None,377.1461110000382,377.2454202999943,377.2454202999943,None,378.4301253000158,None,,,,,,,11012,001,2024_Jan_02_1127,ANT,2021.2.3,59.946827164187454,
1,9,center,up,C,L,,,,,,Block.xlsx,"你已经完成了第一个实验区组

请稍作休息


点击空格键进入下一个区组。",0,50,1.5,left,LLLLL.png,,,,,0,0,0,0,3,12,84,8,,,,,,,,,,,,,,,,,,,,,,,,,,,,,,,,,,,,,,,,,,,,,,,,,,,,,,,,,,,,,,,,,,,,,,378.83022060000803,379.23139020003146,379.214732500026,379.3151145000011,379.7155397000024,None,left,1,0.42571380001027137,379.7155397000024,None,379.214732500026,379.3151145000011,379.3151145000011,None,380.16561760002514,None,,,,,,,11012,001,2024_Jan_02_1127,ANT,2021.2.3,59.946827164187454,
1,17,spatial,up,C,L,,,,,,Block.xlsx,"你已经完成了第一个实验区组

请稍作休息


点击空格键进入下一个区组。",1.5,0,1.5,left,LLLLL.png,,,,,0,0,0,0,3,13,85,16,,,,,,,,,,,,,,,,,,,,,,,,,,,,,,,,,,,,,,,,,,,,,,,,,,,,,,,,,,,,,,,,,,,,,,380.5663328000228,380.9683991000056,380.9507287000306,381.05140910000773,381.45144470001105,None,left,1,0.44191029999637976,381.45144470001105,None,380.9507287000306,381.05140910000773,381.05140910000773,None,381.9180479000206,None,,,,,,,11012,001,2024_Jan_02_1127,ANT,2021.2.3,59.946827164187454,
1,17,spatial,up,C,L,,,,,,Block.xlsx,"你已经完成了第一个实验区组

请稍作休息


点击空格键进入下一个区组。",1.5,0,1.5,left,LLLLL.png,,,,,0,0,0,0,3,14,86,16,,,,,,,,,,,,,,,,,,,,,,,,,,,,,,,,,,,,,,,,,,,,,,,,,,,,,,,,,,,,,,,,,,,,,,382.3189566000365,382.7201001000358,382.7035020000185,382.80316499999026,383.2052452000207,None,left,1,0.4723145999596454,383.2052452000207,None,382.7035020000185,382.80316499999026,382.80316499999026,None,383.70426349999616,None,,,,,,,11012,001,2024_Jan_02_1127,ANT,2021.2.3,59.946827164187454,
1,16,center,down,IC,R,,,,,,Block.xlsx,"你已经完成了第一个实验区组

请稍作休息


点击空格键进入下一个区组。",0,50,-1.5,right,LLRLL.png,,,,,0,0,0,0,3,15,87,15,,,,,,,,,,,,,,,,,,,,,,,,,,,,,,,,,,,,,,,,,,,,,,,,,,,,,,,,,,,,,,,,,,,,,,384.10484230000293,384.50748540001223,384.48930640000617,384.59151679999195,384.9910488000023,None,right,1,0.6943906999658793,384.9910488000023,None,384.48930640000617,384.59151679999195,384.59151679999195,None,385.7083685999969,None,,,,,,,11012,001,2024_Jan_02_1127,ANT,2021.2.3,59.946827164187454,
1,20,spatial,up,IC,R,,,,,,Block.xlsx,"你已经完成了第一个实验区组

请稍作休息


点击空格键进入下一个区组。",1.5,0,1.5,right,LLRLL.png,,,,,0,0,0,0,3,16,88,19,,,,,,,,,,,,,,,,,,,,,,,,,,,,,,,,,,,,,,,,,,,,,,,,,,,,,,,,,,,,,,,,,,,,,,386.1091430000379,386.5096425000229,386.4919114999939,386.59275280003203,386.99369760003174,None,right,1,0.5399236000375822,386.99369760003174,None,386.4919114999939,386.59275280003203,386.59275280003203,None,387.5599540999974,None,,,,,,,11012,001,2024_Jan_02_1127,ANT,2021.2.3,59.946827164187454,
1,3,no,up,IC,L,,,,,,Block.xlsx,"你已经完成了第一个实验区组

请稍作休息


点击空格键进入下一个区组。",50,0,1.5,left,RRLRR.png,,,,,0,0,0,0,3,17,89,2,,,,,,,,,,,,,,,,,,,,,,,,,,,,,,,,,,,,,,,,,,,,,,,,,,,,,,,,,,,,,,,,,,,,,,387.9609499000362,388.3619561000378,388.3460187999881,388.4611677000066,388.84560880000936,None,left,1,0.568320499965921,388.84560880000936,None,388.3460187999881,388.4611677000066,388.4462323000189,None,389.4295490999939,None,,,,,,,11012,001,2024_Jan_02_1127,ANT,2021.2.3,59.946827164187454,
1,18,spatial,up,C,R,,,,,,Block.xlsx,"你已经完成了第一个实验区组

请稍作休息


点击空格键进入下一个区组。",1.5,0,1.5,right,RRRRR.png,,,,,0,0,0,0,3,18,90,17,,,,,,,,,,,,,,,,,,,,,,,,,,,,,,,,,,,,,,,,,,,,,,,,,,,,,,,,,,,,,,,,,,,,,,389.830530599982,390.23092860000907,390.21455099998275,390.31452100002207,390.7147095000255,None,right,1,0.4510032000252977,390.7147095000255,None,390.21455099998275,390.31452100002207,390.31452100002207,None,391.1819837000221,None,,,,,,,11012,001,2024_Jan_02_1127,ANT,2021.2.3,59.946827164187454,
1,4,no,up,IC,R,,,,,,Block.xlsx,"你已经完成了第一个实验区组

请稍作休息


点击空格键进入下一个区组。",50,0,1.5,right,LLRLL.png,,,,,0,0,0,0,3,19,91,3,,,,,,,,,,,,,,,,,,,,,,,,,,,,,,,,,,,,,,,,,,,,,,,,,,,,,,,,,,,,,,,,,,,,,,391.58297290001065,391.9850390999927,391.9670768000069,392.0672166000004,392.4683432999882,None,right,1,0.5369764000060968,392.4683432999882,None,391.9670768000069,392.0672166000004,392.0672166000004,None,393.0345518999966,None,,,,,,,11012,001,2024_Jan_02_1127,ANT,2021.2.3,59.946827164187454,
1,2,no,up,C,R,,,,,,Block.xlsx,"你已经完成了第一个实验区组

请稍作休息


点击空格键进入下一个区组。",50,0,1.5,right,RRRRR.png,,,,,0,0,0,0,3,20,92,1,,,,,,,,,,,,,,,,,,,,,,,,,,,,,,,,,,,,,,,,,,,,,,,,,,,,,,,,,,,,,,,,,,,,,,393.43547150003724,393.83663030003663,393.81973410001956,393.919088500028,394.32151660003,None,right,1,0.4121068000094965,394.32151660003,None,393.81973410001956,393.919088500028,393.919088500028,None,394.7542506000027,None,,,,,,,11012,001,2024_Jan_02_1127,ANT,2021.2.3,59.946827164187454,
1,3,no,up,IC,L,,,,,,Block.xlsx,"你已经完成了第一个实验区组

请稍作休息


点击空格键进入下一个区组。",50,0,1.5,left,RRLRR.png,,,,,0,0,0,0,3,21,93,2,,,,,,,,,,,,,,,,,,,,,,,,,,,,,,,,,,,,,,,,,,,,,,,,,,,,,,,,,,,,,,,,,,,,,,395.15475079999305,395.5554014000227,395.5395522000035,395.6403473999817,396.03940850001527,None,left,1,0.502086499996949,396.03940850001527,None,395.5395522000035,395.6403473999817,395.6403473999817,None,396.5564359999844,None,,,,,,,11012,001,2024_Jan_02_1127,ANT,2021.2.3,59.946827164187454,
1,18,spatial,up,C,R,,,,,,Block.xlsx,"你已经完成了第一个实验区组

请稍作休息


点击空格键进入下一个区组。",1.5,0,1.5,right,RRRRR.png,,,,,0,0,0,0,3,22,94,17,,,,,,,,,,,,,,,,,,,,,,,,,,,,,,,,,,,,,,,,,,,,,,,,,,,,,,,,,,,,,,,,,,,,,,396.95701710000867,397.3578276000335,397.3422602000064,397.4412061999901,397.8418910999899,None,right,1,0.38748020003549755,397.8418910999899,None,397.3422602000064,397.4412061999901,397.4412061999901,None,398.2600389000145,None,,,,,,,11012,001,2024_Jan_02_1127,ANT,2021.2.3,59.946827164187454,
1,24,spatial,down,IC,R,,,,,,Block.xlsx,"你已经完成了第一个实验区组

请稍作休息


点击空格键进入下一个区组。",-1.5,0,-1.5,right,LLRLL.png,,,,,0,0,0,0,3,23,95,23,,,,,,,,,,,,,,,,,,,,,,,,,,,,,,,,,,,,,,,,,,,,,,,,,,,,,,,,,,,,,,,,,,,,,,398.65949709998677,399.0610143999802,399.04462519998197,399.14420410001185,399.5452510000323,None,right,1,0.45999329996993765,399.5452510000323,None,399.04462519998197,399.14420410001185,399.14420410001185,None,400.02844920003554,None,,,,,,,11012,001,2024_Jan_02_1127,ANT,2021.2.3,59.946827164187454,
,,,,,,,,,,,Block.xlsx,"你已经完成了第一个实验区组

请稍作休息


点击空格键进入下一个区组。",,,,,,,,,,0,0,0,0,,,,,,,,,,,,,,,,,,,,,,,,,,,,,,,,,,,,,,,,,,,,,,,,,,,,,,,,,,,,,,,,,,,,,,,,,,,,,,,,,,,,,,,,,,,space,14.000989899970591,400.42858240002533,None,400.42858240002533,None,11012,001,2024_Jan_02_1127,ANT,2021.2.3,59.946827164187454,
1,17,spatial,up,C,L,,,,,,Block.xlsx,"你已经完成了整个实验（三个区组）。

请报告实验者已完成实验

非常感谢，再见！",1.5,0,1.5,left,LLLLL.png,,,,,0,1,1,1,0,0,0,16,,,,,,,,,,,,,,,,,,,,,,,,,,,,,,,,,,,,,,,,,,,,,,,,,,,,,,,,,,,,,,,,,,,,,,414.4657099000178,414.86815659998683,414.85039630002575,414.9512634000275,415.351668599993,None,left,1,0.5016434999997728,415.351668599993,None,414.85039630002575,414.9512634000275,414.9512634000275,None,415.86844430002384,None,,,,,,,11012,001,2024_Jan_02_1127,ANT,2021.2.3,59.946827164187454,
1,3,no,up,IC,L,,,,,,Block.xlsx,"你已经完成了整个实验（三个区组）。

请报告实验者已完成实验

非常感谢，再见！",50,0,1.5,left,RRLRR.png,,,,,0,1,1,1,0,1,1,2,,,,,,,,,,,,,,,,,,,,,,,,,,,,,,,,,,,,,,,,,,,,,,,,,,,,,,,,,,,,,,,,,,,,,,416.26904210000066,416.6699534000363,416.6535709000309,416.75375430000713,417.1548751000082,None,left,1,0.4828392000054009,417.1548751000082,None,416.6535709000309,416.75375430000713,416.75375430000713,None,417.6543404000113,None,,,,,,,11012,001,2024_Jan_02_1127,ANT,2021.2.3,59.946827164187454,
1,22,spatial,down,C,R,,,,,,Block.xlsx,"你已经完成了整个实验（三个区组）。

请报告实验者已完成实验

非常感谢，再见！",-1.5,0,-1.5,right,RRRRR.png,,,,,0,1,1,1,0,2,2,21,,,,,,,,,,,,,,,,,,,,,,,,,,,,,,,,,,,,,,,,,,,,,,,,,,,,,,,,,,,,,,,,,,,,,,418.05504910001764,418.456357499992,418.43917949998286,418.5396941000363,418.9409719000105,None,right,1,0.47243159997742623,418.9409719000105,None,418.43917949998286,418.5396941000363,418.5396941000363,None,419.44036160001997,None,,,,,,,11012,001,2024_Jan_02_1127,ANT,2021.2.3,59.946827164187454,
1,18,spatial,up,C,R,,,,,,Block.xlsx,"你已经完成了整个实验（三个区组）。

请报告实验者已完成实验

非常感谢，再见！",1.5,0,1.5,right,RRRRR.png,,,,,0,1,1,1,0,3,3,17,,,,,,,,,,,,,,,,,,,,,,,,,,,,,,,,,,,,,,,,,,,,,,,,,,,,,,,,,,,,,,,,,,,,,,419.8409690000117,420.24329110002145,420.2253909999854,420.3249896999914,420.7262103999965,None,right,1,0.39121110003907233,420.7262103999965,None,420.2253909999854,420.3249896999914,420.3249896999914,None,421.1430619999883,None,,,,,,,11012,001,2024_Jan_02_1127,ANT,2021.2.3,59.946827164187454,
1,24,spatial,down,IC,R,,,,,,Block.xlsx,"你已经完成了整个实验（三个区组）。

请报告实验者已完成实验

非常感谢，再见！",-1.5,0,-1.5,right,LLRLL.png,,,,,0,1,1,1,0,4,4,23,,,,,,,,,,,,,,,,,,,,,,,,,,,,,,,,,,,,,,,,,,,,,,,,,,,,,,,,,,,,,,,,,,,,,,421.5435522000189,421.9455578000052,421.92920820001746,422.0288076000288,422.4287810000242,None,right,1,0.4890346999745816,422.4287810000242,None,421.92920820001746,422.0288076000288,422.0288076000288,None,422.9456338000018,None,,,,,,,11012,001,2024_Jan_02_1127,ANT,2021.2.3,59.946827164187454,
1,18,spatial,up,C,R,,,,,,Block.xlsx,"你已经完成了整个实验（三个区组）。

请报告实验者已完成实验

非常感谢，再见！",1.5,0,1.5,right,RRRRR.png,,,,,0,1,1,1,0,5,5,17,,,,,,,,,,,,,,,,,,,,,,,,,,,,,,,,,,,,,,,,,,,,,,,,,,,,,,,,,,,,,,,,,,,,,,423.3462917000288,423.7473057000316,423.7315776000032,423.84699540003203,424.2314691999927,None,right,1,0.4225212000310421,424.2314691999927,None,423.7315776000032,423.84699540003203,423.83169840002665,None,424.6814414000255,None,,,,,,,11012,001,2024_Jan_02_1127,ANT,2021.2.3,59.946827164187454,
1,1,no,up,C,L,,,,,,Block.xlsx,"你已经完成了整个实验（三个区组）。

请报告实验者已完成实验

非常感谢，再见！",50,0,1.5,left,LLLLL.png,,,,,0,1,1,1,0,6,6,0,,,,,,,,,,,,,,,,,,,,,,,,,,,,,,,,,,,,,,,,,,,,,,,,,,,,,,,,,,,,,,,,,,,,,,425.08199700003024,425.484020999982,425.4658913000021,425.5663569000317,425.9673882999923,None,left,1,0.5899133000057191,425.9673882999923,None,425.4658913000021,425.5663569000317,425.5663569000317,None,426.5844170000055,None,,,,,,,11012,001,2024_Jan_02_1127,ANT,2021.2.3,59.946827164187454,
1,7,no,down,IC,L,,,,,,Block.xlsx,"你已经完成了整个实验（三个区组）。

请报告实验者已完成实验

非常感谢，再见！",50,0,-1.5,left,RRLRR.png,,,,,0,1,1,1,0,7,7,6,,,,,,,,,,,,,,,,,,,,,,,,,,,,,,,,,,,,,,,,,,,,,,,,,,,,,,,,,,,,,,,,,,,,,,426.9847303000279,427.3873087000102,427.3694071000209,427.4698265999905,427.8698739000247,None,left,1,0.6874163000029512,427.8698739000247,None,427.3694071000209,427.4698265999905,427.4698265999905,None,428.58737409999594,None,,,,,,,11012,001,2024_Jan_02_1127,ANT,2021.2.3,59.946827164187454,
1,22,spatial,down,C,R,,,,,,Block.xlsx,"你已经完成了整个实验（三个区组）。

请报告实验者已完成实验

非常感谢，再见！",-1.5,0,-1.5,right,RRRRR.png,,,,,0,1,1,1,0,8,8,21,,,,,,,,,,,,,,,,,,,,,,,,,,,,,,,,,,,,,,,,,,,,,,,,,,,,,,,,,,,,,,,,,,,,,,428.98770930001047,429.38989940000465,429.37204520002706,429.4728092000005,429.87235210003564,None,right,1,0.5015145000070333,429.87235210003564,None,429.37204520002706,429.4728092000005,429.4728092000005,None,430.3898693000083,None,,,,,,,11012,001,2024_Jan_02_1127,ANT,2021.2.3,59.946827164187454,
1,6,no,down,C,R,,,,,,Block.xlsx,"你已经完成了整个实验（三个区组）。

请报告实验者已完成实验

非常感谢，再见！",50,0,-1.5,right,RRRRR.png,,,,,0,1,1,1,0,9,9,5,,,,,,,,,,,,,,,,,,,,,,,,,,,,,,,,,,,,,,,,,,,,,,,,,,,,,,,,,,,,,,,,,,,,,,430.79134170000907,431.19186920003267,431.1751823000377,431.27457010000944,431.6755043999874,None,right,1,0.40983580000465736,431.6755043999874,None,431.1751823000377,431.27457010000944,431.27457010000944,None,432.10911459999625,None,,,,,,,11012,001,2024_Jan_02_1127,ANT,2021.2.3,59.946827164187454,
1,13,center,down,C,L,,,,,,Block.xlsx,"你已经完成了整个实验（三个区组）。

请报告实验者已完成实验

非常感谢，再见！",0,50,-1.5,left,LLLLL.png,,,,,0,1,1,1,0,10,10,12,,,,,,,,,,,,,,,,,,,,,,,,,,,,,,,,,,,,,,,,,,,,,,,,,,,,,,,,,,,,,,,,,,,,,,432.5101880999864,432.9110926000285,432.8944921999937,432.9960213000304,433.39436370000476,None,left,1,0.49939090001862496,433.39436370000476,None,432.8944921999937,432.9960213000304,432.9960213000304,None,433.9117228999967,None,,,,,,,11012,001,2024_Jan_02_1127,ANT,2021.2.3,59.946827164187454,
1,9,center,up,C,L,,,,,,Block.xlsx,"你已经完成了整个实验（三个区组）。

请报告实验者已完成实验

非常感谢，再见！",0,50,1.5,left,LLLLL.png,,,,,0,1,1,1,0,11,11,8,,,,,,,,,,,,,,,,,,,,,,,,,,,,,,,,,,,,,,,,,,,,,,,,,,,,,,,,,,,,,,,,,,,,,,434.3123530999874,434.71310599998105,434.6970118000172,434.79704299999867,435.1971670000348,None,left,1,0.5361551999812946,435.1971670000348,None,434.6970118000172,434.79704299999867,434.79704299999867,None,435.7477333000279,None,,,,,,,11012,001,2024_Jan_02_1127,ANT,2021.2.3,59.946827164187454,
1,15,center,down,IC,L,,,,,,Block.xlsx,"你已经完成了整个实验（三个区组）。

请报告实验者已完成实验

非常感谢，再见！",0,50,-1.5,left,RRLRR.png,,,,,0,1,1,1,0,12,12,14,,,,,,,,,,,,,,,,,,,,,,,,,,,,,,,,,,,,,,,,,,,,,,,,,,,,,,,,,,,,,,,,,,,,,,436.14845730003435,436.5509085000376,436.532410099986,436.6345306999865,437.03480660001514,None,left,1,0.6186233999906108,437.03480660001514,None,436.532410099986,436.6345306999865,436.6345306999865,None,437.6850836999947,None,,,,,,,11012,001,2024_Jan_02_1127,ANT,2021.2.3,59.946827164187454,
1,4,no,up,IC,R,,,,,,Block.xlsx,"你已经完成了整个实验（三个区组）。

请报告实验者已完成实验

非常感谢，再见！",50,0,1.5,right,LLRLL.png,,,,,0,1,1,1,0,13,13,3,,,,,,,,,,,,,,,,,,,,,,,,,,,,,,,,,,,,,,,,,,,,,,,,,,,,,,,,,,,,,,,,,,,,,,438.08529730001464,438.4859139000182,438.46842099999776,438.56899599998724,438.97026889998233,None,right,1,0.6593482000171207,438.97026889998233,None,438.46842099999776,438.56899599998724,438.56899599998724,None,439.6536216000095,None,,,,,,,11012,001,2024_Jan_02_1127,ANT,2021.2.3,59.946827164187454,
1,5,no,down,C,L,,,,,,Block.xlsx,"你已经完成了整个实验（三个区组）。

请报告实验者已完成实验

非常感谢，再见！",50,0,-1.5,left,LLLLL.png,,,,,0,1,1,1,0,14,14,4,,,,,,,,,,,,,,,,,,,,,,,,,,,,,,,,,,,,,,,,,,,,,,,,,,,,,,,,,,,,,,,,,,,,,,440.0543178000371,440.4566217000247,440.43873009999515,440.54029730003094,440.9404108999879,None,left,1,0.6569615000043996,440.9404108999879,None,440.43873009999515,440.54029730003094,440.54029730003094,None,441.62357250001514,None,,,,,,,11012,001,2024_Jan_02_1127,ANT,2021.2.3,59.946827164187454,
1,16,center,down,IC,R,,,,,,Block.xlsx,"你已经完成了整个实验（三个区组）。

请报告实验者已完成实验

非常感谢，再见！",0,50,-1.5,right,LLRLL.png,,,,,0,1,1,1,0,15,15,15,,,,,,,,,,,,,,,,,,,,,,,,,,,,,,,,,,,,,,,,,,,,,,,,,,,,,,,,,,,,,,,,,,,,,,442.0238473000354,442.4256794999819,442.4076773999841,442.51010439998936,442.9102179000038,None,right,1,0.5431987000047229,442.9102179000038,None,442.4076773999841,442.51010439998936,442.51010439998936,None,443.476033199986,None,,,,,,,11012,001,2024_Jan_02_1127,ANT,2021.2.3,59.946827164187454,
1,2,no,up,C,R,,,,,,Block.xlsx,"你已经完成了整个实验（三个区组）。

请报告实验者已完成实验

非常感谢，再见！",50,0,1.5,right,RRRRR.png,,,,,0,1,1,1,0,16,16,1,,,,,,,,,,,,,,,,,,,,,,,,,,,,,,,,,,,,,,,,,,,,,,,,,,,,,,,,,,,,,,,,,,,,,,443.8770695999847,444.2778527000337,444.2600148000056,444.3614314000006,444.76180690003093,None,right,1,0.5159364000428468,444.76180690003093,None,444.2600148000056,444.3614314000006,444.3614314000006,None,445.2955387000111,None,,,,,,,11012,001,2024_Jan_02_1127,ANT,2021.2.3,59.946827164187454,
1,23,spatial,down,IC,L,,,,,,Block.xlsx,"你已经完成了整个实验（三个区组）。

请报告实验者已完成实验

非常感谢，再见！",-1.5,0,-1.5,left,RRLRR.png,,,,,0,1,1,1,0,17,17,22,,,,,,,,,,,,,,,,,,,,,,,,,,,,,,,,,,,,,,,,,,,,,,,,,,,,,,,,,,,,,,,,,,,,,,445.69660940003814,446.09863279998535,446.0799553000252,446.1822134000249,446.5821026000194,None,left,1,0.6232419000007212,446.5821026000194,None,446.0799553000252,446.1822134000249,446.1822134000249,None,447.23192960000597,None,,,,,,,11012,001,2024_Jan_02_1127,ANT,2021.2.3,59.946827164187454,
1,2,no,up,C,R,,,,,,Block.xlsx,"你已经完成了整个实验（三个区组）。

请报告实验者已完成实验

非常感谢，再见！",50,0,1.5,right,RRRRR.png,,,,,0,1,1,1,0,18,18,1,,,,,,,,,,,,,,,,,,,,,,,,,,,,,,,,,,,,,,,,,,,,,,,,,,,,,,,,,,,,,,,,,,,,,,447.63270030001877,448.03397300001234,448.0166537000332,448.1165581999812,448.51679720001994,None,right,1,0.6726904000388458,448.51679720001994,None,448.0166537000332,448.1165581999812,448.1165581999812,None,449.21820940001635,None,,,,,,,11012,001,2024_Jan_02_1127,ANT,2021.2.3,59.946827164187454,
1,5,no,down,C,L,,,,,,Block.xlsx,"你已经完成了整个实验（三个区组）。

请报告实验者已完成实验

非常感谢，再见！",50,0,-1.5,left,LLLLL.png,,,,,0,1,1,1,0,19,19,4,,,,,,,,,,,,,,,,,,,,,,,,,,,,,,,,,,,,,,,,,,,,,,,,,,,,,,,,,,,,,,,,,,,,,,449.6187259000144,450.0196525999927,450.00317440001527,450.10313519998454,450.5030677000177,None,left,1,0.662781500024721,450.5030677000177,None,450.00317440001527,450.10313519998454,450.10313519998454,None,451.1873593000346,None,,,,,,,11012,001,2024_Jan_02_1127,ANT,2021.2.3,59.946827164187454,
1,17,spatial,up,C,L,,,,,,Block.xlsx,"你已经完成了整个实验（三个区组）。

请报告实验者已完成实验

非常感谢，再见！",1.5,0,1.5,left,LLLLL.png,,,,,0,1,1,1,0,20,20,16,,,,,,,,,,,,,,,,,,,,,,,,,,,,,,,,,,,,,,,,,,,,,,,,,,,,,,,,,,,,,,,,,,,,,,451.5880090999999,451.99058510002214,451.9719980999944,452.07313889998477,452.4728555000038,None,left,1,0.4691023999475874,452.4728555000038,None,451.9719980999944,452.07313889998477,452.07313889998477,None,452.95733559998916,None,,,,,,,11012,001,2024_Jan_02_1127,ANT,2021.2.3,59.946827164187454,
1,22,spatial,down,C,R,,,,,,Block.xlsx,"你已经完成了整个实验（三个区组）。

请报告实验者已完成实验

非常感谢，再见！",-1.5,0,-1.5,right,RRRRR.png,,,,,0,1,1,1,0,21,21,21,,,,,,,,,,,,,,,,,,,,,,,,,,,,,,,,,,,,,,,,,,,,,,,,,,,,,,,,,,,,,,,,,,,,,,453.3573438000167,453.7590313000255,453.7419885999989,453.8415037000086,454.2432988000219,None,right,1,0.378337099973578,454.2432988000219,None,453.7419885999989,453.8415037000086,453.8415037000086,None,454.6427257999894,None,,,,,,,11012,001,2024_Jan_02_1127,ANT,2021.2.3,59.946827164187454,
1,20,spatial,up,IC,R,,,,,,Block.xlsx,"你已经完成了整个实验（三个区组）。

请报告实验者已完成实验

非常感谢，再见！",1.5,0,1.5,right,LLRLL.png,,,,,0,1,1,1,0,22,22,19,,,,,,,,,,,,,,,,,,,,,,,,,,,,,,,,,,,,,,,,,,,,,,,,,,,,,,,,,,,,,,,,,,,,,,455.04329880001023,455.44435559998965,455.42791540001053,455.5283768000081,455.93018209998263,None,right,1,0.435144399991259,455.93018209998263,None,455.42791540001053,455.5283768000081,455.5283768000081,None,456.3953174999915,None,,,,,,,11012,001,2024_Jan_02_1127,ANT,2021.2.3,59.946827164187454,
1,4,no,up,IC,R,,,,,,Block.xlsx,"你已经完成了整个实验（三个区组）。

请报告实验者已完成实验

非常感谢，再见！",50,0,1.5,right,LLRLL.png,,,,,0,1,1,1,0,23,23,3,,,,,,,,,,,,,,,,,,,,,,,,,,,,,,,,,,,,,,,,,,,,,,,,,,,,,,,,,,,,,,,,,,,,,,456.7966604999965,457.1973945000209,457.1803605000023,457.28035389998695,457.6828375000041,None,right,1,0.4669167000101879,457.6828375000041,None,457.1803605000023,457.28035389998695,457.28035389998695,None,458.16441189998295,None,,,,,,,11012,001,2024_Jan_02_1127,ANT,2021.2.3,59.946827164187454,
1,18,spatial,up,C,R,,,,,,Block.xlsx,"你已经完成了整个实验（三个区组）。

请报告实验者已完成实验

非常感谢，再见！",1.5,0,1.5,right,RRRRR.png,,,,,0,1,1,1,1,0,24,17,,,,,,,,,,,,,,,,,,,,,,,,,,,,,,,,,,,,,,,,,,,,,,,,,,,,,,,,,,,,,,,,,,,,,,458.56507780001266,458.96731680002995,458.9490486999857,459.0516823999933,459.4503528000205,None,right,1,0.427406599977985,459.4503528000205,None,458.9490486999857,459.0516823999933,459.0516823999933,None,459.90061330003664,None,,,,,,,11012,001,2024_Jan_02_1127,ANT,2021.2.3,59.946827164187454,
1,23,spatial,down,IC,L,,,,,,Block.xlsx,"你已经完成了整个实验（三个区组）。

请报告实验者已完成实验

非常感谢，再见！",-1.5,0,-1.5,left,RRLRR.png,,,,,0,1,1,1,1,1,25,22,,,,,,,,,,,,,,,,,,,,,,,,,,,,,,,,,,,,,,,,,,,,,,,,,,,,,,,,,,,,,,,,,,,,,,460.30079509998905,460.70340900000883,460.68561809998937,460.7862469999818,461.18593119998695,None,left,1,0.5874646999873221,461.18593119998695,None,460.68561809998937,460.7862469999818,460.7862469999818,None,461.8040471000131,None,,,,,,,11012,001,2024_Jan_02_1127,ANT,2021.2.3,59.946827164187454,
1,9,center,up,C,L,,,,,,Block.xlsx,"你已经完成了整个实验（三个区组）。

请报告实验者已完成实验

非常感谢，再见！",0,50,1.5,left,LLLLL.png,,,,,0,1,1,1,1,2,26,8,,,,,,,,,,,,,,,,,,,,,,,,,,,,,,,,,,,,,,,,,,,,,,,,,,,,,,,,,,,,,,,,,,,,,,462.2038539000205,462.6053334000171,462.5877552999882,462.6886407000129,463.08963150001364,None,left,1,0.44371749996207654,463.08963150001364,None,462.5877552999882,462.6886407000129,462.6886407000129,None,463.55576130002737,None,,,,,,,11012,001,2024_Jan_02_1127,ANT,2021.2.3,59.946827164187454,
1,22,spatial,down,C,R,,,,,,Block.xlsx,"你已经完成了整个实验（三个区组）。

请报告实验者已完成实验

非常感谢，再见！",-1.5,0,-1.5,right,RRRRR.png,,,,,0,1,1,1,1,3,27,21,,,,,,,,,,,,,,,,,,,,,,,,,,,,,,,,,,,,,,,,,,,,,,,,,,,,,,,,,,,,,,,,,,,,,,463.95671240001684,464.3566834999947,464.3414342000033,464.4411912999931,464.8410586999962,None,right,1,0.36483330000191927,464.8410586999962,None,464.3414342000033,464.4411912999931,464.4411912999931,None,465.225106900034,None,,,,,,,11012,001,2024_Jan_02_1127,ANT,2021.2.3,59.946827164187454,
1,2,no,up,C,R,,,,,,Block.xlsx,"你已经完成了整个实验（三个区组）。

请报告实验者已完成实验

非常感谢，再见！",50,0,1.5,right,RRRRR.png,,,,,0,1,1,1,1,4,28,1,,,,,,,,,,,,,,,,,,,,,,,,,,,,,,,,,,,,,,,,,,,,,,,,,,,,,,,,,,,,,,,,,,,,,,465.62629460002063,466.0281786000123,466.01028290000977,466.11014330002945,466.51082209998276,None,right,1,0.37461360002635047,466.51082209998276,None,466.01028290000977,466.11014330002945,466.11014330002945,None,466.9106615000055,None,,,,,,,11012,001,2024_Jan_02_1127,ANT,2021.2.3,59.946827164187454,
1,10,center,up,C,R,,,,,,Block.xlsx,"你已经完成了整个实验（三个区组）。

请报告实验者已完成实验

非常感谢，再见！",0,50,1.5,right,RRRRR.png,,,,,0,1,1,1,1,5,29,9,,,,,,,,,,,,,,,,,,,,,,,,,,,,,,,,,,,,,,,,,,,,,,,,,,,,,,,,,,,,,,,,,,,,,,467.3113699000096,467.71247939998284,467.69585030002054,467.7960390000371,468.19573670002865,None,right,1,0.4028470999910496,468.19573670002865,None,467.69585030002054,467.7960390000371,467.7960390000371,None,468.61351290001767,None,,,,,,,11012,001,2024_Jan_02_1127,ANT,2021.2.3,59.946827164187454,
1,17,spatial,up,C,L,,,,,,Block.xlsx,"你已经完成了整个实验（三个区组）。

请报告实验者已完成实验

非常感谢，再见！",1.5,0,1.5,left,LLLLL.png,,,,,0,1,1,1,1,6,30,16,,,,,,,,,,,,,,,,,,,,,,,,,,,,,,,,,,,,,,,,,,,,,,,,,,,,,,,,,,,,,,,,,,,,,,469.0147096000146,469.4164694999927,469.3985055999947,469.4986634000088,469.8997201999882,None,left,1,0.4416354999993928,469.8997201999882,None,469.3985055999947,469.4986634000088,469.4986634000088,None,470.3666320000193,None,,,,,,,11012,001,2024_Jan_02_1127,ANT,2021.2.3,59.946827164187454,
1,9,center,up,C,L,,,,,,Block.xlsx,"你已经完成了整个实验（三个区组）。

请报告实验者已完成实验

非常感谢，再见！",0,50,1.5,left,LLLLL.png,,,,,0,1,1,1,1,7,31,8,,,,,,,,,,,,,,,,,,,,,,,,,,,,,,,,,,,,,,,,,,,,,,,,,,,,,,,,,,,,,,,,,,,,,,470.76759280002443,471.16715310001746,471.15091229998507,471.2513963999809,471.65356970002176,None,left,1,0.5997339999885298,471.65356970002176,None,471.15091229998507,471.2513963999809,471.2513963999809,None,472.2685615000082,None,,,,,,,11012,001,2024_Jan_02_1127,ANT,2021.2.3,59.946827164187454,
1,24,spatial,down,IC,R,,,,,,Block.xlsx,"你已经完成了整个实验（三个区组）。

请报告实验者已完成实验

非常感谢，再见！",-1.5,0,-1.5,right,LLRLL.png,,,,,0,1,1,1,1,8,32,23,,,,,,,,,,,,,,,,,,,,,,,,,,,,,,,,,,,,,,,,,,,,,,,,,,,,,,,,,,,,,,,,,,,,,,472.66997809999157,473.06992949999403,473.05493990000105,473.17039809998823,473.55572800000664,None,right,1,0.410065800009761,473.55572800000664,None,473.05493990000105,473.17039809998823,473.15493499999866,None,473.9881477000308,None,,,,,,,11012,001,2024_Jan_02_1127,ANT,2021.2.3,59.946827164187454,
1,6,no,down,C,R,,,,,,Block.xlsx,"你已经完成了整个实验（三个区组）。

请报告实验者已完成实验

非常感谢，再见！",50,0,-1.5,right,RRRRR.png,,,,,0,1,1,1,1,9,33,5,,,,,,,,,,,,,,,,,,,,,,,,,,,,,,,,,,,,,,,,,,,,,,,,,,,,,,,,,,,,,,,,,,,,,,474.38865179999266,474.7903628000058,474.77284719998715,474.873035800003,475.2738761000219,None,right,1,0.38767189998179674,475.2738761000219,None,474.77284719998715,474.873035800003,474.873035800003,None,475.69128010002896,None,,,,,,,11012,001,2024_Jan_02_1127,ANT,2021.2.3,59.946827164187454,
1,5,no,down,C,L,,,,,,Block.xlsx,"你已经完成了整个实验（三个区组）。

请报告实验者已完成实验

非常感谢，再见！",50,0,-1.5,left,LLLLL.png,,,,,0,1,1,1,1,10,34,4,,,,,,,,,,,,,,,,,,,,,,,,,,,,,,,,,,,,,,,,,,,,,,,,,,,,,,,,,,,,,,,,,,,,,,476.09172690002015,476.4932857999811,476.47581929998705,476.57591479999246,476.9761540000327,None,left,1,0.4773144999635406,476.9761540000327,None,476.47581929998705,476.57591479999246,476.57591479999246,None,477.4763737000176,None,,,,,,,11012,001,2024_Jan_02_1127,ANT,2021.2.3,59.946827164187454,
1,2,no,up,C,R,,,,,,Block.xlsx,"你已经完成了整个实验（三个区组）。

请报告实验者已完成实验

非常感谢，再见！",50,0,1.5,right,RRRRR.png,,,,,0,1,1,1,1,11,35,1,,,,,,,,,,,,,,,,,,,,,,,,,,,,,,,,,,,,,,,,,,,,,,,,,,,,,,,,,,,,,,,,,,,,,,477.87766290002037,478.278652900015,478.2608637000085,478.36248190002516,478.7629754000227,None,right,1,0.5463812999660149,478.7629754000227,None,478.2608637000085,478.36248190002516,478.36248190002516,None,479.3290665000095,None,,,,,,,11012,001,2024_Jan_02_1127,ANT,2021.2.3,59.946827164187454,
1,23,spatial,down,IC,L,,,,,,Block.xlsx,"你已经完成了整个实验（三个区组）。

请报告实验者已完成实验

非常感谢，再见！",-1.5,0,-1.5,left,RRLRR.png,,,,,0,1,1,1,1,12,36,22,,,,,,,,,,,,,,,,,,,,,,,,,,,,,,,,,,,,,,,,,,,,,,,,,,,,,,,,,,,,,,,,,,,,,,479.73002830002224,480.13093320000917,480.11491240002215,480.2154221999808,480.61455380002735,None,left,1,0.48702429997501895,480.61455380002735,None,480.11491240002215,480.2154221999808,480.2154221999808,None,481.1318337999983,None,,,,,,,11012,001,2024_Jan_02_1127,ANT,2021.2.3,59.946827164187454,
1,7,no,down,IC,L,,,,,,Block.xlsx,"你已经完成了整个实验（三个区组）。

请报告实验者已完成实验

非常感谢，再见！",50,0,-1.5,left,RRLRR.png,,,,,0,1,1,1,1,13,37,6,,,,,,,,,,,,,,,,,,,,,,,,,,,,,,,,,,,,,,,,,,,,,,,,,,,,,,,,,,,,,,,,,,,,,,481.5323500999948,481.9336483000079,481.9175847999868,482.01669140002923,482.4177153999917,None,left,1,0.5960672000073828,482.4177153999917,None,481.9175847999868,482.01669140002923,482.01669140002923,None,483.03562129999045,None,,,,,,,11012,001,2024_Jan_02_1127,ANT,2021.2.3,59.946827164187454,
1,11,center,up,IC,L,,,,,,Block.xlsx,"你已经完成了整个实验（三个区组）。

请报告实验者已完成实验

非常感谢，再见！",0,50,1.5,left,RRLRR.png,,,,,0,1,1,1,1,14,38,10,,,,,,,,,,,,,,,,,,,,,,,,,,,,,,,,,,,,,,,,,,,,,,,,,,,,,,,,,,,,,,,,,,,,,,483.4362426000298,483.8373809999903,483.82006759999786,483.9199188000057,484.32067869999446,None,left,1,0.5649739999789745,484.32067869999446,None,483.82006759999786,483.9199188000057,483.9199188000057,None,484.9039402999915,None,,,,,,,11012,001,2024_Jan_02_1127,ANT,2021.2.3,59.946827164187454,
1,21,spatial,down,C,L,,,,,,Block.xlsx,"你已经完成了整个实验（三个区组）。

请报告实验者已完成实验

非常感谢，再见！",-1.5,0,-1.5,left,LLLLL.png,,,,,0,1,1,1,1,15,39,20,,,,,,,,,,,,,,,,,,,,,,,,,,,,,,,,,,,,,,,,,,,,,,,,,,,,,,,,,,,,,,,,,,,,,,485.3046037000022,485.70591210003477,485.68918370001484,485.790258300025,486.1899548000074,None,left,1,0.4557661999715492,486.1899548000074,None,485.68918370001484,485.790258300025,485.790258300025,None,486.6736449000309,None,,,,,,,11012,001,2024_Jan_02_1127,ANT,2021.2.3,59.946827164187454,
1,13,center,down,C,L,,,,,,Block.xlsx,"你已经完成了整个实验（三个区组）。

请报告实验者已完成实验

非常感谢，再见！",0,50,-1.5,left,LLLLL.png,,,,,0,1,1,1,1,16,40,12,,,,,,,,,,,,,,,,,,,,,,,,,,,,,,,,,,,,,,,,,,,,,,,,,,,,,,,,,,,,,,,,,,,,,,487.0737964999862,487.4767196000321,487.4582551000058,487.55806970002595,487.9605607999838,None,left,1,0.42100050003500655,487.9605607999838,None,487.4582551000058,487.55806970002595,487.55806970002595,None,488.4092363999807,None,,,,,,,11012,001,2024_Jan_02_1127,ANT,2021.2.3,59.946827164187454,
1,8,no,down,IC,R,,,,,,Block.xlsx,"你已经完成了整个实验（三个区组）。

请报告实验者已完成实验

非常感谢，再见！",50,0,-1.5,right,LLRLL.png,,,,,0,1,1,1,1,17,41,7,,,,,,,,,,,,,,,,,,,,,,,,,,,,,,,,,,,,,,,,,,,,,,,,,,,,,,,,,,,,,,,,,,,,,,488.8104022000334,489.2106391999987,489.1956562999985,489.2944704000256,489.6960892000352,None,right,1,0.5414508000249043,489.6960892000352,None,489.1956562999985,489.2944704000256,489.2944704000256,None,490.26207260001684,None,,,,,,,11012,001,2024_Jan_02_1127,ANT,2021.2.3,59.946827164187454,
1,19,spatial,up,IC,L,,,,,,Block.xlsx,"你已经完成了整个实验（三个区组）。

请报告实验者已完成实验

非常感谢，再见！",1.5,0,1.5,left,RRLRR.png,,,,,0,1,1,1,1,18,42,18,,,,,,,,,,,,,,,,,,,,,,,,,,,,,,,,,,,,,,,,,,,,,,,,,,,,,,,,,,,,,,,,,,,,,,490.66339609998977,491.06399960001,491.0483050000039,491.1645185999805,491.54818640003214,None,left,1,0.529356699960772,491.54818640003214,None,491.0483050000039,491.1645185999805,491.147540200036,None,492.09790430002613,None,,,,,,,11012,001,2024_Jan_02_1127,ANT,2021.2.3,59.946827164187454,
1,21,spatial,down,C,L,,,,,,Block.xlsx,"你已经完成了整个实验（三个区组）。

请报告实验者已完成实验

非常感谢，再见！",-1.5,0,-1.5,left,LLLLL.png,,,,,0,1,1,1,1,19,43,20,,,,,,,,,,,,,,,,,,,,,,,,,,,,,,,,,,,,,,,,,,,,,,,,,,,,,,,,,,,,,,,,,,,,,,492.4990289999987,492.90102200000547,492.8825695000123,492.98416350001935,493.38368999998784,None,left,1,0.3898627999587916,493.38368999998784,None,492.8825695000123,492.98416350001935,492.98416350001935,None,493.8006830000086,None,,,,,,,11012,001,2024_Jan_02_1127,ANT,2021.2.3,59.946827164187454,
1,10,center,up,C,R,,,,,,Block.xlsx,"你已经完成了整个实验（三个区组）。

请报告实验者已完成实验

非常感谢，再见！",0,50,1.5,right,RRRRR.png,,,,,0,1,1,1,1,20,44,9,,,,,,,,,,,,,,,,,,,,,,,,,,,,,,,,,,,,,,,,,,,,,,,,,,,,,,,,,,,,,,,,,,,,,,494.2012892999919,494.6017305999994,494.58613220002735,494.6852400000207,495.0872262000339,None,right,1,0.5673957000253722,495.0872262000339,None,494.58613220002735,494.6852400000207,494.6852400000207,None,495.67128579999553,None,,,,,,,11012,001,2024_Jan_02_1127,ANT,2021.2.3,59.946827164187454,
1,20,spatial,up,IC,R,,,,,,Block.xlsx,"你已经完成了整个实验（三个区组）。

请报告实验者已完成实验

非常感谢，再见！",1.5,0,1.5,right,LLRLL.png,,,,,0,1,1,1,1,21,45,19,,,,,,,,,,,,,,,,,,,,,,,,,,,,,,,,,,,,,,,,,,,,,,,,,,,,,,,,,,,,,,,,,,,,,,496.0704929000349,496.47124119999353,496.45620499999495,496.5554552000249,496.9552616000292,None,right,1,0.47465300001204014,496.9552616000292,None,496.45620499999495,496.5554552000249,496.5554552000249,None,497.45683470001677,None,,,,,,,11012,001,2024_Jan_02_1127,ANT,2021.2.3,59.946827164187454,
1,11,center,up,IC,L,,,,,,Block.xlsx,"你已经完成了整个实验（三个区组）。

请报告实验者已完成实验

非常感谢，再见！",0,50,1.5,left,RRLRR.png,,,,,0,1,1,1,1,22,46,10,,,,,,,,,,,,,,,,,,,,,,,,,,,,,,,,,,,,,,,,,,,,,,,,,,,,,,,,,,,,,,,,,,,,,,497.85694130003685,498.2578901000088,498.2416760000051,498.3406699000043,498.74198679998517,None,left,1,0.4073379999608733,498.74198679998517,None,498.2416760000051,498.3406699000043,498.3406699000043,None,499.17527559999144,None,,,,,,,11012,001,2024_Jan_02_1127,ANT,2021.2.3,59.946827164187454,
1,3,no,up,IC,L,,,,,,Block.xlsx,"你已经完成了整个实验（三个区组）。

请报告实验者已完成实验

非常感谢，再见！",50,0,1.5,left,RRLRR.png,,,,,0,1,1,1,1,23,47,2,,,,,,,,,,,,,,,,,,,,,,,,,,,,,,,,,,,,,,,,,,,,,,,,,,,,,,,,,,,,,,,,,,,,,,499.576735700015,499.9791991999955,499.96088149998104,500.061429399997,500.46107010002015,None,left,1,0.4170452999533154,500.46107010002015,None,499.96088149998104,500.061429399997,500.061429399997,None,500.8944431000273,None,,,,,,,11012,001,2024_Jan_02_1127,ANT,2021.2.3,59.946827164187454,
1,19,spatial,up,IC,L,,,,,,Block.xlsx,"你已经完成了整个实验（三个区组）。

请报告实验者已完成实验

非常感谢，再见！",1.5,0,1.5,left,RRLRR.png,,,,,0,1,1,1,2,0,48,18,,,,,,,,,,,,,,,,,,,,,,,,,,,,,,,,,,,,,,,,,,,,,,,,,,,,,,,,,,,,,,,,,,,,,,501.29499209998176,501.6979605000233,501.6797367000254,501.78052309999475,502.1808951999992,None,left,1,0.5049635000177659,502.1808951999992,None,501.6797367000254,501.78052309999475,501.78052309999475,None,502.71480349998455,None,,,,,,,11012,001,2024_Jan_02_1127,ANT,2021.2.3,59.946827164187454,
1,20,spatial,up,IC,R,,,,,,Block.xlsx,"你已经完成了整个实验（三个区组）。

请报告实验者已完成实验

非常感谢，再见！",1.5,0,1.5,right,LLRLL.png,,,,,0,1,1,1,2,1,49,19,,,,,,,,,,,,,,,,,,,,,,,,,,,,,,,,,,,,,,,,,,,,,,,,,,,,,,,,,,,,,,,,,,,,,,503.11514340003487,503.51586139999563,503.4990654999856,503.5987180999946,503.99905340000987,None,right,1,0.5185485999681987,503.99905340000987,None,503.4990654999856,503.5987180999946,503.5987180999946,None,504.55000260000816,None,,,,,,,11012,001,2024_Jan_02_1127,ANT,2021.2.3,59.946827164187454,
1,24,spatial,down,IC,R,,,,,,Block.xlsx,"你已经完成了整个实验（三个区组）。

请报告实验者已完成实验

非常感谢，再见！",-1.5,0,-1.5,right,LLRLL.png,,,,,0,1,1,1,2,2,50,23,,,,,,,,,,,,,,,,,,,,,,,,,,,,,,,,,,,,,,,,,,,,,,,,,,,,,,,,,,,,,,,,,,,,,,504.9504733000067,505.3528347000247,505.33493479999015,505.4347665000241,505.83571670000674,None,right,1,0.5781176000018604,505.83571670000674,None,505.33493479999015,505.4347665000241,505.4347665000241,None,506.43588589999126,None,,,,,,,11012,001,2024_Jan_02_1127,ANT,2021.2.3,59.946827164187454,
1,21,spatial,down,C,L,,,,,,Block.xlsx,"你已经完成了整个实验（三个区组）。

请报告实验者已完成实验

非常感谢，再见！",-1.5,0,-1.5,left,LLLLL.png,,,,,0,1,1,1,2,3,51,20,,,,,,,,,,,,,,,,,,,,,,,,,,,,,,,,,,,,,,,,,,,,,,,,,,,,,,,,,,,,,,,,,,,,,,506.83783510001376,507.2375068999827,507.22133349999785,507.3204717999906,507.7218399000121,None,left,1,0.4435947999591008,507.7218399000121,None,507.22133349999785,507.3204717999906,507.3204717999906,None,508.1892676000134,None,,,,,,,11012,001,2024_Jan_02_1127,ANT,2021.2.3,59.946827164187454,
1,20,spatial,up,IC,R,,,,,,Block.xlsx,"你已经完成了整个实验（三个区组）。

请报告实验者已完成实验

非常感谢，再见！",1.5,0,1.5,right,LLRLL.png,,,,,0,1,1,1,2,4,52,19,,,,,,,,,,,,,,,,,,,,,,,,,,,,,,,,,,,,,,,,,,,,,,,,,,,,,,,,,,,,,,,,,,,,,,508.5895049999817,508.99128439999186,508.9730937000131,509.0753346999991,509.4753201000276,None,right,1,0.5863507999456488,509.4753201000276,None,508.9730937000131,509.0753346999991,509.0753346999991,None,510.09158670000033,None,,,,,,,11012,001,2024_Jan_02_1127,ANT,2021.2.3,59.946827164187454,
1,24,spatial,down,IC,R,,,,,,Block.xlsx,"你已经完成了整个实验（三个区组）。

请报告实验者已完成实验

非常感谢，再见！",-1.5,0,-1.5,right,LLRLL.png,,,,,0,1,1,1,2,5,53,23,,,,,,,,,,,,,,,,,,,,,,,,,,,,,,,,,,,,,,,,,,,,,,,,,,,,,,,,,,,,,,,,,,,,,,510.492339599994,510.8934006000054,510.8767378000193,510.9761492999969,511.3773647000198,None,right,1,0.5644293000223115,511.3773647000198,None,510.8767378000193,510.9761492999969,510.9761492999969,None,511.9612449000124,None,,,,,,,11012,001,2024_Jan_02_1127,ANT,2021.2.3,59.946827164187454,
1,12,center,up,IC,R,,,,,,Block.xlsx,"你已经完成了整个实验（三个区组）。

请报告实验者已完成实验

非常感谢，再见！",0,50,1.5,right,LLRLL.png,,,,,0,1,1,1,2,6,54,11,,,,,,,,,,,,,,,,,,,,,,,,,,,,,,,,,,,,,,,,,,,,,,,,,,,,,,,,,,,,,,,,,,,,,,512.3614502000273,512.7631118000136,512.7459820000222,512.845939300023,513.2468143000151,None,right,1,0.5112571999779902,513.2468143000151,None,512.7459820000222,512.845939300023,512.845939300023,None,513.7806835999945,None,,,,,,,11012,001,2024_Jan_02_1127,ANT,2021.2.3,59.946827164187454,
1,13,center,down,C,L,,,,,,Block.xlsx,"你已经完成了整个实验（三个区组）。

请报告实验者已完成实验

非常感谢，再见！",0,50,-1.5,left,LLLLL.png,,,,,0,1,1,1,2,7,55,12,,,,,,,,,,,,,,,,,,,,,,,,,,,,,,,,,,,,,,,,,,,,,,,,,,,,,,,,,,,,,,,,,,,,,,514.1808863999904,514.581990799983,514.5666517000063,514.6816824999987,515.0654774000286,None,left,1,0.555980000004638,515.0654774000286,None,514.5666517000063,514.6816824999987,514.6666876000236,None,515.650177100033,None,,,,,,,11012,001,2024_Jan_02_1127,ANT,2021.2.3,59.946827164187454,
1,3,no,up,IC,L,,,,,,Block.xlsx,"你已经完成了整个实验（三个区组）。

请报告实验者已完成实验

非常感谢，再见！",50,0,1.5,left,RRLRR.png,,,,,0,1,1,1,2,8,56,2,,,,,,,,,,,,,,,,,,,,,,,,,,,,,,,,,,,,,,,,,,,,,,,,,,,,,,,,,,,,,,,,,,,,,,516.0501717000152,516.4521786000114,516.4345497000031,516.5349446000182,516.9357185999979,None,left,1,0.6061712999944575,516.9357185999979,None,516.4345497000031,516.5349446000182,516.5349446000182,None,517.5691388000268,None,,,,,,,11012,001,2024_Jan_02_1127,ANT,2021.2.3,59.946827164187454,
1,6,no,down,C,R,,,,,,Block.xlsx,"你已经完成了整个实验（三个区组）。

请报告实验者已完成实验

非常感谢，再见！",50,0,-1.5,right,RRRRR.png,,,,,0,1,1,1,2,9,57,5,,,,,,,,,,,,,,,,,,,,,,,,,,,,,,,,,,,,,,,,,,,,,,,,,,,,,,,,,,,,,,,,,,,,,,517.9701252999948,518.3710018999991,518.3556162000168,518.4707440999919,518.8555107000284,None,right,1,0.5024483000161126,518.8555107000284,None,518.3556162000168,518.4707440999919,518.4545834999881,None,519.3892524000257,None,,,,,,,11012,001,2024_Jan_02_1127,ANT,2021.2.3,59.946827164187454,
1,15,center,down,IC,L,,,,,,Block.xlsx,"你已经完成了整个实验（三个区组）。

请报告实验者已完成实验

非常感谢，再见！",0,50,-1.5,left,RRLRR.png,,,,,0,1,1,1,2,10,58,14,,,,,,,,,,,,,,,,,,,,,,,,,,,,,,,,,,,,,,,,,,,,,,,,,,,,,,,,,,,,,,,,,,,,,,519.7889177000034,520.1897603999823,520.1745782000362,520.2753518000245,520.6746977000148,None,left,1,0.7390759999980219,520.6746977000148,None,520.1745782000362,520.2753518000245,520.2753518000245,None,521.4414772000164,None,,,,,,,11012,001,2024_Jan_02_1127,ANT,2021.2.3,59.946827164187454,
1,13,center,down,C,L,,,,,,Block.xlsx,"你已经完成了整个实验（三个区组）。

请报告实验者已完成实验

非常感谢，再见！",0,50,-1.5,left,LLLLL.png,,,,,0,1,1,1,2,11,59,12,,,,,,,,,,,,,,,,,,,,,,,,,,,,,,,,,,,,,,,,,,,,,,,,,,,,,,,,,,,,,,,,,,,,,,521.8421832000022,522.2434154000366,522.2278117000242,522.3271668999805,522.7268619000097,None,left,1,0.5512065999791957,522.7268619000097,None,522.2278117000242,522.3271668999805,522.3271668999805,None,523.2942816999857,None,,,,,,,11012,001,2024_Jan_02_1127,ANT,2021.2.3,59.946827164187454,
1,16,center,down,IC,R,,,,,,Block.xlsx,"你已经完成了整个实验（三个区组）。

请报告实验者已完成实验

非常感谢，再见！",0,50,-1.5,right,LLRLL.png,,,,,0,1,1,1,2,12,60,15,,,,,,,,,,,,,,,,,,,,,,,,,,,,,,,,,,,,,,,,,,,,,,,,,,,,,,,,,,,,,,,,,,,,,,523.6948722000234,524.0958092000219,524.0807484000106,524.1807489999919,524.5803484999924,None,right,1,0.6013509000185877,524.5803484999924,None,524.0807484000106,524.1807489999919,524.1807489999919,None,525.1971798000159,None,,,,,,,11012,001,2024_Jan_02_1127,ANT,2021.2.3,59.946827164187454,
1,6,no,down,C,R,,,,,,Block.xlsx,"你已经完成了整个实验（三个区组）。

请报告实验者已完成实验

非常感谢，再见！",50,0,-1.5,right,RRRRR.png,,,,,0,1,1,1,2,13,61,5,,,,,,,,,,,,,,,,,,,,,,,,,,,,,,,,,,,,,,,,,,,,,,,,,,,,,,,,,,,,,,,,,,,,,,525.5985299000167,525.998907000001,525.9833194999956,526.0824550000252,526.4828638000181,None,right,1,0.538794299995061,526.4828638000181,None,525.9833194999956,526.0824550000252,526.0824550000252,None,527.0498818000196,None,,,,,,,11012,001,2024_Jan_02_1127,ANT,2021.2.3,59.946827164187454,
1,1,no,up,C,L,,,,,,Block.xlsx,"你已经完成了整个实验（三个区组）。

请报告实验者已完成实验

非常感谢，再见！",50,0,1.5,left,LLLLL.png,,,,,0,1,1,1,2,14,62,0,,,,,,,,,,,,,,,,,,,,,,,,,,,,,,,,,,,,,,,,,,,,,,,,,,,,,,,,,,,,,,,,,,,,,,527.451198900002,527.8530545000103,527.835319100006,527.9352433999884,528.3356247000047,None,left,1,0.5417894000420347,528.3356247000047,None,527.835319100006,527.9352433999884,527.9352433999884,None,528.9023454000126,None,,,,,,,11012,001,2024_Jan_02_1127,ANT,2021.2.3,59.946827164187454,
1,5,no,down,C,L,,,,,,Block.xlsx,"你已经完成了整个实验（三个区组）。

请报告实验者已完成实验

非常感谢，再见！",50,0,-1.5,left,LLLLL.png,,,,,0,1,1,1,2,15,63,4,,,,,,,,,,,,,,,,,,,,,,,,,,,,,,,,,,,,,,,,,,,,,,,,,,,,,,,,,,,,,,,,,,,,,,529.303435800015,529.703652199998,529.6885097000049,529.7889054000261,530.1900107000256,None,left,1,0.41631639999104664,530.1900107000256,None,529.6885097000049,529.7889054000261,529.7889054000261,None,530.6217775000259,None,,,,,,,11012,001,2024_Jan_02_1127,ANT,2021.2.3,59.946827164187454,
1,10,center,up,C,R,,,,,,Block.xlsx,"你已经完成了整个实验（三个区组）。

请报告实验者已完成实验

非常感谢，再见！",0,50,1.5,right,RRRRR.png,,,,,0,1,1,1,2,16,64,9,,,,,,,,,,,,,,,,,,,,,,,,,,,,,,,,,,,,,,,,,,,,,,,,,,,,,,,,,,,,,,,,,,,,,,531.0232338000205,531.4236497000093,531.4068748999853,531.5081232000375,531.9092469000025,None,right,1,0.4329322000266984,531.9092469000025,None,531.4068748999853,531.5081232000375,531.5081232000375,None,532.3580422999803,None,,,,,,,11012,001,2024_Jan_02_1127,ANT,2021.2.3,59.946827164187454,
1,19,spatial,up,IC,L,,,,,,Block.xlsx,"你已经完成了整个实验（三个区组）。

请报告实验者已完成实验

非常感谢，再见！",1.5,0,1.5,left,RRLRR.png,,,,,0,1,1,1,2,17,65,18,,,,,,,,,,,,,,,,,,,,,,,,,,,,,,,,,,,,,,,,,,,,,,,,,,,,,,,,,,,,,,,,,,,,,,532.7581345000071,533.15952809999,533.1431116000167,533.243177300028,533.6443045000196,None,left,1,0.42512920004082844,533.6443045000196,None,533.1431116000167,533.243177300028,533.243177300028,None,534.0936855000327,None,,,,,,,11012,001,2024_Jan_02_1127,ANT,2021.2.3,59.946827164187454,
1,1,no,up,C,L,,,,,,Block.xlsx,"你已经完成了整个实验（三个区组）。

请报告实验者已完成实验

非常感谢，再见！",50,0,1.5,left,LLLLL.png,,,,,0,1,1,1,2,18,66,0,,,,,,,,,,,,,,,,,,,,,,,,,,,,,,,,,,,,,,,,,,,,,,,,,,,,,,,,,,,,,,,,,,,,,,534.4942891999963,534.8958116000285,534.878817400022,534.9797335999901,535.3793719999958,None,left,1,0.4353685000096448,535.3793719999958,None,534.878817400022,534.9797335999901,534.9797335999901,None,535.8304172999924,None,,,,,,,11012,001,2024_Jan_02_1127,ANT,2021.2.3,59.946827164187454,
1,10,center,up,C,R,,,,,,Block.xlsx,"你已经完成了整个实验（三个区组）。

请报告实验者已完成实验

非常感谢，再见！",0,50,1.5,right,RRRRR.png,,,,,0,1,1,1,2,19,67,9,,,,,,,,,,,,,,,,,,,,,,,,,,,,,,,,,,,,,,,,,,,,,,,,,,,,,,,,,,,,,,,,,,,,,,536.2300074000377,536.6315642999834,536.6145322000375,536.7152522000251,537.1160425000126,None,right,1,0.3854367999592796,537.1160425000126,None,536.6145322000375,536.7152522000251,536.7152522000251,None,537.5318113000249,None,,,,,,,11012,001,2024_Jan_02_1127,ANT,2021.2.3,59.946827164187454,
1,17,spatial,up,C,L,,,,,,Block.xlsx,"你已经完成了整个实验（三个区组）。

请报告实验者已完成实验

非常感谢，再见！",1.5,0,1.5,left,LLLLL.png,,,,,0,1,1,1,2,20,68,16,,,,,,,,,,,,,,,,,,,,,,,,,,,,,,,,,,,,,,,,,,,,,,,,,,,,,,,,,,,,,,,,,,,,,,537.9337945000152,538.3339474999812,538.3180863999878,538.4172966000042,538.818289900024,None,left,1,0.411242600006517,538.818289900024,None,538.3180863999878,538.4172966000042,538.4172966000042,None,539.2512019000133,None,,,,,,,11012,001,2024_Jan_02_1127,ANT,2021.2.3,59.946827164187454,
1,4,no,up,IC,R,,,,,,Block.xlsx,"你已经完成了整个实验（三个区组）。

请报告实验者已完成实验

非常感谢，再见！",50,0,1.5,right,LLRLL.png,,,,,0,1,1,1,2,21,69,3,,,,,,,,,,,,,,,,,,,,,,,,,,,,,,,,,,,,,,,,,,,,,,,,,,,,,,,,,,,,,,,,,,,,,,539.6521934000193,540.0528982999967,540.0367631000117,540.1528787999996,540.5381365999929,None,right,1,0.5001371999969706,540.5381365999929,None,540.0367631000117,540.1528787999996,540.1362744999933,None,541.0540500000352,None,,,,,,,11012,001,2024_Jan_02_1127,ANT,2021.2.3,59.946827164187454,
1,11,center,up,IC,L,,,,,,Block.xlsx,"你已经完成了整个实验（三个区组）。

请报告实验者已完成实验

非常感谢，再见！",0,50,1.5,left,RRLRR.png,,,,,0,1,1,1,2,22,70,10,,,,,,,,,,,,,,,,,,,,,,,,,,,,,,,,,,,,,,,,,,,,,,,,,,,,,,,,,,,,,,,,,,,,,,541.4545493000187,541.8556146000046,541.8392121000215,541.9389946000301,542.3405166000011,None,left,1,0.5289837999735028,542.3405166000011,None,541.8392121000215,541.9389946000301,541.9389946000301,None,542.8911724000354,None,,,,,,,11012,001,2024_Jan_02_1127,ANT,2021.2.3,59.946827164187454,
1,16,center,down,IC,R,,,,,,Block.xlsx,"你已经完成了整个实验（三个区组）。

请报告实验者已完成实验

非常感谢，再见！",0,50,-1.5,right,LLRLL.png,,,,,0,1,1,1,2,23,71,15,,,,,,,,,,,,,,,,,,,,,,,,,,,,,,,,,,,,,,,,,,,,,,,,,,,,,,,,,,,,,,,,,,,,,,543.2911528000259,543.6919021999929,543.6751441000379,543.7748066000058,544.1751527999877,None,None,0,,544.1751527999877,None,543.6751441000379,543.7748066000058,543.7748066000058,None,545.8784179000068,None,,,,,,,11012,001,2024_Jan_02_1127,ANT,2021.2.3,59.946827164187454,
1,8,no,down,IC,R,,,,,,Block.xlsx,"你已经完成了整个实验（三个区组）。

请报告实验者已完成实验

非常感谢，再见！",50,0,-1.5,right,LLRLL.png,,,,,0,1,1,1,3,0,72,7,,,,,,,,,,,,,,,,,,,,,,,,,,,,,,,,,,,,,,,,,,,,,,,,,,,,,,,,,,,,,,,,,,,,,,546.2784766000113,546.679631200037,546.6626971000223,546.7633822000353,547.1633422999876,None,right,1,0.9223927999846637,547.1633422999876,None,546.6626971000223,546.7633822000353,546.7633822000353,None,548.1144430999993,None,,,,,,,11012,001,2024_Jan_02_1127,ANT,2021.2.3,59.946827164187454,
1,14,center,down,C,R,,,,,,Block.xlsx,"你已经完成了整个实验（三个区组）。

请报告实验者已完成实验

非常感谢，再见！",0,50,-1.5,right,RRRRR.png,,,,,0,1,1,1,3,1,73,13,,,,,,,,,,,,,,,,,,,,,,,,,,,,,,,,,,,,,,,,,,,,,,,,,,,,,,,,,,,,,,,,,,,,,,548.5149094000226,548.916557700024,548.899785400019,549.0005884999991,549.3999804999912,None,right,1,0.4615434000152163,549.3999804999912,None,548.899785400019,549.0005884999991,549.0005884999991,None,549.8835690999986,None,,,,,,,11012,001,2024_Jan_02_1127,ANT,2021.2.3,59.946827164187454,
1,8,no,down,IC,R,,,,,,Block.xlsx,"你已经完成了整个实验（三个区组）。

请报告实验者已完成实验

非常感谢，再见！",50,0,-1.5,right,LLRLL.png,,,,,0,1,1,1,3,2,74,7,,,,,,,,,,,,,,,,,,,,,,,,,,,,,,,,,,,,,,,,,,,,,,,,,,,,,,,,,,,,,,,,,,,,,,550.2845066000009,550.6856276000035,550.67002770002,550.7693455999834,551.1710785999894,None,right,1,1.082590900012292,551.1710785999894,None,550.67002770002,550.7693455999834,550.7693455999834,None,552.2704865999985,None,,,,,,,11012,001,2024_Jan_02_1127,ANT,2021.2.3,59.946827164187454,
1,23,spatial,down,IC,L,,,,,,Block.xlsx,"你已经完成了整个实验（三个区组）。

请报告实验者已完成实验

非常感谢，再见！",-1.5,0,-1.5,left,RRLRR.png,,,,,0,1,1,1,3,3,75,22,,,,,,,,,,,,,,,,,,,,,,,,,,,,,,,,,,,,,,,,,,,,,,,,,,,,,,,,,,,,,,,,,,,,,,552.6718598000007,553.0738674000022,553.0555711000343,553.1554534999887,553.5572007999872,None,left,1,0.6486264999839477,553.5572007999872,None,553.0555711000343,553.1554534999887,553.1554534999887,None,554.2236123000039,None,,,,,,,11012,001,2024_Jan_02_1127,ANT,2021.2.3,59.946827164187454,
1,15,center,down,IC,L,,,,,,Block.xlsx,"你已经完成了整个实验（三个区组）。

请报告实验者已完成实验

非常感谢，再见！",0,50,-1.5,left,RRLRR.png,,,,,0,1,1,1,3,4,76,14,,,,,,,,,,,,,,,,,,,,,,,,,,,,,,,,,,,,,,,,,,,,,,,,,,,,,,,,,,,,,,,,,,,,,,554.62389789999,555.0252657000092,555.0082448000321,555.1096827000147,555.5092395999818,None,left,1,0.5522720000008121,555.5092395999818,None,555.0082448000321,555.1096827000147,555.1096827000147,None,556.0762560000294,None,,,,,,,11012,001,2024_Jan_02_1127,ANT,2021.2.3,59.946827164187454,
1,14,center,down,C,R,,,,,,Block.xlsx,"你已经完成了整个实验（三个区组）。

请报告实验者已完成实验

非常感谢，再见！",0,50,-1.5,right,RRRRR.png,,,,,0,1,1,1,3,5,77,13,,,,,,,,,,,,,,,,,,,,,,,,,,,,,,,,,,,,,,,,,,,,,,,,,,,,,,,,,,,,,,,,,,,,,,556.4773251999868,556.8791633000365,556.8612800000119,556.9631388999987,557.362603800022,None,right,1,0.44317800004500896,557.362603800022,None,556.8612800000119,556.9631388999987,556.9631388999987,None,557.8291720999987,None,,,,,,,11012,001,2024_Jan_02_1127,ANT,2021.2.3,59.946827164187454,
1,4,no,up,IC,R,,,,,,Block.xlsx,"你已经完成了整个实验（三个区组）。

请报告实验者已完成实验

非常感谢，再见！",50,0,1.5,right,LLRLL.png,,,,,0,1,1,1,3,6,78,3,,,,,,,,,,,,,,,,,,,,,,,,,,,,,,,,,,,,,,,,,,,,,,,,,,,,,,,,,,,,,,,,,,,,,,558.2291789000155,558.6314241000218,558.6139054999803,558.7140727000078,559.1148237999878,None,right,1,0.570817600004375,559.1148237999878,None,558.6139054999803,558.7140727000078,558.7140727000078,None,559.7154506000225,None,,,,,,,11012,001,2024_Jan_02_1127,ANT,2021.2.3,59.946827164187454,
1,14,center,down,C,R,,,,,,Block.xlsx,"你已经完成了整个实验（三个区组）。

请报告实验者已完成实验

非常感谢，再见！",0,50,-1.5,right,RRRRR.png,,,,,0,1,1,1,3,7,79,13,,,,,,,,,,,,,,,,,,,,,,,,,,,,,,,,,,,,,,,,,,,,,,,,,,,,,,,,,,,,,,,,,,,,,,560.1155103000347,560.5177490999922,560.4994510000106,560.6016424000263,561.0009060000302,None,right,1,0.6126411999575794,561.0009060000302,None,560.4994510000106,560.6016424000263,560.6016424000263,None,561.6344197000144,None,,,,,,,11012,001,2024_Jan_02_1127,ANT,2021.2.3,59.946827164187454,
1,12,center,up,IC,R,,,,,,Block.xlsx,"你已经完成了整个实验（三个区组）。

请报告实验者已完成实验

非常感谢，再见！",0,50,1.5,right,LLRLL.png,,,,,0,1,1,1,3,8,80,11,,,,,,,,,,,,,,,,,,,,,,,,,,,,,,,,,,,,,,,,,,,,,,,,,,,,,,,,,,,,,,,,,,,,,,562.035020100011,562.4363032000256,562.4198647000012,562.5190333999926,562.9210709999898,None,right,1,0.4929210999980569,562.9210709999898,None,562.4198647000012,562.5190333999926,562.5190333999926,None,563.4372581000207,None,,,,,,,11012,001,2024_Jan_02_1127,ANT,2021.2.3,59.946827164187454,
1,14,center,down,C,R,,,,,,Block.xlsx,"你已经完成了整个实验（三个区组）。

请报告实验者已完成实验

非常感谢，再见！",0,50,-1.5,right,RRRRR.png,,,,,0,1,1,1,3,9,81,13,,,,,,,,,,,,,,,,,,,,,,,,,,,,,,,,,,,,,,,,,,,,,,,,,,,,,,,,,,,,,,,,,,,,,,563.8380364000332,564.2389365999843,564.2224328999873,564.323578200012,564.7236509000068,None,right,1,0.4738517999649048,564.7236509000068,None,564.2224328999873,564.323578200012,564.323578200012,None,565.2229631000082,None,,,,,,,11012,001,2024_Jan_02_1127,ANT,2021.2.3,59.946827164187454,
1,16,center,down,IC,R,,,,,,Block.xlsx,"你已经完成了整个实验（三个区组）。

请报告实验者已完成实验

非常感谢，再见！",0,50,-1.5,right,LLRLL.png,,,,,0,1,1,1,3,10,82,15,,,,,,,,,,,,,,,,,,,,,,,,,,,,,,,,,,,,,,,,,,,,,,,,,,,,,,,,,,,,,,,,,,,,,,565.6243054000079,566.0250440000091,566.0088105000323,566.1096790999873,566.5091052000062,None,right,1,0.44041420001303777,566.5091052000062,None,566.0088105000323,566.1096790999873,566.1096790999873,None,566.9757140000002,None,,,,,,,11012,001,2024_Jan_02_1127,ANT,2021.2.3,59.946827164187454,
1,7,no,down,IC,L,,,,,,Block.xlsx,"你已经完成了整个实验（三个区组）。

请报告实验者已完成实验

非常感谢，再见！",50,0,-1.5,left,RRLRR.png,,,,,0,1,1,1,3,11,83,6,,,,,,,,,,,,,,,,,,,,,,,,,,,,,,,,,,,,,,,,,,,,,,,,,,,,,,,,,,,,,,,,,,,,,,567.3763386000064,567.7775639999891,567.7608886000235,567.8610971000162,568.2616981000174,None,right,0,0.37592730001779273,568.2616981000174,None,567.7608886000235,567.8610971000162,567.8610971000162,None,568.6621961999917,None,,,,,,,11012,001,2024_Jan_02_1127,ANT,2021.2.3,59.946827164187454,
1,9,center,up,C,L,,,,,,Block.xlsx,"你已经完成了整个实验（三个区组）。

请报告实验者已完成实验

非常感谢，再见！",0,50,1.5,left,LLLLL.png,,,,,0,1,1,1,3,12,84,8,,,,,,,,,,,,,,,,,,,,,,,,,,,,,,,,,,,,,,,,,,,,,,,,,,,,,,,,,,,,,,,,,,,,,,569.0627242000191,569.4638481999864,569.4471179000102,569.54670180002,569.9477901000064,None,left,1,0.6346970000304282,569.9477901000064,None,569.4471179000102,569.54670180002,569.54670180002,None,570.5975996000343,None,,,,,,,11012,001,2024_Jan_02_1127,ANT,2021.2.3,59.946827164187454,
1,8,no,down,IC,R,,,,,,Block.xlsx,"你已经完成了整个实验（三个区组）。

请报告实验者已完成实验

非常感谢，再见！",50,0,-1.5,right,LLRLL.png,,,,,0,1,1,1,3,13,85,7,,,,,,,,,,,,,,,,,,,,,,,,,,,,,,,,,,,,,,,,,,,,,,,,,,,,,,,,,,,,,,,,,,,,,,570.9983613000368,571.3998415999813,571.3829704000382,571.4838036000147,571.884373000008,None,right,1,0.5530911000096239,571.884373000008,None,571.3829704000382,571.4838036000147,571.4838036000147,None,572.4673775000265,None,,,,,,,11012,001,2024_Jan_02_1127,ANT,2021.2.3,59.946827164187454,
1,12,center,up,IC,R,,,,,,Block.xlsx,"你已经完成了整个实验（三个区组）。

请报告实验者已完成实验

非常感谢，再见！",0,50,1.5,right,LLRLL.png,,,,,0,1,1,1,3,14,86,11,,,,,,,,,,,,,,,,,,,,,,,,,,,,,,,,,,,,,,,,,,,,,,,,,,,,,,,,,,,,,,,,,,,,,,572.8677799000288,573.2688520000083,573.2519700999837,573.3544898999971,573.7524359999807,None,right,1,0.5178192000021227,573.7524359999807,None,573.2519700999837,573.3544898999971,573.3544898999971,None,574.286469499988,None,,,,,,,11012,001,2024_Jan_02_1127,ANT,2021.2.3,59.946827164187454,
1,19,spatial,up,IC,L,,,,,,Block.xlsx,"你已经完成了整个实验（三个区组）。

请报告实验者已完成实验

非常感谢，再见！",1.5,0,1.5,left,RRLRR.png,,,,,0,1,1,1,3,15,87,18,,,,,,,,,,,,,,,,,,,,,,,,,,,,,,,,,,,,,,,,,,,,,,,,,,,,,,,,,,,,,,,,,,,,,,574.6870523000252,575.0877512000152,575.071456500038,575.1727181000169,575.5722833999898,None,left,1,0.4976166000124067,575.5722833999898,None,575.071456500038,575.1727181000169,575.1727181000169,None,576.0893546000007,None,,,,,,,11012,001,2024_Jan_02_1127,ANT,2021.2.3,59.946827164187454,
1,12,center,up,IC,R,,,,,,Block.xlsx,"你已经完成了整个实验（三个区组）。

请报告实验者已完成实验

非常感谢，再见！",0,50,1.5,right,LLRLL.png,,,,,0,1,1,1,3,16,88,11,,,,,,,,,,,,,,,,,,,,,,,,,,,,,,,,,,,,,,,,,,,,,,,,,,,,,,,,,,,,,,,,,,,,,,576.4905073000118,576.8920070999884,576.8741742999991,576.9745836000075,577.3742929000291,None,right,1,0.4637069000164047,577.3742929000291,None,576.8741742999991,576.9745836000075,576.9745836000075,None,577.8584789999877,None,,,,,,,11012,001,2024_Jan_02_1127,ANT,2021.2.3,59.946827164187454,
1,18,spatial,up,C,R,,,,,,Block.xlsx,"你已经完成了整个实验（三个区组）。

请报告实验者已完成实验

