TrialType,TrialNumber,WarningType,TargetType,FlankerType,TargetDirection,W,f,Y,corr,imageFile,condition,endtext,Yw,Yf,Yt,Corr,imagefile,trials_3.thisRepN,trials_3.thisTrialN,trials_3.thisN,trials_3.thisIndex,trials_2.thisRepN,trials_2.thisTrialN,trials_2.thisN,trials_2.thisIndex,trials.thisRepN,trials.thisTrialN,trials.thisN,trials.thisIndex,instr.started,instr.stopped,key_resp.keys,key_resp.rt,key_resp.started,key_resp.stopped,image.started,image.stopped,key_resp_6.keys,key_resp_6.rt,key_resp_6.started,key_resp_6.stopped,EX_L.started,EX_L.stopped,AL.started,AL.stopped,key_resp_7.keys,key_resp_7.rt,key_resp_7.started,key_resp_7.stopped,EX_R.started,EX_R.stopped,RR.started,RR.stopped,key_resp_8.keys,key_resp_8.rt,key_resp_8.started,key_resp_8.stopped,image_2.started,image_2.stopped,key_resp_9.keys,key_resp_9.rt,key_resp_9.started,key_resp_9.stopped,image_3.started,image_3.stopped,key_resp_10.keys,key_resp_10.rt,key_resp_10.started,key_resp_10.stopped,fix.started,fix.stopped,war.started,war.stopped,tar.started,tar.stopped,key_resp_4.keys,key_resp_4.corr,key_resp_4.rt,key_resp_4.started,key_resp_4.stopped,fix2.started,fix2.stopped,fix_2.started,fix_2.stopped,Feedback.started,Feedback.stopped,key_resp_2.keys,key_resp_2.rt,key_resp_2.started,key_resp_2.stopped,text_5.started,text_5.stopped,fix2_1.started,fix2_1.stopped,Warn.started,Warn.stopped,Tar.started,Tar.stopped,key_resp_5.keys,key_resp_5.corr,key_resp_5.rt,key_resp_5.started,key_resp_5.stopped,Fix_2.started,Fix_2.stopped,fix2_2.started,fix2_2.stopped,text_4.started,text_4.stopped,key_resp_3.keys,key_resp_3.rt,key_resp_3.started,key_resp_3.stopped,text_3.started,text_3.stopped,participant,session,date,expName,psychopyVersion,frameRate,
,,,,,,,,,,,,,,,,,,,,,,,,,,,,,,15.276928500039503,None,space,32.84851440001512,15.276928500039503,None,,,,,,,,,,,,,,,,,,,,,,,,,,,,,,,,,,,,,,,,,,,,,,,,,,,,,,,,,,,,,,,,,,,,,,,,,,,,,,,,,11013,001,2024_Jan_02_1652,ANT,2021.2.3,60.2680845001238,
,,,,,,,,,,,,,,,,,,,,,,,,,,,,,,,,,,,,48.14225189998979,None,space,12.958917299984023,48.14225189998979,None,,,,,,,,,,,,,,,,,,,,,,,,,,,,,,,,,,,,,,,,,,,,,,,,,,,,,,,,,,,,,,,,,,,,,,,,,,,11013,001,2024_Jan_02_1652,ANT,2021.2.3,60.2680845001238,
,,,,,,,,,,,,,,,,,,,,,,,,,,,,,,,,,,,,,,,,,,61.12821980001172,None,61.12821980001172,None,left,0.8766945999814197,61.12821980001172,None,,,,,,,,,,,,,,,,,,,,,,,,,,,,,,,,,,,,,,,,,,,,,,,,,,,,,,,,,,,,,,,,,,,11013,001,2024_Jan_02_1652,ANT,2021.2.3,60.2680845001238,
,,,,,,,,,,,,,,,,,,,,,,,,,,,,,,,,,,,,,,,,,,,,,,,,,,62.029361099994276,None,62.029361099994276,None,right,0.6319036000058986,62.029361099994276,None,,,,,,,,,,,,,,,,,,,,,,,,,,,,,,,,,,,,,,,,,,,,,,,,,,,,,,,,,,,11013,001,2024_Jan_02_1652,ANT,2021.2.3,60.2680845001238,
,,,,,,,,,,,,,,,,,,,,,,,,,,,,,,,,,,,,,,,,,,,,,,,,,,,,,,,,,,62.68036709999433,None,space,53.74861259997124,62.68036709999433,None,,,,,,,,,,,,,,,,,,,,,,,,,,,,,,,,,,,,,,,,,,,,,,,,,,,,,11013,001,2024_Jan_02_1652,ANT,2021.2.3,60.2680845001238,
,,,,,,,,,,,,,,,,,,,,,,,,,,,,,,,,,,,,,,,,,,,,,,,,,,,,,,,,,,,,,,,,116.46007900004042,None,space,10.209165300009772,116.46007900004042,None,,,,,,,,,,,,,,,,,,,,,,,,,,,,,,,,,,,,,,,,,,,,,,,11013,001,2024_Jan_02_1652,ANT,2021.2.3,60.2680845001238,
0,11,spatial,down,C,L,-1.5,0,-1.5,left,LLLLL.png,,,,,,,,0,0,0,10,,,,,,,,,,,,,,,,,,,,,,,,,,,,,,,,,,,,,,,,,,,,,,,,,126.75859040004434,127.15946160000749,127.14497690001735,127.2601783000282,127.6438208000036,None,left,1,0.48935460002394393,127.6438208000036,None,127.14497690001735,127.2601783000282,127.24271520000184,None,128.1776011000038,None,,,,,,,,,,,,,,,,,,,,,,,,,,,,,,11013,001,2024_Jan_02_1652,ANT,2021.2.3,60.2680845001238,
0,2,no,up,IC,R,50,0,1.5,right,LLRLL.png,,,,,,,,0,1,1,1,,,,,,,,,,,,,,,,,,,,,,,,,,,,,,,,,,,,,,,,,,,,,,,,,130.18091659998754,130.58222000004025,130.5642962999991,130.6652211000328,131.06567219999852,None,right,1,0.9556609999854118,131.06567219999852,None,130.5642962999991,130.6652211000328,130.6652211000328,None,132.05028570001014,None,,,,,,,,,,,,,,,,,,,,,,,,,,,,,,11013,001,2024_Jan_02_1652,ANT,2021.2.3,60.2680845001238,
0,10,spatial,up,IC,L,1.5,0,1.5,left,RRLRR.png,,,,,,,,0,2,2,9,,,,,,,,,,,,,,,,,,,,,,,,,,,,,,,,,,,,,,,,,,,,,,,,,134.052817400021,134.454055899987,134.43768720002845,134.53731370001333,134.93814199999906,None,right,0,0.4674804999958724,134.93814199999906,None,134.43768720002845,134.53731370001333,134.53731370001333,None,135.42132000002312,None,,,,,,,,,,,,,,,,,,,,,,,,,,,,,,11013,001,2024_Jan_02_1652,ANT,2021.2.3,60.2680845001238,
0,9,spatial,up,C,R,1.5,0,1.5,right,RRRRR.png,,,,,,,,0,3,3,8,,,,,,,,,,,,,,,,,,,,,,,,,,,,,,,,,,,,,,,,,,,,,,,,,137.42438859998947,137.8250231000129,137.8100954000256,137.9253730000346,138.31002520001493,None,right,1,0.42304850002983585,138.31002520001493,None,137.8100954000256,137.9253730000346,137.9096201999928,None,138.7596588000306,None,,,,,,,,,,,,,,,,,,,,,,,,,,,,,,11013,001,2024_Jan_02_1652,ANT,2021.2.3,60.2680845001238,
0,3,no,down,C,R,50,0,-1.5,right,RRRRR.png,,,,,,,,0,4,4,2,,,,,,,,,,,,,,,,,,,,,,,,,,,,,,,,,,,,,,,,,,,,,,,,,140.76272679999238,141.16473590000533,141.1465933000436,141.24886330001755,141.64743020001333,None,right,1,0.4375624000094831,141.64743020001333,None,141.1465933000436,141.24886330001755,141.24886330001755,None,142.1147762000328,None,,,,,,,,,,,,,,,,,,,,,,,,,,,,,,11013,001,2024_Jan_02_1652,ANT,2021.2.3,60.2680845001238,
0,4,no,down,IC,L,50,0,-1.5,left,RRLRR.png,,,,,,,,0,5,5,3,,,,,,,,,,,,,,,,,,,,,,,,,,,,,,,,,,,,,,,,,,,,,,,,,144.11843110003974,144.5189393000328,144.504073899996,144.61889839998912,145.00282260001404,None,left,1,0.6022222000174224,145.00282260001404,None,144.504073899996,144.61889839998912,144.60267019999446,None,145.63654870004393,None,,,,,,,,,,,,,,,,,,,,,,,,,,,,,,11013,001,2024_Jan_02_1652,ANT,2021.2.3,60.2680845001238,
0,5,center,up,C,L,0,50,1.5,left,LLLLL.png,,,,,,,,0,6,6,4,,,,,,,,,,,,,,,,,,,,,,,,,,,,,,,,,,,,,,,,,,,,,,,,,147.6405531000346,148.04080489999615,148.0251384000294,148.1249638000154,148.5252822000184,None,left,1,0.5200608000159264,148.5252822000184,None,148.0251384000294,148.1249638000154,148.1249638000154,None,149.07544049998978,None,,,,,,,,,,,,,,,,,,,,,,,,,,,,,,11013,001,2024_Jan_02_1652,ANT,2021.2.3,60.2680845001238,
0,6,center,up,IC,R,0,50,1.5,right,LLRLL.png,,,,,,,,0,7,7,5,,,,,,,,,,,,,,,,,,,,,,,,,,,,,,,,,,,,,,,,,,,,,,,,,151.0780320999911,151.48086780001177,151.46241600002395,151.5629675000091,151.96254929999122,None,right,1,0.5705627999850549,151.96254929999122,None,151.46241600002395,151.5629675000091,151.5629675000091,None,152.56342150003184,None,,,,,,,,,,,,,,,,,,,,,,,,,,,,,,11013,001,2024_Jan_02_1652,ANT,2021.2.3,60.2680845001238,
0,7,center,down,C,R,0,50,-1.5,right,RRRRR.png,,,,,,,,0,8,8,6,,,,,,,,,,,,,,,,,,,,,,,,,,,,,,,,,,,,,,,,,,,,,,,,,154.56642059999285,154.9677759000333,154.95180670003174,155.06760980002582,155.45212700002594,None,right,1,0.4569459000485949,155.45212700002594,None,154.95180670003174,155.06760980002582,155.05052059999434,None,155.9351624000119,None,,,,,,,,,,,,,,,,,,,,,,,,,,,,,,11013,001,2024_Jan_02_1652,ANT,2021.2.3,60.2680845001238,
0,1,no,up,C,L,50,0,1.5,left,LLLLL.png,,,,,,,,0,9,9,0,,,,,,,,,,,,,,,,,,,,,,,,,,,,,,,,,,,,,,,,,,,,,,,,,157.93819100002293,158.3385976999998,158.32295890001114,158.4234584000078,158.82359819998965,None,left,1,0.4056681000511162,158.82359819998965,None,158.32295890001114,158.4234584000078,158.4234584000078,None,159.2566001000232,None,,,,,,,,,,,,,,,,,,,,,,,,,,,,,,11013,001,2024_Jan_02_1652,ANT,2021.2.3,60.2680845001238,
0,12,spatial,down,IC,R,-1.5,0,-1.5,right,LLRLL.png,,,,,,,,0,10,10,11,,,,,,,,,,,,,,,,,,,,,,,,,,,,,,,,,,,,,,,,,,,,,,,,,161.25959780003177,161.66169460001402,161.64578310004435,161.76108940003905,162.14452060003532,None,right,1,0.39686550002079457,162.14452060003532,None,161.64578310004435,161.76108940003905,161.74436300003435,None,162.56147429998964,None,,,,,,,,,,,,,,,,,,,,,,,,,,,,,,11013,001,2024_Jan_02_1652,ANT,2021.2.3,60.2680845001238,
0,8,center,down,IC,L,0,50,-1.5,left,RRLRR.png,,,,,,,,0,11,11,7,,,,,,,,,,,,,,,,,,,,,,,,,,,,,,,,,,,,,,,,,,,,,,,,,164.56457400001818,164.96551010000985,164.94947270001285,165.04947690002155,165.45018990000244,None,left,1,0.6353820000076666,165.45018990000244,None,164.94947270001285,165.04947690002155,165.04947690002155,None,166.10015700000804,None,,,,,,,,,,,,,,,,,,,,,,,,,,,,,,11013,001,2024_Jan_02_1652,ANT,2021.2.3,60.2680845001238,
,,,,,,,,,,,,,,,,,,,,,,,,,,,,,,,,,,,,,,,,,,,,,,,,,,,,,,,,,,,,,,,,,,,,,,,,,,,,,,,,,,,,,,,space,12.300558200047817,168.10473469999852,None,,,,,,,,,,,,,,,,,,,,,,,,,,11013,001,2024_Jan_02_1652,ANT,2021.2.3,60.2680845001238,
1,3,no,up,IC,L,,,,,,Block.xlsx,"你已经完成了第一个实验区组

请稍作休息


点击空格键进入下一个区组。",50,0,1.5,left,RRLRR.png,,,,,0,0,0,0,0,0,0,2,,,,,,,,,,,,,,,,,,,,,,,,,,,,,,,,,,,,,,,,,,,,,,,,,,,,,,,,,,,,,,168.10473469999852,None,180.45565880002687,180.85634699999355,180.83915980003076,180.9396609000396,181.3398011000245,None,left,1,0.505419900000561,181.3398011000245,None,180.83915980003076,180.9396609000396,180.9396609000396,None,181.87351689999923,None,,,,,,,11013,001,2024_Jan_02_1652,ANT,2021.2.3,60.2680845001238,
1,6,no,down,C,R,,,,,,Block.xlsx,"你已经完成了第一个实验区组

请稍作休息


点击空格键进入下一个区组。",50,0,-1.5,right,RRRRR.png,,,,,0,0,0,0,0,1,1,5,,,,,,,,,,,,,,,,,,,,,,,,,,,,,,,,,,,,,,,,,,,,,,,,,,,,,,,,,,,,,,,,182.27416359999916,182.67721630004235,182.65903999999864,182.75959500001045,183.15923480002675,None,right,1,0.43851279997034,183.15923480002675,None,182.65903999999864,182.75959500001045,182.75959500001045,None,183.62618820002535,None,,,,,,,11013,001,2024_Jan_02_1652,ANT,2021.2.3,60.2680845001238,
1,8,no,down,IC,R,,,,,,Block.xlsx,"你已经完成了第一个实验区组

请稍作休息


点击空格键进入下一个区组。",50,0,-1.5,right,LLRLL.png,,,,,0,0,0,0,0,2,2,7,,,,,,,,,,,,,,,,,,,,,,,,,,,,,,,,,,,,,,,,,,,,,,,,,,,,,,,,,,,,,,,,184.02753280004254,184.42743069998687,184.4113914000336,184.51171829999657,184.9115024000057,None,left,0,0.3976531000225805,184.9115024000057,None,184.4113914000336,184.51171829999657,184.51171829999657,None,185.32857110002078,None,,,,,,,11013,001,2024_Jan_02_1652,ANT,2021.2.3,60.2680845001238,
1,16,center,down,IC,R,,,,,,Block.xlsx,"你已经完成了第一个实验区组

请稍作休息


点击空格键进入下一个区组。",0,50,-1.5,right,LLRLL.png,,,,,0,0,0,0,0,3,3,15,,,,,,,,,,,,,,,,,,,,,,,,,,,,,,,,,,,,,,,,,,,,,,,,,,,,,,,,,,,,,,,,185.7293223000015,186.1317147000227,186.11349530000007,186.21320790000027,186.61404900002526,None,right,1,0.6393329999991693,186.61404900002526,None,186.11349530000007,186.21320790000027,186.21320790000027,None,187.28165300004184,None,,,,,,,11013,001,2024_Jan_02_1652,ANT,2021.2.3,60.2680845001238,
1,24,spatial,down,IC,R,,,,,,Block.xlsx,"你已经完成了第一个实验区组

请稍作休息


点击空格键进入下一个区组。",-1.5,0,-1.5,right,LLRLL.png,,,,,0,0,0,0,0,4,4,23,,,,,,,,,,,,,,,,,,,,,,,,,,,,,,,,,,,,,,,,,,,,,,,,,,,,,,,,,,,,,,,,187.68329559999984,188.08429140003864,188.06617320002988,188.16741860000184,188.5689213000005,None,right,1,0.4204030000255443,188.5689213000005,None,188.06617320002988,188.16741860000184,188.16741860000184,None,189.01753599999938,None,,,,,,,11013,001,2024_Jan_02_1652,ANT,2021.2.3,60.2680845001238,
1,2,no,up,C,R,,,,,,Block.xlsx,"你已经完成了第一个实验区组

请稍作休息


点击空格键进入下一个区组。",50,0,1.5,right,RRRRR.png,,,,,0,0,0,0,0,5,5,1,,,,,,,,,,,,,,,,,,,,,,,,,,,,,,,,,,,,,,,,,,,,,,,,,,,,,,,,,,,,,,,,189.41877920000115,189.8198574000271,189.8021310000331,189.90223720000358,190.30330530001083,None,right,1,0.4697609000140801,190.30330530001083,None,189.8021310000331,189.90223720000358,189.90223720000358,None,190.8035509000183,None,,,,,,,11013,001,2024_Jan_02_1652,ANT,2021.2.3,60.2680845001238,
1,10,center,up,C,R,,,,,,Block.xlsx,"你已经完成了第一个实验区组

请稍作休息


点击空格键进入下一个区组。",0,50,1.5,right,RRRRR.png,,,,,0,0,0,0,0,6,6,9,,,,,,,,,,,,,,,,,,,,,,,,,,,,,,,,,,,,,,,,,,,,,,,,,,,,,,,,,,,,,,,,191.20482420001645,191.60548810003093,191.58984329999657,191.6895181,192.08874840004137,None,right,1,0.35652430000482127,192.08874840004137,None,191.58984329999657,191.6895181,191.6895181,None,192.47269409999717,None,,,,,,,11013,001,2024_Jan_02_1652,ANT,2021.2.3,60.2680845001238,
1,4,no,up,IC,R,,,,,,Block.xlsx,"你已经完成了第一个实验区组

请稍作休息


点击空格键进入下一个区组。",50,0,1.5,right,LLRLL.png,,,,,0,0,0,0,0,7,7,3,,,,,,,,,,,,,,,,,,,,,,,,,,,,,,,,,,,,,,,,,,,,,,,,,,,,,,,,,,,,,,,,192.87324240000453,193.27391700004227,193.25791980000213,193.35838370001875,193.75798759999452,None,right,1,0.39119639998534694,193.75798759999452,None,193.25791980000213,193.35838370001875,193.35838370001875,None,194.17527770000743,None,,,,,,,11013,001,2024_Jan_02_1652,ANT,2021.2.3,60.2680845001238,
1,6,no,down,C,R,,,,,,Block.xlsx,"你已经完成了第一个实验区组

请稍作休息


点击空格键进入下一个区组。",50,0,-1.5,right,RRRRR.png,,,,,0,0,0,0,0,8,8,5,,,,,,,,,,,,,,,,,,,,,,,,,,,,,,,,,,,,,,,,,,,,,,,,,,,,,,,,,,,,,,,,194.57593859999906,194.97718899999745,194.9614736000076,195.05991650000215,195.46110950002912,None,left,0,0.4167238000081852,195.46110950002912,None,194.9614736000076,195.05991650000215,195.05991650000215,None,195.8945628000074,None,,,,,,,11013,001,2024_Jan_02_1652,ANT,2021.2.3,60.2680845001238,
1,23,spatial,down,IC,L,,,,,,Block.xlsx,"你已经完成了第一个实验区组

请稍作休息


点击空格键进入下一个区组。",-1.5,0,-1.5,left,RRLRR.png,,,,,0,0,0,0,0,9,9,22,,,,,,,,,,,,,,,,,,,,,,,,,,,,,,,,,,,,,,,,,,,,,,,,,,,,,,,,,,,,,,,,196.29575610003667,196.69718529999955,196.67959200002952,196.78097140003229,197.1811651000171,None,left,1,0.5840431000106037,197.1811651000171,None,196.67959200002952,196.78097140003229,196.78097140003229,None,197.7804428000236,None,,,,,,,11013,001,2024_Jan_02_1652,ANT,2021.2.3,60.2680845001238,
1,3,no,up,IC,L,,,,,,Block.xlsx,"你已经完成了第一个实验区组

请稍作休息


点击空格键进入下一个区组。",50,0,1.5,left,RRLRR.png,,,,,0,0,0,0,0,10,10,2,,,,,,,,,,,,,,,,,,,,,,,,,,,,,,,,,,,,,,,,,,,,,,,,,,,,,,,,,,,,,,,,198.18113000004087,198.58221950003644,198.56495490000816,198.66700160002802,199.06656050001038,None,left,1,0.6269354000105523,199.06656050001038,None,198.56495490000816,198.66700160002802,198.66700160002802,None,199.7168004999985,None,,,,,,,11013,001,2024_Jan_02_1652,ANT,2021.2.3,60.2680845001238,
1,11,center,up,IC,L,,,,,,Block.xlsx,"你已经完成了第一个实验区组

请稍作休息


点击空格键进入下一个区组。",0,50,1.5,left,RRLRR.png,,,,,0,0,0,0,0,11,11,10,,,,,,,,,,,,,,,,,,,,,,,,,,,,,,,,,,,,,,,,,,,,,,,,,,,,,,,,,,,,,,,,200.11748429998988,200.51798370003235,200.5028721000417,200.6021483000368,201.00392059999285,None,left,1,0.5694338000030257,201.00392059999285,None,200.5028721000417,200.6021483000368,200.6021483000368,None,201.602958100033,None,,,,,,,11013,001,2024_Jan_02_1652,ANT,2021.2.3,60.2680845001238,
1,9,center,up,C,L,,,,,,Block.xlsx,"你已经完成了第一个实验区组

请稍作休息


点击空格键进入下一个区组。",0,50,1.5,left,LLLLL.png,,,,,0,0,0,0,0,12,12,8,,,,,,,,,,,,,,,,,,,,,,,,,,,,,,,,,,,,,,,,,,,,,,,,,,,,,,,,,,,,,,,,202.00342750002164,202.40560790000018,202.3873362999875,202.48837430001004,202.88999669998884,None,left,1,0.3712404000107199,202.88999669998884,None,202.3873362999875,202.48837430001004,202.48837430001004,None,203.2887039000052,None,,,,,,,11013,001,2024_Jan_02_1652,ANT,2021.2.3,60.2680845001238,
1,13,center,down,C,L,,,,,,Block.xlsx,"你已经完成了第一个实验区组

请稍作休息


点击空格键进入下一个区组。",0,50,-1.5,left,LLLLL.png,,,,,0,0,0,0,0,13,13,12,,,,,,,,,,,,,,,,,,,,,,,,,,,,,,,,,,,,,,,,,,,,,,,,,,,,,,,,,,,,,,,,203.6892724999925,204.09023480000906,204.07356310001342,204.17345030000433,204.5749286999926,None,left,1,0.44627549999859184,204.5749286999926,None,204.07356310001342,204.17345030000433,204.17345030000433,None,205.04127879999578,None,,,,,,,11013,001,2024_Jan_02_1652,ANT,2021.2.3,60.2680845001238,
1,15,center,down,IC,L,,,,,,Block.xlsx,"你已经完成了第一个实验区组

请稍作休息


点击空格键进入下一个区组。",0,50,-1.5,left,RRLRR.png,,,,,0,0,0,0,0,14,14,14,,,,,,,,,,,,,,,,,,,,,,,,,,,,,,,,,,,,,,,,,,,,,,,,,,,,,,,,,,,,,,,,205.44264830002794,205.84267129999353,205.82709480001358,205.92668229999254,206.32710500003304,None,left,1,0.5024956000270322,206.32710500003304,None,205.82709480001358,205.92668229999254,205.92668229999254,None,206.84388950001448,None,,,,,,,11013,001,2024_Jan_02_1652,ANT,2021.2.3,60.2680845001238,
1,17,spatial,up,C,L,,,,,,Block.xlsx,"你已经完成了第一个实验区组

请稍作休息


点击空格键进入下一个区组。",1.5,0,1.5,left,LLLLL.png,,,,,0,0,0,0,0,15,15,16,,,,,,,,,,,,,,,,,,,,,,,,,,,,,,,,,,,,,,,,,,,,,,,,,,,,,,,,,,,,,,,,207.24469830002636,207.64540670003043,207.62942250003107,207.72865270002512,208.12961470003938,None,left,1,0.3637593000312336,208.12961470003938,None,207.62942250003107,207.72865270002512,207.72865270002512,None,208.51309990003938,None,,,,,,,11013,001,2024_Jan_02_1652,ANT,2021.2.3,60.2680845001238,
1,10,center,up,C,R,,,,,,Block.xlsx,"你已经完成了第一个实验区组

请稍作休息


点击空格键进入下一个区组。",0,50,1.5,right,RRRRR.png,,,,,0,0,0,0,0,16,16,9,,,,,,,,,,,,,,,,,,,,,,,,,,,,,,,,,,,,,,,,,,,,,,,,,,,,,,,,,,,,,,,,208.9142400000128,209.31527130003087,209.29858410003362,209.3993883000221,209.7984452000237,None,right,1,0.41473430005135015,209.7984452000237,None,209.29858410003362,209.3993883000221,209.3993883000221,None,210.23214100004407,None,,,,,,,11013,001,2024_Jan_02_1652,ANT,2021.2.3,60.2680845001238,
1,1,no,up,C,L,,,,,,Block.xlsx,"你已经完成了第一个实验区组

请稍作休息


点击空格键进入下一个区组。",50,0,1.5,left,LLLLL.png,,,,,0,0,0,0,0,17,17,0,,,,,,,,,,,,,,,,,,,,,,,,,,,,,,,,,,,,,,,,,,,,,,,,,,,,,,,,,,,,,,,,210.63294590002624,211.03399369999534,211.01739640004234,211.11951089999638,211.5168619999895,None,left,1,0.34434309997595847,211.5168619999895,None,211.01739640004234,211.11951089999638,211.11951089999638,None,211.88452150003286,None,,,,,,,11013,001,2024_Jan_02_1652,ANT,2021.2.3,60.2680845001238,
1,15,center,down,IC,L,,,,,,Block.xlsx,"你已经完成了第一个实验区组

请稍作休息


点击空格键进入下一个区组。",0,50,-1.5,left,RRLRR.png,,,,,0,0,0,0,0,18,18,14,,,,,,,,,,,,,,,,,,,,,,,,,,,,,,,,,,,,,,,,,,,,,,,,,,,,,,,,,,,,,,,,212.28642690001288,212.68745750002563,212.66935470001772,212.77050839998992,213.16995790001238,None,left,1,0.5553201999864541,213.16995790001238,None,212.66935470001772,212.77050839998992,212.77050839998992,None,213.75411030004034,None,,,,,,,11013,001,2024_Jan_02_1652,ANT,2021.2.3,60.2680845001238,
1,6,no,down,C,R,,,,,,Block.xlsx,"你已经完成了第一个实验区组

请稍作休息


点击空格键进入下一个区组。",50,0,-1.5,right,RRRRR.png,,,,,0,0,0,0,0,19,19,5,,,,,,,,,,,,,,,,,,,,,,,,,,,,,,,,,,,,,,,,,,,,,,,,,,,,,,,,,,,,,,,,214.1548604000127,214.55634240002837,214.5386586000095,214.63893529999768,215.04110120004043,None,right,1,0.5164906999561936,215.04110120004043,None,214.5386586000095,214.63893529999768,214.63893529999768,None,215.5734211000381,None,,,,,,,11013,001,2024_Jan_02_1652,ANT,2021.2.3,60.2680845001238,
1,16,center,down,IC,R,,,,,,Block.xlsx,"你已经完成了第一个实验区组

请稍作休息


点击空格键进入下一个区组。",0,50,-1.5,right,LLRLL.png,,,,,0,0,0,0,0,20,20,15,,,,,,,,,,,,,,,,,,,,,,,,,,,,,,,,,,,,,,,,,,,,,,,,,,,,,,,,,,,,,,,,215.9740385999903,216.3746955000097,216.3594596000039,216.45879020000575,216.86026129999664,None,left,0,0.401003299979493,216.86026129999664,None,216.3594596000039,216.45879020000575,216.45879020000575,None,217.27601540001342,None,,,,,,,11013,001,2024_Jan_02_1652,ANT,2021.2.3,60.2680845001238,
1,14,center,down,C,R,,,,,,Block.xlsx,"你已经完成了第一个实验区组

请稍作休息


点击空格键进入下一个区组。",0,50,-1.5,right,RRRRR.png,,,,,0,0,0,0,0,21,21,13,,,,,,,,,,,,,,,,,,,,,,,,,,,,,,,,,,,,,,,,,,,,,,,,,,,,,,,,,,,,,,,,217.67679580004187,218.0782545999973,218.06325509998715,218.1775145000429,218.5618985000183,None,right,1,0.4911877000122331,218.5618985000183,None,218.06325509998715,218.1775145000429,218.1622897000052,None,219.07878949999576,None,,,,,,,11013,001,2024_Jan_02_1652,ANT,2021.2.3,60.2680845001238,
1,12,center,up,IC,R,,,,,,Block.xlsx,"你已经完成了第一个实验区组

请稍作休息


点击空格键进入下一个区组。",0,50,1.5,right,LLRLL.png,,,,,0,0,0,0,0,22,22,11,,,,,,,,,,,,,,,,,,,,,,,,,,,,,,,,,,,,,,,,,,,,,,,,,,,,,,,,,,,,,,,,219.4793808000395,219.88130499998806,219.86332900001435,219.96339300001273,220.36429689999204,None,right,1,0.6413117999909446,220.36429689999204,None,219.86332900001435,219.96339300001273,219.96339300001273,None,221.03158070001518,None,,,,,,,11013,001,2024_Jan_02_1652,ANT,2021.2.3,60.2680845001238,
1,18,spatial,up,C,R,,,,,,Block.xlsx,"你已经完成了第一个实验区组

请稍作休息


点击空格键进入下一个区组。",1.5,0,1.5,right,RRRRR.png,,,,,0,0,0,0,0,23,23,17,,,,,,,,,,,,,,,,,,,,,,,,,,,,,,,,,,,,,,,,,,,,,,,,,,,,,,,,,,,,,,,,221.43295869999565,221.83340140001383,221.81696700002067,221.9181821999955,222.3176897999947,None,right,1,0.41535280004609376,222.3176897999947,None,221.81696700002067,221.9181821999955,221.9181821999955,None,222.75076359999366,None,,,,,,,11013,001,2024_Jan_02_1652,ANT,2021.2.3,60.2680845001238,
1,20,spatial,up,IC,R,,,,,,Block.xlsx,"你已经完成了第一个实验区组

请稍作休息


点击空格键进入下一个区组。",1.5,0,1.5,right,LLRLL.png,,,,,0,0,0,0,1,0,24,19,,,,,,,,,,,,,,,,,,,,,,,,,,,,,,,,,,,,,,,,,,,,,,,,,,,,,,,,,,,,,,,,223.15154450002592,223.5525833000429,223.5356010000105,223.63700079999398,224.03755970002385,None,right,1,0.3916249999892898,224.03755970002385,None,223.5356010000105,223.63700079999398,223.63700079999398,None,224.45335470000282,None,,,,,,,11013,001,2024_Jan_02_1652,ANT,2021.2.3,60.2680845001238,
1,20,spatial,up,IC,R,,,,,,Block.xlsx,"你已经完成了第一个实验区组

请稍作休息


点击空格键进入下一个区组。",1.5,0,1.5,right,LLRLL.png,,,,,0,0,0,0,1,1,25,19,,,,,,,,,,,,,,,,,,,,,,,,,,,,,,,,,,,,,,,,,,,,,,,,,,,,,,,,,,,,,,,,224.85506570001598,225.25556560000405,225.2379850000143,225.3399883999955,225.73983909998788,None,right,1,0.3374152000178583,225.73983909998788,None,225.2379850000143,225.3399883999955,225.3399883999955,None,226.10589170001913,None,,,,,,,11013,001,2024_Jan_02_1652,ANT,2021.2.3,60.2680845001238,
1,24,spatial,down,IC,R,,,,,,Block.xlsx,"你已经完成了第一个实验区组

请稍作休息


点击空格键进入下一个区组。",-1.5,0,-1.5,right,LLRLL.png,,,,,0,0,0,0,1,2,26,23,,,,,,,,,,,,,,,,,,,,,,,,,,,,,,,,,,,,,,,,,,,,,,,,,,,,,,,,,,,,,,,,226.5063972999924,226.9092207000358,226.8912320000236,226.99093339999672,227.39114560000598,None,right,1,0.3981509000295773,227.39114560000598,None,226.8912320000236,226.99093339999672,226.99093339999672,None,227.80843110004207,None,,,,,,,11013,001,2024_Jan_02_1652,ANT,2021.2.3,60.2680845001238,
1,7,no,down,IC,L,,,,,,Block.xlsx,"你已经完成了第一个实验区组

请稍作休息


点击空格键进入下一个区组。",50,0,-1.5,left,RRLRR.png,,,,,0,0,0,0,1,3,27,6,,,,,,,,,,,,,,,,,,,,,,,,,,,,,,,,,,,,,,,,,,,,,,,,,,,,,,,,,,,,,,,,228.20956170000136,228.6105949000339,228.59425720002037,228.69478560000425,229.09436119999737,None,left,1,0.6467848000465892,229.09436119999737,None,228.59425720002037,228.69478560000425,228.69478560000425,None,229.76129430002766,None,,,,,,,11013,001,2024_Jan_02_1652,ANT,2021.2.3,60.2680845001238,
1,2,no,up,C,R,,,,,,Block.xlsx,"你已经完成了第一个实验区组

请稍作休息


点击空格键进入下一个区组。",50,0,1.5,right,RRRRR.png,,,,,0,0,0,0,1,4,28,1,,,,,,,,,,,,,,,,,,,,,,,,,,,,,,,,,,,,,,,,,,,,,,,,,,,,,,,,,,,,,,,,230.16239330003737,230.565057800035,230.54635970003437,230.64714840002125,231.0465265000239,None,right,1,0.40699340001447126,231.0465265000239,None,230.54635970003437,230.64714840002125,230.64714840002125,None,231.48056510003516,None,,,,,,,11013,001,2024_Jan_02_1652,ANT,2021.2.3,60.2680845001238,
1,1,no,up,C,L,,,,,,Block.xlsx,"你已经完成了第一个实验区组

请稍作休息


点击空格键进入下一个区组。",50,0,1.5,left,LLLLL.png,,,,,0,0,0,0,1,5,29,0,,,,,,,,,,,,,,,,,,,,,,,,,,,,,,,,,,,,,,,,,,,,,,,,,,,,,,,,,,,,,,,,231.88098880002508,232.28297460003523,232.26479960000142,232.3673240999924,232.76641040004324,None,left,1,0.4313434999785386,232.76641040004324,None,232.26479960000142,232.3673240999924,232.3673240999924,None,233.2164097999921,None,,,,,,,11013,001,2024_Jan_02_1652,ANT,2021.2.3,60.2680845001238,
1,21,spatial,down,C,L,,,,,,Block.xlsx,"你已经完成了第一个实验区组

请稍作休息


点击空格键进入下一个区组。",-1.5,0,-1.5,left,LLLLL.png,,,,,0,0,0,0,1,6,30,20,,,,,,,,,,,,,,,,,,,,,,,,,,,,,,,,,,,,,,,,,,,,,,,,,,,,,,,,,,,,,,,,233.61688720004167,234.01858810003614,234.00129770004423,234.101141799998,234.50296160002472,None,left,1,0.34226960001979023,234.50296160002472,None,234.00129770004423,234.101141799998,234.101141799998,None,234.8688916999963,None,,,,,,,11013,001,2024_Jan_02_1652,ANT,2021.2.3,60.2680845001238,
1,11,center,up,IC,L,,,,,,Block.xlsx,"你已经完成了第一个实验区组

请稍作休息


点击空格键进入下一个区组。",0,50,1.5,left,RRLRR.png,,,,,0,0,0,0,1,7,31,10,,,,,,,,,,,,,,,,,,,,,,,,,,,,,,,,,,,,,,,,,,,,,,,,,,,,,,,,,,,,,,,,235.2701307000243,235.6712354000192,235.65342610003427,235.7551963000442,236.15398000000278,None,left,1,0.47522429999662563,236.15398000000278,None,235.65342610003427,235.7551963000442,235.7551963000442,None,236.65600750001613,None,,,,,,,11013,001,2024_Jan_02_1652,ANT,2021.2.3,60.2680845001238,
1,3,no,up,IC,L,,,,,,Block.xlsx,"你已经完成了第一个实验区组

请稍作休息


点击空格键进入下一个区组。",50,0,1.5,left,RRLRR.png,,,,,0,0,0,0,1,8,32,2,,,,,,,,,,,,,,,,,,,,,,,,,,,,,,,,,,,,,,,,,,,,,,,,,,,,,,,,,,,,,,,,237.05563950003125,237.45631139999023,237.43984940001974,237.54109060001792,237.94142970000394,None,left,1,0.4399952000239864,237.94142970000394,None,237.43984940001974,237.54109060001792,237.54109060001792,None,238.40769560000626,None,,,,,,,11013,001,2024_Jan_02_1652,ANT,2021.2.3,60.2680845001238,
1,12,center,up,IC,R,,,,,,Block.xlsx,"你已经完成了第一个实验区组

请稍作休息


点击空格键进入下一个区组。",0,50,1.5,right,LLRLL.png,,,,,0,0,0,0,1,9,33,11,,,,,,,,,,,,,,,,,,,,,,,,,,,,,,,,,,,,,,,,,,,,,,,,,,,,,,,,,,,,,,,,238.80879979999736,239.2084990000003,239.19393330003368,239.31019590003416,239.69341100001475,None,right,1,0.6003912999876775,239.69341100001475,None,239.19393330003368,239.31019590003416,239.29262600000948,None,240.31001060002018,None,,,,,,,11013,001,2024_Jan_02_1652,ANT,2021.2.3,60.2680845001238,
1,9,center,up,C,L,,,,,,Block.xlsx,"你已经完成了第一个实验区组

请稍作休息


点击空格键进入下一个区组。",0,50,1.5,left,LLLLL.png,,,,,0,0,0,0,1,10,34,8,,,,,,,,,,,,,,,,,,,,,,,,,,,,,,,,,,,,,,,,,,,,,,,,,,,,,,,,,,,,,,,,240.71149509999668,241.1133845000295,241.09539590001805,241.19624660001136,241.59611919999588,None,left,1,0.36102730000857264,241.59611919999588,None,241.09539590001805,241.19624660001136,241.19624660001136,None,241.97933599998942,None,,,,,,,11013,001,2024_Jan_02_1652,ANT,2021.2.3,60.2680845001238,
1,24,spatial,down,IC,R,,,,,,Block.xlsx,"你已经完成了第一个实验区组

请稍作休息


点击空格键进入下一个区组。",-1.5,0,-1.5,right,LLRLL.png,,,,,0,0,0,0,1,11,35,23,,,,,,,,,,,,,,,,,,,,,,,,,,,,,,,,,,,,,,,,,,,,,,,,,,,,,,,,,,,,,,,,242.38011020002887,242.7811675000121,242.76428750000196,242.86517040000763,243.26477880001767,None,right,1,0.4289060999872163,243.26477880001767,None,242.76428750000196,242.86517040000763,242.86517040000763,None,243.71525910001947,None,,,,,,,11013,001,2024_Jan_02_1652,ANT,2021.2.3,60.2680845001238,
1,4,no,up,IC,R,,,,,,Block.xlsx,"你已经完成了第一个实验区组

请稍作休息


点击空格键进入下一个区组。",50,0,1.5,right,LLRLL.png,,,,,0,0,0,0,1,12,36,3,,,,,,,,,,,,,,,,,,,,,,,,,,,,,,,,,,,,,,,,,,,,,,,,,,,,,,,,,,,,,,,,244.1159944999963,244.51730629999656,244.50201880000532,244.6017589000403,245.0005234000273,None,right,1,0.5568736000568606,245.0005234000273,None,244.50201880000532,244.6017589000403,244.6017589000403,None,245.58514640002977,None,,,,,,,11013,001,2024_Jan_02_1652,ANT,2021.2.3,60.2680845001238,
1,4,no,up,IC,R,,,,,,Block.xlsx,"你已经完成了第一个实验区组

请稍作休息


点击空格键进入下一个区组。",50,0,1.5,right,LLRLL.png,,,,,0,0,0,0,1,13,37,3,,,,,,,,,,,,,,,,,,,,,,,,,,,,,,,,,,,,,,,,,,,,,,,,,,,,,,,,,,,,,,,,245.98527060000924,246.38726039999165,246.3691734999884,246.46991490002256,246.87062190001598,None,right,1,0.3354968000203371,246.87062190001598,None,246.3691734999884,246.46991490002256,246.46991490002256,None,247.22048830002313,None,,,,,,,11013,001,2024_Jan_02_1652,ANT,2021.2.3,60.2680845001238,
1,21,spatial,down,C,L,,,,,,Block.xlsx,"你已经完成了第一个实验区组

请稍作休息


点击空格键进入下一个区组。",-1.5,0,-1.5,left,LLLLL.png,,,,,0,0,0,0,1,14,38,20,,,,,,,,,,,,,,,,,,,,,,,,,,,,,,,,,,,,,,,,,,,,,,,,,,,,,,,,,,,,,,,,247.62090790004004,248.02363950002473,248.0055448000203,248.10572940000566,248.5059642000124,None,left,1,0.39538569998694584,248.5059642000124,None,248.0055448000203,248.10572940000566,248.10572940000566,None,248.92301249998854,None,,,,,,,11013,001,2024_Jan_02_1652,ANT,2021.2.3,60.2680845001238,
1,20,spatial,up,IC,R,,,,,,Block.xlsx,"你已经完成了第一个实验区组

请稍作休息


点击空格键进入下一个区组。",1.5,0,1.5,right,LLRLL.png,,,,,0,0,0,0,1,15,39,19,,,,,,,,,,,,,,,,,,,,,,,,,,,,,,,,,,,,,,,,,,,,,,,,,,,,,,,,,,,,,,,,249.3234255000134,249.72465550003108,249.70733230002224,249.80934700003127,250.2096057999879,None,right,1,0.37199700000928715,250.2096057999879,None,249.70733230002224,249.80934700003127,249.80934700003127,None,250.60866309999255,None,,,,,,,11013,001,2024_Jan_02_1652,ANT,2021.2.3,60.2680845001238,
1,10,center,up,C,R,,,,,,Block.xlsx,"你已经完成了第一个实验区组

请稍作休息


点击空格键进入下一个区组。",0,50,1.5,right,RRRRR.png,,,,,0,0,0,0,1,16,40,9,,,,,,,,,,,,,,,,,,,,,,,,,,,,,,,,,,,,,,,,,,,,,,,,,,,,,,,,,,,,,,,,251.0095506000216,251.4116229999927,251.3938349999953,251.49506630003452,251.89390730002197,None,right,1,0.44777550001163036,251.89390730002197,None,251.3938349999953,251.49506630003452,251.49506630003452,None,252.3618056999985,None,,,,,,,11013,001,2024_Jan_02_1652,ANT,2021.2.3,60.2680845001238,
1,22,spatial,down,C,R,,,,,,Block.xlsx,"你已经完成了第一个实验区组

请稍作休息


点击空格键进入下一个区组。",-1.5,0,-1.5,right,RRRRR.png,,,,,0,0,0,0,1,17,41,21,,,,,,,,,,,,,,,,,,,,,,,,,,,,,,,,,,,,,,,,,,,,,,,,,,,,,,,,,,,,,,,,252.76288880000357,253.16253750002943,253.14641230000416,253.24647499999264,253.64675030001672,None,right,1,0.4149961000075564,253.64675030001672,None,253.14641230000416,253.24647499999264,253.24647499999264,None,254.08049329998903,None,,,,,,,11013,001,2024_Jan_02_1652,ANT,2021.2.3,60.2680845001238,
1,5,no,down,C,L,,,,,,Block.xlsx,"你已经完成了第一个实验区组

请稍作休息


点击空格键进入下一个区组。",50,0,-1.5,left,LLLLL.png,,,,,0,0,0,0,1,18,42,4,,,,,,,,,,,,,,,,,,,,,,,,,,,,,,,,,,,,,,,,,,,,,,,,,,,,,,,,,,,,,,,,254.48130400001537,254.88176250003744,254.86534000001848,254.96630560001358,255.36675740004284,None,left,1,0.4306852999725379,255.36675740004284,None,254.86534000001848,254.96630560001358,254.96630560001358,None,255.81691009999486,None,,,,,,,11013,001,2024_Jan_02_1652,ANT,2021.2.3,60.2680845001238,
1,22,spatial,down,C,R,,,,,,Block.xlsx,"你已经完成了第一个实验区组

请稍作休息


点击空格键进入下一个区组。",-1.5,0,-1.5,right,RRRRR.png,,,,,0,0,0,0,1,19,43,21,,,,,,,,,,,,,,,,,,,,,,,,,,,,,,,,,,,,,,,,,,,,,,,,,,,,,,,,,,,,,,,,256.2171493000351,256.61878300004173,256.60106509999605,256.70186900004046,257.10286949999863,None,right,1,0.4153117000241764,257.10286949999863,None,256.60106509999605,256.70186900004046,256.70186900004046,None,257.53573260002304,None,,,,,,,11013,001,2024_Jan_02_1652,ANT,2021.2.3,60.2680845001238,
1,18,spatial,up,C,R,,,,,,Block.xlsx,"你已经完成了第一个实验区组

请稍作休息


点击空格键进入下一个区组。",1.5,0,1.5,right,RRRRR.png,,,,,0,0,0,0,1,20,44,17,,,,,,,,,,,,,,,,,,,,,,,,,,,,,,,,,,,,,,,,,,,,,,,,,,,,,,,,,,,,,,,,257.936265300028,258.3382632000139,258.32062650000444,258.422400200041,258.821664099989,None,right,1,0.4484579000272788,258.821664099989,None,258.32062650000444,258.422400200041,258.422400200041,None,259.28832110000076,None,,,,,,,11013,001,2024_Jan_02_1652,ANT,2021.2.3,60.2680845001238,
1,3,no,up,IC,L,,,,,,Block.xlsx,"你已经完成了第一个实验区组

请稍作休息


点击空格键进入下一个区组。",50,0,1.5,left,RRLRR.png,,,,,0,0,0,0,1,21,45,2,,,,,,,,,,,,,,,,,,,,,,,,,,,,,,,,,,,,,,,,,,,,,,,,,,,,,,,,,,,,,,,,259.6895765000372,260.0898321000277,260.0737807000405,260.17375920002814,260.57356069999514,None,left,1,0.40778240002691746,260.57356069999514,None,260.0737807000405,260.17375920002814,260.17375920002814,None,261.00762380001834,None,,,,,,,11013,001,2024_Jan_02_1652,ANT,2021.2.3,60.2680845001238,
1,22,spatial,down,C,R,,,,,,Block.xlsx,"你已经完成了第一个实验区组

请稍作休息


点击空格键进入下一个区组。",-1.5,0,-1.5,right,RRRRR.png,,,,,0,0,0,0,1,22,46,21,,,,,,,,,,,,,,,,,,,,,,,,,,,,,,,,,,,,,,,,,,,,,,,,,,,,,,,,,,,,,,,,261.40879630000563,261.8106077000266,261.79212440003175,261.8932228999911,262.2933187999879,None,right,1,0.3119750000187196,262.2933187999879,None,261.79212440003175,261.8932228999911,261.8932228999911,None,262.626624800032,None,,,,,,,11013,001,2024_Jan_02_1652,ANT,2021.2.3,60.2680845001238,
1,5,no,down,C,L,,,,,,Block.xlsx,"你已经完成了第一个实验区组

请稍作休息


点击空格键进入下一个区组。",50,0,-1.5,left,LLLLL.png,,,,,0,0,0,0,1,23,47,4,,,,,,,,,,,,,,,,,,,,,,,,,,,,,,,,,,,,,,,,,,,,,,,,,,,,,,,,,,,,,,,,263.02812450000783,263.42803410004126,263.41235450003296,263.51112949999515,263.91287350002676,None,left,1,0.3724774000002071,263.91287350002676,None,263.41235450003296,263.51112949999515,263.51112949999515,None,264.3124568000203,None,,,,,,,11013,001,2024_Jan_02_1652,ANT,2021.2.3,60.2680845001238,
1,9,center,up,C,L,,,,,,Block.xlsx,"你已经完成了第一个实验区组

请稍作休息


点击空格键进入下一个区组。",0,50,1.5,left,LLLLL.png,,,,,0,0,0,0,2,0,48,8,,,,,,,,,,,,,,,,,,,,,,,,,,,,,,,,,,,,,,,,,,,,,,,,,,,,,,,,,,,,,,,,264.71299989998806,265.11462060001213,265.0978661000263,265.1982468999922,265.59897300001467,None,left,1,0.3423375000129454,265.59897300001467,None,265.0978661000263,265.1982468999922,265.1982468999922,None,265.9647494000383,None,,,,,,,11013,001,2024_Jan_02_1652,ANT,2021.2.3,60.2680845001238,
1,8,no,down,IC,R,,,,,,Block.xlsx,"你已经完成了第一个实验区组

请稍作休息


点击空格键进入下一个区组。",50,0,-1.5,right,LLRLL.png,,,,,0,0,0,0,2,1,49,7,,,,,,,,,,,,,,,,,,,,,,,,,,,,,,,,,,,,,,,,,,,,,,,,,,,,,,,,,,,,,,,,266.36553880001884,266.76682170003187,266.7506403999869,266.8512427000096,267.2517984000151,None,right,1,0.5934062000014819,267.2517984000151,None,266.7506403999869,266.8512427000096,266.8512427000096,None,267.8677342000301,None,,,,,,,11013,001,2024_Jan_02_1652,ANT,2021.2.3,60.2680845001238,
1,23,spatial,down,IC,L,,,,,,Block.xlsx,"你已经完成了第一个实验区组

请稍作休息


点击空格键进入下一个区组。",-1.5,0,-1.5,left,RRLRR.png,,,,,0,0,0,0,2,2,50,22,,,,,,,,,,,,,,,,,,,,,,,,,,,,,,,,,,,,,,,,,,,,,,,,,,,,,,,,,,,,,,,,268.2683499000268,268.66891870001564,268.6537046000012,268.7540108000394,269.1528697999893,None,left,1,0.45302040001843125,269.1528697999893,None,268.6537046000012,268.7540108000394,268.7540108000394,None,269.63699130003806,None,,,,,,,11013,001,2024_Jan_02_1652,ANT,2021.2.3,60.2680845001238,
1,2,no,up,C,R,,,,,,Block.xlsx,"你已经完成了第一个实验区组

请稍作休息


点击空格键进入下一个区组。",50,0,1.5,right,RRRRR.png,,,,,0,0,0,0,2,3,51,1,,,,,,,,,,,,,,,,,,,,,,,,,,,,,,,,,,,,,,,,,,,,,,,,,,,,,,,,,,,,,,,,270.03741889999947,270.4399615000002,270.4219446000061,270.52176600001985,270.9244669000036,None,right,1,0.39287660003174096,270.9244669000036,None,270.4219446000061,270.52176600001985,270.52176600001985,None,271.34043630003,None,,,,,,,11013,001,2024_Jan_02_1652,ANT,2021.2.3,60.2680845001238,
1,17,spatial,up,C,L,,,,,,Block.xlsx,"你已经完成了第一个实验区组

请稍作休息


点击空格键进入下一个区组。",1.5,0,1.5,left,LLLLL.png,,,,,0,0,0,0,2,4,52,16,,,,,,,,,,,,,,,,,,,,,,,,,,,,,,,,,,,,,,,,,,,,,,,,,,,,,,,,,,,,,,,,271.74000680004247,272.1428933000425,272.1239954000339,272.22649000003,272.62528010003734,None,left,1,0.356028999958653,272.62528010003734,None,272.1239954000339,272.22649000003,272.22649000003,None,273.008612500038,None,,,,,,,11013,001,2024_Jan_02_1652,ANT,2021.2.3,60.2680845001238,
1,24,spatial,down,IC,R,,,,,,Block.xlsx,"你已经完成了第一个实验区组

请稍作休息


点击空格键进入下一个区组。",-1.5,0,-1.5,right,LLRLL.png,,,,,0,0,0,0,2,5,53,23,,,,,,,,,,,,,,,,,,,,,,,,,,,,,,,,,,,,,,,,,,,,,,,,,,,,,,,,,,,,,,,,273.40929540002253,273.8106972000096,273.793215600017,273.8933114000247,274.2958584000007,None,right,1,0.37343120004516095,274.2958584000007,None,273.793215600017,273.8933114000247,273.8933114000247,None,274.6945335000055,None,,,,,,,11013,001,2024_Jan_02_1652,ANT,2021.2.3,60.2680845001238,
1,8,no,down,IC,R,,,,,,Block.xlsx,"你已经完成了第一个实验区组

请稍作休息


点击空格键进入下一个区组。",50,0,-1.5,right,LLRLL.png,,,,,0,0,0,0,2,6,54,7,,,,,,,,,,,,,,,,,,,,,,,,,,,,,,,,,,,,,,,,,,,,,,,,,,,,,,,,,,,,,,,,275.09513020003214,275.4970342000015,275.4816640000208,275.5964188000071,275.979849299998,None,left,0,0.41793860000325367,275.979849299998,None,275.4816640000208,275.5964188000071,275.57918669999344,None,276.4137135000201,None,,,,,,,11013,001,2024_Jan_02_1652,ANT,2021.2.3,60.2680845001238,
1,10,center,up,C,R,,,,,,Block.xlsx,"你已经完成了第一个实验区组

请稍作休息


点击空格键进入下一个区组。",0,50,1.5,right,RRRRR.png,,,,,0,0,0,0,2,7,55,9,,,,,,,,,,,,,,,,,,,,,,,,,,,,,,,,,,,,,,,,,,,,,,,,,,,,,,,,,,,,,,,,276.81423750001704,277.21611580002354,277.1983404000057,277.2987701999955,277.69975890003843,None,right,1,0.36950380000052974,277.69975890003843,None,277.1983404000057,277.2987701999955,277.2987701999955,None,278.0993002000032,None,,,,,,,11013,001,2024_Jan_02_1652,ANT,2021.2.3,60.2680845001238,
1,4,no,up,IC,R,,,,,,Block.xlsx,"你已经完成了第一个实验区组

请稍作休息


点击空格键进入下一个区组。",50,0,1.5,right,LLRLL.png,,,,,0,0,0,0,2,8,56,3,,,,,,,,,,,,,,,,,,,,,,,,,,,,,,,,,,,,,,,,,,,,,,,,,,,,,,,,,,,,,,,,278.5000324000139,278.90079179999884,278.88553750002757,278.98523769999156,279.3849276000401,None,right,1,0.428721799980849,279.3849276000401,None,278.88553750002757,278.98523769999156,278.98523769999156,None,279.8353861999931,None,,,,,,,11013,001,2024_Jan_02_1652,ANT,2021.2.3,60.2680845001238,
1,15,center,down,IC,L,,,,,,Block.xlsx,"你已经完成了第一个实验区组

请稍作休息


点击空格键进入下一个区组。",0,50,-1.5,left,RRLRR.png,,,,,0,0,0,0,2,9,57,14,,,,,,,,,,,,,,,,,,,,,,,,,,,,,,,,,,,,,,,,,,,,,,,,,,,,,,,,,,,,,,,,280.236566400039,280.6387021000264,280.6201197000337,280.721311900008,281.12096920004115,None,left,1,0.5972004999639466,281.12096920004115,None,280.6201197000337,280.721311900008,280.721311900008,None,281.73827390000224,None,,,,,,,11013,001,2024_Jan_02_1652,ANT,2021.2.3,60.2680845001238,
1,23,spatial,down,IC,L,,,,,,Block.xlsx,"你已经完成了第一个实验区组

请稍作休息


点击空格键进入下一个区组。",-1.5,0,-1.5,left,RRLRR.png,,,,,0,0,0,0,2,10,58,22,,,,,,,,,,,,,,,,,,,,,,,,,,,,,,,,,,,,,,,,,,,,,,,,,,,,,,,,,,,,,,,,282.13881330000004,282.5405170000158,282.5227599000209,282.6235830000369,283.02355119999265,None,left,1,0.3736817999742925,283.02355119999265,None,282.5227599000209,282.6235830000369,282.6235830000369,None,283.4239690999966,None,,,,,,,11013,001,2024_Jan_02_1652,ANT,2021.2.3,60.2680845001238,
1,5,no,down,C,L,,,,,,Block.xlsx,"你已经完成了第一个实验区组

请稍作休息


点击空格键进入下一个区组。",50,0,-1.5,left,LLLLL.png,,,,,0,0,0,0,2,11,59,4,,,,,,,,,,,,,,,,,,,,,,,,,,,,,,,,,,,,,,,,,,,,,,,,,,,,,,,,,,,,,,,,283.82477980002295,284.225935399998,284.2087256000377,284.3097060000291,284.7096330000204,None,left,1,0.35161149996565655,284.7096330000204,None,284.2087256000377,284.3097060000291,284.3097060000291,None,285.07636090001324,None,,,,,,,11013,001,2024_Jan_02_1652,ANT,2021.2.3,60.2680845001238,
1,22,spatial,down,C,R,,,,,,Block.xlsx,"你已经完成了第一个实验区组

请稍作休息


点击空格键进入下一个区组。",-1.5,0,-1.5,right,RRRRR.png,,,,,0,0,0,0,2,12,60,21,,,,,,,,,,,,,,,,,,,,,,,,,,,,,,,,,,,,,,,,,,,,,,,,,,,,,,,,,,,,,,,,285.47767650004243,285.8789174000267,285.86133390001487,285.9615056000184,286.3637206000276,None,right,1,0.3698514000279829,286.3637206000276,None,285.86133390001487,285.9615056000184,285.9615056000184,None,286.7623713000212,None,,,,,,,11013,001,2024_Jan_02_1652,ANT,2021.2.3,60.2680845001238,
1,19,spatial,up,IC,L,,,,,,Block.xlsx,"你已经完成了第一个实验区组

请稍作休息


点击空格键进入下一个区组。",1.5,0,1.5,left,RRLRR.png,,,,,0,0,0,0,2,13,61,18,,,,,,,,,,,,,,,,,,,,,,,,,,,,,,,,,,,,,,,,,,,,,,,,,,,,,,,,,,,,,,,,287.1630353000364,287.56587520003086,287.5479881000356,287.64836550003383,288.0489673000411,None,left,1,0.3723498999606818,288.0489673000411,None,287.5479881000356,287.64836550003383,287.64836550003383,None,288.44811070000287,None,,,,,,,11013,001,2024_Jan_02_1652,ANT,2021.2.3,60.2680845001238,
1,16,center,down,IC,R,,,,,,Block.xlsx,"你已经完成了第一个实验区组

请稍作休息


点击空格键进入下一个区组。",0,50,-1.5,right,LLRLL.png,,,,,0,0,0,0,2,14,62,15,,,,,,,,,,,,,,,,,,,,,,,,,,,,,,,,,,,,,,,,,,,,,,,,,,,,,,,,,,,,,,,,288.8494442999945,289.25135480001336,289.23314200004097,289.33358830004,289.73412600002484,None,left,0,0.4873319999896921,289.73412600002484,None,289.23314200004097,289.33358830004,289.33358830004,None,290.2509175000014,None,,,,,,,11013,001,2024_Jan_02_1652,ANT,2021.2.3,60.2680845001238,
1,13,center,down,C,L,,,,,,Block.xlsx,"你已经完成了第一个实验区组

请稍作休息


点击空格键进入下一个区组。",0,50,-1.5,left,LLLLL.png,,,,,0,0,0,0,2,15,63,12,,,,,,,,,,,,,,,,,,,,,,,,,,,,,,,,,,,,,,,,,,,,,,,,,,,,,,,,,,,,,,,,290.65187300002435,291.05333110003266,291.0354592000367,291.13694060000125,291.5371301000123,None,left,1,0.4443733999505639,291.5371301000123,None,291.0354592000367,291.13694060000125,291.13694060000125,None,292.00357940001413,None,,,,,,,11013,001,2024_Jan_02_1652,ANT,2021.2.3,60.2680845001238,
1,8,no,down,IC,R,,,,,,Block.xlsx,"你已经完成了第一个实验区组

请稍作休息


点击空格键进入下一个区组。",50,0,-1.5,right,LLRLL.png,,,,,0,0,0,0,2,16,64,7,,,,,,,,,,,,,,,,,,,,,,,,,,,,,,,,,,,,,,,,,,,,,,,,,,,,,,,,,,,,,,,,292.4039593000198,292.8058896000148,292.788526999997,292.8890222000191,293.28926340001635,None,right,1,0.3646264999988489,293.28926340001635,None,292.788526999997,292.8890222000191,292.8890222000191,None,293.6727718000184,None,,,,,,,11013,001,2024_Jan_02_1652,ANT,2021.2.3,60.2680845001238,
1,6,no,down,C,R,,,,,,Block.xlsx,"你已经完成了第一个实验区组

请稍作休息


点击空格键进入下一个区组。",50,0,-1.5,right,RRRRR.png,,,,,0,0,0,0,2,17,65,5,,,,,,,,,,,,,,,,,,,,,,,,,,,,,,,,,,,,,,,,,,,,,,,,,,,,,,,,,,,,,,,,294.0730651000049,294.4750753000262,294.4571585000376,294.5579542000196,294.95819830003893,None,right,1,0.3990480999927968,294.95819830003893,None,294.4571585000376,294.5579542000196,294.5579542000196,None,295.3749698000029,None,,,,,,,11013,001,2024_Jan_02_1652,ANT,2021.2.3,60.2680845001238,
1,20,spatial,up,IC,R,,,,,,Block.xlsx,"你已经完成了第一个实验区组

请稍作休息


点击空格键进入下一个区组。",1.5,0,1.5,right,LLRLL.png,,,,,0,0,0,0,2,18,66,19,,,,,,,,,,,,,,,,,,,,,,,,,,,,,,,,,,,,,,,,,,,,,,,,,,,,,,,,,,,,,,,,295.7756551000057,296.17704959999537,296.1601398999919,296.26084639999317,296.6609790000366,None,right,1,0.3691664999932982,296.6609790000366,None,296.1601398999919,296.26084639999317,296.26084639999317,None,297.0446068000165,None,,,,,,,11013,001,2024_Jan_02_1652,ANT,2021.2.3,60.2680845001238,
1,11,center,up,IC,L,,,,,,Block.xlsx,"你已经完成了第一个实验区组

请稍作休息


点击空格键进入下一个区组。",0,50,1.5,left,RRLRR.png,,,,,0,0,0,0,2,19,67,10,,,,,,,,,,,,,,,,,,,,,,,,,,,,,,,,,,,,,,,,,,,,,,,,,,,,,,,,,,,,,,,,297.44489839999005,297.846684499993,297.8292339000036,297.92896550003206,298.3298425000394,None,left,1,0.4915274999802932,298.3298425000394,None,297.8292339000036,297.92896550003206,297.92896550003206,None,298.84698860003846,None,,,,,,,11013,001,2024_Jan_02_1652,ANT,2021.2.3,60.2680845001238,
1,2,no,up,C,R,,,,,,Block.xlsx,"你已经完成了第一个实验区组

请稍作休息


点击空格键进入下一个区组。",50,0,1.5,right,RRRRR.png,,,,,0,0,0,0,2,20,68,1,,,,,,,,,,,,,,,,,,,,,,,,,,,,,,,,,,,,,,,,,,,,,,,,,,,,,,,,,,,,,,,,299.2476128000417,299.64871420001145,299.63309650000883,299.74850600003265,300.13284909998765,None,right,1,0.408480399986729,300.13284909998765,None,299.63309650000883,299.74850600003265,299.73285359999863,None,300.56629560003057,None,,,,,,,11013,001,2024_Jan_02_1652,ANT,2021.2.3,60.2680845001238,
1,5,no,down,C,L,,,,,,Block.xlsx,"你已经完成了第一个实验区组

请稍作休息


点击空格键进入下一个区组。",50,0,-1.5,left,LLLLL.png,,,,,0,0,0,0,2,21,69,4,,,,,,,,,,,,,,,,,,,,,,,,,,,,,,,,,,,,,,,,,,,,,,,,,,,,,,,,,,,,,,,,300.9668851000024,301.3676780000096,301.35172640002565,301.45247310004197,301.8533304000157,None,left,1,0.40805959998397157,301.8533304000157,None,301.35172640002565,301.45247310004197,301.45247310004197,None,302.2854238,None,,,,,,,11013,001,2024_Jan_02_1652,ANT,2021.2.3,60.2680845001238,
1,19,spatial,up,IC,L,,,,,,Block.xlsx,"你已经完成了第一个实验区组

请稍作休息


点击空格键进入下一个区组。",1.5,0,1.5,left,RRLRR.png,,,,,0,0,0,0,2,22,70,18,,,,,,,,,,,,,,,,,,,,,,,,,,,,,,,,,,,,,,,,,,,,,,,,,,,,,,,,,,,,,,,,302.68619979999494,303.0880423000199,303.0706802000059,303.17086200002814,303.5726700000232,None,left,1,0.3845234999898821,303.5726700000232,None,303.0706802000059,303.17086200002814,303.17086200002814,None,303.98888449999504,None,,,,,,,11013,001,2024_Jan_02_1652,ANT,2021.2.3,60.2680845001238,
1,11,center,up,IC,L,,,,,,Block.xlsx,"你已经完成了第一个实验区组

请稍作休息


点击空格键进入下一个区组。",0,50,1.5,left,RRLRR.png,,,,,0,0,0,0,2,23,71,10,,,,,,,,,,,,,,,,,,,,,,,,,,,,,,,,,,,,,,,,,,,,,,,,,,,,,,,,,,,,,,,,304.38846990000457,304.78943649999565,304.7727992000291,304.87298650003504,305.27346170000965,None,left,1,0.3484313999651931,305.27346170000965,None,304.7727992000291,304.87298650003504,304.87298650003504,None,305.6403857000405,None,,,,,,,11013,001,2024_Jan_02_1652,ANT,2021.2.3,60.2680845001238,
1,9,center,up,C,L,,,,,,Block.xlsx,"你已经完成了第一个实验区组

请稍作休息


点击空格键进入下一个区组。",0,50,1.5,left,LLLLL.png,,,,,0,0,0,0,3,0,72,8,,,,,,,,,,,,,,,,,,,,,,,,,,,,,,,,,,,,,,,,,,,,,,,,,,,,,,,,,,,,,,,,306.04103700001724,306.443531900004,306.4250696999952,306.5265502000111,306.9267088000197,None,left,1,0.4146797999856062,306.9267088000197,None,306.4250696999952,306.5265502000111,306.5265502000111,None,307.3595944000408,None,,,,,,,11013,001,2024_Jan_02_1652,ANT,2021.2.3,60.2680845001238,
1,23,spatial,down,IC,L,,,,,,Block.xlsx,"你已经完成了第一个实验区组

请稍作休息


点击空格键进入下一个区组。",-1.5,0,-1.5,left,RRLRR.png,,,,,0,0,0,0,3,1,73,22,,,,,,,,,,,,,,,,,,,,,,,,,,,,,,,,,,,,,,,,,,,,,,,,,,,,,,,,,,,,,,,,307.76017790002516,308.16171320003923,308.1451013000333,308.246336500044,308.64485770004103,None,left,1,0.4168976999935694,308.64485770004103,None,308.1451013000333,308.246336500044,308.246336500044,None,309.0786164000165,None,,,,,,,11013,001,2024_Jan_02_1652,ANT,2021.2.3,60.2680845001238,
1,7,no,down,IC,L,,,,,,Block.xlsx,"你已经完成了第一个实验区组

请稍作休息


点击空格键进入下一个区组。",50,0,-1.5,left,RRLRR.png,,,,,0,0,0,0,3,2,74,6,,,,,,,,,,,,,,,,,,,,,,,,,,,,,,,,,,,,,,,,,,,,,,,,,,,,,,,,,,,,,,,,309.47952220001025,309.87993920000736,309.8642361999955,309.96356709999964,310.3647532000323,None,left,1,0.43313119997037575,310.3647532000323,None,309.8642361999955,309.96356709999964,309.96356709999964,None,310.81482650002,None,,,,,,,11013,001,2024_Jan_02_1652,ANT,2021.2.3,60.2680845001238,
1,7,no,down,IC,L,,,,,,Block.xlsx,"你已经完成了第一个实验区组

请稍作休息


点击空格键进入下一个区组。",50,0,-1.5,left,RRLRR.png,,,,,0,0,0,0,3,3,75,6,,,,,,,,,,,,,,,,,,,,,,,,,,,,,,,,,,,,,,,,,,,,,,,,,,,,,,,,,,,,,,,,311.21541330002947,311.6166111000348,311.5999669000157,311.6998581000371,312.1005801000283,None,left,1,0.456753300037235,312.1005801000283,None,311.5999669000157,311.6998581000371,311.6998581000371,None,312.58443160000024,None,,,,,,,11013,001,2024_Jan_02_1652,ANT,2021.2.3,60.2680845001238,
1,14,center,down,C,R,,,,,,Block.xlsx,"你已经完成了第一个实验区组

请稍作休息


点击空格键进入下一个区组。",0,50,-1.5,right,RRRRR.png,,,,,0,0,0,0,3,4,76,13,,,,,,,,,,,,,,,,,,,,,,,,,,,,,,,,,,,,,,,,,,,,,,,,,,,,,,,,,,,,,,,,312.9855237000156,313.38681360002374,313.3686439000303,313.47075139998924,313.8711564000114,None,right,1,0.3993487000116147,313.8711564000114,None,313.3686439000303,313.47075139998924,313.47075139998924,None,314.2863508000155,None,,,,,,,11013,001,2024_Jan_02_1652,ANT,2021.2.3,60.2680845001238,
1,14,center,down,C,R,,,,,,Block.xlsx,"你已经完成了第一个实验区组

请稍作休息


点击空格键进入下一个区组。",0,50,-1.5,right,RRRRR.png,,,,,0,0,0,0,3,5,77,13,,,,,,,,,,,,,,,,,,,,,,,,,,,,,,,,,,,,,,,,,,,,,,,,,,,,,,,,,,,,,,,,314.6871245999937,315.08847040002,315.0717241000384,315.17107760004,315.57292270002654,None,right,1,0.36052039999049157,315.57292270002654,None,315.0717241000384,315.17107760004,315.17107760004,None,315.95577010000125,None,,,,,,,11013,001,2024_Jan_02_1652,ANT,2021.2.3,60.2680845001238,
1,13,center,down,C,L,,,,,,Block.xlsx,"你已经完成了第一个实验区组

请稍作休息


点击空格键进入下一个区组。",0,50,-1.5,left,LLLLL.png,,,,,0,0,0,0,3,6,78,12,,,,,,,,,,,,,,,,,,,,,,,,,,,,,,,,,,,,,,,,,,,,,,,,,,,,,,,,,,,,,,,,316.35625110002,316.7573143999907,316.7407849000301,316.84028210002,317.2428563000285,None,left,1,0.4109710999764502,317.2428563000285,None,316.7407849000301,316.84028210002,316.84028210002,None,317.6749044000171,None,,,,,,,11013,001,2024_Jan_02_1652,ANT,2021.2.3,60.2680845001238,
1,16,center,down,IC,R,,,,,,Block.xlsx,"你已经完成了第一个实验区组

请稍作休息


点击空格键进入下一个区组。",0,50,-1.5,right,LLRLL.png,,,,,0,0,0,0,3,7,79,15,,,,,,,,,,,,,,,,,,,,,,,,,,,,,,,,,,,,,,,,,,,,,,,,,,,,,,,,,,,,,,,,318.0754264999996,318.47783660003915,318.45973900001263,318.5599868000136,318.96027089998825,None,right,1,0.4211760999751277,318.96027089998825,None,318.45973900001263,318.5599868000136,318.5599868000136,None,319.4108934000251,None,,,,,,,11013,001,2024_Jan_02_1652,ANT,2021.2.3,60.2680845001238,
1,17,spatial,up,C,L,,,,,,Block.xlsx,"你已经完成了第一个实验区组

请稍作休息


点击空格键进入下一个区组。",1.5,0,1.5,left,LLLLL.png,,,,,0,0,0,0,3,8,80,16,,,,,,,,,,,,,,,,,,,,,,,,,,,,,,,,,,,,,,,,,,,,,,,,,,,,,,,,,,,,,,,,319.81149160000496,320.21260150003945,320.19535140000517,320.29782899998827,320.6972362000379,None,left,1,0.43641720002051443,320.6972362000379,None,320.19535140000517,320.29782899998827,320.29782899998827,None,321.16335290001007,None,,,,,,,11013,001,2024_Jan_02_1652,ANT,2021.2.3,60.2680845001238,
1,21,spatial,down,C,L,,,,,,Block.xlsx,"你已经完成了第一个实验区组

请稍作休息


点击空格键进入下一个区组。",-1.5,0,-1.5,left,LLLLL.png,,,,,0,0,0,0,3,9,81,20,,,,,,,,,,,,,,,,,,,,,,,,,,,,,,,,,,,,,,,,,,,,,,,,,,,,,,,,,,,,,,,,321.5639805000392,321.9661407000385,321.9487955000368,322.04992030002177,322.44859949999955,None,left,1,0.37296070001320913,322.44859949999955,None,321.9487955000368,322.04992030002177,322.04992030002177,None,322.84903800004395,None,,,,,,,11013,001,2024_Jan_02_1652,ANT,2021.2.3,60.2680845001238,
1,19,spatial,up,IC,L,,,,,,Block.xlsx,"你已经完成了第一个实验区组

请稍作休息


点击空格键进入下一个区组。",1.5,0,1.5,left,RRLRR.png,,,,,0,0,0,0,3,10,82,18,,,,,,,,,,,,,,,,,,,,,,,,,,,,,,,,,,,,,,,,,,,,,,,,,,,,,,,,,,,,,,,,323.24978670000564,323.6522585999919,323.6338254000293,323.7351306999917,324.1344344000099,None,left,1,0.38325520005309954,324.1344344000099,None,323.6338254000293,323.7351306999917,323.7351306999917,None,324.53495100000873,None,,,,,,,11013,001,2024_Jan_02_1652,ANT,2021.2.3,60.2680845001238,
1,1,no,up,C,L,,,,,,Block.xlsx,"你已经完成了第一个实验区组

请稍作休息


点击空格键进入下一个区组。",50,0,1.5,left,LLLLL.png,,,,,0,0,0,0,3,11,83,0,,,,,,,,,,,,,,,,,,,,,,,,,,,,,,,,,,,,,,,,,,,,,,,,,,,,,,,,,,,,,,,,324.9357313000364,325.3363046000013,325.3213793000323,325.420512599987,325.8218212000211,None,left,1,0.3756299000233412,325.8218212000211,None,325.3213793000323,325.420512599987,325.420512599987,None,326.22087660001125,None,,,,,,,11013,001,2024_Jan_02_1652,ANT,2021.2.3,60.2680845001238,
1,17,spatial,up,C,L,,,,,,Block.xlsx,"你已经完成了第一个实验区组

请稍作休息


点击空格键进入下一个区组。",1.5,0,1.5,left,LLLLL.png,,,,,0,0,0,0,3,12,84,16,,,,,,,,,,,,,,,,,,,,,,,,,,,,,,,,,,,,,,,,,,,,,,,,,,,,,,,,,,,,,,,,326.62148249999154,327.022823300038,327.005675900029,327.10576460004086,327.5077268999885,None,left,1,0.3456589999841526,327.5077268999885,None,327.005675900029,327.10576460004086,327.10576460004086,None,327.873436200025,None,,,,,,,11013,001,2024_Jan_02_1652,ANT,2021.2.3,60.2680845001238,
1,13,center,down,C,L,,,,,,Block.xlsx,"你已经完成了第一个实验区组

请稍作休息


点击空格键进入下一个区组。",0,50,-1.5,left,LLLLL.png,,,,,0,0,0,0,3,13,85,12,,,,,,,,,,,,,,,,,,,,,,,,,,,,,,,,,,,,,,,,,,,,,,,,,,,,,,,,,,,,,,,,328.27402539999457,328.67592340003466,328.6579058000352,328.76020660001086,329.1603335000109,None,left,1,0.4139785000006668,329.1603335000109,None,328.6579058000352,328.76020660001086,328.76020660001086,None,329.5925860000425,None,,,,,,,11013,001,2024_Jan_02_1652,ANT,2021.2.3,60.2680845001238,
1,7,no,down,IC,L,,,,,,Block.xlsx,"你已经完成了第一个实验区组

请稍作休息


点击空格键进入下一个区组。",50,0,-1.5,left,RRLRR.png,,,,,0,0,0,0,3,14,86,6,,,,,,,,,,,,,,,,,,,,,,,,,,,,,,,,,,,,,,,,,,,,,,,,,,,,,,,,,,,,,,,,329.99323500000173,330.3934922000044,330.3775997000048,330.47850620001554,330.8778348999913,None,right,0,0.4328788999700919,330.8778348999913,None,330.3775997000048,330.47850620001554,330.47850620001554,None,331.3283609999926,None,,,,,,,11013,001,2024_Jan_02_1652,ANT,2021.2.3,60.2680845001238,
1,14,center,down,C,R,,,,,,Block.xlsx,"你已经完成了第一个实验区组

请稍作休息


点击空格键进入下一个区组。",0,50,-1.5,right,RRRRR.png,,,,,0,0,0,0,3,15,87,13,,,,,,,,,,,,,,,,,,,,,,,,,,,,,,,,,,,,,,,,,,,,,,,,,,,,,,,,,,,,,,,,331.72898950002855,332.1296854999964,332.1151699000038,332.2129152000416,332.6143594000023,None,right,1,0.4231945999781601,332.6143594000023,None,332.1151699000038,332.2129152000416,332.2129152000416,None,333.0642987000174,None,,,,,,,11013,001,2024_Jan_02_1652,ANT,2021.2.3,60.2680845001238,
1,18,spatial,up,C,R,,,,,,Block.xlsx,"你已经完成了第一个实验区组

请稍作休息


点击空格键进入下一个区组。",1.5,0,1.5,right,RRRRR.png,,,,,0,0,0,0,3,16,88,17,,,,,,,,,,,,,,,,,,,,,,,,,,,,,,,,,,,,,,,,,,,,,,,,,,,,,,,,,,,,,,,,333.46614660002524,333.8672641000012,333.84969390003243,333.95060590002686,334.3502800000133,None,right,1,0.3750231000012718,334.3502800000133,None,333.84969390003243,333.95060590002686,333.95060590002686,None,334.75017419998767,None,,,,,,,11013,001,2024_Jan_02_1652,ANT,2021.2.3,60.2680845001238,
1,15,center,down,IC,L,,,,,,Block.xlsx,"你已经完成了第一个实验区组

请稍作休息


点击空格键进入下一个区组。",0,50,-1.5,left,RRLRR.png,,,,,0,0,0,0,3,17,89,14,,,,,,,,,,,,,,,,,,,,,,,,,,,,,,,,,,,,,,,,,,,,,,,,,,,,,,,,,,,,,,,,335.15065910003614,335.5532511000056,335.53575249999994,335.6361169000156,336.0361787999864,None,left,1,0.49759070004802197,336.0361787999864,None,335.53575249999994,335.6361169000156,335.6361169000156,None,336.5529013000196,None,,,,,,,11013,001,2024_Jan_02_1652,ANT,2021.2.3,60.2680845001238,
1,18,spatial,up,C,R,,,,,,Block.xlsx,"你已经完成了第一个实验区组

请稍作休息


点击空格键进入下一个区组。",1.5,0,1.5,right,RRRRR.png,,,,,0,0,0,0,3,18,90,17,,,,,,,,,,,,,,,,,,,,,,,,,,,,,,,,,,,,,,,,,,,,,,,,,,,,,,,,,,,,,,,,336.95378179999534,337.35401150002144,337.3381173000089,337.4382513000164,337.8389436000143,None,right,1,0.5183238000026904,337.8389436000143,None,337.3381173000089,337.4382513000164,337.4382513000164,None,338.38917290000245,None,,,,,,,11013,001,2024_Jan_02_1652,ANT,2021.2.3,60.2680845001238,
1,21,spatial,down,C,L,,,,,,Block.xlsx,"你已经完成了第一个实验区组

请稍作休息


点击空格键进入下一个区组。",-1.5,0,-1.5,left,LLLLL.png,,,,,0,0,0,0,3,19,91,20,,,,,,,,,,,,,,,,,,,,,,,,,,,,,,,,,,,,,,,,,,,,,,,,,,,,,,,,,,,,,,,,338.78961840004195,339.19159970001783,339.17386680003256,339.2741987000336,339.6748115000082,None,left,1,0.346617300005164,339.6748115000082,None,339.17386680003256,339.2741987000336,339.2741987000336,None,340.0418862000224,None,,,,,,,11013,001,2024_Jan_02_1652,ANT,2021.2.3,60.2680845001238,
1,12,center,up,IC,R,,,,,,Block.xlsx,"你已经完成了第一个实验区组

请稍作休息


点击空格键进入下一个区组。",0,50,1.5,right,LLRLL.png,,,,,0,0,0,0,3,20,92,11,,,,,,,,,,,,,,,,,,,,,,,,,,,,,,,,,,,,,,,,,,,,,,,,,,,,,,,,,,,,,,,,340.44181930000195,340.8435717000393,340.8267157000373,340.92788040003506,341.3267035000026,None,left,0,0.49470699997618794,341.3267035000026,None,340.8267157000373,340.92788040003506,340.92788040003506,None,341.8447533000144,None,,,,,,,11013,001,2024_Jan_02_1652,ANT,2021.2.3,60.2680845001238,
1,1,no,up,C,L,,,,,,Block.xlsx,"你已经完成了第一个实验区组

请稍作休息


点击空格键进入下一个区组。",50,0,1.5,left,LLLLL.png,,,,,0,0,0,0,3,21,93,0,,,,,,,,,,,,,,,,,,,,,,,,,,,,,,,,,,,,,,,,,,,,,,,,,,,,,,,,,,,,,,,,342.2451157000032,342.6454350000131,342.6292312000296,342.72932770004263,343.1298786000116,None,left,1,0.43539349996717647,343.1298786000116,None,342.6292312000296,342.72932770004263,342.72932770004263,None,343.5965440000291,None,,,,,,,11013,001,2024_Jan_02_1652,ANT,2021.2.3,60.2680845001238,
1,12,center,up,IC,R,,,,,,Block.xlsx,"你已经完成了第一个实验区组

请稍作休息


点击空格键进入下一个区组。",0,50,1.5,right,LLRLL.png,,,,,0,0,0,0,3,22,94,11,,,,,,,,,,,,,,,,,,,,,,,,,,,,,,,,,,,,,,,,,,,,,,,,,,,,,,,,,,,,,,,,343.99721240001963,344.3978184000007,344.3812903999933,344.4814983000397,344.88327910000226,None,right,1,0.4102913999813609,344.88327910000226,None,344.3812903999933,344.4814983000397,344.4814983000397,None,345.31606770004146,None,,,,,,,11013,001,2024_Jan_02_1652,ANT,2021.2.3,60.2680845001238,
1,19,spatial,up,IC,L,,,,,,Block.xlsx,"你已经完成了第一个实验区组

请稍作休息


点击空格键进入下一个区组。",1.5,0,1.5,left,RRLRR.png,,,,,0,0,0,0,3,23,95,18,,,,,,,,,,,,,,,,,,,,,,,,,,,,,,,,,,,,,,,,,,,,,,,,,,,,,,,,,,,,,,,,345.716877400002,346.1171093999874,346.1012841000338,346.20230860001175,346.6029619000037,None,left,1,0.38663120003184304,346.6029619000037,None,346.1012841000338,346.20230860001175,346.20230860001175,None,347.01841630000854,None,,,,,,,11013,001,2024_Jan_02_1652,ANT,2021.2.3,60.2680845001238,
,,,,,,,,,,,Block.xlsx,"你已经完成了第一个实验区组

请稍作休息


点击空格键进入下一个区组。",,,,,,,,,,0,0,0,0,,,,,,,,,,,,,,,,,,,,,,,,,,,,,,,,,,,,,,,,,,,,,,,,,,,,,,,,,,,,,,,,,,,,,,,,,,,,,,,,,,,,,space,1.7699155999580398,347.4357730000047,None,347.4357730000047,None,11013,001,2024_Jan_02_1652,ANT,2021.2.3,60.2680845001238,
1,20,spatial,up,IC,R,,,,,,Block.xlsx,"你已经完成了整个实验（三个区组）。

请报告实验者已完成实验

非常感谢，再见！",1.5,0,1.5,right,LLRLL.png,,,,,0,1,1,1,0,0,0,19,,,,,,,,,,,,,,,,,,,,,,,,,,,,,,,,,,,,,,,,,,,,,,,,,,,,,,,,,,,,,,,,349.23802210000576,349.64122430002317,349.62298620003276,349.7228363000322,350.1235736000235,None,right,1,0.4418106999946758,350.1235736000235,None,349.62298620003276,349.7228363000322,349.7228363000322,None,350.5905442000367,None,,,,,,,11013,001,2024_Jan_02_1652,ANT,2021.2.3,60.2680845001238,
1,1,no,up,C,L,,,,,,Block.xlsx,"你已经完成了整个实验（三个区组）。

请报告实验者已完成实验

非常感谢，再见！",50,0,1.5,left,LLLLL.png,,,,,0,1,1,1,0,1,1,0,,,,,,,,,,,,,,,,,,,,,,,,,,,,,,,,,,,,,,,,,,,,,,,,,,,,,,,,,,,,,,,,350.99090510001406,351.3924583999906,351.37476570002036,351.4760598000139,351.875618799997,None,left,1,0.6977093999739736,351.875618799997,None,351.37476570002036,351.4760598000139,351.4760598000139,None,352.5931516000419,None,,,,,,,11013,001,2024_Jan_02_1652,ANT,2021.2.3,60.2680845001238,
1,13,center,down,C,L,,,,,,Block.xlsx,"你已经完成了整个实验（三个区组）。

请报告实验者已完成实验

非常感谢，再见！",0,50,-1.5,left,LLLLL.png,,,,,0,1,1,1,0,2,2,12,,,,,,,,,,,,,,,,,,,,,,,,,,,,,,,,,,,,,,,,,,,,,,,,,,,,,,,,,,,,,,,,352.99482510000234,353.3947251000209,353.3793960000039,353.4945085000363,353.8799870000221,None,left,1,0.36535300000105053,353.8799870000221,None,353.3793960000039,353.4945085000363,353.47895399999106,None,354.2623180000228,None,,,,,,,11013,001,2024_Jan_02_1652,ANT,2021.2.3,60.2680845001238,
1,7,no,down,IC,L,,,,,,Block.xlsx,"你已经完成了整个实验（三个区组）。

请报告实验者已完成实验

非常感谢，再见！",50,0,-1.5,left,RRLRR.png,,,,,0,1,1,1,0,3,3,6,,,,,,,,,,,,,,,,,,,,,,,,,,,,,,,,,,,,,,,,,,,,,,,,,,,,,,,,,,,,,,,,354.66315860004397,355.06361160002416,355.0492741999915,355.1637893000152,355.549061800004,None,left,1,0.5363407999975607,355.549061800004,None,355.0492741999915,355.1637893000152,355.14786480000475,None,356.11520790000213,None,,,,,,,11013,001,2024_Jan_02_1652,ANT,2021.2.3,60.2680845001238,
1,15,center,down,IC,L,,,,,,Block.xlsx,"你已经完成了整个实验（三个区组）。

请报告实验者已完成实验

非常感谢，再见！",0,50,-1.5,left,RRLRR.png,,,,,0,1,1,1,0,4,4,14,,,,,,,,,,,,,,,,,,,,,,,,,,,,,,,,,,,,,,,,,,,,,,,,,,,,,,,,,,,,,,,,356.5157213000348,356.917863700015,356.8998294000048,357.0013362999889,357.40112679998856,None,left,1,0.3566606000531465,357.40112679998856,None,356.8998294000048,357.0013362999889,357.0013362999889,None,357.7842567000189,None,,,,,,,11013,001,2024_Jan_02_1652,ANT,2021.2.3,60.2680845001238,
1,24,spatial,down,IC,R,,,,,,Block.xlsx,"你已经完成了整个实验（三个区组）。

请报告实验者已完成实验

非常感谢，再见！",-1.5,0,-1.5,right,LLRLL.png,,,,,0,1,1,1,0,5,5,23,,,,,,,,,,,,,,,,,,,,,,,,,,,,,,,,,,,,,,,,,,,,,,,,,,,,,,,,,,,,,,,,358.18498560000444,358.58713290002197,358.56916469999123,358.6688833000371,359.069531599991,None,right,1,0.41626929998164997,359.069531599991,None,358.56916469999123,358.6688833000371,358.6688833000371,None,359.5034006999922,None,,,,,,,11013,001,2024_Jan_02_1652,ANT,2021.2.3,60.2680845001238,
1,7,no,down,IC,L,,,,,,Block.xlsx,"你已经完成了整个实验（三个区组）。

请报告实验者已完成实验

非常感谢，再见！",50,0,-1.5,left,RRLRR.png,,,,,0,1,1,1,0,6,6,6,,,,,,,,,,,,,,,,,,,,,,,,,,,,,,,,,,,,,,,,,,,,,,,,,,,,,,,,,,,,,,,,359.9040037000086,360.30582340003457,360.28942950000055,360.38827590004075,360.7899601000245,None,left,1,0.37559230002807453,360.7899601000245,None,360.28942950000055,360.38827590004075,360.38827590004075,None,361.1899595000432,None,,,,,,,11013,001,2024_Jan_02_1652,ANT,2021.2.3,60.2680845001238,
1,10,center,up,C,R,,,,,,Block.xlsx,"你已经完成了整个实验（三个区组）。

请报告实验者已完成实验

非常感谢，再见！",0,50,1.5,right,RRRRR.png,,,,,0,1,1,1,0,7,7,9,,,,,,,,,,,,,,,,,,,,,,,,,,,,,,,,,,,,,,,,,,,,,,,,,,,,,,,,,,,,,,,,361.5901477999869,361.99112840002635,361.97464650002075,362.07509210001444,362.4759926000261,None,right,1,0.4012236999697052,362.4759926000261,None,361.97464650002075,362.07509210001444,362.07509210001444,None,362.8918133000261,None,,,,,,,11013,001,2024_Jan_02_1652,ANT,2021.2.3,60.2680845001238,
1,4,no,up,IC,R,,,,,,Block.xlsx,"你已经完成了整个实验（三个区组）。

请报告实验者已完成实验

非常感谢，再见！",50,0,1.5,right,LLRLL.png,,,,,0,1,1,1,0,8,8,3,,,,,,,,,,,,,,,,,,,,,,,,,,,,,,,,,,,,,,,,,,,,,,,,,,,,,,,,,,,,,,,,363.2923838000279,363.694133699988,363.6764731000294,363.7764242000412,364.1785232000402,None,right,1,0.4348143999814056,364.1785232000402,None,363.6764731000294,363.7764242000412,363.7764242000412,None,364.644788500038,None,,,,,,,11013,001,2024_Jan_02_1652,ANT,2021.2.3,60.2680845001238,
1,14,center,down,C,R,,,,,,Block.xlsx,"你已经完成了整个实验（三个区组）。

请报告实验者已完成实验

非常感谢，再见！",0,50,-1.5,right,RRRRR.png,,,,,0,1,1,1,0,9,9,13,,,,,,,,,,,,,,,,,,,,,,,,,,,,,,,,,,,,,,,,,,,,,,,,,,,,,,,,,,,,,,,,365.04577269998845,365.4466858000378,365.4304201999912,365.5294919000007,365.93076810002094,None,right,1,0.6586370000150055,365.93076810002094,None,365.4304201999912,365.5294919000007,365.5294919000007,None,366.61414060002426,None,,,,,,,11013,001,2024_Jan_02_1652,ANT,2021.2.3,60.2680845001238,
1,4,no,up,IC,R,,,,,,Block.xlsx,"你已经完成了整个实验（三个区组）。

请报告实验者已完成实验

非常感谢，再见！",50,0,1.5,right,LLRLL.png,,,,,0,1,1,1,0,10,10,3,,,,,,,,,,,,,,,,,,,,,,,,,,,,,,,,,,,,,,,,,,,,,,,,,,,,,,,,,,,,,,,,367.01554699998815,367.4172060000128,367.3988887000014,367.4994160000351,367.89971520000836,None,left,0,0.3536434000125155,367.89971520000836,None,367.3988887000014,367.4994160000351,367.4994160000351,None,368.2832626000163,None,,,,,,,11013,001,2024_Jan_02_1652,ANT,2021.2.3,60.2680845001238,
1,15,center,down,IC,L,,,,,,Block.xlsx,"你已经完成了整个实验（三个区组）。

请报告实验者已完成实验

非常感谢，再见！",0,50,-1.5,left,RRLRR.png,,,,,0,1,1,1,0,11,11,14,,,,,,,,,,,,,,,,,,,,,,,,,,,,,,,,,,,,,,,,,,,,,,,,,,,,,,,,,,,,,,,,368.6843309000251,369.08632310002577,369.06893670000136,369.16953600000124,369.5692095000413,None,left,1,0.5005558000411838,369.5692095000413,None,369.06893670000136,369.16953600000124,369.16953600000124,None,370.08574930002214,None,,,,,,,11013,001,2024_Jan_02_1652,ANT,2021.2.3,60.2680845001238,
1,15,center,down,IC,L,,,,,,Block.xlsx,"你已经完成了整个实验（三个区组）。

请报告实验者已完成实验

非常感谢，再见！",0,50,-1.5,left,RRLRR.png,,,,,0,1,1,1,0,12,12,14,,,,,,,,,,,,,,,,,,,,,,,,,,,,,,,,,,,,,,,,,,,,,,,,,,,,,,,,,,,,,,,,370.4865354000358,370.8890431000036,370.87056070001563,370.97136349999346,371.37298079999164,None,left,1,0.49624690000200644,371.37298079999164,None,370.87056070001563,370.97136349999346,370.97136349999346,None,371.8885868000216,None,,,,,,,11013,001,2024_Jan_02_1652,ANT,2021.2.3,60.2680845001238,
1,10,center,up,C,R,,,,,,Block.xlsx,"你已经完成了整个实验（三个区组）。

请报告实验者已完成实验

非常感谢，再见！",0,50,1.5,right,RRRRR.png,,,,,0,1,1,1,0,13,13,9,,,,,,,,,,,,,,,,,,,,,,,,,,,,,,,,,,,,,,,,,,,,,,,,,,,,,,,,,,,,,,,,372.28964370000176,372.6901735000429,372.67387330002384,372.7730475999997,373.174699300027,None,right,1,0.4067736999713816,373.174699300027,None,372.67387330002384,372.7730475999997,372.7730475999997,None,373.6078948000213,None,,,,,,,11013,001,2024_Jan_02_1652,ANT,2021.2.3,60.2680845001238,
1,23,spatial,down,IC,L,,,,,,Block.xlsx,"你已经完成了整个实验（三个区组）。

请报告实验者已完成实验

非常感谢，再见！",-1.5,0,-1.5,left,RRLRR.png,,,,,0,1,1,1,0,14,14,22,,,,,,,,,,,,,,,,,,,,,,,,,,,,,,,,,,,,,,,,,,,,,,,,,,,,,,,,,,,,,,,,374.00893449998694,374.41105440002866,374.3935846000095,374.50998179998714,374.8931089999969,None,left,1,0.40892999997595325,374.8931089999969,None,374.3935846000095,374.50998179998714,374.4924574000179,None,375.3269705999992,None,,,,,,,11013,001,2024_Jan_02_1652,ANT,2021.2.3,60.2680845001238,
1,18,spatial,up,C,R,,,,,,Block.xlsx,"你已经完成了整个实验（三个区组）。

请报告实验者已完成实验

非常感谢，再见！",1.5,0,1.5,right,RRRRR.png,,,,,0,1,1,1,0,15,15,17,,,,,,,,,,,,,,,,,,,,,,,,,,,,,,,,,,,,,,,,,,,,,,,,,,,,,,,,,,,,,,,,375.7285198000027,376.12810299999546,376.11393980000867,376.2118244000012,376.6130892999936,None,right,1,0.3522289000102319,376.6130892999936,None,376.11393980000867,376.2118244000012,376.2118244000012,None,376.99597869999707,None,,,,,,,11013,001,2024_Jan_02_1652,ANT,2021.2.3,60.2680845001238,
1,22,spatial,down,C,R,,,,,,Block.xlsx,"你已经完成了整个实验（三个区组）。

请报告实验者已完成实验

非常感谢，再见！",-1.5,0,-1.5,right,RRRRR.png,,,,,0,1,1,1,0,16,16,21,,,,,,,,,,,,,,,,,,,,,,,,,,,,,,,,,,,,,,,,,,,,,,,,,,,,,,,,,,,,,,,,377.39729280001484,377.79797730001155,377.7805269000237,377.8812245000154,378.28331500000786,None,right,1,0.5306242000078782,378.28331500000786,None,377.7805269000237,377.8812245000154,377.8812245000154,None,378.83200450002914,None,,,,,,,11013,001,2024_Jan_02_1652,ANT,2021.2.3,60.2680845001238,
1,1,no,up,C,L,,,,,,Block.xlsx,"你已经完成了整个实验（三个区组）。

请报告实验者已完成实验

非常感谢，再见！",50,0,1.5,left,LLLLL.png,,,,,0,1,1,1,0,17,17,0,,,,,,,,,,,,,,,,,,,,,,,,,,,,,,,,,,,,,,,,,,,,,,,,,,,,,,,,,,,,,,,,379.2328303999966,379.6342303000274,379.61685440002475,379.7186136000091,380.11779849999584,None,left,1,0.4075594000169076,380.11779849999584,None,379.61685440002475,379.7186136000091,379.7186136000091,None,380.5515168000129,None,,,,,,,11013,001,2024_Jan_02_1652,ANT,2021.2.3,60.2680845001238,
1,12,center,up,IC,R,,,,,,Block.xlsx,"你已经完成了整个实验（三个区组）。

请报告实验者已完成实验

非常感谢，再见！",0,50,1.5,right,LLRLL.png,,,,,0,1,1,1,0,18,18,11,,,,,,,,,,,,,,,,,,,,,,,,,,,,,,,,,,,,,,,,,,,,,,,,,,,,,,,,,,,,,,,,380.95201910001924,381.35262700001476,381.336221000005,381.43631670001196,381.83729779999703,None,right,1,0.4012457999633625,381.83729779999703,None,381.336221000005,381.43631670001196,381.43631670001196,None,382.25394080003025,None,,,,,,,11013,001,2024_Jan_02_1652,ANT,2021.2.3,60.2680845001238,
1,5,no,down,C,L,,,,,,Block.xlsx,"你已经完成了整个实验（三个区组）。

请报告实验者已完成实验

非常感谢，再见！",50,0,-1.5,left,LLLLL.png,,,,,0,1,1,1,0,19,19,4,,,,,,,,,,,,,,,,,,,,,,,,,,,,,,,,,,,,,,,,,,,,,,,,,,,,,,,,,,,,,,,,382.6544795000227,383.055468800012,383.0394245000207,383.139856600028,383.5391880000243,None,left,1,0.43431039998540655,383.5391880000243,None,383.0394245000207,383.139856600028,383.139856600028,None,383.98987019999186,None,,,,,,,11013,001,2024_Jan_02_1652,ANT,2021.2.3,60.2680845001238,
1,17,spatial,up,C,L,,,,,,Block.xlsx,"你已经完成了整个实验（三个区组）。

请报告实验者已完成实验

非常感谢，再见！",1.5,0,1.5,left,LLLLL.png,,,,,0,1,1,1,0,20,20,16,,,,,,,,,,,,,,,,,,,,,,,,,,,,,,,,,,,,,,,,,,,,,,,,,,,,,,,,,,,,,,,,384.39081920002354,384.7913545999909,384.7743573000189,384.8753345999867,385.2752383000334,None,left,1,0.3545513999997638,385.2752383000334,None,384.7743573000189,384.8753345999867,384.8753345999867,None,385.65913470002124,None,,,,,,,11013,001,2024_Jan_02_1652,ANT,2021.2.3,60.2680845001238,
1,21,spatial,down,C,L,,,,,,Block.xlsx,"你已经完成了整个实验（三个区组）。

请报告实验者已完成实验

非常感谢，再见！",-1.5,0,-1.5,left,LLLLL.png,,,,,0,1,1,1,0,21,21,20,,,,,,,,,,,,,,,,,,,,,,,,,,,,,,,,,,,,,,,,,,,,,,,,,,,,,,,,,,,,,,,,386.0596429000143,386.4602254999918,386.4441324000363,386.5452985999873,386.9460289000417,None,left,1,0.35551029996713623,386.9460289000417,None,386.4441324000363,386.5452985999873,386.5452985999873,None,387.3280386000406,None,,,,,,,11013,001,2024_Jan_02_1652,ANT,2021.2.3,60.2680845001238,
1,22,spatial,down,C,R,,,,,,Block.xlsx,"你已经完成了整个实验（三个区组）。

请报告实验者已完成实验

非常感谢，再见！",-1.5,0,-1.5,right,RRRRR.png,,,,,0,1,1,1,0,22,22,21,,,,,,,,,,,,,,,,,,,,,,,,,,,,,,,,,,,,,,,,,,,,,,,,,,,,,,,,,,,,,,,,387.7291445999872,388.1301477000234,388.11326100002043,388.21319420001237,388.6140241000103,None,right,1,0.4473852000082843,388.6140241000103,None,388.11326100002043,388.21319420001237,388.21319420001237,None,389.0808424000279,None,,,,,,,11013,001,2024_Jan_02_1652,ANT,2021.2.3,60.2680845001238,
1,10,center,up,C,R,,,,,,Block.xlsx,"你已经完成了整个实验（三个区组）。

请报告实验者已完成实验

非常感谢，再见！",0,50,1.5,right,RRRRR.png,,,,,0,1,1,1,0,23,23,9,,,,,,,,,,,,,,,,,,,,,,,,,,,,,,,,,,,,,,,,,,,,,,,,,,,,,,,,,,,,,,,,389.4815471000038,389.88336760003585,389.8653868000256,389.96591140003875,390.36622389999684,None,right,1,0.39113499998347834,390.36622389999684,None,389.8653868000256,389.96591140003875,389.96591140003875,None,390.7830807000282,None,,,,,,,11013,001,2024_Jan_02_1652,ANT,2021.2.3,60.2680845001238,
1,18,spatial,up,C,R,,,,,,Block.xlsx,"你已经完成了整个实验（三个区组）。

请报告实验者已完成实验

非常感谢，再见！",1.5,0,1.5,right,RRRRR.png,,,,,0,1,1,1,1,0,24,17,,,,,,,,,,,,,,,,,,,,,,,,,,,,,,,,,,,,,,,,,,,,,,,,,,,,,,,,,,,,,,,,391.1838662000373,391.5863180999877,391.567838500021,391.66847060003784,392.07021790003637,None,right,1,0.38329650001833215,392.07021790003637,None,391.567838500021,391.66847060003784,391.66847060003784,None,392.46949630003655,None,,,,,,,11013,001,2024_Jan_02_1652,ANT,2021.2.3,60.2680845001238,
1,12,center,up,IC,R,,,,,,Block.xlsx,"你已经完成了整个实验（三个区组）。

请报告实验者已完成实验

非常感谢，再见！",0,50,1.5,right,LLRLL.png,,,,,0,1,1,1,1,1,25,11,,,,,,,,,,,,,,,,,,,,,,,,,,,,,,,,,,,,,,,,,,,,,,,,,,,,,,,,,,,,,,,,392.86973219999345,393.27046440000413,393.25546110002324,393.3709400999942,393.75617160002,None,right,1,0.42521620000479743,393.75617160002,None,393.25546110002324,393.3709400999942,393.35519949998707,None,394.2046577000292,None,,,,,,,11013,001,2024_Jan_02_1652,ANT,2021.2.3,60.2680845001238,
1,17,spatial,up,C,L,,,,,,Block.xlsx,"你已经完成了整个实验（三个区组）。

请报告实验者已完成实验

非常感谢，再见！",1.5,0,1.5,left,LLLLL.png,,,,,0,1,1,1,1,2,26,16,,,,,,,,,,,,,,,,,,,,,,,,,,,,,,,,,,,,,,,,,,,,,,,,,,,,,,,,,,,,,,,,394.6055652000359,395.0068042000057,394.9894892000011,395.0897879000404,395.48994320002384,None,left,1,0.3314616999705322,395.48994320002384,None,394.9894892000011,395.0897879000404,395.0897879000404,None,395.8407545000082,None,,,,,,,11013,001,2024_Jan_02_1652,ANT,2021.2.3,60.2680845001238,
1,9,center,up,C,L,,,,,,Block.xlsx,"你已经完成了整个实验（三个区组）。

请报告实验者已完成实验

非常感谢，再见！",0,50,1.5,left,LLLLL.png,,,,,0,1,1,1,1,3,27,8,,,,,,,,,,,,,,,,,,,,,,,,,,,,,,,,,,,,,,,,,,,,,,,,,,,,,,,,,,,,,,,,396.2410525000305,396.6425388000207,396.6257671000203,396.72577150003053,397.1259043000173,None,left,1,0.3524400999885984,397.1259043000173,None,396.6257671000203,396.72577150003053,396.72577150003053,None,397.49351619998924,None,,,,,,,11013,001,2024_Jan_02_1652,ANT,2021.2.3,60.2680845001238,
1,14,center,down,C,R,,,,,,Block.xlsx,"你已经完成了整个实验（三个区组）。

请报告实验者已完成实验

非常感谢，再见！",0,50,-1.5,right,RRRRR.png,,,,,0,1,1,1,1,4,28,13,,,,,,,,,,,,,,,,,,,,,,,,,,,,,,,,,,,,,,,,,,,,,,,,,,,,,,,,,,,,,,,,397.8939578999998,398.2944171000272,398.277871600003,398.37840210000286,398.77897799998755,None,right,1,0.474410800030455,398.77897799998755,None,398.277871600003,398.37840210000286,398.37840210000286,None,399.2790619000443,None,,,,,,,11013,001,2024_Jan_02_1652,ANT,2021.2.3,60.2680845001238,
1,9,center,up,C,L,,,,,,Block.xlsx,"你已经完成了整个实验（三个区组）。

请报告实验者已完成实验

非常感谢，再见！",0,50,1.5,left,LLLLL.png,,,,,0,1,1,1,1,5,29,8,,,,,,,,,,,,,,,,,,,,,,,,,,,,,,,,,,,,,,,,,,,,,,,,,,,,,,,,,,,,,,,,399.6798412000062,400.0812840000144,400.06374900002265,400.16502120002406,400.56570470001316,None,left,1,0.3516953000216745,400.56570470001316,None,400.06374900002265,400.16502120002406,400.16502120002406,None,400.9483880000189,None,,,,,,,11013,001,2024_Jan_02_1652,ANT,2021.2.3,60.2680845001238,
1,8,no,down,IC,R,,,,,,Block.xlsx,"你已经完成了整个实验（三个区组）。

请报告实验者已完成实验

非常感谢，再见！",50,0,-1.5,right,LLRLL.png,,,,,0,1,1,1,1,6,30,7,,,,,,,,,,,,,,,,,,,,,,,,,,,,,,,,,,,,,,,,,,,,,,,,,,,,,,,,,,,,,,,,401.34895419998793,401.749314900022,401.733469400031,401.8336827000021,402.23443780001253,None,left,0,0.44304149999516085,402.23443780001253,None,401.733469400031,401.8336827000021,401.8336827000021,None,402.7008594000363,None,,,,,,,11013,001,2024_Jan_02_1652,ANT,2021.2.3,60.2680845001238,
1,19,spatial,up,IC,L,,,,,,Block.xlsx,"你已经完成了整个实验（三个区组）。

请报告实验者已完成实验

非常感谢，再见！",1.5,0,1.5,left,RRLRR.png,,,,,0,1,1,1,1,7,31,18,,,,,,,,,,,,,,,,,,,,,,,,,,,,,,,,,,,,,,,,,,,,,,,,,,,,,,,,,,,,,,,,403.1016393000027,403.50269860000117,403.48622250003973,403.5861243000254,403.98602890002076,None,left,1,0.564119600050617,403.98602890002076,None,403.48622250003973,403.5861243000254,403.5861243000254,None,404.5703537000227,None,,,,,,,11013,001,2024_Jan_02_1652,ANT,2021.2.3,60.2680845001238,
1,21,spatial,down,C,L,,,,,,Block.xlsx,"你已经完成了整个实验（三个区组）。

请报告实验者已完成实验

非常感谢，再见！",-1.5,0,-1.5,left,LLLLL.png,,,,,0,1,1,1,1,8,32,20,,,,,,,,,,,,,,,,,,,,,,,,,,,,,,,,,,,,,,,,,,,,,,,,,,,,,,,,,,,,,,,,404.97199510002974,405.3722451000358,405.3548222000245,405.4573042000411,405.85637779999524,None,left,1,0.357071700040251,405.85637779999524,None,405.3548222000245,405.4573042000411,405.4573042000411,None,406.23950460000196,None,,,,,,,11013,001,2024_Jan_02_1652,ANT,2021.2.3,60.2680845001238,
1,18,spatial,up,C,R,,,,,,Block.xlsx,"你已经完成了整个实验（三个区组）。

请报告实验者已完成实验

非常感谢，再见！",1.5,0,1.5,right,RRRRR.png,,,,,0,1,1,1,1,9,33,17,,,,,,,,,,,,,,,,,,,,,,,,,,,,,,,,,,,,,,,,,,,,,,,,,,,,,,,,,,,,,,,,406.6401479000342,407.0417191000306,407.02412610000465,407.1247951000114,407.524999700021,None,right,1,0.34447369998088107,407.524999700021,None,407.02412610000465,407.1247951000114,407.1247951000114,None,407.89187450002646,None,,,,,,,11013,001,2024_Jan_02_1652,ANT,2021.2.3,60.2680845001238,
1,23,spatial,down,IC,L,,,,,,Block.xlsx,"你已经完成了整个实验（三个区组）。

请报告实验者已完成实验

非常感谢，再见！",-1.5,0,-1.5,left,RRLRR.png,,,,,0,1,1,1,1,10,34,22,,,,,,,,,,,,,,,,,,,,,,,,,,,,,,,,,,,,,,,,,,,,,,,,,,,,,,,,,,,,,,,,408.29277639999054,408.69397740002023,408.6783755000215,408.77712630003225,409.1779760000063,None,left,1,0.4116833000443876,409.1779760000063,None,408.6783755000215,408.77712630003225,408.77712630003225,None,409.6110269000055,None,,,,,,,11013,001,2024_Jan_02_1652,ANT,2021.2.3,60.2680845001238,
1,10,center,up,C,R,,,,,,Block.xlsx,"你已经完成了整个实验（三个区组）。

请报告实验者已完成实验

非常感谢，再见！",0,50,1.5,right,RRRRR.png,,,,,0,1,1,1,1,11,35,9,,,,,,,,,,,,,,,,,,,,,,,,,,,,,,,,,,,,,,,,,,,,,,,,,,,,,,,,,,,,,,,,410.01179080002476,410.4134261000436,410.39558290003333,410.4958236000384,410.8991844000411,None,right,1,0.35421419999329373,410.8991844000411,None,410.39558290003333,410.4958236000384,410.4958236000384,None,411.281435700017,None,,,,,,,11013,001,2024_Jan_02_1652,ANT,2021.2.3,60.2680845001238,
1,2,no,up,C,R,,,,,,Block.xlsx,"你已经完成了整个实验（三个区组）。

请报告实验者已完成实验

非常感谢，再见！",50,0,1.5,right,RRRRR.png,,,,,0,1,1,1,1,12,36,1,,,,,,,,,,,,,,,,,,,,,,,,,,,,,,,,,,,,,,,,,,,,,,,,,,,,,,,,,,,,,,,,411.68195300002117,412.0820238000015,412.064959899988,412.16560489998665,412.5659630000009,None,right,1,0.400407399982214,412.5659630000009,None,412.064959899988,412.16560489998665,412.16560489998665,None,412.98302970000077,None,,,,,,,11013,001,2024_Jan_02_1652,ANT,2021.2.3,60.2680845001238,
1,14,center,down,C,R,,,,,,Block.xlsx,"你已经完成了整个实验（三个区组）。

请报告实验者已完成实验

非常感谢，再见！",0,50,-1.5,right,RRRRR.png,,,,,0,1,1,1,1,13,37,13,,,,,,,,,,,,,,,,,,,,,,,,,,,,,,,,,,,,,,,,,,,,,,,,,,,,,,,,,,,,,,,,413.38338050001767,413.78438590001315,413.7675626000273,413.8673117000144,414.2686805000412,None,left,0,0.3927168999798596,414.2686805000412,None,413.7675626000273,413.8673117000144,413.8673117000144,None,414.6857657000073,None,,,,,,,11013,001,2024_Jan_02_1652,ANT,2021.2.3,60.2680845001238,
1,16,center,down,IC,R,,,,,,Block.xlsx,"你已经完成了整个实验（三个区组）。

请报告实验者已完成实验

非常感谢，再见！",0,50,-1.5,right,LLRLL.png,,,,,0,1,1,1,1,14,38,15,,,,,,,,,,,,,,,,,,,,,,,,,,,,,,,,,,,,,,,,,,,,,,,,,,,,,,,,,,,,,,,,415.0859361999901,415.48774120002054,415.4697068000096,415.5703603000147,415.9707570000319,None,left,0,0.41879349999362603,415.9707570000319,None,415.4697068000096,415.5703603000147,415.5703603000147,None,416.40445460000774,None,,,,,,,11013,001,2024_Jan_02_1652,ANT,2021.2.3,60.2680845001238,
1,24,spatial,down,IC,R,,,,,,Block.xlsx,"你已经完成了整个实验（三个区组）。

请报告实验者已完成实验

非常感谢，再见！",-1.5,0,-1.5,right,LLRLL.png,,,,,0,1,1,1,1,15,39,23,,,,,,,,,,,,,,,,,,,,,,,,,,,,,,,,,,,,,,,,,,,,,,,,,,,,,,,,,,,,,,,,416.8051323000109,417.20732320001116,417.1897978000343,417.2898614000296,417.69079610001063,None,right,1,0.5228193000075407,417.69079610001063,None,417.1897978000343,417.2898614000296,417.2898614000296,None,418.2407987000188,None,,,,,,,11013,001,2024_Jan_02_1652,ANT,2021.2.3,60.2680845001238,
1,6,no,down,C,R,,,,,,Block.xlsx,"你已经完成了整个实验（三个区组）。

请报告实验者已完成实验

非常感谢，再见！",50,0,-1.5,right,RRRRR.png,,,,,0,1,1,1,1,16,40,5,,,,,,,,,,,,,,,,,,,,,,,,,,,,,,,,,,,,,,,,,,,,,,,,,,,,,,,,,,,,,,,,418.6421804000274,419.04239419999067,419.0268054000335,419.12559030001285,419.5265446000267,None,right,1,0.4069580999785103,419.5265446000267,None,419.0268054000335,419.12559030001285,419.12559030001285,None,419.96053660003236,None,,,,,,,11013,001,2024_Jan_02_1652,ANT,2021.2.3,60.2680845001238,
1,9,center,up,C,L,,,,,,Block.xlsx,"你已经完成了整个实验（三个区组）。

请报告实验者已完成实验

非常感谢，再见！",0,50,1.5,left,LLLLL.png,,,,,0,1,1,1,1,17,41,8,,,,,,,,,,,,,,,,,,,,,,,,,,,,,,,,,,,,,,,,,,,,,,,,,,,,,,,,,,,,,,,,420.36135130003095,420.7616626000381,420.7452226000023,420.84613379999064,421.24695749999955,None,left,1,0.4150573000079021,421.24695749999955,None,420.7452226000023,420.84613379999064,420.84613379999064,None,421.6800181000144,None,,,,,,,11013,001,2024_Jan_02_1652,ANT,2021.2.3,60.2680845001238,
1,1,no,up,C,L,,,,,,Block.xlsx,"你已经完成了整个实验（三个区组）。

请报告实验者已完成实验

非常感谢，再见！",50,0,1.5,left,LLLLL.png,,,,,0,1,1,1,1,18,42,0,,,,,,,,,,,,,,,,,,,,,,,,,,,,,,,,,,,,,,,,,,,,,,,,,,,,,,,,,,,,,,,,422.0802554000402,422.48018010001397,422.46331840002676,422.5653082000208,422.965153200028,None,left,1,0.3684633999946527,422.965153200028,None,422.46331840002676,422.5653082000208,422.5653082000208,None,423.3647201000131,None,,,,,,,11013,001,2024_Jan_02_1652,ANT,2021.2.3,60.2680845001238,
1,6,no,down,C,R,,,,,,Block.xlsx,"你已经完成了整个实验（三个区组）。

请报告实验者已完成实验

非常感谢，再见！",50,0,-1.5,right,RRRRR.png,,,,,0,1,1,1,1,19,43,5,,,,,,,,,,,,,,,,,,,,,,,,,,,,,,,,,,,,,,,,,,,,,,,,,,,,,,,,,,,,,,,,423.7653427000041,424.1662210000213,424.1499417999876,424.2495326999924,424.6499700000277,None,right,1,0.44444940000539646,424.6499700000277,None,424.1499417999876,424.2495326999924,424.2495326999924,None,425.117535700032,None,,,,,,,11013,001,2024_Jan_02_1652,ANT,2021.2.3,60.2680845001238,
1,11,center,up,IC,L,,,,,,Block.xlsx,"你已经完成了整个实验（三个区组）。

请报告实验者已完成实验

非常感谢，再见！",0,50,1.5,left,RRLRR.png,,,,,0,1,1,1,1,20,44,10,,,,,,,,,,,,,,,,,,,,,,,,,,,,,,,,,,,,,,,,,,,,,,,,,,,,,,,,,,,,,,,,425.5179991000332,425.918590700021,425.90347320004366,426.0026088000159,426.4027533000335,None,left,1,0.6027353000245057,426.4027533000335,None,425.90347320004366,426.0026088000159,426.0026088000159,None,427.02129559998866,None,,,,,,,11013,001,2024_Jan_02_1652,ANT,2021.2.3,60.2680845001238,
1,13,center,down,C,L,,,,,,Block.xlsx,"你已经完成了整个实验（三个区组）。

请报告实验者已完成实验

非常感谢，再见！",0,50,-1.5,left,LLLLL.png,,,,,0,1,1,1,1,21,45,12,,,,,,,,,,,,,,,,,,,,,,,,,,,,,,,,,,,,,,,,,,,,,,,,,,,,,,,,,,,,,,,,427.42211260000477,427.82207330001984,427.80475360003766,427.9059235000168,428.3054386000149,None,left,1,0.4520590999745764,428.3054386000149,None,427.80475360003766,427.9059235000168,427.9059235000168,None,428.7895539000165,None,,,,,,,11013,001,2024_Jan_02_1652,ANT,2021.2.3,60.2680845001238,
1,4,no,up,IC,R,,,,,,Block.xlsx,"你已经完成了整个实验（三个区组）。

请报告实验者已完成实验

非常感谢，再见！",50,0,1.5,right,LLRLL.png,,,,,0,1,1,1,1,22,46,3,,,,,,,,,,,,,,,,,,,,,,,,,,,,,,,,,,,,,,,,,,,,,,,,,,,,,,,,,,,,,,,,429.19025809998857,429.59196930000326,429.5741378000239,429.674582800013,430.07548350002617,None,right,1,0.4019988999934867,430.07548350002617,None,429.5741378000239,429.674582800013,429.674582800013,None,430.508516300004,None,,,,,,,11013,001,2024_Jan_02_1652,ANT,2021.2.3,60.2680845001238,
1,11,center,up,IC,L,,,,,,Block.xlsx,"你已经完成了整个实验（三个区组）。

请报告实验者已完成实验

非常感谢，再见！",0,50,1.5,left,RRLRR.png,,,,,0,1,1,1,1,23,47,10,,,,,,,,,,,,,,,,,,,,,,,,,,,,,,,,,,,,,,,,,,,,,,,,,,,,,,,,,,,,,,,,430.910369899997,431.3100357000367,431.2951182000106,431.3935518999933,431.7939533999888,None,left,1,0.5642277000006288,431.7939533999888,None,431.2951182000106,431.3935518999933,431.3935518999933,None,432.3780788999866,None,,,,,,,11013,001,2024_Jan_02_1652,ANT,2021.2.3,60.2680845001238,
1,3,no,up,IC,L,,,,,,Block.xlsx,"你已经完成了整个实验（三个区组）。

请报告实验者已完成实验

非常感谢，再见！",50,0,1.5,left,RRLRR.png,,,,,0,1,1,1,2,0,48,2,,,,,,,,,,,,,,,,,,,,,,,,,,,,,,,,,,,,,,,,,,,,,,,,,,,,,,,,,,,,,,,,432.77895290002925,433.18149590003304,433.1628102000104,433.2634844999993,433.66333230002783,None,left,1,0.510086499969475,433.66333230002783,None,433.1628102000104,433.2634844999993,433.2634844999993,None,434.19885200000135,None,,,,,,,11013,001,2024_Jan_02_1652,ANT,2021.2.3,60.2680845001238,
1,15,center,down,IC,L,,,,,,Block.xlsx,"你已经完成了整个实验（三个区组）。

请报告实验者已完成实验

非常感谢，再见！",0,50,-1.5,left,RRLRR.png,,,,,0,1,1,1,2,1,49,14,,,,,,,,,,,,,,,,,,,,,,,,,,,,,,,,,,,,,,,,,,,,,,,,,,,,,,,,,,,,,,,,434.59901180001907,435.0003780000261,434.9820411000401,435.08268880000105,435.48298989998875,None,left,1,0.5628064000047743,435.48298989998875,None,434.9820411000401,435.08268880000105,435.08268880000105,None,436.0668880000012,None,,,,,,,11013,001,2024_Jan_02_1652,ANT,2021.2.3,60.2680845001238,
1,22,spatial,down,C,R,,,,,,Block.xlsx,"你已经完成了整个实验（三个区组）。

请报告实验者已完成实验

非常感谢，再见！",-1.5,0,-1.5,right,RRRRR.png,,,,,0,1,1,1,2,2,50,21,,,,,,,,,,,,,,,,,,,,,,,,,,,,,,,,,,,,,,,,,,,,,,,,,,,,,,,,,,,,,,,,436.46837810002035,436.8696754000266,436.8515411000117,436.95308350003324,437.35456830001203,None,right,1,0.5389174000010826,437.35456830001203,None,436.8515411000117,436.95308350003324,436.95308350003324,None,437.91983950004214,None,,,,,,,11013,001,2024_Jan_02_1652,ANT,2021.2.3,60.2680845001238,
1,20,spatial,up,IC,R,,,,,,Block.xlsx,"你已经完成了整个实验（三个区组）。

请报告实验者已完成实验

非常感谢，再见！",1.5,0,1.5,right,LLRLL.png,,,,,0,1,1,1,2,3,51,19,,,,,,,,,,,,,,,,,,,,,,,,,,,,,,,,,,,,,,,,,,,,,,,,,,,,,,,,,,,,,,,,438.32077630003914,438.72102280001855,438.70480920001864,438.80518100003246,439.20623110001907,None,right,1,0.42323580000083894,439.20623110001907,None,438.70480920001864,438.80518100003246,438.80518100003246,None,439.6559122999897,None,,,,,,,11013,001,2024_Jan_02_1652,ANT,2021.2.3,60.2680845001238,
1,11,center,up,IC,L,,,,,,Block.xlsx,"你已经完成了整个实验（三个区组）。

请报告实验者已完成实验

非常感谢，再见！",0,50,1.5,left,RRLRR.png,,,,,0,1,1,1,2,4,52,10,,,,,,,,,,,,,,,,,,,,,,,,,,,,,,,,,,,,,,,,,,,,,,,,,,,,,,,,,,,,,,,,440.05604880000465,440.4582943000132,440.44087210000725,440.5409923000261,440.9431446000235,None,left,1,0.6224306999938563,440.9431446000235,None,440.44087210000725,440.5409923000261,440.5409923000261,None,441.5919790000189,None,,,,,,,11013,001,2024_Jan_02_1652,ANT,2021.2.3,60.2680845001238,
1,6,no,down,C,R,,,,,,Block.xlsx,"你已经完成了整个实验（三个区组）。

请报告实验者已完成实验

非常感谢，再见！",50,0,-1.5,right,RRRRR.png,,,,,0,1,1,1,2,5,53,5,,,,,,,,,,,,,,,,,,,,,,,,,,,,,,,,,,,,,,,,,,,,,,,,,,,,,,,,,,,,,,,,441.99238070001593,442.39308950002305,442.3767374000163,442.47781310003484,442.87722590001067,None,right,1,0.4722858999739401,442.87722590001067,None,442.3767374000163,442.47781310003484,442.47781310003484,None,443.37794179999037,None,,,,,,,11013,001,2024_Jan_02_1652,ANT,2021.2.3,60.2680845001238,
1,8,no,down,IC,R,,,,,,Block.xlsx,"你已经完成了整个实验（三个区组）。

请报告实验者已完成实验

非常感谢，再见！",50,0,-1.5,right,LLRLL.png,,,,,0,1,1,1,2,6,54,7,,,,,,,,,,,,,,,,,,,,,,,,,,,,,,,,,,,,,,,,,,,,,,,,,,,,,,,,,,,,,,,,443.7782455999986,444.1794663000037,444.1630718000233,444.2625307000126,444.6637686000322,None,right,1,0.6456411000108346,444.6637686000322,None,444.1630718000233,444.2625307000126,444.2625307000126,None,445.33138660003897,None,,,,,,,11013,001,2024_Jan_02_1652,ANT,2021.2.3,60.2680845001238,
1,22,spatial,down,C,R,,,,,,Block.xlsx,"你已经完成了整个实验（三个区组）。

请报告实验者已完成实验

非常感谢，再见！",-1.5,0,-1.5,right,RRRRR.png,,,,,0,1,1,1,2,7,55,21,,,,,,,,,,,,,,,,,,,,,,,,,,,,,,,,,,,,,,,,,,,,,,,,,,,,,,,,,,,,,,,,445.73126209998736,446.13176220003515,446.1155622000224,446.2172734999913,446.61617240001215,None,right,1,0.37328270002035424,446.61617240001215,None,446.1155622000224,446.2172734999913,446.2172734999913,None,447.0165893000085,None,,,,,,,11013,001,2024_Jan_02_1652,ANT,2021.2.3,60.2680845001238,
1,20,spatial,up,IC,R,,,,,,Block.xlsx,"你已经完成了整个实验（三个区组）。

请报告实验者已完成实验

非常感谢，再见！",1.5,0,1.5,right,LLRLL.png,,,,,0,1,1,1,2,8,56,19,,,,,,,,,,,,,,,,,,,,,,,,,,,,,,,,,,,,,,,,,,,,,,,,,,,,,,,,,,,,,,,,447.4179620000068,447.81780790002085,447.8017594999983,447.9034540000139,448.301830100012,None,right,1,0.3687540999962948,448.301830100012,None,447.8017594999983,447.9034540000139,447.9034540000139,None,448.6865342000383,None,,,,,,,11013,001,2024_Jan_02_1652,ANT,2021.2.3,60.2680845001238,
1,19,spatial,up,IC,L,,,,,,Block.xlsx,"你已经完成了整个实验（三个区组）。

请报告实验者已完成实验

非常感谢，再见！",1.5,0,1.5,left,RRLRR.png,,,,,0,1,1,1,2,9,57,18,,,,,,,,,,,,,,,,,,,,,,,,,,,,,,,,,,,,,,,,,,,,,,,,,,,,,,,,,,,,,,,,449.0862311000237,449.48909680004,449.47015430004103,449.5730870999978,449.9708830000018,None,left,1,0.4107886999845505,449.9708830000018,None,449.47015430004103,449.5730870999978,449.5730870999978,None,450.4051039000042,None,,,,,,,11013,001,2024_Jan_02_1652,ANT,2021.2.3,60.2680845001238,
1,16,center,down,IC,R,,,,,,Block.xlsx,"你已经完成了整个实验（三个区组）。

请报告实验者已完成实验

非常感谢，再见！",0,50,-1.5,right,LLRLL.png,,,,,0,1,1,1,2,10,58,15,,,,,,,,,,,,,,,,,,,,,,,,,,,,,,,,,,,,,,,,,,,,,,,,,,,,,,,,,,,,,,,,450.8055724000442,451.20685830002185,451.190409700037,451.29049230000237,451.692111500015,None,right,1,0.5933039999799803,451.692111500015,None,451.190409700037,451.29049230000237,451.29049230000237,None,452.3076536000008,None,,,,,,,11013,001,2024_Jan_02_1652,ANT,2021.2.3,60.2680845001238,
1,1,no,up,C,L,,,,,,Block.xlsx,"你已经完成了整个实验（三个区组）。

请报告实验者已完成实验

非常感谢，再见！",50,0,1.5,left,LLLLL.png,,,,,0,1,1,1,2,11,59,0,,,,,,,,,,,,,,,,,,,,,,,,,,,,,,,,,,,,,,,,,,,,,,,,,,,,,,,,,,,,,,,,452.7083018000121,453.1102422000258,453.09260040003574,453.1930127000087,453.59370540000964,None,left,1,0.41213200002675876,453.59370540000964,None,453.09260040003574,453.1930127000087,453.1930127000087,None,454.02679329999955,None,,,,,,,11013,001,2024_Jan_02_1652,ANT,2021.2.3,60.2680845001238,
1,12,center,up,IC,R,,,,,,Block.xlsx,"你已经完成了整个实验（三个区组）。

请报告实验者已完成实验

非常感谢，再见！",0,50,1.5,right,LLRLL.png,,,,,0,1,1,1,2,12,60,11,,,,,,,,,,,,,,,,,,,,,,,,,,,,,,,,,,,,,,,,,,,,,,,,,,,,,,,,,,,,,,,,454.42780070001027,454.8288931000279,454.81205880001653,454.9122207000037,455.31303830002435,None,right,1,0.5084730999660678,455.31303830002435,None,454.81205880001653,454.9122207000037,454.9122207000037,None,455.84605250001187,None,,,,,,,11013,001,2024_Jan_02_1652,ANT,2021.2.3,60.2680845001238,
1,6,no,down,C,R,,,,,,Block.xlsx,"你已经完成了整个实验（三个区组）。

请报告实验者已完成实验

非常感谢，再见！",50,0,-1.5,right,RRRRR.png,,,,,0,1,1,1,2,13,61,5,,,,,,,,,,,,,,,,,,,,,,,,,,,,,,,,,,,,,,,,,,,,,,,,,,,,,,,,,,,,,,,,456.2468427999993,456.64905990002444,456.6309089999995,456.7321290000109,457.13142380001955,None,right,1,0.498499300039839,457.13142380001955,None,456.6309089999995,456.7321290000109,456.7321290000109,None,457.6490327999927,None,,,,,,,11013,001,2024_Jan_02_1652,ANT,2021.2.3,60.2680845001238,
1,12,center,up,IC,R,,,,,,Block.xlsx,"你已经完成了整个实验（三个区组）。

请报告实验者已完成实验

非常感谢，再见！",0,50,1.5,right,LLRLL.png,,,,,0,1,1,1,2,14,62,11,,,,,,,,,,,,,,,,,,,,,,,,,,,,,,,,,,,,,,,,,,,,,,,,,,,,,,,,,,,,,,,,458.0504193000379,458.45235899998806,458.43408929998986,458.534512000042,458.93551700003445,None,right,1,0.45414679998066276,458.93551700003445,None,458.43408929998986,458.534512000042,458.534512000042,None,459.41863040003227,None,,,,,,,11013,001,2024_Jan_02_1652,ANT,2021.2.3,60.2680845001238,
1,7,no,down,IC,L,,,,,,Block.xlsx,"你已经完成了整个实验（三个区组）。

请报告实验者已完成实验

非常感谢，再见！",50,0,-1.5,left,RRLRR.png,,,,,0,1,1,1,2,15,63,6,,,,,,,,,,,,,,,,,,,,,,,,,,,,,,,,,,,,,,,,,,,,,,,,,,,,,,,,,,,,,,,,459.8193406999926,460.2209063000046,460.2034535999992,460.3029739999911,460.7043687000405,None,right,0,0.46108259999891743,460.7043687000405,None,460.2034535999992,460.3029739999911,460.3029739999911,None,461.18748950003646,None,,,,,,,11013,001,2024_Jan_02_1652,ANT,2021.2.3,60.2680845001238,
1,24,spatial,down,IC,R,,,,,,Block.xlsx,"你已经完成了整个实验（三个区组）。

请报告实验者已完成实验

非常感谢，再见！",-1.5,0,-1.5,right,LLRLL.png,,,,,0,1,1,1,2,16,64,23,,,,,,,,,,,,,,,,,,,,,,,,,,,,,,,,,,,,,,,,,,,,,,,,,,,,,,,,,,,,,,,,461.58838050003396,461.9888232999947,461.97293729998637,462.07215220003854,462.4736047000042,None,right,1,0.5327721000066958,462.4736047000042,None,461.97293729998637,462.07215220003854,462.07215220003854,None,463.0234763000044,None,,,,,,,11013,001,2024_Jan_02_1652,ANT,2021.2.3,60.2680845001238,
1,18,spatial,up,C,R,,,,,,Block.xlsx,"你已经完成了整个实验（三个区组）。

请报告实验者已完成实验

非常感谢，再见！",1.5,0,1.5,right,RRRRR.png,,,,,0,1,1,1,2,17,65,17,,,,,,,,,,,,,,,,,,,,,,,,,,,,,,,,,,,,,,,,,,,,,,,,,,,,,,,,,,,,,,,,463.42497360002017,463.8266666000127,463.8084677000297,463.9095006000134,464.30880580004305,None,right,1,0.3367494000121951,464.30880580004305,None,463.8084677000297,463.9095006000134,463.9095006000134,None,464.67615549999755,None,,,,,,,11013,001,2024_Jan_02_1652,ANT,2021.2.3,60.2680845001238,
1,3,no,up,IC,L,,,,,,Block.xlsx,"你已经完成了整个实验（三个区组）。

请报告实验者已完成实验

非常感谢，再见！",50,0,1.5,left,RRLRR.png,,,,,0,1,1,1,2,18,66,2,,,,,,,,,,,,,,,,,,,,,,,,,,,,,,,,,,,,,,,,,,,,,,,,,,,,,,,,,,,,,,,,465.07677819998935,465.47866840002825,465.46062200004235,465.5621963000158,465.9612909000134,None,left,1,0.4201053999713622,465.9612909000134,None,465.46062200004235,465.5621963000158,465.5621963000158,None,466.4119370999979,None,,,,,,,11013,001,2024_Jan_02_1652,ANT,2021.2.3,60.2680845001238,
1,21,spatial,down,C,L,,,,,,Block.xlsx,"你已经完成了整个实验（三个区组）。

请报告实验者已完成实验

非常感谢，再见！",-1.5,0,-1.5,left,LLLLL.png,,,,,0,1,1,1,2,19,67,20,,,,,,,,,,,,,,,,,,,,,,,,,,,,,,,,,,,,,,,,,,,,,,,,,,,,,,,,,,,,,,,,466.8126076000044,467.2147292000009,467.19638119998854,467.29719650000334,467.6973057000432,None,left,1,0.4201166999991983,467.6973057000432,None,467.19638119998854,467.29719650000334,467.29719650000334,None,468.1479074000381,None,,,,,,,11013,001,2024_Jan_02_1652,ANT,2021.2.3,60.2680845001238,
1,5,no,down,C,L,,,,,,Block.xlsx,"你已经完成了整个实验（三个区组）。

请报告实验者已完成实验

非常感谢，再见！",50,0,-1.5,left,LLLLL.png,,,,,0,1,1,1,2,20,68,4,,,,,,,,,,,,,,,,,,,,,,,,,,,,,,,,,,,,,,,,,,,,,,,,,,,,,,,,,,,,,,,,468.54853410000214,468.9489831000101,468.9327770000091,469.03327910002554,469.432961500017,None,left,1,0.42867689998820424,469.432961500017,None,468.9327770000091,469.03327910002554,469.03327910002554,None,469.8839302000124,None,,,,,,,11013,001,2024_Jan_02_1652,ANT,2021.2.3,60.2680845001238,
1,5,no,down,C,L,,,,,,Block.xlsx,"你已经完成了整个实验（三个区组）。

请报告实验者已完成实验

非常感谢，再见！",50,0,-1.5,left,LLLLL.png,,,,,0,1,1,1,2,21,69,4,,,,,,,,,,,,,,,,,,,,,,,,,,,,,,,,,,,,,,,,,,,,,,,,,,,,,,,,,,,,,,,,470.2849778000382,470.6856745000114,470.66899530001683,470.7700081000221,471.1696595000103,None,left,1,0.4358595000230707,471.1696595000103,None,470.66899530001683,470.7700081000221,470.7700081000221,None,471.6364530000137,None,,,,,,,11013,001,2024_Jan_02_1652,ANT,2021.2.3,60.2680845001238,
1,2,no,up,C,R,,,,,,Block.xlsx,"你已经完成了整个实验（三个区组）。

请报告实验者已完成实验

非常感谢，再见！",50,0,1.5,right,RRRRR.png,,,,,0,1,1,1,2,22,70,1,,,,,,,,,,,,,,,,,,,,,,,,,,,,,,,,,,,,,,,,,,,,,,,,,,,,,,,,,,,,,,,,472.03689580003265,472.43838780000806,472.421112800017,472.52236599999014,472.92291110003134,None,right,1,0.40287210000678897,472.92291110003134,None,472.421112800017,472.52236599999014,472.52236599999014,None,473.35554680001223,None,,,,,,,11013,001,2024_Jan_02_1652,ANT,2021.2.3,60.2680845001238,
1,2,no,up,C,R,,,,,,Block.xlsx,"你已经完成了整个实验（三个区组）。

请报告实验者已完成实验

非常感谢，再见！",50,0,1.5,right,RRRRR.png,,,,,0,1,1,1,2,23,71,1,,,,,,,,,,,,,,,,,,,,,,,,,,,,,,,,,,,,,,,,,,,,,,,,,,,,,,,,,,,,,,,,473.7565564000397,474.15820040000835,474.14080650004325,474.24038740003016,474.64153790002456,None,right,1,0.35611419996712357,474.64153790002456,None,474.14080650004325,474.24038740003016,474.24038740003016,None,475.02478610002436,None,,,,,,,11013,001,2024_Jan_02_1652,ANT,2021.2.3,60.2680845001238,
1,17,spatial,up,C,L,,,,,,Block.xlsx,"你已经完成了整个实验（三个区组）。

请报告实验者已完成实验

非常感谢，再见！",1.5,0,1.5,left,LLLLL.png,,,,,0,1,1,1,3,0,72,16,,,,,,,,,,,,,,,,,,,,,,,,,,,,,,,,,,,,,,,,,,,,,,,,,,,,,,,,,,,,,,,,475.4258917000261,475.8273387000081,475.80921540001873,475.9112222000258,476.3100143999909,None,left,1,0.42357889999402687,476.3100143999909,None,475.80921540001873,475.9112222000258,475.9112222000258,None,476.760757800017,None,,,,,,,11013,001,2024_Jan_02_1652,ANT,2021.2.3,60.2680845001238,
1,20,spatial,up,IC,R,,,,,,Block.xlsx,"你已经完成了整个实验（三个区组）。

请报告实验者已完成实验

非常感谢，再见！",1.5,0,1.5,right,LLRLL.png,,,,,0,1,1,1,3,1,73,19,,,,,,,,,,,,,,,,,,,,,,,,,,,,,,,,,,,,,,,,,,,,,,,,,,,,,,,,,,,,,,,,477.1613096999936,477.5629339000443,477.54508060001535,477.6459194000345,478.0471660000039,None,right,1,0.3904066000250168,478.0471660000039,None,477.54508060001535,477.6459194000345,477.6459194000345,None,478.4630660000257,None,,,,,,,11013,001,2024_Jan_02_1652,ANT,2021.2.3,60.2680845001238,
1,14,center,down,C,R,,,,,,Block.xlsx,"你已经完成了整个实验（三个区组）。

请报告实验者已完成实验

非常感谢，再见！",0,50,-1.5,right,RRRRR.png,,,,,0,1,1,1,3,2,74,13,,,,,,,,,,,,,,,,,,,,,,,,,,,,,,,,,,,,,,,,,,,,,,,,,,,,,,,,,,,,,,,,478.86372980003944,479.2660775000113,479.2484938999987,479.3483519000001,479.7492573999916,None,right,1,0.44066559994826093,479.7492573999916,None,479.2484938999987,479.3483519000001,479.3483519000001,None,480.2158597999951,None,,,,,,,11013,001,2024_Jan_02_1652,ANT,2021.2.3,60.2680845001238,
1,7,no,down,IC,L,,,,,,Block.xlsx,"你已经完成了整个实验（三个区组）。

请报告实验者已完成实验

非常感谢，再见！",50,0,-1.5,left,RRLRR.png,,,,,0,1,1,1,3,3,75,6,,,,,,,,,,,,,,,,,,,,,,,,,,,,,,,,,,,,,,,,,,,,,,,,,,,,,,,,,,,,,,,,480.61634190002223,481.0189248000388,481.0014214999974,481.1022137000109,481.5025384000037,None,right,0,0.4309139000251889,481.5025384000037,None,481.0014214999974,481.1022137000109,481.1022137000109,None,481.95156140002655,None,,,,,,,11013,001,2024_Jan_02_1652,ANT,2021.2.3,60.2680845001238,
1,8,no,down,IC,R,,,,,,Block.xlsx,"你已经完成了整个实验（三个区组）。

请报告实验者已完成实验

非常感谢，再见！",50,0,-1.5,right,LLRLL.png,,,,,0,1,1,1,3,4,76,7,,,,,,,,,,,,,,,,,,,,,,,,,,,,,,,,,,,,,,,,,,,,,,,,,,,,,,,,,,,,,,,,482.3522787000402,482.75520930002676,482.73678720003227,482.8369912999915,483.23886869999114,None,right,1,0.6631556000211276,483.23886869999114,None,482.73678720003227,482.8369912999915,482.8369912999915,None,483.9230564000318,None,,,,,,,11013,001,2024_Jan_02_1652,ANT,2021.2.3,60.2680845001238,
1,23,spatial,down,IC,L,,,,,,Block.xlsx,"你已经完成了整个实验（三个区组）。

请报告实验者已完成实验

非常感谢，再见！",-1.5,0,-1.5,left,RRLRR.png,,,,,0,1,1,1,3,5,77,22,,,,,,,,,,,,,,,,,,,,,,,,,,,,,,,,,,,,,,,,,,,,,,,,,,,,,,,,,,,,,,,,484.3218707999913,484.72463230002904,484.7062822000007,484.8064446999924,485.20714110002154,None,left,1,0.49481389997527003,485.20714110002154,None,484.7062822000007,484.8064446999924,484.8064446999924,None,485.7237750000204,None,,,,,,,11013,001,2024_Jan_02_1652,ANT,2021.2.3,60.2680845001238,
1,3,no,up,IC,L,,,,,,Block.xlsx,"你已经完成了整个实验（三个区组）。

请报告实验者已完成实验

非常感谢，再见！",50,0,1.5,left,RRLRR.png,,,,,0,1,1,1,3,6,78,2,,,,,,,,,,,,,,,,,,,,,,,,,,,,,,,,,,,,,,,,,,,,,,,,,,,,,,,,,,,,,,,,486.1242409000406,486.5253175999969,486.5085287000402,486.60866910003824,487.0104948999942,None,left,1,0.5389380000415258,487.0104948999942,None,486.5085287000402,486.60866910003824,486.60866910003824,None,487.57685140002286,None,,,,,,,11013,001,2024_Jan_02_1652,ANT,2021.2.3,60.2680845001238,
1,24,spatial,down,IC,R,,,,,,Block.xlsx,"你已经完成了整个实验（三个区组）。

请报告实验者已完成实验

非常感谢，再见！",-1.5,0,-1.5,right,LLRLL.png,,,,,0,1,1,1,3,7,79,23,,,,,,,,,,,,,,,,,,,,,,,,,,,,,,,,,,,,,,,,,,,,,,,,,,,,,,,,,,,,,,,,487.9772411999875,488.3780897000106,488.3610963000101,488.4621205999865,488.86254890001146,None,right,1,0.6152473000111058,488.86254890001146,None,488.3610963000101,488.4621205999865,488.4621205999865,None,489.496796499996,None,,,,,,,11013,001,2024_Jan_02_1652,ANT,2021.2.3,60.2680845001238,
1,3,no,up,IC,L,,,,,,Block.xlsx,"你已经完成了整个实验（三个区组）。

请报告实验者已完成实验

非常感谢，再见！",50,0,1.5,left,RRLRR.png,,,,,0,1,1,1,3,8,80,2,,,,,,,,,,,,,,,,,,,,,,,,,,,,,,,,,,,,,,,,,,,,,,,,,,,,,,,,,,,,,,,,489.89690130000236,490.29857879999327,490.2808084000135,490.38229420001153,490.7814508000156,None,left,1,0.44853280001552776,490.7814508000156,None,490.2808084000135,490.38229420001153,490.38229420001153,None,491.2485369000351,None,,,,,,,11013,001,2024_Jan_02_1652,ANT,2021.2.3,60.2680845001238,
1,13,center,down,C,L,,,,,,Block.xlsx,"你已经完成了整个实验（三个区组）。

请报告实验者已完成实验

非常感谢，再见！",0,50,-1.5,left,LLLLL.png,,,,,0,1,1,1,3,9,81,12,,,,,,,,,,,,,,,,,,,,,,,,,,,,,,,,,,,,,,,,,,,,,,,,,,,,,,,,,,,,,,,,491.64935449999757,492.0515264000278,492.0338530000299,492.13386250002077,492.53425080003217,None,left,1,0.3913029999821447,492.53425080003217,None,492.0338530000299,492.13386250002077,492.13386250002077,None,492.9514335000422,None,,,,,,,11013,001,2024_Jan_02_1652,ANT,2021.2.3,60.2680845001238,
1,11,center,up,IC,L,,,,,,Block.xlsx,"你已经完成了整个实验（三个区组）。

请报告实验者已完成实验

非常感谢，再见！",0,50,1.5,left,RRLRR.png,,,,,0,1,1,1,3,10,82,10,,,,,,,,,,,,,,,,,,,,,,,,,,,,,,,,,,,,,,,,,,,,,,,,,,,,,,,,,,,,,,,,493.35242060001474,493.7540291000041,493.73640200000955,493.8373270999873,494.23647030000575,None,left,1,0.5931496999692172,494.23647030000575,None,493.73640200000955,493.8373270999873,493.8373270999873,None,494.8541516000405,None,,,,,,,11013,001,2024_Jan_02_1652,ANT,2021.2.3,60.2680845001238,
1,16,center,down,IC,R,,,,,,Block.xlsx,"你已经完成了整个实验（三个区组）。

请报告实验者已完成实验

非常感谢，再见！",0,50,-1.5,right,LLRLL.png,,,,,0,1,1,1,3,11,83,15,,,,,,,,,,,,,,,,,,,,,,,,,,,,,,,,,,,,,,,,,,,,,,,,,,,,,,,,,,,,,,,,495.25472289999016,495.655637399992,495.63964200002374,495.73869040003046,496.1413973000017,None,right,1,0.6003038000199012,496.1413973000017,None,495.63964200002374,495.73869040003046,495.73869040003046,None,496.75675000000047,None,,,,,,,11013,001,2024_Jan_02_1652,ANT,2021.2.3,60.2680845001238,
1,21,spatial,down,C,L,,,,,,Block.xlsx,"你已经完成了整个实验（三个区组）。

请报告实验者已完成实验

非常感谢，再见！",-1.5,0,-1.5,left,LLLLL.png,,,,,0,1,1,1,3,12,84,20,,,,,,,,,,,,,,,,,,,,,,,,,,,,,,,,,,,,,,,,,,,,,,,,,,,,,,,,,,,,,,,,497.1575680000242,497.55883170000743,497.5427745000343,497.6432841999922,498.04311560001224,None,left,1,0.5066282000043429,498.04311560001224,None,497.5427745000343,497.6432841999922,497.6432841999922,None,498.5761427000398,None,,,,,,,11013,001,2024_Jan_02_1652,ANT,2021.2.3,60.2680845001238,
1,19,spatial,up,IC,L,,,,,,Block.xlsx,"你已经完成了整个实验（三个区组）。

请报告实验者已完成实验

非常感谢，再见！",1.5,0,1.5,left,RRLRR.png,,,,,0,1,1,1,3,13,85,18,,,,,,,,,,,,,,,,,,,,,,,,,,,,,,,,,,,,,,,,,,,,,,,,,,,,,,,,,,,,,,,,498.97749100002693,499.37784920004196,499.36081680003554,499.4616236999864,499.86227030004375,None,left,1,0.41566530003910884,499.86227030004375,None,499.36081680003554,499.4616236999864,499.4616236999864,None,500.29552360001253,None,,,,,,,11013,001,2024_Jan_02_1652,ANT,2021.2.3,60.2680845001238,
1,2,no,up,C,R,,,,,,Block.xlsx,"你已经完成了整个实验（三个区组）。

请报告实验者已完成实验

非常感谢，再见！",50,0,1.5,right,RRRRR.png,,,,,0,1,1,1,3,14,86,1,,,,,,,,,,,,,,,,,,,,,,,,,,,,,,,,,,,,,,,,,,,,,,,,,,,,,,,,,,,,,,,,500.69677290000254,501.0977186000091,501.0801167000318,501.183036500006,501.5820103000151,None,right,1,0.48768209997797385,501.5820103000151,None,501.0801167000318,501.183036500006,501.183036500006,None,502.09806720004417,None,,,,,,,11013,001,2024_Jan_02_1652,ANT,2021.2.3,60.2680845001238,
1,9,center,up,C,L,,,,,,Block.xlsx,"你已经完成了整个实验（三个区组）。

请报告实验者已完成实验

非常感谢，再见！",0,50,1.5,left,LLLLL.png,,,,,0,1,1,1,3,15,87,8,,,,,,,,,,,,,,,,,,,,,,,,,,,,,,,,,,,,,,,,,,,,,,,,,,,,,,,,,,,,,,,,502.4995832000277,502.90140130004147,502.8834122000262,502.98377330001676,503.38548580004135,None,left,1,0.4041132000274956,503.38548580004135,None,502.8834122000262,502.98377330001676,502.98377330001676,None,503.8174306000001,None,,,,,,,11013,001,2024_Jan_02_1652,ANT,2021.2.3,60.2680845001238,
1,16,center,down,IC,R,,,,,,Block.xlsx,"你已经完成了整个实验（三个区组）。

请报告实验者已完成实验

非常感谢，再见！",0,50,-1.5,right,LLRLL.png,,,,,0,1,1,1,3,16,88,15,,,,,,,,,,,,,,,,,,,,,,,,,,,,,,,,,,,,,,,,,,,,,,,,,,,,,,,,,,,,,,,,504.2180909999879,504.6189454999985,504.60258930001874,504.7036774000153,505.1027385999914,None,right,1,0.6788710000109859,505.1027385999914,None,504.60258930001874,504.7036774000153,504.7036774000153,None,505.80359690001933,None,,,,,,,11013,001,2024_Jan_02_1652,ANT,2021.2.3,60.2680845001238,
1,5,no,down,C,L,,,,,,Block.xlsx,"你已经完成了整个实验（三个区组）。

请报告实验者已完成实验

非常感谢，再见！",50,0,-1.5,left,LLLLL.png,,,,,0,1,1,1,3,17,89,4,,,,,,,,,,,,,,,,,,,,,,,,,,,,,,,,,,,,,,,,,,,,,,,,,,,,,,,,,,,,,,,,506.204489500029,506.60507350001717,506.5881799000199,506.68838270002743,507.08897430001525,None,left,1,0.48562009999295697,507.08897430001525,None,506.5881799000199,506.68838270002743,506.68838270002743,None,507.5897190000396,None,,,,,,,11013,001,2024_Jan_02_1652,ANT,2021.2.3,60.2680845001238,
1,23,spatial,down,IC,L,,,,,,Block.xlsx,"你已经完成了整个实验（三个区组）。

请报告实验者已完成实验

非常感谢，再见！",-1.5,0,-1.5,left,RRLRR.png,,,,,0,1,1,1,3,18,90,22,,,,,,,,,,,,,,,,,,,,,,,,,,,,,,,,,,,,,,,,,,,,,,,,,,,,,,,,,,,,,,,,507.9906087000272,508.3911034000339,508.374575200025,508.4763811000157,508.8748826000374,None,left,1,0.4913154999958351,508.8748826000374,None,508.374575200025,508.4763811000157,508.4763811000157,None,509.3922262000269,None,,,,,,,11013,001,2024_Jan_02_1652,ANT,2021.2.3,60.2680845001238,
1,8,no,down,IC,R,,,,,,Block.xlsx,"你已经完成了整个实验（三个区组）。

请报告实验者已完成实验

非常感谢，再见！",50,0,-1.5,right,LLRLL.png,,,,,0,1,1,1,3,19,91,7,,,,,,,,,,,,,,,,,,,,,,,,,,,,,,,,,,,,,,,,,,,,,,,,,,,,,,,,,,,,,,,,509.79295209998963,510.19553590001306,510.17669390002266,510.2769878000254,510.6798746000277,None,right,1,0.6459752000519074,510.6798746000277,None,510.17669390002266,510.2769878000254,510.2769878000254,None,511.3458856000216,None,,,,,,,11013,001,2024_Jan_02_1652,ANT,2021.2.3,60.2680845001238,
1,19,spatial,up,IC,L,,,,,,Block.xlsx,"你已经完成了整个实验（三个区组）。

请报告实验者已完成实验

非常感谢，再见！",1.5,0,1.5,left,RRLRR.png,,,,,0,1,1,1,3,20,92,18,,,,,,,,,,,,,,,,,,,,,,,,,,,,,,,,,,,,,,,,,,,,,,,,,,,,,,,,,,,,,,,,511.74587420001626,512.1462907000096,512.1301257000305,512.2314491000143,512.6310064000427,None,left,1,0.5427670999779366,512.6310064000427,None,512.1301257000305,512.2314491000143,512.2314491000143,None,513.1986111000297,None,,,,,,,11013,001,2024_Jan_02_1652,ANT,2021.2.3,60.2680845001238,
1,17,spatial,up,C,L,,,,,,Block.xlsx,"你已经完成了整个实验（三个区组）。

请报告实验者已完成实验

