TrialType,TrialNumber,WarningType,TargetType,FlankerType,TargetDirection,W,f,Y,corr,imageFile,condition,endtext,Yw,Yf,Yt,Corr,imagefile,trials_3.thisRepN,trials_3.thisTrialN,trials_3.thisN,trials_3.thisIndex,trials_2.thisRepN,trials_2.thisTrialN,trials_2.thisN,trials_2.thisIndex,trials.thisRepN,trials.thisTrialN,trials.thisN,trials.thisIndex,instr.started,instr.stopped,key_resp.keys,key_resp.rt,key_resp.started,key_resp.stopped,image.started,image.stopped,key_resp_6.keys,key_resp_6.rt,key_resp_6.started,key_resp_6.stopped,EX_L.started,EX_L.stopped,AL.started,AL.stopped,key_resp_7.keys,key_resp_7.rt,key_resp_7.started,key_resp_7.stopped,EX_R.started,EX_R.stopped,RR.started,RR.stopped,key_resp_8.keys,key_resp_8.rt,key_resp_8.started,key_resp_8.stopped,image_2.started,image_2.stopped,key_resp_9.keys,key_resp_9.rt,key_resp_9.started,key_resp_9.stopped,image_3.started,image_3.stopped,key_resp_10.keys,key_resp_10.rt,key_resp_10.started,key_resp_10.stopped,fix.started,fix.stopped,war.started,war.stopped,tar.started,tar.stopped,key_resp_4.keys,key_resp_4.corr,key_resp_4.rt,key_resp_4.started,key_resp_4.stopped,fix2.started,fix2.stopped,fix_2.started,fix_2.stopped,Feedback.started,Feedback.stopped,key_resp_2.keys,key_resp_2.rt,key_resp_2.started,key_resp_2.stopped,text_5.started,text_5.stopped,fix2_1.started,fix2_1.stopped,Warn.started,Warn.stopped,Tar.started,Tar.stopped,key_resp_5.keys,key_resp_5.corr,key_resp_5.rt,key_resp_5.started,key_resp_5.stopped,Fix_2.started,Fix_2.stopped,fix2_2.started,fix2_2.stopped,text_4.started,text_4.stopped,key_resp_3.keys,key_resp_3.rt,key_resp_3.started,key_resp_3.stopped,text_3.started,text_3.stopped,participant,session,date,expName,psychopyVersion,frameRate,
,,,,,,,,,,,,,,,,,,,,,,,,,,,,,,15.090195400058292,None,space,114.1779050999321,15.090195400058292,None,,,,,,,,,,,,,,,,,,,,,,,,,,,,,,,,,,,,,,,,,,,,,,,,,,,,,,,,,,,,,,,,,,,,,,,,,,,,,,,,,11018,001,2024_Jan_05_0819,ANT,2021.2.3,59.69001780179739,
,,,,,,,,,,,,,,,,,,,,,,,,,,,,,,,,,,,,129.29288119997364,None,space,12.006977199926041,129.29288119997364,None,,,,,,,,,,,,,,,,,,,,,,,,,,,,,,,,,,,,,,,,,,,,,,,,,,,,,,,,,,,,,,,,,,,,,,,,,,,11018,001,2024_Jan_05_0819,ANT,2021.2.3,59.69001780179739,
,,,,,,,,,,,,,,,,,,,,,,,,,,,,,,,,,,,,,,,,,,141.32751450000796,None,141.32751450000796,None,left,2.388381400029175,141.32751450000796,None,,,,,,,,,,,,,,,,,,,,,,,,,,,,,,,,,,,,,,,,,,,,,,,,,,,,,,,,,,,,,,,,,,,11018,001,2024_Jan_05_0819,ANT,2021.2.3,59.69001780179739,
,,,,,,,,,,,,,,,,,,,,,,,,,,,,,,,,,,,,,,,,,,,,,,,,,,143.74763270001858,None,143.74763270001858,None,right,0.8082622999791056,143.74763270001858,None,,,,,,,,,,,,,,,,,,,,,,,,,,,,,,,,,,,,,,,,,,,,,,,,,,,,,,,,,,,11018,001,2024_Jan_05_0819,ANT,2021.2.3,59.69001780179739,
,,,,,,,,,,,,,,,,,,,,,,,,,,,,,,,,,,,,,,,,,,,,,,,,,,,,,,,,,,144.58229859999847,None,space,41.25401270005386,144.58229859999847,None,,,,,,,,,,,,,,,,,,,,,,,,,,,,,,,,,,,,,,,,,,,,,,,,,,,,,11018,001,2024_Jan_05_0819,ANT,2021.2.3,59.69001780179739,
,,,,,,,,,,,,,,,,,,,,,,,,,,,,,,,,,,,,,,,,,,,,,,,,,,,,,,,,,,,,,,,,185.86000380001497,None,space,12.031948500080034,185.86000380001497,None,,,,,,,,,,,,,,,,,,,,,,,,,,,,,,,,,,,,,,,,,,,,,,,11018,001,2024_Jan_05_0819,ANT,2021.2.3,59.69001780179739,
0,7,center,down,C,R,0,50,-1.5,right,RRRRR.png,,,,,,,,0,0,0,6,,,,,,,,,,,,,,,,,,,,,,,,,,,,,,,,,,,,,,,,,,,,,,,,,197.97772149997763,198.37943790003192,198.37943790003192,198.47936440003105,198.8636153000407,None,left,0,1.3561921000946313,198.8636153000407,None,198.37943790003192,198.47936440003105,198.47936440003105,None,200.24736110004596,None,,,,,,,,,,,,,,,,,,,,,,,,,,,,,,11018,001,2024_Jan_05_0819,ANT,2021.2.3,59.69001780179739,
0,10,spatial,up,IC,L,1.5,0,1.5,left,RRLRR.png,,,,,,,,0,1,1,9,,,,,,,,,,,,,,,,,,,,,,,,,,,,,,,,,,,,,,,,,,,,,,,,,202.252010300057,202.65154490002897,202.63611500000115,202.73506560001988,203.13634630001616,None,left,1,0.6356319999322295,203.13634630001616,None,202.63611500000115,202.73506560001988,202.73506560001988,None,203.80361140007153,None,,,,,,,,,,,,,,,,,,,,,,,,,,,,,,11018,001,2024_Jan_05_0819,ANT,2021.2.3,59.69001780179739,
0,1,no,up,C,L,50,0,1.5,left,LLLLL.png,,,,,,,,0,2,2,0,,,,,,,,,,,,,,,,,,,,,,,,,,,,,,,,,,,,,,,,,,,,,,,,,205.80677789996844,206.2098439000547,206.19028039998375,206.2903013000032,206.69136749999598,None,left,1,0.5205157999880612,206.69136749999598,None,206.19028039998375,206.2903013000032,206.2903013000032,None,207.24165780004114,None,,,,,,,,,,,,,,,,,,,,,,,,,,,,,,11018,001,2024_Jan_05_0819,ANT,2021.2.3,59.69001780179739,
0,3,no,down,C,R,50,0,-1.5,right,RRRRR.png,,,,,,,,0,3,3,2,,,,,,,,,,,,,,,,,,,,,,,,,,,,,,,,,,,,,,,,,,,,,,,,,209.24476430006325,209.64617610001005,209.6286165000638,209.72899380000308,210.13089610007592,None,right,1,0.6175554000074044,210.13089610007592,None,209.6286165000638,209.72899380000308,209.72899380000308,None,210.7633353000274,None,,,,,,,,,,,,,,,,,,,,,,,,,,,,,,11018,001,2024_Jan_05_0819,ANT,2021.2.3,59.69001780179739,
0,6,center,up,IC,R,0,50,1.5,right,LLRLL.png,,,,,,,,0,4,4,5,,,,,,,,,,,,,,,,,,,,,,,,,,,,,,,,,,,,,,,,,,,,,,,,,212.7665995999705,213.16794559999835,213.15047900006175,213.25081950007007,213.65140700002667,None,right,1,0.488702500006184,213.65140700002667,None,213.15047900006175,213.25081950007007,213.25081950007007,None,214.16847320005763,None,,,,,,,,,,,,,,,,,,,,,,,,,,,,,,11018,001,2024_Jan_05_0819,ANT,2021.2.3,59.69001780179739,
0,11,spatial,down,C,L,-1.5,0,-1.5,left,LLLLL.png,,,,,,,,0,5,5,10,,,,,,,,,,,,,,,,,,,,,,,,,,,,,,,,,,,,,,,,,,,,,,,,,216.17143330001272,216.57372310000937,216.5558857000433,216.65776440000627,217.05737449997105,None,left,1,0.48269360000267625,217.05737449997105,None,216.5558857000433,216.65776440000627,216.65776440000627,None,217.55698310001753,None,,,,,,,,,,,,,,,,,,,,,,,,,,,,,,11018,001,2024_Jan_05_0819,ANT,2021.2.3,59.69001780179739,
0,8,center,down,IC,L,0,50,-1.5,left,RRLRR.png,,,,,,,,0,6,6,7,,,,,,,,,,,,,,,,,,,,,,,,,,,,,,,,,,,,,,,,,,,,,,,,,219.5599879999645,219.96308510005474,219.94401740003377,220.04649820004124,220.44517419999465,None,left,1,0.6468717999523506,220.44517419999465,None,219.94401740003377,220.04649820004124,220.04649820004124,None,221.11199650005437,None,,,,,,,,,,,,,,,,,,,,,,,,,,,,,,11018,001,2024_Jan_05_0819,ANT,2021.2.3,59.69001780179739,
0,12,spatial,down,IC,R,-1.5,0,-1.5,right,LLRLL.png,,,,,,,,0,7,7,11,,,,,,,,,,,,,,,,,,,,,,,,,,,,,,,,,,,,,,,,,,,,,,,,,223.11517650005408,223.51582930004224,223.49973210005555,223.60006359999534,224.00191089999862,None,right,1,0.4828685999382287,224.00191089999862,None,223.49973210005555,223.60006359999534,223.60006359999534,None,224.5004884999944,None,,,,,,,,,,,,,,,,,,,,,,,,,,,,,,11018,001,2024_Jan_05_0819,ANT,2021.2.3,59.69001780179739,
0,4,no,down,IC,L,50,0,-1.5,left,RRLRR.png,,,,,,,,0,8,8,3,,,,,,,,,,,,,,,,,,,,,,,,,,,,,,,,,,,,,,,,,,,,,,,,,226.50355160003528,226.90520490007475,226.88792590005323,226.9891343000345,227.38876250002068,None,left,1,0.43184249999467283,227.38876250002068,None,226.88792590005323,226.9891343000345,226.9891343000345,None,227.8389087000396,None,,,,,,,,,,,,,,,,,,,,,,,,,,,,,,11018,001,2024_Jan_05_0819,ANT,2021.2.3,59.69001780179739,
0,9,spatial,up,C,R,1.5,0,1.5,right,RRRRR.png,,,,,,,,0,9,9,8,,,,,,,,,,,,,,,,,,,,,,,,,,,,,,,,,,,,,,,,,,,,,,,,,229.84248910006136,230.24457720003556,230.2266119000269,230.32635330001358,230.72786980005912,None,right,1,0.3564638999523595,230.72786980005912,None,230.2266119000269,230.32635330001358,230.32635330001358,None,231.11042270006146,None,,,,,,,,,,,,,,,,,,,,,,,,,,,,,,11018,001,2024_Jan_05_0819,ANT,2021.2.3,59.69001780179739,
0,5,center,up,C,L,0,50,1.5,left,LLLLL.png,,,,,,,,0,10,10,4,,,,,,,,,,,,,,,,,,,,,,,,,,,,,,,,,,,,,,,,,,,,,,,,,233.11322369996924,233.51453579997178,233.49936610006262,233.6161055000266,233.99959580006544,None,left,1,0.5651159000117332,233.99959580006544,None,233.49936610006262,233.6161055000266,233.59779040003195,None,234.58211519999895,None,,,,,,,,,,,,,,,,,,,,,,,,,,,,,,11018,001,2024_Jan_05_0819,ANT,2021.2.3,59.69001780179739,
0,2,no,up,IC,R,50,0,1.5,right,LLRLL.png,,,,,,,,0,11,11,1,,,,,,,,,,,,,,,,,,,,,,,,,,,,,,,,,,,,,,,,,,,,,,,,,236.5852016999852,236.98675020004157,236.96939350001048,237.06917550007347,237.4705117000267,None,left,0,0.46966890001203865,237.4705117000267,None,236.96939350001048,237.06917550007347,237.06917550007347,None,237.97101530001964,None,,,,,,,,,,,,,,,,,,,,,,,,,,,,,,11018,001,2024_Jan_05_0819,ANT,2021.2.3,59.69001780179739,
,,,,,,,,,,,,,,,,,,,,,,,,,,,,,,,,,,,,,,,,,,,,,,,,,,,,,,,,,,,,,,,,,,,,,,,,,,,,,,,,,,,,,,,space,7.574617399950512,239.97378130001016,None,,,,,,,,,,,,,,,,,,,,,,,,,,11018,001,2024_Jan_05_0819,ANT,2021.2.3,59.69001780179739,
1,4,no,up,IC,R,,,,,,Block.xlsx,"你已经完成了第一个实验区组

请稍作休息


点击空格键进入下一个区组。",50,0,1.5,right,LLRLL.png,,,,,0,0,0,0,0,0,0,3,,,,,,,,,,,,,,,,,,,,,,,,,,,,,,,,,,,,,,,,,,,,,,,,,,,,,,,,,,,,,,239.97378130001016,None,247.60315980005544,248.00297629996203,247.9855447000591,248.0868948000716,248.48622249998152,None,right,1,0.5979591999202967,248.48622249998152,None,247.9855447000591,248.0868948000716,248.0868948000716,None,249.10485410003457,None,,,,,,,11018,001,2024_Jan_05_0819,ANT,2021.2.3,59.69001780179739,
1,12,center,up,IC,R,,,,,,Block.xlsx,"你已经完成了第一个实验区组

请稍作休息


点击空格键进入下一个区组。",0,50,1.5,right,LLRLL.png,,,,,0,0,0,0,0,1,1,11,,,,,,,,,,,,,,,,,,,,,,,,,,,,,,,,,,,,,,,,,,,,,,,,,,,,,,,,,,,,,,,,249.50495129998308,249.9047343999846,249.8884631000692,249.98968570004217,250.3895940000657,None,right,1,0.6153046999825165,250.3895940000657,None,249.8884631000692,249.98968570004217,249.98968570004217,None,251.02302540000528,None,,,,,,,11018,001,2024_Jan_05_0819,ANT,2021.2.3,59.69001780179739,
1,9,center,up,C,L,,,,,,Block.xlsx,"你已经完成了第一个实验区组

请稍作休息


点击空格键进入下一个区组。",0,50,1.5,left,LLLLL.png,,,,,0,0,0,0,0,2,2,8,,,,,,,,,,,,,,,,,,,,,,,,,,,,,,,,,,,,,,,,,,,,,,,,,,,,,,,,,,,,,,,,251.42392770003062,251.82494960003532,251.80849770002533,251.90937770006713,252.30907840002328,None,left,1,0.622809800086543,252.30907840002328,None,251.80849770002533,251.90937770006713,251.90937770006713,None,252.9598337999778,None,,,,,,,11018,001,2024_Jan_05_0819,ANT,2021.2.3,59.69001780179739,
1,15,center,down,IC,L,,,,,,Block.xlsx,"你已经完成了第一个实验区组

请稍作休息


点击空格键进入下一个区组。",0,50,-1.5,left,RRLRR.png,,,,,0,0,0,0,0,3,3,14,,,,,,,,,,,,,,,,,,,,,,,,,,,,,,,,,,,,,,,,,,,,,,,,,,,,,,,,,,,,,,,,253.3601403000066,253.76180560002103,253.7439073000569,253.84467140003107,254.24538970005233,None,left,1,0.6067588999867439,254.24538970005233,None,253.7439073000569,253.84467140003107,253.84467140003107,None,254.87876049999613,None,,,,,,,11018,001,2024_Jan_05_0819,ANT,2021.2.3,59.69001780179739,
1,2,no,up,C,R,,,,,,Block.xlsx,"你已经完成了第一个实验区组

请稍作休息


点击空格键进入下一个区组。",50,0,1.5,right,RRRRR.png,,,,,0,0,0,0,0,4,4,1,,,,,,,,,,,,,,,,,,,,,,,,,,,,,,,,,,,,,,,,,,,,,,,,,,,,,,,,,,,,,,,,255.2795455000596,255.68076530005783,255.66547210002318,255.7816849000519,256.1640450999839,None,right,1,0.44820240000262856,256.1640450999839,None,255.66547210002318,255.7816849000519,255.76353540003765,None,256.6315168000292,None,,,,,,,11018,001,2024_Jan_05_0819,ANT,2021.2.3,59.69001780179739,
1,11,center,up,IC,L,,,,,,Block.xlsx,"你已经完成了第一个实验区组

请稍作休息


点击空格键进入下一个区组。",0,50,1.5,left,RRLRR.png,,,,,0,0,0,0,0,5,5,10,,,,,,,,,,,,,,,,,,,,,,,,,,,,,,,,,,,,,,,,,,,,,,,,,,,,,,,,,,,,,,,,257.0322344000451,257.434302699985,257.4161413999973,257.516818700009,257.9181138999993,None,left,1,0.6782435999484733,257.9181138999993,None,257.4161413999973,257.516818700009,257.516818700009,None,258.61785719997715,None,,,,,,,11018,001,2024_Jan_05_0819,ANT,2021.2.3,59.69001780179739,
1,4,no,up,IC,R,,,,,,Block.xlsx,"你已经完成了第一个实验区组

请稍作休息


点击空格键进入下一个区组。",50,0,1.5,right,LLRLL.png,,,,,0,0,0,0,0,6,6,3,,,,,,,,,,,,,,,,,,,,,,,,,,,,,,,,,,,,,,,,,,,,,,,,,,,,,,,,,,,,,,,,259.01856250001583,259.4201216000365,259.40254390006885,259.5036163000623,259.90348380000796,None,right,1,0.6212110000196844,259.90348380000796,None,259.40254390006885,259.5036163000623,259.5036163000623,None,260.553929900052,None,,,,,,,11018,001,2024_Jan_05_0819,ANT,2021.2.3,59.69001780179739,
1,3,no,up,IC,L,,,,,,Block.xlsx,"你已经完成了第一个实验区组

请稍作休息


点击空格键进入下一个区组。",50,0,1.5,left,RRLRR.png,,,,,0,0,0,0,0,7,7,2,,,,,,,,,,,,,,,,,,,,,,,,,,,,,,,,,,,,,,,,,,,,,,,,,,,,,,,,,,,,,,,,260.95468680001795,261.35583340004086,261.34037320001516,261.4403657000512,261.83960479998495,None,left,1,0.6763379999902099,261.83960479998495,None,261.34037320001516,261.4403657000512,261.4403657000512,None,262.5403299999889,None,,,,,,,11018,001,2024_Jan_05_0819,ANT,2021.2.3,59.69001780179739,
1,12,center,up,IC,R,,,,,,Block.xlsx,"你已经完成了第一个实验区组

请稍作休息


点击空格键进入下一个区组。",0,50,1.5,right,LLRLL.png,,,,,0,0,0,0,0,8,8,11,,,,,,,,,,,,,,,,,,,,,,,,,,,,,,,,,,,,,,,,,,,,,,,,,,,,,,,,,,,,,,,,262.9412110999692,263.3416135000298,263.3259318000637,263.427123600035,263.8255316000432,None,right,1,0.5705032999394462,263.8255316000432,None,263.3259318000637,263.427123600035,263.427123600035,None,264.42643990006763,None,,,,,,,11018,001,2024_Jan_05_0819,ANT,2021.2.3,59.69001780179739,
1,11,center,up,IC,L,,,,,,Block.xlsx,"你已经完成了第一个实验区组

请稍作休息


点击空格键进入下一个区组。",0,50,1.5,left,RRLRR.png,,,,,0,0,0,0,0,9,9,10,,,,,,,,,,,,,,,,,,,,,,,,,,,,,,,,,,,,,,,,,,,,,,,,,,,,,,,,,,,,,,,,264.8269459999865,265.2280099999625,265.21292079996783,265.31189760006964,265.7123849999625,None,left,1,0.5557686999673024,265.7123849999625,None,265.21292079996783,265.31189760006964,265.31189760006964,None,266.2958193999948,None,,,,,,,11018,001,2024_Jan_05_0819,ANT,2021.2.3,59.69001780179739,
1,18,spatial,up,C,R,,,,,,Block.xlsx,"你已经完成了第一个实验区组

请稍作休息


点击空格键进入下一个区组。",1.5,0,1.5,right,RRRRR.png,,,,,0,0,0,0,0,10,10,17,,,,,,,,,,,,,,,,,,,,,,,,,,,,,,,,,,,,,,,,,,,,,,,,,,,,,,,,,,,,,,,,266.6971739999717,267.09878390002996,267.08093379996717,267.1809939000523,267.5817697000457,None,right,1,0.41475800005719066,267.5817697000457,None,267.08093379996717,267.1809939000523,267.1809939000523,None,268.0151344999904,None,,,,,,,11018,001,2024_Jan_05_0819,ANT,2021.2.3,59.69001780179739,
1,14,center,down,C,R,,,,,,Block.xlsx,"你已经完成了第一个实验区组

请稍作休息


点击空格键进入下一个区组。",0,50,-1.5,right,RRRRR.png,,,,,0,0,0,0,0,11,11,13,,,,,,,,,,,,,,,,,,,,,,,,,,,,,,,,,,,,,,,,,,,,,,,,,,,,,,,,,,,,,,,,268.41598859999795,268.8176013000775,268.7994099999778,268.90011140005663,269.30085250001866,None,right,1,0.4477945000398904,269.30085250001866,None,268.7994099999778,268.90011140005663,268.90011140005663,None,269.7676315000281,None,,,,,,,11018,001,2024_Jan_05_0819,ANT,2021.2.3,59.69001780179739,
1,1,no,up,C,L,,,,,,Block.xlsx,"你已经完成了第一个实验区组

请稍作休息


点击空格键进入下一个区组。",50,0,1.5,left,LLLLL.png,,,,,0,0,0,0,0,12,12,0,,,,,,,,,,,,,,,,,,,,,,,,,,,,,,,,,,,,,,,,,,,,,,,,,,,,,,,,,,,,,,,,270.168298900011,270.56910359999165,270.5528365999926,270.6533442999935,271.054195899982,None,left,1,0.4780466000083834,271.054195899982,None,270.5528365999926,270.6533442999935,270.6533442999935,None,271.55478230002336,None,,,,,,,11018,001,2024_Jan_05_0819,ANT,2021.2.3,59.69001780179739,
1,17,spatial,up,C,L,,,,,,Block.xlsx,"你已经完成了第一个实验区组

请稍作休息


点击空格键进入下一个区组。",1.5,0,1.5,left,LLLLL.png,,,,,0,0,0,0,0,13,13,16,,,,,,,,,,,,,,,,,,,,,,,,,,,,,,,,,,,,,,,,,,,,,,,,,,,,,,,,,,,,,,,,271.95414090005215,272.3563228000421,272.33865220006555,272.43820229999255,272.8393127999734,None,left,1,0.4766641999594867,272.8393127999734,None,272.33865220006555,272.43820229999255,272.43820229999255,None,273.3396659999853,None,,,,,,,11018,001,2024_Jan_05_0819,ANT,2021.2.3,59.69001780179739,
1,15,center,down,IC,L,,,,,,Block.xlsx,"你已经完成了第一个实验区组

请稍作休息


点击空格键进入下一个区组。",0,50,-1.5,left,RRLRR.png,,,,,0,0,0,0,0,14,14,14,,,,,,,,,,,,,,,,,,,,,,,,,,,,,,,,,,,,,,,,,,,,,,,,,,,,,,,,,,,,,,,,273.7400831000414,274.14234799996484,274.12414319999516,274.2254174000118,274.6254858999746,None,left,1,0.6505962000228465,274.6254858999746,None,274.12414319999516,274.2254174000118,274.2254174000118,None,275.2924930000445,None,,,,,,,11018,001,2024_Jan_05_0819,ANT,2021.2.3,59.69001780179739,
1,21,spatial,down,C,L,,,,,,Block.xlsx,"你已经完成了第一个实验区组

请稍作休息


点击空格键进入下一个区组。",-1.5,0,-1.5,left,LLLLL.png,,,,,0,0,0,0,0,15,15,20,,,,,,,,,,,,,,,,,,,,,,,,,,,,,,,,,,,,,,,,,,,,,,,,,,,,,,,,,,,,,,,,275.6940168000292,276.09491230000276,276.0778152999701,276.17889199999627,276.57863770006225,None,left,1,0.4894239000277594,276.57863770006225,None,276.0778152999701,276.17889199999627,276.17889199999627,None,277.0952675000299,None,,,,,,,11018,001,2024_Jan_05_0819,ANT,2021.2.3,59.69001780179739,
1,19,spatial,up,IC,L,,,,,,Block.xlsx,"你已经完成了第一个实验区组

请稍作休息


点击空格键进入下一个区组。",1.5,0,1.5,left,RRLRR.png,,,,,0,0,0,0,0,16,16,18,,,,,,,,,,,,,,,,,,,,,,,,,,,,,,,,,,,,,,,,,,,,,,,,,,,,,,,,,,,,,,,,277.49582559999544,277.89698750001844,277.88087790005375,277.98172969999723,278.3806014000438,None,left,1,0.5843413000693545,278.3806014000438,None,277.88087790005375,277.98172969999723,277.98172969999723,None,278.9813892999664,None,,,,,,,11018,001,2024_Jan_05_0819,ANT,2021.2.3,59.69001780179739,
1,1,no,up,C,L,,,,,,Block.xlsx,"你已经完成了第一个实验区组

请稍作休息


点击空格键进入下一个区组。",50,0,1.5,left,LLLLL.png,,,,,0,0,0,0,0,17,17,0,,,,,,,,,,,,,,,,,,,,,,,,,,,,,,,,,,,,,,,,,,,,,,,,,,,,,,,,,,,,,,,,279.38196530006826,279.7830687999958,279.7665111999959,279.8660544999875,280.2679632999934,None,left,1,0.5125547000207007,280.2679632999934,None,279.7665111999959,279.8660544999875,279.8660544999875,None,280.8006349999923,None,,,,,,,11018,001,2024_Jan_05_0819,ANT,2021.2.3,59.69001780179739,
1,6,no,down,C,R,,,,,,Block.xlsx,"你已经完成了第一个实验区组

请稍作休息


点击空格键进入下一个区组。",50,0,-1.5,right,RRRRR.png,,,,,0,0,0,0,0,18,18,5,,,,,,,,,,,,,,,,,,,,,,,,,,,,,,,,,,,,,,,,,,,,,,,,,,,,,,,,,,,,,,,,281.20130139996763,281.6026262000669,281.5852087000385,281.6856895000674,282.0859509999864,None,right,1,0.590248900000006,282.0859509999864,None,281.5852087000385,281.6856895000674,281.6856895000674,None,282.70357590005733,None,,,,,,,11018,001,2024_Jan_05_0819,ANT,2021.2.3,59.69001780179739,
1,20,spatial,up,IC,R,,,,,,Block.xlsx,"你已经完成了第一个实验区组

请稍作休息


点击空格键进入下一个区组。",1.5,0,1.5,right,LLRLL.png,,,,,0,0,0,0,0,19,19,19,,,,,,,,,,,,,,,,,,,,,,,,,,,,,,,,,,,,,,,,,,,,,,,,,,,,,,,,,,,,,,,,283.1039347000187,283.50618080003187,283.4882408999838,283.58818880002946,283.9888953000773,None,right,1,0.5354162999428809,283.9888953000773,None,283.4882408999838,283.58818880002946,283.58818880002946,None,284.55637010000646,None,,,,,,,11018,001,2024_Jan_05_0819,ANT,2021.2.3,59.69001780179739,
1,13,center,down,C,L,,,,,,Block.xlsx,"你已经完成了第一个实验区组

请稍作休息


点击空格键进入下一个区组。",0,50,-1.5,left,LLLLL.png,,,,,0,0,0,0,0,20,20,12,,,,,,,,,,,,,,,,,,,,,,,,,,,,,,,,,,,,,,,,,,,,,,,,,,,,,,,,,,,,,,,,284.9567020999966,285.35869390005246,285.34213260002434,285.44126930006314,285.841909000068,None,left,1,0.5060606000479311,285.841909000068,None,285.34213260002434,285.44126930006314,285.44126930006314,None,286.376087200013,None,,,,,,,11018,001,2024_Jan_05_0819,ANT,2021.2.3,59.69001780179739,
1,5,no,down,C,L,,,,,,Block.xlsx,"你已经完成了第一个实验区组

请稍作休息


点击空格键进入下一个区组。",50,0,-1.5,left,LLLLL.png,,,,,0,0,0,0,0,21,21,4,,,,,,,,,,,,,,,,,,,,,,,,,,,,,,,,,,,,,,,,,,,,,,,,,,,,,,,,,,,,,,,,286.7772877999814,287.17855060007423,287.16009869996924,287.26091319997795,287.6610567000462,None,left,1,0.5110033999662846,287.6610567000462,None,287.16009869996924,287.26091319997795,287.26091319997795,None,288.19550510006957,None,,,,,,,11018,001,2024_Jan_05_0819,ANT,2021.2.3,59.69001780179739,
1,6,no,down,C,R,,,,,,Block.xlsx,"你已经完成了第一个实验区组

请稍作休息


点击空格键进入下一个区组。",50,0,-1.5,right,RRRRR.png,,,,,0,0,0,0,0,22,22,5,,,,,,,,,,,,,,,,,,,,,,,,,,,,,,,,,,,,,,,,,,,,,,,,,,,,,,,,,,,,,,,,288.5955146000488,288.99775800004136,288.98001920001116,289.0796857000096,289.480584600009,None,right,1,0.5635387999936938,289.480584600009,None,288.98001920001116,289.0796857000096,289.0796857000096,None,290.0644974000752,None,,,,,,,11018,001,2024_Jan_05_0819,ANT,2021.2.3,59.69001780179739,
1,20,spatial,up,IC,R,,,,,,Block.xlsx,"你已经完成了第一个实验区组

请稍作休息


点击空格键进入下一个区组。",1.5,0,1.5,right,LLRLL.png,,,,,0,0,0,0,0,23,23,19,,,,,,,,,,,,,,,,,,,,,,,,,,,,,,,,,,,,,,,,,,,,,,,,,,,,,,,,,,,,,,,,290.46519400004763,290.86736669996753,290.8495570999803,290.94909650005866,291.3499091999838,None,right,1,0.5421731999376789,291.3499091999838,None,290.8495570999803,290.94909650005866,290.94909650005866,None,291.91701500001363,None,,,,,,,11018,001,2024_Jan_05_0819,ANT,2021.2.3,59.69001780179739,
1,11,center,up,IC,L,,,,,,Block.xlsx,"你已经完成了第一个实验区组

请稍作休息


点击空格键进入下一个区组。",0,50,1.5,left,RRLRR.png,,,,,0,0,0,0,1,0,24,10,,,,,,,,,,,,,,,,,,,,,,,,,,,,,,,,,,,,,,,,,,,,,,,,,,,,,,,,,,,,,,,,292.3178182999836,292.72023570002057,292.70202580001205,292.80255240004044,293.2024223000044,None,left,1,0.577792500029318,293.2024223000044,None,292.70202580001205,292.80255240004044,292.80255240004044,None,293.8040823000483,None,,,,,,,11018,001,2024_Jan_05_0819,ANT,2021.2.3,59.69001780179739,
1,17,spatial,up,C,L,,,,,,Block.xlsx,"你已经完成了第一个实验区组

请稍作休息


点击空格键进入下一个区组。",1.5,0,1.5,left,LLLLL.png,,,,,0,0,0,0,1,1,25,16,,,,,,,,,,,,,,,,,,,,,,,,,,,,,,,,,,,,,,,,,,,,,,,,,,,,,,,,,,,,,,,,294.2038861999754,294.6048182999948,294.5897252999712,294.70584900001995,295.08852410002146,None,left,1,0.4837060000281781,295.08852410002146,None,294.5897252999712,294.70584900001995,294.68790220003575,None,295.58904470002744,None,,,,,,,11018,001,2024_Jan_05_0819,ANT,2021.2.3,59.69001780179739,
1,8,no,down,IC,R,,,,,,Block.xlsx,"你已经完成了第一个实验区组

请稍作休息


点击空格键进入下一个区组。",50,0,-1.5,right,LLRLL.png,,,,,0,0,0,0,1,2,26,7,,,,,,,,,,,,,,,,,,,,,,,,,,,,,,,,,,,,,,,,,,,,,,,,,,,,,,,,,,,,,,,,295.9902176000178,296.39191280002706,296.37532480002847,296.4912036000751,296.87524049996864,None,right,1,0.7288042999571189,296.87524049996864,None,296.37532480002847,296.4912036000751,296.4753824999789,None,297.62556079996284,None,,,,,,,11018,001,2024_Jan_05_0819,ANT,2021.2.3,59.69001780179739,
1,20,spatial,up,IC,R,,,,,,Block.xlsx,"你已经完成了第一个实验区组

请稍作休息


点击空格键进入下一个区组。",1.5,0,1.5,right,LLRLL.png,,,,,0,0,0,0,1,3,27,19,,,,,,,,,,,,,,,,,,,,,,,,,,,,,,,,,,,,,,,,,,,,,,,,,,,,,,,,,,,,,,,,298.026965499972,298.4279721999774,298.410078600049,298.5110369999893,298.9107829000568,None,right,1,0.5574313999386504,298.9107829000568,None,298.410078600049,298.5110369999893,298.5110369999893,None,299.495070700068,None,,,,,,,11018,001,2024_Jan_05_0819,ANT,2021.2.3,59.69001780179739,
1,23,spatial,down,IC,L,,,,,,Block.xlsx,"你已经完成了第一个实验区组

请稍作休息


点击空格键进入下一个区组。",-1.5,0,-1.5,left,RRLRR.png,,,,,0,0,0,0,1,4,28,22,,,,,,,,,,,,,,,,,,,,,,,,,,,,,,,,,,,,,,,,,,,,,,,,,,,,,,,,,,,,,,,,299.8962249000324,300.29630310006905,300.27999349997845,300.38081190001685,300.7808898000512,None,left,1,0.7192026000702754,300.7808898000512,None,300.27999349997845,300.38081190001685,300.38081190001685,None,301.5314953000052,None,,,,,,,11018,001,2024_Jan_05_0819,ANT,2021.2.3,59.69001780179739,
1,7,no,down,IC,L,,,,,,Block.xlsx,"你已经完成了第一个实验区组

请稍作休息


点击空格键进入下一个区组。",50,0,-1.5,left,RRLRR.png,,,,,0,0,0,0,1,5,29,6,,,,,,,,,,,,,,,,,,,,,,,,,,,,,,,,,,,,,,,,,,,,,,,,,,,,,,,,,,,,,,,,301.93205030006357,302.3337780999718,302.3160732999677,302.41610889998265,302.8171120999614,None,left,1,0.5469897000584751,302.8171120999614,None,302.3160732999677,302.41610889998265,302.41610889998265,None,303.38440530002117,None,,,,,,,11018,001,2024_Jan_05_0819,ANT,2021.2.3,59.69001780179739,
1,15,center,down,IC,L,,,,,,Block.xlsx,"你已经完成了第一个实验区组

请稍作休息


点击空格键进入下一个区组。",0,50,-1.5,left,RRLRR.png,,,,,0,0,0,0,1,6,30,14,,,,,,,,,,,,,,,,,,,,,,,,,,,,,,,,,,,,,,,,,,,,,,,,,,,,,,,,,,,,,,,,303.7853112000739,304.18605330004357,304.1698026000522,304.26904290006496,304.67007570003625,None,left,1,0.541851400048472,304.67007570003625,None,304.1698026000522,304.26904290006496,304.26904290006496,None,305.2369014000287,None,,,,,,,11018,001,2024_Jan_05_0819,ANT,2021.2.3,59.69001780179739,
1,24,spatial,down,IC,R,,,,,,Block.xlsx,"你已经完成了第一个实验区组

请稍作休息


点击空格键进入下一个区组。",-1.5,0,-1.5,right,LLRLL.png,,,,,0,0,0,0,1,7,31,23,,,,,,,,,,,,,,,,,,,,,,,,,,,,,,,,,,,,,,,,,,,,,,,,,,,,,,,,,,,,,,,,305.6378069999628,306.03946700005326,306.02150450006593,306.1224002999952,306.52321830007713,None,right,1,0.5370154000120237,306.52321830007713,None,306.02150450006593,306.1224002999952,306.1224002999952,None,307.09006459999364,None,,,,,,,11018,001,2024_Jan_05_0819,ANT,2021.2.3,59.69001780179739,
1,18,spatial,up,C,R,,,,,,Block.xlsx,"你已经完成了第一个实验区组

请稍作休息


点击空格键进入下一个区组。",1.5,0,1.5,right,RRRRR.png,,,,,0,0,0,0,1,8,32,17,,,,,,,,,,,,,,,,,,,,,,,,,,,,,,,,,,,,,,,,,,,,,,,,,,,,,,,,,,,,,,,,307.49015920003876,307.8908040999668,307.8750866999617,307.97512259997893,308.37554500007536,None,right,1,0.4445737999631092,308.37554500007536,None,307.8750866999617,307.97512259997893,307.97512259997893,None,308.8423029000405,None,,,,,,,11018,001,2024_Jan_05_0819,ANT,2021.2.3,59.69001780179739,
1,1,no,up,C,L,,,,,,Block.xlsx,"你已经完成了第一个实验区组

请稍作休息


点击空格键进入下一个区组。",50,0,1.5,left,LLLLL.png,,,,,0,0,0,0,1,9,33,0,,,,,,,,,,,,,,,,,,,,,,,,,,,,,,,,,,,,,,,,,,,,,,,,,,,,,,,,,,,,,,,,309.24281790002715,309.64429650001694,309.627555700019,309.72732219996396,310.1277239000192,None,left,1,0.7166987999808043,310.1277239000192,None,309.627555700019,309.72732219996396,309.72732219996396,None,310.86199290002696,None,,,,,,,11018,001,2024_Jan_05_0819,ANT,2021.2.3,59.69001780179739,
1,22,spatial,down,C,R,,,,,,Block.xlsx,"你已经完成了第一个实验区组

请稍作休息


点击空格键进入下一个区组。",-1.5,0,-1.5,right,RRRRR.png,,,,,0,0,0,0,1,10,34,21,,,,,,,,,,,,,,,,,,,,,,,,,,,,,,,,,,,,,,,,,,,,,,,,,,,,,,,,,,,,,,,,311.26247379998676,311.6640992000466,311.6465348000638,311.7470021999907,312.1471944999648,None,right,1,0.433106999960728,312.1471944999648,None,311.6465348000638,311.7470021999907,311.7470021999907,None,312.5978247000603,None,,,,,,,11018,001,2024_Jan_05_0819,ANT,2021.2.3,59.69001780179739,
1,18,spatial,up,C,R,,,,,,Block.xlsx,"你已经完成了第一个实验区组

请稍作休息


点击空格键进入下一个区组。",1.5,0,1.5,right,RRRRR.png,,,,,0,0,0,0,1,11,35,17,,,,,,,,,,,,,,,,,,,,,,,,,,,,,,,,,,,,,,,,,,,,,,,,,,,,,,,,,,,,,,,,312.9983304999769,313.4006684999913,313.3822021000087,313.4844069000101,313.88371089997236,None,right,1,0.32836339995265007,313.88371089997236,None,313.3822021000087,313.4844069000101,313.4844069000101,None,314.23365720000584,None,,,,,,,11018,001,2024_Jan_05_0819,ANT,2021.2.3,59.69001780179739,
1,6,no,down,C,R,,,,,,Block.xlsx,"你已经完成了第一个实验区组

请稍作休息


点击空格键进入下一个区组。",50,0,-1.5,right,RRRRR.png,,,,,0,0,0,0,1,12,36,5,,,,,,,,,,,,,,,,,,,,,,,,,,,,,,,,,,,,,,,,,,,,,,,,,,,,,,,,,,,,,,,,314.63448660005815,315.03607989999,315.01863179996144,315.1194003999699,315.51960250001866,None,right,1,0.42864579998422414,315.51960250001866,None,315.01863179996144,315.1194003999699,315.1194003999699,None,315.9698682000162,None,,,,,,,11018,001,2024_Jan_05_0819,ANT,2021.2.3,59.69001780179739,
1,4,no,up,IC,R,,,,,,Block.xlsx,"你已经完成了第一个实验区组

请稍作休息


点击空格键进入下一个区组。",50,0,1.5,right,LLRLL.png,,,,,0,0,0,0,1,13,37,3,,,,,,,,,,,,,,,,,,,,,,,,,,,,,,,,,,,,,,,,,,,,,,,,,,,,,,,,,,,,,,,,316.37035049998667,316.77238510001916,316.75407410005573,316.8548822000157,317.2551614000695,None,right,1,0.6294060000218451,317.2551614000695,None,316.75407410005573,316.8548822000157,316.8548822000157,None,317.9057709000772,None,,,,,,,11018,001,2024_Jan_05_0819,ANT,2021.2.3,59.69001780179739,
1,21,spatial,down,C,L,,,,,,Block.xlsx,"你已经完成了第一个实验区组

请稍作休息


点击空格键进入下一个区组。",-1.5,0,-1.5,left,LLLLL.png,,,,,0,0,0,0,1,14,38,20,,,,,,,,,,,,,,,,,,,,,,,,,,,,,,,,,,,,,,,,,,,,,,,,,,,,,,,,,,,,,,,,318.3066996000707,318.7078209000174,318.69142889999785,318.7903881999664,319.1912182000233,None,left,1,0.40584279992617667,319.1912182000233,None,318.69142889999785,318.7903881999664,318.7903881999664,None,319.624840100063,None,,,,,,,11018,001,2024_Jan_05_0819,ANT,2021.2.3,59.69001780179739,
1,7,no,down,IC,L,,,,,,Block.xlsx,"你已经完成了第一个实验区组

请稍作休息


点击空格键进入下一个区组。",50,0,-1.5,left,RRLRR.png,,,,,0,0,0,0,1,15,39,6,,,,,,,,,,,,,,,,,,,,,,,,,,,,,,,,,,,,,,,,,,,,,,,,,,,,,,,,,,,,,,,,320.02594990003854,320.4282760999631,320.40947459999006,320.50965190003626,320.91141770000104,None,left,1,0.6928402999183163,320.91141770000104,None,320.40947459999006,320.50965190003626,320.50965190003626,None,321.6279623999726,None,,,,,,,11018,001,2024_Jan_05_0819,ANT,2021.2.3,59.69001780179739,
1,3,no,up,IC,L,,,,,,Block.xlsx,"你已经完成了第一个实验区组

请稍作休息


点击空格键进入下一个区组。",50,0,1.5,left,RRLRR.png,,,,,0,0,0,0,1,16,40,2,,,,,,,,,,,,,,,,,,,,,,,,,,,,,,,,,,,,,,,,,,,,,,,,,,,,,,,,,,,,,,,,322.0285978000611,322.4304815999931,322.4130686999997,322.5130710999947,322.9143478999613,None,left,1,0.6180425999918953,322.9143478999613,None,322.4130686999997,322.5130710999947,322.5130710999947,None,323.547347499989,None,,,,,,,11018,001,2024_Jan_05_0819,ANT,2021.2.3,59.69001780179739,
1,9,center,up,C,L,,,,,,Block.xlsx,"你已经完成了第一个实验区组

请稍作休息


点击空格键进入下一个区组。",0,50,1.5,left,LLLLL.png,,,,,0,0,0,0,1,17,41,8,,,,,,,,,,,,,,,,,,,,,,,,,,,,,,,,,,,,,,,,,,,,,,,,,,,,,,,,,,,,,,,,323.94764999998733,324.34877509996295,324.3325584999984,324.4324551000027,324.83321119996253,None,left,1,0.6435394999571145,324.83321119996253,None,324.3325584999984,324.4324551000027,324.4324551000027,None,325.5001596000511,None,,,,,,,11018,001,2024_Jan_05_0819,ANT,2021.2.3,59.69001780179739,
1,2,no,up,C,R,,,,,,Block.xlsx,"你已经完成了第一个实验区组

请稍作休息


点击空格键进入下一个区组。",50,0,1.5,right,RRRRR.png,,,,,0,0,0,0,1,18,42,1,,,,,,,,,,,,,,,,,,,,,,,,,,,,,,,,,,,,,,,,,,,,,,,,,,,,,,,,,,,,,,,,325.9015319000464,326.30147840001155,326.2849469999783,326.38656959997024,326.7864858000539,None,right,1,0.553551199962385,326.7864858000539,None,326.2849469999783,326.38656959997024,326.38656959997024,None,327.36965150001924,None,,,,,,,11018,001,2024_Jan_05_0819,ANT,2021.2.3,59.69001780179739,
1,18,spatial,up,C,R,,,,,,Block.xlsx,"你已经完成了第一个实验区组

请稍作休息


点击空格键进入下一个区组。",1.5,0,1.5,right,RRRRR.png,,,,,0,0,0,0,1,19,43,17,,,,,,,,,,,,,,,,,,,,,,,,,,,,,,,,,,,,,,,,,,,,,,,,,,,,,,,,,,,,,,,,327.7708024000749,328.1727078000549,328.154552299995,328.25452499999665,328.65626000007614,None,right,1,0.700319700059481,328.65626000007614,None,328.154552299995,328.25452499999665,328.25452499999665,None,329.37263430003077,None,,,,,,,11018,001,2024_Jan_05_0819,ANT,2021.2.3,59.69001780179739,
1,21,spatial,down,C,L,,,,,,Block.xlsx,"你已经完成了第一个实验区组

请稍作休息


点击空格键进入下一个区组。",-1.5,0,-1.5,left,LLLLL.png,,,,,0,0,0,0,1,20,44,20,,,,,,,,,,,,,,,,,,,,,,,,,,,,,,,,,,,,,,,,,,,,,,,,,,,,,,,,,,,,,,,,329.7734363999916,330.17526619997807,330.15711430006195,330.25880820001476,330.65928240003996,None,left,1,0.4649191000498831,330.65928240003996,None,330.15711430006195,330.25880820001476,330.25880820001476,None,331.14239379996434,None,,,,,,,11018,001,2024_Jan_05_0819,ANT,2021.2.3,59.69001780179739,
1,5,no,down,C,L,,,,,,Block.xlsx,"你已经完成了第一个实验区组

请稍作休息


点击空格键进入下一个区组。",50,0,-1.5,left,LLLLL.png,,,,,0,0,0,0,1,21,45,4,,,,,,,,,,,,,,,,,,,,,,,,,,,,,,,,,,,,,,,,,,,,,,,,,,,,,,,,,,,,,,,,331.5424342000624,331.9444908000296,331.9267549000215,332.026610000059,332.42897330003325,None,left,1,0.5031099000480026,332.42897330003325,None,331.9267549000215,332.026610000059,332.026610000059,None,332.96132520004176,None,,,,,,,11018,001,2024_Jan_05_0819,ANT,2021.2.3,59.69001780179739,
1,10,center,up,C,R,,,,,,Block.xlsx,"你已经完成了第一个实验区组

请稍作休息


点击空格键进入下一个区组。",0,50,1.5,right,RRRRR.png,,,,,0,0,0,0,1,22,46,9,,,,,,,,,,,,,,,,,,,,,,,,,,,,,,,,,,,,,,,,,,,,,,,,,,,,,,,,,,,,,,,,333.36254190001637,333.7632797000697,333.74562790000346,333.8476112000644,334.24669719999656,None,right,1,0.5254418000113219,334.24669719999656,None,333.74562790000346,333.8476112000644,333.8476112000644,None,334.7974668999668,None,,,,,,,11018,001,2024_Jan_05_0819,ANT,2021.2.3,59.69001780179739,
1,23,spatial,down,IC,L,,,,,,Block.xlsx,"你已经完成了第一个实验区组

请稍作休息


点击空格键进入下一个区组。",-1.5,0,-1.5,left,RRLRR.png,,,,,0,0,0,0,1,23,47,22,,,,,,,,,,,,,,,,,,,,,,,,,,,,,,,,,,,,,,,,,,,,,,,,,,,,,,,,,,,,,,,,335.1977700999705,335.6002389000496,335.582507400075,335.68230280000716,336.0832454999909,None,left,1,0.6408988999901339,336.0832454999909,None,335.582507400075,335.68230280000716,335.68230280000716,None,336.75026980007533,None,,,,,,,11018,001,2024_Jan_05_0819,ANT,2021.2.3,59.69001780179739,
1,24,spatial,down,IC,R,,,,,,Block.xlsx,"你已经完成了第一个实验区组

请稍作休息


点击空格键进入下一个区组。",-1.5,0,-1.5,right,LLRLL.png,,,,,0,0,0,0,2,0,48,23,,,,,,,,,,,,,,,,,,,,,,,,,,,,,,,,,,,,,,,,,,,,,,,,,,,,,,,,,,,,,,,,337.15151260001585,337.5516927000135,337.537032000022,337.65363910002634,338.0355311000021,None,right,1,0.47290640010032803,338.0355311000021,None,337.537032000022,337.65363910002634,337.6366419000551,None,338.5363435000181,None,,,,,,,11018,001,2024_Jan_05_0819,ANT,2021.2.3,59.69001780179739,
1,10,center,up,C,R,,,,,,Block.xlsx,"你已经完成了第一个实验区组

请稍作休息


点击空格键进入下一个区组。",0,50,1.5,right,RRRRR.png,,,,,0,0,0,0,2,1,49,9,,,,,,,,,,,,,,,,,,,,,,,,,,,,,,,,,,,,,,,,,,,,,,,,,,,,,,,,,,,,,,,,338.93680290004704,339.3386784000322,339.3209008000558,339.42116310005076,339.82241450005677,None,right,1,0.45364710001740605,339.82241450005677,None,339.3209008000558,339.42116310005076,339.42116310005076,None,340.30555900000036,None,,,,,,,11018,001,2024_Jan_05_0819,ANT,2021.2.3,59.69001780179739,
1,23,spatial,down,IC,L,,,,,,Block.xlsx,"你已经完成了第一个实验区组

请稍作休息


点击空格键进入下一个区组。",-1.5,0,-1.5,left,RRLRR.png,,,,,0,0,0,0,2,2,50,22,,,,,,,,,,,,,,,,,,,,,,,,,,,,,,,,,,,,,,,,,,,,,,,,,,,,,,,,,,,,,,,,340.7060607000021,341.1081783999689,341.09008760005236,341.1921148999827,341.591690100031,None,left,1,0.8364309000317007,341.591690100031,None,341.09008760005236,341.1921148999827,341.1921148999827,None,342.4419653000077,None,,,,,,,11018,001,2024_Jan_05_0819,ANT,2021.2.3,59.69001780179739,
1,14,center,down,C,R,,,,,,Block.xlsx,"你已经完成了第一个实验区组

请稍作休息


点击空格键进入下一个区组。",0,50,-1.5,right,RRRRR.png,,,,,0,0,0,0,2,3,51,13,,,,,,,,,,,,,,,,,,,,,,,,,,,,,,,,,,,,,,,,,,,,,,,,,,,,,,,,,,,,,,,,342.84240189997945,343.24531510006636,343.2266574000241,343.3280507000163,343.72792660002597,None,right,1,0.6361594999907538,343.72792660002597,None,343.2266574000241,343.3280507000163,343.3280507000163,None,344.39499120006803,None,,,,,,,11018,001,2024_Jan_05_0819,ANT,2021.2.3,59.69001780179739,
1,22,spatial,down,C,R,,,,,,Block.xlsx,"你已经完成了第一个实验区组

请稍作休息


点击空格键进入下一个区组。",-1.5,0,-1.5,right,RRRRR.png,,,,,0,0,0,0,2,4,52,21,,,,,,,,,,,,,,,,,,,,,,,,,,,,,,,,,,,,,,,,,,,,,,,,,,,,,,,,,,,,,,,,344.7960196000058,345.1981034000637,345.179552400019,345.2805180000141,345.6805243999697,None,right,1,0.4514768000226468,345.6805243999697,None,345.179552400019,345.2805180000141,345.2805180000141,None,346.1475095000351,None,,,,,,,11018,001,2024_Jan_05_0819,ANT,2021.2.3,59.69001780179739,
1,19,spatial,up,IC,L,,,,,,Block.xlsx,"你已经完成了第一个实验区组

请稍作休息


点击空格键进入下一个区组。",1.5,0,1.5,left,RRLRR.png,,,,,0,0,0,0,2,5,53,18,,,,,,,,,,,,,,,,,,,,,,,,,,,,,,,,,,,,,,,,,,,,,,,,,,,,,,,,,,,,,,,,346.54806010005996,346.9485182999633,346.9340973000508,347.0498920000391,347.43352840002626,None,left,1,0.5478544000070542,347.43352840002626,None,346.9340973000508,347.0498920000391,347.0323006999679,None,348.0002784000244,None,,,,,,,11018,001,2024_Jan_05_0819,ANT,2021.2.3,59.69001780179739,
1,7,no,down,IC,L,,,,,,Block.xlsx,"你已经完成了第一个实验区组

请稍作休息


点击空格键进入下一个区组。",50,0,-1.5,left,RRLRR.png,,,,,0,0,0,0,2,6,54,6,,,,,,,,,,,,,,,,,,,,,,,,,,,,,,,,,,,,,,,,,,,,,,,,,,,,,,,,,,,,,,,,348.400951800053,348.80253109999467,348.7857971000485,348.8861287999898,349.2862584000686,None,left,1,0.6541259000077844,349.2862584000686,None,348.7857971000485,348.8861287999898,348.8861287999898,None,349.97046059998684,None,,,,,,,11018,001,2024_Jan_05_0819,ANT,2021.2.3,59.69001780179739,
1,21,spatial,down,C,L,,,,,,Block.xlsx,"你已经完成了第一个实验区组

请稍作休息


点击空格键进入下一个区组。",-1.5,0,-1.5,left,LLLLL.png,,,,,0,0,0,0,2,7,55,20,,,,,,,,,,,,,,,,,,,,,,,,,,,,,,,,,,,,,,,,,,,,,,,,,,,,,,,,,,,,,,,,350.3705653999932,350.7720790000167,350.7547479000641,350.8561375000281,351.2557909999741,None,left,1,0.5243116000201553,351.2557909999741,None,350.7547479000641,350.8561375000281,350.8561375000281,None,351.80646690004505,None,,,,,,,11018,001,2024_Jan_05_0819,ANT,2021.2.3,59.69001780179739,
1,14,center,down,C,R,,,,,,Block.xlsx,"你已经完成了第一个实验区组

请稍作休息


点击空格键进入下一个区组。",0,50,-1.5,right,RRRRR.png,,,,,0,0,0,0,2,8,56,13,,,,,,,,,,,,,,,,,,,,,,,,,,,,,,,,,,,,,,,,,,,,,,,,,,,,,,,,,,,,,,,,352.2066102999961,352.60885530000087,352.5906318000052,352.6908184000058,353.09115850005765,None,right,1,0.512972499942407,353.09115850005765,None,352.5906318000052,352.6908184000058,352.6908184000058,None,353.6252329000272,None,,,,,,,11018,001,2024_Jan_05_0819,ANT,2021.2.3,59.69001780179739,
1,23,spatial,down,IC,L,,,,,,Block.xlsx,"你已经完成了第一个实验区组

请稍作休息


点击空格键进入下一个区组。",-1.5,0,-1.5,left,RRLRR.png,,,,,0,0,0,0,2,9,57,22,,,,,,,,,,,,,,,,,,,,,,,,,,,,,,,,,,,,,,,,,,,,,,,,,,,,,,,,,,,,,,,,354.0259378000628,354.4265511999838,354.41227329999674,354.5270806000335,354.91066369996406,None,left,1,0.4058123999275267,354.91066369996406,None,354.41227329999674,354.5270806000335,354.509941300028,None,355.34452190005686,None,,,,,,,11018,001,2024_Jan_05_0819,ANT,2021.2.3,59.69001780179739,
1,2,no,up,C,R,,,,,,Block.xlsx,"你已经完成了第一个实验区组

请稍作休息


点击空格键进入下一个区组。",50,0,1.5,right,RRRRR.png,,,,,0,0,0,0,2,10,58,1,,,,,,,,,,,,,,,,,,,,,,,,,,,,,,,,,,,,,,,,,,,,,,,,,,,,,,,,,,,,,,,,355.7457740000682,356.14672429999337,356.12979120004456,356.23073349997867,356.63105610001367,None,right,1,0.40521439991425723,356.63105610001367,None,356.12979120004456,356.23073349997867,356.23073349997867,None,357.0638029000256,None,,,,,,,11018,001,2024_Jan_05_0819,ANT,2021.2.3,59.69001780179739,
1,16,center,down,IC,R,,,,,,Block.xlsx,"你已经完成了第一个实验区组

请稍作休息


点击空格键进入下一个区组。",0,50,-1.5,right,LLRLL.png,,,,,0,0,0,0,2,11,59,15,,,,,,,,,,,,,,,,,,,,,,,,,,,,,,,,,,,,,,,,,,,,,,,,,,,,,,,,,,,,,,,,357.4642041999614,357.8665916000027,357.8488209999632,357.9496335000731,358.3489214000292,None,right,1,0.5998057000106201,358.3489214000292,None,357.8488209999632,357.9496335000731,357.9496335000731,None,358.96739910007454,None,,,,,,,11018,001,2024_Jan_05_0819,ANT,2021.2.3,59.69001780179739,
1,22,spatial,down,C,R,,,,,,Block.xlsx,"你已经完成了第一个实验区组

请稍作休息


点击空格键进入下一个区组。",-1.5,0,-1.5,right,RRRRR.png,,,,,0,0,0,0,2,12,60,21,,,,,,,,,,,,,,,,,,,,,,,,,,,,,,,,,,,,,,,,,,,,,,,,,,,,,,,,,,,,,,,,359.3672051000176,359.7681693000486,359.7511292999843,359.85221070004627,360.2518202000065,None,right,1,0.48081100010313094,360.2518202000065,None,359.7511292999843,359.85221070004627,359.85221070004627,None,360.7532506000716,None,,,,,,,11018,001,2024_Jan_05_0819,ANT,2021.2.3,59.69001780179739,
1,15,center,down,IC,L,,,,,,Block.xlsx,"你已经完成了第一个实验区组

请稍作休息


点击空格键进入下一个区组。",0,50,-1.5,left,RRLRR.png,,,,,0,0,0,0,2,13,61,14,,,,,,,,,,,,,,,,,,,,,,,,,,,,,,,,,,,,,,,,,,,,,,,,,,,,,,,,,,,,,,,,361.15343750000466,361.55516009998973,361.5375920999795,361.6394459999865,362.0377880000742,None,left,1,0.5263854000950232,362.0377880000742,None,361.5375920999795,361.6394459999865,361.6394459999865,None,362.5885990000097,None,,,,,,,11018,001,2024_Jan_05_0819,ANT,2021.2.3,59.69001780179739,
1,8,no,down,IC,R,,,,,,Block.xlsx,"你已经完成了第一个实验区组

请稍作休息


点击空格键进入下一个区组。",50,0,-1.5,right,LLRLL.png,,,,,0,0,0,0,2,14,62,7,,,,,,,,,,,,,,,,,,,,,,,,,,,,,,,,,,,,,,,,,,,,,,,,,,,,,,,,,,,,,,,,362.9893046000507,363.39072040002793,363.3747477000579,363.49054679996334,363.8749910000479,None,right,1,0.49709020007867366,363.8749910000479,None,363.3747477000579,363.49054679996334,363.47470320004504,None,364.39144140004646,None,,,,,,,11018,001,2024_Jan_05_0819,ANT,2021.2.3,59.69001780179739,
1,14,center,down,C,R,,,,,,Block.xlsx,"你已经完成了第一个实验区组

请稍作休息


点击空格键进入下一个区组。",0,50,-1.5,right,RRRRR.png,,,,,0,0,0,0,2,15,63,13,,,,,,,,,,,,,,,,,,,,,,,,,,,,,,,,,,,,,,,,,,,,,,,,,,,,,,,,,,,,,,,,364.79200929997023,365.1933830999769,365.1757750000106,365.27592040004674,365.6763389999978,None,right,1,0.39992090000305325,365.6763389999978,None,365.1757750000106,365.27592040004674,365.27592040004674,None,366.09372580004856,None,,,,,,,11018,001,2024_Jan_05_0819,ANT,2021.2.3,59.69001780179739,
1,8,no,down,IC,R,,,,,,Block.xlsx,"你已经完成了第一个实验区组

请稍作休息


点击空格键进入下一个区组。",50,0,-1.5,right,LLRLL.png,,,,,0,0,0,0,2,16,64,7,,,,,,,,,,,,,,,,,,,,,,,,,,,,,,,,,,,,,,,,,,,,,,,,,,,,,,,,,,,,,,,,366.4943636000389,366.8958324000705,366.87830930005293,366.97855530004017,367.3812518999912,None,right,1,0.606965099927038,367.3812518999912,None,366.87830930005293,366.97855530004017,366.97855530004017,None,368.01367440004833,None,,,,,,,11018,001,2024_Jan_05_0819,ANT,2021.2.3,59.69001780179739,
1,1,no,up,C,L,,,,,,Block.xlsx,"你已经完成了第一个实验区组

请稍作休息


点击空格键进入下一个区组。",50,0,1.5,left,LLLLL.png,,,,,0,0,0,0,2,17,65,0,,,,,,,,,,,,,,,,,,,,,,,,,,,,,,,,,,,,,,,,,,,,,,,,,,,,,,,,,,,,,,,,368.4140555000631,368.81574920006096,368.7978691000026,368.8994473000057,369.2984599999618,None,left,1,0.40969669993501157,369.2984599999618,None,368.7978691000026,368.8994473000057,368.8994473000057,None,369.73250839998946,None,,,,,,,11018,001,2024_Jan_05_0819,ANT,2021.2.3,59.69001780179739,
1,13,center,down,C,L,,,,,,Block.xlsx,"你已经完成了第一个实验区组

请稍作休息


点击空格键进入下一个区组。",0,50,-1.5,left,LLLLL.png,,,,,0,0,0,0,2,18,66,12,,,,,,,,,,,,,,,,,,,,,,,,,,,,,,,,,,,,,,,,,,,,,,,,,,,,,,,,,,,,,,,,370.13328870001715,370.53627789998427,370.51766240003053,370.6187111000763,371.01897380000446,None,left,1,0.4495286999735981,371.01897380000446,None,370.51766240003053,370.6187111000763,370.6187111000763,None,371.4865646000253,None,,,,,,,11018,001,2024_Jan_05_0819,ANT,2021.2.3,59.69001780179739,
1,7,no,down,IC,L,,,,,,Block.xlsx,"你已经完成了第一个实验区组

请稍作休息


点击空格键进入下一个区组。",50,0,-1.5,left,RRLRR.png,,,,,0,0,0,0,2,19,67,6,,,,,,,,,,,,,,,,,,,,,,,,,,,,,,,,,,,,,,,,,,,,,,,,,,,,,,,,,,,,,,,,371.8868986000307,372.2861871999921,372.27016159996856,372.3712128000334,372.7710028999718,None,left,1,0.6499416999286041,372.7710028999718,None,372.27016159996856,372.3712128000334,372.3712128000334,None,373.43795419996604,None,,,,,,,11018,001,2024_Jan_05_0819,ANT,2021.2.3,59.69001780179739,
1,4,no,up,IC,R,,,,,,Block.xlsx,"你已经完成了第一个实验区组

请稍作休息


点击空格键进入下一个区组。",50,0,1.5,right,LLRLL.png,,,,,0,0,0,0,2,20,68,3,,,,,,,,,,,,,,,,,,,,,,,,,,,,,,,,,,,,,,,,,,,,,,,,,,,,,,,,,,,,,,,,373.8385480999714,374.2398880000692,374.22335029998794,374.3229337000521,374.7233664999949,None,right,1,0.6170504000037909,374.7233664999949,None,374.22335029998794,374.3229337000521,374.3229337000521,None,375.35745949996635,None,,,,,,,11018,001,2024_Jan_05_0819,ANT,2021.2.3,59.69001780179739,
1,13,center,down,C,L,,,,,,Block.xlsx,"你已经完成了第一个实验区组

请稍作休息


点击空格键进入下一个区组。",0,50,-1.5,left,LLLLL.png,,,,,0,0,0,0,2,21,69,12,,,,,,,,,,,,,,,,,,,,,,,,,,,,,,,,,,,,,,,,,,,,,,,,,,,,,,,,,,,,,,,,375.75830400001723,376.15876500005834,376.143032800057,376.243318199995,376.6436457000673,None,left,1,0.4329820000566542,376.6436457000673,None,376.143032800057,376.243318199995,376.243318199995,None,377.0933071000036,None,,,,,,,11018,001,2024_Jan_05_0819,ANT,2021.2.3,59.69001780179739,
1,9,center,up,C,L,,,,,,Block.xlsx,"你已经完成了第一个实验区组

请稍作休息


点击空格键进入下一个区组。",0,50,1.5,left,LLLLL.png,,,,,0,0,0,0,2,22,70,8,,,,,,,,,,,,,,,,,,,,,,,,,,,,,,,,,,,,,,,,,,,,,,,,,,,,,,,,,,,,,,,,377.4939929000102,377.8948116999818,377.88015340000857,377.99543830007315,378.37876510003116,None,left,1,0.4093760000541806,378.37876510003116,None,377.88015340000857,377.99543830007315,377.9783504999941,None,378.8127518000547,None,,,,,,,11018,001,2024_Jan_05_0819,ANT,2021.2.3,59.69001780179739,
1,19,spatial,up,IC,L,,,,,,Block.xlsx,"你已经完成了第一个实验区组

请稍作休息


点击空格键进入下一个区组。",1.5,0,1.5,left,RRLRR.png,,,,,0,0,0,0,2,23,71,18,,,,,,,,,,,,,,,,,,,,,,,,,,,,,,,,,,,,,,,,,,,,,,,,,,,,,,,,,,,,,,,,379.2131277000299,379.6144333999837,379.5971191000426,379.6983112000162,380.09859820001293,None,left,1,0.6339209000580013,380.09859820001293,None,379.5971191000426,379.6983112000162,379.6983112000162,None,380.74872130004223,None,,,,,,,11018,001,2024_Jan_05_0819,ANT,2021.2.3,59.69001780179739,
1,6,no,down,C,R,,,,,,Block.xlsx,"你已经完成了第一个实验区组

请稍作休息


点击空格键进入下一个区组。",50,0,-1.5,right,RRRRR.png,,,,,0,0,0,0,3,0,72,5,,,,,,,,,,,,,,,,,,,,,,,,,,,,,,,,,,,,,,,,,,,,,,,,,,,,,,,,,,,,,,,,381.14933980000205,381.5503908999963,381.53322290000506,381.634222600027,382.03474170004483,None,right,1,0.5215356000699103,382.03474170004483,None,381.53322290000506,381.634222600027,381.634222600027,None,382.5849416999845,None,,,,,,,11018,001,2024_Jan_05_0819,ANT,2021.2.3,59.69001780179739,
1,17,spatial,up,C,L,,,,,,Block.xlsx,"你已经完成了第一个实验区组

请稍作休息


点击空格键进入下一个区组。",1.5,0,1.5,left,LLLLL.png,,,,,0,0,0,0,3,1,73,16,,,,,,,,,,,,,,,,,,,,,,,,,,,,,,,,,,,,,,,,,,,,,,,,,,,,,,,,,,,,,,,,382.98651499999687,383.38788649998605,383.37023280002177,383.47037100000307,383.87184500007425,None,left,1,0.3562305000377819,383.87184500007425,None,383.37023280002177,383.47037100000307,383.47037100000307,None,384.254363700049,None,,,,,,,11018,001,2024_Jan_05_0819,ANT,2021.2.3,59.69001780179739,
1,19,spatial,up,IC,L,,,,,,Block.xlsx,"你已经完成了第一个实验区组

请稍作休息


点击空格键进入下一个区组。",1.5,0,1.5,left,RRLRR.png,,,,,0,0,0,0,3,2,74,18,,,,,,,,,,,,,,,,,,,,,,,,,,,,,,,,,,,,,,,,,,,,,,,,,,,,,,,,,,,,,,,,384.6555611999938,385.0560467999894,385.03849780000746,385.13961399998516,385.5398989999667,None,left,1,0.44881850003730506,385.5398989999667,None,385.03849780000746,385.13961399998516,385.13961399998516,None,386.00650030002,None,,,,,,,11018,001,2024_Jan_05_0819,ANT,2021.2.3,59.69001780179739,
1,20,spatial,up,IC,R,,,,,,Block.xlsx,"你已经完成了第一个实验区组

请稍作休息


点击空格键进入下一个区组。",1.5,0,1.5,right,LLRLL.png,,,,,0,0,0,0,3,3,75,19,,,,,,,,,,,,,,,,,,,,,,,,,,,,,,,,,,,,,,,,,,,,,,,,,,,,,,,,,,,,,,,,386.40777639998123,386.8087482000701,386.79108590004034,386.89184729999397,387.2928917000536,None,right,1,0.583794700098224,387.2928917000536,None,386.79108590004034,386.89184729999397,386.89184729999397,None,387.892820600071,None,,,,,,,11018,001,2024_Jan_05_0819,ANT,2021.2.3,59.69001780179739,
1,10,center,up,C,R,,,,,,Block.xlsx,"你已经完成了第一个实验区组

请稍作休息


点击空格键进入下一个区组。",0,50,1.5,right,RRRRR.png,,,,,0,0,0,0,3,4,76,9,,,,,,,,,,,,,,,,,,,,,,,,,,,,,,,,,,,,,,,,,,,,,,,,,,,,,,,,,,,,,,,,388.2933229999617,388.69467120000627,388.6780179999769,388.777396999998,389.17825350002386,None,right,1,0.40267890004906803,389.17825350002386,None,388.6780179999769,388.777396999998,388.777396999998,None,389.59519849997014,None,,,,,,,11018,001,2024_Jan_05_0819,ANT,2021.2.3,59.69001780179739,
1,9,center,up,C,L,,,,,,Block.xlsx,"你已经完成了第一个实验区组

请稍作休息


点击空格键进入下一个区组。",0,50,1.5,left,LLLLL.png,,,,,0,0,0,0,3,5,77,8,,,,,,,,,,,,,,,,,,,,,,,,,,,,,,,,,,,,,,,,,,,,,,,,,,,,,,,,,,,,,,,,389.99623409996275,390.39743380004074,390.37987790000625,390.48201450007036,390.88208720006514,None,left,1,0.4669261999661103,390.88208720006514,None,390.37987790000625,390.48201450007036,390.48201450007036,None,391.36467070004437,None,,,,,,,11018,001,2024_Jan_05_0819,ANT,2021.2.3,59.69001780179739,
1,10,center,up,C,R,,,,,,Block.xlsx,"你已经完成了第一个实验区组

请稍作休息


点击空格键进入下一个区组。",0,50,1.5,right,RRRRR.png,,,,,0,0,0,0,3,6,78,9,,,,,,,,,,,,,,,,,,,,,,,,,,,,,,,,,,,,,,,,,,,,,,,,,,,,,,,,,,,,,,,,391.76509790006094,392.1662656000117,392.1490282000741,392.2498993000481,392.65128250001,None,right,1,0.46493279992137104,392.65128250001,None,392.1490282000741,392.2498993000481,392.2498993000481,None,393.1338370000012,None,,,,,,,11018,001,2024_Jan_05_0819,ANT,2021.2.3,59.69001780179739,
1,5,no,down,C,L,,,,,,Block.xlsx,"你已经完成了第一个实验区组

请稍作休息


点击空格键进入下一个区组。",50,0,-1.5,left,LLLLL.png,,,,,0,0,0,0,3,7,79,4,,,,,,,,,,,,,,,,,,,,,,,,,,,,,,,,,,,,,,,,,,,,,,,,,,,,,,,,,,,,,,,,393.53467650001403,393.9365536000114,393.9191628000699,394.0190598999616,394.41962840000633,None,left,1,0.7605727999471128,394.41962840000633,None,393.9191628000699,394.0190598999616,394.0190598999616,None,395.20455999998376,None,,,,,,,11018,001,2024_Jan_05_0819,ANT,2021.2.3,59.69001780179739,
1,24,spatial,down,IC,R,,,,,,Block.xlsx,"你已经完成了第一个实验区组

请稍作休息


点击空格键进入下一个区组。",-1.5,0,-1.5,right,LLRLL.png,,,,,0,0,0,0,3,8,80,23,,,,,,,,,,,,,,,,,,,,,,,,,,,,,,,,,,,,,,,,,,,,,,,,,,,,,,,,,,,,,,,,395.60418280004524,396.0057200000156,395.9880413999781,396.0892415000126,396.48997220001183,None,right,1,0.43454849999397993,396.48997220001183,None,395.9880413999781,396.0892415000126,396.0892415000126,None,396.9396082999883,None,,,,,,,11018,001,2024_Jan_05_0819,ANT,2021.2.3,59.69001780179739,
1,16,center,down,IC,R,,,,,,Block.xlsx,"你已经完成了第一个实验区组

请稍作休息


点击空格键进入下一个区组。",0,50,-1.5,right,LLRLL.png,,,,,0,0,0,0,3,9,81,15,,,,,,,,,,,,,,,,,,,,,,,,,,,,,,,,,,,,,,,,,,,,,,,,,,,,,,,,,,,,,,,,397.3402296999702,397.7409066000255,397.72467450005934,397.82514299999457,398.2247478000354,None,right,1,0.6512750000692904,398.2247478000354,None,397.72467450005934,397.82514299999457,397.82514299999457,None,398.892226499971,None,,,,,,,11018,001,2024_Jan_05_0819,ANT,2021.2.3,59.69001780179739,
1,22,spatial,down,C,R,,,,,,Block.xlsx,"你已经完成了第一个实验区组

请稍作休息


点击空格键进入下一个区组。",-1.5,0,-1.5,right,RRRRR.png,,,,,0,0,0,0,3,10,82,21,,,,,,,,,,,,,,,,,,,,,,,,,,,,,,,,,,,,,,,,,,,,,,,,,,,,,,,,,,,,,,,,399.29293290001806,399.6935805999674,399.67907239997294,399.77756379998755,400.1778446000535,None,right,1,0.45837140001822263,400.1778446000535,None,399.67907239997294,399.77756379998755,399.77756379998755,None,400.6616430999711,None,,,,,,,11018,001,2024_Jan_05_0819,ANT,2021.2.3,59.69001780179739,
1,16,center,down,IC,R,,,,,,Block.xlsx,"你已经完成了第一个实验区组

请稍作休息


点击空格键进入下一个区组。",0,50,-1.5,right,LLRLL.png,,,,,0,0,0,0,3,11,83,15,,,,,,,,,,,,,,,,,,,,,,,,,,,,,,,,,,,,,,,,,,,,,,,,,,,,,,,,,,,,,,,,401.06209730007686,401.46380849997513,401.4466541999718,401.5472860999871,401.9481042000698,None,right,1,0.648314299993217,401.9481042000698,None,401.4466541999718,401.5472860999871,401.5472860999871,None,402.6149052999681,None,,,,,,,11018,001,2024_Jan_05_0819,ANT,2021.2.3,59.69001780179739,
1,3,no,up,IC,L,,,,,,Block.xlsx,"你已经完成了第一个实验区组

请稍作休息


点击空格键进入下一个区组。",50,0,1.5,left,RRLRR.png,,,,,0,0,0,0,3,12,84,2,,,,,,,,,,,,,,,,,,,,,,,,,,,,,,,,,,,,,,,,,,,,,,,,,,,,,,,,,,,,,,,,403.0151807999937,403.4167968999827,403.39965440006927,403.5008240999887,403.8997502999846,None,left,1,0.5603473000228405,403.8997502999846,None,403.39965440006927,403.5008240999887,403.5008240999887,None,404.4840283000376,None,,,,,,,11018,001,2024_Jan_05_0819,ANT,2021.2.3,59.69001780179739,
1,5,no,down,C,L,,,,,,Block.xlsx,"你已经完成了第一个实验区组

请稍作休息


点击空格键进入下一个区组。",50,0,-1.5,left,LLLLL.png,,,,,0,0,0,0,3,13,85,4,,,,,,,,,,,,,,,,,,,,,,,,,,,,,,,,,,,,,,,,,,,,,,,,,,,,,,,,,,,,,,,,404.88466199999675,405.2854389999993,405.26828039996326,405.3687571999617,405.7692773999879,None,left,1,0.7230517000425607,405.7692773999879,None,405.26828039996326,405.3687571999617,405.3687571999617,None,406.520355500048,None,,,,,,,11018,001,2024_Jan_05_0819,ANT,2021.2.3,59.69001780179739,
1,13,center,down,C,L,,,,,,Block.xlsx,"你已经完成了第一个实验区组

请稍作休息


点击空格键进入下一个区组。",0,50,-1.5,left,LLLLL.png,,,,,0,0,0,0,3,14,86,12,,,,,,,,,,,,,,,,,,,,,,,,,,,,,,,,,,,,,,,,,,,,,,,,,,,,,,,,,,,,,,,,406.9207936000312,407.3217839000281,407.3050978999818,407.4073635999812,407.8056318999734,None,left,1,0.5665697000222281,407.8056318999734,None,407.3050978999818,407.4073635999812,407.4073635999812,None,408.38952399999835,None,,,,,,,11018,001,2024_Jan_05_0819,ANT,2021.2.3,59.69001780179739,
1,11,center,up,IC,L,,,,,,Block.xlsx,"你已经完成了第一个实验区组

请稍作休息


点击空格键进入下一个区组。",0,50,1.5,left,RRLRR.png,,,,,0,0,0,0,3,15,87,10,,,,,,,,,,,,,,,,,,,,,,,,,,,,,,,,,,,,,,,,,,,,,,,,,,,,,,,,,,,,,,,,408.79050140001345,409.1909957000753,409.1743220000062,409.2749036999885,409.67592680000234,None,left,1,0.6324886999791488,409.67592680000234,None,409.1743220000062,409.2749036999885,409.2749036999885,None,410.3263566000387,None,,,,,,,11018,001,2024_Jan_05_0819,ANT,2021.2.3,59.69001780179739,
1,12,center,up,IC,R,,,,,,Block.xlsx,"你已经完成了第一个实验区组

请稍作休息


点击空格键进入下一个区组。",0,50,1.5,right,LLRLL.png,,,,,0,0,0,0,3,16,88,11,,,,,,,,,,,,,,,,,,,,,,,,,,,,,,,,,,,,,,,,,,,,,,,,,,,,,,,,,,,,,,,,410.726645900053,411.12706289999187,411.11125610000454,411.21069680002984,411.6116225000005,None,right,1,0.5446084999712184,411.6116225000005,None,411.11125610000454,411.21069680002984,411.21069680002984,None,412.17869309999514,None,,,,,,,11018,001,2024_Jan_05_0819,ANT,2021.2.3,59.69001780179739,
1,24,spatial,down,IC,R,,,,,,Block.xlsx,"你已经完成了第一个实验区组

请稍作休息


点击空格键进入下一个区组。",-1.5,0,-1.5,right,LLRLL.png,,,,,0,0,0,0,3,17,89,23,,,,,,,,,,,,,,,,,,,,,,,,,,,,,,,,,,,,,,,,,,,,,,,,,,,,,,,,,,,,,,,,412.57966479996685,412.98173430003226,412.9641690000426,413.0642764000222,413.46476989996154,None,right,1,0.49141110002528876,413.46476989996154,None,412.9641690000426,413.0642764000222,413.0642764000222,None,413.981338600046,None,,,,,,,11018,001,2024_Jan_05_0819,ANT,2021.2.3,59.69001780179739,
1,16,center,down,IC,R,,,,,,Block.xlsx,"你已经完成了第一个实验区组

请稍作休息


点击空格键进入下一个区组。",0,50,-1.5,right,LLRLL.png,,,,,0,0,0,0,3,18,90,15,,,,,,,,,,,,,,,,,,,,,,,,,,,,,,,,,,,,,,,,,,,,,,,,,,,,,,,,,,,,,,,,414.3827369000064,414.7835483000381,414.7674467000179,414.8672177999979,415.2701356000034,None,right,1,0.7024770999560133,415.2701356000034,None,414.7674467000179,414.8672177999979,414.8672177999979,None,416.00114189996384,None,,,,,,,11018,001,2024_Jan_05_0819,ANT,2021.2.3,59.69001780179739,
1,3,no,up,IC,L,,,,,,Block.xlsx,"你已经完成了第一个实验区组

请稍作休息


点击空格键进入下一个区组。",50,0,1.5,left,RRLRR.png,,,,,0,0,0,0,3,19,91,2,,,,,,,,,,,,,,,,,,,,,,,,,,,,,,,,,,,,,,,,,,,,,,,,,,,,,,,,,,,,,,,,416.4016403000569,416.8022907000268,416.7865583000239,416.88574190007057,417.28618950000964,None,left,1,0.5821140999905765,417.28618950000964,None,416.7865583000239,416.88574190007057,416.88574190007057,None,417.8875247000251,None,,,,,,,11018,001,2024_Jan_05_0819,ANT,2021.2.3,59.69001780179739,
1,2,no,up,C,R,,,,,,Block.xlsx,"你已经完成了第一个实验区组

请稍作休息


点击空格键进入下一个区组。",50,0,1.5,right,RRRRR.png,,,,,0,0,0,0,3,20,92,1,,,,,,,,,,,,,,,,,,,,,,,,,,,,,,,,,,,,,,,,,,,,,,,,,,,,,,,,,,,,,,,,418.2877458999865,418.68857540003955,418.67152430000715,418.77275120001286,419.17354550003074,None,right,1,0.7673158000689,419.17354550003074,None,418.67152430000715,418.77275120001286,418.77275120001286,None,419.9568463000469,None,,,,,,,11018,001,2024_Jan_05_0819,ANT,2021.2.3,59.69001780179739,
1,8,no,down,IC,R,,,,,,Block.xlsx,"你已经完成了第一个实验区组

请稍作休息


点击空格键进入下一个区组。",50,0,-1.5,right,LLRLL.png,,,,,0,0,0,0,3,21,93,7,,,,,,,,,,,,,,,,,,,,,,,,,,,,,,,,,,,,,,,,,,,,,,,,,,,,,,,,,,,,,,,,420.35871489997953,420.75860349996947,420.74171570001636,420.8433634999674,421.2431002999656,None,right,1,0.7372969000134617,421.2431002999656,None,420.74171570001636,420.8433634999674,420.8433634999674,None,422.0099855000153,None,,,,,,,11018,001,2024_Jan_05_0819,ANT,2021.2.3,59.69001780179739,
1,17,spatial,up,C,L,,,,,,Block.xlsx,"你已经完成了第一个实验区组

请稍作休息


点击空格键进入下一个区组。",1.5,0,1.5,left,LLLLL.png,,,,,0,0,0,0,3,22,94,16,,,,,,,,,,,,,,,,,,,,,,,,,,,,,,,,,,,,,,,,,,,,,,,,,,,,,,,,,,,,,,,,422.4113664000761,422.81124740000814,422.79513990005944,422.89538990007713,423.295271400013,None,left,1,0.46910989994648844,423.295271400013,None,422.79513990005944,422.89538990007713,422.89538990007713,None,423.77932650002185,None,,,,,,,11018,001,2024_Jan_05_0819,ANT,2021.2.3,59.69001780179739,
1,12,center,up,IC,R,,,,,,Block.xlsx,"你已经完成了第一个实验区组

请稍作休息


点击空格键进入下一个区组。",0,50,1.5,right,LLRLL.png,,,,,0,0,0,0,3,23,95,11,,,,,,,,,,,,,,,,,,,,,,,,,,,,,,,,,,,,,,,,,,,,,,,,,,,,,,,,,,,,,,,,424.1796595000196,424.58190380001906,424.5647823000327,424.66496920003556,425.0650272000348,None,right,1,0.7231762000592425,425.0650272000348,None,424.5647823000327,424.66496920003556,424.66496920003556,None,425.81578830000944,None,,,,,,,11018,001,2024_Jan_05_0819,ANT,2021.2.3,59.69001780179739,
,,,,,,,,,,,Block.xlsx,"你已经完成了第一个实验区组

请稍作休息


点击空格键进入下一个区组。",,,,,,,,,,0,0,0,0,,,,,,,,,,,,,,,,,,,,,,,,,,,,,,,,,,,,,,,,,,,,,,,,,,,,,,,,,,,,,,,,,,,,,,,,,,,,,,,,,,,,,space,53.2043303999817,426.21597320004366,None,426.21597320004366,None,11018,001,2024_Jan_05_0819,ANT,2021.2.3,59.69001780179739,
1,2,no,up,C,R,,,,,,Block.xlsx,"你已经完成了整个实验（三个区组）。

请报告实验者已完成实验

非常感谢，再见！",50,0,1.5,right,RRRRR.png,,,,,0,1,1,1,0,0,0,1,,,,,,,,,,,,,,,,,,,,,,,,,,,,,,,,,,,,,,,,,,,,,,,,,,,,,,,,,,,,,,,,479.46155180002097,479.86336910002865,479.86336910002865,479.96385659999214,480.347151300055,None,right,1,0.46574080002028495,480.347151300055,None,479.86336910002865,479.96385659999214,479.9464519000612,None,480.83055970002897,None,,,,,,,11018,001,2024_Jan_05_0819,ANT,2021.2.3,59.69001780179739,
1,6,no,down,C,R,,,,,,Block.xlsx,"你已经完成了整个实验（三个区组）。

请报告实验者已完成实验

非常感谢，再见！",50,0,-1.5,right,RRRRR.png,,,,,0,1,1,1,0,1,1,5,,,,,,,,,,,,,,,,,,,,,,,,,,,,,,,,,,,,,,,,,,,,,,,,,,,,,,,,,,,,,,,,481.23101250000764,481.63164909998886,481.6171050000703,481.731784600066,482.1157079000259,None,right,1,0.4726659000152722,482.1157079000259,None,481.6171050000703,481.731784600066,481.7165428000735,None,482.61664899997413,None,,,,,,,11018,001,2024_Jan_05_0819,ANT,2021.2.3,59.69001780179739,
1,15,center,down,IC,L,,,,,,Block.xlsx,"你已经完成了整个实验（三个区组）。

请报告实验者已完成实验

非常感谢，再见！",0,50,-1.5,left,RRLRR.png,,,,,0,1,1,1,0,2,2,14,,,,,,,,,,,,,,,,,,,,,,,,,,,,,,,,,,,,,,,,,,,,,,,,,,,,,,,,,,,,,,,,483.0174819000531,483.41747910005506,483.40126519999467,483.5017780000344,483.9024217000697,None,left,1,0.49394369998481125,483.9024217000697,None,483.40126519999467,483.5017780000344,483.5017780000344,None,484.41948989999946,None,,,,,,,11018,001,2024_Jan_05_0819,ANT,2021.2.3,59.69001780179739,
1,2,no,up,C,R,,,,,,Block.xlsx,"你已经完成了整个实验（三个区组）。

请报告实验者已完成实验

非常感谢，再见！",50,0,1.5,right,RRRRR.png,,,,,0,1,1,1,0,3,3,1,,,,,,,,,,,,,,,,,,,,,,,,,,,,,,,,,,,,,,,,,,,,,,,,,,,,,,,,,,,,,,,,484.8199932000134,485.2209611000726,485.2047076000599,485.3037134000333,485.7048819999909,None,right,1,0.7959965999471024,485.7048819999909,None,485.2047076000599,485.3037134000333,485.3037134000333,None,486.5220331000164,None,,,,,,,11018,001,2024_Jan_05_0819,ANT,2021.2.3,59.69001780179739,
1,9,center,up,C,L,,,,,,Block.xlsx,"你已经完成了整个实验（三个区组）。

请报告实验者已完成实验

非常感谢，再见！",0,50,1.5,left,LLLLL.png,,,,,0,1,1,1,0,4,4,8,,,,,,,,,,,,,,,,,,,,,,,,,,,,,,,,,,,,,,,,,,,,,,,,,,,,,,,,,,,,,,,,486.92279470001813,487.3238988000667,487.30668779998086,487.40784490003716,487.80875450000167,None,left,1,0.49160930002108216,487.80875450000167,None,487.30668779998086,487.40784490003716,487.40784490003716,None,488.3248713000212,None,,,,,,,11018,001,2024_Jan_05_0819,ANT,2021.2.3,59.69001780179739,
1,12,center,up,IC,R,,,,,,Block.xlsx,"你已经完成了整个实验（三个区组）。

请报告实验者已完成实验

非常感谢，再见！",0,50,1.5,right,LLRLL.png,,,,,0,1,1,1,0,5,5,11,,,,,,,,,,,,,,,,,,,,,,,,,,,,,,,,,,,,,,,,,,,,,,,,,,,,,,,,,,,,,,,,488.7259221000131,489.1277165999636,489.10964809998404,489.2099186000414,489.6102997000562,None,right,1,0.5539763999404386,489.6102997000562,None,489.10964809998404,489.2099186000414,489.2099186000414,None,490.1941471999744,None,,,,,,,11018,001,2024_Jan_05_0819,ANT,2021.2.3,59.69001780179739,
1,8,no,down,IC,R,,,,,,Block.xlsx,"你已经完成了整个实验（三个区组）。

请报告实验者已完成实验

非常感谢，再见！",50,0,-1.5,right,LLRLL.png,,,,,0,1,1,1,0,6,6,7,,,,,,,,,,,,,,,,,,,,,,,,,,,,,,,,,,,,,,,,,,,,,,,,,,,,,,,,,,,,,,,,490.5949340000516,490.99744070007,490.97919490002096,491.0796595000429,491.4805461000651,None,right,1,0.4916838000062853,491.4805461000651,None,490.97919490002096,491.0796595000429,491.0796595000429,None,491.99760640005115,None,,,,,,,11018,001,2024_Jan_05_0819,ANT,2021.2.3,59.69001780179739,
1,18,spatial,up,C,R,,,,,,Block.xlsx,"你已经完成了整个实验（三个区组）。

请报告实验者已完成实验

非常感谢，再见！",1.5,0,1.5,right,RRRRR.png,,,,,0,1,1,1,0,7,7,17,,,,,,,,,,,,,,,,,,,,,,,,,,,,,,,,,,,,,,,,,,,,,,,,,,,,,,,,,,,,,,,,492.39745449996553,492.7987909000367,492.78280090005137,492.88245070003904,493.28230550000444,None,right,1,0.4346545999869704,493.28230550000444,None,492.78280090005137,492.88245070003904,492.88245070003904,None,493.7328328000149,None,,,,,,,11018,001,2024_Jan_05_0819,ANT,2021.2.3,59.69001780179739,
1,24,spatial,down,IC,R,,,,,,Block.xlsx,"你已经完成了整个实验（三个区组）。

请报告实验者已完成实验

非常感谢，再见！",-1.5,0,-1.5,right,LLRLL.png,,,,,0,1,1,1,0,8,8,23,,,,,,,,,,,,,,,,,,,,,,,,,,,,,,,,,,,,,,,,,,,,,,,,,,,,,,,,,,,,,,,,494.1342368000187,494.5351784999948,494.51740879996214,494.6192305000732,495.0202316000359,None,right,1,0.5200099000940099,495.0202316000359,None,494.51740879996214,494.6192305000732,494.6192305000732,None,495.56915770005435,None,,,,,,,11018,001,2024_Jan_05_0819,ANT,2021.2.3,59.69001780179739,
1,5,no,down,C,L,,,,,,Block.xlsx,"你已经完成了整个实验（三个区组）。

请报告实验者已完成实验

非常感谢，再见！",50,0,-1.5,left,LLLLL.png,,,,,0,1,1,1,0,9,9,4,,,,,,,,,,,,,,,,,,,,,,,,,,,,,,,,,,,,,,,,,,,,,,,,,,,,,,,,,,,,,,,,495.9696480999701,496.3707928999793,496.3543082000688,496.4554075000342,496.8545151000144,None,left,1,0.4862329000607133,496.8545151000144,None,496.3543082000688,496.4554075000342,496.4554075000342,None,497.37230030004866,None,,,,,,,11018,001,2024_Jan_05_0819,ANT,2021.2.3,59.69001780179739,
1,8,no,down,IC,R,,,,,,Block.xlsx,"你已经完成了整个实验（三个区组）。

请报告实验者已完成实验

非常感谢，再见！",50,0,-1.5,right,LLRLL.png,,,,,0,1,1,1,0,10,10,7,,,,,,,,,,,,,,,,,,,,,,,,,,,,,,,,,,,,,,,,,,,,,,,,,,,,,,,,,,,,,,,,497.7727266000584,498.1731303000124,498.15848920005374,498.2738683000207,498.6577816000208,None,right,1,0.49050360010005534,498.6577816000208,None,498.15848920005374,498.2738683000207,498.25678419996984,None,499.1743241000222,None,,,,,,,11018,001,2024_Jan_05_0819,ANT,2021.2.3,59.69001780179739,
1,4,no,up,IC,R,,,,,,Block.xlsx,"你已经完成了整个实验（三个区组）。

请报告实验者已完成实验

非常感谢，再见！",50,0,1.5,right,LLRLL.png,,,,,0,1,1,1,0,11,11,3,,,,,,,,,,,,,,,,,,,,,,,,,,,,,,,,,,,,,,,,,,,,,,,,,,,,,,,,,,,,,,,,499.5750191999832,499.9773997999728,499.95870169997215,500.05978010001127,500.46155450004153,None,right,1,0.5833136000437662,500.46155450004153,None,499.95870169997215,500.05978010001127,500.05978010001127,None,501.06051360000856,None,,,,,,,11018,001,2024_Jan_05_0819,ANT,2021.2.3,59.69001780179739,
1,16,center,down,IC,R,,,,,,Block.xlsx,"你已经完成了整个实验（三个区组）。

请报告实验者已完成实验

非常感谢，再见！",0,50,-1.5,right,LLRLL.png,,,,,0,1,1,1,0,12,12,15,,,,,,,,,,,,,,,,,,,,,,,,,,,,,,,,,,,,,,,,,,,,,,,,,,,,,,,,,,,,,,,,501.4610422999831,501.86303070001304,501.8449971000664,501.9466881999979,502.34637310006656,None,right,1,0.6830411000410095,502.34637310006656,None,501.8449971000664,501.9466881999979,501.9466881999979,None,503.04699589998927,None,,,,,,,11018,001,2024_Jan_05_0819,ANT,2021.2.3,59.69001780179739,
1,14,center,down,C,R,,,,,,Block.xlsx,"你已经完成了整个实验（三个区组）。

请报告实验者已完成实验

非常感谢，再见！",0,50,-1.5,right,RRRRR.png,,,,,0,1,1,1,0,13,13,13,,,,,,,,,,,,,,,,,,,,,,,,,,,,,,,,,,,,,,,,,,,,,,,,,,,,,,,,,,,,,,,,503.44721010001376,503.8481567000272,503.8314682999626,503.9317449000664,504.331215800019,None,right,1,0.4812024000566453,504.331215800019,None,503.8314682999626,503.9317449000664,503.9317449000664,None,504.83272840001155,None,,,,,,,11018,001,2024_Jan_05_0819,ANT,2021.2.3,59.69001780179739,
1,4,no,up,IC,R,,,,,,Block.xlsx,"你已经完成了整个实验（三个区组）。

请报告实验者已完成实验

非常感谢，再见！",50,0,1.5,right,LLRLL.png,,,,,0,1,1,1,0,14,14,3,,,,,,,,,,,,,,,,,,,,,,,,,,,,,,,,,,,,,,,,,,,,,,,,,,,,,,,,,,,,,,,,505.2330279999878,505.63424749998376,505.6178138999967,505.7190574000124,506.11801380000543,None,right,1,0.6702695999993011,506.11801380000543,None,505.6178138999967,505.7190574000124,505.7190574000124,None,506.81907259998843,None,,,,,,,11018,001,2024_Jan_05_0819,ANT,2021.2.3,59.69001780179739,
1,15,center,down,IC,L,,,,,,Block.xlsx,"你已经完成了整个实验（三个区组）。

请报告实验者已完成实验

非常感谢，再见！",0,50,-1.5,left,RRLRR.png,,,,,0,1,1,1,0,15,15,14,,,,,,,,,,,,,,,,,,,,,,,,,,,,,,,,,,,,,,,,,,,,,,,,,,,,,,,,,,,,,,,,507.2196863000281,507.62142480001785,507.6036066999659,507.70511790004093,508.104340699967,None,left,1,0.49192399997264147,508.104340699967,None,507.6036066999659,507.70511790004093,507.70511790004093,None,508.62198469997384,None,,,,,,,11018,001,2024_Jan_05_0819,ANT,2021.2.3,59.69001780179739,
1,22,spatial,down,C,R,,,,,,Block.xlsx,"你已经完成了整个实验（三个区组）。

请报告实验者已完成实验

非常感谢，再见！",-1.5,0,-1.5,right,RRRRR.png,,,,,0,1,1,1,0,16,16,21,,,,,,,,,,,,,,,,,,,,,,,,,,,,,,,,,,,,,,,,,,,,,,,,,,,,,,,,,,,,,,,,509.0225216000108,509.42382819997147,509.40692310000304,509.5067499000579,509.90691070002504,None,right,1,0.4180559000233188,509.90691070002504,None,509.40692310000304,509.5067499000579,509.5067499000579,None,510.3409174999688,None,,,,,,,11018,001,2024_Jan_05_0819,ANT,2021.2.3,59.69001780179739,
1,23,spatial,down,IC,L,,,,,,Block.xlsx,"你已经完成了整个实验（三个区组）。

请报告实验者已完成实验

非常感谢，再见！",-1.5,0,-1.5,left,RRLRR.png,,,,,0,1,1,1,0,17,17,22,,,,,,,,,,,,,,,,,,,,,,,,,,,,,,,,,,,,,,,,,,,,,,,,,,,,,,,,,,,,,,,,510.74138070002664,511.142380699981,511.1271025000606,511.22773390007205,511.62677159998566,None,left,1,0.45772179996129125,511.62677159998566,None,511.1271025000606,511.22773390007205,511.22773390007205,None,512.1101999999955,None,,,,,,,11018,001,2024_Jan_05_0819,ANT,2021.2.3,59.69001780179739,
1,17,spatial,up,C,L,,,,,,Block.xlsx,"你已经完成了整个实验（三个区组）。

请报告实验者已完成实验

非常感谢，再见！",1.5,0,1.5,left,LLLLL.png,,,,,0,1,1,1,0,18,18,16,,,,,,,,,,,,,,,,,,,,,,,,,,,,,,,,,,,,,,,,,,,,,,,,,,,,,,,,,,,,,,,,512.5111538000638,512.9133010000223,512.8951929999748,512.9962994999951,513.3970894999802,None,left,1,0.5514149999944493,513.3970894999802,None,512.8951929999748,512.9962994999951,512.9962994999951,None,513.9796368000098,None,,,,,,,11018,001,2024_Jan_05_0819,ANT,2021.2.3,59.69001780179739,
1,20,spatial,up,IC,R,,,,,,Block.xlsx,"你已经完成了整个实验（三个区组）。

请报告实验者已完成实验

非常感谢，再见！",1.5,0,1.5,right,LLRLL.png,,,,,0,1,1,1,0,19,19,19,,,,,,,,,,,,,,,,,,,,,,,,,,,,,,,,,,,,,,,,,,,,,,,,,,,,,,,,,,,,,,,,514.3802172000287,514.7815806000726,514.7640140000731,514.8657130000647,515.2659603999928,None,right,1,0.4666690999874845,515.2659603999928,None,514.7640140000731,514.8657130000647,514.8657130000647,None,515.7488465000642,None,,,,,,,11018,001,2024_Jan_05_0819,ANT,2021.2.3,59.69001780179739,
1,13,center,down,C,L,,,,,,Block.xlsx,"你已经完成了整个实验（三个区组）。

请报告实验者已完成实验

非常感谢，再见！",0,50,-1.5,left,LLLLL.png,,,,,0,1,1,1,0,20,20,12,,,,,,,,,,,,,,,,,,,,,,,,,,,,,,,,,,,,,,,,,,,,,,,,,,,,,,,,,,,,,,,,516.1495158000616,516.5511308000423,516.534507400007,516.6338261000346,517.0344293999951,None,left,1,0.4505450999131426,517.0344293999951,None,516.534507400007,516.6338261000346,516.6338261000346,None,517.5015171000268,None,,,,,,,11018,001,2024_Jan_05_0819,ANT,2021.2.3,59.69001780179739,
1,6,no,down,C,R,,,,,,Block.xlsx,"你已经完成了整个实验（三个区组）。

请报告实验者已完成实验

非常感谢，再见！",50,0,-1.5,right,RRRRR.png,,,,,0,1,1,1,0,21,21,5,,,,,,,,,,,,,,,,,,,,,,,,,,,,,,,,,,,,,,,,,,,,,,,,,,,,,,,,,,,,,,,,517.9019440000411,518.3041827999987,518.2858147000661,518.3878415999934,518.787973199971,None,right,1,0.6403832999058068,518.787973199971,None,518.2858147000661,518.3878415999934,518.3878415999934,None,519.4543694000458,None,,,,,,,11018,001,2024_Jan_05_0819,ANT,2021.2.3,59.69001780179739,
1,24,spatial,down,IC,R,,,,,,Block.xlsx,"你已经完成了整个实验（三个区组）。

请报告实验者已完成实验

非常感谢，再见！",-1.5,0,-1.5,right,LLRLL.png,,,,,0,1,1,1,0,22,22,23,,,,,,,,,,,,,,,,,,,,,,,,,,,,,,,,,,,,,,,,,,,,,,,,,,,,,,,,,,,,,,,,519.8558532000752,520.2571028000675,520.2389810000313,520.3400315999752,520.7399327000603,None,right,1,0.48854489997029305,520.7399327000603,None,520.2389810000313,520.3400315999752,520.3400315999752,None,521.2570030000061,None,,,,,,,11018,001,2024_Jan_05_0819,ANT,2021.2.3,59.69001780179739,
1,22,spatial,down,C,R,,,,,,Block.xlsx,"你已经完成了整个实验（三个区组）。

请报告实验者已完成实验

非常感谢，再见！",-1.5,0,-1.5,right,RRRRR.png,,,,,0,1,1,1,0,23,23,21,,,,,,,,,,,,,,,,,,,,,,,,,,,,,,,,,,,,,,,,,,,,,,,,,,,,,,,,,,,,,,,,521.6585409999825,522.0589686000021,522.0424124000128,522.14374520001,522.5424786000513,None,right,1,0.5099318000720814,522.5424786000513,None,522.0424124000128,522.14374520001,522.14374520001,None,523.076308800024,None,,,,,,,11018,001,2024_Jan_05_0819,ANT,2021.2.3,59.69001780179739,
1,16,center,down,IC,R,,,,,,Block.xlsx,"你已经完成了整个实验（三个区组）。

请报告实验者已完成实验

非常感谢，再见！",0,50,-1.5,right,LLRLL.png,,,,,0,1,1,1,1,0,24,15,,,,,,,,,,,,,,,,,,,,,,,,,,,,,,,,,,,,,,,,,,,,,,,,,,,,,,,,,,,,,,,,523.4769596999977,523.8776454000035,523.8615899999859,523.9613218000159,524.3634899000172,None,right,1,0.4812168999342248,524.3634899000172,None,523.8615899999859,523.9613218000159,523.9613218000159,None,524.8629158000695,None,,,,,,,11018,001,2024_Jan_05_0819,ANT,2021.2.3,59.69001780179739,
1,12,center,up,IC,R,,,,,,Block.xlsx,"你已经完成了整个实验（三个区组）。

请报告实验者已完成实验

非常感谢，再见！",0,50,1.5,right,LLRLL.png,,,,,0,1,1,1,1,1,25,11,,,,,,,,,,,,,,,,,,,,,,,,,,,,,,,,,,,,,,,,,,,,,,,,,,,,,,,,,,,,,,,,525.262994699995,525.6635395999765,525.6477193000028,525.747173300013,526.148700300022,None,right,1,0.6960002999985591,526.148700300022,None,525.6477193000028,525.747173300013,525.747173300013,None,526.865205100039,None,,,,,,,11018,001,2024_Jan_05_0819,ANT,2021.2.3,59.69001780179739,
1,7,no,down,IC,L,,,,,,Block.xlsx,"你已经完成了整个实验（三个区组）。

请报告实验者已完成实验

非常感谢，再见！",50,0,-1.5,left,RRLRR.png,,,,,0,1,1,1,1,2,26,6,,,,,,,,,,,,,,,,,,,,,,,,,,,,,,,,,,,,,,,,,,,,,,,,,,,,,,,,,,,,,,,,527.2659809000324,527.6672278000042,527.6499521000078,527.7513841000618,528.1521489999723,None,left,1,0.6202257999684662,528.1521489999723,None,527.6499521000078,527.7513841000618,527.7513841000618,None,528.8017897000536,None,,,,,,,11018,001,2024_Jan_05_0819,ANT,2021.2.3,59.69001780179739,
1,15,center,down,IC,L,,,,,,Block.xlsx,"你已经完成了整个实验（三个区组）。

请报告实验者已完成实验

非常感谢，再见！",0,50,-1.5,left,RRLRR.png,,,,,0,1,1,1,1,3,27,14,,,,,,,,,,,,,,,,,,,,,,,,,,,,,,,,,,,,,,,,,,,,,,,,,,,,,,,,,,,,,,,,529.2027041000547,529.6036880000029,529.5868185000727,529.6867785999784,530.0885128000518,None,left,1,0.5320057000499219,530.0885128000518,None,529.5868185000727,529.6867785999784,529.6867785999784,None,530.6375932999654,None,,,,,,,11018,001,2024_Jan_05_0819,ANT,2021.2.3,59.69001780179739,
1,16,center,down,IC,R,,,,,,Block.xlsx,"你已经完成了整个实验（三个区组）。

请报告实验者已完成实验

非常感谢，再见！",0,50,-1.5,right,LLRLL.png,,,,,0,1,1,1,1,4,28,15,,,,,,,,,,,,,,,,,,,,,,,,,,,,,,,,,,,,,,,,,,,,,,,,,,,,,,,,,,,,,,,,531.0383567999816,531.4403332000365,531.4227224000497,531.5222511000466,531.9239838999929,None,right,1,0.6007722000358626,531.9239838999929,None,531.4227224000497,531.5222511000466,531.5222511000466,None,532.5404467000626,None,,,,,,,11018,001,2024_Jan_05_0819,ANT,2021.2.3,59.69001780179739,
1,1,no,up,C,L,,,,,,Block.xlsx,"你已经完成了整个实验（三个区组）。

请报告实验者已完成实验

非常感谢，再见！",50,0,1.5,left,LLLLL.png,,,,,0,1,1,1,1,5,29,0,,,,,,,,,,,,,,,,,,,,,,,,,,,,,,,,,,,,,,,,,,,,,,,,,,,,,,,,,,,,,,,,532.94084080006,533.3422751000617,533.3254974000156,533.4267433000496,533.8266261999961,None,left,1,0.6258032999467105,533.8266261999961,None,533.3254974000156,533.4267433000496,533.4267433000496,None,534.4765524000395,None,,,,,,,11018,001,2024_Jan_05_0819,ANT,2021.2.3,59.69001780179739,
1,23,spatial,down,IC,L,,,,,,Block.xlsx,"你已经完成了整个实验（三个区组）。

请报告实验者已完成实验

非常感谢，再见！",-1.5,0,-1.5,left,RRLRR.png,,,,,0,1,1,1,1,6,30,22,,,,,,,,,,,,,,,,,,,,,,,,,,,,,,,,,,,,,,,,,,,,,,,,,,,,,,,,,,,,,,,,534.8773134000367,535.2784613000695,535.2612196999835,535.3618668999989,535.7637795000337,None,left,1,0.5366457999916747,535.7637795000337,None,535.2612196999835,535.3618668999989,535.3618668999989,None,536.3293797000078,None,,,,,,,11018,001,2024_Jan_05_0819,ANT,2021.2.3,59.69001780179739,
1,17,spatial,up,C,L,,,,,,Block.xlsx,"你已经完成了整个实验（三个区组）。

请报告实验者已完成实验

非常感谢，再见！",1.5,0,1.5,left,LLLLL.png,,,,,0,1,1,1,1,7,31,16,,,,,,,,,,,,,,,,,,,,,,,,,,,,,,,,,,,,,,,,,,,,,,,,,,,,,,,,,,,,,,,,536.7305270000361,537.1312841000035,537.1145548999775,537.2154373000376,537.6150619999971,None,left,1,0.6374337999150157,537.6150619999971,None,537.1145548999775,537.2154373000376,537.2154373000376,None,538.2820877999766,None,,,,,,,11018,001,2024_Jan_05_0819,ANT,2021.2.3,59.69001780179739,
1,13,center,down,C,L,,,,,,Block.xlsx,"你已经完成了整个实验（三个区组）。

请报告实验者已完成实验

非常感谢，再见！",0,50,-1.5,left,LLLLL.png,,,,,0,1,1,1,1,8,32,12,,,,,,,,,,,,,,,,,,,,,,,,,,,,,,,,,,,,,,,,,,,,,,,,,,,,,,,,,,,,,,,,538.682918000035,539.0849166000262,539.0673178000143,539.1667785000755,539.5678614999633,None,left,1,0.45281859999522567,539.5678614999633,None,539.0673178000143,539.1667785000755,539.1667785000755,None,540.0354897000361,None,,,,,,,11018,001,2024_Jan_05_0819,ANT,2021.2.3,59.69001780179739,
1,11,center,up,IC,L,,,,,,Block.xlsx,"你已经完成了整个实验（三个区组）。

请报告实验者已完成实验

非常感谢，再见！",0,50,1.5,left,RRLRR.png,,,,,0,1,1,1,1,9,33,10,,,,,,,,,,,,,,,,,,,,,,,,,,,,,,,,,,,,,,,,,,,,,,,,,,,,,,,,,,,,,,,,540.4361789000686,540.8361869000364,540.8199539000634,540.9203248000704,541.3219038000097,None,left,1,0.6504641999490559,541.3219038000097,None,540.8199539000634,540.9203248000704,540.9203248000704,None,541.9876956000226,None,,,,,,,11018,001,2024_Jan_05_0819,ANT,2021.2.3,59.69001780179739,
1,21,spatial,down,C,L,,,,,,Block.xlsx,"你已经完成了整个实验（三个区组）。

请报告实验者已完成实验

非常感谢，再见！",-1.5,0,-1.5,left,LLLLL.png,,,,,0,1,1,1,1,10,34,20,,,,,,,,,,,,,,,,,,,,,,,,,,,,,,,,,,,,,,,,,,,,,,,,,,,,,,,,,,,,,,,,542.3883949000156,542.7898765000282,542.7722885999829,542.8723596000345,543.2738760999637,None,left,1,0.5388579999562353,543.2738760999637,None,542.7722885999829,542.8723596000345,542.8723596000345,None,543.8405012000585,None,,,,,,,11018,001,2024_Jan_05_0819,ANT,2021.2.3,59.69001780179739,
1,7,no,down,IC,L,,,,,,Block.xlsx,"你已经完成了整个实验（三个区组）。

请报告实验者已完成实验

非常感谢，再见！",50,0,-1.5,left,RRLRR.png,,,,,0,1,1,1,1,11,35,6,,,,,,,,,,,,,,,,,,,,,,,,,,,,,,,,,,,,,,,,,,,,,,,,,,,,,,,,,,,,,,,,544.241866700002,544.6424527000636,544.6253664999967,544.7265513000311,545.1272692000493,None,left,1,0.5570567999966443,545.1272692000493,None,544.6253664999967,544.7265513000311,544.7265513000311,None,545.7103649000637,None,,,,,,,11018,001,2024_Jan_05_0819,ANT,2021.2.3,59.69001780179739,
1,19,spatial,up,IC,L,,,,,,Block.xlsx,"你已经完成了整个实验（三个区组）。

请报告实验者已完成实验

非常感谢，再见！",1.5,0,1.5,left,RRLRR.png,,,,,0,1,1,1,1,12,36,18,,,,,,,,,,,,,,,,,,,,,,,,,,,,,,,,,,,,,,,,,,,,,,,,,,,,,,,,,,,,,,,,546.1104368000524,546.5117625000421,546.4954124999931,546.5955309000565,546.9968249000376,None,left,1,0.7274436000734568,546.9968249000376,None,546.4954124999931,546.5955309000565,546.5955309000565,None,547.7463303999975,None,,,,,,,11018,001,2024_Jan_05_0819,ANT,2021.2.3,59.69001780179739,
1,2,no,up,C,R,,,,,,Block.xlsx,"你已经完成了整个实验（三个区组）。

请报告实验者已完成实验

非常感谢，再见！",50,0,1.5,right,RRRRR.png,,,,,0,1,1,1,1,13,37,1,,,,,,,,,,,,,,,,,,,,,,,,,,,,,,,,,,,,,,,,,,,,,,,,,,,,,,,,,,,,,,,,548.1484691000078,548.547533200006,548.5325608999701,548.6329612999689,549.0335024000378,None,right,1,0.5229392000474036,549.0335024000378,None,548.5325608999701,548.6329612999689,548.6329612999689,None,549.5824285000563,None,,,,,,,11018,001,2024_Jan_05_0819,ANT,2021.2.3,59.69001780179739,
1,10,center,up,C,R,,,,,,Block.xlsx,"你已经完成了整个实验（三个区组）。

请报告实验者已完成实验

非常感谢，再见！",0,50,1.5,right,RRRRR.png,,,,,0,1,1,1,1,14,38,9,,,,,,,,,,,,,,,,,,,,,,,,,,,,,,,,,,,,,,,,,,,,,,,,,,,,,,,,,,,,,,,,549.9828232000582,550.383562300005,550.3681141000707,550.4693139999872,550.8687698000576,None,right,1,0.5119857999961823,550.8687698000576,None,550.3681141000707,550.4693139999872,550.4693139999872,None,551.4018097000662,None,,,,,,,11018,001,2024_Jan_05_0819,ANT,2021.2.3,59.69001780179739,
1,11,center,up,IC,L,,,,,,Block.xlsx,"你已经完成了整个实验（三个区组）。

请报告实验者已完成实验

非常感谢，再见！",0,50,1.5,left,RRLRR.png,,,,,0,1,1,1,1,15,39,10,,,,,,,,,,,,,,,,,,,,,,,,,,,,,,,,,,,,,,,,,,,,,,,,,,,,,,,,,,,,,,,,551.8023979000282,552.2044358999701,552.1864501000382,552.2871920000762,552.6882173999911,None,left,1,0.572472200030461,552.6882173999911,None,552.1864501000382,552.2871920000762,552.2871920000762,None,553.287729099975,None,,,,,,,11018,001,2024_Jan_05_0819,ANT,2021.2.3,59.69001780179739,
1,22,spatial,down,C,R,,,,,,Block.xlsx,"你已经完成了整个实验（三个区组）。

请报告实验者已完成实验

非常感谢，再见！",-1.5,0,-1.5,right,RRRRR.png,,,,,0,1,1,1,1,16,40,21,,,,,,,,,,,,,,,,,,,,,,,,,,,,,,,,,,,,,,,,,,,,,,,,,,,,,,,,,,,,,,,,553.6884459999856,554.0891009999905,554.0747833000496,554.1753524000524,554.5747123999754,None,right,1,0.5896776000736281,554.5747123999754,None,554.0747833000496,554.1753524000524,554.1753524000524,None,555.1908048000187,None,,,,,,,11018,001,2024_Jan_05_0819,ANT,2021.2.3,59.69001780179739,
1,23,spatial,down,IC,L,,,,,,Block.xlsx,"你已经完成了整个实验（三个区组）。

请报告实验者已完成实验

非常感谢，再见！",-1.5,0,-1.5,left,RRLRR.png,,,,,0,1,1,1,1,17,41,22,,,,,,,,,,,,,,,,,,,,,,,,,,,,,,,,,,,,,,,,,,,,,,,,,,,,,,,,,,,,,,,,555.5919043000322,555.992316500051,555.975937500014,556.0752376000164,556.4761467999779,None,left,1,0.49634820001665503,556.4761467999779,None,555.975937500014,556.0752376000164,556.0752376000164,None,556.9933547000401,None,,,,,,,11018,001,2024_Jan_05_0819,ANT,2021.2.3,59.69001780179739,
1,8,no,down,IC,R,,,,,,Block.xlsx,"你已经完成了整个实验（三个区组）。

请报告实验者已完成实验

非常感谢，再见！",50,0,-1.5,right,LLRLL.png,,,,,0,1,1,1,1,18,42,7,,,,,,,,,,,,,,,,,,,,,,,,,,,,,,,,,,,,,,,,,,,,,,,,,,,,,,,,,,,,,,,,557.3948627000209,557.7945686000166,557.7798944000388,557.8785834000446,558.2786669000052,None,right,1,0.5096878000767902,558.2786669000052,None,557.7798944000388,557.8785834000446,557.8785834000446,None,558.8128931999672,None,,,,,,,11018,001,2024_Jan_05_0819,ANT,2021.2.3,59.69001780179739,
1,24,spatial,down,IC,R,,,,,,Block.xlsx,"你已经完成了整个实验（三个区组）。

请报告实验者已完成实验

非常感谢，再见！",-1.5,0,-1.5,right,LLRLL.png,,,,,0,1,1,1,1,19,43,23,,,,,,,,,,,,,,,,,,,,,,,,,,,,,,,,,,,,,,,,,,,,,,,,,,,,,,,,,,,,,,,,559.2140025000554,559.6157562000444,559.5977906000335,559.6973560999613,560.0977810000768,None,right,1,0.4905043999897316,560.0977810000768,None,559.5977906000335,559.6973560999613,559.6973560999613,None,560.615213299985,None,,,,,,,11018,001,2024_Jan_05_0819,ANT,2021.2.3,59.69001780179739,
1,5,no,down,C,L,,,,,,Block.xlsx,"你已经完成了整个实验（三个区组）。

请报告实验者已完成实验

非常感谢，再见！",50,0,-1.5,left,LLLLL.png,,,,,0,1,1,1,1,20,44,4,,,,,,,,,,,,,,,,,,,,,,,,,,,,,,,,,,,,,,,,,,,,,,,,,,,,,,,,,,,,,,,,561.0165671000723,561.4173081000336,561.399724500021,561.5010319000576,561.9013832999626,None,left,1,0.5031996000325307,561.9013832999626,None,561.399724500021,561.5010319000576,561.5010319000576,None,562.434804999968,None,,,,,,,11018,001,2024_Jan_05_0819,ANT,2021.2.3,59.69001780179739,
1,3,no,up,IC,L,,,,,,Block.xlsx,"你已经完成了整个实验（三个区组）。

请报告实验者已完成实验

非常感谢，再见！",50,0,1.5,left,RRLRR.png,,,,,0,1,1,1,1,21,45,2,,,,,,,,,,,,,,,,,,,,,,,,,,,,,,,,,,,,,,,,,,,,,,,,,,,,,,,,,,,,,,,,562.8360296000028,563.237645199988,563.220090100076,563.3205491000554,563.7202975000255,None,left,1,0.6601821999065578,563.7202975000255,None,563.220090100076,563.3205491000554,563.3205491000554,None,564.4044441999868,None,,,,,,,11018,001,2024_Jan_05_0819,ANT,2021.2.3,59.69001780179739,
1,18,spatial,up,C,R,,,,,,Block.xlsx,"你已经完成了整个实验（三个区组）。

请报告实验者已完成实验

非常感谢，再见！",1.5,0,1.5,right,RRRRR.png,,,,,0,1,1,1,1,22,46,17,,,,,,,,,,,,,,,,,,,,,,,,,,,,,,,,,,,,,,,,,,,,,,,,,,,,,,,,,,,,,,,,564.8049769999925,565.2065131000709,565.1890361000551,565.2892273999751,565.6906525000231,None,right,1,0.45767560007516295,565.6906525000231,None,565.1890361000551,565.2892273999751,565.2892273999751,None,566.1738124999683,None,,,,,,,11018,001,2024_Jan_05_0819,ANT,2021.2.3,59.69001780179739,
1,3,no,up,IC,L,,,,,,Block.xlsx,"你已经完成了整个实验（三个区组）。

请报告实验者已完成实验

非常感谢，再见！",50,0,1.5,left,RRLRR.png,,,,,0,1,1,1,1,23,47,2,,,,,,,,,,,,,,,,,,,,,,,,,,,,,,,,,,,,,,,,,,,,,,,,,,,,,,,,,,,,,,,,566.5741554000415,566.9755365999881,566.9588212000672,567.0593701000325,567.4607880000258,None,left,1,0.5915848000440747,567.4607880000258,None,566.9588212000672,567.0593701000325,567.0593701000325,None,568.0764328000369,None,,,,,,,11018,001,2024_Jan_05_0819,ANT,2021.2.3,59.69001780179739,
1,19,spatial,up,IC,L,,,,,,Block.xlsx,"你已经完成了整个实验（三个区组）。

请报告实验者已完成实验

非常感谢，再见！",1.5,0,1.5,left,RRLRR.png,,,,,0,1,1,1,2,0,48,18,,,,,,,,,,,,,,,,,,,,,,,,,,,,,,,,,,,,,,,,,,,,,,,,,,,,,,,,,,,,,,,,568.4768863000209,568.8783190000104,568.8624222000362,568.9783912000712,569.3634596000193,None,left,1,0.4812608999200165,569.3634596000193,None,568.8624222000362,568.9783912000712,568.9611563000362,None,569.8623117000097,None,,,,,,,11018,001,2024_Jan_05_0819,ANT,2021.2.3,59.69001780179739,
1,4,no,up,IC,R,,,,,,Block.xlsx,"你已经完成了整个实验（三个区组）。

请报告实验者已完成实验

非常感谢，再见！",50,0,1.5,right,LLRLL.png,,,,,0,1,1,1,2,1,49,3,,,,,,,,,,,,,,,,,,,,,,,,,,,,,,,,,,,,,,,,,,,,,,,,,,,,,,,,,,,,,,,,570.2629954000004,570.6641529999906,570.6494894999778,570.7642422000645,571.1482786000706,None,right,1,0.504261799971573,571.1482786000706,None,570.6494894999778,570.7642422000645,570.7483432000736,None,571.6818361000624,None,,,,,,,11018,001,2024_Jan_05_0819,ANT,2021.2.3,59.69001780179739,
1,21,spatial,down,C,L,,,,,,Block.xlsx,"你已经完成了整个实验（三个区组）。

请报告实验者已完成实验

非常感谢，再见！",-1.5,0,-1.5,left,LLLLL.png,,,,,0,1,1,1,2,2,50,20,,,,,,,,,,,,,,,,,,,,,,,,,,,,,,,,,,,,,,,,,,,,,,,,,,,,,,,,,,,,,,,,572.0822866000235,572.4835566000547,572.4680720000761,572.5664545000764,572.9671294,None,left,1,0.6211992000462487,572.9671294,None,572.4680720000761,572.5664545000764,572.5664545000764,None,573.6186968999682,None,,,,,,,11018,001,2024_Jan_05_0819,ANT,2021.2.3,59.69001780179739,
1,15,center,down,IC,L,,,,,,Block.xlsx,"你已经完成了整个实验（三个区组）。

请报告实验者已完成实验

非常感谢，再见！",0,50,-1.5,left,RRLRR.png,,,,,0,1,1,1,2,3,51,14,,,,,,,,,,,,,,,,,,,,,,,,,,,,,,,,,,,,,,,,,,,,,,,,,,,,,,,,,,,,,,,,574.0185609000036,574.4198187000584,574.4039565999992,574.5031080000335,574.9035939000314,None,left,1,0.5013831000542268,574.9035939000314,None,574.4039565999992,574.5031080000335,574.5031080000335,None,575.420671400032,None,,,,,,,11018,001,2024_Jan_05_0819,ANT,2021.2.3,59.69001780179739,
1,11,center,up,IC,L,,,,,,Block.xlsx,"你已经完成了整个实验（三个区组）。

请报告实验者已完成实验

非常感谢，再见！",0,50,1.5,left,RRLRR.png,,,,,0,1,1,1,2,4,52,10,,,,,,,,,,,,,,,,,,,,,,,,,,,,,,,,,,,,,,,,,,,,,,,,,,,,,,,,,,,,,,,,575.8220951000694,576.2225713999942,576.207190199988,576.3228079000255,576.7059730000328,None,left,1,0.5387254999950528,576.7059730000328,None,576.207190199988,576.3228079000255,576.3056503999978,None,577.2735609000083,None,,,,,,,11018,001,2024_Jan_05_0819,ANT,2021.2.3,59.69001780179739,
1,7,no,down,IC,L,,,,,,Block.xlsx,"你已经完成了整个实验（三个区组）。

请报告实验者已完成实验

非常感谢，再见！",50,0,-1.5,left,RRLRR.png,,,,,0,1,1,1,2,5,53,6,,,,,,,,,,,,,,,,,,,,,,,,,,,,,,,,,,,,,,,,,,,,,,,,,,,,,,,,,,,,,,,,577.674028599984,578.0752695000265,578.0579150000121,578.1584743000567,578.5592765000183,None,left,1,0.7090819999575615,578.5592765000183,None,578.0579150000121,578.1584743000567,578.1584743000567,None,579.2931103999726,None,,,,,,,11018,001,2024_Jan_05_0819,ANT,2021.2.3,59.69001780179739,
1,10,center,up,C,R,,,,,,Block.xlsx,"你已经完成了整个实验（三个区组）。

请报告实验者已完成实验

非常感谢，再见！",0,50,1.5,right,RRRRR.png,,,,,0,1,1,1,2,6,54,9,,,,,,,,,,,,,,,,,,,,,,,,,,,,,,,,,,,,,,,,,,,,,,,,,,,,,,,,,,,,,,,,579.6941945999861,580.0942954999628,580.0782159999944,580.1783773000352,580.5792127000168,None,right,1,0.5373210000107065,580.5792127000168,None,580.0782159999944,580.1783773000352,580.1783773000352,None,581.1456957999617,None,,,,,,,11018,001,2024_Jan_05_0819,ANT,2021.2.3,59.69001780179739,
1,11,center,up,IC,L,,,,,,Block.xlsx,"你已经完成了整个实验（三个区组）。

请报告实验者已完成实验

非常感谢，再见！",0,50,1.5,left,RRLRR.png,,,,,0,1,1,1,2,7,55,10,,,,,,,,,,,,,,,,,,,,,,,,,,,,,,,,,,,,,,,,,,,,,,,,,,,,,,,,,,,,,,,,581.5462177000009,581.9488861999707,581.9300936000654,582.0314729000675,582.4307880999986,None,left,1,0.6695361000020057,582.4307880999986,None,581.9300936000654,582.0314729000675,582.0314729000675,None,583.1153233000077,None,,,,,,,11018,001,2024_Jan_05_0819,ANT,2021.2.3,59.69001780179739,
1,1,no,up,C,L,,,,,,Block.xlsx,"你已经完成了整个实验（三个区组）。

请报告实验者已完成实验

非常感谢，再见！",50,0,1.5,left,LLLLL.png,,,,,0,1,1,1,2,8,56,0,,,,,,,,,,,,,,,,,,,,,,,,,,,,,,,,,,,,,,,,,,,,,,,,,,,,,,,,,,,,,,,,583.5159930000082,583.9177435999736,583.9005405000644,584.001139500062,584.4014079000335,None,left,1,0.4750317999860272,584.4014079000335,None,583.9005405000644,584.001139500062,584.001139500062,None,584.9015132000204,None,,,,,,,11018,001,2024_Jan_05_0819,ANT,2021.2.3,59.69001780179739,
1,19,spatial,up,IC,L,,,,,,Block.xlsx,"你已经完成了整个实验（三个区组）。

请报告实验者已完成实验

非常感谢，再见！",1.5,0,1.5,left,RRLRR.png,,,,,0,1,1,1,2,9,57,18,,,,,,,,,,,,,,,,,,,,,,,,,,,,,,,,,,,,,,,,,,,,,,,,,,,,,,,,,,,,,,,,585.3020176000427,585.703556100023,585.6858174999943,585.7873242000351,586.1881865999894,None,left,1,0.5363955999491736,586.1881865999894,None,585.6858174999943,585.7873242000351,585.7873242000351,None,586.7549221999943,None,,,,,,,11018,001,2024_Jan_05_0819,ANT,2021.2.3,59.69001780179739,
1,5,no,down,C,L,,,,,,Block.xlsx,"你已经完成了整个实验（三个区组）。

请报告实验者已完成实验

非常感谢，再见！",50,0,-1.5,left,LLLLL.png,,,,,0,1,1,1,2,10,58,4,,,,,,,,,,,,,,,,,,,,,,,,,,,,,,,,,,,,,,,,,,,,,,,,,,,,,,,,,,,,,,,,587.1547672000015,587.5556035999907,587.5388383000391,587.6392320999876,588.0396613000194,None,left,1,0.6447946999687701,588.0396613000194,None,587.5388383000391,587.6392320999876,587.6392320999876,None,588.706792299985,None,,,,,,,11018,001,2024_Jan_05_0819,ANT,2021.2.3,59.69001780179739,
1,18,spatial,up,C,R,,,,,,Block.xlsx,"你已经完成了整个实验（三个区组）。

请报告实验者已完成实验

非常感谢，再见！",1.5,0,1.5,right,RRRRR.png,,,,,0,1,1,1,2,11,59,17,,,,,,,,,,,,,,,,,,,,,,,,,,,,,,,,,,,,,,,,,,,,,,,,,,,,,,,,,,,,,,,,589.1076849000528,589.5096208000323,589.4915040000342,589.5923328000354,589.9938821999822,None,right,1,0.4025560999289155,589.9938821999822,None,589.4915040000342,589.5923328000354,589.5923328000354,None,590.4261653000722,None,,,,,,,11018,001,2024_Jan_05_0819,ANT,2021.2.3,59.69001780179739,
1,20,spatial,up,IC,R,,,,,,Block.xlsx,"你已经完成了整个实验（三个区组）。

请报告实验者已完成实验

非常感谢，再见！",1.5,0,1.5,right,LLRLL.png,,,,,0,1,1,1,2,12,60,19,,,,,,,,,,,,,,,,,,,,,,,,,,,,,,,,,,,,,,,,,,,,,,,,,,,,,,,,,,,,,,,,590.8268307000399,591.2280229000608,591.2129657999612,591.328316600062,591.7121087000705,None,right,1,0.9963458999991417,591.7121087000705,None,591.2129657999612,591.328316600062,591.3108055000193,None,592.7294767000712,None,,,,,,,11018,001,2024_Jan_05_0819,ANT,2021.2.3,59.69001780179739,
1,23,spatial,down,IC,L,,,,,,Block.xlsx,"你已经完成了整个实验（三个区组）。

请报告实验者已完成实验

非常感谢，再见！",-1.5,0,-1.5,left,RRLRR.png,,,,,0,1,1,1,2,13,61,22,,,,,,,,,,,,,,,,,,,,,,,,,,,,,,,,,,,,,,,,,,,,,,,,,,,,,,,,,,,,,,,,593.1308639000636,593.5308716000291,593.5146057000384,593.6143682000693,594.0147636000765,None,left,1,0.45366260001901537,594.0147636000765,None,593.5146057000384,593.6143682000693,593.6143682000693,None,594.4990248000249,None,,,,,,,11018,001,2024_Jan_05_0819,ANT,2021.2.3,59.69001780179739,
1,3,no,up,IC,L,,,,,,Block.xlsx,"你已经完成了整个实验（三个区组）。

请报告实验者已完成实验

非常感谢，再见！",50,0,1.5,left,RRLRR.png,,,,,0,1,1,1,2,14,62,2,,,,,,,,,,,,,,,,,,,,,,,,,,,,,,,,,,,,,,,,,,,,,,,,,,,,,,,,,,,,,,,,594.9000880999956,595.2999241000507,595.2845517999958,595.3847171000671,595.7841227999888,None,left,1,0.5172384000616148,595.7841227999888,None,595.2845517999958,595.3847171000671,595.3847171000671,None,596.3183882000158,None,,,,,,,11018,001,2024_Jan_05_0819,ANT,2021.2.3,59.69001780179739,
1,20,spatial,up,IC,R,,,,,,Block.xlsx,"你已经完成了整个实验（三个区组）。

请报告实验者已完成实验

非常感谢，再见！",1.5,0,1.5,right,LLRLL.png,,,,,0,1,1,1,2,15,63,19,,,,,,,,,,,,,,,,,,,,,,,,,,,,,,,,,,,,,,,,,,,,,,,,,,,,,,,,,,,,,,,,596.7190346000716,597.120920300018,597.103478700039,597.2041824000189,597.6035663000075,None,right,1,0.505225200089626,597.6035663000075,None,597.103478700039,597.2041824000189,597.2041824000189,None,598.1376865999773,None,,,,,,,11018,001,2024_Jan_05_0819,ANT,2021.2.3,59.69001780179739,
1,20,spatial,up,IC,R,,,,,,Block.xlsx,"你已经完成了整个实验（三个区组）。

请报告实验者已完成实验

非常感谢，再见！",1.5,0,1.5,right,LLRLL.png,,,,,0,1,1,1,2,16,64,19,,,,,,,,,,,,,,,,,,,,,,,,,,,,,,,,,,,,,,,,,,,,,,,,,,,,,,,,,,,,,,,,598.5387014000444,598.9395241000457,598.9222490000539,599.0238201000029,599.4233718999894,None,right,1,0.47710679995361716,599.4233718999894,None,598.9222490000539,599.0238201000029,599.0238201000029,None,599.9235154000344,None,,,,,,,11018,001,2024_Jan_05_0819,ANT,2021.2.3,59.69001780179739,
1,10,center,up,C,R,,,,,,Block.xlsx,"你已经完成了整个实验（三个区组）。

请报告实验者已完成实验

非常感谢，再见！",0,50,1.5,right,RRRRR.png,,,,,0,1,1,1,2,17,65,9,,,,,,,,,,,,,,,,,,,,,,,,,,,,,,,,,,,,,,,,,,,,,,,,,,,,,,,,,,,,,,,,600.3242628000444,600.7253317000577,600.7083198999753,600.8099219000433,601.2089119000593,None,right,1,0.47546290000900626,601.2089119000593,None,600.7083198999753,600.8099219000433,600.8099219000433,None,601.70957549999,None,,,,,,,11018,001,2024_Jan_05_0819,ANT,2021.2.3,59.69001780179739,
1,13,center,down,C,L,,,,,,Block.xlsx,"你已经完成了整个实验（三个区组）。

请报告实验者已完成实验

非常感谢，再见！",0,50,-1.5,left,LLLLL.png,,,,,0,1,1,1,2,18,66,12,,,,,,,,,,,,,,,,,,,,,,,,,,,,,,,,,,,,,,,,,,,,,,,,,,,,,,,,,,,,,,,,602.1101922000526,602.5112804999808,602.4959025999997,602.6131403000327,602.9955868000397,None,left,1,0.5051014000782743,602.9955868000397,None,602.4959025999997,602.6131403000327,602.59485210001,None,603.5290414000629,None,,,,,,,11018,001,2024_Jan_05_0819,ANT,2021.2.3,59.69001780179739,
1,9,center,up,C,L,,,,,,Block.xlsx,"你已经完成了整个实验（三个区组）。

请报告实验者已完成实验

非常感谢，再见！",0,50,1.5,left,LLLLL.png,,,,,0,1,1,1,2,19,67,8,,,,,,,,,,,,,,,,,,,,,,,,,,,,,,,,,,,,,,,,,,,,,,,,,,,,,,,,,,,,,,,,603.9301378000528,604.3319127999712,604.3141649999889,604.4143721000291,604.8147887999658,None,left,1,0.49369549995753914,604.8147887999658,None,604.3141649999889,604.4143721000291,604.4143721000291,None,605.3316493000602,None,,,,,,,11018,001,2024_Jan_05_0819,ANT,2021.2.3,59.69001780179739,
1,2,no,up,C,R,,,,,,Block.xlsx,"你已经完成了整个实验（三个区组）。

请报告实验者已完成实验

非常感谢，再见！",50,0,1.5,right,RRRRR.png,,,,,0,1,1,1,2,20,68,1,,,,,,,,,,,,,,,,,,,,,,,,,,,,,,,,,,,,,,,,,,,,,,,,,,,,,,,,,,,,,,,,605.7321520000696,606.1336643999675,606.1174291999778,606.2169469000073,606.6185768999858,None,right,1,0.5141229999717325,606.6185768999858,None,606.1174291999778,606.2169469000073,606.2169469000073,None,607.1510004000738,None,,,,,,,11018,001,2024_Jan_05_0819,ANT,2021.2.3,59.69001780179739,
1,14,center,down,C,R,,,,,,Block.xlsx,"你已经完成了整个实验（三个区组）。

请报告实验者已完成实验

非常感谢，再见！",0,50,-1.5,right,RRRRR.png,,,,,0,1,1,1,2,21,69,13,,,,,,,,,,,,,,,,,,,,,,,,,,,,,,,,,,,,,,,,,,,,,,,,,,,,,,,,,,,,,,,,607.551690799999,607.9528703000396,607.9374973999802,608.0372077999637,608.4374204999767,None,right,1,0.5349359000101686,608.4374204999767,None,607.9374973999802,608.0372077999637,608.0372077999637,None,608.987745600054,None,,,,,,,11018,001,2024_Jan_05_0819,ANT,2021.2.3,59.69001780179739,
1,9,center,up,C,L,,,,,,Block.xlsx,"你已经完成了整个实验（三个区组）。

请报告实验者已完成实验

非常感谢，再见！",0,50,1.5,left,LLLLL.png,,,,,0,1,1,1,2,22,70,8,,,,,,,,,,,,,,,,,,,,,,,,,,,,,,,,,,,,,,,,,,,,,,,,,,,,,,,,,,,,,,,,609.3877316999715,609.7885254999856,609.7724433999974,609.8723921000492,610.2732520999853,None,left,1,0.4277557999594137,610.2732520999853,None,609.7724433999974,609.8723921000492,609.8723921000492,None,610.7238178000553,None,,,,,,,11018,001,2024_Jan_05_0819,ANT,2021.2.3,59.69001780179739,
1,8,no,down,IC,R,,,,,,Block.xlsx,"你已经完成了整个实验（三个区组）。

请报告实验者已完成实验

非常感谢，再见！",50,0,-1.5,right,LLRLL.png,,,,,0,1,1,1,2,23,71,7,,,,,,,,,,,,,,,,,,,,,,,,,,,,,,,,,,,,,,,,,,,,,,,,,,,,,,,,,,,,,,,,611.1237823000411,611.5241372999735,611.5089444000041,611.6076341000153,612.0085573999677,None,right,1,0.6681548000779003,612.0085573999677,None,611.5089444000041,611.6076341000153,611.6076341000153,None,612.6925893999869,None,,,,,,,11018,001,2024_Jan_05_0819,ANT,2021.2.3,59.69001780179739,
1,12,center,up,IC,R,,,,,,Block.xlsx,"你已经完成了整个实验（三个区组）。

请报告实验者已完成实验

非常感谢，再见！",0,50,1.5,right,LLRLL.png,,,,,0,1,1,1,3,0,72,11,,,,,,,,,,,,,,,,,,,,,,,,,,,,,,,,,,,,,,,,,,,,,,,,,,,,,,,,,,,,,,,,613.0931759000523,613.49591529998,613.4774742000736,613.5796626000665,613.9789845000487,None,right,1,0.3774589999811724,613.9789845000487,None,613.4774742000736,613.5796626000665,613.5796626000665,None,614.3782273000106,None,,,,,,,11018,001,2024_Jan_05_0819,ANT,2021.2.3,59.69001780179739,
1,16,center,down,IC,R,,,,,,Block.xlsx,"你已经完成了整个实验（三个区组）。

请报告实验者已完成实验

非常感谢，再见！",0,50,-1.5,right,LLRLL.png,,,,,0,1,1,1,3,1,73,15,,,,,,,,,,,,,,,,,,,,,,,,,,,,,,,,,,,,,,,,,,,,,,,,,,,,,,,,,,,,,,,,614.7790392000461,615.1806760000763,615.1627965000225,615.2630933000473,615.6640853000572,None,right,1,0.77247670001816,615.6640853000572,None,615.1627965000225,615.2630933000473,615.2630933000473,None,616.4647103999741,None,,,,,,,11018,001,2024_Jan_05_0819,ANT,2021.2.3,59.69001780179739,
1,21,spatial,down,C,L,,,,,,Block.xlsx,"你已经完成了整个实验（三个区组）。

请报告实验者已完成实验

非常感谢，再见！",-1.5,0,-1.5,left,LLLLL.png,,,,,0,1,1,1,3,2,74,20,,,,,,,,,,,,,,,,,,,,,,,,,,,,,,,,,,,,,,,,,,,,,,,,,,,,,,,,,,,,,,,,616.8655184999807,617.2662206999958,617.249671000056,617.3502937000012,617.7507666000165,None,left,1,0.5904304999858141,617.7507666000165,None,617.249671000056,617.3502937000012,617.3502937000012,None,618.3690742000472,None,,,,,,,11018,001,2024_Jan_05_0819,ANT,2021.2.3,59.69001780179739,
1,5,no,down,C,L,,,,,,Block.xlsx,"你已经完成了整个实验（三个区组）。

请报告实验者已完成实验

非常感谢，再见！",50,0,-1.5,left,LLLLL.png,,,,,0,1,1,1,3,3,75,4,,,,,,,,,,,,,,,,,,,,,,,,,,,,,,,,,,,,,,,,,,,,,,,,,,,,,,,,,,,,,,,,618.768182400032,619.1699392000446,619.1521483999677,619.2523669999791,619.6542823000345,None,left,1,0.44615480001084507,619.6542823000345,None,619.1521483999677,619.2523669999791,619.2523669999791,None,620.1201603000518,None,,,,,,,11018,001,2024_Jan_05_0819,ANT,2021.2.3,59.69001780179739,
1,19,spatial,up,IC,L,,,,,,Block.xlsx,"你已经完成了整个实验（三个区组）。

请报告实验者已完成实验

非常感谢，再见！",1.5,0,1.5,left,RRLRR.png,,,,,0,1,1,1,3,4,76,18,,,,,,,,,,,,,,,,,,,,,,,,,,,,,,,,,,,,,,,,,,,,,,,,,,,,,,,,,,,,,,,,620.5213103999849,620.92156050005,620.9048892999999,621.0057467999868,621.4059594999999,None,left,1,0.5026775000151247,621.4059594999999,None,620.9048892999999,621.0057467999868,621.0057467999868,None,621.9228389000054,None,,,,,,,11018,001,2024_Jan_05_0819,ANT,2021.2.3,59.69001780179739,
1,6,no,down,C,R,,,,,,Block.xlsx,"你已经完成了整个实验（三个区组）。

请报告实验者已完成实验

非常感谢，再见！",50,0,-1.5,right,RRRRR.png,,,,,0,1,1,1,3,5,77,5,,,,,,,,,,,,,,,,,,,,,,,,,,,,,,,,,,,,,,,,,,,,,,,,,,,,,,,,,,,,,,,,622.3242104999954,622.7241819000337,622.7093470999971,622.8257876000134,623.2098773000762,None,right,1,0.6026855000527576,623.2098773000762,None,622.7093470999971,622.8257876000134,622.8085318000522,None,623.8434087999631,None,,,,,,,11018,001,2024_Jan_05_0819,ANT,2021.2.3,59.69001780179739,
1,9,center,up,C,L,,,,,,Block.xlsx,"你已经完成了整个实验（三个区组）。

请报告实验者已完成实验

非常感谢，再见！",0,50,1.5,left,LLLLL.png,,,,,0,1,1,1,3,6,78,8,,,,,,,,,,,,,,,,,,,,,,,,,,,,,,,,,,,,,,,,,,,,,,,,,,,,,,,,,,,,,,,,624.243055799976,624.6441870999988,624.6276688000653,624.7269451000029,625.1283568000654,None,left,1,0.4601301000220701,625.1283568000654,None,624.6276688000653,624.7269451000029,624.7269451000029,None,625.6127264000243,None,,,,,,,11018,001,2024_Jan_05_0819,ANT,2021.2.3,59.69001780179739,
1,21,spatial,down,C,L,,,,,,Block.xlsx,"你已经完成了整个实验（三个区组）。

请报告实验者已完成实验

非常感谢，再见！",-1.5,0,-1.5,left,LLLLL.png,,,,,0,1,1,1,3,7,79,20,,,,,,,,,,,,,,,,,,,,,,,,,,,,,,,,,,,,,,,,,,,,,,,,,,,,,,,,,,,,,,,,626.0123017000733,626.4131100999657,626.3968358000275,626.4963349000318,626.8984455000609,None,left,1,0.4506628999952227,626.8984455000609,None,626.3968358000275,626.4963349000318,626.4963349000318,None,627.3643267999869,None,,,,,,,11018,001,2024_Jan_05_0819,ANT,2021.2.3,59.69001780179739,
1,10,center,up,C,R,,,,,,Block.xlsx,"你已经完成了整个实验（三个区组）。

请报告实验者已完成实验

非常感谢，再见！",0,50,1.5,right,RRRRR.png,,,,,0,1,1,1,3,8,80,9,,,,,,,,,,,,,,,,,,,,,,,,,,,,,,,,,,,,,,,,,,,,,,,,,,,,,,,,,,,,,,,,627.7647306000581,628.1656899000518,628.1505950000137,628.2498501000227,628.6507157000015,None,right,1,0.41771179996430874,628.6507157000015,None,628.1505950000137,628.2498501000227,628.2498501000227,None,629.08355510002,None,,,,,,,11018,001,2024_Jan_05_0819,ANT,2021.2.3,59.69001780179739,
1,6,no,down,C,R,,,,,,Block.xlsx,"你已经完成了整个实验（三个区组）。

请报告实验者已完成实验

非常感谢，再见！",50,0,-1.5,right,RRRRR.png,,,,,0,1,1,1,3,9,81,5,,,,,,,,,,,,,,,,,,,,,,,,,,,,,,,,,,,,,,,,,,,,,,,,,,,,,,,,,,,,,,,,629.4842771000694,629.8854169000406,629.8686863000039,629.9694766000612,630.3686406000052,None,right,1,0.49206210009288043,630.3686406000052,None,629.8686863000039,629.9694766000612,629.9694766000612,None,630.8859832000453,None,,,,,,,11018,001,2024_Jan_05_0819,ANT,2021.2.3,59.69001780179739,
1,17,spatial,up,C,L,,,,,,Block.xlsx,"你已经完成了整个实验（三个区组）。

请报告实验者已完成实验

非常感谢，再见！",1.5,0,1.5,left,LLLLL.png,,,,,0,1,1,1,3,10,82,16,,,,,,,,,,,,,,,,,,,,,,,,,,,,,,,,,,,,,,,,,,,,,,,,,,,,,,,,,,,,,,,,631.2867906000465,631.6873647000175,631.6724397999933,631.7884055000031,632.1719637999777,None,left,1,0.44879069994203746,632.1719637999777,None,631.6724397999933,631.7884055000031,631.7709997000638,None,632.638710899977,None,,,,,,,11018,001,2024_Jan_05_0819,ANT,2021.2.3,59.69001780179739,
1,4,no,up,IC,R,,,,,,Block.xlsx,"你已经完成了整个实验（三个区组）。

请报告实验者已完成实验

非常感谢，再见！",50,0,1.5,right,LLRLL.png,,,,,0,1,1,1,3,11,83,3,,,,,,,,,,,,,,,,,,,,,,,,,,,,,,,,,,,,,,,,,,,,,,,,,,,,,,,,,,,,,,,,633.0394050000468,633.4414674000582,633.4232495999895,633.5241472000489,633.92442080006,None,right,1,0.7920930000254884,633.92442080006,None,633.4232495999895,633.5241472000489,633.5241472000489,None,634.7418989000143,None,,,,,,,11018,001,2024_Jan_05_0819,ANT,2021.2.3,59.69001780179739,
1,24,spatial,down,IC,R,,,,,,Block.xlsx,"你已经完成了整个实验（三个区组）。

请报告实验者已完成实验

非常感谢，再见！",-1.5,0,-1.5,right,LLRLL.png,,,,,0,1,1,1,3,12,84,23,,,,,,,,,,,,,,,,,,,,,,,,,,,,,,,,,,,,,,,,,,,,,,,,,,,,,,,,,,,,,,,,635.1425774999661,635.5430035999743,635.528363200021,635.6270569000626,636.0282784000738,None,right,1,0.5608678000280634,636.0282784000738,None,635.528363200021,635.6270569000626,635.6270569000626,None,636.6113993000472,None,,,,,,,11018,001,2024_Jan_05_0819,ANT,2021.2.3,59.69001780179739,
1,1,no,up,C,L,,,,,,Block.xlsx,"你已经完成了整个实验（三个区组）。

请报告实验者已完成实验

非常感谢，再见！",50,0,1.5,left,LLLLL.png,,,,,0,1,1,1,3,13,85,0,,,,,,,,,,,,,,,,,,,,,,,,,,,,,,,,,,,,,,,,,,,,,,,,,,,,,,,,,,,,,,,,637.0119823999703,637.4134269000497,637.3958741000388,637.4969597000163,637.8977362000151,None,left,1,0.5310504999943078,637.8977362000151,None,637.3958741000388,637.4969597000163,637.4969597000163,None,638.4473926000064,None,,,,,,,11018,001,2024_Jan_05_0819,ANT,2021.2.3,59.69001780179739,
1,14,center,down,C,R,,,,,,Block.xlsx,"你已经完成了整个实验（三个区组）。

请报告实验者已完成实验

非常感谢，再见！",0,50,-1.5,right,RRRRR.png,,,,,0,1,1,1,3,14,86,13,,,,,,,,,,,,,,,,,,,,,,,,,,,,,,,,,,,,,,,,,,,,,,,,,,,,,,,,,,,,,,,,638.847924200003,639.249047899968,639.2343058000552,639.3491699000588,639.7337266000686,None,right,1,0.49467749998439103,639.7337266000686,None,639.2343058000552,639.3491699000588,639.3336689000716,None,640.2498682000441,None,,,,,,,11018,001,2024_Jan_05_0819,ANT,2021.2.3,59.69001780179739,
1,17,spatial,up,C,L,,,,,,Block.xlsx,"你已经完成了整个实验（三个区组）。

请报告实验者已完成实验

非常感谢，再见！",1.5,0,1.5,left,LLLLL.png,,,,,0,1,1,1,3,15,87,16,,,,,,,,,,,,,,,,,,,,,,,,,,,,,,,,,,,,,,,,,,,,,,,,,,,,,,,,,,,,,,,,640.6510017999681,641.051242699963,641.035990000004,641.1354439000133,641.5353024000069,None,left,1,0.48583729995880276,641.5353024000069,None,641.035990000004,641.1354439000133,641.1354439000133,None,642.0360898000654,None,,,,,,,11018,001,2024_Jan_05_0819,ANT,2021.2.3,59.69001780179739,
1,18,spatial,up,C,R,,,,,,Block.xlsx,"你已经完成了整个实验（三个区组）。

请报告实验者已完成实验

非常感谢，再见！",1.5,0,1.5,right,RRRRR.png,,,,,0,1,1,1,3,16,88,17,,,,,,,,,,,,,,,,,,,,,,,,,,,,,,,,,,,,,,,,,,,,,,,,,,,,,,,,,,,,,,,,642.4366181000369,642.8370580000337,642.8209218999837,642.9207828000654,643.3222107000183,None,right,1,0.45030810008756816,643.3222107000183,None,642.8209218999837,642.9207828000654,642.9207828000654,None,643.7889667999698,None,,,,,,,11018,001,2024_Jan_05_0819,ANT,2021.2.3,59.69001780179739,
1,3,no,up,IC,L,,,,,,Block.xlsx,"你已经完成了整个实验（三个区组）。

请报告实验者已完成实验

非常感谢，再见！",50,0,1.5,left,RRLRR.png,,,,,0,1,1,1,3,17,89,2,,,,,,,,,,,,,,,,,,,,,,,,,,,,,,,,,,,,,,,,,,,,,,,,,,,,,,,,,,,,,,,,644.189695200068,644.590822200058,644.5735679999925,644.6745240000309,645.0745414000703,None,left,1,0.6508189999731258,645.0745414000703,None,644.5735679999925,644.6745240000309,644.6745240000309,None,645.7414226999972,None,,,,,,,11018,001,2024_Jan_05_0819,ANT,2021.2.3,59.69001780179739,
1,22,spatial,down,C,R,,,,,,Block.xlsx,"你已经完成了整个实验（三个区组）。

请报告实验者已完成实验

非常感谢，再见！",-1.5,0,-1.5,right,RRRRR.png,,,,,0,1,1,1,3,18,90,21,,,,,,,,,,,,,,,,,,,,,,,,,,,,,,,,,,,,,,,,,,,,,,,,,,,,,,,,,,,,,,,,646.1423766000662,646.5427253000671,646.5276711999904,646.6447022999637,647.0279666000279,None,right,1,0.3686407000059262,647.0279666000279,None,646.5276711999904,646.6447022999637,646.6273355999729,None,647.4278171999613,None,,,,,,,11018,001,2024_Jan_05_0819,ANT,2021.2.3,59.69001780179739,
1,14,center,down,C,R,,,,,,Block.xlsx,"你已经完成了整个实验（三个区组）。

请报告实验者已完成实验

非常感谢，再见！",0,50,-1.5,right,RRRRR.png,,,,,0,1,1,1,3,19,91,13,,,,,,,,,,,,,,,,,,,,,,,,,,,,,,,,,,,,,,,,,,,,,,,,,,,,,,,,,,,,,,,,647.8279985999689,648.2287670000223,648.2124795999844,648.3135405000066,648.7142982999794,None,right,1,0.4502529000164941,648.7142982999794,None,648.2124795999844,648.3135405000066,648.3135405000066,None,649.1799631000031,None,,,,,,,11018,001,2024_Jan_05_0819,ANT,2021.2.3,59.69001780179739,
1,12,center,up,IC,R,,,,,,Block.xlsx,"你已经完成了整个实验（三个区组）。

请报告实验者已完成实验

非常感谢，再见！",0,50,1.5,right,LLRLL.png,,,,,0,1,1,1,3,20,92,11,,,,,,,,,,,,,,,,,,,,,,,,,,,,,,,,,,,,,,,,,,,,,,,,,,,,,,,,,,,,,,,,649.5804542000405,649.9822582000634,649.9655609000474,650.0646213999717,650.4661101000383,None,right,1,0.6904683000175282,650.4661101000383,None,649.9655609000474,650.0646213999717,650.0646213999717,None,651.1831324000377,None,,,,,,,11018,001,2024_Jan_05_0819,ANT,2021.2.3,59.69001780179739,
1,13,center,down,C,L,,,,,,Block.xlsx,"你已经完成了整个实验（三个区组）。

请报告实验者已完成实验

