TrialType,TrialNumber,WarningType,TargetType,FlankerType,TargetDirection,W,f,Y,corr,imageFile,condition,endtext,Yw,Yf,Yt,Corr,imagefile,trials_3.thisRepN,trials_3.thisTrialN,trials_3.thisN,trials_3.thisIndex,trials_2.thisRepN,trials_2.thisTrialN,trials_2.thisN,trials_2.thisIndex,trials.thisRepN,trials.thisTrialN,trials.thisN,trials.thisIndex,instr.started,instr.stopped,key_resp.keys,key_resp.rt,key_resp.started,key_resp.stopped,image.started,image.stopped,key_resp_6.keys,key_resp_6.rt,key_resp_6.started,key_resp_6.stopped,EX_L.started,EX_L.stopped,AL.started,AL.stopped,key_resp_7.keys,key_resp_7.rt,key_resp_7.started,key_resp_7.stopped,EX_R.started,EX_R.stopped,RR.started,RR.stopped,key_resp_8.keys,key_resp_8.rt,key_resp_8.started,key_resp_8.stopped,image_2.started,image_2.stopped,key_resp_9.keys,key_resp_9.rt,key_resp_9.started,key_resp_9.stopped,image_3.started,image_3.stopped,key_resp_10.keys,key_resp_10.rt,key_resp_10.started,key_resp_10.stopped,fix.started,fix.stopped,war.started,war.stopped,tar.started,tar.stopped,key_resp_4.keys,key_resp_4.corr,key_resp_4.rt,key_resp_4.started,key_resp_4.stopped,fix2.started,fix2.stopped,fix_2.started,fix_2.stopped,Feedback.started,Feedback.stopped,key_resp_2.keys,key_resp_2.rt,key_resp_2.started,key_resp_2.stopped,text_5.started,text_5.stopped,fix2_1.started,fix2_1.stopped,Warn.started,Warn.stopped,Tar.started,Tar.stopped,key_resp_5.keys,key_resp_5.corr,key_resp_5.rt,key_resp_5.started,key_resp_5.stopped,Fix_2.started,Fix_2.stopped,fix2_2.started,fix2_2.stopped,text_4.started,text_4.stopped,key_resp_3.keys,key_resp_3.rt,key_resp_3.started,key_resp_3.stopped,text_3.started,text_3.stopped,participant,session,date,expName,psychopyVersion,frameRate,
,,,,,,,,,,,,,,,,,,,,,,,,,,,,,,25.253040899988264,None,space,52.52810790005606,25.253040899988264,None,,,,,,,,,,,,,,,,,,,,,,,,,,,,,,,,,,,,,,,,,,,,,,,,,,,,,,,,,,,,,,,,,,,,,,,,,,,,,,,,,11019,001,2024_Jan_05_0935,ANT,2021.2.3,60.161666470511754,
,,,,,,,,,,,,,,,,,,,,,,,,,,,,,,,,,,,,77.79716900002677,None,space,24.719615199952386,77.79716900002677,None,,,,,,,,,,,,,,,,,,,,,,,,,,,,,,,,,,,,,,,,,,,,,,,,,,,,,,,,,,,,,,,,,,,,,,,,,,,11019,001,2024_Jan_05_0935,ANT,2021.2.3,60.161666470511754,
,,,,,,,,,,,,,,,,,,,,,,,,,,,,,,,,,,,,,,,,,,102.53383169998415,None,102.53383169998415,None,left,12.510539200040512,102.53383169998415,None,,,,,,,,,,,,,,,,,,,,,,,,,,,,,,,,,,,,,,,,,,,,,,,,,,,,,,,,,,,,,,,,,,,11019,001,2024_Jan_05_0935,ANT,2021.2.3,60.161666470511754,
,,,,,,,,,,,,,,,,,,,,,,,,,,,,,,,,,,,,,,,,,,,,,,,,,,115.06890920002479,None,115.06890920002479,None,right,1.5116750999586657,115.06890920002479,None,,,,,,,,,,,,,,,,,,,,,,,,,,,,,,,,,,,,,,,,,,,,,,,,,,,,,,,,,,,11019,001,2024_Jan_05_0935,ANT,2021.2.3,60.161666470511754,
,,,,,,,,,,,,,,,,,,,,,,,,,,,,,,,,,,,,,,,,,,,,,,,,,,,,,,,,,,116.60465539991856,None,space,55.848091699997894,116.60465539991856,None,,,,,,,,,,,,,,,,,,,,,,,,,,,,,,,,,,,,,,,,,,,,,,,,,,,,,11019,001,2024_Jan_05_0935,ANT,2021.2.3,60.161666470511754,
,,,,,,,,,,,,,,,,,,,,,,,,,,,,,,,,,,,,,,,,,,,,,,,,,,,,,,,,,,,,,,,,172.470686799963,None,space,51.678008700022474,172.470686799963,None,,,,,,,,,,,,,,,,,,,,,,,,,,,,,,,,,,,,,,,,,,,,,,,11019,001,2024_Jan_05_0935,ANT,2021.2.3,60.161666470511754,
0,7,center,down,C,R,0,50,-1.5,right,RRRRR.png,,,,,,,,0,0,0,6,,,,,,,,,,,,,,,,,,,,,,,,,,,,,,,,,,,,,,,,,,,,,,,,,224.23070189997088,224.6319169999333,224.61536870000418,224.7159264999209,225.11621010000817,None,right,1,1.2082409000722691,225.11621010000817,None,224.61536870000418,224.7159264999209,224.7159264999209,None,226.36780629993882,None,,,,,,,,,,,,,,,,,,,,,,,,,,,,,,11019,001,2024_Jan_05_0935,ANT,2021.2.3,60.161666470511754,
0,4,no,down,IC,L,50,0,-1.5,left,RRLRR.png,,,,,,,,0,1,1,3,,,,,,,,,,,,,,,,,,,,,,,,,,,,,,,,,,,,,,,,,,,,,,,,,228.37029330001678,228.7717647999525,228.75419080001302,228.85458419995848,229.25497949996497,None,left,1,0.9815482000121847,229.25497949996497,None,228.75419080001302,228.85458419995848,228.85458419995848,None,230.25620119995438,None,,,,,,,,,,,,,,,,,,,,,,,,,,,,,,11019,001,2024_Jan_05_0935,ANT,2021.2.3,60.161666470511754,
0,12,spatial,down,IC,R,-1.5,0,-1.5,right,LLRLL.png,,,,,,,,0,2,2,11,,,,,,,,,,,,,,,,,,,,,,,,,,,,,,,,,,,,,,,,,,,,,,,,,232.25915980001446,232.66081589995883,232.6434542000061,232.74373139999807,233.14410319994204,None,right,1,1.0925892000086606,233.14410319994204,None,232.6434542000061,232.74373139999807,232.74373139999807,None,234.2623547000112,None,,,,,,,,,,,,,,,,,,,,,,,,,,,,,,11019,001,2024_Jan_05_0935,ANT,2021.2.3,60.161666470511754,
0,11,spatial,down,C,L,-1.5,0,-1.5,left,LLLLL.png,,,,,,,,0,3,3,10,,,,,,,,,,,,,,,,,,,,,,,,,,,,,,,,,,,,,,,,,,,,,,,,,236.26623830001336,236.6666561999591,236.6500016999198,236.75001969991717,237.14995500002988,None,left,1,0.631544700008817,237.14995500002988,None,236.6500016999198,236.75001969991717,236.75001969991717,None,237.80078970000613,None,,,,,,,,,,,,,,,,,,,,,,,,,,,,,,11019,001,2024_Jan_05_0935,ANT,2021.2.3,60.161666470511754,
0,9,spatial,up,C,R,1.5,0,1.5,right,RRRRR.png,,,,,,,,0,4,4,8,,,,,,,,,,,,,,,,,,,,,,,,,,,,,,,,,,,,,,,,,,,,,,,,,239.80482929991558,240.20593359996565,240.18874359992333,240.28938239999115,240.6895570999477,None,right,1,0.6589505999581888,240.6895570999477,None,240.18874359992333,240.28938239999115,240.28938239999115,None,241.3732946999371,None,,,,,,,,,,,,,,,,,,,,,,,,,,,,,,11019,001,2024_Jan_05_0935,ANT,2021.2.3,60.161666470511754,
0,1,no,up,C,L,50,0,1.5,left,LLLLL.png,,,,,,,,0,5,5,0,,,,,,,,,,,,,,,,,,,,,,,,,,,,,,,,,,,,,,,,,,,,,,,,,243.3760754999239,243.7776576000033,243.76011999999173,243.860368499998,244.26042599999346,None,left,1,0.6401389999082312,244.26042599999346,None,243.76011999999173,243.860368499998,243.860368499998,None,244.92788350000046,None,,,,,,,,,,,,,,,,,,,,,,,,,,,,,,11019,001,2024_Jan_05_0935,ANT,2021.2.3,60.161666470511754,
0,8,center,down,IC,L,0,50,-1.5,left,RRLRR.png,,,,,,,,0,6,6,7,,,,,,,,,,,,,,,,,,,,,,,,,,,,,,,,,,,,,,,,,,,,,,,,,246.931228499976,247.33167619991582,247.31647620000876,247.43182469997555,247.81669669994153,None,left,1,0.932073500007391,247.81669669994153,None,247.31647620000876,247.43182469997555,247.4161811999511,None,248.7674875999801,None,,,,,,,,,,,,,,,,,,,,,,,,,,,,,,11019,001,2024_Jan_05_0935,ANT,2021.2.3,60.161666470511754,
0,3,no,down,C,R,50,0,-1.5,right,RRRRR.png,,,,,,,,0,7,7,2,,,,,,,,,,,,,,,,,,,,,,,,,,,,,,,,,,,,,,,,,,,,,,,,,250.77012080000713,251.17181169998366,251.1538947999943,251.25426049996167,251.65531689999625,None,right,1,0.997849200037308,251.65531689999625,None,251.1538947999943,251.25426049996167,251.25426049996167,None,252.6731372999493,None,,,,,,,,,,,,,,,,,,,,,,,,,,,,,,11019,001,2024_Jan_05_0935,ANT,2021.2.3,60.161666470511754,
0,6,center,up,IC,R,0,50,1.5,right,LLRLL.png,,,,,,,,0,8,8,5,,,,,,,,,,,,,,,,,,,,,,,,,,,,,,,,,,,,,,,,,,,,,,,,,254.67602050001733,255.07675060001202,255.05971770000178,255.16011499997694,255.56082979997154,None,right,1,0.9395674000261351,255.56082979997154,None,255.05971770000178,255.16011499997694,255.16011499997694,None,256.5286044999957,None,,,,,,,,,,,,,,,,,,,,,,,,,,,,,,11019,001,2024_Jan_05_0935,ANT,2021.2.3,60.161666470511754,
0,10,spatial,up,IC,L,1.5,0,1.5,left,RRLRR.png,,,,,,,,0,9,9,9,,,,,,,,,,,,,,,,,,,,,,,,,,,,,,,,,,,,,,,,,,,,,,,,,258.53188349993434,258.9337957999669,258.916893000016,259.01690269995015,259.4173795999959,None,left,1,0.6430841000983492,259.4173795999959,None,258.916893000016,259.01690269995015,259.01690269995015,None,260.08394959999714,None,,,,,,,,,,,,,,,,,,,,,,,,,,,,,,11019,001,2024_Jan_05_0935,ANT,2021.2.3,60.161666470511754,
0,5,center,up,C,L,0,50,1.5,left,LLLLL.png,,,,,,,,0,10,10,4,,,,,,,,,,,,,,,,,,,,,,,,,,,,,,,,,,,,,,,,,,,,,,,,,262.0869767999975,262.4876925999997,262.4715965000214,262.5714088999666,262.97222839994356,None,left,1,0.7604400999844074,262.97222839994356,None,262.4715965000214,262.5714088999666,262.5714088999666,None,263.7559447999811,None,,,,,,,,,,,,,,,,,,,,,,,,,,,,,,11019,001,2024_Jan_05_0935,ANT,2021.2.3,60.161666470511754,
0,2,no,up,IC,R,50,0,1.5,right,LLRLL.png,,,,,,,,0,11,11,1,,,,,,,,,,,,,,,,,,,,,,,,,,,,,,,,,,,,,,,,,,,,,,,,,265.7595816999674,266.1605162000051,266.143087000004,266.243945299997,266.64523409993853,None,right,1,0.6326350999297574,266.64523409993853,None,266.143087000004,266.243945299997,266.243945299997,None,267.29438899992965,None,,,,,,,,,,,,,,,,,,,,,,,,,,,,,,11019,001,2024_Jan_05_0935,ANT,2021.2.3,60.161666470511754,
,,,,,,,,,,,,,,,,,,,,,,,,,,,,,,,,,,,,,,,,,,,,,,,,,,,,,,,,,,,,,,,,,,,,,,,,,,,,,,,,,,,,,,,space,53.11553119996097,269.29754810000304,None,,,,,,,,,,,,,,,,,,,,,,,,,,11019,001,2024_Jan_05_0935,ANT,2021.2.3,60.161666470511754,
1,10,center,up,C,R,,,,,,Block.xlsx,"你已经完成了第一个实验区组

请稍作休息


点击空格键进入下一个区组。",0,50,1.5,right,RRRRR.png,,,,,0,0,0,0,0,0,0,9,,,,,,,,,,,,,,,,,,,,,,,,,,,,,,,,,,,,,,,,,,,,,,,,,,,,,,,,,,,,,,269.29754810000304,None,322.4783165999688,322.8939180999296,322.8601887000259,322.96081399999093,323.36161959997844,None,right,1,0.6189709999598563,323.36161959997844,None,322.8601887000259,322.96081399999093,322.96081399999093,None,324.01261249999516,None,,,,,,,11019,001,2024_Jan_05_0935,ANT,2021.2.3,60.161666470511754,
1,22,spatial,down,C,R,,,,,,Block.xlsx,"你已经完成了第一个实验区组

请稍作休息


点击空格键进入下一个区组。",-1.5,0,-1.5,right,RRRRR.png,,,,,0,0,0,0,0,1,1,21,,,,,,,,,,,,,,,,,,,,,,,,,,,,,,,,,,,,,,,,,,,,,,,,,,,,,,,,,,,,,,,,324.4125908999704,324.81415210000705,324.7965207999805,324.89738049998414,325.2972249999875,None,right,1,0.5314576000673696,325.2972249999875,None,324.7965207999805,324.89738049998414,324.89738049998414,None,325.8479490999598,None,,,,,,,11019,001,2024_Jan_05_0935,ANT,2021.2.3,60.161666470511754,
1,12,center,up,IC,R,,,,,,Block.xlsx,"你已经完成了第一个实验区组

请稍作休息


点击空格键进入下一个区组。",0,50,1.5,right,LLRLL.png,,,,,0,0,0,0,0,2,2,11,,,,,,,,,,,,,,,,,,,,,,,,,,,,,,,,,,,,,,,,,,,,,,,,,,,,,,,,,,,,,,,,326.2485912999837,326.64997159992345,326.63315000000875,326.7339708999498,327.1344281999627,None,right,1,0.6060795999364927,327.1344281999627,None,326.63315000000875,326.7339708999498,326.7339708999498,None,327.7675993000157,None,,,,,,,11019,001,2024_Jan_05_0935,ANT,2021.2.3,60.161666470511754,
1,10,center,up,C,R,,,,,,Block.xlsx,"你已经完成了第一个实验区组

请稍作休息


点击空格键进入下一个区组。",0,50,1.5,right,RRRRR.png,,,,,0,0,0,0,0,3,3,9,,,,,,,,,,,,,,,,,,,,,,,,,,,,,,,,,,,,,,,,,,,,,,,,,,,,,,,,,,,,,,,,328.1681626000209,328.56929819996003,328.55292029993143,328.652180199977,329.05303369998,None,right,1,0.5356384000042453,329.05303369998,None,328.55292029993143,328.652180199977,328.652180199977,None,329.62033970002085,None,,,,,,,11019,001,2024_Jan_05_0935,ANT,2021.2.3,60.161666470511754,
1,3,no,up,IC,L,,,,,,Block.xlsx,"你已经完成了第一个实验区组

请稍作休息


点击空格键进入下一个区组。",50,0,1.5,left,RRLRR.png,,,,,0,0,0,0,0,4,4,2,,,,,,,,,,,,,,,,,,,,,,,,,,,,,,,,,,,,,,,,,,,,,,,,,,,,,,,,,,,,,,,,330.0206827999791,330.42143350001425,330.40504159999546,330.5057470999891,330.9056267000269,None,left,1,0.6272107999539003,330.9056267000269,None,330.40504159999546,330.5057470999891,330.5057470999891,None,331.5564522999339,None,,,,,,,11019,001,2024_Jan_05_0935,ANT,2021.2.3,60.161666470511754,
1,16,center,down,IC,R,,,,,,Block.xlsx,"你已经完成了第一个实验区组

请稍作休息


点击空格键进入下一个区组。",0,50,-1.5,right,LLRLL.png,,,,,0,0,0,0,0,5,5,15,,,,,,,,,,,,,,,,,,,,,,,,,,,,,,,,,,,,,,,,,,,,,,,,,,,,,,,,,,,,,,,,331.9570627999492,332.35871119995136,332.34099489997607,332.44226689997595,332.84165830002166,None,right,1,0.42813700006809086,332.84165830002166,None,332.34099489997607,332.44226689997595,332.44226689997595,None,333.2924219999695,None,,,,,,,11019,001,2024_Jan_05_0935,ANT,2021.2.3,60.161666470511754,
1,19,spatial,up,IC,L,,,,,,Block.xlsx,"你已经完成了第一个实验区组

请稍作休息


点击空格键进入下一个区组。",1.5,0,1.5,left,RRLRR.png,,,,,0,0,0,0,0,6,6,18,,,,,,,,,,,,,,,,,,,,,,,,,,,,,,,,,,,,,,,,,,,,,,,,,,,,,,,,,,,,,,,,333.6930643999949,334.0946014999645,334.0785893999273,334.1938761000056,334.57825319992844,None,left,1,0.5063162000151351,334.57825319992844,None,334.0785893999273,334.1938761000056,334.1780928999651,None,335.11189749999903,None,,,,,,,11019,001,2024_Jan_05_0935,ANT,2021.2.3,60.161666470511754,
1,2,no,up,C,R,,,,,,Block.xlsx,"你已经完成了第一个实验区组

请稍作休息


点击空格键进入下一个区组。",50,0,1.5,right,RRRRR.png,,,,,0,0,0,0,0,7,7,1,,,,,,,,,,,,,,,,,,,,,,,,,,,,,,,,,,,,,,,,,,,,,,,,,,,,,,,,,,,,,,,,335.5124493999174,335.91492679994553,335.89615439996123,335.99920379999094,336.3975940999808,None,right,1,0.5991762999910861,336.3975940999808,None,335.89615439996123,335.99920379999094,335.99920379999094,None,337.01473099994473,None,,,,,,,11019,001,2024_Jan_05_0935,ANT,2021.2.3,60.161666470511754,
1,23,spatial,down,IC,L,,,,,,Block.xlsx,"你已经完成了第一个实验区组

请稍作休息


点击空格键进入下一个区组。",-1.5,0,-1.5,left,RRLRR.png,,,,,0,0,0,0,0,8,8,22,,,,,,,,,,,,,,,,,,,,,,,,,,,,,,,,,,,,,,,,,,,,,,,,,,,,,,,,,,,,,,,,337.4159840999637,337.8160753999837,337.80108919995837,337.89973820000887,338.2996063999599,None,left,1,0.5769704000558704,338.2996063999599,None,337.80108919995837,337.89973820000887,337.89973820000887,None,338.9008775999537,None,,,,,,,11019,001,2024_Jan_05_0935,ANT,2021.2.3,60.161666470511754,
1,5,no,down,C,L,,,,,,Block.xlsx,"你已经完成了第一个实验区组

请稍作休息


点击空格键进入下一个区组。",50,0,-1.5,left,LLLLL.png,,,,,0,0,0,0,0,9,9,4,,,,,,,,,,,,,,,,,,,,,,,,,,,,,,,,,,,,,,,,,,,,,,,,,,,,,,,,,,,,,,,,339.30131669994444,339.70293289993424,339.6856692000292,339.7859896000009,340.18603340000845,None,left,1,0.6186519999755546,340.18603340000845,None,339.6856692000292,339.7859896000009,339.7859896000009,None,340.82057320000604,None,,,,,,,11019,001,2024_Jan_05_0935,ANT,2021.2.3,60.161666470511754,
1,2,no,up,C,R,,,,,,Block.xlsx,"你已经完成了第一个实验区组

请稍作休息


点击空格键进入下一个区组。",50,0,1.5,right,RRRRR.png,,,,,0,0,0,0,0,10,10,1,,,,,,,,,,,,,,,,,,,,,,,,,,,,,,,,,,,,,,,,,,,,,,,,,,,,,,,,,,,,,,,,341.2206862999592,341.6217105999822,341.6069306000136,341.7216063999804,342.105546399951,None,right,1,0.6672155999112874,342.105546399951,None,341.6069306000136,341.7216063999804,341.70494009996764,None,342.7898548999801,None,,,,,,,11019,001,2024_Jan_05_0935,ANT,2021.2.3,60.161666470511754,
1,21,spatial,down,C,L,,,,,,Block.xlsx,"你已经完成了第一个实验区组

请稍作休息


点击空格键进入下一个区组。",-1.5,0,-1.5,left,LLLLL.png,,,,,0,0,0,0,0,11,11,20,,,,,,,,,,,,,,,,,,,,,,,,,,,,,,,,,,,,,,,,,,,,,,,,,,,,,,,,,,,,,,,,343.19053939997684,343.5929701999994,343.57452389993705,343.67550319992006,344.07564649998676,None,left,1,0.4653583000181243,344.07564649998676,None,343.57452389993705,343.67550319992006,343.67550319992006,None,344.55906969995704,None,,,,,,,11019,001,2024_Jan_05_0935,ANT,2021.2.3,60.161666470511754,
1,3,no,up,IC,L,,,,,,Block.xlsx,"你已经完成了第一个实验区组

请稍作休息


点击空格键进入下一个区组。",50,0,1.5,left,RRLRR.png,,,,,0,0,0,0,0,12,12,2,,,,,,,,,,,,,,,,,,,,,,,,,,,,,,,,,,,,,,,,,,,,,,,,,,,,,,,,,,,,,,,,344.96046750003006,345.36156989994925,345.3435810999945,345.444495899952,345.84576589998323,None,left,1,0.9431117000058293,345.84576589998323,None,345.3435810999945,345.444495899952,345.444495899952,None,346.81255779997446,None,,,,,,,11019,001,2024_Jan_05_0935,ANT,2021.2.3,60.161666470511754,
1,6,no,down,C,R,,,,,,Block.xlsx,"你已经完成了第一个实验区组

请稍作休息


点击空格键进入下一个区组。",50,0,-1.5,right,RRRRR.png,,,,,0,0,0,0,0,13,13,5,,,,,,,,,,,,,,,,,,,,,,,,,,,,,,,,,,,,,,,,,,,,,,,,,,,,,,,,,,,,,,,,347.2139397999272,347.6157571999356,347.597065799986,347.6976758999517,348.09776139992755,None,right,1,0.6028258999576792,348.09776139992755,None,347.597065799986,347.6976758999517,347.6976758999517,None,348.7318635999691,None,,,,,,,11019,001,2024_Jan_05_0935,ANT,2021.2.3,60.161666470511754,
1,14,center,down,C,R,,,,,,Block.xlsx,"你已经完成了第一个实验区组

请稍作休息


点击空格键进入下一个区组。",0,50,-1.5,right,RRRRR.png,,,,,0,0,0,0,0,14,14,13,,,,,,,,,,,,,,,,,,,,,,,,,,,,,,,,,,,,,,,,,,,,,,,,,,,,,,,,,,,,,,,,349.1324277999811,349.5338638999965,349.51834459998645,349.617116099922,350.0192380999215,None,left,0,0.4339196999790147,350.0192380999215,None,349.51834459998645,349.617116099922,349.617116099922,None,350.4678066999186,None,,,,,,,11019,001,2024_Jan_05_0935,ANT,2021.2.3,60.161666470511754,
1,15,center,down,IC,L,,,,,,Block.xlsx,"你已经完成了第一个实验区组

请稍作休息


点击空格键进入下一个区组。",0,50,-1.5,left,RRLRR.png,,,,,0,0,0,0,0,15,15,14,,,,,,,,,,,,,,,,,,,,,,,,,,,,,,,,,,,,,,,,,,,,,,,,,,,,,,,,,,,,,,,,350.8686733000213,351.27041340002324,351.25238139997236,351.3542311999481,351.7539745999966,None,left,1,0.6987835000036284,351.7539745999966,None,351.25238139997236,351.3542311999481,351.3542311999481,None,352.470803199918,None,,,,,,,11019,001,2024_Jan_05_0935,ANT,2021.2.3,60.161666470511754,
1,6,no,down,C,R,,,,,,Block.xlsx,"你已经完成了第一个实验区组

请稍作休息


点击空格键进入下一个区组。",50,0,-1.5,right,RRRRR.png,,,,,0,0,0,0,0,16,16,5,,,,,,,,,,,,,,,,,,,,,,,,,,,,,,,,,,,,,,,,,,,,,,,,,,,,,,,,,,,,,,,,352.8718373000156,353.2733425999759,353.25547089998145,353.35615499992855,353.7564489999786,None,right,1,0.5521735000656918,353.7564489999786,None,353.25547089998145,353.35615499992855,353.35615499992855,None,354.32366909994744,None,,,,,,,11019,001,2024_Jan_05_0935,ANT,2021.2.3,60.161666470511754,
1,15,center,down,IC,L,,,,,,Block.xlsx,"你已经完成了第一个实验区组

请稍作休息


点击空格键进入下一个区组。",0,50,-1.5,left,RRLRR.png,,,,,0,0,0,0,0,17,17,14,,,,,,,,,,,,,,,,,,,,,,,,,,,,,,,,,,,,,,,,,,,,,,,,,,,,,,,,,,,,,,,,354.72419350000564,355.1272143999813,355.10895959998015,355.2087467999663,355.6094199999934,None,left,1,0.6592174000106752,355.6094199999934,None,355.10895959998015,355.2087467999663,355.2087467999663,None,356.2931347999256,None,,,,,,,11019,001,2024_Jan_05_0935,ANT,2021.2.3,60.161666470511754,
1,14,center,down,C,R,,,,,,Block.xlsx,"你已经完成了第一个实验区组

请稍作休息


点击空格键进入下一个区组。",0,50,-1.5,right,RRRRR.png,,,,,0,0,0,0,0,18,18,13,,,,,,,,,,,,,,,,,,,,,,,,,,,,,,,,,,,,,,,,,,,,,,,,,,,,,,,,,,,,,,,,356.6939919999568,357.0956583999796,357.07816649996676,357.17868479993194,357.57924230000935,None,right,1,0.5937231000280008,357.57924230000935,None,357.07816649996676,357.17868479993194,357.17868479993194,None,358.19602669996675,None,,,,,,,11019,001,2024_Jan_05_0935,ANT,2021.2.3,60.161666470511754,
1,13,center,down,C,L,,,,,,Block.xlsx,"你已经完成了第一个实验区组

请稍作休息


点击空格键进入下一个区组。",0,50,-1.5,left,LLLLL.png,,,,,0,0,0,0,0,19,19,12,,,,,,,,,,,,,,,,,,,,,,,,,,,,,,,,,,,,,,,,,,,,,,,,,,,,,,,,,,,,,,,,358.5965933999978,358.99930000002496,358.9810829999624,359.08115330000874,359.4811663000146,None,left,1,0.5474290000274777,359.4811663000146,None,358.9810829999624,359.08115330000874,359.08115330000874,None,360.04875449999236,None,,,,,,,11019,001,2024_Jan_05_0935,ANT,2021.2.3,60.161666470511754,
1,22,spatial,down,C,R,,,,,,Block.xlsx,"你已经完成了第一个实验区组

请稍作休息


点击空格键进入下一个区组。",-1.5,0,-1.5,right,RRRRR.png,,,,,0,0,0,0,0,20,20,21,,,,,,,,,,,,,,,,,,,,,,,,,,,,,,,,,,,,,,,,,,,,,,,,,,,,,,,,,,,,,,,,360.44934249995276,360.8500385999214,360.83341399999335,360.93505129998084,361.3341981000267,None,right,1,0.49446570000145584,361.3341981000267,None,360.83341399999335,360.93505129998084,360.93505129998084,None,361.8513230999233,None,,,,,,,11019,001,2024_Jan_05_0935,ANT,2021.2.3,60.161666470511754,
1,9,center,up,C,L,,,,,,Block.xlsx,"你已经完成了第一个实验区组

请稍作休息


点击空格键进入下一个区组。",0,50,1.5,left,LLLLL.png,,,,,0,0,0,0,0,21,21,8,,,,,,,,,,,,,,,,,,,,,,,,,,,,,,,,,,,,,,,,,,,,,,,,,,,,,,,,,,,,,,,,362.25241740001366,362.6534720999189,362.63682669994887,362.7358421999961,363.138348700013,None,left,1,0.5304347999626771,363.138348700013,None,362.63682669994887,362.7358421999961,362.7358421999961,None,363.6873767999932,None,,,,,,,11019,001,2024_Jan_05_0935,ANT,2021.2.3,60.161666470511754,
1,17,spatial,up,C,L,,,,,,Block.xlsx,"你已经完成了第一个实验区组

请稍作休息


点击空格键进入下一个区组。",1.5,0,1.5,left,LLLLL.png,,,,,0,0,0,0,0,22,22,16,,,,,,,,,,,,,,,,,,,,,,,,,,,,,,,,,,,,,,,,,,,,,,,,,,,,,,,,,,,,,,,,364.08808239991777,364.4888969999738,364.4737935999874,364.58973290002905,364.97303310001735,None,left,1,0.44802530005108565,364.97303310001735,None,364.4737935999874,364.58973290002905,364.57352320000064,None,365.43987010000274,None,,,,,,,11019,001,2024_Jan_05_0935,ANT,2021.2.3,60.161666470511754,
1,8,no,down,IC,R,,,,,,Block.xlsx,"你已经完成了第一个实验区组

请稍作休息


点击空格键进入下一个区组。",50,0,-1.5,right,LLRLL.png,,,,,0,0,0,0,0,23,23,7,,,,,,,,,,,,,,,,,,,,,,,,,,,,,,,,,,,,,,,,,,,,,,,,,,,,,,,,,,,,,,,,365.8417632000055,366.24171600001864,366.22463589999825,366.3269059000304,366.7258227999555,None,right,1,0.6389078999636695,366.7258227999555,None,366.22463589999825,366.3269059000304,366.3269059000304,None,367.39357539999764,None,,,,,,,11019,001,2024_Jan_05_0935,ANT,2021.2.3,60.161666470511754,
1,18,spatial,up,C,R,,,,,,Block.xlsx,"你已经完成了第一个实验区组

请稍作休息


点击空格键进入下一个区组。",1.5,0,1.5,right,RRRRR.png,,,,,0,0,0,0,1,0,24,17,,,,,,,,,,,,,,,,,,,,,,,,,,,,,,,,,,,,,,,,,,,,,,,,,,,,,,,,,,,,,,,,367.7936455999734,368.1940826999489,368.1792268999852,368.27771489997394,368.6792006000178,None,right,1,0.5900220000185072,368.6792006000178,None,368.1792268999852,368.27771489997394,368.27771489997394,None,369.2955906999996,None,,,,,,,11019,001,2024_Jan_05_0935,ANT,2021.2.3,60.161666470511754,
1,9,center,up,C,L,,,,,,Block.xlsx,"你已经完成了第一个实验区组

请稍作休息


点击空格键进入下一个区组。",0,50,1.5,left,LLLLL.png,,,,,0,0,0,0,1,1,25,8,,,,,,,,,,,,,,,,,,,,,,,,,,,,,,,,,,,,,,,,,,,,,,,,,,,,,,,,,,,,,,,,369.6963475999655,370.09863639995456,370.08063400001265,370.1808385999175,370.58175170002505,None,left,1,0.678967000101693,370.58175170002505,None,370.08063400001265,370.1808385999175,370.1808385999175,None,371.28211839997675,None,,,,,,,11019,001,2024_Jan_05_0935,ANT,2021.2.3,60.161666470511754,
1,6,no,down,C,R,,,,,,Block.xlsx,"你已经完成了第一个实验区组

请稍作休息


点击空格键进入下一个区组。",50,0,-1.5,right,RRRRR.png,,,,,0,0,0,0,1,2,26,5,,,,,,,,,,,,,,,,,,,,,,,,,,,,,,,,,,,,,,,,,,,,,,,,,,,,,,,,,,,,,,,,371.68262769992,372.0835009999573,372.0678912999574,372.166821599938,372.5679452000186,None,right,1,0.5566799000371248,372.5679452000186,None,372.0678912999574,372.166821599938,372.166821599938,None,373.15169209998567,None,,,,,,,11019,001,2024_Jan_05_0935,ANT,2021.2.3,60.161666470511754,
1,12,center,up,IC,R,,,,,,Block.xlsx,"你已经完成了第一个实验区组

请稍作休息


点击空格键进入下一个区组。",0,50,1.5,right,LLRLL.png,,,,,0,0,0,0,1,3,27,11,,,,,,,,,,,,,,,,,,,,,,,,,,,,,,,,,,,,,,,,,,,,,,,,,,,,,,,,,,,,,,,,373.5519866999239,373.9534900999861,373.93618289998267,374.0376546999905,374.4383106000023,None,right,1,0.5989239000482485,374.4383106000023,None,373.93618289998267,374.0376546999905,374.0376546999905,None,375.0543974000029,None,,,,,,,11019,001,2024_Jan_05_0935,ANT,2021.2.3,60.161666470511754,
1,11,center,up,IC,L,,,,,,Block.xlsx,"你已经完成了第一个实验区组

请稍作休息


点击空格键进入下一个区组。",0,50,1.5,left,RRLRR.png,,,,,0,0,0,0,1,4,28,10,,,,,,,,,,,,,,,,,,,,,,,,,,,,,,,,,,,,,,,,,,,,,,,,,,,,,,,,,,,,,,,,375.45570669998415,375.8576350000221,375.83894769998733,375.94167909992393,376.34008709993213,None,left,1,0.6486230000155047,376.34008709993213,None,375.83894769998733,375.94167909992393,375.94167909992393,None,377.0070020999992,None,,,,,,,11019,001,2024_Jan_05_0935,ANT,2021.2.3,60.161666470511754,
1,2,no,up,C,R,,,,,,Block.xlsx,"你已经完成了第一个实验区组

请稍作休息


点击空格键进入下一个区组。",50,0,1.5,right,RRRRR.png,,,,,0,0,0,0,1,5,29,1,,,,,,,,,,,,,,,,,,,,,,,,,,,,,,,,,,,,,,,,,,,,,,,,,,,,,,,,,,,,,,,,377.4081065999344,377.80934079992585,377.79170369997155,377.89307519991416,378.292500999989,None,right,1,0.5201116999378428,378.292500999989,None,377.79170369997155,377.89307519991416,377.89307519991416,None,378.84405409998726,None,,,,,,,11019,001,2024_Jan_05_0935,ANT,2021.2.3,60.161666470511754,
1,4,no,up,IC,R,,,,,,Block.xlsx,"你已经完成了第一个实验区组

请稍作休息


点击空格键进入下一个区组。",50,0,1.5,right,LLRLL.png,,,,,0,0,0,0,1,6,30,3,,,,,,,,,,,,,,,,,,,,,,,,,,,,,,,,,,,,,,,,,,,,,,,,,,,,,,,,,,,,,,,,379.2453563999152,379.6446819999255,379.62940420000814,379.72846739995293,380.13021400000434,None,right,1,0.5788629000307992,380.13021400000434,None,379.62940420000814,379.72846739995293,379.72846739995293,None,380.7294620999601,None,,,,,,,11019,001,2024_Jan_05_0935,ANT,2021.2.3,60.161666470511754,
1,24,spatial,down,IC,R,,,,,,Block.xlsx,"你已经完成了第一个实验区组

请稍作休息


点击空格键进入下一个区组。",-1.5,0,-1.5,right,LLRLL.png,,,,,0,0,0,0,1,7,31,23,,,,,,,,,,,,,,,,,,,,,,,,,,,,,,,,,,,,,,,,,,,,,,,,,,,,,,,,,,,,,,,,381.1303978000069,381.530724799959,381.51622440002393,381.63293399999384,382.01521059998777,None,right,1,0.5822422000346705,382.01521059998777,None,381.51622440002393,381.63293399999384,381.61459240003023,None,382.61575200001244,None,,,,,,,11019,001,2024_Jan_05_0935,ANT,2021.2.3,60.161666470511754,
1,6,no,down,C,R,,,,,,Block.xlsx,"你已经完成了第一个实验区组

请稍作休息


点击空格键进入下一个区组。",50,0,-1.5,right,RRRRR.png,,,,,0,0,0,0,1,8,32,5,,,,,,,,,,,,,,,,,,,,,,,,,,,,,,,,,,,,,,,,,,,,,,,,,,,,,,,,,,,,,,,,383.0168878999539,383.41673679999076,383.4002353999531,383.5001232000068,383.9017674999777,None,right,1,0.5269552000099793,383.9017674999777,None,383.4002353999531,383.5001232000068,383.5001232000068,None,384.45167470001616,None,,,,,,,11019,001,2024_Jan_05_0935,ANT,2021.2.3,60.161666470511754,
1,20,spatial,up,IC,R,,,,,,Block.xlsx,"你已经完成了第一个实验区组

请稍作休息


点击空格键进入下一个区组。",1.5,0,1.5,right,LLRLL.png,,,,,0,0,0,0,1,9,33,19,,,,,,,,,,,,,,,,,,,,,,,,,,,,,,,,,,,,,,,,,,,,,,,,,,,,,,,,,,,,,,,,384.8521042999346,385.2534146999242,385.23624719993677,385.33628329995554,385.7368620999623,None,right,1,0.5717839000280946,385.7368620999623,None,385.23624719993677,385.33628329995554,385.33628329995554,None,386.3377774999244,None,,,,,,,11019,001,2024_Jan_05_0935,ANT,2021.2.3,60.161666470511754,
1,16,center,down,IC,R,,,,,,Block.xlsx,"你已经完成了第一个实验区组

请稍作休息


点击空格键进入下一个区组。",0,50,-1.5,right,LLRLL.png,,,,,0,0,0,0,1,10,34,15,,,,,,,,,,,,,,,,,,,,,,,,,,,,,,,,,,,,,,,,,,,,,,,,,,,,,,,,,,,,,,,,386.73909889999777,387.1398099999642,387.1221216999693,387.22367500001565,387.6228266999824,None,right,1,1.0300164999207482,387.6228266999824,None,387.1221216999693,387.22367500001565,387.22367500001565,None,388.67486679996364,None,,,,,,,11019,001,2024_Jan_05_0935,ANT,2021.2.3,60.161666470511754,
1,9,center,up,C,L,,,,,,Block.xlsx,"你已经完成了第一个实验区组

请稍作休息


点击空格键进入下一个区组。",0,50,1.5,left,LLLLL.png,,,,,0,0,0,0,1,11,35,8,,,,,,,,,,,,,,,,,,,,,,,,,,,,,,,,,,,,,,,,,,,,,,,,,,,,,,,,,,,,,,,,389.075029599946,389.4758227999555,389.45885429996997,389.56010689993855,389.96062319993507,None,left,1,0.580607800045982,389.96062319993507,None,389.45885429996997,389.56010689993855,389.56010689993855,None,390.56100370001514,None,,,,,,,11019,001,2024_Jan_05_0935,ANT,2021.2.3,60.161666470511754,
1,21,spatial,down,C,L,,,,,,Block.xlsx,"你已经完成了第一个实验区组

请稍作休息


点击空格键进入下一个区组。",-1.5,0,-1.5,left,LLLLL.png,,,,,0,0,0,0,1,12,36,20,,,,,,,,,,,,,,,,,,,,,,,,,,,,,,,,,,,,,,,,,,,,,,,,,,,,,,,,,,,,,,,,390.9612275999971,391.3624767999863,391.3462318999227,391.44610920001287,391.84750479995273,None,left,1,0.45334869995713234,391.84750479995273,None,391.3462318999227,391.44610920001287,391.44610920001287,None,392.32993929996155,None,,,,,,,11019,001,2024_Jan_05_0935,ANT,2021.2.3,60.161666470511754,
1,12,center,up,IC,R,,,,,,Block.xlsx,"你已经完成了第一个实验区组

请稍作休息


点击空格键进入下一个区组。",0,50,1.5,right,LLRLL.png,,,,,0,0,0,0,1,13,37,11,,,,,,,,,,,,,,,,,,,,,,,,,,,,,,,,,,,,,,,,,,,,,,,,,,,,,,,,,,,,,,,,392.7308836999582,393.13251819997095,393.11444619996473,393.21481199993286,393.6158461999148,None,right,1,0.5729576000012457,393.6158461999148,None,393.11444619996473,393.21481199993286,393.21481199993286,None,394.21608959999867,None,,,,,,,11019,001,2024_Jan_05_0935,ANT,2021.2.3,60.161666470511754,
1,1,no,up,C,L,,,,,,Block.xlsx,"你已经完成了第一个实验区组

请稍作休息


点击空格键进入下一个区组。",50,0,1.5,left,LLLLL.png,,,,,0,0,0,0,1,14,38,0,,,,,,,,,,,,,,,,,,,,,,,,,,,,,,,,,,,,,,,,,,,,,,,,,,,,,,,,,,,,,,,,394.6165233999491,395.01870419993065,395.0012829999905,395.103139200015,395.50212239997927,None,left,1,0.7426184000214562,395.50212239997927,None,395.0012829999905,395.103139200015,395.103139200015,None,396.26907859998755,None,,,,,,,11019,001,2024_Jan_05_0935,ANT,2021.2.3,60.161666470511754,
1,18,spatial,up,C,R,,,,,,Block.xlsx,"你已经完成了第一个实验区组

请稍作休息


点击空格键进入下一个区组。",1.5,0,1.5,right,RRRRR.png,,,,,0,0,0,0,1,15,39,17,,,,,,,,,,,,,,,,,,,,,,,,,,,,,,,,,,,,,,,,,,,,,,,,,,,,,,,,,,,,,,,,396.66966529993806,397.07100180001,397.0538753999863,397.155222899979,397.5544361999491,None,right,1,0.6985793999629095,397.5544361999491,None,397.0538753999863,397.155222899979,397.155222899979,None,398.27179159992374,None,,,,,,,11019,001,2024_Jan_05_0935,ANT,2021.2.3,60.161666470511754,
1,2,no,up,C,R,,,,,,Block.xlsx,"你已经完成了第一个实验区组

请稍作休息


点击空格键进入下一个区组。",50,0,1.5,right,RRRRR.png,,,,,0,0,0,0,1,16,40,1,,,,,,,,,,,,,,,,,,,,,,,,,,,,,,,,,,,,,,,,,,,,,,,,,,,,,,,,,,,,,,,,398.67331390001345,399.0751303000143,399.0574156999355,399.15861229994334,399.5580052000005,None,right,1,0.5267739000264555,399.5580052000005,None,399.0574156999355,399.15861229994334,399.15861229994334,None,400.10793129995,None,,,,,,,11019,001,2024_Jan_05_0935,ANT,2021.2.3,60.161666470511754,
1,10,center,up,C,R,,,,,,Block.xlsx,"你已经完成了第一个实验区组

请稍作休息


点击空格键进入下一个区组。",0,50,1.5,right,RRRRR.png,,,,,0,0,0,0,1,17,41,9,,,,,,,,,,,,,,,,,,,,,,,,,,,,,,,,,,,,,,,,,,,,,,,,,,,,,,,,,,,,,,,,400.50899110001046,400.9099143999629,400.89414789993316,400.9928503999254,401.3946511999238,None,right,1,0.45808220002800226,401.3946511999238,None,400.89414789993316,400.9928503999254,400.9928503999254,None,401.87785489996895,None,,,,,,,11019,001,2024_Jan_05_0935,ANT,2021.2.3,60.161666470511754,
1,8,no,down,IC,R,,,,,,Block.xlsx,"你已经完成了第一个实验区组

请稍作休息


点击空格键进入下一个区组。",50,0,-1.5,right,LLRLL.png,,,,,0,0,0,0,1,18,42,7,,,,,,,,,,,,,,,,,,,,,,,,,,,,,,,,,,,,,,,,,,,,,,,,,,,,,,,,,,,,,,,,402.2780189999612,402.6794533999637,402.66169530001935,402.7627302999608,403.1640274999663,None,right,1,0.8012829999206588,403.1640274999663,None,402.66169530001935,402.7627302999608,402.7627302999608,None,403.98036669997964,None,,,,,,,11019,001,2024_Jan_05_0935,ANT,2021.2.3,60.161666470511754,
1,5,no,down,C,L,,,,,,Block.xlsx,"你已经完成了第一个实验区组

请稍作休息


点击空格键进入下一个区组。",50,0,-1.5,left,LLLLL.png,,,,,0,0,0,0,1,19,43,4,,,,,,,,,,,,,,,,,,,,,,,,,,,,,,,,,,,,,,,,,,,,,,,,,,,,,,,,,,,,,,,,404.3813068999443,404.7821700000204,404.7664424999384,404.86634159996174,405.26581609994173,None,left,1,0.6028999000554904,405.26581609994173,None,404.7664424999384,404.86634159996174,404.86634159996174,None,405.9014552999288,None,,,,,,,11019,001,2024_Jan_05_0935,ANT,2021.2.3,60.161666470511754,
1,5,no,down,C,L,,,,,,Block.xlsx,"你已经完成了第一个实验区组

请稍作休息


点击空格键进入下一个区组。",50,0,-1.5,left,LLLLL.png,,,,,0,0,0,0,1,20,44,4,,,,,,,,,,,,,,,,,,,,,,,,,,,,,,,,,,,,,,,,,,,,,,,,,,,,,,,,,,,,,,,,406.30062789993826,406.7018970999634,406.68499999993946,406.7848608000204,407.1854707999155,None,left,1,0.5319345999741927,407.1854707999155,None,406.68499999993946,406.7848608000204,406.7848608000204,None,407.73612819996197,None,,,,,,,11019,001,2024_Jan_05_0935,ANT,2021.2.3,60.161666470511754,
1,20,spatial,up,IC,R,,,,,,Block.xlsx,"你已经完成了第一个实验区组

请稍作休息


点击空格键进入下一个区组。",1.5,0,1.5,right,LLRLL.png,,,,,0,0,0,0,1,21,45,19,,,,,,,,,,,,,,,,,,,,,,,,,,,,,,,,,,,,,,,,,,,,,,,,,,,,,,,,,,,,,,,,408.137815700029,408.5371859000297,408.5209746999899,408.6211451999843,409.02131380001083,None,right,1,0.5437039999524131,409.02131380001083,None,408.5209746999899,408.6211451999843,408.6211451999843,None,409.5888064999599,None,,,,,,,11019,001,2024_Jan_05_0935,ANT,2021.2.3,60.161666470511754,
1,15,center,down,IC,L,,,,,,Block.xlsx,"你已经完成了第一个实验区组

请稍作休息


点击空格键进入下一个区组。",0,50,-1.5,left,RRLRR.png,,,,,0,0,0,0,1,22,46,14,,,,,,,,,,,,,,,,,,,,,,,,,,,,,,,,,,,,,,,,,,,,,,,,,,,,,,,,,,,,,,,,409.9899963999633,410.39095889998134,410.3729115999304,410.4741931000026,410.87410749995615,None,left,1,0.6669219000032172,410.87410749995615,None,410.3729115999304,410.4741931000026,410.4741931000026,None,411.55849690001924,None,,,,,,,11019,001,2024_Jan_05_0935,ANT,2021.2.3,60.161666470511754,
1,23,spatial,down,IC,L,,,,,,Block.xlsx,"你已经完成了第一个实验区组

请稍作休息


点击空格键进入下一个区组。",-1.5,0,-1.5,left,RRLRR.png,,,,,0,0,0,0,1,23,47,22,,,,,,,,,,,,,,,,,,,,,,,,,,,,,,,,,,,,,,,,,,,,,,,,,,,,,,,,,,,,,,,,411.9589858999243,412.3596481999848,412.3449623999186,412.44438380002975,412.84513819997665,None,left,1,0.5035612001083791,412.84513819997665,None,412.3449623999186,412.44438380002975,412.44438380002975,None,413.3780744000105,None,,,,,,,11019,001,2024_Jan_05_0935,ANT,2021.2.3,60.161666470511754,
1,24,spatial,down,IC,R,,,,,,Block.xlsx,"你已经完成了第一个实验区组

请稍作休息


点击空格键进入下一个区组。",-1.5,0,-1.5,right,LLRLL.png,,,,,0,0,0,0,2,0,48,23,,,,,,,,,,,,,,,,,,,,,,,,,,,,,,,,,,,,,,,,,,,,,,,,,,,,,,,,,,,,,,,,413.7783729999792,414.17899659997784,414.1631749999942,414.26371309999377,414.6638677000301,None,right,1,0.5568262001033872,414.6638677000301,None,414.1631749999942,414.26371309999377,414.26371309999377,None,415.24717899993993,None,,,,,,,11019,001,2024_Jan_05_0935,ANT,2021.2.3,60.161666470511754,
1,17,spatial,up,C,L,,,,,,Block.xlsx,"你已经完成了第一个实验区组

请稍作休息


点击空格键进入下一个区组。",1.5,0,1.5,left,LLLLL.png,,,,,0,0,0,0,2,1,49,16,,,,,,,,,,,,,,,,,,,,,,,,,,,,,,,,,,,,,,,,,,,,,,,,,,,,,,,,,,,,,,,,415.64792899996974,416.0490379999392,416.0324331999291,416.13235979992896,416.53275210002903,None,left,1,0.4882581999991089,416.53275210002903,None,416.0324331999291,416.13235979992896,416.13235979992896,None,417.04995859996416,None,,,,,,,11019,001,2024_Jan_05_0935,ANT,2021.2.3,60.161666470511754,
1,18,spatial,up,C,R,,,,,,Block.xlsx,"你已经完成了第一个实验区组

请稍作休息


点击空格键进入下一个区组。",1.5,0,1.5,right,RRRRR.png,,,,,0,0,0,0,2,2,50,17,,,,,,,,,,,,,,,,,,,,,,,,,,,,,,,,,,,,,,,,,,,,,,,,,,,,,,,,,,,,,,,,417.45054529991467,417.8520077000139,417.83442640001886,417.9345815000124,418.33554689993616,None,right,1,0.4932961000595242,418.33554689993616,None,417.83442640001886,417.9345815000124,417.9345815000124,None,418.85247539996635,None,,,,,,,11019,001,2024_Jan_05_0935,ANT,2021.2.3,60.161666470511754,
1,11,center,up,IC,L,,,,,,Block.xlsx,"你已经完成了第一个实验区组

请稍作休息


点击空格键进入下一个区组。",0,50,1.5,left,RRLRR.png,,,,,0,0,0,0,2,3,51,10,,,,,,,,,,,,,,,,,,,,,,,,,,,,,,,,,,,,,,,,,,,,,,,,,,,,,,,,,,,,,,,,419.25351930002216,419.65422559995204,419.63791679998394,419.738923399942,420.13895109994337,None,left,1,0.5379021000117064,420.13895109994337,None,419.63791679998394,419.738923399942,419.738923399942,None,420.7052623999771,None,,,,,,,11019,001,2024_Jan_05_0935,ANT,2021.2.3,60.161666470511754,
1,4,no,up,IC,R,,,,,,Block.xlsx,"你已经完成了第一个实验区组

请稍作休息


点击空格键进入下一个区组。",50,0,1.5,right,LLRLL.png,,,,,0,0,0,0,2,4,52,3,,,,,,,,,,,,,,,,,,,,,,,,,,,,,,,,,,,,,,,,,,,,,,,,,,,,,,,,,,,,,,,,421.1059639999876,421.5065632999176,421.49004119995516,421.59092250000685,421.99059830000624,None,right,1,0.5022112999577075,421.99059830000624,None,421.49004119995516,421.59092250000685,421.59092250000685,None,422.52471749996766,None,,,,,,,11019,001,2024_Jan_05_0935,ANT,2021.2.3,60.161666470511754,
1,7,no,down,IC,L,,,,,,Block.xlsx,"你已经完成了第一个实验区组

请稍作休息


点击空格键进入下一个区组。",50,0,-1.5,left,RRLRR.png,,,,,0,0,0,0,2,5,53,6,,,,,,,,,,,,,,,,,,,,,,,,,,,,,,,,,,,,,,,,,,,,,,,,,,,,,,,,,,,,,,,,422.9252169999527,423.32691089995205,423.30914679996204,423.410090600024,423.81004120002035,None,left,1,0.6347449000459164,423.81004120002035,None,423.30914679996204,423.410090600024,423.410090600024,None,424.4612377999583,None,,,,,,,11019,001,2024_Jan_05_0935,ANT,2021.2.3,60.161666470511754,
1,22,spatial,down,C,R,,,,,,Block.xlsx,"你已经完成了第一个实验区组

请稍作休息


点击空格键进入下一个区组。",-1.5,0,-1.5,right,RRRRR.png,,,,,0,0,0,0,2,6,54,21,,,,,,,,,,,,,,,,,,,,,,,,,,,,,,,,,,,,,,,,,,,,,,,,,,,,,,,,,,,,,,,,424.86148189997766,425.2637484000297,425.24575649993494,425.3466225999873,425.74625889991876,None,right,1,0.5144034000113606,425.74625889991876,None,425.24575649993494,425.3466225999873,425.3466225999873,None,426.280237799976,None,,,,,,,11019,001,2024_Jan_05_0935,ANT,2021.2.3,60.161666470511754,
1,23,spatial,down,IC,L,,,,,,Block.xlsx,"你已经完成了第一个实验区组

请稍作休息


点击空格键进入下一个区组。",-1.5,0,-1.5,left,RRLRR.png,,,,,0,0,0,0,2,7,55,22,,,,,,,,,,,,,,,,,,,,,,,,,,,,,,,,,,,,,,,,,,,,,,,,,,,,,,,,,,,,,,,,426.68070829997305,427.08162489999086,427.06551430001855,427.16536869993433,427.56594010000117,None,left,1,0.5833170999540016,427.56594010000117,None,427.06551430001855,427.16536869993433,427.16536869993433,None,428.1662585999584,None,,,,,,,11019,001,2024_Jan_05_0935,ANT,2021.2.3,60.161666470511754,
1,13,center,down,C,L,,,,,,Block.xlsx,"你已经完成了第一个实验区组

请稍作休息


点击空格键进入下一个区组。",0,50,-1.5,left,LLLLL.png,,,,,0,0,0,0,2,8,56,12,,,,,,,,,,,,,,,,,,,,,,,,,,,,,,,,,,,,,,,,,,,,,,,,,,,,,,,,,,,,,,,,428.56707420002203,428.96898399991915,428.9508520999225,429.05296809994616,429.4526194999926,None,left,1,0.45624379999935627,429.4526194999926,None,428.9508520999225,429.05296809994616,429.05296809994616,None,429.93572079995647,None,,,,,,,11019,001,2024_Jan_05_0935,ANT,2021.2.3,60.161666470511754,
1,15,center,down,IC,L,,,,,,Block.xlsx,"你已经完成了第一个实验区组

请稍作休息


点击空格键进入下一个区组。",0,50,-1.5,left,RRLRR.png,,,,,0,0,0,0,2,9,57,14,,,,,,,,,,,,,,,,,,,,,,,,,,,,,,,,,,,,,,,,,,,,,,,,,,,,,,,,,,,,,,,,430.3363340999931,430.73679889994673,430.72039869998116,430.8219936999958,431.22121480002534,None,left,1,0.5275411000475287,431.22121480002534,None,430.72039869998116,430.8219936999958,430.8219936999958,None,431.7717258000048,None,,,,,,,11019,001,2024_Jan_05_0935,ANT,2021.2.3,60.161666470511754,
1,17,spatial,up,C,L,,,,,,Block.xlsx,"你已经完成了第一个实验区组

请稍作休息


点击空格键进入下一个区组。",1.5,0,1.5,left,LLLLL.png,,,,,0,0,0,0,2,10,58,16,,,,,,,,,,,,,,,,,,,,,,,,,,,,,,,,,,,,,,,,,,,,,,,,,,,,,,,,,,,,,,,,432.1722262999974,432.57309439999517,432.5567860000301,432.6577388999285,433.0581970999483,None,left,1,0.45046319998800755,433.0581970999483,None,432.5567860000301,432.6577388999285,432.6577388999285,None,433.52436539996415,None,,,,,,,11019,001,2024_Jan_05_0935,ANT,2021.2.3,60.161666470511754,
1,3,no,up,IC,L,,,,,,Block.xlsx,"你已经完成了第一个实验区组

请稍作休息


点击空格键进入下一个区组。",50,0,1.5,left,RRLRR.png,,,,,0,0,0,0,2,11,59,2,,,,,,,,,,,,,,,,,,,,,,,,,,,,,,,,,,,,,,,,,,,,,,,,,,,,,,,,,,,,,,,,433.92480649997015,434.32626489992253,434.3087957999669,434.40840640000533,434.8100040999707,None,left,1,0.5230391999939457,434.8100040999707,None,434.3087957999669,434.40840640000533,434.40840640000533,None,435.36016809998546,None,,,,,,,11019,001,2024_Jan_05_0935,ANT,2021.2.3,60.161666470511754,
1,1,no,up,C,L,,,,,,Block.xlsx,"你已经完成了第一个实验区组

请稍作休息


点击空格键进入下一个区组。",50,0,1.5,left,LLLLL.png,,,,,0,0,0,0,2,12,60,0,,,,,,,,,,,,,,,,,,,,,,,,,,,,,,,,,,,,,,,,,,,,,,,,,,,,,,,,,,,,,,,,435.76097399997525,436.16194289992563,436.14545189996716,436.2447585000191,436.64567829994485,None,left,1,0.4474458999466151,436.64567829994485,None,436.14545189996716,436.2447585000191,436.2447585000191,None,437.1129331999691,None,,,,,,,11019,001,2024_Jan_05_0935,ANT,2021.2.3,60.161666470511754,
1,3,no,up,IC,L,,,,,,Block.xlsx,"你已经完成了第一个实验区组

请稍作休息


点击空格键进入下一个区组。",50,0,1.5,left,RRLRR.png,,,,,0,0,0,0,2,13,61,2,,,,,,,,,,,,,,,,,,,,,,,,,,,,,,,,,,,,,,,,,,,,,,,,,,,,,,,,,,,,,,,,437.5134379999945,437.91593609994743,437.89724700001534,437.9977515999926,438.3990338000003,None,left,1,0.46283189998939633,438.3990338000003,None,437.89724700001534,437.9977515999926,437.9977515999926,None,438.8821872000117,None,,,,,,,11019,001,2024_Jan_05_0935,ANT,2021.2.3,60.161666470511754,
1,9,center,up,C,L,,,,,,Block.xlsx,"你已经完成了第一个实验区组

请稍作休息


点击空格键进入下一个区组。",0,50,1.5,left,LLLLL.png,,,,,0,0,0,0,2,14,62,8,,,,,,,,,,,,,,,,,,,,,,,,,,,,,,,,,,,,,,,,,,,,,,,,,,,,,,,,,,,,,,,,439.2828935999423,439.6846266000066,439.6668217999395,439.76865919993725,440.16769589995965,None,left,1,0.3891869999933988,440.16769589995965,None,439.6668217999395,439.76865919993725,439.76865919993725,None,440.58549029997084,None,,,,,,,11019,001,2024_Jan_05_0935,ANT,2021.2.3,60.161666470511754,
1,16,center,down,IC,R,,,,,,Block.xlsx,"你已经完成了第一个实验区组

请稍作休息


点击空格键进入下一个区组。",0,50,-1.5,right,LLRLL.png,,,,,0,0,0,0,2,15,63,15,,,,,,,,,,,,,,,,,,,,,,,,,,,,,,,,,,,,,,,,,,,,,,,,,,,,,,,,,,,,,,,,440.9855406000279,441.3872931000078,441.36933689995203,441.46952399995644,441.8701564000221,None,right,1,0.7746448999969289,441.8701564000221,None,441.36933689995203,441.46952399995644,441.46952399995644,None,442.6710783999879,None,,,,,,,11019,001,2024_Jan_05_0935,ANT,2021.2.3,60.161666470511754,
1,20,spatial,up,IC,R,,,,,,Block.xlsx,"你已经完成了第一个实验区组

请稍作休息


点击空格键进入下一个区组。",1.5,0,1.5,right,LLRLL.png,,,,,0,0,0,0,2,16,64,19,,,,,,,,,,,,,,,,,,,,,,,,,,,,,,,,,,,,,,,,,,,,,,,,,,,,,,,,,,,,,,,,443.0719571999507,443.47339089994784,443.4556844999315,443.5569905999582,443.9573295000009,None,right,1,0.5677219000644982,443.9573295000009,None,443.4556844999315,443.5569905999582,443.5569905999582,None,444.5408302999567,None,,,,,,,11019,001,2024_Jan_05_0935,ANT,2021.2.3,60.161666470511754,
1,11,center,up,IC,L,,,,,,Block.xlsx,"你已经完成了第一个实验区组

请稍作休息


点击空格键进入下一个区组。",0,50,1.5,left,RRLRR.png,,,,,0,0,0,0,2,17,65,10,,,,,,,,,,,,,,,,,,,,,,,,,,,,,,,,,,,,,,,,,,,,,,,,,,,,,,,,,,,,,,,,444.9411971999798,445.3431052999804,445.32506980001926,445.4262580999639,445.82587960001547,None,left,1,0.5231989999301732,445.82587960001547,None,445.32506980001926,445.4262580999639,445.4262580999639,None,446.3765709999716,None,,,,,,,11019,001,2024_Jan_05_0935,ANT,2021.2.3,60.161666470511754,
1,4,no,up,IC,R,,,,,,Block.xlsx,"你已经完成了第一个实验区组

请稍作休息


点击空格键进入下一个区组。",50,0,1.5,right,LLRLL.png,,,,,0,0,0,0,2,18,66,3,,,,,,,,,,,,,,,,,,,,,,,,,,,,,,,,,,,,,,,,,,,,,,,,,,,,,,,,,,,,,,,,446.7777121999534,447.1780532000121,447.16186089999974,447.2630004999228,447.6617894999217,None,right,1,0.5029483999824151,447.6617894999217,None,447.16186089999974,447.2630004999228,447.2630004999228,None,448.1961048999801,None,,,,,,,11019,001,2024_Jan_05_0935,ANT,2021.2.3,60.161666470511754,
1,19,spatial,up,IC,L,,,,,,Block.xlsx,"你已经完成了第一个实验区组

请稍作休息


点击空格键进入下一个区组。",1.5,0,1.5,left,RRLRR.png,,,,,0,0,0,0,2,19,67,18,,,,,,,,,,,,,,,,,,,,,,,,,,,,,,,,,,,,,,,,,,,,,,,,,,,,,,,,,,,,,,,,448.5966316999402,448.9978589999955,448.9811737999553,449.0809287999291,449.48185739992186,None,left,1,0.5391754999291152,449.48185739992186,None,448.9811737999553,449.0809287999291,449.0809287999291,None,450.05014800000936,None,,,,,,,11019,001,2024_Jan_05_0935,ANT,2021.2.3,60.161666470511754,
1,1,no,up,C,L,,,,,,Block.xlsx,"你已经完成了第一个实验区组

请稍作休息


点击空格键进入下一个区组。",50,0,1.5,left,LLLLL.png,,,,,0,0,0,0,2,20,68,0,,,,,,,,,,,,,,,,,,,,,,,,,,,,,,,,,,,,,,,,,,,,,,,,,,,,,,,,,,,,,,,,450.4493399999337,450.8514553999994,450.8337944999803,450.93350309995003,451.33387450000737,None,left,1,0.4232043999945745,451.33387450000737,None,450.8337944999803,450.93350309995003,450.93350309995003,None,451.78581299993675,None,,,,,,,11019,001,2024_Jan_05_0935,ANT,2021.2.3,60.161666470511754,
1,22,spatial,down,C,R,,,,,,Block.xlsx,"你已经完成了第一个实验区组

请稍作休息


点击空格键进入下一个区组。",-1.5,0,-1.5,right,RRRRR.png,,,,,0,0,0,0,2,21,69,21,,,,,,,,,,,,,,,,,,,,,,,,,,,,,,,,,,,,,,,,,,,,,,,,,,,,,,,,,,,,,,,,452.18535319995135,452.5868417000165,452.5700612999499,452.67193800001405,453.06997089996,None,left,0,0.3997016000794247,453.06997089996,None,452.5700612999499,452.67193800001405,452.67193800001405,None,453.48713619995397,None,,,,,,,11019,001,2024_Jan_05_0935,ANT,2021.2.3,60.161666470511754,
1,1,no,up,C,L,,,,,,Block.xlsx,"你已经完成了第一个实验区组

请稍作休息


点击空格键进入下一个区组。",50,0,1.5,left,LLLLL.png,,,,,0,0,0,0,2,22,70,0,,,,,,,,,,,,,,,,,,,,,,,,,,,,,,,,,,,,,,,,,,,,,,,,,,,,,,,,,,,,,,,,453.888027900015,454.2894482000265,454.2718747999752,454.3732553999871,454.77239699999336,None,left,1,0.5603506000479683,454.77239699999336,None,454.2718747999752,454.3732553999871,454.3732553999871,None,455.35666649998166,None,,,,,,,11019,001,2024_Jan_05_0935,ANT,2021.2.3,60.161666470511754,
1,17,spatial,up,C,L,,,,,,Block.xlsx,"你已经完成了第一个实验区组

请稍作休息


点击空格键进入下一个区组。",1.5,0,1.5,left,LLLLL.png,,,,,0,0,0,0,2,23,71,16,,,,,,,,,,,,,,,,,,,,,,,,,,,,,,,,,,,,,,,,,,,,,,,,,,,,,,,,,,,,,,,,455.7573037999682,456.1581539999461,456.14274509996176,456.25793319998775,456.64210890000686,None,left,1,0.4670649999752641,456.64210890000686,None,456.14274509996176,456.25793319998775,456.24270609999076,None,457.1259785000002,None,,,,,,,11019,001,2024_Jan_05_0935,ANT,2021.2.3,60.161666470511754,
1,8,no,down,IC,R,,,,,,Block.xlsx,"你已经完成了第一个实验区组

请稍作休息


点击空格键进入下一个区组。",50,0,-1.5,right,LLRLL.png,,,,,0,0,0,0,3,0,72,7,,,,,,,,,,,,,,,,,,,,,,,,,,,,,,,,,,,,,,,,,,,,,,,,,,,,,,,,,,,,,,,,457.5278145999182,457.92742840002757,457.9118167000124,458.01142669992987,458.4110933999764,None,right,1,0.6976671000011265,458.4110933999764,None,457.9118167000124,458.01142669992987,458.01142669992987,None,459.1292334999889,None,,,,,,,11019,001,2024_Jan_05_0935,ANT,2021.2.3,60.161666470511754,
1,13,center,down,C,L,,,,,,Block.xlsx,"你已经完成了第一个实验区组

请稍作休息


点击空格键进入下一个区组。",0,50,-1.5,left,LLLLL.png,,,,,0,0,0,0,3,1,73,12,,,,,,,,,,,,,,,,,,,,,,,,,,,,,,,,,,,,,,,,,,,,,,,,,,,,,,,,,,,,,,,,459.53014099993743,459.9300554000074,459.9145014999667,460.015321200015,460.41501449991483,None,left,1,0.6618367999326438,460.41501449991483,None,459.9145014999667,460.015321200015,460.015321200015,None,461.0984202999389,None,,,,,,,11019,001,2024_Jan_05_0935,ANT,2021.2.3,60.161666470511754,
1,5,no,down,C,L,,,,,,Block.xlsx,"你已经完成了第一个实验区组

请稍作休息


点击空格键进入下一个区组。",50,0,-1.5,left,LLLLL.png,,,,,0,0,0,0,3,2,74,4,,,,,,,,,,,,,,,,,,,,,,,,,,,,,,,,,,,,,,,,,,,,,,,,,,,,,,,,,,,,,,,,461.4999370999867,461.9011214999482,461.883405999979,461.9849263000069,462.3837381999474,None,left,1,0.4930380000732839,462.3837381999474,None,461.883405999979,461.9849263000069,461.9849263000069,None,462.90122769994196,None,,,,,,,11019,001,2024_Jan_05_0935,ANT,2021.2.3,60.161666470511754,
1,23,spatial,down,IC,L,,,,,,Block.xlsx,"你已经完成了第一个实验区组

请稍作休息


点击空格键进入下一个区组。",-1.5,0,-1.5,left,RRLRR.png,,,,,0,0,0,0,3,3,75,22,,,,,,,,,,,,,,,,,,,,,,,,,,,,,,,,,,,,,,,,,,,,,,,,,,,,,,,,,,,,,,,,463.3017143999459,463.70250140002463,463.6863023999613,463.7858535000123,464.1878529000096,None,left,1,0.537313700071536,464.1878529000096,None,463.6863023999613,463.7858535000123,463.7858535000123,None,464.7539785000263,None,,,,,,,11019,001,2024_Jan_05_0935,ANT,2021.2.3,60.161666470511754,
1,7,no,down,IC,L,,,,,,Block.xlsx,"你已经完成了第一个实验区组

请稍作休息


点击空格键进入下一个区组。",50,0,-1.5,left,RRLRR.png,,,,,0,0,0,0,3,4,76,6,,,,,,,,,,,,,,,,,,,,,,,,,,,,,,,,,,,,,,,,,,,,,,,,,,,,,,,,,,,,,,,,465.15450449998025,465.5562724999618,465.5391842999961,465.6391146000242,466.0396597000072,None,left,1,0.5570432000095025,466.0396597000072,None,465.5391842999961,465.6391146000242,465.6391146000242,None,466.62358619994484,None,,,,,,,11019,001,2024_Jan_05_0935,ANT,2021.2.3,60.161666470511754,
1,18,spatial,up,C,R,,,,,,Block.xlsx,"你已经完成了第一个实验区组

请稍作休息


点击空格键进入下一个区组。",1.5,0,1.5,right,RRRRR.png,,,,,0,0,0,0,3,5,77,17,,,,,,,,,,,,,,,,,,,,,,,,,,,,,,,,,,,,,,,,,,,,,,,,,,,,,,,,,,,,,,,,467.0242428999627,467.42475709994324,467.40916749997996,467.508018399938,467.9096723999828,None,right,1,0.5510621001012623,467.9096723999828,None,467.40916749997996,467.508018399938,467.508018399938,None,468.4763852999313,None,,,,,,,11019,001,2024_Jan_05_0935,ANT,2021.2.3,60.161666470511754,
1,13,center,down,C,L,,,,,,Block.xlsx,"你已经完成了第一个实验区组

请稍作休息


点击空格键进入下一个区组。",0,50,-1.5,left,LLLLL.png,,,,,0,0,0,0,3,6,78,12,,,,,,,,,,,,,,,,,,,,,,,,,,,,,,,,,,,,,,,,,,,,,,,,,,,,,,,,,,,,,,,,468.8771194999572,469.27915519999806,469.260494499933,469.3626736999722,469.76205419993494,None,left,1,0.4909623999847099,469.76205419993494,None,469.260494499933,469.3626736999722,469.3626736999722,None,470.27872619999107,None,,,,,,,11019,001,2024_Jan_05_0935,ANT,2021.2.3,60.161666470511754,
1,24,spatial,down,IC,R,,,,,,Block.xlsx,"你已经完成了第一个实验区组

请稍作休息


点击空格键进入下一个区组。",-1.5,0,-1.5,right,LLRLL.png,,,,,0,0,0,0,3,7,79,23,,,,,,,,,,,,,,,,,,,,,,,,,,,,,,,,,,,,,,,,,,,,,,,,,,,,,,,,,,,,,,,,470.679383700015,471.0797949000262,471.06379529996775,471.1639902999159,471.56564859999344,None,right,1,0.5995422000996768,471.56564859999344,None,471.06379529996775,471.1639902999159,471.1639902999159,None,472.1814436999848,None,,,,,,,11019,001,2024_Jan_05_0935,ANT,2021.2.3,60.161666470511754,
1,24,spatial,down,IC,R,,,,,,Block.xlsx,"你已经完成了第一个实验区组

请稍作休息


点击空格键进入下一个区组。",-1.5,0,-1.5,right,LLRLL.png,,,,,0,0,0,0,3,8,80,23,,,,,,,,,,,,,,,,,,,,,,,,,,,,,,,,,,,,,,,,,,,,,,,,,,,,,,,,,,,,,,,,472.5821303999983,472.98304730001837,472.96710100001656,473.067146699992,473.4675807999447,None,right,1,0.5932123999809846,473.4675807999447,None,472.96710100001656,473.067146699992,473.067146699992,None,474.08450559992343,None,,,,,,,11019,001,2024_Jan_05_0935,ANT,2021.2.3,60.161666470511754,
1,8,no,down,IC,R,,,,,,Block.xlsx,"你已经完成了第一个实验区组

请稍作休息


点击空格键进入下一个区组。",50,0,-1.5,right,LLRLL.png,,,,,0,0,0,0,3,9,81,7,,,,,,,,,,,,,,,,,,,,,,,,,,,,,,,,,,,,,,,,,,,,,,,,,,,,,,,,,,,,,,,,474.48568629997317,474.88605500000995,474.86888979992364,474.96996150002815,475.3696585999569,None,right,1,0.5714621000224724,475.3696585999569,None,474.86888979992364,474.96996150002815,474.96996150002815,None,475.9705696000019,None,,,,,,,11019,001,2024_Jan_05_0935,ANT,2021.2.3,60.161666470511754,
1,4,no,up,IC,R,,,,,,Block.xlsx,"你已经完成了第一个实验区组

请稍作休息


点击空格键进入下一个区组。",50,0,1.5,right,LLRLL.png,,,,,0,0,0,0,3,10,82,3,,,,,,,,,,,,,,,,,,,,,,,,,,,,,,,,,,,,,,,,,,,,,,,,,,,,,,,,,,,,,,,,476.3719426000025,476.7725129999453,476.755859100027,476.85602850001305,477.2558978999732,None,right,1,0.6368704000487924,477.2558978999732,None,476.755859100027,476.85602850001305,476.85602850001305,None,477.9233876999933,None,,,,,,,11019,001,2024_Jan_05_0935,ANT,2021.2.3,60.161666470511754,
1,11,center,up,IC,L,,,,,,Block.xlsx,"你已经完成了第一个实验区组

请稍作休息


点击空格键进入下一个区组。",0,50,1.5,left,RRLRR.png,,,,,0,0,0,0,3,11,83,10,,,,,,,,,,,,,,,,,,,,,,,,,,,,,,,,,,,,,,,,,,,,,,,,,,,,,,,,,,,,,,,,478.3240794999292,478.72527749999426,478.7102570999414,478.8084893999621,479.21006209996995,None,left,1,0.6188047000905499,479.21006209996995,None,478.7102570999414,478.8084893999621,478.8084893999621,None,479.8598119999515,None,,,,,,,11019,001,2024_Jan_05_0935,ANT,2021.2.3,60.161666470511754,
1,10,center,up,C,R,,,,,,Block.xlsx,"你已经完成了第一个实验区组

请稍作休息


点击空格键进入下一个区组。",0,50,1.5,right,RRRRR.png,,,,,0,0,0,0,3,12,84,9,,,,,,,,,,,,,,,,,,,,,,,,,,,,,,,,,,,,,,,,,,,,,,,,,,,,,,,,,,,,,,,,480.26014869997744,480.66185459995177,480.64506719994824,480.7442855000263,481.1457873999607,None,right,1,0.5955632000695914,481.1457873999607,None,480.64506719994824,480.7442855000263,480.7442855000263,None,481.7623389000073,None,,,,,,,11019,001,2024_Jan_05_0935,ANT,2021.2.3,60.161666470511754,
1,19,spatial,up,IC,L,,,,,,Block.xlsx,"你已经完成了第一个实验区组

请稍作休息


点击空格键进入下一个区组。",1.5,0,1.5,left,RRLRR.png,,,,,0,0,0,0,3,13,85,18,,,,,,,,,,,,,,,,,,,,,,,,,,,,,,,,,,,,,,,,,,,,,,,,,,,,,,,,,,,,,,,,482.16299869993236,482.56426639994606,482.5476312999381,482.64724700001534,483.0488546999404,None,left,1,0.5399675000226125,483.0488546999404,None,482.5476312999381,482.64724700001534,482.64724700001534,None,483.61517320002895,None,,,,,,,11019,001,2024_Jan_05_0935,ANT,2021.2.3,60.161666470511754,
1,7,no,down,IC,L,,,,,,Block.xlsx,"你已经完成了第一个实验区组

请稍作休息


点击空格键进入下一个区组。",50,0,-1.5,left,RRLRR.png,,,,,0,0,0,0,3,14,86,6,,,,,,,,,,,,,,,,,,,,,,,,,,,,,,,,,,,,,,,,,,,,,,,,,,,,,,,,,,,,,,,,484.01589099993,484.4171696000267,484.40011469996534,484.49987209995743,484.9018175000092,None,left,1,0.6872256000060588,484.9018175000092,None,484.40011469996534,484.49987209995743,484.49987209995743,None,485.61811539996415,None,,,,,,,11019,001,2024_Jan_05_0935,ANT,2021.2.3,60.161666470511754,
1,21,spatial,down,C,L,,,,,,Block.xlsx,"你已经完成了第一个实验区组

请稍作休息


点击空格键进入下一个区组。",-1.5,0,-1.5,left,LLLLL.png,,,,,0,0,0,0,3,15,87,20,,,,,,,,,,,,,,,,,,,,,,,,,,,,,,,,,,,,,,,,,,,,,,,,,,,,,,,,,,,,,,,,486.0189078999683,486.42152069997974,486.4031491000205,486.5033800000092,486.9040501000127,None,left,1,0.5011135999811813,486.9040501000127,None,486.4031491000205,486.5033800000092,486.5033800000092,None,487.42112790001556,None,,,,,,,11019,001,2024_Jan_05_0935,ANT,2021.2.3,60.161666470511754,
1,14,center,down,C,R,,,,,,Block.xlsx,"你已经完成了第一个实验区组

请稍作休息


点击空格键进入下一个区组。",0,50,-1.5,right,RRRRR.png,,,,,0,0,0,0,3,16,88,13,,,,,,,,,,,,,,,,,,,,,,,,,,,,,,,,,,,,,,,,,,,,,,,,,,,,,,,,,,,,,,,,487.82132659992203,488.2227995999856,488.20623419992626,488.3063952999655,488.7058344000252,None,right,1,0.5709972999757156,488.7058344000252,None,488.20623419992626,488.3063952999655,488.3063952999655,None,489.30686689994764,None,,,,,,,11019,001,2024_Jan_05_0935,ANT,2021.2.3,60.161666470511754,
1,20,spatial,up,IC,R,,,,,,Block.xlsx,"你已经完成了第一个实验区组

请稍作休息


点击空格键进入下一个区组。",1.5,0,1.5,right,LLRLL.png,,,,,0,0,0,0,3,17,89,19,,,,,,,,,,,,,,,,,,,,,,,,,,,,,,,,,,,,,,,,,,,,,,,,,,,,,,,,,,,,,,,,489.7083049999783,490.1088405000046,490.09214730001986,490.1930960000027,490.5923370999517,None,right,1,0.5969610998872668,490.5923370999517,None,490.09214730001986,490.1930960000027,490.1930960000027,None,491.20977910002694,None,,,,,,,11019,001,2024_Jan_05_0935,ANT,2021.2.3,60.161666470511754,
1,21,spatial,down,C,L,,,,,,Block.xlsx,"你已经完成了第一个实验区组

请稍作休息


点击空格键进入下一个区组。",-1.5,0,-1.5,left,LLLLL.png,,,,,0,0,0,0,3,18,90,20,,,,,,,,,,,,,,,,,,,,,,,,,,,,,,,,,,,,,,,,,,,,,,,,,,,,,,,,,,,,,,,,491.61097969999537,492.0117624999257,491.9942474999698,492.09632589994,492.49577669997234,None,left,1,0.44538150005973876,492.49577669997234,None,491.9942474999698,492.09632589994,492.09632589994,None,492.9623007000191,None,,,,,,,11019,001,2024_Jan_05_0935,ANT,2021.2.3,60.161666470511754,
1,7,no,down,IC,L,,,,,,Block.xlsx,"你已经完成了第一个实验区组

请稍作休息


点击空格键进入下一个区组。",50,0,-1.5,left,RRLRR.png,,,,,0,0,0,0,3,19,91,6,,,,,,,,,,,,,,,,,,,,,,,,,,,,,,,,,,,,,,,,,,,,,,,,,,,,,,,,,,,,,,,,493.36314449994825,493.76373250002507,493.74957250000443,493.84782819997054,494.248845999944,None,left,1,0.6124546999344602,494.248845999944,None,493.74957250000443,493.84782819997054,493.84782819997054,None,494.8819467999274,None,,,,,,,11019,001,2024_Jan_05_0935,ANT,2021.2.3,60.161666470511754,
1,16,center,down,IC,R,,,,,,Block.xlsx,"你已经完成了第一个实验区组

请稍作休息


点击空格键进入下一个区组。",0,50,-1.5,right,LLRLL.png,,,,,0,0,0,0,3,20,92,15,,,,,,,,,,,,,,,,,,,,,,,,,,,,,,,,,,,,,,,,,,,,,,,,,,,,,,,,,,,,,,,,495.2828760999255,495.6830190999899,495.6668393999571,495.76750299998093,496.1683645999292,None,right,1,0.5808131999801844,496.1683645999292,None,495.6668393999571,495.76750299998093,495.76750299998093,None,496.767761999974,None,,,,,,,11019,001,2024_Jan_05_0935,ANT,2021.2.3,60.161666470511754,
1,12,center,up,IC,R,,,,,,Block.xlsx,"你已经完成了第一个实验区组

请稍作休息


点击空格键进入下一个区组。",0,50,1.5,right,LLRLL.png,,,,,0,0,0,0,3,21,93,11,,,,,,,,,,,,,,,,,,,,,,,,,,,,,,,,,,,,,,,,,,,,,,,,,,,,,,,,,,,,,,,,497.1696125000017,497.5697383999359,497.5537221999839,497.654791799956,498.05303900002036,None,right,1,0.6485004000132903,498.05303900002036,None,497.5537221999839,497.654791799956,497.654791799956,None,498.72118039999623,None,,,,,,,11019,001,2024_Jan_05_0935,ANT,2021.2.3,60.161666470511754,
1,14,center,down,C,R,,,,,,Block.xlsx,"你已经完成了第一个实验区组

请稍作休息


点击空格键进入下一个区组。",0,50,-1.5,right,RRRRR.png,,,,,0,0,0,0,3,22,94,13,,,,,,,,,,,,,,,,,,,,,,,,,,,,,,,,,,,,,,,,,,,,,,,,,,,,,,,,,,,,,,,,499.12193779996596,499.5228560999967,499.5071770999348,499.62289020000026,500.00628119998146,None,right,1,0.526535400073044,500.00628119998146,None,499.5071770999348,499.62289020000026,499.6063813000219,None,500.5576037999708,None,,,,,,,11019,001,2024_Jan_05_0935,ANT,2021.2.3,60.161666470511754,
1,19,spatial,up,IC,L,,,,,,Block.xlsx,"你已经完成了第一个实验区组

请稍作休息


点击空格键进入下一个区组。",1.5,0,1.5,left,RRLRR.png,,,,,0,0,0,0,3,23,95,18,,,,,,,,,,,,,,,,,,,,,,,,,,,,,,,,,,,,,,,,,,,,,,,,,,,,,,,,,,,,,,,,500.9576301999623,501.3592647999758,501.3414563999977,501.44222339999396,501.8426509000128,None,left,1,0.5062316000694409,501.8426509000128,None,501.3414563999977,501.44222339999396,501.44222339999396,None,502.3763827999355,None,,,,,,,11019,001,2024_Jan_05_0935,ANT,2021.2.3,60.161666470511754,
,,,,,,,,,,,Block.xlsx,"你已经完成了第一个实验区组

请稍作休息


点击空格键进入下一个区组。",,,,,,,,,,0,0,0,0,,,,,,,,,,,,,,,,,,,,,,,,,,,,,,,,,,,,,,,,,,,,,,,,,,,,,,,,,,,,,,,,,,,,,,,,,,,,,,,,,,,,,space,8.940095099969767,502.77672470000107,None,502.77672470000107,None,11019,001,2024_Jan_05_0935,ANT,2021.2.3,60.161666470511754,
1,12,center,up,IC,R,,,,,,Block.xlsx,"你已经完成了整个实验（三个区组）。

请报告实验者已完成实验

非常感谢，再见！",0,50,1.5,right,LLRLL.png,,,,,0,1,1,1,0,0,0,11,,,,,,,,,,,,,,,,,,,,,,,,,,,,,,,,,,,,,,,,,,,,,,,,,,,,,,,,,,,,,,,,511.7563305000076,512.1588090999285,512.1413359999424,512.2413897999795,512.6415790999308,None,right,1,0.6033658999949694,512.6415790999308,None,512.1413359999424,512.2413897999795,512.2413897999795,None,513.2758006999502,None,,,,,,,11019,001,2024_Jan_05_0935,ANT,2021.2.3,60.161666470511754,
1,20,spatial,up,IC,R,,,,,,Block.xlsx,"你已经完成了整个实验（三个区组）。

请报告实验者已完成实验

非常感谢，再见！",1.5,0,1.5,right,LLRLL.png,,,,,0,1,1,1,0,1,1,19,,,,,,,,,,,,,,,,,,,,,,,,,,,,,,,,,,,,,,,,,,,,,,,,,,,,,,,,,,,,,,,,513.6763772999402,514.0776414999273,514.061745999963,514.1615909999236,514.5617655999959,None,right,1,0.5070458999834955,514.5617655999959,None,514.061745999963,514.1615909999236,514.1615909999236,None,515.0951553999912,None,,,,,,,11019,001,2024_Jan_05_0935,ANT,2021.2.3,60.161666470511754,
1,9,center,up,C,L,,,,,,Block.xlsx,"你已经完成了整个实验（三个区组）。

请报告实验者已完成实验

非常感谢，再见！",0,50,1.5,left,LLLLL.png,,,,,0,1,1,1,0,2,2,8,,,,,,,,,,,,,,,,,,,,,,,,,,,,,,,,,,,,,,,,,,,,,,,,,,,,,,,,,,,,,,,,515.4965575999813,515.8978387999814,515.8819137000246,515.9970088999253,516.3815808999352,None,left,1,0.4960011999355629,516.3815808999352,None,515.8819137000246,515.9970088999253,515.9807436999399,None,516.8985646999208,None,,,,,,,11019,001,2024_Jan_05_0935,ANT,2021.2.3,60.161666470511754,
1,7,no,down,IC,L,,,,,,Block.xlsx,"你已经完成了整个实验（三个区组）。

请报告实验者已完成实验

非常感谢，再见！",50,0,-1.5,left,RRLRR.png,,,,,0,1,1,1,0,3,3,6,,,,,,,,,,,,,,,,,,,,,,,,,,,,,,,,,,,,,,,,,,,,,,,,,,,,,,,,,,,,,,,,517.2983436000068,517.7016255999915,517.6830630999757,517.7834212000016,518.1850873000221,None,left,1,0.6917768999701366,518.1850873000221,None,517.6830630999757,517.7834212000016,517.7834212000016,None,518.9008306999458,None,,,,,,,11019,001,2024_Jan_05_0935,ANT,2021.2.3,60.161666470511754,
1,23,spatial,down,IC,L,,,,,,Block.xlsx,"你已经完成了整个实验（三个区组）。

请报告实验者已完成实验

非常感谢，再见！",-1.5,0,-1.5,left,RRLRR.png,,,,,0,1,1,1,0,4,4,22,,,,,,,,,,,,,,,,,,,,,,,,,,,,,,,,,,,,,,,,,,,,,,,,,,,,,,,,,,,,,,,,519.3021385999164,519.7022268000292,519.6845328999916,519.7854929999448,520.1871860999381,None,left,1,0.5140185999916866,520.1871860999381,None,519.6845328999916,519.7854929999448,519.7854929999448,None,520.7202689999249,None,,,,,,,11019,001,2024_Jan_05_0935,ANT,2021.2.3,60.161666470511754,
1,2,no,up,C,R,,,,,,Block.xlsx,"你已经完成了整个实验（三个区组）。

请报告实验者已完成实验

非常感谢，再见！",50,0,1.5,right,RRRRR.png,,,,,0,1,1,1,0,5,5,1,,,,,,,,,,,,,,,,,,,,,,,,,,,,,,,,,,,,,,,,,,,,,,,,,,,,,,,,,,,,,,,,521.1222126999637,521.5221170999575,521.5053861999186,521.6049044999527,522.007096300018,None,right,1,0.5823297000024468,522.007096300018,None,521.5053861999186,521.6049044999527,521.6049044999527,None,522.6063001999864,None,,,,,,,11019,001,2024_Jan_05_0935,ANT,2021.2.3,60.161666470511754,
1,16,center,down,IC,R,,,,,,Block.xlsx,"你已经完成了整个实验（三个区组）。

请报告实验者已完成实验

非常感谢，再见！",0,50,-1.5,right,LLRLL.png,,,,,0,1,1,1,0,6,6,15,,,,,,,,,,,,,,,,,,,,,,,,,,,,,,,,,,,,,,,,,,,,,,,,,,,,,,,,,,,,,,,,523.0076175000286,523.4080521999858,523.3914388000267,523.4911201000214,523.8927140999585,None,right,1,0.5922374000074342,523.8927140999585,None,523.3914388000267,523.4911201000214,523.4911201000214,None,524.5090853000293,None,,,,,,,11019,001,2024_Jan_05_0935,ANT,2021.2.3,60.161666470511754,
1,19,spatial,up,IC,L,,,,,,Block.xlsx,"你已经完成了整个实验（三个区组）。

请报告实验者已完成实验

非常感谢，再见！",1.5,0,1.5,left,RRLRR.png,,,,,0,1,1,1,0,7,7,18,,,,,,,,,,,,,,,,,,,,,,,,,,,,,,,,,,,,,,,,,,,,,,,,,,,,,,,,,,,,,,,,524.9099988000235,525.311101899948,525.2936891999561,525.3951268999372,525.7963142999215,None,left,1,0.5766841999720782,525.7963142999215,None,525.2936891999561,525.3951268999372,525.3951268999372,None,526.3952655999456,None,,,,,,,11019,001,2024_Jan_05_0935,ANT,2021.2.3,60.161666470511754,
1,13,center,down,C,L,,,,,,Block.xlsx,"你已经完成了整个实验（三个区组）。

请报告实验者已完成实验

非常感谢，再见！",0,50,-1.5,left,LLLLL.png,,,,,0,1,1,1,0,8,8,12,,,,,,,,,,,,,,,,,,,,,,,,,,,,,,,,,,,,,,,,,,,,,,,,,,,,,,,,,,,,,,,,526.7965805999702,527.1974786999635,527.1797880999511,527.2803407999454,527.68041000003,None,left,1,0.5085330000147223,527.68041000003,None,527.1797880999511,527.2803407999454,527.2803407999454,None,528.2148289999459,None,,,,,,,11019,001,2024_Jan_05_0935,ANT,2021.2.3,60.161666470511754,
1,21,spatial,down,C,L,,,,,,Block.xlsx,"你已经完成了整个实验（三个区组）。

请报告实验者已完成实验

非常感谢，再见！",-1.5,0,-1.5,left,LLLLL.png,,,,,0,1,1,1,0,9,9,20,,,,,,,,,,,,,,,,,,,,,,,,,,,,,,,,,,,,,,,,,,,,,,,,,,,,,,,,,,,,,,,,528.6152379999403,529.0163116999902,529.0000694999471,529.1004657000303,529.4999204999767,None,left,1,0.42487500002607703,529.4999204999767,None,529.0000694999471,529.1004657000303,529.1004657000303,None,529.9504338999977,None,,,,,,,11019,001,2024_Jan_05_0935,ANT,2021.2.3,60.161666470511754,
1,13,center,down,C,L,,,,,,Block.xlsx,"你已经完成了整个实验（三个区组）。

请报告实验者已完成实验

非常感谢，再见！",0,50,-1.5,left,LLLLL.png,,,,,0,1,1,1,0,10,10,12,,,,,,,,,,,,,,,,,,,,,,,,,,,,,,,,,,,,,,,,,,,,,,,,,,,,,,,,,,,,,,,,530.3511566999368,530.7519572000019,530.7361812000163,530.8358588999836,531.2368375000078,None,left,1,0.4562552999705076,531.2368375000078,None,530.7361812000163,530.8358588999836,530.8358588999836,None,531.7198625999736,None,,,,,,,11019,001,2024_Jan_05_0935,ANT,2021.2.3,60.161666470511754,
1,4,no,up,IC,R,,,,,,Block.xlsx,"你已经完成了整个实验（三个区组）。

请报告实验者已完成实验

非常感谢，再见！",50,0,1.5,right,LLRLL.png,,,,,0,1,1,1,0,11,11,3,,,,,,,,,,,,,,,,,,,,,,,,,,,,,,,,,,,,,,,,,,,,,,,,,,,,,,,,,,,,,,,,532.1204206999391,532.5213141000131,532.5053457999602,532.6049573000055,533.0059864999494,None,right,1,0.6552616999251768,533.0059864999494,None,532.5053457999602,532.6049573000055,532.6049573000055,None,533.6894622999243,None,,,,,,,11019,001,2024_Jan_05_0935,ANT,2021.2.3,60.161666470511754,
1,5,no,down,C,L,,,,,,Block.xlsx,"你已经完成了整个实验（三个区组）。

请报告实验者已完成实验

非常感谢，再见！",50,0,-1.5,left,LLLLL.png,,,,,0,1,1,1,0,12,12,4,,,,,,,,,,,,,,,,,,,,,,,,,,,,,,,,,,,,,,,,,,,,,,,,,,,,,,,,,,,,,,,,534.0900597999571,534.491201799945,534.4739164999919,534.5742526999675,534.9761287999572,None,left,1,0.55663329991512,534.9761287999572,None,534.4739164999919,534.5742526999675,534.5742526999675,None,535.5588054999243,None,,,,,,,11019,001,2024_Jan_05_0935,ANT,2021.2.3,60.161666470511754,
1,11,center,up,IC,L,,,,,,Block.xlsx,"你已经完成了整个实验（三个区组）。

请报告实验者已完成实验

非常感谢，再见！",0,50,1.5,left,RRLRR.png,,,,,0,1,1,1,0,13,13,10,,,,,,,,,,,,,,,,,,,,,,,,,,,,,,,,,,,,,,,,,,,,,,,,,,,,,,,,,,,,,,,,535.9594926999416,536.3601092000026,536.3445932000177,536.4602992000291,536.8441664000275,None,left,1,0.5926892999559641,536.8441664000275,None,536.3445932000177,536.4602992000291,536.4455507999519,None,537.4616753999144,None,,,,,,,11019,001,2024_Jan_05_0935,ANT,2021.2.3,60.161666470511754,
1,9,center,up,C,L,,,,,,Block.xlsx,"你已经完成了整个实验（三个区组）。

请报告实验者已完成实验

非常感谢，再见！",0,50,1.5,left,LLLLL.png,,,,,0,1,1,1,0,14,14,8,,,,,,,,,,,,,,,,,,,,,,,,,,,,,,,,,,,,,,,,,,,,,,,,,,,,,,,,,,,,,,,,537.8627561000176,538.2639141000109,538.247429799987,538.3471853999654,538.7468650999945,None,left,1,0.4504236000357196,538.7468650999945,None,538.247429799987,538.3471853999654,538.3471853999654,None,539.2142210999737,None,,,,,,,11019,001,2024_Jan_05_0935,ANT,2021.2.3,60.161666470511754,
1,9,center,up,C,L,,,,,,Block.xlsx,"你已经完成了整个实验（三个区组）。

请报告实验者已完成实验

非常感谢，再见！",0,50,1.5,left,LLLLL.png,,,,,0,1,1,1,0,15,15,8,,,,,,,,,,,,,,,,,,,,,,,,,,,,,,,,,,,,,,,,,,,,,,,,,,,,,,,,,,,,,,,,539.6153826999944,540.0166128999554,539.9988213999895,540.0988762999186,540.5008108000038,None,left,1,0.40805820003151894,540.5008108000038,None,539.9988213999895,540.0988762999186,540.0988762999186,None,540.9335306999274,None,,,,,,,11019,001,2024_Jan_05_0935,ANT,2021.2.3,60.161666470511754,
1,16,center,down,IC,R,,,,,,Block.xlsx,"你已经完成了整个实验（三个区组）。

请报告实验者已完成实验

非常感谢，再见！",0,50,-1.5,right,LLRLL.png,,,,,0,1,1,1,0,16,16,15,,,,,,,,,,,,,,,,,,,,,,,,,,,,,,,,,,,,,,,,,,,,,,,,,,,,,,,,,,,,,,,,541.3339061000152,541.7353546000086,541.7191191000165,541.8181312999222,542.219697499997,None,right,1,0.6571354999905452,542.219697499997,None,541.7191191000165,541.8181312999222,541.8181312999222,None,542.9030313999392,None,,,,,,,11019,001,2024_Jan_05_0935,ANT,2021.2.3,60.161666470511754,
1,2,no,up,C,R,,,,,,Block.xlsx,"你已经完成了整个实验（三个区组）。

请报告实验者已完成实验

非常感谢，再见！",50,0,1.5,right,RRRRR.png,,,,,0,1,1,1,0,17,17,1,,,,,,,,,,,,,,,,,,,,,,,,,,,,,,,,,,,,,,,,,,,,,,,,,,,,,,,,,,,,,,,,543.3036546999356,543.7043458999833,543.6881691999733,543.7895199999912,544.1883651999524,None,right,1,0.5046755999792367,544.1883651999524,None,543.6881691999733,543.7895199999912,543.7895199999912,None,544.7226954000071,None,,,,,,,11019,001,2024_Jan_05_0935,ANT,2021.2.3,60.161666470511754,
1,8,no,down,IC,R,,,,,,Block.xlsx,"你已经完成了整个实验（三个区组）。

请报告实验者已完成实验

非常感谢，再见！",50,0,-1.5,right,LLRLL.png,,,,,0,1,1,1,0,18,18,7,,,,,,,,,,,,,,,,,,,,,,,,,,,,,,,,,,,,,,,,,,,,,,,,,,,,,,,,,,,,,,,,545.1229993000161,545.5239411999937,545.507693600026,545.6075288000284,546.0094206000213,None,right,1,0.611629799939692,546.0094206000213,None,545.507693600026,545.6075288000284,545.6075288000284,None,546.6419244999997,None,,,,,,,11019,001,2024_Jan_05_0935,ANT,2021.2.3,60.161666470511754,
1,20,spatial,up,IC,R,,,,,,Block.xlsx,"你已经完成了整个实验（三个区组）。

请报告实验者已完成实验

非常感谢，再见！",1.5,0,1.5,right,LLRLL.png,,,,,0,1,1,1,0,19,19,19,,,,,,,,,,,,,,,,,,,,,,,,,,,,,,,,,,,,,,,,,,,,,,,,,,,,,,,,,,,,,,,,547.0423602999654,547.4450572999194,547.4266482000239,547.5272987999488,547.9269462999655,None,right,1,0.5983515999978408,547.9269462999655,None,547.4266482000239,547.5272987999488,547.5272987999488,None,548.5455668999348,None,,,,,,,11019,001,2024_Jan_05_0935,ANT,2021.2.3,60.161666470511754,
1,23,spatial,down,IC,L,,,,,,Block.xlsx,"你已经完成了整个实验（三个区组）。

请报告实验者已完成实验

非常感谢，再见！",-1.5,0,-1.5,left,RRLRR.png,,,,,0,1,1,1,0,20,20,22,,,,,,,,,,,,,,,,,,,,,,,,,,,,,,,,,,,,,,,,,,,,,,,,,,,,,,,,,,,,,,,,548.9455828999635,549.3464932999341,549.3293624999933,549.4303420999786,549.8312278999947,None,left,1,0.597891699988395,549.8312278999947,None,549.3293624999933,549.4303420999786,549.4303420999786,None,550.4481892000185,None,,,,,,,11019,001,2024_Jan_05_0935,ANT,2021.2.3,60.161666470511754,
1,11,center,up,IC,L,,,,,,Block.xlsx,"你已经完成了整个实验（三个区组）。

请报告实验者已完成实验

非常感谢，再见！",0,50,1.5,left,RRLRR.png,,,,,0,1,1,1,0,21,21,10,,,,,,,,,,,,,,,,,,,,,,,,,,,,,,,,,,,,,,,,,,,,,,,,,,,,,,,,,,,,,,,,550.8482101999689,551.2508146999171,551.2324736999581,551.3324967999943,551.7328470000066,None,left,1,0.560030399938114,551.7328470000066,None,551.2324736999581,551.3324967999943,551.3324967999943,None,552.3170126000186,None,,,,,,,11019,001,2024_Jan_05_0935,ANT,2021.2.3,60.161666470511754,
1,22,spatial,down,C,R,,,,,,Block.xlsx,"你已经完成了整个实验（三个区组）。

请报告实验者已完成实验

非常感谢，再见！",-1.5,0,-1.5,right,RRRRR.png,,,,,0,1,1,1,0,22,22,21,,,,,,,,,,,,,,,,,,,,,,,,,,,,,,,,,,,,,,,,,,,,,,,,,,,,,,,,,,,,,,,,552.7185108999256,553.1185863999417,553.1034586000023,553.219378800015,553.6021822999464,None,right,1,0.5069461999228224,553.6021822999464,None,553.1034586000023,553.219378800015,553.2016811999492,None,554.1364078000188,None,,,,,,,11019,001,2024_Jan_05_0935,ANT,2021.2.3,60.161666470511754,
1,20,spatial,up,IC,R,,,,,,Block.xlsx,"你已经完成了整个实验（三个区组）。

请报告实验者已完成实验

非常感谢，再见！",1.5,0,1.5,right,LLRLL.png,,,,,0,1,1,1,0,23,23,19,,,,,,,,,,,,,,,,,,,,,,,,,,,,,,,,,,,,,,,,,,,,,,,,,,,,,,,,,,,,,,,,554.5373981000157,554.9397084999364,554.921733199968,555.0217526999768,555.4222432000097,None,right,1,0.5747063000453636,555.4222432000097,None,554.921733199968,555.0217526999768,555.0217526999768,None,556.022258699988,None,,,,,,,11019,001,2024_Jan_05_0935,ANT,2021.2.3,60.161666470511754,
1,16,center,down,IC,R,,,,,,Block.xlsx,"你已经完成了整个实验（三个区组）。

请报告实验者已完成实验

非常感谢，再见！",0,50,-1.5,right,LLRLL.png,,,,,0,1,1,1,1,0,24,15,,,,,,,,,,,,,,,,,,,,,,,,,,,,,,,,,,,,,,,,,,,,,,,,,,,,,,,,,,,,,,,,556.4234082999174,556.8239909999538,556.8084035000065,556.9076086999848,557.3075918999966,None,right,1,0.5854956000111997,557.3075918999966,None,556.8084035000065,556.9076086999848,556.9076086999848,None,557.908536199946,None,,,,,,,11019,001,2024_Jan_05_0935,ANT,2021.2.3,60.161666470511754,
1,17,spatial,up,C,L,,,,,,Block.xlsx,"你已经完成了整个实验（三个区组）。

请报告实验者已完成实验

非常感谢，再见！",1.5,0,1.5,left,LLLLL.png,,,,,0,1,1,1,1,1,25,16,,,,,,,,,,,,,,,,,,,,,,,,,,,,,,,,,,,,,,,,,,,,,,,,,,,,,,,,,,,,,,,,558.3093500999967,558.7101529999636,558.6934092999436,558.7942353999242,559.1945887999609,None,left,1,0.5943021998973563,559.1945887999609,None,558.6934092999436,558.7942353999242,558.7942353999242,None,559.8115605999483,None,,,,,,,11019,001,2024_Jan_05_0935,ANT,2021.2.3,60.161666470511754,
1,12,center,up,IC,R,,,,,,Block.xlsx,"你已经完成了整个实验（三个区组）。

请报告实验者已完成实验

非常感谢，再见！",0,50,1.5,right,LLRLL.png,,,,,0,1,1,1,1,2,26,11,,,,,,,,,,,,,,,,,,,,,,,,,,,,,,,,,,,,,,,,,,,,,,,,,,,,,,,,,,,,,,,,560.2120094000129,560.6125214999774,560.5963560999371,560.6961831999943,561.0975349999499,None,right,1,0.6033324999734759,561.0975349999499,None,560.5963560999371,560.6961831999943,560.6961831999943,None,561.7309231000254,None,,,,,,,11019,001,2024_Jan_05_0935,ANT,2021.2.3,60.161666470511754,
1,24,spatial,down,IC,R,,,,,,Block.xlsx,"你已经完成了整个实验（三个区组）。

请报告实验者已完成实验

非常感谢，再见！",-1.5,0,-1.5,right,LLRLL.png,,,,,0,1,1,1,1,3,27,23,,,,,,,,,,,,,,,,,,,,,,,,,,,,,,,,,,,,,,,,,,,,,,,,,,,,,,,,,,,,,,,,562.1320532999234,562.5321626999648,562.5159495000262,562.6168007999659,563.0178102999926,None,right,1,0.5871415000874549,563.0178102999926,None,562.5159495000262,562.6168007999659,562.6168007999659,None,563.6338401000248,None,,,,,,,11019,001,2024_Jan_05_0935,ANT,2021.2.3,60.161666470511754,
1,14,center,down,C,R,,,,,,Block.xlsx,"你已经完成了整个实验（三个区组）。

请报告实验者已完成实验

非常感谢，再见！",0,50,-1.5,right,RRRRR.png,,,,,0,1,1,1,1,4,28,13,,,,,,,,,,,,,,,,,,,,,,,,,,,,,,,,,,,,,,,,,,,,,,,,,,,,,,,,,,,,,,,,564.0341356999706,564.4367836000165,564.4183814999415,564.5186561999144,564.9191644999664,None,right,1,0.5019989999709651,564.9191644999664,None,564.4183814999415,564.5186561999144,564.5186561999144,None,565.4364525999408,None,,,,,,,11019,001,2024_Jan_05_0935,ANT,2021.2.3,60.161666470511754,
1,8,no,down,IC,R,,,,,,Block.xlsx,"你已经完成了整个实验（三个区组）。

请报告实验者已完成实验

非常感谢，再见！",50,0,-1.5,right,LLRLL.png,,,,,0,1,1,1,1,5,29,7,,,,,,,,,,,,,,,,,,,,,,,,,,,,,,,,,,,,,,,,,,,,,,,,,,,,,,,,,,,,,,,,565.837382699945,566.239733699942,566.2218304999406,566.3210566999624,566.7215648000129,None,right,1,0.6032235999591649,566.7215648000129,None,566.2218304999406,566.3210566999624,566.3210566999624,None,567.3559564999305,None,,,,,,,11019,001,2024_Jan_05_0935,ANT,2021.2.3,60.161666470511754,
1,18,spatial,up,C,R,,,,,,Block.xlsx,"你已经完成了整个实验（三个区组）。

请报告实验者已完成实验

非常感谢，再见！",1.5,0,1.5,right,RRRRR.png,,,,,0,1,1,1,1,6,30,17,,,,,,,,,,,,,,,,,,,,,,,,,,,,,,,,,,,,,,,,,,,,,,,,,,,,,,,,,,,,,,,,567.7563611000078,568.1583665999351,568.1410512999864,568.2424385999329,568.6417450999143,None,right,1,0.49119029997382313,568.6417450999143,None,568.1410512999864,568.2424385999329,568.2424385999329,None,569.1586291999556,None,,,,,,,11019,001,2024_Jan_05_0935,ANT,2021.2.3,60.161666470511754,
1,15,center,down,IC,L,,,,,,Block.xlsx,"你已经完成了整个实验（三个区组）。

请报告实验者已完成实验

非常感谢，再见！",0,50,-1.5,left,RRLRR.png,,,,,0,1,1,1,1,7,31,14,,,,,,,,,,,,,,,,,,,,,,,,,,,,,,,,,,,,,,,,,,,,,,,,,,,,,,,,,,,,,,,,569.5594553999836,569.9601825999562,569.9437420999166,570.0450283000246,570.4444062999683,None,left,1,0.6086267000064254,570.4444062999683,None,569.9437420999166,570.0450283000246,570.0450283000246,None,571.0780314999865,None,,,,,,,11019,001,2024_Jan_05_0935,ANT,2021.2.3,60.161666470511754,
1,13,center,down,C,L,,,,,,Block.xlsx,"你已经完成了整个实验（三个区组）。

请报告实验者已完成实验

非常感谢，再见！",0,50,-1.5,left,LLLLL.png,,,,,0,1,1,1,1,8,32,12,,,,,,,,,,,,,,,,,,,,,,,,,,,,,,,,,,,,,,,,,,,,,,,,,,,,,,,,,,,,,,,,571.4785945999902,571.880462699919,571.862628599978,571.9634597999975,572.3650768999942,None,left,1,0.5599057000363246,572.3650768999942,None,571.862628599978,571.9634597999975,571.9634597999975,None,572.9475258999737,None,,,,,,,11019,001,2024_Jan_05_0935,ANT,2021.2.3,60.161666470511754,
1,14,center,down,C,R,,,,,,Block.xlsx,"你已经完成了整个实验（三个区组）。

请报告实验者已完成实验

非常感谢，再见！",0,50,-1.5,right,RRRRR.png,,,,,0,1,1,1,1,9,33,13,,,,,,,,,,,,,,,,,,,,,,,,,,,,,,,,,,,,,,,,,,,,,,,,,,,,,,,,,,,,,,,,573.3481692000059,573.7501558000222,573.7320912999567,573.8333475999534,574.2335200000089,None,right,1,0.595872399979271,574.2335200000089,None,573.7320912999567,573.8333475999534,573.8333475999534,None,574.8505250000162,None,,,,,,,11019,001,2024_Jan_05_0935,ANT,2021.2.3,60.161666470511754,
1,1,no,up,C,L,,,,,,Block.xlsx,"你已经完成了整个实验（三个区组）。

请报告实验者已完成实验

非常感谢，再见！",50,0,1.5,left,LLLLL.png,,,,,0,1,1,1,1,10,34,0,,,,,,,,,,,,,,,,,,,,,,,,,,,,,,,,,,,,,,,,,,,,,,,,,,,,,,,,,,,,,,,,575.251576300012,575.6518222999293,575.6365164999152,575.7350866999477,576.1362790999701,None,left,1,0.5407461000140756,576.1362790999701,None,575.6365164999152,575.7350866999477,575.7350866999477,None,576.7034225999378,None,,,,,,,11019,001,2024_Jan_05_0935,ANT,2021.2.3,60.161666470511754,
1,3,no,up,IC,L,,,,,,Block.xlsx,"你已经完成了整个实验（三个区组）。

请报告实验者已完成实验

非常感谢，再见！",50,0,1.5,left,RRLRR.png,,,,,0,1,1,1,1,11,35,2,,,,,,,,,,,,,,,,,,,,,,,,,,,,,,,,,,,,,,,,,,,,,,,,,,,,,,,,,,,,,,,,577.1035318999784,577.5053247999167,577.4888286999194,577.5887251999229,577.9900729999645,None,left,1,0.5992443999275565,577.9900729999645,None,577.4888286999194,577.5887251999229,577.5887251999229,None,578.6061376000289,None,,,,,,,11019,001,2024_Jan_05_0935,ANT,2021.2.3,60.161666470511754,
1,10,center,up,C,R,,,,,,Block.xlsx,"你已经完成了整个实验（三个区组）。

请报告实验者已完成实验

非常感谢，再见！",0,50,1.5,right,RRRRR.png,,,,,0,1,1,1,1,12,36,9,,,,,,,,,,,,,,,,,,,,,,,,,,,,,,,,,,,,,,,,,,,,,,,,,,,,,,,,,,,,,,,,579.0067088999785,579.4081803999143,579.3907522999216,579.4909267999465,579.8919918999309,None,right,1,0.6089858999475837,579.8919918999309,None,579.3907522999216,579.4909267999465,579.4909267999465,None,580.525565900025,None,,,,,,,11019,001,2024_Jan_05_0935,ANT,2021.2.3,60.161666470511754,
1,2,no,up,C,R,,,,,,Block.xlsx,"你已经完成了整个实验（三个区组）。

请报告实验者已完成实验

非常感谢，再见！",50,0,1.5,right,RRRRR.png,,,,,0,1,1,1,1,13,37,1,,,,,,,,,,,,,,,,,,,,,,,,,,,,,,,,,,,,,,,,,,,,,,,,,,,,,,,,,,,,,,,,580.9263787999516,581.3275526999496,581.3107919999165,581.4101251999382,581.8126026999671,None,right,1,0.504189100000076,581.8126026999671,None,581.3107919999165,581.4101251999382,581.4101251999382,None,582.344813899952,None,,,,,,,11019,001,2024_Jan_05_0935,ANT,2021.2.3,60.161666470511754,
1,3,no,up,IC,L,,,,,,Block.xlsx,"你已经完成了整个实验（三个区组）。

请报告实验者已完成实验

非常感谢，再见！",50,0,1.5,left,RRLRR.png,,,,,0,1,1,1,1,14,38,2,,,,,,,,,,,,,,,,,,,,,,,,,,,,,,,,,,,,,,,,,,,,,,,,,,,,,,,,,,,,,,,,582.7454877999844,583.146077399957,583.1300388999516,583.2312606999185,583.632383499993,None,left,1,0.5966680999845266,583.632383499993,None,583.1300388999516,583.2312606999185,583.2312606999185,None,584.2480464000255,None,,,,,,,11019,001,2024_Jan_05_0935,ANT,2021.2.3,60.161666470511754,
1,4,no,up,IC,R,,,,,,Block.xlsx,"你已经完成了整个实验（三个区组）。

请报告实验者已完成实验

非常感谢，再见！",50,0,1.5,right,LLRLL.png,,,,,0,1,1,1,1,15,39,3,,,,,,,,,,,,,,,,,,,,,,,,,,,,,,,,,,,,,,,,,,,,,,,,,,,,,,,,,,,,,,,,584.648099699989,585.0489173999522,585.0325521000195,585.132926799939,585.5348089999752,None,right,1,0.5343394000083208,585.5348089999752,None,585.0325521000195,585.132926799939,585.132926799939,None,586.0835579999257,None,,,,,,,11019,001,2024_Jan_05_0935,ANT,2021.2.3,60.161666470511754,
1,21,spatial,down,C,L,,,,,,Block.xlsx,"你已经完成了整个实验（三个区组）。

请报告实验者已完成实验

非常感谢，再见！",-1.5,0,-1.5,left,LLLLL.png,,,,,0,1,1,1,1,16,40,20,,,,,,,,,,,,,,,,,,,,,,,,,,,,,,,,,,,,,,,,,,,,,,,,,,,,,,,,,,,,,,,,586.4853087000083,586.8861779000144,586.8682370999595,586.969476099941,587.3690132999327,None,left,1,0.5165342999389395,587.3690132999327,None,586.8682370999595,586.969476099941,586.969476099941,None,587.9031481000129,None,,,,,,,11019,001,2024_Jan_05_0935,ANT,2021.2.3,60.161666470511754,
1,3,no,up,IC,L,,,,,,Block.xlsx,"你已经完成了整个实验（三个区组）。

请报告实验者已完成实验

非常感谢，再见！",50,0,1.5,left,RRLRR.png,,,,,0,1,1,1,1,17,41,2,,,,,,,,,,,,,,,,,,,,,,,,,,,,,,,,,,,,,,,,,,,,,,,,,,,,,,,,,,,,,,,,588.3035424000118,588.7054322999902,588.6878569999244,588.7882662999909,589.1883851999883,None,left,1,0.6246752999722958,589.1883851999883,None,588.6878569999244,588.7882662999909,588.7882662999909,None,589.8392157999333,None,,,,,,,11019,001,2024_Jan_05_0935,ANT,2021.2.3,60.161666470511754,
1,10,center,up,C,R,,,,,,Block.xlsx,"你已经完成了整个实验（三个区组）。

请报告实验者已完成实验

非常感谢，再见！",0,50,1.5,right,RRRRR.png,,,,,0,1,1,1,1,18,42,9,,,,,,,,,,,,,,,,,,,,,,,,,,,,,,,,,,,,,,,,,,,,,,,,,,,,,,,,,,,,,,,,590.2399902999168,590.6411125999875,590.6244045000058,590.7258263999829,591.1250095999567,None,right,1,0.6239113999763504,591.1250095999567,None,590.6244045000058,590.7258263999829,590.7258263999829,None,591.775292999926,None,,,,,,,11019,001,2024_Jan_05_0935,ANT,2021.2.3,60.161666470511754,
1,12,center,up,IC,R,,,,,,Block.xlsx,"你已经完成了整个实验（三个区组）。

请报告实验者已完成实验

非常感谢，再见！",0,50,1.5,right,LLRLL.png,,,,,0,1,1,1,1,19,43,11,,,,,,,,,,,,,,,,,,,,,,,,,,,,,,,,,,,,,,,,,,,,,,,,,,,,,,,,,,,,,,,,592.177067099954,592.5785908999387,592.5598502999637,592.6613196999533,593.0606524000177,None,right,1,0.5526271000271663,593.0606524000177,None,592.5598502999637,592.6613196999533,592.6613196999533,None,593.6284591000294,None,,,,,,,11019,001,2024_Jan_05_0935,ANT,2021.2.3,60.161666470511754,
1,14,center,down,C,R,,,,,,Block.xlsx,"你已经完成了整个实验（三个区组）。

请报告实验者已完成实验

非常感谢，再见！",0,50,-1.5,right,RRRRR.png,,,,,0,1,1,1,1,20,44,13,,,,,,,,,,,,,,,,,,,,,,,,,,,,,,,,,,,,,,,,,,,,,,,,,,,,,,,,,,,,,,,,594.0287831999594,594.4297409999417,594.4149952000007,594.5302742000204,594.914293800015,None,right,1,0.563249500002712,594.914293800015,None,594.4149952000007,594.5302742000204,594.5129342,None,595.4978472000221,None,,,,,,,11019,001,2024_Jan_05_0935,ANT,2021.2.3,60.161666470511754,
1,11,center,up,IC,L,,,,,,Block.xlsx,"你已经完成了整个实验（三个区组）。

请报告实验者已完成实验

非常感谢，再见！",0,50,1.5,left,RRLRR.png,,,,,0,1,1,1,1,21,45,10,,,,,,,,,,,,,,,,,,,,,,,,,,,,,,,,,,,,,,,,,,,,,,,,,,,,,,,,,,,,,,,,595.8982539999997,596.2989909999305,596.2825230999151,596.3832997999853,596.7840437999694,None,left,1,0.6692078999476507,596.7840437999694,None,596.2825230999151,596.3832997999853,596.3832997999853,None,597.4671394999605,None,,,,,,,11019,001,2024_Jan_05_0935,ANT,2021.2.3,60.161666470511754,
1,19,spatial,up,IC,L,,,,,,Block.xlsx,"你已经完成了整个实验（三个区组）。

请报告实验者已完成实验

非常感谢，再见！",1.5,0,1.5,left,RRLRR.png,,,,,0,1,1,1,1,22,46,18,,,,,,,,,,,,,,,,,,,,,,,,,,,,,,,,,,,,,,,,,,,,,,,,,,,,,,,,,,,,,,,,597.8683954000007,598.2689995999681,598.2536603999324,598.3520154999569,598.753398999921,None,left,1,0.5638591999886557,598.753398999921,None,598.2536603999324,598.3520154999569,598.3520154999569,None,599.3364771999186,None,,,,,,,11019,001,2024_Jan_05_0935,ANT,2021.2.3,60.161666470511754,
1,15,center,down,IC,L,,,,,,Block.xlsx,"你已经完成了整个实验（三个区组）。

请报告实验者已完成实验

非常感谢，再见！",0,50,-1.5,left,RRLRR.png,,,,,0,1,1,1,1,23,47,14,,,,,,,,,,,,,,,,,,,,,,,,,,,,,,,,,,,,,,,,,,,,,,,,,,,,,,,,,,,,,,,,599.737350899959,600.1391123000067,600.1212135999231,600.2219015000155,600.6233003999805,None,left,1,0.6056262999773026,600.6233003999805,None,600.1212135999231,600.2219015000155,600.2219015000155,None,601.256922599976,None,,,,,,,11019,001,2024_Jan_05_0935,ANT,2021.2.3,60.161666470511754,
1,18,spatial,up,C,R,,,,,,Block.xlsx,"你已经完成了整个实验（三个区组）。

请报告实验者已完成实验

非常感谢，再见！",1.5,0,1.5,right,RRRRR.png,,,,,0,1,1,1,2,0,48,17,,,,,,,,,,,,,,,,,,,,,,,,,,,,,,,,,,,,,,,,,,,,,,,,,,,,,,,,,,,,,,,,601.6568978999276,602.0579546999652,602.041555200005,602.1428389999783,602.541528099915,None,right,1,0.5275087999179959,602.541528099915,None,602.041555200005,602.1428389999783,602.1428389999783,None,603.0923044999363,None,,,,,,,11019,001,2024_Jan_05_0935,ANT,2021.2.3,60.161666470511754,
1,23,spatial,down,IC,L,,,,,,Block.xlsx,"你已经完成了整个实验（三个区组）。

请报告实验者已完成实验

非常感谢，再见！",-1.5,0,-1.5,left,RRLRR.png,,,,,0,1,1,1,2,1,49,22,,,,,,,,,,,,,,,,,,,,,,,,,,,,,,,,,,,,,,,,,,,,,,,,,,,,,,,,,,,,,,,,603.4935809000162,603.8942876999499,603.877401100006,603.9768687000033,604.3787777000107,None,left,1,0.5701462000142783,604.3787777000107,None,603.877401100006,603.9768687000033,603.9768687000033,None,604.9792858000146,None,,,,,,,11019,001,2024_Jan_05_0935,ANT,2021.2.3,60.161666470511754,
1,23,spatial,down,IC,L,,,,,,Block.xlsx,"你已经完成了整个实验（三个区组）。

请报告实验者已完成实验

非常感谢，再见！",-1.5,0,-1.5,left,RRLRR.png,,,,,0,1,1,1,2,2,50,22,,,,,,,,,,,,,,,,,,,,,,,,,,,,,,,,,,,,,,,,,,,,,,,,,,,,,,,,,,,,,,,,605.3789643999189,605.7820883999811,605.7642557999352,605.8659457999747,606.2654609999154,None,left,1,0.48346320004202425,606.2654609999154,None,605.7642557999352,605.8659457999747,605.8659457999747,None,606.7645550000016,None,,,,,,,11019,001,2024_Jan_05_0935,ANT,2021.2.3,60.161666470511754,
1,7,no,down,IC,L,,,,,,Block.xlsx,"你已经完成了整个实验（三个区组）。

请报告实验者已完成实验

非常感谢，再见！",50,0,-1.5,left,RRLRR.png,,,,,0,1,1,1,2,3,51,6,,,,,,,,,,,,,,,,,,,,,,,,,,,,,,,,,,,,,,,,,,,,,,,,,,,,,,,,,,,,,,,,607.1650089999894,607.567265599966,607.5492460000096,607.649107699981,608.0498772999272,None,left,1,0.5070742999669164,608.0498772999272,None,607.5492460000096,607.649107699981,607.649107699981,None,608.5836734999903,None,,,,,,,11019,001,2024_Jan_05_0935,ANT,2021.2.3,60.161666470511754,
1,18,spatial,up,C,R,,,,,,Block.xlsx,"你已经完成了整个实验（三个区组）。

请报告实验者已完成实验

非常感谢，再见！",1.5,0,1.5,right,RRRRR.png,,,,,0,1,1,1,2,4,52,17,,,,,,,,,,,,,,,,,,,,,,,,,,,,,,,,,,,,,,,,,,,,,,,,,,,,,,,,,,,,,,,,608.9856487999205,609.3861322000157,609.3682023999281,609.4700037000002,609.8689806999173,None,right,1,0.5279145000968128,609.8689806999173,None,609.3682023999281,609.4700037000002,609.4700037000002,None,610.4198325999314,None,,,,,,,11019,001,2024_Jan_05_0935,ANT,2021.2.3,60.161666470511754,
1,18,spatial,up,C,R,,,,,,Block.xlsx,"你已经完成了整个实验（三个区组）。

请报告实验者已完成实验

非常感谢，再见！",1.5,0,1.5,right,RRRRR.png,,,,,0,1,1,1,2,5,53,17,,,,,,,,,,,,,,,,,,,,,,,,,,,,,,,,,,,,,,,,,,,,,,,,,,,,,,,,,,,,,,,,610.8204777999781,611.2231909999391,611.2052852999186,611.3063015999505,611.7058304999955,None,right,1,0.43517460010480136,611.7058304999955,None,611.2052852999186,611.3063015999505,611.3063015999505,None,612.1728990999982,None,,,,,,,11019,001,2024_Jan_05_0935,ANT,2021.2.3,60.161666470511754,
1,8,no,down,IC,R,,,,,,Block.xlsx,"你已经完成了整个实验（三个区组）。

请报告实验者已完成实验

非常感谢，再见！",50,0,-1.5,right,LLRLL.png,,,,,0,1,1,1,2,6,54,7,,,,,,,,,,,,,,,,,,,,,,,,,,,,,,,,,,,,,,,,,,,,,,,,,,,,,,,,,,,,,,,,612.5735847000033,612.9746523000067,612.9572674999945,613.0571296999697,613.4586251999717,None,right,1,0.7384552999865264,613.4586251999717,None,612.9572674999945,613.0571296999697,613.0571296999697,None,614.2254148999928,None,,,,,,,11019,001,2024_Jan_05_0935,ANT,2021.2.3,60.161666470511754,
1,1,no,up,C,L,,,,,,Block.xlsx,"你已经完成了整个实验（三个区组）。

请报告实验者已完成实验

非常感谢，再见！",50,0,1.5,left,LLLLL.png,,,,,0,1,1,1,2,7,55,0,,,,,,,,,,,,,,,,,,,,,,,,,,,,,,,,,,,,,,,,,,,,,,,,,,,,,,,,,,,,,,,,614.6262505999766,615.0281491000205,615.0099309999496,615.1108677999582,615.5111028000247,None,left,1,0.5418595999944955,615.5111028000247,None,615.0099309999496,615.1108677999582,615.1108677999582,None,616.0781464999309,None,,,,,,,11019,001,2024_Jan_05_0935,ANT,2021.2.3,60.161666470511754,
1,10,center,up,C,R,,,,,,Block.xlsx,"你已经完成了整个实验（三个区组）。

请报告实验者已完成实验

非常感谢，再见！",0,50,1.5,right,RRRRR.png,,,,,0,1,1,1,2,8,56,9,,,,,,,,,,,,,,,,,,,,,,,,,,,,,,,,,,,,,,,,,,,,,,,,,,,,,,,,,,,,,,,,616.478761699982,616.8799619999481,616.8646799999988,616.9798730999464,617.3633961000014,None,right,1,0.5217786999419332,617.3633961000014,None,616.8646799999988,616.9798730999464,616.96469719999,None,617.9142075999407,None,,,,,,,11019,001,2024_Jan_05_0935,ANT,2021.2.3,60.161666470511754,
1,15,center,down,IC,L,,,,,,Block.xlsx,"你已经完成了整个实验（三个区组）。

请报告实验者已完成实验

非常感谢，再见！",0,50,-1.5,left,RRLRR.png,,,,,0,1,1,1,2,9,57,14,,,,,,,,,,,,,,,,,,,,,,,,,,,,,,,,,,,,,,,,,,,,,,,,,,,,,,,,,,,,,,,,618.3148181999568,618.7163145999657,618.6999332000269,618.815871299943,619.1997731999727,None,left,1,0.5973989999620244,619.1997731999727,None,618.6999332000269,618.815871299943,618.8005584999919,None,619.8170682999771,None,,,,,,,11019,001,2024_Jan_05_0935,ANT,2021.2.3,60.161666470511754,
1,5,no,down,C,L,,,,,,Block.xlsx,"你已经完成了整个实验（三个区组）。

请报告实验者已完成实验

非常感谢，再见！",50,0,-1.5,left,LLLLL.png,,,,,0,1,1,1,2,10,58,4,,,,,,,,,,,,,,,,,,,,,,,,,,,,,,,,,,,,,,,,,,,,,,,,,,,,,,,,,,,,,,,,620.2175953999395,620.6183320999844,620.6019150000066,620.7018743000226,621.1022318999749,None,left,1,0.45511740003712475,621.1022318999749,None,620.6019150000066,620.7018743000226,620.7018743000226,None,621.5864548999816,None,,,,,,,11019,001,2024_Jan_05_0935,ANT,2021.2.3,60.161666470511754,
1,24,spatial,down,IC,R,,,,,,Block.xlsx,"你已经完成了整个实验（三个区组）。

请报告实验者已完成实验

非常感谢，再见！",-1.5,0,-1.5,right,LLRLL.png,,,,,0,1,1,1,2,11,59,23,,,,,,,,,,,,,,,,,,,,,,,,,,,,,,,,,,,,,,,,,,,,,,,,,,,,,,,,,,,,,,,,621.9870527000166,622.3888639999786,622.3716678000055,622.4718257000204,622.8723617999349,None,right,1,0.6527878999477252,622.8723617999349,None,622.3716678000055,622.4718257000204,622.4718257000204,None,623.5559487999417,None,,,,,,,11019,001,2024_Jan_05_0935,ANT,2021.2.3,60.161666470511754,
1,5,no,down,C,L,,,,,,Block.xlsx,"你已经完成了整个实验（三个区组）。

请报告实验者已完成实验

非常感谢，再见！",50,0,-1.5,left,LLLLL.png,,,,,0,1,1,1,2,12,60,4,,,,,,,,,,,,,,,,,,,,,,,,,,,,,,,,,,,,,,,,,,,,,,,,,,,,,,,,,,,,,,,,623.9567860999377,624.3577023999533,624.3403353999602,624.4414014000213,624.8424917999655,None,left,1,0.5947757000103593,624.8424917999655,None,624.3403353999602,624.4414014000213,624.4414014000213,None,625.4588045999408,None,,,,,,,11019,001,2024_Jan_05_0935,ANT,2021.2.3,60.161666470511754,
1,7,no,down,IC,L,,,,,,Block.xlsx,"你已经完成了整个实验（三个区组）。

请报告实验者已完成实验

非常感谢，再见！",50,0,-1.5,left,RRLRR.png,,,,,0,1,1,1,2,13,61,6,,,,,,,,,,,,,,,,,,,,,,,,,,,,,,,,,,,,,,,,,,,,,,,,,,,,,,,,,,,,,,,,625.86084749992,626.2609211999224,626.243189199944,626.3434142000042,626.7449870000128,None,left,1,0.563980899984017,626.7449870000128,None,626.243189199944,626.3434142000042,626.3434142000042,None,627.328877300024,None,,,,,,,11019,001,2024_Jan_05_0935,ANT,2021.2.3,60.161666470511754,
1,24,spatial,down,IC,R,,,,,,Block.xlsx,"你已经完成了整个实验（三个区组）。

请报告实验者已完成实验

非常感谢，再见！",-1.5,0,-1.5,right,LLRLL.png,,,,,0,1,1,1,2,14,62,23,,,,,,,,,,,,,,,,,,,,,,,,,,,,,,,,,,,,,,,,,,,,,,,,,,,,,,,,,,,,,,,,627.7287647000048,628.1303797999863,628.1124467999907,628.213495099917,628.6139951000223,None,right,1,0.5673919999971986,628.6139951000223,None,628.1124467999907,628.213495099917,628.213495099917,None,629.1973377999384,None,,,,,,,11019,001,2024_Jan_05_0935,ANT,2021.2.3,60.161666470511754,
1,21,spatial,down,C,L,,,,,,Block.xlsx,"你已经完成了整个实验（三个区组）。

请报告实验者已完成实验

非常感谢，再见！",-1.5,0,-1.5,left,LLLLL.png,,,,,0,1,1,1,2,15,63,20,,,,,,,,,,,,,,,,,,,,,,,,,,,,,,,,,,,,,,,,,,,,,,,,,,,,,,,,,,,,,,,,629.5980832999339,629.9993663999485,629.9822095999261,630.0827437000116,630.4826782000018,None,left,1,0.4985780999995768,630.4826782000018,None,629.9822095999261,630.0827437000116,630.0827437000116,None,631.0002700999612,None,,,,,,,11019,001,2024_Jan_05_0935,ANT,2021.2.3,60.161666470511754,
1,2,no,up,C,R,,,,,,Block.xlsx,"你已经完成了整个实验（三个区组）。

请报告实验者已完成实验

非常感谢，再见！",50,0,1.5,right,RRRRR.png,,,,,0,1,1,1,2,16,64,1,,,,,,,,,,,,,,,,,,,,,,,,,,,,,,,,,,,,,,,,,,,,,,,,,,,,,,,,,,,,,,,,631.4013758000219,631.803095899988,631.7848148000194,631.8851866999175,632.2862843999173,None,right,1,0.48677009996026754,632.2862843999173,None,631.7848148000194,631.8851866999175,631.8851866999175,None,632.802992300014,None,,,,,,,11019,001,2024_Jan_05_0935,ANT,2021.2.3,60.161666470511754,
1,13,center,down,C,L,,,,,,Block.xlsx,"你已经完成了整个实验（三个区组）。

请报告实验者已完成实验

非常感谢，再见！",0,50,-1.5,left,LLLLL.png,,,,,0,1,1,1,2,17,65,12,,,,,,,,,,,,,,,,,,,,,,,,,,,,,,,,,,,,,,,,,,,,,,,,,,,,,,,,,,,,,,,,633.203576699947,633.6057291999459,633.5874587999424,633.6880088999169,634.0883073000005,None,left,1,0.4853702000109479,634.0883073000005,None,633.5874587999424,633.6880088999169,633.6880088999169,None,634.5888807999436,None,,,,,,,11019,001,2024_Jan_05_0935,ANT,2021.2.3,60.161666470511754,
1,22,spatial,down,C,R,,,,,,Block.xlsx,"你已经完成了整个实验（三个区组）。

请报告实验者已完成实验

非常感谢，再见！",-1.5,0,-1.5,right,RRRRR.png,,,,,0,1,1,1,2,18,66,21,,,,,,,,,,,,,,,,,,,,,,,,,,,,,,,,,,,,,,,,,,,,,,,,,,,,,,,,,,,,,,,,634.9896068000235,635.3911570999771,635.3734991999809,635.4741221999284,635.8747802999569,None,right,1,0.586198000004515,635.8747802999569,None,635.3734991999809,635.4741221999284,635.4741221999284,None,636.4750473999884,None,,,,,,,11019,001,2024_Jan_05_0935,ANT,2021.2.3,60.161666470511754,
1,6,no,down,C,R,,,,,,Block.xlsx,"你已经完成了整个实验（三个区组）。

请报告实验者已完成实验

非常感谢，再见！",50,0,-1.5,right,RRRRR.png,,,,,0,1,1,1,2,19,67,5,,,,,,,,,,,,,,,,,,,,,,,,,,,,,,,,,,,,,,,,,,,,,,,,,,,,,,,,,,,,,,,,636.8756626999239,637.2764792999951,637.2628740000073,637.3777332999744,637.7612466999562,None,right,1,0.500210199970752,637.7612466999562,None,637.2628740000073,637.3777332999744,637.3602253999561,None,638.2777066000272,None,,,,,,,11019,001,2024_Jan_05_0935,ANT,2021.2.3,60.161666470511754,
1,20,spatial,up,IC,R,,,,,,Block.xlsx,"你已经完成了整个实验（三个区组）。

请报告实验者已完成实验

非常感谢，再见！",1.5,0,1.5,right,LLRLL.png,,,,,0,1,1,1,2,20,68,19,,,,,,,,,,,,,,,,,,,,,,,,,,,,,,,,,,,,,,,,,,,,,,,,,,,,,,,,,,,,,,,,638.6789447999327,639.0798684000038,639.062316800002,639.1629372999305,639.5629898000043,None,right,1,0.5546979999635369,639.5629898000043,None,639.062316800002,639.1629372999305,639.1629372999305,None,640.1474800999276,None,,,,,,,11019,001,2024_Jan_05_0935,ANT,2021.2.3,60.161666470511754,
1,6,no,down,C,R,,,,,,Block.xlsx,"你已经完成了整个实验（三个区组）。

请报告实验者已完成实验

非常感谢，再见！",50,0,-1.5,right,RRRRR.png,,,,,0,1,1,1,2,21,69,5,,,,,,,,,,,,,,,,,,,,,,,,,,,,,,,,,,,,,,,,,,,,,,,,,,,,,,,,,,,,,,,,640.5478339999681,640.9485287999269,640.9323628999991,641.0324549999787,641.433208799921,None,right,1,0.5558899999596179,641.433208799921,None,640.9323628999991,641.0324549999787,641.0324549999787,None,642.0166056000162,None,,,,,,,11019,001,2024_Jan_05_0935,ANT,2021.2.3,60.161666470511754,
1,5,no,down,C,L,,,,,,Block.xlsx,"你已经完成了整个实验（三个区组）。

请报告实验者已完成实验

非常感谢，再见！",50,0,-1.5,left,LLLLL.png,,,,,0,1,1,1,2,22,70,4,,,,,,,,,,,,,,,,,,,,,,,,,,,,,,,,,,,,,,,,,,,,,,,,,,,,,,,,,,,,,,,,642.4170856999699,642.8206250999356,642.8015258000232,642.9020804999163,643.3026028999593,None,left,1,0.5424339999444783,643.3026028999593,None,642.8015258000232,642.9020804999163,642.9020804999163,None,643.8691347999265,None,,,,,,,11019,001,2024_Jan_05_0935,ANT,2021.2.3,60.161666470511754,
1,15,center,down,IC,L,,,,,,Block.xlsx,"你已经完成了整个实验（三个区组）。

请报告实验者已完成实验

非常感谢，再见！",0,50,-1.5,left,RRLRR.png,,,,,0,1,1,1,2,23,71,14,,,,,,,,,,,,,,,,,,,,,,,,,,,,,,,,,,,,,,,,,,,,,,,,,,,,,,,,,,,,,,,,644.2699316999642,644.670633599977,644.6541023999453,644.7550172000192,645.1552672999678,None,left,1,0.5219320999458432,645.1552672999678,None,644.6541023999453,644.7550172000192,644.7550172000192,None,645.706044599996,None,,,,,,,11019,001,2024_Jan_05_0935,ANT,2021.2.3,60.161666470511754,
1,9,center,up,C,L,,,,,,Block.xlsx,"你已经完成了整个实验（三个区组）。

请报告实验者已完成实验

非常感谢，再见！",0,50,1.5,left,LLLLL.png,,,,,0,1,1,1,3,0,72,8,,,,,,,,,,,,,,,,,,,,,,,,,,,,,,,,,,,,,,,,,,,,,,,,,,,,,,,,,,,,,,,,646.106948499917,646.5082806999562,646.4901381999953,646.5901354999514,646.9907320999773,None,left,1,0.5744049000786617,646.9907320999773,None,646.4901381999953,646.5901354999514,646.5901354999514,None,647.5915575999534,None,,,,,,,11019,001,2024_Jan_05_0935,ANT,2021.2.3,60.161666470511754,
1,22,spatial,down,C,R,,,,,,Block.xlsx,"你已经完成了整个实验（三个区组）。

请报告实验者已完成实验

非常感谢，再见！",-1.5,0,-1.5,right,RRRRR.png,,,,,0,1,1,1,3,1,73,21,,,,,,,,,,,,,,,,,,,,,,,,,,,,,,,,,,,,,,,,,,,,,,,,,,,,,,,,,,,,,,,,647.9927740999265,648.393507199944,648.3767681999598,648.4766564000165,648.8780524999602,None,right,1,0.5831027999520302,648.8780524999602,None,648.3767681999598,648.4766564000165,648.4766564000165,None,649.4776977000292,None,,,,,,,11019,001,2024_Jan_05_0935,ANT,2021.2.3,60.161666470511754,
1,6,no,down,C,R,,,,,,Block.xlsx,"你已经完成了整个实验（三个区组）。

请报告实验者已完成实验

非常感谢，再见！",50,0,-1.5,right,RRRRR.png,,,,,0,1,1,1,3,2,74,5,,,,,,,,,,,,,,,,,,,,,,,,,,,,,,,,,,,,,,,,,,,,,,,,,,,,,,,,,,,,,,,,649.8783999999287,650.2810589999426,650.2629969000118,650.3644054000033,650.7634472999489,None,right,1,0.6820989999687299,650.7634472999489,None,650.2629969000118,650.3644054000033,650.3644054000033,None,651.4638863999862,None,,,,,,,11019,001,2024_Jan_05_0935,ANT,2021.2.3,60.161666470511754,
1,4,no,up,IC,R,,,,,,Block.xlsx,"你已经完成了整个实验（三个区组）。

请报告实验者已完成实验

非常感谢，再见！",50,0,1.5,right,LLRLL.png,,,,,0,1,1,1,3,3,75,3,,,,,,,,,,,,,,,,,,,,,,,,,,,,,,,,,,,,,,,,,,,,,,,,,,,,,,,,,,,,,,,,651.8654223999474,652.2661461000098,652.2501367999939,652.3486354999477,652.7497933999402,None,right,1,0.5512147999834269,652.7497933999402,None,652.2501367999939,652.3486354999477,652.3486354999477,None,653.3166234999662,None,,,,,,,11019,001,2024_Jan_05_0935,ANT,2021.2.3,60.161666470511754,
1,1,no,up,C,L,,,,,,Block.xlsx,"你已经完成了整个实验（三个区组）。

请报告实验者已完成实验

非常感谢，再见！",50,0,1.5,left,LLLLL.png,,,,,0,1,1,1,3,4,76,0,,,,,,,,,,,,,,,,,,,,,,,,,,,,,,,,,,,,,,,,,,,,,,,,,,,,,,,,,,,,,,,,653.7173092999728,654.1181542000268,654.1031522999983,654.2198686000193,654.6032677999465,None,left,1,0.5137524999445304,654.6032677999465,None,654.1031522999983,654.2198686000193,654.2020323999459,None,655.1363312000176,None,,,,,,,11019,001,2024_Jan_05_0935,ANT,2021.2.3,60.161666470511754,
1,8,no,down,IC,R,,,,,,Block.xlsx,"你已经完成了整个实验（三个区组）。

请报告实验者已完成实验

非常感谢，再见！",50,0,-1.5,right,LLRLL.png,,,,,0,1,1,1,3,5,77,7,,,,,,,,,,,,,,,,,,,,,,,,,,,,,,,,,,,,,,,,,,,,,,,,,,,,,,,,,,,,,,,,655.5367325999541,655.9378681000089,655.92125819996,656.0206606999272,656.4217802999774,None,right,1,0.6717006000690162,656.4217802999774,None,655.92125819996,656.0206606999272,656.0206606999272,None,657.1223388999933,None,,,,,,,11019,001,2024_Jan_05_0935,ANT,2021.2.3,60.161666470511754,
1,24,spatial,down,IC,R,,,,,,Block.xlsx,"你已经完成了整个实验（三个区组）。

请报告实验者已完成实验

非常感谢，再见！",-1.5,0,-1.5,right,LLRLL.png,,,,,0,1,1,1,3,6,78,23,,,,,,,,,,,,,,,,,,,,,,,,,,,,,,,,,,,,,,,,,,,,,,,,,,,,,,,,,,,,,,,,657.5234528000001,657.9258831000188,657.9074358999496,658.0087025000248,658.408083199989,None,right,1,0.6769081999082118,658.408083199989,None,657.9074358999496,658.0087025000248,658.0087025000248,None,659.1085780999856,None,,,,,,,11019,001,2024_Jan_05_0935,ANT,2021.2.3,60.161666470511754,
1,19,spatial,up,IC,L,,,,,,Block.xlsx,"你已经完成了整个实验（三个区组）。

请报告实验者已完成实验

非常感谢，再见！",1.5,0,1.5,left,RRLRR.png,,,,,0,1,1,1,3,7,79,18,,,,,,,,,,,,,,,,,,,,,,,,,,,,,,,,,,,,,,,,,,,,,,,,,,,,,,,,,,,,,,,,659.5092993000289,659.9111157999141,659.8931847999338,659.994515899918,660.395023399964,None,left,1,0.5540850999532267,660.395023399964,None,659.8931847999338,659.994515899918,659.994515899918,None,660.9781352999853,None,,,,,,,11019,001,2024_Jan_05_0935,ANT,2021.2.3,60.161666470511754,
1,22,spatial,down,C,R,,,,,,Block.xlsx,"你已经完成了整个实验（三个区组）。

请报告实验者已完成实验

非常感谢，再见！",-1.5,0,-1.5,right,RRRRR.png,,,,,0,1,1,1,3,8,80,21,,,,,,,,,,,,,,,,,,,,,,,,,,,,,,,,,,,,,,,,,,,,,,,,,,,,,,,,,,,,,,,,661.3791987999575,661.7799896999495,661.7626364999451,661.8630098999711,662.2632435000269,None,right,1,0.5181081000482664,662.2632435000269,None,661.7626364999451,661.8630098999711,661.8630098999711,None,662.7973444999661,None,,,,,,,11019,001,2024_Jan_05_0935,ANT,2021.2.3,60.161666470511754,
1,21,spatial,down,C,L,,,,,,Block.xlsx,"你已经完成了整个实验（三个区组）。

请报告实验者已完成实验

非常感谢，再见！",-1.5,0,-1.5,left,LLLLL.png,,,,,0,1,1,1,3,9,81,20,,,,,,,,,,,,,,,,,,,,,,,,,,,,,,,,,,,,,,,,,,,,,,,,,,,,,,,,,,,,,,,,663.1982233999297,663.5990130000282,663.5825479999185,663.6832155999728,664.0825944999233,None,left,1,0.499179600039497,664.0825944999233,None,663.5825479999185,663.6832155999728,663.6832155999728,None,664.6000627999892,None,,,,,,,11019,001,2024_Jan_05_0935,ANT,2021.2.3,60.161666470511754,
1,7,no,down,IC,L,,,,,,Block.xlsx,"你已经完成了整个实验（三个区组）。

请报告实验者已完成实验

非常感谢，再见！",50,0,-1.5,left,RRLRR.png,,,,,0,1,1,1,3,10,82,6,,,,,,,,,,,,,,,,,,,,,,,,,,,,,,,,,,,,,,,,,,,,,,,,,,,,,,,,,,,,,,,,665.0007396999281,665.4021049999865,665.387003300013,665.5037295999937,665.8860412000213,None,left,1,0.5349371000193059,665.8860412000213,None,665.387003300013,665.5037295999937,665.4858944999287,None,666.453012199956,None,,,,,,,11019,001,2024_Jan_05_0935,ANT,2021.2.3,60.161666470511754,
1,1,no,up,C,L,,,,,,Block.xlsx,"你已经完成了整个实验（三个区组）。

请报告实验者已完成实验

非常感谢，再见！",50,0,1.5,left,LLLLL.png,,,,,0,1,1,1,3,11,83,0,,,,,,,,,,,,,,,,,,,,,,,,,,,,,,,,,,,,,,,,,,,,,,,,,,,,,,,,,,,,,,,,666.8533012999687,667.255078200018,667.2373227999778,667.3382637000177,667.7388625999447,None,left,1,0.5062964999815449,667.7388625999447,None,667.2373227999778,667.3382637000177,667.3382637000177,None,668.2720253999578,None,,,,,,,11019,001,2024_Jan_05_0935,ANT,2021.2.3,60.161666470511754,
1,6,no,down,C,R,,,,,,Block.xlsx,"你已经完成了整个实验（三个区组）。

请报告实验者已完成实验

非常感谢，再见！",50,0,-1.5,right,RRRRR.png,,,,,0,1,1,1,3,12,84,5,,,,,,,,,,,,,,,,,,,,,,,,,,,,,,,,,,,,,,,,,,,,,,,,,,,,,,,,,,,,,,,,668.6736539999256,669.0734434999758,669.0582977000158,669.1575605999678,669.5575853999471,None,right,1,0.6641638999572024,669.5575853999471,None,669.0582977000158,669.1575605999678,669.1575605999678,None,670.2417817999376,None,,,,,,,11019,001,2024_Jan_05_0935,ANT,2021.2.3,60.161666470511754,
1,16,center,down,IC,R,,,,,,Block.xlsx,"你已经完成了整个实验（三个区组）。

请报告实验者已完成实验

非常感谢，再见！",0,50,-1.5,right,LLRLL.png,,,,,0,1,1,1,3,13,85,15,,,,,,,,,,,,,,,,,,,,,,,,,,,,,,,,,,,,,,,,,,,,,,,,,,,,,,,,,,,,,,,,670.6435716999695,671.0441412000218,671.0260747999419,671.1271769999294,671.5270185000263,None,right,1,0.6542492000153288,671.5270185000263,None,671.0260747999419,671.1271769999294,671.1271769999294,None,672.2115687999176,None,,,,,,,11019,001,2024_Jan_05_0935,ANT,2021.2.3,60.161666470511754,
1,12,center,up,IC,R,,,,,,Block.xlsx,"你已经完成了整个实验（三个区组）。

请报告实验者已完成实验

非常感谢，再见！",0,50,1.5,right,LLRLL.png,,,,,0,1,1,1,3,14,86,11,,,,,,,,,,,,,,,,,,,,,,,,,,,,,,,,,,,,,,,,,,,,,,,,,,,,,,,,,,,,,,,,672.6120383000234,673.0133824999211,672.9967320000287,673.0964852999896,673.4975046999753,None,right,1,0.5800615000771359,673.4975046999753,None,672.9967320000287,673.0964852999896,673.0964852999896,None,674.0975719999988,None,,,,,,,11019,001,2024_Jan_05_0935,ANT,2021.2.3,60.161666470511754,
1,17,spatial,up,C,L,,,,,,Block.xlsx,"你已经完成了整个实验（三个区组）。

请报告实验者已完成实验

非常感谢，再见！",1.5,0,1.5,left,LLLLL.png,,,,,0,1,1,1,3,15,87,16,,,,,,,,,,,,,,,,,,,,,,,,,,,,,,,,,,,,,,,,,,,,,,,,,,,,,,,,,,,,,,,,674.4989691999508,674.8999267999316,674.8819760999177,674.982831500005,675.3837058999343,None,left,1,0.517416900023818,675.3837058999343,None,674.8819760999177,674.982831500005,674.982831500005,None,675.916809599963,None,,,,,,,11019,001,2024_Jan_05_0935,ANT,2021.2.3,60.161666470511754,
1,14,center,down,C,R,,,,,,Block.xlsx,"你已经完成了整个实验（三个区组）。

请报告实验者已完成实验

非常感谢，再见！",0,50,-1.5,right,RRRRR.png,,,,,0,1,1,1,3,16,88,13,,,,,,,,,,,,,,,,,,,,,,,,,,,,,,,,,,,,,,,,,,,,,,,,,,,,,,,,,,,,,,,,676.3175485000247,676.7187604999635,676.7020295999246,676.8014701999491,677.2027178999269,None,right,1,0.5143458000384271,677.2027178999269,None,676.7020295999246,676.8014701999491,676.8014701999491,None,677.7362630999414,None,,,,,,,11019,001,2024_Jan_05_0935,ANT,2021.2.3,60.161666470511754,
1,17,spatial,up,C,L,,,,,,Block.xlsx,"你已经完成了整个实验（三个区组）。

请报告实验者已完成实验

非常感谢，再见！",1.5,0,1.5,left,LLLLL.png,,,,,0,1,1,1,3,17,89,16,,,,,,,,,,,,,,,,,,,,,,,,,,,,,,,,,,,,,,,,,,,,,,,,,,,,,,,,,,,,,,,,678.1374721999746,678.5389763999265,678.520715599996,678.6212988999905,679.0214592999546,None,left,1,0.5036939999554306,679.0214592999546,None,678.520715599996,678.6212988999905,678.6212988999905,None,679.5556926999707,None,,,,,,,11019,001,2024_Jan_05_0935,ANT,2021.2.3,60.161666470511754,
1,17,spatial,up,C,L,,,,,,Block.xlsx,"你已经完成了整个实验（三个区组）。

请报告实验者已完成实验

非常感谢，再见！",1.5,0,1.5,left,LLLLL.png,,,,,0,1,1,1,3,18,90,16,,,,,,,,,,,,,,,,,,,,,,,,,,,,,,,,,,,,,,,,,,,,,,,,,,,,,,,,,,,,,,,,679.9561620999593,680.3579222999979,680.3401962999487,680.4420536999824,680.8427598000271,None,left,1,0.4663155999733135,680.8427598000271,None,680.3401962999487,680.4420536999824,680.4420536999824,None,681.3247512999224,None,,,,,,,11019,001,2024_Jan_05_0935,ANT,2021.2.3,60.161666470511754,
1,19,spatial,up,IC,L,,,,,,Block.xlsx,"你已经完成了整个实验（三个区组）。

请报告实验者已完成实验

非常感谢，再见！",1.5,0,1.5,left,RRLRR.png,,,,,0,1,1,1,3,19,91,18,,,,,,,,,,,,,,,,,,,,,,,,,,,,,,,,,,,,,,,,,,,,,,,,,,,,,,,,,,,,,,,,681.725429699989,682.1266405999195,682.109476899961,682.2102509000106,682.6107852000277,None,left,1,0.6582568000303581,682.6107852000277,None,682.109476899961,682.2102509000106,682.2102509000106,None,683.2942457000026,None,,,,,,,11019,001,2024_Jan_05_0935,ANT,2021.2.3,60.161666470511754,
1,11,center,up,IC,L,,,,,,Block.xlsx,"你已经完成了整个实验（三个区组）。

请报告实验者已完成实验

非常感谢，再见！",0,50,1.5,left,RRLRR.png,,,,,0,1,1,1,3,20,92,10,,,,,,,,,,,,,,,,,,,,,,,,,,,,,,,,,,,,,,,,,,,,,,,,,,,,,,,,,,,,,,,,683.6950401000213,684.0960047999397,684.0790007999167,684.180203899974,684.5804013999877,None,left,1,0.43311930005438626,684.5804013999877,None,684.0790007999167,684.180203899974,684.180203899974,None,685.0306006999454,None,,,,,,,11019,001,2024_Jan_05_0935,ANT,2021.2.3,60.161666470511754,
1,4,no,up,IC,R,,,,,,Block.xlsx,"你已经完成了整个实验（三个区组）。

请报告实验者已完成实验

