TrialType,TrialNumber,WarningType,TargetType,FlankerType,TargetDirection,W,f,Y,corr,imageFile,condition,endtext,Yw,Yf,Yt,Corr,imagefile,trials_3.thisRepN,trials_3.thisTrialN,trials_3.thisN,trials_3.thisIndex,trials_2.thisRepN,trials_2.thisTrialN,trials_2.thisN,trials_2.thisIndex,trials.thisRepN,trials.thisTrialN,trials.thisN,trials.thisIndex,instr.started,instr.stopped,key_resp.keys,key_resp.rt,key_resp.started,key_resp.stopped,image.started,image.stopped,key_resp_6.keys,key_resp_6.rt,key_resp_6.started,key_resp_6.stopped,EX_L.started,EX_L.stopped,AL.started,AL.stopped,key_resp_7.keys,key_resp_7.rt,key_resp_7.started,key_resp_7.stopped,EX_R.started,EX_R.stopped,RR.started,RR.stopped,key_resp_8.keys,key_resp_8.rt,key_resp_8.started,key_resp_8.stopped,image_2.started,image_2.stopped,key_resp_9.keys,key_resp_9.rt,key_resp_9.started,key_resp_9.stopped,image_3.started,image_3.stopped,key_resp_10.keys,key_resp_10.rt,key_resp_10.started,key_resp_10.stopped,fix.started,fix.stopped,war.started,war.stopped,tar.started,tar.stopped,key_resp_4.keys,key_resp_4.corr,key_resp_4.rt,key_resp_4.started,key_resp_4.stopped,fix2.started,fix2.stopped,fix_2.started,fix_2.stopped,Feedback.started,Feedback.stopped,text.started,text.stopped,key_resp_11.keys,key_resp_11.rt,key_resp_11.started,key_resp_11.stopped,key_resp_2.keys,key_resp_2.rt,key_resp_2.started,key_resp_2.stopped,text_5.started,text_5.stopped,fix2_1.started,fix2_1.stopped,Warn.started,Warn.stopped,Tar.started,Tar.stopped,key_resp_5.keys,key_resp_5.corr,key_resp_5.rt,key_resp_5.started,key_resp_5.stopped,Fix_2.started,Fix_2.stopped,fix2_2.started,fix2_2.stopped,text_4.started,text_4.stopped,key_resp_3.keys,key_resp_3.rt,key_resp_3.started,key_resp_3.stopped,text_3.started,text_3.stopped,participant,session,date,expName,psychopyVersion,frameRate,
,,,,,,,,,,,,,,,,,,,,,,,,,,,,,,9.705053000012413,None,space,21.88659239996923,9.705053000012413,None,,,,,,,,,,,,,,,,,,,,,,,,,,,,,,,,,,,,,,,,,,,,,,,,,,,,,,,,,,,,,,,,,,,,,,,,,,,,,,,,,,,,,,,11011,001,2024_Jan_02_1023,ANT,2021.2.3,60.19041839308691,
,,,,,,,,,,,,,,,,,,,,,,,,,,,,,,,,,,,,31.62036659999285,None,space,2.083866900007706,31.62036659999285,None,,,,,,,,,,,,,,,,,,,,,,,,,,,,,,,,,,,,,,,,,,,,,,,,,,,,,,,,,,,,,,,,,,,,,,,,,,,,,,,,,11011,001,2024_Jan_02_1023,ANT,2021.2.3,60.19041839308691,
,,,,,,,,,,,,,,,,,,,,,,,,,,,,,,,,,,,,,,,,,,33.72409819997847,None,33.72409819997847,None,left,1.3237699000164866,33.72409819997847,None,,,,,,,,,,,,,,,,,,,,,,,,,,,,,,,,,,,,,,,,,,,,,,,,,,,,,,,,,,,,,,,,,,,,,,,,,11011,001,2024_Jan_02_1023,ANT,2021.2.3,60.19041839308691,
,,,,,,,,,,,,,,,,,,,,,,,,,,,,,,,,,,,,,,,,,,,,,,,,,,35.07542840001406,None,35.07542840001406,None,right,3.7962165999924764,35.07542840001406,None,,,,,,,,,,,,,,,,,,,,,,,,,,,,,,,,,,,,,,,,,,,,,,,,,,,,,,,,,,,,,,,,,11011,001,2024_Jan_02_1023,ANT,2021.2.3,60.19041839308691,
,,,,,,,,,,,,,,,,,,,,,,,,,,,,,,,,,,,,,,,,,,,,,,,,,,,,,,,,,,38.89845539996168,None,space,51.38977309997426,38.89845539996168,None,,,,,,,,,,,,,,,,,,,,,,,,,,,,,,,,,,,,,,,,,,,,,,,,,,,,,,,,,,,11011,001,2024_Jan_02_1023,ANT,2021.2.3,60.19041839308691,
,,,,,,,,,,,,,,,,,,,,,,,,,,,,,,,,,,,,,,,,,,,,,,,,,,,,,,,,,,,,,,,,90.30736259999685,None,space,9.04504909995012,90.30736259999685,None,,,,,,,,,,,,,,,,,,,,,,,,,,,,,,,,,,,,,,,,,,,,,,,,,,,,,11011,001,2024_Jan_02_1023,ANT,2021.2.3,60.19041839308691,
0,8,center,down,IC,L,0,50,-1.5,left,RRLRR.png,,,,,,,,0,0,0,7,,,,,,,,,,,,,,,,,,,,,,,,,,,,,,,,,,,,,,,,,,,,,,,,,99.43697310000425,99.83796109998366,99.82196410000324,99.92162219999591,100.32422279997263,None,left,1,0.9959176999982446,100.32422279997263,None,99.82196410000324,99.92162219999591,99.93924959999276,None,101.35797479999019,None,,,,,,,,,,,,,,,,,,,,,,,,,,,,,,,,,,,,11011,001,2024_Jan_02_1023,ANT,2021.2.3,60.19041839308691,
0,5,center,up,C,L,0,50,1.5,left,LLLLL.png,,,,,,,,0,1,1,4,,,,,,,,,,,,,,,,,,,,,,,,,,,,,,,,,,,,,,,,,,,,,,,,,103.35990999999922,103.76116970001021,103.745499200013,103.8615601999918,104.24533030000748,None,left,1,0.6102913999930024,104.24533030000748,None,103.745499200013,103.8615601999918,103.84398669999791,None,104.87876330001745,None,,,,,,,,,,,,,,,,,,,,,,,,,,,,,,,,,,,,11011,001,2024_Jan_02_1023,ANT,2021.2.3,60.19041839308691,
0,12,spatial,down,IC,R,-1.5,0,-1.5,right,LLRLL.png,,,,,,,,0,2,2,11,,,,,,,,,,,,,,,,,,,,,,,,,,,,,,,,,,,,,,,,,,,,,,,,,106.8819411000004,107.28338969999459,107.26648449996719,107.36651959997835,107.76724549999926,None,right,1,0.681139099993743,107.76724549999926,None,107.26648449996719,107.36651959997835,107.36651959997835,None,108.46739150001667,None,,,,,,,,,,,,,,,,,,,,,,,,,,,,,,,,,,,,11011,001,2024_Jan_02_1023,ANT,2021.2.3,60.19041839308691,
0,9,spatial,up,C,R,1.5,0,1.5,right,RRRRR.png,,,,,,,,0,3,3,8,,,,,,,,,,,,,,,,,,,,,,,,,,,,,,,,,,,,,,,,,,,,,,,,,110.47152789996471,110.87236219999613,110.85592200001702,110.95557059999555,111.3557976000011,None,right,1,0.5881625000038184,111.3557976000011,None,110.85592200001702,110.95557059999555,110.95557059999555,None,111.97265770001104,None,,,,,,,,,,,,,,,,,,,,,,,,,,,,,,,,,,,,11011,001,2024_Jan_02_1023,ANT,2021.2.3,60.19041839308691,
0,4,no,down,IC,L,50,0,-1.5,left,RRLRR.png,,,,,,,,0,4,4,3,,,,,,,,,,,,,,,,,,,,,,,,,,,,,,,,,,,,,,,,,,,,,,,,,113.97702719998779,114.37699079996673,114.36099399998784,114.4604761999799,114.86117009998998,None,left,1,0.7307755000074394,114.86117009998998,None,114.36099399998784,114.4604761999799,114.4604761999799,None,115.61125869996613,None,,,,,,,,,,,,,,,,,,,,,,,,,,,,,,,,,,,,11011,001,2024_Jan_02_1023,ANT,2021.2.3,60.19041839308691,
0,6,center,up,IC,R,0,50,1.5,right,LLRLL.png,,,,,,,,0,5,5,5,,,,,,,,,,,,,,,,,,,,,,,,,,,,,,,,,,,,,,,,,,,,,,,,,117.61437550000846,118.01501959998859,117.99999260000186,118.09915009996621,118.49981359997764,None,right,1,0.6690301999915391,118.49981359997764,None,117.99999260000186,118.09915009996621,118.09915009996621,None,119.20063300000038,None,,,,,,,,,,,,,,,,,,,,,,,,,,,,,,,,,,,,11011,001,2024_Jan_02_1023,ANT,2021.2.3,60.19041839308691,
0,2,no,up,IC,R,50,0,1.5,right,LLRLL.png,,,,,,,,0,6,6,1,,,,,,,,,,,,,,,,,,,,,,,,,,,,,,,,,,,,,,,,,,,,,,,,,121.20394969999325,121.60475220001535,121.58771489997162,121.68820510001387,122.08896690001711,None,right,1,0.6868506000027992,122.08896690001711,None,121.58771489997162,121.68820510001387,121.68820510001387,None,122.80564159998903,None,,,,,,,,,,,,,,,,,,,,,,,,,,,,,,,,,,,,11011,001,2024_Jan_02_1023,ANT,2021.2.3,60.19041839308691,
0,1,no,up,C,L,50,0,1.5,left,LLLLL.png,,,,,,,,0,7,7,0,,,,,,,,,,,,,,,,,,,,,,,,,,,,,,,,,,,,,,,,,,,,,,,,,124.80855630000588,125.20964259997709,125.19311399996514,125.2928742999793,125.69396750000305,None,left,1,0.6100964000215754,125.69396750000305,None,125.19311399996514,125.2928742999793,125.2928742999793,None,126.3272954999702,None,,,,,,,,,,,,,,,,,,,,,,,,,,,,,,,,,,,,11011,001,2024_Jan_02_1023,ANT,2021.2.3,60.19041839308691,
0,3,no,down,C,R,50,0,-1.5,right,RRRRR.png,,,,,,,,0,8,8,2,,,,,,,,,,,,,,,,,,,,,,,,,,,,,,,,,,,,,,,,,,,,,,,,,128.33108629996423,128.73131180001656,128.7161727999919,128.81554949999554,129.21498210000573,None,right,1,0.5292256000102498,129.21498210000573,None,128.7161727999919,128.81554949999554,128.81554949999554,None,129.7657069999841,None,,,,,,,,,,,,,,,,,,,,,,,,,,,,,,,,,,,,11011,001,2024_Jan_02_1023,ANT,2021.2.3,60.19041839308691,
0,10,spatial,up,IC,L,1.5,0,1.5,left,RRLRR.png,,,,,,,,0,9,9,9,,,,,,,,,,,,,,,,,,,,,,,,,,,,,,,,,,,,,,,,,,,,,,,,,131.76877719996264,132.16971350001404,132.15419119998114,132.27163299999665,132.65513859997736,None,left,1,0.513089400017634,132.65513859997736,None,132.15419119998114,132.27163299999665,132.25289249996422,None,133.1875313000055,None,,,,,,,,,,,,,,,,,,,,,,,,,,,,,,,,,,,,11011,001,2024_Jan_02_1023,ANT,2021.2.3,60.19041839308691,
0,11,spatial,down,C,L,-1.5,0,-1.5,left,LLLLL.png,,,,,,,,0,10,10,10,,,,,,,,,,,,,,,,,,,,,,,,,,,,,,,,,,,,,,,,,,,,,,,,,135.19137329998193,135.59311670000898,135.5754195000045,135.67609500000253,136.07586410001386,None,left,1,0.5324837000225671,136.07586410001386,None,135.5754195000045,135.67609500000253,135.67609500000253,None,136.6265411999775,None,,,,,,,,,,,,,,,,,,,,,,,,,,,,,,,,,,,,11011,001,2024_Jan_02_1023,ANT,2021.2.3,60.19041839308691,
0,7,center,down,C,R,0,50,-1.5,right,RRRRR.png,,,,,,,,0,11,11,6,,,,,,,,,,,,,,,,,,,,,,,,,,,,,,,,,,,,,,,,,,,,,,,,,138.6296368999756,139.0304548999993,139.01364309998462,139.1133220999618,139.51418629998807,None,right,1,0.6380427000112832,139.51418629998807,None,139.01364309998462,139.1133220999618,139.1133220999618,None,140.18094809999457,None,,,,,,,,,,,,,,,,,,,,,,,,,,,,,,,,,,,,11011,001,2024_Jan_02_1023,ANT,2021.2.3,60.19041839308691,
,,,,,,,,,,,,,,,,,,,,,,,,,,,,,,,,,,,,,,,,,,,,,,,,,,,,,,,,,,,,,,,,,,,,,,,,,,,,,,,,,,,,,,,142.20188949996373,None,space,3.309955699951388,142.20188949996373,None,,,,,,,,,,,,,,,,,,,,,,,,,,,,,,11011,001,2024_Jan_02_1023,ANT,2021.2.3,60.19041839308691,
,,,,,,,,,,,,,,,,,,,,,,,,,,,,,,,,,,,,,,,,,,,,,,,,,,,,,,,,,,,,,,,,,,,,,,,,,,,,,,,,,,,,,,,,,,,,,space,6.749003900040407,145.53921690001152,None,,,,,,,,,,,,,,,,,,,,,,,,,,11011,001,2024_Jan_02_1023,ANT,2021.2.3,60.19041839308691,
1,12,center,up,IC,R,,,,,,Block.xlsx,"你已经完成了第一个实验区组

请稍作休息


点击空格键进入下一个区组。",0,50,1.5,right,LLRLL.png,,,,,0,0,0,0,0,0,0,11,,,,,,,,,,,,,,,,,,,,,,,,,,,,,,,,,,,,,,,,,,,,,,,,,,,,,,,,,,,,,,,,,,,,145.53921690001152,None,152.35019759996794,152.75057370000286,152.73394910001662,152.83600070001557,153.23502610001015,None,right,1,0.5888799999956973,153.23502610001015,None,152.73394910001662,152.83600070001557,152.83600070001557,None,153.85161720000906,None,,,,,,,11011,001,2024_Jan_02_1023,ANT,2021.2.3,60.19041839308691,
1,14,center,down,C,R,,,,,,Block.xlsx,"你已经完成了第一个实验区组

请稍作休息


点击空格键进入下一个区组。",0,50,-1.5,right,RRRRR.png,,,,,0,0,0,0,0,1,1,13,,,,,,,,,,,,,,,,,,,,,,,,,,,,,,,,,,,,,,,,,,,,,,,,,,,,,,,,,,,,,,,,,,,,,,154.25285639998037,154.65299169998616,154.63795150001533,154.736901199969,155.13740959996358,None,right,1,0.44675249996362254,155.13740959996358,None,154.63795150001533,154.736901199969,154.736901199969,None,155.60394669999368,None,,,,,,,11011,001,2024_Jan_02_1023,ANT,2021.2.3,60.19041839308691,
1,15,center,down,IC,L,,,,,,Block.xlsx,"你已经完成了第一个实验区组

请稍作休息


点击空格键进入下一个区组。",0,50,-1.5,left,RRLRR.png,,,,,0,0,0,0,0,2,2,14,,,,,,,,,,,,,,,,,,,,,,,,,,,,,,,,,,,,,,,,,,,,,,,,,,,,,,,,,,,,,,,,,,,,,,156.00550869997824,156.40699059999315,156.38926580001134,156.48982799996156,156.89045299997088,None,left,1,0.5732613999862224,156.89045299997088,None,156.38926580001134,156.48982799996156,156.48982799996156,None,157.49018919997616,None,,,,,,,11011,001,2024_Jan_02_1023,ANT,2021.2.3,60.19041839308691,
1,18,spatial,up,C,R,,,,,,Block.xlsx,"你已经完成了第一个实验区组

请稍作休息


点击空格键进入下一个区组。",1.5,0,1.5,right,RRRRR.png,,,,,0,0,0,0,0,3,3,17,,,,,,,,,,,,,,,,,,,,,,,,,,,,,,,,,,,,,,,,,,,,,,,,,,,,,,,,,,,,,,,,,,,,,,157.89145749999443,158.29232389997924,158.27514340000926,158.37486499996157,158.77623419999145,None,right,1,0.43198739999206737,158.77623419999145,None,158.27514340000926,158.37486499996157,158.37486499996157,None,159.22643919999246,None,,,,,,,11011,001,2024_Jan_02_1023,ANT,2021.2.3,60.19041839308691,
1,21,spatial,down,C,L,,,,,,Block.xlsx,"你已经完成了第一个实验区组

请稍作休息


点击空格键进入下一个区组。",-1.5,0,-1.5,left,LLLLL.png,,,,,0,0,0,0,0,4,4,20,,,,,,,,,,,,,,,,,,,,,,,,,,,,,,,,,,,,,,,,,,,,,,,,,,,,,,,,,,,,,,,,,,,,,,159.62672040000325,160.02680079999845,160.0112150000059,160.11266350001097,160.51184779999312,None,left,1,0.5041468000272289,160.51184779999312,None,160.0112150000059,160.11266350001097,160.11266350001097,None,161.04539759998443,None,,,,,,,11011,001,2024_Jan_02_1023,ANT,2021.2.3,60.19041839308691,
1,19,spatial,up,IC,L,,,,,,Block.xlsx,"你已经完成了第一个实验区组

请稍作休息


点击空格键进入下一个区组。",1.5,0,1.5,left,RRLRR.png,,,,,0,0,0,0,0,5,5,18,,,,,,,,,,,,,,,,,,,,,,,,,,,,,,,,,,,,,,,,,,,,,,,,,,,,,,,,,,,,,,,,,,,,,,161.44693789997837,161.84763819997897,161.83066989999497,161.93098299996927,162.33158870000625,None,left,1,0.580824600008782,162.33158870000625,None,161.83066989999497,161.93098299996927,161.93098299996927,None,162.93152689997805,None,,,,,,,11011,001,2024_Jan_02_1023,ANT,2021.2.3,60.19041839308691,
1,6,no,down,C,R,,,,,,Block.xlsx,"你已经完成了第一个实验区组

请稍作休息


点击空格键进入下一个区组。",50,0,-1.5,right,RRRRR.png,,,,,0,0,0,0,0,6,6,5,,,,,,,,,,,,,,,,,,,,,,,,,,,,,,,,,,,,,,,,,,,,,,,,,,,,,,,,,,,,,,,,,,,,,,163.33319219999248,163.73324709996814,163.71664870000677,163.81851630000165,164.21844669996062,None,right,1,0.5498077999800444,164.21844669996062,None,163.71664870000677,163.81851630000165,163.81851630000165,None,164.78535799996462,None,,,,,,,11011,001,2024_Jan_02_1023,ANT,2021.2.3,60.19041839308691,
1,16,center,down,IC,R,,,,,,Block.xlsx,"你已经完成了第一个实验区组

请稍作休息


点击空格键进入下一个区组。",0,50,-1.5,right,LLRLL.png,,,,,0,0,0,0,0,7,7,15,,,,,,,,,,,,,,,,,,,,,,,,,,,,,,,,,,,,,,,,,,,,,,,,,,,,,,,,,,,,,,,,,,,,,,165.18505329999607,165.5873883999884,165.569443699962,165.67023190000327,166.07086139998864,None,left,0,0.4729607999906875,166.07086139998864,None,165.569443699962,165.67023190000327,165.67023190000327,None,166.5710278999759,None,,,,,,,11011,001,2024_Jan_02_1023,ANT,2021.2.3,60.19041839308691,
1,1,no,up,C,L,,,,,,Block.xlsx,"你已经完成了第一个实验区组

请稍作休息


点击空格键进入下一个区组。",50,0,1.5,left,LLLLL.png,,,,,0,0,0,0,0,8,8,0,,,,,,,,,,,,,,,,,,,,,,,,,,,,,,,,,,,,,,,,,,,,,,,,,,,,,,,,,,,,,,,,,,,,,,166.97113349998835,167.37205279996851,167.3555323999608,167.45596210000804,167.8562435999629,None,left,1,0.6003677999833599,167.8562435999629,None,167.3555323999608,167.45596210000804,167.45596210000804,None,168.47313990001567,None,,,,,,,11011,001,2024_Jan_02_1023,ANT,2021.2.3,60.19041839308691,
1,8,no,down,IC,R,,,,,,Block.xlsx,"你已经完成了第一个实验区组

请稍作休息


点击空格键进入下一个区组。",50,0,-1.5,right,LLRLL.png,,,,,0,0,0,0,0,9,9,7,,,,,,,,,,,,,,,,,,,,,,,,,,,,,,,,,,,,,,,,,,,,,,,,,,,,,,,,,,,,,,,,,,,,,,168.87441119999858,169.27445779996924,169.25833219999913,169.35866699996404,169.75982400000794,None,right,1,0.5679141000146046,169.75982400000794,None,169.25833219999913,169.35866699996404,169.35866699996404,None,170.35932360001607,None,,,,,,,11011,001,2024_Jan_02_1023,ANT,2021.2.3,60.19041839308691,
1,18,spatial,up,C,R,,,,,,Block.xlsx,"你已经完成了第一个实验区组

请稍作休息


点击空格键进入下一个区组。",1.5,0,1.5,right,RRRRR.png,,,,,0,0,0,0,0,10,10,17,,,,,,,,,,,,,,,,,,,,,,,,,,,,,,,,,,,,,,,,,,,,,,,,,,,,,,,,,,,,,,,,,,,,,,170.76067909999983,171.16134729998885,171.1444812999689,171.24456789996475,171.6453129000147,None,right,1,0.4585450000013225,171.6453129000147,None,171.1444812999689,171.24456789996475,171.24456789996475,None,172.1285768999951,None,,,,,,,11011,001,2024_Jan_02_1023,ANT,2021.2.3,60.19041839308691,
1,7,no,down,IC,L,,,,,,Block.xlsx,"你已经完成了第一个实验区组

请稍作休息


点击空格键进入下一个区组。",50,0,-1.5,left,RRLRR.png,,,,,0,0,0,0,0,11,11,6,,,,,,,,,,,,,,,,,,,,,,,,,,,,,,,,,,,,,,,,,,,,,,,,,,,,,,,,,,,,,,,,,,,,,,172.52926899999147,172.93001830001594,172.91510909999488,173.01408140000422,173.41412089997903,None,left,1,0.5301362000172958,173.41412089997903,None,172.91510909999488,173.01408140000422,173.01408140000422,None,173.96459079999477,None,,,,,,,11011,001,2024_Jan_02_1023,ANT,2021.2.3,60.19041839308691,
1,3,no,up,IC,L,,,,,,Block.xlsx,"你已经完成了第一个实验区组

请稍作休息


点击空格键进入下一个区组。",50,0,1.5,left,RRLRR.png,,,,,0,0,0,0,0,12,12,2,,,,,,,,,,,,,,,,,,,,,,,,,,,,,,,,,,,,,,,,,,,,,,,,,,,,,,,,,,,,,,,,,,,,,,174.36526300001424,174.76656249997905,174.75111750001088,174.86753250000766,175.25106460001552,None,left,1,0.468674200004898,175.25106460001552,None,174.75111750001088,174.86753250000766,174.85012919997098,None,175.75135609996505,None,,,,,,,11011,001,2024_Jan_02_1023,ANT,2021.2.3,60.19041839308691,
1,21,spatial,down,C,L,,,,,,Block.xlsx,"你已经完成了第一个实验区组

请稍作休息


点击空格键进入下一个区组。",-1.5,0,-1.5,left,LLLLL.png,,,,,0,0,0,0,0,13,13,20,,,,,,,,,,,,,,,,,,,,,,,,,,,,,,,,,,,,,,,,,,,,,,,,,,,,,,,,,,,,,,,,,,,,,,176.15213489998132,176.5523189000087,176.53618890000507,176.6362128999899,177.0366081999964,None,left,1,0.45923819998279214,177.0366081999964,None,176.53618890000507,176.6362128999899,176.6362128999899,None,177.5205566000077,None,,,,,,,11011,001,2024_Jan_02_1023,ANT,2021.2.3,60.19041839308691,
1,17,spatial,up,C,L,,,,,,Block.xlsx,"你已经完成了第一个实验区组

请稍作休息


点击空格键进入下一个区组。",1.5,0,1.5,left,LLLLL.png,,,,,0,0,0,0,0,14,14,16,,,,,,,,,,,,,,,,,,,,,,,,,,,,,,,,,,,,,,,,,,,,,,,,,,,,,,,,,,,,,,,,,,,,,,177.92051139997784,178.32085369998822,178.30538599996362,178.40452440001536,178.80605139996624,None,left,1,0.4737946999957785,178.80605139996624,None,178.30538599996362,178.40452440001536,178.40452440001536,None,179.3057906999602,None,,,,,,,11011,001,2024_Jan_02_1023,ANT,2021.2.3,60.19041839308691,
1,11,center,up,IC,L,,,,,,Block.xlsx,"你已经完成了第一个实验区组

请稍作休息


点击空格键进入下一个区组。",0,50,1.5,left,RRLRR.png,,,,,0,0,0,0,0,15,15,10,,,,,,,,,,,,,,,,,,,,,,,,,,,,,,,,,,,,,,,,,,,,,,,,,,,,,,,,,,,,,,,,,,,,,,179.70659079996403,180.10809009999502,180.09029069996905,180.19169219996547,180.59166999999434,None,left,1,0.6566141999792308,180.59166999999434,None,180.09029069996905,180.19169219996547,180.19169219996547,None,181.2763755999622,None,,,,,,,11011,001,2024_Jan_02_1023,ANT,2021.2.3,60.19041839308691,
1,22,spatial,down,C,R,,,,,,Block.xlsx,"你已经完成了第一个实验区组

请稍作休息


点击空格键进入下一个区组。",-1.5,0,-1.5,right,RRRRR.png,,,,,0,0,0,0,0,16,16,21,,,,,,,,,,,,,,,,,,,,,,,,,,,,,,,,,,,,,,,,,,,,,,,,,,,,,,,,,,,,,,,,,,,,,,181.67616089998046,182.07711010001367,182.06191589997616,182.16213000001153,182.56298919999972,None,right,1,0.47774100000970066,182.56298919999972,None,182.06191589997616,182.16213000001153,182.16213000001153,None,183.0617928999709,None,,,,,,,11011,001,2024_Jan_02_1023,ANT,2021.2.3,60.19041839308691,
1,19,spatial,up,IC,L,,,,,,Block.xlsx,"你已经完成了第一个实验区组

请稍作休息


点击空格键进入下一个区组。",1.5,0,1.5,left,RRLRR.png,,,,,0,0,0,0,0,17,17,18,,,,,,,,,,,,,,,,,,,,,,,,,,,,,,,,,,,,,,,,,,,,,,,,,,,,,,,,,,,,,,,,,,,,,,183.46183330001077,183.86336909997044,183.84685749997152,183.94686500000535,184.3479136999813,None,left,1,0.4198486999957822,184.3479136999813,None,183.84685749997152,183.94686500000535,183.94686500000535,None,184.79783130000578,None,,,,,,,11011,001,2024_Jan_02_1023,ANT,2021.2.3,60.19041839308691,
1,24,spatial,down,IC,R,,,,,,Block.xlsx,"你已经完成了第一个实验区组

请稍作休息


点击空格键进入下一个区组。",-1.5,0,-1.5,right,LLRLL.png,,,,,0,0,0,0,0,18,18,23,,,,,,,,,,,,,,,,,,,,,,,,,,,,,,,,,,,,,,,,,,,,,,,,,,,,,,,,,,,,,,,,,,,,,,185.19819939997979,185.59918469999684,185.58254279999528,185.68343559995992,186.08299429999897,None,right,1,0.4367548999725841,186.08299429999897,None,185.58254279999528,185.68343559995992,185.68343559995992,None,186.5498694999842,None,,,,,,,11011,001,2024_Jan_02_1023,ANT,2021.2.3,60.19041839308691,
1,14,center,down,C,R,,,,,,Block.xlsx,"你已经完成了第一个实验区组

请稍作休息


点击空格键进入下一个区组。",0,50,-1.5,right,RRRRR.png,,,,,0,0,0,0,0,19,19,13,,,,,,,,,,,,,,,,,,,,,,,,,,,,,,,,,,,,,,,,,,,,,,,,,,,,,,,,,,,,,,,,,,,,,,186.9515332999872,187.35225180000998,187.3354365999694,187.4358721000026,187.8359964999836,None,right,1,0.5638353999820538,187.8359964999836,None,187.3354365999694,187.4358721000026,187.4358721000026,None,188.41919049998978,None,,,,,,,11011,001,2024_Jan_02_1023,ANT,2021.2.3,60.19041839308691,
1,13,center,down,C,L,,,,,,Block.xlsx,"你已经完成了第一个实验区组

请稍作休息


点击空格键进入下一个区组。",0,50,-1.5,left,LLLLL.png,,,,,0,0,0,0,0,20,20,12,,,,,,,,,,,,,,,,,,,,,,,,,,,,,,,,,,,,,,,,,,,,,,,,,,,,,,,,,,,,,,,,,,,,,,188.82126659998903,189.2204919999931,189.20541349996347,189.30540740001015,189.70511370000895,None,left,1,0.622784800012596,189.70511370000895,None,189.20541349996347,189.30540740001015,189.30540740001015,None,190.3562438999652,None,,,,,,,11011,001,2024_Jan_02_1023,ANT,2021.2.3,60.19041839308691,
1,23,spatial,down,IC,L,,,,,,Block.xlsx,"你已经完成了第一个实验区组

请稍作休息


点击空格键进入下一个区组。",-1.5,0,-1.5,left,RRLRR.png,,,,,0,0,0,0,0,21,21,22,,,,,,,,,,,,,,,,,,,,,,,,,,,,,,,,,,,,,,,,,,,,,,,,,,,,,,,,,,,,,,,,,,,,,,190.75725429999875,191.15751739998814,191.1415069999639,191.25851479999255,191.64298179995967,None,left,1,0.581058599986136,191.64298179995967,None,191.1415069999639,191.25851479999255,191.24025669996627,None,192.24175809998997,None,,,,,,,11011,001,2024_Jan_02_1023,ANT,2021.2.3,60.19041839308691,
1,4,no,up,IC,R,,,,,,Block.xlsx,"你已经完成了第一个实验区组

请稍作休息


点击空格键进入下一个区组。",50,0,1.5,right,LLRLL.png,,,,,0,0,0,0,0,22,22,3,,,,,,,,,,,,,,,,,,,,,,,,,,,,,,,,,,,,,,,,,,,,,,,,,,,,,,,,,,,,,,,,,,,,,,192.6423177999677,193.04365969996434,193.0279002999887,193.12718539999332,193.52805959997931,None,right,1,0.7124596000066958,193.52805959997931,None,193.0279002999887,193.12718539999332,193.12718539999332,None,194.26206430001184,None,,,,,,,11011,001,2024_Jan_02_1023,ANT,2021.2.3,60.19041839308691,
1,23,spatial,down,IC,L,,,,,,Block.xlsx,"你已经完成了第一个实验区组

请稍作休息


点击空格键进入下一个区组。",-1.5,0,-1.5,left,RRLRR.png,,,,,0,0,0,0,0,23,23,22,,,,,,,,,,,,,,,,,,,,,,,,,,,,,,,,,,,,,,,,,,,,,,,,,,,,,,,,,,,,,,,,,,,,,,194.66319509997265,195.063262199983,195.0458304999629,195.14798259997042,195.5473310999805,None,left,1,0.42855160002363846,195.5473310999805,None,195.0458304999629,195.14798259997042,195.14798259997042,None,195.99722630000906,None,,,,,,,11011,001,2024_Jan_02_1023,ANT,2021.2.3,60.19041839308691,
1,4,no,up,IC,R,,,,,,Block.xlsx,"你已经完成了第一个实验区组

请稍作休息


点击空格键进入下一个区组。",50,0,1.5,right,LLRLL.png,,,,,0,0,0,0,1,0,24,3,,,,,,,,,,,,,,,,,,,,,,,,,,,,,,,,,,,,,,,,,,,,,,,,,,,,,,,,,,,,,,,,,,,,,,196.3979453999782,196.79909579997184,196.78351579996524,196.88297919998877,197.28413320000982,None,right,1,0.6922721000155434,197.28413320000982,None,196.78351579996524,196.88297919998877,196.88297919998877,None,198.00014829996508,None,,,,,,,11011,001,2024_Jan_02_1023,ANT,2021.2.3,60.19041839308691,
1,15,center,down,IC,L,,,,,,Block.xlsx,"你已经完成了第一个实验区组

请稍作休息


点击空格键进入下一个区组。",0,50,-1.5,left,RRLRR.png,,,,,0,0,0,0,1,1,25,14,,,,,,,,,,,,,,,,,,,,,,,,,,,,,,,,,,,,,,,,,,,,,,,,,,,,,,,,,,,,,,,,,,,,,,198.40073069999926,198.8015886999783,198.78540429996792,198.886492599966,199.2859851999674,None,left,1,0.6189103000215255,199.2859851999674,None,198.78540429996792,198.886492599966,198.886492599966,None,199.92022059997544,None,,,,,,,11011,001,2024_Jan_02_1023,ANT,2021.2.3,60.19041839308691,
1,23,spatial,down,IC,L,,,,,,Block.xlsx,"你已经完成了第一个实验区组

请稍作休息


点击空格键进入下一个区组。",-1.5,0,-1.5,left,RRLRR.png,,,,,0,0,0,0,1,2,26,22,,,,,,,,,,,,,,,,,,,,,,,,,,,,,,,,,,,,,,,,,,,,,,,,,,,,,,,,,,,,,,,,,,,,,,200.32088949996978,200.7218567999662,200.70516680000583,200.80507589998888,201.20588670001598,None,left,1,0.6020389999612235,201.20588670001598,None,200.70516680000583,200.80507589998888,200.80507589998888,None,201.82342979998793,None,,,,,,,11011,001,2024_Jan_02_1023,ANT,2021.2.3,60.19041839308691,
1,16,center,down,IC,R,,,,,,Block.xlsx,"你已经完成了第一个实验区组

请稍作休息


点击空格键进入下一个区组。",0,50,-1.5,right,LLRLL.png,,,,,0,0,0,0,1,3,27,15,,,,,,,,,,,,,,,,,,,,,,,,,,,,,,,,,,,,,,,,,,,,,,,,,,,,,,,,,,,,,,,,,,,,,,202.22322639997583,202.6255431000027,202.6078181999619,202.70723780000117,203.108681600017,None,right,1,0.707309199962765,203.108681600017,None,202.6078181999619,202.70723780000117,202.70723780000117,None,203.84225099999458,None,,,,,,,11011,001,2024_Jan_02_1023,ANT,2021.2.3,60.19041839308691,
1,11,center,up,IC,L,,,,,,Block.xlsx,"你已经完成了第一个实验区组

请稍作休息


点击空格键进入下一个区组。",0,50,1.5,left,RRLRR.png,,,,,0,0,0,0,1,4,28,10,,,,,,,,,,,,,,,,,,,,,,,,,,,,,,,,,,,,,,,,,,,,,,,,,,,,,,,,,,,,,,,,,,,,,,204.24314939999022,204.64374999998836,204.6290466999635,204.74519320001127,205.13006860000314,None,left,1,0.5665757000097074,205.13006860000314,None,204.6290466999635,204.74519320001127,204.72760869999183,None,205.71195679996163,None,,,,,,,11011,001,2024_Jan_02_1023,ANT,2021.2.3,60.19041839308691,
1,8,no,down,IC,R,,,,,,Block.xlsx,"你已经完成了第一个实验区组

请稍作休息


点击空格键进入下一个区组。",50,0,-1.5,right,LLRLL.png,,,,,0,0,0,0,1,5,29,7,,,,,,,,,,,,,,,,,,,,,,,,,,,,,,,,,,,,,,,,,,,,,,,,,,,,,,,,,,,,,,,,,,,,,,206.11293649999425,206.51342550001573,206.49666850001086,206.59855369996512,206.99920859996928,None,right,1,0.4566052000154741,206.99920859996928,None,206.49666850001086,206.59855369996512,206.59855369996512,None,207.48092579998774,None,,,,,,,11011,001,2024_Jan_02_1023,ANT,2021.2.3,60.19041839308691,
1,3,no,up,IC,L,,,,,,Block.xlsx,"你已经完成了第一个实验区组

请稍作休息


点击空格键进入下一个区组。",50,0,1.5,left,RRLRR.png,,,,,0,0,0,0,1,6,30,2,,,,,,,,,,,,,,,,,,,,,,,,,,,,,,,,,,,,,,,,,,,,,,,,,,,,,,,,,,,,,,,,,,,,,,207.88246649998473,208.28273929998977,208.26574880001135,208.3662473000004,208.7664112999919,None,left,1,0.625470100028906,208.7664112999919,None,208.26574880001135,208.3662473000004,208.3662473000004,None,209.41749209997943,None,,,,,,,11011,001,2024_Jan_02_1023,ANT,2021.2.3,60.19041839308691,
1,7,no,down,IC,L,,,,,,Block.xlsx,"你已经完成了第一个实验区组

请稍作休息


点击空格键进入下一个区组。",50,0,-1.5,left,RRLRR.png,,,,,0,0,0,0,1,7,31,6,,,,,,,,,,,,,,,,,,,,,,,,,,,,,,,,,,,,,,,,,,,,,,,,,,,,,,,,,,,,,,,,,,,,,,209.81861489999574,210.21959920000518,210.2022879999713,210.30311360000633,210.70352260000072,None,left,1,0.4801764999865554,210.70352260000072,None,210.2022879999713,210.30311360000633,210.30311360000633,None,211.2030264000059,None,,,,,,,11011,001,2024_Jan_02_1023,ANT,2021.2.3,60.19041839308691,
1,10,center,up,C,R,,,,,,Block.xlsx,"你已经完成了第一个实验区组

请稍作休息


点击空格键进入下一个区组。",0,50,1.5,right,RRRRR.png,,,,,0,0,0,0,1,8,32,9,,,,,,,,,,,,,,,,,,,,,,,,,,,,,,,,,,,,,,,,,,,,,,,,,,,,,,,,,,,,,,,,,,,,,,211.60437809996074,212.00507969997125,211.98832949995995,212.08939879998798,212.4894592000055,None,right,1,0.4868263999815099,212.4894592000055,None,211.98832949995995,212.08939879998798,212.08939879998798,None,213.00618779996876,None,,,,,,,11011,001,2024_Jan_02_1023,ANT,2021.2.3,60.19041839308691,
1,18,spatial,up,C,R,,,,,,Block.xlsx,"你已经完成了第一个实验区组

请稍作休息


点击空格键进入下一个区组。",1.5,0,1.5,right,RRRRR.png,,,,,0,0,0,0,1,9,33,17,,,,,,,,,,,,,,,,,,,,,,,,,,,,,,,,,,,,,,,,,,,,,,,,,,,,,,,,,,,,,,,,,,,,,,213.40708330000052,213.80884869996225,213.79091839998728,213.8908138999832,214.29194939997979,None,right,1,0.4520899000344798,214.29194939997979,None,213.79091839998728,213.8908138999832,213.8908138999832,None,214.77521619998151,None,,,,,,,11011,001,2024_Jan_02_1023,ANT,2021.2.3,60.19041839308691,
1,19,spatial,up,IC,L,,,,,,Block.xlsx,"你已经完成了第一个实验区组

请稍作休息


点击空格键进入下一个区组。",1.5,0,1.5,left,RRLRR.png,,,,,0,0,0,0,1,10,34,18,,,,,,,,,,,,,,,,,,,,,,,,,,,,,,,,,,,,,,,,,,,,,,,,,,,,,,,,,,,,,,,,,,,,,,215.17576199996984,215.57738079997944,215.5615672999993,215.67668709997088,216.06132749997778,None,left,1,0.4344476000405848,216.06132749997778,None,215.5615672999993,215.67668709997088,215.66144180000992,None,216.52783889998682,None,,,,,,,11011,001,2024_Jan_02_1023,ANT,2021.2.3,60.19041839308691,
1,9,center,up,C,L,,,,,,Block.xlsx,"你已经完成了第一个实验区组

请稍作休息


点击空格键进入下一个区组。",0,50,1.5,left,LLLLL.png,,,,,0,0,0,0,1,11,35,8,,,,,,,,,,,,,,,,,,,,,,,,,,,,,,,,,,,,,,,,,,,,,,,,,,,,,,,,,,,,,,,,,,,,,,216.92902139999205,217.3300933999708,217.31216049997602,217.41351459996076,217.81446289998712,None,left,1,0.44977880001533777,217.81446289998712,None,217.31216049997602,217.41351459996076,217.41351459996076,None,218.2805781000061,None,,,,,,,11011,001,2024_Jan_02_1023,ANT,2021.2.3,60.19041839308691,
1,2,no,up,C,R,,,,,,Block.xlsx,"你已经完成了第一个实验区组

请稍作休息


点击空格键进入下一个区组。",50,0,1.5,right,RRRRR.png,,,,,0,0,0,0,1,12,36,1,,,,,,,,,,,,,,,,,,,,,,,,,,,,,,,,,,,,,,,,,,,,,,,,,,,,,,,,,,,,,,,,,,,,,,218.68067859997973,219.08275760000106,219.06604100001277,219.16664939996554,219.56567909999285,None,right,1,0.4741920999949798,219.56567909999285,None,219.06604100001277,219.16664939996554,219.16664939996554,None,220.06621019996237,None,,,,,,,11011,001,2024_Jan_02_1023,ANT,2021.2.3,60.19041839308691,
1,5,no,down,C,L,,,,,,Block.xlsx,"你已经完成了第一个实验区组

请稍作休息


点击空格键进入下一个区组。",50,0,-1.5,left,LLLLL.png,,,,,0,0,0,0,1,13,37,4,,,,,,,,,,,,,,,,,,,,,,,,,,,,,,,,,,,,,,,,,,,,,,,,,,,,,,,,,,,,,,,,,,,,,,220.46731219999492,220.86738959996728,220.8513668999658,220.95294659998035,221.3528648999636,None,left,1,0.5429806999745779,221.3528648999636,None,220.8513668999658,220.95294659998035,220.95294659998035,None,221.9191487999633,None,,,,,,,11011,001,2024_Jan_02_1023,ANT,2021.2.3,60.19041839308691,
1,2,no,up,C,R,,,,,,Block.xlsx,"你已经完成了第一个实验区组

请稍作休息


点击空格键进入下一个区组。",50,0,1.5,right,RRRRR.png,,,,,0,0,0,0,1,14,38,1,,,,,,,,,,,,,,,,,,,,,,,,,,,,,,,,,,,,,,,,,,,,,,,,,,,,,,,,,,,,,,,,,,,,,,222.32034699997166,222.7217131999787,222.70388519996777,222.8057216000161,223.20439959998475,None,right,1,0.49160579999443144,223.20439959998475,None,222.70388519996777,222.8057216000161,222.8057216000161,None,223.72243520000484,None,,,,,,,11011,001,2024_Jan_02_1023,ANT,2021.2.3,60.19041839308691,
1,7,no,down,IC,L,,,,,,Block.xlsx,"你已经完成了第一个实验区组

请稍作休息


点击空格键进入下一个区组。",50,0,-1.5,left,RRLRR.png,,,,,0,0,0,0,1,15,39,6,,,,,,,,,,,,,,,,,,,,,,,,,,,,,,,,,,,,,,,,,,,,,,,,,,,,,,,,,,,,,,,,,,,,,,224.12285829999018,224.52342709997902,224.50781489996007,224.60701579996385,225.00697659997968,None,left,1,0.4815242000040598,225.00697659997968,None,224.50781489996007,224.60701579996385,224.60701579996385,None,225.5076326999697,None,,,,,,,11011,001,2024_Jan_02_1023,ANT,2021.2.3,60.19041839308691,
1,13,center,down,C,L,,,,,,Block.xlsx,"你已经完成了第一个实验区组

请稍作休息


点击空格键进入下一个区组。",0,50,-1.5,left,LLLLL.png,,,,,0,0,0,0,1,16,40,12,,,,,,,,,,,,,,,,,,,,,,,,,,,,,,,,,,,,,,,,,,,,,,,,,,,,,,,,,,,,,,,,,,,,,,225.90922629996203,226.30957719997969,226.29425089998404,226.39358520001406,226.7936690999777,None,left,1,0.470114299969282,226.7936690999777,None,226.29425089998404,226.39358520001406,226.39358520001406,None,227.2934698999743,None,,,,,,,11011,001,2024_Jan_02_1023,ANT,2021.2.3,60.19041839308691,
1,14,center,down,C,R,,,,,,Block.xlsx,"你已经完成了第一个实验区组

请稍作休息


点击空格键进入下一个区组。",0,50,-1.5,right,RRRRR.png,,,,,0,0,0,0,1,17,41,13,,,,,,,,,,,,,,,,,,,,,,,,,,,,,,,,,,,,,,,,,,,,,,,,,,,,,,,,,,,,,,,,,,,,,,227.6955222999677,228.09542079997482,228.07888449996244,228.1803743999917,228.57891240000026,None,right,1,0.5815577000030316,228.57891240000026,None,228.07888449996244,228.1803743999917,228.1803743999917,None,229.17982680001296,None,,,,,,,11011,001,2024_Jan_02_1023,ANT,2021.2.3,60.19041839308691,
1,7,no,down,IC,L,,,,,,Block.xlsx,"你已经完成了第一个实验区组

请稍作休息


点击空格键进入下一个区组。",50,0,-1.5,left,RRLRR.png,,,,,0,0,0,0,1,18,42,6,,,,,,,,,,,,,,,,,,,,,,,,,,,,,,,,,,,,,,,,,,,,,,,,,,,,,,,,,,,,,,,,,,,,,,229.58077130001038,229.98110919998726,229.9647254999727,230.0650269999751,230.4658091000165,None,left,1,0.4859474000404589,230.4658091000165,None,229.9647254999727,230.0650269999751,230.0650269999751,None,230.98243550001644,None,,,,,,,11011,001,2024_Jan_02_1023,ANT,2021.2.3,60.19041839308691,
1,6,no,down,C,R,,,,,,Block.xlsx,"你已经完成了第一个实验区组

请稍作休息


点击空格键进入下一个区组。",50,0,-1.5,right,RRRRR.png,,,,,0,0,0,0,1,19,43,5,,,,,,,,,,,,,,,,,,,,,,,,,,,,,,,,,,,,,,,,,,,,,,,,,,,,,,,,,,,,,,,,,,,,,,231.38311719999183,231.78369509999175,231.767647199973,231.8680369000067,232.26858569995966,None,right,1,0.4912709000054747,232.26858569995966,None,231.767647199973,231.8680369000067,231.8680369000067,None,232.78501339996,None,,,,,,,11011,001,2024_Jan_02_1023,ANT,2021.2.3,60.19041839308691,
1,1,no,up,C,L,,,,,,Block.xlsx,"你已经完成了第一个实验区组

请稍作休息


点击空格键进入下一个区组。",50,0,1.5,left,LLLLL.png,,,,,0,0,0,0,1,20,44,0,,,,,,,,,,,,,,,,,,,,,,,,,,,,,,,,,,,,,,,,,,,,,,,,,,,,,,,,,,,,,,,,,,,,,,233.1857117000036,233.5876872999943,233.57069159997627,233.6704066999955,234.07129739999073,None,left,1,0.5211871999781579,234.07129739999073,None,233.57069159997627,233.6704066999955,233.6704066999955,None,234.62107079999987,None,,,,,,,11011,001,2024_Jan_02_1023,ANT,2021.2.3,60.19041839308691,
1,5,no,down,C,L,,,,,,Block.xlsx,"你已经完成了第一个实验区组

请稍作休息


点击空格键进入下一个区组。",50,0,-1.5,left,LLLLL.png,,,,,0,0,0,0,1,21,45,4,,,,,,,,,,,,,,,,,,,,,,,,,,,,,,,,,,,,,,,,,,,,,,,,,,,,,,,,,,,,,,,,,,,,,,235.02239679999184,235.4231574999867,235.40667980001308,235.50708219996886,235.90795959997922,None,left,1,0.5079841999686323,235.90795959997922,None,235.40667980001308,235.50708219996886,235.50708219996886,None,236.44049720000476,None,,,,,,,11011,001,2024_Jan_02_1023,ANT,2021.2.3,60.19041839308691,
1,14,center,down,C,R,,,,,,Block.xlsx,"你已经完成了第一个实验区组

请稍作休息


点击空格键进入下一个区组。",0,50,-1.5,right,RRRRR.png,,,,,0,0,0,0,1,22,46,13,,,,,,,,,,,,,,,,,,,,,,,,,,,,,,,,,,,,,,,,,,,,,,,,,,,,,,,,,,,,,,,,,,,,,,236.84094819996972,237.24312880000798,237.22505810001167,237.32663669995964,237.72634479997214,None,right,1,0.5378773999982513,237.72634479997214,None,237.22505810001167,237.32663669995964,237.32663669995964,None,238.29325859999517,None,,,,,,,11011,001,2024_Jan_02_1023,ANT,2021.2.3,60.19041839308691,
1,1,no,up,C,L,,,,,,Block.xlsx,"你已经完成了第一个实验区组

请稍作休息


点击空格键进入下一个区组。",50,0,1.5,left,LLLLL.png,,,,,0,0,0,0,1,23,47,0,,,,,,,,,,,,,,,,,,,,,,,,,,,,,,,,,,,,,,,,,,,,,,,,,,,,,,,,,,,,,,,,,,,,,,238.6948071999941,239.0950329999905,239.07883219997166,239.17836809996516,239.57936759997392,None,left,1,0.5653856999706477,239.57936759997392,None,239.07883219997166,239.17836809996516,239.17836809996516,None,240.16271940001752,None,,,,,,,11011,001,2024_Jan_02_1023,ANT,2021.2.3,60.19041839308691,
1,19,spatial,up,IC,L,,,,,,Block.xlsx,"你已经完成了第一个实验区组

请稍作休息


点击空格键进入下一个区组。",1.5,0,1.5,left,RRLRR.png,,,,,0,0,0,0,2,0,48,18,,,,,,,,,,,,,,,,,,,,,,,,,,,,,,,,,,,,,,,,,,,,,,,,,,,,,,,,,,,,,,,,,,,,,,240.56372729997383,240.96440190001158,240.9477681000135,241.04803309997078,241.44928659999277,None,left,1,0.37457750004250556,241.44928659999277,None,240.9477681000135,241.04803309997078,241.04803309997078,None,241.84910049999598,None,,,,,,,11011,001,2024_Jan_02_1023,ANT,2021.2.3,60.19041839308691,
1,12,center,up,IC,R,,,,,,Block.xlsx,"你已经完成了第一个实验区组

请稍作休息


点击空格键进入下一个区组。",0,50,1.5,right,LLRLL.png,,,,,0,0,0,0,2,1,49,11,,,,,,,,,,,,,,,,,,,,,,,,,,,,,,,,,,,,,,,,,,,,,,,,,,,,,,,,,,,,,,,,,,,,,,242.24913830001606,242.65067619999172,242.63392170000589,242.73420830001123,243.1345275999629,None,right,1,0.6174416999565437,243.1345275999629,None,242.63392170000589,242.73420830001123,242.73420830001123,None,243.768082399969,None,,,,,,,11011,001,2024_Jan_02_1023,ANT,2021.2.3,60.19041839308691,
1,15,center,down,IC,L,,,,,,Block.xlsx,"你已经完成了第一个实验区组

请稍作休息


点击空格键进入下一个区组。",0,50,-1.5,left,RRLRR.png,,,,,0,0,0,0,2,2,50,14,,,,,,,,,,,,,,,,,,,,,,,,,,,,,,,,,,,,,,,,,,,,,,,,,,,,,,,,,,,,,,,,,,,,,,244.16848509997362,244.5702447000076,244.5534784999909,244.6551790999947,245.0541012000176,None,left,1,0.7060294000548311,245.0541012000176,None,244.5534784999909,244.6551790999947,244.6551790999947,None,245.78796619997593,None,,,,,,,11011,001,2024_Jan_02_1023,ANT,2021.2.3,60.19041839308691,
1,21,spatial,down,C,L,,,,,,Block.xlsx,"你已经完成了第一个实验区组

请稍作休息


点击空格键进入下一个区组。",-1.5,0,-1.5,left,LLLLL.png,,,,,0,0,0,0,2,3,51,20,,,,,,,,,,,,,,,,,,,,,,,,,,,,,,,,,,,,,,,,,,,,,,,,,,,,,,,,,,,,,,,,,,,,,,246.18830350000644,246.58914039999945,246.5729941999889,246.67312369996216,247.07396319997497,None,left,1,0.4059407000313513,247.07396319997497,None,246.5729941999889,246.67312369996216,246.67312369996216,None,247.50688609998906,None,,,,,,,11011,001,2024_Jan_02_1023,ANT,2021.2.3,60.19041839308691,
1,15,center,down,IC,L,,,,,,Block.xlsx,"你已经完成了第一个实验区组

请稍作休息


点击空格键进入下一个区组。",0,50,-1.5,left,RRLRR.png,,,,,0,0,0,0,2,4,52,14,,,,,,,,,,,,,,,,,,,,,,,,,,,,,,,,,,,,,,,,,,,,,,,,,,,,,,,,,,,,,,,,,,,,,,247.9078002999886,248.30880309996428,248.29317399999127,248.39374089997727,248.7930919000064,None,left,1,0.6308515999699011,248.7930919000064,None,248.29317399999127,248.39374089997727,248.39374089997727,None,249.44330599997193,None,,,,,,,11011,001,2024_Jan_02_1023,ANT,2021.2.3,60.19041839308691,
1,17,spatial,up,C,L,,,,,,Block.xlsx,"你已经完成了第一个实验区组

请稍作休息


点击空格键进入下一个区组。",1.5,0,1.5,left,LLLLL.png,,,,,0,0,0,0,2,5,53,16,,,,,,,,,,,,,,,,,,,,,,,,,,,,,,,,,,,,,,,,,,,,,,,,,,,,,,,,,,,,,,,,,,,,,,249.84446739999112,250.24519919999875,250.22777629998745,250.32827980001457,250.7306050999905,None,left,1,0.47753169998759404,250.7306050999905,None,250.22777629998745,250.32827980001457,250.32827980001457,None,251.22915540001122,None,,,,,,,11011,001,2024_Jan_02_1023,ANT,2021.2.3,60.19041839308691,
1,13,center,down,C,L,,,,,,Block.xlsx,"你已经完成了第一个实验区组

请稍作休息


点击空格键进入下一个区组。",0,50,-1.5,left,LLLLL.png,,,,,0,0,0,0,2,6,54,12,,,,,,,,,,,,,,,,,,,,,,,,,,,,,,,,,,,,,,,,,,,,,,,,,,,,,,,,,,,,,,,,,,,,,,251.63051689998247,252.030820999993,252.01374719996238,252.11492369999178,252.51505980000366,None,left,1,0.5248554999707267,252.51505980000366,None,252.01374719996238,252.11492369999178,252.11492369999178,None,253.06593370001065,None,,,,,,,11011,001,2024_Jan_02_1023,ANT,2021.2.3,60.19041839308691,
1,21,spatial,down,C,L,,,,,,Block.xlsx,"你已经完成了第一个实验区组

请稍作休息


点击空格键进入下一个区组。",-1.5,0,-1.5,left,LLLLL.png,,,,,0,0,0,0,2,7,55,20,,,,,,,,,,,,,,,,,,,,,,,,,,,,,,,,,,,,,,,,,,,,,,,,,,,,,,,,,,,,,,,,,,,,,,253.46604199998546,253.86701360001462,253.850337699987,253.95123100001365,254.3506796999718,None,left,1,0.4412123000365682,254.3506796999718,None,253.850337699987,253.95123100001365,253.95123100001365,None,254.81769369996618,None,,,,,,,11011,001,2024_Jan_02_1023,ANT,2021.2.3,60.19041839308691,
1,18,spatial,up,C,R,,,,,,Block.xlsx,"你已经完成了第一个实验区组

请稍作休息


点击空格键进入下一个区组。",1.5,0,1.5,right,RRRRR.png,,,,,0,0,0,0,2,8,56,17,,,,,,,,,,,,,,,,,,,,,,,,,,,,,,,,,,,,,,,,,,,,,,,,,,,,,,,,,,,,,,,,,,,,,,255.21837849996518,255.62076949997572,255.602810100012,255.70264579996,256.103588900005,None,right,1,0.47244509996380657,256.103588900005,None,255.602810100012,255.70264579996,255.70264579996,None,256.60381409997353,None,,,,,,,11011,001,2024_Jan_02_1023,ANT,2021.2.3,60.19041839308691,
1,8,no,down,IC,R,,,,,,Block.xlsx,"你已经完成了第一个实验区组

请稍作休息


点击空格键进入下一个区组。",50,0,-1.5,right,LLRLL.png,,,,,0,0,0,0,2,9,57,7,,,,,,,,,,,,,,,,,,,,,,,,,,,,,,,,,,,,,,,,,,,,,,,,,,,,,,,,,,,,,,,,,,,,,,257.00406629999634,257.4052313999855,257.38817140000174,257.48891780001577,257.88956250000047,None,right,1,0.6302876999834552,257.88956250000047,None,257.38817140000174,257.48891780001577,257.48891780001577,None,258.53978110000025,None,,,,,,,11011,001,2024_Jan_02_1023,ANT,2021.2.3,60.19041839308691,
1,9,center,up,C,L,,,,,,Block.xlsx,"你已经完成了第一个实验区组

请稍作休息


点击空格键进入下一个区组。",0,50,1.5,left,LLLLL.png,,,,,0,0,0,0,2,10,58,8,,,,,,,,,,,,,,,,,,,,,,,,,,,,,,,,,,,,,,,,,,,,,,,,,,,,,,,,,,,,,,,,,,,,,,258.94138279999606,259.3429487000103,259.32467010000255,259.4245923999697,259.82658439996885,None,left,1,0.4459663000307046,259.82658439996885,None,259.32467010000255,259.4245923999697,259.4245923999697,None,260.29242989997147,None,,,,,,,11011,001,2024_Jan_02_1023,ANT,2021.2.3,60.19041839308691,
1,22,spatial,down,C,R,,,,,,Block.xlsx,"你已经完成了第一个实验区组

请稍作休息


点击空格键进入下一个区组。",-1.5,0,-1.5,right,RRRRR.png,,,,,0,0,0,0,2,11,59,21,,,,,,,,,,,,,,,,,,,,,,,,,,,,,,,,,,,,,,,,,,,,,,,,,,,,,,,,,,,,,,,,,,,,,,260.69386739999754,261.09414749999996,261.07767259998946,261.1780842000153,261.57845679996535,None,right,1,0.4219615999609232,261.57845679996535,None,261.07767259998946,261.1780842000153,261.1780842000153,None,262.0291612999863,None,,,,,,,11011,001,2024_Jan_02_1023,ANT,2021.2.3,60.19041839308691,
1,10,center,up,C,R,,,,,,Block.xlsx,"你已经完成了第一个实验区组

请稍作休息


点击空格键进入下一个区组。",0,50,1.5,right,RRRRR.png,,,,,0,0,0,0,2,12,60,9,,,,,,,,,,,,,,,,,,,,,,,,,,,,,,,,,,,,,,,,,,,,,,,,,,,,,,,,,,,,,,,,,,,,,,262.4296628999873,262.83195449999766,262.81354539998574,262.9136696999776,263.3137759999954,None,right,1,0.5100665999925695,263.3137759999954,None,262.81354539998574,262.9136696999776,262.9136696999776,None,263.847842499963,None,,,,,,,11011,001,2024_Jan_02_1023,ANT,2021.2.3,60.19041839308691,
1,20,spatial,up,IC,R,,,,,,Block.xlsx,"你已经完成了第一个实验区组

请稍作休息


点击空格键进入下一个区组。",1.5,0,1.5,right,LLRLL.png,,,,,0,0,0,0,2,13,61,19,,,,,,,,,,,,,,,,,,,,,,,,,,,,,,,,,,,,,,,,,,,,,,,,,,,,,,,,,,,,,,,,,,,,,,264.24836630001664,264.65071570000146,264.63307549996534,264.73406930000056,265.13421910000034,None,right,1,0.6098439000197686,265.13421910000034,None,264.63307549996534,264.73406930000056,264.73406930000056,None,265.7678160999785,None,,,,,,,11011,001,2024_Jan_02_1023,ANT,2021.2.3,60.19041839308691,
1,4,no,up,IC,R,,,,,,Block.xlsx,"你已经完成了第一个实验区组

请稍作休息


点击空格键进入下一个区组。",50,0,1.5,right,LLRLL.png,,,,,0,0,0,0,2,14,62,3,,,,,,,,,,,,,,,,,,,,,,,,,,,,,,,,,,,,,,,,,,,,,,,,,,,,,,,,,,,,,,,,,,,,,,266.167978100013,266.5694394999882,266.5525301999878,266.6524182999856,267.05358209996484,None,right,1,0.7224596000160091,267.05358209996484,None,266.5525301999878,266.6524182999856,266.6524182999856,None,267.80367779999506,None,,,,,,,11011,001,2024_Jan_02_1023,ANT,2021.2.3,60.19041839308691,
1,16,center,down,IC,R,,,,,,Block.xlsx,"你已经完成了第一个实验区组

请稍作休息


点击空格键进入下一个区组。",0,50,-1.5,right,LLRLL.png,,,,,0,0,0,0,2,15,63,15,,,,,,,,,,,,,,,,,,,,,,,,,,,,,,,,,,,,,,,,,,,,,,,,,,,,,,,,,,,,,,,,,,,,,,268.20460499997716,268.6046745000058,268.5880262000137,268.68905220000306,269.0897425999865,None,right,1,0.8384249999653548,269.0897425999865,None,268.5880262000137,268.68905220000306,268.68905220000306,None,269.9568788000033,None,,,,,,,11011,001,2024_Jan_02_1023,ANT,2021.2.3,60.19041839308691,
1,3,no,up,IC,L,,,,,,Block.xlsx,"你已经完成了第一个实验区组

请稍作休息


点击空格键进入下一个区组。",50,0,1.5,left,RRLRR.png,,,,,0,0,0,0,2,16,64,2,,,,,,,,,,,,,,,,,,,,,,,,,,,,,,,,,,,,,,,,,,,,,,,,,,,,,,,,,,,,,,,,,,,,,,270.3575273999595,270.7583818999701,270.74202519998653,270.8416867000051,271.24315399996703,None,left,1,0.5967510999762453,271.24315399996703,None,270.74202519998653,270.8416867000051,270.8416867000051,None,271.8611180000007,None,,,,,,,11011,001,2024_Jan_02_1023,ANT,2021.2.3,60.19041839308691,
1,24,spatial,down,IC,R,,,,,,Block.xlsx,"你已经完成了第一个实验区组

请稍作休息


点击空格键进入下一个区组。",-1.5,0,-1.5,right,LLRLL.png,,,,,0,0,0,0,2,17,65,23,,,,,,,,,,,,,,,,,,,,,,,,,,,,,,,,,,,,,,,,,,,,,,,,,,,,,,,,,,,,,,,,,,,,,,272.260026199976,272.66075639997143,272.64487179997377,272.7453453000053,273.1451356000034,None,right,1,0.42273190000560135,273.1451356000034,None,272.64487179997377,272.7453453000053,272.7453453000053,None,273.59551620000275,None,,,,,,,11011,001,2024_Jan_02_1023,ANT,2021.2.3,60.19041839308691,
1,22,spatial,down,C,R,,,,,,Block.xlsx,"你已经完成了第一个实验区组

请稍作休息


点击空格键进入下一个区组。",-1.5,0,-1.5,right,RRRRR.png,,,,,0,0,0,0,2,18,66,21,,,,,,,,,,,,,,,,,,,,,,,,,,,,,,,,,,,,,,,,,,,,,,,,,,,,,,,,,,,,,,,,,,,,,,273.99679449998075,274.3989739000099,274.38092749996576,274.48108749999665,274.8814574999851,None,right,1,0.38313040003413334,274.8814574999851,None,274.38092749996576,274.48108749999665,274.48108749999665,None,275.2810333999805,None,,,,,,,11011,001,2024_Jan_02_1023,ANT,2021.2.3,60.19041839308691,
1,17,spatial,up,C,L,,,,,,Block.xlsx,"你已经完成了第一个实验区组

请稍作休息


点击空格键进入下一个区组。",1.5,0,1.5,left,LLLLL.png,,,,,0,0,0,0,2,19,67,16,,,,,,,,,,,,,,,,,,,,,,,,,,,,,,,,,,,,,,,,,,,,,,,,,,,,,,,,,,,,,,,,,,,,,,275.6824878999614,276.0833579999744,276.06664669996826,276.16632519999985,276.56728989997646,None,left,1,0.4815991999930702,276.56728989997646,None,276.06664669996826,276.16632519999985,276.16632519999985,None,277.0673257000162,None,,,,,,,11011,001,2024_Jan_02_1023,ANT,2021.2.3,60.19041839308691,
1,8,no,down,IC,R,,,,,,Block.xlsx,"你已经完成了第一个实验区组

请稍作休息


点击空格键进入下一个区组。",50,0,-1.5,right,LLRLL.png,,,,,0,0,0,0,2,20,68,7,,,,,,,,,,,,,,,,,,,,,,,,,,,,,,,,,,,,,,,,,,,,,,,,,,,,,,,,,,,,,,,,,,,,,,277.4687990999664,277.86912389995996,277.8524663000135,277.952223100001,278.3532605000073,None,right,1,0.5746896999771707,278.3532605000073,None,277.8524663000135,277.952223100001,277.952223100001,None,278.95352169999387,None,,,,,,,11011,001,2024_Jan_02_1023,ANT,2021.2.3,60.19041839308691,
1,12,center,up,IC,R,,,,,,Block.xlsx,"你已经完成了第一个实验区组

请稍作休息


点击空格键进入下一个区组。",0,50,1.5,right,LLRLL.png,,,,,0,0,0,0,2,21,69,11,,,,,,,,,,,,,,,,,,,,,,,,,,,,,,,,,,,,,,,,,,,,,,,,,,,,,,,,,,,,,,,,,,,,,,279.3552037999616,279.7561604999937,279.73799469997175,279.8396936999634,280.2398249999969,None,right,1,0.6168923000223003,280.2398249999969,None,279.73799469997175,279.8396936999634,279.8396936999634,None,280.8730326999794,None,,,,,,,11011,001,2024_Jan_02_1023,ANT,2021.2.3,60.19041839308691,
1,22,spatial,down,C,R,,,,,,Block.xlsx,"你已经完成了第一个实验区组

请稍作休息


点击空格键进入下一个区组。",-1.5,0,-1.5,right,RRRRR.png,,,,,0,0,0,0,2,22,70,21,,,,,,,,,,,,,,,,,,,,,,,,,,,,,,,,,,,,,,,,,,,,,,,,,,,,,,,,,,,,,,,,,,,,,,281.27354630001355,281.6746727999998,281.6580840999959,281.75962029997027,282.15921000001254,None,right,1,0.5133221999858506,282.15921000001254,None,281.6580840999959,281.75962029997027,281.75962029997027,None,282.69240950001404,None,,,,,,,11011,001,2024_Jan_02_1023,ANT,2021.2.3,60.19041839308691,
1,2,no,up,C,R,,,,,,Block.xlsx,"你已经完成了第一个实验区组

请稍作休息


点击空格键进入下一个区组。",50,0,1.5,right,RRRRR.png,,,,,0,0,0,0,2,23,71,1,,,,,,,,,,,,,,,,,,,,,,,,,,,,,,,,,,,,,,,,,,,,,,,,,,,,,,,,,,,,,,,,,,,,,,283.0940828999737,283.495147300011,283.47724619996734,283.5794768999913,283.9777689999901,None,right,1,0.43828159995609894,283.9777689999901,None,283.47724619996734,283.5794768999913,283.5794768999913,None,284.44505239999853,None,,,,,,,11011,001,2024_Jan_02_1023,ANT,2021.2.3,60.19041839308691,
1,11,center,up,IC,L,,,,,,Block.xlsx,"你已经完成了第一个实验区组

请稍作休息


点击空格键进入下一个区组。",0,50,1.5,left,RRLRR.png,,,,,0,0,0,0,3,0,72,10,,,,,,,,,,,,,,,,,,,,,,,,,,,,,,,,,,,,,,,,,,,,,,,,,,,,,,,,,,,,,,,,,,,,,,284.84632219997,285.24752689996967,285.23025769996457,285.3464275000151,285.7307277999935,None,left,1,0.6616751000401564,285.7307277999935,None,285.23025769996457,285.3464275000151,285.3310779000167,None,286.41530220001005,None,,,,,,,11011,001,2024_Jan_02_1023,ANT,2021.2.3,60.19041839308691,
1,1,no,up,C,L,,,,,,Block.xlsx,"你已经完成了第一个实验区组

请稍作休息


点击空格键进入下一个区组。",50,0,1.5,left,LLLLL.png,,,,,0,0,0,0,3,1,73,0,,,,,,,,,,,,,,,,,,,,,,,,,,,,,,,,,,,,,,,,,,,,,,,,,,,,,,,,,,,,,,,,,,,,,,286.81575929996325,287.2176882000058,287.19979330000933,287.29967430001125,287.70108969998546,None,left,1,0.4748325999826193,287.70108969998546,None,287.19979330000933,287.29967430001125,287.29967430001125,None,288.2012574999826,None,,,,,,,11011,001,2024_Jan_02_1023,ANT,2021.2.3,60.19041839308691,
1,5,no,down,C,L,,,,,,Block.xlsx,"你已经完成了第一个实验区组

请稍作休息


点击空格键进入下一个区组。",50,0,-1.5,left,LLLLL.png,,,,,0,0,0,0,3,2,74,4,,,,,,,,,,,,,,,,,,,,,,,,,,,,,,,,,,,,,,,,,,,,,,,,,,,,,,,,,,,,,,,,,,,,,,288.6011523999623,289.004405100015,288.9855943999719,289.08691690000705,289.4865192999714,None,left,1,0.5542193000437692,289.4865192999714,None,288.9855943999719,289.08691690000705,289.08691690000705,None,290.0713256999734,None,,,,,,,11011,001,2024_Jan_02_1023,ANT,2021.2.3,60.19041839308691,
1,24,spatial,down,IC,R,,,,,,Block.xlsx,"你已经完成了第一个实验区组

请稍作休息


点击空格键进入下一个区组。",-1.5,0,-1.5,right,LLRLL.png,,,,,0,0,0,0,3,3,75,23,,,,,,,,,,,,,,,,,,,,,,,,,,,,,,,,,,,,,,,,,,,,,,,,,,,,,,,,,,,,,,,,,,,,,,290.470584900002,290.8733349000104,290.8552837999887,290.95454369997606,291.3563960000174,None,right,1,0.48435530002461746,291.3563960000174,None,290.8552837999887,290.95454369997606,290.95454369997606,None,291.8576277999673,None,,,,,,,11011,001,2024_Jan_02_1023,ANT,2021.2.3,60.19041839308691,
1,12,center,up,IC,R,,,,,,Block.xlsx,"你已经完成了第一个实验区组

请稍作休息


点击空格键进入下一个区组。",0,50,1.5,right,LLRLL.png,,,,,0,0,0,0,3,4,76,11,,,,,,,,,,,,,,,,,,,,,,,,,,,,,,,,,,,,,,,,,,,,,,,,,,,,,,,,,,,,,,,,,,,,,,292.25651099998504,292.6587539999746,292.6417194000096,292.74130930000683,293.1415773999761,None,right,1,0.6263727000332437,293.1415773999761,None,292.6417194000096,292.74130930000683,292.74130930000683,None,293.79228900000453,None,,,,,,,11011,001,2024_Jan_02_1023,ANT,2021.2.3,60.19041839308691,
1,16,center,down,IC,R,,,,,,Block.xlsx,"你已经完成了第一个实验区组

请稍作休息


点击空格键进入下一个区组。",0,50,-1.5,right,LLRLL.png,,,,,0,0,0,0,3,5,77,15,,,,,,,,,,,,,,,,,,,,,,,,,,,,,,,,,,,,,,,,,,,,,,,,,,,,,,,,,,,,,,,,,,,,,,294.19385470001725,294.5941090999986,294.5779533999739,294.6774032000103,295.0782379999873,None,right,1,0.5776638999814168,295.0782379999873,None,294.5779533999739,294.6774032000103,294.6774032000103,None,295.67862500000047,None,,,,,,,11011,001,2024_Jan_02_1023,ANT,2021.2.3,60.19041839308691,
1,9,center,up,C,L,,,,,,Block.xlsx,"你已经完成了第一个实验区组

请稍作休息


点击空格键进入下一个区组。",0,50,1.5,left,LLLLL.png,,,,,0,0,0,0,3,6,78,8,,,,,,,,,,,,,,,,,,,,,,,,,,,,,,,,,,,,,,,,,,,,,,,,,,,,,,,,,,,,,,,,,,,,,,296.080290999962,296.4797228999669,296.464475899993,296.565151399991,296.9639174999902,None,left,1,0.6123054000199772,296.9639174999902,None,296.464475899993,296.565151399991,296.565151399991,None,297.597940800013,None,,,,,,,11011,001,2024_Jan_02_1023,ANT,2021.2.3,60.19041839308691,
1,4,no,up,IC,R,,,,,,Block.xlsx,"你已经完成了第一个实验区组

请稍作休息


点击空格键进入下一个区组。",50,0,1.5,right,LLRLL.png,,,,,0,0,0,0,3,7,79,3,,,,,,,,,,,,,,,,,,,,,,,,,,,,,,,,,,,,,,,,,,,,,,,,,,,,,,,,,,,,,,,,,,,,,,297.9989940999658,298.4000539999688,298.38247529999353,298.4847979999613,298.8837977999938,None,right,1,0.5883510999847203,298.8837977999938,None,298.38247529999353,298.4847979999613,298.4847979999613,None,299.50063500000397,None,,,,,,,11011,001,2024_Jan_02_1023,ANT,2021.2.3,60.19041839308691,
1,2,no,up,C,R,,,,,,Block.xlsx,"你已经完成了第一个实验区组

请稍作休息


点击空格键进入下一个区组。",50,0,1.5,right,RRRRR.png,,,,,0,0,0,0,3,8,80,1,,,,,,,,,,,,,,,,,,,,,,,,,,,,,,,,,,,,,,,,,,,,,,,,,,,,,,,,,,,,,,,,,,,,,,299.90132090001134,300.3038530999911,300.2852009999915,300.3860476000118,300.7868200999801,None,right,1,0.5571212999639101,300.7868200999801,None,300.2852009999915,300.3860476000118,300.3860476000118,None,301.37084270000923,None,,,,,,,11011,001,2024_Jan_02_1023,ANT,2021.2.3,60.19041839308691,
1,20,spatial,up,IC,R,,,,,,Block.xlsx,"你已经完成了第一个实验区组

请稍作休息


点击空格键进入下一个区组。",1.5,0,1.5,right,LLRLL.png,,,,,0,0,0,0,3,9,81,19,,,,,,,,,,,,,,,,,,,,,,,,,,,,,,,,,,,,,,,,,,,,,,,,,,,,,,,,,,,,,,,,,,,,,,301.7708450999926,302.1737347000162,302.15529490000335,302.2555237999768,302.65614089998417,None,right,1,0.4478856999776326,302.65614089998417,None,302.15529490000335,302.2555237999768,302.2555237999768,None,303.1226314000087,None,,,,,,,11011,001,2024_Jan_02_1023,ANT,2021.2.3,60.19041839308691,
1,20,spatial,up,IC,R,,,,,,Block.xlsx,"你已经完成了第一个实验区组

请稍作休息


点击空格键进入下一个区组。",1.5,0,1.5,right,LLRLL.png,,,,,0,0,0,0,3,10,82,19,,,,,,,,,,,,,,,,,,,,,,,,,,,,,,,,,,,,,,,,,,,,,,,,,,,,,,,,,,,,,,,,,,,,,,303.5232643999625,303.9242404999677,303.9080313000013,304.0084605999873,304.4098804999958,None,right,1,0.3667635000310838,304.4098804999958,None,303.9080313000013,304.0084605999873,304.0084605999873,None,304.7922947999905,None,,,,,,,11011,001,2024_Jan_02_1023,ANT,2021.2.3,60.19041839308691,
1,11,center,up,IC,L,,,,,,Block.xlsx,"你已经完成了第一个实验区组

请稍作休息


点击空格键进入下一个区组。",0,50,1.5,left,RRLRR.png,,,,,0,0,0,0,3,11,83,10,,,,,,,,,,,,,,,,,,,,,,,,,,,,,,,,,,,,,,,,,,,,,,,,,,,,,,,,,,,,,,,,,,,,,,305.19311399996514,305.59386399999494,305.5772536000004,305.67774610000197,306.07778799999505,None,left,1,0.5701715999748558,306.07778799999505,None,305.5772536000004,305.67774610000197,305.67774610000197,None,306.6781032999861,None,,,,,,,11011,001,2024_Jan_02_1023,ANT,2021.2.3,60.19041839308691,
1,24,spatial,down,IC,R,,,,,,Block.xlsx,"你已经完成了第一个实验区组

请稍作休息


点击空格键进入下一个区组。",-1.5,0,-1.5,right,LLRLL.png,,,,,0,0,0,0,3,12,84,23,,,,,,,,,,,,,,,,,,,,,,,,,,,,,,,,,,,,,,,,,,,,,,,,,,,,,,,,,,,,,,,,,,,,,,307.078686999972,307.48005469999043,307.46317199995974,307.56320879998384,307.96438899997156,None,right,1,0.5877146000275388,307.96438899997156,None,307.46317199995974,307.56320879998384,307.56320879998384,None,308.5809097000165,None,,,,,,,11011,001,2024_Jan_02_1023,ANT,2021.2.3,60.19041839308691,
1,17,spatial,up,C,L,,,,,,Block.xlsx,"你已经完成了第一个实验区组

请稍作休息


点击空格键进入下一个区组。",1.5,0,1.5,left,LLLLL.png,,,,,0,0,0,0,3,13,85,16,,,,,,,,,,,,,,,,,,,,,,,,,,,,,,,,,,,,,,,,,,,,,,,,,,,,,,,,,,,,,,,,,,,,,,308.98143629997503,309.38258729997324,309.36592579999706,309.46612279996043,309.86749859998235,None,left,1,0.46891900000628084,309.86749859998235,None,309.36592579999706,309.46612279996043,309.46612279996043,None,310.3668059000047,None,,,,,,,11011,001,2024_Jan_02_1023,ANT,2021.2.3,60.19041839308691,
1,6,no,down,C,R,,,,,,Block.xlsx,"你已经完成了第一个实验区组

请稍作休息


点击空格键进入下一个区组。",50,0,-1.5,right,RRRRR.png,,,,,0,0,0,0,3,14,86,5,,,,,,,,,,,,,,,,,,,,,,,,,,,,,,,,,,,,,,,,,,,,,,,,,,,,,,,,,,,,,,,,,,,,,,310.7673989000032,311.168063399964,311.1528587999637,311.253300899989,311.6528332000016,None,right,1,0.5316561000072397,311.6528332000016,None,311.1528587999637,311.253300899989,311.253300899989,None,312.20282710000174,None,,,,,,,11011,001,2024_Jan_02_1023,ANT,2021.2.3,60.19041839308691,
1,3,no,up,IC,L,,,,,,Block.xlsx,"你已经完成了第一个实验区组

请稍作休息


点击空格键进入下一个区组。",50,0,1.5,left,RRLRR.png,,,,,0,0,0,0,3,15,87,2,,,,,,,,,,,,,,,,,,,,,,,,,,,,,,,,,,,,,,,,,,,,,,,,,,,,,,,,,,,,,,,,,,,,,,312.6042708000168,313.0057072999771,312.9872475999873,313.08790599997155,313.48883819999173,None,left,1,0.5516190000344068,313.48883819999173,None,312.9872475999873,313.08790599997155,313.08790599997155,None,314.0557131000096,None,,,,,,,11011,001,2024_Jan_02_1023,ANT,2021.2.3,60.19041839308691,
1,13,center,down,C,L,,,,,,Block.xlsx,"你已经完成了第一个实验区组

请稍作休息


点击空格键进入下一个区组。",0,50,-1.5,left,LLLLL.png,,,,,0,0,0,0,3,16,88,12,,,,,,,,,,,,,,,,,,,,,,,,,,,,,,,,,,,,,,,,,,,,,,,,,,,,,,,,,,,,,,,,,,,,,,314.4560570999747,314.8570292000077,314.84198149997974,314.95816739997827,315.3423243999714,None,left,1,0.514054200029932,315.3423243999714,None,314.84198149997974,314.95816739997827,314.9423539999989,None,315.8748411000124,None,,,,,,,11011,001,2024_Jan_02_1023,ANT,2021.2.3,60.19041839308691,
1,10,center,up,C,R,,,,,,Block.xlsx,"你已经完成了第一个实验区组

请稍作休息


点击空格键进入下一个区组。",0,50,1.5,right,RRRRR.png,,,,,0,0,0,0,3,17,89,9,,,,,,,,,,,,,,,,,,,,,,,,,,,,,,,,,,,,,,,,,,,,,,,,,,,,,,,,,,,,,,,,,,,,,,316.27605980000226,316.6772281000158,316.6604596999823,316.76145809999434,317.1605044999742,None,right,1,0.46436440001707524,317.1605044999742,None,316.6604596999823,316.76145809999434,316.76145809999434,None,317.6446732999757,None,,,,,,,11011,001,2024_Jan_02_1023,ANT,2021.2.3,60.19041839308691,
1,10,center,up,C,R,,,,,,Block.xlsx,"你已经完成了第一个实验区组

请稍作休息


点击空格键进入下一个区组。",0,50,1.5,right,RRRRR.png,,,,,0,0,0,0,3,18,90,9,,,,,,,,,,,,,,,,,,,,,,,,,,,,,,,,,,,,,,,,,,,,,,,,,,,,,,,,,,,,,,,,,,,,,,318.0451807999634,318.44601720001083,318.42939629999455,318.528746499971,318.9299954000162,None,right,1,0.4063589000143111,318.9299954000162,None,318.42939629999455,318.528746499971,318.528746499971,None,319.36346690001665,None,,,,,,,11011,001,2024_Jan_02_1023,ANT,2021.2.3,60.19041839308691,
1,20,spatial,up,IC,R,,,,,,Block.xlsx,"你已经完成了第一个实验区组

请稍作休息


点击空格键进入下一个区组。",1.5,0,1.5,right,LLRLL.png,,,,,0,0,0,0,3,19,91,19,,,,,,,,,,,,,,,,,,,,,,,,,,,,,,,,,,,,,,,,,,,,,,,,,,,,,,,,,,,,,,,,,,,,,,319.7639882999938,320.1664311999921,320.1489466999774,320.2486642000149,320.6498255999759,None,right,1,0.47818249999545515,320.6498255999759,None,320.1489466999774,320.2486642000149,320.2486642000149,None,321.1494335999596,None,,,,,,,11011,001,2024_Jan_02_1023,ANT,2021.2.3,60.19041839308691,
1,5,no,down,C,L,,,,,,Block.xlsx,"你已经完成了第一个实验区组

请稍作休息


点击空格键进入下一个区组。",50,0,-1.5,left,LLLLL.png,,,,,0,0,0,0,3,20,92,4,,,,,,,,,,,,,,,,,,,,,,,,,,,,,,,,,,,,,,,,,,,,,,,,,,,,,,,,,,,,,,,,,,,,,,321.55075160000706,321.95040949998656,321.93464589997893,322.0357667999924,322.4347393999924,None,left,1,0.5658632999984547,322.4347393999924,None,321.93464589997893,322.0357667999924,322.0357667999924,None,323.0188205000013,None,,,,,,,11011,001,2024_Jan_02_1023,ANT,2021.2.3,60.19041839308691,
1,9,center,up,C,L,,,,,,Block.xlsx,"你已经完成了第一个实验区组

请稍作休息


点击空格键进入下一个区组。",0,50,1.5,left,LLLLL.png,,,,,0,0,0,0,3,21,93,8,,,,,,,,,,,,,,,,,,,,,,,,,,,,,,,,,,,,,,,,,,,,,,,,,,,,,,,,,,,,,,,,,,,,,,323.4194967999938,323.8211711999611,323.804720599961,323.90414100000635,324.30542089999653,None,left,1,0.5347427999950014,324.30542089999653,None,323.804720599961,323.90414100000635,323.90414100000635,None,324.85494629997993,None,,,,,,,11011,001,2024_Jan_02_1023,ANT,2021.2.3,60.19041839308691,
1,23,spatial,down,IC,L,,,,,,Block.xlsx,"你已经完成了第一个实验区组

请稍作休息


点击空格键进入下一个区组。",-1.5,0,-1.5,left,RRLRR.png,,,,,0,0,0,0,3,22,94,22,,,,,,,,,,,,,,,,,,,,,,,,,,,,,,,,,,,,,,,,,,,,,,,,,,,,,,,,,,,,,,,,,,,,,,325.2566599000129,325.65773779997835,325.6403555999859,325.74022729997523,326.1405636999989,None,left,1,0.6115184999653138,326.1405636999989,None,325.6403555999859,325.74022729997523,325.74022729997523,None,326.7756047999719,None,,,,,,,11011,001,2024_Jan_02_1023,ANT,2021.2.3,60.19041839308691,
1,6,no,down,C,R,,,,,,Block.xlsx,"你已经完成了第一个实验区组

请稍作休息


点击空格键进入下一个区组。",50,0,-1.5,right,RRRRR.png,,,,,0,0,0,0,3,23,95,5,,,,,,,,,,,,,,,,,,,,,,,,,,,,,,,,,,,,,,,,,,,,,,,,,,,,,,,,,,,,,,,,,,,,,,327.1756950999843,327.57658699998865,327.5597814999637,327.66149139998015,328.06011620000936,None,right,1,0.5486371999722905,328.06011620000936,None,327.5597814999637,327.66149139998015,327.66149139998015,None,328.6270915999776,None,,,,,,,11011,001,2024_Jan_02_1023,ANT,2021.2.3,60.19041839308691,
,,,,,,,,,,,Block.xlsx,"你已经完成了第一个实验区组

请稍作休息


点击空格键进入下一个区组。",,,,,,,,,,0,0,0,0,,,,,,,,,,,,,,,,,,,,,,,,,,,,,,,,,,,,,,,,,,,,,,,,,,,,,,,,,,,,,,,,,,,,,,,,,,,,,,,,,,,,,,,,,,,space,6.81765759998234,329.0463919999893,None,329.0463919999893,None,11011,001,2024_Jan_02_1023,ANT,2021.2.3,60.19041839308691,
1,17,spatial,up,C,L,,,,,,Block.xlsx,"你已经完成了整个实验（三个区组）。

请报告实验者已完成实验

非常感谢，再见！",1.5,0,1.5,left,LLLLL.png,,,,,0,1,1,1,0,0,0,16,,,,,,,,,,,,,,,,,,,,,,,,,,,,,,,,,,,,,,,,,,,,,,,,,,,,,,,,,,,,,,,,,,,,,,335.90428349998547,336.3064385000034,336.2885349999997,336.38903969997773,336.79015600000275,None,left,1,0.41777970001567155,336.79015600000275,None,336.2885349999997,336.38903969997773,336.38903969997773,None,337.2231747999904,None,,,,,,,11011,001,2024_Jan_02_1023,ANT,2021.2.3,60.19041839308691,
1,6,no,down,C,R,,,,,,Block.xlsx,"你已经完成了整个实验（三个区组）。

请报告实验者已完成实验

非常感谢，再见！",50,0,-1.5,right,RRRRR.png,,,,,0,1,1,1,0,1,1,5,,,,,,,,,,,,,,,,,,,,,,,,,,,,,,,,,,,,,,,,,,,,,,,,,,,,,,,,,,,,,,,,,,,,,,337.6238292999915,338.02545799996005,338.00767189997714,338.1091648999718,338.50843689998146,None,right,1,0.4843488999758847,338.50843689998146,None,338.00767189997714,338.1091648999718,338.1091648999718,None,339.0099194999784,None,,,,,,,11011,001,2024_Jan_02_1023,ANT,2021.2.3,60.19041839308691,
1,15,center,down,IC,L,,,,,,Block.xlsx,"你已经完成了整个实验（三个区组）。

请报告实验者已完成实验

非常感谢，再见！",0,50,-1.5,left,RRLRR.png,,,,,0,1,1,1,0,2,2,14,,,,,,,,,,,,,,,,,,,,,,,,,,,,,,,,,,,,,,,,,,,,,,,,,,,,,,,,,,,,,,,,,,,,,,339.4097399999737,339.8117762999609,339.7944662999944,339.89411659998586,340.2943314000149,None,left,1,0.6016097000101581,340.2943314000149,None,339.7944662999944,339.89411659998586,339.89411659998586,None,340.9121296000085,None,,,,,,,11011,001,2024_Jan_02_1023,ANT,2021.2.3,60.19041839308691,
1,16,center,down,IC,R,,,,,,Block.xlsx,"你已经完成了整个实验（三个区组）。

请报告实验者已完成实验

非常感谢，再见！",0,50,-1.5,right,LLRLL.png,,,,,0,1,1,1,0,3,3,15,,,,,,,,,,,,,,,,,,,,,,,,,,,,,,,,,,,,,,,,,,,,,,,,,,,,,,,,,,,,,,,,,,,,,,341.3125367999892,341.714005399961,341.69850739999674,341.79772119998233,342.1990807999973,None,right,1,0.6088470999966376,342.1990807999973,None,341.69850739999674,341.79772119998233,341.79772119998233,None,342.8314810000011,None,,,,,,,11011,001,2024_Jan_02_1023,ANT,2021.2.3,60.19041839308691,
1,3,no,up,IC,L,,,,,,Block.xlsx,"你已经完成了整个实验（三个区组）。

请报告实验者已完成实验

非常感谢，再见！",50,0,1.5,left,RRLRR.png,,,,,0,1,1,1,0,4,4,2,,,,,,,,,,,,,,,,,,,,,,,,,,,,,,,,,,,,,,,,,,,,,,,,,,,,,,,,,,,,,,,,,,,,,,343.23287299997173,343.6342703999835,343.6169451000169,343.71673569997074,344.11762179998914,None,left,1,0.6267993999645114,344.11762179998914,None,343.6169451000169,343.71673569997074,343.71673569997074,None,344.76801389997127,None,,,,,,,11011,001,2024_Jan_02_1023,ANT,2021.2.3,60.19041839308691,
1,8,no,down,IC,R,,,,,,Block.xlsx,"你已经完成了整个实验（三个区组）。

请报告实验者已完成实验

非常感谢，再见！",50,0,-1.5,right,LLRLL.png,,,,,0,1,1,1,0,5,5,7,,,,,,,,,,,,,,,,,,,,,,,,,,,,,,,,,,,,,,,,,,,,,,,,,,,,,,,,,,,,,,,,,,,,,,345.16898389998823,345.5689517999999,345.55430680001155,345.65348799998173,346.0536087999935,None,right,1,0.5946973999962211,346.0536087999935,None,345.55430680001155,345.65348799998173,345.65348799998173,None,346.67132219998166,None,,,,,,,11011,001,2024_Jan_02_1023,ANT,2021.2.3,60.19041839308691,
1,23,spatial,down,IC,L,,,,,,Block.xlsx,"你已经完成了整个实验（三个区组）。

请报告实验者已完成实验

非常感谢，再见！",-1.5,0,-1.5,left,RRLRR.png,,,,,0,1,1,1,0,6,6,22,,,,,,,,,,,,,,,,,,,,,,,,,,,,,,,,,,,,,,,,,,,,,,,,,,,,,,,,,,,,,,,,,,,,,,347.07109169999603,347.47275760001503,347.4566537999781,347.55608879996,347.95618089998607,None,left,1,0.5078813000000082,347.95618089998607,None,347.4566537999781,347.55608879996,347.55608879996,None,348.4900395000004,None,,,,,,,11011,001,2024_Jan_02_1023,ANT,2021.2.3,60.19041839308691,
1,15,center,down,IC,L,,,,,,Block.xlsx,"你已经完成了整个实验（三个区组）。

请报告实验者已完成实验

非常感谢，再见！",0,50,-1.5,left,RRLRR.png,,,,,0,1,1,1,0,7,7,14,,,,,,,,,,,,,,,,,,,,,,,,,,,,,,,,,,,,,,,,,,,,,,,,,,,,,,,,,,,,,,,,,,,,,,348.89053410000633,349.2917752999929,349.27521719998913,349.3751767000067,349.7757065999904,None,left,1,0.5443450000020675,349.7757065999904,None,349.27521719998913,349.3751767000067,349.3751767000067,None,350.3427096999949,None,,,,,,,11011,001,2024_Jan_02_1023,ANT,2021.2.3,60.19041839308691,
1,19,spatial,up,IC,L,,,,,,Block.xlsx,"你已经完成了整个实验（三个区组）。

请报告实验者已完成实验

非常感谢，再见！",1.5,0,1.5,left,RRLRR.png,,,,,0,1,1,1,0,8,8,18,,,,,,,,,,,,,,,,,,,,,,,,,,,,,,,,,,,,,,,,,,,,,,,,,,,,,,,,,,,,,,,,,,,,,,350.7433955000015,351.1456414000131,351.12711110000964,351.22906589997,351.6286335999612,None,left,1,0.5233802000293508,351.6286335999612,None,351.12711110000964,351.22906589997,351.22906589997,None,352.17866129998583,None,,,,,,,11011,001,2024_Jan_02_1023,ANT,2021.2.3,60.19041839308691,
1,8,no,down,IC,R,,,,,,Block.xlsx,"你已经完成了整个实验（三个区组）。

请报告实验者已完成实验

非常感谢，再见！",50,0,-1.5,right,LLRLL.png,,,,,0,1,1,1,0,9,9,7,,,,,,,,,,,,,,,,,,,,,,,,,,,,,,,,,,,,,,,,,,,,,,,,,,,,,,,,,,,,,,,,,,,,,,352.5796924000024,352.98120519996155,352.96318389999215,353.0646931999945,353.46400609996635,None,right,1,0.6173094999976456,353.46400609996635,None,352.96318389999215,353.0646931999945,353.0646931999945,None,354.09819940000307,None,,,,,,,11011,001,2024_Jan_02_1023,ANT,2021.2.3,60.19041839308691,
1,24,spatial,down,IC,R,,,,,,Block.xlsx,"你已经完成了整个实验（三个区组）。

请报告实验者已完成实验

非常感谢，再见！",-1.5,0,-1.5,right,LLRLL.png,,,,,0,1,1,1,0,10,10,23,,,,,,,,,,,,,,,,,,,,,,,,,,,,,,,,,,,,,,,,,,,,,,,,,,,,,,,,,,,,,,,,,,,,,,354.49887409998337,354.8998405999737,354.8833224999835,354.98351639998145,355.38502970000263,None,right,1,0.391277699964121,355.38502970000263,None,354.8833224999835,354.98351639998145,354.98351639998145,None,355.80068869999377,None,,,,,,,11011,001,2024_Jan_02_1023,ANT,2021.2.3,60.19041839308691,
1,8,no,down,IC,R,,,,,,Block.xlsx,"你已经完成了整个实验（三个区组）。

请报告实验者已完成实验

非常感谢，再见！",50,0,-1.5,right,LLRLL.png,,,,,0,1,1,1,0,11,11,7,,,,,,,,,,,,,,,,,,,,,,,,,,,,,,,,,,,,,,,,,,,,,,,,,,,,,,,,,,,,,,,,,,,,,,356.20200559997465,356.6021789999795,356.5859651999781,356.6859029000043,357.0867106000078,None,right,1,0.5933368999976665,357.0867106000078,None,356.5859651999781,356.6859029000043,356.6859029000043,None,357.7033847999992,None,,,,,,,11011,001,2024_Jan_02_1023,ANT,2021.2.3,60.19041839308691,
1,9,center,up,C,L,,,,,,Block.xlsx,"你已经完成了整个实验（三个区组）。

请报告实验者已完成实验

非常感谢，再见！",0,50,1.5,left,LLLLL.png,,,,,0,1,1,1,0,12,12,8,,,,,,,,,,,,,,,,,,,,,,,,,,,,,,,,,,,,,,,,,,,,,,,,,,,,,,,,,,,,,,,,,,,,,,358.10434449999593,358.5062076000031,358.4892578999861,358.5884137999965,358.99045420001494,None,left,1,0.4823004999780096,358.99045420001494,None,358.4892578999861,358.5884137999965,358.5884137999965,None,359.48961559997406,None,,,,,,,11011,001,2024_Jan_02_1023,ANT,2021.2.3,60.19041839308691,
1,23,spatial,down,IC,L,,,,,,Block.xlsx,"你已经完成了整个实验（三个区组）。

请报告实验者已完成实验

非常感谢，再见！",-1.5,0,-1.5,left,RRLRR.png,,,,,0,1,1,1,0,13,13,22,,,,,,,,,,,,,,,,,,,,,,,,,,,,,,,,,,,,,,,,,,,,,,,,,,,,,,,,,,,,,,,,,,,,,,359.89088069996797,360.29077229998074,360.2747642999748,360.3741371000069,360.7753580000135,None,left,1,0.5368405999615788,360.7753580000135,None,360.2747642999748,360.3741371000069,360.3741371000069,None,361.3424945999868,None,,,,,,,11011,001,2024_Jan_02_1023,ANT,2021.2.3,60.19041839308691,
1,17,spatial,up,C,L,,,,,,Block.xlsx,"你已经完成了整个实验（三个区组）。

请报告实验者已完成实验

非常感谢，再见！",1.5,0,1.5,left,LLLLL.png,,,,,0,1,1,1,0,14,14,16,,,,,,,,,,,,,,,,,,,,,,,,,,,,,,,,,,,,,,,,,,,,,,,,,,,,,,,,,,,,,,,,,,,,,,361.743656000006,362.14446589996805,362.12889970000833,362.2445732000051,362.62820759997703,None,left,1,0.4437913000001572,362.62820759997703,None,362.12889970000833,362.2445732000051,362.22885419998784,None,363.09498970001005,None,,,,,,,11011,001,2024_Jan_02_1023,ANT,2021.2.3,60.19041839308691,
1,3,no,up,IC,L,,,,,,Block.xlsx,"你已经完成了整个实验（三个区组）。

请报告实验者已完成实验

非常感谢，再见！",50,0,1.5,left,RRLRR.png,,,,,0,1,1,1,0,15,15,2,,,,,,,,,,,,,,,,,,,,,,,,,,,,,,,,,,,,,,,,,,,,,,,,,,,,,,,,,,,,,,,,,,,,,,363.49579249997623,363.8979565000045,363.8797726999619,363.9798790999921,364.38032960001146,None,left,1,0.5077295000082813,364.38032960001146,None,363.8797726999619,363.9798790999921,363.9798790999921,None,364.91490679996787,None,,,,,,,11011,001,2024_Jan_02_1023,ANT,2021.2.3,60.19041839308691,
1,4,no,up,IC,R,,,,,,Block.xlsx,"你已经完成了整个实验（三个区组）。

请报告实验者已完成实验

非常感谢，再见！",50,0,1.5,right,LLRLL.png,,,,,0,1,1,1,0,16,16,3,,,,,,,,,,,,,,,,,,,,,,,,,,,,,,,,,,,,,,,,,,,,,,,,,,,,,,,,,,,,,,,,,,,,,,365.3148487000144,365.717856400006,365.6990061000106,365.79981240001507,366.2003461999702,None,right,1,0.6162236999953166,366.2003461999702,None,365.6990061000106,365.79981240001507,365.79981240001507,None,366.8341175999958,None,,,,,,,11011,001,2024_Jan_02_1023,ANT,2021.2.3,60.19041839308691,
1,18,spatial,up,C,R,,,,,,Block.xlsx,"你已经完成了整个实验（三个区组）。

请报告实验者已完成实验

非常感谢，再见！",1.5,0,1.5,right,RRRRR.png,,,,,0,1,1,1,0,17,17,17,,,,,,,,,,,,,,,,,,,,,,,,,,,,,,,,,,,,,,,,,,,,,,,,,,,,,,,,,,,,,,,,,,,,,,367.2342949999729,367.6353606999619,367.6181028999854,367.7184452000074,368.1201476000133,None,right,1,0.5602041999809444,368.1201476000133,None,367.6181028999854,367.7184452000074,367.7184452000074,None,368.7032615999924,None,,,,,,,11011,001,2024_Jan_02_1023,ANT,2021.2.3,60.19041839308691,
1,22,spatial,down,C,R,,,,,,Block.xlsx,"你已经完成了整个实验（三个区组）。

请报告实验者已完成实验

非常感谢，再见！",-1.5,0,-1.5,right,RRRRR.png,,,,,0,1,1,1,0,18,18,21,,,,,,,,,,,,,,,,,,,,,,,,,,,,,,,,,,,,,,,,,,,,,,,,,,,,,,,,,,,,,,,,,,,,,,369.1041999000008,369.50577340001473,369.4879535000073,369.5885267999838,369.98944819997996,None,right,1,0.6427602999610826,369.98944819997996,None,369.4879535000073,369.5885267999838,369.5885267999838,None,370.65658650000114,None,,,,,,,11011,001,2024_Jan_02_1023,ANT,2021.2.3,60.19041839308691,
1,4,no,up,IC,R,,,,,,Block.xlsx,"你已经完成了整个实验（三个区组）。

请报告实验者已完成实验

非常感谢，再见！",50,0,1.5,right,LLRLL.png,,,,,0,1,1,1,0,19,19,3,,,,,,,,,,,,,,,,,,,,,,,,,,,,,,,,,,,,,,,,,,,,,,,,,,,,,,,,,,,,,,,,,,,,,,371.05756260000635,371.45762210001703,371.441073999973,371.54222940001637,371.94207749998895,None,right,1,0.6099702999927104,371.94207749998895,None,371.441073999973,371.54222940001637,371.54222940001637,None,372.57560229999945,None,,,,,,,11011,001,2024_Jan_02_1023,ANT,2021.2.3,60.19041839308691,
1,2,no,up,C,R,,,,,,Block.xlsx,"你已经完成了整个实验（三个区组）。

请报告实验者已完成实验

非常感谢，再见！",50,0,1.5,right,RRRRR.png,,,,,0,1,1,1,0,20,20,1,,,,,,,,,,,,,,,,,,,,,,,,,,,,,,,,,,,,,,,,,,,,,,,,,,,,,,,,,,,,,,,,,,,,,,372.9769575999817,373.3778772999649,373.36024939996423,373.4610904000001,373.8616209999891,None,right,1,0.45124100003158674,373.8616209999891,None,373.36024939996423,373.4610904000001,373.4610904000001,None,374.328822600015,None,,,,,,,11011,001,2024_Jan_02_1023,ANT,2021.2.3,60.19041839308691,
1,22,spatial,down,C,R,,,,,,Block.xlsx,"你已经完成了整个实验（三个区组）。

请报告实验者已完成实验

非常感谢，再见！",-1.5,0,-1.5,right,RRRRR.png,,,,,0,1,1,1,0,21,21,21,,,,,,,,,,,,,,,,,,,,,,,,,,,,,,,,,,,,,,,,,,,,,,,,,,,,,,,,,,,,,,,,,,,,,,374.72910769999726,375.130136199994,375.1139240000048,375.21351739997044,375.6141831999994,None,right,1,0.43391439999686554,375.6141831999994,None,375.1139240000048,375.21351739997044,375.21351739997044,None,376.06402920000255,None,,,,,,,11011,001,2024_Jan_02_1023,ANT,2021.2.3,60.19041839308691,
1,6,no,down,C,R,,,,,,Block.xlsx,"你已经完成了整个实验（三个区组）。

请报告实验者已完成实验

非常感谢，再见！",50,0,-1.5,right,RRRRR.png,,,,,0,1,1,1,0,22,22,5,,,,,,,,,,,,,,,,,,,,,,,,,,,,,,,,,,,,,,,,,,,,,,,,,,,,,,,,,,,,,,,,,,,,,,376.4647557999706,376.86597270000493,376.849177600001,376.94961730000796,377.35015129996464,None,right,1,0.49827829998685047,377.35015129996464,None,376.849177600001,376.94961730000796,376.94961730000796,None,377.8673570000101,None,,,,,,,11011,001,2024_Jan_02_1023,ANT,2021.2.3,60.19041839308691,
1,17,spatial,up,C,L,,,,,,Block.xlsx,"你已经完成了整个实验（三个区组）。

请报告实验者已完成实验

非常感谢，再见！",1.5,0,1.5,left,LLLLL.png,,,,,0,1,1,1,0,23,23,16,,,,,,,,,,,,,,,,,,,,,,,,,,,,,,,,,,,,,,,,,,,,,,,,,,,,,,,,,,,,,,,,,,,,,,378.2673289999948,378.66925450001145,378.6513907999615,378.75228049996076,379.15267789998325,None,left,1,0.36836620001122355,379.15267789998325,None,378.6513907999615,378.75228049996076,378.75228049996076,None,379.5356859000167,None,,,,,,,11011,001,2024_Jan_02_1023,ANT,2021.2.3,60.19041839308691,
1,12,center,up,IC,R,,,,,,Block.xlsx,"你已经完成了整个实验（三个区组）。

请报告实验者已完成实验

非常感谢，再见！",0,50,1.5,right,LLRLL.png,,,,,0,1,1,1,1,0,24,11,,,,,,,,,,,,,,,,,,,,,,,,,,,,,,,,,,,,,,,,,,,,,,,,,,,,,,,,,,,,,,,,,,,,,,379.9365494999802,380.3377544999821,380.3220322999987,380.4226216999814,380.82193679997,None,right,1,0.6105714000295848,380.82193679997,None,380.3220322999987,380.4226216999814,380.4226216999814,None,381.4560972999898,None,,,,,,,11011,001,2024_Jan_02_1023,ANT,2021.2.3,60.19041839308691,
1,11,center,up,IC,L,,,,,,Block.xlsx,"你已经完成了整个实验（三个区组）。

请报告实验者已完成实验

非常感谢，再见！",0,50,1.5,left,RRLRR.png,,,,,0,1,1,1,1,1,25,10,,,,,,,,,,,,,,,,,,,,,,,,,,,,,,,,,,,,,,,,,,,,,,,,,,,,,,,,,,,,,,,,,,,,,,381.8568120999844,382.25779740000144,382.24010719999205,382.3401343000005,382.7413219999871,None,left,1,0.5950093000428751,382.7413219999871,None,382.24010719999205,382.3401343000005,382.3401343000005,None,383.3586265000049,None,,,,,,,11011,001,2024_Jan_02_1023,ANT,2021.2.3,60.19041839308691,
1,21,spatial,down,C,L,,,,,,Block.xlsx,"你已经完成了整个实验（三个区组）。

请报告实验者已完成实验

非常感谢，再见！",-1.5,0,-1.5,left,LLLLL.png,,,,,0,1,1,1,1,2,26,20,,,,,,,,,,,,,,,,,,,,,,,,,,,,,,,,,,,,,,,,,,,,,,,,,,,,,,,,,,,,,,,,,,,,,,383.7585805999697,384.160721799999,384.1438499999931,384.2436197999632,384.644192799984,None,left,1,0.5000813000369817,384.644192799984,None,384.1438499999931,384.2436197999632,384.2436197999632,None,385.16092689998914,None,,,,,,,11011,001,2024_Jan_02_1023,ANT,2021.2.3,60.19041839308691,
1,12,center,up,IC,R,,,,,,Block.xlsx,"你已经完成了整个实验（三个区组）。

请报告实验者已完成实验

非常感谢，再见！",0,50,1.5,right,LLRLL.png,,,,,0,1,1,1,1,3,27,11,,,,,,,,,,,,,,,,,,,,,,,,,,,,,,,,,,,,,,,,,,,,,,,,,,,,,,,,,,,,,,,,,,,,,,385.56210089998785,385.9634789999691,385.94539800001075,386.04774289997295,386.4478221000172,None,right,1,0.8881986999767832,386.4478221000172,None,385.94539800001075,386.04774289997295,386.04774289997295,None,387.3651699000038,None,,,,,,,11011,001,2024_Jan_02_1023,ANT,2021.2.3,60.19041839308691,
1,2,no,up,C,R,,,,,,Block.xlsx,"你已经完成了整个实验（三个区组）。

请报告实验者已完成实验

非常感谢，再见！",50,0,1.5,right,RRRRR.png,,,,,0,1,1,1,1,4,28,1,,,,,,,,,,,,,,,,,,,,,,,,,,,,,,,,,,,,,,,,,,,,,,,,,,,,,,,,,,,,,,,,,,,,,,387.76548800000455,388.1665850999998,388.1495461000013,388.25048449996393,388.6502382999752,None,right,1,0.4697724000434391,388.6502382999752,None,388.1495461000013,388.25048449996393,388.25048449996393,None,389.1502962000086,None,,,,,,,11011,001,2024_Jan_02_1023,ANT,2021.2.3,60.19041839308691,
1,9,center,up,C,L,,,,,,Block.xlsx,"你已经完成了整个实验（三个区组）。

请报告实验者已完成实验

非常感谢，再见！",0,50,1.5,left,LLLLL.png,,,,,0,1,1,1,1,5,29,8,,,,,,,,,,,,,,,,,,,,,,,,,,,,,,,,,,,,,,,,,,,,,,,,,,,,,,,,,,,,,,,,,,,,,,389.5515638999641,389.95189119997667,389.9359859999968,390.0348038999946,390.4357480999897,None,left,1,0.5884518999955617,390.4357480999897,None,389.9359859999968,390.0348038999946,390.0348038999946,None,391.05306459998246,None,,,,,,,11011,001,2024_Jan_02_1023,ANT,2021.2.3,60.19041839308691,
1,6,no,down,C,R,,,,,,Block.xlsx,"你已经完成了整个实验（三个区组）。

请报告实验者已完成实验

非常感谢，再见！",50,0,-1.5,right,RRRRR.png,,,,,0,1,1,1,1,6,30,5,,,,,,,,,,,,,,,,,,,,,,,,,,,,,,,,,,,,,,,,,,,,,,,,,,,,,,,,,,,,,,,,,,,,,,391.45470279996516,391.8557398999692,391.8383463000064,391.93790499999886,392.3389582000091,None,right,1,0.7096260000253096,392.3389582000091,None,391.8383463000064,391.93790499999886,391.93790499999886,None,393.0727509999997,None,,,,,,,11011,001,2024_Jan_02_1023,ANT,2021.2.3,60.19041839308691,
1,13,center,down,C,L,,,,,,Block.xlsx,"你已经完成了整个实验（三个区组）。

请报告实验者已完成实验

非常感谢，再见！",0,50,-1.5,left,LLLLL.png,,,,,0,1,1,1,1,7,31,12,,,,,,,,,,,,,,,,,,,,,,,,,,,,,,,,,,,,,,,,,,,,,,,,,,,,,,,,,,,,,,,,,,,,,,393.4734074000153,393.8747429999639,393.85806990001583,393.9591388999834,394.35858160001226,None,left,1,0.6738629000028595,394.35858160001226,None,393.85806990001583,393.9591388999834,393.9591388999834,None,395.05893279996235,None,,,,,,,11011,001,2024_Jan_02_1023,ANT,2021.2.3,60.19041839308691,
1,2,no,up,C,R,,,,,,Block.xlsx,"你已经完成了整个实验（三个区组）。

请报告实验者已完成实验

非常感谢，再见！",50,0,1.5,right,RRRRR.png,,,,,0,1,1,1,1,8,32,1,,,,,,,,,,,,,,,,,,,,,,,,,,,,,,,,,,,,,,,,,,,,,,,,,,,,,,,,,,,,,,,,,,,,,,395.45955239998875,395.86078260000795,395.84503309999127,395.94434059999185,396.3447671000031,None,right,1,0.48724159999983385,396.3447671000031,None,395.84503309999127,395.94434059999185,395.94434059999185,None,396.8616876999731,None,,,,,,,11011,001,2024_Jan_02_1023,ANT,2021.2.3,60.19041839308691,
1,18,spatial,up,C,R,,,,,,Block.xlsx,"你已经完成了整个实验（三个区组）。

请报告实验者已完成实验

非常感谢，再见！",1.5,0,1.5,right,RRRRR.png,,,,,0,1,1,1,1,9,33,17,,,,,,,,,,,,,,,,,,,,,,,,,,,,,,,,,,,,,,,,,,,,,,,,,,,,,,,,,,,,,,,,,,,,,,397.2622575999703,397.66433639999013,397.6464988999651,397.7469509000075,398.1468329000054,None,right,1,0.46117349999258295,398.1468329000054,None,397.6464988999651,397.7469509000075,397.7469509000075,None,398.6309283999726,None,,,,,,,11011,001,2024_Jan_02_1023,ANT,2021.2.3,60.19041839308691,
1,1,no,up,C,L,,,,,,Block.xlsx,"你已经完成了整个实验（三个区组）。

请报告实验者已完成实验

非常感谢，再见！",50,0,1.5,left,LLLLL.png,,,,,0,1,1,1,1,10,34,0,,,,,,,,,,,,,,,,,,,,,,,,,,,,,,,,,,,,,,,,,,,,,,,,,,,,,,,,,,,,,,,,,,,,,,399.0313772999798,399.43375319999177,399.4155533000012,399.5167442999664,399.9170341999852,None,left,1,0.5232049000333063,399.9170341999852,None,399.4155533000012,399.5167442999664,399.5167442999664,None,400.4669360999833,None,,,,,,,11011,001,2024_Jan_02_1023,ANT,2021.2.3,60.19041839308691,
1,10,center,up,C,R,,,,,,Block.xlsx,"你已经完成了整个实验（三个区组）。

请报告实验者已完成实验

非常感谢，再见！",0,50,1.5,right,RRRRR.png,,,,,0,1,1,1,1,11,35,9,,,,,,,,,,,,,,,,,,,,,,,,,,,,,,,,,,,,,,,,,,,,,,,,,,,,,,,,,,,,,,,,,,,,,,400.86889209999936,401.26893500000006,401.2522146999836,401.3532881999854,401.7532611999777,None,right,1,0.503112800011877,401.7532611999777,None,401.2522146999836,401.3532881999854,401.3532881999854,None,402.2863618999836,None,,,,,,,11011,001,2024_Jan_02_1023,ANT,2021.2.3,60.19041839308691,
1,20,spatial,up,IC,R,,,,,,Block.xlsx,"你已经完成了整个实验（三个区组）。

请报告实验者已完成实验

非常感谢，再见！",1.5,0,1.5,right,LLRLL.png,,,,,0,1,1,1,1,12,36,19,,,,,,,,,,,,,,,,,,,,,,,,,,,,,,,,,,,,,,,,,,,,,,,,,,,,,,,,,,,,,,,,,,,,,,402.68691260000924,403.0882409999613,403.0724741999875,403.17156230000546,403.57249839999713,None,right,1,0.4436132999835536,403.57249839999713,None,403.0724741999875,403.17156230000546,403.17156230000546,None,404.0396104999818,None,,,,,,,11011,001,2024_Jan_02_1023,ANT,2021.2.3,60.19041839308691,
1,24,spatial,down,IC,R,,,,,,Block.xlsx,"你已经完成了整个实验（三个区组）。

请报告实验者已完成实验

非常感谢，再见！",-1.5,0,-1.5,right,LLRLL.png,,,,,0,1,1,1,1,13,37,23,,,,,,,,,,,,,,,,,,,,,,,,,,,,,,,,,,,,,,,,,,,,,,,,,,,,,,,,,,,,,,,,,,,,,,404.4394942999934,404.8423149000155,404.8241338999942,404.92442260001553,405.3242516000173,None,right,1,0.5162470000213943,405.3242516000173,None,404.8241338999942,404.92442260001553,404.92442260001553,None,405.85896939999657,None,,,,,,,11011,001,2024_Jan_02_1023,ANT,2021.2.3,60.19041839308691,
1,9,center,up,C,L,,,,,,Block.xlsx,"你已经完成了整个实验（三个区组）。

请报告实验者已完成实验

非常感谢，再见！",0,50,1.5,left,LLLLL.png,,,,,0,1,1,1,1,14,38,8,,,,,,,,,,,,,,,,,,,,,,,,,,,,,,,,,,,,,,,,,,,,,,,,,,,,,,,,,,,,,,,,,,,,,,406.25967749999836,406.6607981999987,406.6432394000003,406.743616199994,407.143653200008,None,left,1,0.6404495000024326,407.143653200008,None,406.6432394000003,406.743616199994,406.743616199994,None,407.8113049999811,None,,,,,,,11011,001,2024_Jan_02_1023,ANT,2021.2.3,60.19041839308691,
1,15,center,down,IC,L,,,,,,Block.xlsx,"你已经完成了整个实验（三个区组）。

请报告实验者已完成实验

非常感谢，再见！",0,50,-1.5,left,RRLRR.png,,,,,0,1,1,1,1,15,39,14,,,,,,,,,,,,,,,,,,,,,,,,,,,,,,,,,,,,,,,,,,,,,,,,,,,,,,,,,,,,,,,,,,,,,,408.2117156999884,408.6130618999596,408.5964120000135,408.6969998999848,409.09726979996776,None,left,1,0.6549911000183783,409.09726979996776,None,408.5964120000135,408.6969998999848,408.6969998999848,None,409.78073790000053,None,,,,,,,11011,001,2024_Jan_02_1023,ANT,2021.2.3,60.19041839308691,
1,21,spatial,down,C,L,,,,,,Block.xlsx,"你已经完成了整个实验（三个区组）。

请报告实验者已完成实验

非常感谢，再见！",-1.5,0,-1.5,left,LLLLL.png,,,,,0,1,1,1,1,16,40,20,,,,,,,,,,,,,,,,,,,,,,,,,,,,,,,,,,,,,,,,,,,,,,,,,,,,,,,,,,,,,,,,,,,,,,410.1812773999991,410.58301140001277,410.5667439000099,410.666313899972,411.0671513999696,None,left,1,0.4769702000194229,411.0671513999696,None,410.5667439000099,410.666313899972,410.666313899972,None,411.56730990001233,None,,,,,,,11011,001,2024_Jan_02_1023,ANT,2021.2.3,60.19041839308691,
1,10,center,up,C,R,,,,,,Block.xlsx,"你已经完成了整个实验（三个区组）。

请报告实验者已完成实验

非常感谢，再见！",0,50,1.5,right,RRRRR.png,,,,,0,1,1,1,1,17,41,9,,,,,,,,,,,,,,,,,,,,,,,,,,,,,,,,,,,,,,,,,,,,,,,,,,,,,,,,,,,,,,,,,,,,,,411.9674017999787,412.36779489996843,412.35206820000894,412.451979400008,412.85281169996597,None,right,1,0.49130429996876046,412.85281169996597,None,412.35206820000894,412.451979400008,412.451979400008,None,413.3699927999987,None,,,,,,,11011,001,2024_Jan_02_1023,ANT,2021.2.3,60.19041839308691,
1,8,no,down,IC,R,,,,,,Block.xlsx,"你已经完成了整个实验（三个区组）。

请报告实验者已完成实验

非常感谢，再见！",50,0,-1.5,right,LLRLL.png,,,,,0,1,1,1,1,18,42,7,,,,,,,,,,,,,,,,,,,,,,,,,,,,,,,,,,,,,,,,,,,,,,,,,,,,,,,,,,,,,,,,,,,,,,413.7701078999671,414.1720279000001,414.1542172000045,414.254861399997,414.65453110000817,None,right,1,0.5378532000468113,414.65453110000817,None,414.1542172000045,414.254861399997,414.254861399997,None,415.22220590000506,None,,,,,,,11011,001,2024_Jan_02_1023,ANT,2021.2.3,60.19041839308691,
1,12,center,up,IC,R,,,,,,Block.xlsx,"你已经完成了整个实验（三个区组）。

请报告实验者已完成实验

非常感谢，再见！",0,50,1.5,right,LLRLL.png,,,,,0,1,1,1,1,19,43,11,,,,,,,,,,,,,,,,,,,,,,,,,,,,,,,,,,,,,,,,,,,,,,,,,,,,,,,,,,,,,,,,,,,,,,415.62329489999684,416.0244175000116,416.00673919997644,416.10751050000545,416.5076972999959,None,right,1,0.63631729996996,416.5076972999959,None,416.00673919997644,416.10751050000545,416.10751050000545,None,417.1748617999838,None,,,,,,,11011,001,2024_Jan_02_1023,ANT,2021.2.3,60.19041839308691,
1,23,spatial,down,IC,L,,,,,,Block.xlsx,"你已经完成了整个实验（三个区组）。

请报告实验者已完成实验

非常感谢，再见！",-1.5,0,-1.5,left,RRLRR.png,,,,,0,1,1,1,1,20,44,22,,,,,,,,,,,,,,,,,,,,,,,,,,,,,,,,,,,,,,,,,,,,,,,,,,,,,,,,,,,,,,,,,,,,,,417.5756021999987,417.9766776000033,417.9599761000136,418.0600312000024,418.4608875999693,None,left,1,0.49994880001759157,418.4608875999693,None,417.9599761000136,418.0600312000024,418.0600312000024,None,418.97782729996834,None,,,,,,,11011,001,2024_Jan_02_1023,ANT,2021.2.3,60.19041839308691,
1,18,spatial,up,C,R,,,,,,Block.xlsx,"你已经完成了整个实验（三个区组）。

请报告实验者已完成实验

非常感谢，再见！",1.5,0,1.5,right,RRRRR.png,,,,,0,1,1,1,1,21,45,17,,,,,,,,,,,,,,,,,,,,,,,,,,,,,,,,,,,,,,,,,,,,,,,,,,,,,,,,,,,,,,,,,,,,,,419.3782246999908,419.77955809998093,419.7633580999682,419.86256159999175,420.2644272999605,None,right,1,0.3843803000054322,420.2644272999605,None,419.7633580999682,419.86256159999175,419.86256159999175,None,420.6646289000055,None,,,,,,,11011,001,2024_Jan_02_1023,ANT,2021.2.3,60.19041839308691,
1,20,spatial,up,IC,R,,,,,,Block.xlsx,"你已经完成了整个实验（三个区组）。

请报告实验者已完成实验

非常感谢，再见！",1.5,0,1.5,right,LLRLL.png,,,,,0,1,1,1,1,22,46,19,,,,,,,,,,,,,,,,,,,,,,,,,,,,,,,,,,,,,,,,,,,,,,,,,,,,,,,,,,,,,,,,,,,,,,421.06449309998425,421.46656359999906,421.4482363999705,421.5492317000171,421.94945199997164,None,right,1,0.4025783000397496,421.94945199997164,None,421.4482363999705,421.5492317000171,421.5492317000171,None,422.3828366000089,None,,,,,,,11011,001,2024_Jan_02_1023,ANT,2021.2.3,60.19041839308691,
1,21,spatial,down,C,L,,,,,,Block.xlsx,"你已经完成了整个实验（三个区组）。

请报告实验者已完成实验

非常感谢，再见！",-1.5,0,-1.5,left,LLLLL.png,,,,,0,1,1,1,1,23,47,20,,,,,,,,,,,,,,,,,,,,,,,,,,,,,,,,,,,,,,,,,,,,,,,,,,,,,,,,,,,,,,,,,,,,,,422.78389899997273,423.1860616999911,423.16776240000036,423.26906069996767,423.6685640999931,None,left,1,0.3799294999917038,423.6685640999931,None,423.16776240000036,423.26906069996767,423.26906069996767,None,424.06864620000124,None,,,,,,,11011,001,2024_Jan_02_1023,ANT,2021.2.3,60.19041839308691,
1,14,center,down,C,R,,,,,,Block.xlsx,"你已经完成了整个实验（三个区组）。

请报告实验者已完成实验

非常感谢，再见！",0,50,-1.5,right,RRRRR.png,,,,,0,1,1,1,2,0,48,13,,,,,,,,,,,,,,,,,,,,,,,,,,,,,,,,,,,,,,,,,,,,,,,,,,,,,,,,,,,,,,,,,,,,,,424.46991749998415,424.8718145000166,424.85366989998147,424.9547249999596,425.35405959998025,None,right,1,0.751358000037726,425.35405959998025,None,424.85366989998147,424.9547249999596,424.9547249999596,None,426.12156759999925,None,,,,,,,11011,001,2024_Jan_02_1023,ANT,2021.2.3,60.19041839308691,
1,24,spatial,down,IC,R,,,,,,Block.xlsx,"你已经完成了整个实验（三个区组）。

请报告实验者已完成实验

非常感谢，再见！",-1.5,0,-1.5,right,LLRLL.png,,,,,0,1,1,1,2,1,49,23,,,,,,,,,,,,,,,,,,,,,,,,,,,,,,,,,,,,,,,,,,,,,,,,,,,,,,,,,,,,,,,,,,,,,,426.52225629996974,426.9230115999817,426.90631839999696,427.00831429997925,427.40886139997747,None,right,1,0.4396275000181049,427.40886139997747,None,426.90631839999696,427.00831429997925,427.00831429997925,None,427.87423459999263,None,,,,,,,11011,001,2024_Jan_02_1023,ANT,2021.2.3,60.19041839308691,
1,5,no,down,C,L,,,,,,Block.xlsx,"你已经完成了整个实验（三个区组）。

请报告实验者已完成实验

非常感谢，再见！",50,0,-1.5,left,LLLLL.png,,,,,0,1,1,1,2,2,50,4,,,,,,,,,,,,,,,,,,,,,,,,,,,,,,,,,,,,,,,,,,,,,,,,,,,,,,,,,,,,,,,,,,,,,,428.2748688000138,428.6774544999935,428.65925269998843,428.7588150000083,429.1594536000048,None,left,1,0.5767800000030547,429.1594536000048,None,428.65925269998843,428.7588150000083,428.7588150000083,None,429.76035489997594,None,,,,,,,11011,001,2024_Jan_02_1023,ANT,2021.2.3,60.19041839308691,
1,13,center,down,C,L,,,,,,Block.xlsx,"你已经完成了整个实验（三个区组）。

请报告实验者已完成实验

非常感谢，再见！",0,50,-1.5,left,LLLLL.png,,,,,0,1,1,1,2,3,51,12,,,,,,,,,,,,,,,,,,,,,,,,,,,,,,,,,,,,,,,,,,,,,,,,,,,,,,,,,,,,,,,,,,,,,,430.16090770001756,430.56326229998376,430.5459011999774,430.64654350001365,431.04593149997527,None,left,1,0.5862004999653436,431.04593149997527,None,430.5459011999774,430.64654350001365,430.64654350001365,None,431.64708009996684,None,,,,,,,11011,001,2024_Jan_02_1023,ANT,2021.2.3,60.19041839308691,
1,2,no,up,C,R,,,,,,Block.xlsx,"你已经完成了整个实验（三个区组）。

请报告实验者已完成实验

非常感谢，再见！",50,0,1.5,right,RRRRR.png,,,,,0,1,1,1,2,4,52,1,,,,,,,,,,,,,,,,,,,,,,,,,,,,,,,,,,,,,,,,,,,,,,,,,,,,,,,,,,,,,,,,,,,,,,432.04728389997035,432.44837830000324,432.4316090999637,432.5314835999743,432.932384499989,None,right,1,0.5805094999959692,432.932384499989,None,432.4316090999637,432.5314835999743,432.5314835999743,None,433.5337091999827,None,,,,,,,11011,001,2024_Jan_02_1023,ANT,2021.2.3,60.19041839308691,
1,7,no,down,IC,L,,,,,,Block.xlsx,"你已经完成了整个实验（三个区组）。

请报告实验者已完成实验

非常感谢，再见！",50,0,-1.5,left,RRLRR.png,,,,,0,1,1,1,2,5,53,6,,,,,,,,,,,,,,,,,,,,,,,,,,,,,,,,,,,,,,,,,,,,,,,,,,,,,,,,,,,,,,,,,,,,,,433.93330149998656,434.33394649997354,434.31780939997407,434.41798959998414,434.819175600016,None,left,1,0.6691443999879993,434.819175600016,None,434.31780939997407,434.41798959998414,434.41798959998414,None,435.5189526999602,None,,,,,,,11011,001,2024_Jan_02_1023,ANT,2021.2.3,60.19041839308691,
1,19,spatial,up,IC,L,,,,,,Block.xlsx,"你已经完成了整个实验（三个区组）。

请报告实验者已完成实验

非常感谢，再见！",1.5,0,1.5,left,RRLRR.png,,,,,0,1,1,1,2,6,54,18,,,,,,,,,,,,,,,,,,,,,,,,,,,,,,,,,,,,,,,,,,,,,,,,,,,,,,,,,,,,,,,,,,,,,,435.91949920001207,436.3219144999748,436.30415929999435,436.4044842000003,436.8047480999958,None,left,1,0.7478471000213176,436.8047480999958,None,436.30415929999435,436.4044842000003,436.4044842000003,None,437.5718889000127,None,,,,,,,11011,001,2024_Jan_02_1023,ANT,2021.2.3,60.19041839308691,
1,10,center,up,C,R,,,,,,Block.xlsx,"你已经完成了整个实验（三个区组）。

请报告实验者已完成实验

非常感谢，再见！",0,50,1.5,right,RRRRR.png,,,,,0,1,1,1,2,7,55,9,,,,,,,,,,,,,,,,,,,,,,,,,,,,,,,,,,,,,,,,,,,,,,,,,,,,,,,,,,,,,,,,,,,,,,437.9725587000139,438.3742048999993,438.3574326999951,438.45764169999165,438.8575750999735,None,right,1,0.582971700001508,438.8575750999735,None,438.3574326999951,438.45764169999165,438.45764169999165,None,439.45867869997164,None,,,,,,,11011,001,2024_Jan_02_1023,ANT,2021.2.3,60.19041839308691,
1,6,no,down,C,R,,,,,,Block.xlsx,"你已经完成了整个实验（三个区组）。

请报告实验者已完成实验

非常感谢，再见！",50,0,-1.5,right,RRRRR.png,,,,,0,1,1,1,2,8,56,5,,,,,,,,,,,,,,,,,,,,,,,,,,,,,,,,,,,,,,,,,,,,,,,,,,,,,,,,,,,,,,,,,,,,,,439.85904939996544,440.2612780999625,440.2422973999637,440.3441054999712,440.7438548000064,None,right,1,0.6563470000401139,440.7438548000064,None,440.2422973999637,440.3441054999712,440.3441054999712,None,441.4275096000056,None,,,,,,,11011,001,2024_Jan_02_1023,ANT,2021.2.3,60.19041839308691,
1,11,center,up,IC,L,,,,,,Block.xlsx,"你已经完成了整个实验（三个区组）。

请报告实验者已完成实验

非常感谢，再见！",0,50,1.5,left,RRLRR.png,,,,,0,1,1,1,2,9,57,10,,,,,,,,,,,,,,,,,,,,,,,,,,,,,,,,,,,,,,,,,,,,,,,,,,,,,,,,,,,,,,,,,,,,,,441.82820119999815,442.22980629996164,442.21445809997385,442.3307424999657,442.7131638000137,None,left,1,0.5998124000034295,442.7131638000137,None,442.21445809997385,442.3307424999657,442.3127423999831,None,443.3313398999744,None,,,,,,,11011,001,2024_Jan_02_1023,ANT,2021.2.3,60.19041839308691,
1,1,no,up,C,L,,,,,,Block.xlsx,"你已经完成了整个实验（三个区组）。

请报告实验者已完成实验

非常感谢，再见！",50,0,1.5,left,LLLLL.png,,,,,0,1,1,1,2,10,58,0,,,,,,,,,,,,,,,,,,,,,,,,,,,,,,,,,,,,,,,,,,,,,,,,,,,,,,,,,,,,,,,,,,,,,,443.7310666000121,444.13369360001525,444.1151836999925,444.216831800004,444.61776039999677,None,left,1,0.6546075000078417,444.61776039999677,None,444.1151836999925,444.216831800004,444.216831800004,None,445.30004499998176,None,,,,,,,11011,001,2024_Jan_02_1023,ANT,2021.2.3,60.19041839308691,
1,5,no,down,C,L,,,,,,Block.xlsx,"你已经完成了整个实验（三个区组）。

请报告实验者已完成实验

非常感谢，再见！",50,0,-1.5,left,LLLLL.png,,,,,0,1,1,1,2,11,59,4,,,,,,,,,,,,,,,,,,,,,,,,,,,,,,,,,,,,,,,,,,,,,,,,,,,,,,,,,,,,,,,,,,,,,,445.7006986999768,446.102052000002,446.08558449998964,446.18475969997235,446.5859870999702,None,left,1,0.6468403000035323,446.5859870999702,None,446.08558449998964,446.18475969997235,446.18475969997235,None,447.2528793999809,None,,,,,,,11011,001,2024_Jan_02_1023,ANT,2021.2.3,60.19041839308691,
1,5,no,down,C,L,,,,,,Block.xlsx,"你已经完成了整个实验（三个区组）。

请报告实验者已完成实验

非常感谢，再见！",50,0,-1.5,left,LLLLL.png,,,,,0,1,1,1,2,12,60,4,,,,,,,,,,,,,,,,,,,,,,,,,,,,,,,,,,,,,,,,,,,,,,,,,,,,,,,,,,,,,,,,,,,,,,447.65405169996666,448.0547847999842,448.03932829998666,448.1381584999617,448.5391171000083,None,left,1,0.6131478999741375,448.5391171000083,None,448.03932829998666,448.1381584999617,448.1381584999617,None,449.1725284999702,None,,,,,,,11011,001,2024_Jan_02_1023,ANT,2021.2.3,60.19041839308691,
1,5,no,down,C,L,,,,,,Block.xlsx,"你已经完成了整个实验（三个区组）。

请报告实验者已完成实验

非常感谢，再见！",50,0,-1.5,left,LLLLL.png,,,,,0,1,1,1,2,13,61,4,,,,,,,,,,,,,,,,,,,,,,,,,,,,,,,,,,,,,,,,,,,,,,,,,,,,,,,,,,,,,,,,,,,,,,449.57333270000527,449.97456170001533,449.9577848999761,450.058305500017,450.4595274999738,None,left,1,0.4370571000035852,450.4595274999738,None,449.9577848999761,450.058305500017,450.058305500017,None,450.92568719998235,None,,,,,,,11011,001,2024_Jan_02_1023,ANT,2021.2.3,60.19041839308691,
1,18,spatial,up,C,R,,,,,,Block.xlsx,"你已经完成了整个实验（三个区组）。

请报告实验者已完成实验

非常感谢，再见！",1.5,0,1.5,right,RRRRR.png,,,,,0,1,1,1,2,14,62,17,,,,,,,,,,,,,,,,,,,,,,,,,,,,,,,,,,,,,,,,,,,,,,,,,,,,,,,,,,,,,,,,,,,,,,451.32592360000126,451.7269449000014,451.71009499998763,451.81222069996875,452.21183200000087,None,right,1,0.47658670000964776,452.21183200000087,None,451.71009499998763,451.81222069996875,451.81222069996875,None,452.71137929998804,None,,,,,,,11011,001,2024_Jan_02_1023,ANT,2021.2.3,60.19041839308691,
1,7,no,down,IC,L,,,,,,Block.xlsx,"你已经完成了整个实验（三个区组）。

请报告实验者已完成实验

非常感谢，再见！",50,0,-1.5,left,RRLRR.png,,,,,0,1,1,1,2,15,63,6,,,,,,,,,,,,,,,,,,,,,,,,,,,,,,,,,,,,,,,,,,,,,,,,,,,,,,,,,,,,,,,,,,,,,,453.1116859999602,453.5121255000122,453.49595389998285,453.59637669997755,453.9986902999808,None,left,1,0.6574159999727271,453.9986902999808,None,453.49595389998285,453.59637669997755,453.59637669997755,None,454.68117609998444,None,,,,,,,11011,001,2024_Jan_02_1023,ANT,2021.2.3,60.19041839308691,
1,16,center,down,IC,R,,,,,,Block.xlsx,"你已经完成了整个实验（三个区组）。

请报告实验者已完成实验

非常感谢，再见！",0,50,-1.5,right,LLRLL.png,,,,,0,1,1,1,2,16,64,15,,,,,,,,,,,,,,,,,,,,,,,,,,,,,,,,,,,,,,,,,,,,,,,,,,,,,,,,,,,,,,,,,,,,,,455.082090699987,455.48250919999555,455.4659717999748,455.56583430001047,455.9678995999857,None,right,1,0.8564271000213921,455.9678995999857,None,455.4659717999748,455.56583430001047,455.56583430001047,None,456.851116899983,None,,,,,,,11011,001,2024_Jan_02_1023,ANT,2021.2.3,60.19041839308691,
1,11,center,up,IC,L,,,,,,Block.xlsx,"你已经完成了整个实验（三个区组）。

请报告实验者已完成实验

非常感谢，再见！",0,50,1.5,left,RRLRR.png,,,,,0,1,1,1,2,17,65,10,,,,,,,,,,,,,,,,,,,,,,,,,,,,,,,,,,,,,,,,,,,,,,,,,,,,,,,,,,,,,,,,,,,,,,457.25172759999987,457.6516241999925,457.63576699997066,457.73581370001193,458.13648729998386,None,left,1,0.6480132000287995,458.13648729998386,None,457.63576699997066,457.73581370001193,457.73581370001193,None,458.803612699965,None,,,,,,,11011,001,2024_Jan_02_1023,ANT,2021.2.3,60.19041839308691,
1,1,no,up,C,L,,,,,,Block.xlsx,"你已经完成了整个实验（三个区组）。

请报告实验者已完成实验

非常感谢，再见！",50,0,1.5,left,LLLLL.png,,,,,0,1,1,1,2,18,66,0,,,,,,,,,,,,,,,,,,,,,,,,,,,,,,,,,,,,,,,,,,,,,,,,,,,,,,,,,,,,,,,,,,,,,,459.20390159997623,459.60526469995966,459.588474499993,459.6892840999644,460.0901562999934,None,left,1,0.9182795999804512,460.0901562999934,None,459.588474499993,459.6892840999644,459.6892840999644,None,461.0400185000035,None,,,,,,,11011,001,2024_Jan_02_1023,ANT,2021.2.3,60.19041839308691,
1,14,center,down,C,R,,,,,,Block.xlsx,"你已经完成了整个实验（三个区组）。

请报告实验者已完成实验

非常感谢，再见！",0,50,-1.5,right,RRRRR.png,,,,,0,1,1,1,2,19,67,13,,,,,,,,,,,,,,,,,,,,,,,,,,,,,,,,,,,,,,,,,,,,,,,,,,,,,,,,,,,,,,,,,,,,,,461.4412835999974,461.8431181999622,461.8251161999651,461.9257105999859,462.3271195999696,None,right,1,0.5376098000560887,462.3271195999696,None,461.8251161999651,461.9257105999859,461.9257105999859,None,462.8926827000105,None,,,,,,,11011,001,2024_Jan_02_1023,ANT,2021.2.3,60.19041839308691,
1,12,center,up,IC,R,,,,,,Block.xlsx,"你已经完成了整个实验（三个区组）。

请报告实验者已完成实验

非常感谢，再见！",0,50,1.5,right,LLRLL.png,,,,,0,1,1,1,2,20,68,11,,,,,,,,,,,,,,,,,,,,,,,,,,,,,,,,,,,,,,,,,,,,,,,,,,,,,,,,,,,,,,,,,,,,,,463.29341129999375,463.6946739999694,463.6782884999993,463.7776916999719,464.1783207000117,None,right,1,0.7181289999862202,464.1783207000117,None,463.6782884999993,463.7776916999719,463.7776916999719,None,464.9126115000108,None,,,,,,,11011,001,2024_Jan_02_1023,ANT,2021.2.3,60.19041839308691,
1,24,spatial,down,IC,R,,,,,,Block.xlsx,"你已经完成了整个实验（三个区组）。

请报告实验者已完成实验

非常感谢，再见！",-1.5,0,-1.5,right,LLRLL.png,,,,,0,1,1,1,2,21,69,23,,,,,,,,,,,,,,,,,,,,,,,,,,,,,,,,,,,,,,,,,,,,,,,,,,,,,,,,,,,,,,,,,,,,,,465.31305479997536,465.7143475000048,465.6974943999667,465.7975881000166,466.19835520000197,None,right,1,0.7221323999692686,466.19835520000197,None,465.6974943999667,465.7975881000166,465.7975881000166,None,466.94960180000635,None,,,,,,,11011,001,2024_Jan_02_1023,ANT,2021.2.3,60.19041839308691,
1,17,spatial,up,C,L,,,,,,Block.xlsx,"你已经完成了整个实验（三个区组）。

请报告实验者已完成实验

非常感谢，再见！",1.5,0,1.5,left,LLLLL.png,,,,,0,1,1,1,2,22,70,16,,,,,,,,,,,,,,,,,,,,,,,,,,,,,,,,,,,,,,,,,,,,,,,,,,,,,,,,,,,,,,,,,,,,,,467.35105220001424,467.75081070000306,467.73387160000857,467.83417180000106,468.23396869999124,None,left,1,0.4782368000014685,468.23396869999124,None,467.73387160000857,467.83417180000106,467.83417180000106,None,468.73493530001724,None,,,,,,,11011,001,2024_Jan_02_1023,ANT,2021.2.3,60.19041839308691,
1,22,spatial,down,C,R,,,,,,Block.xlsx,"你已经完成了整个实验（三个区组）。

请报告实验者已完成实验

非常感谢，再见！",-1.5,0,-1.5,right,RRRRR.png,,,,,0,1,1,1,2,23,71,21,,,,,,,,,,,,,,,,,,,,,,,,,,,,,,,,,,,,,,,,,,,,,,,,,,,,,,,,,,,,,,,,,,,,,,469.13537480001105,469.5361033999943,469.51988300000085,469.6210774999927,470.0199510999955,None,right,1,0.4688173999893479,470.0199510999955,None,469.51988300000085,469.6210774999927,469.6210774999927,None,470.50461189995985,None,,,,,,,11011,001,2024_Jan_02_1023,ANT,2021.2.3,60.19041839308691,
1,16,center,down,IC,R,,,,,,Block.xlsx,"你已经完成了整个实验（三个区组）。

请报告实验者已完成实验

非常感谢，再见！",0,50,-1.5,right,LLRLL.png,,,,,0,1,1,1,3,0,72,15,,,,,,,,,,,,,,,,,,,,,,,,,,,,,,,,,,,,,,,,,,,,,,,,,,,,,,,,,,,,,,,,,,,,,,470.9046481999685,471.30668400001014,471.2891279999749,471.38951959996484,471.79004940000596,None,right,1,0.8904419000027701,471.79004940000596,None,471.2891279999749,471.38951959996484,471.38951959996484,None,472.7078365999623,None,,,,,,,11011,001,2024_Jan_02_1023,ANT,2021.2.3,60.19041839308691,
1,15,center,down,IC,L,,,,,,Block.xlsx,"你已经完成了整个实验（三个区组）。

请报告实验者已完成实验

非常感谢，再见！",0,50,-1.5,left,RRLRR.png,,,,,0,1,1,1,3,1,73,14,,,,,,,,,,,,,,,,,,,,,,,,,,,,,,,,,,,,,,,,,,,,,,,,,,,,,,,,,,,,,,,,,,,,,,473.1080784999649,473.5103538999683,473.49295300000813,473.59248629998183,473.99468100001104,None,left,1,1.053396100003738,473.99468100001104,None,473.49295300000813,473.59248629998183,473.59248629998183,None,475.07815570000093,None,,,,,,,11011,001,2024_Jan_02_1023,ANT,2021.2.3,60.19041839308691,
1,20,spatial,up,IC,R,,,,,,Block.xlsx,"你已经完成了整个实验（三个区组）。

请报告实验者已完成实验

非常感谢，再见！",1.5,0,1.5,right,LLRLL.png,,,,,0,1,1,1,3,2,74,19,,,,,,,,,,,,,,,,,,,,,,,,,,,,,,,,,,,,,,,,,,,,,,,,,,,,,,,,,,,,,,,,,,,,,,475.4788288999698,475.8798363999813,475.86309589998564,475.96331169997575,476.36432449996937,None,right,1,0.6597769999643788,476.36432449996937,None,475.86309589998564,475.96331169997575,475.96331169997575,None,477.0478043999756,None,,,,,,,11011,001,2024_Jan_02_1023,ANT,2021.2.3,60.19041839308691,
1,1,no,up,C,L,,,,,,Block.xlsx,"你已经完成了整个实验（三个区组）。

请报告实验者已完成实验

非常感谢，再见！",50,0,1.5,left,LLLLL.png,,,,,0,1,1,1,3,3,75,0,,,,,,,,,,,,,,,,,,,,,,,,,,,,,,,,,,,,,,,,,,,,,,,,,,,,,,,,,,,,,,,,,,,,,,477.44863910001004,477.8490468999953,477.83250869996846,477.9325637000147,478.33306079998147,None,left,1,0.6590654999599792,478.33306079998147,None,477.83250869996846,477.9325637000147,477.9325637000147,None,479.0166753999656,None,,,,,,,11011,001,2024_Jan_02_1023,ANT,2021.2.3,60.19041839308691,
1,13,center,down,C,L,,,,,,Block.xlsx,"你已经完成了整个实验（三个区组）。

请报告实验者已完成实验

非常感谢，再见！",0,50,-1.5,left,LLLLL.png,,,,,0,1,1,1,3,4,76,12,,,,,,,,,,,,,,,,,,,,,,,,,,,,,,,,,,,,,,,,,,,,,,,,,,,,,,,,,,,,,,,,,,,,,,479.4173517000163,479.818683599995,479.80129809997743,479.9030577999656,480.3019570999895,None,left,1,0.6102728000259958,480.3019570999895,None,479.80129809997743,479.9030577999656,479.9030577999656,None,480.9362040999695,None,,,,,,,11011,001,2024_Jan_02_1023,ANT,2021.2.3,60.19041839308691,
1,13,center,down,C,L,,,,,,Block.xlsx,"你已经完成了整个实验（三个区组）。

请报告实验者已完成实验

非常感谢，再见！",0,50,-1.5,left,LLLLL.png,,,,,0,1,1,1,3,5,77,12,,,,,,,,,,,,,,,,,,,,,,,,,,,,,,,,,,,,,,,,,,,,,,,,,,,,,,,,,,,,,,,,,,,,,,481.3367674999754,481.73836550000124,481.72146929998416,481.8214765000157,482.22416549996706,None,left,1,0.5120053000282496,482.22416549996706,None,481.72146929998416,481.8214765000157,481.8214765000157,None,482.7560461999965,None,,,,,,,11011,001,2024_Jan_02_1023,ANT,2021.2.3,60.19041839308691,
1,14,center,down,C,R,,,,,,Block.xlsx,"你已经完成了整个实验（三个区组）。

请报告实验者已完成实验

非常感谢，再见！",0,50,-1.5,right,RRRRR.png,,,,,0,1,1,1,3,6,78,13,,,,,,,,,,,,,,,,,,,,,,,,,,,,,,,,,,,,,,,,,,,,,,,,,,,,,,,,,,,,,,,,,,,,,,483.1559242999647,483.558229999966,483.54060489998665,483.6414281000034,484.0414504999644,None,right,1,0.6553603999782354,484.0414504999644,None,483.54060489998665,483.6414281000034,483.6414281000034,None,484.7251386999851,None,,,,,,,11011,001,2024_Jan_02_1023,ANT,2021.2.3,60.19041839308691,
1,10,center,up,C,R,,,,,,Block.xlsx,"你已经完成了整个实验（三个区组）。

请报告实验者已完成实验

非常感谢，再见！",0,50,1.5,right,RRRRR.png,,,,,0,1,1,1,3,7,79,9,,,,,,,,,,,,,,,,,,,,,,,,,,,,,,,,,,,,,,,,,,,,,,,,,,,,,,,,,,,,,,,,,,,,,,485.12651759997243,485.52825380000286,485.51043660001596,485.6099566000048,486.01107309997315,None,right,1,0.6530620999983512,486.01107309997315,None,485.51043660001596,485.6099566000048,485.6099566000048,None,486.69529890001286,None,,,,,,,11011,001,2024_Jan_02_1023,ANT,2021.2.3,60.19041839308691,
1,4,no,up,IC,R,,,,,,Block.xlsx,"你已经完成了整个实验（三个区组）。

请报告实验者已完成实验

非常感谢，再见！",50,0,1.5,right,LLRLL.png,,,,,0,1,1,1,3,8,80,3,,,,,,,,,,,,,,,,,,,,,,,,,,,,,,,,,,,,,,,,,,,,,,,,,,,,,,,,,,,,,,,,,,,,,,487.0959654999897,487.4964605999994,487.4798962000059,487.5809517999878,487.98107219999656,None,right,1,0.9871299999649636,487.98107219999656,None,487.4798962000059,487.5809517999878,487.5809517999878,None,488.99878849997185,None,,,,,,,11011,001,2024_Jan_02_1023,ANT,2021.2.3,60.19041839308691,
1,19,spatial,up,IC,L,,,,,,Block.xlsx,"你已经完成了整个实验（三个区组）。

请报告实验者已完成实验

非常感谢，再见！",1.5,0,1.5,left,RRLRR.png,,,,,0,1,1,1,3,9,81,18,,,,,,,,,,,,,,,,,,,,,,,,,,,,,,,,,,,,,,,,,,,,,,,,,,,,,,,,,,,,,,,,,,,,,,489.39966270001605,489.7993235999602,489.7839983999729,489.8834782000049,490.2843635000172,None,left,1,0.4760015999781899,490.2843635000172,None,489.7839983999729,489.8834782000049,489.8834782000049,None,490.78411499998765,None,,,,,,,11011,001,2024_Jan_02_1023,ANT,2021.2.3,60.19041839308691,
1,16,center,down,IC,R,,,,,,Block.xlsx,"你已经完成了整个实验（三个区组）。

请报告实验者已完成实验

非常感谢，再见！",0,50,-1.5,right,LLRLL.png,,,,,0,1,1,1,3,10,82,15,,,,,,,,,,,,,,,,,,,,,,,,,,,,,,,,,,,,,,,,,,,,,,,,,,,,,,,,,,,,,,,,,,,,,,491.18479049997404,491.5874366000062,491.56898069998715,491.67014679999556,492.0699707000167,None,right,1,0.6183305999729782,492.0699707000167,None,491.56898069998715,491.67014679999556,491.67014679999556,None,492.70336469996255,None,,,,,,,11011,001,2024_Jan_02_1023,ANT,2021.2.3,60.19041839308691,
1,3,no,up,IC,L,,,,,,Block.xlsx,"你已经完成了整个实验（三个区组）。

请报告实验者已完成实验

非常感谢，再见！",50,0,1.5,left,RRLRR.png,,,,,0,1,1,1,3,11,83,2,,,,,,,,,,,,,,,,,,,,,,,,,,,,,,,,,,,,,,,,,,,,,,,,,,,,,,,,,,,,,,,,,,,,,,493.10428359999787,493.5062432999839,493.488663600001,493.5899428999983,493.9892933999654,None,left,1,0.7629269000026397,493.9892933999654,None,493.488663600001,493.5899428999983,493.5899428999983,None,494.7733328999602,None,,,,,,,11011,001,2024_Jan_02_1023,ANT,2021.2.3,60.19041839308691,
1,22,spatial,down,C,R,,,,,,Block.xlsx,"你已经完成了整个实验（三个区组）。

请报告实验者已完成实验

非常感谢，再见！",-1.5,0,-1.5,right,RRRRR.png,,,,,0,1,1,1,3,12,84,21,,,,,,,,,,,,,,,,,,,,,,,,,,,,,,,,,,,,,,,,,,,,,,,,,,,,,,,,,,,,,,,,,,,,,,495.17403059999924,495.5752251999802,495.5596485999995,495.675317599962,496.05919359996915,None,right,1,0.40520169999217615,496.05919359996915,None,495.5596485999995,495.675317599962,495.65931449999334,None,496.49263009999413,None,,,,,,,11011,001,2024_Jan_02_1023,ANT,2021.2.3,60.19041839308691,
1,9,center,up,C,L,,,,,,Block.xlsx,"你已经完成了整个实验（三个区组）。

请报告实验者已完成实验

非常感谢，再见！",0,50,1.5,left,LLLLL.png,,,,,0,1,1,1,3,13,85,8,,,,,,,,,,,,,,,,,,,,,,,,,,,,,,,,,,,,,,,,,,,,,,,,,,,,,,,,,,,,,,,,,,,,,,496.89385639998363,497.29464929999085,497.27787970000645,497.37950280000223,497.7787852999754,None,left,1,0.49336189997848123,497.7787852999754,None,497.27787970000645,497.37950280000223,497.37950280000223,None,498.29533829999855,None,,,,,,,11011,001,2024_Jan_02_1023,ANT,2021.2.3,60.19041839308691,
1,14,center,down,C,R,,,,,,Block.xlsx,"你已经完成了整个实验（三个区组）。

请报告实验者已完成实验

非常感谢，再见！",0,50,-1.5,right,RRRRR.png,,,,,0,1,1,1,3,14,86,13,,,,,,,,,,,,,,,,,,,,,,,,,,,,,,,,,,,,,,,,,,,,,,,,,,,,,,,,,,,,,,,,,,,,,,498.6964878999861,499.09752519999165,499.0806250000023,499.1807752000168,499.5813626999734,None,right,1,0.46841039997525513,499.5813626999734,None,499.0806250000023,499.1807752000168,499.1807752000168,None,500.06454399996437,None,,,,,,,11011,001,2024_Jan_02_1023,ANT,2021.2.3,60.19041839308691,
1,19,spatial,up,IC,L,,,,,,Block.xlsx,"你已经完成了整个实验（三个区组）。

请报告实验者已完成实验

非常感谢，再见！",1.5,0,1.5,left,RRLRR.png,,,,,0,1,1,1,3,15,87,18,,,,,,,,,,,,,,,,,,,,,,,,,,,,,,,,,,,,,,,,,,,,,,,,,,,,,,,,,,,,,,,,,,,,,,500.4651089999825,500.86562339996453,500.8495317999623,500.9495346999611,501.3497295000125,None,left,1,0.3787954000290483,501.3497295000125,None,500.8495317999623,500.9495346999611,500.9495346999611,None,501.75030099996366,None,,,,,,,11011,001,2024_Jan_02_1023,ANT,2021.2.3,60.19041839308691,
1,23,spatial,down,IC,L,,,,,,Block.xlsx,"你已经完成了整个实验（三个区组）。

请报告实验者已完成实验

非常感谢，再见！",-1.5,0,-1.5,left,RRLRR.png,,,,,0,1,1,1,3,16,88,22,,,,,,,,,,,,,,,,,,,,,,,,,,,,,,,,,,,,,,,,,,,,,,,,,,,,,,,,,,,,,,,,,,,,,,502.1509801999782,502.5537218999816,502.5355109999655,502.63537430000724,503.0364191000117,None,left,1,0.5323910000151955,503.0364191000117,None,502.5355109999655,502.63537430000724,502.63537430000724,None,503.58657250000397,None,,,,,,,11011,001,2024_Jan_02_1023,ANT,2021.2.3,60.19041839308691,
1,20,spatial,up,IC,R,,,,,,Block.xlsx,"你已经完成了整个实验（三个区组）。

请报告实验者已完成实验

