TrialType,TrialNumber,WarningType,TargetType,FlankerType,TargetDirection,W,f,Y,corr,imageFile,condition,endtext,Yw,Yf,Yt,Corr,imagefile,trials_3.thisRepN,trials_3.thisTrialN,trials_3.thisN,trials_3.thisIndex,trials_2.thisRepN,trials_2.thisTrialN,trials_2.thisN,trials_2.thisIndex,trials.thisRepN,trials.thisTrialN,trials.thisN,trials.thisIndex,instr.started,instr.stopped,key_resp.keys,key_resp.rt,key_resp.started,key_resp.stopped,image.started,image.stopped,key_resp_6.keys,key_resp_6.rt,key_resp_6.started,key_resp_6.stopped,EX_L.started,EX_L.stopped,AL.started,AL.stopped,key_resp_7.keys,key_resp_7.rt,key_resp_7.started,key_resp_7.stopped,EX_R.started,EX_R.stopped,RR.started,RR.stopped,key_resp_8.keys,key_resp_8.rt,key_resp_8.started,key_resp_8.stopped,image_2.started,image_2.stopped,key_resp_9.keys,key_resp_9.rt,key_resp_9.started,key_resp_9.stopped,image_3.started,image_3.stopped,key_resp_10.keys,key_resp_10.rt,key_resp_10.started,key_resp_10.stopped,fix.started,fix.stopped,war.started,war.stopped,tar.started,tar.stopped,key_resp_4.keys,key_resp_4.corr,key_resp_4.rt,key_resp_4.started,key_resp_4.stopped,fix2.started,fix2.stopped,fix_2.started,fix_2.stopped,Feedback.started,Feedback.stopped,key_resp_2.keys,key_resp_2.rt,key_resp_2.started,key_resp_2.stopped,text_5.started,text_5.stopped,fix2_1.started,fix2_1.stopped,Warn.started,Warn.stopped,Tar.started,Tar.stopped,key_resp_5.keys,key_resp_5.corr,key_resp_5.rt,key_resp_5.started,key_resp_5.stopped,Fix_2.started,Fix_2.stopped,fix2_2.started,fix2_2.stopped,text_4.started,text_4.stopped,key_resp_3.keys,key_resp_3.rt,key_resp_3.started,key_resp_3.stopped,text_3.started,text_3.stopped,participant,session,date,expName,psychopyVersion,frameRate,
,,,,,,,,,,,,,,,,,,,,,,,,,,,,,,13.457071399898268,None,space,10.748258600011468,13.457071399898268,None,,,,,,,,,,,,,,,,,,,,,,,,,,,,,,,,,,,,,,,,,,,,,,,,,,,,,,,,,,,,,,,,,,,,,,,,,,,,,,,,,11015,001,2024_Jan_04_1117,ANT,2021.2.3,59.79949230707681,
,,,,,,,,,,,,,,,,,,,,,,,,,,,,,,,,,,,,24.222867699922062,None,space,23.982025500037707,24.222867699922062,None,,,,,,,,,,,,,,,,,,,,,,,,,,,,,,,,,,,,,,,,,,,,,,,,,,,,,,,,,,,,,,,,,,,,,,,,,,,11015,001,2024_Jan_04_1117,ANT,2021.2.3,59.79949230707681,
,,,,,,,,,,,,,,,,,,,,,,,,,,,,,,,,,,,,,,,,,,48.22485040000174,None,48.22485040000174,None,left,0.7242417000234127,48.22485040000174,None,,,,,,,,,,,,,,,,,,,,,,,,,,,,,,,,,,,,,,,,,,,,,,,,,,,,,,,,,,,,,,,,,,,11015,001,2024_Jan_04_1117,ANT,2021.2.3,59.79949230707681,
,,,,,,,,,,,,,,,,,,,,,,,,,,,,,,,,,,,,,,,,,,,,,,,,,,48.975917399977334,None,48.975917399977334,None,right,0.5406410000286996,48.975917399977334,None,,,,,,,,,,,,,,,,,,,,,,,,,,,,,,,,,,,,,,,,,,,,,,,,,,,,,,,,,,,11015,001,2024_Jan_04_1117,ANT,2021.2.3,59.79949230707681,
,,,,,,,,,,,,,,,,,,,,,,,,,,,,,,,,,,,,,,,,,,,,,,,,,,,,,,,,,,49.543781899963506,None,space,32.765037700068206,49.543781899963506,None,,,,,,,,,,,,,,,,,,,,,,,,,,,,,,,,,,,,,,,,,,,,,,,,,,,,,11015,001,2024_Jan_04_1117,ANT,2021.2.3,59.79949230707681,
,,,,,,,,,,,,,,,,,,,,,,,,,,,,,,,,,,,,,,,,,,,,,,,,,,,,,,,,,,,,,,,,82.32547859998886,None,space,8.255093300016597,82.32547859998886,None,,,,,,,,,,,,,,,,,,,,,,,,,,,,,,,,,,,,,,,,,,,,,,,11015,001,2024_Jan_04_1117,ANT,2021.2.3,59.79949230707681,
0,2,no,up,IC,R,50,0,1.5,right,LLRLL.png,,,,,,,,0,0,0,1,,,,,,,,,,,,,,,,,,,,,,,,,,,,,,,,,,,,,,,,,,,,,,,,,90.6703585999785,91.07352939993143,91.05567159992643,91.15585320000537,91.55684689991176,None,left,0,0.5357291999971494,91.55684689991176,None,91.05567159992643,91.15585320000537,91.15585320000537,None,92.12336839991622,None,,,,,,,,,,,,,,,,,,,,,,,,,,,,,,11015,001,2024_Jan_04_1117,ANT,2021.2.3,59.79949230707681,
0,7,center,down,C,R,0,50,-1.5,right,RRRRR.png,,,,,,,,0,1,1,6,,,,,,,,,,,,,,,,,,,,,,,,,,,,,,,,,,,,,,,,,,,,,,,,,94.12620069994591,94.52690089994576,94.51025559997652,94.61029669991694,95.01098039990757,None,right,1,0.6820029000518844,95.01098039990757,None,94.51025559997652,94.61029669991694,94.61029669991694,None,95.72869299992453,None,,,,,,,,,,,,,,,,,,,,,,,,,,,,,,11015,001,2024_Jan_04_1117,ANT,2021.2.3,59.79949230707681,
0,4,no,down,IC,L,50,0,-1.5,left,RRLRR.png,,,,,,,,0,2,2,3,,,,,,,,,,,,,,,,,,,,,,,,,,,,,,,,,,,,,,,,,,,,,,,,,97.73277080000844,98.13364929996897,98.11588860000484,98.2156053999206,98.61794489994645,None,left,1,0.5710686999373138,98.61794489994645,None,98.11588860000484,98.2156053999206,98.2156053999206,None,99.21666119992733,None,,,,,,,,,,,,,,,,,,,,,,,,,,,,,,11015,001,2024_Jan_04_1117,ANT,2021.2.3,59.79949230707681,
0,3,no,down,C,R,50,0,-1.5,right,RRRRR.png,,,,,,,,0,3,3,2,,,,,,,,,,,,,,,,,,,,,,,,,,,,,,,,,,,,,,,,,,,,,,,,,101.22018730000127,101.6204010999063,101.60607149999123,101.70483019994572,102.10478539997712,None,right,1,0.39636010001413524,102.10478539997712,None,101.60607149999123,101.70483019994572,101.70483019994572,None,102.5213924999116,None,,,,,,,,,,,,,,,,,,,,,,,,,,,,,,11015,001,2024_Jan_04_1117,ANT,2021.2.3,59.79949230707681,
0,11,spatial,down,C,L,-1.5,0,-1.5,left,LLLLL.png,,,,,,,,0,4,4,10,,,,,,,,,,,,,,,,,,,,,,,,,,,,,,,,,,,,,,,,,,,,,,,,,104.52546829998028,104.92541969998274,104.90888050000649,105.00955039996188,105.41017119993921,None,left,1,0.38664799998514354,105.41017119993921,None,104.90888050000649,105.00955039996188,105.00955039996188,None,105.82682799990289,None,,,,,,,,,,,,,,,,,,,,,,,,,,,,,,11015,001,2024_Jan_04_1117,ANT,2021.2.3,59.79949230707681,
0,8,center,down,IC,L,0,50,-1.5,left,RRLRR.png,,,,,,,,0,5,5,7,,,,,,,,,,,,,,,,,,,,,,,,,,,,,,,,,,,,,,,,,,,,,,,,,107.83082019991707,108.23273789999075,108.21385890000965,108.31408639997244,108.71491479990073,None,right,0,0.4179507999215275,108.71491479990073,None,108.21385890000965,108.31408639997244,108.31408639997244,None,109.14823219995014,None,,,,,,,,,,,,,,,,,,,,,,,,,,,,,,11015,001,2024_Jan_04_1117,ANT,2021.2.3,59.79949230707681,
0,6,center,up,IC,R,0,50,1.5,right,LLRLL.png,,,,,,,,0,6,6,5,,,,,,,,,,,,,,,,,,,,,,,,,,,,,,,,,,,,,,,,,,,,,,,,,111.15146159997676,111.55336289992556,111.53583349997643,111.63545249996241,112.03777850000188,None,right,1,0.7029511999571696,112.03777850000188,None,111.53583349997643,111.63545249996241,111.63545249996241,None,112.77041889994871,None,,,,,,,,,,,,,,,,,,,,,,,,,,,,,,11015,001,2024_Jan_04_1117,ANT,2021.2.3,59.79949230707681,
0,9,spatial,up,C,R,1.5,0,1.5,right,RRRRR.png,,,,,,,,0,7,7,8,,,,,,,,,,,,,,,,,,,,,,,,,,,,,,,,,,,,,,,,,,,,,,,,,114.7736997999018,115.17628999997396,115.15798619994894,115.25814699998591,115.65876879997086,None,right,1,0.4903364999918267,115.65876879997086,None,115.15798619994894,115.25814699998591,115.25814699998591,None,116.17538839997724,None,,,,,,,,,,,,,,,,,,,,,,,,,,,,,,11015,001,2024_Jan_04_1117,ANT,2021.2.3,59.79949230707681,
0,12,spatial,down,IC,R,-1.5,0,-1.5,right,LLRLL.png,,,,,,,,0,8,8,11,,,,,,,,,,,,,,,,,,,,,,,,,,,,,,,,,,,,,,,,,,,,,,,,,118.17953669989947,118.57963019993622,118.56224359991029,118.66326579998713,119.06451960001141,None,right,1,0.4761439999565482,119.06451960001141,None,118.56224359991029,118.66326579998713,118.66326579998713,None,119.56394929997623,None,,,,,,,,,,,,,,,,,,,,,,,,,,,,,,11015,001,2024_Jan_04_1117,ANT,2021.2.3,59.79949230707681,
0,10,spatial,up,IC,L,1.5,0,1.5,left,RRLRR.png,,,,,,,,0,9,9,9,,,,,,,,,,,,,,,,,,,,,,,,,,,,,,,,,,,,,,,,,,,,,,,,,121.56692589994054,121.96762169990689,121.95139579998795,122.05273839994334,122.45154459995683,None,left,1,0.41793600004166365,122.45154459995683,None,121.95139579998795,122.05273839994334,122.05273839994334,None,122.88545790000353,None,,,,,,,,,,,,,,,,,,,,,,,,,,,,,,11015,001,2024_Jan_04_1117,ANT,2021.2.3,59.79949230707681,
0,5,center,up,C,L,0,50,1.5,left,LLLLL.png,,,,,,,,0,10,10,4,,,,,,,,,,,,,,,,,,,,,,,,,,,,,,,,,,,,,,,,,,,,,,,,,124.88888749992475,125.28972849994898,125.27352769998834,125.37247629999183,125.77343790000305,None,left,1,0.45548959996085614,125.77343790000305,None,125.27352769998834,125.37247629999183,125.37247629999183,None,126.25719299993943,None,,,,,,,,,,,,,,,,,,,,,,,,,,,,,,11015,001,2024_Jan_04_1117,ANT,2021.2.3,59.79949230707681,
0,1,no,up,C,L,50,0,1.5,left,LLLLL.png,,,,,,,,0,11,11,0,,,,,,,,,,,,,,,,,,,,,,,,,,,,,,,,,,,,,,,,,,,,,,,,,128.26073440001346,128.66147349996027,128.64564439991955,128.7447596999118,129.14546249993145,None,left,1,0.4751496999524534,129.14546249993145,None,128.64564439991955,128.7447596999118,128.7447596999118,None,129.64552949997596,None,,,,,,,,,,,,,,,,,,,,,,,,,,,,,,11015,001,2024_Jan_04_1117,ANT,2021.2.3,59.79949230707681,
,,,,,,,,,,,,,,,,,,,,,,,,,,,,,,,,,,,,,,,,,,,,,,,,,,,,,,,,,,,,,,,,,,,,,,,,,,,,,,,,,,,,,,,space,14.420503300032578,131.6487934999168,None,,,,,,,,,,,,,,,,,,,,,,,,,,11015,001,2024_Jan_04_1117,ANT,2021.2.3,59.79949230707681,
1,2,no,up,C,R,,,,,,Block.xlsx,"你已经完成了第一个实验区组

请稍作休息


点击空格键进入下一个区组。",50,0,1.5,right,RRRRR.png,,,,,0,0,0,0,0,0,0,1,,,,,,,,,,,,,,,,,,,,,,,,,,,,,,,,,,,,,,,,,,,,,,,,,,,,,,,,,,,,,,131.6487934999168,None,146.12072489992715,146.52087409992237,146.50462249992415,146.60493919998407,147.00616739992984,None,right,1,0.43087289994582534,147.00616739992984,None,146.50462249992415,146.60493919998407,146.60493919998407,None,147.45535319996998,None,,,,,,,11015,001,2024_Jan_04_1117,ANT,2021.2.3,59.79949230707681,
1,12,center,up,IC,R,,,,,,Block.xlsx,"你已经完成了第一个实验区组

请稍作休息


点击空格键进入下一个区组。",0,50,1.5,right,LLRLL.png,,,,,0,0,0,0,0,1,1,11,,,,,,,,,,,,,,,,,,,,,,,,,,,,,,,,,,,,,,,,,,,,,,,,,,,,,,,,,,,,,,,,147.85570720001124,148.25752260000445,148.2396692999173,148.34040389989968,148.74079279997386,None,right,1,0.6244750999612734,148.74079279997386,None,148.2396692999173,148.34040389989968,148.34040389989968,None,149.39139359991532,None,,,,,,,11015,001,2024_Jan_04_1117,ANT,2021.2.3,59.79949230707681,
1,11,center,up,IC,L,,,,,,Block.xlsx,"你已经完成了第一个实验区组

请稍作休息


点击空格键进入下一个区组。",0,50,1.5,left,RRLRR.png,,,,,0,0,0,0,0,2,2,10,,,,,,,,,,,,,,,,,,,,,,,,,,,,,,,,,,,,,,,,,,,,,,,,,,,,,,,,,,,,,,,,149.79254479997326,150.19433609989937,150.1765327999601,150.27765199996065,150.6770714999875,None,left,1,0.447862800094299,150.6770714999875,None,150.1765327999601,150.27765199996065,150.27765199996065,None,151.1447390000103,None,,,,,,,11015,001,2024_Jan_04_1117,ANT,2021.2.3,59.79949230707681,
1,8,no,down,IC,R,,,,,,Block.xlsx,"你已经完成了第一个实验区组

请稍作休息


点击空格键进入下一个区组。",50,0,-1.5,right,LLRLL.png,,,,,0,0,0,0,0,3,3,7,,,,,,,,,,,,,,,,,,,,,,,,,,,,,,,,,,,,,,,,,,,,,,,,,,,,,,,,,,,,,,,,151.5446582000004,151.9453623999143,151.9291482999688,152.02998260001186,152.42927179997787,None,right,1,0.5843710000626743,152.42927179997787,None,151.9291482999688,152.02998260001186,152.02998260001186,None,153.0300905999029,None,,,,,,,11015,001,2024_Jan_04_1117,ANT,2021.2.3,59.79949230707681,
1,22,spatial,down,C,R,,,,,,Block.xlsx,"你已经完成了第一个实验区组

请稍作休息


点击空格键进入下一个区组。",-1.5,0,-1.5,right,RRRRR.png,,,,,0,0,0,0,0,4,4,21,,,,,,,,,,,,,,,,,,,,,,,,,,,,,,,,,,,,,,,,,,,,,,,,,,,,,,,,,,,,,,,,153.4312876999611,153.83224889996927,153.81573269993532,153.91654979996383,154.3166832999559,None,right,1,0.3920727999648079,154.3166832999559,None,153.81573269993532,153.91654979996383,153.91654979996383,None,154.73313609999605,None,,,,,,,11015,001,2024_Jan_04_1117,ANT,2021.2.3,59.79949230707681,
1,7,no,down,IC,L,,,,,,Block.xlsx,"你已经完成了第一个实验区组

请稍作休息


点击空格键进入下一个区组。",50,0,-1.5,left,RRLRR.png,,,,,0,0,0,0,0,5,5,6,,,,,,,,,,,,,,,,,,,,,,,,,,,,,,,,,,,,,,,,,,,,,,,,,,,,,,,,,,,,,,,,155.13384769996628,155.5345709999092,155.51762149995193,155.61749259999488,156.01862519991118,None,left,1,0.4101595999673009,156.01862519991118,None,155.51762149995193,155.61749259999488,155.61749259999488,None,156.45251889992505,None,,,,,,,11015,001,2024_Jan_04_1117,ANT,2021.2.3,59.79949230707681,
1,6,no,down,C,R,,,,,,Block.xlsx,"你已经完成了第一个实验区组

请稍作休息


点击空格键进入下一个区组。",50,0,-1.5,right,RRRRR.png,,,,,0,0,0,0,0,6,6,5,,,,,,,,,,,,,,,,,,,,,,,,,,,,,,,,,,,,,,,,,,,,,,,,,,,,,,,,,,,,,,,,156.8525062999688,157.25294209993444,157.2363783000037,157.33819119993132,157.73706620000303,None,right,1,0.37186760001350194,157.73706620000303,None,157.2363783000037,157.33819119993132,157.33819119993132,None,158.13750929990783,None,,,,,,,11015,001,2024_Jan_04_1117,ANT,2021.2.3,59.79949230707681,
1,14,center,down,C,R,,,,,,Block.xlsx,"你已经完成了第一个实验区组

请稍作休息


点击空格键进入下一个区组。",0,50,-1.5,right,RRRRR.png,,,,,0,0,0,0,0,7,7,13,,,,,,,,,,,,,,,,,,,,,,,,,,,,,,,,,,,,,,,,,,,,,,,,,,,,,,,,,,,,,,,,158.53859169990756,158.93970139999874,158.92292069992982,159.02312529995106,159.42407909990288,None,right,1,0.38882510003168136,159.42407909990288,None,158.92292069992982,159.02312529995106,159.02312529995106,None,159.8401921999175,None,,,,,,,11015,001,2024_Jan_04_1117,ANT,2021.2.3,59.79949230707681,
1,19,spatial,up,IC,L,,,,,,Block.xlsx,"你已经完成了第一个实验区组

请稍作休息


点击空格键进入下一个区组。",1.5,0,1.5,left,RRLRR.png,,,,,0,0,0,0,0,8,8,18,,,,,,,,,,,,,,,,,,,,,,,,,,,,,,,,,,,,,,,,,,,,,,,,,,,,,,,,,,,,,,,,160.24088890000712,160.64149790001102,160.62560449994635,160.72532999992836,161.1261841999367,None,left,1,0.39845830004196614,161.1261841999367,None,160.62560449994635,160.72532999992836,160.72532999992836,None,161.54277689999435,None,,,,,,,11015,001,2024_Jan_04_1117,ANT,2021.2.3,59.79949230707681,
1,6,no,down,C,R,,,,,,Block.xlsx,"你已经完成了第一个实验区组

请稍作休息


点击空格键进入下一个区组。",50,0,-1.5,right,RRRRR.png,,,,,0,0,0,0,0,9,9,5,,,,,,,,,,,,,,,,,,,,,,,,,,,,,,,,,,,,,,,,,,,,,,,,,,,,,,,,,,,,,,,,161.94336049992125,162.34387280000374,162.3284061999293,162.42774569999892,162.82804069994017,None,right,1,0.4086527000181377,162.82804069994017,None,162.3284061999293,162.42774569999892,162.42774569999892,None,163.2617318999255,None,,,,,,,11015,001,2024_Jan_04_1117,ANT,2021.2.3,59.79949230707681,
1,3,no,up,IC,L,,,,,,Block.xlsx,"你已经完成了第一个实验区组

请稍作休息


点击空格键进入下一个区组。",50,0,1.5,left,RRLRR.png,,,,,0,0,0,0,0,10,10,2,,,,,,,,,,,,,,,,,,,,,,,,,,,,,,,,,,,,,,,,,,,,,,,,,,,,,,,,,,,,,,,,163.6625426999526,164.06402409996372,164.04644790000748,164.1475132999476,164.54759659990668,None,left,1,0.6340573999332264,164.54759659990668,None,164.04644790000748,164.1475132999476,164.1475132999476,None,165.19881239999086,None,,,,,,,11015,001,2024_Jan_04_1117,ANT,2021.2.3,59.79949230707681,
1,20,spatial,up,IC,R,,,,,,Block.xlsx,"你已经完成了第一个实验区组

请稍作休息


点击空格键进入下一个区组。",1.5,0,1.5,right,LLRLL.png,,,,,0,0,0,0,0,11,11,19,,,,,,,,,,,,,,,,,,,,,,,,,,,,,,,,,,,,,,,,,,,,,,,,,,,,,,,,,,,,,,,,165.59889699995983,165.99997599993367,165.98375139990821,166.08445169997867,166.48370749992318,None,right,1,0.537077400018461,166.48370749992318,None,165.98375139990821,166.08445169997867,166.08445169997867,None,167.05105040001217,None,,,,,,,11015,001,2024_Jan_04_1117,ANT,2021.2.3,59.79949230707681,
1,5,no,down,C,L,,,,,,Block.xlsx,"你已经完成了第一个实验区组

请稍作休息


点击空格键进入下一个区组。",50,0,-1.5,left,LLLLL.png,,,,,0,0,0,0,0,12,12,4,,,,,,,,,,,,,,,,,,,,,,,,,,,,,,,,,,,,,,,,,,,,,,,,,,,,,,,,,,,,,,,,167.45149489992764,167.85281899990514,167.83727519994136,167.93618379998952,168.33623669994995,None,left,1,0.3728509999345988,168.33623669994995,None,167.83727519994136,167.93618379998952,167.93618379998952,None,168.7367449000012,None,,,,,,,11015,001,2024_Jan_04_1117,ANT,2021.2.3,59.79949230707681,
1,5,no,down,C,L,,,,,,Block.xlsx,"你已经完成了第一个实验区组

请稍作休息


点击空格键进入下一个区组。",50,0,-1.5,left,LLLLL.png,,,,,0,0,0,0,0,13,13,4,,,,,,,,,,,,,,,,,,,,,,,,,,,,,,,,,,,,,,,,,,,,,,,,,,,,,,,,,,,,,,,,169.13730689999647,169.53783019992989,169.52260079991538,169.63827839994337,170.02287829993293,None,left,1,0.3823979999870062,170.02287829993293,None,169.52260079991538,169.63827839994337,169.6225254999008,None,170.42282849992625,None,,,,,,,11015,001,2024_Jan_04_1117,ANT,2021.2.3,59.79949230707681,
1,3,no,up,IC,L,,,,,,Block.xlsx,"你已经完成了第一个实验区组

请稍作休息


点击空格键进入下一个区组。",50,0,1.5,left,RRLRR.png,,,,,0,0,0,0,0,14,14,2,,,,,,,,,,,,,,,,,,,,,,,,,,,,,,,,,,,,,,,,,,,,,,,,,,,,,,,,,,,,,,,,170.82425249996595,171.22429349995218,171.2070917999372,171.3079111999832,171.7088608999038,None,left,1,0.6239018000196666,171.7088608999038,None,171.2070917999372,171.3079111999832,171.3079111999832,None,172.35932599997614,None,,,,,,,11015,001,2024_Jan_04_1117,ANT,2021.2.3,59.79949230707681,
1,19,spatial,up,IC,L,,,,,,Block.xlsx,"你已经完成了第一个实验区组

请稍作休息


点击空格键进入下一个区组。",1.5,0,1.5,left,RRLRR.png,,,,,0,0,0,0,0,15,15,18,,,,,,,,,,,,,,,,,,,,,,,,,,,,,,,,,,,,,,,,,,,,,,,,,,,,,,,,,,,,,,,,172.75943929993082,173.16076899995096,173.14409079996403,173.24490159994457,173.64572459994815,None,left,1,0.5276042999466881,173.64572459994815,None,173.14409079996403,173.24490159994457,173.24490159994457,None,174.1948658999754,None,,,,,,,11015,001,2024_Jan_04_1117,ANT,2021.2.3,59.79949230707681,
1,7,no,down,IC,L,,,,,,Block.xlsx,"你已经完成了第一个实验区组

请稍作休息


点击空格键进入下一个区组。",50,0,-1.5,left,RRLRR.png,,,,,0,0,0,0,0,16,16,6,,,,,,,,,,,,,,,,,,,,,,,,,,,,,,,,,,,,,,,,,,,,,,,,,,,,,,,,,,,,,,,,174.59548429993447,174.9966218000045,174.9801121999044,175.0816485999385,175.48013899999205,None,left,1,0.5248054000549018,175.48013899999205,None,174.9801121999044,175.0816485999385,175.0816485999385,None,176.03086619998794,None,,,,,,,11015,001,2024_Jan_04_1117,ANT,2021.2.3,59.79949230707681,
1,2,no,up,C,R,,,,,,Block.xlsx,"你已经完成了第一个实验区组

请稍作休息


点击空格键进入下一个区组。",50,0,1.5,right,RRRRR.png,,,,,0,0,0,0,0,17,17,1,,,,,,,,,,,,,,,,,,,,,,,,,,,,,,,,,,,,,,,,,,,,,,,,,,,,,,,,,,,,,,,,176.43210410000756,176.83263839990832,176.8153614999028,176.9169182999758,177.3182700999314,None,right,1,0.4466931999195367,177.3182700999314,None,176.8153614999028,176.9169182999758,176.9169182999758,None,177.78414569993038,None,,,,,,,11015,001,2024_Jan_04_1117,ANT,2021.2.3,59.79949230707681,
1,23,spatial,down,IC,L,,,,,,Block.xlsx,"你已经完成了第一个实验区组

请稍作休息


点击空格键进入下一个区组。",-1.5,0,-1.5,left,RRLRR.png,,,,,0,0,0,0,0,18,18,22,,,,,,,,,,,,,,,,,,,,,,,,,,,,,,,,,,,,,,,,,,,,,,,,,,,,,,,,,,,,,,,,178.18412909994368,178.58563200000208,178.56958629994188,178.6701906999806,179.06976209999993,None,left,1,0.42310290003661066,179.06976209999993,None,178.56958629994188,178.6701906999806,178.6701906999806,None,179.5194038999034,None,,,,,,,11015,001,2024_Jan_04_1117,ANT,2021.2.3,59.79949230707681,
1,5,no,down,C,L,,,,,,Block.xlsx,"你已经完成了第一个实验区组

请稍作休息


点击空格键进入下一个区组。",50,0,-1.5,left,LLLLL.png,,,,,0,0,0,0,0,19,19,4,,,,,,,,,,,,,,,,,,,,,,,,,,,,,,,,,,,,,,,,,,,,,,,,,,,,,,,,,,,,,,,,179.92056769994088,180.32134879997466,180.3054905999452,180.40428459993564,180.8054082999006,None,left,1,0.3274087000172585,180.8054082999006,None,180.3054905999452,180.40428459993564,180.40428459993564,None,181.1550993999699,None,,,,,,,11015,001,2024_Jan_04_1117,ANT,2021.2.3,59.79949230707681,
1,22,spatial,down,C,R,,,,,,Block.xlsx,"你已经完成了第一个实验区组

请稍作休息


点击空格键进入下一个区组。",-1.5,0,-1.5,right,RRRRR.png,,,,,0,0,0,0,0,20,20,21,,,,,,,,,,,,,,,,,,,,,,,,,,,,,,,,,,,,,,,,,,,,,,,,,,,,,,,,,,,,,,,,181.55642969999462,181.95719049999025,181.9414007999003,182.04172370000742,182.44215249991976,None,right,1,0.35459420003462583,182.44215249991976,None,181.9414007999003,182.04172370000742,182.04172370000742,None,182.82441259990446,None,,,,,,,11015,001,2024_Jan_04_1117,ANT,2021.2.3,59.79949230707681,
1,15,center,down,IC,L,,,,,,Block.xlsx,"你已经完成了第一个实验区组

请稍作休息


点击空格键进入下一个区组。",0,50,-1.5,left,RRLRR.png,,,,,0,0,0,0,0,21,21,14,,,,,,,,,,,,,,,,,,,,,,,,,,,,,,,,,,,,,,,,,,,,,,,,,,,,,,,,,,,,,,,,183.22480429999996,183.62555009999778,183.60991100000683,183.71079889999237,184.11032029998023,None,left,1,0.5183255000738427,184.11032029998023,None,183.60991100000683,183.71079889999237,183.71079889999237,None,184.6603706999449,None,,,,,,,11015,001,2024_Jan_04_1117,ANT,2021.2.3,59.79949230707681,
1,6,no,down,C,R,,,,,,Block.xlsx,"你已经完成了第一个实验区组

请稍作休息


点击空格键进入下一个区组。",50,0,-1.5,right,RRRRR.png,,,,,0,0,0,0,0,22,22,5,,,,,,,,,,,,,,,,,,,,,,,,,,,,,,,,,,,,,,,,,,,,,,,,,,,,,,,,,,,,,,,,185.06083989993203,185.4630659999093,185.44493539992254,185.54504100000486,185.94738119991962,None,right,1,0.385380299994722,185.94738119991962,None,185.44493539992254,185.54504100000486,185.54504100000486,None,186.36284620000515,None,,,,,,,11015,001,2024_Jan_04_1117,ANT,2021.2.3,59.79949230707681,
1,11,center,up,IC,L,,,,,,Block.xlsx,"你已经完成了第一个实验区组

请稍作休息


点击空格键进入下一个区组。",0,50,1.5,left,RRLRR.png,,,,,0,0,0,0,0,23,23,10,,,,,,,,,,,,,,,,,,,,,,,,,,,,,,,,,,,,,,,,,,,,,,,,,,,,,,,,,,,,,,,,186.76350749994162,187.16537639999297,187.14725879998878,187.24823039991315,187.64816290000454,None,left,1,0.5489623000612482,187.64816290000454,None,187.14725879998878,187.24823039991315,187.24823039991315,None,188.21546689991374,None,,,,,,,11015,001,2024_Jan_04_1117,ANT,2021.2.3,59.79949230707681,
1,4,no,up,IC,R,,,,,,Block.xlsx,"你已经完成了第一个实验区组

请稍作休息


点击空格键进入下一个区组。",50,0,1.5,right,LLRLL.png,,,,,0,0,0,0,1,0,24,3,,,,,,,,,,,,,,,,,,,,,,,,,,,,,,,,,,,,,,,,,,,,,,,,,,,,,,,,,,,,,,,,188.61734369990882,189.01737749995664,189.00069009989966,189.10148650000338,189.50101769994944,None,right,1,0.5685102000134066,189.50101769994944,None,189.00069009989966,189.10148650000338,189.10148650000338,None,190.0848430999322,None,,,,,,,11015,001,2024_Jan_04_1117,ANT,2021.2.3,59.79949230707681,
1,1,no,up,C,L,,,,,,Block.xlsx,"你已经完成了第一个实验区组

请稍作休息


点击空格键进入下一个区组。",50,0,1.5,left,LLLLL.png,,,,,0,0,0,0,1,1,25,0,,,,,,,,,,,,,,,,,,,,,,,,,,,,,,,,,,,,,,,,,,,,,,,,,,,,,,,,,,,,,,,,190.48644389992114,190.8872413999634,190.869586899993,190.97157119994517,191.37111760000698,None,left,1,0.4095627000788227,191.37111760000698,None,190.869586899993,190.97157119994517,190.97157119994517,None,191.80420739995316,None,,,,,,,11015,001,2024_Jan_04_1117,ANT,2021.2.3,59.79949230707681,
1,4,no,up,IC,R,,,,,,Block.xlsx,"你已经完成了第一个实验区组

请稍作休息


点击空格键进入下一个区组。",50,0,1.5,right,LLRLL.png,,,,,0,0,0,0,1,2,26,3,,,,,,,,,,,,,,,,,,,,,,,,,,,,,,,,,,,,,,,,,,,,,,,,,,,,,,,,,,,,,,,,192.20461929996964,192.6077762999339,192.58863099990413,192.68898829992395,193.0903903999133,None,right,1,0.41834319999907166,193.0903903999133,None,192.58863099990413,192.68898829992395,192.68898829992395,None,193.5230907999212,None,,,,,,,11015,001,2024_Jan_04_1117,ANT,2021.2.3,59.79949230707681,
1,4,no,up,IC,R,,,,,,Block.xlsx,"你已经完成了第一个实验区组

请稍作休息


点击空格键进入下一个区组。",50,0,1.5,right,LLRLL.png,,,,,0,0,0,0,1,3,27,3,,,,,,,,,,,,,,,,,,,,,,,,,,,,,,,,,,,,,,,,,,,,,,,,,,,,,,,,,,,,,,,,193.9239113999065,194.32654199993704,194.30796869995538,194.40858980000485,194.810027099913,None,right,1,0.5389024999458343,194.810027099913,None,194.30796869995538,194.40858980000485,194.40858980000485,None,195.37609419994988,None,,,,,,,11015,001,2024_Jan_04_1117,ANT,2021.2.3,59.79949230707681,
1,14,center,down,C,R,,,,,,Block.xlsx,"你已经完成了第一个实验区组

请稍作休息


点击空格键进入下一个区组。",0,50,-1.5,right,RRRRR.png,,,,,0,0,0,0,1,4,28,13,,,,,,,,,,,,,,,,,,,,,,,,,,,,,,,,,,,,,,,,,,,,,,,,,,,,,,,,,,,,,,,,195.77742329996545,196.17819159990177,196.1613543999847,196.26273749989923,196.6620971999364,None,right,1,0.4389048999873921,196.6620971999364,None,196.1613543999847,196.26273749989923,196.26273749989923,None,197.1288774999557,None,,,,,,,11015,001,2024_Jan_04_1117,ANT,2021.2.3,59.79949230707681,
1,2,no,up,C,R,,,,,,Block.xlsx,"你已经完成了第一个实验区组

请稍作休息


点击空格键进入下一个区组。",50,0,1.5,right,RRRRR.png,,,,,0,0,0,0,1,5,29,1,,,,,,,,,,,,,,,,,,,,,,,,,,,,,,,,,,,,,,,,,,,,,,,,,,,,,,,,,,,,,,,,197.52914959995542,197.93210420000833,197.91402919997927,198.01421940000728,198.41467709990684,None,right,1,0.4940972999902442,198.41467709990684,None,197.91402919997927,198.01421940000728,198.01421940000728,None,198.93175749992952,None,,,,,,,11015,001,2024_Jan_04_1117,ANT,2021.2.3,59.79949230707681,
1,13,center,down,C,L,,,,,,Block.xlsx,"你已经完成了第一个实验区组

请稍作休息


点击空格键进入下一个区组。",0,50,-1.5,left,LLLLL.png,,,,,0,0,0,0,1,6,30,12,,,,,,,,,,,,,,,,,,,,,,,,,,,,,,,,,,,,,,,,,,,,,,,,,,,,,,,,,,,,,,,,199.3328283999581,199.7346339999931,199.71669429994654,199.81792949989904,200.2167696999386,None,left,1,0.34864520002156496,200.2167696999386,None,199.71669429994654,199.81792949989904,199.81792949989904,None,200.58409909997135,None,,,,,,,11015,001,2024_Jan_04_1117,ANT,2021.2.3,59.79949230707681,
1,24,spatial,down,IC,R,,,,,,Block.xlsx,"你已经完成了第一个实验区组

请稍作休息


点击空格键进入下一个区组。",-1.5,0,-1.5,right,LLRLL.png,,,,,0,0,0,0,1,7,31,23,,,,,,,,,,,,,,,,,,,,,,,,,,,,,,,,,,,,,,,,,,,,,,,,,,,,,,,,,,,,,,,,200.98544009996112,201.3872573999688,201.36916159989778,201.47035939991474,201.86976679996587,None,right,1,0.39911019999999553,201.86976679996587,None,201.36916159989778,201.47035939991474,201.47035939991474,None,202.28640759992413,None,,,,,,,11015,001,2024_Jan_04_1117,ANT,2021.2.3,59.79949230707681,
1,24,spatial,down,IC,R,,,,,,Block.xlsx,"你已经完成了第一个实验区组

请稍作休息


点击空格键进入下一个区组。",-1.5,0,-1.5,right,LLRLL.png,,,,,0,0,0,0,1,8,32,23,,,,,,,,,,,,,,,,,,,,,,,,,,,,,,,,,,,,,,,,,,,,,,,,,,,,,,,,,,,,,,,,202.6870251999935,203.08864339999855,203.07308769994415,203.17149859992787,203.57277859991882,None,right,1,0.40822590002790093,203.57277859991882,None,203.07308769994415,203.17149859992787,203.17149859992787,None,204.00559859990608,None,,,,,,,11015,001,2024_Jan_04_1117,ANT,2021.2.3,59.79949230707681,
1,17,spatial,up,C,L,,,,,,Block.xlsx,"你已经完成了第一个实验区组

请稍作休息


点击空格键进入下一个区组。",1.5,0,1.5,left,LLLLL.png,,,,,0,0,0,0,1,9,33,16,,,,,,,,,,,,,,,,,,,,,,,,,,,,,,,,,,,,,,,,,,,,,,,,,,,,,,,,,,,,,,,,204.4068142999895,204.80887840001378,204.79038729995955,204.89157979993615,205.2917071999982,None,left,1,0.3454555000644177,205.2917071999982,None,204.79038729995955,204.89157979993615,204.89157979993615,None,205.65796469990164,None,,,,,,,11015,001,2024_Jan_04_1117,ANT,2021.2.3,59.79949230707681,
1,21,spatial,down,C,L,,,,,,Block.xlsx,"你已经完成了第一个实验区组

请稍作休息


点击空格键进入下一个区组。",-1.5,0,-1.5,left,LLLLL.png,,,,,0,0,0,0,1,10,34,20,,,,,,,,,,,,,,,,,,,,,,,,,,,,,,,,,,,,,,,,,,,,,,,,,,,,,,,,,,,,,,,,206.059117399971,206.45931589999236,206.44462389999535,206.54325629991945,206.94429039990064,None,left,1,0.3245390000520274,206.94429039990064,None,206.44462389999535,206.54325629991945,206.54325629991945,None,207.2936655000085,None,,,,,,,11015,001,2024_Jan_04_1117,ANT,2021.2.3,59.79949230707681,
1,8,no,down,IC,R,,,,,,Block.xlsx,"你已经完成了第一个实验区组

请稍作休息


点击空格键进入下一个区组。",50,0,-1.5,right,LLRLL.png,,,,,0,0,0,0,1,11,35,7,,,,,,,,,,,,,,,,,,,,,,,,,,,,,,,,,,,,,,,,,,,,,,,,,,,,,,,,,,,,,,,,207.69523909990676,208.0951369999675,208.07868549996056,208.17917409993242,208.57987869996578,None,right,1,0.3928543000947684,208.57987869996578,None,208.07868549996056,208.17917409993242,208.17917409993242,None,208.99626899999566,None,,,,,,,11015,001,2024_Jan_04_1117,ANT,2021.2.3,59.79949230707681,
1,20,spatial,up,IC,R,,,,,,Block.xlsx,"你已经完成了第一个实验区组

请稍作休息


点击空格键进入下一个区组。",1.5,0,1.5,right,LLRLL.png,,,,,0,0,0,0,1,12,36,19,,,,,,,,,,,,,,,,,,,,,,,,,,,,,,,,,,,,,,,,,,,,,,,,,,,,,,,,,,,,,,,,209.39701600000262,209.80014869989827,209.78142959997058,209.88263139990158,210.2816942000063,None,right,1,0.3873044999781996,210.2816942000063,None,209.78142959997058,209.88263139990158,209.88263139990158,None,210.69957860000432,None,,,,,,,11015,001,2024_Jan_04_1117,ANT,2021.2.3,59.79949230707681,
1,4,no,up,IC,R,,,,,,Block.xlsx,"你已经完成了第一个实验区组

请稍作休息


点击空格键进入下一个区组。",50,0,1.5,right,LLRLL.png,,,,,0,0,0,0,1,13,37,3,,,,,,,,,,,,,,,,,,,,,,,,,,,,,,,,,,,,,,,,,,,,,,,,,,,,,,,,,,,,,,,,211.10054299992044,211.50210769998375,211.48330510000233,211.58534409990534,211.98596289998386,None,left,0,0.4269010000862181,211.98596289998386,None,211.48330510000233,211.58534409990534,211.58534409990534,None,212.43479480000678,None,,,,,,,11015,001,2024_Jan_04_1117,ANT,2021.2.3,59.79949230707681,
1,14,center,down,C,R,,,,,,Block.xlsx,"你已经完成了第一个实验区组

请稍作休息


点击空格键进入下一个区组。",0,50,-1.5,right,RRRRR.png,,,,,0,0,0,0,1,14,38,13,,,,,,,,,,,,,,,,,,,,,,,,,,,,,,,,,,,,,,,,,,,,,,,,,,,,,,,,,,,,,,,,212.83547859999817,213.23598070000298,213.21987919998355,213.3204335999908,213.72055349999573,None,right,1,0.4203807000303641,213.72055349999573,None,213.21987919998355,213.3204335999908,213.3204335999908,None,214.17113249993417,None,,,,,,,11015,001,2024_Jan_04_1117,ANT,2021.2.3,59.79949230707681,
1,22,spatial,down,C,R,,,,,,Block.xlsx,"你已经完成了第一个实验区组

请稍作休息


点击空格键进入下一个区组。",-1.5,0,-1.5,right,RRRRR.png,,,,,0,0,0,0,1,15,39,21,,,,,,,,,,,,,,,,,,,,,,,,,,,,,,,,,,,,,,,,,,,,,,,,,,,,,,,,,,,,,,,,214.5713395999046,214.97173479991034,214.95739669993054,215.07301039993763,215.4566279000137,None,right,1,0.42871270002797246,215.4566279000137,None,214.95739669993054,215.07301039993763,215.05531709990464,None,215.9065443999134,None,,,,,,,11015,001,2024_Jan_04_1117,ANT,2021.2.3,59.79949230707681,
1,12,center,up,IC,R,,,,,,Block.xlsx,"你已经完成了第一个实验区组

请稍作休息


点击空格键进入下一个区组。",0,50,1.5,right,LLRLL.png,,,,,0,0,0,0,1,16,40,11,,,,,,,,,,,,,,,,,,,,,,,,,,,,,,,,,,,,,,,,,,,,,,,,,,,,,,,,,,,,,,,,216.3079851999646,216.7096885999199,216.6916219999548,216.7930765999481,217.19181339989882,None,right,1,0.452996899955906,217.19181339989882,None,216.6916219999548,216.7930765999481,216.7930765999481,None,217.6596290000016,None,,,,,,,11015,001,2024_Jan_04_1117,ANT,2021.2.3,59.79949230707681,
1,23,spatial,down,IC,L,,,,,,Block.xlsx,"你已经完成了第一个实验区组

请稍作休息


点击空格键进入下一个区组。",-1.5,0,-1.5,left,RRLRR.png,,,,,0,0,0,0,1,17,41,22,,,,,,,,,,,,,,,,,,,,,,,,,,,,,,,,,,,,,,,,,,,,,,,,,,,,,,,,,,,,,,,,218.05996340001002,218.46172819996718,218.44444619992282,218.54515179991722,218.94649359991308,None,left,1,0.47430589993018657,218.94649359991308,None,218.44444619992282,218.54515179991722,218.54515179991722,None,219.44522929994855,None,,,,,,,11015,001,2024_Jan_04_1117,ANT,2021.2.3,59.79949230707681,
1,9,center,up,C,L,,,,,,Block.xlsx,"你已经完成了第一个实验区组

请稍作休息


点击空格键进入下一个区组。",0,50,1.5,left,LLLLL.png,,,,,0,0,0,0,1,18,42,8,,,,,,,,,,,,,,,,,,,,,,,,,,,,,,,,,,,,,,,,,,,,,,,,,,,,,,,,,,,,,,,,219.8457849000115,220.2473363999743,220.22991899994668,220.3308583999751,220.73073229996953,None,left,1,0.4344582000048831,220.73073229996953,None,220.22991899994668,220.3308583999751,220.3308583999751,None,221.18135389999952,None,,,,,,,11015,001,2024_Jan_04_1117,ANT,2021.2.3,59.79949230707681,
1,18,spatial,up,C,R,,,,,,Block.xlsx,"你已经完成了第一个实验区组

请稍作休息


点击空格键进入下一个区组。",1.5,0,1.5,right,RRRRR.png,,,,,0,0,0,0,1,19,43,17,,,,,,,,,,,,,,,,,,,,,,,,,,,,,,,,,,,,,,,,,,,,,,,,,,,,,,,,,,,,,,,,221.5824730999302,221.9823051999556,221.96653509989846,222.0664206999354,222.46701329993084,None,right,1,0.40976960002444685,222.46701329993084,None,221.96653509989846,222.0664206999354,222.0664206999354,None,222.90212189999875,None,,,,,,,11015,001,2024_Jan_04_1117,ANT,2021.2.3,59.79949230707681,
1,15,center,down,IC,L,,,,,,Block.xlsx,"你已经完成了第一个实验区组

请稍作休息


点击空格键进入下一个区组。",0,50,-1.5,left,RRLRR.png,,,,,0,0,0,0,1,20,44,14,,,,,,,,,,,,,,,,,,,,,,,,,,,,,,,,,,,,,,,,,,,,,,,,,,,,,,,,,,,,,,,,223.3021216999041,223.70380379993003,223.68526579998434,223.785540199955,224.18549840000924,None,left,1,0.38729789992794394,224.18549840000924,None,223.68526579998434,223.785540199955,223.785540199955,None,224.60285339993425,None,,,,,,,11015,001,2024_Jan_04_1117,ANT,2021.2.3,59.79949230707681,
1,13,center,down,C,L,,,,,,Block.xlsx,"你已经完成了第一个实验区组

请稍作休息


点击空格键进入下一个区组。",0,50,-1.5,left,LLLLL.png,,,,,0,0,0,0,1,21,45,12,,,,,,,,,,,,,,,,,,,,,,,,,,,,,,,,,,,,,,,,,,,,,,,,,,,,,,,,,,,,,,,,225.0035334000131,225.40474849997554,225.3894244999392,225.50453329994343,225.88852299994323,None,left,1,0.44447839993517846,225.88852299994323,None,225.3894244999392,225.50453329994343,225.48929349996615,None,226.35529069998302,None,,,,,,,11015,001,2024_Jan_04_1117,ANT,2021.2.3,59.79949230707681,
1,5,no,down,C,L,,,,,,Block.xlsx,"你已经完成了第一个实验区组

请稍作休息


点击空格键进入下一个区组。",50,0,-1.5,left,LLLLL.png,,,,,0,0,0,0,1,22,46,4,,,,,,,,,,,,,,,,,,,,,,,,,,,,,,,,,,,,,,,,,,,,,,,,,,,,,,,,,,,,,,,,226.75610259990208,227.1580175999552,227.13994679995812,227.24032609991264,227.64165919995867,None,left,1,0.3233559000073001,227.64165919995867,None,227.13994679995812,227.24032609991264,227.24032609991264,None,227.99128129996825,None,,,,,,,11015,001,2024_Jan_04_1117,ANT,2021.2.3,59.79949230707681,
1,11,center,up,IC,L,,,,,,Block.xlsx,"你已经完成了第一个实验区组

请稍作休息


点击空格键进入下一个区组。",0,50,1.5,left,RRLRR.png,,,,,0,0,0,0,1,23,47,10,,,,,,,,,,,,,,,,,,,,,,,,,,,,,,,,,,,,,,,,,,,,,,,,,,,,,,,,,,,,,,,,228.39168949995656,228.79315949999727,228.77685129991733,228.8767988999607,229.27720859996043,None,left,1,0.45573410007636994,229.27720859996043,None,228.77685129991733,228.8767988999607,228.8767988999607,None,229.76050460000988,None,,,,,,,11015,001,2024_Jan_04_1117,ANT,2021.2.3,59.79949230707681,
1,16,center,down,IC,R,,,,,,Block.xlsx,"你已经完成了第一个实验区组

请稍作休息


点击空格键进入下一个区组。",0,50,-1.5,right,LLRLL.png,,,,,0,0,0,0,2,0,48,15,,,,,,,,,,,,,,,,,,,,,,,,,,,,,,,,,,,,,,,,,,,,,,,,,,,,,,,,,,,,,,,,230.16115989990067,230.5616000998998,230.54674519994296,230.64551459997892,231.04579199990258,None,right,1,0.3910075998865068,231.04579199990258,None,230.54674519994296,230.64551459997892,230.64551459997892,None,231.46295519999694,None,,,,,,,11015,001,2024_Jan_04_1117,ANT,2021.2.3,59.79949230707681,
1,16,center,down,IC,R,,,,,,Block.xlsx,"你已经完成了第一个实验区组

请稍作休息


点击空格键进入下一个区组。",0,50,-1.5,right,LLRLL.png,,,,,0,0,0,0,2,1,49,15,,,,,,,,,,,,,,,,,,,,,,,,,,,,,,,,,,,,,,,,,,,,,,,,,,,,,,,,,,,,,,,,231.8639595999848,232.2653808000032,232.2485078999307,232.34837019990664,232.750183199998,None,right,1,0.4951678999932483,232.750183199998,None,232.2485078999307,232.34837019990664,232.34837019990664,None,233.26574229996186,None,,,,,,,11015,001,2024_Jan_04_1117,ANT,2021.2.3,59.79949230707681,
1,21,spatial,down,C,L,,,,,,Block.xlsx,"你已经完成了第一个实验区组

请稍作休息


点击空格键进入下一个区组。",-1.5,0,-1.5,left,LLLLL.png,,,,,0,0,0,0,2,2,50,20,,,,,,,,,,,,,,,,,,,,,,,,,,,,,,,,,,,,,,,,,,,,,,,,,,,,,,,,,,,,,,,,233.6662688999204,234.06849049997982,234.05097380001098,234.1525307999691,234.55094619991723,None,left,1,0.37473379995208234,234.55094619991723,None,234.05097380001098,234.1525307999691,234.1525307999691,None,234.95237329998054,None,,,,,,,11015,001,2024_Jan_04_1117,ANT,2021.2.3,59.79949230707681,
1,9,center,up,C,L,,,,,,Block.xlsx,"你已经完成了第一个实验区组

请稍作休息


点击空格键进入下一个区组。",0,50,1.5,left,LLLLL.png,,,,,0,0,0,0,2,3,51,8,,,,,,,,,,,,,,,,,,,,,,,,,,,,,,,,,,,,,,,,,,,,,,,,,,,,,,,,,,,,,,,,235.3535114999395,235.75265929999296,235.73689229995944,235.83697259996552,236.2370047000004,None,left,1,0.503772999974899,236.2370047000004,None,235.73689229995944,235.83697259996552,235.83697259996552,None,236.77136989997234,None,,,,,,,11015,001,2024_Jan_04_1117,ANT,2021.2.3,59.79949230707681,
1,10,center,up,C,R,,,,,,Block.xlsx,"你已经完成了第一个实验区组

请稍作休息


点击空格键进入下一个区组。",0,50,1.5,right,RRRRR.png,,,,,0,0,0,0,2,4,52,9,,,,,,,,,,,,,,,,,,,,,,,,,,,,,,,,,,,,,,,,,,,,,,,,,,,,,,,,,,,,,,,,237.17224429990165,237.573336499976,237.55556679994334,237.6563006999204,238.05705139995553,None,right,1,0.42782659991644323,238.05705139995553,None,237.55556679994334,237.6563006999204,237.6563006999204,None,238.50744730001315,None,,,,,,,11015,001,2024_Jan_04_1117,ANT,2021.2.3,59.79949230707681,
1,8,no,down,IC,R,,,,,,Block.xlsx,"你已经完成了第一个实验区组

请稍作休息


点击空格键进入下一个区组。",50,0,-1.5,right,LLRLL.png,,,,,0,0,0,0,2,5,53,7,,,,,,,,,,,,,,,,,,,,,,,,,,,,,,,,,,,,,,,,,,,,,,,,,,,,,,,,,,,,,,,,238.90748910000548,239.30808489990886,239.2919094999088,239.3933863999555,239.7921901999507,None,right,1,0.5492922000121325,239.7921901999507,None,239.2919094999088,239.3933863999555,239.3933863999555,None,240.36009719991125,None,,,,,,,11015,001,2024_Jan_04_1117,ANT,2021.2.3,59.79949230707681,
1,6,no,down,C,R,,,,,,Block.xlsx,"你已经完成了第一个实验区组

请稍作休息


点击空格键进入下一个区组。",50,0,-1.5,right,RRRRR.png,,,,,0,0,0,0,2,6,54,5,,,,,,,,,,,,,,,,,,,,,,,,,,,,,,,,,,,,,,,,,,,,,,,,,,,,,,,,,,,,,,,,240.7609117999673,241.1608617999591,241.14599129999988,241.24469590000808,241.6453539999202,None,right,1,0.34385720000136644,241.6453539999202,None,241.14599129999988,241.24469590000808,241.24469590000808,None,242.01194419991225,None,,,,,,,11015,001,2024_Jan_04_1117,ANT,2021.2.3,59.79949230707681,
1,18,spatial,up,C,R,,,,,,Block.xlsx,"你已经完成了第一个实验区组

请稍作休息


点击空格键进入下一个区组。",1.5,0,1.5,right,RRRRR.png,,,,,0,0,0,0,2,7,55,17,,,,,,,,,,,,,,,,,,,,,,,,,,,,,,,,,,,,,,,,,,,,,,,,,,,,,,,,,,,,,,,,242.41274069994688,242.81409229990095,242.79747349990066,242.89718520001043,243.2980045999866,None,right,1,0.4189793000696227,243.2980045999866,None,242.79747349990066,242.89718520001043,242.89718520001043,None,243.73131179995835,None,,,,,,,11015,001,2024_Jan_04_1117,ANT,2021.2.3,59.79949230707681,
1,19,spatial,up,IC,L,,,,,,Block.xlsx,"你已经完成了第一个实验区组

请稍作休息


点击空格键进入下一个区组。",1.5,0,1.5,left,RRLRR.png,,,,,0,0,0,0,2,8,56,18,,,,,,,,,,,,,,,,,,,,,,,,,,,,,,,,,,,,,,,,,,,,,,,,,,,,,,,,,,,,,,,,244.13263719994575,244.53267049998976,244.51676809997298,244.61756980000064,245.0171835999936,None,left,1,0.41956060007214546,245.0171835999936,None,244.51676809997298,244.61756980000064,244.61756980000064,None,245.4670485999668,None,,,,,,,11015,001,2024_Jan_04_1117,ANT,2021.2.3,59.79949230707681,
1,7,no,down,IC,L,,,,,,Block.xlsx,"你已经完成了第一个实验区组

请稍作休息


点击空格键进入下一个区组。",50,0,-1.5,left,RRLRR.png,,,,,0,0,0,0,2,9,57,6,,,,,,,,,,,,,,,,,,,,,,,,,,,,,,,,,,,,,,,,,,,,,,,,,,,,,,,,,,,,,,,,245.86765149992425,246.27014039992355,246.25199569994584,246.35316259996034,246.75350869994145,None,left,1,0.49968869995791465,246.75350869994145,None,246.25199569994584,246.35316259996034,246.35316259996034,None,247.26973910001107,None,,,,,,,11015,001,2024_Jan_04_1117,ANT,2021.2.3,59.79949230707681,
1,24,spatial,down,IC,R,,,,,,Block.xlsx,"你已经完成了第一个实验区组

请稍作休息


点击空格键进入下一个区组。",-1.5,0,-1.5,right,LLRLL.png,,,,,0,0,0,0,2,10,58,23,,,,,,,,,,,,,,,,,,,,,,,,,,,,,,,,,,,,,,,,,,,,,,,,,,,,,,,,,,,,,,,,247.6704159999499,248.0724854998989,248.05430319998413,248.15538389992435,248.55501099990215,None,right,1,0.5217914999229833,248.55501099990215,None,248.05430319998413,248.15538389992435,248.15538389992435,None,249.10565029992722,None,,,,,,,11015,001,2024_Jan_04_1117,ANT,2021.2.3,59.79949230707681,
1,11,center,up,IC,L,,,,,,Block.xlsx,"你已经完成了第一个实验区组

请稍作休息


点击空格键进入下一个区组。",0,50,1.5,left,RRLRR.png,,,,,0,0,0,0,2,11,59,10,,,,,,,,,,,,,,,,,,,,,,,,,,,,,,,,,,,,,,,,,,,,,,,,,,,,,,,,,,,,,,,,249.50754639995284,249.9073963999981,249.89054719998967,249.99060629995074,250.39234219992068,None,left,1,0.4847343999426812,250.39234219992068,None,249.89054719998967,249.99060629995074,249.99060629995074,None,250.8925651999889,None,,,,,,,11015,001,2024_Jan_04_1117,ANT,2021.2.3,59.79949230707681,
1,10,center,up,C,R,,,,,,Block.xlsx,"你已经完成了第一个实验区组

请稍作休息


点击空格键进入下一个区组。",0,50,1.5,right,RRRRR.png,,,,,0,0,0,0,2,12,60,9,,,,,,,,,,,,,,,,,,,,,,,,,,,,,,,,,,,,,,,,,,,,,,,,,,,,,,,,,,,,,,,,251.2931310000131,251.69304429995827,251.67778129992075,251.77720509993378,252.17783519998193,None,right,1,0.4350358000956476,252.17783519998193,None,251.67778129992075,251.77720509993378,251.77720509993378,None,252.62788309995085,None,,,,,,,11015,001,2024_Jan_04_1117,ANT,2021.2.3,59.79949230707681,
1,17,spatial,up,C,L,,,,,,Block.xlsx,"你已经完成了第一个实验区组

请稍作休息


点击空格键进入下一个区组。",1.5,0,1.5,left,LLLLL.png,,,,,0,0,0,0,2,13,61,16,,,,,,,,,,,,,,,,,,,,,,,,,,,,,,,,,,,,,,,,,,,,,,,,,,,,,,,,,,,,,,,,253.028202699963,253.42948069993872,253.4125139999669,253.5139765999047,253.91341729997657,None,left,1,0.3634694000938907,253.91341729997657,None,253.4125139999669,253.5139765999047,253.5139765999047,None,254.2968591999961,None,,,,,,,11015,001,2024_Jan_04_1117,ANT,2021.2.3,59.79949230707681,
1,2,no,up,C,R,,,,,,Block.xlsx,"你已经完成了第一个实验区组

请稍作休息


点击空格键进入下一个区组。",50,0,1.5,right,RRRRR.png,,,,,0,0,0,0,2,14,62,1,,,,,,,,,,,,,,,,,,,,,,,,,,,,,,,,,,,,,,,,,,,,,,,,,,,,,,,,,,,,,,,,254.69740909989923,255.0990900999168,255.08141899993643,255.18152809992898,255.58268389990553,None,right,1,0.33430939994286746,255.58268389990553,None,255.08141899993643,255.18152809992898,255.18152809992898,None,255.93253109999932,None,,,,,,,11015,001,2024_Jan_04_1117,ANT,2021.2.3,59.79949230707681,
1,13,center,down,C,L,,,,,,Block.xlsx,"你已经完成了第一个实验区组

请稍作休息


点击空格键进入下一个区组。",0,50,-1.5,left,LLLLL.png,,,,,0,0,0,0,2,15,63,12,,,,,,,,,,,,,,,,,,,,,,,,,,,,,,,,,,,,,,,,,,,,,,,,,,,,,,,,,,,,,,,,256.33402800001204,256.73539039993193,256.71742519992404,256.81833279994316,257.21786400000565,None,left,1,0.39517360005993396,257.21786400000565,None,256.71742519992404,256.81833279994316,256.81833279994316,None,257.63523419993,None,,,,,,,11015,001,2024_Jan_04_1117,ANT,2021.2.3,59.79949230707681,
1,12,center,up,IC,R,,,,,,Block.xlsx,"你已经完成了第一个实验区组

请稍作休息


点击空格键进入下一个区组。",0,50,1.5,right,LLRLL.png,,,,,0,0,0,0,2,16,64,11,,,,,,,,,,,,,,,,,,,,,,,,,,,,,,,,,,,,,,,,,,,,,,,,,,,,,,,,,,,,,,,,258.0357972999336,258.43745949992444,258.41974839998875,258.52182339993306,258.92039859993383,None,right,1,0.5244368999265134,258.92039859993383,None,258.41974839998875,258.52182339993306,258.52182339993306,None,259.47119329997804,None,,,,,,,11015,001,2024_Jan_04_1117,ANT,2021.2.3,59.79949230707681,
1,12,center,up,IC,R,,,,,,Block.xlsx,"你已经完成了第一个实验区组

请稍作休息


点击空格键进入下一个区组。",0,50,1.5,right,LLRLL.png,,,,,0,0,0,0,2,17,65,11,,,,,,,,,,,,,,,,,,,,,,,,,,,,,,,,,,,,,,,,,,,,,,,,,,,,,,,,,,,,,,,,259.8723792999517,260.2723385000136,260.25629389996175,260.3569038999267,260.75648969993927,None,right,1,0.4563914000755176,260.75648969993927,None,260.25629389996175,260.3569038999267,260.3569038999267,None,261.2405659999931,None,,,,,,,11015,001,2024_Jan_04_1117,ANT,2021.2.3,59.79949230707681,
1,20,spatial,up,IC,R,,,,,,Block.xlsx,"你已经完成了第一个实验区组

请稍作休息


点击空格键进入下一个区组。",1.5,0,1.5,right,LLRLL.png,,,,,0,0,0,0,2,18,66,19,,,,,,,,,,,,,,,,,,,,,,,,,,,,,,,,,,,,,,,,,,,,,,,,,,,,,,,,,,,,,,,,261.64197409991175,262.04339289991185,262.0254663999658,262.12611009995453,262.5254721000092,None,right,1,0.30359170003794134,262.5254721000092,None,262.0254663999658,262.12611009995453,262.12611009995453,None,262.8432281999849,None,,,,,,,11015,001,2024_Jan_04_1117,ANT,2021.2.3,59.79949230707681,
1,20,spatial,up,IC,R,,,,,,Block.xlsx,"你已经完成了第一个实验区组

请稍作休息


点击空格键进入下一个区组。",1.5,0,1.5,right,LLRLL.png,,,,,0,0,0,0,2,19,67,19,,,,,,,,,,,,,,,,,,,,,,,,,,,,,,,,,,,,,,,,,,,,,,,,,,,,,,,,,,,,,,,,263.2433271999471,263.64461570000276,263.62830609991215,263.72811699996237,264.1292888999451,None,right,1,0.4195749999489635,264.1292888999451,None,263.62830609991215,263.72811699996237,263.72811699996237,None,264.57883819995914,None,,,,,,,11015,001,2024_Jan_04_1117,ANT,2021.2.3,59.79949230707681,
1,18,spatial,up,C,R,,,,,,Block.xlsx,"你已经完成了第一个实验区组

请稍作休息


点击空格键进入下一个区组。",1.5,0,1.5,right,RRRRR.png,,,,,0,0,0,0,2,20,68,17,,,,,,,,,,,,,,,,,,,,,,,,,,,,,,,,,,,,,,,,,,,,,,,,,,,,,,,,,,,,,,,,264.97939160000533,265.38072259991895,265.363975699991,265.4640575000085,265.8654968999326,None,right,1,0.3552940000081435,265.8654968999326,None,265.363975699991,265.4640575000085,265.4640575000085,None,266.24813520000316,None,,,,,,,11015,001,2024_Jan_04_1117,ANT,2021.2.3,59.79949230707681,
1,24,spatial,down,IC,R,,,,,,Block.xlsx,"你已经完成了第一个实验区组

请稍作休息


点击空格键进入下一个区组。",-1.5,0,-1.5,right,LLRLL.png,,,,,0,0,0,0,2,21,69,23,,,,,,,,,,,,,,,,,,,,,,,,,,,,,,,,,,,,,,,,,,,,,,,,,,,,,,,,,,,,,,,,266.64876779995393,267.05018839996774,267.0342229999369,267.132568800007,267.5351616999833,None,right,1,0.4623862000880763,267.5351616999833,None,267.0342229999369,267.132568800007,267.132568800007,None,268.017468099948,None,,,,,,,11015,001,2024_Jan_04_1117,ANT,2021.2.3,59.79949230707681,
1,13,center,down,C,L,,,,,,Block.xlsx,"你已经完成了第一个实验区组

请稍作休息


点击空格键进入下一个区组。",0,50,-1.5,left,LLLLL.png,,,,,0,0,0,0,2,22,70,12,,,,,,,,,,,,,,,,,,,,,,,,,,,,,,,,,,,,,,,,,,,,,,,,,,,,,,,,,,,,,,,,268.4177480000071,268.8199734999798,268.8021819998976,268.9025473999791,269.30228199996054,None,left,1,0.3425903000170365,269.30228199996054,None,268.8021819998976,268.9025473999791,268.9025473999791,None,269.6694954999257,None,,,,,,,11015,001,2024_Jan_04_1117,ANT,2021.2.3,59.79949230707681,
1,10,center,up,C,R,,,,,,Block.xlsx,"你已经完成了第一个实验区组

请稍作休息


点击空格键进入下一个区组。",0,50,1.5,right,RRRRR.png,,,,,0,0,0,0,2,23,71,9,,,,,,,,,,,,,,,,,,,,,,,,,,,,,,,,,,,,,,,,,,,,,,,,,,,,,,,,,,,,,,,,270.0709859000053,270.4715343998978,270.4547510999255,270.5541143999435,270.95579829998314,None,right,1,0.42502670001704246,270.95579829998314,None,270.4547510999255,270.5541143999435,270.5541143999435,None,271.40632309997454,None,,,,,,,11015,001,2024_Jan_04_1117,ANT,2021.2.3,59.79949230707681,
1,19,spatial,up,IC,L,,,,,,Block.xlsx,"你已经完成了第一个实验区组

请稍作休息


点击空格键进入下一个区组。",1.5,0,1.5,left,RRLRR.png,,,,,0,0,0,0,3,0,72,18,,,,,,,,,,,,,,,,,,,,,,,,,,,,,,,,,,,,,,,,,,,,,,,,,,,,,,,,,,,,,,,,271.8062376999296,272.20790379995015,272.1902757999487,272.2902289999183,272.69141339999624,None,left,1,0.6574903000146151,272.69141339999624,None,272.1902757999487,272.2902289999183,272.2902289999183,None,273.3752240999602,None,,,,,,,11015,001,2024_Jan_04_1117,ANT,2021.2.3,59.79949230707681,
1,7,no,down,IC,L,,,,,,Block.xlsx,"你已经完成了第一个实验区组

请稍作休息


点击空格键进入下一个区组。",50,0,-1.5,left,RRLRR.png,,,,,0,0,0,0,3,1,73,6,,,,,,,,,,,,,,,,,,,,,,,,,,,,,,,,,,,,,,,,,,,,,,,,,,,,,,,,,,,,,,,,273.77632840001024,274.1782445999561,274.1601372999139,274.25967289996333,274.66044279991183,None,left,1,0.47252920002210885,274.66044279991183,None,274.1601372999139,274.25967289996333,274.25967289996333,None,275.16189009998925,None,,,,,,,11015,001,2024_Jan_04_1117,ANT,2021.2.3,59.79949230707681,
1,15,center,down,IC,L,,,,,,Block.xlsx,"你已经完成了第一个实验区组

请稍作休息


点击空格键进入下一个区组。",0,50,-1.5,left,RRLRR.png,,,,,0,0,0,0,3,2,74,14,,,,,,,,,,,,,,,,,,,,,,,,,,,,,,,,,,,,,,,,,,,,,,,,,,,,,,,,,,,,,,,,275.5617734999396,275.96386169991456,275.94618679990526,276.0463629999431,276.44635139999446,None,left,1,0.36707319994457066,276.44635139999446,None,275.94618679990526,276.0463629999431,276.0463629999431,None,276.8304981999099,None,,,,,,,11015,001,2024_Jan_04_1117,ANT,2021.2.3,59.79949230707681,
1,21,spatial,down,C,L,,,,,,Block.xlsx,"你已经完成了第一个实验区组

请稍作休息


点击空格键进入下一个区组。",-1.5,0,-1.5,left,LLLLL.png,,,,,0,0,0,0,3,3,75,20,,,,,,,,,,,,,,,,,,,,,,,,,,,,,,,,,,,,,,,,,,,,,,,,,,,,,,,,,,,,,,,,277.23078659991734,277.631481599994,277.61631079996005,277.71638819994405,278.1154768000124,None,left,1,0.3614477999508381,278.1154768000124,None,277.61631079996005,277.71638819994405,277.71638819994405,None,278.4994786999887,None,,,,,,,11015,001,2024_Jan_04_1117,ANT,2021.2.3,59.79949230707681,
1,15,center,down,IC,L,,,,,,Block.xlsx,"你已经完成了第一个实验区组

请稍作休息


点击空格键进入下一个区组。",0,50,-1.5,left,RRLRR.png,,,,,0,0,0,0,3,4,76,14,,,,,,,,,,,,,,,,,,,,,,,,,,,,,,,,,,,,,,,,,,,,,,,,,,,,,,,,,,,,,,,,278.9000206999481,279.3021524999058,279.2838627999881,279.38494399993215,279.785588299972,None,left,1,0.3872968000359833,279.785588299972,None,279.2838627999881,279.38494399993215,279.38494399993215,None,280.20238259993494,None,,,,,,,11015,001,2024_Jan_04_1117,ANT,2021.2.3,59.79949230707681,
1,10,center,up,C,R,,,,,,Block.xlsx,"你已经完成了第一个实验区组

请稍作休息


点击空格键进入下一个区组。",0,50,1.5,right,RRRRR.png,,,,,0,0,0,0,3,5,77,9,,,,,,,,,,,,,,,,,,,,,,,,,,,,,,,,,,,,,,,,,,,,,,,,,,,,,,,,,,,,,,,,280.6029776999494,281.0051737999311,280.98684539995156,281.087218199973,281.48755799990613,None,right,1,0.4860264000017196,281.48755799990613,None,280.98684539995156,281.087218199973,281.087218199973,None,281.98776489996817,None,,,,,,,11015,001,2024_Jan_04_1117,ANT,2021.2.3,59.79949230707681,
1,1,no,up,C,L,,,,,,Block.xlsx,"你已经完成了第一个实验区组

请稍作休息


点击空格键进入下一个区组。",50,0,1.5,left,LLLLL.png,,,,,0,0,0,0,3,6,78,0,,,,,,,,,,,,,,,,,,,,,,,,,,,,,,,,,,,,,,,,,,,,,,,,,,,,,,,,,,,,,,,,282.38867999997456,282.78981779993046,282.77353769994806,282.8745404999936,283.2737241999712,None,left,1,0.4833401000360027,283.2737241999712,None,282.77353769994806,282.8745404999936,282.8745404999936,None,283.773822399904,None,,,,,,,11015,001,2024_Jan_04_1117,ANT,2021.2.3,59.79949230707681,
1,22,spatial,down,C,R,,,,,,Block.xlsx,"你已经完成了第一个实验区组

请稍作休息


点击空格键进入下一个区组。",-1.5,0,-1.5,right,RRRRR.png,,,,,0,0,0,0,3,7,79,21,,,,,,,,,,,,,,,,,,,,,,,,,,,,,,,,,,,,,,,,,,,,,,,,,,,,,,,,,,,,,,,,284.1745355000021,284.5750919999555,284.56023830000777,284.6605906999903,285.0603819999378,None,right,1,0.36089230002835393,285.0603819999378,None,284.56023830000777,284.6605906999903,284.6605906999903,None,285.4430239999201,None,,,,,,,11015,001,2024_Jan_04_1117,ANT,2021.2.3,59.79949230707681,
1,9,center,up,C,L,,,,,,Block.xlsx,"你已经完成了第一个实验区组

请稍作休息


点击空格键进入下一个区组。",0,50,1.5,left,LLLLL.png,,,,,0,0,0,0,3,8,80,8,,,,,,,,,,,,,,,,,,,,,,,,,,,,,,,,,,,,,,,,,,,,,,,,,,,,,,,,,,,,,,,,285.84377109992784,286.2464067999972,286.2276950000087,286.3278837999096,286.7286901999032,None,left,1,0.3803198999958113,286.7286901999032,None,286.2276950000087,286.3278837999096,286.3278837999096,None,287.1295675999718,None,,,,,,,11015,001,2024_Jan_04_1117,ANT,2021.2.3,59.79949230707681,
1,17,spatial,up,C,L,,,,,,Block.xlsx,"你已经完成了第一个实验区组

请稍作休息


点击空格键进入下一个区组。",1.5,0,1.5,left,LLLLL.png,,,,,0,0,0,0,3,9,81,16,,,,,,,,,,,,,,,,,,,,,,,,,,,,,,,,,,,,,,,,,,,,,,,,,,,,,,,,,,,,,,,,287.5301433999557,287.93090469995514,287.91358839999884,288.0146331998985,288.4147035999922,None,left,1,0.3903342999983579,288.4147035999922,None,287.91358839999884,288.0146331998985,288.0146331998985,None,288.8313846999081,None,,,,,,,11015,001,2024_Jan_04_1117,ANT,2021.2.3,59.79949230707681,
1,1,no,up,C,L,,,,,,Block.xlsx,"你已经完成了第一个实验区组

请稍作休息


点击空格键进入下一个区组。",50,0,1.5,left,LLLLL.png,,,,,0,0,0,0,3,10,82,0,,,,,,,,,,,,,,,,,,,,,,,,,,,,,,,,,,,,,,,,,,,,,,,,,,,,,,,,,,,,,,,,289.23227629996836,289.6346758999862,289.6169258999871,289.716662599938,290.1172389999265,None,left,1,0.3286227999487892,290.1172389999265,None,289.6169258999871,289.716662599938,289.716662599938,None,290.46734189998824,None,,,,,,,11015,001,2024_Jan_04_1117,ANT,2021.2.3,59.79949230707681,
1,3,no,up,IC,L,,,,,,Block.xlsx,"你已经完成了第一个实验区组

请稍作休息


点击空格键进入下一个区组。",50,0,1.5,left,RRLRR.png,,,,,0,0,0,0,3,11,83,2,,,,,,,,,,,,,,,,,,,,,,,,,,,,,,,,,,,,,,,,,,,,,,,,,,,,,,,,,,,,,,,,290.8677838000003,291.2694943000097,291.25178329995833,291.3523278000066,291.753105300013,None,left,1,0.3481811999808997,291.753105300013,None,291.25178329995833,291.3523278000066,291.3523278000066,None,292.12019509996753,None,,,,,,,11015,001,2024_Jan_04_1117,ANT,2021.2.3,59.79949230707681,
1,16,center,down,IC,R,,,,,,Block.xlsx,"你已经完成了第一个实验区组

请稍作休息


点击空格键进入下一个区组。",0,50,-1.5,right,LLRLL.png,,,,,0,0,0,0,3,12,84,15,,,,,,,,,,,,,,,,,,,,,,,,,,,,,,,,,,,,,,,,,,,,,,,,,,,,,,,,,,,,,,,,292.52025039994624,292.92110749997664,292.9047438999405,293.0059591999743,293.40554949990474,None,right,1,0.575263199978508,293.40554949990474,None,292.9047438999405,293.0059591999743,293.0059591999743,None,294.00570789992344,None,,,,,,,11015,001,2024_Jan_04_1117,ANT,2021.2.3,59.79949230707681,
1,8,no,down,IC,R,,,,,,Block.xlsx,"你已经完成了第一个实验区组

请稍作休息


点击空格键进入下一个区组。",50,0,-1.5,right,LLRLL.png,,,,,0,0,0,0,3,13,85,7,,,,,,,,,,,,,,,,,,,,,,,,,,,,,,,,,,,,,,,,,,,,,,,,,,,,,,,,,,,,,,,,294.40826089994516,294.8236103999661,294.79016139998566,294.89233189995866,295.2912087999284,None,right,1,0.43403890007175505,295.2912087999284,None,294.79016139998566,294.89233189995866,294.89233189995866,None,295.74181089992635,None,,,,,,,11015,001,2024_Jan_04_1117,ANT,2021.2.3,59.79949230707681,
1,9,center,up,C,L,,,,,,Block.xlsx,"你已经完成了第一个实验区组

请稍作休息


点击空格键进入下一个区组。",0,50,1.5,left,LLLLL.png,,,,,0,0,0,0,3,14,86,8,,,,,,,,,,,,,,,,,,,,,,,,,,,,,,,,,,,,,,,,,,,,,,,,,,,,,,,,,,,,,,,,296.1429687999189,296.5425909999758,296.52621399995405,296.6270963998977,297.028041799902,None,left,1,0.43288269999902695,297.028041799902,None,296.52621399995405,296.6270963998977,296.6270963998977,None,297.47746449999977,None,,,,,,,11015,001,2024_Jan_04_1117,ANT,2021.2.3,59.79949230707681,
1,17,spatial,up,C,L,,,,,,Block.xlsx,"你已经完成了第一个实验区组

请稍作休息


点击空格键进入下一个区组。",1.5,0,1.5,left,LLLLL.png,,,,,0,0,0,0,3,15,87,16,,,,,,,,,,,,,,,,,,,,,,,,,,,,,,,,,,,,,,,,,,,,,,,,,,,,,,,,,,,,,,,,297.87817859998904,298.27997099992353,298.26185879996046,298.36388630000874,298.76287509989925,None,left,1,0.3223566999658942,298.76287509989925,None,298.26185879996046,298.36388630000874,298.36388630000874,None,299.11329609993845,None,,,,,,,11015,001,2024_Jan_04_1117,ANT,2021.2.3,59.79949230707681,
1,18,spatial,up,C,R,,,,,,Block.xlsx,"你已经完成了第一个实验区组

请稍作休息


点击空格键进入下一个区组。",1.5,0,1.5,right,RRRRR.png,,,,,0,0,0,0,3,16,88,17,,,,,,,,,,,,,,,,,,,,,,,,,,,,,,,,,,,,,,,,,,,,,,,,,,,,,,,,,,,,,,,,299.5145895999158,299.915682699997,299.8978640999412,299.9985486000078,300.39856179989874,None,right,1,0.4224333999445662,300.39856179989874,None,299.8978640999412,299.9985486000078,299.9985486000078,None,300.8492382999975,None,,,,,,,11015,001,2024_Jan_04_1117,ANT,2021.2.3,59.79949230707681,
1,1,no,up,C,L,,,,,,Block.xlsx,"你已经完成了第一个实验区组

请稍作休息


点击空格键进入下一个区组。",50,0,1.5,left,LLLLL.png,,,,,0,0,0,0,3,17,89,0,,,,,,,,,,,,,,,,,,,,,,,,,,,,,,,,,,,,,,,,,,,,,,,,,,,,,,,,,,,,,,,,301.2503412999213,301.6517696999945,301.63363870000467,301.73466079996433,302.1353214000119,None,left,1,0.35773329995572567,302.1353214000119,None,301.63363870000467,301.73466079996433,301.73466079996433,None,302.5184409999056,None,,,,,,,11015,001,2024_Jan_04_1117,ANT,2021.2.3,59.79949230707681,
1,23,spatial,down,IC,L,,,,,,Block.xlsx,"你已经完成了第一个实验区组

请稍作休息


点击空格键进入下一个区组。",-1.5,0,-1.5,left,RRLRR.png,,,,,0,0,0,0,3,18,90,22,,,,,,,,,,,,,,,,,,,,,,,,,,,,,,,,,,,,,,,,,,,,,,,,,,,,,,,,,,,,,,,,302.9194848999614,303.32111729995813,303.30319449992385,303.4048157999059,303.8050710000098,None,left,1,0.42381169996224344,303.8050710000098,None,303.30319449992385,303.4048157999059,303.4048157999059,None,304.2546412999509,None,,,,,,,11015,001,2024_Jan_04_1117,ANT,2021.2.3,59.79949230707681,
1,23,spatial,down,IC,L,,,,,,Block.xlsx,"你已经完成了第一个实验区组

请稍作休息


点击空格键进入下一个区组。",-1.5,0,-1.5,left,RRLRR.png,,,,,0,0,0,0,3,19,91,22,,,,,,,,,,,,,,,,,,,,,,,,,,,,,,,,,,,,,,,,,,,,,,,,,,,,,,,,,,,,,,,,304.6554634999484,305.05610279995017,305.039844899904,305.1393925999291,305.5392445999896,None,left,1,0.5218082000501454,305.5392445999896,None,305.039844899904,305.1393925999291,305.1393925999291,None,306.09047129994724,None,,,,,,,11015,001,2024_Jan_04_1117,ANT,2021.2.3,59.79949230707681,
1,16,center,down,IC,R,,,,,,Block.xlsx,"你已经完成了第一个实验区组

请稍作休息


点击空格键进入下一个区组。",0,50,-1.5,right,LLRLL.png,,,,,0,0,0,0,3,20,92,15,,,,,,,,,,,,,,,,,,,,,,,,,,,,,,,,,,,,,,,,,,,,,,,,,,,,,,,,,,,,,,,,306.49090559990145,306.89278359990567,306.8753905999474,306.97569659992587,307.37623039993923,None,right,1,0.4205996999517083,307.37623039993923,None,306.8753905999474,306.97569659992587,306.97569659992587,None,307.82624309998937,None,,,,,,,11015,001,2024_Jan_04_1117,ANT,2021.2.3,59.79949230707681,
1,21,spatial,down,C,L,,,,,,Block.xlsx,"你已经完成了第一个实验区组

请稍作休息


点击空格键进入下一个区组。",-1.5,0,-1.5,left,LLLLL.png,,,,,0,0,0,0,3,21,93,20,,,,,,,,,,,,,,,,,,,,,,,,,,,,,,,,,,,,,,,,,,,,,,,,,,,,,,,,,,,,,,,,308.22693749994505,308.62805049994495,308.6119313999079,308.7116192999529,309.1125037999591,None,left,1,0.340395399951376,309.1125037999591,None,308.6119313999079,308.7116192999529,308.7116192999529,None,309.4788239999907,None,,,,,,,11015,001,2024_Jan_04_1117,ANT,2021.2.3,59.79949230707681,
1,3,no,up,IC,L,,,,,,Block.xlsx,"你已经完成了第一个实验区组

请稍作休息


点击空格键进入下一个区组。",50,0,1.5,left,RRLRR.png,,,,,0,0,0,0,3,22,94,2,,,,,,,,,,,,,,,,,,,,,,,,,,,,,,,,,,,,,,,,,,,,,,,,,,,,,,,,,,,,,,,,309.8795496999519,310.2819156999467,310.26372549997177,310.3658329999307,310.76403419999406,None,left,1,0.39297330006957054,310.76403419999406,None,310.26372549997177,310.3658329999307,310.3658329999307,None,311.18118329998106,None,,,,,,,11015,001,2024_Jan_04_1117,ANT,2021.2.3,59.79949230707681,
1,14,center,down,C,R,,,,,,Block.xlsx,"你已经完成了第一个实验区组

请稍作休息


点击空格键进入下一个区组。",0,50,-1.5,right,RRRRR.png,,,,,0,0,0,0,3,23,95,13,,,,,,,,,,,,,,,,,,,,,,,,,,,,,,,,,,,,,,,,,,,,,,,,,,,,,,,,,,,,,,,,311.5829691999825,311.98415729997214,311.96576469996944,312.0669306999771,312.4670221999986,None,right,1,0.40201179997529835,312.4670221999986,None,311.96576469996944,312.0669306999771,312.0669306999771,None,312.8837147000013,None,,,,,,,11015,001,2024_Jan_04_1117,ANT,2021.2.3,59.79949230707681,
,,,,,,,,,,,Block.xlsx,"你已经完成了第一个实验区组

请稍作休息


点击空格键进入下一个区组。",,,,,,,,,,0,0,0,0,,,,,,,,,,,,,,,,,,,,,,,,,,,,,,,,,,,,,,,,,,,,,,,,,,,,,,,,,,,,,,,,,,,,,,,,,,,,,,,,,,,,,space,21.256803199998103,313.2841650999617,None,313.2841650999617,None,11015,001,2024_Jan_04_1117,ANT,2021.2.3,59.79949230707681,
1,10,center,up,C,R,,,,,,Block.xlsx,"你已经完成了整个实验（三个区组）。

请报告实验者已完成实验

非常感谢，再见！",0,50,1.5,right,RRRRR.png,,,,,0,1,1,1,0,0,0,9,,,,,,,,,,,,,,,,,,,,,,,,,,,,,,,,,,,,,,,,,,,,,,,,,,,,,,,,,,,,,,,,334.58209969999734,334.98349879996385,334.96634919999633,335.0672035999596,335.4679476999445,None,right,1,0.3529409000184387,335.4679476999445,None,334.96634919999633,335.0672035999596,335.0672035999596,None,335.8519329999108,None,,,,,,,11015,001,2024_Jan_04_1117,ANT,2021.2.3,59.79949230707681,
1,17,spatial,up,C,L,,,,,,Block.xlsx,"你已经完成了整个实验（三个区组）。

请报告实验者已完成实验

非常感谢，再见！",1.5,0,1.5,left,LLLLL.png,,,,,0,1,1,1,0,1,1,16,,,,,,,,,,,,,,,,,,,,,,,,,,,,,,,,,,,,,,,,,,,,,,,,,,,,,,,,,,,,,,,,336.2517305999063,336.6536634999793,336.6355314999819,336.73572180001065,337.1376537999604,None,left,1,0.33151550008915365,337.1376537999604,None,336.6355314999819,336.73572180001065,336.73572180001065,None,337.48714969994035,None,,,,,,,11015,001,2024_Jan_04_1117,ANT,2021.2.3,59.79949230707681,
1,4,no,up,IC,R,,,,,,Block.xlsx,"你已经完成了整个实验（三个区组）。

请报告实验者已完成实验

非常感谢，再见！",50,0,1.5,right,LLRLL.png,,,,,0,1,1,1,0,2,2,3,,,,,,,,,,,,,,,,,,,,,,,,,,,,,,,,,,,,,,,,,,,,,,,,,,,,,,,,,,,,,,,,337.88723240001127,338.289159799926,338.27294169995,338.3723772999365,338.7726941999281,None,right,1,0.4402215000009164,338.7726941999281,None,338.27294169995,338.3723772999365,338.3723772999365,None,339.2394081999082,None,,,,,,,11015,001,2024_Jan_04_1117,ANT,2021.2.3,59.79949230707681,
1,9,center,up,C,L,,,,,,Block.xlsx,"你已经完成了整个实验（三个区组）。

请报告实验者已完成实验

非常感谢，再见！",0,50,1.5,left,LLLLL.png,,,,,0,1,1,1,0,3,3,8,,,,,,,,,,,,,,,,,,,,,,,,,,,,,,,,,,,,,,,,,,,,,,,,,,,,,,,,,,,,,,,,339.6401194999926,340.04087239992805,340.0244757999899,340.1253305999562,340.5250844999682,None,left,1,0.2958610000787303,340.5250844999682,None,340.0244757999899,340.1253305999562,340.1253305999562,None,340.8417574999621,None,,,,,,,11015,001,2024_Jan_04_1117,ANT,2021.2.3,59.79949230707681,
1,18,spatial,up,C,R,,,,,,Block.xlsx,"你已经完成了整个实验（三个区组）。

请报告实验者已完成实验

非常感谢，再见！",1.5,0,1.5,right,RRRRR.png,,,,,0,1,1,1,0,4,4,17,,,,,,,,,,,,,,,,,,,,,,,,,,,,,,,,,,,,,,,,,,,,,,,,,,,,,,,,,,,,,,,,341.24233719997574,341.6430093999952,341.6273872999009,341.72667959996033,342.1269217999652,None,right,1,0.326035299920477,342.1269217999652,None,341.6273872999009,341.72667959996033,341.72667959996033,None,342.47739259991795,None,,,,,,,11015,001,2024_Jan_04_1117,ANT,2021.2.3,59.79949230707681,
1,1,no,up,C,L,,,,,,Block.xlsx,"你已经完成了整个实验（三个区组）。

请报告实验者已完成实验

非常感谢，再见！",50,0,1.5,left,LLLLL.png,,,,,0,1,1,1,0,5,5,0,,,,,,,,,,,,,,,,,,,,,,,,,,,,,,,,,,,,,,,,,,,,,,,,,,,,,,,,,,,,,,,,342.8784549999982,343.27951769996434,343.2621557000093,343.3629379000049,343.7630588999018,None,left,1,0.2899091000435874,343.7630588999018,None,343.2621557000093,343.3629379000049,343.3629379000049,None,344.0800143999513,None,,,,,,,11015,001,2024_Jan_04_1117,ANT,2021.2.3,59.79949230707681,
1,2,no,up,C,R,,,,,,Block.xlsx,"你已经完成了整个实验（三个区组）。

请报告实验者已完成实验

非常感谢，再见！",50,0,1.5,right,RRRRR.png,,,,,0,1,1,1,0,6,6,1,,,,,,,,,,,,,,,,,,,,,,,,,,,,,,,,,,,,,,,,,,,,,,,,,,,,,,,,,,,,,,,,344.4804741999833,344.8812259999104,344.8665013000136,344.9814187999582,345.365094400011,None,right,1,0.3688226999947801,345.365094400011,None,344.8665013000136,344.9814187999582,344.96517969993874,None,345.74907209991943,None,,,,,,,11015,001,2024_Jan_04_1117,ANT,2021.2.3,59.79949230707681,
1,13,center,down,C,L,,,,,,Block.xlsx,"你已经完成了整个实验（三个区组）。

请报告实验者已完成实验

非常感谢，再见！",0,50,-1.5,left,LLLLL.png,,,,,0,1,1,1,0,7,7,12,,,,,,,,,,,,,,,,,,,,,,,,,,,,,,,,,,,,,,,,,,,,,,,,,,,,,,,,,,,,,,,,346.14966120000463,346.55057129997294,346.534576099948,346.63429789990187,347.0350853999844,None,left,1,0.49814769998192787,347.0350853999844,None,346.534576099948,346.63429789990187,346.63429789990187,None,347.5515483999625,None,,,,,,,11015,001,2024_Jan_04_1117,ANT,2021.2.3,59.79949230707681,
1,18,spatial,up,C,R,,,,,,Block.xlsx,"你已经完成了整个实验（三个区组）。

请报告实验者已完成实验

非常感谢，再见！",1.5,0,1.5,right,RRRRR.png,,,,,0,1,1,1,0,8,8,17,,,,,,,,,,,,,,,,,,,,,,,,,,,,,,,,,,,,,,,,,,,,,,,,,,,,,,,,,,,,,,,,347.9530863999389,348.35384919994976,348.33696220000274,348.43674279993866,348.8374779999722,None,right,1,0.48743620002642274,348.8374779999722,None,348.33696220000274,348.43674279993866,348.43674279993866,None,349.35441659996286,None,,,,,,,11015,001,2024_Jan_04_1117,ANT,2021.2.3,59.79949230707681,
1,10,center,up,C,R,,,,,,Block.xlsx,"你已经完成了整个实验（三个区组）。

请报告实验者已完成实验

非常感谢，再见！",0,50,1.5,right,RRRRR.png,,,,,0,1,1,1,0,9,9,9,,,,,,,,,,,,,,,,,,,,,,,,,,,,,,,,,,,,,,,,,,,,,,,,,,,,,,,,,,,,,,,,349.75508119992446,350.156358200009,350.13881899998523,350.23902929993346,350.64116839994676,None,right,1,0.32377659995108843,350.64116839994676,None,350.13881899998523,350.23902929993346,350.23902929993346,None,350.9904247999657,None,,,,,,,11015,001,2024_Jan_04_1117,ANT,2021.2.3,59.79949230707681,
1,12,center,up,IC,R,,,,,,Block.xlsx,"你已经完成了整个实验（三个区组）。

请报告实验者已完成实验

非常感谢，再见！",0,50,1.5,right,LLRLL.png,,,,,0,1,1,1,0,10,10,11,,,,,,,,,,,,,,,,,,,,,,,,,,,,,,,,,,,,,,,,,,,,,,,,,,,,,,,,,,,,,,,,351.39083519997075,351.7920914000133,351.776542800013,351.87479159992654,352.27718549990095,None,left,0,0.3759028000058606,352.27718549990095,None,351.776542800013,351.87479159992654,351.87479159992654,None,352.6765078000026,None,,,,,,,11015,001,2024_Jan_04_1117,ANT,2021.2.3,59.79949230707681,
1,22,spatial,down,C,R,,,,,,Block.xlsx,"你已经完成了整个实验（三个区组）。

请报告实验者已完成实验

非常感谢，再见！",-1.5,0,-1.5,right,RRRRR.png,,,,,0,1,1,1,0,11,11,21,,,,,,,,,,,,,,,,,,,,,,,,,,,,,,,,,,,,,,,,,,,,,,,,,,,,,,,,,,,,,,,,353.07666359993163,353.47931500000414,353.46123249991797,353.5621524999151,353.96132719994057,None,right,1,0.4756883999798447,353.96132719994057,None,353.46123249991797,353.5621524999151,353.5621524999151,None,354.46250829997007,None,,,,,,,11015,001,2024_Jan_04_1117,ANT,2021.2.3,59.79949230707681,
1,11,center,up,IC,L,,,,,,Block.xlsx,"你已经完成了整个实验（三个区组）。

请报告实验者已完成实验

非常感谢，再见！",0,50,1.5,left,RRLRR.png,,,,,0,1,1,1,0,12,12,10,,,,,,,,,,,,,,,,,,,,,,,,,,,,,,,,,,,,,,,,,,,,,,,,,,,,,,,,,,,,,,,,354.8626631000079,355.2638353999937,355.2480595000088,355.34777260001283,355.74824719992466,None,left,1,0.3453828999772668,355.74824719992466,None,355.2480595000088,355.34777260001283,355.34777260001283,None,356.11445190000813,None,,,,,,,11015,001,2024_Jan_04_1117,ANT,2021.2.3,59.79949230707681,
1,20,spatial,up,IC,R,,,,,,Block.xlsx,"你已经完成了整个实验（三个区组）。

请报告实验者已完成实验

非常感谢，再见！",1.5,0,1.5,right,LLRLL.png,,,,,0,1,1,1,0,13,13,19,,,,,,,,,,,,,,,,,,,,,,,,,,,,,,,,,,,,,,,,,,,,,,,,,,,,,,,,,,,,,,,,356.51560339995194,356.9159604999004,356.8997338999761,356.9997755999211,357.39961299998686,None,right,1,0.5414123999653384,357.39961299998686,None,356.8997338999761,356.9997755999211,356.9997755999211,None,357.96732739999425,None,,,,,,,11015,001,2024_Jan_04_1117,ANT,2021.2.3,59.79949230707681,
1,24,spatial,down,IC,R,,,,,,Block.xlsx,"你已经完成了整个实验（三个区组）。

请报告实验者已完成实验

非常感谢，再见！",-1.5,0,-1.5,right,LLRLL.png,,,,,0,1,1,1,0,14,14,23,,,,,,,,,,,,,,,,,,,,,,,,,,,,,,,,,,,,,,,,,,,,,,,,,,,,,,,,,,,,,,,,358.36852319992613,358.7691724000033,358.75236559996847,358.8522195999976,359.252444999991,None,right,1,0.5364281999645755,359.252444999991,None,358.75236559996847,358.8522195999976,358.8522195999976,None,359.8199140999932,None,,,,,,,11015,001,2024_Jan_04_1117,ANT,2021.2.3,59.79949230707681,
1,19,spatial,up,IC,L,,,,,,Block.xlsx,"你已经完成了整个实验（三个区组）。

请报告实验者已完成实验

非常感谢，再见！",1.5,0,1.5,left,RRLRR.png,,,,,0,1,1,1,0,15,15,18,,,,,,,,,,,,,,,,,,,,,,,,,,,,,,,,,,,,,,,,,,,,,,,,,,,,,,,,,,,,,,,,360.22109030000865,360.6210527999792,360.60535989992786,360.7048873999156,361.1064706000034,None,left,1,0.35452739999163896,361.1064706000034,None,360.60535989992786,360.7048873999156,360.7048873999156,None,361.4891435999889,None,,,,,,,11015,001,2024_Jan_04_1117,ANT,2021.2.3,59.79949230707681,
1,8,no,down,IC,R,,,,,,Block.xlsx,"你已经完成了整个实验（三个区组）。

请报告实验者已完成实验

非常感谢，再见！",50,0,-1.5,right,LLRLL.png,,,,,0,1,1,1,0,16,16,7,,,,,,,,,,,,,,,,,,,,,,,,,,,,,,,,,,,,,,,,,,,,,,,,,,,,,,,,,,,,,,,,361.8895965999691,362.29085429990664,362.2736260999227,362.37409689999186,362.7748913000105,None,right,1,0.462008300004527,362.7748913000105,None,362.2736260999227,362.37409689999186,362.37409689999186,None,363.25886359997094,None,,,,,,,11015,001,2024_Jan_04_1117,ANT,2021.2.3,59.79949230707681,
1,21,spatial,down,C,L,,,,,,Block.xlsx,"你已经完成了整个实验（三个区组）。

请报告实验者已完成实验

非常感谢，再见！",-1.5,0,-1.5,left,LLLLL.png,,,,,0,1,1,1,0,17,17,20,,,,,,,,,,,,,,,,,,,,,,,,,,,,,,,,,,,,,,,,,,,,,,,,,,,,,,,,,,,,,,,,363.6589313999284,364.0593981000129,364.0441679999931,364.14305039995816,364.54348549991846,None,left,1,0.3575935000553727,364.54348549991846,None,364.0441679999931,364.14305039995816,364.14305039995816,None,364.9275221999269,None,,,,,,,11015,001,2024_Jan_04_1117,ANT,2021.2.3,59.79949230707681,
1,11,center,up,IC,L,,,,,,Block.xlsx,"你已经完成了整个实验（三个区组）。

请报告实验者已完成实验

非常感谢，再见！",0,50,1.5,left,RRLRR.png,,,,,0,1,1,1,0,18,18,10,,,,,,,,,,,,,,,,,,,,,,,,,,,,,,,,,,,,,,,,,,,,,,,,,,,,,,,,,,,,,,,,365.328183399979,365.73056179995183,365.7125997999683,365.81358259997796,366.21281880000606,None,left,1,0.3852411999832839,366.21281880000606,None,365.7125997999683,365.81358259997796,365.81358259997796,None,366.6134098999901,None,,,,,,,11015,001,2024_Jan_04_1117,ANT,2021.2.3,59.79949230707681,
1,3,no,up,IC,L,,,,,,Block.xlsx,"你已经完成了整个实验（三个区组）。

请报告实验者已完成实验

非常感谢，再见！",50,0,1.5,left,RRLRR.png,,,,,0,1,1,1,0,19,19,2,,,,,,,,,,,,,,,,,,,,,,,,,,,,,,,,,,,,,,,,,,,,,,,,,,,,,,,,,,,,,,,,367.01459019992035,367.41584859997965,367.39790029998403,367.4980341999326,367.89922309992835,None,left,1,0.48989039997104555,367.89922309992835,None,367.39790029998403,367.4980341999326,367.4980341999326,None,368.41664499999024,None,,,,,,,11015,001,2024_Jan_04_1117,ANT,2021.2.3,59.79949230707681,
1,11,center,up,IC,L,,,,,,Block.xlsx,"你已经完成了整个实验（三个区组）。

请报告实验者已完成实验

非常感谢，再见！",0,50,1.5,left,RRLRR.png,,,,,0,1,1,1,0,20,20,10,,,,,,,,,,,,,,,,,,,,,,,,,,,,,,,,,,,,,,,,,,,,,,,,,,,,,,,,,,,,,,,,368.81736059999093,369.21736119990237,369.2006509999046,369.3021953999996,369.7014246999752,None,left,1,0.40763179992791265,369.7014246999752,None,369.2006509999046,369.3021953999996,369.3021953999996,None,370.13546449993737,None,,,,,,,11015,001,2024_Jan_04_1117,ANT,2021.2.3,59.79949230707681,
1,23,spatial,down,IC,L,,,,,,Block.xlsx,"你已经完成了整个实验（三个区组）。

请报告实验者已完成实验

非常感谢，再见！",-1.5,0,-1.5,left,RRLRR.png,,,,,0,1,1,1,0,21,21,22,,,,,,,,,,,,,,,,,,,,,,,,,,,,,,,,,,,,,,,,,,,,,,,,,,,,,,,,,,,,,,,,370.53572819998953,370.9380969000049,370.9206185999792,371.0202297999058,371.4210793999955,None,left,1,0.5198288999963552,371.4210793999955,None,370.9206185999792,371.0202297999058,371.0202297999058,None,371.97148509998806,None,,,,,,,11015,001,2024_Jan_04_1117,ANT,2021.2.3,59.79949230707681,
1,14,center,down,C,R,,,,,,Block.xlsx,"你已经完成了整个实验（三个区组）。

请报告实验者已完成实验

非常感谢，再见！",0,50,-1.5,right,RRRRR.png,,,,,0,1,1,1,0,22,22,13,,,,,,,,,,,,,,,,,,,,,,,,,,,,,,,,,,,,,,,,,,,,,,,,,,,,,,,,,,,,,,,,372.371623099898,372.7739939999301,372.75762109993957,372.8734216999728,373.2566644999897,None,right,1,0.36507820000406355,373.2566644999897,None,372.75762109993957,372.8734216999728,372.8574776999885,None,373.6402800999349,None,,,,,,,11015,001,2024_Jan_04_1117,ANT,2021.2.3,59.79949230707681,
1,6,no,down,C,R,,,,,,Block.xlsx,"你已经完成了整个实验（三个区组）。

请报告实验者已完成实验

非常感谢，再见！",50,0,-1.5,right,RRRRR.png,,,,,0,1,1,1,0,23,23,5,,,,,,,,,,,,,,,,,,,,,,,,,,,,,,,,,,,,,,,,,,,,,,,,,,,,,,,,,,,,,,,,374.04094049998093,374.44200379995164,374.4273901999695,374.54301489994396,374.92704079998657,None,right,1,0.3986511999974027,374.92704079998657,None,374.4273901999695,374.54301489994396,374.52562359999865,None,375.34281740000006,None,,,,,,,11015,001,2024_Jan_04_1117,ANT,2021.2.3,59.79949230707681,
1,13,center,down,C,L,,,,,,Block.xlsx,"你已经完成了整个实验（三个区组）。

请报告实验者已完成实验

非常感谢，再见！",0,50,-1.5,left,LLLLL.png,,,,,0,1,1,1,1,0,24,12,,,,,,,,,,,,,,,,,,,,,,,,,,,,,,,,,,,,,,,,,,,,,,,,,,,,,,,,,,,,,,,,375.74400949990377,376.1462452999549,376.1286211999832,376.2279386000009,376.62936869997066,None,left,1,0.3280545000452548,376.62936869997066,None,376.1286211999832,376.2279386000009,376.2279386000009,None,376.9797090999782,None,,,,,,,11015,001,2024_Jan_04_1117,ANT,2021.2.3,59.79949230707681,
1,12,center,up,IC,R,,,,,,Block.xlsx,"你已经完成了整个实验（三个区组）。

请报告实验者已完成实验

非常感谢，再见！",0,50,1.5,right,LLRLL.png,,,,,0,1,1,1,1,1,25,11,,,,,,,,,,,,,,,,,,,,,,,,,,,,,,,,,,,,,,,,,,,,,,,,,,,,,,,,,,,,,,,,377.3798274999717,377.7799475999782,377.7636953999754,377.8657005999703,378.2653126999503,None,left,0,0.36376460001338273,378.2653126999503,None,377.7636953999754,377.8657005999703,377.8657005999703,None,378.6477390999207,None,,,,,,,11015,001,2024_Jan_04_1117,ANT,2021.2.3,59.79949230707681,
1,23,spatial,down,IC,L,,,,,,Block.xlsx,"你已经完成了整个实验（三个区组）。

请报告实验者已完成实验

非常感谢，再见！",-1.5,0,-1.5,left,RRLRR.png,,,,,0,1,1,1,1,2,26,22,,,,,,,,,,,,,,,,,,,,,,,,,,,,,,,,,,,,,,,,,,,,,,,,,,,,,,,,,,,,,,,,379.0484976998996,379.44978629995603,379.43305699992925,379.5336700999178,379.9331603999017,None,left,1,0.4807485999772325,379.9331603999017,None,379.43305699992925,379.5336700999178,379.5336700999178,None,380.43358809989877,None,,,,,,,11015,001,2024_Jan_04_1117,ANT,2021.2.3,59.79949230707681,
1,4,no,up,IC,R,,,,,,Block.xlsx,"你已经完成了整个实验（三个区组）。

请报告实验者已完成实验

非常感谢，再见！",50,0,1.5,right,LLRLL.png,,,,,0,1,1,1,1,3,27,3,,,,,,,,,,,,,,,,,,,,,,,,,,,,,,,,,,,,,,,,,,,,,,,,,,,,,,,,,,,,,,,,380.83471510000527,381.2365060999291,381.2183381000068,381.3195287999697,381.71937979990616,None,right,1,0.4299843000480905,381.71937979990616,None,381.2183381000068,381.3195287999697,381.3195287999697,None,382.16969249991234,None,,,,,,,11015,001,2024_Jan_04_1117,ANT,2021.2.3,59.79949230707681,
1,15,center,down,IC,L,,,,,,Block.xlsx,"你已经完成了整个实验（三个区组）。

请报告实验者已完成实验

非常感谢，再见！",0,50,-1.5,left,RRLRR.png,,,,,0,1,1,1,1,4,28,14,,,,,,,,,,,,,,,,,,,,,,,,,,,,,,,,,,,,,,,,,,,,,,,,,,,,,,,,,,,,,,,,382.57035349996295,382.97299939999357,382.9543456999818,383.05584309995174,383.45569329999853,None,left,1,0.40563259995542467,383.45569329999853,None,382.9543456999818,383.05584309995174,383.05584309995174,None,383.8892167999875,None,,,,,,,11015,001,2024_Jan_04_1117,ANT,2021.2.3,59.79949230707681,
1,16,center,down,IC,R,,,,,,Block.xlsx,"你已经完成了整个实验（三个区组）。

请报告实验者已完成实验

非常感谢，再见！",0,50,-1.5,right,LLRLL.png,,,,,0,1,1,1,1,5,29,15,,,,,,,,,,,,,,,,,,,,,,,,,,,,,,,,,,,,,,,,,,,,,,,,,,,,,,,,,,,,,,,,384.2897507000016,384.69206789997406,384.67405409994535,384.77475479990244,385.17440669995267,None,right,1,0.542572500067763,385.17440669995267,None,384.67405409994535,384.77475479990244,384.77475479990244,None,385.7415030999109,None,,,,,,,11015,001,2024_Jan_04_1117,ANT,2021.2.3,59.79949230707681,
1,14,center,down,C,R,,,,,,Block.xlsx,"你已经完成了整个实验（三个区组）。

请报告实验者已完成实验

非常感谢，再见！",0,50,-1.5,right,RRRRR.png,,,,,0,1,1,1,1,6,30,13,,,,,,,,,,,,,,,,,,,,,,,,,,,,,,,,,,,,,,,,,,,,,,,,,,,,,,,,,,,,,,,,386.14210970001295,386.54304799996316,386.52789569995366,386.6283152999822,387.0277102999389,None,right,1,0.393315099994652,387.0277102999389,None,386.52789569995366,386.6283152999822,386.6283152999822,None,387.4443686999148,None,,,,,,,11015,001,2024_Jan_04_1117,ANT,2021.2.3,59.79949230707681,
1,13,center,down,C,L,,,,,,Block.xlsx,"你已经完成了整个实验（三个区组）。

请报告实验者已完成实验

非常感谢，再见！",0,50,-1.5,left,LLLLL.png,,,,,0,1,1,1,1,7,31,12,,,,,,,,,,,,,,,,,,,,,,,,,,,,,,,,,,,,,,,,,,,,,,,,,,,,,,,,,,,,,,,,387.8454513999168,388.24610220000613,388.22865979990456,388.32881619990803,388.7316663999809,None,left,1,0.362280200002715,388.7316663999809,None,388.22865979990456,388.32881619990803,388.32881619990803,None,389.1131844999036,None,,,,,,,11015,001,2024_Jan_04_1117,ANT,2021.2.3,59.79949230707681,
1,14,center,down,C,R,,,,,,Block.xlsx,"你已经完成了整个实验（三个区组）。

请报告实验者已完成实验

非常感谢，再见！",0,50,-1.5,right,RRRRR.png,,,,,0,1,1,1,1,8,32,13,,,,,,,,,,,,,,,,,,,,,,,,,,,,,,,,,,,,,,,,,,,,,,,,,,,,,,,,,,,,,,,,389.51467479998246,389.914495099918,389.89843109995127,389.9980740000028,390.39861439995,None,right,1,0.4468806000659242,390.39861439995,None,389.89843109995127,389.9980740000028,389.9980740000028,None,390.86741219996475,None,,,,,,,11015,001,2024_Jan_04_1117,ANT,2021.2.3,59.79949230707681,
1,9,center,up,C,L,,,,,,Block.xlsx,"你已经完成了整个实验（三个区组）。

请报告实验者已完成实验

非常感谢，再见！",0,50,1.5,left,LLLLL.png,,,,,0,1,1,1,1,9,33,8,,,,,,,,,,,,,,,,,,,,,,,,,,,,,,,,,,,,,,,,,,,,,,,,,,,,,,,,,,,,,,,,391.26669079996645,391.66763949999586,391.650562099996,391.7510976999765,392.1515302999178,None,left,1,0.41385159990750253,392.1515302999178,None,391.650562099996,391.7510976999765,391.7510976999765,None,392.5852515998995,None,,,,,,,11015,001,2024_Jan_04_1117,ANT,2021.2.3,59.79949230707681,
1,22,spatial,down,C,R,,,,,,Block.xlsx,"你已经完成了整个实验（三个区组）。

请报告实验者已完成实验

非常感谢，再见！",-1.5,0,-1.5,right,RRRRR.png,,,,,0,1,1,1,1,10,34,21,,,,,,,,,,,,,,,,,,,,,,,,,,,,,,,,,,,,,,,,,,,,,,,,,,,,,,,,,,,,,,,,392.9856713999761,393.3870995999314,393.3702478999039,393.47266209998634,393.8721497999504,None,right,1,0.38101749995257705,393.8721497999504,None,393.3702478999039,393.47266209998634,393.47266209998634,None,394.27123610000126,None,,,,,,,11015,001,2024_Jan_04_1117,ANT,2021.2.3,59.79949230707681,
1,7,no,down,IC,L,,,,,,Block.xlsx,"你已经完成了整个实验（三个区组）。

请报告实验者已完成实验

非常感谢，再见！",50,0,-1.5,left,RRLRR.png,,,,,0,1,1,1,1,11,35,6,,,,,,,,,,,,,,,,,,,,,,,,,,,,,,,,,,,,,,,,,,,,,,,,,,,,,,,,,,,,,,,,394.6715603999328,395.07412749994546,395.05617120000534,395.1577544999309,395.55808799993247,None,right,0,0.383814699947834,395.55808799993247,None,395.05617120000534,395.1577544999309,395.1577544999309,None,395.95694979990367,None,,,,,,,11015,001,2024_Jan_04_1117,ANT,2021.2.3,59.79949230707681,
1,14,center,down,C,R,,,,,,Block.xlsx,"你已经完成了整个实验（三个区组）。

请报告实验者已完成实验

非常感谢，再见！",0,50,-1.5,right,RRRRR.png,,,,,0,1,1,1,1,12,36,13,,,,,,,,,,,,,,,,,,,,,,,,,,,,,,,,,,,,,,,,,,,,,,,,,,,,,,,,,,,,,,,,396.35746649990324,396.75839480001014,396.7417866999749,396.8422370000044,397.24201219994575,None,right,1,0.3950647000456229,397.24201219994575,None,396.7417866999749,396.8422370000044,396.8422370000044,None,397.659998399904,None,,,,,,,11015,001,2024_Jan_04_1117,ANT,2021.2.3,59.79949230707681,
1,17,spatial,up,C,L,,,,,,Block.xlsx,"你已经完成了整个实验（三个区组）。

请报告实验者已完成实验

非常感谢，再见！",1.5,0,1.5,left,LLLLL.png,,,,,0,1,1,1,1,13,37,16,,,,,,,,,,,,,,,,,,,,,,,,,,,,,,,,,,,,,,,,,,,,,,,,,,,,,,,,,,,,,,,,398.05993639992084,398.4629997999873,398.4442777999211,398.54469119990245,398.9463260999182,None,left,1,0.32282200001645833,398.9463260999182,None,398.4442777999211,398.54469119990245,398.54469119990245,None,399.29504899994936,None,,,,,,,11015,001,2024_Jan_04_1117,ANT,2021.2.3,59.79949230707681,
1,15,center,down,IC,L,,,,,,Block.xlsx,"你已经完成了整个实验（三个区组）。

请报告实验者已完成实验

非常感谢，再见！",0,50,-1.5,left,RRLRR.png,,,,,0,1,1,1,1,14,38,14,,,,,,,,,,,,,,,,,,,,,,,,,,,,,,,,,,,,,,,,,,,,,,,,,,,,,,,,,,,,,,,,399.69551489991136,400.09769179997966,400.07959959993605,400.1814455999993,400.58178239990957,None,left,1,0.35980420000851154,400.58178239990957,None,400.07959959993605,400.1814455999993,400.1814455999993,None,400.96551779995207,None,,,,,,,11015,001,2024_Jan_04_1117,ANT,2021.2.3,59.79949230707681,
1,4,no,up,IC,R,,,,,,Block.xlsx,"你已经完成了整个实验（三个区组）。

请报告实验者已完成实验

非常感谢，再见！",50,0,1.5,right,LLRLL.png,,,,,0,1,1,1,1,15,39,3,,,,,,,,,,,,,,,,,,,,,,,,,,,,,,,,,,,,,,,,,,,,,,,,,,,,,,,,,,,,,,,,401.3662004999351,401.7653620999772,401.7490997000132,401.8493761999998,402.2504311999073,None,left,0,0.39540289994329214,402.2504311999073,None,401.7490997000132,401.8493761999998,401.8493761999998,None,402.6669304999523,None,,,,,,,11015,001,2024_Jan_04_1117,ANT,2021.2.3,59.79949230707681,
1,24,spatial,down,IC,R,,,,,,Block.xlsx,"你已经完成了整个实验（三个区组）。

请报告实验者已完成实验

非常感谢，再见！",-1.5,0,-1.5,right,LLRLL.png,,,,,0,1,1,1,1,16,40,23,,,,,,,,,,,,,,,,,,,,,,,,,,,,,,,,,,,,,,,,,,,,,,,,,,,,,,,,,,,,,,,,403.0674033999676,403.4690381999826,403.4513265999267,403.55242480000015,403.952539299964,None,right,1,0.4365899000549689,403.952539299964,None,403.4513265999267,403.55242480000015,403.55242480000015,None,404.41932639991865,None,,,,,,,11015,001,2024_Jan_04_1117,ANT,2021.2.3,59.79949230707681,
1,6,no,down,C,R,,,,,,Block.xlsx,"你已经完成了整个实验（三个区组）。

请报告实验者已完成实验

非常感谢，再见！",50,0,-1.5,right,RRRRR.png,,,,,0,1,1,1,1,17,41,5,,,,,,,,,,,,,,,,,,,,,,,,,,,,,,,,,,,,,,,,,,,,,,,,,,,,,,,,,,,,,,,,404.82044659997337,405.22208639991004,405.2038946999237,405.30574889993295,405.70542000001296,None,right,1,0.3955422999570146,405.70542000001296,None,405.2038946999237,405.30574889993295,405.30574889993295,None,406.1217805999331,None,,,,,,,11015,001,2024_Jan_04_1117,ANT,2021.2.3,59.79949230707681,
1,8,no,down,IC,R,,,,,,Block.xlsx,"你已经完成了整个实验（三个区组）。

请报告实验者已完成实验

非常感谢，再见！",50,0,-1.5,right,LLRLL.png,,,,,0,1,1,1,1,18,42,7,,,,,,,,,,,,,,,,,,,,,,,,,,,,,,,,,,,,,,,,,,,,,,,,,,,,,,,,,,,,,,,,406.5223777999636,406.9239568999037,406.90834089997225,407.0251253999304,407.4073397999164,None,right,1,0.4217257999116555,407.4073397999164,None,406.90834089997225,407.0251253999304,407.007280599908,None,407.857831900008,None,,,,,,,11015,001,2024_Jan_04_1117,ANT,2021.2.3,59.79949230707681,
1,7,no,down,IC,L,,,,,,Block.xlsx,"你已经完成了整个实验（三个区组）。

请报告实验者已完成实验

非常感谢，再见！",50,0,-1.5,left,RRLRR.png,,,,,0,1,1,1,1,19,43,6,,,,,,,,,,,,,,,,,,,,,,,,,,,,,,,,,,,,,,,,,,,,,,,,,,,,,,,,,,,,,,,,408.2584336999571,408.6588847999228,408.64302809990477,408.742653699941,409.1436880999245,None,left,1,0.3497413999866694,409.1436880999245,None,408.64302809990477,408.742653699941,408.742653699941,None,409.51026819995604,None,,,,,,,11015,001,2024_Jan_04_1117,ANT,2021.2.3,59.79949230707681,
1,17,spatial,up,C,L,,,,,,Block.xlsx,"你已经完成了整个实验（三个区组）。

请报告实验者已完成实验

非常感谢，再见！",1.5,0,1.5,left,LLLLL.png,,,,,0,1,1,1,1,20,44,16,,,,,,,,,,,,,,,,,,,,,,,,,,,,,,,,,,,,,,,,,,,,,,,,,,,,,,,,,,,,,,,,409.9108730999287,410.3128184999805,410.2947456999682,410.39552929997444,410.79581199993845,None,left,1,0.3456188999116421,410.79581199993845,None,410.2947456999682,410.39552929997444,410.39552929997444,None,411.16264499991667,None,,,,,,,11015,001,2024_Jan_04_1117,ANT,2021.2.3,59.79949230707681,
1,1,no,up,C,L,,,,,,Block.xlsx,"你已经完成了整个实验（三个区组）。

请报告实验者已完成实验

非常感谢，再见！",50,0,1.5,left,LLLLL.png,,,,,0,1,1,1,1,21,45,0,,,,,,,,,,,,,,,,,,,,,,,,,,,,,,,,,,,,,,,,,,,,,,,,,,,,,,,,,,,,,,,,411.5633674999699,411.96575229999144,411.94716149999294,412.0480190999806,412.4479395999806,None,left,1,0.3410423999885097,412.4479395999806,None,411.94716149999294,412.0480190999806,412.0480190999806,None,412.8151458000066,None,,,,,,,11015,001,2024_Jan_04_1117,ANT,2021.2.3,59.79949230707681,
1,23,spatial,down,IC,L,,,,,,Block.xlsx,"你已经完成了整个实验（三个区组）。

请报告实验者已完成实验

非常感谢，再见！",-1.5,0,-1.5,left,RRLRR.png,,,,,0,1,1,1,1,22,46,22,,,,,,,,,,,,,,,,,,,,,,,,,,,,,,,,,,,,,,,,,,,,,,,,,,,,,,,,,,,,,,,,413.21666249993723,413.6171284999,413.6011081999168,413.7005034999456,414.1011647999985,None,left,1,0.46473949996288866,414.1011647999985,None,413.6011081999168,413.7005034999456,413.7005034999456,None,414.58434900001157,None,,,,,,,11015,001,2024_Jan_04_1117,ANT,2021.2.3,59.79949230707681,
1,5,no,down,C,L,,,,,,Block.xlsx,"你已经完成了整个实验（三个区组）。

请报告实验者已完成实验

非常感谢，再见！",50,0,-1.5,left,LLLLL.png,,,,,0,1,1,1,1,23,47,4,,,,,,,,,,,,,,,,,,,,,,,,,,,,,,,,,,,,,,,,,,,,,,,,,,,,,,,,,,,,,,,,414.986215999932,415.3873341999715,415.3692521000048,415.4692454999313,415.87066799995955,None,left,1,0.32682600000407547,415.87066799995955,None,415.3692521000048,415.4692454999313,415.4692454999313,None,416.22019329993054,None,,,,,,,11015,001,2024_Jan_04_1117,ANT,2021.2.3,59.79949230707681,
1,13,center,down,C,L,,,,,,Block.xlsx,"你已经完成了整个实验（三个区组）。

请报告实验者已完成实验

非常感谢，再见！",0,50,-1.5,left,LLLLL.png,,,,,0,1,1,1,2,0,48,12,,,,,,,,,,,,,,,,,,,,,,,,,,,,,,,,,,,,,,,,,,,,,,,,,,,,,,,,,,,,,,,,416.6220961000072,417.02333929995075,417.00524369999766,417.10538560000714,417.50568249996286,None,left,1,0.32359550008550286,417.50568249996286,None,417.00524369999766,417.10538560000714,417.10538560000714,None,417.85572170000523,None,,,,,,,11015,001,2024_Jan_04_1117,ANT,2021.2.3,59.79949230707681,
1,9,center,up,C,L,,,,,,Block.xlsx,"你已经完成了整个实验（三个区组）。

请报告实验者已完成实验

非常感谢，再见！",0,50,1.5,left,LLLLL.png,,,,,0,1,1,1,2,1,49,8,,,,,,,,,,,,,,,,,,,,,,,,,,,,,,,,,,,,,,,,,,,,,,,,,,,,,,,,,,,,,,,,418.25660129997414,418.6586648999946,418.6405669999076,418.741510599968,419.14119709993247,None,left,1,0.47196450002957135,419.14119709993247,None,418.6405669999076,418.741510599968,418.741510599968,None,419.64206159999594,None,,,,,,,11015,001,2024_Jan_04_1117,ANT,2021.2.3,59.79949230707681,
1,19,spatial,up,IC,L,,,,,,Block.xlsx,"你已经完成了整个实验（三个区组）。

请报告实验者已完成实验

非常感谢，再见！",1.5,0,1.5,left,RRLRR.png,,,,,0,1,1,1,2,2,50,18,,,,,,,,,,,,,,,,,,,,,,,,,,,,,,,,,,,,,,,,,,,,,,,,,,,,,,,,,,,,,,,,420.0434041999979,420.44334190001246,420.4263998999959,420.52698679990135,420.92927600000985,None,left,1,0.25979599996935576,420.92927600000985,None,420.4263998999959,420.52698679990135,420.52698679990135,None,421.2109658999834,None,,,,,,,11015,001,2024_Jan_04_1117,ANT,2021.2.3,59.79949230707681,
1,8,no,down,IC,R,,,,,,Block.xlsx,"你已经完成了整个实验（三个区组）。

请报告实验者已完成实验

非常感谢，再见！",50,0,-1.5,right,LLRLL.png,,,,,0,1,1,1,2,3,51,7,,,,,,,,,,,,,,,,,,,,,,,,,,,,,,,,,,,,,,,,,,,,,,,,,,,,,,,,,,,,,,,,421.6120255999267,422.01250589999836,421.99572080001235,422.09741079993546,422.4975395000074,None,left,0,0.40386039996519685,422.4975395000074,None,421.99572080001235,422.09741079993546,422.09741079993546,None,422.93014660000335,None,,,,,,,11015,001,2024_Jan_04_1117,ANT,2021.2.3,59.79949230707681,
1,8,no,down,IC,R,,,,,,Block.xlsx,"你已经完成了整个实验（三个区组）。

请报告实验者已完成实验

非常感谢，再见！",50,0,-1.5,right,LLRLL.png,,,,,0,1,1,1,2,4,52,7,,,,,,,,,,,,,,,,,,,,,,,,,,,,,,,,,,,,,,,,,,,,,,,,,,,,,,,,,,,,,,,,423.3323165999027,423.73237949993927,423.71538899990264,423.81547309993766,424.2168736999156,None,right,1,0.5964429000159726,424.2168736999156,None,423.71538899990264,423.81547309993766,423.81547309993766,None,424.8335028999718,None,,,,,,,11015,001,2024_Jan_04_1117,ANT,2021.2.3,59.79949230707681,
1,7,no,down,IC,L,,,,,,Block.xlsx,"你已经完成了整个实验（三个区组）。

请报告实验者已完成实验

非常感谢，再见！",50,0,-1.5,left,RRLRR.png,,,,,0,1,1,1,2,5,53,6,,,,,,,,,,,,,,,,,,,,,,,,,,,,,,,,,,,,,,,,,,,,,,,,,,,,,,,,,,,,,,,,425.2334458999103,425.6342132999562,425.61930839996785,425.71884350001346,426.1197311999276,None,left,1,0.48529209999833256,426.1197311999276,None,425.61930839996785,425.71884350001346,425.71884350001346,None,426.63553500000853,None,,,,,,,11015,001,2024_Jan_04_1117,ANT,2021.2.3,59.79949230707681,
1,9,center,up,C,L,,,,,,Block.xlsx,"你已经完成了整个实验（三个区组）。

请报告实验者已完成实验

非常感谢，再见！",0,50,1.5,left,LLLLL.png,,,,,0,1,1,1,2,6,54,8,,,,,,,,,,,,,,,,,,,,,,,,,,,,,,,,,,,,,,,,,,,,,,,,,,,,,,,,,,,,,,,,427.03697389992885,427.43943559995387,427.42109449999407,427.5211247999687,427.92151759995613,None,left,1,0.4354505001101643,427.92151759995613,None,427.42109449999407,427.5211247999687,427.5211247999687,None,428.38820059993304,None,,,,,,,11015,001,2024_Jan_04_1117,ANT,2021.2.3,59.79949230707681,
1,20,spatial,up,IC,R,,,,,,Block.xlsx,"你已经完成了整个实验（三个区组）。

请报告实验者已完成实验

非常感谢，再见！",1.5,0,1.5,right,LLRLL.png,,,,,0,1,1,1,2,7,55,19,,,,,,,,,,,,,,,,,,,,,,,,,,,,,,,,,,,,,,,,,,,,,,,,,,,,,,,,,,,,,,,,428.7892847999465,429.19010599993635,429.1740446999902,429.27415219997056,429.67418189998716,None,right,1,0.450879400013946,429.67418189998716,None,429.1740446999902,429.27415219997056,429.27415219997056,None,430.14056659990456,None,,,,,,,11015,001,2024_Jan_04_1117,ANT,2021.2.3,59.79949230707681,
1,3,no,up,IC,L,,,,,,Block.xlsx,"你已经完成了整个实验（三个区组）。

请报告实验者已完成实验

非常感谢，再见！",50,0,1.5,left,RRLRR.png,,,,,0,1,1,1,2,8,56,2,,,,,,,,,,,,,,,,,,,,,,,,,,,,,,,,,,,,,,,,,,,,,,,,,,,,,,,,,,,,,,,,430.541165899951,430.9435487999581,430.9259804999456,431.02626829990186,431.42684219998773,None,left,1,0.3866591000696644,431.42684219998773,None,430.9259804999456,431.02626829990186,431.02626829990186,None,431.8433170999633,None,,,,,,,11015,001,2024_Jan_04_1117,ANT,2021.2.3,59.79949230707681,
1,21,spatial,down,C,L,,,,,,Block.xlsx,"你已经完成了整个实验（三个区组）。

请报告实验者已完成实验

非常感谢，再见！",-1.5,0,-1.5,left,LLLLL.png,,,,,0,1,1,1,2,9,57,20,,,,,,,,,,,,,,,,,,,,,,,,,,,,,,,,,,,,,,,,,,,,,,,,,,,,,,,,,,,,,,,,432.24390529992525,432.6451254999265,432.62771519995295,432.7293351999251,433.12982639996335,None,left,1,0.323267100029625,433.12982639996335,None,432.62771519995295,432.7293351999251,432.7293351999251,None,433.4790462999372,None,,,,,,,11015,001,2024_Jan_04_1117,ANT,2021.2.3,59.79949230707681,
1,2,no,up,C,R,,,,,,Block.xlsx,"你已经完成了整个实验（三个区组）。

请报告实验者已完成实验

非常感谢，再见！",50,0,1.5,right,RRRRR.png,,,,,0,1,1,1,2,10,58,1,,,,,,,,,,,,,,,,,,,,,,,,,,,,,,,,,,,,,,,,,,,,,,,,,,,,,,,,,,,,,,,,433.88040719996206,434.2817154999357,434.2636265999172,434.3654016999062,434.7657829999225,None,right,1,0.42339679994620383,434.7657829999225,None,434.2636265999172,434.3654016999062,434.3654016999062,None,435.2150376999052,None,,,,,,,11015,001,2024_Jan_04_1117,ANT,2021.2.3,59.79949230707681,
1,16,center,down,IC,R,,,,,,Block.xlsx,"你已经完成了整个实验（三个区组）。

请报告实验者已完成实验

非常感谢，再见！",0,50,-1.5,right,LLRLL.png,,,,,0,1,1,1,2,11,59,15,,,,,,,,,,,,,,,,,,,,,,,,,,,,,,,,,,,,,,,,,,,,,,,,,,,,,,,,,,,,,,,,435.6154940999113,436.01710139994975,436.00053769990336,436.1008923999034,436.50091449997853,None,right,1,0.5520926000317559,436.50091449997853,None,436.00053769990336,436.1008923999034,436.1008923999034,None,437.0844627999468,None,,,,,,,11015,001,2024_Jan_04_1117,ANT,2021.2.3,59.79949230707681,
1,5,no,down,C,L,,,,,,Block.xlsx,"你已经完成了整个实验（三个区组）。

请报告实验者已完成实验

非常感谢，再见！",50,0,-1.5,left,LLLLL.png,,,,,0,1,1,1,2,12,60,4,,,,,,,,,,,,,,,,,,,,,,,,,,,,,,,,,,,,,,,,,,,,,,,,,,,,,,,,,,,,,,,,437.4857392999111,437.88721329998225,437.87024660001043,437.97132959996816,438.37148609990254,None,left,1,0.45758399995975196,438.37148609990254,None,437.87024660001043,437.97132959996816,437.97132959996816,None,438.8542449999368,None,,,,,,,11015,001,2024_Jan_04_1117,ANT,2021.2.3,59.79949230707681,
1,6,no,down,C,R,,,,,,Block.xlsx,"你已经完成了整个实验（三个区组）。

请报告实验者已完成实验

非常感谢，再见！",50,0,-1.5,right,RRRRR.png,,,,,0,1,1,1,2,13,61,5,,,,,,,,,,,,,,,,,,,,,,,,,,,,,,,,,,,,,,,,,,,,,,,,,,,,,,,,,,,,,,,,439.254321299959,439.65583509998396,439.63902749994304,439.7397681999719,440.1390844999114,None,right,1,0.37799800001084805,440.1390844999114,None,439.63902749994304,439.7397681999719,439.7397681999719,None,440.53956870001275,None,,,,,,,11015,001,2024_Jan_04_1117,ANT,2021.2.3,59.79949230707681,
1,18,spatial,up,C,R,,,,,,Block.xlsx,"你已经完成了整个实验（三个区组）。

请报告实验者已完成实验

非常感谢，再见！",1.5,0,1.5,right,RRRRR.png,,,,,0,1,1,1,2,14,62,17,,,,,,,,,,,,,,,,,,,,,,,,,,,,,,,,,,,,,,,,,,,,,,,,,,,,,,,,,,,,,,,,440.94032639998477,441.34196899994276,441.32394559995737,441.4248547999887,441.82482039998285,None,right,1,0.32436920003965497,441.82482039998285,None,441.32394559995737,441.4248547999887,441.4248547999887,None,442.17556579993106,None,,,,,,,11015,001,2024_Jan_04_1117,ANT,2021.2.3,59.79949230707681,
1,3,no,up,IC,L,,,,,,Block.xlsx,"你已经完成了整个实验（三个区组）。

请报告实验者已完成实验

非常感谢，再见！",50,0,1.5,left,RRLRR.png,,,,,0,1,1,1,2,15,63,2,,,,,,,,,,,,,,,,,,,,,,,,,,,,,,,,,,,,,,,,,,,,,,,,,,,,,,,,,,,,,,,,442.5760025999043,442.97756929998286,442.96061790001113,443.06178190000355,443.46130530000664,None,left,1,0.48770539998076856,443.46130530000664,None,442.96061790001113,443.06178190000355,443.06178190000355,None,443.97810379997827,None,,,,,,,11015,001,2024_Jan_04_1117,ANT,2021.2.3,59.79949230707681,
1,20,spatial,up,IC,R,,,,,,Block.xlsx,"你已经完成了整个实验（三个区组）。

请报告实验者已完成实验

非常感谢，再见！",1.5,0,1.5,right,LLRLL.png,,,,,0,1,1,1,2,16,64,19,,,,,,,,,,,,,,,,,,,,,,,,,,,,,,,,,,,,,,,,,,,,,,,,,,,,,,,,,,,,,,,,444.37861579994205,444.7804400000023,444.76270929991733,444.8625068999827,445.2632840999868,None,right,1,0.3824643000261858,445.2632840999868,None,444.76270929991733,444.8625068999827,444.8625068999827,None,445.6641775999451,None,,,,,,,11015,001,2024_Jan_04_1117,ANT,2021.2.3,59.79949230707681,
1,2,no,up,C,R,,,,,,Block.xlsx,"你已经完成了整个实验（三个区组）。

请报告实验者已完成实验

非常感谢，再见！",50,0,1.5,right,RRRRR.png,,,,,0,1,1,1,2,17,65,1,,,,,,,,,,,,,,,,,,,,,,,,,,,,,,,,,,,,,,,,,,,,,,,,,,,,,,,,,,,,,,,,446.0658727999544,446.46729239996057,446.4490991999628,446.54835479997564,446.94973679992836,None,right,1,0.3195579999592155,446.94973679992836,None,446.4490991999628,446.54835479997564,446.54835479997564,None,447.2995589999482,None,,,,,,,11015,001,2024_Jan_04_1117,ANT,2021.2.3,59.79949230707681,
1,21,spatial,down,C,L,,,,,,Block.xlsx,"你已经完成了整个实验（三个区组）。

请报告实验者已完成实验

非常感谢，再见！",-1.5,0,-1.5,left,LLLLL.png,,,,,0,1,1,1,2,18,66,20,,,,,,,,,,,,,,,,,,,,,,,,,,,,,,,,,,,,,,,,,,,,,,,,,,,,,,,,,,,,,,,,447.70027779997326,448.1009839999024,448.0847856999608,448.184277299908,448.5854269999545,None,left,1,0.29971690010279417,448.5854269999545,None,448.0847856999608,448.184277299908,448.184277299908,None,448.90273659990635,None,,,,,,,11015,001,2024_Jan_04_1117,ANT,2021.2.3,59.79949230707681,
1,10,center,up,C,R,,,,,,Block.xlsx,"你已经完成了整个实验（三个区组）。

请报告实验者已完成实验

非常感谢，再见！",0,50,1.5,right,RRRRR.png,,,,,0,1,1,1,2,19,67,9,,,,,,,,,,,,,,,,,,,,,,,,,,,,,,,,,,,,,,,,,,,,,,,,,,,,,,,,,,,,,,,,449.302454699995,449.7039345999947,449.6864075999474,449.78741529991385,450.1877910000039,None,right,1,0.3532350000459701,450.1877910000039,None,449.6864075999474,449.78741529991385,449.78741529991385,None,450.5710278999759,None,,,,,,,11015,001,2024_Jan_04_1117,ANT,2021.2.3,59.79949230707681,
1,24,spatial,down,IC,R,,,,,,Block.xlsx,"你已经完成了整个实验（三个区组）。

请报告实验者已完成实验

非常感谢，再见！",-1.5,0,-1.5,right,LLRLL.png,,,,,0,1,1,1,2,20,68,23,,,,,,,,,,,,,,,,,,,,,,,,,,,,,,,,,,,,,,,,,,,,,,,,,,,,,,,,,,,,,,,,450.97226650000084,451.37321799993515,451.3556260999758,451.45569009997416,451.8566079000011,None,right,1,0.38874359999317676,451.8566079000011,None,451.3556260999758,451.45569009997416,451.45569009997416,None,452.273645499954,None,,,,,,,11015,001,2024_Jan_04_1117,ANT,2021.2.3,59.79949230707681,
1,19,spatial,up,IC,L,,,,,,Block.xlsx,"你已经完成了整个实验（三个区组）。

请报告实验者已完成实验

非常感谢，再见！",1.5,0,1.5,left,RRLRR.png,,,,,0,1,1,1,2,21,69,18,,,,,,,,,,,,,,,,,,,,,,,,,,,,,,,,,,,,,,,,,,,,,,,,,,,,,,,,,,,,,,,,452.6748319999315,453.0747350999154,453.05872349999845,453.15880059998017,453.55969469994307,None,left,1,0.35749399999622256,453.55969469994307,None,453.05872349999845,453.15880059998017,453.15880059998017,None,453.94296129990835,None,,,,,,,11015,001,2024_Jan_04_1117,ANT,2021.2.3,59.79949230707681,
1,16,center,down,IC,R,,,,,,Block.xlsx,"你已经完成了整个实验（三个区组）。

请报告实验者已完成实验

非常感谢，再见！",0,50,-1.5,right,LLRLL.png,,,,,0,1,1,1,2,22,70,15,,,,,,,,,,,,,,,,,,,,,,,,,,,,,,,,,,,,,,,,,,,,,,,,,,,,,,,,,,,,,,,,454.34404889994767,454.74561679991893,454.7271813999396,454.82808729994576,455.2281791999703,None,right,1,0.3613171000033617,455.2281791999703,None,454.7271813999396,454.82808729994576,454.82808729994576,None,455.61193619994447,None,,,,,,,11015,001,2024_Jan_04_1117,ANT,2021.2.3,59.79949230707681,
1,6,no,down,C,R,,,,,,Block.xlsx,"你已经完成了整个实验（三个区组）。

请报告实验者已完成实验

非常感谢，再见！",50,0,-1.5,right,RRRRR.png,,,,,0,1,1,1,2,23,71,5,,,,,,,,,,,,,,,,,,,,,,,,,,,,,,,,,,,,,,,,,,,,,,,,,,,,,,,,,,,,,,,,456.0124120999826,456.41341679997277,456.3982958999695,456.49728919996414,456.8976640999317,None,right,1,0.3555390000110492,456.8976640999317,None,456.3982958999695,456.49728919996414,456.49728919996414,None,457.2821854999056,None,,,,,,,11015,001,2024_Jan_04_1117,ANT,2021.2.3,59.79949230707681,
1,22,spatial,down,C,R,,,,,,Block.xlsx,"你已经完成了整个实验（三个区组）。

请报告实验者已完成实验

非常感谢，再见！",-1.5,0,-1.5,right,RRRRR.png,,,,,0,1,1,1,3,0,72,21,,,,,,,,,,,,,,,,,,,,,,,,,,,,,,,,,,,,,,,,,,,,,,,,,,,,,,,,,,,,,,,,457.68252039991785,458.0826102999272,458.06546299997717,458.1671275999397,458.5666961999377,None,right,1,0.310875799972564,458.5666961999377,None,458.06546299997717,458.1671275999397,458.1671275999397,None,458.90013570000883,None,,,,,,,11015,001,2024_Jan_04_1117,ANT,2021.2.3,59.79949230707681,
1,10,center,up,C,R,,,,,,Block.xlsx,"你已经完成了整个实验（三个区组）。

请报告实验者已完成实验

非常感谢，再见！",0,50,1.5,right,RRRRR.png,,,,,0,1,1,1,3,1,73,9,,,,,,,,,,,,,,,,,,,,,,,,,,,,,,,,,,,,,,,,,,,,,,,,,,,,,,,,,,,,,,,,459.3004521999974,459.7011350999819,459.6853344999254,459.7855717999628,460.18615839991253,None,right,1,0.38711859995964915,460.18615839991253,None,459.6853344999254,459.7855717999628,459.7855717999628,None,460.6026028000051,None,,,,,,,11015,001,2024_Jan_04_1117,ANT,2021.2.3,59.79949230707681,
1,20,spatial,up,IC,R,,,,,,Block.xlsx,"你已经完成了整个实验（三个区组）。

请报告实验者已完成实验

非常感谢，再见！",1.5,0,1.5,right,LLRLL.png,,,,,0,1,1,1,3,2,74,19,,,,,,,,,,,,,,,,,,,,,,,,,,,,,,,,,,,,,,,,,,,,,,,,,,,,,,,,,,,,,,,,461.0038461999502,461.4057141999947,461.3873945999658,461.4888627999462,461.8884711000137,None,right,1,0.5247005999553949,461.8884711000137,None,461.3873945999658,461.4888627999462,461.4888627999462,None,462.4386256999569,None,,,,,,,11015,001,2024_Jan_04_1117,ANT,2021.2.3,59.79949230707681,
1,12,center,up,IC,R,,,,,,Block.xlsx,"你已经完成了整个实验（三个区组）。

请报告实验者已完成实验

非常感谢，再见！",0,50,1.5,right,LLRLL.png,,,,,0,1,1,1,3,3,75,11,,,,,,,,,,,,,,,,,,,,,,,,,,,,,,,,,,,,,,,,,,,,,,,,,,,,,,,,,,,,,,,,462.8392688999884,463.2416702999035,463.22355389990844,463.3239876999287,463.72542079992127,None,right,1,0.559649599948898,463.72542079992127,None,463.22355389990844,463.3239876999287,463.3239876999287,None,464.30821849999484,None,,,,,,,11015,001,2024_Jan_04_1117,ANT,2021.2.3,59.79949230707681,
1,7,no,down,IC,L,,,,,,Block.xlsx,"你已经完成了整个实验（三个区组）。

请报告实验者已完成实验

非常感谢，再见！",50,0,-1.5,left,RRLRR.png,,,,,0,1,1,1,3,4,76,6,,,,,,,,,,,,,,,,,,,,,,,,,,,,,,,,,,,,,,,,,,,,,,,,,,,,,,,,,,,,,,,,464.70890919992235,465.10969700000715,465.09320259990636,465.19348939997144,465.5948067000136,None,right,0,0.41829179995693266,465.5948067000136,None,465.09320259990636,465.19348939997144,465.19348939997144,None,466.02734849997796,None,,,,,,,11015,001,2024_Jan_04_1117,ANT,2021.2.3,59.79949230707681,
1,5,no,down,C,L,,,,,,Block.xlsx,"你已经完成了整个实验（三个区组）。

请报告实验者已完成实验

非常感谢，再见！",50,0,-1.5,left,LLLLL.png,,,,,0,1,1,1,3,5,77,4,,,,,,,,,,,,,,,,,,,,,,,,,,,,,,,,,,,,,,,,,,,,,,,,,,,,,,,,,,,,,,,,466.4278093999019,466.8291776999831,466.81317310000304,466.91355989989825,467.31272049993277,None,left,1,0.3804711999837309,467.31272049993277,None,466.81317310000304,466.91355989989825,466.91355989989825,None,467.71317839995027,None,,,,,,,11015,001,2024_Jan_04_1117,ANT,2021.2.3,59.79949230707681,
1,21,spatial,down,C,L,,,,,,Block.xlsx,"你已经完成了整个实验（三个区组）。

请报告实验者已完成实验

非常感谢，再见！",-1.5,0,-1.5,left,LLLLL.png,,,,,0,1,1,1,3,6,78,20,,,,,,,,,,,,,,,,,,,,,,,,,,,,,,,,,,,,,,,,,,,,,,,,,,,,,,,,,,,,,,,,468.11432429996785,468.5160220999969,468.49849279993214,468.5997040999355,468.9999259999022,None,left,1,0.3013267000205815,468.9999259999022,None,468.49849279993214,468.5997040999355,468.5997040999355,None,469.3328244999284,None,,,,,,,11015,001,2024_Jan_04_1117,ANT,2021.2.3,59.79949230707681,
1,18,spatial,up,C,R,,,,,,Block.xlsx,"你已经完成了整个实验（三个区组）。

请报告实验者已完成实验

非常感谢，再见！",1.5,0,1.5,right,RRRRR.png,,,,,0,1,1,1,3,7,79,17,,,,,,,,,,,,,,,,,,,,,,,,,,,,,,,,,,,,,,,,,,,,,,,,,,,,,,,,,,,,,,,,469.732677299995,470.13336239999626,470.1166843000101,470.21744299994316,470.6180238999659,None,right,1,0.32364650000818074,470.6180238999659,None,470.1166843000101,470.21744299994316,470.21744299994316,None,470.96819439996034,None,,,,,,,11015,001,2024_Jan_04_1117,ANT,2021.2.3,59.79949230707681,
1,4,no,up,IC,R,,,,,,Block.xlsx,"你已经完成了整个实验（三个区组）。

请报告实验者已完成实验

非常感谢，再见！",50,0,1.5,right,LLRLL.png,,,,,0,1,1,1,3,8,80,3,,,,,,,,,,,,,,,,,,,,,,,,,,,,,,,,,,,,,,,,,,,,,,,,,,,,,,,,,,,,,,,,471.3686606999254,471.76902679994237,471.7532073999755,471.8528420999646,472.2532645999454,None,right,1,0.3918426000745967,472.2532645999454,None,471.7532073999755,471.8528420999646,471.8528420999646,None,472.6705011999002,None,,,,,,,11015,001,2024_Jan_04_1117,ANT,2021.2.3,59.79949230707681,
1,17,spatial,up,C,L,,,,,,Block.xlsx,"你已经完成了整个实验（三个区组）。

请报告实验者已完成实验

非常感谢，再见！",1.5,0,1.5,left,LLLLL.png,,,,,0,1,1,1,3,9,81,16,,,,,,,,,,,,,,,,,,,,,,,,,,,,,,,,,,,,,,,,,,,,,,,,,,,,,,,,,,,,,,,,473.0712202999275,473.4723343999358,473.4556486000074,473.5556480999803,473.95563139999285,None,left,1,0.3536782000446692,473.95563139999285,None,473.4556486000074,473.5556480999803,473.5556480999803,None,474.32299609994516,None,,,,,,,11015,001,2024_Jan_04_1117,ANT,2021.2.3,59.79949230707681,
1,22,spatial,down,C,R,,,,,,Block.xlsx,"你已经完成了整个实验（三个区组）。

请报告实验者已完成实验

非常感谢，再见！",-1.5,0,-1.5,right,RRRRR.png,,,,,0,1,1,1,3,10,82,21,,,,,,,,,,,,,,,,,,,,,,,,,,,,,,,,,,,,,,,,,,,,,,,,,,,,,,,,,,,,,,,,474.72388169995975,475.1244494999992,475.1083425999386,475.20846240001265,475.60826589993667,None,right,1,0.42165169992949814,475.60826589993667,None,475.1083425999386,475.20846240001265,475.20846240001265,None,476.05882439995185,None,,,,,,,11015,001,2024_Jan_04_1117,ANT,2021.2.3,59.79949230707681,
1,19,spatial,up,IC,L,,,,,,Block.xlsx,"你已经完成了整个实验（三个区组）。

请报告实验者已完成实验

非常感谢，再见！",1.5,0,1.5,left,RRLRR.png,,,,,0,1,1,1,3,11,83,18,,,,,,,,,,,,,,,,,,,,,,,,,,,,,,,,,,,,,,,,,,,,,,,,,,,,,,,,,,,,,,,,476.4597737999866,476.86065239994787,476.84409029991366,476.94421639991924,477.34463649999816,None,left,1,0.5810687000630423,477.34463649999816,None,476.84409029991366,476.94421639991924,476.94421639991924,None,477.9455856999848,None,,,,,,,11015,001,2024_Jan_04_1117,ANT,2021.2.3,59.79949230707681,
1,15,center,down,IC,L,,,,,,Block.xlsx,"你已经完成了整个实验（三个区组）。

请报告实验者已完成实验

非常感谢，再见！",0,50,-1.5,left,RRLRR.png,,,,,0,1,1,1,3,12,84,14,,,,,,,,,,,,,,,,,,,,,,,,,,,,,,,,,,,,,,,,,,,,,,,,,,,,,,,,,,,,,,,,478.3462706999853,478.7482292999048,478.7297128000064,478.83156389999203,479.2305819999892,None,left,1,0.6309105000691488,479.2305819999892,None,478.7297128000064,478.83156389999203,478.83156389999203,None,479.8818593999604,None,,,,,,,11015,001,2024_Jan_04_1117,ANT,2021.2.3,59.79949230707681,
1,23,spatial,down,IC,L,,,,,,Block.xlsx,"你已经完成了整个实验（三个区组）。

请报告实验者已完成实验

非常感谢，再见！",-1.5,0,-1.5,left,RRLRR.png,,,,,0,1,1,1,3,13,85,22,,,,,,,,,,,,,,,,,,,,,,,,,,,,,,,,,,,,,,,,,,,,,,,,,,,,,,,,,,,,,,,,480.2818765999982,480.68406649993267,480.6663472999353,480.7670130999759,481.16825059999246,None,left,1,0.5329986000433564,481.16825059999246,None,480.6663472999353,480.7670130999759,480.7670130999759,None,481.717100400012,None,,,,,,,11015,001,2024_Jan_04_1117,ANT,2021.2.3,59.79949230707681,
1,3,no,up,IC,L,,,,,,Block.xlsx,"你已经完成了整个实验（三个区组）。

请报告实验者已完成实验

非常感谢，再见！",50,0,1.5,left,RRLRR.png,,,,,0,1,1,1,3,14,86,2,,,,,,,,,,,,,,,,,,,,,,,,,,,,,,,,,,,,,,,,,,,,,,,,,,,,,,,,,,,,,,,,482.1178319999017,482.5190576999448,482.5034078999888,482.60306009999476,483.00247889989987,None,left,1,0.5470310000237077,483.00247889989987,None,482.5034078999888,482.60306009999476,482.60306009999476,None,483.57004269992467,None,,,,,,,11015,001,2024_Jan_04_1117,ANT,2021.2.3,59.79949230707681,
1,15,center,down,IC,L,,,,,,Block.xlsx,"你已经完成了整个实验（三个区组）。

请报告实验者已完成实验

非常感谢，再见！",0,50,-1.5,left,RRLRR.png,,,,,0,1,1,1,3,15,87,14,,,,,,,,,,,,,,,,,,,,,,,,,,,,,,,,,,,,,,,,,,,,,,,,,,,,,,,,,,,,,,,,483.9706420999719,484.371716799913,484.35491859994363,484.4555257000029,484.85602539998945,None,left,1,0.39747289998922497,484.85602539998945,None,484.35491859994363,484.4555257000029,484.4555257000029,None,485.27249819994904,None,,,,,,,11015,001,2024_Jan_04_1117,ANT,2021.2.3,59.79949230707681,
1,11,center,up,IC,L,,,,,,Block.xlsx,"你已经完成了整个实验（三个区组）。

请报告实验者已完成实验

非常感谢，再见！",0,50,1.5,left,RRLRR.png,,,,,0,1,1,1,3,16,88,10,,,,,,,,,,,,,,,,,,,,,,,,,,,,,,,,,,,,,,,,,,,,,,,,,,,,,,,,,,,,,,,,485.67340779991355,486.0745201999089,486.05714659998193,486.1589732998982,486.55785569990985,None,left,1,0.35929420008324087,486.55785569990985,None,486.05714659998193,486.1589732998982,486.1589732998982,None,486.941723399912,None,,,,,,,11015,001,2024_Jan_04_1117,ANT,2021.2.3,59.79949230707681,
1,5,no,down,C,L,,,,,,Block.xlsx,"你已经完成了整个实验（三个区组）。

请报告实验者已完成实验

非常感谢，再见！",50,0,-1.5,left,LLLLL.png,,,,,0,1,1,1,3,17,89,4,,,,,,,,,,,,,,,,,,,,,,,,,,,,,,,,,,,,,,,,,,,,,,,,,,,,,,,,,,,,,,,,487.34291289991233,487.7436861000024,487.7269057999365,487.82655439991504,488.22827069996856,None,left,1,0.38482589996419847,488.22827069996856,None,487.7269057999365,487.82655439991504,487.82655439991504,None,488.6441893998999,None,,,,,,,11015,001,2024_Jan_04_1117,ANT,2021.2.3,59.79949230707681,
1,2,no,up,C,R,,,,,,Block.xlsx,"你已经完成了整个实验（三个区组）。

请报告实验者已完成实验

非常感谢，再见！",50,0,1.5,right,RRRRR.png,,,,,0,1,1,1,3,18,90,1,,,,,,,,,,,,,,,,,,,,,,,,,,,,,,,,,,,,,,,,,,,,,,,,,,,,,,,,,,,,,,,,489.0457735999953,489.4452508999966,489.4297346000094,489.52946719992906,489.9304207999958,None,right,1,0.3551562000066042,489.9304207999958,None,489.4297346000094,489.52946719992906,489.52946719992906,None,490.3141770999646,None,,,,,,,11015,001,2024_Jan_04_1117,ANT,2021.2.3,59.79949230707681,
1,1,no,up,C,L,,,,,,Block.xlsx,"你已经完成了整个实验（三个区组）。

请报告实验者已完成实验

非常感谢，再见！",50,0,1.5,left,LLLLL.png,,,,,0,1,1,1,3,19,91,0,,,,,,,,,,,,,,,,,,,,,,,,,,,,,,,,,,,,,,,,,,,,,,,,,,,,,,,,,,,,,,,,490.71379829989746,491.11442309990525,491.0999629999278,491.1978691999102,491.59978019993287,None,left,1,0.37339560000691563,491.59978019993287,None,491.0999629999278,491.1978691999102,491.1978691999102,None,491.99903999990784,None,,,,,,,11015,001,2024_Jan_04_1117,ANT,2021.2.3,59.79949230707681,
1,16,center,down,IC,R,,,,,,Block.xlsx,"你已经完成了整个实验（三个区组）。

请报告实验者已完成实验

