TrialType,TrialNumber,WarningType,TargetType,FlankerType,TargetDirection,W,f,Y,corr,imageFile,condition,endtext,Yw,Yf,Yt,Corr,imagefile,trials_3.thisRepN,trials_3.thisTrialN,trials_3.thisN,trials_3.thisIndex,trials_2.thisRepN,trials_2.thisTrialN,trials_2.thisN,trials_2.thisIndex,trials.thisRepN,trials.thisTrialN,trials.thisN,trials.thisIndex,instr.started,instr.stopped,key_resp.keys,key_resp.rt,key_resp.started,key_resp.stopped,image.started,image.stopped,key_resp_6.keys,key_resp_6.rt,key_resp_6.started,key_resp_6.stopped,EX_L.started,EX_L.stopped,AL.started,AL.stopped,key_resp_7.keys,key_resp_7.rt,key_resp_7.started,key_resp_7.stopped,EX_R.started,EX_R.stopped,RR.started,RR.stopped,key_resp_8.keys,key_resp_8.rt,key_resp_8.started,key_resp_8.stopped,image_2.started,image_2.stopped,key_resp_9.keys,key_resp_9.rt,key_resp_9.started,key_resp_9.stopped,image_3.started,image_3.stopped,key_resp_10.keys,key_resp_10.rt,key_resp_10.started,key_resp_10.stopped,fix.started,fix.stopped,war.started,war.stopped,tar.started,tar.stopped,key_resp_4.keys,key_resp_4.corr,key_resp_4.rt,key_resp_4.started,key_resp_4.stopped,fix2.started,fix2.stopped,fix_2.started,fix_2.stopped,Feedback.started,Feedback.stopped,key_resp_2.keys,key_resp_2.rt,key_resp_2.started,key_resp_2.stopped,text_5.started,text_5.stopped,fix2_1.started,fix2_1.stopped,Warn.started,Warn.stopped,Tar.started,Tar.stopped,key_resp_5.keys,key_resp_5.corr,key_resp_5.rt,key_resp_5.started,key_resp_5.stopped,Fix_2.started,Fix_2.stopped,fix2_2.started,fix2_2.stopped,text_4.started,text_4.stopped,key_resp_3.keys,key_resp_3.rt,key_resp_3.started,key_resp_3.stopped,text_3.started,text_3.stopped,participant,session,date,expName,psychopyVersion,frameRate,
,,,,,,,,,,,,,,,,,,,,,,,,,,,,,,11.150031800032593,None,space,4.1653746999800205,11.150031800032593,None,,,,,,,,,,,,,,,,,,,,,,,,,,,,,,,,,,,,,,,,,,,,,,,,,,,,,,,,,,,,,,,,,,,,,,,,,,,,,,,,,11017,001,2024_Jan_04_1519,ANT,2021.2.3,59.9266737357379,
,,,,,,,,,,,,,,,,,,,,,,,,,,,,,,,,,,,,15.339596200035885,None,space,17.240194200072438,15.339596200035885,None,,,,,,,,,,,,,,,,,,,,,,,,,,,,,,,,,,,,,,,,,,,,,,,,,,,,,,,,,,,,,,,,,,,,,,,,,,,11017,001,2024_Jan_04_1519,ANT,2021.2.3,59.9266737357379,
,,,,,,,,,,,,,,,,,,,,,,,,,,,,,,,,,,,,,,,,,,32.598637699964456,None,32.598637699964456,None,left,1.1414177999831736,32.598637699964456,None,,,,,,,,,,,,,,,,,,,,,,,,,,,,,,,,,,,,,,,,,,,,,,,,,,,,,,,,,,,,,,,,,,,11017,001,2024_Jan_04_1519,ANT,2021.2.3,59.9266737357379,
,,,,,,,,,,,,,,,,,,,,,,,,,,,,,,,,,,,,,,,,,,,,,,,,,,33.76693919999525,None,33.76693919999525,None,right,0.6205617999657989,33.76693919999525,None,,,,,,,,,,,,,,,,,,,,,,,,,,,,,,,,,,,,,,,,,,,,,,,,,,,,,,,,,,,11017,001,2024_Jan_04_1519,ANT,2021.2.3,59.9266737357379,
,,,,,,,,,,,,,,,,,,,,,,,,,,,,,,,,,,,,,,,,,,,,,,,,,,,,,,,,,,34.41862770006992,None,space,42.8097702000523,34.41862770006992,None,,,,,,,,,,,,,,,,,,,,,,,,,,,,,,,,,,,,,,,,,,,,,,,,,,,,,11017,001,2024_Jan_04_1519,ANT,2021.2.3,59.9266737357379,
,,,,,,,,,,,,,,,,,,,,,,,,,,,,,,,,,,,,,,,,,,,,,,,,,,,,,,,,,,,,,,,,77.24893880006857,None,space,7.146419299999252,77.24893880006857,None,,,,,,,,,,,,,,,,,,,,,,,,,,,,,,,,,,,,,,,,,,,,,,,11017,001,2024_Jan_04_1519,ANT,2021.2.3,59.9266737357379,
0,4,no,down,IC,L,50,0,-1.5,left,RRLRR.png,,,,,,,,0,0,0,3,,,,,,,,,,,,,,,,,,,,,,,,,,,,,,,,,,,,,,,,,,,,,,,,,84.49203269998543,84.89362710004207,84.87601570005063,84.97748490003869,85.37723350001033,None,left,1,0.7706665999721736,85.37723350001033,None,84.87601570005063,84.97748490003869,84.97748490003869,None,86.17732979997527,None,,,,,,,,,,,,,,,,,,,,,,,,,,,,,,11017,001,2024_Jan_04_1519,ANT,2021.2.3,59.9266737357379,
0,6,center,up,IC,R,0,50,1.5,right,LLRLL.png,,,,,,,,0,1,1,5,,,,,,,,,,,,,,,,,,,,,,,,,,,,,,,,,,,,,,,,,,,,,,,,,88.18182349996641,88.58222310000565,88.56547240004875,88.66554329998326,89.06645939999726,None,right,1,0.6816879999823868,89.06645939999726,None,88.56547240004875,88.66554329998326,88.66554329998326,None,89.76625360001344,None,,,,,,,,,,,,,,,,,,,,,,,,,,,,,,11017,001,2024_Jan_04_1519,ANT,2021.2.3,59.9266737357379,
0,9,spatial,up,C,R,1.5,0,1.5,right,RRRRR.png,,,,,,,,0,2,2,8,,,,,,,,,,,,,,,,,,,,,,,,,,,,,,,,,,,,,,,,,,,,,,,,,91.76978500001132,92.17013290000614,92.15567600005306,92.25440540001728,92.65516329999082,None,right,1,0.5329446999821812,92.65516329999082,None,92.15567600005306,92.25440540001728,92.25440540001728,None,93.20468109997455,None,,,,,,,,,,,,,,,,,,,,,,,,,,,,,,11017,001,2024_Jan_04_1519,ANT,2021.2.3,59.9266737357379,
0,11,spatial,down,C,L,-1.5,0,-1.5,left,LLLLL.png,,,,,,,,0,3,3,10,,,,,,,,,,,,,,,,,,,,,,,,,,,,,,,,,,,,,,,,,,,,,,,,,95.20791860006284,95.60934650001582,95.5919221000513,95.69296750007197,96.09250260004774,None,left,1,0.5112439999356866,96.09250260004774,None,95.5919221000513,95.69296750007197,95.69296750007197,None,96.62807480001356,None,,,,,,,,,,,,,,,,,,,,,,,,,,,,,,11017,001,2024_Jan_04_1519,ANT,2021.2.3,59.9266737357379,
0,3,no,down,C,R,50,0,-1.5,right,RRRRR.png,,,,,,,,0,4,4,2,,,,,,,,,,,,,,,,,,,,,,,,,,,,,,,,,,,,,,,,,,,,,,,,,98.62979639996774,99.03238630003762,99.0140147000784,99.11429679999128,99.51504029997159,None,right,1,0.6483535000588745,99.51504029997159,None,99.0140147000784,99.11429679999128,99.11429679999128,None,100.18185130006168,None,,,,,,,,,,,,,,,,,,,,,,,,,,,,,,11017,001,2024_Jan_04_1519,ANT,2021.2.3,59.9266737357379,
0,10,spatial,up,IC,L,1.5,0,1.5,left,RRLRR.png,,,,,,,,0,5,5,9,,,,,,,,,,,,,,,,,,,,,,,,,,,,,,,,,,,,,,,,,,,,,,,,,102.18555100006051,102.5855277000228,102.5691058000084,102.67079920007382,103.07190520002041,None,left,1,0.4598033999791369,103.07190520002041,None,102.5691058000084,102.67079920007382,102.67079920007382,None,103.55423400003929,None,,,,,,,,,,,,,,,,,,,,,,,,,,,,,,11017,001,2024_Jan_04_1519,ANT,2021.2.3,59.9266737357379,
0,5,center,up,C,L,0,50,1.5,left,LLLLL.png,,,,,,,,0,6,6,4,,,,,,,,,,,,,,,,,,,,,,,,,,,,,,,,,,,,,,,,,,,,,,,,,105.55657500005327,105.95824770000763,105.94113120005932,106.04202549997717,106.44191140006296,None,right,0,0.3856163000455126,106.44191140006296,None,105.94113120005932,106.04202549997717,106.04202549997717,None,106.85846460005268,None,,,,,,,,,,,,,,,,,,,,,,,,,,,,,,11017,001,2024_Jan_04_1519,ANT,2021.2.3,59.9266737357379,
0,1,no,up,C,L,50,0,1.5,left,LLLLL.png,,,,,,,,0,7,7,0,,,,,,,,,,,,,,,,,,,,,,,,,,,,,,,,,,,,,,,,,,,,,,,,,108.86226209998131,109.2624546000734,109.24631740001496,109.34659069997724,109.74775500001851,None,left,1,0.39991639996878803,109.74775500001851,None,109.24631740001496,109.34659069997724,109.34659069997724,None,110.16402300004847,None,,,,,,,,,,,,,,,,,,,,,,,,,,,,,,11017,001,2024_Jan_04_1519,ANT,2021.2.3,59.9266737357379,
0,2,no,up,IC,R,50,0,1.5,right,LLRLL.png,,,,,,,,0,8,8,1,,,,,,,,,,,,,,,,,,,,,,,,,,,,,,,,,,,,,,,,,,,,,,,,,112.16702890000306,112.56704760005232,112.55095599999186,112.65234420006163,113.05104210006539,None,left,0,0.4647611000109464,113.05104210006539,None,112.55095599999186,112.65234420006163,112.65234420006163,None,113.53506829997059,None,,,,,,,,,,,,,,,,,,,,,,,,,,,,,,11017,001,2024_Jan_04_1519,ANT,2021.2.3,59.9266737357379,
0,8,center,down,IC,L,0,50,-1.5,left,RRLRR.png,,,,,,,,0,9,9,7,,,,,,,,,,,,,,,,,,,,,,,,,,,,,,,,,,,,,,,,,,,,,,,,,115.53837960003875,115.9400962999789,115.92176539998036,116.02287630003411,116.42356100003235,None,left,1,0.7002236000262201,116.42356100003235,None,115.92176539998036,116.02287630003411,116.02287630003411,None,117.14014140004292,None,,,,,,,,,,,,,,,,,,,,,,,,,,,,,,11017,001,2024_Jan_04_1519,ANT,2021.2.3,59.9266737357379,
0,7,center,down,C,R,0,50,-1.5,right,RRRRR.png,,,,,,,,0,10,10,6,,,,,,,,,,,,,,,,,,,,,,,,,,,,,,,,,,,,,,,,,,,,,,,,,119.14380560000427,119.5447576000588,119.52730539999902,119.62898839998525,120.02898449997883,None,right,1,0.430736199952662,120.02898449997883,None,119.52730539999902,119.62898839998525,119.62898839998525,None,120.47869110002648,None,,,,,,,,,,,,,,,,,,,,,,,,,,,,,,11017,001,2024_Jan_04_1519,ANT,2021.2.3,59.9266737357379,
0,12,spatial,down,IC,R,-1.5,0,-1.5,right,LLRLL.png,,,,,,,,0,11,11,11,,,,,,,,,,,,,,,,,,,,,,,,,,,,,,,,,,,,,,,,,,,,,,,,,122.48172839998733,122.88248899998143,122.8662649000762,122.96759250003379,123.3662703000009,None,right,1,0.6374736999860033,123.3662703000009,None,122.8662649000762,122.96759250003379,122.96759250003379,None,124.03413929999806,None,,,,,,,,,,,,,,,,,,,,,,,,,,,,,,11017,001,2024_Jan_04_1519,ANT,2021.2.3,59.9266737357379,
,,,,,,,,,,,,,,,,,,,,,,,,,,,,,,,,,,,,,,,,,,,,,,,,,,,,,,,,,,,,,,,,,,,,,,,,,,,,,,,,,,,,,,,space,3.4702171999961138,126.03812609997112,None,,,,,,,,,,,,,,,,,,,,,,,,,,11017,001,2024_Jan_04_1519,ANT,2021.2.3,59.9266737357379,
1,3,no,up,IC,L,,,,,,Block.xlsx,"你已经完成了第一个实验区组

请稍作休息


点击空格键进入下一个区组。",50,0,1.5,left,RRLRR.png,,,,,0,0,0,0,0,0,0,2,,,,,,,,,,,,,,,,,,,,,,,,,,,,,,,,,,,,,,,,,,,,,,,,,,,,,,,,,,,,,,126.03812609997112,None,129.55970440001693,129.96089750004467,129.94312670000363,130.04364360007457,130.44360150001012,None,left,1,0.6326253999723122,130.44360150001012,None,129.94312670000363,130.04364360007457,130.04364360007457,None,131.0945451000007,None,,,,,,,11017,001,2024_Jan_04_1519,ANT,2021.2.3,59.9266737357379,
1,22,spatial,down,C,R,,,,,,Block.xlsx,"你已经完成了第一个实验区组

请稍作休息


点击空格键进入下一个区组。",-1.5,0,-1.5,right,RRRRR.png,,,,,0,0,0,0,0,1,1,21,,,,,,,,,,,,,,,,,,,,,,,,,,,,,,,,,,,,,,,,,,,,,,,,,,,,,,,,,,,,,,,,131.49638180003967,131.89567860006355,131.8797862000065,131.9801293000346,132.3808846999891,None,right,1,0.5835641999728978,132.3808846999891,None,131.8797862000065,131.9801293000346,131.9801293000346,None,132.98032920004334,None,,,,,,,11017,001,2024_Jan_04_1519,ANT,2021.2.3,59.9266737357379,
1,10,center,up,C,R,,,,,,Block.xlsx,"你已经完成了第一个实验区组

请稍作休息


点击空格键进入下一个区组。",0,50,1.5,right,RRRRR.png,,,,,0,0,0,0,0,2,2,9,,,,,,,,,,,,,,,,,,,,,,,,,,,,,,,,,,,,,,,,,,,,,,,,,,,,,,,,,,,,,,,,133.38134119997267,133.78237570007332,133.7650320000248,133.86595940007828,134.2666692000348,None,right,1,0.5452942000702024,134.2666692000348,None,133.7650320000248,133.86595940007828,133.86595940007828,None,134.83333439996932,None,,,,,,,11017,001,2024_Jan_04_1519,ANT,2021.2.3,59.9266737357379,
1,12,center,up,IC,R,,,,,,Block.xlsx,"你已经完成了第一个实验区组

请稍作休息


点击空格键进入下一个区组。",0,50,1.5,right,LLRLL.png,,,,,0,0,0,0,0,3,3,11,,,,,,,,,,,,,,,,,,,,,,,,,,,,,,,,,,,,,,,,,,,,,,,,,,,,,,,,,,,,,,,,135.2340612000553,135.6349695000099,135.62000410002656,135.73551350005437,136.11958699999377,None,right,1,0.5324758000206202,136.11958699999377,None,135.62000410002656,135.73551350005437,135.72025690006558,None,136.67048369999975,None,,,,,,,11017,001,2024_Jan_04_1519,ANT,2021.2.3,59.9266737357379,
1,16,center,down,IC,R,,,,,,Block.xlsx,"你已经完成了第一个实验区组

请稍作休息


点击空格键进入下一个区组。",0,50,-1.5,right,LLRLL.png,,,,,0,0,0,0,0,4,4,15,,,,,,,,,,,,,,,,,,,,,,,,,,,,,,,,,,,,,,,,,,,,,,,,,,,,,,,,,,,,,,,,137.06978939997498,137.47056120005436,137.45492889999878,137.55443869996816,137.95481769996695,None,right,1,0.6813689999980852,137.95481769996695,None,137.45492889999878,137.55443869996816,137.55443869996816,None,138.655356900068,None,,,,,,,11017,001,2024_Jan_04_1519,ANT,2021.2.3,59.9266737357379,
1,15,center,down,IC,L,,,,,,Block.xlsx,"你已经完成了第一个实验区组

请稍作休息


点击空格键进入下一个区组。",0,50,-1.5,left,RRLRR.png,,,,,0,0,0,0,0,5,5,14,,,,,,,,,,,,,,,,,,,,,,,,,,,,,,,,,,,,,,,,,,,,,,,,,,,,,,,,,,,,,,,,139.05613220005762,139.45687900006305,139.44081319996621,139.54185010003857,139.94074200000614,None,left,1,0.5833546000067145,139.94074200000614,None,139.44081319996621,139.54185010003857,139.54185010003857,None,140.54183980007656,None,,,,,,,11017,001,2024_Jan_04_1519,ANT,2021.2.3,59.9266737357379,
1,2,no,up,C,R,,,,,,Block.xlsx,"你已经完成了第一个实验区组

请稍作休息


点击空格键进入下一个区组。",50,0,1.5,right,RRRRR.png,,,,,0,0,0,0,0,6,6,1,,,,,,,,,,,,,,,,,,,,,,,,,,,,,,,,,,,,,,,,,,,,,,,,,,,,,,,,,,,,,,,,140.9429827000713,141.34374160005245,141.32709749997593,141.4262545000529,141.8283660999732,None,right,1,0.4471938000060618,141.8283660999732,None,141.32709749997593,141.4262545000529,141.4262545000529,None,142.29438750003465,None,,,,,,,11017,001,2024_Jan_04_1519,ANT,2021.2.3,59.9266737357379,
1,18,spatial,up,C,R,,,,,,Block.xlsx,"你已经完成了第一个实验区组

请稍作休息


点击空格键进入下一个区组。",1.5,0,1.5,right,RRRRR.png,,,,,0,0,0,0,0,7,7,17,,,,,,,,,,,,,,,,,,,,,,,,,,,,,,,,,,,,,,,,,,,,,,,,,,,,,,,,,,,,,,,,142.69493340002373,143.0970655999845,143.07915480004158,143.1807180000469,143.58069580001757,None,right,1,0.5268293999833986,143.58069580001757,None,143.07915480004158,143.1807180000469,143.1807180000469,None,144.13043110002764,None,,,,,,,11017,001,2024_Jan_04_1519,ANT,2021.2.3,59.9266737357379,
1,2,no,up,C,R,,,,,,Block.xlsx,"你已经完成了第一个实验区组

请稍作休息


点击空格键进入下一个区组。",50,0,1.5,right,RRRRR.png,,,,,0,0,0,0,0,8,8,1,,,,,,,,,,,,,,,,,,,,,,,,,,,,,,,,,,,,,,,,,,,,,,,,,,,,,,,,,,,,,,,,144.5317521999823,144.9332843000302,144.91472750005778,145.01569300005212,145.41627519996837,None,right,1,0.48327520000748336,145.41627519996837,None,144.91472750005778,145.01569300005212,145.01569300005212,None,145.91702990001068,None,,,,,,,11017,001,2024_Jan_04_1519,ANT,2021.2.3,59.9266737357379,
1,3,no,up,IC,L,,,,,,Block.xlsx,"你已经完成了第一个实验区组

请稍作休息


点击空格键进入下一个区组。",50,0,1.5,left,RRLRR.png,,,,,0,0,0,0,0,9,9,2,,,,,,,,,,,,,,,,,,,,,,,,,,,,,,,,,,,,,,,,,,,,,,,,,,,,,,,,,,,,,,,,146.31801020004787,146.71965540002566,146.70155630004592,146.80316340003628,147.20329610002227,None,left,1,0.48024370009079576,147.20329610002227,None,146.70155630004592,146.80316340003628,146.80316340003628,None,147.70246569998562,None,,,,,,,11017,001,2024_Jan_04_1519,ANT,2021.2.3,59.9266737357379,
1,20,spatial,up,IC,R,,,,,,Block.xlsx,"你已经完成了第一个实验区组

请稍作休息


点击空格键进入下一个区组。",1.5,0,1.5,right,LLRLL.png,,,,,0,0,0,0,0,10,10,19,,,,,,,,,,,,,,,,,,,,,,,,,,,,,,,,,,,,,,,,,,,,,,,,,,,,,,,,,,,,,,,,148.10327950003557,148.5047545999987,148.48731640004553,148.58932360005565,148.98838880006224,None,right,1,0.503182000014931,148.98838880006224,None,148.48731640004553,148.58932360005565,148.58932360005565,None,149.52172830002382,None,,,,,,,11017,001,2024_Jan_04_1519,ANT,2021.2.3,59.9266737357379,
1,10,center,up,C,R,,,,,,Block.xlsx,"你已经完成了第一个实验区组

请稍作休息


点击空格键进入下一个区组。",0,50,1.5,right,RRRRR.png,,,,,0,0,0,0,0,11,11,9,,,,,,,,,,,,,,,,,,,,,,,,,,,,,,,,,,,,,,,,,,,,,,,,,,,,,,,,,,,,,,,,149.92290930007584,150.32323680003174,150.30688130005728,150.40746040001977,150.80690309999045,None,right,1,0.4846707999240607,150.80690309999045,None,150.30688130005728,150.40746040001977,150.40746040001977,None,151.30753180000465,None,,,,,,,11017,001,2024_Jan_04_1519,ANT,2021.2.3,59.9266737357379,
1,24,spatial,down,IC,R,,,,,,Block.xlsx,"你已经完成了第一个实验区组

请稍作休息


点击空格键进入下一个区组。",-1.5,0,-1.5,right,LLRLL.png,,,,,0,0,0,0,0,12,12,23,,,,,,,,,,,,,,,,,,,,,,,,,,,,,,,,,,,,,,,,,,,,,,,,,,,,,,,,,,,,,,,,151.70840060000774,152.11069730005693,152.0923432999989,152.19370810000692,152.59424400003627,None,right,1,0.5456166000803933,152.59424400003627,None,152.0923432999989,152.19370810000692,152.19370810000692,None,153.1603740999708,None,,,,,,,11017,001,2024_Jan_04_1519,ANT,2021.2.3,59.9266737357379,
1,14,center,down,C,R,,,,,,Block.xlsx,"你已经完成了第一个实验区组

请稍作休息


点击空格键进入下一个区组。",0,50,-1.5,right,RRRRR.png,,,,,0,0,0,0,0,13,13,13,,,,,,,,,,,,,,,,,,,,,,,,,,,,,,,,,,,,,,,,,,,,,,,,,,,,,,,,,,,,,,,,153.56227950006723,153.962108500069,153.94603430002462,154.04689610004425,154.44631679996382,None,right,1,0.4451730999862775,154.44631679996382,None,153.94603430002462,154.04689610004425,154.04689610004425,None,154.91301530005876,None,,,,,,,11017,001,2024_Jan_04_1519,ANT,2021.2.3,59.9266737357379,
1,19,spatial,up,IC,L,,,,,,Block.xlsx,"你已经完成了第一个实验区组

请稍作休息


点击空格键进入下一个区组。",1.5,0,1.5,left,RRLRR.png,,,,,0,0,0,0,0,14,14,18,,,,,,,,,,,,,,,,,,,,,,,,,,,,,,,,,,,,,,,,,,,,,,,,,,,,,,,,,,,,,,,,155.31379350007046,155.71466609998606,155.69739089999348,155.79793770005926,156.19932730006985,None,left,1,0.4761628999840468,156.19932730006985,None,155.69739089999348,155.79793770005926,155.79793770005926,None,156.69912180001847,None,,,,,,,11017,001,2024_Jan_04_1519,ANT,2021.2.3,59.9266737357379,
1,23,spatial,down,IC,L,,,,,,Block.xlsx,"你已经完成了第一个实验区组

请稍作休息


点击空格键进入下一个区组。",-1.5,0,-1.5,left,RRLRR.png,,,,,0,0,0,0,0,15,15,22,,,,,,,,,,,,,,,,,,,,,,,,,,,,,,,,,,,,,,,,,,,,,,,,,,,,,,,,,,,,,,,,157.09990669996478,157.50224970001727,157.48406899999827,157.5853437000187,157.98427130002528,None,left,1,0.5001390000106767,157.98427130002528,None,157.48406899999827,157.5853437000187,157.5853437000187,None,158.50188990007155,None,,,,,,,11017,001,2024_Jan_04_1519,ANT,2021.2.3,59.9266737357379,
1,23,spatial,down,IC,L,,,,,,Block.xlsx,"你已经完成了第一个实验区组

请稍作休息


点击空格键进入下一个区组。",-1.5,0,-1.5,left,RRLRR.png,,,,,0,0,0,0,0,16,16,22,,,,,,,,,,,,,,,,,,,,,,,,,,,,,,,,,,,,,,,,,,,,,,,,,,,,,,,,,,,,,,,,158.90230010007508,159.30365999997593,159.28624220006168,159.38615609996486,159.78815530007705,None,left,1,0.38334539998322725,159.78815530007705,None,159.28624220006168,159.38615609996486,159.38615609996486,None,160.18752340006176,None,,,,,,,11017,001,2024_Jan_04_1519,ANT,2021.2.3,59.9266737357379,
1,12,center,up,IC,R,,,,,,Block.xlsx,"你已经完成了第一个实验区组

请稍作休息


点击空格键进入下一个区组。",0,50,1.5,right,LLRLL.png,,,,,0,0,0,0,0,17,17,11,,,,,,,,,,,,,,,,,,,,,,,,,,,,,,,,,,,,,,,,,,,,,,,,,,,,,,,,,,,,,,,,160.58881700003985,160.99080430006143,160.97283300000709,161.07322080002632,161.4733516999986,None,right,1,0.5302909000311047,161.4733516999986,None,160.97283300000709,161.07322080002632,161.07322080002632,None,162.0235798000358,None,,,,,,,11017,001,2024_Jan_04_1519,ANT,2021.2.3,59.9266737357379,
1,24,spatial,down,IC,R,,,,,,Block.xlsx,"你已经完成了第一个实验区组

请稍作休息


点击空格键进入下一个区组。",-1.5,0,-1.5,right,LLRLL.png,,,,,0,0,0,0,0,18,18,23,,,,,,,,,,,,,,,,,,,,,,,,,,,,,,,,,,,,,,,,,,,,,,,,,,,,,,,,,,,,,,,,162.42419180006254,162.82532509998418,162.80822190002073,162.9088577000657,163.30940380005632,None,right,1,0.4622339999768883,163.30940380005632,None,162.80822190002073,162.9088577000657,162.9088577000657,None,163.79264630004764,None,,,,,,,11017,001,2024_Jan_04_1519,ANT,2021.2.3,59.9266737357379,
1,20,spatial,up,IC,R,,,,,,Block.xlsx,"你已经完成了第一个实验区组

请稍作休息


点击空格键进入下一个区组。",1.5,0,1.5,right,LLRLL.png,,,,,0,0,0,0,0,19,19,19,,,,,,,,,,,,,,,,,,,,,,,,,,,,,,,,,,,,,,,,,,,,,,,,,,,,,,,,,,,,,,,,164.1937644999707,164.5946500999853,164.57730660005473,164.6794698999729,165.0804691000376,None,right,1,0.4280405999161303,165.0804691000376,None,164.57730660005473,164.6794698999729,164.6794698999729,None,165.52988579997327,None,,,,,,,11017,001,2024_Jan_04_1519,ANT,2021.2.3,59.9266737357379,
1,5,no,down,C,L,,,,,,Block.xlsx,"你已经完成了第一个实验区组

请稍作休息


点击空格键进入下一个区组。",50,0,-1.5,left,LLLLL.png,,,,,0,0,0,0,0,20,20,4,,,,,,,,,,,,,,,,,,,,,,,,,,,,,,,,,,,,,,,,,,,,,,,,,,,,,,,,,,,,,,,,165.92948050005361,166.33087930001784,166.31330480007455,166.41388000000734,166.8159160000505,None,left,1,0.4279168000211939,166.8159160000505,None,166.31330480007455,166.41388000000734,166.41388000000734,None,167.26443610002752,None,,,,,,,11017,001,2024_Jan_04_1519,ANT,2021.2.3,59.9266737357379,
1,18,spatial,up,C,R,,,,,,Block.xlsx,"你已经完成了第一个实验区组

请稍作休息


点击空格键进入下一个区组。",1.5,0,1.5,right,RRRRR.png,,,,,0,0,0,0,0,21,21,17,,,,,,,,,,,,,,,,,,,,,,,,,,,,,,,,,,,,,,,,,,,,,,,,,,,,,,,,,,,,,,,,167.66517519997433,168.0663889000425,168.04987400001846,168.1506213999819,168.55113899998832,None,right,1,0.34029070008546114,168.55113899998832,None,168.04987400001846,168.1506213999819,168.1506213999819,None,168.9169424000429,None,,,,,,,11017,001,2024_Jan_04_1519,ANT,2021.2.3,59.9266737357379,
1,11,center,up,IC,L,,,,,,Block.xlsx,"你已经完成了第一个实验区组

请稍作休息


点击空格键进入下一个区组。",0,50,1.5,left,RRLRR.png,,,,,0,0,0,0,0,22,22,10,,,,,,,,,,,,,,,,,,,,,,,,,,,,,,,,,,,,,,,,,,,,,,,,,,,,,,,,,,,,,,,,169.317590199993,169.71862599998713,169.70285780006088,169.80345790006686,170.2030575000681,None,left,1,0.5767157999798656,170.2030575000681,None,169.70285780006088,169.80345790006686,169.80345790006686,None,170.8033839999698,None,,,,,,,11017,001,2024_Jan_04_1519,ANT,2021.2.3,59.9266737357379,
1,7,no,down,IC,L,,,,,,Block.xlsx,"你已经完成了第一个实验区组

请稍作休息


点击空格键进入下一个区组。",50,0,-1.5,left,RRLRR.png,,,,,0,0,0,0,0,23,23,6,,,,,,,,,,,,,,,,,,,,,,,,,,,,,,,,,,,,,,,,,,,,,,,,,,,,,,,,,,,,,,,,171.20452869997825,171.60541349998675,171.58779889997095,171.68766699999105,172.08933700004127,None,left,1,0.48250879999250174,172.08933700004127,None,171.58779889997095,171.68766699999105,171.68766699999105,None,172.589432900073,None,,,,,,,11017,001,2024_Jan_04_1519,ANT,2021.2.3,59.9266737357379,
1,6,no,down,C,R,,,,,,Block.xlsx,"你已经完成了第一个实验区组

请稍作休息


点击空格键进入下一个区组。",50,0,-1.5,right,RRRRR.png,,,,,0,0,0,0,1,0,24,5,,,,,,,,,,,,,,,,,,,,,,,,,,,,,,,,,,,,,,,,,,,,,,,,,,,,,,,,,,,,,,,,172.99040740006603,173.39046400005464,173.37652050005272,173.47443299996667,173.8752884999849,None,right,1,0.6169351999415085,173.8752884999849,None,173.37652050005272,173.47443299996667,173.47443299996667,None,174.50877020007465,None,,,,,,,11017,001,2024_Jan_04_1519,ANT,2021.2.3,59.9266737357379,
1,9,center,up,C,L,,,,,,Block.xlsx,"你已经完成了第一个实验区组

请稍作休息


点击空格键进入下一个区组。",0,50,1.5,left,LLLLL.png,,,,,0,0,0,0,1,1,25,8,,,,,,,,,,,,,,,,,,,,,,,,,,,,,,,,,,,,,,,,,,,,,,,,,,,,,,,,,,,,,,,,174.90977480006404,175.3119194000028,175.29385740007274,175.39343379996717,175.7946582000004,None,left,1,0.5370994999539107,175.7946582000004,None,175.29385740007274,175.39343379996717,175.39343379996717,None,176.3615191000281,None,,,,,,,11017,001,2024_Jan_04_1519,ANT,2021.2.3,59.9266737357379,
1,6,no,down,C,R,,,,,,Block.xlsx,"你已经完成了第一个实验区组

请稍作休息


点击空格键进入下一个区组。",50,0,-1.5,right,RRRRR.png,,,,,0,0,0,0,1,2,26,5,,,,,,,,,,,,,,,,,,,,,,,,,,,,,,,,,,,,,,,,,,,,,,,,,,,,,,,,,,,,,,,,176.76219080004375,177.16340850002598,177.1480639000656,177.26299199997447,177.64916550007183,None,right,1,0.5063247999642044,177.64916550007183,None,177.1480639000656,177.26299199997447,177.247704599984,None,178.18080430000555,None,,,,,,,11017,001,2024_Jan_04_1519,ANT,2021.2.3,59.9266737357379,
1,14,center,down,C,R,,,,,,Block.xlsx,"你已经完成了第一个实验区组

请稍作休息


点击空格键进入下一个区组。",0,50,-1.5,right,RRRRR.png,,,,,0,0,0,0,1,3,27,13,,,,,,,,,,,,,,,,,,,,,,,,,,,,,,,,,,,,,,,,,,,,,,,,,,,,,,,,,,,,,,,,178.58196740003768,178.9824501000112,178.96788080001716,179.0834620000096,179.46622399997432,None,right,1,0.46528429992031306,179.46622399997432,None,178.96788080001716,179.0834620000096,179.0654275000561,None,179.95088690007105,None,,,,,,,11017,001,2024_Jan_04_1519,ANT,2021.2.3,59.9266737357379,
1,3,no,up,IC,L,,,,,,Block.xlsx,"你已经完成了第一个实验区组

请稍作休息


点击空格键进入下一个区组。",50,0,1.5,left,RRLRR.png,,,,,0,0,0,0,1,4,28,2,,,,,,,,,,,,,,,,,,,,,,,,,,,,,,,,,,,,,,,,,,,,,,,,,,,,,,,,,,,,,,,,180.35216700006276,180.7522657000227,180.73462170001585,180.83517570002005,181.23623300006147,None,left,1,0.5036166000645608,181.23623300006147,None,180.73462170001585,180.83517570002005,180.83517570002005,None,181.7696742999833,None,,,,,,,11017,001,2024_Jan_04_1519,ANT,2021.2.3,59.9266737357379,
1,16,center,down,IC,R,,,,,,Block.xlsx,"你已经完成了第一个实验区组

请稍作休息


点击空格键进入下一个区组。",0,50,-1.5,right,LLRLL.png,,,,,0,0,0,0,1,5,29,15,,,,,,,,,,,,,,,,,,,,,,,,,,,,,,,,,,,,,,,,,,,,,,,,,,,,,,,,,,,,,,,,182.17130250006448,182.57237579999492,182.55397710006218,182.65616290003527,183.0547548000468,None,right,1,0.3810153000522405,183.0547548000468,None,182.55397710006218,182.65616290003527,182.65616290003527,None,183.45538619998842,None,,,,,,,11017,001,2024_Jan_04_1519,ANT,2021.2.3,59.9266737357379,
1,24,spatial,down,IC,R,,,,,,Block.xlsx,"你已经完成了第一个实验区组

请稍作休息


点击空格键进入下一个区组。",-1.5,0,-1.5,right,LLRLL.png,,,,,0,0,0,0,1,6,30,23,,,,,,,,,,,,,,,,,,,,,,,,,,,,,,,,,,,,,,,,,,,,,,,,,,,,,,,,,,,,,,,,183.85669779998716,184.257356600021,184.2405896000564,184.3412937000394,184.740586000029,None,right,1,0.4794052999932319,184.740586000029,None,184.2405896000564,184.3412937000394,184.3412937000394,None,185.24134619999677,None,,,,,,,11017,001,2024_Jan_04_1519,ANT,2021.2.3,59.9266737357379,
1,22,spatial,down,C,R,,,,,,Block.xlsx,"你已经完成了第一个实验区组

请稍作休息


点击空格键进入下一个区组。",-1.5,0,-1.5,right,RRRRR.png,,,,,0,0,0,0,1,7,31,21,,,,,,,,,,,,,,,,,,,,,,,,,,,,,,,,,,,,,,,,,,,,,,,,,,,,,,,,,,,,,,,,185.6429564000573,186.0427861000644,186.02760470006615,186.12667340005282,186.5263029000489,None,right,1,0.42925669997930527,186.5263029000489,None,186.02760470006615,186.12667340005282,186.12667340005282,None,186.97722960007377,None,,,,,,,11017,001,2024_Jan_04_1519,ANT,2021.2.3,59.9266737357379,
1,15,center,down,IC,L,,,,,,Block.xlsx,"你已经完成了第一个实验区组

请稍作休息


点击空格键进入下一个区组。",0,50,-1.5,left,RRLRR.png,,,,,0,0,0,0,1,8,32,14,,,,,,,,,,,,,,,,,,,,,,,,,,,,,,,,,,,,,,,,,,,,,,,,,,,,,,,,,,,,,,,,187.37859480001498,187.7784976999974,187.7624647000339,187.86320300004445,188.26246640004683,None,left,1,0.6860517000313848,188.26246640004683,None,187.7624647000339,187.86320300004445,187.86320300004445,None,188.96347000007518,None,,,,,,,11017,001,2024_Jan_04_1519,ANT,2021.2.3,59.9266737357379,
1,7,no,down,IC,L,,,,,,Block.xlsx,"你已经完成了第一个实验区组

请稍作休息


点击空格键进入下一个区组。",50,0,-1.5,left,RRLRR.png,,,,,0,0,0,0,1,9,33,6,,,,,,,,,,,,,,,,,,,,,,,,,,,,,,,,,,,,,,,,,,,,,,,,,,,,,,,,,,,,,,,,189.36416960007045,189.76537729997654,189.75039860000834,189.86528650007676,190.2495651000645,None,left,1,0.6352354000555351,190.2495651000645,None,189.75039860000834,189.86528650007676,189.8480687000556,None,190.89975810004398,None,,,,,,,11017,001,2024_Jan_04_1519,ANT,2021.2.3,59.9266737357379,
1,1,no,up,C,L,,,,,,Block.xlsx,"你已经完成了第一个实验区组

请稍作休息


点击空格键进入下一个区组。",50,0,1.5,left,LLLLL.png,,,,,0,0,0,0,1,10,34,0,,,,,,,,,,,,,,,,,,,,,,,,,,,,,,,,,,,,,,,,,,,,,,,,,,,,,,,,,,,,,,,,191.30027380003594,191.7013677000068,191.68627870001364,191.80219149996992,192.18616090004798,None,left,1,0.585508199990727,192.18616090004798,None,191.68627870001364,191.80219149996992,191.78617189999204,None,192.80265359999612,None,,,,,,,11017,001,2024_Jan_04_1519,ANT,2021.2.3,59.9266737357379,
1,1,no,up,C,L,,,,,,Block.xlsx,"你已经完成了第一个实验区组

请稍作休息


点击空格键进入下一个区组。",50,0,1.5,left,LLLLL.png,,,,,0,0,0,0,1,11,35,0,,,,,,,,,,,,,,,,,,,,,,,,,,,,,,,,,,,,,,,,,,,,,,,,,,,,,,,,,,,,,,,,193.20370730001014,193.60379309998825,193.5876886000624,193.687200400047,194.08963329996914,None,left,1,0.513882500003092,194.08963329996914,None,193.5876886000624,193.687200400047,193.687200400047,None,194.6220397000434,None,,,,,,,11017,001,2024_Jan_04_1519,ANT,2021.2.3,59.9266737357379,
1,20,spatial,up,IC,R,,,,,,Block.xlsx,"你已经完成了第一个实验区组

请稍作休息


点击空格键进入下一个区组。",1.5,0,1.5,right,LLRLL.png,,,,,0,0,0,0,1,12,36,19,,,,,,,,,,,,,,,,,,,,,,,,,,,,,,,,,,,,,,,,,,,,,,,,,,,,,,,,,,,,,,,,195.02264490001835,195.4237853999948,195.40645320003387,195.50701940001454,195.90804160002153,None,right,1,0.46414039994124323,195.90804160002153,None,195.40645320003387,195.50701940001454,195.50701940001454,None,196.39127969997935,None,,,,,,,11017,001,2024_Jan_04_1519,ANT,2021.2.3,59.9266737357379,
1,13,center,down,C,L,,,,,,Block.xlsx,"你已经完成了第一个实验区组

请稍作休息


点击空格键进入下一个区组。",0,50,-1.5,left,LLLLL.png,,,,,0,0,0,0,1,13,37,12,,,,,,,,,,,,,,,,,,,,,,,,,,,,,,,,,,,,,,,,,,,,,,,,,,,,,,,,,,,,,,,,196.79180850007106,197.19326400000136,197.1764127999777,197.27662520005833,197.67729260004126,None,left,1,0.5830224000383168,197.67729260004126,None,197.1764127999777,197.27662520005833,197.27662520005833,None,198.27805399999488,None,,,,,,,11017,001,2024_Jan_04_1519,ANT,2021.2.3,59.9266737357379,
1,10,center,up,C,R,,,,,,Block.xlsx,"你已经完成了第一个实验区组

请稍作休息


点击空格键进入下一个区组。",0,50,1.5,right,RRRRR.png,,,,,0,0,0,0,1,14,38,9,,,,,,,,,,,,,,,,,,,,,,,,,,,,,,,,,,,,,,,,,,,,,,,,,,,,,,,,,,,,,,,,198.6777856000699,199.07908140006475,199.0632581000682,199.16204710002057,199.56460020004306,None,right,1,0.40703960007522255,199.56460020004306,None,199.0632581000682,199.16204710002057,199.16204710002057,None,199.99651500000618,None,,,,,,,11017,001,2024_Jan_04_1519,ANT,2021.2.3,59.9266737357379,
1,4,no,up,IC,R,,,,,,Block.xlsx,"你已经完成了第一个实验区组

请稍作休息


点击空格键进入下一个区组。",50,0,1.5,right,LLRLL.png,,,,,0,0,0,0,1,15,39,3,,,,,,,,,,,,,,,,,,,,,,,,,,,,,,,,,,,,,,,,,,,,,,,,,,,,,,,,,,,,,,,,200.39754609996453,200.79846570000518,200.78334580000956,200.89872759999707,201.28328350000083,None,right,1,0.6488449999596924,201.28328350000083,None,200.78334580000956,200.89872759999707,200.88133190001827,None,201.94923540006857,None,,,,,,,11017,001,2024_Jan_04_1519,ANT,2021.2.3,59.9266737357379,
1,10,center,up,C,R,,,,,,Block.xlsx,"你已经完成了第一个实验区组

请稍作休息


点击空格键进入下一个区组。",0,50,1.5,right,RRRRR.png,,,,,0,0,0,0,1,16,40,9,,,,,,,,,,,,,,,,,,,,,,,,,,,,,,,,,,,,,,,,,,,,,,,,,,,,,,,,,,,,,,,,202.35062919999473,202.75154610001482,202.73384400003124,202.83493690006435,203.2363433999708,None,right,1,0.4153830000432208,203.2363433999708,None,202.73384400003124,202.83493690006435,202.83493690006435,None,203.66863179998472,None,,,,,,,11017,001,2024_Jan_04_1519,ANT,2021.2.3,59.9266737357379,
1,9,center,up,C,L,,,,,,Block.xlsx,"你已经完成了第一个实验区组

请稍作休息


点击空格键进入下一个区组。",0,50,1.5,left,LLLLL.png,,,,,0,0,0,0,1,17,41,8,,,,,,,,,,,,,,,,,,,,,,,,,,,,,,,,,,,,,,,,,,,,,,,,,,,,,,,,,,,,,,,,204.06998020003084,204.4712346000597,204.45356669998728,204.55441650003195,204.95397989999037,None,left,1,0.5218509000260383,204.95397989999037,None,204.45356669998728,204.55441650003195,204.55441650003195,None,205.50481920002494,None,,,,,,,11017,001,2024_Jan_04_1519,ANT,2021.2.3,59.9266737357379,
1,2,no,up,C,R,,,,,,Block.xlsx,"你已经完成了第一个实验区组

请稍作休息


点击空格键进入下一个区组。",50,0,1.5,right,RRRRR.png,,,,,0,0,0,0,1,18,42,1,,,,,,,,,,,,,,,,,,,,,,,,,,,,,,,,,,,,,,,,,,,,,,,,,,,,,,,,,,,,,,,,205.90569160005543,206.30660500004888,206.29009320004843,206.38912710000295,206.79148580005858,None,right,1,0.48407690005842596,206.79148580005858,None,206.29009320004843,206.38912710000295,206.38912710000295,None,207.30741860007402,None,,,,,,,11017,001,2024_Jan_04_1519,ANT,2021.2.3,59.9266737357379,
1,23,spatial,down,IC,L,,,,,,Block.xlsx,"你已经完成了第一个实验区组

请稍作休息


点击空格键进入下一个区组。",-1.5,0,-1.5,left,RRLRR.png,,,,,0,0,0,0,1,19,43,22,,,,,,,,,,,,,,,,,,,,,,,,,,,,,,,,,,,,,,,,,,,,,,,,,,,,,,,,,,,,,,,,207.7079988999758,208.10934229998384,208.09260780003387,208.19264570006635,208.5939910999732,None,left,1,0.4664877000031993,208.5939910999732,None,208.09260780003387,208.19264570006635,208.19264570006635,None,209.0767093000468,None,,,,,,,11017,001,2024_Jan_04_1519,ANT,2021.2.3,59.9266737357379,
1,21,spatial,down,C,L,,,,,,Block.xlsx,"你已经完成了第一个实验区组

请稍作休息


点击空格键进入下一个区组。",-1.5,0,-1.5,left,LLLLL.png,,,,,0,0,0,0,1,20,44,20,,,,,,,,,,,,,,,,,,,,,,,,,,,,,,,,,,,,,,,,,,,,,,,,,,,,,,,,,,,,,,,,209.47760450001806,209.87938920001034,209.86224180005956,209.96373419999145,210.36309920006897,None,left,1,0.5205075000412762,210.36309920006897,None,209.86224180005956,209.96373419999145,209.96373419999145,None,210.9126531999791,None,,,,,,,11017,001,2024_Jan_04_1519,ANT,2021.2.3,59.9266737357379,
1,9,center,up,C,L,,,,,,Block.xlsx,"你已经完成了第一个实验区组

请稍作休息


点击空格键进入下一个区组。",0,50,1.5,left,LLLLL.png,,,,,0,0,0,0,1,21,45,8,,,,,,,,,,,,,,,,,,,,,,,,,,,,,,,,,,,,,,,,,,,,,,,,,,,,,,,,,,,,,,,,211.31326780002564,211.71530719997827,211.69723549997434,211.79905829997733,212.19787919998635,None,left,1,0.5663128000451252,212.19787919998635,None,211.69723549997434,211.79905829997733,211.79905829997733,None,212.78206640004646,None,,,,,,,11017,001,2024_Jan_04_1519,ANT,2021.2.3,59.9266737357379,
1,20,spatial,up,IC,R,,,,,,Block.xlsx,"你已经完成了第一个实验区组

请稍作休息


点击空格键进入下一个区组。",1.5,0,1.5,right,LLRLL.png,,,,,0,0,0,0,1,22,46,19,,,,,,,,,,,,,,,,,,,,,,,,,,,,,,,,,,,,,,,,,,,,,,,,,,,,,,,,,,,,,,,,213.18282860005274,213.58587920002174,213.567409100011,213.66815450007562,214.06890159996692,None,right,1,0.5189864999847487,214.06890159996692,None,213.567409100011,213.66815450007562,213.66815450007562,None,214.61822349997237,None,,,,,,,11017,001,2024_Jan_04_1519,ANT,2021.2.3,59.9266737357379,
1,14,center,down,C,R,,,,,,Block.xlsx,"你已经完成了第一个实验区组

请稍作休息


点击空格键进入下一个区组。",0,50,-1.5,right,RRRRR.png,,,,,0,0,0,0,1,23,47,13,,,,,,,,,,,,,,,,,,,,,,,,,,,,,,,,,,,,,,,,,,,,,,,,,,,,,,,,,,,,,,,,215.01950030005537,215.41932640003506,215.40320800000336,215.50427789997775,215.90483550005592,None,right,1,0.4509770000586286,215.90483550005592,None,215.40320800000336,215.50427789997775,215.50427789997775,None,216.37154059996828,None,,,,,,,11017,001,2024_Jan_04_1519,ANT,2021.2.3,59.9266737357379,
1,1,no,up,C,L,,,,,,Block.xlsx,"你已经完成了第一个实验区组

请稍作休息


点击空格键进入下一个区组。",50,0,1.5,left,LLLLL.png,,,,,0,0,0,0,2,0,48,0,,,,,,,,,,,,,,,,,,,,,,,,,,,,,,,,,,,,,,,,,,,,,,,,,,,,,,,,,,,,,,,,216.77174160000868,217.17191679996904,217.1560601000674,217.25553149997722,217.65672550001182,None,left,1,0.5948477999772877,217.65672550001182,None,217.1560601000674,217.25553149997722,217.25553149997722,None,218.27358400006779,None,,,,,,,11017,001,2024_Jan_04_1519,ANT,2021.2.3,59.9266737357379,
1,3,no,up,IC,L,,,,,,Block.xlsx,"你已经完成了第一个实验区组

请稍作休息


点击空格键进入下一个区组。",50,0,1.5,left,RRLRR.png,,,,,0,0,0,0,2,1,49,2,,,,,,,,,,,,,,,,,,,,,,,,,,,,,,,,,,,,,,,,,,,,,,,,,,,,,,,,,,,,,,,,218.67414550005924,219.07494700001553,219.05901019996963,219.16045750002377,219.56005690002348,None,left,1,0.49155379994772375,219.56005690002348,None,219.05901019996963,219.16045750002377,219.16045750002377,None,220.07629600004293,None,,,,,,,11017,001,2024_Jan_04_1519,ANT,2021.2.3,59.9266737357379,
1,21,spatial,down,C,L,,,,,,Block.xlsx,"你已经完成了第一个实验区组

请稍作休息


点击空格键进入下一个区组。",-1.5,0,-1.5,left,LLLLL.png,,,,,0,0,0,0,2,2,50,20,,,,,,,,,,,,,,,,,,,,,,,,,,,,,,,,,,,,,,,,,,,,,,,,,,,,,,,,,,,,,,,,220.4767069000518,220.8787289999891,220.8607856000308,220.96144270000514,221.36172020004597,None,left,1,0.49794560007285327,221.36172020004597,None,220.8607856000308,220.96144270000514,220.96144270000514,None,221.87904460006393,None,,,,,,,11017,001,2024_Jan_04_1519,ANT,2021.2.3,59.9266737357379,
1,5,no,down,C,L,,,,,,Block.xlsx,"你已经完成了第一个实验区组

请稍作休息


点击空格键进入下一个区组。",50,0,-1.5,left,LLLLL.png,,,,,0,0,0,0,2,3,51,4,,,,,,,,,,,,,,,,,,,,,,,,,,,,,,,,,,,,,,,,,,,,,,,,,,,,,,,,,,,,,,,,222.28031439997721,222.68198590003885,222.66379919997416,222.7640300000785,223.165106200031,None,left,1,0.5187535000732169,223.165106200031,None,222.66379919997416,222.7640300000785,222.7640300000785,None,223.71510370005853,None,,,,,,,11017,001,2024_Jan_04_1519,ANT,2021.2.3,59.9266737357379,
1,21,spatial,down,C,L,,,,,,Block.xlsx,"你已经完成了第一个实验区组

请稍作休息


点击空格键进入下一个区组。",-1.5,0,-1.5,left,LLLLL.png,,,,,0,0,0,0,2,4,52,20,,,,,,,,,,,,,,,,,,,,,,,,,,,,,,,,,,,,,,,,,,,,,,,,,,,,,,,,,,,,,,,,224.11565419996623,224.51698700000998,224.50030910002533,224.5999499000609,225.00117389997467,None,left,1,0.4264072000514716,225.00117389997467,None,224.50030910002533,224.5999499000609,224.5999499000609,None,225.45264240005054,None,,,,,,,11017,001,2024_Jan_04_1519,ANT,2021.2.3,59.9266737357379,
1,9,center,up,C,L,,,,,,Block.xlsx,"你已经完成了第一个实验区组

请稍作休息


点击空格键进入下一个区组。",0,50,1.5,left,LLLLL.png,,,,,0,0,0,0,2,5,53,8,,,,,,,,,,,,,,,,,,,,,,,,,,,,,,,,,,,,,,,,,,,,,,,,,,,,,,,,,,,,,,,,225.85161999997217,226.25374600000214,226.235535099986,226.33633399999235,226.73618060001172,None,left,1,0.4842707000207156,226.73618060001172,None,226.235535099986,226.33633399999235,226.33633399999235,None,227.2366888000397,None,,,,,,,11017,001,2024_Jan_04_1519,ANT,2021.2.3,59.9266737357379,
1,8,no,down,IC,R,,,,,,Block.xlsx,"你已经完成了第一个实验区组

请稍作休息


点击空格键进入下一个区组。",50,0,-1.5,right,LLRLL.png,,,,,0,0,0,0,2,6,54,7,,,,,,,,,,,,,,,,,,,,,,,,,,,,,,,,,,,,,,,,,,,,,,,,,,,,,,,,,,,,,,,,227.63733429997228,228.0396206000587,228.02167459996417,228.12228450004477,228.5226868999889,None,right,1,0.6015601999824867,228.5226868999889,None,228.02167459996417,228.12228450004477,228.12228450004477,None,229.1396540000569,None,,,,,,,11017,001,2024_Jan_04_1519,ANT,2021.2.3,59.9266737357379,
1,17,spatial,up,C,L,,,,,,Block.xlsx,"你已经完成了第一个实验区组

请稍作休息


点击空格键进入下一个区组。",1.5,0,1.5,left,LLLLL.png,,,,,0,0,0,0,2,7,55,16,,,,,,,,,,,,,,,,,,,,,,,,,,,,,,,,,,,,,,,,,,,,,,,,,,,,,,,,,,,,,,,,229.54024470003787,229.9417021999834,229.9249502000166,230.02574040007312,230.42631929996423,None,left,1,0.46594689995981753,230.42631929996423,None,229.9249502000166,230.02574040007312,230.02574040007312,None,230.9089428000152,None,,,,,,,11017,001,2024_Jan_04_1519,ANT,2021.2.3,59.9266737357379,
1,19,spatial,up,IC,L,,,,,,Block.xlsx,"你已经完成了第一个实验区组

请稍作休息


点击空格键进入下一个区组。",1.5,0,1.5,left,RRLRR.png,,,,,0,0,0,0,2,8,56,18,,,,,,,,,,,,,,,,,,,,,,,,,,,,,,,,,,,,,,,,,,,,,,,,,,,,,,,,,,,,,,,,231.31015330005903,231.7108269999735,231.69502700003795,231.79422709997743,232.19656080007553,None,left,1,0.6551391000393778,232.19656080007553,None,231.69502700003795,231.79422709997743,231.79422709997743,None,232.8786548000062,None,,,,,,,11017,001,2024_Jan_04_1519,ANT,2021.2.3,59.9266737357379,
1,6,no,down,C,R,,,,,,Block.xlsx,"你已经完成了第一个实验区组

请稍作休息


点击空格键进入下一个区组。",50,0,-1.5,right,RRRRR.png,,,,,0,0,0,0,2,9,57,5,,,,,,,,,,,,,,,,,,,,,,,,,,,,,,,,,,,,,,,,,,,,,,,,,,,,,,,,,,,,,,,,233.27916020003613,233.67973970004823,233.66437320003752,233.76385160000063,234.16386189998593,None,right,1,0.4798976999009028,234.16386189998593,None,233.66437320003752,233.76385160000063,233.76385160000063,None,234.66443010000512,None,,,,,,,11017,001,2024_Jan_04_1519,ANT,2021.2.3,59.9266737357379,
1,19,spatial,up,IC,L,,,,,,Block.xlsx,"你已经完成了第一个实验区组

请稍作休息


点击空格键进入下一个区组。",1.5,0,1.5,left,RRLRR.png,,,,,0,0,0,0,2,10,58,18,,,,,,,,,,,,,,,,,,,,,,,,,,,,,,,,,,,,,,,,,,,,,,,,,,,,,,,,,,,,,,,,235.0657905000262,235.46611300006043,235.44957230007276,235.55002379999496,235.94992000004277,None,left,1,0.39846300007775426,235.94992000004277,None,235.44957230007276,235.55002379999496,235.55002379999496,None,236.36723420000635,None,,,,,,,11017,001,2024_Jan_04_1519,ANT,2021.2.3,59.9266737357379,
1,11,center,up,IC,L,,,,,,Block.xlsx,"你已经完成了第一个实验区组

请稍作休息


点击空格键进入下一个区组。",0,50,1.5,left,RRLRR.png,,,,,0,0,0,0,2,11,59,10,,,,,,,,,,,,,,,,,,,,,,,,,,,,,,,,,,,,,,,,,,,,,,,,,,,,,,,,,,,,,,,,236.76918110006955,237.1690624000039,237.15249790006783,237.2517332000425,237.65243220003322,None,left,1,0.5431791000301018,237.65243220003322,None,237.15249790006783,237.2517332000425,237.2517332000425,None,238.21988770004828,None,,,,,,,11017,001,2024_Jan_04_1519,ANT,2021.2.3,59.9266737357379,
1,8,no,down,IC,R,,,,,,Block.xlsx,"你已经完成了第一个实验区组

请稍作休息


点击空格键进入下一个区组。",50,0,-1.5,right,LLRLL.png,,,,,0,0,0,0,2,12,60,7,,,,,,,,,,,,,,,,,,,,,,,,,,,,,,,,,,,,,,,,,,,,,,,,,,,,,,,,,,,,,,,,238.62117850000504,239.0223382000113,239.00483009999152,239.10512610001024,239.50584070000332,None,right,1,0.4898323999950662,239.50584070000332,None,239.00483009999152,239.10512610001024,239.10512610001024,None,240.02250000007916,None,,,,,,,11017,001,2024_Jan_04_1519,ANT,2021.2.3,59.9266737357379,
1,18,spatial,up,C,R,,,,,,Block.xlsx,"你已经完成了第一个实验区组

请稍作休息


点击空格键进入下一个区组。",1.5,0,1.5,right,RRRRR.png,,,,,0,0,0,0,2,13,61,17,,,,,,,,,,,,,,,,,,,,,,,,,,,,,,,,,,,,,,,,,,,,,,,,,,,,,,,,,,,,,,,,240.42318949999753,240.8249036000343,240.8069489999907,240.90792210004292,241.31001999997534,None,right,1,0.4462678999407217,241.31001999997534,None,240.8069489999907,240.90792210004292,240.90792210004292,None,241.77516900002956,None,,,,,,,11017,001,2024_Jan_04_1519,ANT,2021.2.3,59.9266737357379,
1,7,no,down,IC,L,,,,,,Block.xlsx,"你已经完成了第一个实验区组

请稍作休息


点击空格键进入下一个区组。",50,0,-1.5,left,RRLRR.png,,,,,0,0,0,0,2,14,62,6,,,,,,,,,,,,,,,,,,,,,,,,,,,,,,,,,,,,,,,,,,,,,,,,,,,,,,,,,,,,,,,,242.17570460005663,242.57712250004988,242.55961930006742,242.66060289996676,243.06168210005853,None,left,1,0.526037500007078,243.06168210005853,None,242.55961930006742,242.66060289996676,242.66060289996676,None,243.61118030000944,None,,,,,,,11017,001,2024_Jan_04_1519,ANT,2021.2.3,59.9266737357379,
1,4,no,up,IC,R,,,,,,Block.xlsx,"你已经完成了第一个实验区组

请稍作休息


点击空格键进入下一个区组。",50,0,1.5,right,LLRLL.png,,,,,0,0,0,0,2,15,63,3,,,,,,,,,,,,,,,,,,,,,,,,,,,,,,,,,,,,,,,,,,,,,,,,,,,,,,,,,,,,,,,,244.01185030001216,244.41412339999806,244.3958677999908,244.49663539999165,244.89686300000176,None,right,1,0.4837515999097377,244.89686300000176,None,244.3958677999908,244.49663539999165,244.49663539999165,None,245.3969004000537,None,,,,,,,11017,001,2024_Jan_04_1519,ANT,2021.2.3,59.9266737357379,
1,14,center,down,C,R,,,,,,Block.xlsx,"你已经完成了第一个实验区组

请稍作休息


点击空格键进入下一个区组。",0,50,-1.5,right,RRRRR.png,,,,,0,0,0,0,2,16,64,13,,,,,,,,,,,,,,,,,,,,,,,,,,,,,,,,,,,,,,,,,,,,,,,,,,,,,,,,,,,,,,,,245.79765510000288,246.1987135000527,246.1821313999826,246.28286390006542,246.68308099999558,None,right,1,0.3927632999839261,246.68308099999558,None,246.1821313999826,246.28286390006542,246.28286390006542,None,247.09966459998395,None,,,,,,,11017,001,2024_Jan_04_1519,ANT,2021.2.3,59.9266737357379,
1,6,no,down,C,R,,,,,,Block.xlsx,"你已经完成了第一个实验区组

请稍作休息


点击空格键进入下一个区组。",50,0,-1.5,right,RRRRR.png,,,,,0,0,0,0,2,17,65,5,,,,,,,,,,,,,,,,,,,,,,,,,,,,,,,,,,,,,,,,,,,,,,,,,,,,,,,,,,,,,,,,247.5003299000673,247.90257280005608,247.88413530006073,247.98571839998476,248.3851002000738,None,right,1,0.46673689992167056,248.3851002000738,None,247.88413530006073,247.98571839998476,247.98571839998476,None,248.86910120001994,None,,,,,,,11017,001,2024_Jan_04_1519,ANT,2021.2.3,59.9266737357379,
1,12,center,up,IC,R,,,,,,Block.xlsx,"你已经完成了第一个实验区组

请稍作休息


点击空格键进入下一个区组。",0,50,1.5,right,LLRLL.png,,,,,0,0,0,0,2,18,66,11,,,,,,,,,,,,,,,,,,,,,,,,,,,,,,,,,,,,,,,,,,,,,,,,,,,,,,,,,,,,,,,,249.27068730001338,249.6704311000649,249.65483080002014,249.75414780003484,250.15564660006203,None,right,1,0.5759492999641225,250.15564660006203,None,249.65483080002014,249.75414780003484,249.75414780003484,None,250.75595660007093,None,,,,,,,11017,001,2024_Jan_04_1519,ANT,2021.2.3,59.9266737357379,
1,15,center,down,IC,L,,,,,,Block.xlsx,"你已经完成了第一个实验区组

请稍作休息


点击空格键进入下一个区组。",0,50,-1.5,left,RRLRR.png,,,,,0,0,0,0,2,19,67,14,,,,,,,,,,,,,,,,,,,,,,,,,,,,,,,,,,,,,,,,,,,,,,,,,,,,,,,,,,,,,,,,251.1562433000654,251.5564194000326,251.54176549997646,251.6574818000663,252.04013710003346,None,left,1,0.5477657000301406,252.04013710003346,None,251.54176549997646,251.6574818000663,251.64133010001387,None,252.608150199987,None,,,,,,,11017,001,2024_Jan_04_1519,ANT,2021.2.3,59.9266737357379,
1,13,center,down,C,L,,,,,,Block.xlsx,"你已经完成了第一个实验区组

请稍作休息


点击空格键进入下一个区组。",0,50,-1.5,left,LLLLL.png,,,,,0,0,0,0,2,20,68,12,,,,,,,,,,,,,,,,,,,,,,,,,,,,,,,,,,,,,,,,,,,,,,,,,,,,,,,,,,,,,,,,253.00849070004188,253.40965220006183,253.39312909997534,253.49395190004725,253.89530289999675,None,left,1,0.4607088000047952,253.89530289999675,None,253.39312909997534,253.49395190004725,253.49395190004725,None,254.37710180005524,None,,,,,,,11017,001,2024_Jan_04_1519,ANT,2021.2.3,59.9266737357379,
1,12,center,up,IC,R,,,,,,Block.xlsx,"你已经完成了第一个实验区组

请稍作休息


点击空格键进入下一个区组。",0,50,1.5,right,LLRLL.png,,,,,0,0,0,0,2,21,69,11,,,,,,,,,,,,,,,,,,,,,,,,,,,,,,,,,,,,,,,,,,,,,,,,,,,,,,,,,,,,,,,,254.7783086000709,255.18026409996673,255.16255160002038,255.2632486000657,255.66243680007756,None,right,1,0.5496850999770686,255.66243680007756,None,255.16255160002038,255.2632486000657,255.2632486000657,None,256.2305827999953,None,,,,,,,11017,001,2024_Jan_04_1519,ANT,2021.2.3,59.9266737357379,
1,22,spatial,down,C,R,,,,,,Block.xlsx,"你已经完成了第一个实验区组

请稍作休息


点击空格键进入下一个区组。",-1.5,0,-1.5,right,RRRRR.png,,,,,0,0,0,0,2,22,70,21,,,,,,,,,,,,,,,,,,,,,,,,,,,,,,,,,,,,,,,,,,,,,,,,,,,,,,,,,,,,,,,,256.63153170002624,257.03355880000163,257.0147890000371,257.1152686000569,257.51597569999285,None,right,1,0.36775939993094653,257.51597569999285,None,257.0147890000371,257.1152686000569,257.1152686000569,None,257.8988625999773,None,,,,,,,11017,001,2024_Jan_04_1519,ANT,2021.2.3,59.9266737357379,
1,8,no,down,IC,R,,,,,,Block.xlsx,"你已经完成了第一个实验区组

请稍作休息


点击空格键进入下一个区组。",50,0,-1.5,right,LLRLL.png,,,,,0,0,0,0,2,23,71,7,,,,,,,,,,,,,,,,,,,,,,,,,,,,,,,,,,,,,,,,,,,,,,,,,,,,,,,,,,,,,,,,258.30083930003457,258.70084760000464,258.6834706000518,258.78511569998227,259.18533900007606,None,right,1,0.5143024000572041,259.18533900007606,None,258.6834706000518,258.78511569998227,258.78511569998227,None,259.7182613000041,None,,,,,,,11017,001,2024_Jan_04_1519,ANT,2021.2.3,59.9266737357379,
1,11,center,up,IC,L,,,,,,Block.xlsx,"你已经完成了第一个实验区组

请稍作休息


点击空格键进入下一个区组。",0,50,1.5,left,RRLRR.png,,,,,0,0,0,0,3,0,72,10,,,,,,,,,,,,,,,,,,,,,,,,,,,,,,,,,,,,,,,,,,,,,,,,,,,,,,,,,,,,,,,,260.11902039998677,260.519926100038,260.5047107000137,260.60491470003035,261.00355809996836,None,left,1,0.5682861999375746,261.00355809996836,None,260.5047107000137,260.60491470003035,260.60491470003035,None,261.5878510000184,None,,,,,,,11017,001,2024_Jan_04_1519,ANT,2021.2.3,59.9266737357379,
1,4,no,up,IC,R,,,,,,Block.xlsx,"你已经完成了第一个实验区组

请稍作休息


点击空格键进入下一个区组。",50,0,1.5,right,LLRLL.png,,,,,0,0,0,0,3,1,73,3,,,,,,,,,,,,,,,,,,,,,,,,,,,,,,,,,,,,,,,,,,,,,,,,,,,,,,,,,,,,,,,,261.98859389999416,262.3898145999992,262.3729342999868,262.47451139998157,262.8731166999787,None,right,1,0.5148409000830725,262.8731166999787,None,262.3729342999868,262.47451139998157,262.47451139998157,None,263.40695069998037,None,,,,,,,11017,001,2024_Jan_04_1519,ANT,2021.2.3,59.9266737357379,
1,17,spatial,up,C,L,,,,,,Block.xlsx,"你已经完成了第一个实验区组

请稍作休息


点击空格键进入下一个区组。",1.5,0,1.5,left,LLLLL.png,,,,,0,0,0,0,3,2,74,16,,,,,,,,,,,,,,,,,,,,,,,,,,,,,,,,,,,,,,,,,,,,,,,,,,,,,,,,,,,,,,,,263.8077271999791,264.20903290004935,264.1924078000011,264.29262009996455,264.6933025000617,None,left,1,0.6224642000161111,264.6933025000617,None,264.1924078000011,264.29262009996455,264.29262009996455,None,265.34389350004494,None,,,,,,,11017,001,2024_Jan_04_1519,ANT,2021.2.3,59.9266737357379,
1,5,no,down,C,L,,,,,,Block.xlsx,"你已经完成了第一个实验区组

请稍作休息


点击空格键进入下一个区组。",50,0,-1.5,left,LLLLL.png,,,,,0,0,0,0,3,3,75,4,,,,,,,,,,,,,,,,,,,,,,,,,,,,,,,,,,,,,,,,,,,,,,,,,,,,,,,,,,,,,,,,265.74438240006566,266.1452968000667,266.12862179998774,266.22939029999543,266.6291776000289,None,left,1,0.4705612000543624,266.6291776000289,None,266.12862179998774,266.22939029999543,266.22939029999543,None,267.1293510000687,None,,,,,,,11017,001,2024_Jan_04_1519,ANT,2021.2.3,59.9266737357379,
1,21,spatial,down,C,L,,,,,,Block.xlsx,"你已经完成了第一个实验区组

请稍作休息


点击空格键进入下一个区组。",-1.5,0,-1.5,left,LLLLL.png,,,,,0,0,0,0,3,4,76,20,,,,,,,,,,,,,,,,,,,,,,,,,,,,,,,,,,,,,,,,,,,,,,,,,,,,,,,,,,,,,,,,267.5307540000649,267.9315289000515,267.9163176000584,268.03077199996915,268.41511299996637,None,left,1,0.4526888000546023,268.41511299996637,None,267.9163176000584,268.03077199996915,268.01549240003806,None,268.8992553000571,None,,,,,,,11017,001,2024_Jan_04_1519,ANT,2021.2.3,59.9266737357379,
1,17,spatial,up,C,L,,,,,,Block.xlsx,"你已经完成了第一个实验区组

请稍作休息


点击空格键进入下一个区组。",1.5,0,1.5,left,LLLLL.png,,,,,0,0,0,0,3,5,77,16,,,,,,,,,,,,,,,,,,,,,,,,,,,,,,,,,,,,,,,,,,,,,,,,,,,,,,,,,,,,,,,,269.29987560003065,269.7004758999683,269.6831920000259,269.7839678999735,270.184765300015,None,left,1,0.4268507999368012,270.184765300015,None,269.6831920000259,269.7839678999735,269.7839678999735,None,270.6350922000129,None,,,,,,,11017,001,2024_Jan_04_1519,ANT,2021.2.3,59.9266737357379,
1,16,center,down,IC,R,,,,,,Block.xlsx,"你已经完成了第一个实验区组

请稍作休息


点击空格键进入下一个区组。",0,50,-1.5,right,LLRLL.png,,,,,0,0,0,0,3,6,78,15,,,,,,,,,,,,,,,,,,,,,,,,,,,,,,,,,,,,,,,,,,,,,,,,,,,,,,,,,,,,,,,,271.03514779999387,271.4371375000337,271.41915460000746,271.5206535999896,271.92048009997234,None,right,1,0.5392456999979913,271.92048009997234,None,271.41915460000746,271.5206535999896,271.5206535999896,None,272.4873864999972,None,,,,,,,11017,001,2024_Jan_04_1519,ANT,2021.2.3,59.9266737357379,
1,2,no,up,C,R,,,,,,Block.xlsx,"你已经完成了第一个实验区组

请稍作休息


点击空格键进入下一个区组。",50,0,1.5,right,RRRRR.png,,,,,0,0,0,0,3,7,79,1,,,,,,,,,,,,,,,,,,,,,,,,,,,,,,,,,,,,,,,,,,,,,,,,,,,,,,,,,,,,,,,,272.88795670005493,273.2905029000249,273.27211630006786,273.3731861000415,273.7725742000621,None,right,1,0.45548260002397,273.7725742000621,None,273.27211630006786,273.3731861000415,273.3731861000415,None,274.2565439000027,None,,,,,,,11017,001,2024_Jan_04_1519,ANT,2021.2.3,59.9266737357379,
1,22,spatial,down,C,R,,,,,,Block.xlsx,"你已经完成了第一个实验区组

请稍作休息


点击空格键进入下一个区组。",-1.5,0,-1.5,right,RRRRR.png,,,,,0,0,0,0,3,8,80,21,,,,,,,,,,,,,,,,,,,,,,,,,,,,,,,,,,,,,,,,,,,,,,,,,,,,,,,,,,,,,,,,274.65734170004725,275.05957879999187,275.04152930004057,275.1435318000149,275.54284160002135,None,right,1,0.4528845000313595,275.54284160002135,None,275.04152930004057,275.1435318000149,275.1435318000149,None,276.026723899995,None,,,,,,,11017,001,2024_Jan_04_1519,ANT,2021.2.3,59.9266737357379,
1,24,spatial,down,IC,R,,,,,,Block.xlsx,"你已经完成了第一个实验区组

请稍作休息


点击空格键进入下一个区组。",-1.5,0,-1.5,right,LLRLL.png,,,,,0,0,0,0,3,9,81,23,,,,,,,,,,,,,,,,,,,,,,,,,,,,,,,,,,,,,,,,,,,,,,,,,,,,,,,,,,,,,,,,276.42644680000376,276.8273641000269,276.81090350006707,276.91270169999916,277.31183879997116,None,right,1,0.4758823999436572,277.31183879997116,None,276.81090350006707,276.91270169999916,276.91270169999916,None,277.8118438000092,None,,,,,,,11017,001,2024_Jan_04_1519,ANT,2021.2.3,59.9266737357379,
1,19,spatial,up,IC,L,,,,,,Block.xlsx,"你已经完成了第一个实验区组

请稍作休息


点击空格键进入下一个区组。",1.5,0,1.5,left,RRLRR.png,,,,,0,0,0,0,3,10,82,18,,,,,,,,,,,,,,,,,,,,,,,,,,,,,,,,,,,,,,,,,,,,,,,,,,,,,,,,,,,,,,,,278.21255290007684,278.6147348000668,278.59658660006244,278.69727120001335,279.09762969997246,None,left,1,0.41851470002438873,279.09762969997246,None,278.59658660006244,278.69727120001335,278.69727120001335,None,279.53092130005825,None,,,,,,,11017,001,2024_Jan_04_1519,ANT,2021.2.3,59.9266737357379,
1,11,center,up,IC,L,,,,,,Block.xlsx,"你已经完成了第一个实验区组

请稍作休息


点击空格键进入下一个区组。",0,50,1.5,left,RRLRR.png,,,,,0,0,0,0,3,11,83,10,,,,,,,,,,,,,,,,,,,,,,,,,,,,,,,,,,,,,,,,,,,,,,,,,,,,,,,,,,,,,,,,279.93233019998297,280.3323282999918,280.3162566999672,280.4167318000691,280.81618259998504,None,left,1,0.5477263999637216,280.81618259998504,None,280.3162566999672,280.4167318000691,280.4167318000691,None,281.38381799997296,None,,,,,,,11017,001,2024_Jan_04_1519,ANT,2021.2.3,59.9266737357379,
1,8,no,down,IC,R,,,,,,Block.xlsx,"你已经完成了第一个实验区组

请稍作休息


点击空格键进入下一个区组。",50,0,-1.5,right,LLRLL.png,,,,,0,0,0,0,3,12,84,7,,,,,,,,,,,,,,,,,,,,,,,,,,,,,,,,,,,,,,,,,,,,,,,,,,,,,,,,,,,,,,,,281.7844191000331,282.18562880007084,282.16880169999786,282.2698640000308,282.6690994000528,None,right,1,0.6228193000424653,282.6690994000528,None,282.16880169999786,282.2698640000308,282.2698640000308,None,283.32073589996435,None,,,,,,,11017,001,2024_Jan_04_1519,ANT,2021.2.3,59.9266737357379,
1,17,spatial,up,C,L,,,,,,Block.xlsx,"你已经完成了第一个实验区组

请稍作休息


点击空格键进入下一个区组。",1.5,0,1.5,left,LLLLL.png,,,,,0,0,0,0,3,13,85,16,,,,,,,,,,,,,,,,,,,,,,,,,,,,,,,,,,,,,,,,,,,,,,,,,,,,,,,,,,,,,,,,283.7205627000658,284.1210754000349,284.1056077000685,284.20571160002146,284.60694880003575,None,left,1,0.42946480005048215,284.60694880003575,None,284.1056077000685,284.20571160002146,284.20571160002146,None,285.055779300048,None,,,,,,,11017,001,2024_Jan_04_1519,ANT,2021.2.3,59.9266737357379,
1,16,center,down,IC,R,,,,,,Block.xlsx,"你已经完成了第一个实验区组

请稍作休息


点击空格键进入下一个区组。",0,50,-1.5,right,LLRLL.png,,,,,0,0,0,0,3,14,86,15,,,,,,,,,,,,,,,,,,,,,,,,,,,,,,,,,,,,,,,,,,,,,,,,,,,,,,,,,,,,,,,,285.45721380005125,285.857088400051,285.84067359997425,285.94123490003403,286.3416842999868,None,right,1,0.5179268999490887,286.3416842999868,None,285.84067359997425,285.94123490003403,285.94123490003403,None,286.87508550006896,None,,,,,,,11017,001,2024_Jan_04_1519,ANT,2021.2.3,59.9266737357379,
1,1,no,up,C,L,,,,,,Block.xlsx,"你已经完成了第一个实验区组

请稍作休息


点击空格键进入下一个区组。",50,0,1.5,left,LLLLL.png,,,,,0,0,0,0,3,15,87,0,,,,,,,,,,,,,,,,,,,,,,,,,,,,,,,,,,,,,,,,,,,,,,,,,,,,,,,,,,,,,,,,287.27587640006095,287.67693820002023,287.66106040007435,287.7611402000766,288.16155379998963,None,left,1,0.47417329996824265,288.16155379998963,None,287.66106040007435,287.7611402000766,287.7611402000766,None,288.66134059999604,None,,,,,,,11017,001,2024_Jan_04_1519,ANT,2021.2.3,59.9266737357379,
1,15,center,down,IC,L,,,,,,Block.xlsx,"你已经完成了第一个实验区组

请稍作休息


点击空格键进入下一个区组。",0,50,-1.5,left,RRLRR.png,,,,,0,0,0,0,3,16,88,14,,,,,,,,,,,,,,,,,,,,,,,,,,,,,,,,,,,,,,,,,,,,,,,,,,,,,,,,,,,,,,,,289.0623344000196,289.46360690006986,289.44727850006893,289.5626179999672,289.94725510000717,None,left,1,0.5523928999900818,289.94725510000717,None,289.44727850006893,289.5626179999672,289.54676130006555,None,290.53055340005085,None,,,,,,,11017,001,2024_Jan_04_1519,ANT,2021.2.3,59.9266737357379,
1,5,no,down,C,L,,,,,,Block.xlsx,"你已经完成了第一个实验区组

请稍作休息


点击空格键进入下一个区组。",50,0,-1.5,left,LLLLL.png,,,,,0,0,0,0,3,17,89,4,,,,,,,,,,,,,,,,,,,,,,,,,,,,,,,,,,,,,,,,,,,,,,,,,,,,,,,,,,,,,,,,290.93125550006516,291.33346029999666,291.315903800074,291.41645740007516,291.81581339996774,None,left,1,0.9003352000145242,291.81581339996774,None,291.315903800074,291.41645740007516,291.41645740007516,None,292.7341293999925,None,,,,,,,11017,001,2024_Jan_04_1519,ANT,2021.2.3,59.9266737357379,
1,23,spatial,down,IC,L,,,,,,Block.xlsx,"你已经完成了第一个实验区组

请稍作休息


点击空格键进入下一个区组。",-1.5,0,-1.5,left,RRLRR.png,,,,,0,0,0,0,3,18,90,22,,,,,,,,,,,,,,,,,,,,,,,,,,,,,,,,,,,,,,,,,,,,,,,,,,,,,,,,,,,,,,,,293.1353726000525,293.535315599991,293.51918309996836,293.61881170002744,294.0200559999794,None,left,1,0.431867599952966,294.0200559999794,None,293.51918309996836,293.61881170002744,293.61881170002744,None,294.47069290000945,None,,,,,,,11017,001,2024_Jan_04_1519,ANT,2021.2.3,59.9266737357379,
1,13,center,down,C,L,,,,,,Block.xlsx,"你已经完成了第一个实验区组

请稍作休息


点击空格键进入下一个区组。",0,50,-1.5,left,LLLLL.png,,,,,0,0,0,0,3,19,91,12,,,,,,,,,,,,,,,,,,,,,,,,,,,,,,,,,,,,,,,,,,,,,,,,,,,,,,,,,,,,,,,,294.8717504000524,295.27204770001117,295.25441250007134,295.35454730002675,295.7558589000255,None,left,1,0.44841250008903444,295.7558589000255,None,295.25441250007134,295.35454730002675,295.35454730002675,None,296.22228360001463,None,,,,,,,11017,001,2024_Jan_04_1519,ANT,2021.2.3,59.9266737357379,
1,7,no,down,IC,L,,,,,,Block.xlsx,"你已经完成了第一个实验区组

请稍作休息


点击空格键进入下一个区组。",50,0,-1.5,left,RRLRR.png,,,,,0,0,0,0,3,20,92,6,,,,,,,,,,,,,,,,,,,,,,,,,,,,,,,,,,,,,,,,,,,,,,,,,,,,,,,,,,,,,,,,296.624191800016,297.02426630002446,297.00775129999965,297.1085152999731,297.5091362000676,None,left,1,0.5272363000549376,297.5091362000676,None,297.00775129999965,297.1085152999731,297.1085152999731,None,298.05825340002775,None,,,,,,,11017,001,2024_Jan_04_1519,ANT,2021.2.3,59.9266737357379,
1,13,center,down,C,L,,,,,,Block.xlsx,"你已经完成了第一个实验区组

请稍作休息


点击空格键进入下一个区组。",0,50,-1.5,left,LLLLL.png,,,,,0,0,0,0,3,21,93,12,,,,,,,,,,,,,,,,,,,,,,,,,,,,,,,,,,,,,,,,,,,,,,,,,,,,,,,,,,,,,,,,298.45963729999494,298.86136450001504,298.84357889997773,298.9446882000193,299.34364560001995,None,left,1,0.4440953000448644,299.34364560001995,None,298.84357889997773,298.9446882000193,298.9446882000193,None,299.81107150006574,None,,,,,,,11017,001,2024_Jan_04_1519,ANT,2021.2.3,59.9266737357379,
1,4,no,up,IC,R,,,,,,Block.xlsx,"你已经完成了第一个实验区组

请稍作休息


点击空格键进入下一个区组。",50,0,1.5,right,LLRLL.png,,,,,0,0,0,0,3,22,94,3,,,,,,,,,,,,,,,,,,,,,,,,,,,,,,,,,,,,,,,,,,,,,,,,,,,,,,,,,,,,,,,,300.21177000005264,300.6129823999945,300.59639770002104,300.696288999985,301.0970850000158,None,right,1,0.5789448999566957,301.0970850000158,None,300.59639770002104,300.696288999985,300.696288999985,None,301.69738190004136,None,,,,,,,11017,001,2024_Jan_04_1519,ANT,2021.2.3,59.9266737357379,
1,18,spatial,up,C,R,,,,,,Block.xlsx,"你已经完成了第一个实验区组

请稍作休息


点击空格键进入下一个区组。",1.5,0,1.5,right,RRRRR.png,,,,,0,0,0,0,3,23,95,17,,,,,,,,,,,,,,,,,,,,,,,,,,,,,,,,,,,,,,,,,,,,,,,,,,,,,,,,,,,,,,,,302.09788999997545,302.49956470006146,302.4831603000639,302.58242079999764,302.98341990006156,None,right,1,0.3644101000390947,302.98341990006156,None,302.4831603000639,302.58242079999764,302.58242079999764,None,303.3662684999872,None,,,,,,,11017,001,2024_Jan_04_1519,ANT,2021.2.3,59.9266737357379,
,,,,,,,,,,,Block.xlsx,"你已经完成了第一个实验区组

请稍作休息


点击空格键进入下一个区组。",,,,,,,,,,0,0,0,0,,,,,,,,,,,,,,,,,,,,,,,,,,,,,,,,,,,,,,,,,,,,,,,,,,,,,,,,,,,,,,,,,,,,,,,,,,,,,,,,,,,,,space,5.733522800030187,303.76622360001784,None,303.76622360001784,None,11017,001,2024_Jan_04_1519,ANT,2021.2.3,59.9266737357379,
1,9,center,up,C,L,,,,,,Block.xlsx,"你已经完成了整个实验（三个区组）。

请报告实验者已完成实验

非常感谢，再见！",0,50,1.5,left,LLLLL.png,,,,,0,1,1,1,0,0,0,8,,,,,,,,,,,,,,,,,,,,,,,,,,,,,,,,,,,,,,,,,,,,,,,,,,,,,,,,,,,,,,,,309.54193219996523,309.9439583000494,309.927061400027,310.0262664000038,310.4273607999785,None,left,1,0.4646873000310734,310.4273607999785,None,309.927061400027,310.0262664000038,310.0262664000038,None,310.91104510007426,None,,,,,,,11017,001,2024_Jan_04_1519,ANT,2021.2.3,59.9266737357379,
1,6,no,down,C,R,,,,,,Block.xlsx,"你已经完成了整个实验（三个区组）。

请报告实验者已完成实验

非常感谢，再见！",50,0,-1.5,right,RRRRR.png,,,,,0,1,1,1,0,1,1,5,,,,,,,,,,,,,,,,,,,,,,,,,,,,,,,,,,,,,,,,,,,,,,,,,,,,,,,,,,,,,,,,311.312635099981,311.7126855000388,311.69679119996727,311.7955465000123,312.1970752000343,None,right,1,0.44709210004657507,312.1970752000343,None,311.69679119996727,311.7955465000123,311.7955465000123,None,312.6636693000328,None,,,,,,,11017,001,2024_Jan_04_1519,ANT,2021.2.3,59.9266737357379,
1,21,spatial,down,C,L,,,,,,Block.xlsx,"你已经完成了整个实验（三个区组）。

请报告实验者已完成实验

非常感谢，再见！",-1.5,0,-1.5,left,LLLLL.png,,,,,0,1,1,1,0,2,2,20,,,,,,,,,,,,,,,,,,,,,,,,,,,,,,,,,,,,,,,,,,,,,,,,,,,,,,,,,,,,,,,,313.0642374000745,313.4646603000583,313.449263800052,313.54997619998176,313.9511184999719,None,left,1,0.3812897999305278,313.9511184999719,None,313.449263800052,313.54997619998176,313.54997619998176,None,314.3494317000732,None,,,,,,,11017,001,2024_Jan_04_1519,ANT,2021.2.3,59.9266737357379,
1,5,no,down,C,L,,,,,,Block.xlsx,"你已经完成了整个实验（三个区组）。

请报告实验者已完成实验

非常感谢，再见！",50,0,-1.5,left,LLLLL.png,,,,,0,1,1,1,0,3,3,4,,,,,,,,,,,,,,,,,,,,,,,,,,,,,,,,,,,,,,,,,,,,,,,,,,,,,,,,,,,,,,,,314.75005320005585,315.15097030007746,315.134691299987,315.2358571999939,315.63526490004733,None,left,1,0.48034010000992566,315.63526490004733,None,315.134691299987,315.2358571999939,315.2358571999939,None,316.1353522000136,None,,,,,,,11017,001,2024_Jan_04_1519,ANT,2021.2.3,59.9266737357379,
1,15,center,down,IC,L,,,,,,Block.xlsx,"你已经完成了整个实验（三个区组）。

请报告实验者已完成实验

非常感谢，再见！",0,50,-1.5,left,RRLRR.png,,,,,0,1,1,1,0,4,4,14,,,,,,,,,,,,,,,,,,,,,,,,,,,,,,,,,,,,,,,,,,,,,,,,,,,,,,,,,,,,,,,,316.5360439000651,316.93661400000565,316.9210849000374,317.0200329000363,317.421050200006,None,left,1,0.5346660000504926,317.421050200006,None,316.9210849000374,317.0200329000363,317.0200329000363,None,317.9713958000066,None,,,,,,,11017,001,2024_Jan_04_1519,ANT,2021.2.3,59.9266737357379,
1,13,center,down,C,L,,,,,,Block.xlsx,"你已经完成了整个实验（三个区组）。

请报告实验者已完成实验

非常感谢，再见！",0,50,-1.5,left,LLLLL.png,,,,,0,1,1,1,0,5,5,12,,,,,,,,,,,,,,,,,,,,,,,,,,,,,,,,,,,,,,,,,,,,,,,,,,,,,,,,,,,,,,,,318.3721167000476,318.7732699000044,318.75761940004304,318.87277300003916,319.25767580000684,None,left,1,0.38620529999025166,319.25767580000684,None,318.75761940004304,318.87277300003916,318.8577396000037,None,319.67461660003755,None,,,,,,,11017,001,2024_Jan_04_1519,ANT,2021.2.3,59.9266737357379,
1,11,center,up,IC,L,,,,,,Block.xlsx,"你已经完成了整个实验（三个区组）。

请报告实验者已完成实验

非常感谢，再见！",0,50,1.5,left,RRLRR.png,,,,,0,1,1,1,0,6,6,10,,,,,,,,,,,,,,,,,,,,,,,,,,,,,,,,,,,,,,,,,,,,,,,,,,,,,,,,,,,,,,,,320.07524190004915,320.4750570000615,320.4590870999964,320.5591802999843,320.9601097999839,None,left,1,0.5960579999955371,320.9601097999839,None,320.4590870999964,320.5591802999843,320.5591802999843,None,321.5769519000314,None,,,,,,,11017,001,2024_Jan_04_1519,ANT,2021.2.3,59.9266737357379,
1,7,no,down,IC,L,,,,,,Block.xlsx,"你已经完成了整个实验（三个区组）。

请报告实验者已完成实验

非常感谢，再见！",50,0,-1.5,left,RRLRR.png,,,,,0,1,1,1,0,7,7,6,,,,,,,,,,,,,,,,,,,,,,,,,,,,,,,,,,,,,,,,,,,,,,,,,,,,,,,,,,,,,,,,321.9779293000465,322.378541000071,322.3630471000215,322.47805340006016,322.8625788000645,None,left,1,0.4935860000550747,322.8625788000645,None,322.3630471000215,322.47805340006016,322.4620448000496,None,323.3792850000318,None,,,,,,,11017,001,2024_Jan_04_1519,ANT,2021.2.3,59.9266737357379,
1,23,spatial,down,IC,L,,,,,,Block.xlsx,"你已经完成了整个实验（三个区组）。

请报告实验者已完成实验

非常感谢，再见！",-1.5,0,-1.5,left,RRLRR.png,,,,,0,1,1,1,0,8,8,22,,,,,,,,,,,,,,,,,,,,,,,,,,,,,,,,,,,,,,,,,,,,,,,,,,,,,,,,,,,,,,,,323.78039400000125,324.1810383000411,324.1646272999933,324.2648717999691,324.6652107000118,None,left,1,0.44258119992446154,324.6652107000118,None,324.1646272999933,324.2648717999691,324.2648717999691,None,325.1326777000213,None,,,,,,,11017,001,2024_Jan_04_1519,ANT,2021.2.3,59.9266737357379,
1,1,no,up,C,L,,,,,,Block.xlsx,"你已经完成了整个实验（三个区组）。

请报告实验者已完成实验

非常感谢，再见！",50,0,1.5,left,LLLLL.png,,,,,0,1,1,1,0,9,9,0,,,,,,,,,,,,,,,,,,,,,,,,,,,,,,,,,,,,,,,,,,,,,,,,,,,,,,,,,,,,,,,,325.53251010004897,325.93330020003486,325.9176075999858,326.017760500079,326.4177149999887,None,left,1,0.45808080001734197,326.4177149999887,None,325.9176075999858,326.017760500079,326.017760500079,None,326.9012614999665,None,,,,,,,11017,001,2024_Jan_04_1519,ANT,2021.2.3,59.9266737357379,
1,15,center,down,IC,L,,,,,,Block.xlsx,"你已经完成了整个实验（三个区组）。

请报告实验者已完成实验

非常感谢，再见！",0,50,-1.5,left,RRLRR.png,,,,,0,1,1,1,0,10,10,14,,,,,,,,,,,,,,,,,,,,,,,,,,,,,,,,,,,,,,,,,,,,,,,,,,,,,,,,,,,,,,,,327.30199020006694,327.70346870005596,327.6866412999807,327.7865557000041,328.18719159998,None,left,1,0.3525387999834493,328.18719159998,None,327.6866412999807,327.7865557000041,327.7865557000041,None,328.5705929000396,None,,,,,,,11017,001,2024_Jan_04_1519,ANT,2021.2.3,59.9266737357379,
1,16,center,down,IC,R,,,,,,Block.xlsx,"你已经完成了整个实验（三个区组）。

请报告实验者已完成实验

非常感谢，再见！",0,50,-1.5,right,LLRLL.png,,,,,0,1,1,1,0,11,11,15,,,,,,,,,,,,,,,,,,,,,,,,,,,,,,,,,,,,,,,,,,,,,,,,,,,,,,,,,,,,,,,,328.9713350000093,329.3724565000739,329.3559249000391,329.4558794000186,329.8559959999984,None,right,1,0.6198786000022665,329.8559959999984,None,329.3559249000391,329.4558794000186,329.4558794000186,None,330.5069192000665,None,,,,,,,11017,001,2024_Jan_04_1519,ANT,2021.2.3,59.9266737357379,
1,22,spatial,down,C,R,,,,,,Block.xlsx,"你已经完成了整个实验（三个区组）。

请报告实验者已完成实验

非常感谢，再见！",-1.5,0,-1.5,right,RRRRR.png,,,,,0,1,1,1,0,12,12,21,,,,,,,,,,,,,,,,,,,,,,,,,,,,,,,,,,,,,,,,,,,,,,,,,,,,,,,,,,,,,,,,330.9071176999714,331.3080711000366,331.2928970999783,331.3920524000423,331.79254120006226,None,right,1,0.41919490008149296,331.79254120006226,None,331.2928970999783,331.3920524000423,331.3920524000423,None,332.242903699982,None,,,,,,,11017,001,2024_Jan_04_1519,ANT,2021.2.3,59.9266737357379,
1,20,spatial,up,IC,R,,,,,,Block.xlsx,"你已经完成了整个实验（三个区组）。

请报告实验者已完成实验

非常感谢，再见！",1.5,0,1.5,right,LLRLL.png,,,,,0,1,1,1,0,13,13,19,,,,,,,,,,,,,,,,,,,,,,,,,,,,,,,,,,,,,,,,,,,,,,,,,,,,,,,,,,,,,,,,332.6431154999882,333.0445124000544,333.0270610000007,333.1278669000603,333.5292240000563,None,right,1,0.4588287000078708,333.5292240000563,None,333.0270610000007,333.1278669000603,333.1278669000603,None,334.0116941999877,None,,,,,,,11017,001,2024_Jan_04_1519,ANT,2021.2.3,59.9266737357379,
1,16,center,down,IC,R,,,,,,Block.xlsx,"你已经完成了整个实验（三个区组）。

请报告实验者已完成实验

非常感谢，再见！",0,50,-1.5,right,LLRLL.png,,,,,0,1,1,1,0,14,14,15,,,,,,,,,,,,,,,,,,,,,,,,,,,,,,,,,,,,,,,,,,,,,,,,,,,,,,,,,,,,,,,,334.4123249000404,334.8130822000094,334.7983609000221,334.9154131000396,335.2968868999742,None,right,1,0.6028487000148743,335.2968868999742,None,334.7983609000221,334.9154131000396,334.89731120003853,None,335.91479299997445,None,,,,,,,11017,001,2024_Jan_04_1519,ANT,2021.2.3,59.9266737357379,
1,17,spatial,up,C,L,,,,,,Block.xlsx,"你已经完成了整个实验（三个区组）。

请报告实验者已完成实验

非常感谢，再见！",1.5,0,1.5,left,LLLLL.png,,,,,0,1,1,1,0,15,15,16,,,,,,,,,,,,,,,,,,,,,,,,,,,,,,,,,,,,,,,,,,,,,,,,,,,,,,,,,,,,,,,,336.31533270003274,336.71776100003626,336.7000044999877,336.79988329997286,337.20047060004435,None,left,1,0.4432854000478983,337.20047060004435,None,336.7000044999877,336.79988329997286,336.79988329997286,None,337.6671400000341,None,,,,,,,11017,001,2024_Jan_04_1519,ANT,2021.2.3,59.9266737357379,
1,10,center,up,C,R,,,,,,Block.xlsx,"你已经完成了整个实验（三个区组）。

请报告实验者已完成实验

非常感谢，再见！",0,50,1.5,right,RRRRR.png,,,,,0,1,1,1,0,16,16,9,,,,,,,,,,,,,,,,,,,,,,,,,,,,,,,,,,,,,,,,,,,,,,,,,,,,,,,,,,,,,,,,338.0677104999777,338.4685004000785,338.45199890004005,338.55284060002305,338.95232619997114,None,right,1,0.5875103999860585,338.95232619997114,None,338.45199890004005,338.55284060002305,338.55284060002305,None,339.57016570004635,None,,,,,,,11017,001,2024_Jan_04_1519,ANT,2021.2.3,59.9266737357379,
1,6,no,down,C,R,,,,,,Block.xlsx,"你已经完成了整个实验（三个区组）。

请报告实验者已完成实验

非常感谢，再见！",50,0,-1.5,right,RRRRR.png,,,,,0,1,1,1,0,17,17,5,,,,,,,,,,,,,,,,,,,,,,,,,,,,,,,,,,,,,,,,,,,,,,,,,,,,,,,,,,,,,,,,339.970652100048,340.3721134000225,340.3546717000427,340.45572249998804,340.8562073999783,None,right,1,0.42752399994060397,340.8562073999783,None,340.3546717000427,340.45572249998804,340.45572249998804,None,341.3060001999838,None,,,,,,,11017,001,2024_Jan_04_1519,ANT,2021.2.3,59.9266737357379,
1,11,center,up,IC,L,,,,,,Block.xlsx,"你已经完成了整个实验（三个区组）。

请报告实验者已完成实验

非常感谢，再见！",0,50,1.5,left,RRLRR.png,,,,,0,1,1,1,0,18,18,10,,,,,,,,,,,,,,,,,,,,,,,,,,,,,,,,,,,,,,,,,,,,,,,,,,,,,,,,,,,,,,,,341.70639880001545,342.1092407000251,342.0910041000461,342.1913783000782,342.5916050999658,None,left,1,0.4682246999582276,342.5916050999658,None,342.0910041000461,342.1913783000782,342.1913783000782,None,343.0752315999707,None,,,,,,,11017,001,2024_Jan_04_1519,ANT,2021.2.3,59.9266737357379,
1,5,no,down,C,L,,,,,,Block.xlsx,"你已经完成了整个实验（三个区组）。

请报告实验者已完成实验

非常感谢，再见！",50,0,-1.5,left,LLLLL.png,,,,,0,1,1,1,0,19,19,4,,,,,,,,,,,,,,,,,,,,,,,,,,,,,,,,,,,,,,,,,,,,,,,,,,,,,,,,,,,,,,,,343.47618850006256,343.87858530005906,343.8603347999742,343.960531800054,344.3609237000346,None,left,1,0.43488210008945316,344.3609237000346,None,343.8603347999742,343.960531800054,343.960531800054,None,344.827864699997,None,,,,,,,11017,001,2024_Jan_04_1519,ANT,2021.2.3,59.9266737357379,
1,21,spatial,down,C,L,,,,,,Block.xlsx,"你已经完成了整个实验（三个区组）。

请报告实验者已完成实验

非常感谢，再见！",-1.5,0,-1.5,left,LLLLL.png,,,,,0,1,1,1,0,20,20,20,,,,,,,,,,,,,,,,,,,,,,,,,,,,,,,,,,,,,,,,,,,,,,,,,,,,,,,,,,,,,,,,345.22832870006096,345.62900159996934,345.61360549996607,345.7128047000151,346.11287060007453,None,left,1,0.34695879998616874,346.11287060007453,None,345.61360549996607,345.7128047000151,345.7128047000151,None,346.4801051999675,None,,,,,,,11017,001,2024_Jan_04_1519,ANT,2021.2.3,59.9266737357379,
1,19,spatial,up,IC,L,,,,,,Block.xlsx,"你已经完成了整个实验（三个区组）。

请报告实验者已完成实验

非常感谢，再见！",1.5,0,1.5,left,RRLRR.png,,,,,0,1,1,1,0,21,21,18,,,,,,,,,,,,,,,,,,,,,,,,,,,,,,,,,,,,,,,,,,,,,,,,,,,,,,,,,,,,,,,,346.8812245000154,347.28206490003504,347.26611670001876,347.3659936999902,347.76737750007305,None,left,1,0.4923729000147432,347.76737750007305,None,347.26611670001876,347.3659936999902,347.3659936999902,None,348.28300509997644,None,,,,,,,11017,001,2024_Jan_04_1519,ANT,2021.2.3,59.9266737357379,
1,24,spatial,down,IC,R,,,,,,Block.xlsx,"你已经完成了整个实验（三个区组）。

请报告实验者已完成实验

非常感谢，再见！",-1.5,0,-1.5,right,LLRLL.png,,,,,0,1,1,1,0,22,22,23,,,,,,,,,,,,,,,,,,,,,,,,,,,,,,,,,,,,,,,,,,,,,,,,,,,,,,,,,,,,,,,,348.6835019000573,349.0858687000582,349.0674377999967,349.1681452000048,349.5687563000247,None,right,1,0.4430845999158919,349.5687563000247,None,349.0674377999967,349.1681452000048,349.1681452000048,None,350.0355724999681,None,,,,,,,11017,001,2024_Jan_04_1519,ANT,2021.2.3,59.9266737357379,
1,14,center,down,C,R,,,,,,Block.xlsx,"你已经完成了整个实验（三个区组）。

请报告实验者已完成实验

非常感谢，再见！",0,50,-1.5,right,RRRRR.png,,,,,0,1,1,1,0,23,23,13,,,,,,,,,,,,,,,,,,,,,,,,,,,,,,,,,,,,,,,,,,,,,,,,,,,,,,,,,,,,,,,,350.4369070000248,350.83870830002706,350.8210096000694,350.9209838999668,351.32115690002684,None,right,1,0.4674545000307262,351.32115690002684,None,350.8210096000694,350.9209838999668,350.9209838999668,None,351.80576270003803,None,,,,,,,11017,001,2024_Jan_04_1519,ANT,2021.2.3,59.9266737357379,
1,12,center,up,IC,R,,,,,,Block.xlsx,"你已经完成了整个实验（三个区组）。

请报告实验者已完成实验

非常感谢，再见！",0,50,1.5,right,LLRLL.png,,,,,0,1,1,1,1,0,24,11,,,,,,,,,,,,,,,,,,,,,,,,,,,,,,,,,,,,,,,,,,,,,,,,,,,,,,,,,,,,,,,,352.205557600013,352.6072967000073,352.5900539000286,352.69013420003466,353.090641100076,None,left,0,0.3690145000582561,353.090641100076,None,352.5900539000286,352.69013420003466,352.69013420003466,None,353.49050590000115,None,,,,,,,11017,001,2024_Jan_04_1519,ANT,2021.2.3,59.9266737357379,
1,22,spatial,down,C,R,,,,,,Block.xlsx,"你已经完成了整个实验（三个区组）。

请报告实验者已完成实验

非常感谢，再见！",-1.5,0,-1.5,right,RRRRR.png,,,,,0,1,1,1,1,1,25,21,,,,,,,,,,,,,,,,,,,,,,,,,,,,,,,,,,,,,,,,,,,,,,,,,,,,,,,,,,,,,,,,353.89178449998144,354.2918673000531,354.275754100061,354.3759348000167,354.7760426000459,None,right,1,0.39614650001749396,354.7760426000459,None,354.275754100061,354.3759348000167,354.3759348000167,None,355.1932099000551,None,,,,,,,11017,001,2024_Jan_04_1519,ANT,2021.2.3,59.9266737357379,
1,24,spatial,down,IC,R,,,,,,Block.xlsx,"你已经完成了整个实验（三个区组）。

请报告实验者已完成实验

非常感谢，再见！",-1.5,0,-1.5,right,LLRLL.png,,,,,0,1,1,1,1,2,26,23,,,,,,,,,,,,,,,,,,,,,,,,,,,,,,,,,,,,,,,,,,,,,,,,,,,,,,,,,,,,,,,,355.5944993000012,355.99482040002476,355.97843040002044,356.07954449998215,356.4805446000537,None,right,1,0.32318830001167953,356.4805446000537,None,355.97843040002044,356.07954449998215,356.07954449998215,None,356.8291869000532,None,,,,,,,11017,001,2024_Jan_04_1519,ANT,2021.2.3,59.9266737357379,
1,14,center,down,C,R,,,,,,Block.xlsx,"你已经完成了整个实验（三个区组）。

请报告实验者已完成实验

非常感谢，再见！",0,50,-1.5,right,RRRRR.png,,,,,0,1,1,1,1,3,27,13,,,,,,,,,,,,,,,,,,,,,,,,,,,,,,,,,,,,,,,,,,,,,,,,,,,,,,,,,,,,,,,,357.22949970001355,357.63136560004205,357.614317700034,357.7135760000674,358.11471580003854,None,right,1,0.32101169996894896,358.11471580003854,None,357.614317700034,357.7135760000674,357.7135760000674,None,358.46523119998164,None,,,,,,,11017,001,2024_Jan_04_1519,ANT,2021.2.3,59.9266737357379,
1,23,spatial,down,IC,L,,,,,,Block.xlsx,"你已经完成了整个实验（三个区组）。

请报告实验者已完成实验

非常感谢，再见！",-1.5,0,-1.5,left,RRLRR.png,,,,,0,1,1,1,1,4,28,22,,,,,,,,,,,,,,,,,,,,,,,,,,,,,,,,,,,,,,,,,,,,,,,,,,,,,,,,,,,,,,,,358.8655417000409,359.2659744999837,359.2511839000508,359.3682811000617,359.7500334000215,None,left,1,0.4138035998912528,359.7500334000215,None,359.2511839000508,359.3682811000617,359.3502073000418,None,360.18396619998384,None,,,,,,,11017,001,2024_Jan_04_1519,ANT,2021.2.3,59.9266737357379,
1,1,no,up,C,L,,,,,,Block.xlsx,"你已经完成了整个实验（三个区组）。

请报告实验者已完成实验

非常感谢，再见！",50,0,1.5,left,LLLLL.png,,,,,0,1,1,1,1,5,29,0,,,,,,,,,,,,,,,,,,,,,,,,,,,,,,,,,,,,,,,,,,,,,,,,,,,,,,,,,,,,,,,,360.58461660007015,360.98689180007204,360.9687463999726,361.0700473000761,361.46983580000233,None,left,1,0.5508578999433666,361.46983580000233,None,360.9687463999726,361.0700473000761,361.0700473000761,None,362.0366006999975,None,,,,,,,11017,001,2024_Jan_04_1519,ANT,2021.2.3,59.9266737357379,
1,21,spatial,down,C,L,,,,,,Block.xlsx,"你已经完成了整个实验（三个区组）。

请报告实验者已完成实验

非常感谢，再见！",-1.5,0,-1.5,left,LLLLL.png,,,,,0,1,1,1,1,6,30,20,,,,,,,,,,,,,,,,,,,,,,,,,,,,,,,,,,,,,,,,,,,,,,,,,,,,,,,,,,,,,,,,362.4371465999866,362.83946150005795,362.82123550004326,362.9221392000327,363.3218343000626,None,left,1,0.34626769996248186,363.3218343000626,None,362.82123550004326,362.9221392000327,362.9221392000327,None,363.68910349998623,None,,,,,,,11017,001,2024_Jan_04_1519,ANT,2021.2.3,59.9266737357379,
1,20,spatial,up,IC,R,,,,,,Block.xlsx,"你已经完成了整个实验（三个区组）。

请报告实验者已完成实验

非常感谢，再见！",1.5,0,1.5,right,LLRLL.png,,,,,0,1,1,1,1,7,31,19,,,,,,,,,,,,,,,,,,,,,,,,,,,,,,,,,,,,,,,,,,,,,,,,,,,,,,,,,,,,,,,,364.0895459000021,364.49165650003124,364.4736783000408,364.57418790005613,364.9763896999648,None,right,1,0.6195710999891162,364.9763896999648,None,364.4736783000408,364.57418790005613,364.57418790005613,None,365.62542210007086,None,,,,,,,11017,001,2024_Jan_04_1519,ANT,2021.2.3,59.9266737357379,
1,11,center,up,IC,L,,,,,,Block.xlsx,"你已经完成了整个实验（三个区组）。

请报告实验者已完成实验

非常感谢，再见！",0,50,1.5,left,RRLRR.png,,,,,0,1,1,1,1,8,32,10,,,,,,,,,,,,,,,,,,,,,,,,,,,,,,,,,,,,,,,,,,,,,,,,,,,,,,,,,,,,,,,,366.0268728999654,366.4273601999739,366.4098041000543,366.5100895999931,366.91109890001826,None,left,1,0.6450606998987496,366.91109890001826,None,366.4098041000543,366.5100895999931,366.5100895999931,None,367.5782157999929,None,,,,,,,11017,001,2024_Jan_04_1519,ANT,2021.2.3,59.9266737357379,
1,15,center,down,IC,L,,,,,,Block.xlsx,"你已经完成了整个实验（三个区组）。

请报告实验者已完成实验

非常感谢，再见！",0,50,-1.5,left,RRLRR.png,,,,,0,1,1,1,1,9,33,14,,,,,,,,,,,,,,,,,,,,,,,,,,,,,,,,,,,,,,,,,,,,,,,,,,,,,,,,,,,,,,,,367.97912839998025,368.3811184000224,368.3631924999645,368.4637408000417,368.862830099999,None,left,1,0.4609645999735221,368.862830099999,None,368.3631924999645,368.4637408000417,368.4637408000417,None,369.3475978000788,None,,,,,,,11017,001,2024_Jan_04_1519,ANT,2021.2.3,59.9266737357379,
1,24,spatial,down,IC,R,,,,,,Block.xlsx,"你已经完成了整个实验（三个区组）。

请报告实验者已完成实验

非常感谢，再见！",-1.5,0,-1.5,right,LLRLL.png,,,,,0,1,1,1,1,10,34,23,,,,,,,,,,,,,,,,,,,,,,,,,,,,,,,,,,,,,,,,,,,,,,,,,,,,,,,,,,,,,,,,369.7481512000086,370.1499854000285,370.1336370999925,370.25067179999314,370.63345349999145,None,right,1,0.39443330001085997,370.63345349999145,None,370.1336370999925,370.25067179999314,370.23281479999423,None,371.0512608999852,None,,,,,,,11017,001,2024_Jan_04_1519,ANT,2021.2.3,59.9266737357379,
1,13,center,down,C,L,,,,,,Block.xlsx,"你已经完成了整个实验（三个区组）。

请报告实验者已完成实验

非常感谢，再见！",0,50,-1.5,left,LLLLL.png,,,,,0,1,1,1,1,11,35,12,,,,,,,,,,,,,,,,,,,,,,,,,,,,,,,,,,,,,,,,,,,,,,,,,,,,,,,,,,,,,,,,371.451477900031,371.8512645000592,371.8360121999867,371.93481770006474,372.33536170003936,None,left,1,0.46044870000332594,372.33536170003936,None,371.8360121999867,371.93481770006474,371.93481770006474,None,372.8197705000639,None,,,,,,,11017,001,2024_Jan_04_1519,ANT,2021.2.3,59.9266737357379,
1,19,spatial,up,IC,L,,,,,,Block.xlsx,"你已经完成了整个实验（三个区组）。

请报告实验者已完成实验

非常感谢，再见！",1.5,0,1.5,left,RRLRR.png,,,,,0,1,1,1,1,12,36,18,,,,,,,,,,,,,,,,,,,,,,,,,,,,,,,,,,,,,,,,,,,,,,,,,,,,,,,,,,,,,,,,373.21997470001224,373.62283690006007,373.60467360005714,373.7049014000222,374.1065034000203,None,left,1,0.4013490999350324,374.1065034000203,None,373.60467360005714,373.7049014000222,373.7049014000222,None,374.53927259997,None,,,,,,,11017,001,2024_Jan_04_1519,ANT,2021.2.3,59.9266737357379,
1,4,no,up,IC,R,,,,,,Block.xlsx,"你已经完成了整个实验（三个区组）。

请报告实验者已完成实验

非常感谢，再见！",50,0,1.5,right,LLRLL.png,,,,,0,1,1,1,1,13,37,3,,,,,,,,,,,,,,,,,,,,,,,,,,,,,,,,,,,,,,,,,,,,,,,,,,,,,,,,,,,,,,,,374.93906570004765,375.3408857000759,375.3230468999827,375.4248091999907,375.82660380005836,None,right,1,0.6252658000448719,375.82660380005836,None,375.3230468999827,375.4248091999907,375.4248091999907,None,376.47475050005596,None,,,,,,,11017,001,2024_Jan_04_1519,ANT,2021.2.3,59.9266737357379,
1,12,center,up,IC,R,,,,,,Block.xlsx,"你已经完成了整个实验（三个区组）。

请报告实验者已完成实验

非常感谢，再见！",0,50,1.5,right,LLRLL.png,,,,,0,1,1,1,1,14,38,11,,,,,,,,,,,,,,,,,,,,,,,,,,,,,,,,,,,,,,,,,,,,,,,,,,,,,,,,,,,,,,,,376.87542140006553,377.2777920999797,377.2595121000195,377.3598750999663,377.76172640000004,None,right,1,0.554353499901481,377.76172640000004,None,377.2595121000195,377.3598750999663,377.3598750999663,None,378.34420290007256,None,,,,,,,11017,001,2024_Jan_04_1519,ANT,2021.2.3,59.9266737357379,
1,22,spatial,down,C,R,,,,,,Block.xlsx,"你已经完成了整个实验（三个区组）。

请报告实验者已完成实验

非常感谢，再见！",-1.5,0,-1.5,right,RRRRR.png,,,,,0,1,1,1,1,15,39,21,,,,,,,,,,,,,,,,,,,,,,,,,,,,,,,,,,,,,,,,,,,,,,,,,,,,,,,,,,,,,,,,378.745332499966,379.14645160001237,379.1293050000677,379.2303604000481,379.6316936999792,None,right,1,0.44447550002951175,379.6316936999792,None,379.1293050000677,379.2303604000481,379.2303604000481,None,380.09693270002026,None,,,,,,,11017,001,2024_Jan_04_1519,ANT,2021.2.3,59.9266737357379,
1,5,no,down,C,L,,,,,,Block.xlsx,"你已经完成了整个实验（三个区组）。

请报告实验者已完成实验

非常感谢，再见！",50,0,-1.5,left,LLLLL.png,,,,,0,1,1,1,1,16,40,4,,,,,,,,,,,,,,,,,,,,,,,,,,,,,,,,,,,,,,,,,,,,,,,,,,,,,,,,,,,,,,,,380.4974526000442,380.898529099999,380.88295290002134,380.9982748000184,381.383262700052,None,left,1,0.508524400065653,381.383262700052,None,380.88295290002134,380.9982748000184,380.9825285000261,None,381.9161634000484,None,,,,,,,11017,001,2024_Jan_04_1519,ANT,2021.2.3,59.9266737357379,
1,2,no,up,C,R,,,,,,Block.xlsx,"你已经完成了整个实验（三个区组）。

请报告实验者已完成实验

非常感谢，再见！",50,0,1.5,right,RRRRR.png,,,,,0,1,1,1,1,17,41,1,,,,,,,,,,,,,,,,,,,,,,,,,,,,,,,,,,,,,,,,,,,,,,,,,,,,,,,,,,,,,,,,382.31699710001703,382.7190413000062,382.70071460003965,382.80299920006655,383.201817400055,None,right,1,0.4580526000354439,383.201817400055,None,382.70071460003965,382.80299920006655,382.80299920006655,None,383.6855146000162,None,,,,,,,11017,001,2024_Jan_04_1519,ANT,2021.2.3,59.9266737357379,
1,10,center,up,C,R,,,,,,Block.xlsx,"你已经完成了整个实验（三个区组）。

请报告实验者已完成实验

非常感谢，再见！",0,50,1.5,right,RRRRR.png,,,,,0,1,1,1,1,18,42,9,,,,,,,,,,,,,,,,,,,,,,,,,,,,,,,,,,,,,,,,,,,,,,,,,,,,,,,,,,,,,,,,384.08614819997456,384.4865921000019,384.470474199974,384.5707885000156,384.9707137000514,None,right,1,0.41744059999473393,384.9707137000514,None,384.470474199974,384.5707885000156,384.5707885000156,None,385.40458059997763,None,,,,,,,11017,001,2024_Jan_04_1519,ANT,2021.2.3,59.9266737357379,
1,7,no,down,IC,L,,,,,,Block.xlsx,"你已经完成了整个实验（三个区组）。

请报告实验者已完成实验

非常感谢，再见！",50,0,-1.5,left,RRLRR.png,,,,,0,1,1,1,1,19,43,6,,,,,,,,,,,,,,,,,,,,,,,,,,,,,,,,,,,,,,,,,,,,,,,,,,,,,,,,,,,,,,,,385.8063596000429,386.2065808000043,386.19075750000775,386.2902968999697,386.6910773999989,None,left,1,0.5293709000106901,386.6910773999989,None,386.19075750000775,386.2902968999697,386.2902968999697,None,387.24083350005094,None,,,,,,,11017,001,2024_Jan_04_1519,ANT,2021.2.3,59.9266737357379,
1,14,center,down,C,R,,,,,,Block.xlsx,"你已经完成了整个实验（三个区组）。

请报告实验者已完成实验

非常感谢，再见！",0,50,-1.5,right,RRRRR.png,,,,,0,1,1,1,1,20,44,13,,,,,,,,,,,,,,,,,,,,,,,,,,,,,,,,,,,,,,,,,,,,,,,,,,,,,,,,,,,,,,,,387.6412818999961,388.04276730003767,388.02590610005427,388.1252155000111,388.52709970006254,None,right,1,0.48502660007216036,388.52709970006254,None,388.02590610005427,388.1252155000111,388.1252155000111,None,389.0431910000043,None,,,,,,,11017,001,2024_Jan_04_1519,ANT,2021.2.3,59.9266737357379,
1,4,no,up,IC,R,,,,,,Block.xlsx,"你已经完成了整个实验（三个区组）。

请报告实验者已完成实验

非常感谢，再见！",50,0,1.5,right,LLRLL.png,,,,,0,1,1,1,1,21,45,3,,,,,,,,,,,,,,,,,,,,,,,,,,,,,,,,,,,,,,,,,,,,,,,,,,,,,,,,,,,,,,,,389.4440165000269,389.8459525000071,389.82786980003584,389.928368999972,390.3300900000613,None,left,0,0.45782000001054257,390.3300900000613,None,389.82786980003584,389.928368999972,389.928368999972,None,390.81268690002616,None,,,,,,,11017,001,2024_Jan_04_1519,ANT,2021.2.3,59.9266737357379,
1,4,no,up,IC,R,,,,,,Block.xlsx,"你已经完成了整个实验（三个区组）。

请报告实验者已完成实验

非常感谢，再见！",50,0,1.5,right,LLRLL.png,,,,,0,1,1,1,1,22,46,3,,,,,,,,,,,,,,,,,,,,,,,,,,,,,,,,,,,,,,,,,,,,,,,,,,,,,,,,,,,,,,,,391.2131445000414,391.6144893000601,391.59830269997474,391.69940959999803,392.0996544000227,None,right,1,0.5682982999132946,392.0996544000227,None,391.59830269997474,391.69940959999803,391.69940959999803,None,392.6987455000635,None,,,,,,,11017,001,2024_Jan_04_1519,ANT,2021.2.3,59.9266737357379,
1,14,center,down,C,R,,,,,,Block.xlsx,"你已经完成了整个实验（三个区组）。

请报告实验者已完成实验

非常感谢，再见！",0,50,-1.5,right,RRRRR.png,,,,,0,1,1,1,1,23,47,13,,,,,,,,,,,,,,,,,,,,,,,,,,,,,,,,,,,,,,,,,,,,,,,,,,,,,,,,,,,,,,,,393.0993528000545,393.5006973000709,393.4844008999644,393.58470820006914,393.9850713000633,None,right,1,0.41103439999278635,393.9850713000633,None,393.4844008999644,393.58470820006914,393.58470820006914,None,394.41797770000994,None,,,,,,,11017,001,2024_Jan_04_1519,ANT,2021.2.3,59.9266737357379,
1,17,spatial,up,C,L,,,,,,Block.xlsx,"你已经完成了整个实验（三个区组）。

请报告实验者已完成实验

非常感谢，再见！",1.5,0,1.5,left,LLLLL.png,,,,,0,1,1,1,2,0,48,16,,,,,,,,,,,,,,,,,,,,,,,,,,,,,,,,,,,,,,,,,,,,,,,,,,,,,,,,,,,,,,,,394.81892069999594,395.2199569999939,395.20249280007556,395.30351019999944,395.7052730000578,None,left,1,0.5628802999854088,395.7052730000578,None,395.20249280007556,395.30351019999944,395.30351019999944,None,396.28750670002773,None,,,,,,,11017,001,2024_Jan_04_1519,ANT,2021.2.3,59.9266737357379,
1,13,center,down,C,L,,,,,,Block.xlsx,"你已经完成了整个实验（三个区组）。

请报告实验者已完成实验

非常感谢，再见！",0,50,-1.5,left,LLLLL.png,,,,,0,1,1,1,2,1,49,12,,,,,,,,,,,,,,,,,,,,,,,,,,,,,,,,,,,,,,,,,,,,,,,,,,,,,,,,,,,,,,,,396.688112600008,397.08902269997634,397.0724415000295,397.17366420000326,397.57354899996426,None,left,1,0.5264238000381738,397.57354899996426,None,397.0724415000295,397.17366420000326,397.17366420000326,None,398.1236722000176,None,,,,,,,11017,001,2024_Jan_04_1519,ANT,2021.2.3,59.9266737357379,
1,3,no,up,IC,L,,,,,,Block.xlsx,"你已经完成了整个实验（三个区组）。

请报告实验者已完成实验

非常感谢，再见！",50,0,1.5,left,RRLRR.png,,,,,0,1,1,1,2,2,50,2,,,,,,,,,,,,,,,,,,,,,,,,,,,,,,,,,,,,,,,,,,,,,,,,,,,,,,,,,,,,,,,,398.5250175000401,398.9259066999657,398.9079030000139,399.0098839000566,399.4092059000395,None,left,1,0.5789403000380844,399.4092059000395,None,398.9079030000139,399.0098839000566,399.0098839000566,None,400.0097162000602,None,,,,,,,11017,001,2024_Jan_04_1519,ANT,2021.2.3,59.9266737357379,
1,3,no,up,IC,L,,,,,,Block.xlsx,"你已经完成了整个实验（三个区组）。

请报告实验者已完成实验

非常感谢，再见！",50,0,1.5,left,RRLRR.png,,,,,0,1,1,1,2,3,51,2,,,,,,,,,,,,,,,,,,,,,,,,,,,,,,,,,,,,,,,,,,,,,,,,,,,,,,,,,,,,,,,,400.4100804000627,400.8122704999987,400.7941442000447,400.8959359000437,401.2955277999863,None,left,1,0.596534000011161,401.2955277999863,None,400.7941442000447,400.8959359000437,400.8959359000437,None,401.91271619999316,None,,,,,,,11017,001,2024_Jan_04_1519,ANT,2021.2.3,59.9266737357379,
1,8,no,down,IC,R,,,,,,Block.xlsx,"你已经完成了整个实验（三个区组）。

请报告实验者已完成实验

非常感谢，再见！",50,0,-1.5,right,LLRLL.png,,,,,0,1,1,1,2,4,52,7,,,,,,,,,,,,,,,,,,,,,,,,,,,,,,,,,,,,,,,,,,,,,,,,,,,,,,,,,,,,,,,,402.31344140006695,402.7142930000555,402.6976835000096,402.7978187999688,403.1985966999782,None,right,1,0.6853912000078708,403.1985966999782,None,402.6976835000096,402.7978187999688,402.7978187999688,None,403.9169656999875,None,,,,,,,11017,001,2024_Jan_04_1519,ANT,2021.2.3,59.9266737357379,
1,18,spatial,up,C,R,,,,,,Block.xlsx,"你已经完成了整个实验（三个区组）。

请报告实验者已完成实验

非常感谢，再见！",1.5,0,1.5,right,RRRRR.png,,,,,0,1,1,1,2,5,53,17,,,,,,,,,,,,,,,,,,,,,,,,,,,,,,,,,,,,,,,,,,,,,,,,,,,,,,,,,,,,,,,,404.3164490000345,404.71901170001365,404.7002992000198,404.80110739998054,405.2019077000441,None,right,1,0.3859844000544399,405.2019077000441,None,404.7002992000198,404.80110739998054,404.80110739998054,None,405.61791650007945,None,,,,,,,11017,001,2024_Jan_04_1519,ANT,2021.2.3,59.9266737357379,
1,23,spatial,down,IC,L,,,,,,Block.xlsx,"你已经完成了整个实验（三个区组）。

请报告实验者已完成实验

非常感谢，再见！",-1.5,0,-1.5,left,RRLRR.png,,,,,0,1,1,1,2,6,54,22,,,,,,,,,,,,,,,,,,,,,,,,,,,,,,,,,,,,,,,,,,,,,,,,,,,,,,,,,,,,,,,,406.01851379999425,406.41936220007483,406.40433970000595,406.5038024999667,406.90319790004287,None,left,1,0.4927426000358537,406.90319790004287,None,406.40433970000595,406.5038024999667,406.5038024999667,None,407.4206383000128,None,,,,,,,11017,001,2024_Jan_04_1519,ANT,2021.2.3,59.9266737357379,
1,20,spatial,up,IC,R,,,,,,Block.xlsx,"你已经完成了整个实验（三个区组）。

请报告实验者已完成实验

非常感谢，再见！",1.5,0,1.5,right,LLRLL.png,,,,,0,1,1,1,2,7,55,19,,,,,,,,,,,,,,,,,,,,,,,,,,,,,,,,,,,,,,,,,,,,,,,,,,,,,,,,,,,,,,,,407.8212404999649,408.2223395999754,408.20506609999575,408.3075901999837,408.70682960003614,None,right,1,0.4656039000255987,408.70682960003614,None,408.20506609999575,408.3075901999837,408.3075901999837,None,409.1899367000442,None,,,,,,,11017,001,2024_Jan_04_1519,ANT,2021.2.3,59.9266737357379,
1,1,no,up,C,L,,,,,,Block.xlsx,"你已经完成了整个实验（三个区组）。

请报告实验者已完成实验

非常感谢，再见！",50,0,1.5,left,LLLLL.png,,,,,0,1,1,1,2,8,56,0,,,,,,,,,,,,,,,,,,,,,,,,,,,,,,,,,,,,,,,,,,,,,,,,,,,,,,,,,,,,,,,,409.5915182000026,409.9918830000097,409.9759763000766,410.0753976000706,410.4759737000568,None,left,1,0.4960296000353992,410.4759737000568,None,409.9759763000766,410.0753976000706,410.0753976000706,None,410.99327770003583,None,,,,,,,11017,001,2024_Jan_04_1519,ANT,2021.2.3,59.9266737357379,
1,3,no,up,IC,L,,,,,,Block.xlsx,"你已经完成了整个实验（三个区组）。

请报告实验者已完成实验

非常感谢，再见！",50,0,1.5,left,RRLRR.png,,,,,0,1,1,1,2,9,57,2,,,,,,,,,,,,,,,,,,,,,,,,,,,,,,,,,,,,,,,,,,,,,,,,,,,,,,,,,,,,,,,,411.3938875000458,411.79566200007685,411.7770340000279,411.87873870006297,412.27869730000384,None,left,1,0.6132049999432638,412.27869730000384,None,411.7770340000279,411.87873870006297,411.87873870006297,None,412.91235500003677,None,,,,,,,11017,001,2024_Jan_04_1519,ANT,2021.2.3,59.9266737357379,
1,11,center,up,IC,L,,,,,,Block.xlsx,"你已经完成了整个实验（三个区组）。

请报告实验者已完成实验

非常感谢，再见！",0,50,1.5,left,RRLRR.png,,,,,0,1,1,1,2,10,58,10,,,,,,,,,,,,,,,,,,,,,,,,,,,,,,,,,,,,,,,,,,,,,,,,,,,,,,,,,,,,,,,,413.3126118000364,413.714003900066,413.6973234000616,413.7979269999778,414.19827529997565,None,left,1,0.5662127999821678,414.19827529997565,None,413.6973234000616,413.7979269999778,413.7979269999778,None,414.7814537000377,None,,,,,,,11017,001,2024_Jan_04_1519,ANT,2021.2.3,59.9266737357379,
1,12,center,up,IC,R,,,,,,Block.xlsx,"你已经完成了整个实验（三个区组）。

请报告实验者已完成实验

非常感谢，再见！",0,50,1.5,right,LLRLL.png,,,,,0,1,1,1,2,11,59,11,,,,,,,,,,,,,,,,,,,,,,,,,,,,,,,,,,,,,,,,,,,,,,,,,,,,,,,,,,,,,,,,415.1826346999733,415.5828289000783,415.5664146000054,415.66889900004026,416.0669675000245,None,right,1,0.5768520999699831,416.0669675000245,None,415.5664146000054,415.66889900004026,415.66889900004026,None,416.6676456000423,None,,,,,,,11017,001,2024_Jan_04_1519,ANT,2021.2.3,59.9266737357379,
1,20,spatial,up,IC,R,,,,,,Block.xlsx,"你已经完成了整个实验（三个区组）。

请报告实验者已完成实验

非常感谢，再见！",1.5,0,1.5,right,LLRLL.png,,,,,0,1,1,1,2,12,60,19,,,,,,,,,,,,,,,,,,,,,,,,,,,,,,,,,,,,,,,,,,,,,,,,,,,,,,,,,,,,,,,,417.0686762999976,417.4695604000008,417.4541298999684,417.5529352000449,417.95380330004264,None,right,1,0.37864380003884435,417.95380330004264,None,417.4541298999684,417.5529352000449,417.5529352000449,None,418.353484799969,None,,,,,,,11017,001,2024_Jan_04_1519,ANT,2021.2.3,59.9266737357379,
1,15,center,down,IC,L,,,,,,Block.xlsx,"你已经完成了整个实验（三个区组）。

请报告实验者已完成实验

非常感谢，再见！",0,50,-1.5,left,RRLRR.png,,,,,0,1,1,1,2,13,61,14,,,,,,,,,,,,,,,,,,,,,,,,,,,,,,,,,,,,,,,,,,,,,,,,,,,,,,,,,,,,,,,,418.75424819998443,419.15543460007757,419.1385467000073,419.23887930007186,419.6395032000728,None,left,1,0.6204193000448868,419.6395032000728,None,419.1385467000073,419.23887930007186,419.23887930007186,None,420.2897712000413,None,,,,,,,11017,001,2024_Jan_04_1519,ANT,2021.2.3,59.9266737357379,
1,19,spatial,up,IC,L,,,,,,Block.xlsx,"你已经完成了整个实验（三个区组）。

请报告实验者已完成实验

非常感谢，再见！",1.5,0,1.5,left,RRLRR.png,,,,,0,1,1,1,2,14,62,18,,,,,,,,,,,,,,,,,,,,,,,,,,,,,,,,,,,,,,,,,,,,,,,,,,,,,,,,,,,,,,,,420.6902894000523,421.09279570006765,421.07463669998106,421.1742890999885,421.5766069999663,None,left,1,0.45950250001624227,421.5766069999663,None,421.07463669998106,421.1742890999885,421.1742890999885,None,422.0590936000226,None,,,,,,,11017,001,2024_Jan_04_1519,ANT,2021.2.3,59.9266737357379,
1,10,center,up,C,R,,,,,,Block.xlsx,"你已经完成了整个实验（三个区组）。

请报告实验者已完成实验

非常感谢，再见！",0,50,1.5,right,RRRRR.png,,,,,0,1,1,1,2,15,63,9,,,,,,,,,,,,,,,,,,,,,,,,,,,,,,,,,,,,,,,,,,,,,,,,,,,,,,,,,,,,,,,,422.4595484000165,422.86154479999095,422.8436158000259,422.9436581999762,423.34417010005563,None,right,1,0.5000312000047415,423.34417010005563,None,422.8436158000259,422.9436581999762,422.9436581999762,None,423.8616301000584,None,,,,,,,11017,001,2024_Jan_04_1519,ANT,2021.2.3,59.9266737357379,
1,7,no,down,IC,L,,,,,,Block.xlsx,"你已经完成了整个实验（三个区组）。

请报告实验者已完成实验

非常感谢，再见！",50,0,-1.5,left,RRLRR.png,,,,,0,1,1,1,2,16,64,6,,,,,,,,,,,,,,,,,,,,,,,,,,,,,,,,,,,,,,,,,,,,,,,,,,,,,,,,,,,,,,,,424.2621128000319,424.66463929996826,424.6461783000268,424.74726019997615,425.1472473000176,None,left,1,0.6173245999962091,425.1472473000176,None,424.6461783000268,424.74726019997615,424.74726019997615,None,425.7811753000133,None,,,,,,,11017,001,2024_Jan_04_1519,ANT,2021.2.3,59.9266737357379,
1,10,center,up,C,R,,,,,,Block.xlsx,"你已经完成了整个实验（三个区组）。

请报告实验者已完成实验

非常感谢，再见！",0,50,1.5,right,RRRRR.png,,,,,0,1,1,1,2,17,65,9,,,,,,,,,,,,,,,,,,,,,,,,,,,,,,,,,,,,,,,,,,,,,,,,,,,,,,,,,,,,,,,,426.1817297000671,426.5830661000218,426.56623720005155,426.6660033999942,427.0668990999693,None,right,1,0.47318440000526607,427.0668990999693,None,426.56623720005155,426.6660033999942,426.6660033999942,None,427.56714140006807,None,,,,,,,11017,001,2024_Jan_04_1519,ANT,2021.2.3,59.9266737357379,
1,23,spatial,down,IC,L,,,,,,Block.xlsx,"你已经完成了整个实验（三个区组）。

请报告实验者已完成实验

非常感谢，再见！",-1.5,0,-1.5,left,RRLRR.png,,,,,0,1,1,1,2,18,66,22,,,,,,,,,,,,,,,,,,,,,,,,,,,,,,,,,,,,,,,,,,,,,,,,,,,,,,,,,,,,,,,,427.96788989997003,428.3702892999863,428.352283300017,428.45261000003666,428.85403170005884,None,left,1,0.4381763000274077,428.85403170005884,None,428.352283300017,428.45261000003666,428.45261000003666,None,429.3197076000506,None,,,,,,,11017,001,2024_Jan_04_1519,ANT,2021.2.3,59.9266737357379,
1,4,no,up,IC,R,,,,,,Block.xlsx,"你已经完成了整个实验（三个区组）。

请报告实验者已完成实验

非常感谢，再见！",50,0,1.5,right,LLRLL.png,,,,,0,1,1,1,2,19,67,3,,,,,,,,,,,,,,,,,,,,,,,,,,,,,,,,,,,,,,,,,,,,,,,,,,,,,,,,,,,,,,,,429.7203163000522,430.1214249000186,430.104882500018,430.2043690000428,430.6066855000099,None,right,1,0.5578762999502942,430.6066855000099,None,430.104882500018,430.2043690000428,430.2043690000428,None,431.1891140000662,None,,,,,,,11017,001,2024_Jan_04_1519,ANT,2021.2.3,59.9266737357379,
1,18,spatial,up,C,R,,,,,,Block.xlsx,"你已经完成了整个实验（三个区组）。

请报告实验者已完成实验

非常感谢，再见！",1.5,0,1.5,right,RRRRR.png,,,,,0,1,1,1,2,20,68,17,,,,,,,,,,,,,,,,,,,,,,,,,,,,,,,,,,,,,,,,,,,,,,,,,,,,,,,,,,,,,,,,431.58957579999696,431.99276920000557,431.9745760000078,432.0738948000362,432.4744384000078,None,right,1,0.40149200009182096,432.4744384000078,None,431.9745760000078,432.0738948000362,432.0738948000362,None,432.8915384999709,None,,,,,,,11017,001,2024_Jan_04_1519,ANT,2021.2.3,59.9266737357379,
1,17,spatial,up,C,L,,,,,,Block.xlsx,"你已经完成了整个实验（三个区组）。

请报告实验者已完成实验

非常感谢，再见！",1.5,0,1.5,left,LLLLL.png,,,,,0,1,1,1,2,21,69,16,,,,,,,,,,,,,,,,,,,,,,,,,,,,,,,,,,,,,,,,,,,,,,,,,,,,,,,,,,,,,,,,433.292357700062,433.69349350000266,433.6768390999641,433.7765532999765,434.1779142000014,None,left,1,0.48231230000965297,434.1779142000014,None,433.6768390999641,433.7765532999765,433.7765532999765,None,434.67769000004046,None,,,,,,,11017,001,2024_Jan_04_1519,ANT,2021.2.3,59.9266737357379,
1,8,no,down,IC,R,,,,,,Block.xlsx,"你已经完成了整个实验（三个区组）。

请报告实验者已完成实验

非常感谢，再见！",50,0,-1.5,right,LLRLL.png,,,,,0,1,1,1,2,22,70,7,,,,,,,,,,,,,,,,,,,,,,,,,,,,,,,,,,,,,,,,,,,,,,,,,,,,,,,,,,,,,,,,435.0781602000352,435.48019520007074,435.4626218000194,435.5625,435.96363410004415,None,right,1,0.561001900001429,435.96363410004415,None,435.4626218000194,435.5625,435.5625,None,436.5469112000428,None,,,,,,,11017,001,2024_Jan_04_1519,ANT,2021.2.3,59.9266737357379,
1,12,center,up,IC,R,,,,,,Block.xlsx,"你已经完成了整个实验（三个区组）。

请报告实验者已完成实验

非常感谢，再见！",0,50,1.5,right,LLRLL.png,,,,,0,1,1,1,2,23,71,11,,,,,,,,,,,,,,,,,,,,,,,,,,,,,,,,,,,,,,,,,,,,,,,,,,,,,,,,,,,,,,,,436.947720300057,437.3487390000373,437.3320142000448,437.432416500058,437.8323216000572,None,right,1,0.5557251999853179,437.8323216000572,None,437.3320142000448,437.432416500058,437.432416500058,None,438.41640830005053,None,,,,,,,11017,001,2024_Jan_04_1519,ANT,2021.2.3,59.9266737357379,
1,1,no,up,C,L,,,,,,Block.xlsx,"你已经完成了整个实验（三个区组）。

请报告实验者已完成实验

非常感谢，再见！",50,0,1.5,left,LLLLL.png,,,,,0,1,1,1,3,0,72,0,,,,,,,,,,,,,,,,,,,,,,,,,,,,,,,,,,,,,,,,,,,,,,,,,,,,,,,,,,,,,,,,438.8177185000386,439.2203339000698,439.2019411000656,439.30277279997244,439.70375900005456,None,left,1,0.44429640006273985,439.70375900005456,None,439.2019411000656,439.30277279997244,439.30277279997244,None,440.16924600000493,None,,,,,,,11017,001,2024_Jan_04_1519,ANT,2021.2.3,59.9266737357379,
1,18,spatial,up,C,R,,,,,,Block.xlsx,"你已经完成了整个实验（三个区组）。

请报告实验者已完成实验

非常感谢，再见！",1.5,0,1.5,right,RRRRR.png,,,,,0,1,1,1,3,1,73,17,,,,,,,,,,,,,,,,,,,,,,,,,,,,,,,,,,,,,,,,,,,,,,,,,,,,,,,,,,,,,,,,440.56953310000245,440.9707049999852,440.9548496999778,441.0540911999997,441.4555413000053,None,right,1,0.42829229997005314,441.4555413000053,None,440.9548496999778,441.0540911999997,441.0540911999997,None,441.90494849998504,None,,,,,,,11017,001,2024_Jan_04_1519,ANT,2021.2.3,59.9266737357379,
1,22,spatial,down,C,R,,,,,,Block.xlsx,"你已经完成了整个实验（三个区组）。

请报告实验者已完成实验

非常感谢，再见！",-1.5,0,-1.5,right,RRRRR.png,,,,,0,1,1,1,3,2,74,21,,,,,,,,,,,,,,,,,,,,,,,,,,,,,,,,,,,,,,,,,,,,,,,,,,,,,,,,,,,,,,,,442.3057249999838,442.706580099999,442.69101990002673,442.79110989999026,443.1904560000403,None,right,1,0.3897418000269681,443.1904560000403,None,442.69101990002673,442.79110989999026,442.79110989999026,None,443.6075517999707,None,,,,,,,11017,001,2024_Jan_04_1519,ANT,2021.2.3,59.9266737357379,
1,13,center,down,C,L,,,,,,Block.xlsx,"你已经完成了整个实验（三个区组）。

请报告实验者已完成实验

非常感谢，再见！",0,50,-1.5,left,LLLLL.png,,,,,0,1,1,1,3,3,75,12,,,,,,,,,,,,,,,,,,,,,,,,,,,,,,,,,,,,,,,,,,,,,,,,,,,,,,,,,,,,,,,,444.0087572999764,444.40885110001545,444.39411480003037,444.4927943999646,444.89343639998697,None,left,1,0.6867251000367105,444.89343639998697,None,444.39411480003037,444.4927943999646,444.4927943999646,None,445.6113216000376,None,,,,,,,11017,001,2024_Jan_04_1519,ANT,2021.2.3,59.9266737357379,
1,9,center,up,C,L,,,,,,Block.xlsx,"你已经完成了整个实验（三个区组）。

请报告实验者已完成实验

非常感谢，再见！",0,50,1.5,left,LLLLL.png,,,,,0,1,1,1,3,4,76,8,,,,,,,,,,,,,,,,,,,,,,,,,,,,,,,,,,,,,,,,,,,,,,,,,,,,,,,,,,,,,,,,446.0119625000516,446.4120043000439,446.39635950000957,446.4954672000604,446.8960549000185,None,left,1,0.43592269998043776,446.8960549000185,None,446.39635950000957,446.4954672000604,446.4954672000604,None,447.3464038000675,None,,,,,,,11017,001,2024_Jan_04_1519,ANT,2021.2.3,59.9266737357379,
1,7,no,down,IC,L,,,,,,Block.xlsx,"你已经完成了整个实验（三个区组）。

请报告实验者已完成实验

非常感谢，再见！",50,0,-1.5,left,RRLRR.png,,,,,0,1,1,1,3,5,77,6,,,,,,,,,,,,,,,,,,,,,,,,,,,,,,,,,,,,,,,,,,,,,,,,,,,,,,,,,,,,,,,,447.7479350999929,448.1479648000095,448.1320884000743,448.2313834000379,448.63166539999656,None,left,1,0.6361576999770477,448.63166539999656,None,448.1320884000743,448.2313834000379,448.2313834000379,None,449.29934390005656,None,,,,,,,11017,001,2024_Jan_04_1519,ANT,2021.2.3,59.9266737357379,
1,2,no,up,C,R,,,,,,Block.xlsx,"你已经完成了整个实验（三个区组）。

请报告实验者已完成实验

非常感谢，再见！",50,0,1.5,right,RRRRR.png,,,,,0,1,1,1,3,6,78,1,,,,,,,,,,,,,,,,,,,,,,,,,,,,,,,,,,,,,,,,,,,,,,,,,,,,,,,,,,,,,,,,449.70085150003433,450.1003304000478,450.0844215999823,450.1856614999706,450.585333700059,None,right,1,0.674607300083153,450.585333700059,None,450.0844215999823,450.1856614999706,450.1856614999706,None,451.2860388000263,None,,,,,,,11017,001,2024_Jan_04_1519,ANT,2021.2.3,59.9266737357379,
1,16,center,down,IC,R,,,,,,Block.xlsx,"你已经完成了整个实验（三个区组）。

请报告实验者已完成实验

非常感谢，再见！",0,50,-1.5,right,LLRLL.png,,,,,0,1,1,1,3,7,79,15,,,,,,,,,,,,,,,,,,,,,,,,,,,,,,,,,,,,,,,,,,,,,,,,,,,,,,,,,,,,,,,,451.6861094000051,452.08780199999455,452.0701620000182,452.1712579000741,452.57301170006394,None,right,1,0.5829749000258744,452.57301170006394,None,452.0701620000182,452.1712579000741,452.1712579000741,None,453.1717583000427,None,,,,,,,11017,001,2024_Jan_04_1519,ANT,2021.2.3,59.9266737357379,
1,18,spatial,up,C,R,,,,,,Block.xlsx,"你已经完成了整个实验（三个区组）。

请报告实验者已完成实验

非常感谢，再见！",1.5,0,1.5,right,RRRRR.png,,,,,0,1,1,1,3,8,80,17,,,,,,,,,,,,,,,,,,,,,,,,,,,,,,,,,,,,,,,,,,,,,,,,,,,,,,,,,,,,,,,,453.57240309996996,453.9742828999879,453.95648990001064,454.0586452999851,454.457651100005,None,right,1,0.45818830002099276,454.457651100005,None,453.95648990001064,454.0586452999851,454.0586452999851,None,454.94220100005623,None,,,,,,,11017,001,2024_Jan_04_1519,ANT,2021.2.3,59.9266737357379,
1,9,center,up,C,L,,,,,,Block.xlsx,"你已经完成了整个实验（三个区组）。

请报告实验者已完成实验

非常感谢，再见！",0,50,1.5,left,LLLLL.png,,,,,0,1,1,1,3,9,81,8,,,,,,,,,,,,,,,,,,,,,,,,,,,,,,,,,,,,,,,,,,,,,,,,,,,,,,,,,,,,,,,,455.34236750006676,455.7423454000382,455.7273061000742,455.82718360004947,456.2262408999959,None,left,1,0.4504762999713421,456.2262408999959,None,455.7273061000742,455.82718360004947,455.82718360004947,None,456.6935914000496,None,,,,,,,11017,001,2024_Jan_04_1519,ANT,2021.2.3,59.9266737357379,
1,8,no,down,IC,R,,,,,,Block.xlsx,"你已经完成了整个实验（三个区组）。

请报告实验者已完成实验

非常感谢，再见！",50,0,-1.5,right,LLRLL.png,,,,,0,1,1,1,3,10,82,7,,,,,,,,,,,,,,,,,,,,,,,,,,,,,,,,,,,,,,,,,,,,,,,,,,,,,,,,,,,,,,,,457.0940832999768,457.4953854000196,457.4800983000314,457.57838199997786,457.9792355999816,None,right,1,0.6407416000729427,457.9792355999816,None,457.4800983000314,457.57838199997786,457.57838199997786,None,458.64656160003506,None,,,,,,,11017,001,2024_Jan_04_1519,ANT,2021.2.3,59.9266737357379,
1,5,no,down,C,L,,,,,,Block.xlsx,"你已经完成了整个实验（三个区组）。

请报告实验者已完成实验

非常感谢，再见！",50,0,-1.5,left,LLLLL.png,,,,,0,1,1,1,3,11,83,4,,,,,,,,,,,,,,,,,,,,,,,,,,,,,,,,,,,,,,,,,,,,,,,,,,,,,,,,,,,,,,,,459.04780840000603,459.4488679000642,459.43105220003054,459.5325100000482,459.9324701000005,None,left,1,0.5034227999858558,459.9324701000005,None,459.43105220003054,459.5325100000482,459.5325100000482,None,460.46604359999765,None,,,,,,,11017,001,2024_Jan_04_1519,ANT,2021.2.3,59.9266737357379,
1,3,no,up,IC,L,,,,,,Block.xlsx,"你已经完成了整个实验（三个区组）。

请报告实验者已完成实验

非常感谢，再见！",50,0,1.5,left,RRLRR.png,,,,,0,1,1,1,3,12,84,2,,,,,,,,,,,,,,,,,,,,,,,,,,,,,,,,,,,,,,,,,,,,,,,,,,,,,,,,,,,,,,,,460.86704230005853,461.2682352999691,461.2511345000239,461.3509066000115,461.75169609999284,None,left,1,0.47639590001199394,461.75169609999284,None,461.2511345000239,461.3509066000115,461.3509066000115,None,462.2519671000773,None,,,,,,,11017,001,2024_Jan_04_1519,ANT,2021.2.3,59.9266737357379,
1,16,center,down,IC,R,,,,,,Block.xlsx,"你已经完成了整个实验（三个区组）。

请报告实验者已完成实验

非常感谢，再见！",0,50,-1.5,right,LLRLL.png,,,,,0,1,1,1,3,13,85,15,,,,,,,,,,,,,,,,,,,,,,,,,,,,,,,,,,,,,,,,,,,,,,,,,,,,,,,,,,,,,,,,462.6523704000283,463.0537392999977,463.03707720001694,463.1373042999767,463.53805900004227,None,right,1,0.5380577000323683,463.53805900004227,None,463.03707720001694,463.1373042999767,463.1373042999767,None,464.1047480000416,None,,,,,,,11017,001,2024_Jan_04_1519,ANT,2021.2.3,59.9266737357379,
1,17,spatial,up,C,L,,,,,,Block.xlsx,"你已经完成了整个实验（三个区组）。

请报告实验者已完成实验

非常感谢，再见！",1.5,0,1.5,left,LLLLL.png,,,,,0,1,1,1,3,14,86,16,,,,,,,,,,,,,,,,,,,,,,,,,,,,,,,,,,,,,,,,,,,,,,,,,,,,,,,,,,,,,,,,464.5058283000253,464.90652800002135,464.88996689999476,464.99013950000517,465.391729200026,None,left,1,0.32414639997296035,465.391729200026,None,464.88996689999476,464.99013950000517,464.99013950000517,None,465.74041329999454,None,,,,,,,11017,001,2024_Jan_04_1519,ANT,2021.2.3,59.9266737357379,
1,24,spatial,down,IC,R,,,,,,Block.xlsx,"你已经完成了整个实验（三个区组）。

请报告实验者已完成实验

非常感谢，再见！",-1.5,0,-1.5,right,LLRLL.png,,,,,0,1,1,1,3,15,87,23,,,,,,,,,,,,,,,,,,,,,,,,,,,,,,,,,,,,,,,,,,,,,,,,,,,,,,,,,,,,,,,,466.14150789997075,466.54334480001125,466.52498069999274,466.626483,467.02675810002256,None,right,1,0.3690626999596134,467.02675810002256,None,466.52498069999274,466.626483,466.626483,None,467.42620830005035,None,,,,,,,11017,001,2024_Jan_04_1519,ANT,2021.2.3,59.9266737357379,
1,6,no,down,C,R,,,,,,Block.xlsx,"你已经完成了整个实验（三个区组）。

请报告实验者已完成实验

非常感谢，再见！",50,0,-1.5,right,RRRRR.png,,,,,0,1,1,1,3,16,88,5,,,,,,,,,,,,,,,,,,,,,,,,,,,,,,,,,,,,,,,,,,,,,,,,,,,,,,,,,,,,,,,,467.82682840002235,468.229318000027,468.2110332000302,468.312908199965,468.7119106000755,None,right,1,0.49207359994761646,468.7119106000755,None,468.2110332000302,468.312908199965,468.312908199965,None,469.22951309999917,None,,,,,,,11017,001,2024_Jan_04_1519,ANT,2021.2.3,59.9266737357379,
1,2,no,up,C,R,,,,,,Block.xlsx,"你已经完成了整个实验（三个区组）。

请报告实验者已完成实验

非常感谢，再见！",50,0,1.5,right,RRRRR.png,,,,,0,1,1,1,3,17,89,1,,,,,,,,,,,,,,,,,,,,,,,,,,,,,,,,,,,,,,,,,,,,,,,,,,,,,,,,,,,,,,,,469.6299951999681,470.0308837000048,470.0140850000316,470.11425760004204,470.5151749000652,None,right,1,0.40069759998004884,470.5151749000652,None,470.0140850000316,470.11425760004204,470.11425760004204,None,470.9314458000008,None,,,,,,,11017,001,2024_Jan_04_1519,ANT,2021.2.3,59.9266737357379,
1,21,spatial,down,C,L,,,,,,Block.xlsx,"你已经完成了整个实验（三个区组）。

请报告实验者已完成实验

非常感谢，再见！",-1.5,0,-1.5,left,LLLLL.png,,,,,0,1,1,1,3,18,90,20,,,,,,,,,,,,,,,,,,,,,,,,,,,,,,,,,,,,,,,,,,,,,,,,,,,,,,,,,,,,,,,,471.332042700029,471.7342359999893,471.71600969997235,471.8164339000359,472.2172193999868,None,left,1,0.3147954000160098,472.2172193999868,None,471.71600969997235,471.8164339000359,471.8164339000359,None,472.5503907999955,None,,,,,,,11017,001,2024_Jan_04_1519,ANT,2021.2.3,59.9266737357379,
1,9,center,up,C,L,,,,,,Block.xlsx,"你已经完成了整个实验（三个区组）。

请报告实验者已完成实验

非常感谢，再见！",0,50,1.5,left,LLLLL.png,,,,,0,1,1,1,3,19,91,8,,,,,,,,,,,,,,,,,,,,,,,,,,,,,,,,,,,,,,,,,,,,,,,,,,,,,,,,,,,,,,,,472.9519754999783,473.35235020006076,473.33570170006715,473.43514469999354,473.83572880004067,None,left,1,0.4329655000474304,473.83572880004067,None,473.33570170006715,473.43514469999354,473.43514469999354,None,474.2863696999848,None,,,,,,,11017,001,2024_Jan_04_1519,ANT,2021.2.3,59.9266737357379,
1,8,no,down,IC,R,,,,,,Block.xlsx,"你已经完成了整个实验（三个区组）。

请报告实验者已完成实验

非常感谢，再见！",50,0,-1.5,right,LLRLL.png,,,,,0,1,1,1,3,20,92,7,,,,,,,,,,,,,,,,,,,,,,,,,,,,,,,,,,,,,,,,,,,,,,,,,,,,,,,,,,,,,,,,474.6876786999637,475.08939930005,475.0709927000571,475.1715404000133,475.5725005000131,None,right,1,0.6473653999855742,475.5725005000131,None,475.0709927000571,475.1715404000133,475.1715404000133,None,476.2391940000234,None,,,,,,,11017,001,2024_Jan_04_1519,ANT,2021.2.3,59.9266737357379,
1,19,spatial,up,IC,L,,,,,,Block.xlsx,"你已经完成了整个实验（三个区组）。

请报告实验者已完成实验

