TrialType,TrialNumber,WarningType,TargetType,FlankerType,TargetDirection,W,f,Y,corr,imageFile,condition,endtext,Yw,Yf,Yt,Corr,imagefile,trials_3.thisRepN,trials_3.thisTrialN,trials_3.thisN,trials_3.thisIndex,trials_2.thisRepN,trials_2.thisTrialN,trials_2.thisN,trials_2.thisIndex,trials.thisRepN,trials.thisTrialN,trials.thisN,trials.thisIndex,instr.started,instr.stopped,key_resp.keys,key_resp.rt,key_resp.started,key_resp.stopped,image.started,image.stopped,key_resp_6.keys,key_resp_6.rt,key_resp_6.started,key_resp_6.stopped,EX_L.started,EX_L.stopped,AL.started,AL.stopped,key_resp_7.keys,key_resp_7.rt,key_resp_7.started,key_resp_7.stopped,EX_R.started,EX_R.stopped,RR.started,RR.stopped,key_resp_8.keys,key_resp_8.rt,key_resp_8.started,key_resp_8.stopped,image_2.started,image_2.stopped,key_resp_9.keys,key_resp_9.rt,key_resp_9.started,key_resp_9.stopped,image_3.started,image_3.stopped,key_resp_10.keys,key_resp_10.rt,key_resp_10.started,key_resp_10.stopped,fix.started,fix.stopped,war.started,war.stopped,tar.started,tar.stopped,key_resp_4.keys,key_resp_4.corr,key_resp_4.rt,key_resp_4.started,key_resp_4.stopped,fix2.started,fix2.stopped,fix_2.started,fix_2.stopped,Feedback.started,Feedback.stopped,text.started,text.stopped,key_resp_11.keys,key_resp_11.rt,key_resp_11.started,key_resp_11.stopped,key_resp_2.keys,key_resp_2.rt,key_resp_2.started,key_resp_2.stopped,text_5.started,text_5.stopped,fix2_1.started,fix2_1.stopped,Warn.started,Warn.stopped,Tar.started,Tar.stopped,key_resp_5.keys,key_resp_5.corr,key_resp_5.rt,key_resp_5.started,key_resp_5.stopped,Fix_2.started,Fix_2.stopped,fix2_2.started,fix2_2.stopped,text_4.started,text_4.stopped,key_resp_3.keys,key_resp_3.rt,key_resp_3.started,key_resp_3.stopped,text_3.started,text_3.stopped,participant,session,date,expName,psychopyVersion,frameRate,
,,,,,,,,,,,,,,,,,,,,,,,,,,,,,,10.86263740004506,None,space,125.48749269999098,10.86263740004506,None,,,,,,,,,,,,,,,,,,,,,,,,,,,,,,,,,,,,,,,,,,,,,,,,,,,,,,,,,,,,,,,,,,,,,,,,,,,,,,,,,,,,,,,11010,001,2024_Jan_01_1948,ANT,2021.2.3,59.81655457932141,
,,,,,,,,,,,,,,,,,,,,,,,,,,,,,,,,,,,,136.36538370000198,None,space,2.8725492999656126,136.36538370000198,None,,,,,,,,,,,,,,,,,,,,,,,,,,,,,,,,,,,,,,,,,,,,,,,,,,,,,,,,,,,,,,,,,,,,,,,,,,,,,,,,,11010,001,2024_Jan_01_1948,ANT,2021.2.3,59.81655457932141,
,,,,,,,,,,,,,,,,,,,,,,,,,,,,,,,,,,,,,,,,,,139.27011530002346,None,139.27011530002346,None,left,3.736538900004234,139.27011530002346,None,,,,,,,,,,,,,,,,,,,,,,,,,,,,,,,,,,,,,,,,,,,,,,,,,,,,,,,,,,,,,,,,,,,,,,,,,11010,001,2024_Jan_01_1948,ANT,2021.2.3,59.81655457932141,
,,,,,,,,,,,,,,,,,,,,,,,,,,,,,,,,,,,,,,,,,,,,,,,,,,143.0253992000362,None,143.0253992000362,None,right,1.1087749000289477,143.0253992000362,None,,,,,,,,,,,,,,,,,,,,,,,,,,,,,,,,,,,,,,,,,,,,,,,,,,,,,,,,,,,,,,,,,11010,001,2024_Jan_01_1948,ANT,2021.2.3,59.81655457932141,
,,,,,,,,,,,,,,,,,,,,,,,,,,,,,,,,,,,,,,,,,,,,,,,,,,,,,,,,,,144.16010060004191,None,space,2.710697800037451,144.16010060004191,None,,,,,,,,,,,,,,,,,,,,,,,,,,,,,,,,,,,,,,,,,,,,,,,,,,,,,,,,,,,11010,001,2024_Jan_01_1948,ANT,2021.2.3,59.81655457932141,
,,,,,,,,,,,,,,,,,,,,,,,,,,,,,,,,,,,,,,,,,,,,,,,,,,,,,,,,,,,,,,,,146.89774010004476,None,space,2.1242451000143774,146.89774010004476,None,,,,,,,,,,,,,,,,,,,,,,,,,,,,,,,,,,,,,,,,,,,,,,,,,,,,,11010,001,2024_Jan_01_1948,ANT,2021.2.3,59.81655457932141,
0,7,center,down,C,R,0,50,-1.5,right,RRRRR.png,,,,,,,,0,0,0,6,,,,,,,,,,,,,,,,,,,,,,,,,,,,,,,,,,,,,,,,,,,,,,,,,149.13440750003792,149.5356106000254,149.51924110000255,149.61943390005035,150.01966930000344,None,right,1,0.618384999979753,150.01966930000344,None,149.51924110000255,149.61943390005035,149.61943390005035,None,150.6706285000546,None,,,,,,,,,,,,,,,,,,,,,,,,,,,,,,,,,,,,11010,001,2024_Jan_01_1948,ANT,2021.2.3,59.81655457932141,
0,8,center,down,IC,L,0,50,-1.5,left,RRLRR.png,,,,,,,,0,1,1,7,,,,,,,,,,,,,,,,,,,,,,,,,,,,,,,,,,,,,,,,,,,,,,,,,152.67316600005142,153.07557970000198,153.05728830001317,153.1572616000194,153.5574497000198,None,left,1,1.4728017000015825,153.5574497000198,None,153.05728830001317,153.1572616000194,153.1572616000194,None,155.05978950002464,None,,,,,,,,,,,,,,,,,,,,,,,,,,,,,,,,,,,,11010,001,2024_Jan_01_1948,ANT,2021.2.3,59.81655457932141,
0,4,no,down,IC,L,50,0,-1.5,left,RRLRR.png,,,,,,,,0,2,2,3,,,,,,,,,,,,,,,,,,,,,,,,,,,,,,,,,,,,,,,,,,,,,,,,,157.06306390004465,157.46393570001237,157.44867150002392,157.5638120000367,157.9484982000431,None,left,1,0.969505199987907,157.9484982000431,None,157.44867150002392,157.5638120000367,157.54862960003084,None,158.9488824,None,,,,,,,,,,,,,,,,,,,,,,,,,,,,,,,,,,,,11010,001,2024_Jan_01_1948,ANT,2021.2.3,59.81655457932141,
0,6,center,up,IC,R,0,50,1.5,right,LLRLL.png,,,,,,,,0,3,3,5,,,,,,,,,,,,,,,,,,,,,,,,,,,,,,,,,,,,,,,,,,,,,,,,,160.95223960001022,161.353283000004,161.33841600001324,161.45280000002822,161.83731230004923,None,None,0,,161.83731230004923,None,161.33841600001324,161.45280000002822,161.43842510000104,None,163.53956020000624,None,,,,,,,,,,,,,,,,,,,,,,,,,,,,,,,,,,,,11010,001,2024_Jan_01_1948,ANT,2021.2.3,59.81655457932141,
0,5,center,up,C,L,0,50,1.5,left,LLLLL.png,,,,,,,,0,4,4,4,,,,,,,,,,,,,,,,,,,,,,,,,,,,,,,,,,,,,,,,,,,,,,,,,165.54232280002907,165.94353360001696,165.92599090002477,166.0270148999989,166.42838190001203,None,left,1,0.7778969000210054,166.42838190001203,None,165.92599090002477,166.0270148999989,166.0270148999989,None,167.22857430001022,None,,,,,,,,,,,,,,,,,,,,,,,,,,,,,,,,,,,,11010,001,2024_Jan_01_1948,ANT,2021.2.3,59.81655457932141,
0,9,spatial,up,C,R,1.5,0,1.5,right,RRRRR.png,,,,,,,,0,5,5,8,,,,,,,,,,,,,,,,,,,,,,,,,,,,,,,,,,,,,,,,,,,,,,,,,169.23098640004173,169.6314299000078,169.61553920002189,169.71565030002967,170.1158750000177,None,right,1,0.5069596000248566,170.1158750000177,None,169.61553920002189,169.71565030002967,169.71565030002967,None,170.64944100001594,None,,,,,,,,,,,,,,,,,,,,,,,,,,,,,,,,,,,,11010,001,2024_Jan_01_1948,ANT,2021.2.3,59.81655457932141,
0,2,no,up,IC,R,50,0,1.5,right,LLRLL.png,,,,,,,,0,6,6,1,,,,,,,,,,,,,,,,,,,,,,,,,,,,,,,,,,,,,,,,,,,,,,,,,172.65284840000095,173.05462690000422,173.0363314000424,173.13728490000358,173.53737050003838,None,right,1,0.6927318000234663,173.53737050003838,None,173.0363314000424,173.13728490000358,173.13728490000358,None,174.25474100001156,None,,,,,,,,,,,,,,,,,,,,,,,,,,,,,,,,,,,,11010,001,2024_Jan_01_1948,ANT,2021.2.3,59.81655457932141,
0,12,spatial,down,IC,R,-1.5,0,-1.5,right,LLRLL.png,,,,,,,,0,7,7,11,,,,,,,,,,,,,,,,,,,,,,,,,,,,,,,,,,,,,,,,,,,,,,,,,176.25830860005226,176.65846250002505,176.64211740001338,176.74283060000744,177.1442542000441,None,right,1,0.6299597999895923,177.1442542000441,None,176.64211740001338,176.74283060000744,176.74283060000744,None,177.79342910001287,None,,,,,,,,,,,,,,,,,,,,,,,,,,,,,,,,,,,,11010,001,2024_Jan_01_1948,ANT,2021.2.3,59.81655457932141,
0,1,no,up,C,L,50,0,1.5,left,LLLLL.png,,,,,,,,0,8,8,0,,,,,,,,,,,,,,,,,,,,,,,,,,,,,,,,,,,,,,,,,,,,,,,,,179.79740820004372,180.1979629000416,180.18033610004932,180.28150010004174,180.68124700000044,None,left,1,0.4689970000181347,180.68124700000044,None,180.18033610004932,180.28150010004174,180.28150010004174,None,181.1821713000536,None,,,,,,,,,,,,,,,,,,,,,,,,,,,,,,,,,,,,11010,001,2024_Jan_01_1948,ANT,2021.2.3,59.81655457932141,
0,11,spatial,down,C,L,-1.5,0,-1.5,left,LLLLL.png,,,,,,,,0,9,9,10,,,,,,,,,,,,,,,,,,,,,,,,,,,,,,,,,,,,,,,,,,,,,,,,,183.18495770002482,183.5854648000095,183.56884980003815,183.6717067999998,184.0709795000148,None,left,1,0.4795179999782704,184.0709795000148,None,183.56884980003815,183.6717067999998,183.6717067999998,None,184.57022230001166,None,,,,,,,,,,,,,,,,,,,,,,,,,,,,,,,,,,,,11010,001,2024_Jan_01_1948,ANT,2021.2.3,59.81655457932141,
0,3,no,down,C,R,50,0,-1.5,right,RRRRR.png,,,,,,,,0,10,10,2,,,,,,,,,,,,,,,,,,,,,,,,,,,,,,,,,,,,,,,,,,,,,,,,,186.57322750001913,186.97570230002748,186.95724800002063,187.0582458000281,187.4595409000176,None,right,1,0.5226084000314586,187.4595409000176,None,186.95724800002063,187.0582458000281,187.0582458000281,None,188.00847980001708,None,,,,,,,,,,,,,,,,,,,,,,,,,,,,,,,,,,,,11010,001,2024_Jan_01_1948,ANT,2021.2.3,59.81655457932141,
0,10,spatial,up,IC,L,1.5,0,1.5,left,RRLRR.png,,,,,,,,0,11,11,9,,,,,,,,,,,,,,,,,,,,,,,,,,,,,,,,,,,,,,,,,,,,,,,,,190.01238770002965,190.41436170000816,190.396402900049,190.49619900004473,190.89675300003728,None,left,1,0.485377500008326,190.89675300003728,None,190.396402900049,190.49619900004473,190.49619900004473,None,191.39696520002326,None,,,,,,,,,,,,,,,,,,,,,,,,,,,,,,,,,,,,11010,001,2024_Jan_01_1948,ANT,2021.2.3,59.81655457932141,
,,,,,,,,,,,,,,,,,,,,,,,,,,,,,,,,,,,,,,,,,,,,,,,,,,,,,,,,,,,,,,,,,,,,,,,,,,,,,,,,,,,,,,,193.39967610000167,None,space,3.5741238999762572,193.39967610000167,None,,,,,,,,,,,,,,,,,,,,,,,,,,,,,,11010,001,2024_Jan_01_1948,ANT,2021.2.3,59.81655457932141,
,,,,,,,,,,,,,,,,,,,,,,,,,,,,,,,,,,,,,,,,,,,,,,,,,,,,,,,,,,,,,,,,,,,,,,,,,,,,,,,,,,,,,,,,,,,,,space,14.60152119997656,197.00513240002329,None,,,,,,,,,,,,,,,,,,,,,,,,,,11010,001,2024_Jan_01_1948,ANT,2021.2.3,59.81655457932141,
1,23,spatial,down,IC,L,,,,,,Block.xlsx,"你已经完成了第一个实验区组

请稍作休息


点击空格键进入下一个区组。",-1.5,0,-1.5,left,RRLRR.png,,,,,0,0,0,0,0,0,0,22,,,,,,,,,,,,,,,,,,,,,,,,,,,,,,,,,,,,,,,,,,,,,,,,,,,,,,,,,,,,,,,,,,,,197.00513240002329,None,211.66144920000806,212.0620291000232,212.0442544000107,212.14593030000106,212.54640350001864,None,right,0,0.45955359999788925,212.54640350001864,None,212.0442544000107,212.14593030000106,212.14593030000106,None,213.02906550001353,None,,,,,,,11010,001,2024_Jan_01_1948,ANT,2021.2.3,59.81655457932141,
1,17,spatial,up,C,L,,,,,,Block.xlsx,"你已经完成了第一个实验区组

请稍作休息


点击空格键进入下一个区组。",1.5,0,1.5,left,LLLLL.png,,,,,0,0,0,0,0,1,1,16,,,,,,,,,,,,,,,,,,,,,,,,,,,,,,,,,,,,,,,,,,,,,,,,,,,,,,,,,,,,,,,,,,,,,,213.42973160004476,213.83104590000585,213.81418600003235,213.91411240003072,214.31557820003945,None,left,1,0.45149449998280033,214.31557820003945,None,213.81418600003235,213.91411240003072,213.91411240003072,None,214.7814117000089,None,,,,,,,11010,001,2024_Jan_01_1948,ANT,2021.2.3,59.81655457932141,
1,8,no,down,IC,R,,,,,,Block.xlsx,"你已经完成了第一个实验区组

请稍作休息


点击空格键进入下一个区组。",50,0,-1.5,right,LLRLL.png,,,,,0,0,0,0,0,2,2,7,,,,,,,,,,,,,,,,,,,,,,,,,,,,,,,,,,,,,,,,,,,,,,,,,,,,,,,,,,,,,,,,,,,,,,215.1822026000009,215.58312320004916,215.56784340000013,215.66639010002837,216.06831470003817,None,right,1,0.6830893000005744,216.06831470003817,None,215.56784340000013,215.66639010002837,215.66639010002837,None,216.76789499999722,None,,,,,,,11010,001,2024_Jan_01_1948,ANT,2021.2.3,59.81655457932141,
1,13,center,down,C,L,,,,,,Block.xlsx,"你已经完成了第一个实验区组

请稍作休息


点击空格键进入下一个区组。",0,50,-1.5,left,LLLLL.png,,,,,0,0,0,0,0,3,3,12,,,,,,,,,,,,,,,,,,,,,,,,,,,,,,,,,,,,,,,,,,,,,,,,,,,,,,,,,,,,,,,,,,,,,,217.16927030001534,217.5690763000166,217.55352930002846,217.65310120000504,218.0539064000477,None,left,1,0.6329602999612689,218.0539064000477,None,217.55352930002846,217.65310120000504,217.65310120000504,None,218.70408740005223,None,,,,,,,11010,001,2024_Jan_01_1948,ANT,2021.2.3,59.81655457932141,
1,24,spatial,down,IC,R,,,,,,Block.xlsx,"你已经完成了第一个实验区组

请稍作休息


点击空格键进入下一个区组。",-1.5,0,-1.5,right,LLRLL.png,,,,,0,0,0,0,0,4,4,23,,,,,,,,,,,,,,,,,,,,,,,,,,,,,,,,,,,,,,,,,,,,,,,,,,,,,,,,,,,,,,,,,,,,,,219.10490180004854,219.50565930001903,219.48855639999965,219.59056229999987,219.99031240004115,None,right,1,0.47970760002499446,219.99031240004115,None,219.48855639999965,219.59056229999987,219.59056229999987,None,220.48990810004761,None,,,,,,,11010,001,2024_Jan_01_1948,ANT,2021.2.3,59.81655457932141,
1,2,no,up,C,R,,,,,,Block.xlsx,"你已经完成了第一个实验区组

请稍作休息


点击空格键进入下一个区组。",50,0,1.5,right,RRRRR.png,,,,,0,0,0,0,0,5,5,1,,,,,,,,,,,,,,,,,,,,,,,,,,,,,,,,,,,,,,,,,,,,,,,,,,,,,,,,,,,,,,,,,,,,,,220.89103880000766,221.2919227000093,221.27499260002514,221.3752771000145,221.77769840002293,None,right,1,0.469042900018394,221.77769840002293,None,221.27499260002514,221.3752771000145,221.3752771000145,None,222.27641450002557,None,,,,,,,11010,001,2024_Jan_01_1948,ANT,2021.2.3,59.81655457932141,
1,2,no,up,C,R,,,,,,Block.xlsx,"你已经完成了第一个实验区组

请稍作休息


点击空格键进入下一个区组。",50,0,1.5,right,RRRRR.png,,,,,0,0,0,0,0,6,6,1,,,,,,,,,,,,,,,,,,,,,,,,,,,,,,,,,,,,,,,,,,,,,,,,,,,,,,,,,,,,,,,,,,,,,,222.67659920000006,223.07813860004535,223.0611007999978,223.16259330004686,223.56201330001932,None,right,1,0.4123198000015691,223.56201330001932,None,223.0611007999978,223.16259330004686,223.16259330004686,None,223.99534950003726,None,,,,,,,11010,001,2024_Jan_01_1948,ANT,2021.2.3,59.81655457932141,
1,8,no,down,IC,R,,,,,,Block.xlsx,"你已经完成了第一个实验区组

请稍作休息


点击空格键进入下一个区组。",50,0,-1.5,right,LLRLL.png,,,,,0,0,0,0,0,7,7,7,,,,,,,,,,,,,,,,,,,,,,,,,,,,,,,,,,,,,,,,,,,,,,,,,,,,,,,,,,,,,,,,,,,,,,224.39635930000804,224.7975182000082,224.77982010005508,224.88066760002403,225.28163130005123,None,right,1,0.6607956999796443,225.28163130005123,None,224.77982010005508,224.88066760002403,224.88066760002403,None,225.9647162000183,None,,,,,,,11010,001,2024_Jan_01_1948,ANT,2021.2.3,59.81655457932141,
1,3,no,up,IC,L,,,,,,Block.xlsx,"你已经完成了第一个实验区组

请稍作休息


点击空格键进入下一个区组。",50,0,1.5,left,RRLRR.png,,,,,0,0,0,0,0,8,8,2,,,,,,,,,,,,,,,,,,,,,,,,,,,,,,,,,,,,,,,,,,,,,,,,,,,,,,,,,,,,,,,,,,,,,,226.36604140000418,226.76803850004217,226.75026580004487,226.8505292000482,227.25048270000843,None,left,1,0.5317181999562308,227.25048270000843,None,226.75026580004487,226.8505292000482,226.8505292000482,None,227.801042600011,None,,,,,,,11010,001,2024_Jan_01_1948,ANT,2021.2.3,59.81655457932141,
1,11,center,up,IC,L,,,,,,Block.xlsx,"你已经完成了第一个实验区组

请稍作休息


点击空格键进入下一个区组。",0,50,1.5,left,RRLRR.png,,,,,0,0,0,0,0,9,9,10,,,,,,,,,,,,,,,,,,,,,,,,,,,,,,,,,,,,,,,,,,,,,,,,,,,,,,,,,,,,,,,,,,,,,,228.20143170002848,228.60273390001385,228.58713060000446,228.68594700004905,229.0884350000415,None,left,1,0.5977279999642633,229.0884350000415,None,228.58713060000446,228.68594700004905,228.68594700004905,None,229.70374990004348,None,,,,,,,11010,001,2024_Jan_01_1948,ANT,2021.2.3,59.81655457932141,
1,21,spatial,down,C,L,,,,,,Block.xlsx,"你已经完成了第一个实验区组

请稍作休息


点击空格键进入下一个区组。",-1.5,0,-1.5,left,LLLLL.png,,,,,0,0,0,0,0,10,10,20,,,,,,,,,,,,,,,,,,,,,,,,,,,,,,,,,,,,,,,,,,,,,,,,,,,,,,,,,,,,,,,,,,,,,,230.10474390001036,230.50559670000803,230.48966240003938,230.6064690000494,230.98982980003348,None,left,1,0.4567265000077896,230.98982980003348,None,230.48966240003938,230.6064690000494,230.58846480003558,None,231.4730027000187,None,,,,,,,11010,001,2024_Jan_01_1948,ANT,2021.2.3,59.81655457932141,
1,18,spatial,up,C,R,,,,,,Block.xlsx,"你已经完成了第一个实验区组

请稍作休息


点击空格键进入下一个区组。",1.5,0,1.5,right,RRRRR.png,,,,,0,0,0,0,0,11,11,17,,,,,,,,,,,,,,,,,,,,,,,,,,,,,,,,,,,,,,,,,,,,,,,,,,,,,,,,,,,,,,,,,,,,,,231.87460430001374,232.27512720000232,232.25768450001488,232.35882050002692,232.7582860000548,None,right,1,0.40112900000531226,232.7582860000548,None,232.25768450001488,232.35882050002692,232.35882050002692,None,233.17558960005408,None,,,,,,,11010,001,2024_Jan_01_1948,ANT,2021.2.3,59.81655457932141,
1,13,center,down,C,L,,,,,,Block.xlsx,"你已经完成了第一个实验区组

请稍作休息


点击空格键进入下一个区组。",0,50,-1.5,left,LLLLL.png,,,,,0,0,0,0,0,12,12,12,,,,,,,,,,,,,,,,,,,,,,,,,,,,,,,,,,,,,,,,,,,,,,,,,,,,,,,,,,,,,,,,,,,,,,233.5770081000519,233.97980170004303,233.96058290003566,234.06015330000082,234.46154899999965,None,left,1,0.4731646000291221,234.46154899999965,None,233.96058290003566,234.06015330000082,234.06015330000082,None,234.9613233000273,None,,,,,,,11010,001,2024_Jan_01_1948,ANT,2021.2.3,59.81655457932141,
1,15,center,down,IC,L,,,,,,Block.xlsx,"你已经完成了第一个实验区组

请稍作休息


点击空格键进入下一个区组。",0,50,-1.5,left,RRLRR.png,,,,,0,0,0,0,0,13,13,14,,,,,,,,,,,,,,,,,,,,,,,,,,,,,,,,,,,,,,,,,,,,,,,,,,,,,,,,,,,,,,,,,,,,,,235.36225820000982,235.76462740002898,235.7468710000394,235.8479403000092,236.24750650004717,None,left,1,0.5272300000069663,236.24750650004717,None,235.7468710000394,235.8479403000092,235.8479403000092,None,236.79753150005126,None,,,,,,,11010,001,2024_Jan_01_1948,ANT,2021.2.3,59.81655457932141,
1,1,no,up,C,L,,,,,,Block.xlsx,"你已经完成了第一个实验区组

请稍作休息


点击空格键进入下一个区组。",50,0,1.5,left,LLLLL.png,,,,,0,0,0,0,0,14,14,0,,,,,,,,,,,,,,,,,,,,,,,,,,,,,,,,,,,,,,,,,,,,,,,,,,,,,,,,,,,,,,,,,,,,,,237.19847630005097,237.6001796000055,237.58216200000606,237.68335510004545,238.08280610002112,None,left,1,0.45944050000980496,238.08280610002112,None,237.58216200000606,237.68335510004545,237.68335510004545,None,238.56693700002506,None,,,,,,,11010,001,2024_Jan_01_1948,ANT,2021.2.3,59.81655457932141,
1,18,spatial,up,C,R,,,,,,Block.xlsx,"你已经完成了第一个实验区组

请稍作休息


点击空格键进入下一个区组。",1.5,0,1.5,right,RRRRR.png,,,,,0,0,0,0,0,15,15,17,,,,,,,,,,,,,,,,,,,,,,,,,,,,,,,,,,,,,,,,,,,,,,,,,,,,,,,,,,,,,,,,,,,,,,238.9674447000143,239.36835220002104,239.35254190000705,239.45233480003662,239.85293850000016,None,right,1,0.4413135999930091,239.85293850000016,None,239.35254190000705,239.45233480003662,239.45233480003662,None,240.31935230002273,None,,,,,,,11010,001,2024_Jan_01_1948,ANT,2021.2.3,59.81655457932141,
1,14,center,down,C,R,,,,,,Block.xlsx,"你已经完成了第一个实验区组

请稍作休息


点击空格键进入下一个区组。",0,50,-1.5,right,RRRRR.png,,,,,0,0,0,0,0,16,16,13,,,,,,,,,,,,,,,,,,,,,,,,,,,,,,,,,,,,,,,,,,,,,,,,,,,,,,,,,,,,,,,,,,,,,,240.7205440000398,241.12145820003934,241.1054970000405,241.20538150001084,241.60556200001156,None,right,1,0.4494469999917783,241.60556200001156,None,241.1054970000405,241.20538150001084,241.20538150001084,None,242.0721722000162,None,,,,,,,11010,001,2024_Jan_01_1948,ANT,2021.2.3,59.81655457932141,
1,2,no,up,C,R,,,,,,Block.xlsx,"你已经完成了第一个实验区组

请稍作休息


点击空格键进入下一个区组。",50,0,1.5,right,RRRRR.png,,,,,0,0,0,0,0,17,17,1,,,,,,,,,,,,,,,,,,,,,,,,,,,,,,,,,,,,,,,,,,,,,,,,,,,,,,,,,,,,,,,,,,,,,,242.47263930004556,242.8742303000181,242.857290200016,242.9577772000339,243.3574387000408,None,right,1,0.4812975999666378,243.3574387000408,None,242.857290200016,242.9577772000339,242.9577772000339,None,243.85806749999756,None,,,,,,,11010,001,2024_Jan_01_1948,ANT,2021.2.3,59.81655457932141,
1,22,spatial,down,C,R,,,,,,Block.xlsx,"你已经完成了第一个实验区组

请稍作休息


点击空格键进入下一个区组。",-1.5,0,-1.5,right,RRRRR.png,,,,,0,0,0,0,0,18,18,21,,,,,,,,,,,,,,,,,,,,,,,,,,,,,,,,,,,,,,,,,,,,,,,,,,,,,,,,,,,,,,,,,,,,,,244.25936740002362,244.66056690004189,244.64340210001683,244.74293250002665,245.14338260004297,None,right,1,0.4791061000432819,245.14338260004297,None,244.64340210001683,244.74293250002665,244.74293250002665,None,245.64391900005285,None,,,,,,,11010,001,2024_Jan_01_1948,ANT,2021.2.3,59.81655457932141,
1,8,no,down,IC,R,,,,,,Block.xlsx,"你已经完成了第一个实验区组

请稍作休息


点击空格键进入下一个区组。",50,0,-1.5,right,LLRLL.png,,,,,0,0,0,0,0,19,19,7,,,,,,,,,,,,,,,,,,,,,,,,,,,,,,,,,,,,,,,,,,,,,,,,,,,,,,,,,,,,,,,,,,,,,,246.04627750004875,246.44591890001902,246.43040120002115,246.52857550000772,246.9297967000166,None,right,1,0.628287100000307,246.9297967000166,None,246.43040120002115,246.52857550000772,246.52857550000772,None,247.58027250005398,None,,,,,,,11010,001,2024_Jan_01_1948,ANT,2021.2.3,59.81655457932141,
1,24,spatial,down,IC,R,,,,,,Block.xlsx,"你已经完成了第一个实验区组

请稍作休息


点击空格键进入下一个区组。",-1.5,0,-1.5,right,LLRLL.png,,,,,0,0,0,0,0,20,20,23,,,,,,,,,,,,,,,,,,,,,,,,,,,,,,,,,,,,,,,,,,,,,,,,,,,,,,,,,,,,,,,,,,,,,,247.98151050001616,248.38210650003748,248.36482930002967,248.46654960000888,248.86673080001492,None,right,1,0.47553029999835417,248.86673080001492,None,248.36482930002967,248.46654960000888,248.46654960000888,None,249.36622850003187,None,,,,,,,11010,001,2024_Jan_01_1948,ANT,2021.2.3,59.81655457932141,
1,1,no,up,C,L,,,,,,Block.xlsx,"你已经完成了第一个实验区组

请稍作休息


点击空格键进入下一个区组。",50,0,1.5,left,LLLLL.png,,,,,0,0,0,0,0,21,21,0,,,,,,,,,,,,,,,,,,,,,,,,,,,,,,,,,,,,,,,,,,,,,,,,,,,,,,,,,,,,,,,,,,,,,,249.7668876000098,250.16821650002385,250.15180420002434,250.2525072999997,250.65313050005352,None,left,1,0.6730385999544524,250.65313050005352,None,250.15180420002434,250.2525072999997,250.2525072999997,None,251.35266060003778,None,,,,,,,11010,001,2024_Jan_01_1948,ANT,2021.2.3,59.81655457932141,
1,10,center,up,C,R,,,,,,Block.xlsx,"你已经完成了第一个实验区组

请稍作休息


点击空格键进入下一个区组。",0,50,1.5,right,RRRRR.png,,,,,0,0,0,0,0,22,22,9,,,,,,,,,,,,,,,,,,,,,,,,,,,,,,,,,,,,,,,,,,,,,,,,,,,,,,,,,,,,,,,,,,,,,,251.75388770003337,252.1542560000089,252.1370468000532,252.23743710003328,252.63820500002475,None,right,1,0.4561974999960512,252.63820500002475,None,252.1370468000532,252.23743710003328,252.23743710003328,None,253.12226820003707,None,,,,,,,11010,001,2024_Jan_01_1948,ANT,2021.2.3,59.81655457932141,
1,6,no,down,C,R,,,,,,Block.xlsx,"你已经完成了第一个实验区组

请稍作休息


点击空格键进入下一个区组。",50,0,-1.5,right,RRRRR.png,,,,,0,0,0,0,0,23,23,5,,,,,,,,,,,,,,,,,,,,,,,,,,,,,,,,,,,,,,,,,,,,,,,,,,,,,,,,,,,,,,,,,,,,,,253.52332100004423,253.92368260002695,253.9063107999973,254.00906820001546,254.40764130000025,None,right,1,0.4631623000022955,254.40764130000025,None,253.9063107999973,254.00906820001546,254.00906820001546,None,254.8911303000059,None,,,,,,,11010,001,2024_Jan_01_1948,ANT,2021.2.3,59.81655457932141,
1,6,no,down,C,R,,,,,,Block.xlsx,"你已经完成了第一个实验区组

请稍作休息


点击空格键进入下一个区组。",50,0,-1.5,right,RRRRR.png,,,,,0,0,0,0,1,0,24,5,,,,,,,,,,,,,,,,,,,,,,,,,,,,,,,,,,,,,,,,,,,,,,,,,,,,,,,,,,,,,,,,,,,,,,255.2924614000367,255.69301750004524,255.67604250001023,255.77636200003326,256.1771540000336,None,right,1,0.41365360002964735,256.1771540000336,None,255.67604250001023,255.77636200003326,255.77636200003326,None,256.61011840001447,None,,,,,,,11010,001,2024_Jan_01_1948,ANT,2021.2.3,59.81655457932141,
1,22,spatial,down,C,R,,,,,,Block.xlsx,"你已经完成了第一个实验区组

请稍作休息


点击空格键进入下一个区组。",-1.5,0,-1.5,right,RRRRR.png,,,,,0,0,0,0,1,1,25,21,,,,,,,,,,,,,,,,,,,,,,,,,,,,,,,,,,,,,,,,,,,,,,,,,,,,,,,,,,,,,,,,,,,,,,257.0108945000102,257.412838200049,257.3954526000307,257.4949215000379,257.8970129000372,None,right,1,0.4296784999896772,257.8970129000372,None,257.3954526000307,257.4949215000379,257.4949215000379,None,258.3461588000064,None,,,,,,,11010,001,2024_Jan_01_1948,ANT,2021.2.3,59.81655457932141,
1,23,spatial,down,IC,L,,,,,,Block.xlsx,"你已经完成了第一个实验区组

请稍作休息


点击空格键进入下一个区组。",-1.5,0,-1.5,left,RRLRR.png,,,,,0,0,0,0,1,2,26,22,,,,,,,,,,,,,,,,,,,,,,,,,,,,,,,,,,,,,,,,,,,,,,,,,,,,,,,,,,,,,,,,,,,,,,258.7473214000347,259.14750260004075,259.1323087000055,259.2315741000348,259.63196690002223,None,left,1,0.46213699999498203,259.63196690002223,None,259.1323087000055,259.2315741000348,259.2315741000348,None,260.115398599999,None,,,,,,,11010,001,2024_Jan_01_1948,ANT,2021.2.3,59.81655457932141,
1,19,spatial,up,IC,L,,,,,,Block.xlsx,"你已经完成了第一个实验区组

请稍作休息


点击空格键进入下一个区组。",1.5,0,1.5,left,RRLRR.png,,,,,0,0,0,0,1,3,27,18,,,,,,,,,,,,,,,,,,,,,,,,,,,,,,,,,,,,,,,,,,,,,,,,,,,,,,,,,,,,,,,,,,,,,,260.51695220003603,260.9178735000314,260.89989240001887,261.0012921000016,261.4016379000386,None,left,1,0.4852598999859765,261.4016379000386,None,260.89989240001887,261.0012921000016,261.0012921000016,None,261.90149220003514,None,,,,,,,11010,001,2024_Jan_01_1948,ANT,2021.2.3,59.81655457932141,
1,22,spatial,down,C,R,,,,,,Block.xlsx,"你已经完成了第一个实验区组

请稍作休息


点击空格键进入下一个区组。",-1.5,0,-1.5,right,RRRRR.png,,,,,0,0,0,0,1,4,28,21,,,,,,,,,,,,,,,,,,,,,,,,,,,,,,,,,,,,,,,,,,,,,,,,,,,,,,,,,,,,,,,,,,,,,,262.30213300004834,262.703437600052,262.68748540000524,262.7870204000501,263.18679380003596,None,right,1,0.3958273999742232,263.18679380003596,None,262.68748540000524,262.7870204000501,262.7870204000501,None,263.60388470004546,None,,,,,,,11010,001,2024_Jan_01_1948,ANT,2021.2.3,59.81655457932141,
1,11,center,up,IC,L,,,,,,Block.xlsx,"你已经完成了第一个实验区组

请稍作休息


点击空格键进入下一个区组。",0,50,1.5,left,RRLRR.png,,,,,0,0,0,0,1,5,29,10,,,,,,,,,,,,,,,,,,,,,,,,,,,,,,,,,,,,,,,,,,,,,,,,,,,,,,,,,,,,,,,,,,,,,,264.0055368000176,264.4057346000336,264.3888592000003,264.4896491000545,264.8896605000482,None,left,1,0.501648000034038,264.8896605000482,None,264.3888592000003,264.4896491000545,264.4896491000545,None,265.4065106000053,None,,,,,,,11010,001,2024_Jan_01_1948,ANT,2021.2.3,59.81655457932141,
1,19,spatial,up,IC,L,,,,,,Block.xlsx,"你已经完成了第一个实验区组

请稍作休息


点击空格键进入下一个区组。",1.5,0,1.5,left,RRLRR.png,,,,,0,0,0,0,1,6,30,18,,,,,,,,,,,,,,,,,,,,,,,,,,,,,,,,,,,,,,,,,,,,,,,,,,,,,,,,,,,,,,,,,,,,,,265.8080114000477,266.20903000002727,266.1914331000298,266.2928945000167,266.69341639999766,None,left,1,0.5208028000197373,266.69341639999766,None,266.1914331000298,266.2928945000167,266.2928945000167,None,267.2427800000296,None,,,,,,,11010,001,2024_Jan_01_1948,ANT,2021.2.3,59.81655457932141,
1,10,center,up,C,R,,,,,,Block.xlsx,"你已经完成了第一个实验区组

请稍作休息


点击空格键进入下一个区组。",0,50,1.5,right,RRRRR.png,,,,,0,0,0,0,1,7,31,9,,,,,,,,,,,,,,,,,,,,,,,,,,,,,,,,,,,,,,,,,,,,,,,,,,,,,,,,,,,,,,,,,,,,,,267.6435598000535,268.0460373000242,268.02778300002683,268.12952910002787,268.5279192000162,None,right,1,0.44675920001463965,268.5279192000162,None,268.02778300002683,268.12952910002787,268.12952910002787,None,268.99533610005165,None,,,,,,,11010,001,2024_Jan_01_1948,ANT,2021.2.3,59.81655457932141,
1,21,spatial,down,C,L,,,,,,Block.xlsx,"你已经完成了第一个实验区组

请稍作休息


点击空格键进入下一个区组。",-1.5,0,-1.5,left,LLLLL.png,,,,,0,0,0,0,1,8,32,20,,,,,,,,,,,,,,,,,,,,,,,,,,,,,,,,,,,,,,,,,,,,,,,,,,,,,,,,,,,,,,,,,,,,,,269.3960805000388,269.7986693000421,269.7806694000028,269.8802226000116,270.2814722000039,None,left,1,0.38887040002737194,270.2814722000039,None,269.7806694000028,269.8802226000116,269.8802226000116,None,270.6978926000302,None,,,,,,,11010,001,2024_Jan_01_1948,ANT,2021.2.3,59.81655457932141,
1,20,spatial,up,IC,R,,,,,,Block.xlsx,"你已经完成了第一个实验区组

请稍作休息


点击空格键进入下一个区组。",1.5,0,1.5,right,LLRLL.png,,,,,0,0,0,0,1,9,33,19,,,,,,,,,,,,,,,,,,,,,,,,,,,,,,,,,,,,,,,,,,,,,,,,,,,,,,,,,,,,,,,,,,,,,,271.09893630002625,271.5007586000138,271.4833289000089,271.5833567000227,271.98314130003564,None,right,1,0.4710434000007808,271.98314130003564,None,271.4833289000089,271.5833567000227,271.5833567000227,None,272.48384060000535,None,,,,,,,11010,001,2024_Jan_01_1948,ANT,2021.2.3,59.81655457932141,
1,12,center,up,IC,R,,,,,,Block.xlsx,"你已经完成了第一个实验区组

请稍作休息


点击空格键进入下一个区组。",0,50,1.5,right,LLRLL.png,,,,,0,0,0,0,1,10,34,11,,,,,,,,,,,,,,,,,,,,,,,,,,,,,,,,,,,,,,,,,,,,,,,,,,,,,,,,,,,,,,,,,,,,,,272.8845478000003,273.28510850004386,273.27144570002565,273.38726190000307,273.7697373999981,None,right,1,0.6046536999638192,273.7697373999981,None,273.27144570002565,273.38726190000307,273.3692441000021,None,274.4035546000232,None,,,,,,,11010,001,2024_Jan_01_1948,ANT,2021.2.3,59.81655457932141,
1,9,center,up,C,L,,,,,,Block.xlsx,"你已经完成了第一个实验区组

请稍作休息


点击空格键进入下一个区组。",0,50,1.5,left,LLLLL.png,,,,,0,0,0,0,1,11,35,8,,,,,,,,,,,,,,,,,,,,,,,,,,,,,,,,,,,,,,,,,,,,,,,,,,,,,,,,,,,,,,,,,,,,,,274.80464210000355,275.20470080000814,275.1891699000262,275.2896954000462,275.6906810000073,None,left,1,0.4754800000227988,275.6906810000073,None,275.1891699000262,275.2896954000462,275.2896954000462,None,276.18933730002027,None,,,,,,,11010,001,2024_Jan_01_1948,ANT,2021.2.3,59.81655457932141,
1,7,no,down,IC,L,,,,,,Block.xlsx,"你已经完成了第一个实验区组

请稍作休息


点击空格键进入下一个区组。",50,0,-1.5,left,RRLRR.png,,,,,0,0,0,0,1,12,36,6,,,,,,,,,,,,,,,,,,,,,,,,,,,,,,,,,,,,,,,,,,,,,,,,,,,,,,,,,,,,,,,,,,,,,,276.59043720003683,276.9913143000449,276.97380279999925,277.0745152000454,277.47460690001026,None,left,1,0.5320604000007734,277.47460690001026,None,276.97380279999925,277.0745152000454,277.0745152000454,None,278.02541460003704,None,,,,,,,11010,001,2024_Jan_01_1948,ANT,2021.2.3,59.81655457932141,
1,24,spatial,down,IC,R,,,,,,Block.xlsx,"你已经完成了第一个实验区组

请稍作休息


点击空格键进入下一个区组。",-1.5,0,-1.5,right,LLRLL.png,,,,,0,0,0,0,1,13,37,23,,,,,,,,,,,,,,,,,,,,,,,,,,,,,,,,,,,,,,,,,,,,,,,,,,,,,,,,,,,,,,,,,,,,,,278.42588330002036,278.82746020000195,278.8104850000236,278.9108276000479,279.3129582000547,None,right,1,0.46119380003074184,279.3129582000547,None,278.8104850000236,278.9108276000479,278.9108276000479,None,279.79485470004147,None,,,,,,,11010,001,2024_Jan_01_1948,ANT,2021.2.3,59.81655457932141,
1,16,center,down,IC,R,,,,,,Block.xlsx,"你已经完成了第一个实验区组

请稍作休息


点击空格键进入下一个区组。",0,50,-1.5,right,LLRLL.png,,,,,0,0,0,0,1,14,38,15,,,,,,,,,,,,,,,,,,,,,,,,,,,,,,,,,,,,,,,,,,,,,,,,,,,,,,,,,,,,,,,,,,,,,,280.1953422000515,280.5979199000285,280.57969510002295,280.68090259999735,281.08173200004967,None,right,1,0.5809607999981381,281.08173200004967,None,280.57969510002295,280.68090259999735,280.68090259999735,None,281.68073130003177,None,,,,,,,11010,001,2024_Jan_01_1948,ANT,2021.2.3,59.81655457932141,
1,9,center,up,C,L,,,,,,Block.xlsx,"你已经完成了第一个实验区组

请稍作休息


点击空格键进入下一个区组。",0,50,1.5,left,LLLLL.png,,,,,0,0,0,0,1,15,39,8,,,,,,,,,,,,,,,,,,,,,,,,,,,,,,,,,,,,,,,,,,,,,,,,,,,,,,,,,,,,,,,,,,,,,,282.08143730001757,282.48261480004294,282.4650825000135,282.5672187000164,282.9671602000017,None,left,1,0.45534919999772683,282.9671602000017,None,282.4650825000135,282.5672187000164,282.5672187000164,None,283.450101000024,None,,,,,,,11010,001,2024_Jan_01_1948,ANT,2021.2.3,59.81655457932141,
1,16,center,down,IC,R,,,,,,Block.xlsx,"你已经完成了第一个实验区组

请稍作休息


点击空格键进入下一个区组。",0,50,-1.5,right,LLRLL.png,,,,,0,0,0,0,1,16,40,15,,,,,,,,,,,,,,,,,,,,,,,,,,,,,,,,,,,,,,,,,,,,,,,,,,,,,,,,,,,,,,,,,,,,,,283.8507230000105,284.2535730000236,284.2350536000449,284.33494650002103,284.73564389999956,None,right,1,0.5670998999848962,284.73564389999956,None,284.2350536000449,284.33494650002103,284.33494650002103,None,285.3196065000375,None,,,,,,,11010,001,2024_Jan_01_1948,ANT,2021.2.3,59.81655457932141,
1,5,no,down,C,L,,,,,,Block.xlsx,"你已经完成了第一个实验区组

请稍作休息


点击空格键进入下一个区组。",50,0,-1.5,left,LLLLL.png,,,,,0,0,0,0,1,17,41,4,,,,,,,,,,,,,,,,,,,,,,,,,,,,,,,,,,,,,,,,,,,,,,,,,,,,,,,,,,,,,,,,,,,,,,285.72052060003625,286.12192030000733,286.1046991000185,286.2047619000077,286.6046504000551,None,left,1,0.4734582999954,286.6046504000551,None,286.1046991000185,286.2047619000077,286.2047619000077,None,287.10537140001543,None,,,,,,,11010,001,2024_Jan_01_1948,ANT,2021.2.3,59.81655457932141,
1,4,no,up,IC,R,,,,,,Block.xlsx,"你已经完成了第一个实验区组

请稍作休息


点击空格键进入下一个区组。",50,0,1.5,right,LLRLL.png,,,,,0,0,0,0,1,18,42,3,,,,,,,,,,,,,,,,,,,,,,,,,,,,,,,,,,,,,,,,,,,,,,,,,,,,,,,,,,,,,,,,,,,,,,287.5061205000384,287.90843950002454,287.8906341000111,287.9912998000509,288.3910307000042,None,right,1,0.5751976000028662,288.3910307000042,None,287.8906341000111,287.9912998000509,287.9912998000509,None,288.99170040001627,None,,,,,,,11010,001,2024_Jan_01_1948,ANT,2021.2.3,59.81655457932141,
1,10,center,up,C,R,,,,,,Block.xlsx,"你已经完成了第一个实验区组

请稍作休息


点击空格键进入下一个区组。",0,50,1.5,right,RRRRR.png,,,,,0,0,0,0,1,19,43,9,,,,,,,,,,,,,,,,,,,,,,,,,,,,,,,,,,,,,,,,,,,,,,,,,,,,,,,,,,,,,,,,,,,,,,289.3923478000215,289.7927356000291,289.77689500001725,289.87802280002506,290.27808570000343,None,right,1,0.41667110001435503,290.27808570000343,None,289.77689500001725,289.87802280002506,289.87802280002506,None,290.7109104000265,None,,,,,,,11010,001,2024_Jan_01_1948,ANT,2021.2.3,59.81655457932141,
1,7,no,down,IC,L,,,,,,Block.xlsx,"你已经完成了第一个实验区组

请稍作休息


点击空格键进入下一个区组。",50,0,-1.5,left,RRLRR.png,,,,,0,0,0,0,1,20,44,6,,,,,,,,,,,,,,,,,,,,,,,,,,,,,,,,,,,,,,,,,,,,,,,,,,,,,,,,,,,,,,,,,,,,,,291.1113027000101,291.5119804000133,291.49599630001467,291.59682100004284,291.99613500002306,None,left,1,0.6260530999861658,291.99613500002306,None,291.49599630001467,291.59682100004284,291.59682100004284,None,292.64697840000736,None,,,,,,,11010,001,2024_Jan_01_1948,ANT,2021.2.3,59.81655457932141,
1,17,spatial,up,C,L,,,,,,Block.xlsx,"你已经完成了第一个实验区组

请稍作休息


点击空格键进入下一个区组。",1.5,0,1.5,left,LLLLL.png,,,,,0,0,0,0,1,21,45,16,,,,,,,,,,,,,,,,,,,,,,,,,,,,,,,,,,,,,,,,,,,,,,,,,,,,,,,,,,,,,,,,,,,,,,293.04781360004563,293.45084830000997,293.43228420004016,293.5325276000076,293.9330046000541,None,left,1,0.48180349997710437,293.9330046000541,None,293.43228420004016,293.5325276000076,293.5325276000076,None,294.4328792000306,None,,,,,,,11010,001,2024_Jan_01_1948,ANT,2021.2.3,59.81655457932141,
1,19,spatial,up,IC,L,,,,,,Block.xlsx,"你已经完成了第一个实验区组

请稍作休息


点击空格键进入下一个区组。",1.5,0,1.5,left,RRLRR.png,,,,,0,0,0,0,1,22,46,18,,,,,,,,,,,,,,,,,,,,,,,,,,,,,,,,,,,,,,,,,,,,,,,,,,,,,,,,,,,,,,,,,,,,,,294.83362590003526,295.23577020002995,295.21816280001076,295.31905650004046,295.7197603000095,None,left,1,0.4624914000160061,295.7197603000095,None,295.21816280001076,295.31905650004046,295.31905650004046,None,296.20211270003347,None,,,,,,,11010,001,2024_Jan_01_1948,ANT,2021.2.3,59.81655457932141,
1,14,center,down,C,R,,,,,,Block.xlsx,"你已经完成了第一个实验区组

请稍作休息


点击空格键进入下一个区组。",0,50,-1.5,right,RRRRR.png,,,,,0,0,0,0,1,23,47,13,,,,,,,,,,,,,,,,,,,,,,,,,,,,,,,,,,,,,,,,,,,,,,,,,,,,,,,,,,,,,,,,,,,,,,296.6039078000467,297.0041877000476,296.9890494000283,297.1043353000423,297.4882321000332,None,right,1,0.40624690003460273,297.4882321000332,None,296.9890494000283,297.1043353000423,297.0869468000019,None,297.9214266000199,None,,,,,,,11010,001,2024_Jan_01_1948,ANT,2021.2.3,59.81655457932141,
1,7,no,down,IC,L,,,,,,Block.xlsx,"你已经完成了第一个实验区组

请稍作休息


点击空格键进入下一个区组。",50,0,-1.5,left,RRLRR.png,,,,,0,0,0,0,2,0,48,6,,,,,,,,,,,,,,,,,,,,,,,,,,,,,,,,,,,,,,,,,,,,,,,,,,,,,,,,,,,,,,,,,,,,,,298.3220514000277,298.72345900000073,298.70652320003137,298.80698310001753,299.20824639999773,None,left,1,0.5830673999735154,299.20824639999773,None,298.70652320003137,298.80698310001753,298.80698310001753,None,299.80758560000686,None,,,,,,,11010,001,2024_Jan_01_1948,ANT,2021.2.3,59.81655457932141,
1,5,no,down,C,L,,,,,,Block.xlsx,"你已经完成了第一个实验区组

请稍作休息


点击空格键进入下一个区组。",50,0,-1.5,left,LLLLL.png,,,,,0,0,0,0,2,1,49,4,,,,,,,,,,,,,,,,,,,,,,,,,,,,,,,,,,,,,,,,,,,,,,,,,,,,,,,,,,,,,,,,,,,,,,300.2092107000062,300.60966360004386,300.5948739000014,300.70895550004207,301.09331190004013,None,left,1,0.48911750002298504,301.09331190004013,None,300.5948739000014,300.70895550004207,300.6930872000521,None,301.6103869000217,None,,,,,,,11010,001,2024_Jan_01_1948,ANT,2021.2.3,59.81655457932141,
1,1,no,up,C,L,,,,,,Block.xlsx,"你已经完成了第一个实验区组

请稍作休息


点击空格键进入下一个区组。",50,0,1.5,left,LLLLL.png,,,,,0,0,0,0,2,2,50,0,,,,,,,,,,,,,,,,,,,,,,,,,,,,,,,,,,,,,,,,,,,,,,,,,,,,,,,,,,,,,,,,,,,,,,302.0109496000223,302.41161380003905,302.39573090005433,302.4955964999972,302.8957038000226,None,left,1,0.5676567000336945,302.8957038000226,None,302.39573090005433,302.4955964999972,302.4955964999972,None,303.480243100028,None,,,,,,,11010,001,2024_Jan_01_1948,ANT,2021.2.3,59.81655457932141,
1,4,no,up,IC,R,,,,,,Block.xlsx,"你已经完成了第一个实验区组

请稍作休息


点击空格键进入下一个区组。",50,0,1.5,right,LLRLL.png,,,,,0,0,0,0,2,3,51,3,,,,,,,,,,,,,,,,,,,,,,,,,,,,,,,,,,,,,,,,,,,,,,,,,,,,,,,,,,,,,,,,,,,,,,303.8810439000372,304.2831825000467,304.2653885000036,304.36471520003397,304.7651164000272,None,right,1,0.5053321999730542,304.7651164000272,None,304.2653885000036,304.36471520003397,304.36471520003397,None,305.2990714000189,None,,,,,,,11010,001,2024_Jan_01_1948,ANT,2021.2.3,59.81655457932141,
1,6,no,down,C,R,,,,,,Block.xlsx,"你已经完成了第一个实验区组

请稍作休息


点击空格键进入下一个区组。",50,0,-1.5,right,RRRRR.png,,,,,0,0,0,0,2,4,52,5,,,,,,,,,,,,,,,,,,,,,,,,,,,,,,,,,,,,,,,,,,,,,,,,,,,,,,,,,,,,,,,,,,,,,,305.69975420000264,306.1003884000238,306.0851115999976,306.1845733000082,306.58495140000014,None,right,1,0.525443600025028,306.58495140000014,None,306.0851115999976,306.1845733000082,306.1845733000082,None,307.13550420000684,None,,,,,,,11010,001,2024_Jan_01_1948,ANT,2021.2.3,59.81655457932141,
1,15,center,down,IC,L,,,,,,Block.xlsx,"你已经完成了第一个实验区组

请稍作休息


点击空格键进入下一个区组。",0,50,-1.5,left,RRLRR.png,,,,,0,0,0,0,2,5,53,14,,,,,,,,,,,,,,,,,,,,,,,,,,,,,,,,,,,,,,,,,,,,,,,,,,,,,,,,,,,,,,,,,,,,,,307.535803100036,307.9373087999993,307.91989180003293,308.021698400029,308.42226300004404,None,left,1,0.6162979999789968,308.42226300004404,None,307.91989180003293,308.021698400029,308.021698400029,None,309.0544579999987,None,,,,,,,11010,001,2024_Jan_01_1948,ANT,2021.2.3,59.81655457932141,
1,4,no,up,IC,R,,,,,,Block.xlsx,"你已经完成了第一个实验区组

请稍作休息


点击空格键进入下一个区组。",50,0,1.5,right,LLRLL.png,,,,,0,0,0,0,2,6,54,3,,,,,,,,,,,,,,,,,,,,,,,,,,,,,,,,,,,,,,,,,,,,,,,,,,,,,,,,,,,,,,,,,,,,,,309.45577600004617,309.85667690000264,309.84173650003504,309.956922100042,310.3412447000155,None,right,1,0.5928798000095412,310.3412447000155,None,309.84173650003504,309.956922100042,309.93964470003266,None,310.9574283999973,None,,,,,,,11010,001,2024_Jan_01_1948,ANT,2021.2.3,59.81655457932141,
1,17,spatial,up,C,L,,,,,,Block.xlsx,"你已经完成了第一个实验区组

请稍作休息


点击空格键进入下一个区组。",1.5,0,1.5,left,LLLLL.png,,,,,0,0,0,0,2,7,55,16,,,,,,,,,,,,,,,,,,,,,,,,,,,,,,,,,,,,,,,,,,,,,,,,,,,,,,,,,,,,,,,,,,,,,,311.3587595000281,311.7591506000026,311.7432607000228,311.8426530000288,312.2434108000016,None,left,1,0.5547845999826677,312.2434108000016,None,311.7432607000228,311.8426530000288,311.8426530000288,None,312.8269644000102,None,,,,,,,11010,001,2024_Jan_01_1948,ANT,2021.2.3,59.81655457932141,
1,2,no,up,C,R,,,,,,Block.xlsx,"你已经完成了第一个实验区组

请稍作休息


点击空格键进入下一个区组。",50,0,1.5,right,RRRRR.png,,,,,0,0,0,0,2,8,56,1,,,,,,,,,,,,,,,,,,,,,,,,,,,,,,,,,,,,,,,,,,,,,,,,,,,,,,,,,,,,,,,,,,,,,,313.22820320003666,313.6289402000257,313.61307830002625,313.71177690004697,314.11300740001025,None,right,1,0.40572399995289743,314.11300740001025,None,313.61307830002625,313.71177690004697,313.71177690004697,None,314.546533500019,None,,,,,,,11010,001,2024_Jan_01_1948,ANT,2021.2.3,59.81655457932141,
1,4,no,up,IC,R,,,,,,Block.xlsx,"你已经完成了第一个实验区组

请稍作休息


点击空格键进入下一个区组。",50,0,1.5,right,LLRLL.png,,,,,0,0,0,0,2,9,57,3,,,,,,,,,,,,,,,,,,,,,,,,,,,,,,,,,,,,,,,,,,,,,,,,,,,,,,,,,,,,,,,,,,,,,,314.94682960002683,315.3495683000074,315.33077170001343,315.43322780000744,315.8331878000172,None,right,1,0.48555510002188385,315.8331878000172,None,315.33077170001343,315.43322780000744,315.43322780000744,None,316.34889780002413,None,,,,,,,11010,001,2024_Jan_01_1948,ANT,2021.2.3,59.81655457932141,
1,20,spatial,up,IC,R,,,,,,Block.xlsx,"你已经完成了第一个实验区组

请稍作休息


点击空格键进入下一个区组。",1.5,0,1.5,right,LLRLL.png,,,,,0,0,0,0,2,10,58,19,,,,,,,,,,,,,,,,,,,,,,,,,,,,,,,,,,,,,,,,,,,,,,,,,,,,,,,,,,,,,,,,,,,,,,316.74927780003054,317.1514225000283,317.1333325000014,317.2336452000309,317.63432880002074,None,right,1,0.5244081999990158,317.63432880002074,None,317.1333325000014,317.2336452000309,317.2336452000309,None,318.1848581000231,None,,,,,,,11010,001,2024_Jan_01_1948,ANT,2021.2.3,59.81655457932141,
1,7,no,down,IC,L,,,,,,Block.xlsx,"你已经完成了第一个实验区组

请稍作休息


点击空格键进入下一个区组。",50,0,-1.5,left,RRLRR.png,,,,,0,0,0,0,2,11,59,6,,,,,,,,,,,,,,,,,,,,,,,,,,,,,,,,,,,,,,,,,,,,,,,,,,,,,,,,,,,,,,,,,,,,,,318.58603780000703,318.9877385,318.9702079000417,319.07107820000965,319.4705502000288,None,left,1,0.6075968999648467,319.4705502000288,None,318.9702079000417,319.07107820000965,319.07107820000965,None,320.10471080004936,None,,,,,,,11010,001,2024_Jan_01_1948,ANT,2021.2.3,59.81655457932141,
1,10,center,up,C,R,,,,,,Block.xlsx,"你已经完成了第一个实验区组

请稍作休息


点击空格键进入下一个区组。",0,50,1.5,right,RRRRR.png,,,,,0,0,0,0,2,12,60,9,,,,,,,,,,,,,,,,,,,,,,,,,,,,,,,,,,,,,,,,,,,,,,,,,,,,,,,,,,,,,,,,,,,,,,320.5049939000164,320.90655080002034,320.88893410004675,320.9898696000455,321.3906356000225,None,right,1,0.3838634999701753,321.3906356000225,None,320.88893410004675,320.9898696000455,320.9898696000455,None,321.79039920005016,None,,,,,,,11010,001,2024_Jan_01_1948,ANT,2021.2.3,59.81655457932141,
1,15,center,down,IC,L,,,,,,Block.xlsx,"你已经完成了第一个实验区组

请稍作休息


点击空格键进入下一个区组。",0,50,-1.5,left,RRLRR.png,,,,,0,0,0,0,2,13,61,14,,,,,,,,,,,,,,,,,,,,,,,,,,,,,,,,,,,,,,,,,,,,,,,,,,,,,,,,,,,,,,,,,,,,,,322.19112490001135,322.591854600003,322.57582350005396,322.67515040002763,323.07581010001013,None,right,0,0.41841830004705116,323.07581010001013,None,322.57582350005396,322.67515040002763,322.67515040002763,None,323.50955960003193,None,,,,,,,11010,001,2024_Jan_01_1948,ANT,2021.2.3,59.81655457932141,
1,20,spatial,up,IC,R,,,,,,Block.xlsx,"你已经完成了第一个实验区组

请稍作休息


点击空格键进入下一个区组。",1.5,0,1.5,right,LLRLL.png,,,,,0,0,0,0,2,14,62,19,,,,,,,,,,,,,,,,,,,,,,,,,,,,,,,,,,,,,,,,,,,,,,,,,,,,,,,,,,,,,,,,,,,,,,323.9101074000355,324.3121168000507,324.2946432000026,324.39602040004684,324.79541100002825,None,right,1,0.4514418000471778,324.79541100002825,None,324.2946432000026,324.39602040004684,324.39602040004684,None,325.2620393000543,None,,,,,,,11010,001,2024_Jan_01_1948,ANT,2021.2.3,59.81655457932141,
1,16,center,down,IC,R,,,,,,Block.xlsx,"你已经完成了第一个实验区组

请稍作休息


点击空格键进入下一个区组。",0,50,-1.5,right,LLRLL.png,,,,,0,0,0,0,2,15,63,15,,,,,,,,,,,,,,,,,,,,,,,,,,,,,,,,,,,,,,,,,,,,,,,,,,,,,,,,,,,,,,,,,,,,,,325.66294180002296,326.06401110003935,326.04773410002235,326.1472999000107,326.5478079000022,None,right,1,0.5146729000261985,326.5478079000022,None,326.04773410002235,326.1472999000107,326.1472999000107,None,327.08132300002035,None,,,,,,,11010,001,2024_Jan_01_1948,ANT,2021.2.3,59.81655457932141,
1,23,spatial,down,IC,L,,,,,,Block.xlsx,"你已经完成了第一个实验区组

请稍作休息


点击空格键进入下一个区组。",-1.5,0,-1.5,left,RRLRR.png,,,,,0,0,0,0,2,16,64,22,,,,,,,,,,,,,,,,,,,,,,,,,,,,,,,,,,,,,,,,,,,,,,,,,,,,,,,,,,,,,,,,,,,,,,327.48262670001714,327.8836072999984,327.8666403000243,327.9668823000393,328.3669324000366,None,left,1,0.5438767999876291,328.3669324000366,None,327.8666403000243,327.9668823000393,327.9668823000393,None,328.9341213000007,None,,,,,,,11010,001,2024_Jan_01_1948,ANT,2021.2.3,59.81655457932141,
1,14,center,down,C,R,,,,,,Block.xlsx,"你已经完成了第一个实验区组

请稍作休息


点击空格键进入下一个区组。",0,50,-1.5,right,RRRRR.png,,,,,0,0,0,0,2,17,65,13,,,,,,,,,,,,,,,,,,,,,,,,,,,,,,,,,,,,,,,,,,,,,,,,,,,,,,,,,,,,,,,,,,,,,,329.3350459000212,329.73818570002913,329.71920710004633,329.81908960000146,330.2201301000314,None,right,1,0.44207739998819306,330.2201301000314,None,329.71920710004633,329.81908960000146,329.81908960000146,None,330.6871311000432,None,,,,,,,11010,001,2024_Jan_01_1948,ANT,2021.2.3,59.81655457932141,
1,17,spatial,up,C,L,,,,,,Block.xlsx,"你已经完成了第一个实验区组

请稍作休息


点击空格键进入下一个区组。",1.5,0,1.5,left,LLLLL.png,,,,,0,0,0,0,2,18,66,16,,,,,,,,,,,,,,,,,,,,,,,,,,,,,,,,,,,,,,,,,,,,,,,,,,,,,,,,,,,,,,,,,,,,,,331.0874836000148,331.4893252000329,331.4720024000271,331.57220760005293,331.97295330005,None,left,1,0.42540859995642677,331.97295330005,None,331.4720024000271,331.57220760005293,331.57220760005293,None,332.4228422000306,None,,,,,,,11010,001,2024_Jan_01_1948,ANT,2021.2.3,59.81655457932141,
1,1,no,up,C,L,,,,,,Block.xlsx,"你已经完成了第一个实验区组

请稍作休息


点击空格键进入下一个区组。",50,0,1.5,left,LLLLL.png,,,,,0,0,0,0,2,19,67,0,,,,,,,,,,,,,,,,,,,,,,,,,,,,,,,,,,,,,,,,,,,,,,,,,,,,,,,,,,,,,,,,,,,,,,332.8239399000304,333.2249232000322,333.2072289000498,333.3091484000324,333.7079494000063,None,left,1,0.49850589997367933,333.7079494000063,None,333.2072289000498,333.3091484000324,333.3091484000324,None,334.22529000003124,None,,,,,,,11010,001,2024_Jan_01_1948,ANT,2021.2.3,59.81655457932141,
1,5,no,down,C,L,,,,,,Block.xlsx,"你已经完成了第一个实验区组

请稍作休息


点击空格键进入下一个区组。",50,0,-1.5,left,LLLLL.png,,,,,0,0,0,0,2,20,68,4,,,,,,,,,,,,,,,,,,,,,,,,,,,,,,,,,,,,,,,,,,,,,,,,,,,,,,,,,,,,,,,,,,,,,,334.6259635000024,335.0283667000476,335.0105154000339,335.1102159000002,335.51279620005516,None,left,1,0.5174926000181586,335.51279620005516,None,335.0105154000339,335.1102159000002,335.1102159000002,None,336.06160050001927,None,,,,,,,11010,001,2024_Jan_01_1948,ANT,2021.2.3,59.81655457932141,
1,15,center,down,IC,L,,,,,,Block.xlsx,"你已经完成了第一个实验区组

请稍作休息


点击空格键进入下一个区组。",0,50,-1.5,left,RRLRR.png,,,,,0,0,0,0,2,21,69,14,,,,,,,,,,,,,,,,,,,,,,,,,,,,,,,,,,,,,,,,,,,,,,,,,,,,,,,,,,,,,,,,,,,,,,336.46206700004404,336.8630290000001,336.8463196000084,336.94662230001995,337.3479178000125,None,left,1,0.578236100031063,337.3479178000125,None,336.8463196000084,336.94662230001995,336.94662230001995,None,337.9474845000077,None,,,,,,,11010,001,2024_Jan_01_1948,ANT,2021.2.3,59.81655457932141,
1,9,center,up,C,L,,,,,,Block.xlsx,"你已经完成了第一个实验区组

请稍作休息


点击空格键进入下一个区组。",0,50,1.5,left,LLLLL.png,,,,,0,0,0,0,2,22,70,8,,,,,,,,,,,,,,,,,,,,,,,,,,,,,,,,,,,,,,,,,,,,,,,,,,,,,,,,,,,,,,,,,,,,,,338.34819170000264,338.748719300027,338.732298500021,338.83276850002585,339.23312889999943,None,left,1,0.5250532000209205,339.23312889999943,None,338.732298500021,338.83276850002585,338.83276850002585,None,339.7837971000117,None,,,,,,,11010,001,2024_Jan_01_1948,ANT,2021.2.3,59.81655457932141,
1,21,spatial,down,C,L,,,,,,Block.xlsx,"你已经完成了第一个实验区组

请稍作休息


点击空格键进入下一个区组。",-1.5,0,-1.5,left,LLLLL.png,,,,,0,0,0,0,2,23,71,20,,,,,,,,,,,,,,,,,,,,,,,,,,,,,,,,,,,,,,,,,,,,,,,,,,,,,,,,,,,,,,,,,,,,,,340.18414890003623,340.5860423000413,340.56821700005094,340.6695348000503,341.0689989000093,None,left,1,0.43415190000087023,341.0689989000093,None,340.56821700005094,340.6695348000503,340.6695348000503,None,341.5194384000497,None,,,,,,,11010,001,2024_Jan_01_1948,ANT,2021.2.3,59.81655457932141,
1,11,center,up,IC,L,,,,,,Block.xlsx,"你已经完成了第一个实验区组

请稍作休息


点击空格键进入下一个区组。",0,50,1.5,left,RRLRR.png,,,,,0,0,0,0,3,0,72,10,,,,,,,,,,,,,,,,,,,,,,,,,,,,,,,,,,,,,,,,,,,,,,,,,,,,,,,,,,,,,,,,,,,,,,341.92012740002247,342.32091910002055,342.30419160000747,342.40497570001753,342.80485549999867,None,left,1,0.5853695999830961,342.80485549999867,None,342.30419160000747,342.40497570001753,342.40497570001753,None,343.4055422000238,None,,,,,,,11010,001,2024_Jan_01_1948,ANT,2021.2.3,59.81655457932141,
1,3,no,up,IC,L,,,,,,Block.xlsx,"你已经完成了第一个实验区组

请稍作休息


点击空格键进入下一个区组。",50,0,1.5,left,RRLRR.png,,,,,0,0,0,0,3,1,73,2,,,,,,,,,,,,,,,,,,,,,,,,,,,,,,,,,,,,,,,,,,,,,,,,,,,,,,,,,,,,,,,,,,,,,,343.8061182000092,344.20934020000277,344.1903237000224,344.29200980003225,344.69276580004953,None,left,1,0.5377922999905422,344.69276580004953,None,344.1903237000224,344.29200980003225,344.29200980003225,None,345.25859940005466,None,,,,,,,11010,001,2024_Jan_01_1948,ANT,2021.2.3,59.81655457932141,
1,21,spatial,down,C,L,,,,,,Block.xlsx,"你已经完成了第一个实验区组

请稍作休息


点击空格键进入下一个区组。",-1.5,0,-1.5,left,LLLLL.png,,,,,0,0,0,0,3,2,74,20,,,,,,,,,,,,,,,,,,,,,,,,,,,,,,,,,,,,,,,,,,,,,,,,,,,,,,,,,,,,,,,,,,,,,,345.6588701000437,346.059831999999,346.0433489000425,346.14386180002475,346.5439284000313,None,left,1,0.45423410000512376,346.5439284000313,None,346.0433489000425,346.14386180002475,346.14386180002475,None,347.02760160004254,None,,,,,,,11010,001,2024_Jan_01_1948,ANT,2021.2.3,59.81655457932141,
1,18,spatial,up,C,R,,,,,,Block.xlsx,"你已经完成了第一个实验区组

请稍作休息


点击空格键进入下一个区组。",1.5,0,1.5,right,RRRRR.png,,,,,0,0,0,0,3,3,75,17,,,,,,,,,,,,,,,,,,,,,,,,,,,,,,,,,,,,,,,,,,,,,,,,,,,,,,,,,,,,,,,,,,,,,,347.4286009000498,347.8304251000518,347.81286230002297,347.91324820002774,348.3132956000045,None,right,1,0.43689589999848977,348.3132956000045,None,347.81286230002297,347.91324820002774,347.91324820002774,None,348.78079710004386,None,,,,,,,11010,001,2024_Jan_01_1948,ANT,2021.2.3,59.81655457932141,
1,13,center,down,C,L,,,,,,Block.xlsx,"你已经完成了第一个实验区组

请稍作休息


点击空格键进入下一个区组。",0,50,-1.5,left,LLLLL.png,,,,,0,0,0,0,3,4,76,12,,,,,,,,,,,,,,,,,,,,,,,,,,,,,,,,,,,,,,,,,,,,,,,,,,,,,,,,,,,,,,,,,,,,,,349.18093000003137,349.5823024000274,349.5648239000002,349.6663931000512,350.0658989000367,None,left,1,0.5494453000137582,350.0658989000367,None,349.5648239000002,349.6663931000512,349.6663931000512,None,350.6329629000393,None,,,,,,,11010,001,2024_Jan_01_1948,ANT,2021.2.3,59.81655457932141,
1,13,center,down,C,L,,,,,,Block.xlsx,"你已经完成了第一个实验区组

请稍作休息


点击空格键进入下一个区组。",0,50,-1.5,left,LLLLL.png,,,,,0,0,0,0,3,5,77,12,,,,,,,,,,,,,,,,,,,,,,,,,,,,,,,,,,,,,,,,,,,,,,,,,,,,,,,,,,,,,,,,,,,,,,351.0336489000474,351.4341642000363,351.418730000034,351.51799430005485,351.9183224000153,None,left,1,0.49642909999238327,351.9183224000153,None,351.418730000034,351.51799430005485,351.51799430005485,None,352.43568880000385,None,,,,,,,11010,001,2024_Jan_01_1948,ANT,2021.2.3,59.81655457932141,
1,5,no,down,C,L,,,,,,Block.xlsx,"你已经完成了第一个实验区组

请稍作休息


点击空格键进入下一个区组。",50,0,-1.5,left,LLLLL.png,,,,,0,0,0,0,3,6,78,4,,,,,,,,,,,,,,,,,,,,,,,,,,,,,,,,,,,,,,,,,,,,,,,,,,,,,,,,,,,,,,,,,,,,,,352.83739870000863,353.2370358000044,353.2207733000396,353.32062670000596,353.72160470002564,None,left,1,0.5010578000219539,353.72160470002564,None,353.2207733000396,353.32062670000596,353.32062670000596,None,354.2382680000155,None,,,,,,,11010,001,2024_Jan_01_1948,ANT,2021.2.3,59.81655457932141,
1,12,center,up,IC,R,,,,,,Block.xlsx,"你已经完成了第一个实验区组

请稍作休息


点击空格键进入下一个区组。",0,50,1.5,right,LLRLL.png,,,,,0,0,0,0,3,7,79,11,,,,,,,,,,,,,,,,,,,,,,,,,,,,,,,,,,,,,,,,,,,,,,,,,,,,,,,,,,,,,,,,,,,,,,354.6389735999983,355.04043750005076,355.0230789000052,355.1241124000517,355.52359650004655,None,right,1,0.6426544000278227,355.52359650004655,None,355.0230789000052,355.1241124000517,355.1241124000517,None,356.19113130000187,None,,,,,,,11010,001,2024_Jan_01_1948,ANT,2021.2.3,59.81655457932141,
1,12,center,up,IC,R,,,,,,Block.xlsx,"你已经完成了第一个实验区组

请稍作休息


点击空格键进入下一个区组。",0,50,1.5,right,LLRLL.png,,,,,0,0,0,0,3,8,80,11,,,,,,,,,,,,,,,,,,,,,,,,,,,,,,,,,,,,,,,,,,,,,,,,,,,,,,,,,,,,,,,,,,,,,,356.59195660002297,356.99308590003056,356.97764230001485,357.09440940001514,357.4773751000175,None,right,1,0.5371832000091672,357.4773751000175,None,356.97764230001485,357.09440940001514,357.07758910005214,None,358.02731620002305,None,,,,,,,11010,001,2024_Jan_01_1948,ANT,2021.2.3,59.81655457932141,
1,20,spatial,up,IC,R,,,,,,Block.xlsx,"你已经完成了第一个实验区组

请稍作休息


点击空格键进入下一个区组。",1.5,0,1.5,right,LLRLL.png,,,,,0,0,0,0,3,9,81,19,,,,,,,,,,,,,,,,,,,,,,,,,,,,,,,,,,,,,,,,,,,,,,,,,,,,,,,,,,,,,,,,,,,,,,358.42786720005097,358.831178500026,358.81247240002267,358.9128181000124,359.31452210003044,None,right,1,0.4836712999967858,359.31452210003044,None,358.81247240002267,358.9128181000124,358.9128181000124,None,359.81330710003385,None,,,,,,,11010,001,2024_Jan_01_1948,ANT,2021.2.3,59.81655457932141,
1,3,no,up,IC,L,,,,,,Block.xlsx,"你已经完成了第一个实验区组

请稍作休息


点击空格键进入下一个区组。",50,0,1.5,left,RRLRR.png,,,,,0,0,0,0,3,10,82,2,,,,,,,,,,,,,,,,,,,,,,,,,,,,,,,,,,,,,,,,,,,,,,,,,,,,,,,,,,,,,,,,,,,,,,360.2149126000004,360.61567640001886,360.59778290003305,360.6981275000144,361.09858910000185,None,left,1,0.6116765000042506,361.09858910000185,None,360.59778290003305,360.6981275000144,360.6981275000144,None,361.73277080000844,None,,,,,,,11010,001,2024_Jan_01_1948,ANT,2021.2.3,59.81655457932141,
1,11,center,up,IC,L,,,,,,Block.xlsx,"你已经完成了第一个实验区组

请稍作休息


点击空格键进入下一个区组。",0,50,1.5,left,RRLRR.png,,,,,0,0,0,0,3,11,83,10,,,,,,,,,,,,,,,,,,,,,,,,,,,,,,,,,,,,,,,,,,,,,,,,,,,,,,,,,,,,,,,,,,,,,,362.13340410002274,362.5361679000198,362.51760020002257,362.61761740001384,363.01788850000594,None,left,1,0.6124230999848805,363.01788850000594,None,362.51760020002257,362.61761740001384,362.61761740001384,None,363.65230200003134,None,,,,,,,11010,001,2024_Jan_01_1948,ANT,2021.2.3,59.81655457932141,
1,3,no,up,IC,L,,,,,,Block.xlsx,"你已经完成了第一个实验区组

请稍作休息


点击空格键进入下一个区组。",50,0,1.5,left,RRLRR.png,,,,,0,0,0,0,3,12,84,2,,,,,,,,,,,,,,,,,,,,,,,,,,,,,,,,,,,,,,,,,,,,,,,,,,,,,,,,,,,,,,,,,,,,,,364.0532353000017,364.45468660001643,364.4368971000076,364.53786160005257,364.93825950002065,None,left,1,0.5801711999811232,364.93825950002065,None,364.4368971000076,364.53786160005257,364.53786160005257,None,365.5383979000035,None,,,,,,,11010,001,2024_Jan_01_1948,ANT,2021.2.3,59.81655457932141,
1,18,spatial,up,C,R,,,,,,Block.xlsx,"你已经完成了第一个实验区组

请稍作休息


点击空格键进入下一个区组。",1.5,0,1.5,right,RRRRR.png,,,,,0,0,0,0,3,13,85,17,,,,,,,,,,,,,,,,,,,,,,,,,,,,,,,,,,,,,,,,,,,,,,,,,,,,,,,,,,,,,,,,,,,,,,365.93881060002604,366.3399578000535,366.3249307000078,366.42331630003173,366.82426540000597,None,right,1,0.4944433000055142,366.82426540000597,None,366.3249307000078,366.42331630003173,366.42331630003173,None,367.3417350000236,None,,,,,,,11010,001,2024_Jan_01_1948,ANT,2021.2.3,59.81655457932141,
1,6,no,down,C,R,,,,,,Block.xlsx,"你已经完成了第一个实验区组

请稍作休息


点击空格键进入下一个区组。",50,0,-1.5,right,RRRRR.png,,,,,0,0,0,0,3,14,86,5,,,,,,,,,,,,,,,,,,,,,,,,,,,,,,,,,,,,,,,,,,,,,,,,,,,,,,,,,,,,,,,,,,,,,,367.74192630004836,368.14207370002987,368.12715250003384,368.22623480000766,368.6265862000291,None,right,1,0.47593469999264926,368.6265862000291,None,368.12715250003384,368.22623480000766,368.22623480000766,None,369.12712320004357,None,,,,,,,11010,001,2024_Jan_01_1948,ANT,2021.2.3,59.81655457932141,
1,14,center,down,C,R,,,,,,Block.xlsx,"你已经完成了第一个实验区组

请稍作休息


点击空格键进入下一个区组。",0,50,-1.5,right,RRRRR.png,,,,,0,0,0,0,3,15,87,13,,,,,,,,,,,,,,,,,,,,,,,,,,,,,,,,,,,,,,,,,,,,,,,,,,,,,,,,,,,,,,,,,,,,,,369.5276320000412,369.9288291000412,369.91370040003676,370.0302803000086,370.4129789000144,None,right,1,0.5615995000116527,370.4129789000144,None,369.91370040003676,370.0302803000086,370.01196390000405,None,370.9965248000226,None,,,,,,,11010,001,2024_Jan_01_1948,ANT,2021.2.3,59.81655457932141,
1,24,spatial,down,IC,R,,,,,,Block.xlsx,"你已经完成了第一个实验区组

请稍作休息


点击空格键进入下一个区组。",-1.5,0,-1.5,right,LLRLL.png,,,,,0,0,0,0,3,16,88,23,,,,,,,,,,,,,,,,,,,,,,,,,,,,,,,,,,,,,,,,,,,,,,,,,,,,,,,,,,,,,,,,,,,,,,371.39745840005344,371.7987781999982,371.7826122000115,371.88341960002435,372.2822212000028,None,right,1,0.5338119000080042,372.2822212000028,None,371.7826122000115,371.88341960002435,371.88341960002435,None,372.8331461000489,None,,,,,,,11010,001,2024_Jan_01_1948,ANT,2021.2.3,59.81655457932141,
1,12,center,up,IC,R,,,,,,Block.xlsx,"你已经完成了第一个实验区组

请稍作休息


点击空格键进入下一个区组。",0,50,1.5,right,LLRLL.png,,,,,0,0,0,0,3,17,89,11,,,,,,,,,,,,,,,,,,,,,,,,,,,,,,,,,,,,,,,,,,,,,,,,,,,,,,,,,,,,,,,,,,,,,,373.2336963000125,373.6355098000495,373.61789030005457,373.7188873999985,374.11785229999805,None,right,1,0.6245448000263423,374.11785229999805,None,373.61789030005457,373.7188873999985,373.7188873999985,None,374.76888820005115,None,,,,,,,11010,001,2024_Jan_01_1948,ANT,2021.2.3,59.81655457932141,
1,22,spatial,down,C,R,,,,,,Block.xlsx,"你已经完成了第一个实验区组

请稍作休息


点击空格键进入下一个区组。",-1.5,0,-1.5,right,RRRRR.png,,,,,0,0,0,0,3,18,90,21,,,,,,,,,,,,,,,,,,,,,,,,,,,,,,,,,,,,,,,,,,,,,,,,,,,,,,,,,,,,,,,,,,,,,,375.1692934000166,375.56990180001594,375.5549930999987,375.653992400039,376.0538979000412,None,right,1,0.736501400009729,376.0538979000412,None,375.5549930999987,375.653992400039,375.653992400039,None,376.8051229999983,None,,,,,,,11010,001,2024_Jan_01_1948,ANT,2021.2.3,59.81655457932141,
1,19,spatial,up,IC,L,,,,,,Block.xlsx,"你已经完成了第一个实验区组

请稍作休息


点击空格键进入下一个区组。",1.5,0,1.5,left,RRLRR.png,,,,,0,0,0,0,3,19,91,18,,,,,,,,,,,,,,,,,,,,,,,,,,,,,,,,,,,,,,,,,,,,,,,,,,,,,,,,,,,,,,,,,,,,,,377.20613930001855,377.6063790000044,377.59011710004415,377.69193339999765,378.09201150003355,None,left,1,0.5223247999674641,378.09201150003355,None,377.59011710004415,377.69193339999765,377.69193339999765,None,378.6412666000542,None,,,,,,,11010,001,2024_Jan_01_1948,ANT,2021.2.3,59.81655457932141,
1,8,no,down,IC,R,,,,,,Block.xlsx,"你已经完成了第一个实验区组

请稍作休息


点击空格键进入下一个区组。",50,0,-1.5,right,LLRLL.png,,,,,0,0,0,0,3,20,92,7,,,,,,,,,,,,,,,,,,,,,,,,,,,,,,,,,,,,,,,,,,,,,,,,,,,,,,,,,,,,,,,,,,,,,,379.04178960004356,379.44452410005033,379.42590430000564,379.52769320004154,379.9264139000443,None,right,1,0.6320439999690279,379.9264139000443,None,379.42590430000564,379.52769320004154,379.52769320004154,None,380.57749700004933,None,,,,,,,11010,001,2024_Jan_01_1948,ANT,2021.2.3,59.81655457932141,
1,9,center,up,C,L,,,,,,Block.xlsx,"你已经完成了第一个实验区组

请稍作休息


点击空格键进入下一个区组。",0,50,1.5,left,LLLLL.png,,,,,0,0,0,0,3,21,93,8,,,,,,,,,,,,,,,,,,,,,,,,,,,,,,,,,,,,,,,,,,,,,,,,,,,,,,,,,,,,,,,,,,,,,,380.9780769000063,381.37921350001125,381.36256730003515,381.4621315000113,381.8635002000374,None,left,1,0.47883390000788495,381.8635002000374,None,381.36256730003515,381.4621315000113,381.4621315000113,None,382.36369330005255,None,,,,,,,11010,001,2024_Jan_01_1948,ANT,2021.2.3,59.81655457932141,
1,23,spatial,down,IC,L,,,,,,Block.xlsx,"你已经完成了第一个实验区组

请稍作休息


点击空格键进入下一个区组。",-1.5,0,-1.5,left,RRLRR.png,,,,,0,0,0,0,3,22,94,22,,,,,,,,,,,,,,,,,,,,,,,,,,,,,,,,,,,,,,,,,,,,,,,,,,,,,,,,,,,,,,,,,,,,,,382.76445130002685,383.16700870002387,383.14871140004834,383.24829380004667,383.6486805000459,None,left,1,0.6297075999900699,383.6486805000459,None,383.14871140004834,383.24829380004667,383.24829380004667,None,384.2994843000197,None,,,,,,,11010,001,2024_Jan_01_1948,ANT,2021.2.3,59.81655457932141,
1,16,center,down,IC,R,,,,,,Block.xlsx,"你已经完成了第一个实验区组

请稍作休息


点击空格键进入下一个区组。",0,50,-1.5,right,LLRLL.png,,,,,0,0,0,0,3,23,95,15,,,,,,,,,,,,,,,,,,,,,,,,,,,,,,,,,,,,,,,,,,,,,,,,,,,,,,,,,,,,,,,,,,,,,,384.7006391000468,385.10076240001945,385.08554490003735,385.1854449000093,385.58474900003057,None,right,1,0.6057791000348516,385.58474900003057,None,385.08554490003735,385.1854449000093,385.1854449000093,None,386.21902360004606,None,,,,,,,11010,001,2024_Jan_01_1948,ANT,2021.2.3,59.81655457932141,
,,,,,,,,,,,Block.xlsx,"你已经完成了第一个实验区组

请稍作休息


点击空格键进入下一个区组。",,,,,,,,,,0,0,0,0,,,,,,,,,,,,,,,,,,,,,,,,,,,,,,,,,,,,,,,,,,,,,,,,,,,,,,,,,,,,,,,,,,,,,,,,,,,,,,,,,,,,,,,,,,,space,80.5138195999898,386.63673420000123,None,386.63673420000123,None,11010,001,2024_Jan_01_1948,ANT,2021.2.3,59.81655457932141,
1,14,center,down,C,R,,,,,,Block.xlsx,"你已经完成了整个实验（三个区组）。

请报告实验者已完成实验

非常感谢，再见！",0,50,-1.5,right,RRRRR.png,,,,,0,1,1,1,0,0,0,13,,,,,,,,,,,,,,,,,,,,,,,,,,,,,,,,,,,,,,,,,,,,,,,,,,,,,,,,,,,,,,,,,,,,,,467.18864710000344,467.5904587000259,467.5728410000447,467.67319850000786,468.0737484000274,None,right,1,0.5409079000237398,468.0737484000274,None,467.5728410000447,467.67319850000786,467.67319850000786,None,468.6412167000235,None,,,,,,,11010,001,2024_Jan_01_1948,ANT,2021.2.3,59.81655457932141,
1,9,center,up,C,L,,,,,,Block.xlsx,"你已经完成了整个实验（三个区组）。

请报告实验者已完成实验

非常感谢，再见！",0,50,1.5,left,LLLLL.png,,,,,0,1,1,1,0,1,1,8,,,,,,,,,,,,,,,,,,,,,,,,,,,,,,,,,,,,,,,,,,,,,,,,,,,,,,,,,,,,,,,,,,,,,,469.04175940004643,469.4432569000055,469.4259078000323,469.5278033000068,469.92750140000135,None,left,1,0.4316832000040449,469.92750140000135,None,469.4259078000323,469.5278033000068,469.5278033000068,None,470.37696410005447,None,,,,,,,11010,001,2024_Jan_01_1948,ANT,2021.2.3,59.81655457932141,
1,6,no,down,C,R,,,,,,Block.xlsx,"你已经完成了整个实验（三个区组）。

请报告实验者已完成实验

非常感谢，再见！",50,0,-1.5,right,RRRRR.png,,,,,0,1,1,1,0,2,2,5,,,,,,,,,,,,,,,,,,,,,,,,,,,,,,,,,,,,,,,,,,,,,,,,,,,,,,,,,,,,,,,,,,,,,,470.77775810001185,471.1783723999979,471.1628873000154,471.2786962000537,471.6637935000472,None,right,1,0.47069879999617115,471.6637935000472,None,471.1628873000154,471.2786962000537,471.2628996000276,None,472.1630291000474,None,,,,,,,11010,001,2024_Jan_01_1948,ANT,2021.2.3,59.81655457932141,
1,19,spatial,up,IC,L,,,,,,Block.xlsx,"你已经完成了整个实验（三个区组）。

请报告实验者已完成实验

非常感谢，再见！",1.5,0,1.5,left,RRLRR.png,,,,,0,1,1,1,0,3,3,18,,,,,,,,,,,,,,,,,,,,,,,,,,,,,,,,,,,,,,,,,,,,,,,,,,,,,,,,,,,,,,,,,,,,,,472.5643667000113,472.96498620003695,472.9476918000146,473.04787639999995,473.44818890001625,None,left,1,0.5263856000383385,473.44818890001625,None,472.9476918000146,473.04787639999995,473.04787639999995,None,473.99919860000955,None,,,,,,,11010,001,2024_Jan_01_1948,ANT,2021.2.3,59.81655457932141,
1,17,spatial,up,C,L,,,,,,Block.xlsx,"你已经完成了整个实验（三个区组）。

请报告实验者已完成实验

非常感谢，再见！",1.5,0,1.5,left,LLLLL.png,,,,,0,1,1,1,0,4,4,16,,,,,,,,,,,,,,,,,,,,,,,,,,,,,,,,,,,,,,,,,,,,,,,,,,,,,,,,,,,,,,,,,,,,,,474.3996916000033,474.80293110001367,474.78418539999984,474.8845871000085,475.28433460003,None,left,1,0.4422476000036113,475.28433460003,None,474.78418539999984,474.8845871000085,474.8845871000085,None,475.75180840003304,None,,,,,,,11010,001,2024_Jan_01_1948,ANT,2021.2.3,59.81655457932141,
1,19,spatial,up,IC,L,,,,,,Block.xlsx,"你已经完成了整个实验（三个区组）。

请报告实验者已完成实验

非常感谢，再见！",1.5,0,1.5,left,RRLRR.png,,,,,0,1,1,1,0,5,5,18,,,,,,,,,,,,,,,,,,,,,,,,,,,,,,,,,,,,,,,,,,,,,,,,,,,,,,,,,,,,,,,,,,,,,,476.1523670000024,476.55311410001013,476.53692810004577,476.636534600053,477.03708180005196,None,left,1,0.4414055999950506,477.03708180005196,None,476.53692810004577,476.636534600053,476.636534600053,None,477.5042765000253,None,,,,,,,11010,001,2024_Jan_01_1948,ANT,2021.2.3,59.81655457932141,
1,3,no,up,IC,L,,,,,,Block.xlsx,"你已经完成了整个实验（三个区组）。

请报告实验者已完成实验

非常感谢，再见！",50,0,1.5,left,RRLRR.png,,,,,0,1,1,1,0,6,6,2,,,,,,,,,,,,,,,,,,,,,,,,,,,,,,,,,,,,,,,,,,,,,,,,,,,,,,,,,,,,,,,,,,,,,,477.90536299999803,478.3075650000246,478.2895844000159,478.3889984000125,478.78976200002944,None,left,1,0.5297249000286683,478.78976200002944,None,478.2895844000159,478.3889984000125,478.3889984000125,None,479.34036500001093,None,,,,,,,11010,001,2024_Jan_01_1948,ANT,2021.2.3,59.81655457932141,
1,5,no,down,C,L,,,,,,Block.xlsx,"你已经完成了整个实验（三个区组）。

请报告实验者已完成实验

非常感谢，再见！",50,0,-1.5,left,LLLLL.png,,,,,0,1,1,1,0,7,7,4,,,,,,,,,,,,,,,,,,,,,,,,,,,,,,,,,,,,,,,,,,,,,,,,,,,,,,,,,,,,,,,,,,,,,,479.74158690002514,480.1424635000294,480.1249798000208,480.2259355999995,480.62615190004,None,left,1,0.4602718999958597,480.62615190004,None,480.1249798000208,480.2259355999995,480.2259355999995,None,481.109808600042,None,,,,,,,11010,001,2024_Jan_01_1948,ANT,2021.2.3,59.81655457932141,
1,15,center,down,IC,L,,,,,,Block.xlsx,"你已经完成了整个实验（三个区组）。

请报告实验者已完成实验

非常感谢，再见！",0,50,-1.5,left,RRLRR.png,,,,,0,1,1,1,0,8,8,14,,,,,,,,,,,,,,,,,,,,,,,,,,,,,,,,,,,,,,,,,,,,,,,,,,,,,,,,,,,,,,,,,,,,,,481.51007370004663,481.91086060000816,481.8948139999993,481.9953939000261,482.39554789999966,None,left,1,0.5472204000107013,482.39554789999966,None,481.8948139999993,481.9953939000261,481.9953939000261,None,482.96219380002003,None,,,,,,,11010,001,2024_Jan_01_1948,ANT,2021.2.3,59.81655457932141,
1,6,no,down,C,R,,,,,,Block.xlsx,"你已经完成了整个实验（三个区组）。

请报告实验者已完成实验

非常感谢，再见！",50,0,-1.5,right,RRRRR.png,,,,,0,1,1,1,0,9,9,5,,,,,,,,,,,,,,,,,,,,,,,,,,,,,,,,,,,,,,,,,,,,,,,,,,,,,,,,,,,,,,,,,,,,,,483.36301540001296,483.76588960003573,483.7472815000219,483.8471460000146,484.2475522000459,None,right,1,0.4872709999908693,484.2475522000459,None,483.7472815000219,483.8471460000146,483.8471460000146,None,484.748470999999,None,,,,,,,11010,001,2024_Jan_01_1948,ANT,2021.2.3,59.81655457932141,
1,12,center,up,IC,R,,,,,,Block.xlsx,"你已经完成了整个实验（三个区组）。

请报告实验者已完成实验

非常感谢，再见！",0,50,1.5,right,LLRLL.png,,,,,0,1,1,1,0,10,10,11,,,,,,,,,,,,,,,,,,,,,,,,,,,,,,,,,,,,,,,,,,,,,,,,,,,,,,,,,,,,,,,,,,,,,,485.1489959000028,485.55103080003755,485.53307930001756,485.6336669000448,486.03374970000004,None,right,1,0.6126977999811061,486.03374970000004,None,485.53307930001756,485.6336669000448,485.6336669000448,None,486.66783900000155,None,,,,,,,11010,001,2024_Jan_01_1948,ANT,2021.2.3,59.81655457932141,
1,17,spatial,up,C,L,,,,,,Block.xlsx,"你已经完成了整个实验（三个区组）。

请报告实验者已完成实验

非常感谢，再见！",1.5,0,1.5,left,LLLLL.png,,,,,0,1,1,1,0,11,11,16,,,,,,,,,,,,,,,,,,,,,,,,,,,,,,,,,,,,,,,,,,,,,,,,,,,,,,,,,,,,,,,,,,,,,,487.0689076000126,487.4698181000422,487.4544468000531,487.55331970000407,487.9538900000043,None,left,1,0.45256679999874905,487.9538900000043,None,487.4544468000531,487.55331970000407,487.55331970000407,None,488.4206099000294,None,,,,,,,11010,001,2024_Jan_01_1948,ANT,2021.2.3,59.81655457932141,
1,24,spatial,down,IC,R,,,,,,Block.xlsx,"你已经完成了整个实验（三个区组）。

请报告实验者已完成实验

非常感谢，再见！",-1.5,0,-1.5,right,LLRLL.png,,,,,0,1,1,1,0,12,12,23,,,,,,,,,,,,,,,,,,,,,,,,,,,,,,,,,,,,,,,,,,,,,,,,,,,,,,,,,,,,,,,,,,,,,,488.8214910000097,489.2229998999974,489.20504100003745,489.3064181000227,489.7067834000336,None,right,1,0.5558615999761969,489.7067834000336,None,489.20504100003745,489.3064181000227,489.3064181000227,None,490.2897218000144,None,,,,,,,11010,001,2024_Jan_01_1948,ANT,2021.2.3,59.81655457932141,
1,12,center,up,IC,R,,,,,,Block.xlsx,"你已经完成了整个实验（三个区组）。

请报告实验者已完成实验

非常感谢，再见！",0,50,1.5,right,LLRLL.png,,,,,0,1,1,1,0,13,13,11,,,,,,,,,,,,,,,,,,,,,,,,,,,,,,,,,,,,,,,,,,,,,,,,,,,,,,,,,,,,,,,,,,,,,,490.6910979000386,491.0929131000303,491.0746543999994,491.1758058000123,491.5756840000395,None,right,1,0.5428668000386097,491.5756840000395,None,491.0746543999994,491.1758058000123,491.1758058000123,None,492.1429171000491,None,,,,,,,11010,001,2024_Jan_01_1948,ANT,2021.2.3,59.81655457932141,
1,19,spatial,up,IC,L,,,,,,Block.xlsx,"你已经完成了整个实验（三个区组）。

请报告实验者已完成实验

非常感谢，再见！",1.5,0,1.5,left,RRLRR.png,,,,,0,1,1,1,0,14,14,18,,,,,,,,,,,,,,,,,,,,,,,,,,,,,,,,,,,,,,,,,,,,,,,,,,,,,,,,,,,,,,,,,,,,,,492.543315500021,492.94450979999965,492.9271525000222,493.0274713000399,493.42789260001155,None,left,1,0.48280130000784993,493.42789260001155,None,492.9271525000222,493.0274713000399,493.0274713000399,None,493.9287224000436,None,,,,,,,11010,001,2024_Jan_01_1948,ANT,2021.2.3,59.81655457932141,
1,21,spatial,down,C,L,,,,,,Block.xlsx,"你已经完成了整个实验（三个区组）。

请报告实验者已完成实验

非常感谢，再见！",-1.5,0,-1.5,left,LLLLL.png,,,,,0,1,1,1,0,15,15,20,,,,,,,,,,,,,,,,,,,,,,,,,,,,,,,,,,,,,,,,,,,,,,,,,,,,,,,,,,,,,,,,,,,,,,494.33002290001605,494.73029190005036,494.71511140000075,494.8154425000539,495.2151570999995,None,left,1,0.45535019994713366,495.2151570999995,None,494.71511140000075,494.8154425000539,494.8154425000539,None,495.69798940001056,None,,,,,,,11010,001,2024_Jan_01_1948,ANT,2021.2.3,59.81655457932141,
1,24,spatial,down,IC,R,,,,,,Block.xlsx,"你已经完成了整个实验（三个区组）。

请报告实验者已完成实验

非常感谢，再见！",-1.5,0,-1.5,right,LLRLL.png,,,,,0,1,1,1,0,16,16,23,,,,,,,,,,,,,,,,,,,,,,,,,,,,,,,,,,,,,,,,,,,,,,,,,,,,,,,,,,,,,,,,,,,,,,496.09861700003967,496.49941020004917,496.483481400006,496.5832561000134,496.98564240004634,None,right,1,0.5007841000333428,496.98564240004634,None,496.483481400006,496.5832561000134,496.5832561000134,None,497.5176089000306,None,,,,,,,11010,001,2024_Jan_01_1948,ANT,2021.2.3,59.81655457932141,
1,3,no,up,IC,L,,,,,,Block.xlsx,"你已经完成了整个实验（三个区组）。

请报告实验者已完成实验

非常感谢，再见！",50,0,1.5,left,RRLRR.png,,,,,0,1,1,1,0,17,17,2,,,,,,,,,,,,,,,,,,,,,,,,,,,,,,,,,,,,,,,,,,,,,,,,,,,,,,,,,,,,,,,,,,,,,,497.91859320004005,498.3185871000169,498.30273970001144,498.40280490001896,498.80361550004454,None,right,0,0.4837999000446871,498.80361550004454,None,498.30273970001144,498.40280490001896,498.40280490001896,None,499.3032180000446,None,,,,,,,11010,001,2024_Jan_01_1948,ANT,2021.2.3,59.81655457932141,
1,8,no,down,IC,R,,,,,,Block.xlsx,"你已经完成了整个实验（三个区组）。

请报告实验者已完成实验

非常感谢，再见！",50,0,-1.5,right,LLRLL.png,,,,,0,1,1,1,0,18,18,7,,,,,,,,,,,,,,,,,,,,,,,,,,,,,,,,,,,,,,,,,,,,,,,,,,,,,,,,,,,,,,,,,,,,,,499.7040266999975,500.10506480000913,500.08799660002114,500.1883049000171,500.59062710002763,None,right,1,0.600458399974741,500.59062710002763,None,500.08799660002114,500.1883049000171,500.1883049000171,None,501.20667770004366,None,,,,,,,11010,001,2024_Jan_01_1948,ANT,2021.2.3,59.81655457932141,
1,10,center,up,C,R,,,,,,Block.xlsx,"你已经完成了整个实验（三个区组）。

请报告实验者已完成实验

非常感谢，再见！",0,50,1.5,right,RRRRR.png,,,,,0,1,1,1,0,19,19,9,,,,,,,,,,,,,,,,,,,,,,,,,,,,,,,,,,,,,,,,,,,,,,,,,,,,,,,,,,,,,,,,,,,,,,501.6066199000343,502.0078986000153,501.99269680003636,502.1075367000303,502.4920077000279,None,right,1,0.42647339997347444,502.4920077000279,None,501.99269680003636,502.1075367000303,502.09222390002105,None,502.9418331000488,None,,,,,,,11010,001,2024_Jan_01_1948,ANT,2021.2.3,59.81655457932141,
1,21,spatial,down,C,L,,,,,,Block.xlsx,"你已经完成了整个实验（三个区组）。

请报告实验者已完成实验

非常感谢，再见！",-1.5,0,-1.5,left,LLLLL.png,,,,,0,1,1,1,0,20,20,20,,,,,,,,,,,,,,,,,,,,,,,,,,,,,,,,,,,,,,,,,,,,,,,,,,,,,,,,,,,,,,,,,,,,,,503.3433291000547,503.74507790000644,503.7267697000061,503.82781650003744,504.2280945000239,None,left,1,0.4671117999823764,504.2280945000239,None,503.7267697000061,503.82781650003744,503.82781650003744,None,504.71133430005284,None,,,,,,,11010,001,2024_Jan_01_1948,ANT,2021.2.3,59.81655457932141,
1,10,center,up,C,R,,,,,,Block.xlsx,"你已经完成了整个实验（三个区组）。

请报告实验者已完成实验

非常感谢，再见！",0,50,1.5,right,RRRRR.png,,,,,0,1,1,1,0,21,21,9,,,,,,,,,,,,,,,,,,,,,,,,,,,,,,,,,,,,,,,,,,,,,,,,,,,,,,,,,,,,,,,,,,,,,,505.1120360000059,505.51376800000435,505.4962454000488,505.5979468000005,505.99744860001374,None,right,1,0.42514510004548356,505.99744860001374,None,505.4962454000488,505.5979468000005,505.5979468000005,None,506.4470576000167,None,,,,,,,11010,001,2024_Jan_01_1948,ANT,2021.2.3,59.81655457932141,
1,21,spatial,down,C,L,,,,,,Block.xlsx,"你已经完成了整个实验（三个区组）。

请报告实验者已完成实验

非常感谢，再见！",-1.5,0,-1.5,left,LLLLL.png,,,,,0,1,1,1,0,22,22,20,,,,,,,,,,,,,,,,,,,,,,,,,,,,,,,,,,,,,,,,,,,,,,,,,,,,,,,,,,,,,,,,,,,,,,506.8478694000514,507.24921770003857,507.2320007000235,507.3329582000151,507.7327732000267,None,left,1,0.40967269998509437,507.7327732000267,None,507.2320007000235,507.3329582000151,507.3329582000151,None,508.16636319999816,None,,,,,,,11010,001,2024_Jan_01_1948,ANT,2021.2.3,59.81655457932141,
1,2,no,up,C,R,,,,,,Block.xlsx,"你已经完成了整个实验（三个区组）。

请报告实验者已完成实验

非常感谢，再见！",50,0,1.5,right,RRRRR.png,,,,,0,1,1,1,0,23,23,1,,,,,,,,,,,,,,,,,,,,,,,,,,,,,,,,,,,,,,,,,,,,,,,,,,,,,,,,,,,,,,,,,,,,,,508.56773240002804,508.9686512000044,508.95147570001427,509.0513287000358,509.452506200003,None,right,1,0.4103884999640286,509.452506200003,None,508.95147570001427,509.0513287000358,509.0513287000358,None,509.88556390005397,None,,,,,,,11010,001,2024_Jan_01_1948,ANT,2021.2.3,59.81655457932141,
1,1,no,up,C,L,,,,,,Block.xlsx,"你已经完成了整个实验（三个区组）。

请报告实验者已完成实验

非常感谢，再见！",50,0,1.5,left,LLLLL.png,,,,,0,1,1,1,1,0,24,0,,,,,,,,,,,,,,,,,,,,,,,,,,,,,,,,,,,,,,,,,,,,,,,,,,,,,,,,,,,,,,,,,,,,,,510.2860567000462,510.68794260005234,510.6715399000095,510.77065380004933,511.17130340001313,None,left,1,0.4271832999656908,511.17130340001313,None,510.6715399000095,510.77065380004933,510.77065380004933,None,511.6214677000535,None,,,,,,,11010,001,2024_Jan_01_1948,ANT,2021.2.3,59.81655457932141,
1,13,center,down,C,L,,,,,,Block.xlsx,"你已经完成了整个实验（三个区组）。

请报告实验者已完成实验

非常感谢，再见！",0,50,-1.5,left,LLLLL.png,,,,,0,1,1,1,1,1,25,12,,,,,,,,,,,,,,,,,,,,,,,,,,,,,,,,,,,,,,,,,,,,,,,,,,,,,,,,,,,,,,,,,,,,,,512.0221096000168,512.4234224000247,512.4063304000301,512.5064575000433,512.9068550000084,None,left,1,0.49159180000424385,512.9068550000084,None,512.4063304000301,512.5064575000433,512.5064575000433,None,513.4242690000101,None,,,,,,,11010,001,2024_Jan_01_1948,ANT,2021.2.3,59.81655457932141,
1,15,center,down,IC,L,,,,,,Block.xlsx,"你已经完成了整个实验（三个区组）。

请报告实验者已完成实验

非常感谢，再见！",0,50,-1.5,left,RRLRR.png,,,,,0,1,1,1,1,2,26,14,,,,,,,,,,,,,,,,,,,,,,,,,,,,,,,,,,,,,,,,,,,,,,,,,,,,,,,,,,,,,,,,,,,,,,513.8258454000461,514.2259029000415,514.2089570000535,514.309519900009,514.7102733000065,None,left,1,0.5684479000046849,514.7102733000065,None,514.2089570000535,514.309519900009,514.309519900009,None,515.311527700047,None,,,,,,,11010,001,2024_Jan_01_1948,ANT,2021.2.3,59.81655457932141,
1,7,no,down,IC,L,,,,,,Block.xlsx,"你已经完成了整个实验（三个区组）。

请报告实验者已完成实验

非常感谢，再见！",50,0,-1.5,left,RRLRR.png,,,,,0,1,1,1,1,3,27,6,,,,,,,,,,,,,,,,,,,,,,,,,,,,,,,,,,,,,,,,,,,,,,,,,,,,,,,,,,,,,,,,,,,,,,515.7114015000407,516.1115489000222,516.0965995000442,516.1961978000472,516.5955894000363,None,left,1,0.5232654000283219,516.5955894000363,None,516.0965995000442,516.1961978000472,516.1961978000472,None,517.1465185999987,None,,,,,,,11010,001,2024_Jan_01_1948,ANT,2021.2.3,59.81655457932141,
1,12,center,up,IC,R,,,,,,Block.xlsx,"你已经完成了整个实验（三个区组）。

请报告实验者已完成实验

非常感谢，再见！",0,50,1.5,right,LLRLL.png,,,,,0,1,1,1,1,4,28,11,,,,,,,,,,,,,,,,,,,,,,,,,,,,,,,,,,,,,,,,,,,,,,,,,,,,,,,,,,,,,,,,,,,,,,517.5470855000312,517.9485744000413,517.9331670000101,518.0483754000161,518.4331440000096,None,right,1,0.5973292000126094,518.4331440000096,None,517.9331670000101,518.0483754000161,518.0317525000428,None,519.0495654999977,None,,,,,,,11010,001,2024_Jan_01_1948,ANT,2021.2.3,59.81655457932141,
1,7,no,down,IC,L,,,,,,Block.xlsx,"你已经完成了整个实验（三个区组）。

请报告实验者已完成实验

非常感谢，再见！",50,0,-1.5,left,RRLRR.png,,,,,0,1,1,1,1,5,29,6,,,,,,,,,,,,,,,,,,,,,,,,,,,,,,,,,,,,,,,,,,,,,,,,,,,,,,,,,,,,,,,,,,,,,,519.4497327000136,519.8510236000293,519.8334597000503,519.9364306000061,520.3351326000411,None,left,1,0.6872965999646112,520.3351326000411,None,519.8334597000503,519.9364306000061,519.9364306000061,None,521.0527521000477,None,,,,,,,11010,001,2024_Jan_01_1948,ANT,2021.2.3,59.81655457932141,
1,6,no,down,C,R,,,,,,Block.xlsx,"你已经完成了整个实验（三个区组）。

请报告实验者已完成实验

非常感谢，再见！",50,0,-1.5,right,RRRRR.png,,,,,0,1,1,1,1,6,30,5,,,,,,,,,,,,,,,,,,,,,,,,,,,,,,,,,,,,,,,,,,,,,,,,,,,,,,,,,,,,,,,,,,,,,,521.4526662999997,521.8546623000293,521.8373261000379,521.9380223000189,522.3389094000449,None,right,1,0.651458999956958,522.3389094000449,None,521.8373261000379,521.9380223000189,521.9380223000189,None,523.0050466000102,None,,,,,,,11010,001,2024_Jan_01_1948,ANT,2021.2.3,59.81655457932141,
1,7,no,down,IC,L,,,,,,Block.xlsx,"你已经完成了整个实验（三个区组）。

请报告实验者已完成实验

非常感谢，再见！",50,0,-1.5,left,RRLRR.png,,,,,0,1,1,1,1,7,31,6,,,,,,,,,,,,,,,,,,,,,,,,,,,,,,,,,,,,,,,,,,,,,,,,,,,,,,,,,,,,,,,,,,,,,,523.4056832000497,523.8089062000508,523.7905308000045,523.8908854000038,524.2912588000181,None,left,1,0.6032517999992706,524.2912588000181,None,523.7905308000045,523.8908854000038,523.8908854000038,None,524.9245906000142,None,,,,,,,11010,001,2024_Jan_01_1948,ANT,2021.2.3,59.81655457932141,
1,5,no,down,C,L,,,,,,Block.xlsx,"你已经完成了整个实验（三个区组）。

请报告实验者已完成实验

非常感谢，再见！",50,0,-1.5,left,LLLLL.png,,,,,0,1,1,1,1,8,32,4,,,,,,,,,,,,,,,,,,,,,,,,,,,,,,,,,,,,,,,,,,,,,,,,,,,,,,,,,,,,,,,,,,,,,,525.3254821000155,525.7278308000532,525.7089655000018,525.8111765000504,526.211087600037,None,left,1,0.5074964000377804,526.211087600037,None,525.7089655000018,525.8111765000504,525.8111765000504,None,526.7440505000413,None,,,,,,,11010,001,2024_Jan_01_1948,ANT,2021.2.3,59.81655457932141,
1,11,center,up,IC,L,,,,,,Block.xlsx,"你已经完成了整个实验（三个区组）。

请报告实验者已完成实验

非常感谢，再见！",0,50,1.5,left,RRLRR.png,,,,,0,1,1,1,1,9,33,10,,,,,,,,,,,,,,,,,,,,,,,,,,,,,,,,,,,,,,,,,,,,,,,,,,,,,,,,,,,,,,,,,,,,,,527.1454318000469,527.5460854000412,527.5282932000118,527.629633900011,528.0295278000413,None,left,1,0.5929506999673322,528.0295278000413,None,527.5282932000118,527.629633900011,527.629633900011,None,528.6466216000263,None,,,,,,,11010,001,2024_Jan_01_1948,ANT,2021.2.3,59.81655457932141,
1,20,spatial,up,IC,R,,,,,,Block.xlsx,"你已经完成了整个实验（三个区组）。

请报告实验者已完成实验

非常感谢，再见！",1.5,0,1.5,right,LLRLL.png,,,,,0,1,1,1,1,10,34,19,,,,,,,,,,,,,,,,,,,,,,,,,,,,,,,,,,,,,,,,,,,,,,,,,,,,,,,,,,,,,,,,,,,,,,529.0476234000525,529.44858690002,529.4333639000542,529.5479593000491,529.9333854000433,None,right,1,0.5534922999795526,529.9333854000433,None,529.4333639000542,529.5479593000491,529.5317585000303,None,530.5162926000194,None,,,,,,,11010,001,2024_Jan_01_1948,ANT,2021.2.3,59.81655457932141,
1,18,spatial,up,C,R,,,,,,Block.xlsx,"你已经完成了整个实验（三个区组）。

请报告实验者已完成实验

非常感谢，再见！",1.5,0,1.5,right,RRRRR.png,,,,,0,1,1,1,1,11,35,17,,,,,,,,,,,,,,,,,,,,,,,,,,,,,,,,,,,,,,,,,,,,,,,,,,,,,,,,,,,,,,,,,,,,,,530.9182039000443,531.3175673000515,531.3016895000474,531.4020672000479,531.8027554000146,None,right,1,0.4356575999991037,531.8027554000146,None,531.3016895000474,531.4020672000479,531.4020672000479,None,532.2687570000417,None,,,,,,,11010,001,2024_Jan_01_1948,ANT,2021.2.3,59.81655457932141,
1,1,no,up,C,L,,,,,,Block.xlsx,"你已经完成了整个实验（三个区组）。

请报告实验者已完成实验

非常感谢，再见！",50,0,1.5,left,LLLLL.png,,,,,0,1,1,1,1,12,36,0,,,,,,,,,,,,,,,,,,,,,,,,,,,,,,,,,,,,,,,,,,,,,,,,,,,,,,,,,,,,,,,,,,,,,,532.6696030000458,533.0703786000377,533.0539625000092,533.1534803000395,533.5544446000131,None,left,1,0.5169420000165701,533.5544446000131,None,533.0539625000092,533.1534803000395,533.1534803000395,None,534.0882053000387,None,,,,,,,11010,001,2024_Jan_01_1948,ANT,2021.2.3,59.81655457932141,
1,23,spatial,down,IC,L,,,,,,Block.xlsx,"你已经完成了整个实验（三个区组）。

请报告实验者已完成实验

非常感谢，再见！",-1.5,0,-1.5,left,RRLRR.png,,,,,0,1,1,1,1,13,37,22,,,,,,,,,,,,,,,,,,,,,,,,,,,,,,,,,,,,,,,,,,,,,,,,,,,,,,,,,,,,,,,,,,,,,,534.4885398000479,534.8915206000092,534.8734461000422,534.9735925000277,535.3740711000282,None,left,1,0.6176273999735713,535.3740711000282,None,534.8734461000422,534.9735925000277,534.9735925000277,None,536.0075891000452,None,,,,,,,11010,001,2024_Jan_01_1948,ANT,2021.2.3,59.81655457932141,
1,8,no,down,IC,R,,,,,,Block.xlsx,"你已经完成了整个实验（三个区组）。

请报告实验者已完成实验

非常感谢，再见！",50,0,-1.5,right,LLRLL.png,,,,,0,1,1,1,1,14,38,7,,,,,,,,,,,,,,,,,,,,,,,,,,,,,,,,,,,,,,,,,,,,,,,,,,,,,,,,,,,,,,,,,,,,,,536.4088263000012,536.8106180000468,536.7933034000453,536.8934173000162,537.293730000034,None,right,1,0.5848190999822691,537.293730000034,None,536.7933034000453,536.8934173000162,536.8934173000162,None,537.8937932000263,None,,,,,,,11010,001,2024_Jan_01_1948,ANT,2021.2.3,59.81655457932141,
1,11,center,up,IC,L,,,,,,Block.xlsx,"你已经完成了整个实验（三个区组）。

请报告实验者已完成实验

非常感谢，再见！",0,50,1.5,left,RRLRR.png,,,,,0,1,1,1,1,15,39,10,,,,,,,,,,,,,,,,,,,,,,,,,,,,,,,,,,,,,,,,,,,,,,,,,,,,,,,,,,,,,,,,,,,,,,538.2945770000224,538.695883700042,538.6785099999979,538.7787575000548,539.180743600009,None,left,1,0.5463007999933325,539.180743600009,None,538.6785099999979,538.7787575000548,538.7787575000548,None,539.7466565000359,None,,,,,,,11010,001,2024_Jan_01_1948,ANT,2021.2.3,59.81655457932141,
1,15,center,down,IC,L,,,,,,Block.xlsx,"你已经完成了整个实验（三个区组）。

请报告实验者已完成实验

非常感谢，再见！",0,50,-1.5,left,RRLRR.png,,,,,0,1,1,1,1,16,40,14,,,,,,,,,,,,,,,,,,,,,,,,,,,,,,,,,,,,,,,,,,,,,,,,,,,,,,,,,,,,,,,,,,,,,,540.1471753000515,540.5489310999983,540.5319243000122,540.6317948000506,541.0332795000286,None,left,1,0.6691594999865629,541.0332795000286,None,540.5319243000122,540.6317948000506,540.6317948000506,None,541.7328003000002,None,,,,,,,11010,001,2024_Jan_01_1948,ANT,2021.2.3,59.81655457932141,
1,16,center,down,IC,R,,,,,,Block.xlsx,"你已经完成了整个实验（三个区组）。

请报告实验者已完成实验

非常感谢，再见！",0,50,-1.5,right,LLRLL.png,,,,,0,1,1,1,1,17,41,15,,,,,,,,,,,,,,,,,,,,,,,,,,,,,,,,,,,,,,,,,,,,,,,,,,,,,,,,,,,,,,,,,,,,,,542.1335244000074,542.5351600000286,542.5179149000323,542.618949900032,543.0189625000348,None,right,1,0.6035586000070907,543.0189625000348,None,542.5179149000323,542.618949900032,542.618949900032,None,543.6522810000461,None,,,,,,,11010,001,2024_Jan_01_1948,ANT,2021.2.3,59.81655457932141,
1,24,spatial,down,IC,R,,,,,,Block.xlsx,"你已经完成了整个实验（三个区组）。

请报告实验者已完成实验

非常感谢，再见！",-1.5,0,-1.5,right,LLRLL.png,,,,,0,1,1,1,1,18,42,23,,,,,,,,,,,,,,,,,,,,,,,,,,,,,,,,,,,,,,,,,,,,,,,,,,,,,,,,,,,,,,,,,,,,,,544.0531651000492,544.4546110000229,544.4369083000347,544.5381518000504,544.9375636000186,None,right,1,0.5250636999844573,544.9375636000186,None,544.4369083000347,544.5381518000504,544.5381518000504,None,545.4888144000433,None,,,,,,,11010,001,2024_Jan_01_1948,ANT,2021.2.3,59.81655457932141,
1,9,center,up,C,L,,,,,,Block.xlsx,"你已经完成了整个实验（三个区组）。

请报告实验者已完成实验

非常感谢，再见！",0,50,1.5,left,LLLLL.png,,,,,0,1,1,1,1,19,43,8,,,,,,,,,,,,,,,,,,,,,,,,,,,,,,,,,,,,,,,,,,,,,,,,,,,,,,,,,,,,,,,,,,,,,,545.8898807000369,546.2918877000338,546.2733945000218,546.3739165000152,546.773502200027,None,left,1,0.5859336999710649,546.773502200027,None,546.2733945000218,546.3739165000152,546.3739165000152,None,547.3744023000472,None,,,,,,,11010,001,2024_Jan_01_1948,ANT,2021.2.3,59.81655457932141,
1,2,no,up,C,R,,,,,,Block.xlsx,"你已经完成了整个实验（三个区组）。

请报告实验者已完成实验

非常感谢，再见！",50,0,1.5,right,RRRRR.png,,,,,0,1,1,1,1,20,44,1,,,,,,,,,,,,,,,,,,,,,,,,,,,,,,,,,,,,,,,,,,,,,,,,,,,,,,,,,,,,,,,,,,,,,,547.7754129000241,548.1758551000385,548.1596358000534,548.2596952000167,548.6600527000264,None,right,1,0.5068911000271328,548.6600527000264,None,548.1596358000534,548.2596952000167,548.2596952000167,None,549.1938324000221,None,,,,,,,11010,001,2024_Jan_01_1948,ANT,2021.2.3,59.81655457932141,
1,10,center,up,C,R,,,,,,Block.xlsx,"你已经完成了整个实验（三个区组）。

请报告实验者已完成实验

非常感谢，再见！",0,50,1.5,right,RRRRR.png,,,,,0,1,1,1,1,21,45,9,,,,,,,,,,,,,,,,,,,,,,,,,,,,,,,,,,,,,,,,,,,,,,,,,,,,,,,,,,,,,,,,,,,,,,549.5946085000178,549.9952469000127,549.9808558000368,550.0964869000018,550.4811579000088,None,right,1,0.4214792000129819,550.4811579000088,None,549.9808558000368,550.0964869000018,550.0794606000418,None,550.9300032000174,None,,,,,,,11010,001,2024_Jan_01_1948,ANT,2021.2.3,59.81655457932141,
1,5,no,down,C,L,,,,,,Block.xlsx,"你已经完成了整个实验（三个区组）。

请报告实验者已完成实验

非常感谢，再见！",50,0,-1.5,left,LLLLL.png,,,,,0,1,1,1,1,22,46,4,,,,,,,,,,,,,,,,,,,,,,,,,,,,,,,,,,,,,,,,,,,,,,,,,,,,,,,,,,,,,,,,,,,,,,551.3304721000022,551.7311112000025,551.7153250999982,551.8145539000398,552.2155839000479,None,left,1,0.6308901000302285,552.2155839000479,None,551.7153250999982,551.8145539000398,551.8145539000398,None,552.8659484000527,None,,,,,,,11010,001,2024_Jan_01_1948,ANT,2021.2.3,59.81655457932141,
1,24,spatial,down,IC,R,,,,,,Block.xlsx,"你已经完成了整个实验（三个区组）。

请报告实验者已完成实验

非常感谢，再见！",-1.5,0,-1.5,right,LLRLL.png,,,,,0,1,1,1,1,23,47,23,,,,,,,,,,,,,,,,,,,,,,,,,,,,,,,,,,,,,,,,,,,,,,,,,,,,,,,,,,,,,,,,,,,,,,553.2666176000494,553.6683921000222,553.6509214000544,553.7522381000454,554.1521845000098,None,right,1,0.590414900041651,554.1521845000098,None,553.6509214000544,553.7522381000454,553.7522381000454,None,554.7688346000505,None,,,,,,,11010,001,2024_Jan_01_1948,ANT,2021.2.3,59.81655457932141,
1,14,center,down,C,R,,,,,,Block.xlsx,"你已经完成了整个实验（三个区组）。

请报告实验者已完成实验

非常感谢，再见！",0,50,-1.5,right,RRRRR.png,,,,,0,1,1,1,2,0,48,13,,,,,,,,,,,,,,,,,,,,,,,,,,,,,,,,,,,,,,,,,,,,,,,,,,,,,,,,,,,,,,,,,,,,,,555.169446600019,555.5707016000524,555.554025200021,555.6541427000193,556.0543079000199,None,right,1,0.48874200001591817,556.0543079000199,None,555.554025200021,555.6541427000193,555.6541427000193,None,556.5715051000006,None,,,,,,,11010,001,2024_Jan_01_1948,ANT,2021.2.3,59.81655457932141,
1,23,spatial,down,IC,L,,,,,,Block.xlsx,"你已经完成了整个实验（三个区组）。

请报告实验者已完成实验

非常感谢，再见！",-1.5,0,-1.5,left,RRLRR.png,,,,,0,1,1,1,2,1,49,22,,,,,,,,,,,,,,,,,,,,,,,,,,,,,,,,,,,,,,,,,,,,,,,,,,,,,,,,,,,,,,,,,,,,,,556.9727484000032,557.3741599000059,557.3566033000243,557.4560875000316,557.8569362999988,None,left,1,0.5822344999760389,557.8569362999988,None,557.3566033000243,557.4560875000316,557.4560875000316,None,558.4576996000251,None,,,,,,,11010,001,2024_Jan_01_1948,ANT,2021.2.3,59.81655457932141,
1,4,no,up,IC,R,,,,,,Block.xlsx,"你已经完成了整个实验（三个区组）。

请报告实验者已完成实验

非常感谢，再见！",50,0,1.5,right,LLRLL.png,,,,,0,1,1,1,2,2,50,3,,,,,,,,,,,,,,,,,,,,,,,,,,,,,,,,,,,,,,,,,,,,,,,,,,,,,,,,,,,,,,,,,,,,,,558.8583893000032,559.2595108000096,559.2430647000438,559.3431767000002,559.7435939999996,None,right,1,0.6794427999993786,559.7435939999996,None,559.2430647000438,559.3431767000002,559.3431767000002,None,560.443859400053,None,,,,,,,11010,001,2024_Jan_01_1948,ANT,2021.2.3,59.81655457932141,
1,11,center,up,IC,L,,,,,,Block.xlsx,"你已经完成了整个实验（三个区组）。

请报告实验者已完成实验

非常感谢，再见！",0,50,1.5,left,RRLRR.png,,,,,0,1,1,1,2,3,51,10,,,,,,,,,,,,,,,,,,,,,,,,,,,,,,,,,,,,,,,,,,,,,,,,,,,,,,,,,,,,,,,,,,,,,,560.8450449000229,561.2450271000271,561.2288689000416,561.3286209000507,561.7291577000287,None,left,1,0.6294389000395313,561.7291577000287,None,561.2288689000416,561.3286209000507,561.3286209000507,None,562.3815910000121,None,,,,,,,11010,001,2024_Jan_01_1948,ANT,2021.2.3,59.81655457932141,
1,15,center,down,IC,L,,,,,,Block.xlsx,"你已经完成了整个实验（三个区组）。

请报告实验者已完成实验

非常感谢，再见！",0,50,-1.5,left,RRLRR.png,,,,,0,1,1,1,2,4,52,14,,,,,,,,,,,,,,,,,,,,,,,,,,,,,,,,,,,,,,,,,,,,,,,,,,,,,,,,,,,,,,,,,,,,,,562.7806605000515,563.1821941000526,563.1661563000525,563.2649613000103,563.6662379000336,None,left,1,0.5964460999821313,563.6662379000336,None,563.1661563000525,563.2649613000103,563.2649613000103,None,564.282901300001,None,,,,,,,11010,001,2024_Jan_01_1948,ANT,2021.2.3,59.81655457932141,
1,22,spatial,down,C,R,,,,,,Block.xlsx,"你已经完成了整个实验（三个区组）。

请报告实验者已完成实验

非常感谢，再见！",-1.5,0,-1.5,right,RRRRR.png,,,,,0,1,1,1,2,5,53,21,,,,,,,,,,,,,,,,,,,,,,,,,,,,,,,,,,,,,,,,,,,,,,,,,,,,,,,,,,,,,,,,,,,,,,564.6835459000431,565.0843330000062,565.0686811000342,565.1850655000308,565.5701170000248,None,right,1,0.476526600017678,565.5701170000248,None,565.0686811000342,565.1850655000308,565.1696108000469,None,566.068756600027,None,,,,,,,11010,001,2024_Jan_01_1948,ANT,2021.2.3,59.81655457932141,
1,23,spatial,down,IC,L,,,,,,Block.xlsx,"你已经完成了整个实验（三个区组）。

请报告实验者已完成实验

非常感谢，再见！",-1.5,0,-1.5,left,RRLRR.png,,,,,0,1,1,1,2,6,54,22,,,,,,,,,,,,,,,,,,,,,,,,,,,,,,,,,,,,,,,,,,,,,,,,,,,,,,,,,,,,,,,,,,,,,,566.4693794000195,566.8718026000424,566.8540004000533,566.9546684000525,567.3549210000201,None,left,1,0.5079085000324994,567.3549210000201,None,566.8540004000533,566.9546684000525,566.9546684000525,None,567.8880378000322,None,,,,,,,11010,001,2024_Jan_01_1948,ANT,2021.2.3,59.81655457932141,
1,10,center,up,C,R,,,,,,Block.xlsx,"你已经完成了整个实验（三个区组）。

请报告实验者已完成实验

非常感谢，再见！",0,50,1.5,right,RRRRR.png,,,,,0,1,1,1,2,7,55,9,,,,,,,,,,,,,,,,,,,,,,,,,,,,,,,,,,,,,,,,,,,,,,,,,,,,,,,,,,,,,,,,,,,,,,568.2888899000245,568.6896080000442,568.6739502000273,568.7732521000435,569.1736690000398,None,right,1,0.433582000026945,569.1736690000398,None,568.6739502000273,568.7732521000435,568.7732521000435,None,569.6242820000043,None,,,,,,,11010,001,2024_Jan_01_1948,ANT,2021.2.3,59.81655457932141,
1,1,no,up,C,L,,,,,,Block.xlsx,"你已经完成了整个实验（三个区组）。

请报告实验者已完成实验

非常感谢，再见！",50,0,1.5,left,LLLLL.png,,,,,0,1,1,1,2,8,56,0,,,,,,,,,,,,,,,,,,,,,,,,,,,,,,,,,,,,,,,,,,,,,,,,,,,,,,,,,,,,,,,,,,,,,,570.0248960000463,570.4258202000055,570.4091793000116,570.5105801000027,570.9115374000394,None,left,1,0.7432049000053667,570.9115374000394,None,570.4091793000116,570.5105801000027,570.5105801000027,None,571.6772440000204,None,,,,,,,11010,001,2024_Jan_01_1948,ANT,2021.2.3,59.81655457932141,
1,21,spatial,down,C,L,,,,,,Block.xlsx,"你已经完成了整个实验（三个区组）。

请报告实验者已完成实验

非常感谢，再见！",-1.5,0,-1.5,left,LLLLL.png,,,,,0,1,1,1,2,9,57,20,,,,,,,,,,,,,,,,,,,,,,,,,,,,,,,,,,,,,,,,,,,,,,,,,,,,,,,,,,,,,,,,,,,,,,572.0781305000419,572.4788753000321,572.4615897000185,572.5630993000232,572.9624893,None,left,1,0.5961443000123836,572.9624893,None,572.4615897000185,572.5630993000232,572.5630993000232,None,573.579903600039,None,,,,,,,11010,001,2024_Jan_01_1948,ANT,2021.2.3,59.81655457932141,
1,17,spatial,up,C,L,,,,,,Block.xlsx,"你已经完成了整个实验（三个区组）。

请报告实验者已完成实验

非常感谢，再见！",1.5,0,1.5,left,LLLLL.png,,,,,0,1,1,1,2,10,58,16,,,,,,,,,,,,,,,,,,,,,,,,,,,,,,,,,,,,,,,,,,,,,,,,,,,,,,,,,,,,,,,,,,,,,,573.9810304000275,574.3812170000165,574.3647753000259,574.4664325000485,574.8651738000335,None,left,1,0.43785919999936596,574.8651738000335,None,574.3647753000259,574.4664325000485,574.4664325000485,None,575.3326682000188,None,,,,,,,11010,001,2024_Jan_01_1948,ANT,2021.2.3,59.81655457932141,
1,9,center,up,C,L,,,,,,Block.xlsx,"你已经完成了整个实验（三个区组）。

请报告实验者已完成实验

非常感谢，再见！",0,50,1.5,left,LLLLL.png,,,,,0,1,1,1,2,11,59,8,,,,,,,,,,,,,,,,,,,,,,,,,,,,,,,,,,,,,,,,,,,,,,,,,,,,,,,,,,,,,,,,,,,,,,575.7335887000081,576.1344413000043,576.1170780000393,576.2173509999993,576.6200606000493,None,left,1,0.5386174999875948,576.6200606000493,None,576.1170780000393,576.2173509999993,576.2173509999993,None,577.1858802000061,None,,,,,,,11010,001,2024_Jan_01_1948,ANT,2021.2.3,59.81655457932141,
1,9,center,up,C,L,,,,,,Block.xlsx,"你已经完成了整个实验（三个区组）。

请报告实验者已完成实验

非常感谢，再见！",0,50,1.5,left,LLLLL.png,,,,,0,1,1,1,2,12,60,8,,,,,,,,,,,,,,,,,,,,,,,,,,,,,,,,,,,,,,,,,,,,,,,,,,,,,,,,,,,,,,,,,,,,,,577.5861128000543,577.9876736000297,577.9700199000072,578.0707127000205,578.4730640000198,None,left,1,0.5575078999972902,578.4730640000198,None,577.9700199000072,578.0707127000205,578.0707127000205,None,579.0548552000546,None,,,,,,,11010,001,2024_Jan_01_1948,ANT,2021.2.3,59.81655457932141,
1,20,spatial,up,IC,R,,,,,,Block.xlsx,"你已经完成了整个实验（三个区组）。

请报告实验者已完成实验

非常感谢，再见！",1.5,0,1.5,right,LLRLL.png,,,,,0,1,1,1,2,13,61,19,,,,,,,,,,,,,,,,,,,,,,,,,,,,,,,,,,,,,,,,,,,,,,,,,,,,,,,,,,,,,,,,,,,,,,579.4552586000063,579.8567946000258,579.8405250000069,579.9562212000019,580.340671300015,None,right,1,0.858073300041724,580.340671300015,None,579.8405250000069,579.9562212000019,579.9403762000147,None,581.2246967000538,None,,,,,,,11010,001,2024_Jan_01_1948,ANT,2021.2.3,59.81655457932141,
1,13,center,down,C,L,,,,,,Block.xlsx,"你已经完成了整个实验（三个区组）。

请报告实验者已完成实验

非常感谢，再见！",0,50,-1.5,left,LLLLL.png,,,,,0,1,1,1,2,14,62,12,,,,,,,,,,,,,,,,,,,,,,,,,,,,,,,,,,,,,,,,,,,,,,,,,,,,,,,,,,,,,,,,,,,,,,581.6253649000428,582.0264867000515,582.0103135000099,582.1093384000123,582.5099318000139,None,left,1,0.6485922999563627,582.5099318000139,None,582.0103135000099,582.1093384000123,582.1093384000123,None,583.1775453000446,None,,,,,,,11010,001,2024_Jan_01_1948,ANT,2021.2.3,59.81655457932141,
1,8,no,down,IC,R,,,,,,Block.xlsx,"你已经完成了整个实验（三个区组）。

请报告实验者已完成实验

非常感谢，再见！",50,0,-1.5,right,LLRLL.png,,,,,0,1,1,1,2,15,63,7,,,,,,,,,,,,,,,,,,,,,,,,,,,,,,,,,,,,,,,,,,,,,,,,,,,,,,,,,,,,,,,,,,,,,,583.5788836000138,583.9788006000454,583.9627917000325,584.0624214000418,584.4628340000054,None,right,1,0.6400165000231937,584.4628340000054,None,583.9627917000325,584.0624214000418,584.0624214000418,None,585.1304261000478,None,,,,,,,11010,001,2024_Jan_01_1948,ANT,2021.2.3,59.81655457932141,
1,11,center,up,IC,L,,,,,,Block.xlsx,"你已经完成了整个实验（三个区组）。

请报告实验者已完成实验

非常感谢，再见！",0,50,1.5,left,RRLRR.png,,,,,0,1,1,1,2,16,64,10,,,,,,,,,,,,,,,,,,,,,,,,,,,,,,,,,,,,,,,,,,,,,,,,,,,,,,,,,,,,,,,,,,,,,,585.5318099000142,585.9324607000453,585.915175000031,586.0160483000218,586.4157297000056,None,left,1,0.9270684000221081,586.4157297000056,None,585.915175000031,586.0160483000218,586.0160483000218,None,587.3670145000215,None,,,,,,,11010,001,2024_Jan_01_1948,ANT,2021.2.3,59.81655457932141,
1,16,center,down,IC,R,,,,,,Block.xlsx,"你已经完成了整个实验（三个区组）。

请报告实验者已完成实验

非常感谢，再见！",0,50,-1.5,right,LLRLL.png,,,,,0,1,1,1,2,17,65,15,,,,,,,,,,,,,,,,,,,,,,,,,,,,,,,,,,,,,,,,,,,,,,,,,,,,,,,,,,,,,,,,,,,,,,587.7676704000332,588.1691876000259,588.1524810999981,588.2525422000326,588.6524193000514,None,right,1,0.5223916000104509,588.6524193000514,None,588.1524810999981,588.2525422000326,588.2525422000326,None,589.2033151000505,None,,,,,,,11010,001,2024_Jan_01_1948,ANT,2021.2.3,59.81655457932141,
1,4,no,up,IC,R,,,,,,Block.xlsx,"你已经完成了整个实验（三个区组）。

请报告实验者已完成实验

非常感谢，再见！",50,0,1.5,right,LLRLL.png,,,,,0,1,1,1,2,18,66,3,,,,,,,,,,,,,,,,,,,,,,,,,,,,,,,,,,,,,,,,,,,,,,,,,,,,,,,,,,,,,,,,,,,,,,589.604024100001,590.0045188000076,589.9891268000356,590.0879995000432,590.489082300046,None,right,1,0.6541088999947533,590.489082300046,None,589.9891268000356,590.0879995000432,590.0879995000432,None,591.1728337000241,None,,,,,,,11010,001,2024_Jan_01_1948,ANT,2021.2.3,59.81655457932141,
1,12,center,up,IC,R,,,,,,Block.xlsx,"你已经完成了整个实验（三个区组）。

请报告实验者已完成实验

非常感谢，再见！",0,50,1.5,right,LLRLL.png,,,,,0,1,1,1,2,19,67,11,,,,,,,,,,,,,,,,,,,,,,,,,,,,,,,,,,,,,,,,,,,,,,,,,,,,,,,,,,,,,,,,,,,,,,591.5734812000301,591.9750043000095,591.9571790000191,592.0585449000355,592.4604321000515,None,right,1,0.6021705999737605,592.4604321000515,None,591.9571790000191,592.0585449000355,592.0585449000355,None,593.0928559000022,None,,,,,,,11010,001,2024_Jan_01_1948,ANT,2021.2.3,59.81655457932141,
1,18,spatial,up,C,R,,,,,,Block.xlsx,"你已经完成了整个实验（三个区组）。

请报告实验者已完成实验

非常感谢，再见！",1.5,0,1.5,right,RRRRR.png,,,,,0,1,1,1,2,20,68,17,,,,,,,,,,,,,,,,,,,,,,,,,,,,,,,,,,,,,,,,,,,,,,,,,,,,,,,,,,,,,,,,,,,,,,593.492866500048,593.8947423000354,593.8775301999995,593.9777030000114,594.3793434000108,None,right,1,0.44348990003345534,594.3793434000108,None,593.8775301999995,593.9777030000114,593.9777030000114,None,594.8448044000543,None,,,,,,,11010,001,2024_Jan_01_1948,ANT,2021.2.3,59.81655457932141,
1,6,no,down,C,R,,,,,,Block.xlsx,"你已经完成了整个实验（三个区组）。

请报告实验者已完成实验

非常感谢，再见！",50,0,-1.5,right,RRRRR.png,,,,,0,1,1,1,2,21,69,5,,,,,,,,,,,,,,,,,,,,,,,,,,,,,,,,,,,,,,,,,,,,,,,,,,,,,,,,,,,,,,,,,,,,,,595.2454803000437,595.646647000045,595.6300990000018,595.7297628000379,596.1300953000318,None,right,1,0.7484900000272319,596.1300953000318,None,595.6300990000018,595.7297628000379,595.7297628000379,None,596.8982339000213,None,,,,,,,11010,001,2024_Jan_01_1948,ANT,2021.2.3,59.81655457932141,
1,16,center,down,IC,R,,,,,,Block.xlsx,"你已经完成了整个实验（三个区组）。

请报告实验者已完成实验

非常感谢，再见！",0,50,-1.5,right,LLRLL.png,,,,,0,1,1,1,2,22,70,15,,,,,,,,,,,,,,,,,,,,,,,,,,,,,,,,,,,,,,,,,,,,,,,,,,,,,,,,,,,,,,,,,,,,,,597.2985438000178,597.6996334000141,597.6833767000353,597.7831190000288,598.183401300048,None,right,1,0.5999309999751858,598.183401300048,None,597.6833767000353,597.7831190000288,597.7831190000288,None,598.8010774000431,None,,,,,,,11010,001,2024_Jan_01_1948,ANT,2021.2.3,59.81655457932141,
1,14,center,down,C,R,,,,,,Block.xlsx,"你已经完成了整个实验（三个区组）。

请报告实验者已完成实验

非常感谢，再见！",0,50,-1.5,right,RRRRR.png,,,,,0,1,1,1,2,23,71,13,,,,,,,,,,,,,,,,,,,,,,,,,,,,,,,,,,,,,,,,,,,,,,,,,,,,,,,,,,,,,,,,,,,,,,599.2021152000525,599.6017823000439,599.5861250000307,599.6856905000168,600.0866054000217,None,right,1,0.5918844999978319,600.0866054000217,None,599.5861250000307,599.6856905000168,599.6856905000168,None,600.7035612000036,None,,,,,,,11010,001,2024_Jan_01_1948,ANT,2021.2.3,59.81655457932141,
1,20,spatial,up,IC,R,,,,,,Block.xlsx,"你已经完成了整个实验（三个区组）。

请报告实验者已完成实验

非常感谢，再见！",1.5,0,1.5,right,LLRLL.png,,,,,0,1,1,1,3,0,72,19,,,,,,,,,,,,,,,,,,,,,,,,,,,,,,,,,,,,,,,,,,,,,,,,,,,,,,,,,,,,,,,,,,,,,,601.1058000000194,601.5053455000161,601.4895174000412,601.6069709000294,601.9899248000002,None,right,1,0.6491231999825686,601.9899248000002,None,601.4895174000412,601.6069709000294,601.5891968000215,None,602.6565047000186,None,,,,,,,11010,001,2024_Jan_01_1948,ANT,2021.2.3,59.81655457932141,
1,22,spatial,down,C,R,,,,,,Block.xlsx,"你已经完成了整个实验（三个区组）。

请报告实验者已完成实验

非常感谢，再见！",-1.5,0,-1.5,right,RRRRR.png,,,,,0,1,1,1,3,1,73,21,,,,,,,,,,,,,,,,,,,,,,,,,,,,,,,,,,,,,,,,,,,,,,,,,,,,,,,,,,,,,,,,,,,,,,603.0571470000432,603.4584101000219,603.4415225000121,603.5422199000022,603.9423213000409,None,right,1,0.4244849000242539,603.9423213000409,None,603.4415225000121,603.5422199000022,603.5422199000022,None,604.3922707000165,None,,,,,,,11010,001,2024_Jan_01_1948,ANT,2021.2.3,59.81655457932141,
1,13,center,down,C,L,,,,,,Block.xlsx,"你已经完成了整个实验（三个区组）。

请报告实验者已完成实验

非常感谢，再见！",0,50,-1.5,left,LLLLL.png,,,,,0,1,1,1,3,2,74,12,,,,,,,,,,,,,,,,,,,,,,,,,,,,,,,,,,,,,,,,,,,,,,,,,,,,,,,,,,,,,,,,,,,,,,604.7930434000446,605.1936391000054,605.1776245000074,605.277846800047,605.6790996000054,None,left,1,0.5916740000247955,605.6790996000054,None,605.1776245000074,605.277846800047,605.277846800047,None,606.2952931000036,None,,,,,,,11010,001,2024_Jan_01_1948,ANT,2021.2.3,59.81655457932141,
1,3,no,up,IC,L,,,,,,Block.xlsx,"你已经完成了整个实验（三个区组）。

请报告实验者已完成实验

非常感谢，再见！",50,0,1.5,left,RRLRR.png,,,,,0,1,1,1,3,3,75,2,,,,,,,,,,,,,,,,,,,,,,,,,,,,,,,,,,,,,,,,,,,,,,,,,,,,,,,,,,,,,,,,,,,,,,606.6964139000047,607.0979057000368,607.0805181000032,607.1797182000009,607.5808060000418,None,left,1,0.6898671999806538,607.5808060000418,None,607.0805181000032,607.1797182000009,607.1797182000009,None,608.2980837000068,None,,,,,,,11010,001,2024_Jan_01_1948,ANT,2021.2.3,59.81655457932141,
1,13,center,down,C,L,,,,,,Block.xlsx,"你已经完成了整个实验（三个区组）。

请报告实验者已完成实验

非常感谢，再见！",0,50,-1.5,left,LLLLL.png,,,,,0,1,1,1,3,4,76,12,,,,,,,,,,,,,,,,,,,,,,,,,,,,,,,,,,,,,,,,,,,,,,,,,,,,,,,,,,,,,,,,,,,,,,608.6987673999975,609.0994751000544,609.084684100002,609.185129700054,609.5845194000285,None,left,1,0.5422621999750845,609.5845194000285,None,609.084684100002,609.185129700054,609.185129700054,None,610.1508234000066,None,,,,,,,11010,001,2024_Jan_01_1948,ANT,2021.2.3,59.81655457932141,
1,8,no,down,IC,R,,,,,,Block.xlsx,"你已经完成了整个实验（三个区组）。

请报告实验者已完成实验

非常感谢，再见！",50,0,-1.5,right,LLRLL.png,,,,,0,1,1,1,3,5,77,7,,,,,,,,,,,,,,,,,,,,,,,,,,,,,,,,,,,,,,,,,,,,,,,,,,,,,,,,,,,,,,,,,,,,,,610.5520795000484,610.9534863000154,610.9354819,611.035613300046,611.4370507000131,None,right,1,0.5935653999913484,611.4370507000131,None,610.9354819,611.035613300046,611.035613300046,None,612.053681600024,None,,,,,,,11010,001,2024_Jan_01_1948,ANT,2021.2.3,59.81655457932141,
1,20,spatial,up,IC,R,,,,,,Block.xlsx,"你已经完成了整个实验（三个区组）。

请报告实验者已完成实验

非常感谢，再见！",1.5,0,1.5,right,LLRLL.png,,,,,0,1,1,1,3,6,78,19,,,,,,,,,,,,,,,,,,,,,,,,,,,,,,,,,,,,,,,,,,,,,,,,,,,,,,,,,,,,,,,,,,,,,,612.4541523000225,612.8556104000309,612.8403677000315,612.9557002000511,613.3401491999975,None,right,1,0.4986843999940902,613.3401491999975,None,612.8403677000315,612.9557002000511,612.938554100052,None,613.8564795000129,None,,,,,,,11010,001,2024_Jan_01_1948,ANT,2021.2.3,59.81655457932141,
1,4,no,up,IC,R,,,,,,Block.xlsx,"你已经完成了整个实验（三个区组）。

请报告实验者已完成实验

非常感谢，再见！",50,0,1.5,right,LLRLL.png,,,,,0,1,1,1,3,7,79,3,,,,,,,,,,,,,,,,,,,,,,,,,,,,,,,,,,,,,,,,,,,,,,,,,,,,,,,,,,,,,,,,,,,,,,614.2574734000373,614.6584535000147,614.6415571000543,614.7418516000034,615.1427074000239,None,right,1,0.5838279000017792,615.1427074000239,None,614.6415571000543,614.7418516000034,614.7418516000034,None,615.7428957000375,None,,,,,,,11010,001,2024_Jan_01_1948,ANT,2021.2.3,59.81655457932141,
1,4,no,up,IC,R,,,,,,Block.xlsx,"你已经完成了整个实验（三个区组）。

请报告实验者已完成实验

非常感谢，再见！",50,0,1.5,right,LLRLL.png,,,,,0,1,1,1,3,8,80,3,,,,,,,,,,,,,,,,,,,,,,,,,,,,,,,,,,,,,,,,,,,,,,,,,,,,,,,,,,,,,,,,,,,,,,616.143341500021,616.5462063000305,616.5283426000387,616.627520100039,617.0276758000255,None,right,1,0.5951238999841735,617.0276758000255,None,616.5283426000387,616.627520100039,616.627520100039,None,617.6453935000463,None,,,,,,,11010,001,2024_Jan_01_1948,ANT,2021.2.3,59.81655457932141,
1,18,spatial,up,C,R,,,,,,Block.xlsx,"你已经完成了整个实验（三个区组）。

请报告实验者已完成实验

非常感谢，再见！",1.5,0,1.5,right,RRRRR.png,,,,,0,1,1,1,3,9,81,17,,,,,,,,,,,,,,,,,,,,,,,,,,,,,,,,,,,,,,,,,,,,,,,,,,,,,,,,,,,,,,,,,,,,,,618.0467140999972,618.4473822000436,618.4316190000391,618.5468666000525,618.9308266000007,None,right,1,0.46031270001549274,618.9308266000007,None,618.4316190000391,618.5468666000525,618.5314931000466,None,619.4147296000156,None,,,,,,,11010,001,2024_Jan_01_1948,ANT,2021.2.3,59.81655457932141,
1,18,spatial,up,C,R,,,,,,Block.xlsx,"你已经完成了整个实验（三个区组）。

请报告实验者已完成实验

非常感谢，再见！",1.5,0,1.5,right,RRRRR.png,,,,,0,1,1,1,3,10,82,17,,,,,,,,,,,,,,,,,,,,,,,,,,,,,,,,,,,,,,,,,,,,,,,,,,,,,,,,,,,,,,,,,,,,,,619.8151370999985,620.217560500023,620.1991572000552,620.29944110004,620.7007119000191,None,right,1,0.5305129000335,620.7007119000191,None,620.1991572000552,620.29944110004,620.29944110004,None,621.2506410000497,None,,,,,,,11010,001,2024_Jan_01_1948,ANT,2021.2.3,59.81655457932141,
1,16,center,down,IC,R,,,,,,Block.xlsx,"你已经完成了整个实验（三个区组）。

请报告实验者已完成实验

非常感谢，再见！",0,50,-1.5,right,LLRLL.png,,,,,0,1,1,1,3,11,83,15,,,,,,,,,,,,,,,,,,,,,,,,,,,,,,,,,,,,,,,,,,,,,,,,,,,,,,,,,,,,,,,,,,,,,,621.6512094000354,622.0522501000087,622.0359414000413,622.1379342,622.5357345000375,None,right,1,0.6154344000387937,622.5357345000375,None,622.0359414000413,622.1379342,622.1379342,None,623.1705844000098,None,,,,,,,11010,001,2024_Jan_01_1948,ANT,2021.2.3,59.81655457932141,
1,2,no,up,C,R,,,,,,Block.xlsx,"你已经完成了整个实验（三个区组）。

请报告实验者已完成实验

非常感谢，再见！",50,0,1.5,right,RRRRR.png,,,,,0,1,1,1,3,12,84,1,,,,,,,,,,,,,,,,,,,,,,,,,,,,,,,,,,,,,,,,,,,,,,,,,,,,,,,,,,,,,,,,,,,,,,623.5714210000006,623.9723620000295,623.9547369000502,624.0552884000354,624.4559455999988,None,right,1,0.8230300999712199,624.4559455999988,None,623.9547369000502,624.0552884000354,624.0552884000354,None,625.3065490000299,None,,,,,,,11010,001,2024_Jan_01_1948,ANT,2021.2.3,59.81655457932141,
1,7,no,down,IC,L,,,,,,Block.xlsx,"你已经完成了整个实验（三个区组）。

请报告实验者已完成实验

非常感谢，再见！",50,0,-1.5,left,RRLRR.png,,,,,0,1,1,1,3,13,85,6,,,,,,,,,,,,,,,,,,,,,,,,,,,,,,,,,,,,,,,,,,,,,,,,,,,,,,,,,,,,,,,,,,,,,,625.7072411000263,626.1094616000191,626.0915498000104,626.1912340000272,626.5934597000014,None,left,1,0.7173423999920487,626.5934597000014,None,626.0915498000104,626.1912340000272,626.1912340000272,None,627.3261947000283,None,,,,,,,11010,001,2024_Jan_01_1948,ANT,2021.2.3,59.81655457932141,
1,2,no,up,C,R,,,,,,Block.xlsx,"你已经完成了整个实验（三个区组）。

请报告实验者已完成实验

非常感谢，再见！",50,0,1.5,right,RRRRR.png,,,,,0,1,1,1,3,14,86,1,,,,,,,,,,,,,,,,,,,,,,,,,,,,,,,,,,,,,,,,,,,,,,,,,,,,,,,,,,,,,,,,,,,,,,627.7271508999984,628.1286784000113,628.1118181000347,628.2119993000524,628.613602700003,None,right,1,0.5778630000422709,628.613602700003,None,628.1118181000347,628.2119993000524,628.2119993000524,None,629.2123716000351,None,,,,,,,11010,001,2024_Jan_01_1948,ANT,2021.2.3,59.81655457932141,
1,1,no,up,C,L,,,,,,Block.xlsx,"你已经完成了整个实验（三个区组）。

请报告实验者已完成实验

非常感谢，再见！",50,0,1.5,left,LLLLL.png,,,,,0,1,1,1,3,15,87,0,,,,,,,,,,,,,,,,,,,,,,,,,,,,,,,,,,,,,,,,,,,,,,,,,,,,,,,,,,,,,,,,,,,,,,629.6130671999999,630.0158941000118,629.9976289000479,630.0992167000077,630.4984824000276,None,left,1,0.6046199999982491,630.4984824000276,None,629.9976289000479,630.0992167000077,630.0992167000077,None,631.1321127000265,None,,,,,,,11010,001,2024_Jan_01_1948,ANT,2021.2.3,59.81655457932141,
1,14,center,down,C,R,,,,,,Block.xlsx,"你已经完成了整个实验（三个区组）。

请报告实验者已完成实验

非常感谢，再见！",0,50,-1.5,right,RRRRR.png,,,,,0,1,1,1,3,16,88,13,,,,,,,,,,,,,,,,,,,,,,,,,,,,,,,,,,,,,,,,,,,,,,,,,,,,,,,,,,,,,,,,,,,,,,631.5326184000005,631.9331862000399,631.9170976000023,632.0166713000508,632.4171706000343,None,right,1,0.5255131000303663,632.4171706000343,None,631.9170976000023,632.0166713000508,632.0166713000508,None,632.968221200048,None,,,,,,,11010,001,2024_Jan_01_1948,ANT,2021.2.3,59.81655457932141,
1,5,no,down,C,L,,,,,,Block.xlsx,"你已经完成了整个实验（三个区组）。

请报告实验者已完成实验

非常感谢，再见！",50,0,-1.5,left,LLLLL.png,,,,,0,1,1,1,3,17,89,4,,,,,,,,,,,,,,,,,,,,,,,,,,,,,,,,,,,,,,,,,,,,,,,,,,,,,,,,,,,,,,,,,,,,,,633.3684184000012,633.769873900048,633.7537232000032,633.8538489000057,634.2545151000377,None,left,1,0.7122050000471063,634.2545151000377,None,633.7537232000032,633.8538489000057,633.8538489000057,None,634.9879086000146,None,,,,,,,11010,001,2024_Jan_01_1948,ANT,2021.2.3,59.81655457932141,
1,19,spatial,up,IC,L,,,,,,Block.xlsx,"你已经完成了整个实验（三个区组）。

请报告实验者已完成实验

