TrialType,TrialNumber,WarningType,TargetType,FlankerType,TargetDirection,W,f,Y,corr,imageFile,condition,endtext,Yw,Yf,Yt,Corr,imagefile,trials_3.thisRepN,trials_3.thisTrialN,trials_3.thisN,trials_3.thisIndex,trials_2.thisRepN,trials_2.thisTrialN,trials_2.thisN,trials_2.thisIndex,trials.thisRepN,trials.thisTrialN,trials.thisN,trials.thisIndex,instr.started,instr.stopped,key_resp.keys,key_resp.rt,key_resp.started,key_resp.stopped,image.started,image.stopped,key_resp_6.keys,key_resp_6.rt,key_resp_6.started,key_resp_6.stopped,EX_L.started,EX_L.stopped,AL.started,AL.stopped,key_resp_7.keys,key_resp_7.rt,key_resp_7.started,key_resp_7.stopped,EX_R.started,EX_R.stopped,RR.started,RR.stopped,key_resp_8.keys,key_resp_8.rt,key_resp_8.started,key_resp_8.stopped,image_2.started,image_2.stopped,key_resp_9.keys,key_resp_9.rt,key_resp_9.started,key_resp_9.stopped,image_3.started,image_3.stopped,key_resp_10.keys,key_resp_10.rt,key_resp_10.started,key_resp_10.stopped,fix.started,fix.stopped,war.started,war.stopped,tar.started,tar.stopped,key_resp_4.keys,key_resp_4.corr,key_resp_4.rt,key_resp_4.started,key_resp_4.stopped,fix2.started,fix2.stopped,fix_2.started,fix_2.stopped,Feedback.started,Feedback.stopped,key_resp_2.keys,key_resp_2.rt,key_resp_2.started,key_resp_2.stopped,text_5.started,text_5.stopped,fix2_1.started,fix2_1.stopped,Warn.started,Warn.stopped,Tar.started,Tar.stopped,key_resp_5.keys,key_resp_5.corr,key_resp_5.rt,key_resp_5.started,key_resp_5.stopped,Fix_2.started,Fix_2.stopped,fix2_2.started,fix2_2.stopped,text_4.started,text_4.stopped,key_resp_3.keys,key_resp_3.rt,key_resp_3.started,key_resp_3.stopped,text_3.started,text_3.stopped,participant,session,date,expName,psychopyVersion,frameRate,
,,,,,,,,,,,,,,,,,,,,,,,,,,,,,,8.85967209993396,None,space,15.081996299908496,8.85967209993396,None,,,,,,,,,,,,,,,,,,,,,,,,,,,,,,,,,,,,,,,,,,,,,,,,,,,,,,,,,,,,,,,,,,,,,,,,,,,,,,,,,11014,001,2024_Jan_04_1020,ANT,2021.2.3,60.027792898048375,
,,,,,,,,,,,,,,,,,,,,,,,,,,,,,,,,,,,,23.965123299974948,None,space,6.480664200033061,23.965123299974948,None,,,,,,,,,,,,,,,,,,,,,,,,,,,,,,,,,,,,,,,,,,,,,,,,,,,,,,,,,,,,,,,,,,,,,,,,,,,11014,001,2024_Jan_04_1020,ANT,2021.2.3,60.027792898048375,
,,,,,,,,,,,,,,,,,,,,,,,,,,,,,,,,,,,,,,,,,,30.47447579994332,None,30.47447579994332,None,left,1.8046412999974564,30.47447579994332,None,,,,,,,,,,,,,,,,,,,,,,,,,,,,,,,,,,,,,,,,,,,,,,,,,,,,,,,,,,,,,,,,,,,11014,001,2024_Jan_04_1020,ANT,2021.2.3,60.027792898048375,
,,,,,,,,,,,,,,,,,,,,,,,,,,,,,,,,,,,,,,,,,,,,,,,,,,32.294075199984945,None,32.294075199984945,None,right,0.8477629999397323,32.294075199984945,None,,,,,,,,,,,,,,,,,,,,,,,,,,,,,,,,,,,,,,,,,,,,,,,,,,,,,,,,,,,11014,001,2024_Jan_04_1020,ANT,2021.2.3,60.027792898048375,
,,,,,,,,,,,,,,,,,,,,,,,,,,,,,,,,,,,,,,,,,,,,,,,,,,,,,,,,,,33.1626337999478,None,space,38.995148599962704,33.1626337999478,None,,,,,,,,,,,,,,,,,,,,,,,,,,,,,,,,,,,,,,,,,,,,,,,,,,,,,11014,001,2024_Jan_04_1020,ANT,2021.2.3,60.027792898048375,
,,,,,,,,,,,,,,,,,,,,,,,,,,,,,,,,,,,,,,,,,,,,,,,,,,,,,,,,,,,,,,,,72.18677429994568,None,space,9.114727900014259,72.18677429994568,None,,,,,,,,,,,,,,,,,,,,,,,,,,,,,,,,,,,,,,,,,,,,,,,11014,001,2024_Jan_04_1020,ANT,2021.2.3,60.027792898048375,
0,2,no,up,IC,R,50,0,1.5,right,LLRLL.png,,,,,,,,0,0,0,1,,,,,,,,,,,,,,,,,,,,,,,,,,,,,,,,,,,,,,,,,,,,,,,,,81.3834173999494,81.78550410002936,81.7679604999721,81.8683294999646,82.26959679997526,None,right,1,0.9597008998971432,82.26959679997526,None,81.7679604999721,81.8683294999646,81.8683294999646,None,83.27063429995906,None,,,,,,,,,,,,,,,,,,,,,,,,,,,,,,11014,001,2024_Jan_04_1020,ANT,2021.2.3,60.027792898048375,
0,1,no,up,C,L,50,0,1.5,left,LLLLL.png,,,,,,,,0,1,1,0,,,,,,,,,,,,,,,,,,,,,,,,,,,,,,,,,,,,,,,,,,,,,,,,,85.27349749999121,85.67414379992988,85.6567113000201,85.7566018999787,86.1589176999405,None,left,1,0.4948900999734178,86.1589176999405,None,85.6567113000201,85.7566018999787,85.7566018999787,None,86.67457829997875,None,,,,,,,,,,,,,,,,,,,,,,,,,,,,,,11014,001,2024_Jan_04_1020,ANT,2021.2.3,60.027792898048375,
0,12,spatial,down,IC,R,-1.5,0,-1.5,right,LLRLL.png,,,,,,,,0,2,2,11,,,,,,,,,,,,,,,,,,,,,,,,,,,,,,,,,,,,,,,,,,,,,,,,,88.67813919996843,89.07904620002955,89.06211049994454,89.16215340001509,89.5621255999431,None,right,1,0.6518485000124201,89.5621255999431,None,89.06211049994454,89.16215340001509,89.16215340001509,None,90.22984879999422,None,,,,,,,,,,,,,,,,,,,,,,,,,,,,,,11014,001,2024_Jan_04_1020,ANT,2021.2.3,60.027792898048375,
0,10,spatial,up,IC,L,1.5,0,1.5,left,RRLRR.png,,,,,,,,0,3,3,9,,,,,,,,,,,,,,,,,,,,,,,,,,,,,,,,,,,,,,,,,,,,,,,,,92.23299639998004,92.6355969000142,92.61724839999806,92.71756170003209,93.11985809996258,None,left,1,0.5336551999207586,93.11985809996258,None,92.61724839999806,92.71756170003209,92.71756170003209,None,93.66828969994094,None,,,,,,,,,,,,,,,,,,,,,,,,,,,,,,11014,001,2024_Jan_04_1020,ANT,2021.2.3,60.027792898048375,
0,6,center,up,IC,R,0,50,1.5,right,LLRLL.png,,,,,,,,0,4,4,5,,,,,,,,,,,,,,,,,,,,,,,,,,,,,,,,,,,,,,,,,,,,,,,,,95.6713960999623,96.07446179992985,96.05584199994337,96.15611510002054,96.55574410001282,None,right,1,0.5858899999875575,96.55574410001282,None,96.05584199994337,96.15611510002054,96.15611510002054,None,97.15680869994685,None,,,,,,,,,,,,,,,,,,,,,,,,,,,,,,11014,001,2024_Jan_04_1020,ANT,2021.2.3,60.027792898048375,
0,3,no,down,C,R,50,0,-1.5,right,RRRRR.png,,,,,,,,0,5,5,2,,,,,,,,,,,,,,,,,,,,,,,,,,,,,,,,,,,,,,,,,,,,,,,,,99.15992459992412,99.56050839996897,99.54428689996712,99.64531369996257,100.0458317999728,None,right,1,0.5197041000938043,100.0458317999728,None,99.54428689996712,99.64531369996257,99.64531369996257,None,100.59532750002109,None,,,,,,,,,,,,,,,,,,,,,,,,,,,,,,11014,001,2024_Jan_04_1020,ANT,2021.2.3,60.027792898048375,
0,5,center,up,C,L,0,50,1.5,left,LLLLL.png,,,,,,,,0,6,6,4,,,,,,,,,,,,,,,,,,,,,,,,,,,,,,,,,,,,,,,,,,,,,,,,,102.59824369999114,103.00026320002507,102.98265459993854,103.08392310002819,103.48346899996977,None,left,1,0.44202660000883043,103.48346899996977,None,102.98265459993854,103.08392310002819,103.08392310002819,None,103.95020409999415,None,,,,,,,,,,,,,,,,,,,,,,,,,,,,,,11014,001,2024_Jan_04_1020,ANT,2021.2.3,60.027792898048375,
0,11,spatial,down,C,L,-1.5,0,-1.5,left,LLLLL.png,,,,,,,,0,7,7,10,,,,,,,,,,,,,,,,,,,,,,,,,,,,,,,,,,,,,,,,,,,,,,,,,105.95330689998809,106.35374649998266,106.3372670999961,106.43827419995796,106.83835229999386,None,left,1,0.46340680005960166,106.83835229999386,None,106.3372670999961,106.43827419995796,106.43827419995796,None,107.32200929999817,None,,,,,,,,,,,,,,,,,,,,,,,,,,,,,,11014,001,2024_Jan_04_1020,ANT,2021.2.3,60.027792898048375,
0,7,center,down,C,R,0,50,-1.5,right,RRRRR.png,,,,,,,,0,8,8,6,,,,,,,,,,,,,,,,,,,,,,,,,,,,,,,,,,,,,,,,,,,,,,,,,109.32493909995537,109.72529770003166,109.71016739995684,109.82638999994379,110.21141430002172,None,right,1,0.4739847000455484,110.21141430002172,None,109.71016739995684,109.82638999994379,109.81056449993048,None,110.71015679999255,None,,,,,,,,,,,,,,,,,,,,,,,,,,,,,,11014,001,2024_Jan_04_1020,ANT,2021.2.3,60.027792898048375,
0,8,center,down,IC,L,0,50,-1.5,left,RRLRR.png,,,,,,,,0,9,9,7,,,,,,,,,,,,,,,,,,,,,,,,,,,,,,,,,,,,,,,,,,,,,,,,,112.71316109993495,113.11466500000097,113.09721359994728,113.19779000000563,113.59849370003212,None,right,0,0.3590484999585897,113.59849370003212,None,113.09721359994728,113.19779000000563,113.19779000000563,None,113.98158919997513,None,,,,,,,,,,,,,,,,,,,,,,,,,,,,,,11014,001,2024_Jan_04_1020,ANT,2021.2.3,60.027792898048375,
0,9,spatial,up,C,R,1.5,0,1.5,right,RRRRR.png,,,,,,,,0,10,10,8,,,,,,,,,,,,,,,,,,,,,,,,,,,,,,,,,,,,,,,,,,,,,,,,,115.9849777999334,116.38590749993455,116.370067599928,116.46963139995933,116.871346800006,None,right,1,0.46249260008335114,116.871346800006,None,116.370067599928,116.46963139995933,116.46963139995933,None,117.35415809997357,None,,,,,,,,,,,,,,,,,,,,,,,,,,,,,,11014,001,2024_Jan_04_1020,ANT,2021.2.3,60.027792898048375,
0,4,no,down,IC,L,50,0,-1.5,left,RRLRR.png,,,,,,,,0,11,11,3,,,,,,,,,,,,,,,,,,,,,,,,,,,,,,,,,,,,,,,,,,,,,,,,,119.3573748000199,119.75706710002851,119.74113959993701,119.84266730002128,120.24217849993147,None,left,1,0.5553721999749541,120.24217849993147,None,119.74113959993701,119.84266730002128,119.84266730002128,None,120.82521739997901,None,,,,,,,,,,,,,,,,,,,,,,,,,,,,,,11014,001,2024_Jan_04_1020,ANT,2021.2.3,60.027792898048375,
,,,,,,,,,,,,,,,,,,,,,,,,,,,,,,,,,,,,,,,,,,,,,,,,,,,,,,,,,,,,,,,,,,,,,,,,,,,,,,,,,,,,,,,space,5.400665299966931,122.82885699998587,None,,,,,,,,,,,,,,,,,,,,,,,,,,11014,001,2024_Jan_04_1020,ANT,2021.2.3,60.027792898048375,
1,3,no,up,IC,L,,,,,,Block.xlsx,"你已经完成了第一个实验区组

请稍作休息


点击空格键进入下一个区组。",50,0,1.5,left,RRLRR.png,,,,,0,0,0,0,0,0,0,2,,,,,,,,,,,,,,,,,,,,,,,,,,,,,,,,,,,,,,,,,,,,,,,,,,,,,,,,,,,,,,122.82885699998587,None,128.2886535000289,128.70425169996452,128.67069589998573,128.7703554999316,129.1718066999456,None,left,1,0.5461448000278324,129.1718066999456,None,128.67069589998573,128.7703554999316,128.7703554999316,None,129.73838799993973,None,,,,,,,11014,001,2024_Jan_04_1020,ANT,2021.2.3,60.027792898048375,
1,17,spatial,up,C,L,,,,,,Block.xlsx,"你已经完成了第一个实验区组

请稍作休息


点击空格键进入下一个区组。",1.5,0,1.5,left,LLLLL.png,,,,,0,0,0,0,0,1,1,16,,,,,,,,,,,,,,,,,,,,,,,,,,,,,,,,,,,,,,,,,,,,,,,,,,,,,,,,,,,,,,,,130.13960220001172,130.53974799998105,130.5230780999409,130.62408079998568,131.02367479994427,None,left,1,0.39828620001208037,131.02367479994427,None,130.5230780999409,130.62408079998568,130.62408079998568,None,131.44144439999945,None,,,,,,,11014,001,2024_Jan_04_1020,ANT,2021.2.3,60.027792898048375,
1,7,no,down,IC,L,,,,,,Block.xlsx,"你已经完成了第一个实验区组

请稍作休息


点击空格键进入下一个区组。",50,0,-1.5,left,RRLRR.png,,,,,0,0,0,0,0,2,2,6,,,,,,,,,,,,,,,,,,,,,,,,,,,,,,,,,,,,,,,,,,,,,,,,,,,,,,,,,,,,,,,,131.84274350001942,132.24325209995732,132.22624989994802,132.32612570002675,132.72677840001415,None,left,1,0.6869737000670284,132.72677840001415,None,132.22624989994802,132.32612570002675,132.32612570002675,None,133.44430049997754,None,,,,,,,11014,001,2024_Jan_04_1020,ANT,2021.2.3,60.027792898048375,
1,16,center,down,IC,R,,,,,,Block.xlsx,"你已经完成了第一个实验区组

请稍作休息


点击空格键进入下一个区组。",0,50,-1.5,right,LLRLL.png,,,,,0,0,0,0,0,3,3,15,,,,,,,,,,,,,,,,,,,,,,,,,,,,,,,,,,,,,,,,,,,,,,,,,,,,,,,,,,,,,,,,133.84462969994638,134.2473513999721,134.22895899997093,134.33023199997842,134.7299120000098,None,right,1,0.6123165000462905,134.7299120000098,None,134.22895899997093,134.33023199997842,134.33023199997842,None,135.3634638999356,None,,,,,,,11014,001,2024_Jan_04_1020,ANT,2021.2.3,60.027792898048375,
1,8,no,down,IC,R,,,,,,Block.xlsx,"你已经完成了第一个实验区组

请稍作休息


点击空格键进入下一个区组。",50,0,-1.5,right,LLRLL.png,,,,,0,0,0,0,0,4,4,7,,,,,,,,,,,,,,,,,,,,,,,,,,,,,,,,,,,,,,,,,,,,,,,,,,,,,,,,,,,,,,,,135.7639729999937,136.16456109995488,136.1489525999641,136.24861379992217,136.64870699995663,None,right,1,0.5650558000197634,136.64870699995663,None,136.1489525999641,136.24861379992217,136.24861379992217,None,137.2326911999844,None,,,,,,,11014,001,2024_Jan_04_1020,ANT,2021.2.3,60.027792898048375,
1,11,center,up,IC,L,,,,,,Block.xlsx,"你已经完成了第一个实验区组

请稍作休息


点击空格键进入下一个区组。",0,50,1.5,left,RRLRR.png,,,,,0,0,0,0,0,5,5,10,,,,,,,,,,,,,,,,,,,,,,,,,,,,,,,,,,,,,,,,,,,,,,,,,,,,,,,,,,,,,,,,137.63361649995204,138.03514389996417,138.01747139997315,138.11824739992153,138.51894430001266,None,left,1,0.5508855000371113,138.51894430001266,None,138.01747139997315,138.11824739992153,138.11824739992153,None,139.08565609995276,None,,,,,,,11014,001,2024_Jan_04_1020,ANT,2021.2.3,60.027792898048375,
1,9,center,up,C,L,,,,,,Block.xlsx,"你已经完成了第一个实验区组

请稍作休息


点击空格键进入下一个区组。",0,50,1.5,left,LLLLL.png,,,,,0,0,0,0,0,6,6,8,,,,,,,,,,,,,,,,,,,,,,,,,,,,,,,,,,,,,,,,,,,,,,,,,,,,,,,,,,,,,,,,139.48652129992843,139.889272899949,139.87051459995564,139.97107999993023,140.37159569992218,None,left,1,0.41806649998761714,140.37159569992218,None,139.87051459995564,139.97107999993023,139.97107999993023,None,140.80540640000254,None,,,,,,,11014,001,2024_Jan_04_1020,ANT,2021.2.3,60.027792898048375,
1,24,spatial,down,IC,R,,,,,,Block.xlsx,"你已经完成了第一个实验区组

请稍作休息


点击空格键进入下一个区组。",-1.5,0,-1.5,right,LLRLL.png,,,,,0,0,0,0,0,7,7,23,,,,,,,,,,,,,,,,,,,,,,,,,,,,,,,,,,,,,,,,,,,,,,,,,,,,,,,,,,,,,,,,141.20612170000095,141.60665339999832,141.5899144000141,141.69097230001353,142.09038529999088,None,right,1,0.5554782000835985,142.09038529999088,None,141.5899144000141,141.69097230001353,141.69097230001353,None,142.67581789998803,None,,,,,,,11014,001,2024_Jan_04_1020,ANT,2021.2.3,60.027792898048375,
1,10,center,up,C,R,,,,,,Block.xlsx,"你已经完成了第一个实验区组

请稍作休息


点击空格键进入下一个区组。",0,50,1.5,right,RRRRR.png,,,,,0,0,0,0,0,8,8,9,,,,,,,,,,,,,,,,,,,,,,,,,,,,,,,,,,,,,,,,,,,,,,,,,,,,,,,,,,,,,,,,143.07484090002254,143.47778740001377,143.4594263000181,143.5597305999836,143.95980069995858,None,right,1,0.4219129999401048,143.95980069995858,None,143.4594263000181,143.5597305999836,143.5597305999836,None,144.41029759997036,None,,,,,,,11014,001,2024_Jan_04_1020,ANT,2021.2.3,60.027792898048375,
1,2,no,up,C,R,,,,,,Block.xlsx,"你已经完成了第一个实验区组

请稍作休息


点击空格键进入下一个区组。",50,0,1.5,right,RRRRR.png,,,,,0,0,0,0,0,9,9,1,,,,,,,,,,,,,,,,,,,,,,,,,,,,,,,,,,,,,,,,,,,,,,,,,,,,,,,,,,,,,,,,144.81080660002772,145.21173839992844,145.19552189996466,145.2960128999548,145.6972650999669,None,right,1,0.5082146999193355,145.6972650999669,None,145.19552189996466,145.2960128999548,145.2960128999548,None,146.2307188999839,None,,,,,,,11014,001,2024_Jan_04_1020,ANT,2021.2.3,60.027792898048375,
1,3,no,up,IC,L,,,,,,Block.xlsx,"你已经完成了第一个实验区组

请稍作休息


点击空格键进入下一个区组。",50,0,1.5,left,RRLRR.png,,,,,0,0,0,0,0,10,10,2,,,,,,,,,,,,,,,,,,,,,,,,,,,,,,,,,,,,,,,,,,,,,,,,,,,,,,,,,,,,,,,,146.63015699991956,147.03158980002627,147.0141830999637,147.11506240000017,147.5165924000321,None,left,1,0.6410893000429496,147.5165924000321,None,147.0141830999637,147.11506240000017,147.11506240000017,None,148.18247300002258,None,,,,,,,11014,001,2024_Jan_04_1020,ANT,2021.2.3,60.027792898048375,
1,18,spatial,up,C,R,,,,,,Block.xlsx,"你已经完成了第一个实验区组

请稍作休息


点击空格键进入下一个区组。",1.5,0,1.5,right,RRRRR.png,,,,,0,0,0,0,0,11,11,17,,,,,,,,,,,,,,,,,,,,,,,,,,,,,,,,,,,,,,,,,,,,,,,,,,,,,,,,,,,,,,,,148.58278769999743,148.9845547999721,148.96787639998365,149.06902239995543,149.46833459998015,None,right,1,0.4011945999227464,149.46833459998015,None,148.96787639998365,149.06902239995543,149.06902239995543,None,149.8851379000116,None,,,,,,,11014,001,2024_Jan_04_1020,ANT,2021.2.3,60.027792898048375,
1,1,no,up,C,L,,,,,,Block.xlsx,"你已经完成了第一个实验区组

请稍作休息


点击空格键进入下一个区组。",50,0,1.5,left,LLLLL.png,,,,,0,0,0,0,0,12,12,0,,,,,,,,,,,,,,,,,,,,,,,,,,,,,,,,,,,,,,,,,,,,,,,,,,,,,,,,,,,,,,,,150.2855772000039,150.6865149999503,150.6700877000112,150.77107489993796,151.17203949997202,None,left,1,0.44996619992889464,151.17203949997202,None,150.6700877000112,150.77107489993796,150.77107489993796,None,151.63756389997434,None,,,,,,,11014,001,2024_Jan_04_1020,ANT,2021.2.3,60.027792898048375,
1,19,spatial,up,IC,L,,,,,,Block.xlsx,"你已经完成了第一个实验区组

请稍作休息


点击空格键进入下一个区组。",1.5,0,1.5,left,RRLRR.png,,,,,0,0,0,0,0,13,13,18,,,,,,,,,,,,,,,,,,,,,,,,,,,,,,,,,,,,,,,,,,,,,,,,,,,,,,,,,,,,,,,,152.0397968000034,152.44029649998993,152.4227372999303,152.5236731999321,152.92280940001365,None,left,1,0.47481219994369894,152.92280940001365,None,152.4227372999303,152.5236731999321,152.5236731999321,None,153.42370309995022,None,,,,,,,11014,001,2024_Jan_04_1020,ANT,2021.2.3,60.027792898048375,
1,17,spatial,up,C,L,,,,,,Block.xlsx,"你已经完成了第一个实验区组

请稍作休息


点击空格键进入下一个区组。",1.5,0,1.5,left,LLLLL.png,,,,,0,0,0,0,0,14,14,16,,,,,,,,,,,,,,,,,,,,,,,,,,,,,,,,,,,,,,,,,,,,,,,,,,,,,,,,,,,,,,,,153.82423109991942,154.2254553999519,154.2085849000141,154.30806469998788,154.71072570001706,None,left,1,0.3747935000574216,154.71072570001706,None,154.2085849000141,154.30806469998788,154.30806469998788,None,155.1093776000198,None,,,,,,,11014,001,2024_Jan_04_1020,ANT,2021.2.3,60.027792898048375,
1,24,spatial,down,IC,R,,,,,,Block.xlsx,"你已经完成了第一个实验区组

请稍作休息


点击空格键进入下一个区组。",-1.5,0,-1.5,right,LLRLL.png,,,,,0,0,0,0,0,15,15,23,,,,,,,,,,,,,,,,,,,,,,,,,,,,,,,,,,,,,,,,,,,,,,,,,,,,,,,,,,,,,,,,155.51022239995655,155.91068390000146,155.89558649994433,155.99430289992597,156.39527390000876,None,right,1,0.49030409997794777,156.39527390000876,None,155.89558649994433,155.99430289992597,155.99430289992597,None,156.912679299945,None,,,,,,,11014,001,2024_Jan_04_1020,ANT,2021.2.3,60.027792898048375,
1,18,spatial,up,C,R,,,,,,Block.xlsx,"你已经完成了第一个实验区组

请稍作休息


点击空格键进入下一个区组。",1.5,0,1.5,right,RRRRR.png,,,,,0,0,0,0,0,16,16,17,,,,,,,,,,,,,,,,,,,,,,,,,,,,,,,,,,,,,,,,,,,,,,,,,,,,,,,,,,,,,,,,157.31267449993175,157.71555009996518,157.6972536999965,157.797789299977,158.19811749993823,None,right,1,0.5353454999858513,158.19811749993823,None,157.6972536999965,157.797789299977,157.797789299977,None,158.74806150002405,None,,,,,,,11014,001,2024_Jan_04_1020,ANT,2021.2.3,60.027792898048375,
1,19,spatial,up,IC,L,,,,,,Block.xlsx,"你已经完成了第一个实验区组

请稍作休息


点击空格键进入下一个区组。",1.5,0,1.5,left,RRLRR.png,,,,,0,0,0,0,0,17,17,18,,,,,,,,,,,,,,,,,,,,,,,,,,,,,,,,,,,,,,,,,,,,,,,,,,,,,,,,,,,,,,,,159.14873829996213,159.55009929998778,159.53449689992703,159.65071159997024,160.03335819998756,None,left,1,0.4202217999845743,160.03335819998756,None,159.53449689992703,159.65071159997024,159.63482659996953,None,160.4842365999939,None,,,,,,,11014,001,2024_Jan_04_1020,ANT,2021.2.3,60.027792898048375,
1,17,spatial,up,C,L,,,,,,Block.xlsx,"你已经完成了第一个实验区组

请稍作休息


点击空格键进入下一个区组。",1.5,0,1.5,left,LLLLL.png,,,,,0,0,0,0,0,18,18,16,,,,,,,,,,,,,,,,,,,,,,,,,,,,,,,,,,,,,,,,,,,,,,,,,,,,,,,,,,,,,,,,160.8852982999524,161.2863846999826,161.26853959995788,161.36938679998275,161.76961259997915,None,left,1,0.4438174000242725,161.76961259997915,None,161.26853959995788,161.36938679998275,161.36938679998275,None,162.2365460000001,None,,,,,,,11014,001,2024_Jan_04_1020,ANT,2021.2.3,60.027792898048375,
1,5,no,down,C,L,,,,,,Block.xlsx,"你已经完成了第一个实验区组

请稍作休息


点击空格键进入下一个区组。",50,0,-1.5,left,LLLLL.png,,,,,0,0,0,0,0,19,19,4,,,,,,,,,,,,,,,,,,,,,,,,,,,,,,,,,,,,,,,,,,,,,,,,,,,,,,,,,,,,,,,,162.6373579999199,163.03793180000503,163.02194809995126,163.12189619999845,163.52249739994295,None,left,1,0.5391949999611825,163.52249739994295,None,163.02194809995126,163.12189619999845,163.12189619999845,None,164.0898460999597,None,,,,,,,11014,001,2024_Jan_04_1020,ANT,2021.2.3,60.027792898048375,
1,2,no,up,C,R,,,,,,Block.xlsx,"你已经完成了第一个实验区组

请稍作休息


点击空格键进入下一个区组。",50,0,1.5,right,RRRRR.png,,,,,0,0,0,0,0,20,20,1,,,,,,,,,,,,,,,,,,,,,,,,,,,,,,,,,,,,,,,,,,,,,,,,,,,,,,,,,,,,,,,,164.49014779995196,164.89128490001895,164.87489009997807,164.97407050000038,165.3752115999814,None,right,1,0.4311372000956908,165.3752115999814,None,164.87489009997807,164.97407050000038,164.97407050000038,None,165.82519469992258,None,,,,,,,11014,001,2024_Jan_04_1020,ANT,2021.2.3,60.027792898048375,
1,20,spatial,up,IC,R,,,,,,Block.xlsx,"你已经完成了第一个实验区组

请稍作休息


点击空格键进入下一个区组。",1.5,0,1.5,right,LLRLL.png,,,,,0,0,0,0,0,21,21,19,,,,,,,,,,,,,,,,,,,,,,,,,,,,,,,,,,,,,,,,,,,,,,,,,,,,,,,,,,,,,,,,166.22571779997088,166.62760140001774,166.6101071999874,166.71001989999786,167.11049120000098,None,right,1,0.4709828000050038,167.11049120000098,None,166.6101071999874,166.71001989999786,166.71001989999786,None,167.61162889993284,None,,,,,,,11014,001,2024_Jan_04_1020,ANT,2021.2.3,60.027792898048375,
1,3,no,up,IC,L,,,,,,Block.xlsx,"你已经完成了第一个实验区组

请稍作休息


点击空格键进入下一个区组。",50,0,1.5,left,RRLRR.png,,,,,0,0,0,0,0,22,22,2,,,,,,,,,,,,,,,,,,,,,,,,,,,,,,,,,,,,,,,,,,,,,,,,,,,,,,,,,,,,,,,,168.01218560000416,168.4142159000039,168.39619010000024,168.49619859992526,168.89685170003213,None,left,1,0.4046686999499798,168.89685170003213,None,168.39619010000024,168.49619859992526,168.49619859992526,None,169.33045849995688,None,,,,,,,11014,001,2024_Jan_04_1020,ANT,2021.2.3,60.027792898048375,
1,13,center,down,C,L,,,,,,Block.xlsx,"你已经完成了第一个实验区组

请稍作休息


点击空格键进入下一个区组。",0,50,-1.5,left,LLLLL.png,,,,,0,0,0,0,0,23,23,12,,,,,,,,,,,,,,,,,,,,,,,,,,,,,,,,,,,,,,,,,,,,,,,,,,,,,,,,,,,,,,,,169.7311266999459,170.13230049994309,170.11650949995965,170.2325214999728,170.61569699994288,None,left,1,0.4938428000314161,170.61569699994288,None,170.11650949995965,170.2325214999728,170.2151712999912,None,171.1332262000069,None,,,,,,,11014,001,2024_Jan_04_1020,ANT,2021.2.3,60.027792898048375,
1,14,center,down,C,R,,,,,,Block.xlsx,"你已经完成了第一个实验区组

请稍作休息


点击空格键进入下一个区组。",0,50,-1.5,right,RRRRR.png,,,,,0,0,0,0,1,0,24,13,,,,,,,,,,,,,,,,,,,,,,,,,,,,,,,,,,,,,,,,,,,,,,,,,,,,,,,,,,,,,,,,171.53355749999173,171.93557149998378,171.9189849999966,172.0345392000163,172.41983109991997,None,right,1,0.41766200005076826,172.41983109991997,None,171.9189849999966,172.0345392000163,172.0191582000116,None,172.8524723999435,None,,,,,,,11014,001,2024_Jan_04_1020,ANT,2021.2.3,60.027792898048375,
1,23,spatial,down,IC,L,,,,,,Block.xlsx,"你已经完成了第一个实验区组

请稍作休息


点击空格键进入下一个区组。",-1.5,0,-1.5,left,RRLRR.png,,,,,0,0,0,0,1,1,25,22,,,,,,,,,,,,,,,,,,,,,,,,,,,,,,,,,,,,,,,,,,,,,,,,,,,,,,,,,,,,,,,,173.2529196999967,173.65529799996875,173.63700999994762,173.73765309993178,174.13832839997485,None,right,0,0.3712261999025941,174.13832839997485,None,173.63700999994762,173.73765309993178,173.73765309993178,None,174.538348400034,None,,,,,,,11014,001,2024_Jan_04_1020,ANT,2021.2.3,60.027792898048375,
1,15,center,down,IC,L,,,,,,Block.xlsx,"你已经完成了第一个实验区组

请稍作休息


点击空格键进入下一个区组。",0,50,-1.5,left,RRLRR.png,,,,,0,0,0,0,1,2,26,14,,,,,,,,,,,,,,,,,,,,,,,,,,,,,,,,,,,,,,,,,,,,,,,,,,,,,,,,,,,,,,,,174.93871409993153,175.33996210002806,175.32342479994986,175.4244999999646,175.8240062999539,None,right,0,0.4137713999953121,175.8240062999539,None,175.32342479994986,175.4244999999646,175.4244999999646,None,176.25728419993538,None,,,,,,,11014,001,2024_Jan_04_1020,ANT,2021.2.3,60.027792898048375,
1,12,center,up,IC,R,,,,,,Block.xlsx,"你已经完成了第一个实验区组

请稍作休息


点击空格键进入下一个区组。",0,50,1.5,right,LLRLL.png,,,,,0,0,0,0,1,3,27,11,,,,,,,,,,,,,,,,,,,,,,,,,,,,,,,,,,,,,,,,,,,,,,,,,,,,,,,,,,,,,,,,176.6579456999898,177.06035729998257,177.0420172000304,177.1441769999219,177.5438210000284,None,right,1,0.5898474999703467,177.5438210000284,None,177.0420172000304,177.1441769999219,177.1441769999219,None,178.16010019998066,None,,,,,,,11014,001,2024_Jan_04_1020,ANT,2021.2.3,60.027792898048375,
1,14,center,down,C,R,,,,,,Block.xlsx,"你已经完成了第一个实验区组

请稍作休息


点击空格键进入下一个区组。",0,50,-1.5,right,RRRRR.png,,,,,0,0,0,0,1,4,28,13,,,,,,,,,,,,,,,,,,,,,,,,,,,,,,,,,,,,,,,,,,,,,,,,,,,,,,,,,,,,,,,,178.56072579999454,178.96208620001562,178.94472189992666,179.04656369995791,179.4465644999873,None,right,1,0.5910089000826702,179.4465644999873,None,178.94472189992666,179.04656369995791,179.04656369995791,None,180.063499199925,None,,,,,,,11014,001,2024_Jan_04_1020,ANT,2021.2.3,60.027792898048375,
1,24,spatial,down,IC,R,,,,,,Block.xlsx,"你已经完成了第一个实验区组

请稍作休息


点击空格键进入下一个区组。",-1.5,0,-1.5,right,LLRLL.png,,,,,0,0,0,0,1,5,29,23,,,,,,,,,,,,,,,,,,,,,,,,,,,,,,,,,,,,,,,,,,,,,,,,,,,,,,,,,,,,,,,,180.46470639994368,180.8649870000081,180.8489904999733,180.94934079993982,181.3489780999953,None,right,1,0.5045795999467373,181.3489780999953,None,180.8489904999733,180.94934079993982,180.94934079993982,None,181.88244529999793,None,,,,,,,11014,001,2024_Jan_04_1020,ANT,2021.2.3,60.027792898048375,
1,15,center,down,IC,L,,,,,,Block.xlsx,"你已经完成了第一个实验区组

请稍作休息


点击空格键进入下一个区组。",0,50,-1.5,left,RRLRR.png,,,,,0,0,0,0,1,6,30,14,,,,,,,,,,,,,,,,,,,,,,,,,,,,,,,,,,,,,,,,,,,,,,,,,,,,,,,,,,,,,,,,182.28308959992137,182.68413309997413,182.66794579999987,182.76706630003173,183.16980869998224,None,left,1,0.5717091999249533,183.16980869998224,None,182.66794579999987,182.76706630003173,182.76706630003173,None,183.76857700000983,None,,,,,,,11014,001,2024_Jan_04_1020,ANT,2021.2.3,60.027792898048375,
1,21,spatial,down,C,L,,,,,,Block.xlsx,"你已经完成了第一个实验区组

请稍作休息


点击空格键进入下一个区组。",-1.5,0,-1.5,left,LLLLL.png,,,,,0,0,0,0,1,7,31,20,,,,,,,,,,,,,,,,,,,,,,,,,,,,,,,,,,,,,,,,,,,,,,,,,,,,,,,,,,,,,,,,184.16894499992486,184.57168990001082,184.55379239993636,184.65372850000858,185.05470849992707,None,left,1,0.41488789999857545,185.05470849992707,None,184.55379239993636,184.65372850000858,184.65372850000858,None,185.48876450001262,None,,,,,,,11014,001,2024_Jan_04_1020,ANT,2021.2.3,60.027792898048375,
1,17,spatial,up,C,L,,,,,,Block.xlsx,"你已经完成了第一个实验区组

请稍作休息


点击空格键进入下一个区组。",1.5,0,1.5,left,LLLLL.png,,,,,0,0,0,0,1,8,32,16,,,,,,,,,,,,,,,,,,,,,,,,,,,,,,,,,,,,,,,,,,,,,,,,,,,,,,,,,,,,,,,,185.88903299998492,186.29118439997546,186.27331399999093,186.37443550000899,186.77286729996558,None,left,1,0.4568880000151694,186.77286729996558,None,186.27331399999093,186.37443550000899,186.37443550000899,None,187.25705369992647,None,,,,,,,11014,001,2024_Jan_04_1020,ANT,2021.2.3,60.027792898048375,
1,13,center,down,C,L,,,,,,Block.xlsx,"你已经完成了第一个实验区组

请稍作休息


点击空格键进入下一个区组。",0,50,-1.5,left,LLLLL.png,,,,,0,0,0,0,1,9,33,12,,,,,,,,,,,,,,,,,,,,,,,,,,,,,,,,,,,,,,,,,,,,,,,,,,,,,,,,,,,,,,,,187.65860770002473,188.05988850002177,188.0416517999256,188.14216029993258,188.54369720001705,None,left,1,0.4380945999873802,188.54369720001705,None,188.0416517999256,188.14216029993258,188.14216029993258,None,189.00959709996823,None,,,,,,,11014,001,2024_Jan_04_1020,ANT,2021.2.3,60.027792898048375,
1,6,no,down,C,R,,,,,,Block.xlsx,"你已经完成了第一个实验区组

请稍作休息


点击空格键进入下一个区组。",50,0,-1.5,right,RRRRR.png,,,,,0,0,0,0,1,10,34,5,,,,,,,,,,,,,,,,,,,,,,,,,,,,,,,,,,,,,,,,,,,,,,,,,,,,,,,,,,,,,,,,189.41085530002601,189.810935699963,189.79635269998107,189.89494669996202,190.29613259993494,None,right,1,0.5253953000064939,190.29613259993494,None,189.79635269998107,189.89494669996202,189.89494669996202,None,190.84563370002434,None,,,,,,,11014,001,2024_Jan_04_1020,ANT,2021.2.3,60.027792898048375,
1,4,no,up,IC,R,,,,,,Block.xlsx,"你已经完成了第一个实验区组

请稍作休息


点击空格键进入下一个区组。",50,0,1.5,right,LLRLL.png,,,,,0,0,0,0,1,11,35,3,,,,,,,,,,,,,,,,,,,,,,,,,,,,,,,,,,,,,,,,,,,,,,,,,,,,,,,,,,,,,,,,191.24696010001935,191.64719719998538,191.6308049999643,191.73064810002688,192.13147939997725,None,right,1,0.4579856999916956,192.13147939997725,None,191.6308049999643,191.73064810002688,191.73064810002688,None,192.614785999991,None,,,,,,,11014,001,2024_Jan_04_1020,ANT,2021.2.3,60.027792898048375,
1,20,spatial,up,IC,R,,,,,,Block.xlsx,"你已经完成了第一个实验区组

请稍作休息


点击空格键进入下一个区组。",1.5,0,1.5,right,LLRLL.png,,,,,0,0,0,0,1,12,36,19,,,,,,,,,,,,,,,,,,,,,,,,,,,,,,,,,,,,,,,,,,,,,,,,,,,,,,,,,,,,,,,,193.01561300002504,193.4174578000093,193.3997086000163,193.50117629999295,193.9010024999734,None,right,1,0.4809694999130443,193.9010024999734,None,193.3997086000163,193.50117629999295,193.50117629999295,None,194.4009090999607,None,,,,,,,11014,001,2024_Jan_04_1020,ANT,2021.2.3,60.027792898048375,
1,3,no,up,IC,L,,,,,,Block.xlsx,"你已经完成了第一个实验区组

请稍作休息


点击空格键进入下一个区组。",50,0,1.5,left,RRLRR.png,,,,,0,0,0,0,1,13,37,2,,,,,,,,,,,,,,,,,,,,,,,,,,,,,,,,,,,,,,,,,,,,,,,,,,,,,,,,,,,,,,,,194.80157959996723,195.20365959999617,195.18569299997762,195.28718689992093,195.68647189997137,None,left,1,0.567104100016877,195.68647189997137,None,195.18569299997762,195.28718689992093,195.28718689992093,None,196.27067519992124,None,,,,,,,11014,001,2024_Jan_04_1020,ANT,2021.2.3,60.027792898048375,
1,4,no,up,IC,R,,,,,,Block.xlsx,"你已经完成了第一个实验区组

请稍作休息


点击空格键进入下一个区组。",50,0,1.5,right,LLRLL.png,,,,,0,0,0,0,1,14,38,3,,,,,,,,,,,,,,,,,,,,,,,,,,,,,,,,,,,,,,,,,,,,,,,,,,,,,,,,,,,,,,,,196.67185859999154,197.0727527999552,197.05573719996028,197.1556081000017,197.55648089991882,None,right,1,0.6411075000651181,197.55648089991882,None,197.05573719996028,197.1556081000017,197.1556081000017,None,198.22330860001966,None,,,,,,,11014,001,2024_Jan_04_1020,ANT,2021.2.3,60.027792898048375,
1,4,no,up,IC,R,,,,,,Block.xlsx,"你已经完成了第一个实验区组

请稍作休息


点击空格键进入下一个区组。",50,0,1.5,right,LLRLL.png,,,,,0,0,0,0,1,15,39,3,,,,,,,,,,,,,,,,,,,,,,,,,,,,,,,,,,,,,,,,,,,,,,,,,,,,,,,,,,,,,,,,198.62521510000806,199.0247557000257,199.0100129999919,199.1253705000272,199.50883359997533,None,right,1,0.5208246998954564,199.50883359997533,None,199.0100129999919,199.1253705000272,199.10853720002342,None,200.0600492999656,None,,,,,,,11014,001,2024_Jan_04_1020,ANT,2021.2.3,60.027792898048375,
1,8,no,down,IC,R,,,,,,Block.xlsx,"你已经完成了第一个实验区组

请稍作休息


点击空格键进入下一个区组。",50,0,-1.5,right,LLRLL.png,,,,,0,0,0,0,1,16,40,7,,,,,,,,,,,,,,,,,,,,,,,,,,,,,,,,,,,,,,,,,,,,,,,,,,,,,,,,,,,,,,,,200.46008759993128,200.8608380999649,200.8445064999396,200.94394759996794,201.3452156999847,None,right,1,0.6683089000871405,201.3452156999847,None,200.8445064999396,200.94394759996794,200.94394759996794,None,202.02903460001107,None,,,,,,,11014,001,2024_Jan_04_1020,ANT,2021.2.3,60.027792898048375,
1,10,center,up,C,R,,,,,,Block.xlsx,"你已经完成了第一个实验区组

请稍作休息


点击空格键进入下一个区组。",0,50,1.5,right,RRRRR.png,,,,,0,0,0,0,1,17,41,9,,,,,,,,,,,,,,,,,,,,,,,,,,,,,,,,,,,,,,,,,,,,,,,,,,,,,,,,,,,,,,,,202.4299699999392,202.83214600000065,202.8140362999402,202.91421289998107,203.31534319999628,None,right,1,0.5541481000836939,203.31534319999628,None,202.8140362999402,202.91421289998107,202.91421289998107,None,203.8984061999945,None,,,,,,,11014,001,2024_Jan_04_1020,ANT,2021.2.3,60.027792898048375,
1,16,center,down,IC,R,,,,,,Block.xlsx,"你已经完成了第一个实验区组

请稍作休息


点击空格键进入下一个区组。",0,50,-1.5,right,LLRLL.png,,,,,0,0,0,0,1,18,42,15,,,,,,,,,,,,,,,,,,,,,,,,,,,,,,,,,,,,,,,,,,,,,,,,,,,,,,,,,,,,,,,,204.29900060000364,204.70230449992232,204.68355670000892,204.7836062000133,205.18387930002064,None,right,1,0.6299148000543937,205.18387930002064,None,204.68355670000892,204.7836062000133,204.7836062000133,None,205.83455579995643,None,,,,,,,11014,001,2024_Jan_04_1020,ANT,2021.2.3,60.027792898048375,
1,19,spatial,up,IC,L,,,,,,Block.xlsx,"你已经完成了第一个实验区组

请稍作休息


点击空格键进入下一个区组。",1.5,0,1.5,left,RRLRR.png,,,,,0,0,0,0,1,19,43,18,,,,,,,,,,,,,,,,,,,,,,,,,,,,,,,,,,,,,,,,,,,,,,,,,,,,,,,,,,,,,,,,206.23561979993246,206.63636629993562,206.62056970002595,206.72000989993103,207.12087139999494,None,left,1,0.42897190002258867,207.12087139999494,None,206.62056970002595,206.72000989993103,206.72000989993103,None,207.57050529995468,None,,,,,,,11014,001,2024_Jan_04_1020,ANT,2021.2.3,60.027792898048375,
1,6,no,down,C,R,,,,,,Block.xlsx,"你已经完成了第一个实验区组

请稍作休息


点击空格键进入下一个区组。",50,0,-1.5,right,RRRRR.png,,,,,0,0,0,0,1,20,44,5,,,,,,,,,,,,,,,,,,,,,,,,,,,,,,,,,,,,,,,,,,,,,,,,,,,,,,,,,,,,,,,,207.97108049993403,208.37188140000217,208.35571809997782,208.45607539999764,208.8581462999573,None,right,1,0.4276675999863073,208.8581462999573,None,208.35571809997782,208.45607539999764,208.45607539999764,None,209.30616879998706,None,,,,,,,11014,001,2024_Jan_04_1020,ANT,2021.2.3,60.027792898048375,
1,5,no,down,C,L,,,,,,Block.xlsx,"你已经完成了第一个实验区组

请稍作休息


点击空格键进入下一个区组。",50,0,-1.5,left,LLLLL.png,,,,,0,0,0,0,1,21,45,4,,,,,,,,,,,,,,,,,,,,,,,,,,,,,,,,,,,,,,,,,,,,,,,,,,,,,,,,,,,,,,,,209.7079486999428,210.10828539996874,210.0916208999697,210.19190059998073,210.5936950999312,None,left,1,0.5078237999696285,210.5936950999312,None,210.0916208999697,210.19190059998073,210.19190059998073,None,211.12548619997688,None,,,,,,,11014,001,2024_Jan_04_1020,ANT,2021.2.3,60.027792898048375,
1,1,no,up,C,L,,,,,,Block.xlsx,"你已经完成了第一个实验区组

请稍作休息


点击空格键进入下一个区组。",50,0,1.5,left,LLLLL.png,,,,,0,0,0,0,1,22,46,0,,,,,,,,,,,,,,,,,,,,,,,,,,,,,,,,,,,,,,,,,,,,,,,,,,,,,,,,,,,,,,,,211.5270138999913,211.92783099994995,211.9108296999475,212.01132279995363,212.41277469997294,None,left,1,0.46544790000189096,212.41277469997294,None,211.9108296999475,212.01132279995363,212.01132279995363,None,212.89503020001575,None,,,,,,,11014,001,2024_Jan_04_1020,ANT,2021.2.3,60.027792898048375,
1,7,no,down,IC,L,,,,,,Block.xlsx,"你已经完成了第一个实验区组

请稍作休息


点击空格键进入下一个区组。",50,0,-1.5,left,RRLRR.png,,,,,0,0,0,0,1,23,47,6,,,,,,,,,,,,,,,,,,,,,,,,,,,,,,,,,,,,,,,,,,,,,,,,,,,,,,,,,,,,,,,,213.29613999999128,213.69720399996731,213.67941079998855,213.78108280000743,214.18127810000442,None,left,1,0.6806207000045106,214.18127810000442,None,213.67941079998855,213.78108280000743,213.78108280000743,None,214.88126259995624,None,,,,,,,11014,001,2024_Jan_04_1020,ANT,2021.2.3,60.027792898048375,
1,10,center,up,C,R,,,,,,Block.xlsx,"你已经完成了第一个实验区组

请稍作休息


点击空格键进入下一个区组。",0,50,1.5,right,RRRRR.png,,,,,0,0,0,0,2,0,48,9,,,,,,,,,,,,,,,,,,,,,,,,,,,,,,,,,,,,,,,,,,,,,,,,,,,,,,,,,,,,,,,,215.28299129998777,215.6833491999423,215.6658124999376,215.76640670001507,216.16723879997153,None,right,1,0.45470350002869964,216.16723879997153,None,215.6658124999376,215.76640670001507,215.76640670001507,None,216.65043869998772,None,,,,,,,11014,001,2024_Jan_04_1020,ANT,2021.2.3,60.027792898048375,
1,8,no,down,IC,R,,,,,,Block.xlsx,"你已经完成了第一个实验区组

请稍作休息


点击空格键进入下一个区组。",50,0,-1.5,right,LLRLL.png,,,,,0,0,0,0,2,1,49,7,,,,,,,,,,,,,,,,,,,,,,,,,,,,,,,,,,,,,,,,,,,,,,,,,,,,,,,,,,,,,,,,217.0512150999857,217.4535368999932,217.43520649999846,217.53587589995004,217.9369973000139,None,right,1,0.5486770999850705,217.9369973000139,None,217.43520649999846,217.53587589995004,217.53587589995004,None,218.50355379993562,None,,,,,,,11014,001,2024_Jan_04_1020,ANT,2021.2.3,60.027792898048375,
1,21,spatial,down,C,L,,,,,,Block.xlsx,"你已经完成了第一个实验区组

请稍作休息


点击空格键进入下一个区组。",-1.5,0,-1.5,left,LLLLL.png,,,,,0,0,0,0,2,2,50,20,,,,,,,,,,,,,,,,,,,,,,,,,,,,,,,,,,,,,,,,,,,,,,,,,,,,,,,,,,,,,,,,218.90392840001732,219.3049759999849,219.2884200999979,219.3887675999431,219.78961690003052,None,left,1,0.4883561000460759,219.78961690003052,None,219.2884200999979,219.3887675999431,219.3887675999431,None,220.30742309999187,None,,,,,,,11014,001,2024_Jan_04_1020,ANT,2021.2.3,60.027792898048375,
1,20,spatial,up,IC,R,,,,,,Block.xlsx,"你已经完成了第一个实验区组

请稍作休息


点击空格键进入下一个区组。",1.5,0,1.5,right,LLRLL.png,,,,,0,0,0,0,2,3,51,19,,,,,,,,,,,,,,,,,,,,,,,,,,,,,,,,,,,,,,,,,,,,,,,,,,,,,,,,,,,,,,,,220.7068556000013,221.10788949998096,221.09155929996632,221.1915069000097,221.59196609992068,None,right,1,0.44564679998438805,221.59196609992068,None,221.09155929996632,221.1915069000097,221.1915069000097,None,222.05855900002643,None,,,,,,,11014,001,2024_Jan_04_1020,ANT,2021.2.3,60.027792898048375,
1,12,center,up,IC,R,,,,,,Block.xlsx,"你已经完成了第一个实验区组

请稍作休息


点击空格键进入下一个区组。",0,50,1.5,right,LLRLL.png,,,,,0,0,0,0,2,4,52,11,,,,,,,,,,,,,,,,,,,,,,,,,,,,,,,,,,,,,,,,,,,,,,,,,,,,,,,,,,,,,,,,222.46029289998114,222.8602569999639,222.84397029993124,222.94336589996237,223.3445777000161,None,right,1,0.6049787000520155,223.3445777000161,None,222.84397029993124,222.94336589996237,222.94336589996237,None,223.9779189999681,None,,,,,,,11014,001,2024_Jan_04_1020,ANT,2021.2.3,60.027792898048375,
1,23,spatial,down,IC,L,,,,,,Block.xlsx,"你已经完成了第一个实验区组

请稍作休息


点击空格键进入下一个区组。",-1.5,0,-1.5,left,RRLRR.png,,,,,0,0,0,0,2,5,53,22,,,,,,,,,,,,,,,,,,,,,,,,,,,,,,,,,,,,,,,,,,,,,,,,,,,,,,,,,,,,,,,,224.37872789998073,224.7793943999568,224.76482179993764,224.86356929992326,225.26441199996043,None,left,1,0.49362889991607517,225.26441199996043,None,224.76482179993764,224.86356929992326,224.86356929992326,None,225.78076959995087,None,,,,,,,11014,001,2024_Jan_04_1020,ANT,2021.2.3,60.027792898048375,
1,18,spatial,up,C,R,,,,,,Block.xlsx,"你已经完成了第一个实验区组

请稍作休息


点击空格键进入下一个区组。",1.5,0,1.5,right,RRRRR.png,,,,,0,0,0,0,2,6,54,17,,,,,,,,,,,,,,,,,,,,,,,,,,,,,,,,,,,,,,,,,,,,,,,,,,,,,,,,,,,,,,,,226.18117969995365,226.58305789995939,226.56521939998493,226.66613969998434,227.06651579996105,None,right,1,0.363503500004299,227.06651579996105,None,226.56521939998493,226.66613969998434,226.66613969998434,None,227.44986689998768,None,,,,,,,11014,001,2024_Jan_04_1020,ANT,2021.2.3,60.027792898048375,
1,4,no,up,IC,R,,,,,,Block.xlsx,"你已经完成了第一个实验区组

请稍作休息


点击空格键进入下一个区组。",50,0,1.5,right,LLRLL.png,,,,,0,0,0,0,2,7,55,3,,,,,,,,,,,,,,,,,,,,,,,,,,,,,,,,,,,,,,,,,,,,,,,,,,,,,,,,,,,,,,,,227.85066180001013,228.25221920001786,228.23552550002933,228.33659590000752,228.73735219996888,None,right,1,0.5722848000004888,228.73735219996888,None,228.23552550002933,228.33659590000752,228.33659590000752,None,229.33599119994324,None,,,,,,,11014,001,2024_Jan_04_1020,ANT,2021.2.3,60.027792898048375,
1,16,center,down,IC,R,,,,,,Block.xlsx,"你已经完成了第一个实验区组

请稍作休息


点击空格键进入下一个区组。",0,50,-1.5,right,LLRLL.png,,,,,0,0,0,0,2,8,56,15,,,,,,,,,,,,,,,,,,,,,,,,,,,,,,,,,,,,,,,,,,,,,,,,,,,,,,,,,,,,,,,,229.73724849999417,230.13972330000252,230.1208773999242,230.22049650002737,230.6212525999872,None,right,1,0.5923044999362901,230.6212525999872,None,230.1208773999242,230.22049650002737,230.22049650002737,None,231.23890649992973,None,,,,,,,11014,001,2024_Jan_04_1020,ANT,2021.2.3,60.027792898048375,
1,15,center,down,IC,L,,,,,,Block.xlsx,"你已经完成了第一个实验区组

请稍作休息


点击空格键进入下一个区组。",0,50,-1.5,left,RRLRR.png,,,,,0,0,0,0,2,9,57,14,,,,,,,,,,,,,,,,,,,,,,,,,,,,,,,,,,,,,,,,,,,,,,,,,,,,,,,,,,,,,,,,231.6402213999536,232.0411045999499,232.0242207000265,232.12411470001098,232.52566699997988,None,right,0,0.3839652999304235,232.52566699997988,None,232.0242207000265,232.12411470001098,232.12411470001098,None,232.92478499992285,None,,,,,,,11014,001,2024_Jan_04_1020,ANT,2021.2.3,60.027792898048375,
1,22,spatial,down,C,R,,,,,,Block.xlsx,"你已经完成了第一个实验区组

请稍作休息


点击空格键进入下一个区组。",-1.5,0,-1.5,right,RRRRR.png,,,,,0,0,0,0,2,10,58,21,,,,,,,,,,,,,,,,,,,,,,,,,,,,,,,,,,,,,,,,,,,,,,,,,,,,,,,,,,,,,,,,233.3252158999676,233.72754789993633,233.70916169998236,233.81011989992112,234.20991259999573,None,right,1,0.4196507000597194,234.20991259999573,None,233.70916169998236,233.81011989992112,233.81011989992112,None,234.6606264000293,None,,,,,,,11014,001,2024_Jan_04_1020,ANT,2021.2.3,60.027792898048375,
1,21,spatial,down,C,L,,,,,,Block.xlsx,"你已经完成了第一个实验区组

请稍作休息


点击空格键进入下一个区组。",-1.5,0,-1.5,left,LLLLL.png,,,,,0,0,0,0,2,11,59,20,,,,,,,,,,,,,,,,,,,,,,,,,,,,,,,,,,,,,,,,,,,,,,,,,,,,,,,,,,,,,,,,235.06177569995634,235.46233489993028,235.44692859996576,235.56310959998518,235.94629909994546,None,left,1,0.4433538999874145,235.94629909994546,None,235.44692859996576,235.56310959998518,235.54697449994273,None,236.41403899993747,None,,,,,,,11014,001,2024_Jan_04_1020,ANT,2021.2.3,60.027792898048375,
1,6,no,down,C,R,,,,,,Block.xlsx,"你已经完成了第一个实验区组

请稍作休息


点击空格键进入下一个区组。",50,0,-1.5,right,RRRRR.png,,,,,0,0,0,0,2,12,60,5,,,,,,,,,,,,,,,,,,,,,,,,,,,,,,,,,,,,,,,,,,,,,,,,,,,,,,,,,,,,,,,,236.81436219997704,237.21541089995299,237.19989419996273,237.31560899992473,237.6991541000316,None,right,1,0.5311605000169948,237.6991541000316,None,237.19989419996273,237.31560899992473,237.29845230001956,None,238.24956599995494,None,,,,,,,11014,001,2024_Jan_04_1020,ANT,2021.2.3,60.027792898048375,
1,22,spatial,down,C,R,,,,,,Block.xlsx,"你已经完成了第一个实验区组

请稍作休息


点击空格键进入下一个区组。",-1.5,0,-1.5,right,RRRRR.png,,,,,0,0,0,0,2,13,61,21,,,,,,,,,,,,,,,,,,,,,,,,,,,,,,,,,,,,,,,,,,,,,,,,,,,,,,,,,,,,,,,,238.65049609995913,239.05153139994945,239.03536959993653,239.13401629996952,239.53459860000294,None,right,1,0.3431276000337675,239.53459860000294,None,239.03536959993653,239.13401629996952,239.13401629996952,None,239.90197829995304,None,,,,,,,11014,001,2024_Jan_04_1020,ANT,2021.2.3,60.027792898048375,
1,9,center,up,C,L,,,,,,Block.xlsx,"你已经完成了第一个实验区组

请稍作休息


点击空格键进入下一个区组。",0,50,1.5,left,LLLLL.png,,,,,0,0,0,0,2,14,62,8,,,,,,,,,,,,,,,,,,,,,,,,,,,,,,,,,,,,,,,,,,,,,,,,,,,,,,,,,,,,,,,,240.3025812000269,240.70439189998433,240.68622929998673,240.78742850001436,241.1892103999853,None,left,1,0.4650499999988824,241.1892103999853,None,240.68622929998673,240.78742850001436,240.78742850001436,None,241.67093169991858,None,,,,,,,11014,001,2024_Jan_04_1020,ANT,2021.2.3,60.027792898048375,
1,7,no,down,IC,L,,,,,,Block.xlsx,"你已经完成了第一个实验区组

请稍作休息


点击空格键进入下一个区组。",50,0,-1.5,left,RRLRR.png,,,,,0,0,0,0,2,15,63,6,,,,,,,,,,,,,,,,,,,,,,,,,,,,,,,,,,,,,,,,,,,,,,,,,,,,,,,,,,,,,,,,242.07164239999838,242.47357040003408,242.45655429991893,242.55577019997872,242.9567377999192,None,left,1,0.633483299985528,242.9567377999192,None,242.45655429991893,242.55577019997872,242.55577019997872,None,243.6071271999972,None,,,,,,,11014,001,2024_Jan_04_1020,ANT,2021.2.3,60.027792898048375,
1,9,center,up,C,L,,,,,,Block.xlsx,"你已经完成了第一个实验区组

请稍作休息


点击空格键进入下一个区组。",0,50,1.5,left,LLLLL.png,,,,,0,0,0,0,2,16,64,8,,,,,,,,,,,,,,,,,,,,,,,,,,,,,,,,,,,,,,,,,,,,,,,,,,,,,,,,,,,,,,,,244.0077733999351,244.40920240001287,244.39308760000858,244.49202409991995,244.89227680000477,None,left,1,0.4174329999368638,244.89227680000477,None,244.39308760000858,244.49202409991995,244.49202409991995,None,245.32638260000385,None,,,,,,,11014,001,2024_Jan_04_1020,ANT,2021.2.3,60.027792898048375,
1,22,spatial,down,C,R,,,,,,Block.xlsx,"你已经完成了第一个实验区组

请稍作休息


点击空格键进入下一个区组。",-1.5,0,-1.5,right,RRRRR.png,,,,,0,0,0,0,2,17,65,21,,,,,,,,,,,,,,,,,,,,,,,,,,,,,,,,,,,,,,,,,,,,,,,,,,,,,,,,,,,,,,,,245.72711610002443,246.1276557999663,246.1112875000108,246.211468399968,246.61237659992184,None,right,1,0.36999869998544455,246.61237659992184,None,246.1112875000108,246.211468399968,246.211468399968,None,247.0121228999924,None,,,,,,,11014,001,2024_Jan_04_1020,ANT,2021.2.3,60.027792898048375,
1,22,spatial,down,C,R,,,,,,Block.xlsx,"你已经完成了第一个实验区组

请稍作休息


点击空格键进入下一个区组。",-1.5,0,-1.5,right,RRRRR.png,,,,,0,0,0,0,2,18,66,21,,,,,,,,,,,,,,,,,,,,,,,,,,,,,,,,,,,,,,,,,,,,,,,,,,,,,,,,,,,,,,,,247.41313529992476,247.81526429997757,247.79740759998094,247.89741979993414,248.29968910000753,None,right,1,0.4020343000302091,248.29968910000753,None,247.79740759998094,247.89741979993414,247.89741979993414,None,248.73185979994014,None,,,,,,,11014,001,2024_Jan_04_1020,ANT,2021.2.3,60.027792898048375,
1,5,no,down,C,L,,,,,,Block.xlsx,"你已经完成了第一个实验区组

请稍作休息


点击空格键进入下一个区组。",50,0,-1.5,left,LLLLL.png,,,,,0,0,0,0,2,19,67,4,,,,,,,,,,,,,,,,,,,,,,,,,,,,,,,,,,,,,,,,,,,,,,,,,,,,,,,,,,,,,,,,249.13277899997775,249.53384119994007,249.51593639992643,249.61764059995767,250.0174267999828,None,left,1,0.45208900002762675,250.0174267999828,None,249.51593639992643,249.61764059995767,249.61764059995767,None,250.50079199997708,None,,,,,,,11014,001,2024_Jan_04_1020,ANT,2021.2.3,60.027792898048375,
1,2,no,up,C,R,,,,,,Block.xlsx,"你已经完成了第一个实验区组

请稍作休息


点击空格键进入下一个区组。",50,0,1.5,right,RRRRR.png,,,,,0,0,0,0,2,20,68,1,,,,,,,,,,,,,,,,,,,,,,,,,,,,,,,,,,,,,,,,,,,,,,,,,,,,,,,,,,,,,,,,250.90158389997669,251.30250909994356,251.28601429995615,251.38742549996823,251.7864265999524,None,right,1,0.4833331999834627,251.7864265999524,None,251.28601429995615,251.38742549996823,251.38742549996823,None,252.2870526999468,None,,,,,,,11014,001,2024_Jan_04_1020,ANT,2021.2.3,60.027792898048375,
1,11,center,up,IC,L,,,,,,Block.xlsx,"你已经完成了第一个实验区组

请稍作休息


点击空格键进入下一个区组。",0,50,1.5,left,RRLRR.png,,,,,0,0,0,0,2,21,69,10,,,,,,,,,,,,,,,,,,,,,,,,,,,,,,,,,,,,,,,,,,,,,,,,,,,,,,,,,,,,,,,,252.68735279992688,253.08859499997925,253.0721982999239,253.1725821000291,253.57201599993277,None,left,1,0.641654499922879,253.57201599993277,None,253.0721982999239,253.1725821000291,253.1725821000291,None,254.23940560000483,None,,,,,,,11014,001,2024_Jan_04_1020,ANT,2021.2.3,60.027792898048375,
1,16,center,down,IC,R,,,,,,Block.xlsx,"你已经完成了第一个实验区组

请稍作休息


点击空格键进入下一个区组。",0,50,-1.5,right,LLRLL.png,,,,,0,0,0,0,2,22,70,15,,,,,,,,,,,,,,,,,,,,,,,,,,,,,,,,,,,,,,,,,,,,,,,,,,,,,,,,,,,,,,,,254.64030410000123,255.04136159992777,255.02551549999043,255.12484740000218,255.52572709997185,None,right,1,0.5919834999367595,255.52572709997185,None,255.02551549999043,255.12484740000218,255.12484740000218,None,256.1423431999283,None,,,,,,,11014,001,2024_Jan_04_1020,ANT,2021.2.3,60.027792898048375,
1,24,spatial,down,IC,R,,,,,,Block.xlsx,"你已经完成了第一个实验区组

请稍作休息


点击空格键进入下一个区组。",-1.5,0,-1.5,right,LLRLL.png,,,,,0,0,0,0,2,23,71,23,,,,,,,,,,,,,,,,,,,,,,,,,,,,,,,,,,,,,,,,,,,,,,,,,,,,,,,,,,,,,,,,256.543477899977,256.94468860002235,256.92786019993946,257.0273038999876,257.4279642000329,None,right,1,0.450628700084053,257.4279642000329,None,256.92786019993946,257.0273038999876,257.0273038999876,None,257.89508579997346,None,,,,,,,11014,001,2024_Jan_04_1020,ANT,2021.2.3,60.027792898048375,
1,23,spatial,down,IC,L,,,,,,Block.xlsx,"你已经完成了第一个实验区组

请稍作休息


点击空格键进入下一个区组。",-1.5,0,-1.5,left,RRLRR.png,,,,,0,0,0,0,3,0,72,22,,,,,,,,,,,,,,,,,,,,,,,,,,,,,,,,,,,,,,,,,,,,,,,,,,,,,,,,,,,,,,,,258.2955883999821,258.6961766999448,258.6805023999186,258.780381700024,259.1802626999561,None,left,1,0.5054892998887226,259.1802626999561,None,258.6805023999186,258.780381700024,258.780381700024,None,259.714361499995,None,,,,,,,11014,001,2024_Jan_04_1020,ANT,2021.2.3,60.027792898048375,
1,2,no,up,C,R,,,,,,Block.xlsx,"你已经完成了第一个实验区组

请稍作休息


点击空格键进入下一个区组。",50,0,1.5,right,RRRRR.png,,,,,0,0,0,0,3,1,73,1,,,,,,,,,,,,,,,,,,,,,,,,,,,,,,,,,,,,,,,,,,,,,,,,,,,,,,,,,,,,,,,,260.11496799997985,260.51593200000934,260.50042549998034,260.6009179999819,261.0003985000076,None,right,1,0.5252134000184014,261.0003985000076,None,260.50042549998034,260.6009179999819,260.6009179999819,None,261.5504117999226,None,,,,,,,11014,001,2024_Jan_04_1020,ANT,2021.2.3,60.027792898048375,
1,8,no,down,IC,R,,,,,,Block.xlsx,"你已经完成了第一个实验区组

请稍作休息


点击空格键进入下一个区组。",50,0,-1.5,right,LLRLL.png,,,,,0,0,0,0,3,2,74,7,,,,,,,,,,,,,,,,,,,,,,,,,,,,,,,,,,,,,,,,,,,,,,,,,,,,,,,,,,,,,,,,261.95100869995076,262.3535150999669,262.33534019999206,262.43588310002815,262.83721159992274,None,right,1,0.6563714999938384,262.83721159992274,None,262.33534019999206,262.43588310002815,262.43588310002815,None,263.5200159000233,None,,,,,,,11014,001,2024_Jan_04_1020,ANT,2021.2.3,60.027792898048375,
1,1,no,up,C,L,,,,,,Block.xlsx,"你已经完成了第一个实验区组

请稍作休息


点击空格键进入下一个区组。",50,0,1.5,left,LLLLL.png,,,,,0,0,0,0,3,3,75,0,,,,,,,,,,,,,,,,,,,,,,,,,,,,,,,,,,,,,,,,,,,,,,,,,,,,,,,,,,,,,,,,263.9214826999232,264.32208589999937,264.30540840001777,264.40520169993397,264.80602449993603,None,left,1,0.4716190999606624,264.80602449993603,None,264.30540840001777,264.40520169993397,264.40520169993397,None,265.3061279000249,None,,,,,,,11014,001,2024_Jan_04_1020,ANT,2021.2.3,60.027792898048375,
1,23,spatial,down,IC,L,,,,,,Block.xlsx,"你已经完成了第一个实验区组

请稍作休息


点击空格键进入下一个区组。",-1.5,0,-1.5,left,RRLRR.png,,,,,0,0,0,0,3,4,76,22,,,,,,,,,,,,,,,,,,,,,,,,,,,,,,,,,,,,,,,,,,,,,,,,,,,,,,,,,,,,,,,,265.7069797000149,266.1081340999808,266.090677900007,266.1915503999917,266.5912050999468,None,left,1,0.47125020006205887,266.5912050999468,None,266.090677900007,266.1915503999917,266.1915503999917,None,267.09199719992466,None,,,,,,,11014,001,2024_Jan_04_1020,ANT,2021.2.3,60.027792898048375,
1,13,center,down,C,L,,,,,,Block.xlsx,"你已经完成了第一个实验区组

请稍作休息


点击空格键进入下一个区组。",0,50,-1.5,left,LLLLL.png,,,,,0,0,0,0,3,5,77,12,,,,,,,,,,,,,,,,,,,,,,,,,,,,,,,,,,,,,,,,,,,,,,,,,,,,,,,,,,,,,,,,267.49327139998786,267.8937616000185,267.8770525000291,267.97783560003154,268.37842389999423,None,left,1,0.41982140007894486,268.37842389999423,None,267.8770525000291,267.97783560003154,267.97783560003154,None,268.8279673999641,None,,,,,,,11014,001,2024_Jan_04_1020,ANT,2021.2.3,60.027792898048375,
1,12,center,up,IC,R,,,,,,Block.xlsx,"你已经完成了第一个实验区组

请稍作休息


点击空格键进入下一个区组。",0,50,1.5,right,LLRLL.png,,,,,0,0,0,0,3,6,78,11,,,,,,,,,,,,,,,,,,,,,,,,,,,,,,,,,,,,,,,,,,,,,,,,,,,,,,,,,,,,,,,,269.2291650000261,269.62969500001054,269.61318899993785,269.7125117999967,270.1135332999984,None,right,1,0.6361560000805184,270.1135332999984,None,269.61318899993785,269.7125117999967,269.7125117999967,None,270.78089589998126,None,,,,,,,11014,001,2024_Jan_04_1020,ANT,2021.2.3,60.027792898048375,
1,5,no,down,C,L,,,,,,Block.xlsx,"你已经完成了第一个实验区组

请稍作休息


点击空格键进入下一个区组。",50,0,-1.5,left,LLLLL.png,,,,,0,0,0,0,3,7,79,4,,,,,,,,,,,,,,,,,,,,,,,,,,,,,,,,,,,,,,,,,,,,,,,,,,,,,,,,,,,,,,,,271.18132119998336,271.5827258999925,271.565399199957,271.66641319997143,272.0670351999579,None,left,1,0.5067002999130636,272.0670351999579,None,271.565399199957,271.66641319997143,271.66641319997143,None,272.6009344999911,None,,,,,,,11014,001,2024_Jan_04_1020,ANT,2021.2.3,60.027792898048375,
1,9,center,up,C,L,,,,,,Block.xlsx,"你已经完成了第一个实验区组

请稍作休息


点击空格键进入下一个区组。",0,50,1.5,left,LLLLL.png,,,,,0,0,0,0,3,8,80,8,,,,,,,,,,,,,,,,,,,,,,,,,,,,,,,,,,,,,,,,,,,,,,,,,,,,,,,,,,,,,,,,273.0020700999303,273.4017710000044,273.3862667999929,273.50203839992173,273.88539109996054,None,left,1,0.5050288999918848,273.88539109996054,None,273.3862667999929,273.50203839992173,273.4847198999487,None,274.41937219991814,None,,,,,,,11014,001,2024_Jan_04_1020,ANT,2021.2.3,60.027792898048375,
1,11,center,up,IC,L,,,,,,Block.xlsx,"你已经完成了第一个实验区组

请稍作休息


点击空格键进入下一个区组。",0,50,1.5,left,RRLRR.png,,,,,0,0,0,0,3,9,81,10,,,,,,,,,,,,,,,,,,,,,,,,,,,,,,,,,,,,,,,,,,,,,,,,,,,,,,,,,,,,,,,,274.8201574999839,275.2210551999742,275.20535379997455,275.3048700999934,275.7057911999291,None,left,1,0.6518510000314564,275.7057911999291,None,275.20535379997455,275.3048700999934,275.3048700999934,None,276.37251379992813,None,,,,,,,11014,001,2024_Jan_04_1020,ANT,2021.2.3,60.027792898048375,
1,13,center,down,C,L,,,,,,Block.xlsx,"你已经完成了第一个实验区组

请稍作休息


点击空格键进入下一个区组。",0,50,-1.5,left,LLLLL.png,,,,,0,0,0,0,3,10,82,12,,,,,,,,,,,,,,,,,,,,,,,,,,,,,,,,,,,,,,,,,,,,,,,,,,,,,,,,,,,,,,,,276.77379240002483,277.1750400000019,277.15687209996395,277.25898489996325,277.659201500006,None,left,1,0.4675097999861464,277.659201500006,None,277.15687209996395,277.25898489996325,277.25898489996325,None,278.1417887000134,None,,,,,,,11014,001,2024_Jan_04_1020,ANT,2021.2.3,60.027792898048375,
1,15,center,down,IC,L,,,,,,Block.xlsx,"你已经完成了第一个实验区组

请稍作休息


点击空格键进入下一个区组。",0,50,-1.5,left,RRLRR.png,,,,,0,0,0,0,3,11,83,14,,,,,,,,,,,,,,,,,,,,,,,,,,,,,,,,,,,,,,,,,,,,,,,,,,,,,,,,,,,,,,,,278.5422515999526,278.94493899994995,278.92669779993594,279.02621369995177,279.42825170001015,None,left,1,0.6093387000728399,279.42825170001015,None,278.92669779993594,279.02621369995177,279.02621369995177,None,280.0616459000157,None,,,,,,,11014,001,2024_Jan_04_1020,ANT,2021.2.3,60.027792898048375,
1,20,spatial,up,IC,R,,,,,,Block.xlsx,"你已经完成了第一个实验区组

请稍作休息


点击空格键进入下一个区组。",1.5,0,1.5,right,LLRLL.png,,,,,0,0,0,0,3,12,84,19,,,,,,,,,,,,,,,,,,,,,,,,,,,,,,,,,,,,,,,,,,,,,,,,,,,,,,,,,,,,,,,,280.46253239992075,280.86269719991833,280.84556329995394,280.9467444999609,281.34645199996885,None,right,1,0.5956087000668049,281.34645199996885,None,280.84556329995394,280.9467444999609,280.9467444999609,None,281.96418160002213,None,,,,,,,11014,001,2024_Jan_04_1020,ANT,2021.2.3,60.027792898048375,
1,14,center,down,C,R,,,,,,Block.xlsx,"你已经完成了第一个实验区组

请稍作休息


点击空格键进入下一个区组。",0,50,-1.5,right,RRRRR.png,,,,,0,0,0,0,3,13,85,13,,,,,,,,,,,,,,,,,,,,,,,,,,,,,,,,,,,,,,,,,,,,,,,,,,,,,,,,,,,,,,,,282.36486059997696,282.766102100024,282.7492407999234,282.8499627999263,283.2496675000293,None,right,1,0.4604397000512108,283.2496675000293,None,282.7492407999234,282.8499627999263,282.8499627999263,None,283.73490419995505,None,,,,,,,11014,001,2024_Jan_04_1020,ANT,2021.2.3,60.027792898048375,
1,6,no,down,C,R,,,,,,Block.xlsx,"你已经完成了第一个实验区组

请稍作休息


点击空格键进入下一个区组。",50,0,-1.5,right,RRRRR.png,,,,,0,0,0,0,3,14,86,5,,,,,,,,,,,,,,,,,,,,,,,,,,,,,,,,,,,,,,,,,,,,,,,,,,,,,,,,,,,,,,,,284.13384699996095,284.5345662999898,284.5199047999922,284.6182468000334,285.02012879995164,None,right,1,0.4414278999902308,285.02012879995164,None,284.5199047999922,284.6182468000334,284.6182468000334,None,285.48597529996186,None,,,,,,,11014,001,2024_Jan_04_1020,ANT,2021.2.3,60.027792898048375,
1,7,no,down,IC,L,,,,,,Block.xlsx,"你已经完成了第一个实验区组

请稍作休息


点击空格键进入下一个区组。",50,0,-1.5,left,RRLRR.png,,,,,0,0,0,0,3,15,87,6,,,,,,,,,,,,,,,,,,,,,,,,,,,,,,,,,,,,,,,,,,,,,,,,,,,,,,,,,,,,,,,,285.8871247000061,286.28827659995295,286.2704009999288,286.37202270003036,286.7718468999956,None,left,1,0.5538970999186859,286.7718468999956,None,286.2704009999288,286.37202270003036,286.37202270003036,None,287.35534310003277,None,,,,,,,11014,001,2024_Jan_04_1020,ANT,2021.2.3,60.027792898048375,
1,21,spatial,down,C,L,,,,,,Block.xlsx,"你已经完成了第一个实验区组

请稍作休息


点击空格键进入下一个区组。",-1.5,0,-1.5,left,LLLLL.png,,,,,0,0,0,0,3,16,88,20,,,,,,,,,,,,,,,,,,,,,,,,,,,,,,,,,,,,,,,,,,,,,,,,,,,,,,,,,,,,,,,,287.75636609992944,288.15848969994113,288.14047969994135,288.24164529994596,288.6411090999609,None,left,1,0.5890270000090823,288.6411090999609,None,288.14047969994135,288.24164529994596,288.24164529994596,None,289.2582152999239,None,,,,,,,11014,001,2024_Jan_04_1020,ANT,2021.2.3,60.027792898048375,
1,18,spatial,up,C,R,,,,,,Block.xlsx,"你已经完成了第一个实验区组

请稍作休息


点击空格键进入下一个区组。",1.5,0,1.5,right,RRRRR.png,,,,,0,0,0,0,3,17,89,17,,,,,,,,,,,,,,,,,,,,,,,,,,,,,,,,,,,,,,,,,,,,,,,,,,,,,,,,,,,,,,,,289.65869980002753,290.06130329996813,290.04338649997953,290.1437224999536,290.54479499999434,None,right,1,0.39737160003278404,290.54479499999434,None,290.04338649997953,290.1437224999536,290.1437224999536,None,290.96052500000224,None,,,,,,,11014,001,2024_Jan_04_1020,ANT,2021.2.3,60.027792898048375,
1,10,center,up,C,R,,,,,,Block.xlsx,"你已经完成了第一个实验区组

请稍作休息


点击空格键进入下一个区组。",0,50,1.5,right,RRRRR.png,,,,,0,0,0,0,3,18,90,9,,,,,,,,,,,,,,,,,,,,,,,,,,,,,,,,,,,,,,,,,,,,,,,,,,,,,,,,,,,,,,,,291.3615438999841,291.7634948999621,291.74526310001966,291.8465439999709,292.24592779995874,None,right,1,0.5037867000792176,292.24592779995874,None,291.74526310001966,291.8465439999709,291.8465439999709,None,292.7805926000001,None,,,,,,,11014,001,2024_Jan_04_1020,ANT,2021.2.3,60.027792898048375,
1,19,spatial,up,IC,L,,,,,,Block.xlsx,"你已经完成了第一个实验区组

请稍作休息


点击空格键进入下一个区组。",1.5,0,1.5,left,RRLRR.png,,,,,0,0,0,0,3,19,91,18,,,,,,,,,,,,,,,,,,,,,,,,,,,,,,,,,,,,,,,,,,,,,,,,,,,,,,,,,,,,,,,,293.180734799942,293.58129400003236,293.5648383999942,293.6655084999511,294.0664649999235,None,left,1,0.5479390999535099,294.0664649999235,None,293.5648383999942,293.6655084999511,293.6655084999511,None,294.632895299932,None,,,,,,,11014,001,2024_Jan_04_1020,ANT,2021.2.3,60.027792898048375,
1,14,center,down,C,R,,,,,,Block.xlsx,"你已经完成了第一个实验区组

请稍作休息


点击空格键进入下一个区组。",0,50,-1.5,right,RRRRR.png,,,,,0,0,0,0,3,20,92,13,,,,,,,,,,,,,,,,,,,,,,,,,,,,,,,,,,,,,,,,,,,,,,,,,,,,,,,,,,,,,,,,295.03338879998773,295.43555479997303,295.41790469991975,295.5189705999801,295.9182737999363,None,right,1,0.44824990001507103,295.9182737999363,None,295.41790469991975,295.5189705999801,295.5189705999801,None,296.3854242999805,None,,,,,,,11014,001,2024_Jan_04_1020,ANT,2021.2.3,60.027792898048375,
1,1,no,up,C,L,,,,,,Block.xlsx,"你已经完成了第一个实验区组

请稍作休息


点击空格键进入下一个区组。",50,0,1.5,left,LLLLL.png,,,,,0,0,0,0,3,21,93,0,,,,,,,,,,,,,,,,,,,,,,,,,,,,,,,,,,,,,,,,,,,,,,,,,,,,,,,,,,,,,,,,296.78666139999405,297.188699399936,297.1707958999323,297.27057739999145,297.672745799995,None,left,1,0.42959960002917796,297.672745799995,None,297.1707958999323,297.27057739999145,297.27057739999145,None,298.1214002999477,None,,,,,,,11014,001,2024_Jan_04_1020,ANT,2021.2.3,60.027792898048375,
1,11,center,up,IC,L,,,,,,Block.xlsx,"你已经完成了第一个实验区组

请稍作休息


点击空格键进入下一个区组。",0,50,1.5,left,RRLRR.png,,,,,0,0,0,0,3,22,94,10,,,,,,,,,,,,,,,,,,,,,,,,,,,,,,,,,,,,,,,,,,,,,,,,,,,,,,,,,,,,,,,,298.52195309998933,298.9229522999376,298.90642549993936,299.0065013000276,299.40757579996716,None,left,1,0.6625935999909416,299.40757579996716,None,298.90642549993936,299.0065013000276,299.0065013000276,None,300.09084979991894,None,,,,,,,11014,001,2024_Jan_04_1020,ANT,2021.2.3,60.027792898048375,
1,12,center,up,IC,R,,,,,,Block.xlsx,"你已经完成了第一个实验区组

请稍作休息


点击空格键进入下一个区组。",0,50,1.5,right,LLRLL.png,,,,,0,0,0,0,3,23,95,11,,,,,,,,,,,,,,,,,,,,,,,,,,,,,,,,,,,,,,,,,,,,,,,,,,,,,,,,,,,,,,,,300.49164789996576,300.89331950002816,300.8754576999927,300.97607909992803,301.37588289997075,None,right,1,0.4623624999076128,301.37588289997075,None,300.8754576999927,300.97607909992803,300.97607909992803,None,301.86018109996803,None,,,,,,,11014,001,2024_Jan_04_1020,ANT,2021.2.3,60.027792898048375,
,,,,,,,,,,,Block.xlsx,"你已经完成了第一个实验区组

请稍作休息


点击空格键进入下一个区组。",,,,,,,,,,0,0,0,0,,,,,,,,,,,,,,,,,,,,,,,,,,,,,,,,,,,,,,,,,,,,,,,,,,,,,,,,,,,,,,,,,,,,,,,,,,,,,,,,,,,,,space,3.216050500050187,302.27779039996676,None,302.27779039996676,None,11014,001,2024_Jan_04_1020,ANT,2021.2.3,60.027792898048375,
1,21,spatial,down,C,L,,,,,,Block.xlsx,"你已经完成了整个实验（三个区组）。

请报告实验者已完成实验

非常感谢，再见！",-1.5,0,-1.5,left,LLLLL.png,,,,,0,1,1,1,0,0,0,20,,,,,,,,,,,,,,,,,,,,,,,,,,,,,,,,,,,,,,,,,,,,,,,,,,,,,,,,,,,,,,,,305.53175470000133,305.9337538999971,305.9178069999907,306.0164671000093,306.41766869998537,None,left,1,0.37229129998013377,306.41766869998537,None,305.9178069999907,306.0164671000093,306.0164671000093,None,306.8176531000063,None,,,,,,,11014,001,2024_Jan_04_1020,ANT,2021.2.3,60.027792898048375,
1,13,center,down,C,L,,,,,,Block.xlsx,"你已经完成了整个实验（三个区组）。

请报告实验者已完成实验

非常感谢，再见！",0,50,-1.5,left,LLLLL.png,,,,,0,1,1,1,0,1,1,12,,,,,,,,,,,,,,,,,,,,,,,,,,,,,,,,,,,,,,,,,,,,,,,,,,,,,,,,,,,,,,,,307.21881939994637,307.6188715000171,307.60208340000827,307.7028442999581,308.1039737999672,None,left,1,0.3896667999215424,308.1039737999672,None,307.60208340000827,307.7028442999581,307.7028442999581,None,308.520269199973,None,,,,,,,11014,001,2024_Jan_04_1020,ANT,2021.2.3,60.027792898048375,
1,18,spatial,up,C,R,,,,,,Block.xlsx,"你已经完成了整个实验（三个区组）。

请报告实验者已完成实验

非常感谢，再见！",1.5,0,1.5,right,RRRRR.png,,,,,0,1,1,1,0,2,2,17,,,,,,,,,,,,,,,,,,,,,,,,,,,,,,,,,,,,,,,,,,,,,,,,,,,,,,,,,,,,,,,,308.9214529999299,309.32141089998186,309.305522199953,309.4054122000234,309.8055332999211,None,right,1,0.3686405000044033,309.8055332999211,None,309.305522199953,309.4054122000234,309.4054122000234,None,310.1891686000163,None,,,,,,,11014,001,2024_Jan_04_1020,ANT,2021.2.3,60.027792898048375,
1,1,no,up,C,L,,,,,,Block.xlsx,"你已经完成了整个实验（三个区组）。

请报告实验者已完成实验

非常感谢，再见！",50,0,1.5,left,LLLLL.png,,,,,0,1,1,1,0,3,3,0,,,,,,,,,,,,,,,,,,,,,,,,,,,,,,,,,,,,,,,,,,,,,,,,,,,,,,,,,,,,,,,,310.58976340002846,310.9904570999788,310.97438389994204,311.0763806999894,311.4745834999485,None,left,1,0.4671648000366986,311.4745834999485,None,310.97438389994204,311.0763806999894,311.0763806999894,None,311.95875779993366,None,,,,,,,11014,001,2024_Jan_04_1020,ANT,2021.2.3,60.027792898048375,
1,23,spatial,down,IC,L,,,,,,Block.xlsx,"你已经完成了整个实验（三个区组）。

请报告实验者已完成实验

非常感谢，再见！",-1.5,0,-1.5,left,RRLRR.png,,,,,0,1,1,1,0,4,4,22,,,,,,,,,,,,,,,,,,,,,,,,,,,,,,,,,,,,,,,,,,,,,,,,,,,,,,,,,,,,,,,,312.35913709993474,312.75953989999834,312.7431979000103,312.8441357000265,313.2438588999212,None,left,1,0.5458879999350756,313.2438588999212,None,312.7431979000103,312.8441357000265,312.8441357000265,None,313.8112570999656,None,,,,,,,11014,001,2024_Jan_04_1020,ANT,2021.2.3,60.027792898048375,
1,12,center,up,IC,R,,,,,,Block.xlsx,"你已经完成了整个实验（三个区组）。

请报告实验者已完成实验

非常感谢，再见！",0,50,1.5,right,LLRLL.png,,,,,0,1,1,1,0,5,5,11,,,,,,,,,,,,,,,,,,,,,,,,,,,,,,,,,,,,,,,,,,,,,,,,,,,,,,,,,,,,,,,,314.2125021999236,314.61329739994835,314.59726700000465,314.6986352999229,315.0971814999357,None,right,1,0.6366727999411523,315.0971814999357,None,314.59726700000465,314.6986352999229,314.6986352999229,None,315.7644288999727,None,,,,,,,11014,001,2024_Jan_04_1020,ANT,2021.2.3,60.027792898048375,
1,24,spatial,down,IC,R,,,,,,Block.xlsx,"你已经完成了整个实验（三个区组）。

请报告实验者已完成实验

非常感谢，再见！",-1.5,0,-1.5,right,LLRLL.png,,,,,0,1,1,1,0,6,6,23,,,,,,,,,,,,,,,,,,,,,,,,,,,,,,,,,,,,,,,,,,,,,,,,,,,,,,,,,,,,,,,,316.1656690000091,316.56741030002013,316.5491970999865,316.64884169993456,317.04988669999875,None,right,1,0.548082199995406,317.04988669999875,None,316.5491970999865,316.64884169993456,316.64884169993456,None,317.61760260001756,None,,,,,,,11014,001,2024_Jan_04_1020,ANT,2021.2.3,60.027792898048375,
1,16,center,down,IC,R,,,,,,Block.xlsx,"你已经完成了整个实验（三个区组）。

请报告实验者已完成实验

非常感谢，再见！",0,50,-1.5,right,LLRLL.png,,,,,0,1,1,1,0,7,7,15,,,,,,,,,,,,,,,,,,,,,,,,,,,,,,,,,,,,,,,,,,,,,,,,,,,,,,,,,,,,,,,,318.0175228000153,318.41975919995457,318.4015683999751,318.50259980000556,318.9027613999788,None,right,1,0.751170999952592,318.9027613999788,None,318.4015683999751,318.50259980000556,318.50259980000556,None,319.6703911999939,None,,,,,,,11014,001,2024_Jan_04_1020,ANT,2021.2.3,60.027792898048375,
1,13,center,down,C,L,,,,,,Block.xlsx,"你已经完成了整个实验（三个区组）。

请报告实验者已完成实验

非常感谢，再见！",0,50,-1.5,left,LLLLL.png,,,,,0,1,1,1,0,8,8,12,,,,,,,,,,,,,,,,,,,,,,,,,,,,,,,,,,,,,,,,,,,,,,,,,,,,,,,,,,,,,,,,320.07047459995374,320.47200199996587,320.455367699964,320.55497709999327,320.9558139999863,None,left,1,0.4182374000083655,320.9558139999863,None,320.455367699964,320.55497709999327,320.55497709999327,None,321.38910659996327,None,,,,,,,11014,001,2024_Jan_04_1020,ANT,2021.2.3,60.027792898048375,
1,11,center,up,IC,L,,,,,,Block.xlsx,"你已经完成了整个实验（三个区组）。

请报告实验者已完成实验

非常感谢，再见！",0,50,1.5,left,RRLRR.png,,,,,0,1,1,1,0,9,9,10,,,,,,,,,,,,,,,,,,,,,,,,,,,,,,,,,,,,,,,,,,,,,,,,,,,,,,,,,,,,,,,,321.790564200026,322.1902837000089,322.17529439995997,322.27444900001865,322.6748899000231,None,left,1,0.6349809999810532,322.6748899000231,None,322.17529439995997,322.27444900001865,322.27444900001865,None,323.32591899996623,None,,,,,,,11014,001,2024_Jan_04_1020,ANT,2021.2.3,60.027792898048375,
1,22,spatial,down,C,R,,,,,,Block.xlsx,"你已经完成了整个实验（三个区组）。

请报告实验者已完成实验

非常感谢，再见！",-1.5,0,-1.5,right,RRRRR.png,,,,,0,1,1,1,0,10,10,21,,,,,,,,,,,,,,,,,,,,,,,,,,,,,,,,,,,,,,,,,,,,,,,,,,,,,,,,,,,,,,,,323.7270301999524,324.126878399984,324.1108574999962,324.21016429993324,324.61129539995454,None,right,1,0.42683789995498955,324.61129539995454,None,324.1108574999962,324.21016429993324,324.21016429993324,None,325.0611082999967,None,,,,,,,11014,001,2024_Jan_04_1020,ANT,2021.2.3,60.027792898048375,
1,6,no,down,C,R,,,,,,Block.xlsx,"你已经完成了整个实验（三个区组）。

请报告实验者已完成实验

非常感谢，再见！",50,0,-1.5,right,RRRRR.png,,,,,0,1,1,1,0,11,11,5,,,,,,,,,,,,,,,,,,,,,,,,,,,,,,,,,,,,,,,,,,,,,,,,,,,,,,,,,,,,,,,,325.46206379996147,325.8632729999954,325.8464439000236,325.947057900019,326.3472898999462,None,right,1,0.49893250002060086,326.3472898999462,None,325.8464439000236,325.947057900019,325.947057900019,None,326.86381329991855,None,,,,,,,11014,001,2024_Jan_04_1020,ANT,2021.2.3,60.027792898048375,
1,15,center,down,IC,L,,,,,,Block.xlsx,"你已经完成了整个实验（三个区组）。

请报告实验者已完成实验

非常感谢，再见！",0,50,-1.5,left,RRLRR.png,,,,,0,1,1,1,0,12,12,14,,,,,,,,,,,,,,,,,,,,,,,,,,,,,,,,,,,,,,,,,,,,,,,,,,,,,,,,,,,,,,,,327.26524999993853,327.6663467999315,327.6497547000181,327.7493642999325,328.14986969996244,None,right,0,0.4966912999516353,328.14986969996244,None,327.6497547000181,327.7493642999325,327.7493642999325,None,328.6676701999968,None,,,,,,,11014,001,2024_Jan_04_1020,ANT,2021.2.3,60.027792898048375,
1,12,center,up,IC,R,,,,,,Block.xlsx,"你已经完成了整个实验（三个区组）。

请报告实验者已完成实验

非常感谢，再见！",0,50,1.5,right,LLRLL.png,,,,,0,1,1,1,0,13,13,11,,,,,,,,,,,,,,,,,,,,,,,,,,,,,,,,,,,,,,,,,,,,,,,,,,,,,,,,,,,,,,,,329.0670962999575,329.46813459997065,329.45118750003166,329.5517833000049,329.9519172,None,right,1,0.5258491999702528,329.9519172,None,329.45118750003166,329.5517833000049,329.5517833000049,None,330.50265719997697,None,,,,,,,11014,001,2024_Jan_04_1020,ANT,2021.2.3,60.027792898048375,
1,6,no,down,C,R,,,,,,Block.xlsx,"你已经完成了整个实验（三个区组）。

请报告实验者已完成实验

非常感谢，再见！",50,0,-1.5,right,RRRRR.png,,,,,0,1,1,1,0,14,14,5,,,,,,,,,,,,,,,,,,,,,,,,,,,,,,,,,,,,,,,,,,,,,,,,,,,,,,,,,,,,,,,,330.9031676999293,331.30407049995847,331.28773360000923,331.38832070003264,331.7887459999183,None,right,1,0.5292551000602543,331.7887459999183,None,331.28773360000923,331.38832070003264,331.38832070003264,None,332.33875080000143,None,,,,,,,11014,001,2024_Jan_04_1020,ANT,2021.2.3,60.027792898048375,
1,14,center,down,C,R,,,,,,Block.xlsx,"你已经完成了整个实验（三个区组）。

请报告实验者已完成实验

非常感谢，再见！",0,50,-1.5,right,RRRRR.png,,,,,0,1,1,1,0,15,15,13,,,,,,,,,,,,,,,,,,,,,,,,,,,,,,,,,,,,,,,,,,,,,,,,,,,,,,,,,,,,,,,,332.7392747999402,333.14144859998487,333.12317039992195,333.22517839993816,333.6247482999461,None,right,1,0.5011285999789834,333.6247482999461,None,333.12317039992195,333.22517839993816,333.22517839993816,None,334.1415838999674,None,,,,,,,11014,001,2024_Jan_04_1020,ANT,2021.2.3,60.027792898048375,
1,23,spatial,down,IC,L,,,,,,Block.xlsx,"你已经完成了整个实验（三个区组）。

请报告实验者已完成实验

非常感谢，再见！",-1.5,0,-1.5,left,RRLRR.png,,,,,0,1,1,1,0,16,16,22,,,,,,,,,,,,,,,,,,,,,,,,,,,,,,,,,,,,,,,,,,,,,,,,,,,,,,,,,,,,,,,,334.54275329993106,334.9430865999311,334.92657210002653,335.02668949996587,335.42764549993444,None,left,1,0.4904294000007212,335.42764549993444,None,334.92657210002653,335.02668949996587,335.02668949996587,None,335.94394779996946,None,,,,,,,11014,001,2024_Jan_04_1020,ANT,2021.2.3,60.027792898048375,
1,2,no,up,C,R,,,,,,Block.xlsx,"你已经完成了整个实验（三个区组）。

请报告实验者已完成实验

非常感谢，再见！",50,0,1.5,right,RRRRR.png,,,,,0,1,1,1,0,17,17,1,,,,,,,,,,,,,,,,,,,,,,,,,,,,,,,,,,,,,,,,,,,,,,,,,,,,,,,,,,,,,,,,336.344603799982,336.7452443999937,336.72849939996377,336.8299967999337,337.22920319996774,None,right,1,0.5136734000407159,337.22920319996774,None,336.72849939996377,336.8299967999337,336.8299967999337,None,337.7633246999467,None,,,,,,,11014,001,2024_Jan_04_1020,ANT,2021.2.3,60.027792898048375,
1,17,spatial,up,C,L,,,,,,Block.xlsx,"你已经完成了整个实验（三个区组）。

请报告实验者已完成实验

非常感谢，再见！",1.5,0,1.5,left,LLLLL.png,,,,,0,1,1,1,0,18,18,16,,,,,,,,,,,,,,,,,,,,,,,,,,,,,,,,,,,,,,,,,,,,,,,,,,,,,,,,,,,,,,,,338.1639661999652,338.56471379997674,338.5486644000048,338.6479059000267,339.04907660000026,None,left,1,0.692672900040634,339.04907660000026,None,338.5486644000048,338.6479059000267,338.6479059000267,None,339.7663511999417,None,,,,,,,11014,001,2024_Jan_04_1020,ANT,2021.2.3,60.027792898048375,
1,1,no,up,C,L,,,,,,Block.xlsx,"你已经完成了整个实验（三个区组）。

请报告实验者已完成实验

非常感谢，再见！",50,0,1.5,left,LLLLL.png,,,,,0,1,1,1,0,19,19,0,,,,,,,,,,,,,,,,,,,,,,,,,,,,,,,,,,,,,,,,,,,,,,,,,,,,,,,,,,,,,,,,340.1662465999834,340.56795229995623,340.55215000000317,340.66834869992454,341.0523777999915,None,left,1,0.41746669996064156,341.0523777999915,None,340.55215000000317,340.66834869992454,340.6516128999647,None,341.48556810000446,None,,,,,,,11014,001,2024_Jan_04_1020,ANT,2021.2.3,60.027792898048375,
1,16,center,down,IC,R,,,,,,Block.xlsx,"你已经完成了整个实验（三个区组）。

请报告实验者已完成实验

非常感谢，再见！",0,50,-1.5,right,LLRLL.png,,,,,0,1,1,1,0,20,20,15,,,,,,,,,,,,,,,,,,,,,,,,,,,,,,,,,,,,,,,,,,,,,,,,,,,,,,,,,,,,,,,,341.8862356999889,342.287312499946,342.270151100005,342.3701677999925,342.77083069994114,None,right,1,0.5155918999807909,342.77083069994114,None,342.270151100005,342.3701677999925,342.3701677999925,None,343.30520609999076,None,,,,,,,11014,001,2024_Jan_04_1020,ANT,2021.2.3,60.027792898048375,
1,8,no,down,IC,R,,,,,,Block.xlsx,"你已经完成了整个实验（三个区组）。

请报告实验者已完成实验

非常感谢，再见！",50,0,-1.5,right,LLRLL.png,,,,,0,1,1,1,0,21,21,7,,,,,,,,,,,,,,,,,,,,,,,,,,,,,,,,,,,,,,,,,,,,,,,,,,,,,,,,,,,,,,,,343.70658759993967,344.10644659993704,344.0907016999554,344.190172099974,344.5910516999429,None,right,1,0.6627165999962017,344.5910516999429,None,344.0907016999554,344.190172099974,344.190172099974,None,345.2744580999715,None,,,,,,,11014,001,2024_Jan_04_1020,ANT,2021.2.3,60.027792898048375,
1,2,no,up,C,R,,,,,,Block.xlsx,"你已经完成了整个实验（三个区组）。

请报告实验者已完成实验

非常感谢，再见！",50,0,1.5,right,RRRRR.png,,,,,0,1,1,1,0,22,22,1,,,,,,,,,,,,,,,,,,,,,,,,,,,,,,,,,,,,,,,,,,,,,,,,,,,,,,,,,,,,,,,,345.67571590002626,346.07635490002576,346.0589560000226,346.1600257999962,346.560100600007,None,right,1,0.4623783000279218,346.560100600007,None,346.0589560000226,346.1600257999962,346.1600257999962,None,347.0437729000114,None,,,,,,,11014,001,2024_Jan_04_1020,ANT,2021.2.3,60.027792898048375,
1,4,no,up,IC,R,,,,,,Block.xlsx,"你已经完成了整个实验（三个区组）。

请报告实验者已完成实验

非常感谢，再见！",50,0,1.5,right,LLRLL.png,,,,,0,1,1,1,0,23,23,3,,,,,,,,,,,,,,,,,,,,,,,,,,,,,,,,,,,,,,,,,,,,,,,,,,,,,,,,,,,,,,,,347.4441513000056,347.8462862999877,347.82946299994364,347.928816700005,348.3298412000295,None,right,1,0.6683747000060976,348.3298412000295,None,347.82946299994364,347.928816700005,347.928816700005,None,349.01348109997343,None,,,,,,,11014,001,2024_Jan_04_1020,ANT,2021.2.3,60.027792898048375,
1,5,no,down,C,L,,,,,,Block.xlsx,"你已经完成了整个实验（三个区组）。

请报告实验者已完成实验

非常感谢，再见！",50,0,-1.5,left,LLLLL.png,,,,,0,1,1,1,1,0,24,4,,,,,,,,,,,,,,,,,,,,,,,,,,,,,,,,,,,,,,,,,,,,,,,,,,,,,,,,,,,,,,,,349.4141072999919,349.81544389994815,349.79878870001994,349.89955790003296,350.29857699992135,None,left,1,0.3876890999963507,350.29857699992135,None,349.79878870001994,349.89955790003296,349.89955790003296,None,350.71583350002766,None,,,,,,,11014,001,2024_Jan_04_1020,ANT,2021.2.3,60.027792898048375,
1,8,no,down,IC,R,,,,,,Block.xlsx,"你已经完成了整个实验（三个区组）。

请报告实验者已完成实验

非常感谢，再见！",50,0,-1.5,right,LLRLL.png,,,,,0,1,1,1,1,1,25,7,,,,,,,,,,,,,,,,,,,,,,,,,,,,,,,,,,,,,,,,,,,,,,,,,,,,,,,,,,,,,,,,351.11639330000617,351.51807420002297,351.5003424999304,351.6007205999922,352.0022772999946,None,right,1,0.5234778000740334,352.0022772999946,None,351.5003424999304,351.6007205999922,351.6007205999922,None,352.5533966999501,None,,,,,,,11014,001,2024_Jan_04_1020,ANT,2021.2.3,60.027792898048375,
1,14,center,down,C,R,,,,,,Block.xlsx,"你已经完成了整个实验（三个区组）。

请报告实验者已完成实验

非常感谢，再见！",0,50,-1.5,right,RRRRR.png,,,,,0,1,1,1,1,2,26,13,,,,,,,,,,,,,,,,,,,,,,,,,,,,,,,,,,,,,,,,,,,,,,,,,,,,,,,,,,,,,,,,352.9525938000297,353.3532145000063,353.3374216000084,353.43768440000713,353.8396149999462,None,right,1,0.422085199970752,353.8396149999462,None,353.3374216000084,353.43768440000713,353.43768440000713,None,354.28777619998436,None,,,,,,,11014,001,2024_Jan_04_1020,ANT,2021.2.3,60.027792898048375,
1,21,spatial,down,C,L,,,,,,Block.xlsx,"你已经完成了整个实验（三个区组）。

请报告实验者已完成实验

非常感谢，再见！",-1.5,0,-1.5,left,LLLLL.png,,,,,0,1,1,1,1,3,27,20,,,,,,,,,,,,,,,,,,,,,,,,,,,,,,,,,,,,,,,,,,,,,,,,,,,,,,,,,,,,,,,,354.68856529996265,355.0891844999278,355.0738315000199,355.17371100001037,355.5730717999395,None,left,1,0.40078299993183464,355.5730717999395,None,355.0738315000199,355.17371100001037,355.17371100001037,None,355.9907813000027,None,,,,,,,11014,001,2024_Jan_04_1020,ANT,2021.2.3,60.027792898048375,
1,7,no,down,IC,L,,,,,,Block.xlsx,"你已经完成了整个实验（三个区组）。

请报告实验者已完成实验

非常感谢，再见！",50,0,-1.5,left,RRLRR.png,,,,,0,1,1,1,1,4,28,6,,,,,,,,,,,,,,,,,,,,,,,,,,,,,,,,,,,,,,,,,,,,,,,,,,,,,,,,,,,,,,,,356.39114179997705,356.7931331000291,356.7748307000147,356.87509119999595,357.27714359993115,None,left,1,0.5047722000163049,357.27714359993115,None,356.7748307000147,356.87509119999595,356.87509119999595,None,357.80988930002786,None,,,,,,,11014,001,2024_Jan_04_1020,ANT,2021.2.3,60.027792898048375,
1,20,spatial,up,IC,R,,,,,,Block.xlsx,"你已经完成了整个实验（三个区组）。

请报告实验者已完成实验

非常感谢，再见！",1.5,0,1.5,right,LLRLL.png,,,,,0,1,1,1,1,5,29,19,,,,,,,,,,,,,,,,,,,,,,,,,,,,,,,,,,,,,,,,,,,,,,,,,,,,,,,,,,,,,,,,358.2110070999479,358.6116744999308,358.59615160000976,358.69529479998164,359.0970371000003,None,right,1,0.47727060003671795,359.0970371000003,None,358.59615160000976,358.69529479998164,358.69529479998164,None,359.59613269998226,None,,,,,,,11014,001,2024_Jan_04_1020,ANT,2021.2.3,60.027792898048375,
1,11,center,up,IC,L,,,,,,Block.xlsx,"你已经完成了整个实验（三个区组）。

请报告实验者已完成实验

非常感谢，再见！",0,50,1.5,left,RRLRR.png,,,,,0,1,1,1,1,6,30,10,,,,,,,,,,,,,,,,,,,,,,,,,,,,,,,,,,,,,,,,,,,,,,,,,,,,,,,,,,,,,,,,359.9963995999424,360.39796550001483,360.3808168999385,360.48041840002406,360.8823492999654,None,left,1,0.5963090000441298,360.8823492999654,None,360.3808168999385,360.48041840002406,360.48041840002406,None,361.4987285999814,None,,,,,,,11014,001,2024_Jan_04_1020,ANT,2021.2.3,60.027792898048375,
1,24,spatial,down,IC,R,,,,,,Block.xlsx,"你已经完成了整个实验（三个区组）。

请报告实验者已完成实验

非常感谢，再见！",-1.5,0,-1.5,right,LLRLL.png,,,,,0,1,1,1,1,7,31,23,,,,,,,,,,,,,,,,,,,,,,,,,,,,,,,,,,,,,,,,,,,,,,,,,,,,,,,,,,,,,,,,361.899097800022,362.30099070002325,362.2830899999244,362.38400249998085,362.78501739993226,None,right,1,0.5006860999856144,362.78501739993226,None,362.2830899999244,362.38400249998085,362.38400249998085,None,363.3014966000337,None,,,,,,,11014,001,2024_Jan_04_1020,ANT,2021.2.3,60.027792898048375,
1,22,spatial,down,C,R,,,,,,Block.xlsx,"你已经完成了整个实验（三个区组）。

请报告实验者已完成实验

非常感谢，再见！",-1.5,0,-1.5,right,RRRRR.png,,,,,0,1,1,1,1,8,32,21,,,,,,,,,,,,,,,,,,,,,,,,,,,,,,,,,,,,,,,,,,,,,,,,,,,,,,,,,,,,,,,,363.70301749999635,364.1032656999305,364.0869025000138,364.18649370002095,364.5865138999652,None,right,1,0.40354550001211464,364.5865138999652,None,364.0869025000138,364.18649370002095,364.18649370002095,None,365.0204048999585,None,,,,,,,11014,001,2024_Jan_04_1020,ANT,2021.2.3,60.027792898048375,
1,19,spatial,up,IC,L,,,,,,Block.xlsx,"你已经完成了整个实验（三个区组）。

请报告实验者已完成实验

非常感谢，再见！",1.5,0,1.5,left,RRLRR.png,,,,,0,1,1,1,1,9,33,18,,,,,,,,,,,,,,,,,,,,,,,,,,,,,,,,,,,,,,,,,,,,,,,,,,,,,,,,,,,,,,,,365.42171749996487,365.822371999966,365.8062345000217,365.9052962999558,366.3056238000281,None,left,1,0.5722283000359312,366.3056238000281,None,365.8062345000217,365.9052962999558,365.9052962999558,None,366.9067291999236,None,,,,,,,11014,001,2024_Jan_04_1020,ANT,2021.2.3,60.027792898048375,
1,24,spatial,down,IC,R,,,,,,Block.xlsx,"你已经完成了整个实验（三个区组）。

请报告实验者已完成实验

非常感谢，再见！",-1.5,0,-1.5,right,LLRLL.png,,,,,0,1,1,1,1,10,34,23,,,,,,,,,,,,,,,,,,,,,,,,,,,,,,,,,,,,,,,,,,,,,,,,,,,,,,,,,,,,,,,,367.30722059996333,367.70885359996464,367.69149280001875,367.7916075999383,368.1929002000252,None,right,1,0.3811413999646902,368.1929002000252,None,367.69149280001875,367.7916075999383,367.7916075999383,None,368.59231859992724,None,,,,,,,11014,001,2024_Jan_04_1020,ANT,2021.2.3,60.027792898048375,
1,2,no,up,C,R,,,,,,Block.xlsx,"你已经完成了整个实验（三个区组）。

请报告实验者已完成实验

非常感谢，再见！",50,0,1.5,right,RRRRR.png,,,,,0,1,1,1,1,11,35,1,,,,,,,,,,,,,,,,,,,,,,,,,,,,,,,,,,,,,,,,,,,,,,,,,,,,,,,,,,,,,,,,368.9937818000326,369.3951104999287,369.37693879997823,369.4776054000249,369.87765069992747,None,right,1,0.4562706999713555,369.87765069992747,None,369.37693879997823,369.4776054000249,369.4776054000249,None,370.36164729995653,None,,,,,,,11014,001,2024_Jan_04_1020,ANT,2021.2.3,60.027792898048375,
1,16,center,down,IC,R,,,,,,Block.xlsx,"你已经完成了整个实验（三个区组）。

请报告实验者已完成实验

非常感谢，再见！",0,50,-1.5,right,LLRLL.png,,,,,0,1,1,1,1,12,36,15,,,,,,,,,,,,,,,,,,,,,,,,,,,,,,,,,,,,,,,,,,,,,,,,,,,,,,,,,,,,,,,,370.7625250000274,371.1652787999483,371.14621799997985,371.2464460999472,371.6469416000182,None,right,1,0.5589791000820696,371.6469416000182,None,371.14621799997985,371.2464460999472,371.2464460999472,None,372.23139069997706,None,,,,,,,11014,001,2024_Jan_04_1020,ANT,2021.2.3,60.027792898048375,
1,18,spatial,up,C,R,,,,,,Block.xlsx,"你已经完成了整个实验（三个区组）。

请报告实验者已完成实验

非常感谢，再见！",1.5,0,1.5,right,RRRRR.png,,,,,0,1,1,1,1,13,37,17,,,,,,,,,,,,,,,,,,,,,,,,,,,,,,,,,,,,,,,,,,,,,,,,,,,,,,,,,,,,,,,,372.63172990002204,373.032890799921,373.0161266999785,373.1162329999497,373.5184496999718,None,right,1,0.43145550007466227,373.5184496999718,None,373.0161266999785,373.1162329999497,373.1162329999497,None,373.9671109999763,None,,,,,,,11014,001,2024_Jan_04_1020,ANT,2021.2.3,60.027792898048375,
1,18,spatial,up,C,R,,,,,,Block.xlsx,"你已经完成了整个实验（三个区组）。

请报告实验者已完成实验

非常感谢，再见！",1.5,0,1.5,right,RRRRR.png,,,,,0,1,1,1,1,14,38,17,,,,,,,,,,,,,,,,,,,,,,,,,,,,,,,,,,,,,,,,,,,,,,,,,,,,,,,,,,,,,,,,374.3676365999272,374.7680509999627,374.7530526999617,374.8527652999619,375.25382570002694,None,right,1,0.31190550001338124,375.25382570002694,None,374.7530526999617,374.8527652999619,374.8527652999619,None,375.5866878000088,None,,,,,,,11014,001,2024_Jan_04_1020,ANT,2021.2.3,60.027792898048375,
1,20,spatial,up,IC,R,,,,,,Block.xlsx,"你已经完成了整个实验（三个区组）。

请报告实验者已完成实验

非常感谢，再见！",1.5,0,1.5,right,LLRLL.png,,,,,0,1,1,1,1,15,39,19,,,,,,,,,,,,,,,,,,,,,,,,,,,,,,,,,,,,,,,,,,,,,,,,,,,,,,,,,,,,,,,,375.98669489996973,376.3881650000112,376.37108069995884,376.47170529991854,376.87309589993674,None,right,1,0.5328308999305591,376.87309589993674,None,376.37108069995884,376.47170529991854,376.47170529991854,None,377.42221089999657,None,,,,,,,11014,001,2024_Jan_04_1020,ANT,2021.2.3,60.027792898048375,
1,10,center,up,C,R,,,,,,Block.xlsx,"你已经完成了整个实验（三个区组）。

请报告实验者已完成实验

非常感谢，再见！",0,50,1.5,right,RRRRR.png,,,,,0,1,1,1,1,16,40,9,,,,,,,,,,,,,,,,,,,,,,,,,,,,,,,,,,,,,,,,,,,,,,,,,,,,,,,,,,,,,,,,377.8228011999745,378.22438000002876,378.20740630000364,378.30755659996066,378.70758219994605,None,right,1,0.39431439992040396,378.70758219994605,None,378.20740630000364,378.30755659996066,378.30755659996066,None,379.1247068999801,None,,,,,,,11014,001,2024_Jan_04_1020,ANT,2021.2.3,60.027792898048375,
1,4,no,up,IC,R,,,,,,Block.xlsx,"你已经完成了整个实验（三个区组）。

请报告实验者已完成实验

非常感谢，再见！",50,0,1.5,right,LLRLL.png,,,,,0,1,1,1,1,17,41,3,,,,,,,,,,,,,,,,,,,,,,,,,,,,,,,,,,,,,,,,,,,,,,,,,,,,,,,,,,,,,,,,379.52507249999326,379.9283571999986,379.9102531999815,380.010128099937,380.41073719994165,None,right,1,0.5072469000006095,380.41073719994165,None,379.9102531999815,380.010128099937,380.010128099937,None,380.94433830003254,None,,,,,,,11014,001,2024_Jan_04_1020,ANT,2021.2.3,60.027792898048375,
1,21,spatial,down,C,L,,,,,,Block.xlsx,"你已经完成了整个实验（三个区组）。

请报告实验者已完成实验

非常感谢，再见！",-1.5,0,-1.5,left,LLLLL.png,,,,,0,1,1,1,1,18,42,20,,,,,,,,,,,,,,,,,,,,,,,,,,,,,,,,,,,,,,,,,,,,,,,,,,,,,,,,,,,,,,,,381.3454028000124,381.74587420001626,381.7303651999682,381.82946139993146,382.2307426999323,None,left,1,0.4231480999151245,382.2307426999323,None,381.7303651999682,381.82946139993146,381.82946139993146,None,382.6809304000344,None,,,,,,,11014,001,2024_Jan_04_1020,ANT,2021.2.3,60.027792898048375,
1,15,center,down,IC,L,,,,,,Block.xlsx,"你已经完成了整个实验（三个区组）。

请报告实验者已完成实验

非常感谢，再见！",0,50,-1.5,left,RRLRR.png,,,,,0,1,1,1,1,19,43,14,,,,,,,,,,,,,,,,,,,,,,,,,,,,,,,,,,,,,,,,,,,,,,,,,,,,,,,,,,,,,,,,383.0807536999928,383.48210919997655,383.46399730001576,383.5660419999622,383.96685389999766,None,right,0,0.3668877000454813,383.96685389999766,None,383.46399730001576,383.5660419999622,383.5660419999622,None,384.34906569996383,None,,,,,,,11014,001,2024_Jan_04_1020,ANT,2021.2.3,60.027792898048375,
1,9,center,up,C,L,,,,,,Block.xlsx,"你已经完成了整个实验（三个区组）。

请报告实验者已完成实验

非常感谢，再见！",0,50,1.5,left,LLLLL.png,,,,,0,1,1,1,1,20,44,8,,,,,,,,,,,,,,,,,,,,,,,,,,,,,,,,,,,,,,,,,,,,,,,,,,,,,,,,,,,,,,,,384.7497168999398,385.15137849992607,385.1336949999677,385.2361146999756,385.6344218000304,None,left,1,0.41156479995697737,385.6344218000304,None,385.1336949999677,385.2361146999756,385.2361146999756,None,386.0682971000206,None,,,,,,,11014,001,2024_Jan_04_1020,ANT,2021.2.3,60.027792898048375,
1,17,spatial,up,C,L,,,,,,Block.xlsx,"你已经完成了整个实验（三个区组）。

请报告实验者已完成实验

非常感谢，再见！",1.5,0,1.5,left,LLLLL.png,,,,,0,1,1,1,1,21,45,16,,,,,,,,,,,,,,,,,,,,,,,,,,,,,,,,,,,,,,,,,,,,,,,,,,,,,,,,,,,,,,,,386.4694698000094,386.870359399938,386.8541508000344,386.9699767000275,387.3546101999236,None,left,1,0.3315296999644488,387.3546101999236,None,386.8541508000344,386.9699767000275,386.9554089999292,None,387.7046356999781,None,,,,,,,11014,001,2024_Jan_04_1020,ANT,2021.2.3,60.027792898048375,
1,5,no,down,C,L,,,,,,Block.xlsx,"你已经完成了整个实验（三个区组）。

请报告实验者已完成实验

非常感谢，再见！",50,0,-1.5,left,LLLLL.png,,,,,0,1,1,1,1,22,46,4,,,,,,,,,,,,,,,,,,,,,,,,,,,,,,,,,,,,,,,,,,,,,,,,,,,,,,,,,,,,,,,,388.1046899999492,388.5069333999418,388.4886058999691,388.5902226000326,388.99020450003445,None,left,1,0.45638770004734397,388.99020450003445,None,388.4886058999691,388.5902226000326,388.5902226000326,None,389.47330860001966,None,,,,,,,11014,001,2024_Jan_04_1020,ANT,2021.2.3,60.027792898048375,
1,8,no,down,IC,R,,,,,,Block.xlsx,"你已经完成了整个实验（三个区组）。

请报告实验者已完成实验

非常感谢，再见！",50,0,-1.5,right,LLRLL.png,,,,,0,1,1,1,1,23,47,7,,,,,,,,,,,,,,,,,,,,,,,,,,,,,,,,,,,,,,,,,,,,,,,,,,,,,,,,,,,,,,,,389.8739671999356,390.27545700001065,390.25858309993055,390.35860749997664,390.76000739994925,None,right,1,0.5900500999996439,390.76000739994925,None,390.25858309993055,390.35860749997664,390.35860749997664,None,391.37624559993856,None,,,,,,,11014,001,2024_Jan_04_1020,ANT,2021.2.3,60.027792898048375,
1,9,center,up,C,L,,,,,,Block.xlsx,"你已经完成了整个实验（三个区组）。

请报告实验者已完成实验

非常感谢，再见！",0,50,1.5,left,LLLLL.png,,,,,0,1,1,1,2,0,48,8,,,,,,,,,,,,,,,,,,,,,,,,,,,,,,,,,,,,,,,,,,,,,,,,,,,,,,,,,,,,,,,,391.77749389992096,392.1784536000341,392.1605605999939,392.2621603999287,392.6642928000074,None,left,1,0.34953630005475134,392.6642928000074,None,392.1605605999939,392.2621603999287,392.2621603999287,None,393.0286103999242,None,,,,,,,11014,001,2024_Jan_04_1020,ANT,2021.2.3,60.027792898048375,
1,15,center,down,IC,L,,,,,,Block.xlsx,"你已经完成了整个实验（三个区组）。

请报告实验者已完成实验

非常感谢，再见！",0,50,-1.5,left,RRLRR.png,,,,,0,1,1,1,2,1,49,14,,,,,,,,,,,,,,,,,,,,,,,,,,,,,,,,,,,,,,,,,,,,,,,,,,,,,,,,,,,,,,,,393.4306389000267,393.8311750999419,393.81337260000873,393.91397490003146,394.3159306999296,None,left,1,0.6663195999572054,394.3159306999296,None,393.81337260000873,393.91397490003146,393.91397490003146,None,394.99839710001834,None,,,,,,,11014,001,2024_Jan_04_1020,ANT,2021.2.3,60.027792898048375,
1,10,center,up,C,R,,,,,,Block.xlsx,"你已经完成了整个实验（三个区组）。

请报告实验者已完成实验

非常感谢，再见！",0,50,1.5,right,RRRRR.png,,,,,0,1,1,1,2,2,50,9,,,,,,,,,,,,,,,,,,,,,,,,,,,,,,,,,,,,,,,,,,,,,,,,,,,,,,,,,,,,,,,,395.3992149999831,395.8012501000194,395.7831217999337,395.8838920999551,396.2834592999425,None,right,1,0.3629953999770805,396.2834592999425,None,395.7831217999337,395.8838920999551,395.8838920999551,None,396.667390699964,None,,,,,,,11014,001,2024_Jan_04_1020,ANT,2021.2.3,60.027792898048375,
1,3,no,up,IC,L,,,,,,Block.xlsx,"你已经完成了整个实验（三个区组）。

请报告实验者已完成实验

非常感谢，再见！",50,0,1.5,left,RRLRR.png,,,,,0,1,1,1,2,3,51,2,,,,,,,,,,,,,,,,,,,,,,,,,,,,,,,,,,,,,,,,,,,,,,,,,,,,,,,,,,,,,,,,397.0680134999566,397.46915609994903,397.4528775999788,397.5520396999782,397.95329750003293,None,left,1,0.6364782999735326,397.95329750003293,None,397.4528775999788,397.5520396999782,397.5520396999782,None,398.6204635000322,None,,,,,,,11014,001,2024_Jan_04_1020,ANT,2021.2.3,60.027792898048375,
1,3,no,up,IC,L,,,,,,Block.xlsx,"你已经完成了整个实验（三个区组）。

请报告实验者已完成实验

非常感谢，再见！",50,0,1.5,left,RRLRR.png,,,,,0,1,1,1,2,4,52,2,,,,,,,,,,,,,,,,,,,,,,,,,,,,,,,,,,,,,,,,,,,,,,,,,,,,,,,,,,,,,,,,399.0207820999203,399.4215218999889,399.40464239998255,399.50532320002094,399.9067006999394,None,left,1,0.7473086999962106,399.9067006999394,None,399.40464239998255,399.50532320002094,399.50532320002094,None,400.67334470001515,None,,,,,,,11014,001,2024_Jan_04_1020,ANT,2021.2.3,60.027792898048375,
1,24,spatial,down,IC,R,,,,,,Block.xlsx,"你已经完成了整个实验（三个区组）。

请报告实验者已完成实验

非常感谢，再见！",-1.5,0,-1.5,right,LLRLL.png,,,,,0,1,1,1,2,5,53,23,,,,,,,,,,,,,,,,,,,,,,,,,,,,,,,,,,,,,,,,,,,,,,,,,,,,,,,,,,,,,,,,401.0738117999863,401.4763756999746,401.45864889991935,401.55787200003397,401.9588174999226,None,right,1,0.5430695000104606,401.9588174999226,None,401.45864889991935,401.55787200003397,401.55787200003397,None,402.5259150000056,None,,,,,,,11014,001,2024_Jan_04_1020,ANT,2021.2.3,60.027792898048375,
1,20,spatial,up,IC,R,,,,,,Block.xlsx,"你已经完成了整个实验（三个区组）。

请报告实验者已完成实验

非常感谢，再见！",1.5,0,1.5,right,LLRLL.png,,,,,0,1,1,1,2,6,54,19,,,,,,,,,,,,,,,,,,,,,,,,,,,,,,,,,,,,,,,,,,,,,,,,,,,,,,,,,,,,,,,,402.92689569992945,403.32902289996855,403.31061709998176,403.4111175999278,403.8113007999491,None,right,1,0.5865247999317944,403.8113007999491,None,403.31061709998176,403.4111175999278,403.4111175999278,None,404.4296802999452,None,,,,,,,11014,001,2024_Jan_04_1020,ANT,2021.2.3,60.027792898048375,
1,7,no,down,IC,L,,,,,,Block.xlsx,"你已经完成了整个实验（三个区组）。

请报告实验者已完成实验

非常感谢，再见！",50,0,-1.5,left,RRLRR.png,,,,,0,1,1,1,2,7,55,6,,,,,,,,,,,,,,,,,,,,,,,,,,,,,,,,,,,,,,,,,,,,,,,,,,,,,,,,,,,,,,,,404.83027749997564,405.2316800999688,405.21337579993997,405.31515329994727,405.71482210000977,None,left,1,0.611190399969928,405.71482210000977,None,405.21337579993997,405.31515329994727,405.31515329994727,None,406.3488744000206,None,,,,,,,11014,001,2024_Jan_04_1020,ANT,2021.2.3,60.027792898048375,
1,13,center,down,C,L,,,,,,Block.xlsx,"你已经完成了整个实验（三个区组）。

请报告实验者已完成实验

非常感谢，再见！",0,50,-1.5,left,LLLLL.png,,,,,0,1,1,1,2,8,56,12,,,,,,,,,,,,,,,,,,,,,,,,,,,,,,,,,,,,,,,,,,,,,,,,,,,,,,,,,,,,,,,,406.7494825000176,407.1498966999352,407.13349199993536,407.23544339998625,407.63490830000956,None,left,1,0.4749153000302613,407.63490830000956,None,407.13349199993536,407.23544339998625,407.23544339998625,None,408.13561769993976,None,,,,,,,11014,001,2024_Jan_04_1020,ANT,2021.2.3,60.027792898048375,
1,4,no,up,IC,R,,,,,,Block.xlsx,"你已经完成了整个实验（三个区组）。

请报告实验者已完成实验

非常感谢，再见！",50,0,1.5,right,LLRLL.png,,,,,0,1,1,1,2,9,57,3,,,,,,,,,,,,,,,,,,,,,,,,,,,,,,,,,,,,,,,,,,,,,,,,,,,,,,,,,,,,,,,,408.5348779000342,408.93612349999603,408.9201275999658,409.03556079999544,409.41996620001737,None,right,1,0.5620797000592574,409.41996620001737,None,408.9201275999658,409.03556079999544,409.0199538000161,None,410.003936199937,None,,,,,,,11014,001,2024_Jan_04_1020,ANT,2021.2.3,60.027792898048375,
1,22,spatial,down,C,R,,,,,,Block.xlsx,"你已经完成了整个实验（三个区组）。

请报告实验者已完成实验

非常感谢，再见！",-1.5,0,-1.5,right,RRRRR.png,,,,,0,1,1,1,2,10,58,21,,,,,,,,,,,,,,,,,,,,,,,,,,,,,,,,,,,,,,,,,,,,,,,,,,,,,,,,,,,,,,,,410.4044853999512,410.8057742000092,410.7882647999795,410.88922959996853,411.2891256000148,None,right,1,0.4207095999736339,411.2891256000148,None,410.7882647999795,410.88922959996853,410.88922959996853,None,411.7396392999217,None,,,,,,,11014,001,2024_Jan_04_1020,ANT,2021.2.3,60.027792898048375,
1,7,no,down,IC,L,,,,,,Block.xlsx,"你已经完成了整个实验（三个区组）。

请报告实验者已完成实验

非常感谢，再见！",50,0,-1.5,left,RRLRR.png,,,,,0,1,1,1,2,11,59,6,,,,,,,,,,,,,,,,,,,,,,,,,,,,,,,,,,,,,,,,,,,,,,,,,,,,,,,,,,,,,,,,412.14091800001916,412.5425325999968,412.52505910000764,412.6244276999496,413.025557499961,None,left,1,0.6202824999345466,413.025557499961,None,412.52505910000764,412.6244276999496,412.6244276999496,None,413.6758850000333,None,,,,,,,11014,001,2024_Jan_04_1020,ANT,2021.2.3,60.027792898048375,
1,17,spatial,up,C,L,,,,,,Block.xlsx,"你已经完成了整个实验（三个区组）。

请报告实验者已完成实验

非常感谢，再见！",1.5,0,1.5,left,LLLLL.png,,,,,0,1,1,1,2,12,60,16,,,,,,,,,,,,,,,,,,,,,,,,,,,,,,,,,,,,,,,,,,,,,,,,,,,,,,,,,,,,,,,,414.07712379994337,414.47795919992495,414.46060669992585,414.5614826999372,414.9616802999517,None,left,1,0.3804259999888018,414.9616802999517,None,414.46060669992585,414.5614826999372,414.5614826999372,None,415.36198149994016,None,,,,,,,11014,001,2024_Jan_04_1020,ANT,2021.2.3,60.027792898048375,
1,6,no,down,C,R,,,,,,Block.xlsx,"你已经完成了整个实验（三个区组）。

请报告实验者已完成实验

非常感谢，再见！",50,0,-1.5,right,RRRRR.png,,,,,0,1,1,1,2,13,61,5,,,,,,,,,,,,,,,,,,,,,,,,,,,,,,,,,,,,,,,,,,,,,,,,,,,,,,,,,,,,,,,,415.76281899993774,416.16391390003264,416.14629379997496,416.2481792999897,416.64903580001555,None,right,1,0.4131469000130892,416.64903580001555,None,416.14629379997496,416.2481792999897,416.2481792999897,None,417.08108099992387,None,,,,,,,11014,001,2024_Jan_04_1020,ANT,2021.2.3,60.027792898048375,
1,2,no,up,C,R,,,,,,Block.xlsx,"你已经完成了整个实验（三个区组）。

请报告实验者已完成实验

非常感谢，再见！",50,0,1.5,right,RRRRR.png,,,,,0,1,1,1,2,14,62,1,,,,,,,,,,,,,,,,,,,,,,,,,,,,,,,,,,,,,,,,,,,,,,,,,,,,,,,,,,,,,,,,417.4822535000276,417.8843442000216,417.8658513999544,417.9680273999693,418.3668286999455,None,right,1,0.44749639998190105,418.3668286999455,None,417.8658513999544,417.9680273999693,417.9680273999693,None,418.83359329996165,None,,,,,,,11014,001,2024_Jan_04_1020,ANT,2021.2.3,60.027792898048375,
1,19,spatial,up,IC,L,,,,,,Block.xlsx,"你已经完成了整个实验（三个区组）。

请报告实验者已完成实验

非常感谢，再见！",1.5,0,1.5,left,RRLRR.png,,,,,0,1,1,1,2,15,63,18,,,,,,,,,,,,,,,,,,,,,,,,,,,,,,,,,,,,,,,,,,,,,,,,,,,,,,,,,,,,,,,,419.2341534999432,419.6347490999615,419.6198911999818,419.7194384000031,420.11897599999793,None,left,1,0.5516242999583483,420.11897599999793,None,419.6198911999818,419.7194384000031,419.7194384000031,None,420.6864838999463,None,,,,,,,11014,001,2024_Jan_04_1020,ANT,2021.2.3,60.027792898048375,
1,11,center,up,IC,L,,,,,,Block.xlsx,"你已经完成了整个实验（三个区组）。

请报告实验者已完成实验

非常感谢，再见！",0,50,1.5,left,RRLRR.png,,,,,0,1,1,1,2,16,64,10,,,,,,,,,,,,,,,,,,,,,,,,,,,,,,,,,,,,,,,,,,,,,,,,,,,,,,,,,,,,,,,,421.08697950001806,421.48761309997644,421.47189079993404,421.5716326999245,421.9726029000012,None,left,1,0.5772150000557303,421.9726029000012,None,421.47189079993404,421.5716326999245,421.5716326999245,None,422.57244399993215,None,,,,,,,11014,001,2024_Jan_04_1020,ANT,2021.2.3,60.027792898048375,
1,20,spatial,up,IC,R,,,,,,Block.xlsx,"你已经完成了整个实验（三个区组）。

请报告实验者已完成实验

非常感谢，再见！",1.5,0,1.5,right,LLRLL.png,,,,,0,1,1,1,2,17,65,19,,,,,,,,,,,,,,,,,,,,,,,,,,,,,,,,,,,,,,,,,,,,,,,,,,,,,,,,,,,,,,,,422.97305020003114,423.3758320999332,423.3576045000227,423.45761269994546,423.8582610000158,None,right,1,0.475735199986957,423.8582610000158,None,423.3576045000227,423.45761269994546,423.45761269994546,None,424.3586851999862,None,,,,,,,11014,001,2024_Jan_04_1020,ANT,2021.2.3,60.027792898048375,
1,12,center,up,IC,R,,,,,,Block.xlsx,"你已经完成了整个实验（三个区组）。

请报告实验者已完成实验

非常感谢，再见！",0,50,1.5,right,LLRLL.png,,,,,0,1,1,1,2,18,66,11,,,,,,,,,,,,,,,,,,,,,,,,,,,,,,,,,,,,,,,,,,,,,,,,,,,,,,,,,,,,,,,,424.7591454000212,425.1606972999871,425.1446479000151,425.24353019997943,425.64356629992835,None,right,1,0.5545158999739215,425.64356629992835,None,425.1446479000151,425.24353019997943,425.24353019997943,None,426.22815249999985,None,,,,,,,11014,001,2024_Jan_04_1020,ANT,2021.2.3,60.027792898048375,
1,15,center,down,IC,L,,,,,,Block.xlsx,"你已经完成了整个实验（三个区组）。

请报告实验者已完成实验

非常感谢，再见！",0,50,-1.5,left,RRLRR.png,,,,,0,1,1,1,2,19,67,14,,,,,,,,,,,,,,,,,,,,,,,,,,,,,,,,,,,,,,,,,,,,,,,,,,,,,,,,,,,,,,,,426.6296715999488,427.0288399999263,427.0129884999478,427.11516279994976,427.51427269994747,None,left,1,0.5236139999469742,427.51427269994747,None,427.0129884999478,427.11516279994976,427.11516279994976,None,428.0644773999229,None,,,,,,,11014,001,2024_Jan_04_1020,ANT,2021.2.3,60.027792898048375,
1,14,center,down,C,R,,,,,,Block.xlsx,"你已经完成了整个实验（三个区组）。

请报告实验者已完成实验

非常感谢，再见！",0,50,-1.5,right,RRRRR.png,,,,,0,1,1,1,2,20,68,13,,,,,,,,,,,,,,,,,,,,,,,,,,,,,,,,,,,,,,,,,,,,,,,,,,,,,,,,,,,,,,,,428.4645533999428,428.8653229000047,428.8499081999762,428.96601700002793,429.34929279994685,None,right,1,0.4006881999084726,429.34929279994685,None,428.8499081999762,428.96601700002793,428.950075599947,None,429.7678013999248,None,,,,,,,11014,001,2024_Jan_04_1020,ANT,2021.2.3,60.027792898048375,
1,1,no,up,C,L,,,,,,Block.xlsx,"你已经完成了整个实验（三个区组）。

请报告实验者已完成实验

非常感谢，再见！",50,0,1.5,left,LLLLL.png,,,,,0,1,1,1,2,21,69,0,,,,,,,,,,,,,,,,,,,,,,,,,,,,,,,,,,,,,,,,,,,,,,,,,,,,,,,,,,,,,,,,430.1675914999796,430.56793729995843,430.55187349999323,430.65112990001217,431.0534995999187,None,left,1,0.38450789998751134,431.0534995999187,None,430.55187349999323,430.65112990001217,430.65112990001217,None,431.45218110003043,None,,,,,,,11014,001,2024_Jan_04_1020,ANT,2021.2.3,60.027792898048375,
1,23,spatial,down,IC,L,,,,,,Block.xlsx,"你已经完成了整个实验（三个区组）。

请报告实验者已完成实验

非常感谢，再见！",-1.5,0,-1.5,left,RRLRR.png,,,,,0,1,1,1,2,22,70,22,,,,,,,,,,,,,,,,,,,,,,,,,,,,,,,,,,,,,,,,,,,,,,,,,,,,,,,,,,,,,,,,431.85293279995676,432.25512939994223,432.2374294999754,432.3368876000168,432.7384255999932,None,left,1,0.49172350007575005,432.7384255999932,None,432.2374294999754,432.3368876000168,432.3368876000168,None,433.2562163999537,None,,,,,,,11014,001,2024_Jan_04_1020,ANT,2021.2.3,60.027792898048375,
1,3,no,up,IC,L,,,,,,Block.xlsx,"你已经完成了整个实验（三个区组）。

请报告实验者已完成实验

非常感谢，再见！",50,0,1.5,left,RRLRR.png,,,,,0,1,1,1,2,23,71,2,,,,,,,,,,,,,,,,,,,,,,,,,,,,,,,,,,,,,,,,,,,,,,,,,,,,,,,,,,,,,,,,433.655414299923,434.05838509998284,434.03952290001325,434.14038320002146,434.54217719996814,None,left,1,0.49577159993350506,434.54217719996814,None,434.03952290001325,434.14038320002146,434.14038320002146,None,435.0579136000015,None,,,,,,,11014,001,2024_Jan_04_1020,ANT,2021.2.3,60.027792898048375,
1,21,spatial,down,C,L,,,,,,Block.xlsx,"你已经完成了整个实验（三个区组）。

请报告实验者已完成实验

非常感谢，再见！",-1.5,0,-1.5,left,LLLLL.png,,,,,0,1,1,1,3,0,72,20,,,,,,,,,,,,,,,,,,,,,,,,,,,,,,,,,,,,,,,,,,,,,,,,,,,,,,,,,,,,,,,,435.45871749997605,435.8606978999451,435.8420767999487,435.94319259992335,436.34376700001303,None,left,1,0.3260219000512734,436.34376700001303,None,435.8420767999487,435.94319259992335,435.94319259992335,None,436.69339669996407,None,,,,,,,11014,001,2024_Jan_04_1020,ANT,2021.2.3,60.027792898048375,
1,7,no,down,IC,L,,,,,,Block.xlsx,"你已经完成了整个实验（三个区组）。

请报告实验者已完成实验

非常感谢，再见！",50,0,-1.5,left,RRLRR.png,,,,,0,1,1,1,3,1,73,6,,,,,,,,,,,,,,,,,,,,,,,,,,,,,,,,,,,,,,,,,,,,,,,,,,,,,,,,,,,,,,,,437.09390380000696,437.4948582999641,437.47849939996377,437.5787102000322,437.97907899995334,None,left,1,0.578760499949567,437.97907899995334,None,437.47849939996377,437.5787102000322,437.5787102000322,None,438.57943349995185,None,,,,,,,11014,001,2024_Jan_04_1020,ANT,2021.2.3,60.027792898048375,
1,6,no,down,C,R,,,,,,Block.xlsx,"你已经完成了整个实验（三个区组）。

请报告实验者已完成实验

非常感谢，再见！",50,0,-1.5,right,RRRRR.png,,,,,0,1,1,1,3,2,74,5,,,,,,,,,,,,,,,,,,,,,,,,,,,,,,,,,,,,,,,,,,,,,,,,,,,,,,,,,,,,,,,,438.9801395999966,439.3811097999569,439.3657598999562,439.4648010999663,439.86566170002334,None,right,1,0.4684080999577418,439.86566170002334,None,439.3657598999562,439.4648010999663,439.4648010999663,None,440.34888459998183,None,,,,,,,11014,001,2024_Jan_04_1020,ANT,2021.2.3,60.027792898048375,
1,4,no,up,IC,R,,,,,,Block.xlsx,"你已经完成了整个实验（三个区组）。

请报告实验者已完成实验

非常感谢，再见！",50,0,1.5,right,LLRLL.png,,,,,0,1,1,1,3,3,75,3,,,,,,,,,,,,,,,,,,,,,,,,,,,,,,,,,,,,,,,,,,,,,,,,,,,,,,,,,,,,,,,,440.7493945999304,441.15066189994104,441.1331986000296,441.23388149996754,441.63476519996766,None,right,1,0.6430599000304937,441.63476519996766,None,441.1331986000296,441.23388149996754,441.23388149996754,None,442.3016367999371,None,,,,,,,11014,001,2024_Jan_04_1020,ANT,2021.2.3,60.027792898048375,
1,5,no,down,C,L,,,,,,Block.xlsx,"你已经完成了整个实验（三个区组）。

请报告实验者已完成实验

非常感谢，再见！",50,0,-1.5,left,LLLLL.png,,,,,0,1,1,1,3,4,76,4,,,,,,,,,,,,,,,,,,,,,,,,,,,,,,,,,,,,,,,,,,,,,,,,,,,,,,,,,,,,,,,,442.7034442999866,443.1034674999537,443.08687889995053,443.1872047999641,443.5887611999642,None,left,1,0.513997699948959,443.5887611999642,None,443.08687889995053,443.1872047999641,443.1872047999641,None,444.1209751999704,None,,,,,,,11014,001,2024_Jan_04_1020,ANT,2021.2.3,60.027792898048375,
1,1,no,up,C,L,,,,,,Block.xlsx,"你已经完成了整个实验（三个区组）。

请报告实验者已完成实验

非常感谢，再见！",50,0,1.5,left,LLLLL.png,,,,,0,1,1,1,3,5,77,0,,,,,,,,,,,,,,,,,,,,,,,,,,,,,,,,,,,,,,,,,,,,,,,,,,,,,,,,,,,,,,,,444.52166460000444,444.92412039998453,444.90595879999455,445.0080988999689,445.4062320999801,None,left,1,0.5116859000409022,445.4062320999801,None,444.90595879999455,445.0080988999689,445.0080988999689,None,445.9402755999472,None,,,,,,,11014,001,2024_Jan_04_1020,ANT,2021.2.3,60.027792898048375,
1,18,spatial,up,C,R,,,,,,Block.xlsx,"你已经完成了整个实验（三个区组）。

请报告实验者已完成实验

非常感谢，再见！",1.5,0,1.5,right,RRRRR.png,,,,,0,1,1,1,3,6,78,17,,,,,,,,,,,,,,,,,,,,,,,,,,,,,,,,,,,,,,,,,,,,,,,,,,,,,,,,,,,,,,,,446.3410193999298,446.7421229999745,446.7264640999492,446.8423988999566,447.2264216999756,None,right,1,0.3634675999637693,447.2264216999756,None,446.7264640999492,446.8423988999566,446.82644959993195,None,447.6095420999918,None,,,,,,,11014,001,2024_Jan_04_1020,ANT,2021.2.3,60.027792898048375,
1,9,center,up,C,L,,,,,,Block.xlsx,"你已经完成了整个实验（三个区组）。

请报告实验者已完成实验

非常感谢，再见！",0,50,1.5,left,LLLLL.png,,,,,0,1,1,1,3,7,79,8,,,,,,,,,,,,,,,,,,,,,,,,,,,,,,,,,,,,,,,,,,,,,,,,,,,,,,,,,,,,,,,,448.01009979995433,448.4117289999267,448.3942307999823,448.49418259994127,448.8948484000284,None,left,1,0.3832569000078365,448.8948484000284,None,448.3942307999823,448.49418259994127,448.49418259994127,None,449.29533420002554,None,,,,,,,11014,001,2024_Jan_04_1020,ANT,2021.2.3,60.027792898048375,
1,9,center,up,C,L,,,,,,Block.xlsx,"你已经完成了整个实验（三个区组）。

请报告实验者已完成实验

非常感谢，再见！",0,50,1.5,left,LLLLL.png,,,,,0,1,1,1,3,8,80,8,,,,,,,,,,,,,,,,,,,,,,,,,,,,,,,,,,,,,,,,,,,,,,,,,,,,,,,,,,,,,,,,449.69590849999804,450.0977969999658,450.07976490003057,450.1812289999798,450.5820124000311,None,left,1,0.43984430003911257,450.5820124000311,None,450.07976490003057,450.1812289999798,450.1812289999798,None,451.0479174000211,None,,,,,,,11014,001,2024_Jan_04_1020,ANT,2021.2.3,60.027792898048375,
1,16,center,down,IC,R,,,,,,Block.xlsx,"你已经完成了整个实验（三个区组）。

请报告实验者已完成实验

非常感谢，再见！",0,50,-1.5,right,LLRLL.png,,,,,0,1,1,1,3,9,81,15,,,,,,,,,,,,,,,,,,,,,,,,,,,,,,,,,,,,,,,,,,,,,,,,,,,,,,,,,,,,,,,,451.44879900000524,451.84989640000276,451.832470000023,451.93343420000747,452.33373019995634,None,right,1,0.57611599995289,452.33373019995634,None,451.832470000023,451.93343420000747,451.93343420000747,None,452.9340791000286,None,,,,,,,11014,001,2024_Jan_04_1020,ANT,2021.2.3,60.027792898048375,
1,11,center,up,IC,L,,,,,,Block.xlsx,"你已经完成了整个实验（三个区组）。

请报告实验者已完成实验

非常感谢，再见！",0,50,1.5,left,RRLRR.png,,,,,0,1,1,1,3,10,82,10,,,,,,,,,,,,,,,,,,,,,,,,,,,,,,,,,,,,,,,,,,,,,,,,,,,,,,,,,,,,,,,,453.3346534000011,453.73602449998725,453.71934910002165,453.819092300022,454.22004889999516,None,left,1,0.4978881999850273,454.22004889999516,None,453.71934910002165,453.819092300022,453.819092300022,None,454.73670729994774,None,,,,,,,11014,001,2024_Jan_04_1020,ANT,2021.2.3,60.027792898048375,
1,19,spatial,up,IC,L,,,,,,Block.xlsx,"你已经完成了整个实验（三个区组）。

请报告实验者已完成实验

非常感谢，再见！",1.5,0,1.5,left,RRLRR.png,,,,,0,1,1,1,3,11,83,18,,,,,,,,,,,,,,,,,,,,,,,,,,,,,,,,,,,,,,,,,,,,,,,,,,,,,,,,,,,,,,,,455.13746320002247,455.5384096999187,455.52312999998685,455.622806499945,456.02349299995694,None,left,1,0.43827539996709675,456.02349299995694,None,455.52312999998685,455.622806499945,455.622806499945,None,456.4894633999793,None,,,,,,,11014,001,2024_Jan_04_1020,ANT,2021.2.3,60.027792898048375,
1,17,spatial,up,C,L,,,,,,Block.xlsx,"你已经完成了整个实验（三个区组）。

请报告实验者已完成实验

非常感谢，再见！",1.5,0,1.5,left,LLLLL.png,,,,,0,1,1,1,3,12,84,16,,,,,,,,,,,,,,,,,,,,,,,,,,,,,,,,,,,,,,,,,,,,,,,,,,,,,,,,,,,,,,,,456.8899659999879,457.29221520002466,457.27409690001514,457.374595799949,457.7748228999553,None,left,1,0.47108920000027865,457.7748228999553,None,457.27409690001514,457.374595799949,457.374595799949,None,458.27519900002517,None,,,,,,,11014,001,2024_Jan_04_1020,ANT,2021.2.3,60.027792898048375,
1,3,no,up,IC,L,,,,,,Block.xlsx,"你已经完成了整个实验（三个区组）。

请报告实验者已完成实验

非常感谢，再见！",50,0,1.5,left,RRLRR.png,,,,,0,1,1,1,3,13,85,2,,,,,,,,,,,,,,,,,,,,,,,,,,,,,,,,,,,,,,,,,,,,,,,,,,,,,,,,,,,,,,,,458.67600159998983,459.0770695999963,459.06067219993565,459.1618246999569,459.56211910001,None,left,1,0.6041120999725536,459.56211910001,None,459.06067219993565,459.1618246999569,459.1618246999569,None,460.1948901999276,None,,,,,,,11014,001,2024_Jan_04_1020,ANT,2021.2.3,60.027792898048375,
1,12,center,up,IC,R,,,,,,Block.xlsx,"你已经完成了整个实验（三个区组）。

请报告实验者已完成实验

非常感谢，再见！",0,50,1.5,right,LLRLL.png,,,,,0,1,1,1,3,14,86,11,,,,,,,,,,,,,,,,,,,,,,,,,,,,,,,,,,,,,,,,,,,,,,,,,,,,,,,,,,,,,,,,460.5960023999214,460.99679140001535,460.9801167999394,461.0800517000025,461.48059489997104,None,right,1,0.5894896000390872,461.48059489997104,None,460.9801167999394,461.0800517000025,461.0800517000025,None,462.09841650002636,None,,,,,,,11014,001,2024_Jan_04_1020,ANT,2021.2.3,60.027792898048375,
1,5,no,down,C,L,,,,,,Block.xlsx,"你已经完成了整个实验（三个区组）。

请报告实验者已完成实验

非常感谢，再见！",50,0,-1.5,left,LLLLL.png,,,,,0,1,1,1,3,15,87,4,,,,,,,,,,,,,,,,,,,,,,,,,,,,,,,,,,,,,,,,,,,,,,,,,,,,,,,,,,,,,,,,462.4982143000234,462.8988641999895,462.88285349996295,462.9837942000013,463.3843466999242,None,left,1,0.5100750999990851,463.3843466999242,None,462.88285349996295,462.9837942000013,462.9837942000013,None,463.91713419998996,None,,,,,,,11014,001,2024_Jan_04_1020,ANT,2021.2.3,60.027792898048375,
1,10,center,up,C,R,,,,,,Block.xlsx,"你已经完成了整个实验（三个区组）。

请报告实验者已完成实验

非常感谢，再见！",0,50,1.5,right,RRRRR.png,,,,,0,1,1,1,3,16,88,9,,,,,,,,,,,,,,,,,,,,,,,,,,,,,,,,,,,,,,,,,,,,,,,,,,,,,,,,,,,,,,,,464.3188791000284,464.7189255999401,464.70212729997,464.80230320000555,465.2021880999673,None,right,1,0.4682625000132248,465.2021880999673,None,464.70212729997,464.80230320000555,464.80230320000555,None,465.68634749995545,None,,,,,,,11014,001,2024_Jan_04_1020,ANT,2021.2.3,60.027792898048375,
1,23,spatial,down,IC,L,,,,,,Block.xlsx,"你已经完成了整个实验（三个区组）。

请报告实验者已完成实验

非常感谢，再见！",-1.5,0,-1.5,left,RRLRR.png,,,,,0,1,1,1,3,17,89,22,,,,,,,,,,,,,,,,,,,,,,,,,,,,,,,,,,,,,,,,,,,,,,,,,,,,,,,,,,,,,,,,466.0875860999804,466.48836439999286,466.4717721999623,466.5728316999739,466.9723153000232,None,left,1,0.4656514000380412,466.9723153000232,None,466.4717721999623,466.5728316999739,466.5728316999739,None,467.45545619993936,None,,,,,,,11014,001,2024_Jan_04_1020,ANT,2021.2.3,60.027792898048375,
1,19,spatial,up,IC,L,,,,,,Block.xlsx,"你已经完成了整个实验（三个区组）。

请报告实验者已完成实验

非常感谢，再见！",1.5,0,1.5,left,RRLRR.png,,,,,0,1,1,1,3,18,90,18,,,,,,,,,,,,,,,,,,,,,,,,,,,,,,,,,,,,,,,,,,,,,,,,,,,,,,,,,,,,,,,,467.85679789993446,468.2574314000085,468.24026170000434,468.3408797000302,468.7410905000288,None,left,1,0.536797699984163,468.7410905000288,None,468.24026170000434,468.3408797000302,468.3408797000302,None,469.30836719996296,None,,,,,,,11014,001,2024_Jan_04_1020,ANT,2021.2.3,60.027792898048375,
1,10,center,up,C,R,,,,,,Block.xlsx,"你已经完成了整个实验（三个区组）。

请报告实验者已完成实验

非常感谢，再见！",0,50,1.5,right,RRRRR.png,,,,,0,1,1,1,3,19,91,9,,,,,,,,,,,,,,,,,,,,,,,,,,,,,,,,,,,,,,,,,,,,,,,,,,,,,,,,,,,,,,,,469.70902309997473,470.11042189993896,470.0937173999846,470.1935817999765,470.5953335999511,None,right,1,0.47470309992786497,470.5953335999511,None,470.0937173999846,470.1935817999765,470.1935817999765,None,471.094266399974,None,,,,,,,11014,001,2024_Jan_04_1020,ANT,2021.2.3,60.027792898048375,
1,13,center,down,C,L,,,,,,Block.xlsx,"你已经完成了整个实验（三个区组）。

请报告实验者已完成实验

