TrialType,TrialNumber,WarningType,TargetType,FlankerType,TargetDirection,W,f,Y,corr,imageFile,condition,endtext,Yw,Yf,Yt,Corr,imagefile,trials_3.thisRepN,trials_3.thisTrialN,trials_3.thisN,trials_3.thisIndex,trials_2.thisRepN,trials_2.thisTrialN,trials_2.thisN,trials_2.thisIndex,trials.thisRepN,trials.thisTrialN,trials.thisN,trials.thisIndex,instr.started,instr.stopped,key_resp.keys,key_resp.rt,key_resp.started,key_resp.stopped,image.started,image.stopped,key_resp_6.keys,key_resp_6.rt,key_resp_6.started,key_resp_6.stopped,EX_L.started,EX_L.stopped,AL.started,AL.stopped,key_resp_7.keys,key_resp_7.rt,key_resp_7.started,key_resp_7.stopped,EX_R.started,EX_R.stopped,RR.started,RR.stopped,key_resp_8.keys,key_resp_8.rt,key_resp_8.started,key_resp_8.stopped,image_2.started,image_2.stopped,key_resp_9.keys,key_resp_9.rt,key_resp_9.started,key_resp_9.stopped,image_3.started,image_3.stopped,key_resp_10.keys,key_resp_10.rt,key_resp_10.started,key_resp_10.stopped,fix.started,fix.stopped,war.started,war.stopped,tar.started,tar.stopped,key_resp_4.keys,key_resp_4.corr,key_resp_4.rt,key_resp_4.started,key_resp_4.stopped,fix2.started,fix2.stopped,fix_2.started,fix_2.stopped,Feedback.started,Feedback.stopped,key_resp_2.keys,key_resp_2.rt,key_resp_2.started,key_resp_2.stopped,text_5.started,text_5.stopped,fix2_1.started,fix2_1.stopped,Warn.started,Warn.stopped,Tar.started,Tar.stopped,key_resp_5.keys,key_resp_5.corr,key_resp_5.rt,key_resp_5.started,key_resp_5.stopped,Fix_2.started,Fix_2.stopped,fix2_2.started,fix2_2.stopped,text_4.started,text_4.stopped,key_resp_3.keys,key_resp_3.rt,key_resp_3.started,key_resp_3.stopped,text_3.started,text_3.stopped,participant,session,date,expName,psychopyVersion,frameRate,
,,,,,,,,,,,,,,,,,,,,,,,,,,,,,,14.068036300013773,None,space,4.303893700009212,14.068036300013773,None,,,,,,,,,,,,,,,,,,,,,,,,,,,,,,,,,,,,,,,,,,,,,,,,,,,,,,,,,,,,,,,,,,,,,,,,,,,,,,,,,11016,001,2024_Jan_04_1345,ANT,2021.2.3,59.938922219761615,
,,,,,,,,,,,,,,,,,,,,,,,,,,,,,,,,,,,,18.390761099988595,None,space,20.620363099966198,18.390761099988595,None,,,,,,,,,,,,,,,,,,,,,,,,,,,,,,,,,,,,,,,,,,,,,,,,,,,,,,,,,,,,,,,,,,,,,,,,,,,11016,001,2024_Jan_04_1345,ANT,2021.2.3,59.938922219761615,
,,,,,,,,,,,,,,,,,,,,,,,,,,,,,,,,,,,,,,,,,,39.038001199951395,None,39.038001199951395,None,left,1.1572918000165373,39.038001199951395,None,,,,,,,,,,,,,,,,,,,,,,,,,,,,,,,,,,,,,,,,,,,,,,,,,,,,,,,,,,,,,,,,,,,11016,001,2024_Jan_04_1345,ANT,2021.2.3,59.938922219761615,
,,,,,,,,,,,,,,,,,,,,,,,,,,,,,,,,,,,,,,,,,,,,,,,,,,40.22308459994383,None,40.22308459994383,None,right,0.6039262000704184,40.22308459994383,None,,,,,,,,,,,,,,,,,,,,,,,,,,,,,,,,,,,,,,,,,,,,,,,,,,,,,,,,,,,11016,001,2024_Jan_04_1345,ANT,2021.2.3,59.938922219761615,
,,,,,,,,,,,,,,,,,,,,,,,,,,,,,,,,,,,,,,,,,,,,,,,,,,,,,,,,,,40.85727969999425,None,space,44.2179283000296,40.85727969999425,None,,,,,,,,,,,,,,,,,,,,,,,,,,,,,,,,,,,,,,,,,,,,,,,,,,,,,11016,001,2024_Jan_04_1345,ANT,2021.2.3,59.938922219761615,
,,,,,,,,,,,,,,,,,,,,,,,,,,,,,,,,,,,,,,,,,,,,,,,,,,,,,,,,,,,,,,,,85.10619469999801,None,space,9.4978148000082,85.10619469999801,None,,,,,,,,,,,,,,,,,,,,,,,,,,,,,,,,,,,,,,,,,,,,,,,11016,001,2024_Jan_04_1345,ANT,2021.2.3,59.938922219761615,
0,9,spatial,up,C,R,1.5,0,1.5,right,RRRRR.png,,,,,,,,0,0,0,8,,,,,,,,,,,,,,,,,,,,,,,,,,,,,,,,,,,,,,,,,,,,,,,,,94.686918899999,95.08767539996188,95.07243059994653,95.17183399992064,95.57256429991685,None,right,1,0.5511572000104934,95.57256429991685,None,95.07243059994653,95.17183399992064,95.17183399992064,None,96.1562147999648,None,,,,,,,,,,,,,,,,,,,,,,,,,,,,,,11016,001,2024_Jan_04_1345,ANT,2021.2.3,59.938922219761615,
0,10,spatial,up,IC,L,1.5,0,1.5,left,RRLRR.png,,,,,,,,0,1,1,9,,,,,,,,,,,,,,,,,,,,,,,,,,,,,,,,,,,,,,,,,,,,,,,,,98.15884109993931,98.56104389997199,98.54360709991306,98.64359220000915,99.04439159994945,None,left,1,0.6311139999888837,99.04439159994945,None,98.54360709991306,98.64359220000915,98.64359220000915,None,99.6944327999372,None,,,,,,,,,,,,,,,,,,,,,,,,,,,,,,11016,001,2024_Jan_04_1345,ANT,2021.2.3,59.938922219761615,
0,2,no,up,IC,R,50,0,1.5,right,LLRLL.png,,,,,,,,0,2,2,1,,,,,,,,,,,,,,,,,,,,,,,,,,,,,,,,,,,,,,,,,,,,,,,,,101.69766139995772,102.09930439991876,102.08140489994548,102.1833080999786,102.58306099998299,None,right,1,0.4284767000935972,102.58306099998299,None,102.08140489994548,102.1833080999786,102.1833080999786,None,103.0327285999665,None,,,,,,,,,,,,,,,,,,,,,,,,,,,,,,11016,001,2024_Jan_04_1345,ANT,2021.2.3,59.938922219761615,
0,7,center,down,C,R,0,50,-1.5,right,RRRRR.png,,,,,,,,0,3,3,6,,,,,,,,,,,,,,,,,,,,,,,,,,,,,,,,,,,,,,,,,,,,,,,,,105.0359191999305,105.43743439996615,105.41959469998255,105.52001879992895,105.92058339994401,None,right,1,0.554881100077182,105.92058339994401,None,105.41959469998255,105.52001879992895,105.52001879992895,None,106.50524259998929,None,,,,,,,,,,,,,,,,,,,,,,,,,,,,,,11016,001,2024_Jan_04_1345,ANT,2021.2.3,59.938922219761615,
0,3,no,down,C,R,50,0,-1.5,right,RRRRR.png,,,,,,,,0,4,4,2,,,,,,,,,,,,,,,,,,,,,,,,,,,,,,,,,,,,,,,,,,,,,,,,,108.50822879991028,108.90938510000706,108.89139669993892,108.99376230000053,109.39278100000229,None,right,1,0.5227564999368042,109.39278100000229,None,108.89139669993892,108.99376230000053,108.99376230000053,None,109.94297019997612,None,,,,,,,,,,,,,,,,,,,,,,,,,,,,,,11016,001,2024_Jan_04_1345,ANT,2021.2.3,59.938922219761615,
0,6,center,up,IC,R,0,50,1.5,right,LLRLL.png,,,,,,,,0,5,5,5,,,,,,,,,,,,,,,,,,,,,,,,,,,,,,,,,,,,,,,,,,,,,,,,,111.94725430000108,112.34743329999037,112.32990789995529,112.43071099999361,112.83045589993708,None,left,0,0.50880439998582,112.83045589993708,None,112.32990789995529,112.43071099999361,112.43071099999361,None,113.36454849992879,None,,,,,,,,,,,,,,,,,,,,,,,,,,,,,,11016,001,2024_Jan_04_1345,ANT,2021.2.3,59.938922219761615,
0,11,spatial,down,C,L,-1.5,0,-1.5,left,LLLLL.png,,,,,,,,0,6,6,10,,,,,,,,,,,,,,,,,,,,,,,,,,,,,,,,,,,,,,,,,,,,,,,,,115.36831940000411,115.7695640999591,115.75159909995273,115.85247689997777,116.25451689993497,None,left,1,0.6612147999694571,116.25451689993497,None,115.75159909995273,115.85247689997777,115.85247689997777,None,116.93678350001574,None,,,,,,,,,,,,,,,,,,,,,,,,,,,,,,11016,001,2024_Jan_04_1345,ANT,2021.2.3,59.938922219761615,
0,8,center,down,IC,L,0,50,-1.5,left,RRLRR.png,,,,,,,,0,7,7,7,,,,,,,,,,,,,,,,,,,,,,,,,,,,,,,,,,,,,,,,,,,,,,,,,118.93984180002008,119.34125519997906,119.32361439999659,119.42592099995818,119.82433520001359,None,right,0,0.4272398001048714,119.82433520001359,None,119.32361439999659,119.42592099995818,119.42592099995818,None,120.27503989997786,None,,,,,,,,,,,,,,,,,,,,,,,,,,,,,,11016,001,2024_Jan_04_1345,ANT,2021.2.3,59.938922219761615,
0,5,center,up,C,L,0,50,1.5,left,LLLLL.png,,,,,,,,0,8,8,4,,,,,,,,,,,,,,,,,,,,,,,,,,,,,,,,,,,,,,,,,,,,,,,,,122.27804349991493,122.67939609999303,122.66193099995144,122.76297859998886,123.16321449994575,None,left,1,0.4722998000215739,123.16321449994575,None,122.66193099995144,122.76297859998886,122.76297859998886,None,123.66338089993224,None,,,,,,,,,,,,,,,,,,,,,,,,,,,,,,11016,001,2024_Jan_04_1345,ANT,2021.2.3,59.938922219761615,
0,1,no,up,C,L,50,0,1.5,left,LLLLL.png,,,,,,,,0,9,9,0,,,,,,,,,,,,,,,,,,,,,,,,,,,,,,,,,,,,,,,,,,,,,,,,,125.66666649992112,126.0675352999242,126.05116499995347,126.1514888999518,126.55155049997848,None,left,1,0.5163992000743747,126.55155049997848,None,126.05116499995347,126.1514888999518,126.1514888999518,None,127.08512319996953,None,,,,,,,,,,,,,,,,,,,,,,,,,,,,,,11016,001,2024_Jan_04_1345,ANT,2021.2.3,59.938922219761615,
0,4,no,down,IC,L,50,0,-1.5,left,RRLRR.png,,,,,,,,0,10,10,3,,,,,,,,,,,,,,,,,,,,,,,,,,,,,,,,,,,,,,,,,,,,,,,,,129.08824049995746,129.4905512999976,129.47202200000174,129.57355959992856,129.97351669997443,None,left,1,0.6142988000065088,129.97351669997443,None,129.47202200000174,129.57355959992856,129.57355959992856,None,130.60734469990712,None,,,,,,,,,,,,,,,,,,,,,,,,,,,,,,11016,001,2024_Jan_04_1345,ANT,2021.2.3,59.938922219761615,
0,12,spatial,down,IC,R,-1.5,0,-1.5,right,LLRLL.png,,,,,,,,0,11,11,11,,,,,,,,,,,,,,,,,,,,,,,,,,,,,,,,,,,,,,,,,,,,,,,,,132.60994849994313,133.0103166999761,132.99400049995165,133.0944425999187,133.49636240000837,None,right,1,0.515748200006783,133.49636240000837,None,132.99400049995165,133.0944425999187,133.0944425999187,None,134.028685499914,None,,,,,,,,,,,,,,,,,,,,,,,,,,,,,,11016,001,2024_Jan_04_1345,ANT,2021.2.3,59.938922219761615,
,,,,,,,,,,,,,,,,,,,,,,,,,,,,,,,,,,,,,,,,,,,,,,,,,,,,,,,,,,,,,,,,,,,,,,,,,,,,,,,,,,,,,,,space,5.683008400024846,136.03228739998303,None,,,,,,,,,,,,,,,,,,,,,,,,,,11016,001,2024_Jan_04_1345,ANT,2021.2.3,59.938922219761615,
1,16,center,down,IC,R,,,,,,Block.xlsx,"你已经完成了第一个实验区组

请稍作休息


点击空格键进入下一个区组。",0,50,-1.5,right,LLRLL.png,,,,,0,0,0,0,0,0,0,15,,,,,,,,,,,,,,,,,,,,,,,,,,,,,,,,,,,,,,,,,,,,,,,,,,,,,,,,,,,,,,136.03228739998303,None,141.774795299978,142.17635889991652,142.15824589994736,142.25827939994633,142.65869429998565,None,right,1,0.6333603000966832,142.65869429998565,None,142.15824589994736,142.25827939994633,142.25827939994633,None,143.3101100999629,None,,,,,,,11016,001,2024_Jan_04_1345,ANT,2021.2.3,59.938922219761615,
1,1,no,up,C,L,,,,,,Block.xlsx,"你已经完成了第一个实验区组

请稍作休息


点击空格键进入下一个区组。",50,0,1.5,left,LLLLL.png,,,,,0,0,0,0,0,1,1,0,,,,,,,,,,,,,,,,,,,,,,,,,,,,,,,,,,,,,,,,,,,,,,,,,,,,,,,,,,,,,,,,143.70989369996823,144.11196319991723,144.09400919999462,144.19545829994604,144.59550149994902,None,left,1,0.49625470000319183,144.59550149994902,None,144.09400919999462,144.19545829994604,144.19545829994604,None,145.111663699965,None,,,,,,,11016,001,2024_Jan_04_1345,ANT,2021.2.3,59.938922219761615,
1,18,spatial,up,C,R,,,,,,Block.xlsx,"你已经完成了第一个实验区组

请稍作休息


点击空格键进入下一个区组。",1.5,0,1.5,right,RRRRR.png,,,,,0,0,0,0,0,2,2,17,,,,,,,,,,,,,,,,,,,,,,,,,,,,,,,,,,,,,,,,,,,,,,,,,,,,,,,,,,,,,,,,145.51342079997994,145.91357879992574,145.8971145999385,145.9986594999209,146.3969135999214,None,right,1,0.41477690008468926,146.3969135999214,None,145.8971145999385,145.9986594999209,145.9986594999209,None,146.83094749995507,None,,,,,,,11016,001,2024_Jan_04_1345,ANT,2021.2.3,59.938922219761615,
1,12,center,up,IC,R,,,,,,Block.xlsx,"你已经完成了第一个实验区组

请稍作休息


点击空格键进入下一个区组。",0,50,1.5,right,LLRLL.png,,,,,0,0,0,0,0,3,3,11,,,,,,,,,,,,,,,,,,,,,,,,,,,,,,,,,,,,,,,,,,,,,,,,,,,,,,,,,,,,,,,,147.2321082999697,147.63295060000382,147.6163098999532,147.7160529999528,148.11629269993864,None,right,1,0.535702999914065,148.11629269993864,None,147.6163098999532,147.7160529999528,147.7160529999528,None,148.66715649992693,None,,,,,,,11016,001,2024_Jan_04_1345,ANT,2021.2.3,59.938922219761615,
1,20,spatial,up,IC,R,,,,,,Block.xlsx,"你已经完成了第一个实验区组

请稍作休息


点击空格键进入下一个区组。",1.5,0,1.5,right,LLRLL.png,,,,,0,0,0,0,0,4,4,19,,,,,,,,,,,,,,,,,,,,,,,,,,,,,,,,,,,,,,,,,,,,,,,,,,,,,,,,,,,,,,,,149.06772509997245,149.47022279992234,149.4521800999064,149.55224749993067,149.95364159997553,None,right,1,0.40164750011172146,149.95364159997553,None,149.4521800999064,149.55224749993067,149.55224749993067,None,150.3862568999175,None,,,,,,,11016,001,2024_Jan_04_1345,ANT,2021.2.3,59.938922219761615,
1,17,spatial,up,C,L,,,,,,Block.xlsx,"你已经完成了第一个实验区组

请稍作休息


点击空格键进入下一个区组。",1.5,0,1.5,left,LLLLL.png,,,,,0,0,0,0,0,5,5,16,,,,,,,,,,,,,,,,,,,,,,,,,,,,,,,,,,,,,,,,,,,,,,,,,,,,,,,,,,,,,,,,150.78770460002124,151.18843410001136,151.17215140000917,151.2725766999647,151.6715825999854,None,left,1,0.42813090002164245,151.6715825999854,None,151.17215140000917,151.2725766999647,151.2725766999647,None,152.12247369997203,None,,,,,,,11016,001,2024_Jan_04_1345,ANT,2021.2.3,59.938922219761615,
1,21,spatial,down,C,L,,,,,,Block.xlsx,"你已经完成了第一个实验区组

请稍作休息


点击空格键进入下一个区组。",-1.5,0,-1.5,left,LLLLL.png,,,,,0,0,0,0,0,6,6,20,,,,,,,,,,,,,,,,,,,,,,,,,,,,,,,,,,,,,,,,,,,,,,,,,,,,,,,,,,,,,,,,152.52335949998815,152.9240091999527,152.90893769997638,153.00773579999804,153.40779129997827,None,left,1,0.4116888999706134,153.40779129997827,None,152.90893769997638,153.00773579999804,153.00773579999804,None,153.84138489991892,None,,,,,,,11016,001,2024_Jan_04_1345,ANT,2021.2.3,59.938922219761615,
1,14,center,down,C,R,,,,,,Block.xlsx,"你已经完成了第一个实验区组

请稍作休息


点击空格键进入下一个区组。",0,50,-1.5,right,RRRRR.png,,,,,0,0,0,0,0,7,7,13,,,,,,,,,,,,,,,,,,,,,,,,,,,,,,,,,,,,,,,,,,,,,,,,,,,,,,,,,,,,,,,,154.24320379993878,154.64337930001784,154.62664739997126,154.7271899000043,155.12754459993448,None,right,1,0.40423950005788356,155.12754459993448,None,154.62664739997126,154.7271899000043,154.7271899000043,None,155.56047639995813,None,,,,,,,11016,001,2024_Jan_04_1345,ANT,2021.2.3,59.938922219761615,
1,12,center,up,IC,R,,,,,,Block.xlsx,"你已经完成了第一个实验区组

请稍作休息


点击空格键进入下一个区组。",0,50,1.5,right,LLRLL.png,,,,,0,0,0,0,0,8,8,11,,,,,,,,,,,,,,,,,,,,,,,,,,,,,,,,,,,,,,,,,,,,,,,,,,,,,,,,,,,,,,,,155.96153689990751,156.36216939997394,156.3462965999497,156.44604949990753,156.84784359997138,None,right,1,0.5716287000104785,156.84784359997138,None,156.3462965999497,156.44604949990753,156.44604949990753,None,157.44669000001159,None,,,,,,,11016,001,2024_Jan_04_1345,ANT,2021.2.3,59.938922219761615,
1,14,center,down,C,R,,,,,,Block.xlsx,"你已经完成了第一个实验区组

请稍作休息


点击空格键进入下一个区组。",0,50,-1.5,right,RRRRR.png,,,,,0,0,0,0,0,9,9,13,,,,,,,,,,,,,,,,,,,,,,,,,,,,,,,,,,,,,,,,,,,,,,,,,,,,,,,,,,,,,,,,157.84751230000984,158.24898179993033,158.23135399993043,158.3316837999737,158.7339620999992,None,right,1,0.3894065000349656,158.7339620999992,None,158.23135399993043,158.3316837999737,158.3316837999737,None,159.14924489997793,None,,,,,,,11016,001,2024_Jan_04_1345,ANT,2021.2.3,59.938922219761615,
1,5,no,down,C,L,,,,,,Block.xlsx,"你已经完成了第一个实验区组

请稍作休息


点击空格键进入下一个区组。",50,0,-1.5,left,LLLLL.png,,,,,0,0,0,0,0,10,10,4,,,,,,,,,,,,,,,,,,,,,,,,,,,,,,,,,,,,,,,,,,,,,,,,,,,,,,,,,,,,,,,,159.5503879999742,159.95141909993254,159.93405699997675,160.0346123999916,160.43535139993764,None,left,1,0.5760545999510214,160.43535139993764,None,159.93405699997675,160.0346123999916,160.0346123999916,None,161.03649109997787,None,,,,,,,11016,001,2024_Jan_04_1345,ANT,2021.2.3,59.938922219761615,
1,9,center,up,C,L,,,,,,Block.xlsx,"你已经完成了第一个实验区组

请稍作休息


点击空格键进入下一个区组。",0,50,1.5,left,LLLLL.png,,,,,0,0,0,0,0,11,11,8,,,,,,,,,,,,,,,,,,,,,,,,,,,,,,,,,,,,,,,,,,,,,,,,,,,,,,,,,,,,,,,,161.43596299993806,161.83831239992287,161.82048320001923,161.92064619995654,162.32187479990534,None,left,1,0.49800070002675056,162.32187479990534,None,161.82048320001923,161.92064619995654,161.92064619995654,None,162.83808689995203,None,,,,,,,11016,001,2024_Jan_04_1345,ANT,2021.2.3,59.938922219761615,
1,4,no,up,IC,R,,,,,,Block.xlsx,"你已经完成了第一个实验区组

请稍作休息


点击空格键进入下一个区组。",50,0,1.5,right,LLRLL.png,,,,,0,0,0,0,0,12,12,3,,,,,,,,,,,,,,,,,,,,,,,,,,,,,,,,,,,,,,,,,,,,,,,,,,,,,,,,,,,,,,,,163.23894059995655,163.64008029992692,163.62405539990868,163.72365579998586,164.1254255999811,None,right,1,0.6700770000461489,164.1254255999811,None,163.62405539990868,163.72365579998586,163.72365579998586,None,164.82512329996098,None,,,,,,,11016,001,2024_Jan_04_1345,ANT,2021.2.3,59.938922219761615,
1,9,center,up,C,L,,,,,,Block.xlsx,"你已经完成了第一个实验区组

请稍作休息


点击空格键进入下一个区组。",0,50,1.5,left,LLLLL.png,,,,,0,0,0,0,0,13,13,8,,,,,,,,,,,,,,,,,,,,,,,,,,,,,,,,,,,,,,,,,,,,,,,,,,,,,,,,,,,,,,,,165.22585679998156,165.6262548000086,165.60906419996172,165.71038740000222,166.11151279998012,None,left,1,0.7078939999919385,166.11151279998012,None,165.60906419996172,165.71038740000222,165.71038740000222,None,166.8439795000013,None,,,,,,,11016,001,2024_Jan_04_1345,ANT,2021.2.3,59.938922219761615,
1,5,no,down,C,L,,,,,,Block.xlsx,"你已经完成了第一个实验区组

请稍作休息


点击空格键进入下一个区组。",50,0,-1.5,left,LLLLL.png,,,,,0,0,0,0,0,14,14,4,,,,,,,,,,,,,,,,,,,,,,,,,,,,,,,,,,,,,,,,,,,,,,,,,,,,,,,,,,,,,,,,167.2447569000069,167.64606950001325,167.63079819991253,167.74746310000774,168.1312655999791,None,left,1,0.7840226000407711,168.1312655999791,None,167.63079819991253,167.74746310000774,167.72935189993586,None,168.93043059995398,None,,,,,,,11016,001,2024_Jan_04_1345,ANT,2021.2.3,59.938922219761615,
1,8,no,down,IC,R,,,,,,Block.xlsx,"你已经完成了第一个实验区组

请稍作休息


点击空格键进入下一个区组。",50,0,-1.5,right,LLRLL.png,,,,,0,0,0,0,0,15,15,7,,,,,,,,,,,,,,,,,,,,,,,,,,,,,,,,,,,,,,,,,,,,,,,,,,,,,,,,,,,,,,,,169.3310837999452,169.73408989992458,169.7158185999142,169.81666229991242,170.2174656999996,None,right,1,0.6420010000001639,170.2174656999996,None,169.7158185999142,169.81666229991242,169.81666229991242,None,170.88402919995133,None,,,,,,,11016,001,2024_Jan_04_1345,ANT,2021.2.3,59.938922219761615,
1,20,spatial,up,IC,R,,,,,,Block.xlsx,"你已经完成了第一个实验区组

请稍作休息


点击空格键进入下一个区组。",1.5,0,1.5,right,LLRLL.png,,,,,0,0,0,0,0,16,16,19,,,,,,,,,,,,,,,,,,,,,,,,,,,,,,,,,,,,,,,,,,,,,,,,,,,,,,,,,,,,,,,,171.28462489997037,171.68555809999816,171.66886069998145,171.76913839997724,172.16897599992808,None,right,1,0.4505474000470713,172.16897599992808,None,171.66886069998145,171.76913839997724,171.76913839997724,None,172.63617059995886,None,,,,,,,11016,001,2024_Jan_04_1345,ANT,2021.2.3,59.938922219761615,
1,24,spatial,down,IC,R,,,,,,Block.xlsx,"你已经完成了第一个实验区组

请稍作休息


点击空格键进入下一个区组。",-1.5,0,-1.5,right,LLRLL.png,,,,,0,0,0,0,0,17,17,23,,,,,,,,,,,,,,,,,,,,,,,,,,,,,,,,,,,,,,,,,,,,,,,,,,,,,,,,,,,,,,,,173.0371063000057,173.43861840001773,173.42106829991098,173.52166460000444,173.92245899990667,None,right,1,0.40115679998416454,173.92245899990667,None,173.42106829991098,173.52166460000444,173.52166460000444,None,174.338602899923,None,,,,,,,11016,001,2024_Jan_04_1345,ANT,2021.2.3,59.938922219761615,
1,21,spatial,down,C,L,,,,,,Block.xlsx,"你已经完成了第一个实验区组

请稍作休息


点击空格键进入下一个区组。",-1.5,0,-1.5,left,LLLLL.png,,,,,0,0,0,0,0,18,18,20,,,,,,,,,,,,,,,,,,,,,,,,,,,,,,,,,,,,,,,,,,,,,,,,,,,,,,,,,,,,,,,,174.73978890001308,175.13981740002055,175.12381569994614,175.22434019995853,175.6263001000043,None,left,1,0.505044599995017,175.6263001000043,None,175.12381569994614,175.22434019995853,175.22434019995853,None,176.15780089993495,None,,,,,,,11016,001,2024_Jan_04_1345,ANT,2021.2.3,59.938922219761615,
1,6,no,down,C,R,,,,,,Block.xlsx,"你已经完成了第一个实验区组

请稍作休息


点击空格键进入下一个区组。",50,0,-1.5,right,RRRRR.png,,,,,0,0,0,0,0,19,19,5,,,,,,,,,,,,,,,,,,,,,,,,,,,,,,,,,,,,,,,,,,,,,,,,,,,,,,,,,,,,,,,,176.5585407000035,176.95959919993766,176.9442255999893,177.04404059995431,177.4438000000082,None,right,1,0.5841414000606164,177.4438000000082,None,176.9442255999893,177.04404059995431,177.04404059995431,None,178.0439095000038,None,,,,,,,11016,001,2024_Jan_04_1345,ANT,2021.2.3,59.938922219761615,
1,10,center,up,C,R,,,,,,Block.xlsx,"你已经完成了第一个实验区组

请稍作休息


点击空格键进入下一个区组。",0,50,1.5,right,RRRRR.png,,,,,0,0,0,0,0,20,20,9,,,,,,,,,,,,,,,,,,,,,,,,,,,,,,,,,,,,,,,,,,,,,,,,,,,,,,,,,,,,,,,,178.44520369998645,178.84502529993188,178.82995799998753,178.94585559994448,179.33154549996834,None,right,1,0.5042147000785917,179.33154549996834,None,178.82995799998753,178.94585559994448,178.92955569992773,None,179.8635572999483,None,,,,,,,11016,001,2024_Jan_04_1345,ANT,2021.2.3,59.938922219761615,
1,24,spatial,down,IC,R,,,,,,Block.xlsx,"你已经完成了第一个实验区组

请稍作休息


点击空格键进入下一个区组。",-1.5,0,-1.5,right,LLRLL.png,,,,,0,0,0,0,0,21,21,23,,,,,,,,,,,,,,,,,,,,,,,,,,,,,,,,,,,,,,,,,,,,,,,,,,,,,,,,,,,,,,,,180.26396909996402,180.66501190001145,180.650376399979,180.76477060001343,181.14948099991307,None,right,1,0.5020572000648826,181.14948099991307,None,180.650376399979,180.76477060001343,180.75049269990996,None,181.66589409997687,None,,,,,,,11016,001,2024_Jan_04_1345,ANT,2021.2.3,59.938922219761615,
1,21,spatial,down,C,L,,,,,,Block.xlsx,"你已经完成了第一个实验区组

请稍作休息


点击空格键进入下一个区组。",-1.5,0,-1.5,left,LLLLL.png,,,,,0,0,0,0,0,22,22,20,,,,,,,,,,,,,,,,,,,,,,,,,,,,,,,,,,,,,,,,,,,,,,,,,,,,,,,,,,,,,,,,182.06681749993004,182.46833539998624,182.4510300999973,182.55201909993775,182.95136239996646,None,left,1,0.43607390008401126,182.95136239996646,None,182.4510300999973,182.55201909993775,182.55201909993775,None,183.418829799979,None,,,,,,,11016,001,2024_Jan_04_1345,ANT,2021.2.3,59.938922219761615,
1,9,center,up,C,L,,,,,,Block.xlsx,"你已经完成了第一个实验区组

请稍作休息


点击空格键进入下一个区组。",0,50,1.5,left,LLLLL.png,,,,,0,0,0,0,0,23,23,8,,,,,,,,,,,,,,,,,,,,,,,,,,,,,,,,,,,,,,,,,,,,,,,,,,,,,,,,,,,,,,,,183.8200793999713,184.22086729994044,184.20361430000048,184.303941299906,184.7039851999143,None,left,1,0.4679123000241816,184.7039851999143,None,184.20361430000048,184.303941299906,184.303941299906,None,185.18784399994183,None,,,,,,,11016,001,2024_Jan_04_1345,ANT,2021.2.3,59.938922219761615,
1,10,center,up,C,R,,,,,,Block.xlsx,"你已经完成了第一个实验区组

请稍作休息


点击空格键进入下一个区组。",0,50,1.5,right,RRRRR.png,,,,,0,0,0,0,1,0,24,9,,,,,,,,,,,,,,,,,,,,,,,,,,,,,,,,,,,,,,,,,,,,,,,,,,,,,,,,,,,,,,,,185.588546999963,185.98970819998067,185.97334449994378,186.0733157999348,186.47317259991542,None,right,1,0.530428999918513,186.47317259991542,None,185.97334449994378,186.0733157999348,186.0733157999348,None,187.02393259992823,None,,,,,,,11016,001,2024_Jan_04_1345,ANT,2021.2.3,59.938922219761615,
1,18,spatial,up,C,R,,,,,,Block.xlsx,"你已经完成了第一个实验区组

请稍作休息


点击空格键进入下一个区组。",1.5,0,1.5,right,RRRRR.png,,,,,0,0,0,0,1,1,25,17,,,,,,,,,,,,,,,,,,,,,,,,,,,,,,,,,,,,,,,,,,,,,,,,,,,,,,,,,,,,,,,,187.42552599997725,187.82632069999818,187.80886350001674,187.9101230999222,188.3098327999469,None,right,1,0.41419069992844015,188.3098327999469,None,187.80886350001674,187.9101230999222,187.9101230999222,None,188.74302669998724,None,,,,,,,11016,001,2024_Jan_04_1345,ANT,2021.2.3,59.938922219761615,
1,11,center,up,IC,L,,,,,,Block.xlsx,"你已经完成了第一个实验区组

请稍作休息


点击空格键进入下一个区组。",0,50,1.5,left,RRLRR.png,,,,,0,0,0,0,1,2,26,10,,,,,,,,,,,,,,,,,,,,,,,,,,,,,,,,,,,,,,,,,,,,,,,,,,,,,,,,,,,,,,,,189.14373289991636,189.54478609992657,189.52939919999335,189.62893669994082,190.03000639996026,None,left,1,0.6853135999990627,190.03000639996026,None,189.52939919999335,189.62893669994082,189.62893669994082,None,190.74619939993136,None,,,,,,,11016,001,2024_Jan_04_1345,ANT,2021.2.3,59.938922219761615,
1,7,no,down,IC,L,,,,,,Block.xlsx,"你已经完成了第一个实验区组

请稍作休息


点击空格键进入下一个区组。",50,0,-1.5,left,RRLRR.png,,,,,0,0,0,0,1,3,27,6,,,,,,,,,,,,,,,,,,,,,,,,,,,,,,,,,,,,,,,,,,,,,,,,,,,,,,,,,,,,,,,,191.1467197999591,191.54877449991181,191.53138719999697,191.63139819994103,192.03202439995948,None,left,1,0.747547599952668,192.03202439995948,None,191.53138719999697,191.63139819994103,191.63139819994103,None,192.79896719998214,None,,,,,,,11016,001,2024_Jan_04_1345,ANT,2021.2.3,59.938922219761615,
1,20,spatial,up,IC,R,,,,,,Block.xlsx,"你已经完成了第一个实验区组

请稍作休息


点击空格键进入下一个区组。",1.5,0,1.5,right,LLRLL.png,,,,,0,0,0,0,1,4,28,19,,,,,,,,,,,,,,,,,,,,,,,,,,,,,,,,,,,,,,,,,,,,,,,,,,,,,,,,,,,,,,,,193.20082159992307,193.60042749997228,193.58577589993365,193.6837217999855,194.08548409992363,None,right,1,0.43845879996661097,194.08548409992363,None,193.58577589993365,193.6837217999855,193.6837217999855,None,194.55216039996594,None,,,,,,,11016,001,2024_Jan_04_1345,ANT,2021.2.3,59.938922219761615,
1,22,spatial,down,C,R,,,,,,Block.xlsx,"你已经完成了第一个实验区组

请稍作休息


点击空格键进入下一个区组。",-1.5,0,-1.5,right,RRRRR.png,,,,,0,0,0,0,1,5,29,21,,,,,,,,,,,,,,,,,,,,,,,,,,,,,,,,,,,,,,,,,,,,,,,,,,,,,,,,,,,,,,,,194.9527109999908,195.35495149996132,195.3363493999932,195.43698599992786,195.8379213999724,None,right,1,0.4055735000874847,195.8379213999724,None,195.3363493999932,195.43698599992786,195.43698599992786,None,196.2708249000134,None,,,,,,,11016,001,2024_Jan_04_1345,ANT,2021.2.3,59.938922219761615,
1,23,spatial,down,IC,L,,,,,,Block.xlsx,"你已经完成了第一个实验区组

请稍作休息


点击空格键进入下一个区组。",-1.5,0,-1.5,left,RRLRR.png,,,,,0,0,0,0,1,6,30,22,,,,,,,,,,,,,,,,,,,,,,,,,,,,,,,,,,,,,,,,,,,,,,,,,,,,,,,,,,,,,,,,196.67267250001896,197.07235569995828,197.0572609999217,197.17266679997556,197.5569277999457,None,left,1,0.4387519999872893,197.5569277999457,None,197.0572609999217,197.17266679997556,197.15673569997307,None,198.02367229992524,None,,,,,,,11016,001,2024_Jan_04_1345,ANT,2021.2.3,59.938922219761615,
1,13,center,down,C,L,,,,,,Block.xlsx,"你已经完成了第一个实验区组

请稍作休息


点击空格键进入下一个区组。",0,50,-1.5,left,LLLLL.png,,,,,0,0,0,0,1,7,31,12,,,,,,,,,,,,,,,,,,,,,,,,,,,,,,,,,,,,,,,,,,,,,,,,,,,,,,,,,,,,,,,,198.4242984999437,198.82527449994814,198.80873199994676,198.90820920001715,199.30940109991934,None,left,1,0.5501819000346586,199.30940109991934,None,198.80873199994676,198.90820920001715,198.90820920001715,None,199.8766146999551,None,,,,,,,11016,001,2024_Jan_04_1345,ANT,2021.2.3,59.938922219761615,
1,19,spatial,up,IC,L,,,,,,Block.xlsx,"你已经完成了第一个实验区组

请稍作休息


点击空格键进入下一个区组。",1.5,0,1.5,left,RRLRR.png,,,,,0,0,0,0,1,8,32,18,,,,,,,,,,,,,,,,,,,,,,,,,,,,,,,,,,,,,,,,,,,,,,,,,,,,,,,,,,,,,,,,200.27812969998922,200.6779081999557,200.66294770000968,200.7784976999974,201.16182589996606,None,left,1,0.4506684000371024,201.16182589996606,None,200.66294770000968,200.7784976999974,200.76087909995113,None,201.62887529993895,None,,,,,,,11016,001,2024_Jan_04_1345,ANT,2021.2.3,59.938922219761615,
1,21,spatial,down,C,L,,,,,,Block.xlsx,"你已经完成了第一个实验区组

请稍作休息


点击空格键进入下一个区组。",-1.5,0,-1.5,left,LLLLL.png,,,,,0,0,0,0,1,9,33,20,,,,,,,,,,,,,,,,,,,,,,,,,,,,,,,,,,,,,,,,,,,,,,,,,,,,,,,,,,,,,,,,202.03079320001416,202.43039320001844,202.41536189999897,202.51442259992473,202.91410759999417,None,left,1,0.40942789998371154,202.91410759999417,None,202.41536189999897,202.51442259992473,202.51442259992473,None,203.34809729992412,None,,,,,,,11016,001,2024_Jan_04_1345,ANT,2021.2.3,59.938922219761615,
1,20,spatial,up,IC,R,,,,,,Block.xlsx,"你已经完成了第一个实验区组

请稍作休息


点击空格键进入下一个区组。",1.5,0,1.5,right,LLRLL.png,,,,,0,0,0,0,1,10,34,19,,,,,,,,,,,,,,,,,,,,,,,,,,,,,,,,,,,,,,,,,,,,,,,,,,,,,,,,,,,,,,,,203.7487588999793,204.14924619998783,204.13355559995398,204.23406169994269,204.6337623000145,None,right,1,0.4018651000224054,204.6337623000145,None,204.13355559995398,204.23406169994269,204.23406169994269,None,205.05072499997914,None,,,,,,,11016,001,2024_Jan_04_1345,ANT,2021.2.3,59.938922219761615,
1,10,center,up,C,R,,,,,,Block.xlsx,"你已经完成了第一个实验区组

请稍作休息


点击空格键进入下一个区组。",0,50,1.5,right,RRRRR.png,,,,,0,0,0,0,1,11,35,9,,,,,,,,,,,,,,,,,,,,,,,,,,,,,,,,,,,,,,,,,,,,,,,,,,,,,,,,,,,,,,,,205.4518346999539,205.85290289996192,205.8359146999428,205.93619389995,206.33676249999553,None,right,1,0.46768939995672554,206.33676249999553,None,205.8359146999428,205.93619389995,205.93619389995,None,206.82118839991745,None,,,,,,,11016,001,2024_Jan_04_1345,ANT,2021.2.3,59.938922219761615,
1,13,center,down,C,L,,,,,,Block.xlsx,"你已经完成了第一个实验区组

请稍作休息


点击空格键进入下一个区组。",0,50,-1.5,left,LLLLL.png,,,,,0,0,0,0,1,12,36,12,,,,,,,,,,,,,,,,,,,,,,,,,,,,,,,,,,,,,,,,,,,,,,,,,,,,,,,,,,,,,,,,207.2211110999342,207.62195379997138,207.60519929998554,207.70483709999826,208.10668680001982,None,left,1,0.5131041000131518,208.10668680001982,None,207.60519929998554,207.70483709999826,207.70483709999826,None,208.6392469999846,None,,,,,,,11016,001,2024_Jan_04_1345,ANT,2021.2.3,59.938922219761615,
1,23,spatial,down,IC,L,,,,,,Block.xlsx,"你已经完成了第一个实验区组

请稍作休息


点击空格键进入下一个区组。",-1.5,0,-1.5,left,RRLRR.png,,,,,0,0,0,0,1,13,37,22,,,,,,,,,,,,,,,,,,,,,,,,,,,,,,,,,,,,,,,,,,,,,,,,,,,,,,,,,,,,,,,,209.0404084000038,209.44224230002146,209.423941200017,209.52414949995,209.92573849996552,None,left,1,0.5337716001085937,209.92573849996552,None,209.423941200017,209.52414949995,209.52414949995,None,210.47527329996228,None,,,,,,,11016,001,2024_Jan_04_1345,ANT,2021.2.3,59.938922219761615,
1,1,no,up,C,L,,,,,,Block.xlsx,"你已经完成了第一个实验区组

请稍作休息


点击空格键进入下一个区组。",50,0,1.5,left,LLLLL.png,,,,,0,0,0,0,1,14,38,0,,,,,,,,,,,,,,,,,,,,,,,,,,,,,,,,,,,,,,,,,,,,,,,,,,,,,,,,,,,,,,,,210.8765740999952,211.27734649996273,211.2607198000187,211.36090709990822,211.76143939991016,None,left,1,0.6259898999705911,211.76143939991016,None,211.2607198000187,211.36090709990822,211.36090709990822,None,212.41149059997406,None,,,,,,,11016,001,2024_Jan_04_1345,ANT,2021.2.3,59.938922219761615,
1,8,no,down,IC,R,,,,,,Block.xlsx,"你已经完成了第一个实验区组

请稍作休息


点击空格键进入下一个区组。",50,0,-1.5,right,LLRLL.png,,,,,0,0,0,0,1,15,39,7,,,,,,,,,,,,,,,,,,,,,,,,,,,,,,,,,,,,,,,,,,,,,,,,,,,,,,,,,,,,,,,,212.81302319990937,213.21409609995317,213.19714619999286,213.29706120002083,213.6966355999466,None,right,1,0.6587485000491142,213.6966355999466,None,213.19714619999286,213.29706120002083,213.29706120002083,None,214.3811850999482,None,,,,,,,11016,001,2024_Jan_04_1345,ANT,2021.2.3,59.938922219761615,
1,1,no,up,C,L,,,,,,Block.xlsx,"你已经完成了第一个实验区组

请稍作休息


点击空格键进入下一个区组。",50,0,1.5,left,LLLLL.png,,,,,0,0,0,0,1,16,40,0,,,,,,,,,,,,,,,,,,,,,,,,,,,,,,,,,,,,,,,,,,,,,,,,,,,,,,,,,,,,,,,,214.78182249993552,215.1821814000141,215.1664142999798,215.2670635000104,215.66717429994605,None,left,1,0.5126465000212193,215.66717429994605,None,215.1664142999798,215.2670635000104,215.2670635000104,None,216.20072239998262,None,,,,,,,11016,001,2024_Jan_04_1345,ANT,2021.2.3,59.938922219761615,
1,2,no,up,C,R,,,,,,Block.xlsx,"你已经完成了第一个实验区组

请稍作休息


点击空格键进入下一个区组。",50,0,1.5,right,RRRRR.png,,,,,0,0,0,0,1,17,41,1,,,,,,,,,,,,,,,,,,,,,,,,,,,,,,,,,,,,,,,,,,,,,,,,,,,,,,,,,,,,,,,,216.60173290001694,217.00274579995312,216.98510579997674,217.08640129992273,217.48777429992333,None,right,1,0.523659999947995,217.48777429992333,None,216.98510579997674,217.08640129992273,217.08640129992273,None,218.03695169999264,None,,,,,,,11016,001,2024_Jan_04_1345,ANT,2021.2.3,59.938922219761615,
1,12,center,up,IC,R,,,,,,Block.xlsx,"你已经完成了第一个实验区组

请稍作休息


点击空格键进入下一个区组。",0,50,1.5,right,LLRLL.png,,,,,0,0,0,0,1,18,42,11,,,,,,,,,,,,,,,,,,,,,,,,,,,,,,,,,,,,,,,,,,,,,,,,,,,,,,,,,,,,,,,,218.4372637999477,218.8384025999112,218.8230391999241,218.9213484999491,219.32237730000634,None,right,1,0.49715529999230057,219.32237730000634,None,218.8230391999241,218.9213484999491,218.9213484999491,None,219.839217599947,None,,,,,,,11016,001,2024_Jan_04_1345,ANT,2021.2.3,59.938922219761615,
1,18,spatial,up,C,R,,,,,,Block.xlsx,"你已经完成了第一个实验区组

请稍作休息


点击空格键进入下一个区组。",1.5,0,1.5,right,RRRRR.png,,,,,0,0,0,0,1,19,43,17,,,,,,,,,,,,,,,,,,,,,,,,,,,,,,,,,,,,,,,,,,,,,,,,,,,,,,,,,,,,,,,,220.24051829997916,220.64229420002084,220.62429840001278,220.72621949994937,221.12521670002025,None,right,1,0.37427400005981326,221.12521670002025,None,220.62429840001278,220.72621949994937,220.72621949994937,None,221.5250795999309,None,,,,,,,11016,001,2024_Jan_04_1345,ANT,2021.2.3,59.938922219761615,
1,23,spatial,down,IC,L,,,,,,Block.xlsx,"你已经完成了第一个实验区组

请稍作休息


点击空格键进入下一个区组。",-1.5,0,-1.5,left,RRLRR.png,,,,,0,0,0,0,1,20,44,22,,,,,,,,,,,,,,,,,,,,,,,,,,,,,,,,,,,,,,,,,,,,,,,,,,,,,,,,,,,,,,,,221.92594290000852,222.32751450000796,222.31005699990783,222.41183419991285,222.81102919997647,None,left,1,0.401226400048472,222.81102919997647,None,222.31005699990783,222.41183419991285,222.41183419991285,None,223.2275031999452,None,,,,,,,11016,001,2024_Jan_04_1345,ANT,2021.2.3,59.938922219761615,
1,15,center,down,IC,L,,,,,,Block.xlsx,"你已经完成了第一个实验区组

请稍作休息


点击空格键进入下一个区组。",0,50,-1.5,left,RRLRR.png,,,,,0,0,0,0,1,21,45,14,,,,,,,,,,,,,,,,,,,,,,,,,,,,,,,,,,,,,,,,,,,,,,,,,,,,,,,,,,,,,,,,223.62844509992283,224.0295669999905,224.0139323999174,224.11298689991236,224.5133134999778,None,right,0,0.3942274999571964,224.5133134999778,None,224.0139323999174,224.11298689991236,224.11298689991236,None,224.93002369999886,None,,,,,,,11016,001,2024_Jan_04_1345,ANT,2021.2.3,59.938922219761615,
1,9,center,up,C,L,,,,,,Block.xlsx,"你已经完成了第一个实验区组

请稍作休息


点击空格键进入下一个区组。",0,50,1.5,left,LLLLL.png,,,,,0,0,0,0,1,22,46,8,,,,,,,,,,,,,,,,,,,,,,,,,,,,,,,,,,,,,,,,,,,,,,,,,,,,,,,,,,,,,,,,225.3306234999327,225.73142019996885,225.71527429996058,225.81547669996507,226.21758099994622,None,left,1,0.5142924999818206,226.21758099994622,None,225.71527429996058,225.81547669996507,225.81547669996507,None,226.7494682999095,None,,,,,,,11016,001,2024_Jan_04_1345,ANT,2021.2.3,59.938922219761615,
1,22,spatial,down,C,R,,,,,,Block.xlsx,"你已经完成了第一个实验区组

请稍作休息


点击空格键进入下一个区组。",-1.5,0,-1.5,right,RRRRR.png,,,,,0,0,0,0,1,23,47,21,,,,,,,,,,,,,,,,,,,,,,,,,,,,,,,,,,,,,,,,,,,,,,,,,,,,,,,,,,,,,,,,227.15015329991002,227.5507437000051,227.5340397999389,227.6346263999585,228.03591179999057,None,right,1,0.4556471999967471,228.03591179999057,None,227.5340397999389,227.6346263999585,227.6346263999585,None,228.5187780999113,None,,,,,,,11016,001,2024_Jan_04_1345,ANT,2021.2.3,59.938922219761615,
1,23,spatial,down,IC,L,,,,,,Block.xlsx,"你已经完成了第一个实验区组

请稍作休息


点击空格键进入下一个区组。",-1.5,0,-1.5,left,RRLRR.png,,,,,0,0,0,0,2,0,48,22,,,,,,,,,,,,,,,,,,,,,,,,,,,,,,,,,,,,,,,,,,,,,,,,,,,,,,,,,,,,,,,,228.92026789998636,229.32194359996356,229.30318980000447,229.40411459992174,229.80456289998256,None,left,1,0.45490299991797656,229.80456289998256,None,229.30318980000447,229.40411459992174,229.40411459992174,None,230.28810669993982,None,,,,,,,11016,001,2024_Jan_04_1345,ANT,2021.2.3,59.938922219761615,
1,10,center,up,C,R,,,,,,Block.xlsx,"你已经完成了第一个实验区组

请稍作休息


点击空格键进入下一个区组。",0,50,1.5,right,RRRRR.png,,,,,0,0,0,0,2,1,49,9,,,,,,,,,,,,,,,,,,,,,,,,,,,,,,,,,,,,,,,,,,,,,,,,,,,,,,,,,,,,,,,,230.6887053999817,231.0912371999584,231.07294979994185,231.17364799999632,231.57392589992378,None,right,1,0.46949229994788766,231.57392589992378,None,231.07294979994185,231.17364799999632,231.17364799999632,None,232.07392110000364,None,,,,,,,11016,001,2024_Jan_04_1345,ANT,2021.2.3,59.938922219761615,
1,19,spatial,up,IC,L,,,,,,Block.xlsx,"你已经完成了第一个实验区组

请稍作休息


点击空格键进入下一个区组。",1.5,0,1.5,left,RRLRR.png,,,,,0,0,0,0,2,2,50,18,,,,,,,,,,,,,,,,,,,,,,,,,,,,,,,,,,,,,,,,,,,,,,,,,,,,,,,,,,,,,,,,232.47597999998834,232.87733209994622,232.85907739994582,232.9606030000141,233.3601866000099,None,left,1,0.4593383999308571,233.3601866000099,None,232.85907739994582,232.9606030000141,232.9606030000141,None,233.843832799932,None,,,,,,,11016,001,2024_Jan_04_1345,ANT,2021.2.3,59.938922219761615,
1,4,no,up,IC,R,,,,,,Block.xlsx,"你已经完成了第一个实验区组

请稍作休息


点击空格键进入下一个区组。",50,0,1.5,right,LLRLL.png,,,,,0,0,0,0,2,3,51,3,,,,,,,,,,,,,,,,,,,,,,,,,,,,,,,,,,,,,,,,,,,,,,,,,,,,,,,,,,,,,,,,234.24381889996585,234.64639959996566,234.62775509990752,234.72882859990932,235.1296919999877,None,right,1,0.6258855999913067,235.1296919999877,None,234.62775509990752,234.72882859990932,234.72882859990932,None,235.77960479992907,None,,,,,,,11016,001,2024_Jan_04_1345,ANT,2021.2.3,59.938922219761615,
1,22,spatial,down,C,R,,,,,,Block.xlsx,"你已经完成了第一个实验区组

请稍作休息


点击空格键进入下一个区组。",-1.5,0,-1.5,right,RRRRR.png,,,,,0,0,0,0,2,4,52,21,,,,,,,,,,,,,,,,,,,,,,,,,,,,,,,,,,,,,,,,,,,,,,,,,,,,,,,,,,,,,,,,236.18006509996485,236.582375900005,236.56469819997437,236.6642031999072,237.0647702999413,None,right,1,0.4266672000521794,237.0647702999413,None,236.56469819997437,236.6642031999072,236.6642031999072,None,237.51550139999017,None,,,,,,,11016,001,2024_Jan_04_1345,ANT,2021.2.3,59.938922219761615,
1,7,no,down,IC,L,,,,,,Block.xlsx,"你已经完成了第一个实验区组

请稍作休息


点击空格键进入下一个区组。",50,0,-1.5,left,RRLRR.png,,,,,0,0,0,0,2,5,53,6,,,,,,,,,,,,,,,,,,,,,,,,,,,,,,,,,,,,,,,,,,,,,,,,,,,,,,,,,,,,,,,,237.91670629999135,238.31644640001468,238.2999118999578,238.40152509999461,238.8017604999477,None,left,1,0.6019863999681547,238.8017604999477,None,238.2999118999578,238.40152509999461,238.40152509999461,None,239.4181042999262,None,,,,,,,11016,001,2024_Jan_04_1345,ANT,2021.2.3,59.938922219761615,
1,5,no,down,C,L,,,,,,Block.xlsx,"你已经完成了第一个实验区组

请稍作休息


点击空格键进入下一个区组。",50,0,-1.5,left,LLLLL.png,,,,,0,0,0,0,2,6,54,4,,,,,,,,,,,,,,,,,,,,,,,,,,,,,,,,,,,,,,,,,,,,,,,,,,,,,,,,,,,,,,,,239.81908269994892,240.21979839995038,240.20313339994755,240.30402059992775,240.70361389999744,None,left,1,0.6357233999297023,240.70361389999744,None,240.20313339994755,240.30402059992775,240.30402059992775,None,241.3711478000041,None,,,,,,,11016,001,2024_Jan_04_1345,ANT,2021.2.3,59.938922219761615,
1,8,no,down,IC,R,,,,,,Block.xlsx,"你已经完成了第一个实验区组

请稍作休息


点击空格键进入下一个区组。",50,0,-1.5,right,LLRLL.png,,,,,0,0,0,0,2,7,55,7,,,,,,,,,,,,,,,,,,,,,,,,,,,,,,,,,,,,,,,,,,,,,,,,,,,,,,,,,,,,,,,,241.7721158999484,242.17440239991993,242.1559586999938,242.25641829997767,242.65715079999063,None,right,1,0.6026745000854135,242.65715079999063,None,242.1559586999938,242.25641829997767,242.25641829997767,None,243.29146259999834,None,,,,,,,11016,001,2024_Jan_04_1345,ANT,2021.2.3,59.938922219761615,
1,2,no,up,C,R,,,,,,Block.xlsx,"你已经完成了第一个实验区组

请稍作休息


点击空格键进入下一个区组。",50,0,1.5,right,RRRRR.png,,,,,0,0,0,0,2,8,56,1,,,,,,,,,,,,,,,,,,,,,,,,,,,,,,,,,,,,,,,,,,,,,,,,,,,,,,,,,,,,,,,,243.6912724999711,244.09195849997923,244.0756490000058,244.17729019990657,244.5772162999492,None,right,1,0.5142689999192953,244.5772162999492,None,244.0756490000058,244.17729019990657,244.17729019990657,None,245.1098187000025,None,,,,,,,11016,001,2024_Jan_04_1345,ANT,2021.2.3,59.938922219761615,
1,11,center,up,IC,L,,,,,,Block.xlsx,"你已经完成了第一个实验区组

请稍作休息


点击空格键进入下一个区组。",0,50,1.5,left,RRLRR.png,,,,,0,0,0,0,2,9,57,10,,,,,,,,,,,,,,,,,,,,,,,,,,,,,,,,,,,,,,,,,,,,,,,,,,,,,,,,,,,,,,,,245.5107088999357,245.91190529998858,245.89519579999615,245.99607489991467,246.39695919991937,None,left,1,0.5996185999829322,246.39695919991937,None,245.89519579999615,245.99607489991467,245.99607489991467,None,247.01281799993012,None,,,,,,,11016,001,2024_Jan_04_1345,ANT,2021.2.3,59.938922219761615,
1,17,spatial,up,C,L,,,,,,Block.xlsx,"你已经完成了第一个实验区组

请稍作休息


点击空格键进入下一个区组。",1.5,0,1.5,left,LLLLL.png,,,,,0,0,0,0,2,10,58,16,,,,,,,,,,,,,,,,,,,,,,,,,,,,,,,,,,,,,,,,,,,,,,,,,,,,,,,,,,,,,,,,247.41344329994172,247.81439079996198,247.7975238999352,247.89801359991543,248.29853929998353,None,left,1,0.38514350005425513,248.29853929998353,None,247.7975238999352,247.89801359991543,247.89801359991543,None,248.69921679992694,None,,,,,,,11016,001,2024_Jan_04_1345,ANT,2021.2.3,59.938922219761615,
1,22,spatial,down,C,R,,,,,,Block.xlsx,"你已经完成了第一个实验区组

请稍作休息


点击空格键进入下一个区组。",-1.5,0,-1.5,right,RRRRR.png,,,,,0,0,0,0,2,11,59,21,,,,,,,,,,,,,,,,,,,,,,,,,,,,,,,,,,,,,,,,,,,,,,,,,,,,,,,,,,,,,,,,249.09914930001833,249.50077369995415,249.48428949993104,249.58335699990857,249.98407040000893,None,right,1,0.3393783000065014,249.98407040000893,None,249.48428949993104,249.58335699990857,249.58335699990857,None,250.35227719997056,None,,,,,,,11016,001,2024_Jan_04_1345,ANT,2021.2.3,59.938922219761615,
1,15,center,down,IC,L,,,,,,Block.xlsx,"你已经完成了第一个实验区组

请稍作休息


点击空格键进入下一个区组。",0,50,-1.5,left,RRLRR.png,,,,,0,0,0,0,2,12,60,14,,,,,,,,,,,,,,,,,,,,,,,,,,,,,,,,,,,,,,,,,,,,,,,,,,,,,,,,,,,,,,,,250.75161919998936,251.15228789998218,251.13651189999655,251.23643619997893,251.63717120001093,None,left,1,0.5743226000340655,251.63717120001093,None,251.13651189999655,251.23643619997893,251.23643619997893,None,252.2370465999702,None,,,,,,,11016,001,2024_Jan_04_1345,ANT,2021.2.3,59.938922219761615,
1,24,spatial,down,IC,R,,,,,,Block.xlsx,"你已经完成了第一个实验区组

请稍作休息


点击空格键进入下一个区组。",-1.5,0,-1.5,right,LLRLL.png,,,,,0,0,0,0,2,13,61,23,,,,,,,,,,,,,,,,,,,,,,,,,,,,,,,,,,,,,,,,,,,,,,,,,,,,,,,,,,,,,,,,252.6379292999627,253.03901069995482,253.0224527999526,253.12349069991615,253.52416569995694,None,right,1,0.4158254999201745,253.52416569995694,None,253.0224527999526,253.12349069991615,253.12349069991615,None,253.95647169998847,None,,,,,,,11016,001,2024_Jan_04_1345,ANT,2021.2.3,59.938922219761615,
1,2,no,up,C,R,,,,,,Block.xlsx,"你已经完成了第一个实验区组

请稍作休息


点击空格键进入下一个区组。",50,0,1.5,right,RRRRR.png,,,,,0,0,0,0,2,14,62,1,,,,,,,,,,,,,,,,,,,,,,,,,,,,,,,,,,,,,,,,,,,,,,,,,,,,,,,,,,,,,,,,254.35702300001867,254.75798230001237,254.7424183000112,254.84215939999558,255.24216399993747,None,right,1,0.5136347999796271,255.24216399993747,None,254.7424183000112,254.84215939999558,254.84215939999558,None,255.77576709992718,None,,,,,,,11016,001,2024_Jan_04_1345,ANT,2021.2.3,59.938922219761615,
1,16,center,down,IC,R,,,,,,Block.xlsx,"你已经完成了第一个实验区组

请稍作休息


点击空格键进入下一个区组。",0,50,-1.5,right,LLRLL.png,,,,,0,0,0,0,2,15,63,15,,,,,,,,,,,,,,,,,,,,,,,,,,,,,,,,,,,,,,,,,,,,,,,,,,,,,,,,,,,,,,,,256.1766491999151,256.57737199997064,256.56054799992125,256.662317099981,257.0611144999275,None,right,1,0.6071225999621674,257.0611144999275,None,256.56054799992125,256.662317099981,256.662317099981,None,257.69546859990805,None,,,,,,,11016,001,2024_Jan_04_1345,ANT,2021.2.3,59.938922219761615,
1,16,center,down,IC,R,,,,,,Block.xlsx,"你已经完成了第一个实验区组

请稍作休息


点击空格键进入下一个区组。",0,50,-1.5,right,LLRLL.png,,,,,0,0,0,0,2,16,64,15,,,,,,,,,,,,,,,,,,,,,,,,,,,,,,,,,,,,,,,,,,,,,,,,,,,,,,,,,,,,,,,,258.0958534999518,258.4992232999066,258.48031359992456,258.5803509999532,258.9808006999083,None,right,1,0.5511835999786854,258.9808006999083,None,258.48031359992456,258.5803509999532,258.5803509999532,None,259.54808239999693,None,,,,,,,11016,001,2024_Jan_04_1345,ANT,2021.2.3,59.938922219761615,
1,12,center,up,IC,R,,,,,,Block.xlsx,"你已经完成了第一个实验区组

请稍作休息


点击空格键进入下一个区组。",0,50,1.5,right,LLRLL.png,,,,,0,0,0,0,2,17,65,11,,,,,,,,,,,,,,,,,,,,,,,,,,,,,,,,,,,,,,,,,,,,,,,,,,,,,,,,,,,,,,,,259.94966079993173,260.3513239999302,260.3331375999842,260.433715299936,260.8341931999894,None,right,1,0.5693990000290796,260.8341931999894,None,260.3331375999842,260.433715299936,260.433715299936,None,261.43419239996,None,,,,,,,11016,001,2024_Jan_04_1345,ANT,2021.2.3,59.938922219761615,
1,24,spatial,down,IC,R,,,,,,Block.xlsx,"你已经完成了第一个实验区组

请稍作休息


点击空格键进入下一个区组。",-1.5,0,-1.5,right,LLRLL.png,,,,,0,0,0,0,2,18,66,23,,,,,,,,,,,,,,,,,,,,,,,,,,,,,,,,,,,,,,,,,,,,,,,,,,,,,,,,,,,,,,,,261.83492829999886,262.2368841000134,262.21936819993425,262.31970200000796,262.7194463999476,None,right,1,0.44434119993820786,262.7194463999476,None,262.21936819993425,262.31970200000796,262.31970200000796,None,263.18667989992537,None,,,,,,,11016,001,2024_Jan_04_1345,ANT,2021.2.3,59.938922219761615,
1,18,spatial,up,C,R,,,,,,Block.xlsx,"你已经完成了第一个实验区组

请稍作休息


点击空格键进入下一个区组。",1.5,0,1.5,right,RRRRR.png,,,,,0,0,0,0,2,19,67,17,,,,,,,,,,,,,,,,,,,,,,,,,,,,,,,,,,,,,,,,,,,,,,,,,,,,,,,,,,,,,,,,263.58735029993113,263.98889169993345,263.9729338999605,264.0714826999465,264.4726923999842,None,right,1,0.3709271000698209,264.4726923999842,None,263.9729338999605,264.0714826999465,264.0714826999465,None,264.8723695999943,None,,,,,,,11016,001,2024_Jan_04_1345,ANT,2021.2.3,59.938922219761615,
1,11,center,up,IC,L,,,,,,Block.xlsx,"你已经完成了第一个实验区组

请稍作休息


点击空格键进入下一个区组。",0,50,1.5,left,RRLRR.png,,,,,0,0,0,0,2,20,68,10,,,,,,,,,,,,,,,,,,,,,,,,,,,,,,,,,,,,,,,,,,,,,,,,,,,,,,,,,,,,,,,,265.27320890000556,265.6756298999535,265.65726180002093,265.7580778999254,266.1591060999781,None,left,1,0.5886152000166476,266.1591060999781,None,265.65726180002093,265.7580778999254,265.7580778999254,None,266.77539149997756,None,,,,,,,11016,001,2024_Jan_04_1345,ANT,2021.2.3,59.938922219761615,
1,15,center,down,IC,L,,,,,,Block.xlsx,"你已经完成了第一个实验区组

请稍作休息


点击空格键进入下一个区组。",0,50,-1.5,left,RRLRR.png,,,,,0,0,0,0,2,21,69,14,,,,,,,,,,,,,,,,,,,,,,,,,,,,,,,,,,,,,,,,,,,,,,,,,,,,,,,,,,,,,,,,267.1762998999329,267.57757429999765,267.5599798000185,267.66228049993515,268.06110329995863,None,left,1,0.5024774000048637,268.06110329995863,None,267.5599798000185,267.66228049993515,267.66228049993515,None,268.594893099973,None,,,,,,,11016,001,2024_Jan_04_1345,ANT,2021.2.3,59.938922219761615,
1,2,no,up,C,R,,,,,,Block.xlsx,"你已经完成了第一个实验区组

请稍作休息


点击空格键进入下一个区组。",50,0,1.5,right,RRRRR.png,,,,,0,0,0,0,2,22,70,1,,,,,,,,,,,,,,,,,,,,,,,,,,,,,,,,,,,,,,,,,,,,,,,,,,,,,,,,,,,,,,,,268.9954191999277,269.39683579991106,269.3800772000104,269.48055089998525,269.8810996999964,None,right,1,0.7152221000287682,269.8810996999964,None,269.3800772000104,269.48055089998525,269.48055089998525,None,270.6144488999853,None,,,,,,,11016,001,2024_Jan_04_1345,ANT,2021.2.3,59.938922219761615,
1,13,center,down,C,L,,,,,,Block.xlsx,"你已经完成了第一个实验区组

请稍作休息


点击空格键进入下一个区组。",0,50,-1.5,left,LLLLL.png,,,,,0,0,0,0,2,23,71,12,,,,,,,,,,,,,,,,,,,,,,,,,,,,,,,,,,,,,,,,,,,,,,,,,,,,,,,,,,,,,,,,271.01564709993545,271.416407499928,271.39960190001875,271.4997758999234,271.9008771999506,None,left,1,0.5429931000107899,271.9008771999506,None,271.39960190001875,271.4997758999234,271.4997758999234,None,272.4673414999852,None,,,,,,,11016,001,2024_Jan_04_1345,ANT,2021.2.3,59.938922219761615,
1,11,center,up,IC,L,,,,,,Block.xlsx,"你已经完成了第一个实验区组

请稍作休息


点击空格键进入下一个区组。",0,50,1.5,left,RRLRR.png,,,,,0,0,0,0,3,0,72,10,,,,,,,,,,,,,,,,,,,,,,,,,,,,,,,,,,,,,,,,,,,,,,,,,,,,,,,,,,,,,,,,272.8678815999301,273.2694587999722,273.251851900015,273.35363469994627,273.75287969992496,None,left,1,0.47457969991955906,273.75287969992496,None,273.251851900015,273.35363469994627,273.35363469994627,None,274.25300499994773,None,,,,,,,11016,001,2024_Jan_04_1345,ANT,2021.2.3,59.938922219761615,
1,6,no,down,C,R,,,,,,Block.xlsx,"你已经完成了第一个实验区组

请稍作休息


点击空格键进入下一个区组。",50,0,-1.5,right,RRRRR.png,,,,,0,0,0,0,3,1,73,5,,,,,,,,,,,,,,,,,,,,,,,,,,,,,,,,,,,,,,,,,,,,,,,,,,,,,,,,,,,,,,,,274.6538434999529,275.05444239999633,275.0377356999088,275.1384963999735,275.5399077999173,None,right,1,0.5196012000087649,275.5399077999173,None,275.0377356999088,275.1384963999735,275.1384963999735,None,276.0892449999228,None,,,,,,,11016,001,2024_Jan_04_1345,ANT,2021.2.3,59.938922219761615,
1,6,no,down,C,R,,,,,,Block.xlsx,"你已经完成了第一个实验区组

请稍作休息


点击空格键进入下一个区组。",50,0,-1.5,right,RRRRR.png,,,,,0,0,0,0,3,2,74,5,,,,,,,,,,,,,,,,,,,,,,,,,,,,,,,,,,,,,,,,,,,,,,,,,,,,,,,,,,,,,,,,276.49105730000883,276.89052599994466,276.8750750999898,276.97477380000055,277.37432900001295,None,right,1,0.41384129994548857,277.37432900001295,None,276.8750750999898,276.97477380000055,276.97477380000055,None,277.8084324999945,None,,,,,,,11016,001,2024_Jan_04_1345,ANT,2021.2.3,59.938922219761615,
1,19,spatial,up,IC,L,,,,,,Block.xlsx,"你已经完成了第一个实验区组

请稍作休息


点击空格键进入下一个区组。",1.5,0,1.5,left,RRLRR.png,,,,,0,0,0,0,3,3,75,18,,,,,,,,,,,,,,,,,,,,,,,,,,,,,,,,,,,,,,,,,,,,,,,,,,,,,,,,,,,,,,,,278.20900829997845,278.61061049997807,278.59374809998553,278.6933557000011,279.0937625999795,None,left,1,0.46965790004469454,279.0937625999795,None,278.59374809998553,278.6933557000011,278.6933557000011,None,279.5943887999747,None,,,,,,,11016,001,2024_Jan_04_1345,ANT,2021.2.3,59.938922219761615,
1,16,center,down,IC,R,,,,,,Block.xlsx,"你已经完成了第一个实验区组

请稍作休息


点击空格键进入下一个区组。",0,50,-1.5,right,LLRLL.png,,,,,0,0,0,0,3,4,76,15,,,,,,,,,,,,,,,,,,,,,,,,,,,,,,,,,,,,,,,,,,,,,,,,,,,,,,,,,,,,,,,,279.99563359993044,280.3961846999591,280.3795119000133,280.4804463000037,280.8810734999133,None,right,1,0.5545458999695256,280.8810734999133,None,280.3795119000133,280.4804463000037,280.4804463000037,None,281.46404110000003,None,,,,,,,11016,001,2024_Jan_04_1345,ANT,2021.2.3,59.938922219761615,
1,7,no,down,IC,L,,,,,,Block.xlsx,"你已经完成了第一个实验区组

请稍作休息


点击空格键进入下一个区组。",50,0,-1.5,left,RRLRR.png,,,,,0,0,0,0,3,5,77,6,,,,,,,,,,,,,,,,,,,,,,,,,,,,,,,,,,,,,,,,,,,,,,,,,,,,,,,,,,,,,,,,281.86508389993105,282.26630319992546,282.24872559995856,282.349150099908,282.7510261000134,None,left,1,0.6284357999684289,282.7510261000134,None,282.24872559995856,282.349150099908,282.349150099908,None,283.4000902000116,None,,,,,,,11016,001,2024_Jan_04_1345,ANT,2021.2.3,59.938922219761615,
1,14,center,down,C,R,,,,,,Block.xlsx,"你已经完成了第一个实验区组

请稍作休息


点击空格键进入下一个区组。",0,50,-1.5,right,RRRRR.png,,,,,0,0,0,0,3,6,78,13,,,,,,,,,,,,,,,,,,,,,,,,,,,,,,,,,,,,,,,,,,,,,,,,,,,,,,,,,,,,,,,,283.80067139992025,284.2014939999208,284.1852101999102,284.2850249999901,284.68613559997175,None,right,1,0.5337691000895575,284.68613559997175,None,284.1852101999102,284.2850249999901,284.2850249999901,None,285.23600459995214,None,,,,,,,11016,001,2024_Jan_04_1345,ANT,2021.2.3,59.938922219761615,
1,6,no,down,C,R,,,,,,Block.xlsx,"你已经完成了第一个实验区组

请稍作休息


点击空格键进入下一个区组。",50,0,-1.5,right,RRRRR.png,,,,,0,0,0,0,3,7,79,5,,,,,,,,,,,,,,,,,,,,,,,,,,,,,,,,,,,,,,,,,,,,,,,,,,,,,,,,,,,,,,,,285.6366532999091,286.0373810000019,286.02113729994744,286.1209710999392,286.5220532999374,None,right,1,0.513865299988538,286.5220532999374,None,286.02113729994744,286.1209710999392,286.1209710999392,None,287.05547129991464,None,,,,,,,11016,001,2024_Jan_04_1345,ANT,2021.2.3,59.938922219761615,
1,13,center,down,C,L,,,,,,Block.xlsx,"你已经完成了第一个实验区组

请稍作休息


点击空格键进入下一个区组。",0,50,-1.5,left,LLLLL.png,,,,,0,0,0,0,3,8,80,12,,,,,,,,,,,,,,,,,,,,,,,,,,,,,,,,,,,,,,,,,,,,,,,,,,,,,,,,,,,,,,,,287.45680419995915,287.85804620001,287.84042549994774,287.94035199994687,288.3414765999187,None,left,1,0.6222585999639705,288.3414765999187,None,287.84042549994774,287.94035199994687,287.94035199994687,None,288.9917678999482,None,,,,,,,11016,001,2024_Jan_04_1345,ANT,2021.2.3,59.938922219761615,
1,3,no,up,IC,L,,,,,,Block.xlsx,"你已经完成了第一个实验区组

请稍作休息


点击空格键进入下一个区组。",50,0,1.5,left,RRLRR.png,,,,,0,0,0,0,3,9,81,2,,,,,,,,,,,,,,,,,,,,,,,,,,,,,,,,,,,,,,,,,,,,,,,,,,,,,,,,,,,,,,,,289.3930603999179,289.7935453999089,289.7768968999153,289.87740090000443,290.2770054999273,None,left,1,0.6467861999990419,290.2770054999273,None,289.7768968999153,289.87740090000443,289.87740090000443,None,290.9447474000044,None,,,,,,,11016,001,2024_Jan_04_1345,ANT,2021.2.3,59.938922219761615,
1,3,no,up,IC,L,,,,,,Block.xlsx,"你已经完成了第一个实验区组

请稍作休息


点击空格键进入下一个区组。",50,0,1.5,left,RRLRR.png,,,,,0,0,0,0,3,10,82,2,,,,,,,,,,,,,,,,,,,,,,,,,,,,,,,,,,,,,,,,,,,,,,,,,,,,,,,,,,,,,,,,291.34523390000686,291.7463639000198,291.73086389992386,291.83089169999585,292.2310872999951,None,left,1,0.5245335000799969,292.2310872999951,None,291.73086389992386,291.83089169999585,291.83089169999585,None,292.7804691999918,None,,,,,,,11016,001,2024_Jan_04_1345,ANT,2021.2.3,59.938922219761615,
1,17,spatial,up,C,L,,,,,,Block.xlsx,"你已经完成了第一个实验区组

请稍作休息


点击空格键进入下一个区组。",1.5,0,1.5,left,LLLLL.png,,,,,0,0,0,0,3,11,83,16,,,,,,,,,,,,,,,,,,,,,,,,,,,,,,,,,,,,,,,,,,,,,,,,,,,,,,,,,,,,,,,,293.1818560999818,293.5826458999654,293.56587519997265,293.6663498999551,294.06734810001217,None,left,1,0.4331912000197917,294.06734810001217,None,293.56587519997265,293.6663498999551,293.6663498999551,None,294.51652760000434,None,,,,,,,11016,001,2024_Jan_04_1345,ANT,2021.2.3,59.938922219761615,
1,14,center,down,C,R,,,,,,Block.xlsx,"你已经完成了第一个实验区组

请稍作休息


点击空格键进入下一个区组。",0,50,-1.5,right,RRRRR.png,,,,,0,0,0,0,3,12,84,13,,,,,,,,,,,,,,,,,,,,,,,,,,,,,,,,,,,,,,,,,,,,,,,,,,,,,,,,,,,,,,,,294.9172122000018,295.3186591999838,295.30227549991105,295.40183539991267,295.8026633999543,None,right,1,0.6652110000140965,295.8026633999543,None,295.30227549991105,295.40183539991267,295.40183539991267,None,296.48609429993667,None,,,,,,,11016,001,2024_Jan_04_1345,ANT,2021.2.3,59.938922219761615,
1,8,no,down,IC,R,,,,,,Block.xlsx,"你已经完成了第一个实验区组

请稍作休息


点击空格键进入下一个区组。",50,0,-1.5,right,LLRLL.png,,,,,0,0,0,0,3,13,85,7,,,,,,,,,,,,,,,,,,,,,,,,,,,,,,,,,,,,,,,,,,,,,,,,,,,,,,,,,,,,,,,,296.8867808999494,297.2885467999149,297.270850699977,297.37124140001833,297.77124909998383,None,right,1,0.5206540999934077,297.77124909998383,None,297.270850699977,297.37124140001833,297.37124140001833,None,298.3221897999756,None,,,,,,,11016,001,2024_Jan_04_1345,ANT,2021.2.3,59.938922219761615,
1,4,no,up,IC,R,,,,,,Block.xlsx,"你已经完成了第一个实验区组

请稍作休息


点击空格键进入下一个区组。",50,0,1.5,right,LLRLL.png,,,,,0,0,0,0,3,14,86,3,,,,,,,,,,,,,,,,,,,,,,,,,,,,,,,,,,,,,,,,,,,,,,,,,,,,,,,,,,,,,,,,298.7228892999701,299.1234204999637,299.1075180999469,299.20672969997395,299.6092727999203,None,right,1,0.5703519999515265,299.6092727999203,None,299.1075180999469,299.20672969997395,299.20672969997395,None,300.20892779994756,None,,,,,,,11016,001,2024_Jan_04_1345,ANT,2021.2.3,59.938922219761615,
1,1,no,up,C,L,,,,,,Block.xlsx,"你已经完成了第一个实验区组

请稍作休息


点击空格键进入下一个区组。",50,0,1.5,left,LLLLL.png,,,,,0,0,0,0,3,15,87,0,,,,,,,,,,,,,,,,,,,,,,,,,,,,,,,,,,,,,,,,,,,,,,,,,,,,,,,,,,,,,,,,300.60910939995665,301.00959189992864,300.9941469000187,301.0936798999319,301.49392519996036,None,left,1,0.5256099000107497,301.49392519996036,None,300.9941469000187,301.0936798999319,301.0936798999319,None,302.04436239995994,None,,,,,,,11016,001,2024_Jan_04_1345,ANT,2021.2.3,59.938922219761615,
1,3,no,up,IC,L,,,,,,Block.xlsx,"你已经完成了第一个实验区组

请稍作休息


点击空格键进入下一个区组。",50,0,1.5,left,RRLRR.png,,,,,0,0,0,0,3,16,88,2,,,,,,,,,,,,,,,,,,,,,,,,,,,,,,,,,,,,,,,,,,,,,,,,,,,,,,,,,,,,,,,,302.44510689994786,302.8454019000055,302.83008159999736,302.9295497999992,303.33042030001525,None,left,1,0.48157720000017434,303.33042030001525,None,302.83008159999736,302.9295497999992,302.9295497999992,None,303.83043779991567,None,,,,,,,11016,001,2024_Jan_04_1345,ANT,2021.2.3,59.938922219761615,
1,5,no,down,C,L,,,,,,Block.xlsx,"你已经完成了第一个实验区组

请稍作休息


点击空格键进入下一个区组。",50,0,-1.5,left,LLLLL.png,,,,,0,0,0,0,3,17,89,4,,,,,,,,,,,,,,,,,,,,,,,,,,,,,,,,,,,,,,,,,,,,,,,,,,,,,,,,,,,,,,,,304.23141579993535,304.6323413999053,304.61561280000024,304.71659049997106,305.1157966000028,None,left,1,0.47239040001295507,305.1157966000028,None,304.61561280000024,304.71659049997106,304.71659049997106,None,305.61632369994186,None,,,,,,,11016,001,2024_Jan_04_1345,ANT,2021.2.3,59.938922219761615,
1,15,center,down,IC,L,,,,,,Block.xlsx,"你已经完成了第一个实验区组

请稍作休息


点击空格键进入下一个区组。",0,50,-1.5,left,RRLRR.png,,,,,0,0,0,0,3,18,90,14,,,,,,,,,,,,,,,,,,,,,,,,,,,,,,,,,,,,,,,,,,,,,,,,,,,,,,,,,,,,,,,,306.0169649999589,306.41823279997334,306.40093070000876,306.50253689999226,306.9032284999266,None,left,1,0.516753299976699,306.9032284999266,None,306.40093070000876,306.50253689999226,306.50253689999226,None,307.43610379996244,None,,,,,,,11016,001,2024_Jan_04_1345,ANT,2021.2.3,59.938922219761615,
1,19,spatial,up,IC,L,,,,,,Block.xlsx,"你已经完成了第一个实验区组

请稍作休息


点击空格键进入下一个区组。",1.5,0,1.5,left,RRLRR.png,,,,,0,0,0,0,3,19,91,18,,,,,,,,,,,,,,,,,,,,,,,,,,,,,,,,,,,,,,,,,,,,,,,,,,,,,,,,,,,,,,,,307.8372059999965,308.23827819991857,308.22135959996376,308.32119980000425,308.7216691999929,None,left,1,0.38591419998556376,308.7216691999929,None,308.22135959996376,308.32119980000425,308.32119980000425,None,309.13924199994653,None,,,,,,,11016,001,2024_Jan_04_1345,ANT,2021.2.3,59.938922219761615,
1,7,no,down,IC,L,,,,,,Block.xlsx,"你已经完成了第一个实验区组

请稍作休息


点击空格键进入下一个区组。",50,0,-1.5,left,RRLRR.png,,,,,0,0,0,0,3,20,92,6,,,,,,,,,,,,,,,,,,,,,,,,,,,,,,,,,,,,,,,,,,,,,,,,,,,,,,,,,,,,,,,,309.53878810000606,309.9394507999532,309.9232661999995,310.0228829999687,310.42471910000313,None,left,1,0.5550883000250906,310.42471910000313,None,309.9232661999995,310.0228829999687,310.0228829999687,None,311.0075865999097,None,,,,,,,11016,001,2024_Jan_04_1345,ANT,2021.2.3,59.938922219761615,
1,4,no,up,IC,R,,,,,,Block.xlsx,"你已经完成了第一个实验区组

请稍作休息


点击空格键进入下一个区组。",50,0,1.5,right,LLRLL.png,,,,,0,0,0,0,3,21,93,3,,,,,,,,,,,,,,,,,,,,,,,,,,,,,,,,,,,,,,,,,,,,,,,,,,,,,,,,,,,,,,,,311.4083564999746,311.80966289993376,311.7926144999219,311.8921698000049,312.2928399000084,None,right,1,0.5427378000458702,312.2928399000084,None,311.7926144999219,311.8921698000049,311.8921698000049,None,312.8605101999128,None,,,,,,,11016,001,2024_Jan_04_1345,ANT,2021.2.3,59.938922219761615,
1,17,spatial,up,C,L,,,,,,Block.xlsx,"你已经完成了第一个实验区组

请稍作休息


点击空格键进入下一个区组。",1.5,0,1.5,left,LLLLL.png,,,,,0,0,0,0,3,22,94,16,,,,,,,,,,,,,,,,,,,,,,,,,,,,,,,,,,,,,,,,,,,,,,,,,,,,,,,,,,,,,,,,313.26101309992373,313.66156979999505,313.6464245999232,313.7460840999847,314.14775349991396,None,left,1,0.4167382000014186,314.14775349991396,None,313.6464245999232,313.7460840999847,313.7460840999847,None,314.57964309991803,None,,,,,,,11016,001,2024_Jan_04_1345,ANT,2021.2.3,59.938922219761615,
1,3,no,up,IC,L,,,,,,Block.xlsx,"你已经完成了第一个实验区组

请稍作休息


点击空格键进入下一个区组。",50,0,1.5,left,RRLRR.png,,,,,0,0,0,0,3,23,95,2,,,,,,,,,,,,,,,,,,,,,,,,,,,,,,,,,,,,,,,,,,,,,,,,,,,,,,,,,,,,,,,,314.98021529999096,315.3810577999102,315.36477089999244,315.4647220999468,315.86509989993647,None,left,1,0.49961749999783933,315.86509989993647,None,315.36477089999244,315.4647220999468,315.4647220999468,None,316.3823563000187,None,,,,,,,11016,001,2024_Jan_04_1345,ANT,2021.2.3,59.938922219761615,
,,,,,,,,,,,Block.xlsx,"你已经完成了第一个实验区组

请稍作休息


点击空格键进入下一个区组。",,,,,,,,,,0,0,0,0,,,,,,,,,,,,,,,,,,,,,,,,,,,,,,,,,,,,,,,,,,,,,,,,,,,,,,,,,,,,,,,,,,,,,,,,,,,,,,,,,,,,,space,2.4129822000395507,316.78258100000676,None,316.78258100000676,None,11016,001,2024_Jan_04_1345,ANT,2021.2.3,59.938922219761615,
1,3,no,up,IC,L,,,,,,Block.xlsx,"你已经完成了整个实验（三个区组）。

请报告实验者已完成实验

非常感谢，再见！",50,0,1.5,left,RRLRR.png,,,,,0,1,1,1,0,0,0,2,,,,,,,,,,,,,,,,,,,,,,,,,,,,,,,,,,,,,,,,,,,,,,,,,,,,,,,,,,,,,,,,319.23631269996986,319.6374844999518,319.6209979999112,319.72082639997825,320.1211099999491,None,left,1,0.5709145000437275,320.1211099999491,None,319.6209979999112,319.72082639997825,319.73870879993774,None,320.72265819995664,None,,,,,,,11016,001,2024_Jan_04_1345,ANT,2021.2.3,59.938922219761615,
1,7,no,down,IC,L,,,,,,Block.xlsx,"你已经完成了整个实验（三个区组）。

请报告实验者已完成实验

非常感谢，再见！",50,0,-1.5,left,RRLRR.png,,,,,0,1,1,1,0,1,1,6,,,,,,,,,,,,,,,,,,,,,,,,,,,,,,,,,,,,,,,,,,,,,,,,,,,,,,,,,,,,,,,,321.1229956999887,321.5238723999355,321.50730759999715,321.60762539994903,322.0095437999116,None,left,1,0.5626270000357181,322.0095437999116,None,321.50730759999715,321.60762539994903,321.60762539994903,None,322.5922265999252,None,,,,,,,11016,001,2024_Jan_04_1345,ANT,2021.2.3,59.938922219761615,
1,16,center,down,IC,R,,,,,,Block.xlsx,"你已经完成了整个实验（三个区组）。

请报告实验者已完成实验

非常感谢，再见！",0,50,-1.5,right,LLRLL.png,,,,,0,1,1,1,0,2,2,15,,,,,,,,,,,,,,,,,,,,,,,,,,,,,,,,,,,,,,,,,,,,,,,,,,,,,,,,,,,,,,,,322.9928733999841,323.39265479997266,323.3771162999328,323.4765038000187,323.8771473999368,None,right,1,0.6069566999794915,323.8771473999368,None,323.3771162999328,323.4765038000187,323.4765038000187,None,324.51111319998745,None,,,,,,,11016,001,2024_Jan_04_1345,ANT,2021.2.3,59.938922219761615,
1,1,no,up,C,L,,,,,,Block.xlsx,"你已经完成了整个实验（三个区组）。

请报告实验者已完成实验

非常感谢，再见！",50,0,1.5,left,LLLLL.png,,,,,0,1,1,1,0,3,3,0,,,,,,,,,,,,,,,,,,,,,,,,,,,,,,,,,,,,,,,,,,,,,,,,,,,,,,,,,,,,,,,,324.91156249993946,325.3121795000043,325.29616519995034,325.39636779995635,325.79608309990726,None,left,1,0.4399002999998629,325.79608309990726,None,325.29616519995034,325.39636779995635,325.39636779995635,None,326.2636500999797,None,,,,,,,11016,001,2024_Jan_04_1345,ANT,2021.2.3,59.938922219761615,
1,6,no,down,C,R,,,,,,Block.xlsx,"你已经完成了整个实验（三个区组）。

请报告实验者已完成实验

非常感谢，再见！",50,0,-1.5,right,RRRRR.png,,,,,0,1,1,1,0,4,4,5,,,,,,,,,,,,,,,,,,,,,,,,,,,,,,,,,,,,,,,,,,,,,,,,,,,,,,,,,,,,,,,,326.6642132999841,327.065463499981,327.04957469995134,327.1490542999236,327.54885539994575,None,right,1,0.45478850009385496,327.54885539994575,None,327.04957469995134,327.1490542999236,327.1490542999236,None,328.03291609999724,None,,,,,,,11016,001,2024_Jan_04_1345,ANT,2021.2.3,59.938922219761615,
1,20,spatial,up,IC,R,,,,,,Block.xlsx,"你已经完成了整个实验（三个区组）。

请报告实验者已完成实验

非常感谢，再见！",1.5,0,1.5,right,LLRLL.png,,,,,0,1,1,1,0,5,5,19,,,,,,,,,,,,,,,,,,,,,,,,,,,,,,,,,,,,,,,,,,,,,,,,,,,,,,,,,,,,,,,,328.43351879995316,328.83461209991947,328.81803269998636,328.9173772999784,329.3200034999754,None,left,0,0.3476932999910787,329.3200034999754,None,328.81803269998636,328.9173772999784,328.9173772999784,None,329.6855601000134,None,,,,,,,11016,001,2024_Jan_04_1345,ANT,2021.2.3,59.938922219761615,
1,20,spatial,up,IC,R,,,,,,Block.xlsx,"你已经完成了整个实验（三个区组）。

请报告实验者已完成实验

非常感谢，再见！",1.5,0,1.5,right,LLRLL.png,,,,,0,1,1,1,0,6,6,19,,,,,,,,,,,,,,,,,,,,,,,,,,,,,,,,,,,,,,,,,,,,,,,,,,,,,,,,,,,,,,,,330.0858838999411,330.4883614999708,330.4706277999794,330.56985049997456,330.971836599987,None,right,1,0.43243590008933097,330.971836599987,None,330.4706277999794,330.56985049997456,330.56985049997456,None,331.42134060000535,None,,,,,,,11016,001,2024_Jan_04_1345,ANT,2021.2.3,59.938922219761615,
1,22,spatial,down,C,R,,,,,,Block.xlsx,"你已经完成了整个实验（三个区组）。

请报告实验者已完成实验

非常感谢，再见！",-1.5,0,-1.5,right,RRRRR.png,,,,,0,1,1,1,0,7,7,21,,,,,,,,,,,,,,,,,,,,,,,,,,,,,,,,,,,,,,,,,,,,,,,,,,,,,,,,,,,,,,,,331.82174259994645,332.2247289000079,332.20658579992596,332.3065071000019,332.70718819997273,None,right,1,0.41672570002265275,332.70718819997273,None,332.20658579992596,332.3065071000019,332.3065071000019,None,333.1403752999613,None,,,,,,,11016,001,2024_Jan_04_1345,ANT,2021.2.3,59.938922219761615,
1,18,spatial,up,C,R,,,,,,Block.xlsx,"你已经完成了整个实验（三个区组）。

请报告实验者已完成实验

非常感谢，再见！",1.5,0,1.5,right,RRRRR.png,,,,,0,1,1,1,0,8,8,17,,,,,,,,,,,,,,,,,,,,,,,,,,,,,,,,,,,,,,,,,,,,,,,,,,,,,,,,,,,,,,,,333.54114999994636,333.94352949992754,333.92507869994733,334.02587329992093,334.4256588999415,None,right,1,0.36222079989966005,334.4256588999415,None,333.92507869994733,334.02587329992093,334.02587329992093,None,334.80957439995836,None,,,,,,,11016,001,2024_Jan_04_1345,ANT,2021.2.3,59.938922219761615,
1,17,spatial,up,C,L,,,,,,Block.xlsx,"你已经完成了整个实验（三个区组）。

请报告实验者已完成实验

非常感谢，再见！",1.5,0,1.5,left,LLLLL.png,,,,,0,1,1,1,0,9,9,16,,,,,,,,,,,,,,,,,,,,,,,,,,,,,,,,,,,,,,,,,,,,,,,,,,,,,,,,,,,,,,,,335.2102380999131,335.611751099932,335.59399259998463,335.695647799992,336.0947669999441,None,left,1,0.4448518001008779,336.0947669999441,None,335.59399259998463,335.695647799992,335.695647799992,None,336.5623470999999,None,,,,,,,11016,001,2024_Jan_04_1345,ANT,2021.2.3,59.938922219761615,
1,18,spatial,up,C,R,,,,,,Block.xlsx,"你已经完成了整个实验（三个区组）。

请报告实验者已完成实验

非常感谢，再见！",1.5,0,1.5,right,RRRRR.png,,,,,0,1,1,1,0,10,10,17,,,,,,,,,,,,,,,,,,,,,,,,,,,,,,,,,,,,,,,,,,,,,,,,,,,,,,,,,,,,,,,,336.9626145999646,337.3646606999682,337.34784399997443,337.4488291000016,337.8481558000203,None,right,1,0.34778720000758767,337.8481558000203,None,337.34784399997443,337.4488291000016,337.4488291000016,None,338.2148240999086,None,,,,,,,11016,001,2024_Jan_04_1345,ANT,2021.2.3,59.938922219761615,
1,17,spatial,up,C,L,,,,,,Block.xlsx,"你已经完成了整个实验（三个区组）。

请报告实验者已完成实验

非常感谢，再见！",1.5,0,1.5,left,LLLLL.png,,,,,0,1,1,1,0,11,11,16,,,,,,,,,,,,,,,,,,,,,,,,,,,,,,,,,,,,,,,,,,,,,,,,,,,,,,,,,,,,,,,,338.6159618999809,339.0157868999522,338.99985549994744,339.09998850000557,339.5019444999052,None,left,1,0.3736162999412045,339.5019444999052,None,338.99985549994744,339.09998850000557,339.09998850000557,None,339.9012267999351,None,,,,,,,11016,001,2024_Jan_04_1345,ANT,2021.2.3,59.938922219761615,
1,1,no,up,C,L,,,,,,Block.xlsx,"你已经完成了整个实验（三个区组）。

请报告实验者已完成实验

非常感谢，再见！",50,0,1.5,left,LLLLL.png,,,,,0,1,1,1,0,12,12,0,,,,,,,,,,,,,,,,,,,,,,,,,,,,,,,,,,,,,,,,,,,,,,,,,,,,,,,,,,,,,,,,340.3021640999941,340.7017591999611,340.6853817999363,340.78567379992455,341.1856812000042,None,left,1,0.5540711999638006,341.1856812000042,None,340.6853817999363,340.78567379992455,340.78567379992455,None,341.7698988999473,None,,,,,,,11016,001,2024_Jan_04_1345,ANT,2021.2.3,59.938922219761615,
1,11,center,up,IC,L,,,,,,Block.xlsx,"你已经完成了整个实验（三个区组）。

请报告实验者已完成实验

非常感谢，再见！",0,50,1.5,left,RRLRR.png,,,,,0,1,1,1,0,13,13,10,,,,,,,,,,,,,,,,,,,,,,,,,,,,,,,,,,,,,,,,,,,,,,,,,,,,,,,,,,,,,,,,342.17182749998756,342.57174619997386,342.55535299994517,342.65529019990936,343.0560604999773,None,left,1,0.5074859000742435,343.0560604999773,None,342.55535299994517,342.65529019990936,342.65529019990936,None,343.58930829993915,None,,,,,,,11016,001,2024_Jan_04_1345,ANT,2021.2.3,59.938922219761615,
1,7,no,down,IC,L,,,,,,Block.xlsx,"你已经完成了整个实验（三个区组）。

请报告实验者已完成实验

非常感谢，再见！",50,0,-1.5,left,RRLRR.png,,,,,0,1,1,1,0,14,14,6,,,,,,,,,,,,,,,,,,,,,,,,,,,,,,,,,,,,,,,,,,,,,,,,,,,,,,,,,,,,,,,,343.9909887999529,344.39115259994287,344.3750734999776,344.47597219992895,344.87462939997204,None,left,1,0.6495827999897301,344.87462939997204,None,344.3750734999776,344.47597219992895,344.47597219992895,None,345.54226099990774,None,,,,,,,11016,001,2024_Jan_04_1345,ANT,2021.2.3,59.938922219761615,
1,17,spatial,up,C,L,,,,,,Block.xlsx,"你已经完成了整个实验（三个区组）。

请报告实验者已完成实验

非常感谢，再见！",1.5,0,1.5,left,LLLLL.png,,,,,0,1,1,1,0,15,15,16,,,,,,,,,,,,,,,,,,,,,,,,,,,,,,,,,,,,,,,,,,,,,,,,,,,,,,,,,,,,,,,,345.9427936999127,346.3439996999223,346.32733469991945,346.4286701999372,346.829538699938,None,left,1,0.5261467000236735,346.829538699938,None,346.32733469991945,346.4286701999372,346.4286701999372,None,347.3786114999093,None,,,,,,,11016,001,2024_Jan_04_1345,ANT,2021.2.3,59.938922219761615,
1,16,center,down,IC,R,,,,,,Block.xlsx,"你已经完成了整个实验（三个区组）。

请报告实验者已完成实验

非常感谢，再见！",0,50,-1.5,right,LLRLL.png,,,,,0,1,1,1,0,16,16,15,,,,,,,,,,,,,,,,,,,,,,,,,,,,,,,,,,,,,,,,,,,,,,,,,,,,,,,,,,,,,,,,347.77880669990554,348.18111449992284,348.1635237999726,348.2646273999708,348.6655626000138,None,right,1,0.5542080000741407,348.6655626000138,None,348.1635237999726,348.2646273999708,348.2646273999708,None,349.24761979992036,None,,,,,,,11016,001,2024_Jan_04_1345,ANT,2021.2.3,59.938922219761615,
1,5,no,down,C,L,,,,,,Block.xlsx,"你已经完成了整个实验（三个区组）。

请报告实验者已完成实验

非常感谢，再见！",50,0,-1.5,left,LLLLL.png,,,,,0,1,1,1,0,17,17,4,,,,,,,,,,,,,,,,,,,,,,,,,,,,,,,,,,,,,,,,,,,,,,,,,,,,,,,,,,,,,,,,349.648295699968,350.0495284999488,350.03222729999106,350.1345135999145,350.5331091999542,None,left,1,0.5672065999824554,350.5331091999542,None,350.03222729999106,350.1345135999145,350.1345135999145,None,351.1171250999905,None,,,,,,,11016,001,2024_Jan_04_1345,ANT,2021.2.3,59.938922219761615,
1,6,no,down,C,R,,,,,,Block.xlsx,"你已经完成了整个实验（三个区组）。

请报告实验者已完成实验

非常感谢，再见！",50,0,-1.5,right,RRRRR.png,,,,,0,1,1,1,0,18,18,5,,,,,,,,,,,,,,,,,,,,,,,,,,,,,,,,,,,,,,,,,,,,,,,,,,,,,,,,,,,,,,,,351.51893709995784,351.91857809992507,351.903402499971,352.00195770000573,352.40337569999974,None,right,1,0.5203895000740886,352.40337569999974,None,351.903402499971,352.00195770000573,352.00195770000573,None,352.95297019998543,None,,,,,,,11016,001,2024_Jan_04_1345,ANT,2021.2.3,59.938922219761615,
1,20,spatial,up,IC,R,,,,,,Block.xlsx,"你已经完成了整个实验（三个区组）。

请报告实验者已完成实验

非常感谢，再见！",1.5,0,1.5,right,LLRLL.png,,,,,0,1,1,1,0,19,19,19,,,,,,,,,,,,,,,,,,,,,,,,,,,,,,,,,,,,,,,,,,,,,,,,,,,,,,,,,,,,,,,,353.3538128999062,353.754417499993,353.73824520001654,353.83877659996506,354.23964949999936,None,right,1,0.5162659999914467,354.23964949999936,None,353.73824520001654,353.83877659996506,353.83877659996506,None,354.7723497999832,None,,,,,,,11016,001,2024_Jan_04_1345,ANT,2021.2.3,59.938922219761615,
1,4,no,up,IC,R,,,,,,Block.xlsx,"你已经完成了整个实验（三个区组）。

请报告实验者已完成实验

非常感谢，再见！",50,0,1.5,right,LLRLL.png,,,,,0,1,1,1,0,20,20,3,,,,,,,,,,,,,,,,,,,,,,,,,,,,,,,,,,,,,,,,,,,,,,,,,,,,,,,,,,,,,,,,355.1739331999561,355.57370820001233,355.55879229994025,355.6593632999575,356.0589960999787,None,right,1,0.47279840009287,356.0589960999787,None,355.55879229994025,355.6593632999575,355.6593632999575,None,356.5587916999357,None,,,,,,,11016,001,2024_Jan_04_1345,ANT,2021.2.3,59.938922219761615,
1,15,center,down,IC,L,,,,,,Block.xlsx,"你已经完成了整个实验（三个区组）。

请报告实验者已完成实验

非常感谢，再见！",0,50,-1.5,left,RRLRR.png,,,,,0,1,1,1,0,21,21,14,,,,,,,,,,,,,,,,,,,,,,,,,,,,,,,,,,,,,,,,,,,,,,,,,,,,,,,,,,,,,,,,356.95904919994064,357.36058340000454,357.3436793999281,357.44368519994896,357.84434569999576,None,left,1,0.6873639000114053,357.84434569999576,None,357.3436793999281,357.44368519994896,357.44368519994896,None,358.56236480001826,None,,,,,,,11016,001,2024_Jan_04_1345,ANT,2021.2.3,59.938922219761615,
1,16,center,down,IC,R,,,,,,Block.xlsx,"你已经完成了整个实验（三个区组）。

请报告实验者已完成实验

非常感谢，再见！",0,50,-1.5,right,LLRLL.png,,,,,0,1,1,1,0,22,22,15,,,,,,,,,,,,,,,,,,,,,,,,,,,,,,,,,,,,,,,,,,,,,,,,,,,,,,,,,,,,,,,,358.9620051999809,359.3644359000027,359.3467947000172,359.4463634999702,359.8473500999389,None,right,1,0.6922749999212101,359.8473500999389,None,359.3467947000172,359.4463634999702,359.4463634999702,None,360.5643987999065,None,,,,,,,11016,001,2024_Jan_04_1345,ANT,2021.2.3,59.938922219761615,
1,11,center,up,IC,L,,,,,,Block.xlsx,"你已经完成了整个实验（三个区组）。

请报告实验者已完成实验

非常感谢，再见！",0,50,1.5,left,RRLRR.png,,,,,0,1,1,1,0,23,23,10,,,,,,,,,,,,,,,,,,,,,,,,,,,,,,,,,,,,,,,,,,,,,,,,,,,,,,,,,,,,,,,,360.96499060001224,361.3653076000046,361.3488792999415,361.4489353999961,361.8501632999396,None,left,1,0.4663917999714613,361.8501632999396,None,361.3488792999415,361.4489353999961,361.4489353999961,None,362.3337518000044,None,,,,,,,11016,001,2024_Jan_04_1345,ANT,2021.2.3,59.938922219761615,
1,19,spatial,up,IC,L,,,,,,Block.xlsx,"你已经完成了整个实验（三个区组）。

请报告实验者已完成实验

非常感谢，再见！",1.5,0,1.5,left,RRLRR.png,,,,,0,1,1,1,1,0,24,18,,,,,,,,,,,,,,,,,,,,,,,,,,,,,,,,,,,,,,,,,,,,,,,,,,,,,,,,,,,,,,,,362.73510239995085,363.1349789999658,363.1198890999658,363.21844969992526,363.6201536000008,None,left,1,0.4396044999593869,363.6201536000008,None,363.1198890999658,363.21844969992526,363.21844969992526,None,364.08638679992873,None,,,,,,,11016,001,2024_Jan_04_1345,ANT,2021.2.3,59.938922219761615,
1,8,no,down,IC,R,,,,,,Block.xlsx,"你已经完成了整个实验（三个区组）。

请报告实验者已完成实验

非常感谢，再见！",50,0,-1.5,right,LLRLL.png,,,,,0,1,1,1,1,1,25,7,,,,,,,,,,,,,,,,,,,,,,,,,,,,,,,,,,,,,,,,,,,,,,,,,,,,,,,,,,,,,,,,364.4868299999507,364.88764239999,364.87189199996646,364.97276529995725,365.371699100011,None,right,1,0.5846171999583021,365.371699100011,None,364.87189199996646,364.97276529995725,364.97276529995725,None,365.9723474999191,None,,,,,,,11016,001,2024_Jan_04_1345,ANT,2021.2.3,59.938922219761615,
1,20,spatial,up,IC,R,,,,,,Block.xlsx,"你已经完成了整个实验（三个区组）。

请报告实验者已完成实验

非常感谢，再见！",1.5,0,1.5,right,LLRLL.png,,,,,0,1,1,1,1,2,26,19,,,,,,,,,,,,,,,,,,,,,,,,,,,,,,,,,,,,,,,,,,,,,,,,,,,,,,,,,,,,,,,,366.3730853999732,366.77597650000826,366.7569697999861,366.85898879996967,367.257695499924,None,right,1,0.4098544999724254,367.257695499924,None,366.7569697999861,366.85898879996967,366.85898879996967,None,367.69163399992976,None,,,,,,,11016,001,2024_Jan_04_1345,ANT,2021.2.3,59.938922219761615,
1,9,center,up,C,L,,,,,,Block.xlsx,"你已经完成了整个实验（三个区组）。

请报告实验者已完成实验

非常感谢，再见！",0,50,1.5,left,LLLLL.png,,,,,0,1,1,1,1,3,27,8,,,,,,,,,,,,,,,,,,,,,,,,,,,,,,,,,,,,,,,,,,,,,,,,,,,,,,,,,,,,,,,,368.0922294999473,368.49327709991485,368.47606869996525,368.57632849994116,368.97786059998907,None,left,1,0.4984709999989718,368.97786059998907,None,368.47606869996525,368.57632849994116,368.57632849994116,None,369.4944569999352,None,,,,,,,11016,001,2024_Jan_04_1345,ANT,2021.2.3,59.938922219761615,
1,11,center,up,IC,L,,,,,,Block.xlsx,"你已经完成了整个实验（三个区组）。

请报告实验者已完成实验

非常感谢，再见！",0,50,1.5,left,RRLRR.png,,,,,0,1,1,1,1,4,28,10,,,,,,,,,,,,,,,,,,,,,,,,,,,,,,,,,,,,,,,,,,,,,,,,,,,,,,,,,,,,,,,,369.89529429993127,370.2957422999898,370.27922789996956,370.3799203999806,370.77963150001597,None,left,1,0.50390020001214,370.77963150001597,None,370.27922789996956,370.3799203999806,370.3799203999806,None,371.3141112999292,None,,,,,,,11016,001,2024_Jan_04_1345,ANT,2021.2.3,59.938922219761615,
1,24,spatial,down,IC,R,,,,,,Block.xlsx,"你已经完成了整个实验（三个区组）。

请报告实验者已完成实验

非常感谢，再见！",-1.5,0,-1.5,right,LLRLL.png,,,,,0,1,1,1,1,5,29,23,,,,,,,,,,,,,,,,,,,,,,,,,,,,,,,,,,,,,,,,,,,,,,,,,,,,,,,,,,,,,,,,371.71462989994325,372.1169708999805,372.0987812000094,372.19838239997625,372.5990985999815,None,right,1,0.5729863999877125,372.5990985999815,None,372.0987812000094,372.19838239997625,372.19838239997625,None,373.20015829999465,None,,,,,,,11016,001,2024_Jan_04_1345,ANT,2021.2.3,59.938922219761615,
1,24,spatial,down,IC,R,,,,,,Block.xlsx,"你已经完成了整个实验（三个区组）。

请报告实验者已完成实验

非常感谢，再见！",-1.5,0,-1.5,right,LLRLL.png,,,,,0,1,1,1,1,6,30,23,,,,,,,,,,,,,,,,,,,,,,,,,,,,,,,,,,,,,,,,,,,,,,,,,,,,,,,,,,,,,,,,373.60051419993397,374.0016840000171,373.985028999974,374.0844978999812,374.48569769994356,None,right,1,0.3739703999599442,374.48569769994356,None,373.985028999974,374.0844978999812,374.0844978999812,None,374.88632659998257,None,,,,,,,11016,001,2024_Jan_04_1345,ANT,2021.2.3,59.938922219761615,
1,8,no,down,IC,R,,,,,,Block.xlsx,"你已经完成了整个实验（三个区组）。

请报告实验者已完成实验

非常感谢，再见！",50,0,-1.5,right,LLRLL.png,,,,,0,1,1,1,1,7,31,7,,,,,,,,,,,,,,,,,,,,,,,,,,,,,,,,,,,,,,,,,,,,,,,,,,,,,,,,,,,,,,,,375.28635499998927,375.68737409997266,375.67105469992384,375.77235280000605,376.1716878999723,None,right,1,0.5128629000391811,376.1716878999723,None,375.67105469992384,375.77235280000605,375.77235280000605,None,376.7050739999395,None,,,,,,,11016,001,2024_Jan_04_1345,ANT,2021.2.3,59.938922219761615,
1,7,no,down,IC,L,,,,,,Block.xlsx,"你已经完成了整个实验（三个区组）。

请报告实验者已完成实验

非常感谢，再见！",50,0,-1.5,left,RRLRR.png,,,,,0,1,1,1,1,8,32,6,,,,,,,,,,,,,,,,,,,,,,,,,,,,,,,,,,,,,,,,,,,,,,,,,,,,,,,,,,,,,,,,377.10652999999,377.5074333999073,377.49038019997533,377.5903489999473,377.99190119991545,None,left,1,0.5643154999706894,377.99190119991545,None,377.49038019997533,377.5903489999473,377.5903489999473,None,378.5747764999978,None,,,,,,,11016,001,2024_Jan_04_1345,ANT,2021.2.3,59.938922219761615,
1,13,center,down,C,L,,,,,,Block.xlsx,"你已经完成了整个实验（三个区组）。

请报告实验者已完成实验

非常感谢，再见！",0,50,-1.5,left,LLLLL.png,,,,,0,1,1,1,1,9,33,12,,,,,,,,,,,,,,,,,,,,,,,,,,,,,,,,,,,,,,,,,,,,,,,,,,,,,,,,,,,,,,,,378.975445899996,379.37634339998476,379.3610038999468,379.4771610000171,379.85996219993103,None,left,1,0.46364339999854565,379.85996219993103,None,379.3610038999468,379.4771610000171,379.4597166000167,None,380.34394519997295,None,,,,,,,11016,001,2024_Jan_04_1345,ANT,2021.2.3,59.938922219761615,
1,13,center,down,C,L,,,,,,Block.xlsx,"你已经完成了整个实验（三个区组）。

请报告实验者已完成实验

非常感谢，再见！",0,50,-1.5,left,LLLLL.png,,,,,0,1,1,1,1,10,34,12,,,,,,,,,,,,,,,,,,,,,,,,,,,,,,,,,,,,,,,,,,,,,,,,,,,,,,,,,,,,,,,,380.7449001999339,381.1461605000077,381.1287209999282,381.22938689996954,381.6300454000011,None,left,1,0.37358979997225106,381.6300454000011,None,381.1287209999282,381.22938689996954,381.22938689996954,None,382.0303319999948,None,,,,,,,11016,001,2024_Jan_04_1345,ANT,2021.2.3,59.938922219761615,
1,22,spatial,down,C,R,,,,,,Block.xlsx,"你已经完成了整个实验（三个区组）。

请报告实验者已完成实验

非常感谢，再见！",-1.5,0,-1.5,right,RRRRR.png,,,,,0,1,1,1,1,11,35,21,,,,,,,,,,,,,,,,,,,,,,,,,,,,,,,,,,,,,,,,,,,,,,,,,,,,,,,,,,,,,,,,382.43025989993475,382.8318681999808,382.8141080000205,382.9147138999542,383.31492439995054,None,right,1,0.4168459000065923,383.31492439995054,None,382.8141080000205,382.9147138999542,382.9147138999542,None,383.7485857999418,None,,,,,,,11016,001,2024_Jan_04_1345,ANT,2021.2.3,59.938922219761615,
1,21,spatial,down,C,L,,,,,,Block.xlsx,"你已经完成了整个实验（三个区组）。

请报告实验者已完成实验

非常感谢，再见！",-1.5,0,-1.5,left,LLLLL.png,,,,,0,1,1,1,1,12,36,20,,,,,,,,,,,,,,,,,,,,,,,,,,,,,,,,,,,,,,,,,,,,,,,,,,,,,,,,,,,,,,,,384.15021170000546,384.551092299982,384.5334503999911,384.63515489990823,385.03391729993746,None,left,1,0.3938902000663802,385.03391729993746,None,384.5334503999911,384.63515489990823,384.63515489990823,None,385.4515182999894,None,,,,,,,11016,001,2024_Jan_04_1345,ANT,2021.2.3,59.938922219761615,
1,3,no,up,IC,L,,,,,,Block.xlsx,"你已经完成了整个实验（三个区组）。

请报告实验者已完成实验

非常感谢，再见！",50,0,1.5,left,RRLRR.png,,,,,0,1,1,1,1,13,37,2,,,,,,,,,,,,,,,,,,,,,,,,,,,,,,,,,,,,,,,,,,,,,,,,,,,,,,,,,,,,,,,,385.8519187999191,386.2531783999875,386.2365881999722,386.3375073999632,386.73784519999754,None,left,1,0.7542329999851063,386.73784519999754,None,386.2365881999722,386.3375073999632,386.3375073999632,None,387.5211577999871,None,,,,,,,11016,001,2024_Jan_04_1345,ANT,2021.2.3,59.938922219761615,
1,10,center,up,C,R,,,,,,Block.xlsx,"你已经完成了整个实验（三个区组）。

请报告实验者已完成实验

非常感谢，再见！",0,50,1.5,right,RRRRR.png,,,,,0,1,1,1,1,14,38,9,,,,,,,,,,,,,,,,,,,,,,,,,,,,,,,,,,,,,,,,,,,,,,,,,,,,,,,,,,,,,,,,387.92169759992976,388.32261399994604,388.307186299935,388.4058078000089,388.80702979990747,None,right,1,0.45265920006204396,388.80702979990747,None,388.307186299935,388.4058078000089,388.4058078000089,None,389.29029159992933,None,,,,,,,11016,001,2024_Jan_04_1345,ANT,2021.2.3,59.938922219761615,
1,12,center,up,IC,R,,,,,,Block.xlsx,"你已经完成了整个实验（三个区组）。

请报告实验者已完成实验

非常感谢，再见！",0,50,1.5,right,LLRLL.png,,,,,0,1,1,1,1,15,39,11,,,,,,,,,,,,,,,,,,,,,,,,,,,,,,,,,,,,,,,,,,,,,,,,,,,,,,,,,,,,,,,,389.6910393999424,390.092156699975,390.0769946000073,390.17655550001655,390.5755482999375,None,right,1,0.5480784999672323,390.5755482999375,None,390.0769946000073,390.17655550001655,390.17655550001655,None,391.1431633000029,None,,,,,,,11016,001,2024_Jan_04_1345,ANT,2021.2.3,59.938922219761615,
1,12,center,up,IC,R,,,,,,Block.xlsx,"你已经完成了整个实验（三个区组）。

请报告实验者已完成实验

非常感谢，再见！",0,50,1.5,right,LLRLL.png,,,,,0,1,1,1,1,16,40,11,,,,,,,,,,,,,,,,,,,,,,,,,,,,,,,,,,,,,,,,,,,,,,,,,,,,,,,,,,,,,,,,391.54364049993455,391.94623549992684,391.9280642999802,392.0277036000043,392.42836219992023,None,right,1,0.4953033000929281,392.42836219992023,None,391.9280642999802,392.0277036000043,392.0277036000043,None,392.9457194999559,None,,,,,,,11016,001,2024_Jan_04_1345,ANT,2021.2.3,59.938922219761615,
1,4,no,up,IC,R,,,,,,Block.xlsx,"你已经完成了整个实验（三个区组）。

请报告实验者已完成实验

非常感谢，再见！",50,0,1.5,right,LLRLL.png,,,,,0,1,1,1,1,17,41,3,,,,,,,,,,,,,,,,,,,,,,,,,,,,,,,,,,,,,,,,,,,,,,,,,,,,,,,,,,,,,,,,393.34625669999514,393.74823559995275,393.73032839992084,393.8316948999418,394.23186780000106,None,right,1,0.764677400002256,394.23186780000106,None,393.73032839992084,393.8316948999418,393.8316948999418,None,395.01553889992647,None,,,,,,,11016,001,2024_Jan_04_1345,ANT,2021.2.3,59.938922219761615,
1,24,spatial,down,IC,R,,,,,,Block.xlsx,"你已经完成了整个实验（三个区组）。

请报告实验者已完成实验

非常感谢，再见！",-1.5,0,-1.5,right,LLRLL.png,,,,,0,1,1,1,1,18,42,23,,,,,,,,,,,,,,,,,,,,,,,,,,,,,,,,,,,,,,,,,,,,,,,,,,,,,,,,,,,,,,,,395.4160378999077,395.8174049999798,395.8010681999149,395.90038789995015,396.30150609998964,None,right,1,0.4707538998918608,396.30150609998964,None,395.8010681999149,395.90038789995015,395.90038789995015,None,396.8016551999608,None,,,,,,,11016,001,2024_Jan_04_1345,ANT,2021.2.3,59.938922219761615,
1,4,no,up,IC,R,,,,,,Block.xlsx,"你已经完成了整个实验（三个区组）。

请报告实验者已完成实验

非常感谢，再见！",50,0,1.5,right,LLRLL.png,,,,,0,1,1,1,1,19,43,3,,,,,,,,,,,,,,,,,,,,,,,,,,,,,,,,,,,,,,,,,,,,,,,,,,,,,,,,,,,,,,,,397.20272409997415,397.6034831999568,397.5875545999734,397.68662199995015,398.08771789993625,None,right,1,0.5881309999385849,398.08771789993625,None,397.5875545999734,397.68662199995015,397.68662199995015,None,398.7049570999807,None,,,,,,,11016,001,2024_Jan_04_1345,ANT,2021.2.3,59.938922219761615,
1,22,spatial,down,C,R,,,,,,Block.xlsx,"你已经完成了整个实验（三个区组）。

请报告实验者已完成实验

非常感谢，再见！",-1.5,0,-1.5,right,RRRRR.png,,,,,0,1,1,1,1,20,44,21,,,,,,,,,,,,,,,,,,,,,,,,,,,,,,,,,,,,,,,,,,,,,,,,,,,,,,,,,,,,,,,,399.1050333000021,399.506248199963,399.4894930999726,399.58907049999107,399.98971809993964,None,right,1,0.3504440999822691,399.98971809993964,None,399.4894930999726,399.58907049999107,399.58907049999107,None,400.35674849990755,None,,,,,,,11016,001,2024_Jan_04_1345,ANT,2021.2.3,59.938922219761615,
1,15,center,down,IC,L,,,,,,Block.xlsx,"你已经完成了整个实验（三个区组）。

请报告实验者已完成实验

非常感谢，再见！",0,50,-1.5,left,RRLRR.png,,,,,0,1,1,1,1,21,45,14,,,,,,,,,,,,,,,,,,,,,,,,,,,,,,,,,,,,,,,,,,,,,,,,,,,,,,,,,,,,,,,,400.757424899959,401.15933779999614,401.14128390001133,401.24213279993273,401.643261399935,None,left,1,0.5846218999940902,401.643261399935,None,401.14128390001133,401.24213279993273,401.24213279993273,None,402.242968800012,None,,,,,,,11016,001,2024_Jan_04_1345,ANT,2021.2.3,59.938922219761615,
1,18,spatial,up,C,R,,,,,,Block.xlsx,"你已经完成了整个实验（三个区组）。

请报告实验者已完成实验

非常感谢，再见！",1.5,0,1.5,right,RRRRR.png,,,,,0,1,1,1,1,22,46,17,,,,,,,,,,,,,,,,,,,,,,,,,,,,,,,,,,,,,,,,,,,,,,,,,,,,,,,,,,,,,,,,402.6432849999983,403.0453019000124,403.02720030001365,403.12764399999287,403.5285901000025,None,right,1,0.3551348999608308,403.5285901000025,None,403.02720030001365,403.12764399999287,403.12764399999287,None,403.9118310000049,None,,,,,,,11016,001,2024_Jan_04_1345,ANT,2021.2.3,59.938922219761615,
1,1,no,up,C,L,,,,,,Block.xlsx,"你已经完成了整个实验（三个区组）。

请报告实验者已完成实验

非常感谢，再见！",50,0,1.5,left,LLLLL.png,,,,,0,1,1,1,1,23,47,0,,,,,,,,,,,,,,,,,,,,,,,,,,,,,,,,,,,,,,,,,,,,,,,,,,,,,,,,,,,,,,,,404.31257489998825,404.71486019995064,404.69667590002064,404.7975623999955,405.19810239993967,None,left,1,0.5254268000135198,405.19810239993967,None,404.69667590002064,404.7975623999955,404.7975623999955,None,405.74792899994645,None,,,,,,,11016,001,2024_Jan_04_1345,ANT,2021.2.3,59.938922219761615,
1,23,spatial,down,IC,L,,,,,,Block.xlsx,"你已经完成了整个实验（三个区组）。

请报告实验者已完成实验

非常感谢，再见！",-1.5,0,-1.5,left,RRLRR.png,,,,,0,1,1,1,2,0,48,22,,,,,,,,,,,,,,,,,,,,,,,,,,,,,,,,,,,,,,,,,,,,,,,,,,,,,,,,,,,,,,,,406.1495807999745,406.55087059992366,406.53289849997964,406.63302559999283,407.0341252000071,None,left,1,0.4575549999717623,407.0341252000071,None,406.53289849997964,406.63302559999283,406.63302559999283,None,407.5181447999785,None,,,,,,,11016,001,2024_Jan_04_1345,ANT,2021.2.3,59.938922219761615,
1,13,center,down,C,L,,,,,,Block.xlsx,"你已经完成了整个实验（三个区组）。

请报告实验者已完成实验

非常感谢，再见！",0,50,-1.5,left,LLLLL.png,,,,,0,1,1,1,2,1,49,12,,,,,,,,,,,,,,,,,,,,,,,,,,,,,,,,,,,,,,,,,,,,,,,,,,,,,,,,,,,,,,,,407.91952739993576,408.318358499906,408.3031632999191,408.4191458999412,408.8039992999984,None,left,1,0.48774880007840693,408.8039992999984,None,408.3031632999191,408.4191458999412,408.40357490000315,None,409.3206338000018,None,,,,,,,11016,001,2024_Jan_04_1345,ANT,2021.2.3,59.938922219761615,
1,9,center,up,C,L,,,,,,Block.xlsx,"你已经完成了整个实验（三个区组）。

请报告实验者已完成实验

非常感谢，再见！",0,50,1.5,left,LLLLL.png,,,,,0,1,1,1,2,2,50,8,,,,,,,,,,,,,,,,,,,,,,,,,,,,,,,,,,,,,,,,,,,,,,,,,,,,,,,,,,,,,,,,409.72090559999924,410.12307289999444,410.1045364999445,410.2057505999692,410.60720600001514,None,left,1,0.45238599996082485,410.60720600001514,None,410.1045364999445,410.2057505999692,410.2057505999692,None,411.0893042999087,None,,,,,,,11016,001,2024_Jan_04_1345,ANT,2021.2.3,59.938922219761615,
1,3,no,up,IC,L,,,,,,Block.xlsx,"你已经完成了整个实验（三个区组）。

请报告实验者已完成实验

非常感谢，再见！",50,0,1.5,left,RRLRR.png,,,,,0,1,1,1,2,3,51,2,,,,,,,,,,,,,,,,,,,,,,,,,,,,,,,,,,,,,,,,,,,,,,,,,,,,,,,,,,,,,,,,411.49124220001977,411.89249060000293,411.8740711999126,411.9752284999704,412.3753548999084,None,left,1,0.7006544000469148,412.3753548999084,None,411.8740711999126,411.9752284999704,411.9752284999704,None,413.0923906000098,None,,,,,,,11016,001,2024_Jan_04_1345,ANT,2021.2.3,59.938922219761615,
1,10,center,up,C,R,,,,,,Block.xlsx,"你已经完成了整个实验（三个区组）。

请报告实验者已完成实验

非常感谢，再见！",0,50,1.5,right,RRRRR.png,,,,,0,1,1,1,2,4,52,9,,,,,,,,,,,,,,,,,,,,,,,,,,,,,,,,,,,,,,,,,,,,,,,,,,,,,,,,,,,,,,,,413.49328229995444,413.894842699985,413.87680500000715,413.9789769999916,414.378242900013,None,right,1,0.4977645999751985,414.378242900013,None,413.87680500000715,413.9789769999916,413.9789769999916,None,414.89597870002035,None,,,,,,,11016,001,2024_Jan_04_1345,ANT,2021.2.3,59.938922219761615,
1,19,spatial,up,IC,L,,,,,,Block.xlsx,"你已经完成了整个实验（三个区组）。

请报告实验者已完成实验

非常感谢，再见！",1.5,0,1.5,left,RRLRR.png,,,,,0,1,1,1,2,5,53,18,,,,,,,,,,,,,,,,,,,,,,,,,,,,,,,,,,,,,,,,,,,,,,,,,,,,,,,,,,,,,,,,415.2967241000151,415.69738319993485,415.6792370999465,415.7795721999137,416.1830293999519,None,left,1,0.4527196999406442,416.1830293999519,None,415.6792370999465,415.7795721999137,415.7795721999137,None,416.664324900019,None,,,,,,,11016,001,2024_Jan_04_1345,ANT,2021.2.3,59.938922219761615,
1,15,center,down,IC,L,,,,,,Block.xlsx,"你已经完成了整个实验（三个区组）。

请报告实验者已完成实验

非常感谢，再见！",0,50,-1.5,left,RRLRR.png,,,,,0,1,1,1,2,6,54,14,,,,,,,,,,,,,,,,,,,,,,,,,,,,,,,,,,,,,,,,,,,,,,,,,,,,,,,,,,,,,,,,417.0652551999083,417.46704789996147,417.44888069992885,417.55033150000963,417.9505524999695,None,left,1,0.6214315999532118,417.9505524999695,None,417.44888069992885,417.55033150000963,417.55033150000963,None,418.60036649997346,None,,,,,,,11016,001,2024_Jan_04_1345,ANT,2021.2.3,59.938922219761615,
1,2,no,up,C,R,,,,,,Block.xlsx,"你已经完成了整个实验（三个区组）。

请报告实验者已完成实验

非常感谢，再见！",50,0,1.5,right,RRRRR.png,,,,,0,1,1,1,2,7,55,1,,,,,,,,,,,,,,,,,,,,,,,,,,,,,,,,,,,,,,,,,,,,,,,,,,,,,,,,,,,,,,,,419.00144249992445,419.4026792999357,419.3849837000016,419.4871541999746,419.88619539991487,None,right,1,0.493538900045678,419.88619539991487,None,419.3849837000016,419.4871541999746,419.4871541999746,None,420.4031623000046,None,,,,,,,11016,001,2024_Jan_04_1345,ANT,2021.2.3,59.938922219761615,
1,21,spatial,down,C,L,,,,,,Block.xlsx,"你已经完成了整个实验（三个区组）。

请报告实验者已完成实验

非常感谢，再见！",-1.5,0,-1.5,left,LLLLL.png,,,,,0,1,1,1,2,8,56,20,,,,,,,,,,,,,,,,,,,,,,,,,,,,,,,,,,,,,,,,,,,,,,,,,,,,,,,,,,,,,,,,420.80443089990877,421.20479879993945,421.1884843999287,421.2888927999884,421.6885757999262,None,left,1,0.39522830001078546,421.6885757999262,None,421.1884843999287,421.2888927999884,421.2888927999884,None,422.1055193999782,None,,,,,,,11016,001,2024_Jan_04_1345,ANT,2021.2.3,59.938922219761615,
1,6,no,down,C,R,,,,,,Block.xlsx,"你已经完成了整个实验（三个区组）。

请报告实验者已完成实验

非常感谢，再见！",50,0,-1.5,right,RRRRR.png,,,,,0,1,1,1,2,9,57,5,,,,,,,,,,,,,,,,,,,,,,,,,,,,,,,,,,,,,,,,,,,,,,,,,,,,,,,,,,,,,,,,422.507125300006,422.9075282999547,422.89052729995456,422.9901321999496,423.3917640999425,None,right,1,0.5482942999806255,423.3917640999425,None,422.89052729995456,422.9901321999496,422.9901321999496,None,423.9583546000067,None,,,,,,,11016,001,2024_Jan_04_1345,ANT,2021.2.3,59.938922219761615,
1,24,spatial,down,IC,R,,,,,,Block.xlsx,"你已经完成了整个实验（三个区组）。

请报告实验者已完成实验

非常感谢，再见！",-1.5,0,-1.5,right,LLRLL.png,,,,,0,1,1,1,2,10,58,23,,,,,,,,,,,,,,,,,,,,,,,,,,,,,,,,,,,,,,,,,,,,,,,,,,,,,,,,,,,,,,,,424.3589809999103,424.76055589993484,424.74341799994,424.8432948999107,425.24426309997216,None,right,1,0.4637289000675082,425.24426309997216,None,424.74341799994,424.8432948999107,424.8432948999107,None,425.7277582999086,None,,,,,,,11016,001,2024_Jan_04_1345,ANT,2021.2.3,59.938922219761615,
1,21,spatial,down,C,L,,,,,,Block.xlsx,"你已经完成了整个实验（三个区组）。

请报告实验者已完成实验

非常感谢，再见！",-1.5,0,-1.5,left,LLLLL.png,,,,,0,1,1,1,2,11,59,20,,,,,,,,,,,,,,,,,,,,,,,,,,,,,,,,,,,,,,,,,,,,,,,,,,,,,,,,,,,,,,,,426.12828259996604,426.5304476999445,426.5132259000093,426.6125036999583,427.01503629994113,None,left,1,0.42108339990954846,427.01503629994113,None,426.5132259000093,426.6125036999583,426.6125036999583,None,427.46382479998283,None,,,,,,,11016,001,2024_Jan_04_1345,ANT,2021.2.3,59.938922219761615,
1,2,no,up,C,R,,,,,,Block.xlsx,"你已经完成了整个实验（三个区组）。

请报告实验者已完成实验

非常感谢，再见！",50,0,1.5,right,RRRRR.png,,,,,0,1,1,1,2,12,60,1,,,,,,,,,,,,,,,,,,,,,,,,,,,,,,,,,,,,,,,,,,,,,,,,,,,,,,,,,,,,,,,,427.8641029999126,428.2654921999201,428.2486077999929,428.3485680000158,428.74918619997334,None,right,1,0.5106716000009328,428.74918619997334,None,428.2486077999929,428.3485680000158,428.3485680000158,None,429.2830256000161,None,,,,,,,11016,001,2024_Jan_04_1345,ANT,2021.2.3,59.938922219761615,
1,14,center,down,C,R,,,,,,Block.xlsx,"你已经完成了整个实验（三个区组）。

请报告实验者已完成实验

非常感谢，再见！",0,50,-1.5,right,RRRRR.png,,,,,0,1,1,1,2,13,61,13,,,,,,,,,,,,,,,,,,,,,,,,,,,,,,,,,,,,,,,,,,,,,,,,,,,,,,,,,,,,,,,,429.6837809999706,430.0842652999563,430.0681368999649,430.16754819999915,430.5696278999094,None,right,1,0.4671077999519184,430.5696278999094,None,430.0681368999649,430.16754819999915,430.16754819999915,None,431.05229829996824,None,,,,,,,11016,001,2024_Jan_04_1345,ANT,2021.2.3,59.938922219761615,
1,14,center,down,C,R,,,,,,Block.xlsx,"你已经完成了整个实验（三个区组）。

请报告实验者已完成实验

非常感谢，再见！",0,50,-1.5,right,RRRRR.png,,,,,0,1,1,1,2,14,62,13,,,,,,,,,,,,,,,,,,,,,,,,,,,,,,,,,,,,,,,,,,,,,,,,,,,,,,,,,,,,,,,,431.4528085999191,431.8535119999433,431.83734819991514,431.93883210001513,432.3391341000097,None,right,1,0.40105520002543926,432.3391341000097,None,431.83734819991514,431.93883210001513,431.93883210001513,None,432.7549597999314,None,,,,,,,11016,001,2024_Jan_04_1345,ANT,2021.2.3,59.938922219761615,
1,19,spatial,up,IC,L,,,,,,Block.xlsx,"你已经完成了整个实验（三个区组）。

请报告实验者已完成实验

非常感谢，再见！",1.5,0,1.5,left,RRLRR.png,,,,,0,1,1,1,2,15,63,18,,,,,,,,,,,,,,,,,,,,,,,,,,,,,,,,,,,,,,,,,,,,,,,,,,,,,,,,,,,,,,,,433.1553347000154,433.5578788999701,433.54000179993454,433.6386285999324,434.04175390000455,None,left,1,0.42595730000175536,434.04175390000455,None,433.54000179993454,433.6386285999324,433.6386285999324,None,434.4911977999145,None,,,,,,,11016,001,2024_Jan_04_1345,ANT,2021.2.3,59.938922219761615,
1,19,spatial,up,IC,L,,,,,,Block.xlsx,"你已经完成了整个实验（三个区组）。

请报告实验者已完成实验

非常感谢，再见！",1.5,0,1.5,left,RRLRR.png,,,,,0,1,1,1,2,16,64,18,,,,,,,,,,,,,,,,,,,,,,,,,,,,,,,,,,,,,,,,,,,,,,,,,,,,,,,,,,,,,,,,434.8926075999625,435.2916632000124,435.27596479991917,435.37708799995016,435.77650299994275,None,left,1,0.34753000002820045,435.77650299994275,None,435.27596479991917,435.37708799995016,435.37708799995016,None,436.14397149998695,None,,,,,,,11016,001,2024_Jan_04_1345,ANT,2021.2.3,59.938922219761615,
1,1,no,up,C,L,,,,,,Block.xlsx,"你已经完成了整个实验（三个区组）。

请报告实验者已完成实验

非常感谢，再见！",50,0,1.5,left,LLLLL.png,,,,,0,1,1,1,2,17,65,0,,,,,,,,,,,,,,,,,,,,,,,,,,,,,,,,,,,,,,,,,,,,,,,,,,,,,,,,,,,,,,,,436.5443635999691,436.94590149994474,436.92756579990964,437.0288045000052,437.4290782000171,None,left,1,0.5186371000017971,437.4290782000171,None,436.92756579990964,437.0288045000052,437.0288045000052,None,437.9792866000207,None,,,,,,,11016,001,2024_Jan_04_1345,ANT,2021.2.3,59.938922219761615,
1,5,no,down,C,L,,,,,,Block.xlsx,"你已经完成了整个实验（三个区组）。

请报告实验者已完成实验

非常感谢，再见！",50,0,-1.5,left,LLLLL.png,,,,,0,1,1,1,2,18,66,4,,,,,,,,,,,,,,,,,,,,,,,,,,,,,,,,,,,,,,,,,,,,,,,,,,,,,,,,,,,,,,,,438.37967970001046,438.7809575999854,438.7652747000102,438.88247989991214,439.26461269997526,None,left,1,0.5150100000901148,439.26461269997526,None,438.7652747000102,438.88247989991214,438.86450829997193,None,439.79979169997387,None,,,,,,,11016,001,2024_Jan_04_1345,ANT,2021.2.3,59.938922219761615,
1,23,spatial,down,IC,L,,,,,,Block.xlsx,"你已经完成了整个实验（三个区组）。

请报告实验者已完成实验

非常感谢，再见！",-1.5,0,-1.5,left,RRLRR.png,,,,,0,1,1,1,2,19,67,22,,,,,,,,,,,,,,,,,,,,,,,,,,,,,,,,,,,,,,,,,,,,,,,,,,,,,,,,,,,,,,,,440.199535899912,440.6018341999734,440.58312059997115,440.68400959996507,441.0845232999418,None,left,1,0.45520749990828335,441.0845232999418,None,440.58312059997115,440.68400959996507,440.68400959996507,None,441.5677502999315,None,,,,,,,11016,001,2024_Jan_04_1345,ANT,2021.2.3,59.938922219761615,
1,8,no,down,IC,R,,,,,,Block.xlsx,"你已经完成了整个实验（三个区组）。

请报告实验者已完成实验

非常感谢，再见！",50,0,-1.5,right,LLRLL.png,,,,,0,1,1,1,2,20,68,7,,,,,,,,,,,,,,,,,,,,,,,,,,,,,,,,,,,,,,,,,,,,,,,,,,,,,,,,,,,,,,,,441.96842099993955,442.36992829991505,442.3523586000083,442.45582409994677,442.8538694999879,None,right,1,0.7257900999393314,442.8538694999879,None,442.3523586000083,442.45582409994677,442.45582409994677,None,443.6040495999623,None,,,,,,,11016,001,2024_Jan_04_1345,ANT,2021.2.3,59.938922219761615,
1,14,center,down,C,R,,,,,,Block.xlsx,"你已经完成了整个实验（三个区组）。

请报告实验者已完成实验

非常感谢，再见！",0,50,-1.5,right,RRRRR.png,,,,,0,1,1,1,2,21,69,13,,,,,,,,,,,,,,,,,,,,,,,,,,,,,,,,,,,,,,,,,,,,,,,,,,,,,,,,,,,,,,,,444.00528719997965,444.40718819992617,444.3892036000034,444.4888128999155,444.89002559997607,None,right,1,0.3940313000930473,444.89002559997607,None,444.3892036000034,444.4888128999155,444.4888128999155,None,445.3074421000201,None,,,,,,,11016,001,2024_Jan_04_1345,ANT,2021.2.3,59.938922219761615,
1,6,no,down,C,R,,,,,,Block.xlsx,"你已经完成了整个实验（三个区组）。

请报告实验者已完成实验

非常感谢，再见！",50,0,-1.5,right,RRRRR.png,,,,,0,1,1,1,2,22,70,5,,,,,,,,,,,,,,,,,,,,,,,,,,,,,,,,,,,,,,,,,,,,,,,,,,,,,,,,,,,,,,,,445.70798169996124,446.10833379998803,446.0929633999476,446.2097025999101,446.59254619991407,None,right,1,0.47509840002749115,446.59254619991407,None,446.0929633999476,446.2097025999101,446.1919461999787,None,447.0931717000203,None,,,,,,,11016,001,2024_Jan_04_1345,ANT,2021.2.3,59.938922219761615,
1,4,no,up,IC,R,,,,,,Block.xlsx,"你已经完成了整个实验（三个区组）。

请报告实验者已完成实验

非常感谢，再见！",50,0,1.5,right,LLRLL.png,,,,,0,1,1,1,2,23,71,3,,,,,,,,,,,,,,,,,,,,,,,,,,,,,,,,,,,,,,,,,,,,,,,,,,,,,,,,,,,,,,,,447.49350009998307,447.89499599998817,447.87724669999443,447.97886159992777,448.37935790000483,None,right,1,0.6083352999994531,448.37935790000483,None,447.87724669999443,447.97886159992777,447.97886159992777,None,449.01238769991323,None,,,,,,,11016,001,2024_Jan_04_1345,ANT,2021.2.3,59.938922219761615,
1,5,no,down,C,L,,,,,,Block.xlsx,"你已经完成了整个实验（三个区组）。

请报告实验者已完成实验

非常感谢，再见！",50,0,-1.5,left,LLLLL.png,,,,,0,1,1,1,3,0,72,4,,,,,,,,,,,,,,,,,,,,,,,,,,,,,,,,,,,,,,,,,,,,,,,,,,,,,,,,,,,,,,,,449.41270069999155,449.81442790001165,449.7965239000041,449.8979946000036,450.29912219999824,None,left,1,0.4967461000196636,450.29912219999824,None,449.7965239000041,449.8979946000036,449.8979946000036,None,450.81490569992457,None,,,,,,,11016,001,2024_Jan_04_1345,ANT,2021.2.3,59.938922219761615,
1,9,center,up,C,L,,,,,,Block.xlsx,"你已经完成了整个实验（三个区组）。

请报告实验者已完成实验

非常感谢，再见！",0,50,1.5,left,LLLLL.png,,,,,0,1,1,1,3,1,73,8,,,,,,,,,,,,,,,,,,,,,,,,,,,,,,,,,,,,,,,,,,,,,,,,,,,,,,,,,,,,,,,,451.216756299953,451.6167119999882,451.60018409998156,451.69956219999585,452.10075979994144,None,left,1,0.41537780000362545,452.10075979994144,None,451.60018409998156,451.69956219999585,451.69956219999585,None,452.5341843999922,None,,,,,,,11016,001,2024_Jan_04_1345,ANT,2021.2.3,59.938922219761615,
1,14,center,down,C,R,,,,,,Block.xlsx,"你已经完成了整个实验（三个区组）。

请报告实验者已完成实验

非常感谢，再见！",0,50,-1.5,right,RRRRR.png,,,,,0,1,1,1,3,2,74,13,,,,,,,,,,,,,,,,,,,,,,,,,,,,,,,,,,,,,,,,,,,,,,,,,,,,,,,,,,,,,,,,452.9340015000198,453.3363312999718,453.31845129991416,453.419552700012,453.8205942999339,None,right,1,0.4161507999524474,453.8205942999339,None,453.31845129991416,453.419552700012,453.419552700012,None,454.2533675999148,None,,,,,,,11016,001,2024_Jan_04_1345,ANT,2021.2.3,59.938922219761615,
1,13,center,down,C,L,,,,,,Block.xlsx,"你已经完成了整个实验（三个区组）。

请报告实验者已完成实验

非常感谢，再见！",0,50,-1.5,left,LLLLL.png,,,,,0,1,1,1,3,3,75,12,,,,,,,,,,,,,,,,,,,,,,,,,,,,,,,,,,,,,,,,,,,,,,,,,,,,,,,,,,,,,,,,454.65374929993413,455.0547218999127,455.03782069997396,455.13875189993996,455.5385079999687,None,left,1,0.45014710002578795,455.5385079999687,None,455.03782069997396,455.13875189993996,455.13875189993996,None,456.0056284000166,None,,,,,,,11016,001,2024_Jan_04_1345,ANT,2021.2.3,59.938922219761615,
1,5,no,down,C,L,,,,,,Block.xlsx,"你已经完成了整个实验（三个区组）。

请报告实验者已完成实验

非常感谢，再见！",50,0,-1.5,left,LLLLL.png,,,,,0,1,1,1,3,4,76,4,,,,,,,,,,,,,,,,,,,,,,,,,,,,,,,,,,,,,,,,,,,,,,,,,,,,,,,,,,,,,,,,456.4075962000061,456.80868229991756,456.7906127999304,456.89156709995586,457.2902642999543,None,left,1,0.4577693999744952,457.2902642999543,None,456.7906127999304,456.89156709995586,456.89156709995586,None,457.77513929991983,None,,,,,,,11016,001,2024_Jan_04_1345,ANT,2021.2.3,59.938922219761615,
1,17,spatial,up,C,L,,,,,,Block.xlsx,"你已经完成了整个实验（三个区组）。

请报告实验者已完成实验

非常感谢，再见！",1.5,0,1.5,left,LLLLL.png,,,,,0,1,1,1,3,5,77,16,,,,,,,,,,,,,,,,,,,,,,,,,,,,,,,,,,,,,,,,,,,,,,,,,,,,,,,,,,,,,,,,458.17579789995216,458.57625759998336,458.5604754999513,458.6606409999076,459.0607413999969,None,left,1,0.40691500005777925,459.0607413999969,None,458.5604754999513,458.6606409999076,458.6606409999076,None,459.4951325999573,None,,,,,,,11016,001,2024_Jan_04_1345,ANT,2021.2.3,59.938922219761615,
1,15,center,down,IC,L,,,,,,Block.xlsx,"你已经完成了整个实验（三个区组）。

请报告实验者已完成实验

非常感谢，再见！",0,50,-1.5,left,RRLRR.png,,,,,0,1,1,1,3,6,78,14,,,,,,,,,,,,,,,,,,,,,,,,,,,,,,,,,,,,,,,,,,,,,,,,,,,,,,,,,,,,,,,,459.8960194999818,460.2977696999442,460.2791325999424,460.3790185999824,460.7802972999634,None,left,1,0.6004957999102771,460.7802972999634,None,460.2791325999424,460.3790185999824,460.3790185999824,None,461.39782650000416,None,,,,,,,11016,001,2024_Jan_04_1345,ANT,2021.2.3,59.938922219761615,
1,18,spatial,up,C,R,,,,,,Block.xlsx,"你已经完成了整个实验（三个区组）。

请报告实验者已完成实验

非常感谢，再见！",1.5,0,1.5,right,RRRRR.png,,,,,0,1,1,1,3,7,79,17,,,,,,,,,,,,,,,,,,,,,,,,,,,,,,,,,,,,,,,,,,,,,,,,,,,,,,,,,,,,,,,,461.79778919997625,462.1992288000183,462.18293609994,462.2828284999123,462.68317319999915,None,right,1,0.4166554999537766,462.68317319999915,None,462.18293609994,462.2828284999123,462.2828284999123,None,463.1164482999593,None,,,,,,,11016,001,2024_Jan_04_1345,ANT,2021.2.3,59.938922219761615,
1,10,center,up,C,R,,,,,,Block.xlsx,"你已经完成了整个实验（三个区组）。

请报告实验者已完成实验

非常感谢，再见！",0,50,1.5,right,RRRRR.png,,,,,0,1,1,1,3,8,80,9,,,,,,,,,,,,,,,,,,,,,,,,,,,,,,,,,,,,,,,,,,,,,,,,,,,,,,,,,,,,,,,,463.5177578999428,463.9190920999972,463.90164039994124,464.0010082999943,464.4022666999372,None,right,1,0.4975075999973342,464.4022666999372,None,463.90164039994124,464.0010082999943,464.0010082999943,None,464.91915119998157,None,,,,,,,11016,001,2024_Jan_04_1345,ANT,2021.2.3,59.938922219761615,
1,12,center,up,IC,R,,,,,,Block.xlsx,"你已经完成了整个实验（三个区组）。

请报告实验者已完成实验

非常感谢，再见！",0,50,1.5,right,LLRLL.png,,,,,0,1,1,1,3,9,81,11,,,,,,,,,,,,,,,,,,,,,,,,,,,,,,,,,,,,,,,,,,,,,,,,,,,,,,,,,,,,,,,,465.3197155999951,465.72104939993005,465.7047470000107,465.803598199971,466.20490829995833,None,right,1,0.5669678999111056,466.20490829995833,None,465.7047470000107,465.803598199971,465.803598199971,None,466.7886235999176,None,,,,,,,11016,001,2024_Jan_04_1345,ANT,2021.2.3,59.938922219761615,
1,11,center,up,IC,L,,,,,,Block.xlsx,"你已经完成了整个实验（三个区组）。

请报告实验者已完成实验

非常感谢，再见！",0,50,1.5,left,RRLRR.png,,,,,0,1,1,1,3,10,82,10,,,,,,,,,,,,,,,,,,,,,,,,,,,,,,,,,,,,,,,,,,,,,,,,,,,,,,,,,,,,,,,,467.18911739997566,467.5908174999058,467.57328669994604,467.67385019990616,468.0738154000137,None,left,1,0.522283099940978,468.0738154000137,None,467.57328669994604,467.67385019990616,467.67385019990616,None,468.62455969990697,None,,,,,,,11016,001,2024_Jan_04_1345,ANT,2021.2.3,59.938922219761615,
1,2,no,up,C,R,,,,,,Block.xlsx,"你已经完成了整个实验（三个区组）。

请报告实验者已完成实验

非常感谢，再见！",50,0,1.5,right,RRRRR.png,,,,,0,1,1,1,3,11,83,1,,,,,,,,,,,,,,,,,,,,,,,,,,,,,,,,,,,,,,,,,,,,,,,,,,,,,,,,,,,,,,,,469.0258722999133,469.427717500017,469.4099077999126,469.5092050000094,469.91028439998627,None,right,1,0.4457294000312686,469.91028439998627,None,469.4099077999126,469.5092050000094,469.5092050000094,None,470.3771230999846,None,,,,,,,11016,001,2024_Jan_04_1345,ANT,2021.2.3,59.938922219761615,
1,12,center,up,IC,R,,,,,,Block.xlsx,"你已经完成了整个实验（三个区组）。

请报告实验者已完成实验

非常感谢，再见！",0,50,1.5,right,LLRLL.png,,,,,0,1,1,1,3,12,84,11,,,,,,,,,,,,,,,,,,,,,,,,,,,,,,,,,,,,,,,,,,,,,,,,,,,,,,,,,,,,,,,,470.77777909999713,471.1792261999799,471.1617530999938,471.2620552999433,471.66271880001295,None,right,1,0.5413598000304773,471.66271880001295,None,471.1617530999938,471.2620552999433,471.2620552999433,None,472.23016929998994,None,,,,,,,11016,001,2024_Jan_04_1345,ANT,2021.2.3,59.938922219761615,
1,16,center,down,IC,R,,,,,,Block.xlsx,"你已经完成了整个实验（三个区组）。

请报告实验者已完成实验

非常感谢，再见！",0,50,-1.5,right,LLRLL.png,,,,,0,1,1,1,3,13,85,15,,,,,,,,,,,,,,,,,,,,,,,,,,,,,,,,,,,,,,,,,,,,,,,,,,,,,,,,,,,,,,,,472.63100719999056,473.0326379999751,473.0150702999672,473.1159444999648,473.5164163999725,None,right,1,0.7438266000244766,473.5164163999725,None,473.0150702999672,473.1159444999648,473.1159444999648,None,474.28366429999005,None,,,,,,,11016,001,2024_Jan_04_1345,ANT,2021.2.3,59.938922219761615,
1,9,center,up,C,L,,,,,,Block.xlsx,"你已经完成了整个实验（三个区组）。

请报告实验者已完成实验

非常感谢，再见！",0,50,1.5,left,LLLLL.png,,,,,0,1,1,1,3,14,86,8,,,,,,,,,,,,,,,,,,,,,,,,,,,,,,,,,,,,,,,,,,,,,,,,,,,,,,,,,,,,,,,,474.6835836999817,475.08540879993234,475.06773619994055,475.1697208000114,475.56837399990764,None,left,1,0.4117267000256106,475.56837399990764,None,475.06773619994055,475.1697208000114,475.1697208000114,None,476.0022775999969,None,,,,,,,11016,001,2024_Jan_04_1345,ANT,2021.2.3,59.938922219761615,
1,10,center,up,C,R,,,,,,Block.xlsx,"你已经完成了整个实验（三个区组）。

请报告实验者已完成实验

非常感谢，再见！",0,50,1.5,right,RRRRR.png,,,,,0,1,1,1,3,15,87,9,,,,,,,,,,,,,,,,,,,,,,,,,,,,,,,,,,,,,,,,,,,,,,,,,,,,,,,,,,,,,,,,476.4037558999844,476.8048476999393,476.7865856999997,476.88753850001376,477.28731409995817,None,right,1,0.4288644000189379,477.28731409995817,None,476.7865856999997,476.88753850001376,476.88753850001376,None,477.7383909999626,None,,,,,,,11016,001,2024_Jan_04_1345,ANT,2021.2.3,59.938922219761615,
1,23,spatial,down,IC,L,,,,,,Block.xlsx,"你已经完成了整个实验（三个区组）。

请报告实验者已完成实验

非常感谢，再见！",-1.5,0,-1.5,left,RRLRR.png,,,,,0,1,1,1,3,16,88,22,,,,,,,,,,,,,,,,,,,,,,,,,,,,,,,,,,,,,,,,,,,,,,,,,,,,,,,,,,,,,,,,478.1393625999335,478.54173219995573,478.5230024999473,478.6231617999729,479.02385769994,None,left,1,0.5480838000075892,479.02385769994,None,478.5230024999473,478.6231617999729,478.6231617999729,None,479.5907178999623,None,,,,,,,11016,001,2024_Jan_04_1345,ANT,2021.2.3,59.938922219761615,
1,23,spatial,down,IC,L,,,,,,Block.xlsx,"你已经完成了整个实验（三个区组）。

请报告实验者已完成实验

非常感谢，再见！",-1.5,0,-1.5,left,RRLRR.png,,,,,0,1,1,1,3,17,89,22,,,,,,,,,,,,,,,,,,,,,,,,,,,,,,,,,,,,,,,,,,,,,,,,,,,,,,,,,,,,,,,,479.992441499955,480.3921046999749,480.3758307999233,480.4773207999533,480.87616899993736,None,left,1,0.4639156999764964,480.87616899993736,None,480.3758307999233,480.4773207999533,480.4773207999533,None,481.3599519999698,None,,,,,,,11016,001,2024_Jan_04_1345,ANT,2021.2.3,59.938922219761615,
1,22,spatial,down,C,R,,,,,,Block.xlsx,"你已经完成了整个实验（三个区组）。

请报告实验者已完成实验

非常感谢，再见！",-1.5,0,-1.5,right,RRRRR.png,,,,,0,1,1,1,3,18,90,21,,,,,,,,,,,,,,,,,,,,,,,,,,,,,,,,,,,,,,,,,,,,,,,,,,,,,,,,,,,,,,,,481.760773899965,482.16132369998377,482.14532849995885,482.24473529995885,482.6468548999401,None,right,1,0.404898599954322,482.6468548999401,None,482.14532849995885,482.24473529995885,482.24473529995885,None,483.0796830999898,None,,,,,,,11016,001,2024_Jan_04_1345,ANT,2021.2.3,59.938922219761615,
1,21,spatial,down,C,L,,,,,,Block.xlsx,"你已经完成了整个实验（三个区组）。

请报告实验者已完成实验

非常感谢，再见！",-1.5,0,-1.5,left,LLLLL.png,,,,,0,1,1,1,3,19,91,20,,,,,,,,,,,,,,,,,,,,,,,,,,,,,,,,,,,,,,,,,,,,,,,,,,,,,,,,,,,,,,,,483.4799913999159,483.8805946999928,483.8637182000093,483.96400249993894,484.3664026999613,None,left,1,0.41444480000063777,484.3664026999613,None,483.8637182000093,483.96400249993894,483.96400249993894,None,484.79861089994665,None,,,,,,,11016,001,2024_Jan_04_1345,ANT,2021.2.3,59.938922219761615,
1,7,no,down,IC,L,,,,,,Block.xlsx,"你已经完成了整个实验（三个区组）。

请报告实验者已完成实验

