TrialType,TrialNumber,WarningType,TargetType,FlankerType,TargetDirection,W,f,Y,corr,imageFile,condition,endtext,Yw,Yf,Yt,Corr,imagefile,trials_3.thisRepN,trials_3.thisTrialN,trials_3.thisN,trials_3.thisIndex,trials_2.thisRepN,trials_2.thisTrialN,trials_2.thisN,trials_2.thisIndex,trials.thisRepN,trials.thisTrialN,trials.thisN,trials.thisIndex,instr.started,instr.stopped,key_resp.keys,key_resp.rt,key_resp.started,key_resp.stopped,image.started,image.stopped,key_resp_6.keys,key_resp_6.rt,key_resp_6.started,key_resp_6.stopped,EX_L.started,EX_L.stopped,AL.started,AL.stopped,key_resp_7.keys,key_resp_7.rt,key_resp_7.started,key_resp_7.stopped,EX_R.started,EX_R.stopped,RR.started,RR.stopped,key_resp_8.keys,key_resp_8.rt,key_resp_8.started,key_resp_8.stopped,image_2.started,image_2.stopped,key_resp_9.keys,key_resp_9.rt,key_resp_9.started,key_resp_9.stopped,image_3.started,image_3.stopped,key_resp_10.keys,key_resp_10.rt,key_resp_10.started,key_resp_10.stopped,fix.started,fix.stopped,war.started,war.stopped,tar.started,tar.stopped,key_resp_4.keys,key_resp_4.corr,key_resp_4.rt,key_resp_4.started,key_resp_4.stopped,fix2.started,fix2.stopped,fix_2.started,fix_2.stopped,Feedback.started,Feedback.stopped,key_resp_2.keys,key_resp_2.rt,key_resp_2.started,key_resp_2.stopped,text_5.started,text_5.stopped,fix2_1.started,fix2_1.stopped,Warn.started,Warn.stopped,Tar.started,Tar.stopped,key_resp_5.keys,key_resp_5.corr,key_resp_5.rt,key_resp_5.started,key_resp_5.stopped,Fix_2.started,Fix_2.stopped,fix2_2.started,fix2_2.stopped,text_4.started,text_4.stopped,key_resp_3.keys,key_resp_3.rt,key_resp_3.started,key_resp_3.stopped,text_3.started,text_3.stopped,participant,session,date,expName,psychopyVersion,frameRate,
,,,,,,,,,,,,,,,,,,,,,,,,,,,,,,8.866714300005697,None,space,6.367860400001518,8.866714300005697,None,,,,,,,,,,,,,,,,,,,,,,,,,,,,,,,,,,,,,,,,,,,,,,,,,,,,,,,,,,,,,,,,,,,,,,,,,,,,,,,,,11025,001,2024_Jan_08_0931,ANT,2021.2.3,59.92642235044252,
,,,,,,,,,,,,,,,,,,,,,,,,,,,,,,,,,,,,15.259779499960132,None,space,13.254761700052768,15.259779499960132,None,,,,,,,,,,,,,,,,,,,,,,,,,,,,,,,,,,,,,,,,,,,,,,,,,,,,,,,,,,,,,,,,,,,,,,,,,,,11025,001,2024_Jan_08_0931,ANT,2021.2.3,59.92642235044252,
,,,,,,,,,,,,,,,,,,,,,,,,,,,,,,,,,,,,,,,,,,28.529067499912344,None,28.529067499912344,None,left,1.6497207999927923,28.529067499912344,None,,,,,,,,,,,,,,,,,,,,,,,,,,,,,,,,,,,,,,,,,,,,,,,,,,,,,,,,,,,,,,,,,,,11025,001,2024_Jan_08_0931,ANT,2021.2.3,59.92642235044252,
,,,,,,,,,,,,,,,,,,,,,,,,,,,,,,,,,,,,,,,,,,,,,,,,,,30.19805489992723,None,30.19805489992723,None,right,0.660760400001891,30.19805489992723,None,,,,,,,,,,,,,,,,,,,,,,,,,,,,,,,,,,,,,,,,,,,,,,,,,,,,,,,,,,,11025,001,2024_Jan_08_0931,ANT,2021.2.3,59.92642235044252,
,,,,,,,,,,,,,,,,,,,,,,,,,,,,,,,,,,,,,,,,,,,,,,,,,,,,,,,,,,30.883082199958153,None,space,32.44826520001516,30.883082199958153,None,,,,,,,,,,,,,,,,,,,,,,,,,,,,,,,,,,,,,,,,,,,,,,,,,,,,,11025,001,2024_Jan_08_0931,ANT,2021.2.3,59.92642235044252,
,,,,,,,,,,,,,,,,,,,,,,,,,,,,,,,,,,,,,,,,,,,,,,,,,,,,,,,,,,,,,,,,63.347361699910834,None,space,10.520102400099859,63.347361699910834,None,,,,,,,,,,,,,,,,,,,,,,,,,,,,,,,,,,,,,,,,,,,,,,,11025,001,2024_Jan_08_0931,ANT,2021.2.3,59.92642235044252,
0,10,spatial,up,IC,L,1.5,0,1.5,left,RRLRR.png,,,,,,,,0,0,0,9,,,,,,,,,,,,,,,,,,,,,,,,,,,,,,,,,,,,,,,,,,,,,,,,,73.96283540001605,74.36471899994649,74.347586399992,74.4478140999563,74.84841019997839,None,left,1,0.7941911000525579,74.84841019997839,None,74.347586399992,74.4478140999563,74.4478140999563,None,75.68264209991321,None,,,,,,,,,,,,,,,,,,,,,,,,,,,,,,11025,001,2024_Jan_08_0931,ANT,2021.2.3,59.92642235044252,
0,2,no,up,IC,R,50,0,1.5,right,LLRLL.png,,,,,,,,0,1,1,1,,,,,,,,,,,,,,,,,,,,,,,,,,,,,,,,,,,,,,,,,,,,,,,,,77.68591050000396,78.08684749994427,78.07049469999038,78.17169350001495,78.57028849993367,None,right,1,0.5852194000035524,78.57028849993367,None,78.07049469999038,78.17169350001495,78.17169350001495,None,79.17011700000148,None,,,,,,,,,,,,,,,,,,,,,,,,,,,,,,11025,001,2024_Jan_08_0931,ANT,2021.2.3,59.92642235044252,
0,4,no,down,IC,L,50,0,-1.5,left,RRLRR.png,,,,,,,,0,2,2,3,,,,,,,,,,,,,,,,,,,,,,,,,,,,,,,,,,,,,,,,,,,,,,,,,81.17381790000945,81.57570679998025,81.55841519997921,81.65867939998861,82.06061689998023,None,left,1,0.6700123000191525,82.06061689998023,None,81.55841519997921,81.65867939998861,81.65867939998861,None,82.75960130000021,None,,,,,,,,,,,,,,,,,,,,,,,,,,,,,,11025,001,2024_Jan_08_0931,ANT,2021.2.3,59.92642235044252,
0,1,no,up,C,L,50,0,1.5,left,LLLLL.png,,,,,,,,0,3,3,0,,,,,,,,,,,,,,,,,,,,,,,,,,,,,,,,,,,,,,,,,,,,,,,,,84.76246419991367,85.16440130001865,85.14686480001546,85.24839259998407,85.64713509997819,None,left,1,0.4436208000406623,85.64713509997819,None,85.14686480001546,85.24839259998407,85.24839259998407,None,86.11442290002014,None,,,,,,,,,,,,,,,,,,,,,,,,,,,,,,11025,001,2024_Jan_08_0931,ANT,2021.2.3,59.92642235044252,
0,7,center,down,C,R,0,50,-1.5,right,RRRRR.png,,,,,,,,0,4,4,6,,,,,,,,,,,,,,,,,,,,,,,,,,,,,,,,,,,,,,,,,,,,,,,,,88.11742329993285,88.51845620002132,88.50211879995186,88.60174710000865,89.00369379995391,None,right,1,0.5910616999026388,89.00369379995391,None,88.50211879995186,88.60174710000865,88.60174710000865,None,89.62027740001213,None,,,,,,,,,,,,,,,,,,,,,,,,,,,,,,11025,001,2024_Jan_08_0931,ANT,2021.2.3,59.92642235044252,
0,9,spatial,up,C,R,1.5,0,1.5,right,RRRRR.png,,,,,,,,0,5,5,8,,,,,,,,,,,,,,,,,,,,,,,,,,,,,,,,,,,,,,,,,,,,,,,,,91.62410409993026,92.0256997999968,92.00672049995046,92.10670459992252,92.50794179993682,None,right,1,0.5027461999561638,92.50794179993682,None,92.00672049995046,92.10670459992252,92.10670459992252,None,93.04131719993893,None,,,,,,,,,,,,,,,,,,,,,,,,,,,,,,11025,001,2024_Jan_08_0931,ANT,2021.2.3,59.92642235044252,
0,3,no,down,C,R,50,0,-1.5,right,RRRRR.png,,,,,,,,0,6,6,2,,,,,,,,,,,,,,,,,,,,,,,,,,,,,,,,,,,,,,,,,,,,,,,,,95.04425829998218,95.44683129992336,95.42880419990979,95.52836050000042,95.92892919993028,None,right,1,0.5698982999892905,95.92892919993028,None,95.42880419990979,95.52836050000042,95.52836050000042,None,96.53075289994013,None,,,,,,,,,,,,,,,,,,,,,,,,,,,,,,11025,001,2024_Jan_08_0931,ANT,2021.2.3,59.92642235044252,
0,6,center,up,IC,R,0,50,1.5,right,LLRLL.png,,,,,,,,0,7,7,5,,,,,,,,,,,,,,,,,,,,,,,,,,,,,,,,,,,,,,,,,,,,,,,,,98.53291660000104,98.9350558000151,98.91726559994277,99.01751799997874,99.41776250000112,None,right,1,0.4891704999608919,99.41776250000112,None,98.91726559994277,99.01751799997874,99.01751799997874,None,99.93507020000834,None,,,,,,,,,,,,,,,,,,,,,,,,,,,,,,11025,001,2024_Jan_08_0931,ANT,2021.2.3,59.92642235044252,
0,12,spatial,down,IC,R,-1.5,0,-1.5,right,LLRLL.png,,,,,,,,0,8,8,11,,,,,,,,,,,,,,,,,,,,,,,,,,,,,,,,,,,,,,,,,,,,,,,,,101.93786399997771,102.338419699925,102.32245709991548,102.42263109993655,102.82419670000672,None,right,1,0.4348277000244707,102.82419670000672,None,102.32245709991548,102.42263109993655,102.42263109993655,None,103.27310749993194,None,,,,,,,,,,,,,,,,,,,,,,,,,,,,,,11025,001,2024_Jan_08_0931,ANT,2021.2.3,59.92642235044252,
0,11,spatial,down,C,L,-1.5,0,-1.5,left,LLLLL.png,,,,,,,,0,9,9,10,,,,,,,,,,,,,,,,,,,,,,,,,,,,,,,,,,,,,,,,,,,,,,,,,105.27625300001819,105.67667169997003,105.6613588000182,105.77839559991844,106.1617310999427,None,left,1,0.4891576999798417,106.1617310999427,None,105.6613588000182,105.77839559991844,105.760282299947,None,106.67810060002375,None,,,,,,,,,,,,,,,,,,,,,,,,,,,,,,11025,001,2024_Jan_08_0931,ANT,2021.2.3,59.92642235044252,
0,8,center,down,IC,L,0,50,-1.5,left,RRLRR.png,,,,,,,,0,10,10,7,,,,,,,,,,,,,,,,,,,,,,,,,,,,,,,,,,,,,,,,,,,,,,,,,108.68118089996278,109.08180699998047,109.06703879998531,109.1660168999806,109.56757870002184,None,left,1,0.5232426000293344,109.56757870002184,None,109.06703879998531,109.1660168999806,109.1660168999806,None,110.11665189999621,None,,,,,,,,,,,,,,,,,,,,,,,,,,,,,,11025,001,2024_Jan_08_0931,ANT,2021.2.3,59.92642235044252,
0,5,center,up,C,L,0,50,1.5,left,LLLLL.png,,,,,,,,0,11,11,4,,,,,,,,,,,,,,,,,,,,,,,,,,,,,,,,,,,,,,,,,,,,,,,,,112.11962050001603,112.52119449991733,112.50350539991632,112.60495670000091,113.0055475999834,None,left,1,0.4212362999096513,113.0055475999834,None,112.50350539991632,112.60495670000091,112.60495670000091,None,113.45491680002306,None,,,,,,,,,,,,,,,,,,,,,,,,,,,,,,11025,001,2024_Jan_08_0931,ANT,2021.2.3,59.92642235044252,
,,,,,,,,,,,,,,,,,,,,,,,,,,,,,,,,,,,,,,,,,,,,,,,,,,,,,,,,,,,,,,,,,,,,,,,,,,,,,,,,,,,,,,,space,15.024414399988018,115.45845159993041,None,,,,,,,,,,,,,,,,,,,,,,,,,,11025,001,2024_Jan_08_0931,ANT,2021.2.3,59.92642235044252,
1,5,no,down,C,L,,,,,,Block.xlsx,"你已经完成了第一个实验区组

请稍作休息


点击空格键进入下一个区组。",50,0,-1.5,left,LLLLL.png,,,,,0,0,0,0,0,0,0,4,,,,,,,,,,,,,,,,,,,,,,,,,,,,,,,,,,,,,,,,,,,,,,,,,,,,,,,,,,,,,,115.45845159993041,None,130.54831799992826,130.94813679996878,130.93090749997646,131.031897299923,131.43274630000815,None,left,1,0.5059550000587478,131.43274630000815,None,130.93090749997646,131.031897299923,131.031897299923,None,131.96604169998318,None,,,,,,,11025,001,2024_Jan_08_0931,ANT,2021.2.3,59.92642235044252,
1,19,spatial,up,IC,L,,,,,,Block.xlsx,"你已经完成了第一个实验区组

请稍作休息


点击空格键进入下一个区组。",1.5,0,1.5,left,RRLRR.png,,,,,0,0,0,0,0,1,1,18,,,,,,,,,,,,,,,,,,,,,,,,,,,,,,,,,,,,,,,,,,,,,,,,,,,,,,,,,,,,,,,,132.36633099999744,132.76952779991552,132.75108319998253,132.85223499999847,133.25121309992392,None,left,1,0.4715343000134453,133.25121309992392,None,132.75108319998253,132.85223499999847,132.85223499999847,None,133.75229109998327,None,,,,,,,11025,001,2024_Jan_08_0931,ANT,2021.2.3,59.92642235044252,
1,5,no,down,C,L,,,,,,Block.xlsx,"你已经完成了第一个实验区组

请稍作休息


点击空格键进入下一个区组。",50,0,-1.5,left,LLLLL.png,,,,,0,0,0,0,0,2,2,4,,,,,,,,,,,,,,,,,,,,,,,,,,,,,,,,,,,,,,,,,,,,,,,,,,,,,,,,,,,,,,,,134.15240639995318,134.55504140001722,134.53686260001268,134.63748499995563,135.03772919997573,None,left,1,0.4929075000109151,135.03772919997573,None,134.53686260001268,134.63748499995563,134.63748499995563,None,135.55435330001637,None,,,,,,,11025,001,2024_Jan_08_0931,ANT,2021.2.3,59.92642235044252,
1,18,spatial,up,C,R,,,,,,Block.xlsx,"你已经完成了第一个实验区组

请稍作休息


点击空格键进入下一个区组。",1.5,0,1.5,right,RRRRR.png,,,,,0,0,0,0,0,3,3,17,,,,,,,,,,,,,,,,,,,,,,,,,,,,,,,,,,,,,,,,,,,,,,,,,,,,,,,,,,,,,,,,135.95498039992526,136.35702749993652,136.3395462000044,136.439822299988,136.83963489998132,None,right,1,0.4678852000506595,136.83963489998132,None,136.3395462000044,136.439822299988,136.439822299988,None,137.32351749995723,None,,,,,,,11025,001,2024_Jan_08_0931,ANT,2021.2.3,59.92642235044252,
1,24,spatial,down,IC,R,,,,,,Block.xlsx,"你已经完成了第一个实验区组

请稍作休息


点击空格键进入下一个区组。",-1.5,0,-1.5,right,LLRLL.png,,,,,0,0,0,0,0,4,4,23,,,,,,,,,,,,,,,,,,,,,,,,,,,,,,,,,,,,,,,,,,,,,,,,,,,,,,,,,,,,,,,,137.7241433999734,138.12509739992674,138.10972469998524,138.20820090000052,138.61019389994908,None,right,1,0.4645920000039041,138.61019389994908,None,138.10972469998524,138.20820090000052,138.20820090000052,None,139.09303069999442,None,,,,,,,11025,001,2024_Jan_08_0931,ANT,2021.2.3,59.92642235044252,
1,6,no,down,C,R,,,,,,Block.xlsx,"你已经完成了第一个实验区组

请稍作休息


点击空格键进入下一个区组。",50,0,-1.5,right,RRRRR.png,,,,,0,0,0,0,0,5,5,5,,,,,,,,,,,,,,,,,,,,,,,,,,,,,,,,,,,,,,,,,,,,,,,,,,,,,,,,,,,,,,,,139.49368379998486,139.89519920002203,139.87794159993064,139.97949159995187,140.37822309997864,None,right,1,0.43240359995979816,140.37822309997864,None,139.87794159993064,139.97949159995187,139.97949159995187,None,140.82870199996978,None,,,,,,,11025,001,2024_Jan_08_0931,ANT,2021.2.3,59.92642235044252,
1,19,spatial,up,IC,L,,,,,,Block.xlsx,"你已经完成了第一个实验区组

请稍作休息


点击空格键进入下一个区组。",1.5,0,1.5,left,RRLRR.png,,,,,0,0,0,0,0,6,6,18,,,,,,,,,,,,,,,,,,,,,,,,,,,,,,,,,,,,,,,,,,,,,,,,,,,,,,,,,,,,,,,,141.22935299994424,141.63018089998513,141.61335250001866,141.7146849000128,142.11412379995454,None,left,1,0.4169577000429854,142.11412379995454,None,141.61335250001866,141.7146849000128,141.7146849000128,None,142.54797029995825,None,,,,,,,11025,001,2024_Jan_08_0931,ANT,2021.2.3,59.92642235044252,
1,13,center,down,C,L,,,,,,Block.xlsx,"你已经完成了第一个实验区组

请稍作休息


点击空格键进入下一个区组。",0,50,-1.5,left,LLLLL.png,,,,,0,0,0,0,0,7,7,12,,,,,,,,,,,,,,,,,,,,,,,,,,,,,,,,,,,,,,,,,,,,,,,,,,,,,,,,,,,,,,,,142.94870609999634,143.34933749993797,143.3327103999909,143.43282320001163,143.83446699997876,None,left,1,0.4081768998876214,143.83446699997876,None,143.3327103999909,143.43282320001163,143.43282320001163,None,144.2673454999458,None,,,,,,,11025,001,2024_Jan_08_0931,ANT,2021.2.3,59.92642235044252,
1,2,no,up,C,R,,,,,,Block.xlsx,"你已经完成了第一个实验区组

请稍作休息


点击空格键进入下一个区组。",50,0,1.5,right,RRRRR.png,,,,,0,0,0,0,0,8,8,1,,,,,,,,,,,,,,,,,,,,,,,,,,,,,,,,,,,,,,,,,,,,,,,,,,,,,,,,,,,,,,,,144.6678297999315,145.06827960000373,145.052698399988,145.15256309998222,145.55353319994174,None,right,1,0.4334781999932602,145.55353319994174,None,145.052698399988,145.15256309998222,145.15256309998222,None,146.00312609993853,None,,,,,,,11025,001,2024_Jan_08_0931,ANT,2021.2.3,59.92642235044252,
1,15,center,down,IC,L,,,,,,Block.xlsx,"你已经完成了第一个实验区组

请稍作休息


点击空格键进入下一个区组。",0,50,-1.5,left,RRLRR.png,,,,,0,0,0,0,0,9,9,14,,,,,,,,,,,,,,,,,,,,,,,,,,,,,,,,,,,,,,,,,,,,,,,,,,,,,,,,,,,,,,,,146.4037871999899,146.80409390002023,146.78906569990795,146.88785719999578,147.28875890001655,None,left,1,0.506316400016658,147.28875890001655,None,146.78906569990795,146.88785719999578,146.88785719999578,None,147.82237639999948,None,,,,,,,11025,001,2024_Jan_08_0931,ANT,2021.2.3,59.92642235044252,
1,5,no,down,C,L,,,,,,Block.xlsx,"你已经完成了第一个实验区组

请稍作休息


点击空格键进入下一个区组。",50,0,-1.5,left,LLLLL.png,,,,,0,0,0,0,0,10,10,4,,,,,,,,,,,,,,,,,,,,,,,,,,,,,,,,,,,,,,,,,,,,,,,,,,,,,,,,,,,,,,,,148.22300649993122,148.623773099971,148.60728100000415,148.70714489999227,149.1082036999287,None,left,1,0.4546044999733567,149.1082036999287,None,148.60728100000415,148.70714489999227,148.70714489999227,None,149.59344590001274,None,,,,,,,11025,001,2024_Jan_08_0931,ANT,2021.2.3,59.92642235044252,
1,16,center,down,IC,R,,,,,,Block.xlsx,"你已经完成了第一个实验区组

请稍作休息


点击空格键进入下一个区组。",0,50,-1.5,right,LLRLL.png,,,,,0,0,0,0,0,11,11,15,,,,,,,,,,,,,,,,,,,,,,,,,,,,,,,,,,,,,,,,,,,,,,,,,,,,,,,,,,,,,,,,150.00890579994302,150.410744599998,150.3929957000073,150.493682899978,150.8948019000236,None,right,1,0.5480353999882936,150.8948019000236,None,150.3929957000073,150.493682899978,150.493682899978,None,151.4610983999446,None,,,,,,,11025,001,2024_Jan_08_0931,ANT,2021.2.3,59.92642235044252,
1,17,spatial,up,C,L,,,,,,Block.xlsx,"你已经完成了第一个实验区组

请稍作休息


点击空格键进入下一个区组。",1.5,0,1.5,left,LLLLL.png,,,,,0,0,0,0,0,12,12,16,,,,,,,,,,,,,,,,,,,,,,,,,,,,,,,,,,,,,,,,,,,,,,,,,,,,,,,,,,,,,,,,151.8617813999299,152.2632211999735,152.2457196000032,152.34663329995237,152.74747669999488,None,left,1,0.38340920000337064,152.74747669999488,None,152.2457196000032,152.34663329995237,152.34663329995237,None,153.14694709994365,None,,,,,,,11025,001,2024_Jan_08_0931,ANT,2021.2.3,59.92642235044252,
1,10,center,up,C,R,,,,,,Block.xlsx,"你已经完成了第一个实验区组

请稍作休息


点击空格键进入下一个区组。",0,50,1.5,right,RRRRR.png,,,,,0,0,0,0,0,13,13,9,,,,,,,,,,,,,,,,,,,,,,,,,,,,,,,,,,,,,,,,,,,,,,,,,,,,,,,,,,,,,,,,153.5484275999479,153.94997379998676,153.9323662999086,154.03161359997466,154.43441320001148,None,right,1,0.6005870000226423,154.43441320001148,None,153.9323662999086,154.03161359997466,154.03161359997466,None,155.05002919991966,None,,,,,,,11025,001,2024_Jan_08_0931,ANT,2021.2.3,59.92642235044252,
1,3,no,up,IC,L,,,,,,Block.xlsx,"你已经完成了第一个实验区组

请稍作休息


点击空格键进入下一个区组。",50,0,1.5,left,RRLRR.png,,,,,0,0,0,0,0,14,14,2,,,,,,,,,,,,,,,,,,,,,,,,,,,,,,,,,,,,,,,,,,,,,,,,,,,,,,,,,,,,,,,,155.45044699998107,155.8512920999201,155.8351885000011,155.93469389993697,156.33582459995523,None,left,1,0.4750550000462681,156.33582459995523,None,155.8351885000011,155.93469389993697,155.93469389993697,None,156.8364000999136,None,,,,,,,11025,001,2024_Jan_08_0931,ANT,2021.2.3,59.92642235044252,
1,16,center,down,IC,R,,,,,,Block.xlsx,"你已经完成了第一个实验区组

请稍作休息


点击空格键进入下一个区组。",0,50,-1.5,right,LLRLL.png,,,,,0,0,0,0,0,15,15,15,,,,,,,,,,,,,,,,,,,,,,,,,,,,,,,,,,,,,,,,,,,,,,,,,,,,,,,,,,,,,,,,157.2370681000175,157.63804380001966,157.62082680000458,157.72068609995767,158.12211579992436,None,right,1,0.5127757999580353,158.12211579992436,None,157.62082680000458,157.72068609995767,157.72068609995767,None,158.65515210002195,None,,,,,,,11025,001,2024_Jan_08_0931,ANT,2021.2.3,59.92642235044252,
1,24,spatial,down,IC,R,,,,,,Block.xlsx,"你已经完成了第一个实验区组

请稍作休息


点击空格键进入下一个区组。",-1.5,0,-1.5,right,LLRLL.png,,,,,0,0,0,0,0,16,16,23,,,,,,,,,,,,,,,,,,,,,,,,,,,,,,,,,,,,,,,,,,,,,,,,,,,,,,,,,,,,,,,,159.05585210002027,159.45811140001751,159.44044239993673,159.5411718999967,159.94235279993154,None,right,1,0.5244705999502912,159.94235279993154,None,159.44044239993673,159.5411718999967,159.5411718999967,None,160.4914161999477,None,,,,,,,11025,001,2024_Jan_08_0931,ANT,2021.2.3,59.92642235044252,
1,20,spatial,up,IC,R,,,,,,Block.xlsx,"你已经完成了第一个实验区组

请稍作休息


点击空格键进入下一个区组。",1.5,0,1.5,right,LLRLL.png,,,,,0,0,0,0,0,17,17,19,,,,,,,,,,,,,,,,,,,,,,,,,,,,,,,,,,,,,,,,,,,,,,,,,,,,,,,,,,,,,,,,160.89208719995804,161.29331609990913,161.27581329992972,161.37654730002396,161.7768531999318,None,right,1,0.43402169994078577,161.7768531999318,None,161.27581329992972,161.37654730002396,161.37654730002396,None,162.22723869991023,None,,,,,,,11025,001,2024_Jan_08_0931,ANT,2021.2.3,59.92642235044252,
1,6,no,down,C,R,,,,,,Block.xlsx,"你已经完成了第一个实验区组

请稍作休息


点击空格键进入下一个区组。",50,0,-1.5,right,RRRRR.png,,,,,0,0,0,0,0,18,18,5,,,,,,,,,,,,,,,,,,,,,,,,,,,,,,,,,,,,,,,,,,,,,,,,,,,,,,,,,,,,,,,,162.6275812999811,163.02873589994851,163.01159519993234,163.11199709994253,163.51375059993006,None,right,1,0.409063300001435,163.51375059993006,None,163.01159519993234,163.11199709994253,163.11199709994253,None,163.94697449996602,None,,,,,,,11025,001,2024_Jan_08_0931,ANT,2021.2.3,59.92642235044252,
1,22,spatial,down,C,R,,,,,,Block.xlsx,"你已经完成了第一个实验区组

请稍作休息


点击空格键进入下一个区组。",-1.5,0,-1.5,right,RRRRR.png,,,,,0,0,0,0,0,19,19,21,,,,,,,,,,,,,,,,,,,,,,,,,,,,,,,,,,,,,,,,,,,,,,,,,,,,,,,,,,,,,,,,164.34756769996602,164.7477993000066,164.73268609994557,164.8484077999601,165.23286799993366,None,right,1,0.3465212999144569,165.23286799993366,None,164.73268609994557,164.8484077999601,164.8328831999097,None,165.59875060000923,None,,,,,,,11025,001,2024_Jan_08_0931,ANT,2021.2.3,59.92642235044252,
1,9,center,up,C,L,,,,,,Block.xlsx,"你已经完成了第一个实验区组

请稍作休息


点击空格键进入下一个区组。",0,50,1.5,left,LLLLL.png,,,,,0,0,0,0,0,20,20,8,,,,,,,,,,,,,,,,,,,,,,,,,,,,,,,,,,,,,,,,,,,,,,,,,,,,,,,,,,,,,,,,165.99953459994867,166.40011129993945,166.3841439000098,166.4835534999147,166.8846131999744,None,left,1,0.5262291999533772,166.8846131999744,None,166.3841439000098,166.4835534999147,166.4835534999147,None,167.4348274000222,None,,,,,,,11025,001,2024_Jan_08_0931,ANT,2021.2.3,59.92642235044252,
1,6,no,down,C,R,,,,,,Block.xlsx,"你已经完成了第一个实验区组

请稍作休息


点击空格键进入下一个区组。",50,0,-1.5,right,RRRRR.png,,,,,0,0,0,0,0,21,21,5,,,,,,,,,,,,,,,,,,,,,,,,,,,,,,,,,,,,,,,,,,,,,,,,,,,,,,,,,,,,,,,,167.83609719993547,168.23693229991477,168.2194684999995,168.3204552999232,168.72009790001903,None,right,1,0.6428029999369755,168.72009790001903,None,168.2194684999995,168.3204552999232,168.3204552999232,None,169.3878777999198,None,,,,,,,11025,001,2024_Jan_08_0931,ANT,2021.2.3,59.92642235044252,
1,24,spatial,down,IC,R,,,,,,Block.xlsx,"你已经完成了第一个实验区组

请稍作休息


点击空格键进入下一个区组。",-1.5,0,-1.5,right,LLRLL.png,,,,,0,0,0,0,0,22,22,23,,,,,,,,,,,,,,,,,,,,,,,,,,,,,,,,,,,,,,,,,,,,,,,,,,,,,,,,,,,,,,,,169.78829259995837,170.19008369999938,170.17414050002117,170.290097399964,170.67391569993924,None,right,1,0.5608157999813557,170.67391569993924,None,170.17414050002117,170.290097399964,170.27268009993713,None,171.25713519996498,None,,,,,,,11025,001,2024_Jan_08_0931,ANT,2021.2.3,59.92642235044252,
1,17,spatial,up,C,L,,,,,,Block.xlsx,"你已经完成了第一个实验区组

请稍作休息


点击空格键进入下一个区组。",1.5,0,1.5,left,LLLLL.png,,,,,0,0,0,0,0,23,23,16,,,,,,,,,,,,,,,,,,,,,,,,,,,,,,,,,,,,,,,,,,,,,,,,,,,,,,,,,,,,,,,,171.658715599915,172.05844329996035,172.04297279997263,172.14187900000252,172.543386299978,None,left,1,0.4353926000185311,172.543386299978,None,172.04297279997263,172.14187900000252,172.14187900000252,None,173.00988189992495,None,,,,,,,11025,001,2024_Jan_08_0931,ANT,2021.2.3,59.92642235044252,
1,11,center,up,IC,L,,,,,,Block.xlsx,"你已经完成了第一个实验区组

请稍作休息


点击空格键进入下一个区组。",0,50,1.5,left,RRLRR.png,,,,,0,0,0,0,1,0,24,10,,,,,,,,,,,,,,,,,,,,,,,,,,,,,,,,,,,,,,,,,,,,,,,,,,,,,,,,,,,,,,,,173.41090819996316,173.81195339991245,173.79634929995518,173.9120307000121,174.29523549997248,None,left,1,0.6035186999943107,174.29523549997248,None,173.79634929995518,173.9120307000121,173.8944163999986,None,174.93015599995852,None,,,,,,,11025,001,2024_Jan_08_0931,ANT,2021.2.3,59.92642235044252,
1,11,center,up,IC,L,,,,,,Block.xlsx,"你已经完成了第一个实验区组

请稍作休息


点击空格键进入下一个区组。",0,50,1.5,left,RRLRR.png,,,,,0,0,0,0,1,1,25,10,,,,,,,,,,,,,,,,,,,,,,,,,,,,,,,,,,,,,,,,,,,,,,,,,,,,,,,,,,,,,,,,175.32991789991502,175.73068289994262,175.71511200000532,175.81406859995332,176.2148536000168,None,right,0,0.4283790000481531,176.2148536000168,None,175.71511200000532,175.81406859995332,175.81406859995332,None,176.66565589990932,None,,,,,,,11025,001,2024_Jan_08_0931,ANT,2021.2.3,59.92642235044252,
1,15,center,down,IC,L,,,,,,Block.xlsx,"你已经完成了第一个实验区组

请稍作休息


点击空格键进入下一个区组。",0,50,-1.5,left,RRLRR.png,,,,,0,0,0,0,1,2,26,14,,,,,,,,,,,,,,,,,,,,,,,,,,,,,,,,,,,,,,,,,,,,,,,,,,,,,,,,,,,,,,,,177.06625969999004,177.46659520000685,177.45178309991024,177.5505589999957,177.95160569995642,None,left,1,0.6032472999067977,177.95160569995642,None,177.45178309991024,177.5505589999957,177.5505589999957,None,178.58502499992028,None,,,,,,,11025,001,2024_Jan_08_0931,ANT,2021.2.3,59.92642235044252,
1,12,center,up,IC,R,,,,,,Block.xlsx,"你已经完成了第一个实验区组

请稍作休息


点击空格键进入下一个区组。",0,50,1.5,right,LLRLL.png,,,,,0,0,0,0,1,3,27,11,,,,,,,,,,,,,,,,,,,,,,,,,,,,,,,,,,,,,,,,,,,,,,,,,,,,,,,,,,,,,,,,178.98550099995919,179.38687749998644,179.3703922999557,179.47027869999874,179.8710139999166,None,right,1,0.4358033000025898,179.8710139999166,None,179.3703922999557,179.47027869999874,179.47027869999874,None,180.33745150000323,None,,,,,,,11025,001,2024_Jan_08_0931,ANT,2021.2.3,59.92642235044252,
1,10,center,up,C,R,,,,,,Block.xlsx,"你已经完成了第一个实验区组

请稍作休息


点击空格键进入下一个区组。",0,50,1.5,right,RRRRR.png,,,,,0,0,0,0,1,4,28,9,,,,,,,,,,,,,,,,,,,,,,,,,,,,,,,,,,,,,,,,,,,,,,,,,,,,,,,,,,,,,,,,180.7383837000234,181.1402849999722,181.1219129000092,181.22278319997713,181.62275919993408,None,right,1,0.40401850000489503,181.62275919993408,None,181.1219129000092,181.22278319997713,181.22278319997713,None,182.05648029991426,None,,,,,,,11025,001,2024_Jan_08_0931,ANT,2021.2.3,59.92642235044252,
1,12,center,up,IC,R,,,,,,Block.xlsx,"你已经完成了第一个实验区组

请稍作休息


点击空格键进入下一个区组。",0,50,1.5,right,LLRLL.png,,,,,0,0,0,0,1,5,29,11,,,,,,,,,,,,,,,,,,,,,,,,,,,,,,,,,,,,,,,,,,,,,,,,,,,,,,,,,,,,,,,,182.45801539998502,182.8586502999533,182.84119860001374,182.94218309991993,183.34182630002033,None,right,1,0.4050969999516383,183.34182630002033,None,182.84119860001374,182.94218309991993,182.94218309991993,None,183.77576829993632,None,,,,,,,11025,001,2024_Jan_08_0931,ANT,2021.2.3,59.92642235044252,
1,23,spatial,down,IC,L,,,,,,Block.xlsx,"你已经完成了第一个实验区组

请稍作休息


点击空格键进入下一个区组。",-1.5,0,-1.5,left,RRLRR.png,,,,,0,0,0,0,1,6,30,22,,,,,,,,,,,,,,,,,,,,,,,,,,,,,,,,,,,,,,,,,,,,,,,,,,,,,,,,,,,,,,,,184.17729289992712,184.5781857999973,184.56035299994983,184.6621760999551,185.06189909996465,None,left,1,0.4688471000408754,185.06189909996465,None,184.56035299994983,184.6621760999551,184.6621760999551,None,185.5616078999592,None,,,,,,,11025,001,2024_Jan_08_0931,ANT,2021.2.3,59.92642235044252,
1,3,no,up,IC,L,,,,,,Block.xlsx,"你已经完成了第一个实验区组

请稍作休息


点击空格键进入下一个区组。",50,0,1.5,left,RRLRR.png,,,,,0,0,0,0,1,7,31,2,,,,,,,,,,,,,,,,,,,,,,,,,,,,,,,,,,,,,,,,,,,,,,,,,,,,,,,,,,,,,,,,185.9635011999635,186.36311829998158,186.34699270001147,186.4465346999932,186.84824600000866,None,left,1,0.49055730004329234,186.84824600000866,None,186.34699270001147,186.4465346999932,186.4465346999932,None,187.36450509994756,None,,,,,,,11025,001,2024_Jan_08_0931,ANT,2021.2.3,59.92642235044252,
1,7,no,down,IC,L,,,,,,Block.xlsx,"你已经完成了第一个实验区组

请稍作休息


点击空格键进入下一个区组。",50,0,-1.5,left,RRLRR.png,,,,,0,0,0,0,1,8,32,6,,,,,,,,,,,,,,,,,,,,,,,,,,,,,,,,,,,,,,,,,,,,,,,,,,,,,,,,,,,,,,,,187.76503209990915,188.16576599993277,188.15023779997136,188.24973249994218,188.65031459997408,None,left,1,0.5926372000249103,188.65031459997408,None,188.15023779997136,188.24973249994218,188.24973249994218,None,189.2687128999969,None,,,,,,,11025,001,2024_Jan_08_0931,ANT,2021.2.3,59.92642235044252,
1,1,no,up,C,L,,,,,,Block.xlsx,"你已经完成了第一个实验区组

请稍作休息


点击空格键进入下一个区组。",50,0,1.5,left,LLLLL.png,,,,,0,0,0,0,1,9,33,0,,,,,,,,,,,,,,,,,,,,,,,,,,,,,,,,,,,,,,,,,,,,,,,,,,,,,,,,,,,,,,,,189.66837869992014,190.06940259994008,190.05178699991666,190.15357159997802,190.55373269994743,None,left,1,0.4574600000632927,190.55373269994743,None,190.05178699991666,190.15357159997802,190.15357159997802,None,191.03644639998674,None,,,,,,,11025,001,2024_Jan_08_0931,ANT,2021.2.3,59.92642235044252,
1,11,center,up,IC,L,,,,,,Block.xlsx,"你已经完成了第一个实验区组

请稍作休息


点击空格键进入下一个区组。",0,50,1.5,left,RRLRR.png,,,,,0,0,0,0,1,10,34,10,,,,,,,,,,,,,,,,,,,,,,,,,,,,,,,,,,,,,,,,,,,,,,,,,,,,,,,,,,,,,,,,191.43738259992097,191.83807129994966,191.82251420000102,191.9388437999878,192.3227458000183,None,left,1,0.6560490999836475,192.3227458000183,None,191.82251420000102,191.9388437999878,191.92200889997184,None,193.00618889997713,None,,,,,,,11025,001,2024_Jan_08_0931,ANT,2021.2.3,59.92642235044252,
1,14,center,down,C,R,,,,,,Block.xlsx,"你已经完成了第一个实验区组

请稍作休息


点击空格键进入下一个区组。",0,50,-1.5,right,RRRRR.png,,,,,0,0,0,0,1,11,35,13,,,,,,,,,,,,,,,,,,,,,,,,,,,,,,,,,,,,,,,,,,,,,,,,,,,,,,,,,,,,,,,,193.40681810001843,193.80769479996525,193.79238799994346,193.8910725999158,194.29205529997125,None,right,1,0.8948409999720752,194.29205529997125,None,193.79238799994346,193.8910725999158,193.8910725999158,None,195.20942079997621,None,,,,,,,11025,001,2024_Jan_08_0931,ANT,2021.2.3,59.92642235044252,
1,23,spatial,down,IC,L,,,,,,Block.xlsx,"你已经完成了第一个实验区组

请稍作休息


点击空格键进入下一个区组。",-1.5,0,-1.5,left,RRLRR.png,,,,,0,0,0,0,1,12,36,22,,,,,,,,,,,,,,,,,,,,,,,,,,,,,,,,,,,,,,,,,,,,,,,,,,,,,,,,,,,,,,,,195.61047229997348,196.01183779991698,195.99390060000587,196.0944588999264,196.49695649999194,None,left,1,0.6178553000790998,196.49695649999194,None,195.99390060000587,196.0944588999264,196.0944588999264,None,197.14559139998164,None,,,,,,,11025,001,2024_Jan_08_0931,ANT,2021.2.3,59.92642235044252,
1,21,spatial,down,C,L,,,,,,Block.xlsx,"你已经完成了第一个实验区组

请稍作休息


点击空格键进入下一个区组。",-1.5,0,-1.5,left,LLLLL.png,,,,,0,0,0,0,1,13,37,20,,,,,,,,,,,,,,,,,,,,,,,,,,,,,,,,,,,,,,,,,,,,,,,,,,,,,,,,,,,,,,,,197.54655359999742,197.94836719997693,197.9306228000205,198.03171319991816,198.4325730999699,None,left,1,0.554597899899818,198.4325730999699,None,197.9306228000205,198.03171319991816,198.03171319991816,None,199.01533979992382,None,,,,,,,11025,001,2024_Jan_08_0931,ANT,2021.2.3,59.92642235044252,
1,11,center,up,IC,L,,,,,,Block.xlsx,"你已经完成了第一个实验区组

请稍作休息


点击空格键进入下一个区组。",0,50,1.5,left,RRLRR.png,,,,,0,0,0,0,1,14,38,10,,,,,,,,,,,,,,,,,,,,,,,,,,,,,,,,,,,,,,,,,,,,,,,,,,,,,,,,,,,,,,,,199.4165645999601,199.81767509994097,199.7998246999923,199.8997618999565,200.30067169992253,None,left,1,0.8064237999496982,200.30067169992253,None,199.7998246999923,199.8997618999565,199.8997618999565,None,201.13476549996994,None,,,,,,,11025,001,2024_Jan_08_0931,ANT,2021.2.3,59.92642235044252,
1,7,no,down,IC,L,,,,,,Block.xlsx,"你已经完成了第一个实验区组

请稍作休息


点击空格键进入下一个区组。",50,0,-1.5,left,RRLRR.png,,,,,0,0,0,0,1,15,39,6,,,,,,,,,,,,,,,,,,,,,,,,,,,,,,,,,,,,,,,,,,,,,,,,,,,,,,,,,,,,,,,,201.5354224999901,201.93679710000288,201.9205093999626,202.02140979992691,202.42263779998757,None,left,1,0.7162414999911562,202.42263779998757,None,201.9205093999626,202.02140979992691,202.02140979992691,None,203.15441710001323,None,,,,,,,11025,001,2024_Jan_08_0931,ANT,2021.2.3,59.92642235044252,
1,18,spatial,up,C,R,,,,,,Block.xlsx,"你已经完成了第一个实验区组

请稍作休息


点击空格键进入下一个区组。",1.5,0,1.5,right,RRRRR.png,,,,,0,0,0,0,1,16,40,17,,,,,,,,,,,,,,,,,,,,,,,,,,,,,,,,,,,,,,,,,,,,,,,,,,,,,,,,,,,,,,,,203.55527849995997,203.95616039994638,203.94021879998036,204.03989129990805,204.43989799998235,None,right,1,0.43545210000593215,204.43989799998235,None,203.94021879998036,204.03989129990805,204.03989129990805,None,204.8904510999564,None,,,,,,,11025,001,2024_Jan_08_0931,ANT,2021.2.3,59.92642235044252,
1,4,no,up,IC,R,,,,,,Block.xlsx,"你已经完成了第一个实验区组

请稍作休息


点击空格键进入下一个区组。",50,0,1.5,right,LLRLL.png,,,,,0,0,0,0,1,17,41,3,,,,,,,,,,,,,,,,,,,,,,,,,,,,,,,,,,,,,,,,,,,,,,,,,,,,,,,,,,,,,,,,205.29160509991925,205.69297580001876,205.67683599994052,205.79358950001188,206.17669310001656,None,right,1,0.6900715000228956,206.17669310001656,None,205.67683599994052,205.79358950001188,205.775132699986,None,206.893593100016,None,,,,,,,11025,001,2024_Jan_08_0931,ANT,2021.2.3,59.92642235044252,
1,22,spatial,down,C,R,,,,,,Block.xlsx,"你已经完成了第一个实验区组

请稍作休息


点击空格键进入下一个区组。",-1.5,0,-1.5,right,RRRRR.png,,,,,0,0,0,0,1,18,42,21,,,,,,,,,,,,,,,,,,,,,,,,,,,,,,,,,,,,,,,,,,,,,,,,,,,,,,,,,,,,,,,,207.29485519998707,207.6951574999839,207.67950079997536,207.77896139991935,208.1798033999512,None,right,1,0.4873460999224335,208.1798033999512,None,207.67950079997536,207.77896139991935,207.77896139991935,None,208.6961157999467,None,,,,,,,11025,001,2024_Jan_08_0931,ANT,2021.2.3,59.92642235044252,
1,18,spatial,up,C,R,,,,,,Block.xlsx,"你已经完成了第一个实验区组

请稍作休息


点击空格键进入下一个区组。",1.5,0,1.5,right,RRRRR.png,,,,,0,0,0,0,1,19,43,17,,,,,,,,,,,,,,,,,,,,,,,,,,,,,,,,,,,,,,,,,,,,,,,,,,,,,,,,,,,,,,,,209.09702679992188,209.4972450999776,209.48267349996604,209.58104869991075,209.98301580001134,None,right,1,0.6364764999598265,209.98301580001134,None,209.48267349996604,209.58104869991075,209.58104869991075,None,210.64916959998664,None,,,,,,,11025,001,2024_Jan_08_0931,ANT,2021.2.3,59.92642235044252,
1,4,no,up,IC,R,,,,,,Block.xlsx,"你已经完成了第一个实验区组

请稍作休息


点击空格键进入下一个区组。",50,0,1.5,right,LLRLL.png,,,,,0,0,0,0,1,20,44,3,,,,,,,,,,,,,,,,,,,,,,,,,,,,,,,,,,,,,,,,,,,,,,,,,,,,,,,,,,,,,,,,211.05061569996178,211.4504313999787,211.43339699995704,211.5342912999913,211.9353927000193,None,right,1,0.7393291000043973,211.9353927000193,None,211.43339699995704,211.5342912999913,211.5342912999913,None,212.7017754999688,None,,,,,,,11025,001,2024_Jan_08_0931,ANT,2021.2.3,59.92642235044252,
1,20,spatial,up,IC,R,,,,,,Block.xlsx,"你已经完成了第一个实验区组

请稍作休息


点击空格键进入下一个区组。",1.5,0,1.5,right,LLRLL.png,,,,,0,0,0,0,1,21,45,19,,,,,,,,,,,,,,,,,,,,,,,,,,,,,,,,,,,,,,,,,,,,,,,,,,,,,,,,,,,,,,,,213.10279279993847,213.50575050001498,213.4873339999467,213.58719909994397,213.9870786999818,None,right,1,0.455911900033243,213.9870786999818,None,213.4873339999467,213.58719909994397,213.58719909994397,None,214.47189759998582,None,,,,,,,11025,001,2024_Jan_08_0931,ANT,2021.2.3,59.92642235044252,
1,16,center,down,IC,R,,,,,,Block.xlsx,"你已经完成了第一个实验区组

请稍作休息


点击空格键进入下一个区组。",0,50,-1.5,right,LLRLL.png,,,,,0,0,0,0,1,22,46,15,,,,,,,,,,,,,,,,,,,,,,,,,,,,,,,,,,,,,,,,,,,,,,,,,,,,,,,,,,,,,,,,214.8720033999998,215.27353100001346,215.25576410000212,215.35659939993639,215.75746160000563,None,right,1,0.49375600006897,215.75746160000563,None,215.25576410000212,215.35659939993639,215.35659939993639,None,216.27398930001073,None,,,,,,,11025,001,2024_Jan_08_0931,ANT,2021.2.3,59.92642235044252,
1,13,center,down,C,L,,,,,,Block.xlsx,"你已经完成了第一个实验区组

请稍作休息


点击空格键进入下一个区组。",0,50,-1.5,left,LLLLL.png,,,,,0,0,0,0,1,23,47,12,,,,,,,,,,,,,,,,,,,,,,,,,,,,,,,,,,,,,,,,,,,,,,,,,,,,,,,,,,,,,,,,216.67456690000836,217.0765156999696,217.05867649998982,217.16037469997536,217.55966169992462,None,left,1,0.4997694999910891,217.55966169992462,None,217.05867649998982,217.16037469997536,217.16037469997536,None,218.076562799979,None,,,,,,,11025,001,2024_Jan_08_0931,ANT,2021.2.3,59.92642235044252,
1,2,no,up,C,R,,,,,,Block.xlsx,"你已经完成了第一个实验区组

请稍作休息


点击空格键进入下一个区组。",50,0,1.5,right,RRRRR.png,,,,,0,0,0,0,2,0,48,1,,,,,,,,,,,,,,,,,,,,,,,,,,,,,,,,,,,,,,,,,,,,,,,,,,,,,,,,,,,,,,,,218.47728210000787,218.87895990000106,218.86124160001054,218.96299939998426,219.36311599996407,None,right,1,0.46401190001051873,219.36311599996407,None,218.86124160001054,218.96299939998426,218.96299939998426,None,219.84574030002113,None,,,,,,,11025,001,2024_Jan_08_0931,ANT,2021.2.3,59.92642235044252,
1,23,spatial,down,IC,L,,,,,,Block.xlsx,"你已经完成了第一个实验区组

请稍作休息


点击空格键进入下一个区组。",-1.5,0,-1.5,left,RRLRR.png,,,,,0,0,0,0,2,1,49,22,,,,,,,,,,,,,,,,,,,,,,,,,,,,,,,,,,,,,,,,,,,,,,,,,,,,,,,,,,,,,,,,220.24643780000042,220.64782419998664,220.63064969994593,220.73181559995282,221.133076399914,None,left,1,0.525870900019072,221.133076399914,None,220.63064969994593,220.73181559995282,220.73181559995282,None,221.68233490001876,None,,,,,,,11025,001,2024_Jan_08_0931,ANT,2021.2.3,59.92642235044252,
1,12,center,up,IC,R,,,,,,Block.xlsx,"你已经完成了第一个实验区组

请稍作休息


点击空格键进入下一个区组。",0,50,1.5,right,LLRLL.png,,,,,0,0,0,0,2,2,50,11,,,,,,,,,,,,,,,,,,,,,,,,,,,,,,,,,,,,,,,,,,,,,,,,,,,,,,,,,,,,,,,,222.08241189992987,222.48492389998864,222.46663399995305,222.5671743999701,222.96756279992405,None,right,1,0.4274046999635175,222.96756279992405,None,222.46663399995305,222.5671743999701,222.5671743999701,None,223.41810969996732,None,,,,,,,11025,001,2024_Jan_08_0931,ANT,2021.2.3,59.92642235044252,
1,9,center,up,C,L,,,,,,Block.xlsx,"你已经完成了第一个实验区组

请稍作休息


点击空格键进入下一个区组。",0,50,1.5,left,LLLLL.png,,,,,0,0,0,0,2,3,51,8,,,,,,,,,,,,,,,,,,,,,,,,,,,,,,,,,,,,,,,,,,,,,,,,,,,,,,,,,,,,,,,,223.819075300009,224.21981449995656,224.20412299991585,224.3042814999353,224.70378799992613,None,left,1,0.5156670999713242,224.70378799992613,None,224.20412299991585,224.3042814999353,224.3042814999353,None,225.23721419996582,None,,,,,,,11025,001,2024_Jan_08_0931,ANT,2021.2.3,59.92642235044252,
1,19,spatial,up,IC,L,,,,,,Block.xlsx,"你已经完成了第一个实验区组

请稍作休息


点击空格键进入下一个区组。",1.5,0,1.5,left,RRLRR.png,,,,,0,0,0,0,2,4,52,18,,,,,,,,,,,,,,,,,,,,,,,,,,,,,,,,,,,,,,,,,,,,,,,,,,,,,,,,,,,,,,,,225.63848799990956,226.03903619991615,226.02239129994996,226.12336570001207,226.5234093000181,None,left,1,0.47155610006302595,226.5234093000181,None,226.02239129994996,226.12336570001207,226.12336570001207,None,227.02308840001933,None,,,,,,,11025,001,2024_Jan_08_0931,ANT,2021.2.3,59.92642235044252,
1,17,spatial,up,C,L,,,,,,Block.xlsx,"你已经完成了第一个实验区组

请稍作休息


点击空格键进入下一个区组。",1.5,0,1.5,left,LLLLL.png,,,,,0,0,0,0,2,5,53,16,,,,,,,,,,,,,,,,,,,,,,,,,,,,,,,,,,,,,,,,,,,,,,,,,,,,,,,,,,,,,,,,227.42462720000185,227.82438779994845,227.80840370000806,227.90997829998378,228.30834220000543,None,left,1,0.3828510999446735,228.30834220000543,None,227.80840370000806,227.90997829998378,227.90997829998378,None,228.70920469996054,None,,,,,,,11025,001,2024_Jan_08_0931,ANT,2021.2.3,59.92642235044252,
1,20,spatial,up,IC,R,,,,,,Block.xlsx,"你已经完成了第一个实验区组

请稍作休息


点击空格键进入下一个区组。",1.5,0,1.5,right,LLRLL.png,,,,,0,0,0,0,2,6,54,19,,,,,,,,,,,,,,,,,,,,,,,,,,,,,,,,,,,,,,,,,,,,,,,,,,,,,,,,,,,,,,,,229.1105477999663,229.51203909993637,229.49402819992974,229.59461689996533,229.9949651999632,None,right,1,0.46495550009422004,229.9949651999632,None,229.49402819992974,229.59461689996533,229.59461689996533,None,230.4781965999864,None,,,,,,,11025,001,2024_Jan_08_0931,ANT,2021.2.3,59.92642235044252,
1,14,center,down,C,R,,,,,,Block.xlsx,"你已经完成了第一个实验区组

请稍作休息


点击空格键进入下一个区组。",0,50,-1.5,right,RRRRR.png,,,,,0,0,0,0,2,7,55,13,,,,,,,,,,,,,,,,,,,,,,,,,,,,,,,,,,,,,,,,,,,,,,,,,,,,,,,,,,,,,,,,230.87899629992899,231.280866599991,231.26341299992055,231.36488899996039,231.76426209998317,None,right,1,0.47875190002378076,231.76426209998317,None,231.26341299992055,231.36488899996039,231.36488899996039,None,232.26437180000357,None,,,,,,,11025,001,2024_Jan_08_0931,ANT,2021.2.3,59.92642235044252,
1,17,spatial,up,C,L,,,,,,Block.xlsx,"你已经完成了第一个实验区组

请稍作休息


点击空格键进入下一个区组。",1.5,0,1.5,left,LLLLL.png,,,,,0,0,0,0,2,8,56,16,,,,,,,,,,,,,,,,,,,,,,,,,,,,,,,,,,,,,,,,,,,,,,,,,,,,,,,,,,,,,,,,232.6649065000238,233.06624309998006,233.04950089997146,233.14936879999004,233.55018349993043,None,left,1,0.3888417000416666,233.55018349993043,None,233.04950089997146,233.14936879999004,233.14936879999004,None,233.96676179999486,None,,,,,,,11025,001,2024_Jan_08_0931,ANT,2021.2.3,59.92642235044252,
1,1,no,up,C,L,,,,,,Block.xlsx,"你已经完成了第一个实验区组

请稍作休息


点击空格键进入下一个区组。",50,0,1.5,left,LLLLL.png,,,,,0,0,0,0,2,9,57,0,,,,,,,,,,,,,,,,,,,,,,,,,,,,,,,,,,,,,,,,,,,,,,,,,,,,,,,,,,,,,,,,234.36750219995156,234.76996940001845,234.75161889998708,234.85222110000905,235.25199389993213,None,left,1,0.45534019998740405,235.25199389993213,None,234.75161889998708,234.85222110000905,234.85222110000905,None,235.73628269997425,None,,,,,,,11025,001,2024_Jan_08_0931,ANT,2021.2.3,59.92642235044252,
1,6,no,down,C,R,,,,,,Block.xlsx,"你已经完成了第一个实验区组

请稍作休息


点击空格键进入下一个区组。",50,0,-1.5,right,RRRRR.png,,,,,0,0,0,0,2,10,58,5,,,,,,,,,,,,,,,,,,,,,,,,,,,,,,,,,,,,,,,,,,,,,,,,,,,,,,,,,,,,,,,,236.13831680000294,236.53719870001078,236.52103279996663,236.62248649995308,237.0217774999328,None,right,1,0.4531623999355361,237.0217774999328,None,236.52103279996663,236.62248649995308,236.62248649995308,None,237.5053718999261,None,,,,,,,11025,001,2024_Jan_08_0931,ANT,2021.2.3,59.92642235044252,
1,8,no,down,IC,R,,,,,,Block.xlsx,"你已经完成了第一个实验区组

请稍作休息


点击空格键进入下一个区组。",50,0,-1.5,right,LLRLL.png,,,,,0,0,0,0,2,11,59,7,,,,,,,,,,,,,,,,,,,,,,,,,,,,,,,,,,,,,,,,,,,,,,,,,,,,,,,,,,,,,,,,237.906228799955,238.30831709993072,238.2899131999584,238.39101759996265,238.79253879992757,None,right,1,0.594307699939236,238.79253879992757,None,238.2899131999584,238.39101759996265,238.39101759996265,None,239.408265999984,None,,,,,,,11025,001,2024_Jan_08_0931,ANT,2021.2.3,59.92642235044252,
1,19,spatial,up,IC,L,,,,,,Block.xlsx,"你已经完成了第一个实验区组

请稍作休息


点击空格键进入下一个区组。",1.5,0,1.5,left,RRLRR.png,,,,,0,0,0,0,2,12,60,18,,,,,,,,,,,,,,,,,,,,,,,,,,,,,,,,,,,,,,,,,,,,,,,,,,,,,,,,,,,,,,,,239.80889689992182,240.2093139999779,240.1933955999557,240.29368549992796,240.69447340001352,None,left,1,0.45246449997648597,240.69447340001352,None,240.1933955999557,240.29368549992796,240.29368549992796,None,241.17752539995126,None,,,,,,,11025,001,2024_Jan_08_0931,ANT,2021.2.3,59.92642235044252,
1,10,center,up,C,R,,,,,,Block.xlsx,"你已经完成了第一个实验区组

请稍作休息


点击空格键进入下一个区组。",0,50,1.5,right,RRRRR.png,,,,,0,0,0,0,2,13,61,9,,,,,,,,,,,,,,,,,,,,,,,,,,,,,,,,,,,,,,,,,,,,,,,,,,,,,,,,,,,,,,,,241.57852019998245,241.98021969990805,241.96201519994065,242.06218259991147,242.46340359991882,None,right,1,0.43551350000780076,242.46340359991882,None,241.96201519994065,242.06218259991147,242.06218259991147,None,242.91352709999774,None,,,,,,,11025,001,2024_Jan_08_0931,ANT,2021.2.3,59.92642235044252,
1,3,no,up,IC,L,,,,,,Block.xlsx,"你已经完成了第一个实验区组

请稍作休息


点击空格键进入下一个区组。",50,0,1.5,left,RRLRR.png,,,,,0,0,0,0,2,14,62,2,,,,,,,,,,,,,,,,,,,,,,,,,,,,,,,,,,,,,,,,,,,,,,,,,,,,,,,,,,,,,,,,243.31403279991355,243.71459420002066,243.70043550000992,243.79861629998777,244.1991726999404,None,left,1,0.5636983999283984,244.1991726999404,None,243.70043550000992,243.79861629998777,243.79861629998777,None,244.7829394999426,None,,,,,,,11025,001,2024_Jan_08_0931,ANT,2021.2.3,59.92642235044252,
1,22,spatial,down,C,R,,,,,,Block.xlsx,"你已经完成了第一个实验区组

请稍作休息


点击空格键进入下一个区组。",-1.5,0,-1.5,right,RRRRR.png,,,,,0,0,0,0,2,15,63,21,,,,,,,,,,,,,,,,,,,,,,,,,,,,,,,,,,,,,,,,,,,,,,,,,,,,,,,,,,,,,,,,245.1842886999948,245.58568169991486,245.56737429997884,245.66943419992458,246.06802799995057,None,right,1,0.6149564000079408,246.06802799995057,None,245.56737429997884,245.66943419992458,245.66943419992458,None,246.70372099999804,None,,,,,,,11025,001,2024_Jan_08_0931,ANT,2021.2.3,59.92642235044252,
1,9,center,up,C,L,,,,,,Block.xlsx,"你已经完成了第一个实验区组

请稍作休息


点击空格键进入下一个区组。",0,50,1.5,left,LLLLL.png,,,,,0,0,0,0,2,16,64,8,,,,,,,,,,,,,,,,,,,,,,,,,,,,,,,,,,,,,,,,,,,,,,,,,,,,,,,,,,,,,,,,247.10297869995702,247.50404549995437,247.4873474999331,247.5880206999136,247.988057199982,None,left,1,0.42294349998701364,247.988057199982,None,247.4873474999331,247.5880206999136,247.5880206999136,None,248.4383814999601,None,,,,,,,11025,001,2024_Jan_08_0931,ANT,2021.2.3,59.92642235044252,
1,16,center,down,IC,R,,,,,,Block.xlsx,"你已经完成了第一个实验区组

请稍作休息


点击空格键进入下一个区组。",0,50,-1.5,right,LLRLL.png,,,,,0,0,0,0,2,17,65,15,,,,,,,,,,,,,,,,,,,,,,,,,,,,,,,,,,,,,,,,,,,,,,,,,,,,,,,,,,,,,,,,248.83890219999012,249.24186109995935,249.22285799996462,249.32426289992873,249.72525519994088,None,right,1,0.4467067999066785,249.72525519994088,None,249.22285799996462,249.32426289992873,249.32426289992873,None,250.19092620001175,None,,,,,,,11025,001,2024_Jan_08_0931,ANT,2021.2.3,59.92642235044252,
1,14,center,down,C,R,,,,,,Block.xlsx,"你已经完成了第一个实验区组

请稍作休息


点击空格键进入下一个区组。",0,50,-1.5,right,RRRRR.png,,,,,0,0,0,0,2,18,66,13,,,,,,,,,,,,,,,,,,,,,,,,,,,,,,,,,,,,,,,,,,,,,,,,,,,,,,,,,,,,,,,,250.5921564999735,250.99370089999866,250.9754514999222,251.07628119993024,251.4765306999907,None,right,1,0.44668470008764416,251.4765306999907,None,250.9754514999222,251.07628119993024,251.07628119993024,None,251.94342979998328,None,,,,,,,11025,001,2024_Jan_08_0931,ANT,2021.2.3,59.92642235044252,
1,1,no,up,C,L,,,,,,Block.xlsx,"你已经完成了第一个实验区组

请稍作休息


点击空格键进入下一个区组。",50,0,1.5,left,LLLLL.png,,,,,0,0,0,0,2,19,67,0,,,,,,,,,,,,,,,,,,,,,,,,,,,,,,,,,,,,,,,,,,,,,,,,,,,,,,,,,,,,,,,,252.34411499998532,252.74610889994074,252.727982899989,252.8305039999541,253.22996359993704,None,left,1,0.4370543999830261,253.22996359993704,None,252.727982899989,252.8305039999541,252.8305039999541,None,253.69646239990834,None,,,,,,,11025,001,2024_Jan_08_0931,ANT,2021.2.3,59.92642235044252,
1,7,no,down,IC,L,,,,,,Block.xlsx,"你已经完成了第一个实验区组

请稍作休息


点击空格键进入下一个区组。",50,0,-1.5,left,RRLRR.png,,,,,0,0,0,0,2,20,68,6,,,,,,,,,,,,,,,,,,,,,,,,,,,,,,,,,,,,,,,,,,,,,,,,,,,,,,,,,,,,,,,,254.09745140001178,254.49841989995912,254.48066339991055,254.58118709991686,254.9835767999757,None,left,1,0.579912600107491,254.9835767999757,None,254.48066339991055,254.58118709991686,254.58118709991686,None,255.5822790999664,None,,,,,,,11025,001,2024_Jan_08_0931,ANT,2021.2.3,59.92642235044252,
1,10,center,up,C,R,,,,,,Block.xlsx,"你已经完成了第一个实验区组

请稍作休息


点击空格键进入下一个区组。",0,50,1.5,right,RRRRR.png,,,,,0,0,0,0,2,21,69,9,,,,,,,,,,,,,,,,,,,,,,,,,,,,,,,,,,,,,,,,,,,,,,,,,,,,,,,,,,,,,,,,255.98359249997884,256.38561669993214,256.3674621999962,256.4676542999223,256.86775909992866,None,right,1,0.3591145999962464,256.86775909992866,None,256.3674621999962,256.4676542999223,256.4676542999223,None,257.2512677999912,None,,,,,,,11025,001,2024_Jan_08_0931,ANT,2021.2.3,59.92642235044252,
1,4,no,up,IC,R,,,,,,Block.xlsx,"你已经完成了第一个实验区组

请稍作休息


点击空格键进入下一个区组。",50,0,1.5,right,LLRLL.png,,,,,0,0,0,0,2,22,70,3,,,,,,,,,,,,,,,,,,,,,,,,,,,,,,,,,,,,,,,,,,,,,,,,,,,,,,,,,,,,,,,,257.651878500008,258.05382809997536,258.0359136000043,258.1367754000239,258.5372589000035,None,right,1,0.5700688000069931,258.5372589000035,None,258.0359136000043,258.1367754000239,258.1367754000239,None,259.1373771999497,None,,,,,,,11025,001,2024_Jan_08_0931,ANT,2021.2.3,59.92642235044252,
1,5,no,down,C,L,,,,,,Block.xlsx,"你已经完成了第一个实验区组

请稍作休息


点击空格键进入下一个区组。",50,0,-1.5,left,LLLLL.png,,,,,0,0,0,0,2,23,71,4,,,,,,,,,,,,,,,,,,,,,,,,,,,,,,,,,,,,,,,,,,,,,,,,,,,,,,,,,,,,,,,,259.53806579997763,259.9394744000165,259.92262209998444,260.02378249994945,260.4237933999393,None,left,1,0.5070352000184357,260.4237933999393,None,259.92262209998444,260.02378249994945,260.02378249994945,None,260.95675809995737,None,,,,,,,11025,001,2024_Jan_08_0931,ANT,2021.2.3,59.92642235044252,
1,8,no,down,IC,R,,,,,,Block.xlsx,"你已经完成了第一个实验区组

请稍作休息


点击空格键进入下一个区组。",50,0,-1.5,right,LLRLL.png,,,,,0,0,0,0,3,0,72,7,,,,,,,,,,,,,,,,,,,,,,,,,,,,,,,,,,,,,,,,,,,,,,,,,,,,,,,,,,,,,,,,261.35745999997016,261.75965779996477,261.7417426999891,261.8427578000119,262.2435271999566,None,right,1,0.5438189998967573,262.2435271999566,None,261.7417426999891,261.8427578000119,261.8427578000119,None,262.80944639991503,None,,,,,,,11025,001,2024_Jan_08_0931,ANT,2021.2.3,59.92642235044252,
1,22,spatial,down,C,R,,,,,,Block.xlsx,"你已经完成了第一个实验区组

请稍作休息


点击空格键进入下一个区组。",-1.5,0,-1.5,right,RRRRR.png,,,,,0,0,0,0,3,1,73,21,,,,,,,,,,,,,,,,,,,,,,,,,,,,,,,,,,,,,,,,,,,,,,,,,,,,,,,,,,,,,,,,263.2103209999623,263.611357799964,263.5952060999116,263.69582769996487,264.09590559999924,None,right,1,0.38728080003056675,264.09590559999924,None,263.5952060999116,263.69582769996487,263.69582769996487,None,264.51228029991034,None,,,,,,,11025,001,2024_Jan_08_0931,ANT,2021.2.3,59.92642235044252,
1,13,center,down,C,L,,,,,,Block.xlsx,"你已经完成了第一个实验区组

请稍作休息


点击空格键进入下一个区组。",0,50,-1.5,left,LLLLL.png,,,,,0,0,0,0,3,2,74,12,,,,,,,,,,,,,,,,,,,,,,,,,,,,,,,,,,,,,,,,,,,,,,,,,,,,,,,,,,,,,,,,264.9127214999171,265.31334459991194,265.2977708999533,265.4159622999141,265.79808159999084,None,left,1,0.5811708000255749,265.79808159999084,None,265.2977708999533,265.4159622999141,265.3979037000099,None,266.39877189998515,None,,,,,,,11025,001,2024_Jan_08_0931,ANT,2021.2.3,59.92642235044252,
1,8,no,down,IC,R,,,,,,Block.xlsx,"你已经完成了第一个实验区组

请稍作休息


点击空格键进入下一个区组。",50,0,-1.5,right,LLRLL.png,,,,,0,0,0,0,3,3,75,7,,,,,,,,,,,,,,,,,,,,,,,,,,,,,,,,,,,,,,,,,,,,,,,,,,,,,,,,,,,,,,,,266.7996481999289,267.2006953000091,267.18277369998395,267.2835034999298,267.68376179994084,None,right,1,0.37507549999281764,267.68376179994084,None,267.18277369998395,267.2835034999298,267.2835034999298,None,268.0840547999833,None,,,,,,,11025,001,2024_Jan_08_0931,ANT,2021.2.3,59.92642235044252,
1,9,center,up,C,L,,,,,,Block.xlsx,"你已经完成了第一个实验区组

请稍作休息


点击空格键进入下一个区组。",0,50,1.5,left,LLLLL.png,,,,,0,0,0,0,3,4,76,8,,,,,,,,,,,,,,,,,,,,,,,,,,,,,,,,,,,,,,,,,,,,,,,,,,,,,,,,,,,,,,,,268.4844435999403,268.88680759991985,268.8691695999587,268.9692759999307,269.36953139991965,None,left,1,0.43395840004086494,269.36953139991965,None,268.8691695999587,268.9692759999307,268.9692759999307,None,269.8199875999708,None,,,,,,,11025,001,2024_Jan_08_0931,ANT,2021.2.3,59.92642235044252,
1,21,spatial,down,C,L,,,,,,Block.xlsx,"你已经完成了第一个实验区组

请稍作休息


点击空格键进入下一个区组。",-1.5,0,-1.5,left,LLLLL.png,,,,,0,0,0,0,3,5,77,20,,,,,,,,,,,,,,,,,,,,,,,,,,,,,,,,,,,,,,,,,,,,,,,,,,,,,,,,,,,,,,,,270.2213020999916,270.6221373999724,270.6053592999233,270.7054258999415,271.10528459993657,None,left,1,0.4019621000625193,271.10528459993657,None,270.6053592999233,270.7054258999415,270.7054258999415,None,271.5231625000015,None,,,,,,,11025,001,2024_Jan_08_0931,ANT,2021.2.3,59.92642235044252,
1,18,spatial,up,C,R,,,,,,Block.xlsx,"你已经完成了第一个实验区组

请稍作休息


点击空格键进入下一个区组。",1.5,0,1.5,right,RRRRR.png,,,,,0,0,0,0,3,6,78,17,,,,,,,,,,,,,,,,,,,,,,,,,,,,,,,,,,,,,,,,,,,,,,,,,,,,,,,,,,,,,,,,271.9231435999973,272.3237508999882,272.30827999999747,272.4072390999645,272.8078125999309,None,right,1,0.4195530000142753,272.8078125999309,None,272.30827999999747,272.4072390999645,272.4072390999645,None,273.2586392000085,None,,,,,,,11025,001,2024_Jan_08_0931,ANT,2021.2.3,59.92642235044252,
1,21,spatial,down,C,L,,,,,,Block.xlsx,"你已经完成了第一个实验区组

请稍作休息


点击空格键进入下一个区组。",-1.5,0,-1.5,left,LLLLL.png,,,,,0,0,0,0,3,7,79,20,,,,,,,,,,,,,,,,,,,,,,,,,,,,,,,,,,,,,,,,,,,,,,,,,,,,,,,,,,,,,,,,273.65903069998603,274.0597722999519,274.0453526999336,274.1607104999712,274.54433289996814,None,left,1,0.40262139996048063,274.54433289996814,None,274.0453526999336,274.1607104999712,274.1439692999702,None,274.97764820000157,None,,,,,,,11025,001,2024_Jan_08_0931,ANT,2021.2.3,59.92642235044252,
1,15,center,down,IC,L,,,,,,Block.xlsx,"你已经完成了第一个实验区组

请稍作休息


点击空格键进入下一个区组。",0,50,-1.5,left,RRLRR.png,,,,,0,0,0,0,3,8,80,14,,,,,,,,,,,,,,,,,,,,,,,,,,,,,,,,,,,,,,,,,,,,,,,,,,,,,,,,,,,,,,,,275.37878609995823,275.7806453999365,275.76274239993654,275.86374009994324,276.2629880999448,None,left,1,0.5481084999628365,276.2629880999448,None,275.76274239993654,275.86374009994324,275.86374009994324,None,276.83048989996314,None,,,,,,,11025,001,2024_Jan_08_0931,ANT,2021.2.3,59.92642235044252,
1,8,no,down,IC,R,,,,,,Block.xlsx,"你已经完成了第一个实验区组

请稍作休息


点击空格键进入下一个区组。",50,0,-1.5,right,LLRLL.png,,,,,0,0,0,0,3,9,81,7,,,,,,,,,,,,,,,,,,,,,,,,,,,,,,,,,,,,,,,,,,,,,,,,,,,,,,,,,,,,,,,,277.23175419995096,277.6326316000195,277.6158759999089,277.7151321999263,278.1159784999909,None,right,1,0.4952331999083981,278.1159784999909,None,277.6158759999089,277.7151321999263,277.7151321999263,None,278.6330291000195,None,,,,,,,11025,001,2024_Jan_08_0931,ANT,2021.2.3,59.92642235044252,
1,3,no,up,IC,L,,,,,,Block.xlsx,"你已经完成了第一个实验区组

请稍作休息


点击空格键进入下一个区组。",50,0,1.5,left,RRLRR.png,,,,,0,0,0,0,3,10,82,2,,,,,,,,,,,,,,,,,,,,,,,,,,,,,,,,,,,,,,,,,,,,,,,,,,,,,,,,,,,,,,,,279.0337121000048,279.4347039000131,279.4191831999924,279.51919609995093,279.91920080001,None,left,1,0.5397262000478804,279.91920080001,None,279.4191831999924,279.51919609995093,279.51919609995093,None,280.4858520999551,None,,,,,,,11025,001,2024_Jan_08_0931,ANT,2021.2.3,59.92642235044252,
1,7,no,down,IC,L,,,,,,Block.xlsx,"你已经完成了第一个实验区组

请稍作休息


点击空格键进入下一个区组。",50,0,-1.5,left,RRLRR.png,,,,,0,0,0,0,3,11,83,6,,,,,,,,,,,,,,,,,,,,,,,,,,,,,,,,,,,,,,,,,,,,,,,,,,,,,,,,,,,,,,,,280.8864986000117,281.287668999983,281.2722658999264,281.38788599998225,281.7718762999866,None,right,0,0.3593513999367133,281.7718762999866,None,281.2722658999264,281.38788599998225,281.37056249997113,None,282.1549790999852,None,,,,,,,11025,001,2024_Jan_08_0931,ANT,2021.2.3,59.92642235044252,
1,20,spatial,up,IC,R,,,,,,Block.xlsx,"你已经完成了第一个实验区组

请稍作休息


点击空格键进入下一个区组。",1.5,0,1.5,right,LLRLL.png,,,,,0,0,0,0,3,12,84,19,,,,,,,,,,,,,,,,,,,,,,,,,,,,,,,,,,,,,,,,,,,,,,,,,,,,,,,,,,,,,,,,282.55559649993666,282.9561204999918,282.94101099995896,283.0410875999369,283.4422767999349,None,right,1,0.43272819998674095,283.4422767999349,None,282.94101099995896,283.0410875999369,283.0410875999369,None,283.89101339993067,None,,,,,,,11025,001,2024_Jan_08_0931,ANT,2021.2.3,59.92642235044252,
1,21,spatial,down,C,L,,,,,,Block.xlsx,"你已经完成了第一个实验区组

请稍作休息


点击空格键进入下一个区组。",-1.5,0,-1.5,left,LLLLL.png,,,,,0,0,0,0,3,13,85,20,,,,,,,,,,,,,,,,,,,,,,,,,,,,,,,,,,,,,,,,,,,,,,,,,,,,,,,,,,,,,,,,284.2917021999601,284.6927541999612,284.67694539995864,284.7758440999314,285.1771570999408,None,left,1,0.4181891999905929,285.1771570999408,None,284.67694539995864,284.7758440999314,284.7758440999314,None,285.6106158000184,None,,,,,,,11025,001,2024_Jan_08_0931,ANT,2021.2.3,59.92642235044252,
1,24,spatial,down,IC,R,,,,,,Block.xlsx,"你已经完成了第一个实验区组

请稍作休息


点击空格键进入下一个区组。",-1.5,0,-1.5,right,LLRLL.png,,,,,0,0,0,0,3,14,86,23,,,,,,,,,,,,,,,,,,,,,,,,,,,,,,,,,,,,,,,,,,,,,,,,,,,,,,,,,,,,,,,,286.0116286999546,286.41163159999996,286.3969358999748,286.5131798000075,286.8976641999325,None,right,1,0.5295139999361709,286.8976641999325,None,286.3969358999748,286.5131798000075,286.4953870999161,None,287.44642980000935,None,,,,,,,11025,001,2024_Jan_08_0931,ANT,2021.2.3,59.92642235044252,
1,14,center,down,C,R,,,,,,Block.xlsx,"你已经完成了第一个实验区组

请稍作休息


点击空格键进入下一个区组。",0,50,-1.5,right,RRRRR.png,,,,,0,0,0,0,3,15,87,13,,,,,,,,,,,,,,,,,,,,,,,,,,,,,,,,,,,,,,,,,,,,,,,,,,,,,,,,,,,,,,,,287.84744289994705,288.2489580999827,288.2306891999906,288.3306472999975,288.7321516999509,None,right,1,0.5508622999768704,288.7321516999509,None,288.2306891999906,288.3306472999975,288.3306472999975,None,289.2995231000241,None,,,,,,,11025,001,2024_Jan_08_0931,ANT,2021.2.3,59.92642235044252,
1,15,center,down,IC,L,,,,,,Block.xlsx,"你已经完成了第一个实验区组

请稍作休息


点击空格键进入下一个区组。",0,50,-1.5,left,RRLRR.png,,,,,0,0,0,0,3,16,88,14,,,,,,,,,,,,,,,,,,,,,,,,,,,,,,,,,,,,,,,,,,,,,,,,,,,,,,,,,,,,,,,,289.69939590001013,290.1007754999446,290.08398320002016,290.18413439998403,290.58484319993295,None,left,1,0.5303139999741688,290.58484319993295,None,290.08398320002016,290.18413439998403,290.18413439998403,None,291.13529789994936,None,,,,,,,11025,001,2024_Jan_08_0931,ANT,2021.2.3,59.92642235044252,
1,1,no,up,C,L,,,,,,Block.xlsx,"你已经完成了第一个实验区组

请稍作休息


点击空格键进入下一个区组。",50,0,1.5,left,LLLLL.png,,,,,0,0,0,0,3,17,89,0,,,,,,,,,,,,,,,,,,,,,,,,,,,,,,,,,,,,,,,,,,,,,,,,,,,,,,,,,,,,,,,,291.535735799931,291.9368816999486,291.9214663999155,292.0376617999282,292.42133569996804,None,left,1,0.5016605999553576,292.42133569996804,None,291.9214663999155,292.0376617999282,292.0201736999443,None,292.9547641999088,None,,,,,,,11025,001,2024_Jan_08_0931,ANT,2021.2.3,59.92642235044252,
1,4,no,up,IC,R,,,,,,Block.xlsx,"你已经完成了第一个实验区组

请稍作休息


点击空格键进入下一个区组。",50,0,1.5,right,LLRLL.png,,,,,0,0,0,0,3,18,90,3,,,,,,,,,,,,,,,,,,,,,,,,,,,,,,,,,,,,,,,,,,,,,,,,,,,,,,,,,,,,,,,,293.35493349994067,293.7560469999444,293.73893669992685,293.8392485999502,294.24028229992837,None,right,1,0.6107826000079513,294.24028229992837,None,293.73893669992685,293.8392485999502,293.8392485999502,None,294.8742204000009,None,,,,,,,11025,001,2024_Jan_08_0931,ANT,2021.2.3,59.92642235044252,
1,2,no,up,C,R,,,,,,Block.xlsx,"你已经完成了第一个实验区组

请稍作休息


点击空格键进入下一个区组。",50,0,1.5,right,RRRRR.png,,,,,0,0,0,0,3,19,91,1,,,,,,,,,,,,,,,,,,,,,,,,,,,,,,,,,,,,,,,,,,,,,,,,,,,,,,,,,,,,,,,,295.2750193999382,295.67554520000704,295.6595463999547,295.7594979999121,296.16017549997196,None,right,1,0.46731129998806864,296.16017549997196,None,295.6595463999547,295.7594979999121,295.7594979999121,None,296.6437350999331,None,,,,,,,11025,001,2024_Jan_08_0931,ANT,2021.2.3,59.92642235044252,
1,23,spatial,down,IC,L,,,,,,Block.xlsx,"你已经完成了第一个实验区组

请稍作休息


点击空格键进入下一个区组。",-1.5,0,-1.5,left,RRLRR.png,,,,,0,0,0,0,3,20,92,22,,,,,,,,,,,,,,,,,,,,,,,,,,,,,,,,,,,,,,,,,,,,,,,,,,,,,,,,,,,,,,,,297.0452927999431,297.4449551999569,297.4288678999292,297.52981370000634,297.9289382999996,None,left,1,0.49049530003685504,297.9289382999996,None,297.4288678999292,297.52981370000634,297.52981370000634,None,298.44564719998743,None,,,,,,,11025,001,2024_Jan_08_0931,ANT,2021.2.3,59.92642235044252,
1,2,no,up,C,R,,,,,,Block.xlsx,"你已经完成了第一个实验区组

请稍作休息


点击空格键进入下一个区组。",50,0,1.5,right,RRRRR.png,,,,,0,0,0,0,3,21,93,1,,,,,,,,,,,,,,,,,,,,,,,,,,,,,,,,,,,,,,,,,,,,,,,,,,,,,,,,,,,,,,,,298.84636379999574,299.24770940002054,299.230401000008,299.33111879997887,299.7317921000067,None,right,1,0.5354058999801055,299.7317921000067,None,299.230401000008,299.33111879997887,299.33111879997887,None,300.2817245000042,None,,,,,,,11025,001,2024_Jan_08_0931,ANT,2021.2.3,59.92642235044252,
1,12,center,up,IC,R,,,,,,Block.xlsx,"你已经完成了第一个实验区组

请稍作休息


点击空格键进入下一个区组。",0,50,1.5,right,LLRLL.png,,,,,0,0,0,0,3,22,94,11,,,,,,,,,,,,,,,,,,,,,,,,,,,,,,,,,,,,,,,,,,,,,,,,,,,,,,,,,,,,,,,,300.68241769995075,301.0846755999373,301.0668204999529,301.1673254999332,301.56761199992616,None,right,1,0.7006206000223756,301.56761199992616,None,301.0668204999529,301.1673254999332,301.1673254999332,None,302.28480579995085,None,,,,,,,11025,001,2024_Jan_08_0931,ANT,2021.2.3,59.92642235044252,
1,13,center,down,C,L,,,,,,Block.xlsx,"你已经完成了第一个实验区组

请稍作休息


点击空格键进入下一个区组。",0,50,-1.5,left,LLLLL.png,,,,,0,0,0,0,3,23,95,12,,,,,,,,,,,,,,,,,,,,,,,,,,,,,,,,,,,,,,,,,,,,,,,,,,,,,,,,,,,,,,,,302.6856027999893,303.0860341999214,303.06975349993445,303.17169999994803,303.57073509995826,None,left,1,0.4961076999315992,303.57073509995826,None,303.06975349993445,303.17169999994803,303.17169999994803,None,304.0873012000229,None,,,,,,,11025,001,2024_Jan_08_0931,ANT,2021.2.3,59.92642235044252,
,,,,,,,,,,,Block.xlsx,"你已经完成了第一个实验区组

请稍作休息


点击空格键进入下一个区组。",,,,,,,,,,0,0,0,0,,,,,,,,,,,,,,,,,,,,,,,,,,,,,,,,,,,,,,,,,,,,,,,,,,,,,,,,,,,,,,,,,,,,,,,,,,,,,,,,,,,,,space,2.87450939998962,304.50525329995435,None,304.50525329995435,None,11025,001,2024_Jan_08_0931,ANT,2021.2.3,59.92642235044252,
1,24,spatial,down,IC,R,,,,,,Block.xlsx,"你已经完成了整个实验（三个区组）。

请报告实验者已完成实验

非常感谢，再见！",-1.5,0,-1.5,right,LLRLL.png,,,,,0,1,1,1,0,0,0,23,,,,,,,,,,,,,,,,,,,,,,,,,,,,,,,,,,,,,,,,,,,,,,,,,,,,,,,,,,,,,,,,307.4254990000045,307.82694840000477,307.8100601999322,307.91088109998964,308.3111296999268,None,right,1,0.5077637999784201,308.3111296999268,None,307.8100601999322,307.91088109998964,307.91088109998964,None,308.84437439998146,None,,,,,,,11025,001,2024_Jan_08_0931,ANT,2021.2.3,59.92642235044252,
1,14,center,down,C,R,,,,,,Block.xlsx,"你已经完成了整个实验（三个区组）。

请报告实验者已完成实验

非常感谢，再见！",0,50,-1.5,right,RRRRR.png,,,,,0,1,1,1,0,1,1,13,,,,,,,,,,,,,,,,,,,,,,,,,,,,,,,,,,,,,,,,,,,,,,,,,,,,,,,,,,,,,,,,309.24509290000424,309.64593649993185,309.63085690001026,309.7467300000135,310.13138259993866,None,right,1,0.839632699964568,310.13138259993866,None,309.63085690001026,309.7467300000135,309.7301380999852,None,310.99767910002265,None,,,,,,,11025,001,2024_Jan_08_0931,ANT,2021.2.3,59.92642235044252,
1,12,center,up,IC,R,,,,,,Block.xlsx,"你已经完成了整个实验（三个区组）。

请报告实验者已完成实验

非常感谢，再见！",0,50,1.5,right,LLRLL.png,,,,,0,1,1,1,0,2,2,11,,,,,,,,,,,,,,,,,,,,,,,,,,,,,,,,,,,,,,,,,,,,,,,,,,,,,,,,,,,,,,,,311.3982951999642,311.7995801999932,311.7829114999622,311.8830036999425,312.2835169999162,None,right,1,0.5914948000572622,312.2835169999162,None,311.7829114999622,311.8830036999425,311.8830036999425,None,312.9003706999356,None,,,,,,,11025,001,2024_Jan_08_0931,ANT,2021.2.3,59.92642235044252,
1,15,center,down,IC,L,,,,,,Block.xlsx,"你已经完成了整个实验（三个区组）。

请报告实验者已完成实验

非常感谢，再见！",0,50,-1.5,left,RRLRR.png,,,,,0,1,1,1,0,3,3,14,,,,,,,,,,,,,,,,,,,,,,,,,,,,,,,,,,,,,,,,,,,,,,,,,,,,,,,,,,,,,,,,313.3015385000035,313.7017969000153,313.68562100001145,313.7858011999633,314.1857425000053,None,left,1,0.4820893999421969,314.1857425000053,None,313.68562100001145,313.7858011999633,313.7858011999633,None,314.68648199993186,None,,,,,,,11025,001,2024_Jan_08_0931,ANT,2021.2.3,59.92642235044252,
1,22,spatial,down,C,R,,,,,,Block.xlsx,"你已经完成了整个实验（三个区组）。

请报告实验者已完成实验

非常感谢，再见！",-1.5,0,-1.5,right,RRRRR.png,,,,,0,1,1,1,0,4,4,21,,,,,,,,,,,,,,,,,,,,,,,,,,,,,,,,,,,,,,,,,,,,,,,,,,,,,,,,,,,,,,,,315.0870972999837,315.48907359992154,315.4714482999407,315.57365019991994,315.97370209998917,None,right,1,0.4052960000699386,315.97370209998917,None,315.4714482999407,315.57365019991994,315.57365019991994,None,316.40558909997344,None,,,,,,,11025,001,2024_Jan_08_0931,ANT,2021.2.3,59.92642235044252,
1,5,no,down,C,L,,,,,,Block.xlsx,"你已经完成了整个实验（三个区组）。

请报告实验者已完成实验

非常感谢，再见！",50,0,-1.5,left,LLLLL.png,,,,,0,1,1,1,0,5,5,4,,,,,,,,,,,,,,,,,,,,,,,,,,,,,,,,,,,,,,,,,,,,,,,,,,,,,,,,,,,,,,,,316.8071053000167,317.2073859999655,317.1908328999998,317.2917964999797,317.6909426000202,None,left,1,0.4484294999856502,317.6909426000202,None,317.1908328999998,317.2917964999797,317.2917964999797,None,318.15840690000914,None,,,,,,,11025,001,2024_Jan_08_0931,ANT,2021.2.3,59.92642235044252,
1,16,center,down,IC,R,,,,,,Block.xlsx,"你已经完成了整个实验（三个区组）。

请报告实验者已完成实验

非常感谢，再见！",0,50,-1.5,right,LLRLL.png,,,,,0,1,1,1,0,6,6,15,,,,,,,,,,,,,,,,,,,,,,,,,,,,,,,,,,,,,,,,,,,,,,,,,,,,,,,,,,,,,,,,318.5587344999658,318.959725099965,318.94396569998935,319.04372229997534,319.4456598999677,None,right,1,0.5253117000684142,319.4456598999677,None,318.94396569998935,319.04372229997534,319.04372229997534,None,319.994447199977,None,,,,,,,11025,001,2024_Jan_08_0931,ANT,2021.2.3,59.92642235044252,
1,9,center,up,C,L,,,,,,Block.xlsx,"你已经完成了整个实验（三个区组）。

请报告实验者已完成实验

非常感谢，再见！",0,50,1.5,left,LLLLL.png,,,,,0,1,1,1,0,7,7,8,,,,,,,,,,,,,,,,,,,,,,,,,,,,,,,,,,,,,,,,,,,,,,,,,,,,,,,,,,,,,,,,320.3957912999904,320.7969721999252,320.7789735000115,320.88042539998423,321.27964189997874,None,left,1,0.4353341000387445,321.27964189997874,None,320.7789735000115,320.88042539998423,320.88042539998423,None,321.7301822999725,None,,,,,,,11025,001,2024_Jan_08_0931,ANT,2021.2.3,59.92642235044252,
1,16,center,down,IC,R,,,,,,Block.xlsx,"你已经完成了整个实验（三个区组）。

请报告实验者已完成实验

非常感谢，再见！",0,50,-1.5,right,LLRLL.png,,,,,0,1,1,1,0,8,8,15,,,,,,,,,,,,,,,,,,,,,,,,,,,,,,,,,,,,,,,,,,,,,,,,,,,,,,,,,,,,,,,,322.13087009999435,322.5324356999481,322.5174622000195,322.616085799993,323.0160826999927,None,right,1,0.4033372000558302,323.0160826999927,None,322.5174622000195,322.616085799993,322.616085799993,None,323.44960409996565,None,,,,,,,11025,001,2024_Jan_08_0931,ANT,2021.2.3,59.92642235044252,
1,10,center,up,C,R,,,,,,Block.xlsx,"你已经完成了整个实验（三个区组）。

请报告实验者已完成实验

非常感谢，再见！",0,50,1.5,right,RRRRR.png,,,,,0,1,1,1,0,9,9,9,,,,,,,,,,,,,,,,,,,,,,,,,,,,,,,,,,,,,,,,,,,,,,,,,,,,,,,,,,,,,,,,323.85087540000677,324.2524278999772,324.23388199997135,324.33606639993377,324.7353079000022,None,right,1,0.468380399979651,324.7353079000022,None,324.23388199997135,324.33606639993377,324.33606639993377,None,325.2187576999422,None,,,,,,,11025,001,2024_Jan_08_0931,ANT,2021.2.3,59.92642235044252,
1,12,center,up,IC,R,,,,,,Block.xlsx,"你已经完成了整个实验（三个区组）。

请报告实验者已完成实验

非常感谢，再见！",0,50,1.5,right,LLRLL.png,,,,,0,1,1,1,0,10,10,11,,,,,,,,,,,,,,,,,,,,,,,,,,,,,,,,,,,,,,,,,,,,,,,,,,,,,,,,,,,,,,,,325.62015779991634,326.0218907999806,326.0041657999391,326.10453609994147,326.5044578999514,None,right,1,0.5625915999989957,326.5044578999514,None,326.0041657999391,326.10453609994147,326.10453609994147,None,327.0881676999852,None,,,,,,,11025,001,2024_Jan_08_0931,ANT,2021.2.3,59.92642235044252,
1,18,spatial,up,C,R,,,,,,Block.xlsx,"你已经完成了整个实验（三个区组）。

请报告实验者已完成实验

非常感谢，再见！",1.5,0,1.5,right,RRRRR.png,,,,,0,1,1,1,0,11,11,17,,,,,,,,,,,,,,,,,,,,,,,,,,,,,,,,,,,,,,,,,,,,,,,,,,,,,,,,,,,,,,,,327.4891612000065,327.8905494000064,327.8737919999985,327.97416220000014,328.3733852999285,None,right,1,0.42163060000166297,328.3733852999285,None,327.8737919999985,327.97416220000014,327.97416220000014,None,328.8240996999666,None,,,,,,,11025,001,2024_Jan_08_0931,ANT,2021.2.3,59.92642235044252,
1,8,no,down,IC,R,,,,,,Block.xlsx,"你已经完成了整个实验（三个区组）。

请报告实验者已完成实验

非常感谢，再见！",50,0,-1.5,right,LLRLL.png,,,,,0,1,1,1,0,12,12,7,,,,,,,,,,,,,,,,,,,,,,,,,,,,,,,,,,,,,,,,,,,,,,,,,,,,,,,,,,,,,,,,329.2248160999734,329.62595689995214,329.61040689994115,329.7092896999093,330.11043020000216,None,left,0,0.41319580003619194,330.11043020000216,None,329.61040689994115,329.7092896999093,329.7092896999093,None,330.54391999996733,None,,,,,,,11025,001,2024_Jan_08_0931,ANT,2021.2.3,59.92642235044252,
1,13,center,down,C,L,,,,,,Block.xlsx,"你已经完成了整个实验（三个区组）。

请报告实验者已完成实验

非常感谢，再见！",0,50,-1.5,left,LLLLL.png,,,,,0,1,1,1,0,13,13,12,,,,,,,,,,,,,,,,,,,,,,,,,,,,,,,,,,,,,,,,,,,,,,,,,,,,,,,,,,,,,,,,330.944164799992,331.3466316999402,331.32866869994905,331.428619000013,331.82909739995375,None,left,1,0.6307160999858752,331.82909739995375,None,331.32866869994905,331.428619000013,331.428619000013,None,332.47935139993206,None,,,,,,,11025,001,2024_Jan_08_0931,ANT,2021.2.3,59.92642235044252,
1,20,spatial,up,IC,R,,,,,,Block.xlsx,"你已经完成了整个实验（三个区组）。

请报告实验者已完成实验

非常感谢，再见！",1.5,0,1.5,right,LLRLL.png,,,,,0,1,1,1,0,14,14,19,,,,,,,,,,,,,,,,,,,,,,,,,,,,,,,,,,,,,,,,,,,,,,,,,,,,,,,,,,,,,,,,332.8803266999312,333.28099060000386,333.2648640999105,333.36485549993813,333.7657669999171,None,right,1,0.42140150000341237,333.7657669999171,None,333.2648640999105,333.36485549993813,333.36485549993813,None,334.2156113999663,None,,,,,,,11025,001,2024_Jan_08_0931,ANT,2021.2.3,59.92642235044252,
1,14,center,down,C,R,,,,,,Block.xlsx,"你已经完成了整个实验（三个区组）。

请报告实验者已完成实验

非常感谢，再见！",0,50,-1.5,right,RRRRR.png,,,,,0,1,1,1,0,15,15,13,,,,,,,,,,,,,,,,,,,,,,,,,,,,,,,,,,,,,,,,,,,,,,,,,,,,,,,,,,,,,,,,334.61614880000707,335.01874999993015,335.0005538999103,335.1008170999121,335.50137730001006,None,right,1,0.44606920005753636,335.50137730001006,None,335.0005538999103,335.1008170999121,335.1008170999121,None,335.96813769999426,None,,,,,,,11025,001,2024_Jan_08_0931,ANT,2021.2.3,59.92642235044252,
1,18,spatial,up,C,R,,,,,,Block.xlsx,"你已经完成了整个实验（三个区组）。

请报告实验者已完成实验

非常感谢，再见！",1.5,0,1.5,right,RRRRR.png,,,,,0,1,1,1,0,16,16,17,,,,,,,,,,,,,,,,,,,,,,,,,,,,,,,,,,,,,,,,,,,,,,,,,,,,,,,,,,,,,,,,336.3686383999884,336.7715976999607,336.7528652999317,336.85317629994825,337.2554473999189,None,right,1,0.5800894999410957,337.2554473999189,None,336.7528652999317,336.85317629994825,336.85317629994825,None,337.8541630000109,None,,,,,,,11025,001,2024_Jan_08_0931,ANT,2021.2.3,59.92642235044252,
1,22,spatial,down,C,R,,,,,,Block.xlsx,"你已经完成了整个实验（三个区组）。

请报告实验者已完成实验

非常感谢，再见！",-1.5,0,-1.5,right,RRRRR.png,,,,,0,1,1,1,0,17,17,21,,,,,,,,,,,,,,,,,,,,,,,,,,,,,,,,,,,,,,,,,,,,,,,,,,,,,,,,,,,,,,,,338.2554586000042,338.65572439995594,338.6387599000009,338.74140079994686,339.1410882999189,None,right,1,0.36619159998372197,339.1410882999189,None,338.6387599000009,338.74140079994686,338.74140079994686,None,339.52337860001717,None,,,,,,,11025,001,2024_Jan_08_0931,ANT,2021.2.3,59.92642235044252,
1,1,no,up,C,L,,,,,,Block.xlsx,"你已经完成了整个实验（三个区组）。

请报告实验者已完成实验

非常感谢，再见！",50,0,1.5,left,LLLLL.png,,,,,0,1,1,1,0,18,18,0,,,,,,,,,,,,,,,,,,,,,,,,,,,,,,,,,,,,,,,,,,,,,,,,,,,,,,,,,,,,,,,,339.9239232999971,340.3253063999582,340.30986269994173,340.42577600001823,340.80912739993073,None,left,1,0.4421335000079125,340.80912739993073,None,340.30986269994173,340.42577600001823,340.40903709991835,None,341.2757437999826,None,,,,,,,11025,001,2024_Jan_08_0931,ANT,2021.2.3,59.92642235044252,
1,5,no,down,C,L,,,,,,Block.xlsx,"你已经完成了整个实验（三个区组）。

请报告实验者已完成实验

非常感谢，再见！",50,0,-1.5,left,LLLLL.png,,,,,0,1,1,1,0,19,19,4,,,,,,,,,,,,,,,,,,,,,,,,,,,,,,,,,,,,,,,,,,,,,,,,,,,,,,,,,,,,,,,,341.6769386000233,342.0770612999331,342.0607721999986,342.1612096999306,342.5611322999466,None,left,1,0.5621770999860018,342.5611322999466,None,342.0607721999986,342.1612096999306,342.1612096999306,None,343.14522349997424,None,,,,,,,11025,001,2024_Jan_08_0931,ANT,2021.2.3,59.92642235044252,
1,6,no,down,C,R,,,,,,Block.xlsx,"你已经完成了整个实验（三个区组）。

请报告实验者已完成实验

非常感谢，再见！",50,0,-1.5,right,RRRRR.png,,,,,0,1,1,1,0,20,20,5,,,,,,,,,,,,,,,,,,,,,,,,,,,,,,,,,,,,,,,,,,,,,,,,,,,,,,,,,,,,,,,,343.5463602999225,343.9471573999617,343.92980139993597,344.0306926999474,344.43139359995257,None,right,1,0.5875572999939322,344.43139359995257,None,343.92980139993597,344.0306926999474,344.0306926999474,None,345.04815679998137,None,,,,,,,11025,001,2024_Jan_08_0931,ANT,2021.2.3,59.92642235044252,
1,23,spatial,down,IC,L,,,,,,Block.xlsx,"你已经完成了整个实验（三个区组）。

请报告实验者已完成实验

非常感谢，再见！",-1.5,0,-1.5,left,RRLRR.png,,,,,0,1,1,1,0,21,21,22,,,,,,,,,,,,,,,,,,,,,,,,,,,,,,,,,,,,,,,,,,,,,,,,,,,,,,,,,,,,,,,,345.44920539995655,345.84946099994704,345.8334388999501,345.93306219996884,346.333425699966,None,left,1,0.6059210000094026,346.333425699966,None,345.8334388999501,345.93306219996884,345.93306219996884,None,346.96757859992795,None,,,,,,,11025,001,2024_Jan_08_0931,ANT,2021.2.3,59.92642235044252,
1,14,center,down,C,R,,,,,,Block.xlsx,"你已经完成了整个实验（三个区组）。

请报告实验者已完成实验

非常感谢，再见！",0,50,-1.5,right,RRRRR.png,,,,,0,1,1,1,0,22,22,13,,,,,,,,,,,,,,,,,,,,,,,,,,,,,,,,,,,,,,,,,,,,,,,,,,,,,,,,,,,,,,,,347.36826929997187,347.76893339992967,347.7538120999234,347.85257139999885,348.2542356000049,None,right,1,0.4372642000671476,348.2542356000049,None,347.7538120999234,347.85257139999885,347.85257139999885,None,348.72036399994977,None,,,,,,,11025,001,2024_Jan_08_0931,ANT,2021.2.3,59.92642235044252,
1,19,spatial,up,IC,L,,,,,,Block.xlsx,"你已经完成了整个实验（三个区组）。

请报告实验者已完成实验

非常感谢，再见！",1.5,0,1.5,left,RRLRR.png,,,,,0,1,1,1,0,23,23,18,,,,,,,,,,,,,,,,,,,,,,,,,,,,,,,,,,,,,,,,,,,,,,,,,,,,,,,,,,,,,,,,349.1219868999906,349.52397809992544,349.5054213999538,349.6051592999138,350.00565089995507,None,left,1,0.47734949993900955,350.00565089995507,None,349.5054213999538,349.6051592999138,349.6051592999138,None,350.5061873999657,None,,,,,,,11025,001,2024_Jan_08_0931,ANT,2021.2.3,59.92642235044252,
1,24,spatial,down,IC,R,,,,,,Block.xlsx,"你已经完成了整个实验（三个区组）。

请报告实验者已完成实验

非常感谢，再见！",-1.5,0,-1.5,right,LLRLL.png,,,,,0,1,1,1,1,0,24,23,,,,,,,,,,,,,,,,,,,,,,,,,,,,,,,,,,,,,,,,,,,,,,,,,,,,,,,,,,,,,,,,350.90686200000346,351.3093834000174,351.291399299982,351.3917152999202,351.7915200999705,None,right,1,0.33968010009266436,351.7915200999705,None,351.291399299982,351.3917152999202,351.3917152999202,None,352.1586817000061,None,,,,,,,11025,001,2024_Jan_08_0931,ANT,2021.2.3,59.92642235044252,
1,3,no,up,IC,L,,,,,,Block.xlsx,"你已经完成了整个实验（三个区组）。

请报告实验者已完成实验

非常感谢，再见！",50,0,1.5,left,RRLRR.png,,,,,0,1,1,1,1,1,25,2,,,,,,,,,,,,,,,,,,,,,,,,,,,,,,,,,,,,,,,,,,,,,,,,,,,,,,,,,,,,,,,,352.5592889999971,352.96087599999737,352.94313539995346,353.0433624999132,353.44389399990905,None,left,1,0.5591985000064597,353.44389399990905,None,352.94313539995346,353.0433624999132,353.0433624999132,None,354.02848360000644,None,,,,,,,11025,001,2024_Jan_08_0931,ANT,2021.2.3,59.92642235044252,
1,5,no,down,C,L,,,,,,Block.xlsx,"你已经完成了整个实验（三个区组）。

请报告实验者已完成实验

非常感谢，再见！",50,0,-1.5,left,LLLLL.png,,,,,0,1,1,1,1,2,26,4,,,,,,,,,,,,,,,,,,,,,,,,,,,,,,,,,,,,,,,,,,,,,,,,,,,,,,,,,,,,,,,,354.42884760000743,354.8300028999802,354.81499480002094,354.9130908999359,355.31419169995934,None,left,1,0.552814899943769,355.31419169995934,None,354.81499480002094,354.9130908999359,354.9130908999359,None,355.89769999997225,None,,,,,,,11025,001,2024_Jan_08_0931,ANT,2021.2.3,59.92642235044252,
1,4,no,up,IC,R,,,,,,Block.xlsx,"你已经完成了整个实验（三个区组）。

请报告实验者已完成实验

非常感谢，再见！",50,0,1.5,right,LLRLL.png,,,,,0,1,1,1,1,3,27,3,,,,,,,,,,,,,,,,,,,,,,,,,,,,,,,,,,,,,,,,,,,,,,,,,,,,,,,,,,,,,,,,356.29819459991995,356.6996826999821,356.68203919997904,356.7828837999841,357.1838492999086,None,right,1,0.5714312000200152,357.1838492999086,None,356.68203919997904,356.7828837999841,356.7828837999841,None,357.7844871999696,None,,,,,,,11025,001,2024_Jan_08_0931,ANT,2021.2.3,59.92642235044252,
1,2,no,up,C,R,,,,,,Block.xlsx,"你已经完成了整个实验（三个区组）。

请报告实验者已完成实验

非常感谢，再见！",50,0,1.5,right,RRRRR.png,,,,,0,1,1,1,1,4,28,1,,,,,,,,,,,,,,,,,,,,,,,,,,,,,,,,,,,,,,,,,,,,,,,,,,,,,,,,,,,,,,,,358.18445489997976,358.584947599913,358.5686532999389,358.6686516000191,359.06870569998864,None,right,1,0.47831689997110516,359.06870569998864,None,358.5686532999389,358.6686516000191,358.6686516000191,None,359.5704662000062,None,,,,,,,11025,001,2024_Jan_08_0931,ANT,2021.2.3,59.92642235044252,
1,18,spatial,up,C,R,,,,,,Block.xlsx,"你已经完成了整个实验（三个区组）。

请报告实验者已完成实验

非常感谢，再见！",1.5,0,1.5,right,RRRRR.png,,,,,0,1,1,1,1,5,29,17,,,,,,,,,,,,,,,,,,,,,,,,,,,,,,,,,,,,,,,,,,,,,,,,,,,,,,,,,,,,,,,,359.9703692999901,360.37259579997044,360.3548678000225,360.4563173999777,360.8556019999087,None,right,1,0.3877291999524459,360.8556019999087,None,360.3548678000225,360.4563173999777,360.4563173999777,None,361.27212460001465,None,,,,,,,11025,001,2024_Jan_08_0931,ANT,2021.2.3,59.92642235044252,
1,22,spatial,down,C,R,,,,,,Block.xlsx,"你已经完成了整个实验（三个区组）。

请报告实验者已完成实验

非常感谢，再见！",-1.5,0,-1.5,right,RRRRR.png,,,,,0,1,1,1,1,6,30,21,,,,,,,,,,,,,,,,,,,,,,,,,,,,,,,,,,,,,,,,,,,,,,,,,,,,,,,,,,,,,,,,361.67284709995147,362.07483719999436,362.0567287999438,362.15829429996666,362.5587631999515,None,right,1,0.38038669992238283,362.5587631999515,None,362.0567287999438,362.15829429996666,362.15829429996666,None,362.95794240001123,None,,,,,,,11025,001,2024_Jan_08_0931,ANT,2021.2.3,59.92642235044252,
1,6,no,down,C,R,,,,,,Block.xlsx,"你已经完成了整个实验（三个区组）。

请报告实验者已完成实验

非常感谢，再见！",50,0,-1.5,right,RRRRR.png,,,,,0,1,1,1,1,7,31,5,,,,,,,,,,,,,,,,,,,,,,,,,,,,,,,,,,,,,,,,,,,,,,,,,,,,,,,,,,,,,,,,363.3586217999691,363.7599437999306,363.74491070001386,363.86079039995093,364.24332289991435,None,right,1,0.4401437999913469,364.24332289991435,None,363.74491070001386,363.86079039995093,363.8437773999758,None,364.7108622000087,None,,,,,,,11025,001,2024_Jan_08_0931,ANT,2021.2.3,59.92642235044252,
1,7,no,down,IC,L,,,,,,Block.xlsx,"你已经完成了整个实验（三个区组）。

请报告实验者已完成实验

非常感谢，再见！",50,0,-1.5,left,RRLRR.png,,,,,0,1,1,1,1,8,32,6,,,,,,,,,,,,,,,,,,,,,,,,,,,,,,,,,,,,,,,,,,,,,,,,,,,,,,,,,,,,,,,,365.1111697999295,365.5116558999289,365.4962059999816,365.59586809994653,365.996631899965,None,left,1,0.7424517999170348,365.996631899965,None,365.4962059999816,365.59586809994653,365.59586809994653,None,366.7637085999595,None,,,,,,,11025,001,2024_Jan_08_0931,ANT,2021.2.3,59.92642235044252,
1,13,center,down,C,L,,,,,,Block.xlsx,"你已经完成了整个实验（三个区组）。

请报告实验者已完成实验

非常感谢，再见！",0,50,-1.5,left,LLLLL.png,,,,,0,1,1,1,1,9,33,12,,,,,,,,,,,,,,,,,,,,,,,,,,,,,,,,,,,,,,,,,,,,,,,,,,,,,,,,,,,,,,,,367.1642950999085,367.5662203999236,367.5480596999405,367.64969789993484,368.0495688000228,None,left,1,0.40152049995958805,368.0495688000228,None,367.5480596999405,367.64969789993484,367.64969789993484,None,368.46612230001483,None,,,,,,,11025,001,2024_Jan_08_0931,ANT,2021.2.3,59.92642235044252,
1,24,spatial,down,IC,R,,,,,,Block.xlsx,"你已经完成了整个实验（三个区组）。

请报告实验者已完成实验

非常感谢，再见！",-1.5,0,-1.5,right,LLRLL.png,,,,,0,1,1,1,1,10,34,23,,,,,,,,,,,,,,,,,,,,,,,,,,,,,,,,,,,,,,,,,,,,,,,,,,,,,,,,,,,,,,,,368.8670448999619,369.267959699966,369.25128580001183,369.35231159999967,369.75242069992237,None,right,1,0.37087099999189377,369.75242069992237,None,369.25128580001183,369.35231159999967,369.35231159999967,None,370.15199329995085,None,,,,,,,11025,001,2024_Jan_08_0931,ANT,2021.2.3,59.92642235044252,
1,2,no,up,C,R,,,,,,Block.xlsx,"你已经完成了整个实验（三个区组）。

请报告实验者已完成实验

非常感谢，再见！",50,0,1.5,right,RRRRR.png,,,,,0,1,1,1,1,11,35,1,,,,,,,,,,,,,,,,,,,,,,,,,,,,,,,,,,,,,,,,,,,,,,,,,,,,,,,,,,,,,,,,370.5525925999973,370.9536366999382,370.93811230000574,371.0547709999373,371.4373615999939,None,right,1,0.4696961999870837,371.4373615999939,None,370.93811230000574,371.0547709999373,371.0376723000081,None,371.93807759997435,None,,,,,,,11025,001,2024_Jan_08_0931,ANT,2021.2.3,59.92642235044252,
1,19,spatial,up,IC,L,,,,,,Block.xlsx,"你已经完成了整个实验（三个区组）。

请报告实验者已完成实验

非常感谢，再见！",1.5,0,1.5,left,RRLRR.png,,,,,0,1,1,1,1,12,36,18,,,,,,,,,,,,,,,,,,,,,,,,,,,,,,,,,,,,,,,,,,,,,,,,,,,,,,,,,,,,,,,,372.3391534999246,372.740770699922,372.72281259996817,372.82412419992033,373.22378260002006,None,left,1,0.4677141000283882,373.22378260002006,None,372.72281259996817,372.82412419992033,372.82412419992033,None,373.70729139994364,None,,,,,,,11025,001,2024_Jan_08_0931,ANT,2021.2.3,59.92642235044252,
1,4,no,up,IC,R,,,,,,Block.xlsx,"你已经完成了整个实验（三个区组）。

请报告实验者已完成实验

非常感谢，再见！",50,0,1.5,right,LLRLL.png,,,,,0,1,1,1,1,13,37,3,,,,,,,,,,,,,,,,,,,,,,,,,,,,,,,,,,,,,,,,,,,,,,,,,,,,,,,,,,,,,,,,374.10766179999337,374.50902499991935,374.4926573999692,374.5925572999986,374.99316670000553,None,right,1,0.4101254000561312,374.99316670000553,None,374.4926573999692,374.5925572999986,374.5925572999986,None,375.42669699992985,None,,,,,,,11025,001,2024_Jan_08_0931,ANT,2021.2.3,59.92642235044252,
1,3,no,up,IC,L,,,,,,Block.xlsx,"你已经完成了整个实验（三个区组）。

请报告实验者已完成实验

非常感谢，再见！",50,0,1.5,left,RRLRR.png,,,,,0,1,1,1,1,14,38,2,,,,,,,,,,,,,,,,,,,,,,,,,,,,,,,,,,,,,,,,,,,,,,,,,,,,,,,,,,,,,,,,375.82719839992933,376.22780809993856,376.2126007999759,376.32854919997044,376.7141617999878,None,left,1,0.5769299999810755,376.7141617999878,None,376.2126007999759,376.32854919997044,376.3139342999784,None,377.31372849992476,None,,,,,,,11025,001,2024_Jan_08_0931,ANT,2021.2.3,59.92642235044252,
1,12,center,up,IC,R,,,,,,Block.xlsx,"你已经完成了整个实验（三个区组）。

请报告实验者已完成实验

非常感谢，再见！",0,50,1.5,right,LLRLL.png,,,,,0,1,1,1,1,15,39,11,,,,,,,,,,,,,,,,,,,,,,,,,,,,,,,,,,,,,,,,,,,,,,,,,,,,,,,,,,,,,,,,377.7132387999445,378.1151080999989,378.09720999991987,378.197772399988,378.59847209998406,None,right,1,0.5408367998898029,378.59847209998406,None,378.09720999991987,378.197772399988,378.197772399988,None,379.1653451999882,None,,,,,,,11025,001,2024_Jan_08_0931,ANT,2021.2.3,59.92642235044252,
1,7,no,down,IC,L,,,,,,Block.xlsx,"你已经完成了整个实验（三个区组）。

请报告实验者已完成实验

非常感谢，再见！",50,0,-1.5,left,RRLRR.png,,,,,0,1,1,1,1,16,40,6,,,,,,,,,,,,,,,,,,,,,,,,,,,,,,,,,,,,,,,,,,,,,,,,,,,,,,,,,,,,,,,,379.5666116999928,379.96732870000415,379.9512919000117,380.05061939998996,380.4514245999744,None,left,1,0.7518817000091076,380.4514245999744,None,379.9512919000117,380.05061939998996,380.05061939998996,None,381.2185131999431,None,,,,,,,11025,001,2024_Jan_08_0931,ANT,2021.2.3,59.92642235044252,
1,7,no,down,IC,L,,,,,,Block.xlsx,"你已经完成了整个实验（三个区组）。

请报告实验者已完成实验

非常感谢，再见！",50,0,-1.5,left,RRLRR.png,,,,,0,1,1,1,1,17,41,6,,,,,,,,,,,,,,,,,,,,,,,,,,,,,,,,,,,,,,,,,,,,,,,,,,,,,,,,,,,,,,,,381.618892999948,382.0206404000055,382.0043909000233,382.1038256000029,382.5044839999173,None,left,1,0.6425897999433801,382.5044839999173,None,382.0043909000233,382.1038256000029,382.1038256000029,None,383.17128629994113,None,,,,,,,11025,001,2024_Jan_08_0931,ANT,2021.2.3,59.92642235044252,
1,11,center,up,IC,L,,,,,,Block.xlsx,"你已经完成了整个实验（三个区组）。

请报告实验者已完成实验

非常感谢，再见！",0,50,1.5,left,RRLRR.png,,,,,0,1,1,1,1,18,42,10,,,,,,,,,,,,,,,,,,,,,,,,,,,,,,,,,,,,,,,,,,,,,,,,,,,,,,,,,,,,,,,,383.57257339998614,383.9732528999448,383.95634289993905,384.058177699917,384.45725799992215,None,left,1,0.6258421000093222,384.45725799992215,None,383.95634289993905,384.058177699917,384.058177699917,None,385.10745589993894,None,,,,,,,11025,001,2024_Jan_08_0931,ANT,2021.2.3,59.92642235044252,
1,13,center,down,C,L,,,,,,Block.xlsx,"你已经完成了整个实验（三个区组）。

请报告实验者已完成实验

非常感谢，再见！",0,50,-1.5,left,LLLLL.png,,,,,0,1,1,1,1,19,43,12,,,,,,,,,,,,,,,,,,,,,,,,,,,,,,,,,,,,,,,,,,,,,,,,,,,,,,,,,,,,,,,,385.50796039996203,385.9090029000072,385.89279429998714,385.99446049996186,386.39270189998206,None,left,1,0.49086710007395595,386.39270189998206,None,385.89279429998714,385.99446049996186,385.99446049996186,None,386.91021719994023,None,,,,,,,11025,001,2024_Jan_08_0931,ANT,2021.2.3,59.92642235044252,
1,9,center,up,C,L,,,,,,Block.xlsx,"你已经完成了整个实验（三个区组）。

请报告实验者已完成实验

非常感谢，再见！",0,50,1.5,left,LLLLL.png,,,,,0,1,1,1,1,20,44,8,,,,,,,,,,,,,,,,,,,,,,,,,,,,,,,,,,,,,,,,,,,,,,,,,,,,,,,,,,,,,,,,387.3114173000213,387.712688599946,387.69456179998815,387.7956402999116,388.1955533999717,None,left,1,0.44801250007003546,388.1955533999717,None,387.69456179998815,387.7956402999116,387.7956402999116,None,388.6639701999957,None,,,,,,,11025,001,2024_Jan_08_0931,ANT,2021.2.3,59.92642235044252,
1,21,spatial,down,C,L,,,,,,Block.xlsx,"你已经完成了整个实验（三个区组）。

请报告实验者已完成实验

非常感谢，再见！",-1.5,0,-1.5,left,LLLLL.png,,,,,0,1,1,1,1,21,45,20,,,,,,,,,,,,,,,,,,,,,,,,,,,,,,,,,,,,,,,,,,,,,,,,,,,,,,,,,,,,,,,,389.0638827999355,389.46506850002334,389.4477794999257,389.54772419994697,389.94833579997066,None,left,1,0.526829699985683,389.94833579997066,None,389.4477794999257,389.54772419994697,389.54772419994697,None,390.49884519993793,None,,,,,,,11025,001,2024_Jan_08_0931,ANT,2021.2.3,59.92642235044252,
1,1,no,up,C,L,,,,,,Block.xlsx,"你已经完成了整个实验（三个区组）。

请报告实验者已完成实验

非常感谢，再见！",50,0,1.5,left,LLLLL.png,,,,,0,1,1,1,1,22,46,0,,,,,,,,,,,,,,,,,,,,,,,,,,,,,,,,,,,,,,,,,,,,,,,,,,,,,,,,,,,,,,,,390.90030819992535,391.30072419997305,391.284367699991,391.38470309996046,391.7843673999887,None,left,1,0.5311805999372154,391.7843673999887,None,391.284367699991,391.38470309996046,391.38470309996046,None,392.335035600001,None,,,,,,,11025,001,2024_Jan_08_0931,ANT,2021.2.3,59.92642235044252,
1,10,center,up,C,R,,,,,,Block.xlsx,"你已经完成了整个实验（三个区组）。

请报告实验者已完成实验

非常感谢，再见！",0,50,1.5,right,RRRRR.png,,,,,0,1,1,1,1,23,47,9,,,,,,,,,,,,,,,,,,,,,,,,,,,,,,,,,,,,,,,,,,,,,,,,,,,,,,,,,,,,,,,,392.73546280001756,393.1368820000207,393.12120359996334,393.2379438999342,393.62063069990836,None,right,1,0.5105745999608189,393.62063069990836,None,393.12120359996334,393.2379438999342,393.22031699994113,None,394.15438520000316,None,,,,,,,11025,001,2024_Jan_08_0931,ANT,2021.2.3,59.92642235044252,
1,6,no,down,C,R,,,,,,Block.xlsx,"你已经完成了整个实验（三个区组）。

请报告实验者已完成实验

非常感谢，再见！",50,0,-1.5,right,RRRRR.png,,,,,0,1,1,1,2,0,48,5,,,,,,,,,,,,,,,,,,,,,,,,,,,,,,,,,,,,,,,,,,,,,,,,,,,,,,,,,,,,,,,,394.55485029995907,394.9572140999371,394.9391102999216,395.04035289993044,395.44043459999375,None,right,1,0.39479530008975416,395.44043459999375,None,394.9391102999216,395.04035289993044,395.04035289993044,None,395.8567332000239,None,,,,,,,11025,001,2024_Jan_08_0931,ANT,2021.2.3,59.92642235044252,
1,21,spatial,down,C,L,,,,,,Block.xlsx,"你已经完成了整个实验（三个区组）。

请报告实验者已完成实验

非常感谢，再见！",-1.5,0,-1.5,left,LLLLL.png,,,,,0,1,1,1,2,1,49,20,,,,,,,,,,,,,,,,,,,,,,,,,,,,,,,,,,,,,,,,,,,,,,,,,,,,,,,,,,,,,,,,396.2573886999162,396.6586220000172,396.6417625999311,396.741676799953,397.1425812999951,None,left,1,0.38128029997460544,397.1425812999951,None,396.6417625999311,396.741676799953,396.741676799953,None,397.5436137999641,None,,,,,,,11025,001,2024_Jan_08_0931,ANT,2021.2.3,59.92642235044252,
1,19,spatial,up,IC,L,,,,,,Block.xlsx,"你已经完成了整个实验（三个区组）。

请报告实验者已完成实验

非常感谢，再见！",1.5,0,1.5,left,RRLRR.png,,,,,0,1,1,1,2,2,50,18,,,,,,,,,,,,,,,,,,,,,,,,,,,,,,,,,,,,,,,,,,,,,,,,,,,,,,,,,,,,,,,,397.94325160002336,398.34373899991624,398.3279731000075,398.42823720001616,398.82829620002303,None,left,1,0.4629107000073418,398.82829620002303,None,398.3279731000075,398.42823720001616,398.42823720001616,None,399.3121581999585,None,,,,,,,11025,001,2024_Jan_08_0931,ANT,2021.2.3,59.92642235044252,
1,20,spatial,up,IC,R,,,,,,Block.xlsx,"你已经完成了整个实验（三个区组）。

请报告实验者已完成实验

非常感谢，再见！",1.5,0,1.5,right,LLRLL.png,,,,,0,1,1,1,2,3,51,19,,,,,,,,,,,,,,,,,,,,,,,,,,,,,,,,,,,,,,,,,,,,,,,,,,,,,,,,,,,,,,,,399.71303999994416,400.1138187999604,400.09681859996635,400.19711539999116,400.5987785999896,None,right,1,0.468263000017032,400.5987785999896,None,400.09681859996635,400.19711539999116,400.19711539999116,None,401.09796809998807,None,,,,,,,11025,001,2024_Jan_08_0931,ANT,2021.2.3,59.92642235044252,
1,10,center,up,C,R,,,,,,Block.xlsx,"你已经完成了整个实验（三个区组）。

请报告实验者已完成实验

非常感谢，再见！",0,50,1.5,right,RRRRR.png,,,,,0,1,1,1,2,4,52,9,,,,,,,,,,,,,,,,,,,,,,,,,,,,,,,,,,,,,,,,,,,,,,,,,,,,,,,,,,,,,,,,401.49855979997665,401.89975530002266,401.8826143000042,401.9825587000232,402.3836444999324,None,right,1,0.5717979000182822,402.3836444999324,None,401.8826143000042,401.9825587000232,401.9825587000232,None,402.983958399971,None,,,,,,,11025,001,2024_Jan_08_0931,ANT,2021.2.3,59.92642235044252,
1,19,spatial,up,IC,L,,,,,,Block.xlsx,"你已经完成了整个实验（三个区组）。

请报告实验者已完成实验

非常感谢，再见！",1.5,0,1.5,left,RRLRR.png,,,,,0,1,1,1,2,5,53,18,,,,,,,,,,,,,,,,,,,,,,,,,,,,,,,,,,,,,,,,,,,,,,,,,,,,,,,,,,,,,,,,403.3850338999182,403.78655429999344,403.76854949991684,403.86986129998695,404.269388900022,None,left,1,0.4458676999201998,404.269388900022,None,403.76854949991684,403.86986129998695,403.86986129998695,None,404.7365110999672,None,,,,,,,11025,001,2024_Jan_08_0931,ANT,2021.2.3,59.92642235044252,
1,1,no,up,C,L,,,,,,Block.xlsx,"你已经完成了整个实验（三个区组）。

请报告实验者已完成实验

非常感谢，再见！",50,0,1.5,left,LLLLL.png,,,,,0,1,1,1,2,6,54,0,,,,,,,,,,,,,,,,,,,,,,,,,,,,,,,,,,,,,,,,,,,,,,,,,,,,,,,,,,,,,,,,405.1370901999762,405.5385501999408,405.52116619993467,405.6217466999078,406.0246105999686,None,left,1,0.4345738999545574,406.0246105999686,None,405.52116619993467,405.6217466999078,405.6217466999078,None,406.4891807999229,None,,,,,,,11025,001,2024_Jan_08_0931,ANT,2021.2.3,59.92642235044252,
1,17,spatial,up,C,L,,,,,,Block.xlsx,"你已经完成了整个实验（三个区组）。

请报告实验者已完成实验

非常感谢，再见！",1.5,0,1.5,left,LLLLL.png,,,,,0,1,1,1,2,7,55,16,,,,,,,,,,,,,,,,,,,,,,,,,,,,,,,,,,,,,,,,,,,,,,,,,,,,,,,,,,,,,,,,406.8899007999571,407.29169360001106,407.27393829997163,407.37528469995596,407.77657779993024,None,left,1,0.42715010000392795,407.77657779993024,None,407.27393829997163,407.37528469995596,407.37528469995596,None,408.22499389993027,None,,,,,,,11025,001,2024_Jan_08_0931,ANT,2021.2.3,59.92642235044252,
1,4,no,up,IC,R,,,,,,Block.xlsx,"你已经完成了整个实验（三个区组）。

请报告实验者已完成实验

非常感谢，再见！",50,0,1.5,right,LLRLL.png,,,,,0,1,1,1,2,8,56,3,,,,,,,,,,,,,,,,,,,,,,,,,,,,,,,,,,,,,,,,,,,,,,,,,,,,,,,,,,,,,,,,408.62679849995766,409.0282735999208,409.0100260999752,409.1113379999297,409.5117098999908,None,right,1,0.4514676999533549,409.5117098999908,None,409.0100260999752,409.1113379999297,409.1113379999297,None,409.994469499914,None,,,,,,,11025,001,2024_Jan_08_0931,ANT,2021.2.3,59.92642235044252,
1,9,center,up,C,L,,,,,,Block.xlsx,"你已经完成了整个实验（三个区组）。

请报告实验者已完成实验

非常感谢，再见！",0,50,1.5,left,LLLLL.png,,,,,0,1,1,1,2,9,57,8,,,,,,,,,,,,,,,,,,,,,,,,,,,,,,,,,,,,,,,,,,,,,,,,,,,,,,,,,,,,,,,,410.3950804999331,410.79629329999443,410.7797550999094,410.88102219998837,411.27963749994524,None,left,1,0.4678431000793353,411.27963749994524,None,410.7797550999094,410.88102219998837,410.88102219998837,None,411.7635917000007,None,,,,,,,11025,001,2024_Jan_08_0931,ANT,2021.2.3,59.92642235044252,
1,23,spatial,down,IC,L,,,,,,Block.xlsx,"你已经完成了整个实验（三个区组）。

请报告实验者已完成实验

非常感谢，再见！",-1.5,0,-1.5,left,RRLRR.png,,,,,0,1,1,1,2,10,58,22,,,,,,,,,,,,,,,,,,,,,,,,,,,,,,,,,,,,,,,,,,,,,,,,,,,,,,,,,,,,,,,,412.16431999998167,412.56582089990843,412.54810949997045,412.6490615999792,413.04880909994245,None,left,1,0.47424099990166724,413.04880909994245,None,412.54810949997045,412.6490615999792,412.6490615999792,None,413.5494546999689,None,,,,,,,11025,001,2024_Jan_08_0931,ANT,2021.2.3,59.92642235044252,
1,8,no,down,IC,R,,,,,,Block.xlsx,"你已经完成了整个实验（三个区组）。

请报告实验者已完成实验

非常感谢，再见！",50,0,-1.5,right,LLRLL.png,,,,,0,1,1,1,2,11,59,7,,,,,,,,,,,,,,,,,,,,,,,,,,,,,,,,,,,,,,,,,,,,,,,,,,,,,,,,,,,,,,,,413.95068529993296,414.3511293999618,414.33556739997584,414.4351737999823,414.8355669999728,None,right,1,0.807571200071834,414.8355669999728,None,414.33556739997584,414.4351737999823,414.4351737999823,None,415.6695979000069,None,,,,,,,11025,001,2024_Jan_08_0931,ANT,2021.2.3,59.92642235044252,
1,7,no,down,IC,L,,,,,,Block.xlsx,"你已经完成了整个实验（三个区组）。

请报告实验者已完成实验

非常感谢，再见！",50,0,-1.5,left,RRLRR.png,,,,,0,1,1,1,2,12,60,6,,,,,,,,,,,,,,,,,,,,,,,,,,,,,,,,,,,,,,,,,,,,,,,,,,,,,,,,,,,,,,,,416.0700909999432,416.47167859994806,416.45483109995257,416.55542599991895,416.95629729994107,None,left,1,0.6227997000096366,416.95629729994107,None,416.45483109995257,416.55542599991895,416.55542599991895,None,417.60550950001925,None,,,,,,,11025,001,2024_Jan_08_0931,ANT,2021.2.3,59.92642235044252,
1,3,no,up,IC,L,,,,,,Block.xlsx,"你已经完成了整个实验（三个区组）。

请报告实验者已完成实验

非常感谢，再见！",50,0,1.5,left,RRLRR.png,,,,,0,1,1,1,2,13,61,2,,,,,,,,,,,,,,,,,,,,,,,,,,,,,,,,,,,,,,,,,,,,,,,,,,,,,,,,,,,,,,,,418.00684859999456,418.40899909997825,418.39061599993147,418.4918197999941,418.8917912999168,None,left,1,0.583400100003928,418.8917912999168,None,418.39061599993147,418.4918197999941,418.4918197999941,None,419.4916304999497,None,,,,,,,11025,001,2024_Jan_08_0931,ANT,2021.2.3,59.92642235044252,
1,13,center,down,C,L,,,,,,Block.xlsx,"你已经完成了整个实验（三个区组）。

请报告实验者已完成实验

非常感谢，再见！",0,50,-1.5,left,LLLLL.png,,,,,0,1,1,1,2,14,62,12,,,,,,,,,,,,,,,,,,,,,,,,,,,,,,,,,,,,,,,,,,,,,,,,,,,,,,,,,,,,,,,,419.8923778999597,420.29307809995953,420.27712320000865,420.377394799958,420.77704139996786,None,left,1,0.5062348999781534,420.77704139996786,None,420.27712320000865,420.377394799958,420.377394799958,None,421.31126649992075,None,,,,,,,11025,001,2024_Jan_08_0931,ANT,2021.2.3,59.92642235044252,
1,6,no,down,C,R,,,,,,Block.xlsx,"你已经完成了整个实验（三个区组）。

请报告实验者已完成实验

非常感谢，再见！",50,0,-1.5,right,RRRRR.png,,,,,0,1,1,1,2,15,63,5,,,,,,,,,,,,,,,,,,,,,,,,,,,,,,,,,,,,,,,,,,,,,,,,,,,,,,,,,,,,,,,,421.71172699995805,422.113508899929,422.0956768000033,422.1969727999531,422.59786829992663,None,right,1,0.549530699965544,422.59786829992663,None,422.0956768000033,422.1969727999531,422.1969727999531,None,423.16391180001665,None,,,,,,,11025,001,2024_Jan_08_0931,ANT,2021.2.3,59.92642235044252,
1,8,no,down,IC,R,,,,,,Block.xlsx,"你已经完成了整个实验（三个区组）。

请报告实验者已完成实验

非常感谢，再见！",50,0,-1.5,right,LLRLL.png,,,,,0,1,1,1,2,16,64,7,,,,,,,,,,,,,,,,,,,,,,,,,,,,,,,,,,,,,,,,,,,,,,,,,,,,,,,,,,,,,,,,423.5653567999834,423.9662235999713,423.9485830999911,424.04918919992633,424.4511211999925,None,right,1,0.5443751000566408,424.4511211999925,None,423.9485830999911,424.04918919992633,424.04918919992633,None,425.0167164999293,None,,,,,,,11025,001,2024_Jan_08_0931,ANT,2021.2.3,59.92642235044252,
1,18,spatial,up,C,R,,,,,,Block.xlsx,"你已经完成了整个实验（三个区组）。

请报告实验者已完成实验

非常感谢，再见！",1.5,0,1.5,right,RRRRR.png,,,,,0,1,1,1,2,17,65,17,,,,,,,,,,,,,,,,,,,,,,,,,,,,,,,,,,,,,,,,,,,,,,,,,,,,,,,,,,,,,,,,425.41834450000897,425.81851699994877,425.8020220999606,425.9020838999422,426.30224779993296,None,right,1,0.42097380000632256,426.30224779993296,None,425.8020220999606,425.9020838999422,425.9020838999422,None,426.7524936000118,None,,,,,,,11025,001,2024_Jan_08_0931,ANT,2021.2.3,59.92642235044252,
1,24,spatial,down,IC,R,,,,,,Block.xlsx,"你已经完成了整个实验（三个区组）。

请报告实验者已完成实验

非常感谢，再见！",-1.5,0,-1.5,right,LLRLL.png,,,,,0,1,1,1,2,18,66,23,,,,,,,,,,,,,,,,,,,,,,,,,,,,,,,,,,,,,,,,,,,,,,,,,,,,,,,,,,,,,,,,427.1530673999805,427.55541149992496,427.53758549992926,427.63721149996854,428.03760569996666,None,right,1,0.44565920007880777,428.03760569996666,None,427.53758549992926,427.63721149996854,427.63721149996854,None,428.50521289999597,None,,,,,,,11025,001,2024_Jan_08_0931,ANT,2021.2.3,59.92642235044252,
1,14,center,down,C,R,,,,,,Block.xlsx,"你已经完成了整个实验（三个区组）。

请报告实验者已完成实验

非常感谢，再见！",0,50,-1.5,right,RRRRR.png,,,,,0,1,1,1,2,19,67,13,,,,,,,,,,,,,,,,,,,,,,,,,,,,,,,,,,,,,,,,,,,,,,,,,,,,,,,,,,,,,,,,428.9065716000041,429.3074224999873,429.28966619994026,429.3898989999434,429.79214709997177,None,right,1,0.45142040005885065,429.79214709997177,None,429.28966619994026,429.3898989999434,429.3898989999434,None,430.274624499958,None,,,,,,,11025,001,2024_Jan_08_0931,ANT,2021.2.3,59.92642235044252,
1,23,spatial,down,IC,L,,,,,,Block.xlsx,"你已经完成了整个实验（三个区组）。

请报告实验者已完成实验

非常感谢，再见！",-1.5,0,-1.5,left,RRLRR.png,,,,,0,1,1,1,2,20,68,22,,,,,,,,,,,,,,,,,,,,,,,,,,,,,,,,,,,,,,,,,,,,,,,,,,,,,,,,,,,,,,,,430.6757143000141,431.0761301999446,431.0607920999173,431.15987490001135,431.56147989991587,None,left,1,0.569626500015147,431.56147989991587,None,431.0607920999173,431.15987490001135,431.15987490001135,None,432.1612697999226,None,,,,,,,11025,001,2024_Jan_08_0931,ANT,2021.2.3,59.92642235044252,
1,20,spatial,up,IC,R,,,,,,Block.xlsx,"你已经完成了整个实验（三个区组）。

请报告实验者已完成实验

非常感谢，再见！",1.5,0,1.5,right,LLRLL.png,,,,,0,1,1,1,2,21,69,19,,,,,,,,,,,,,,,,,,,,,,,,,,,,,,,,,,,,,,,,,,,,,,,,,,,,,,,,,,,,,,,,432.5620123000117,432.9631531999912,432.94543829991017,433.04636149993166,433.44678009999916,None,right,1,0.6207454999675974,433.44678009999916,None,432.94543829991017,433.04636149993166,433.04636149993166,None,434.0967400999507,None,,,,,,,11025,001,2024_Jan_08_0931,ANT,2021.2.3,59.92642235044252,
1,10,center,up,C,R,,,,,,Block.xlsx,"你已经完成了整个实验（三个区组）。

请报告实验者已完成实验

非常感谢，再见！",0,50,1.5,right,RRRRR.png,,,,,0,1,1,1,2,22,70,9,,,,,,,,,,,,,,,,,,,,,,,,,,,,,,,,,,,,,,,,,,,,,,,,,,,,,,,,,,,,,,,,434.4981366000138,434.8980441999156,434.8828614000231,434.98143759998493,435.3832823999692,None,right,1,0.4685067000100389,435.3832823999692,None,434.8828614000231,434.98143759998493,434.98143759998493,None,435.88295719993766,None,,,,,,,11025,001,2024_Jan_08_0931,ANT,2021.2.3,59.92642235044252,
1,23,spatial,down,IC,L,,,,,,Block.xlsx,"你已经完成了整个实验（三个区组）。

请报告实验者已完成实验

非常感谢，再见！",-1.5,0,-1.5,left,RRLRR.png,,,,,0,1,1,1,2,23,71,22,,,,,,,,,,,,,,,,,,,,,,,,,,,,,,,,,,,,,,,,,,,,,,,,,,,,,,,,,,,,,,,,436.2838716999395,436.68428229994606,436.66713889990933,436.76919010002166,437.168108999962,None,left,1,0.4842346999794245,437.168108999962,None,436.66713889990933,436.76919010002166,436.76919010002166,None,437.6687922999263,None,,,,,,,11025,001,2024_Jan_08_0931,ANT,2021.2.3,59.92642235044252,
1,15,center,down,IC,L,,,,,,Block.xlsx,"你已经完成了整个实验（三个区组）。

请报告实验者已完成实验

非常感谢，再见！",0,50,-1.5,left,RRLRR.png,,,,,0,1,1,1,3,0,72,14,,,,,,,,,,,,,,,,,,,,,,,,,,,,,,,,,,,,,,,,,,,,,,,,,,,,,,,,,,,,,,,,438.0701269999845,438.46991440001875,438.4547380999429,438.55370319995563,438.95432199991774,None,left,1,0.6571817999938503,438.95432199991774,None,438.4547380999429,438.55370319995563,438.55370319995563,None,439.6385096999584,None,,,,,,,11025,001,2024_Jan_08_0931,ANT,2021.2.3,59.92642235044252,
1,4,no,up,IC,R,,,,,,Block.xlsx,"你已经完成了整个实验（三个区组）。

请报告实验者已完成实验

非常感谢，再见！",50,0,1.5,right,LLRLL.png,,,,,0,1,1,1,3,1,73,3,,,,,,,,,,,,,,,,,,,,,,,,,,,,,,,,,,,,,,,,,,,,,,,,,,,,,,,,,,,,,,,,440.0389649999561,440.4403845999623,440.42310020001605,440.52452610002365,440.9241429999238,None,right,1,0.6477727999445051,440.9241429999238,None,440.42310020001605,440.52452610002365,440.52452610002365,None,441.5912126000039,None,,,,,,,11025,001,2024_Jan_08_0931,ANT,2021.2.3,59.92642235044252,
1,16,center,down,IC,R,,,,,,Block.xlsx,"你已经完成了整个实验（三个区组）。

请报告实验者已完成实验

非常感谢，再见！",0,50,-1.5,right,LLRLL.png,,,,,0,1,1,1,3,2,74,15,,,,,,,,,,,,,,,,,,,,,,,,,,,,,,,,,,,,,,,,,,,,,,,,,,,,,,,,,,,,,,,,441.99234110000543,442.3936300999485,442.37670539994724,442.4783042999916,442.8776599999983,None,right,1,0.7415728999767452,442.8776599999983,None,442.37670539994724,442.4783042999916,442.4783042999916,None,443.64422169991303,None,,,,,,,11025,001,2024_Jan_08_0931,ANT,2021.2.3,59.92642235044252,
1,21,spatial,down,C,L,,,,,,Block.xlsx,"你已经完成了整个实验（三个区组）。

请报告实验者已完成实验

非常感谢，再见！",-1.5,0,-1.5,left,LLLLL.png,,,,,0,1,1,1,3,3,75,20,,,,,,,,,,,,,,,,,,,,,,,,,,,,,,,,,,,,,,,,,,,,,,,,,,,,,,,,,,,,,,,,444.044977499987,444.44619439996313,444.4288190000225,444.5296743999934,444.92938929994125,None,left,1,0.3303276998922229,444.92938929994125,None,444.4288190000225,444.5296743999934,444.5296743999934,None,445.27998190000653,None,,,,,,,11025,001,2024_Jan_08_0931,ANT,2021.2.3,59.92642235044252,
1,22,spatial,down,C,R,,,,,,Block.xlsx,"你已经完成了整个实验（三个区组）。

请报告实验者已完成实验

非常感谢，再见！",-1.5,0,-1.5,right,RRRRR.png,,,,,0,1,1,1,3,4,76,21,,,,,,,,,,,,,,,,,,,,,,,,,,,,,,,,,,,,,,,,,,,,,,,,,,,,,,,,,,,,,,,,445.6806550999172,446.0819509999128,446.0647560999496,446.16649440000765,446.5668457999127,None,right,1,0.5809037999715656,446.5668457999127,None,446.0647560999496,446.16649440000765,446.16649440000765,None,447.16599399992265,None,,,,,,,11025,001,2024_Jan_08_0931,ANT,2021.2.3,59.92642235044252,
1,17,spatial,up,C,L,,,,,,Block.xlsx,"你已经完成了整个实验（三个区组）。

请报告实验者已完成实验

非常感谢，再见！",1.5,0,1.5,left,LLLLL.png,,,,,0,1,1,1,3,5,77,16,,,,,,,,,,,,,,,,,,,,,,,,,,,,,,,,,,,,,,,,,,,,,,,,,,,,,,,,,,,,,,,,447.56767489993945,447.96824850002304,447.9513683000114,448.0519672000082,448.4519322999986,None,left,1,0.39117010007612407,448.4519322999986,None,447.9513683000114,448.0519672000082,448.0519672000082,None,448.8686825999757,None,,,,,,,11025,001,2024_Jan_08_0931,ANT,2021.2.3,59.92642235044252,
1,2,no,up,C,R,,,,,,Block.xlsx,"你已经完成了整个实验（三个区组）。

请报告实验者已完成实验

非常感谢，再见！",50,0,1.5,right,RRRRR.png,,,,,0,1,1,1,3,6,78,1,,,,,,,,,,,,,,,,,,,,,,,,,,,,,,,,,,,,,,,,,,,,,,,,,,,,,,,,,,,,,,,,449.2694982999237,449.670654400019,449.65393529995345,449.75489189999644,450.1547677000053,None,right,1,0.5204259000020102,450.1547677000053,None,449.65393529995345,449.75489189999644,449.75489189999644,None,450.7047391999513,None,,,,,,,11025,001,2024_Jan_08_0931,ANT,2021.2.3,59.92642235044252,
1,17,spatial,up,C,L,,,,,,Block.xlsx,"你已经完成了整个实验（三个区组）。

请报告实验者已完成实验

非常感谢，再见！",1.5,0,1.5,left,LLLLL.png,,,,,0,1,1,1,3,7,79,16,,,,,,,,,,,,,,,,,,,,,,,,,,,,,,,,,,,,,,,,,,,,,,,,,,,,,,,,,,,,,,,,451.10571129992604,451.5072606999893,451.4891249999637,451.58968759991694,451.99210839997977,None,left,1,0.41905340005178005,451.99210839997977,None,451.4891249999637,451.58968759991694,451.58968759991694,None,452.4405559999868,None,,,,,,,11025,001,2024_Jan_08_0931,ANT,2021.2.3,59.92642235044252,
1,5,no,down,C,L,,,,,,Block.xlsx,"你已经完成了整个实验（三个区组）。

请报告实验者已完成实验

非常感谢，再见！",50,0,-1.5,left,LLLLL.png,,,,,0,1,1,1,3,8,80,4,,,,,,,,,,,,,,,,,,,,,,,,,,,,,,,,,,,,,,,,,,,,,,,,,,,,,,,,,,,,,,,,452.84132869995665,453.24244609999005,453.22520069999155,453.3260150999995,453.72625159996096,None,left,1,0.5492333000293002,453.72625159996096,None,453.22520069999155,453.3260150999995,453.3260150999995,None,454.2932499999879,None,,,,,,,11025,001,2024_Jan_08_0931,ANT,2021.2.3,59.92642235044252,
1,9,center,up,C,L,,,,,,Block.xlsx,"你已经完成了整个实验（三个区组）。

请报告实验者已完成实验

非常感谢，再见！",0,50,1.5,left,LLLLL.png,,,,,0,1,1,1,3,9,81,8,,,,,,,,,,,,,,,,,,,,,,,,,,,,,,,,,,,,,,,,,,,,,,,,,,,,,,,,,,,,,,,,454.69468179997057,455.0953517999733,455.07852999994066,455.17966199992225,455.5793393999338,None,left,1,0.48809669993352145,455.5793393999338,None,455.07852999994066,455.17966199992225,455.17966199992225,None,456.09623469994403,None,,,,,,,11025,001,2024_Jan_08_0931,ANT,2021.2.3,59.92642235044252,
1,15,center,down,IC,L,,,,,,Block.xlsx,"你已经完成了整个实验（三个区组）。

请报告实验者已完成实验

非常感谢，再见！",0,50,-1.5,left,RRLRR.png,,,,,0,1,1,1,3,10,82,14,,,,,,,,,,,,,,,,,,,,,,,,,,,,,,,,,,,,,,,,,,,,,,,,,,,,,,,,,,,,,,,,456.4967868999811,456.8974677999504,456.8822558999527,456.98136639990844,457.38207679998595,None,left,1,0.6293176000472158,457.38207679998595,None,456.8822558999527,456.98136639990844,456.98136639990844,None,458.0326030999422,None,,,,,,,11025,001,2024_Jan_08_0931,ANT,2021.2.3,59.92642235044252,
1,8,no,down,IC,R,,,,,,Block.xlsx,"你已经完成了整个实验（三个区组）。

请报告实验者已完成实验

非常感谢，再见！",50,0,-1.5,right,LLRLL.png,,,,,0,1,1,1,3,11,83,7,,,,,,,,,,,,,,,,,,,,,,,,,,,,,,,,,,,,,,,,,,,,,,,,,,,,,,,,,,,,,,,,458.43409859994426,458.8345597999869,458.81770179991145,458.91701289999764,459.31823400000576,None,right,1,0.6770233999704942,459.31823400000576,None,458.81770179991145,458.91701289999764,458.91701289999764,None,460.0188145999564,None,,,,,,,11025,001,2024_Jan_08_0931,ANT,2021.2.3,59.92642235044252,
1,12,center,up,IC,R,,,,,,Block.xlsx,"你已经完成了整个实验（三个区组）。

请报告实验者已完成实验

非常感谢，再见！",0,50,1.5,right,LLRLL.png,,,,,0,1,1,1,3,12,84,11,,,,,,,,,,,,,,,,,,,,,,,,,,,,,,,,,,,,,,,,,,,,,,,,,,,,,,,,,,,,,,,,460.4192071999423,460.82086969993543,460.80313110002317,460.90383079997264,461.30402059992775,None,right,1,0.6591059999773279,461.30402059992775,None,460.80313110002317,460.90383079997264,460.90383079997264,None,461.988050499931,None,,,,,,,11025,001,2024_Jan_08_0931,ANT,2021.2.3,59.92642235044252,
1,20,spatial,up,IC,R,,,,,,Block.xlsx,"你已经完成了整个实验（三个区组）。

请报告实验者已完成实验

非常感谢，再见！",1.5,0,1.5,right,LLRLL.png,,,,,0,1,1,1,3,13,85,19,,,,,,,,,,,,,,,,,,,,,,,,,,,,,,,,,,,,,,,,,,,,,,,,,,,,,,,,,,,,,,,,462.38865799992345,462.7895648999838,462.7746249999618,462.89019099995494,463.27357600000687,None,right,1,0.4096478000283241,463.27357600000687,None,462.7746249999618,462.89019099995494,462.8747108000098,None,463.7073696999578,None,,,,,,,11025,001,2024_Jan_08_0931,ANT,2021.2.3,59.92642235044252,
1,17,spatial,up,C,L,,,,,,Block.xlsx,"你已经完成了整个实验（三个区组）。

请报告实验者已完成实验

非常感谢，再见！",1.5,0,1.5,left,LLLLL.png,,,,,0,1,1,1,3,14,86,16,,,,,,,,,,,,,,,,,,,,,,,,,,,,,,,,,,,,,,,,,,,,,,,,,,,,,,,,,,,,,,,,464.1084652999416,464.5085712999571,464.4927732999204,464.5920467999531,464.99409179994836,None,left,1,0.3932527999859303,464.99409179994836,None,464.4927732999204,464.5920467999531,464.5920467999531,None,465.4101021999959,None,,,,,,,11025,001,2024_Jan_08_0931,ANT,2021.2.3,59.92642235044252,
1,2,no,up,C,R,,,,,,Block.xlsx,"你已经完成了整个实验（三个区组）。

请报告实验者已完成实验

非常感谢，再见！",50,0,1.5,right,RRRRR.png,,,,,0,1,1,1,3,15,87,1,,,,,,,,,,,,,,,,,,,,,,,,,,,,,,,,,,,,,,,,,,,,,,,,,,,,,,,,,,,,,,,,465.8104516000021,466.21154099993873,466.195420700009,466.2954987999983,466.695633299998,None,right,1,0.4195801999885589,466.695633299998,None,466.195420700009,466.2954987999983,466.2954987999983,None,467.145875499933,None,,,,,,,11025,001,2024_Jan_08_0931,ANT,2021.2.3,59.92642235044252,
1,3,no,up,IC,L,,,,,,Block.xlsx,"你已经完成了整个实验（三个区组）。

请报告实验者已完成实验

非常感谢，再见！",50,0,1.5,left,RRLRR.png,,,,,0,1,1,1,3,16,88,2,,,,,,,,,,,,,,,,,,,,,,,,,,,,,,,,,,,,,,,,,,,,,,,,,,,,,,,,,,,,,,,,467.5470774999121,467.94862979999743,467.9307026999304,468.0324198999442,468.43134499993175,None,left,1,0.5003591999411583,468.43134499993175,None,467.9307026999304,468.0324198999442,468.0324198999442,None,468.9483464999357,None,,,,,,,11025,001,2024_Jan_08_0931,ANT,2021.2.3,59.92642235044252,
1,1,no,up,C,L,,,,,,Block.xlsx,"你已经完成了整个实验（三个区组）。

请报告实验者已完成实验

非常感谢，再见！",50,0,1.5,left,LLLLL.png,,,,,0,1,1,1,3,17,89,0,,,,,,,,,,,,,,,,,,,,,,,,,,,,,,,,,,,,,,,,,,,,,,,,,,,,,,,,,,,,,,,,469.3490083999932,469.7511872999603,469.7331482999725,469.8350156999659,470.23531869996805,None,left,1,0.4320428000064567,470.23531869996805,None,469.7331482999725,469.8350156999659,469.8350156999659,None,470.6842249999754,None,,,,,,,11025,001,2024_Jan_08_0931,ANT,2021.2.3,59.92642235044252,
1,21,spatial,down,C,L,,,,,,Block.xlsx,"你已经完成了整个实验（三个区组）。

请报告实验者已完成实验

非常感谢，再见！",-1.5,0,-1.5,left,LLLLL.png,,,,,0,1,1,1,3,18,90,20,,,,,,,,,,,,,,,,,,,,,,,,,,,,,,,,,,,,,,,,,,,,,,,,,,,,,,,,,,,,,,,,471.0851089999778,471.48625239997637,471.46940569998696,471.56900679995306,471.9712734000059,None,left,1,0.41664219996891916,471.9712734000059,None,471.46940569998696,471.56900679995306,471.56900679995306,None,472.4038777999813,None,,,,,,,11025,001,2024_Jan_08_0931,ANT,2021.2.3,59.92642235044252,
1,11,center,up,IC,L,,,,,,Block.xlsx,"你已经完成了整个实验（三个区组）。

请报告实验者已完成实验

非常感谢，再见！",0,50,1.5,left,RRLRR.png,,,,,0,1,1,1,3,19,91,10,,,,,,,,,,,,,,,,,,,,,,,,,,,,,,,,,,,,,,,,,,,,,,,,,,,,,,,,,,,,,,,,472.8041374000022,473.20521379995625,473.1889459999511,473.2904194999719,473.6910711999517,None,left,1,0.7520562999416143,473.6910711999517,None,473.1889459999511,473.2904194999719,473.2904194999719,None,474.4733545000199,None,,,,,,,11025,001,2024_Jan_08_0931,ANT,2021.2.3,59.92642235044252,
1,16,center,down,IC,R,,,,,,Block.xlsx,"你已经完成了整个实验（三个区组）。

请报告实验者已完成实验

