TrialType,TrialNumber,WarningType,TargetType,FlankerType,TargetDirection,W,f,Y,corr,imageFile,condition,endtext,Yw,Yf,Yt,Corr,imagefile,trials_3.thisRepN,trials_3.thisTrialN,trials_3.thisN,trials_3.thisIndex,trials_2.thisRepN,trials_2.thisTrialN,trials_2.thisN,trials_2.thisIndex,trials.thisRepN,trials.thisTrialN,trials.thisN,trials.thisIndex,instr.started,instr.stopped,key_resp.keys,key_resp.rt,key_resp.started,key_resp.stopped,image.started,image.stopped,key_resp_6.keys,key_resp_6.rt,key_resp_6.started,key_resp_6.stopped,EX_L.started,EX_L.stopped,AL.started,AL.stopped,key_resp_7.keys,key_resp_7.rt,key_resp_7.started,key_resp_7.stopped,EX_R.started,EX_R.stopped,RR.started,RR.stopped,key_resp_8.keys,key_resp_8.rt,key_resp_8.started,key_resp_8.stopped,image_2.started,image_2.stopped,key_resp_9.keys,key_resp_9.rt,key_resp_9.started,key_resp_9.stopped,image_3.started,image_3.stopped,key_resp_10.keys,key_resp_10.rt,key_resp_10.started,key_resp_10.stopped,fix.started,fix.stopped,war.started,war.stopped,tar.started,tar.stopped,key_resp_4.keys,key_resp_4.corr,key_resp_4.rt,key_resp_4.started,key_resp_4.stopped,fix2.started,fix2.stopped,fix_2.started,fix_2.stopped,Feedback.started,Feedback.stopped,key_resp_2.keys,key_resp_2.rt,key_resp_2.started,key_resp_2.stopped,text_5.started,text_5.stopped,fix2_1.started,fix2_1.stopped,Warn.started,Warn.stopped,Tar.started,Tar.stopped,key_resp_5.keys,key_resp_5.corr,key_resp_5.rt,key_resp_5.started,key_resp_5.stopped,Fix_2.started,Fix_2.stopped,fix2_2.started,fix2_2.stopped,text_4.started,text_4.stopped,key_resp_3.keys,key_resp_3.rt,key_resp_3.started,key_resp_3.stopped,text_3.started,text_3.stopped,participant,session,date,expName,psychopyVersion,frameRate,
,,,,,,,,,,,,,,,,,,,,,,,,,,,,,,9.326322299893945,None,space,4.204237899975851,9.326322299893945,None,,,,,,,,,,,,,,,,,,,,,,,,,,,,,,,,,,,,,,,,,,,,,,,,,,,,,,,,,,,,,,,,,,,,,,,,,,,,,,,,,11027,001,2024_Jan_10_1110,ANT,2021.2.3,60.11468681900617,
,,,,,,,,,,,,,,,,,,,,,,,,,,,,,,,,,,,,13.549352299887687,None,space,6.180928699905053,13.549352299887687,None,,,,,,,,,,,,,,,,,,,,,,,,,,,,,,,,,,,,,,,,,,,,,,,,,,,,,,,,,,,,,,,,,,,,,,,,,,,11027,001,2024_Jan_10_1110,ANT,2021.2.3,60.11468681900617,
,,,,,,,,,,,,,,,,,,,,,,,,,,,,,,,,,,,,,,,,,,19.758859399938956,None,19.758859399938956,None,left,2.499713199911639,19.758859399938956,None,,,,,,,,,,,,,,,,,,,,,,,,,,,,,,,,,,,,,,,,,,,,,,,,,,,,,,,,,,,,,,,,,,,11027,001,2024_Jan_10_1110,ANT,2021.2.3,60.11468681900617,
,,,,,,,,,,,,,,,,,,,,,,,,,,,,,,,,,,,,,,,,,,,,,,,,,,22.278808699920774,None,22.278808699920774,None,right,0.9554834000300616,22.278808699920774,None,,,,,,,,,,,,,,,,,,,,,,,,,,,,,,,,,,,,,,,,,,,,,,,,,,,,,,,,,,,11027,001,2024_Jan_10_1110,ANT,2021.2.3,60.11468681900617,
,,,,,,,,,,,,,,,,,,,,,,,,,,,,,,,,,,,,,,,,,,,,,,,,,,,,,,,,,,23.263599399942905,None,space,2.3944546999409795,23.263599399942905,None,,,,,,,,,,,,,,,,,,,,,,,,,,,,,,,,,,,,,,,,,,,,,,,,,,,,,11027,001,2024_Jan_10_1110,ANT,2021.2.3,60.11468681900617,
,,,,,,,,,,,,,,,,,,,,,,,,,,,,,,,,,,,,,,,,,,,,,,,,,,,,,,,,,,,,,,,,25.683803099906072,None,space,8.374485700158402,25.683803099906072,None,,,,,,,,,,,,,,,,,,,,,,,,,,,,,,,,,,,,,,,,,,,,,,,11027,001,2024_Jan_10_1110,ANT,2021.2.3,60.11468681900617,
0,12,spatial,down,IC,R,-1.5,0,-1.5,right,LLRLL.png,,,,,,,,0,0,0,11,,,,,,,,,,,,,,,,,,,,,,,,,,,,,,,,,,,,,,,,,,,,,,,,,34.14633050002158,34.548447399865836,34.53026339993812,34.6319868999999,35.031232099980116,None,right,1,0.6356804999522865,35.031232099980116,None,34.53026339993812,34.6319868999999,34.6319868999999,None,35.69930069986731,None,,,,,,,,,,,,,,,,,,,,,,,,,,,,,,11027,001,2024_Jan_10_1110,ANT,2021.2.3,60.11468681900617,
0,10,spatial,up,IC,L,1.5,0,1.5,left,RRLRR.png,,,,,,,,0,1,1,9,,,,,,,,,,,,,,,,,,,,,,,,,,,,,,,,,,,,,,,,,,,,,,,,,37.702683199895546,38.10235319985077,38.086550700012594,38.18576929997653,38.58653839980252,None,left,1,0.44770699995569885,38.58653839980252,None,38.086550700012594,38.18576929997653,38.18576929997653,None,39.05339459981769,None,,,,,,,,,,,,,,,,,,,,,,,,,,,,,,11027,001,2024_Jan_10_1110,ANT,2021.2.3,60.11468681900617,
0,11,spatial,down,C,L,-1.5,0,-1.5,left,LLLLL.png,,,,,,,,0,2,2,10,,,,,,,,,,,,,,,,,,,,,,,,,,,,,,,,,,,,,,,,,,,,,,,,,41.05677789985202,41.457159699872136,41.44205880002119,41.55747459991835,41.94255859986879,None,left,1,0.4038293999619782,41.94255859986879,None,41.44205880002119,41.55747459991835,41.542465299833566,None,42.375247800024226,None,,,,,,,,,,,,,,,,,,,,,,,,,,,,,,11027,001,2024_Jan_10_1110,ANT,2021.2.3,60.11468681900617,
0,6,center,up,IC,R,0,50,1.5,right,LLRLL.png,,,,,,,,0,3,3,5,,,,,,,,,,,,,,,,,,,,,,,,,,,,,,,,,,,,,,,,,,,,,,,,,44.379069400019944,44.78007109998725,44.763350300025195,44.86448759981431,45.26358919986524,None,right,1,0.3546581999398768,45.26358919986524,None,44.763350300025195,44.86448759981431,44.86448759981431,None,45.64683119999245,None,,,,,,,,,,,,,,,,,,,,,,,,,,,,,,11027,001,2024_Jan_10_1110,ANT,2021.2.3,60.11468681900617,
0,1,no,up,C,L,50,0,1.5,left,LLLLL.png,,,,,,,,0,4,4,0,,,,,,,,,,,,,,,,,,,,,,,,,,,,,,,,,,,,,,,,,,,,,,,,,47.65000159991905,48.05024359980598,48.035504000028595,48.134609799832106,48.5344808998052,None,left,1,0.48454790003597736,48.5344808998052,None,48.035504000028595,48.134609799832106,48.134609799832106,None,49.03514779987745,None,,,,,,,,,,,,,,,,,,,,,,,,,,,,,,11027,001,2024_Jan_10_1110,ANT,2021.2.3,60.11468681900617,
0,3,no,down,C,R,50,0,-1.5,right,RRRRR.png,,,,,,,,0,5,5,2,,,,,,,,,,,,,,,,,,,,,,,,,,,,,,,,,,,,,,,,,,,,,,,,,51.038369099842384,51.439508399926126,51.42191449995153,51.523045799927786,51.92371689993888,None,right,1,0.3670388001482934,51.92371689993888,None,51.42191449995153,51.523045799927786,51.523045799927786,None,52.30659209983423,None,,,,,,,,,,,,,,,,,,,,,,,,,,,,,,11027,001,2024_Jan_10_1110,ANT,2021.2.3,60.11468681900617,
0,2,no,up,IC,R,50,0,1.5,right,LLRLL.png,,,,,,,,0,6,6,1,,,,,,,,,,,,,,,,,,,,,,,,,,,,,,,,,,,,,,,,,,,,,,,,,54.31003239983693,54.711835799971595,54.69372749980539,54.793796999845654,55.196175899822265,None,right,1,0.39907409995794296,55.196175899822265,None,54.69372749980539,54.793796999845654,54.793796999845654,None,55.6114628999494,None,,,,,,,,,,,,,,,,,,,,,,,,,,,,,,11027,001,2024_Jan_10_1110,ANT,2021.2.3,60.11468681900617,
0,4,no,down,IC,L,50,0,-1.5,left,RRLRR.png,,,,,,,,0,7,7,3,,,,,,,,,,,,,,,,,,,,,,,,,,,,,,,,,,,,,,,,,,,,,,,,,57.61460420000367,58.01517889997922,57.99942639982328,58.0990483998321,58.50055709993467,None,right,0,0.43027200014330447,58.50055709993467,None,57.99942639982328,58.0990483998321,58.0990483998321,None,58.94955799984746,None,,,,,,,,,,,,,,,,,,,,,,,,,,,,,,11027,001,2024_Jan_10_1110,ANT,2021.2.3,60.11468681900617,
0,9,spatial,up,C,R,1.5,0,1.5,right,RRRRR.png,,,,,,,,0,8,8,8,,,,,,,,,,,,,,,,,,,,,,,,,,,,,,,,,,,,,,,,,,,,,,,,,60.95283199986443,61.35533339995891,61.33677589986473,61.437529699876904,61.839703699806705,None,right,1,0.30661670002155006,61.839703699806705,None,61.33677589986473,61.437529699876904,61.437529699876904,None,62.17113719996996,None,,,,,,,,,,,,,,,,,,,,,,,,,,,,,,11027,001,2024_Jan_10_1110,ANT,2021.2.3,60.11468681900617,
0,7,center,down,C,R,0,50,-1.5,right,RRRRR.png,,,,,,,,0,9,9,6,,,,,,,,,,,,,,,,,,,,,,,,,,,,,,,,,,,,,,,,,,,,,,,,,64.17417699983343,64.57525500003248,64.5588376999367,64.65903709991835,65.06159399985336,None,right,1,0.4526412000413984,65.06159399985336,None,64.5588376999367,64.65903709991835,64.65903709991835,None,65.54289259994403,None,,,,,,,,,,,,,,,,,,,,,,,,,,,,,,11027,001,2024_Jan_10_1110,ANT,2021.2.3,60.11468681900617,
0,5,center,up,C,L,0,50,1.5,left,LLLLL.png,,,,,,,,0,10,10,4,,,,,,,,,,,,,,,,,,,,,,,,,,,,,,,,,,,,,,,,,,,,,,,,,67.54594739992172,67.94721949985251,67.9299614999909,68.03088500001468,68.43118099984713,None,left,1,0.28368979995138943,68.43118099984713,None,67.9299614999909,68.03088500001468,68.03088500001468,None,68.73097319994122,None,,,,,,,,,,,,,,,,,,,,,,,,,,,,,,11027,001,2024_Jan_10_1110,ANT,2021.2.3,60.11468681900617,
0,8,center,down,IC,L,0,50,-1.5,left,RRLRR.png,,,,,,,,0,11,11,7,,,,,,,,,,,,,,,,,,,,,,,,,,,,,,,,,,,,,,,,,,,,,,,,,70.73478959989734,71.13483239989728,71.11866429983638,71.2187663000077,71.62069619982503,None,right,0,0.41458729980513453,71.62069619982503,None,71.11866429983638,71.2187663000077,71.2187663000077,None,72.05264170002192,None,,,,,,,,,,,,,,,,,,,,,,,,,,,,,,11027,001,2024_Jan_10_1110,ANT,2021.2.3,60.11468681900617,
,,,,,,,,,,,,,,,,,,,,,,,,,,,,,,,,,,,,,,,,,,,,,,,,,,,,,,,,,,,,,,,,,,,,,,,,,,,,,,,,,,,,,,,space,1.9618373000994325,74.05631559994072,None,,,,,,,,,,,,,,,,,,,,,,,,,,11027,001,2024_Jan_10_1110,ANT,2021.2.3,60.11468681900617,
1,18,spatial,up,C,R,,,,,,Block.xlsx,"你已经完成了第一个实验区组

请稍作休息


点击空格键进入下一个区组。",1.5,0,1.5,right,RRRRR.png,,,,,0,0,0,0,0,0,0,17,,,,,,,,,,,,,,,,,,,,,,,,,,,,,,,,,,,,,,,,,,,,,,,,,,,,,,,,,,,,,,74.05631559994072,None,76.0756879998371,76.47679309989326,76.4599506999366,76.55977629986592,76.95989469997585,None,right,1,0.3305218000896275,76.95989469997585,None,76.4599506999366,76.55977629986592,76.55977629986592,None,77.31039669993334,None,,,,,,,11027,001,2024_Jan_10_1110,ANT,2021.2.3,60.11468681900617,
1,16,center,down,IC,R,,,,,,Block.xlsx,"你已经完成了第一个实验区组

请稍作休息


点击空格键进入下一个区组。",0,50,-1.5,right,LLRLL.png,,,,,0,0,0,0,0,1,1,15,,,,,,,,,,,,,,,,,,,,,,,,,,,,,,,,,,,,,,,,,,,,,,,,,,,,,,,,,,,,,,,,77.71119469986297,78.11251119989902,78.09494699980132,78.1953098999802,78.59652599995025,None,left,0,0.30181289999745786,78.59652599995025,None,78.09494699980132,78.1953098999802,78.1953098999802,None,78.92942039994523,None,,,,,,,11027,001,2024_Jan_10_1110,ANT,2021.2.3,60.11468681900617,
1,2,no,up,C,R,,,,,,Block.xlsx,"你已经完成了第一个实验区组

请稍作休息


点击空格键进入下一个区组。",50,0,1.5,right,RRRRR.png,,,,,0,0,0,0,0,2,2,1,,,,,,,,,,,,,,,,,,,,,,,,,,,,,,,,,,,,,,,,,,,,,,,,,,,,,,,,,,,,,,,,79.33071949984878,79.73158289981075,79.71461569983512,79.81534929992631,80.21503559988923,None,right,1,0.3877407000400126,80.21503559988923,None,79.71461569983512,79.81534929992631,79.81534929992631,None,80.63213329995051,None,,,,,,,11027,001,2024_Jan_10_1110,ANT,2021.2.3,60.11468681900617,
1,15,center,down,IC,L,,,,,,Block.xlsx,"你已经完成了第一个实验区组

请稍作休息


点击空格键进入下一个区组。",0,50,-1.5,left,RRLRR.png,,,,,0,0,0,0,0,3,3,14,,,,,,,,,,,,,,,,,,,,,,,,,,,,,,,,,,,,,,,,,,,,,,,,,,,,,,,,,,,,,,,,81.03257689997554,81.43343660002574,81.41842759982683,81.51668809982948,81.91730450000614,None,left,1,0.39744949992746115,81.91730450000614,None,81.41842759982683,81.51668809982948,81.51668809982948,None,82.3345484000165,None,,,,,,,11027,001,2024_Jan_10_1110,ANT,2021.2.3,60.11468681900617,
1,19,spatial,up,IC,L,,,,,,Block.xlsx,"你已经完成了第一个实验区组

请稍作休息


点击空格键进入下一个区组。",1.5,0,1.5,left,RRLRR.png,,,,,0,0,0,0,0,4,4,18,,,,,,,,,,,,,,,,,,,,,,,,,,,,,,,,,,,,,,,,,,,,,,,,,,,,,,,,,,,,,,,,82.73515199986286,83.13579929992557,83.11993209994398,83.22059019980952,83.62050459999591,None,left,1,0.4377995999529958,83.62050459999591,None,83.11993209994398,83.22059019980952,83.22059019980952,None,84.08732549985871,None,,,,,,,11027,001,2024_Jan_10_1110,ANT,2021.2.3,60.11468681900617,
1,3,no,up,IC,L,,,,,,Block.xlsx,"你已经完成了第一个实验区组

请稍作休息


点击空格键进入下一个区组。",50,0,1.5,left,RRLRR.png,,,,,0,0,0,0,0,5,5,2,,,,,,,,,,,,,,,,,,,,,,,,,,,,,,,,,,,,,,,,,,,,,,,,,,,,,,,,,,,,,,,,84.48774979985319,84.8897475998383,84.8716972998809,84.97305359994061,85.37441479996778,None,left,1,0.4121159999631345,85.37441479996778,None,84.8716972998809,84.97305359994061,84.97305359994061,None,85.80669140000828,None,,,,,,,11027,001,2024_Jan_10_1110,ANT,2021.2.3,60.11468681900617,
1,21,spatial,down,C,L,,,,,,Block.xlsx,"你已经完成了第一个实验区组

请稍作休息


点击空格键进入下一个区组。",-1.5,0,-1.5,left,LLLLL.png,,,,,0,0,0,0,0,6,6,20,,,,,,,,,,,,,,,,,,,,,,,,,,,,,,,,,,,,,,,,,,,,,,,,,,,,,,,,,,,,,,,,86.20769159984775,86.60904429992661,86.59144199988805,86.69157229992561,87.09192679985426,None,left,1,0.41470209998078644,87.09192679985426,None,86.59144199988805,86.69157229992561,86.69157229992561,None,87.52552269981243,None,,,,,,,11027,001,2024_Jan_10_1110,ANT,2021.2.3,60.11468681900617,
1,9,center,up,C,L,,,,,,Block.xlsx,"你已经完成了第一个实验区组

请稍作休息


点击空格键进入下一个区组。",0,50,1.5,left,LLLLL.png,,,,,0,0,0,0,0,7,7,8,,,,,,,,,,,,,,,,,,,,,,,,,,,,,,,,,,,,,,,,,,,,,,,,,,,,,,,,,,,,,,,,87.92612669989467,88.32755259983242,88.31190339988098,88.4283469999209,88.81254069996066,None,left,1,0.3661662999074906,88.81254069996066,None,88.31190339988098,88.4283469999209,88.41151189990342,None,89.19467719993554,None,,,,,,,11027,001,2024_Jan_10_1110,ANT,2021.2.3,60.11468681900617,
1,11,center,up,IC,L,,,,,,Block.xlsx,"你已经完成了第一个实验区组

请稍作休息


点击空格键进入下一个区组。",0,50,1.5,left,RRLRR.png,,,,,0,0,0,0,0,8,8,10,,,,,,,,,,,,,,,,,,,,,,,,,,,,,,,,,,,,,,,,,,,,,,,,,,,,,,,,,,,,,,,,89.59613139997236,89.99689279985614,89.97919779992662,90.08084409986623,90.4801336999517,None,left,1,0.3701878997962922,90.4801336999517,None,89.97919779992662,90.08084409986623,90.08084409986623,None,90.88082249998115,None,,,,,,,11027,001,2024_Jan_10_1110,ANT,2021.2.3,60.11468681900617,
1,7,no,down,IC,L,,,,,,Block.xlsx,"你已经完成了第一个实验区组

请稍作休息


点击空格键进入下一个区组。",50,0,-1.5,left,RRLRR.png,,,,,0,0,0,0,0,9,9,6,,,,,,,,,,,,,,,,,,,,,,,,,,,,,,,,,,,,,,,,,,,,,,,,,,,,,,,,,,,,,,,,91.28175959992222,91.68292729998939,91.66491729998961,91.765863499837,92.16646049986593,None,left,1,0.5641846999060363,92.16646049986593,None,91.66491729998961,91.765863499837,91.765863499837,None,92.75013629999012,None,,,,,,,11027,001,2024_Jan_10_1110,ANT,2021.2.3,60.11468681900617,
1,5,no,down,C,L,,,,,,Block.xlsx,"你已经完成了第一个实验区组

请稍作休息


点击空格键进入下一个区组。",50,0,-1.5,left,LLLLL.png,,,,,0,0,0,0,0,10,10,4,,,,,,,,,,,,,,,,,,,,,,,,,,,,,,,,,,,,,,,,,,,,,,,,,,,,,,,,,,,,,,,,93.1505491998978,93.55117379990406,93.53501309989952,93.6364503998775,94.03684189985506,None,left,1,0.37339549977332354,94.03684189985506,None,93.53501309989952,93.6364503998775,93.6364503998775,None,94.43582489993423,None,,,,,,,11027,001,2024_Jan_10_1110,ANT,2021.2.3,60.11468681900617,
1,11,center,up,IC,L,,,,,,Block.xlsx,"你已经完成了第一个实验区组

请稍作休息


点击空格键进入下一个区组。",0,50,1.5,left,RRLRR.png,,,,,0,0,0,0,0,11,11,10,,,,,,,,,,,,,,,,,,,,,,,,,,,,,,,,,,,,,,,,,,,,,,,,,,,,,,,,,,,,,,,,94.83635929995216,95.23731699981727,95.2213097999338,95.32130239997059,95.72232369985431,None,left,1,0.40035069989971817,95.72232369985431,None,95.2213097999338,95.32130239997059,95.32130239997059,None,96.1382120999042,None,,,,,,,11027,001,2024_Jan_10_1110,ANT,2021.2.3,60.11468681900617,
1,17,spatial,up,C,L,,,,,,Block.xlsx,"你已经完成了第一个实验区组

请稍作休息


点击空格键进入下一个区组。",1.5,0,1.5,left,LLLLL.png,,,,,0,0,0,0,0,12,12,16,,,,,,,,,,,,,,,,,,,,,,,,,,,,,,,,,,,,,,,,,,,,,,,,,,,,,,,,,,,,,,,,96.53954229992814,96.9406822999008,96.92272289982066,97.02322949981317,97.42423829995096,None,left,1,0.27401289995759726,97.42423829995096,None,96.92272289982066,97.02322949981317,97.02322949981317,None,97.72475539986044,None,,,,,,,11027,001,2024_Jan_10_1110,ANT,2021.2.3,60.11468681900617,
1,1,no,up,C,L,,,,,,Block.xlsx,"你已经完成了第一个实验区组

请稍作休息


点击空格键进入下一个区组。",50,0,1.5,left,LLLLL.png,,,,,0,0,0,0,0,13,13,0,,,,,,,,,,,,,,,,,,,,,,,,,,,,,,,,,,,,,,,,,,,,,,,,,,,,,,,,,,,,,,,,98.12501319986768,98.52517329994589,98.50964799989015,98.60931169986725,99.00938749988563,None,left,1,0.28880199999548495,99.00938749988563,None,98.50964799989015,98.60931169986725,98.60931169986725,None,99.32640629983507,None,,,,,,,11027,001,2024_Jan_10_1110,ANT,2021.2.3,60.11468681900617,
1,6,no,down,C,R,,,,,,Block.xlsx,"你已经完成了第一个实验区组

请稍作休息


点击空格键进入下一个区组。",50,0,-1.5,right,RRRRR.png,,,,,0,0,0,0,0,14,14,5,,,,,,,,,,,,,,,,,,,,,,,,,,,,,,,,,,,,,,,,,,,,,,,,,,,,,,,,,,,,,,,,99.72709269984625,100.1275372998789,100.11114869988523,100.21210949984379,100.61169699998572,None,right,1,0.4305812001693994,100.61169699998572,None,100.11114869988523,100.21210949984379,100.21210949984379,None,101.0622067998629,None,,,,,,,11027,001,2024_Jan_10_1110,ANT,2021.2.3,60.11468681900617,
1,10,center,up,C,R,,,,,,Block.xlsx,"你已经完成了第一个实验区组

请稍作休息


点击空格键进入下一个区组。",0,50,1.5,right,RRRRR.png,,,,,0,0,0,0,0,15,15,9,,,,,,,,,,,,,,,,,,,,,,,,,,,,,,,,,,,,,,,,,,,,,,,,,,,,,,,,,,,,,,,,101.4628144998569,101.86404079990461,101.8481826998759,101.94838029984385,102.34932649997063,None,right,1,0.421058899955824,102.34932649997063,None,101.8481826998759,101.94838029984385,101.94838029984385,None,102.79821639996953,None,,,,,,,11027,001,2024_Jan_10_1110,ANT,2021.2.3,60.11468681900617,
1,21,spatial,down,C,L,,,,,,Block.xlsx,"你已经完成了第一个实验区组

请稍作休息


点击空格键进入下一个区组。",-1.5,0,-1.5,left,LLLLL.png,,,,,0,0,0,0,0,16,16,20,,,,,,,,,,,,,,,,,,,,,,,,,,,,,,,,,,,,,,,,,,,,,,,,,,,,,,,,,,,,,,,,103.19880609982647,103.59957899991423,103.58347149984911,103.68334039999172,104.08498749998398,None,left,1,0.34134710021317005,104.08498749998398,None,103.58347149984911,103.68334039999172,103.68334039999172,None,104.45058159995824,None,,,,,,,11027,001,2024_Jan_10_1110,ANT,2021.2.3,60.11468681900617,
1,22,spatial,down,C,R,,,,,,Block.xlsx,"你已经完成了第一个实验区组

请稍作休息


点击空格键进入下一个区组。",-1.5,0,-1.5,right,RRRRR.png,,,,,0,0,0,0,0,17,17,21,,,,,,,,,,,,,,,,,,,,,,,,,,,,,,,,,,,,,,,,,,,,,,,,,,,,,,,,,,,,,,,,104.85193429980427,105.25307989981957,105.2357477999758,105.33543249987997,105.73586339992471,None,left,0,0.44248949992470443,105.73586339992471,None,105.2357477999758,105.33543249987997,105.33543249987997,None,106.20302529982291,None,,,,,,,11027,001,2024_Jan_10_1110,ANT,2021.2.3,60.11468681900617,
1,6,no,down,C,R,,,,,,Block.xlsx,"你已经完成了第一个实验区组

请稍作休息


点击空格键进入下一个区组。",50,0,-1.5,right,RRRRR.png,,,,,0,0,0,0,0,18,18,5,,,,,,,,,,,,,,,,,,,,,,,,,,,,,,,,,,,,,,,,,,,,,,,,,,,,,,,,,,,,,,,,106.60394309996627,107.00676209991798,106.98831239994615,107.08908329997212,107.48844340001233,None,right,1,0.40976980002596974,107.48844340001233,None,106.98831239994615,107.08908329997212,107.08908329997212,None,107.92240269994363,None,,,,,,,11027,001,2024_Jan_10_1110,ANT,2021.2.3,60.11468681900617,
1,21,spatial,down,C,L,,,,,,Block.xlsx,"你已经完成了第一个实验区组

请稍作休息


点击空格键进入下一个区组。",-1.5,0,-1.5,left,LLLLL.png,,,,,0,0,0,0,0,19,19,20,,,,,,,,,,,,,,,,,,,,,,,,,,,,,,,,,,,,,,,,,,,,,,,,,,,,,,,,,,,,,,,,108.32367259985767,108.72460989980027,108.70755969989114,108.80719069996849,109.20806659990922,None,left,1,0.29821990011259913,109.20806659990922,None,108.70755969989114,108.80719069996849,108.80719069996849,None,109.52473840001039,None,,,,,,,11027,001,2024_Jan_10_1110,ANT,2021.2.3,60.11468681900617,
1,7,no,down,IC,L,,,,,,Block.xlsx,"你已经完成了第一个实验区组

请稍作休息


点击空格键进入下一个区组。",50,0,-1.5,left,RRLRR.png,,,,,0,0,0,0,0,20,20,6,,,,,,,,,,,,,,,,,,,,,,,,,,,,,,,,,,,,,,,,,,,,,,,,,,,,,,,,,,,,,,,,109.92570919985883,110.32647879980505,110.30936670000665,110.41054919990711,110.81035419995897,None,left,1,0.4562166000250727,110.81035419995897,None,110.30936670000665,110.41054919990711,110.41054919990711,None,111.29408289981075,None,,,,,,,11027,001,2024_Jan_10_1110,ANT,2021.2.3,60.11468681900617,
1,9,center,up,C,L,,,,,,Block.xlsx,"你已经完成了第一个实验区组

请稍作休息


点击空格键进入下一个区组。",0,50,1.5,left,LLLLL.png,,,,,0,0,0,0,0,21,21,8,,,,,,,,,,,,,,,,,,,,,,,,,,,,,,,,,,,,,,,,,,,,,,,,,,,,,,,,,,,,,,,,111.69570969999768,112.09657389996573,112.07864589989185,112.17948689986952,112.57985599990934,None,left,1,0.3264307000208646,112.57985599990934,None,112.07864589989185,112.17948689986952,112.17948689986952,None,112.9306873998139,None,,,,,,,11027,001,2024_Jan_10_1110,ANT,2021.2.3,60.11468681900617,
1,23,spatial,down,IC,L,,,,,,Block.xlsx,"你已经完成了第一个实验区组

请稍作休息


点击空格键进入下一个区组。",-1.5,0,-1.5,left,RRLRR.png,,,,,0,0,0,0,0,22,22,22,,,,,,,,,,,,,,,,,,,,,,,,,,,,,,,,,,,,,,,,,,,,,,,,,,,,,,,,,,,,,,,,113.33050639997236,113.7321907998994,113.71420719986781,113.81527369981632,114.21706189983524,None,left,1,0.4732383999507874,114.21706189983524,None,113.71420719986781,113.81527369981632,113.81527369981632,None,114.71580979996361,None,,,,,,,11027,001,2024_Jan_10_1110,ANT,2021.2.3,60.11468681900617,
1,12,center,up,IC,R,,,,,,Block.xlsx,"你已经完成了第一个实验区组

请稍作休息


点击空格键进入下一个区组。",0,50,1.5,right,LLRLL.png,,,,,0,0,0,0,0,23,23,11,,,,,,,,,,,,,,,,,,,,,,,,,,,,,,,,,,,,,,,,,,,,,,,,,,,,,,,,,,,,,,,,115.11647689994425,115.51767169986852,115.50195539998822,115.6174262999557,116.00114759989083,None,right,1,0.5612442998681217,116.00114759989083,None,115.50195539998822,115.6174262999557,115.60269939992577,None,116.58535459986888,None,,,,,,,11027,001,2024_Jan_10_1110,ANT,2021.2.3,60.11468681900617,
1,21,spatial,down,C,L,,,,,,Block.xlsx,"你已经完成了第一个实验区组

请稍作休息


点击空格键进入下一个区组。",-1.5,0,-1.5,left,LLLLL.png,,,,,0,0,0,0,1,0,24,20,,,,,,,,,,,,,,,,,,,,,,,,,,,,,,,,,,,,,,,,,,,,,,,,,,,,,,,,,,,,,,,,116.98592659994029,117.38729629991576,117.3705221998971,117.47207569982857,117.87117669987492,None,left,1,0.3392263001296669,117.87117669987492,None,117.3705221998971,117.47207569982857,117.47207569982857,None,118.23835280002095,None,,,,,,,11027,001,2024_Jan_10_1110,ANT,2021.2.3,60.11468681900617,
1,13,center,down,C,L,,,,,,Block.xlsx,"你已经完成了第一个实验区组

请稍作休息


点击空格键进入下一个区组。",0,50,-1.5,left,LLLLL.png,,,,,0,0,0,0,1,1,25,12,,,,,,,,,,,,,,,,,,,,,,,,,,,,,,,,,,,,,,,,,,,,,,,,,,,,,,,,,,,,,,,,118.63839039998129,119.04046649998054,119.02220240002498,119.12314319983125,119.52525199996307,None,left,1,0.37298099999316037,119.52525199996307,None,119.02220240002498,119.12314319983125,119.12314319983125,None,119.92358419997618,None,,,,,,,11027,001,2024_Jan_10_1110,ANT,2021.2.3,60.11468681900617,
1,1,no,up,C,L,,,,,,Block.xlsx,"你已经完成了第一个实验区组

请稍作休息


点击空格键进入下一个区组。",50,0,1.5,left,LLLLL.png,,,,,0,0,0,0,1,2,26,0,,,,,,,,,,,,,,,,,,,,,,,,,,,,,,,,,,,,,,,,,,,,,,,,,,,,,,,,,,,,,,,,120.32483099983074,120.72587439999916,120.70905269985087,120.80894809984602,121.20937990001403,None,left,1,0.4018852000590414,121.20937990001403,None,120.70905269985087,120.80894809984602,120.80894809984602,None,121.62724970001727,None,,,,,,,11027,001,2024_Jan_10_1110,ANT,2021.2.3,60.11468681900617,
1,10,center,up,C,R,,,,,,Block.xlsx,"你已经完成了第一个实验区组

请稍作休息


点击空格键进入下一个区组。",0,50,1.5,right,RRRRR.png,,,,,0,0,0,0,1,3,27,9,,,,,,,,,,,,,,,,,,,,,,,,,,,,,,,,,,,,,,,,,,,,,,,,,,,,,,,,,,,,,,,,122.026654999936,122.4279010000173,122.41137609980069,122.51166870002635,122.9135638999287,None,right,1,0.42468840000219643,122.9135638999287,None,122.41137609980069,122.51166870002635,122.51166870002635,None,123.36193459993228,None,,,,,,,11027,001,2024_Jan_10_1110,ANT,2021.2.3,60.11468681900617,
1,17,spatial,up,C,L,,,,,,Block.xlsx,"你已经完成了第一个实验区组

请稍作休息


点击空格键进入下一个区组。",1.5,0,1.5,left,LLLLL.png,,,,,0,0,0,0,1,4,28,16,,,,,,,,,,,,,,,,,,,,,,,,,,,,,,,,,,,,,,,,,,,,,,,,,,,,,,,,,,,,,,,,123.76316829980351,124.16442669997923,124.14659749995917,124.24729949980974,124.64978009997867,None,left,1,0.31282610003836453,124.64978009997867,None,124.14659749995917,124.24729949980974,124.24729949980974,None,124.9810634998139,None,,,,,,,11027,001,2024_Jan_10_1110,ANT,2021.2.3,60.11468681900617,
1,4,no,up,IC,R,,,,,,Block.xlsx,"你已经完成了第一个实验区组

请稍作休息


点击空格键进入下一个区组。",50,0,1.5,right,LLRLL.png,,,,,0,0,0,0,1,5,29,3,,,,,,,,,,,,,,,,,,,,,,,,,,,,,,,,,,,,,,,,,,,,,,,,,,,,,,,,,,,,,,,,125.38184049981646,125.78339699981734,125.7656005998142,125.86604919983074,126.26663549989462,None,left,0,0.368838099995628,126.26663549989462,None,125.7656005998142,125.86604919983074,125.86604919983074,None,126.650153900031,None,,,,,,,11027,001,2024_Jan_10_1110,ANT,2021.2.3,60.11468681900617,
1,1,no,up,C,L,,,,,,Block.xlsx,"你已经完成了第一个实验区组

请稍作休息


点击空格键进入下一个区组。",50,0,1.5,left,LLLLL.png,,,,,0,0,0,0,1,6,30,0,,,,,,,,,,,,,,,,,,,,,,,,,,,,,,,,,,,,,,,,,,,,,,,,,,,,,,,,,,,,,,,,127.05090219993144,127.45162749988958,127.43652049987577,127.55215869983658,127.9354277998209,None,left,1,0.36321619991213083,127.9354277998209,None,127.43652049987577,127.55215869983658,127.53540329984389,None,128.31937239994295,None,,,,,,,11027,001,2024_Jan_10_1110,ANT,2021.2.3,60.11468681900617,
1,20,spatial,up,IC,R,,,,,,Block.xlsx,"你已经完成了第一个实验区组

请稍作休息


点击空格键进入下一个区组。",1.5,0,1.5,right,LLRLL.png,,,,,0,0,0,0,1,7,31,19,,,,,,,,,,,,,,,,,,,,,,,,,,,,,,,,,,,,,,,,,,,,,,,,,,,,,,,,,,,,,,,,128.72022799984552,129.12274809996597,129.10420809988864,129.204082199838,129.60465310001746,None,right,1,0.3339799998793751,129.60465310001746,None,129.10420809988864,129.204082199838,129.204082199838,None,129.95510030002333,None,,,,,,,11027,001,2024_Jan_10_1110,ANT,2021.2.3,60.11468681900617,
1,23,spatial,down,IC,L,,,,,,Block.xlsx,"你已经完成了第一个实验区组

请稍作休息


点击空格键进入下一个区组。",-1.5,0,-1.5,left,RRLRR.png,,,,,0,0,0,0,1,8,32,22,,,,,,,,,,,,,,,,,,,,,,,,,,,,,,,,,,,,,,,,,,,,,,,,,,,,,,,,,,,,,,,,130.35571099980734,130.757144899806,130.73976819985546,130.84046059986576,131.2422795998864,None,left,1,0.5124943000264466,131.2422795998864,None,130.73976819985546,130.84046059986576,130.84046059986576,None,131.77442849986255,None,,,,,,,11027,001,2024_Jan_10_1110,ANT,2021.2.3,60.11468681900617,
1,4,no,up,IC,R,,,,,,Block.xlsx,"你已经完成了第一个实验区组

请稍作休息


点击空格键进入下一个区组。",50,0,1.5,right,LLRLL.png,,,,,0,0,0,0,1,9,33,3,,,,,,,,,,,,,,,,,,,,,,,,,,,,,,,,,,,,,,,,,,,,,,,,,,,,,,,,,,,,,,,,132.17568299989216,132.57600979995914,132.559659200022,132.65956899989396,133.0607959998306,None,right,1,0.5255189000163227,133.0607959998306,None,132.559659200022,132.65956899989396,132.65956899989396,None,133.61044660001062,None,,,,,,,11027,001,2024_Jan_10_1110,ANT,2021.2.3,60.11468681900617,
1,5,no,down,C,L,,,,,,Block.xlsx,"你已经完成了第一个实验区组

请稍作休息


点击空格键进入下一个区组。",50,0,-1.5,left,LLLLL.png,,,,,0,0,0,0,1,10,34,4,,,,,,,,,,,,,,,,,,,,,,,,,,,,,,,,,,,,,,,,,,,,,,,,,,,,,,,,,,,,,,,,134.0117792999372,134.41255579981953,134.39579059998505,134.49709829990752,134.8963430998847,None,left,1,0.3941959000658244,134.8963430998847,None,134.39579059998505,134.49709829990752,134.49709829990752,None,135.31311869993806,None,,,,,,,11027,001,2024_Jan_10_1110,ANT,2021.2.3,60.11468681900617,
1,8,no,down,IC,R,,,,,,Block.xlsx,"你已经完成了第一个实验区组

请稍作休息


点击空格键进入下一个区组。",50,0,-1.5,right,LLRLL.png,,,,,0,0,0,0,1,11,35,7,,,,,,,,,,,,,,,,,,,,,,,,,,,,,,,,,,,,,,,,,,,,,,,,,,,,,,,,,,,,,,,,135.7134457998909,136.114426799817,136.0990610998124,136.19796719984151,136.59879049984738,None,left,0,0.3956321000587195,136.59879049984738,None,136.0990610998124,136.19796719984151,136.19796719984151,None,137.0153506998904,None,,,,,,,11027,001,2024_Jan_10_1110,ANT,2021.2.3,60.11468681900617,
1,22,spatial,down,C,R,,,,,,Block.xlsx,"你已经完成了第一个实验区组

请稍作休息


点击空格键进入下一个区组。",-1.5,0,-1.5,right,RRRRR.png,,,,,0,0,0,0,1,12,36,21,,,,,,,,,,,,,,,,,,,,,,,,,,,,,,,,,,,,,,,,,,,,,,,,,,,,,,,,,,,,,,,,137.4172253999859,137.81779260002077,137.8012776998803,137.90029939985834,138.3013428999111,None,right,1,0.4137539998628199,138.3013428999111,None,137.8012776998803,137.90029939985834,137.90029939985834,None,138.73486259998754,None,,,,,,,11027,001,2024_Jan_10_1110,ANT,2021.2.3,60.11468681900617,
1,7,no,down,IC,L,,,,,,Block.xlsx,"你已经完成了第一个实验区组

请稍作休息


点击空格键进入下一个区组。",50,0,-1.5,left,RRLRR.png,,,,,0,0,0,0,1,13,37,6,,,,,,,,,,,,,,,,,,,,,,,,,,,,,,,,,,,,,,,,,,,,,,,,,,,,,,,,,,,,,,,,139.13593829981983,139.53748789988458,139.51935940003023,139.6212432999164,140.02061719982885,None,left,1,0.5097467000596225,140.02061719982885,None,139.51935940003023,139.6212432999164,139.6212432999164,None,140.5541339998599,None,,,,,,,11027,001,2024_Jan_10_1110,ANT,2021.2.3,60.11468681900617,
1,5,no,down,C,L,,,,,,Block.xlsx,"你已经完成了第一个实验区组

请稍作休息


点击空格键进入下一个区组。",50,0,-1.5,left,LLLLL.png,,,,,0,0,0,0,1,14,38,4,,,,,,,,,,,,,,,,,,,,,,,,,,,,,,,,,,,,,,,,,,,,,,,,,,,,,,,,,,,,,,,,140.95475379982963,141.35548309981823,141.33904280001298,141.43988729990087,141.83955919998698,None,left,1,0.4267747001722455,141.83955919998698,None,141.33904280001298,141.43988729990087,141.43988729990087,None,142.2901627998799,None,,,,,,,11027,001,2024_Jan_10_1110,ANT,2021.2.3,60.11468681900617,
1,24,spatial,down,IC,R,,,,,,Block.xlsx,"你已经完成了第一个实验区组

请稍作休息


点击空格键进入下一个区组。",-1.5,0,-1.5,right,LLRLL.png,,,,,0,0,0,0,1,15,39,23,,,,,,,,,,,,,,,,,,,,,,,,,,,,,,,,,,,,,,,,,,,,,,,,,,,,,,,,,,,,,,,,142.69140239991248,143.09216100000776,143.07665529986843,143.17472389992326,143.57630650000647,None,right,1,0.37830820004455745,143.57630650000647,None,143.07665529986843,143.17472389992326,143.17472389992326,None,143.97571519995108,None,,,,,,,11027,001,2024_Jan_10_1110,ANT,2021.2.3,60.11468681900617,
1,14,center,down,C,R,,,,,,Block.xlsx,"你已经完成了第一个实验区组

请稍作休息


点击空格键进入下一个区组。",0,50,-1.5,right,RRRRR.png,,,,,0,0,0,0,1,16,40,13,,,,,,,,,,,,,,,,,,,,,,,,,,,,,,,,,,,,,,,,,,,,,,,,,,,,,,,,,,,,,,,,144.3778844999615,144.77726949984208,144.76111289998516,144.8613120999653,145.26267639989965,None,right,1,0.4038224001415074,145.26267639989965,None,144.76111289998516,144.8613120999653,144.8613120999653,None,145.69502649991773,None,,,,,,,11027,001,2024_Jan_10_1110,ANT,2021.2.3,60.11468681900617,
1,8,no,down,IC,R,,,,,,Block.xlsx,"你已经完成了第一个实验区组

请稍作休息


点击空格键进入下一个区组。",50,0,-1.5,right,LLRLL.png,,,,,0,0,0,0,1,17,41,7,,,,,,,,,,,,,,,,,,,,,,,,,,,,,,,,,,,,,,,,,,,,,,,,,,,,,,,,,,,,,,,,146.09609979996458,146.4973334998358,146.47955479985103,146.58091639983468,146.98175019980408,None,right,1,0.5167431000154465,146.98175019980408,None,146.47955479985103,146.58091639983468,146.58091639983468,None,147.51442779996432,None,,,,,,,11027,001,2024_Jan_10_1110,ANT,2021.2.3,60.11468681900617,
1,18,spatial,up,C,R,,,,,,Block.xlsx,"你已经完成了第一个实验区组

请稍作休息


点击空格键进入下一个区组。",1.5,0,1.5,right,RRRRR.png,,,,,0,0,0,0,1,18,42,17,,,,,,,,,,,,,,,,,,,,,,,,,,,,,,,,,,,,,,,,,,,,,,,,,,,,,,,,,,,,,,,,147.9158494998701,148.31668789987452,148.2990681999363,148.4006584000308,148.80043970001861,None,right,1,0.5064081000164151,148.80043970001861,None,148.2990681999363,148.4006584000308,148.4006584000308,None,149.3340699998662,None,,,,,,,11027,001,2024_Jan_10_1110,ANT,2021.2.3,60.11468681900617,
1,22,spatial,down,C,R,,,,,,Block.xlsx,"你已经完成了第一个实验区组

请稍作休息


点击空格键进入下一个区组。",-1.5,0,-1.5,right,RRRRR.png,,,,,0,0,0,0,1,19,43,21,,,,,,,,,,,,,,,,,,,,,,,,,,,,,,,,,,,,,,,,,,,,,,,,,,,,,,,,,,,,,,,,149.73501729988493,150.13618959998712,150.11831799987704,150.21985559980385,150.62009239988402,None,right,1,0.36648839991539717,150.62009239988402,None,150.11831799987704,150.21985559980385,150.21985559980385,None,151.00302679999731,None,,,,,,,11027,001,2024_Jan_10_1110,ANT,2021.2.3,60.11468681900617,
1,11,center,up,IC,L,,,,,,Block.xlsx,"你已经完成了第一个实验区组

请稍作休息


点击空格键进入下一个区组。",0,50,1.5,left,RRLRR.png,,,,,0,0,0,0,1,20,44,10,,,,,,,,,,,,,,,,,,,,,,,,,,,,,,,,,,,,,,,,,,,,,,,,,,,,,,,,,,,,,,,,151.40415309998207,151.8048413998913,151.78815809986554,151.88893119990826,152.28905709995888,None,left,1,0.46621769992634654,152.28905709995888,None,151.78815809986554,151.88893119990826,151.88893119990826,None,152.77213609986939,None,,,,,,,11027,001,2024_Jan_10_1110,ANT,2021.2.3,60.11468681900617,
1,14,center,down,C,R,,,,,,Block.xlsx,"你已经完成了第一个实验区组

请稍作休息


点击空格键进入下一个区组。",0,50,-1.5,right,RRRRR.png,,,,,0,0,0,0,1,21,45,13,,,,,,,,,,,,,,,,,,,,,,,,,,,,,,,,,,,,,,,,,,,,,,,,,,,,,,,,,,,,,,,,153.17307249992155,153.5736548998393,153.5584557999391,153.67552599986084,154.05743369995616,None,right,1,0.36913680005818605,154.05743369995616,None,153.5584557999391,153.67552599986084,153.65697809983976,None,154.44212569994852,None,,,,,,,11027,001,2024_Jan_10_1110,ANT,2021.2.3,60.11468681900617,
1,6,no,down,C,R,,,,,,Block.xlsx,"你已经完成了第一个实验区组

请稍作休息


点击空格键进入下一个区组。",50,0,-1.5,right,RRRRR.png,,,,,0,0,0,0,1,22,46,5,,,,,,,,,,,,,,,,,,,,,,,,,,,,,,,,,,,,,,,,,,,,,,,,,,,,,,,,,,,,,,,,154.84196510002948,155.24479679996148,155.2262558999937,155.32705399999395,155.72820189991035,None,right,1,0.42620690003968775,155.72820189991035,None,155.2262558999937,155.32705399999395,155.32705399999395,None,156.1772460998036,None,,,,,,,11027,001,2024_Jan_10_1110,ANT,2021.2.3,60.11468681900617,
1,18,spatial,up,C,R,,,,,,Block.xlsx,"你已经完成了第一个实验区组

请稍作休息


点击空格键进入下一个区组。",1.5,0,1.5,right,RRRRR.png,,,,,0,0,0,0,1,23,47,17,,,,,,,,,,,,,,,,,,,,,,,,,,,,,,,,,,,,,,,,,,,,,,,,,,,,,,,,,,,,,,,,156.57841209997423,156.97921839985065,156.9630724999588,157.0635205998551,157.4630312998779,None,right,1,0.36366420006379485,157.4630312998779,None,156.9630724999588,157.0635205998551,157.0635205998551,None,157.84708099998534,None,,,,,,,11027,001,2024_Jan_10_1110,ANT,2021.2.3,60.11468681900617,
1,3,no,up,IC,L,,,,,,Block.xlsx,"你已经完成了第一个实验区组

请稍作休息


点击空格键进入下一个区组。",50,0,1.5,left,RRLRR.png,,,,,0,0,0,0,2,0,48,2,,,,,,,,,,,,,,,,,,,,,,,,,,,,,,,,,,,,,,,,,,,,,,,,,,,,,,,,,,,,,,,,158.24710229993798,158.64824669994414,158.63204139983281,158.73153220000677,159.13266489980742,None,left,1,0.5498454000335187,159.13266489980742,None,158.63204139983281,158.73153220000677,158.73153220000677,None,159.69974039983936,None,,,,,,,11027,001,2024_Jan_10_1110,ANT,2021.2.3,60.11468681900617,
1,19,spatial,up,IC,L,,,,,,Block.xlsx,"你已经完成了第一个实验区组

请稍作休息


点击空格键进入下一个区组。",1.5,0,1.5,left,RRLRR.png,,,,,0,0,0,0,2,1,49,18,,,,,,,,,,,,,,,,,,,,,,,,,,,,,,,,,,,,,,,,,,,,,,,,,,,,,,,,,,,,,,,,160.09969609999098,160.50053670001216,160.48430409980938,160.5842489998322,160.98517009988427,None,left,1,0.4411469001788646,160.98517009988427,None,160.48430409980938,160.5842489998322,160.5842489998322,None,161.45175029989332,None,,,,,,,11027,001,2024_Jan_10_1110,ANT,2021.2.3,60.11468681900617,
1,13,center,down,C,L,,,,,,Block.xlsx,"你已经完成了第一个实验区组

请稍作休息


点击空格键进入下一个区组。",0,50,-1.5,left,LLLLL.png,,,,,0,0,0,0,2,2,50,12,,,,,,,,,,,,,,,,,,,,,,,,,,,,,,,,,,,,,,,,,,,,,,,,,,,,,,,,,,,,,,,,161.85236929985695,162.2547933999449,162.23634759988636,162.33705689990893,162.73759539984167,None,left,1,0.4493440999649465,162.73759539984167,None,162.23634759988636,162.33705689990893,162.33705689990893,None,163.20437009981833,None,,,,,,,11027,001,2024_Jan_10_1110,ANT,2021.2.3,60.11468681900617,
1,4,no,up,IC,R,,,,,,Block.xlsx,"你已经完成了第一个实验区组

请稍作休息


点击空格键进入下一个区组。",50,0,1.5,right,LLRLL.png,,,,,0,0,0,0,2,3,51,3,,,,,,,,,,,,,,,,,,,,,,,,,,,,,,,,,,,,,,,,,,,,,,,,,,,,,,,,,,,,,,,,163.605150999967,164.00612979987636,163.9887991999276,164.09007209981792,164.4897141000256,None,right,1,0.528675900073722,164.4897141000256,None,163.9887991999276,164.09007209981792,164.09007209981792,None,165.04049259983003,None,,,,,,,11027,001,2024_Jan_10_1110,ANT,2021.2.3,60.11468681900617,
1,5,no,down,C,L,,,,,,Block.xlsx,"你已经完成了第一个实验区组

请稍作休息


点击空格键进入下一个区组。",50,0,-1.5,left,LLLLL.png,,,,,0,0,0,0,2,4,52,4,,,,,,,,,,,,,,,,,,,,,,,,,,,,,,,,,,,,,,,,,,,,,,,,,,,,,,,,,,,,,,,,165.44100559991784,165.84199949982576,165.82489049993455,165.92579949996434,166.32584269996732,None,left,1,0.3968241000548005,166.32584269996732,None,165.82489049993455,165.92579949996434,165.92579949996434,None,166.74295109999366,None,,,,,,,11027,001,2024_Jan_10_1110,ANT,2021.2.3,60.11468681900617,
1,19,spatial,up,IC,L,,,,,,Block.xlsx,"你已经完成了第一个实验区组

请稍作休息


点击空格键进入下一个区组。",1.5,0,1.5,left,RRLRR.png,,,,,0,0,0,0,2,5,53,18,,,,,,,,,,,,,,,,,,,,,,,,,,,,,,,,,,,,,,,,,,,,,,,,,,,,,,,,,,,,,,,,167.1437252999749,167.54424869990908,167.52911340002902,167.6453962000087,168.02827469981275,None,left,1,0.3981449001003057,168.02827469981275,None,167.52911340002902,167.6453962000087,167.62873220001347,None,168.44548769993708,None,,,,,,,11027,001,2024_Jan_10_1110,ANT,2021.2.3,60.11468681900617,
1,2,no,up,C,R,,,,,,Block.xlsx,"你已经完成了第一个实验区组

请稍作休息


点击空格键进入下一个区组。",50,0,1.5,right,RRRRR.png,,,,,0,0,0,0,2,6,54,1,,,,,,,,,,,,,,,,,,,,,,,,,,,,,,,,,,,,,,,,,,,,,,,,,,,,,,,,,,,,,,,,168.84642850002274,169.2485638000071,169.23068259982392,169.32993160001934,169.73131019994617,None,right,1,0.39106960012577474,169.73131019994617,None,169.23068259982392,169.32993160001934,169.32993160001934,None,170.14884139993228,None,,,,,,,11027,001,2024_Jan_10_1110,ANT,2021.2.3,60.11468681900617,
1,8,no,down,IC,R,,,,,,Block.xlsx,"你已经完成了第一个实验区组

请稍作休息


点击空格键进入下一个区组。",50,0,-1.5,right,LLRLL.png,,,,,0,0,0,0,2,7,55,7,,,,,,,,,,,,,,,,,,,,,,,,,,,,,,,,,,,,,,,,,,,,,,,,,,,,,,,,,,,,,,,,170.54850509995595,170.95000179996714,170.93323079985566,171.0331978998147,171.43379869987257,None,right,1,0.5608656001277268,171.43379869987257,None,170.93323079985566,171.0331978998147,171.0331978998147,None,172.01740280003287,None,,,,,,,11027,001,2024_Jan_10_1110,ANT,2021.2.3,60.11468681900617,
1,11,center,up,IC,L,,,,,,Block.xlsx,"你已经完成了第一个实验区组

请稍作休息


点击空格键进入下一个区组。",0,50,1.5,left,RRLRR.png,,,,,0,0,0,0,2,8,56,10,,,,,,,,,,,,,,,,,,,,,,,,,,,,,,,,,,,,,,,,,,,,,,,,,,,,,,,,,,,,,,,,172.4188810000196,172.8202666998841,172.80191279994324,172.90224029985256,173.3027570999693,None,left,1,0.4197186999954283,173.3027570999693,None,172.80191279994324,172.90224029985256,172.90224029985256,None,173.75450009992346,None,,,,,,,11027,001,2024_Jan_10_1110,ANT,2021.2.3,60.11468681900617,
1,6,no,down,C,R,,,,,,Block.xlsx,"你已经完成了第一个实验区组

请稍作休息


点击空格键进入下一个区组。",50,0,-1.5,right,RRRRR.png,,,,,0,0,0,0,2,9,57,5,,,,,,,,,,,,,,,,,,,,,,,,,,,,,,,,,,,,,,,,,,,,,,,,,,,,,,,,,,,,,,,,174.15466080000624,174.55680059990846,174.53850020002574,174.63917470001616,175.03915359987877,None,right,1,0.33949730009771883,175.03915359987877,None,174.53850020002574,174.63917470001616,174.63917470001616,None,175.40578389982693,None,,,,,,,11027,001,2024_Jan_10_1110,ANT,2021.2.3,60.11468681900617,
1,9,center,up,C,L,,,,,,Block.xlsx,"你已经完成了第一个实验区组

请稍作休息


点击空格键进入下一个区组。",0,50,1.5,left,LLLLL.png,,,,,0,0,0,0,2,10,58,8,,,,,,,,,,,,,,,,,,,,,,,,,,,,,,,,,,,,,,,,,,,,,,,,,,,,,,,,,,,,,,,,175.80635359999724,176.20750849996693,176.19093979988247,176.29067969997413,176.69277790002525,None,left,1,0.34158340003341436,176.69277790002525,None,176.19093979988247,176.29067969997413,176.29067969997413,None,177.0582793999929,None,,,,,,,11027,001,2024_Jan_10_1110,ANT,2021.2.3,60.11468681900617,
1,24,spatial,down,IC,R,,,,,,Block.xlsx,"你已经完成了第一个实验区组

请稍作休息


点击空格键进入下一个区组。",-1.5,0,-1.5,right,LLRLL.png,,,,,0,0,0,0,2,11,59,23,,,,,,,,,,,,,,,,,,,,,,,,,,,,,,,,,,,,,,,,,,,,,,,,,,,,,,,,,,,,,,,,177.458735199878,177.8594183998648,177.84450899995863,177.94398640003055,178.34558299998753,None,right,1,0.368716900004074,178.34558299998753,None,177.84450899995863,177.94398640003055,177.94398640003055,None,178.74398609995842,None,,,,,,,11027,001,2024_Jan_10_1110,ANT,2021.2.3,60.11468681900617,
1,9,center,up,C,L,,,,,,Block.xlsx,"你已经完成了第一个实验区组

请稍作休息


点击空格键进入下一个区组。",0,50,1.5,left,LLLLL.png,,,,,0,0,0,0,2,12,60,8,,,,,,,,,,,,,,,,,,,,,,,,,,,,,,,,,,,,,,,,,,,,,,,,,,,,,,,,,,,,,,,,179.14476809999906,179.54563069995493,179.52940299990587,179.62905330001377,180.02979529998265,None,left,1,0.33333620009943843,180.02979529998265,None,179.52940299990587,179.62905330001377,179.62905330001377,None,180.37994050001726,None,,,,,,,11027,001,2024_Jan_10_1110,ANT,2021.2.3,60.11468681900617,
1,8,no,down,IC,R,,,,,,Block.xlsx,"你已经完成了第一个实验区组

请稍作休息


点击空格键进入下一个区组。",50,0,-1.5,right,LLRLL.png,,,,,0,0,0,0,2,13,61,7,,,,,,,,,,,,,,,,,,,,,,,,,,,,,,,,,,,,,,,,,,,,,,,,,,,,,,,,,,,,,,,,180.78110779984854,181.18327369983308,181.1647508998867,181.26440879981965,181.66563129983842,None,right,1,0.5607429998926818,181.66563129983842,None,181.1647508998867,181.26440879981965,181.26440879981965,None,182.2492897999473,None,,,,,,,11027,001,2024_Jan_10_1110,ANT,2021.2.3,60.11468681900617,
1,18,spatial,up,C,R,,,,,,Block.xlsx,"你已经完成了第一个实验区组

请稍作休息


点击空格键进入下一个区组。",1.5,0,1.5,right,RRRRR.png,,,,,0,0,0,0,2,14,62,17,,,,,,,,,,,,,,,,,,,,,,,,,,,,,,,,,,,,,,,,,,,,,,,,,,,,,,,,,,,,,,,,182.6499478998594,183.0518284998834,183.03423069999553,183.1345029999502,183.53476609988138,None,right,1,0.3075278999749571,183.53476609988138,None,183.03423069999553,183.1345029999502,183.1345029999502,None,183.86851739999838,None,,,,,,,11027,001,2024_Jan_10_1110,ANT,2021.2.3,60.11468681900617,
1,17,spatial,up,C,L,,,,,,Block.xlsx,"你已经完成了第一个实验区组

请稍作休息


点击空格键进入下一个区组。",1.5,0,1.5,left,LLLLL.png,,,,,0,0,0,0,2,15,63,16,,,,,,,,,,,,,,,,,,,,,,,,,,,,,,,,,,,,,,,,,,,,,,,,,,,,,,,,,,,,,,,,184.26898779999465,184.66972899995744,184.65308329998516,184.7542448998429,185.1557644000277,None,left,1,0.37465570005588233,185.1557644000277,None,184.65308329998516,184.7542448998429,184.7542448998429,None,185.55426979996264,None,,,,,,,11027,001,2024_Jan_10_1110,ANT,2021.2.3,60.11468681900617,
1,24,spatial,down,IC,R,,,,,,Block.xlsx,"你已经完成了第一个实验区组

请稍作休息


点击空格键进入下一个区组。",-1.5,0,-1.5,right,LLRLL.png,,,,,0,0,0,0,2,16,64,23,,,,,,,,,,,,,,,,,,,,,,,,,,,,,,,,,,,,,,,,,,,,,,,,,,,,,,,,,,,,,,,,185.9547861998435,186.35630630003288,186.3398615999613,186.4397368999198,186.8399420999922,None,right,1,0.41054449998773634,186.8399420999922,None,186.3398615999613,186.4397368999198,186.4397368999198,None,187.27328570000827,None,,,,,,,11027,001,2024_Jan_10_1110,ANT,2021.2.3,60.11468681900617,
1,13,center,down,C,L,,,,,,Block.xlsx,"你已经完成了第一个实验区组

请稍作休息


点击空格键进入下一个区组。",0,50,-1.5,left,LLLLL.png,,,,,0,0,0,0,2,17,65,12,,,,,,,,,,,,,,,,,,,,,,,,,,,,,,,,,,,,,,,,,,,,,,,,,,,,,,,,,,,,,,,,187.67403949983418,188.0762714999728,188.0584372000303,188.15914879995398,188.55962279997766,None,left,1,0.33907989994622767,188.55962279997766,None,188.0584372000303,188.15914879995398,188.15914879995398,None,188.9256944998633,None,,,,,,,11027,001,2024_Jan_10_1110,ANT,2021.2.3,60.11468681900617,
1,20,spatial,up,IC,R,,,,,,Block.xlsx,"你已经完成了第一个实验区组

请稍作休息


点击空格键进入下一个区组。",1.5,0,1.5,right,LLRLL.png,,,,,0,0,0,0,2,18,66,19,,,,,,,,,,,,,,,,,,,,,,,,,,,,,,,,,,,,,,,,,,,,,,,,,,,,,,,,,,,,,,,,189.3277120999992,189.72753919987008,189.71104409988038,189.81175909982994,190.21090389997698,None,right,1,0.3277861999813467,190.21090389997698,None,189.71104409988038,189.81175909982994,189.81175909982994,None,190.56206199992448,None,,,,,,,11027,001,2024_Jan_10_1110,ANT,2021.2.3,60.11468681900617,
1,10,center,up,C,R,,,,,,Block.xlsx,"你已经完成了第一个实验区组

请稍作休息


点击空格键进入下一个区组。",0,50,1.5,right,RRRRR.png,,,,,0,0,0,0,2,19,67,9,,,,,,,,,,,,,,,,,,,,,,,,,,,,,,,,,,,,,,,,,,,,,,,,,,,,,,,,,,,,,,,,190.96213070000522,191.36409559985623,191.3472817998845,191.44854919984937,191.84712099982426,None,right,1,0.4117016999516636,191.84712099982426,None,191.3472817998845,191.44854919984937,191.44854919984937,None,192.28084799996577,None,,,,,,,11027,001,2024_Jan_10_1110,ANT,2021.2.3,60.11468681900617,
1,15,center,down,IC,L,,,,,,Block.xlsx,"你已经完成了第一个实验区组

请稍作休息


点击空格键进入下一个区组。",0,50,-1.5,left,RRLRR.png,,,,,0,0,0,0,2,20,68,14,,,,,,,,,,,,,,,,,,,,,,,,,,,,,,,,,,,,,,,,,,,,,,,,,,,,,,,,,,,,,,,,192.6813453999348,193.08248049998656,193.0660900999792,193.16679749987088,193.56658619991504,None,left,1,0.6757737998850644,193.56658619991504,None,193.0660900999792,193.16679749987088,193.16679749987088,None,194.267011199845,None,,,,,,,11027,001,2024_Jan_10_1110,ANT,2021.2.3,60.11468681900617,
1,19,spatial,up,IC,L,,,,,,Block.xlsx,"你已经完成了第一个实验区组

请稍作休息


点击空格键进入下一个区组。",1.5,0,1.5,left,RRLRR.png,,,,,0,0,0,0,2,21,69,18,,,,,,,,,,,,,,,,,,,,,,,,,,,,,,,,,,,,,,,,,,,,,,,,,,,,,,,,,,,,,,,,194.6681562999729,195.06904009985738,195.05301769985817,195.15232649981044,195.55326849990524,None,left,1,0.40105800004675984,195.55326849990524,None,195.05301769985817,195.15232649981044,195.15232649981044,None,195.969465599861,None,,,,,,,11027,001,2024_Jan_10_1110,ANT,2021.2.3,60.11468681900617,
1,23,spatial,down,IC,L,,,,,,Block.xlsx,"你已经完成了第一个实验区组

请稍作休息


点击空格键进入下一个区组。",-1.5,0,-1.5,left,RRLRR.png,,,,,0,0,0,0,2,22,70,22,,,,,,,,,,,,,,,,,,,,,,,,,,,,,,,,,,,,,,,,,,,,,,,,,,,,,,,,,,,,,,,,196.37026460003108,196.7722863999661,196.75415860000066,196.85549260000698,197.2555229999125,None,left,1,0.4348014001734555,197.2555229999125,None,196.75415860000066,196.85549260000698,196.85549260000698,None,197.70548049989156,None,,,,,,,11027,001,2024_Jan_10_1110,ANT,2021.2.3,60.11468681900617,
1,3,no,up,IC,L,,,,,,Block.xlsx,"你已经完成了第一个实验区组

请稍作休息


点击空格键进入下一个区组。",50,0,1.5,left,RRLRR.png,,,,,0,0,0,0,2,23,71,2,,,,,,,,,,,,,,,,,,,,,,,,,,,,,,,,,,,,,,,,,,,,,,,,,,,,,,,,,,,,,,,,198.10592499980703,198.50833849981427,198.49022409995086,198.5910964999348,198.99245829996653,None,left,1,0.48212629999034107,198.99245829996653,None,198.49022409995086,198.5910964999348,198.5910964999348,None,199.49148439988494,None,,,,,,,11027,001,2024_Jan_10_1110,ANT,2021.2.3,60.11468681900617,
1,15,center,down,IC,L,,,,,,Block.xlsx,"你已经完成了第一个实验区组

请稍作休息


点击空格键进入下一个区组。",0,50,-1.5,left,RRLRR.png,,,,,0,0,0,0,3,0,72,14,,,,,,,,,,,,,,,,,,,,,,,,,,,,,,,,,,,,,,,,,,,,,,,,,,,,,,,,,,,,,,,,199.89244389999658,200.29259939980693,200.27675920003094,200.37669499986805,200.7773467998486,None,left,1,0.4818663001060486,200.7773467998486,None,200.27675920003094,200.37669499986805,200.37669499986805,None,201.27738210000098,None,,,,,,,11027,001,2024_Jan_10_1110,ANT,2021.2.3,60.11468681900617,
1,12,center,up,IC,R,,,,,,Block.xlsx,"你已经完成了第一个实验区组

请稍作休息


点击空格键进入下一个区组。",0,50,1.5,right,LLRLL.png,,,,,0,0,0,0,3,1,73,11,,,,,,,,,,,,,,,,,,,,,,,,,,,,,,,,,,,,,,,,,,,,,,,,,,,,,,,,,,,,,,,,201.67812409996986,202.07886040001176,202.06419529998675,202.17994169984013,202.5629707998596,None,right,1,0.5195319000631571,202.5629707998596,None,202.06419529998675,202.17994169984013,202.16361679998226,None,203.11352659994736,None,,,,,,,11027,001,2024_Jan_10_1110,ANT,2021.2.3,60.11468681900617,
1,15,center,down,IC,L,,,,,,Block.xlsx,"你已经完成了第一个实验区组

请稍作休息


点击空格键进入下一个区组。",0,50,-1.5,left,RRLRR.png,,,,,0,0,0,0,3,2,74,14,,,,,,,,,,,,,,,,,,,,,,,,,,,,,,,,,,,,,,,,,,,,,,,,,,,,,,,,,,,,,,,,203.51410489995033,203.91540990001522,203.89812849997543,203.9984240999911,204.4008779998403,None,left,1,0.46658420003950596,204.4008779998403,None,203.89812849997543,203.9984240999911,203.9984240999911,None,204.88281129999086,None,,,,,,,11027,001,2024_Jan_10_1110,ANT,2021.2.3,60.11468681900617,
1,1,no,up,C,L,,,,,,Block.xlsx,"你已经完成了第一个实验区组

请稍作休息


点击空格键进入下一个区组。",50,0,1.5,left,LLLLL.png,,,,,0,0,0,0,3,3,75,0,,,,,,,,,,,,,,,,,,,,,,,,,,,,,,,,,,,,,,,,,,,,,,,,,,,,,,,,,,,,,,,,205.28346059983596,205.68409090000205,205.66802839981392,205.76852679997683,206.16827069991268,None,left,1,0.4100554999895394,206.16827069991268,None,205.66802839981392,205.76852679997683,205.76852679997683,None,206.60203609988093,None,,,,,,,11027,001,2024_Jan_10_1110,ANT,2021.2.3,60.11468681900617,
1,10,center,up,C,R,,,,,,Block.xlsx,"你已经完成了第一个实验区组

请稍作休息


点击空格键进入下一个区组。",0,50,1.5,right,RRRRR.png,,,,,0,0,0,0,3,4,76,9,,,,,,,,,,,,,,,,,,,,,,,,,,,,,,,,,,,,,,,,,,,,,,,,,,,,,,,,,,,,,,,,207.0026293999981,207.40528409997933,207.38708699983545,207.4866535998881,207.88723549991846,None,right,1,0.45930750016123056,207.88723549991846,None,207.38708699983545,207.4866535998881,207.4866535998881,None,208.37111479998566,None,,,,,,,11027,001,2024_Jan_10_1110,ANT,2021.2.3,60.11468681900617,
1,2,no,up,C,R,,,,,,Block.xlsx,"你已经完成了第一个实验区组

请稍作休息


点击空格键进入下一个区组。",50,0,1.5,right,RRRRR.png,,,,,0,0,0,0,3,5,77,1,,,,,,,,,,,,,,,,,,,,,,,,,,,,,,,,,,,,,,,,,,,,,,,,,,,,,,,,,,,,,,,,208.7721114999149,209.17313100001775,209.1573544999119,209.27250099997036,209.65658059995621,None,right,1,0.42583280010148883,209.65658059995621,None,209.1573544999119,209.27250099997036,209.25751219992526,None,210.10765479994006,None,,,,,,,11027,001,2024_Jan_10_1110,ANT,2021.2.3,60.11468681900617,
1,16,center,down,IC,R,,,,,,Block.xlsx,"你已经完成了第一个实验区组

请稍作休息


点击空格键进入下一个区组。",0,50,-1.5,right,LLRLL.png,,,,,0,0,0,0,3,6,78,15,,,,,,,,,,,,,,,,,,,,,,,,,,,,,,,,,,,,,,,,,,,,,,,,,,,,,,,,,,,,,,,,210.50854639988393,210.90856879996136,210.89268139982596,210.99223039997742,211.39286399981938,None,right,1,0.5853595000226051,211.39286399981938,None,210.89268139982596,210.99223039997742,210.99223039997742,None,211.9933793998789,None,,,,,,,11027,001,2024_Jan_10_1110,ANT,2021.2.3,60.11468681900617,
1,16,center,down,IC,R,,,,,,Block.xlsx,"你已经完成了第一个实验区组

请稍作休息


点击空格键进入下一个区组。",0,50,-1.5,right,LLRLL.png,,,,,0,0,0,0,3,7,79,15,,,,,,,,,,,,,,,,,,,,,,,,,,,,,,,,,,,,,,,,,,,,,,,,,,,,,,,,,,,,,,,,212.39387979987077,212.7944457998965,212.7782558000181,212.87891420000233,213.2794908999931,None,right,1,0.5387520000804216,213.2794908999931,None,212.7782558000181,212.87891420000233,212.87891420000233,None,213.84602789999917,None,,,,,,,11027,001,2024_Jan_10_1110,ANT,2021.2.3,60.11468681900617,
1,20,spatial,up,IC,R,,,,,,Block.xlsx,"你已经完成了第一个实验区组

请稍作休息


点击空格键进入下一个区组。",1.5,0,1.5,right,LLRLL.png,,,,,0,0,0,0,3,8,80,19,,,,,,,,,,,,,,,,,,,,,,,,,,,,,,,,,,,,,,,,,,,,,,,,,,,,,,,,,,,,,,,,214.24668270000257,214.6477339998819,214.63200679980218,214.73071199981496,215.13128979993053,None,right,1,0.45549919991753995,215.13128979993053,None,214.63200679980218,214.73071199981496,214.73071199981496,None,215.61537779984064,None,,,,,,,11027,001,2024_Jan_10_1110,ANT,2021.2.3,60.11468681900617,
1,2,no,up,C,R,,,,,,Block.xlsx,"你已经完成了第一个实验区组

请稍作休息


点击空格键进入下一个区组。",50,0,1.5,right,RRRRR.png,,,,,0,0,0,0,3,9,81,1,,,,,,,,,,,,,,,,,,,,,,,,,,,,,,,,,,,,,,,,,,,,,,,,,,,,,,,,,,,,,,,,216.01600379985757,216.41775509994477,216.39996569999494,216.5004614999052,216.90246140002273,None,right,1,0.4287270000204444,216.90246140002273,None,216.39996569999494,216.5004614999052,216.5004614999052,None,217.3510775999166,None,,,,,,,11027,001,2024_Jan_10_1110,ANT,2021.2.3,60.11468681900617,
1,16,center,down,IC,R,,,,,,Block.xlsx,"你已经完成了第一个实验区组

请稍作休息


点击空格键进入下一个区组。",0,50,-1.5,right,LLRLL.png,,,,,0,0,0,0,3,10,82,15,,,,,,,,,,,,,,,,,,,,,,,,,,,,,,,,,,,,,,,,,,,,,,,,,,,,,,,,,,,,,,,,217.75203770003282,218.1545298998244,218.1364143998362,218.23668730002828,218.63717300002463,None,right,1,0.5653995000757277,218.63717300002463,None,218.1364143998362,218.23668730002828,218.23668730002828,None,219.22074049990624,None,,,,,,,11027,001,2024_Jan_10_1110,ANT,2021.2.3,60.11468681900617,
1,20,spatial,up,IC,R,,,,,,Block.xlsx,"你已经完成了第一个实验区组

请稍作休息


点击空格键进入下一个区组。",1.5,0,1.5,right,LLRLL.png,,,,,0,0,0,0,3,11,83,19,,,,,,,,,,,,,,,,,,,,,,,,,,,,,,,,,,,,,,,,,,,,,,,,,,,,,,,,,,,,,,,,219.62125599989668,220.02358449995518,220.00522169983014,220.10678619984537,220.5074395998381,None,right,1,0.36783870006911457,220.5074395998381,None,220.00522169983014,220.10678619984537,220.10678619984537,None,220.89009889983572,None,,,,,,,11027,001,2024_Jan_10_1110,ANT,2021.2.3,60.11468681900617,
1,14,center,down,C,R,,,,,,Block.xlsx,"你已经完成了第一个实验区组

请稍作休息


点击空格键进入下一个区组。",0,50,-1.5,right,RRRRR.png,,,,,0,0,0,0,3,12,84,13,,,,,,,,,,,,,,,,,,,,,,,,,,,,,,,,,,,,,,,,,,,,,,,,,,,,,,,,,,,,,,,,221.2909909998998,221.6910566999577,221.67462880001403,221.7748391998466,222.17504150001332,None,right,1,0.43538519996218383,222.17504150001332,None,221.67462880001403,221.7748391998466,221.7748391998466,None,222.62573440000415,None,,,,,,,11027,001,2024_Jan_10_1110,ANT,2021.2.3,60.11468681900617,
1,13,center,down,C,L,,,,,,Block.xlsx,"你已经完成了第一个实验区组

请稍作休息


点击空格键进入下一个区组。",0,50,-1.5,left,LLLLL.png,,,,,0,0,0,0,3,13,85,12,,,,,,,,,,,,,,,,,,,,,,,,,,,,,,,,,,,,,,,,,,,,,,,,,,,,,,,,,,,,,,,,223.02623149985448,223.42811329988763,223.41122299991548,223.51041590003297,223.91344969999045,None,left,1,0.8177441000007093,223.91344969999045,None,223.41122299991548,223.51041590003297,223.51041590003297,None,224.74557040003128,None,,,,,,,11027,001,2024_Jan_10_1110,ANT,2021.2.3,60.11468681900617,
1,22,spatial,down,C,R,,,,,,Block.xlsx,"你已经完成了第一个实验区组

请稍作休息


点击空格键进入下一个区组。",-1.5,0,-1.5,right,RRRRR.png,,,,,0,0,0,0,3,14,86,21,,,,,,,,,,,,,,,,,,,,,,,,,,,,,,,,,,,,,,,,,,,,,,,,,,,,,,,,,,,,,,,,225.14620639989153,225.547267699847,225.53104229993187,225.63109069992788,226.03162989998236,None,right,1,0.4032658999785781,226.03162989998236,None,225.53104229993187,225.63109069992788,225.63109069992788,None,226.46546399989165,None,,,,,,,11027,001,2024_Jan_10_1110,ANT,2021.2.3,60.11468681900617,
1,23,spatial,down,IC,L,,,,,,Block.xlsx,"你已经完成了第一个实验区组

请稍作休息


点击空格键进入下一个区组。",-1.5,0,-1.5,left,RRLRR.png,,,,,0,0,0,0,3,15,87,22,,,,,,,,,,,,,,,,,,,,,,,,,,,,,,,,,,,,,,,,,,,,,,,,,,,,,,,,,,,,,,,,226.86529119987972,227.26594670000486,227.25031609996222,227.3500504998956,227.7501316999551,None,left,1,0.38834149995818734,227.7501316999551,None,227.25031609996222,227.3500504998956,227.3500504998956,None,228.1675383998081,None,,,,,,,11027,001,2024_Jan_10_1110,ANT,2021.2.3,60.11468681900617,
1,12,center,up,IC,R,,,,,,Block.xlsx,"你已经完成了第一个实验区组

请稍作休息


点击空格键进入下一个区组。",0,50,1.5,right,LLRLL.png,,,,,0,0,0,0,3,16,88,11,,,,,,,,,,,,,,,,,,,,,,,,,,,,,,,,,,,,,,,,,,,,,,,,,,,,,,,,,,,,,,,,228.56785180000588,228.96888519986533,228.9517404998187,229.05288969981484,229.45319469994865,None,right,1,0.4612341998144984,229.45319469994865,None,228.9517404998187,229.05288969981484,229.05288969981484,None,229.93663909984753,None,,,,,,,11027,001,2024_Jan_10_1110,ANT,2021.2.3,60.11468681900617,
1,4,no,up,IC,R,,,,,,Block.xlsx,"你已经完成了第一个实验区组

请稍作休息


点击空格键进入下一个区组。",50,0,1.5,right,LLRLL.png,,,,,0,0,0,0,3,17,89,3,,,,,,,,,,,,,,,,,,,,,,,,,,,,,,,,,,,,,,,,,,,,,,,,,,,,,,,,,,,,,,,,230.33722169999965,230.73801079997793,230.72176869981922,230.82221739995293,231.22201339993626,None,right,1,0.4690415000077337,231.22201339993626,None,230.72176869981922,230.82221739995293,230.82221739995293,None,231.7058244999498,None,,,,,,,11027,001,2024_Jan_10_1110,ANT,2021.2.3,60.11468681900617,
1,3,no,up,IC,L,,,,,,Block.xlsx,"你已经完成了第一个实验区组

请稍作休息


点击空格键进入下一个区组。",50,0,1.5,left,RRLRR.png,,,,,0,0,0,0,3,18,90,2,,,,,,,,,,,,,,,,,,,,,,,,,,,,,,,,,,,,,,,,,,,,,,,,,,,,,,,,,,,,,,,,232.10650589992292,232.50769390002824,232.49092060001567,232.59204120002687,232.99245659983717,None,left,1,0.41016430011950433,232.99245659983717,None,232.49092060001567,232.59204120002687,232.59204120002687,None,233.42513809981756,None,,,,,,,11027,001,2024_Jan_10_1110,ANT,2021.2.3,60.11468681900617,
1,12,center,up,IC,R,,,,,,Block.xlsx,"你已经完成了第一个实验区组

请稍作休息


点击空格键进入下一个区组。",0,50,1.5,right,LLRLL.png,,,,,0,0,0,0,3,19,91,11,,,,,,,,,,,,,,,,,,,,,,,,,,,,,,,,,,,,,,,,,,,,,,,,,,,,,,,,,,,,,,,,233.825637599919,234.22680850001052,234.21020199987106,234.31094999983907,234.71091949986294,None,right,1,0.41944519989192486,234.71091949986294,None,234.21020199987106,234.31094999983907,234.31094999983907,None,235.16097959992476,None,,,,,,,11027,001,2024_Jan_10_1110,ANT,2021.2.3,60.11468681900617,
1,14,center,down,C,R,,,,,,Block.xlsx,"你已经完成了第一个实验区组

请稍作休息


点击空格键进入下一个区组。",0,50,-1.5,right,RRRRR.png,,,,,0,0,0,0,3,20,92,13,,,,,,,,,,,,,,,,,,,,,,,,,,,,,,,,,,,,,,,,,,,,,,,,,,,,,,,,,,,,,,,,235.56179689988494,235.96255389996804,235.94665029994212,236.04764489992522,236.4467142999638,None,right,1,0.44417420006357133,236.4467142999638,None,235.94665029994212,236.04764489992522,236.04764489992522,None,236.91364159993827,None,,,,,,,11027,001,2024_Jan_10_1110,ANT,2021.2.3,60.11468681900617,
1,24,spatial,down,IC,R,,,,,,Block.xlsx,"你已经完成了第一个实验区组

请稍作休息


点击空格键进入下一个区组。",-1.5,0,-1.5,right,LLRLL.png,,,,,0,0,0,0,3,21,93,23,,,,,,,,,,,,,,,,,,,,,,,,,,,,,,,,,,,,,,,,,,,,,,,,,,,,,,,,,,,,,,,,237.31419029994868,237.7164490998257,237.69836669997312,237.7988809000235,238.19882679986767,None,right,1,0.4755808999761939,238.19882679986767,None,237.69836669997312,237.7988809000235,237.7988809000235,None,238.6993239999283,None,,,,,,,11027,001,2024_Jan_10_1110,ANT,2021.2.3,60.11468681900617,
1,17,spatial,up,C,L,,,,,,Block.xlsx,"你已经完成了第一个实验区组

请稍作休息


点击空格键进入下一个区组。",1.5,0,1.5,left,LLLLL.png,,,,,0,0,0,0,3,22,94,16,,,,,,,,,,,,,,,,,,,,,,,,,,,,,,,,,,,,,,,,,,,,,,,,,,,,,,,,,,,,,,,,239.10048839985393,239.50181759987026,239.48413549992256,239.58645639987662,239.98516929987818,None,left,1,0.4412179999053478,239.98516929987818,None,239.48413549992256,239.58645639987662,239.58645639987662,None,240.45194299984723,None,,,,,,,11027,001,2024_Jan_10_1110,ANT,2021.2.3,60.11468681900617,
1,7,no,down,IC,L,,,,,,Block.xlsx,"你已经完成了第一个实验区组

请稍作休息


点击空格键进入下一个区组。",50,0,-1.5,left,RRLRR.png,,,,,0,0,0,0,3,23,95,6,,,,,,,,,,,,,,,,,,,,,,,,,,,,,,,,,,,,,,,,,,,,,,,,,,,,,,,,,,,,,,,,240.85282549983822,241.2537227999419,241.23774069990031,241.33680179994553,241.7379577998072,None,left,1,0.5764588001184165,241.7379577998072,None,241.23774069990031,241.33680179994553,241.33680179994553,None,242.33841959992424,None,,,,,,,11027,001,2024_Jan_10_1110,ANT,2021.2.3,60.11468681900617,
,,,,,,,,,,,Block.xlsx,"你已经完成了第一个实验区组

请稍作休息


点击空格键进入下一个区组。",,,,,,,,,,0,0,0,0,,,,,,,,,,,,,,,,,,,,,,,,,,,,,,,,,,,,,,,,,,,,,,,,,,,,,,,,,,,,,,,,,,,,,,,,,,,,,,,,,,,,,space,35.982845100108534,242.75621579983272,None,242.75621579983272,None,11027,001,2024_Jan_10_1110,ANT,2021.2.3,60.11468681900617,
1,17,spatial,up,C,L,,,,,,Block.xlsx,"你已经完成了整个实验（三个区组）。

请报告实验者已完成实验

非常感谢，再见！",1.5,0,1.5,left,LLLLL.png,,,,,0,1,1,1,0,0,0,16,,,,,,,,,,,,,,,,,,,,,,,,,,,,,,,,,,,,,,,,,,,,,,,,,,,,,,,,,,,,,,,,278.77542930003256,279.1760885999538,279.1609777000267,279.26166999991983,279.6610691999085,None,left,1,0.4297616998665035,279.6610691999085,None,279.1609777000267,279.26166999991983,279.26166999991983,None,280.11112829996273,None,,,,,,,11027,001,2024_Jan_10_1110,ANT,2021.2.3,60.11468681900617,
1,24,spatial,down,IC,R,,,,,,Block.xlsx,"你已经完成了整个实验（三个区组）。

请报告实验者已完成实验

非常感谢，再见！",-1.5,0,-1.5,right,LLRLL.png,,,,,0,1,1,1,0,1,1,23,,,,,,,,,,,,,,,,,,,,,,,,,,,,,,,,,,,,,,,,,,,,,,,,,,,,,,,,,,,,,,,,280.5116237998009,280.9126797998324,280.8959978998173,280.9959813999012,281.39733209996484,None,right,1,0.4053970999084413,281.39733209996484,None,280.8959978998173,280.9959813999012,280.9959813999012,None,281.8306399998255,None,,,,,,,11027,001,2024_Jan_10_1110,ANT,2021.2.3,60.11468681900617,
1,18,spatial,up,C,R,,,,,,Block.xlsx,"你已经完成了整个实验（三个区组）。

请报告实验者已完成实验

非常感谢，再见！",1.5,0,1.5,right,RRRRR.png,,,,,0,1,1,1,0,2,2,17,,,,,,,,,,,,,,,,,,,,,,,,,,,,,,,,,,,,,,,,,,,,,,,,,,,,,,,,,,,,,,,,282.23084139986895,282.63222599984147,282.61479439982213,282.71481899986975,283.1154451998882,None,right,1,0.4233752000145614,283.1154451998882,None,282.61479439982213,282.71481899986975,282.71481899986975,None,283.5660716998391,None,,,,,,,11027,001,2024_Jan_10_1110,ANT,2021.2.3,60.11468681900617,
1,13,center,down,C,L,,,,,,Block.xlsx,"你已经完成了整个实验（三个区组）。

请报告实验者已完成实验

非常感谢，再见！",0,50,-1.5,left,LLLLL.png,,,,,0,1,1,1,0,3,3,12,,,,,,,,,,,,,,,,,,,,,,,,,,,,,,,,,,,,,,,,,,,,,,,,,,,,,,,,,,,,,,,,283.9666642998345,284.3676191000268,284.3512577000074,284.45115049998276,284.8516068998724,None,left,1,0.3748308999929577,284.8516068998724,None,284.3512577000074,284.45115049998276,284.45115049998276,None,285.25197759992443,None,,,,,,,11027,001,2024_Jan_10_1110,ANT,2021.2.3,60.11468681900617,
1,21,spatial,down,C,L,,,,,,Block.xlsx,"你已经完成了整个实验（三个区组）。

请报告实验者已完成实验

非常感谢，再见！",-1.5,0,-1.5,left,LLLLL.png,,,,,0,1,1,1,0,4,4,20,,,,,,,,,,,,,,,,,,,,,,,,,,,,,,,,,,,,,,,,,,,,,,,,,,,,,,,,,,,,,,,,285.6525910999626,286.0550581999123,286.0364039000124,286.1380592000205,286.5382953998633,None,left,1,0.3522115000523627,286.5382953998633,None,286.0364039000124,286.1380592000205,286.1380592000205,None,286.92114549991675,None,,,,,,,11027,001,2024_Jan_10_1110,ANT,2021.2.3,60.11468681900617,
1,16,center,down,IC,R,,,,,,Block.xlsx,"你已经完成了整个实验（三个区组）。

请报告实验者已完成实验

非常感谢，再见！",0,50,-1.5,right,LLRLL.png,,,,,0,1,1,1,0,5,5,15,,,,,,,,,,,,,,,,,,,,,,,,,,,,,,,,,,,,,,,,,,,,,,,,,,,,,,,,,,,,,,,,287.32173589989543,287.7244569999166,287.7055235998705,287.8064123999793,288.20673259999603,None,right,1,0.7006081999279559,288.20673259999603,None,287.7055235998705,287.8064123999793,287.8064123999793,None,288.9241940998472,None,,,,,,,11027,001,2024_Jan_10_1110,ANT,2021.2.3,60.11468681900617,
1,12,center,up,IC,R,,,,,,Block.xlsx,"你已经完成了整个实验（三个区组）。

请报告实验者已完成实验

非常感谢，再见！",0,50,1.5,right,LLRLL.png,,,,,0,1,1,1,0,6,6,11,,,,,,,,,,,,,,,,,,,,,,,,,,,,,,,,,,,,,,,,,,,,,,,,,,,,,,,,,,,,,,,,289.32468989980407,289.7252861999441,289.7092591000255,289.81026229984127,290.2118002998177,None,right,1,0.5107216001488268,290.2118002998177,None,289.7092591000255,289.81026229984127,289.81026229984127,None,290.7433943999931,None,,,,,,,11027,001,2024_Jan_10_1110,ANT,2021.2.3,60.11468681900617,
1,15,center,down,IC,L,,,,,,Block.xlsx,"你已经完成了整个实验（三个区组）。

请报告实验者已完成实验

非常感谢，再见！",0,50,-1.5,left,RRLRR.png,,,,,0,1,1,1,0,7,7,14,,,,,,,,,,,,,,,,,,,,,,,,,,,,,,,,,,,,,,,,,,,,,,,,,,,,,,,,,,,,,,,,291.14456779998727,291.54601769987494,291.52839089999907,291.6292416998185,292.030299999984,None,left,1,0.46082319994457066,292.030299999984,None,291.52839089999907,291.6292416998185,291.6292416998185,None,292.51270279986784,None,,,,,,,11027,001,2024_Jan_10_1110,ANT,2021.2.3,60.11468681900617,
1,17,spatial,up,C,L,,,,,,Block.xlsx,"你已经完成了整个实验（三个区组）。

请报告实验者已完成实验

非常感谢，再见！",1.5,0,1.5,left,LLLLL.png,,,,,0,1,1,1,0,8,8,16,,,,,,,,,,,,,,,,,,,,,,,,,,,,,,,,,,,,,,,,,,,,,,,,,,,,,,,,,,,,,,,,292.913105599815,293.31469329982065,293.2972029999364,293.3990364000201,293.7980462999549,None,left,1,0.4043030000757426,293.7980462999549,None,293.2972029999364,293.3990364000201,293.3990364000201,None,294.23195579997264,None,,,,,,,11027,001,2024_Jan_10_1110,ANT,2021.2.3,60.11468681900617,
1,21,spatial,down,C,L,,,,,,Block.xlsx,"你已经完成了整个实验（三个区组）。

请报告实验者已完成实验

非常感谢，再见！",-1.5,0,-1.5,left,LLLLL.png,,,,,0,1,1,1,0,9,9,20,,,,,,,,,,,,,,,,,,,,,,,,,,,,,,,,,,,,,,,,,,,,,,,,,,,,,,,,,,,,,,,,294.6328894000035,295.03384169982746,295.0163149998989,295.11774489982054,295.518577999901,None,left,1,0.4442467000335455,295.518577999901,None,295.0163149998989,295.11774489982054,295.11774489982054,None,295.9844802999869,None,,,,,,,11027,001,2024_Jan_10_1110,ANT,2021.2.3,60.11468681900617,
1,8,no,down,IC,R,,,,,,Block.xlsx,"你已经完成了整个实验（三个区组）。

请报告实验者已完成实验

非常感谢，再见！",50,0,-1.5,right,LLRLL.png,,,,,0,1,1,1,0,10,10,7,,,,,,,,,,,,,,,,,,,,,,,,,,,,,,,,,,,,,,,,,,,,,,,,,,,,,,,,,,,,,,,,296.3851305998396,296.7866746999789,296.76925250003114,296.87085139984265,297.26982529996894,None,right,1,0.5728607999626547,297.26982529996894,None,296.76925250003114,296.87085139984265,296.87085139984265,None,297.8706080999691,None,,,,,,,11027,001,2024_Jan_10_1110,ANT,2021.2.3,60.11468681900617,
1,4,no,up,IC,R,,,,,,Block.xlsx,"你已经完成了整个实验（三个区组）。

请报告实验者已完成实验

非常感谢，再见！",50,0,1.5,right,LLRLL.png,,,,,0,1,1,1,0,11,11,3,,,,,,,,,,,,,,,,,,,,,,,,,,,,,,,,,,,,,,,,,,,,,,,,,,,,,,,,,,,,,,,,298.27128709992394,298.6735033998266,298.655183600029,298.75592859997414,299.1564325999934,None,right,1,0.5422040999401361,299.1564325999934,None,298.655183600029,298.75592859997414,298.75592859997414,None,299.72325269994326,None,,,,,,,11027,001,2024_Jan_10_1110,ANT,2021.2.3,60.11468681900617,
1,8,no,down,IC,R,,,,,,Block.xlsx,"你已经完成了整个实验（三个区组）。

请报告实验者已完成实验

非常感谢，再见！",50,0,-1.5,right,LLRLL.png,,,,,0,1,1,1,0,12,12,7,,,,,,,,,,,,,,,,,,,,,,,,,,,,,,,,,,,,,,,,,,,,,,,,,,,,,,,,,,,,,,,,300.1239936000202,300.5251556998119,300.50965209980495,300.6078989999369,301.0088295999449,None,left,0,0.34596610022708774,301.0088295999449,None,300.50965209980495,300.6078989999369,300.6078989999369,None,301.3756140000187,None,,,,,,,11027,001,2024_Jan_10_1110,ANT,2021.2.3,60.11468681900617,
1,20,spatial,up,IC,R,,,,,,Block.xlsx,"你已经完成了整个实验（三个区组）。

请报告实验者已完成实验

非常感谢，再见！",1.5,0,1.5,right,LLRLL.png,,,,,0,1,1,1,0,13,13,19,,,,,,,,,,,,,,,,,,,,,,,,,,,,,,,,,,,,,,,,,,,,,,,,,,,,,,,,,,,,,,,,301.7766986999195,302.17918540001847,302.16108819982037,302.26047019986436,302.66177699994296,None,right,1,0.3726572999730706,302.66177699994296,None,302.16108819982037,302.26047019986436,302.26047019986436,None,303.06186459981836,None,,,,,,,11027,001,2024_Jan_10_1110,ANT,2021.2.3,60.11468681900617,
1,3,no,up,IC,L,,,,,,Block.xlsx,"你已经完成了整个实验（三个区组）。

请报告实验者已完成实验

非常感谢，再见！",50,0,1.5,left,RRLRR.png,,,,,0,1,1,1,0,14,14,2,,,,,,,,,,,,,,,,,,,,,,,,,,,,,,,,,,,,,,,,,,,,,,,,,,,,,,,,,,,,,,,,303.46219989983365,303.86290730000474,303.8467834999319,303.9476637998596,304.34716250002384,None,left,1,0.4161322000436485,304.34716250002384,None,303.8467834999319,303.9476637998596,303.9476637998596,None,304.78087519994006,None,,,,,,,11027,001,2024_Jan_10_1110,ANT,2021.2.3,60.11468681900617,
1,6,no,down,C,R,,,,,,Block.xlsx,"你已经完成了整个实验（三个区组）。

请报告实验者已完成实验

非常感谢，再见！",50,0,-1.5,right,RRRRR.png,,,,,0,1,1,1,0,15,15,5,,,,,,,,,,,,,,,,,,,,,,,,,,,,,,,,,,,,,,,,,,,,,,,,,,,,,,,,,,,,,,,,305.18147429986857,305.58221809985116,305.56515519996174,305.6661245999858,306.0667657998856,None,right,1,0.42370779998600483,306.0667657998856,None,305.56515519996174,305.6661245999858,305.6661245999858,None,306.5169643999543,None,,,,,,,11027,001,2024_Jan_10_1110,ANT,2021.2.3,60.11468681900617,
1,4,no,up,IC,R,,,,,,Block.xlsx,"你已经完成了整个实验（三个区组）。

请报告实验者已完成实验

非常感谢，再见！",50,0,1.5,right,LLRLL.png,,,,,0,1,1,1,0,16,16,3,,,,,,,,,,,,,,,,,,,,,,,,,,,,,,,,,,,,,,,,,,,,,,,,,,,,,,,,,,,,,,,,306.9175626998767,307.3180271999445,307.3018455998972,307.40242249984294,307.8035577000119,None,right,1,0.49548209994100034,307.8035577000119,None,307.3018455998972,307.40242249984294,307.40242249984294,None,308.3193745999597,None,,,,,,,11027,001,2024_Jan_10_1110,ANT,2021.2.3,60.11468681900617,
1,18,spatial,up,C,R,,,,,,Block.xlsx,"你已经完成了整个实验（三个区组）。

请报告实验者已完成实验

非常感谢，再见！",1.5,0,1.5,right,RRRRR.png,,,,,0,1,1,1,0,17,17,17,,,,,,,,,,,,,,,,,,,,,,,,,,,,,,,,,,,,,,,,,,,,,,,,,,,,,,,,,,,,,,,,308.7209246000275,309.12080849986523,309.1054541999474,309.2041455998551,309.6057078000158,None,right,1,0.3729753999505192,309.6057078000158,None,309.1054541999474,309.2041455998551,309.2041455998551,None,310.00572649994865,None,,,,,,,11027,001,2024_Jan_10_1110,ANT,2021.2.3,60.11468681900617,
1,5,no,down,C,L,,,,,,Block.xlsx,"你已经完成了整个实验（三个区组）。

请报告实验者已完成实验

非常感谢，再见！",50,0,-1.5,left,LLLLL.png,,,,,0,1,1,1,0,18,18,4,,,,,,,,,,,,,,,,,,,,,,,,,,,,,,,,,,,,,,,,,,,,,,,,,,,,,,,,,,,,,,,,310.4060390999075,310.806956499815,310.791126600001,310.89048049994744,311.2909713999834,None,left,1,0.46401720005087554,311.2909713999834,None,310.791126600001,310.89048049994744,310.89048049994744,None,311.775440499885,None,,,,,,,11027,001,2024_Jan_10_1110,ANT,2021.2.3,60.11468681900617,
1,14,center,down,C,R,,,,,,Block.xlsx,"你已经完成了整个实验（三个区组）。

请报告实验者已完成实验

非常感谢，再见！",0,50,-1.5,right,RRRRR.png,,,,,0,1,1,1,0,19,19,13,,,,,,,,,,,,,,,,,,,,,,,,,,,,,,,,,,,,,,,,,,,,,,,,,,,,,,,,,,,,,,,,312.1755790999159,312.575719299959,312.5596066999715,312.66010460001417,313.0625799000263,None,right,1,0.3968678000383079,313.0625799000263,None,312.5596066999715,312.66010460001417,312.66010460001417,None,313.4769005998969,None,,,,,,,11027,001,2024_Jan_10_1110,ANT,2021.2.3,60.11468681900617,
1,19,spatial,up,IC,L,,,,,,Block.xlsx,"你已经完成了整个实验（三个区组）。

请报告实验者已完成实验

非常感谢，再见！",1.5,0,1.5,left,RRLRR.png,,,,,0,1,1,1,0,20,20,18,,,,,,,,,,,,,,,,,,,,,,,,,,,,,,,,,,,,,,,,,,,,,,,,,,,,,,,,,,,,,,,,313.87772889994085,314.2789725000039,314.2613909000065,314.36194640002213,314.76325959991664,None,left,1,0.45525740017183125,314.76325959991664,None,314.2613909000065,314.36194640002213,314.36194640002213,None,315.2464146998245,None,,,,,,,11027,001,2024_Jan_10_1110,ANT,2021.2.3,60.11468681900617,
1,8,no,down,IC,R,,,,,,Block.xlsx,"你已经完成了整个实验（三个区组）。

请报告实验者已完成实验

非常感谢，再见！",50,0,-1.5,right,LLRLL.png,,,,,0,1,1,1,0,21,21,7,,,,,,,,,,,,,,,,,,,,,,,,,,,,,,,,,,,,,,,,,,,,,,,,,,,,,,,,,,,,,,,,315.64728049980476,316.04748209984973,316.0327637998853,316.1483475000132,316.5319520998746,None,right,1,0.4467622002121061,316.5319520998746,None,316.0327637998853,316.1483475000132,316.1328306000214,None,316.9989430999849,None,,,,,,,11027,001,2024_Jan_10_1110,ANT,2021.2.3,60.11468681900617,
1,19,spatial,up,IC,L,,,,,,Block.xlsx,"你已经完成了整个实验（三个区组）。

请报告实验者已完成实验

非常感谢，再见！",1.5,0,1.5,left,RRLRR.png,,,,,0,1,1,1,0,22,22,18,,,,,,,,,,,,,,,,,,,,,,,,,,,,,,,,,,,,,,,,,,,,,,,,,,,,,,,,,,,,,,,,317.39961299998686,317.80016199988313,317.7858096000273,317.9002298999112,318.2856754998211,None,left,1,0.4048917000181973,318.2856754998211,None,317.7858096000273,317.9002298999112,317.88471010001376,None,318.718229399994,None,,,,,,,11027,001,2024_Jan_10_1110,ANT,2021.2.3,60.11468681900617,
1,20,spatial,up,IC,R,,,,,,Block.xlsx,"你已经完成了整个实验（三个区组）。

请报告实验者已完成实验

非常感谢，再见！",1.5,0,1.5,right,LLRLL.png,,,,,0,1,1,1,0,23,23,19,,,,,,,,,,,,,,,,,,,,,,,,,,,,,,,,,,,,,,,,,,,,,,,,,,,,,,,,,,,,,,,,319.11881909985095,319.51993599999696,319.50286399992183,319.6039199999068,320.00386779988185,None,right,1,0.35076189995743334,320.00386779988185,None,319.50286399992183,319.6039199999068,319.6039199999068,None,320.37057769997045,None,,,,,,,11027,001,2024_Jan_10_1110,ANT,2021.2.3,60.11468681900617,
1,18,spatial,up,C,R,,,,,,Block.xlsx,"你已经完成了整个实验（三个区组）。

请报告实验者已完成实验

非常感谢，再见！",1.5,0,1.5,right,RRRRR.png,,,,,0,1,1,1,1,0,24,17,,,,,,,,,,,,,,,,,,,,,,,,,,,,,,,,,,,,,,,,,,,,,,,,,,,,,,,,,,,,,,,,320.7717020998243,321.1719957999885,321.15609519998543,321.25753790000454,321.65645709983073,None,right,1,0.3382337000221014,321.65645709983073,None,321.15609519998543,321.25753790000454,321.25753790000454,None,322.02323649986647,None,,,,,,,11027,001,2024_Jan_10_1110,ANT,2021.2.3,60.11468681900617,
1,1,no,up,C,L,,,,,,Block.xlsx,"你已经完成了整个实验（三个区组）。

请报告实验者已完成实验

非常感谢，再见！",50,0,1.5,left,LLLLL.png,,,,,0,1,1,1,1,1,25,0,,,,,,,,,,,,,,,,,,,,,,,,,,,,,,,,,,,,,,,,,,,,,,,,,,,,,,,,,,,,,,,,322.42371909995563,322.8254376000259,322.8080897999462,322.90907329996116,323.3091372998897,None,left,1,0.3733703000470996,323.3091372998897,None,322.8080897999462,322.90907329996116,322.90907329996116,None,323.7089739998337,None,,,,,,,11027,001,2024_Jan_10_1110,ANT,2021.2.3,60.11468681900617,
1,9,center,up,C,L,,,,,,Block.xlsx,"你已经完成了整个实验（三个区组）。

请报告实验者已完成实验

非常感谢，再见！",0,50,1.5,left,LLLLL.png,,,,,0,1,1,1,1,2,26,8,,,,,,,,,,,,,,,,,,,,,,,,,,,,,,,,,,,,,,,,,,,,,,,,,,,,,,,,,,,,,,,,324.1094972998835,324.5102809998207,324.494065299863,324.59451049985364,324.99402479990385,None,left,1,0.3364875998813659,324.99402479990385,None,324.494065299863,324.59451049985364,324.59451049985364,None,325.3613024998922,None,,,,,,,11027,001,2024_Jan_10_1110,ANT,2021.2.3,60.11468681900617,
1,2,no,up,C,R,,,,,,Block.xlsx,"你已经完成了整个实验（三个区组）。

请报告实验者已完成实验

非常感谢，再见！",50,0,1.5,right,RRRRR.png,,,,,0,1,1,1,1,3,27,1,,,,,,,,,,,,,,,,,,,,,,,,,,,,,,,,,,,,,,,,,,,,,,,,,,,,,,,,,,,,,,,,325.7632303999271,326.16352549986914,326.14580839988776,326.24749169987626,326.6465503999498,None,right,1,0.3240304000210017,326.6465503999498,None,326.14580839988776,326.24749169987626,326.24749169987626,None,326.99715339997783,None,,,,,,,11027,001,2024_Jan_10_1110,ANT,2021.2.3,60.11468681900617,
1,19,spatial,up,IC,L,,,,,,Block.xlsx,"你已经完成了整个实验（三个区组）。

请报告实验者已完成实验

非常感谢，再见！",1.5,0,1.5,left,RRLRR.png,,,,,0,1,1,1,1,4,28,18,,,,,,,,,,,,,,,,,,,,,,,,,,,,,,,,,,,,,,,,,,,,,,,,,,,,,,,,,,,,,,,,327.39768929989077,327.7982367000077,327.7830080999993,327.8818295998499,328.2835962998215,None,left,1,0.3833058997988701,328.2835962998215,None,327.7830080999993,327.8818295998499,327.8818295998499,None,328.68271389999427,None,,,,,,,11027,001,2024_Jan_10_1110,ANT,2021.2.3,60.11468681900617,
1,9,center,up,C,L,,,,,,Block.xlsx,"你已经完成了整个实验（三个区组）。

请报告实验者已完成实验

非常感谢，再见！",0,50,1.5,left,LLLLL.png,,,,,0,1,1,1,1,5,29,8,,,,,,,,,,,,,,,,,,,,,,,,,,,,,,,,,,,,,,,,,,,,,,,,,,,,,,,,,,,,,,,,329.0844713000115,329.4840512999799,329.46874489984475,329.56851699994877,329.9700807000045,None,left,1,0.5294743000995368,329.9700807000045,None,329.46874489984475,329.56851699994877,329.56851699994877,None,330.51870909985155,None,,,,,,,11027,001,2024_Jan_10_1110,ANT,2021.2.3,60.11468681900617,
1,7,no,down,IC,L,,,,,,Block.xlsx,"你已经完成了整个实验（三个区组）。

请报告实验者已完成实验

非常感谢，再见！",50,0,-1.5,left,RRLRR.png,,,,,0,1,1,1,1,6,30,6,,,,,,,,,,,,,,,,,,,,,,,,,,,,,,,,,,,,,,,,,,,,,,,,,,,,,,,,,,,,,,,,330.9194771000184,331.3210145998746,331.3050333999563,331.4216068999376,331.80497789988294,None,right,0,0.37360769999213517,331.80497789988294,None,331.3050333999563,331.4216068999376,331.4043878999073,None,332.2048537998926,None,,,,,,,11027,001,2024_Jan_10_1110,ANT,2021.2.3,60.11468681900617,
1,10,center,up,C,R,,,,,,Block.xlsx,"你已经完成了整个实验（三个区组）。

请报告实验者已完成实验

非常感谢，再见！",0,50,1.5,right,RRRRR.png,,,,,0,1,1,1,1,7,31,9,,,,,,,,,,,,,,,,,,,,,,,,,,,,,,,,,,,,,,,,,,,,,,,,,,,,,,,,,,,,,,,,332.6053718999028,333.0069291999098,332.9900255999528,333.0900079999119,333.4922585999593,None,right,1,0.3424327000975609,333.4922585999593,None,332.9900255999528,333.0900079999119,333.0900079999119,None,333.8573012999259,None,,,,,,,11027,001,2024_Jan_10_1110,ANT,2021.2.3,60.11468681900617,
1,2,no,up,C,R,,,,,,Block.xlsx,"你已经完成了整个实验（三个区组）。

请报告实验者已完成实验

非常感谢，再见！",50,0,1.5,right,RRRRR.png,,,,,0,1,1,1,1,8,32,1,,,,,,,,,,,,,,,,,,,,,,,,,,,,,,,,,,,,,,,,,,,,,,,,,,,,,,,,,,,,,,,,334.25859549990855,334.6585259998683,334.64207859989256,334.74260469991714,335.1439127998892,None,right,1,0.3869363002013415,335.1439127998892,None,334.64207859989256,334.74260469991714,334.74260469991714,None,335.5602199998684,None,,,,,,,11027,001,2024_Jan_10_1110,ANT,2021.2.3,60.11468681900617,
1,20,spatial,up,IC,R,,,,,,Block.xlsx,"你已经完成了整个实验（三个区组）。

请报告实验者已完成实验

非常感谢，再见！",1.5,0,1.5,right,LLRLL.png,,,,,0,1,1,1,1,9,33,19,,,,,,,,,,,,,,,,,,,,,,,,,,,,,,,,,,,,,,,,,,,,,,,,,,,,,,,,,,,,,,,,335.9608238998335,336.3612995999865,336.34541710000485,336.44443839997984,336.84735439997166,None,right,1,0.45119310007430613,336.84735439997166,None,336.34541710000485,336.44443839997984,336.44443839997984,None,337.3290301999077,None,,,,,,,11027,001,2024_Jan_10_1110,ANT,2021.2.3,60.11468681900617,
1,10,center,up,C,R,,,,,,Block.xlsx,"你已经完成了整个实验（三个区组）。

请报告实验者已完成实验

非常感谢，再见！",0,50,1.5,right,RRRRR.png,,,,,0,1,1,1,1,10,34,9,,,,,,,,,,,,,,,,,,,,,,,,,,,,,,,,,,,,,,,,,,,,,,,,,,,,,,,,,,,,,,,,337.7298412998207,338.13201859989204,338.11379049997777,338.215125199873,338.61432349984534,None,right,1,0.34861389989964664,338.61432349984534,None,338.11379049997777,338.215125199873,338.215125199873,None,338.9817066998221,None,,,,,,,11027,001,2024_Jan_10_1110,ANT,2021.2.3,60.11468681900617,
1,24,spatial,down,IC,R,,,,,,Block.xlsx,"你已经完成了整个实验（三个区组）。

请报告实验者已完成实验

非常感谢，再见！",-1.5,0,-1.5,right,LLRLL.png,,,,,0,1,1,1,1,11,35,23,,,,,,,,,,,,,,,,,,,,,,,,,,,,,,,,,,,,,,,,,,,,,,,,,,,,,,,,,,,,,,,,339.38340889988467,339.78269329993054,339.7660587998107,339.86762979999185,340.2672357999254,None,right,1,0.5996563001535833,340.2672357999254,None,339.7660587998107,339.86762979999185,339.86762979999185,None,340.8843039998319,None,,,,,,,11027,001,2024_Jan_10_1110,ANT,2021.2.3,60.11468681900617,
1,6,no,down,C,R,,,,,,Block.xlsx,"你已经完成了整个实验（三个区组）。

请报告实验者已完成实验

非常感谢，再见！",50,0,-1.5,right,RRRRR.png,,,,,0,1,1,1,1,12,36,5,,,,,,,,,,,,,,,,,,,,,,,,,,,,,,,,,,,,,,,,,,,,,,,,,,,,,,,,,,,,,,,,341.284996900009,341.68783689988777,341.668977299938,341.768909299979,342.17003469984047,None,right,1,0.37658990011550486,342.17003469984047,None,341.668977299938,341.768909299979,341.768909299979,None,342.5710399998352,None,,,,,,,11027,001,2024_Jan_10_1110,ANT,2021.2.3,60.11468681900617,
1,14,center,down,C,R,,,,,,Block.xlsx,"你已经完成了整个实验（三个区组）。

请报告实验者已完成实验

非常感谢，再见！",0,50,-1.5,right,RRRRR.png,,,,,0,1,1,1,1,13,37,13,,,,,,,,,,,,,,,,,,,,,,,,,,,,,,,,,,,,,,,,,,,,,,,,,,,,,,,,,,,,,,,,342.9708296000026,343.3732117000036,343.3549672998488,343.4554867998231,343.8564448999241,None,right,1,0.41809709998779,343.8564448999241,None,343.3549672998488,343.4554867998231,343.4554867998231,None,344.28921059984714,None,,,,,,,11027,001,2024_Jan_10_1110,ANT,2021.2.3,60.11468681900617,
1,19,spatial,up,IC,L,,,,,,Block.xlsx,"你已经完成了整个实验（三个区组）。

请报告实验者已完成实验

非常感谢，再见！",1.5,0,1.5,left,RRLRR.png,,,,,0,1,1,1,1,14,38,18,,,,,,,,,,,,,,,,,,,,,,,,,,,,,,,,,,,,,,,,,,,,,,,,,,,,,,,,,,,,,,,,344.6900170999579,345.09246289986186,345.074456699891,345.1745694000274,345.57459999993443,None,left,1,0.38006559992209077,345.57459999993443,None,345.074456699891,345.1745694000274,345.1745694000274,None,345.9752063998021,None,,,,,,,11027,001,2024_Jan_10_1110,ANT,2021.2.3,60.11468681900617,
1,5,no,down,C,L,,,,,,Block.xlsx,"你已经完成了整个实验（三个区组）。

请报告实验者已完成实验

非常感谢，再见！",50,0,-1.5,left,LLLLL.png,,,,,0,1,1,1,1,15,39,4,,,,,,,,,,,,,,,,,,,,,,,,,,,,,,,,,,,,,,,,,,,,,,,,,,,,,,,,,,,,,,,,346.3769904000219,346.77670249994844,346.76047439989634,346.86030439985916,347.2611233999487,None,left,1,0.39772259979508817,347.2611233999487,None,346.76047439989634,346.86030439985916,346.86030439985916,None,347.67772409995086,None,,,,,,,11027,001,2024_Jan_10_1110,ANT,2021.2.3,60.11468681900617,
1,14,center,down,C,R,,,,,,Block.xlsx,"你已经完成了整个实验（三个区组）。

请报告实验者已完成实验

非常感谢，再见！",0,50,-1.5,right,RRRRR.png,,,,,0,1,1,1,1,16,40,13,,,,,,,,,,,,,,,,,,,,,,,,,,,,,,,,,,,,,,,,,,,,,,,,,,,,,,,,,,,,,,,,348.0790664998349,348.4788978998549,348.46351059991866,348.5642977999523,348.9631866000127,None,right,1,0.46358329989016056,348.9631866000127,None,348.46351059991866,348.5642977999523,348.5642977999523,None,349.4475723998621,None,,,,,,,11027,001,2024_Jan_10_1110,ANT,2021.2.3,60.11468681900617,
1,13,center,down,C,L,,,,,,Block.xlsx,"你已经完成了整个实验（三个区组）。

请报告实验者已完成实验

非常感谢，再见！",0,50,-1.5,left,LLLLL.png,,,,,0,1,1,1,1,17,41,12,,,,,,,,,,,,,,,,,,,,,,,,,,,,,,,,,,,,,,,,,,,,,,,,,,,,,,,,,,,,,,,,349.84785509994254,350.2494103999343,350.23142379987985,350.33290939987637,350.7330846998375,None,left,1,0.46941729984246194,350.7330846998375,None,350.23142379987985,350.33290939987637,350.33290939987637,None,351.2330930000171,None,,,,,,,11027,001,2024_Jan_10_1110,ANT,2021.2.3,60.11468681900617,
1,1,no,up,C,L,,,,,,Block.xlsx,"你已经完成了整个实验（三个区组）。

请报告实验者已完成实验

非常感谢，再见！",50,0,1.5,left,LLLLL.png,,,,,0,1,1,1,1,18,42,0,,,,,,,,,,,,,,,,,,,,,,,,,,,,,,,,,,,,,,,,,,,,,,,,,,,,,,,,,,,,,,,,351.6337557998486,352.03563419985585,352.01776609988883,352.11866099992767,352.51820379984565,None,left,1,0.42888460005633533,352.51820379984565,None,352.01776609988883,352.11866099992767,352.11866099992767,None,352.968972499948,None,,,,,,,11027,001,2024_Jan_10_1110,ANT,2021.2.3,60.11468681900617,
1,3,no,up,IC,L,,,,,,Block.xlsx,"你已经完成了整个实验（三个区组）。

请报告实验者已完成实验

非常感谢，再见！",50,0,1.5,left,RRLRR.png,,,,,0,1,1,1,1,19,43,2,,,,,,,,,,,,,,,,,,,,,,,,,,,,,,,,,,,,,,,,,,,,,,,,,,,,,,,,,,,,,,,,353.36954619991593,353.77113049989566,353.7538838000037,353.8542690000031,354.2555850998033,None,left,1,0.40308420010842383,354.2555850998033,None,353.7538838000037,353.8542690000031,353.8542690000031,None,354.6884924999904,None,,,,,,,11027,001,2024_Jan_10_1110,ANT,2021.2.3,60.11468681900617,
1,4,no,up,IC,R,,,,,,Block.xlsx,"你已经完成了整个实验（三个区组）。

请报告实验者已完成实验

非常感谢，再见！",50,0,1.5,right,LLRLL.png,,,,,0,1,1,1,1,20,44,3,,,,,,,,,,,,,,,,,,,,,,,,,,,,,,,,,,,,,,,,,,,,,,,,,,,,,,,,,,,,,,,,355.08852919982746,355.4905188998673,355.4731295998208,355.57363440003246,355.9746026999783,None,right,1,0.4682249999605119,355.9746026999783,None,355.4731295998208,355.57363440003246,355.57363440003246,None,356.45736359991133,None,,,,,,,11027,001,2024_Jan_10_1110,ANT,2021.2.3,60.11468681900617,
1,5,no,down,C,L,,,,,,Block.xlsx,"你已经完成了整个实验（三个区组）。

请报告实验者已完成实验

非常感谢，再见！",50,0,-1.5,left,LLLLL.png,,,,,0,1,1,1,1,21,45,4,,,,,,,,,,,,,,,,,,,,,,,,,,,,,,,,,,,,,,,,,,,,,,,,,,,,,,,,,,,,,,,,356.8585637998767,357.2596837999299,357.2437835999299,357.342647299869,357.74298350000754,None,left,1,0.4114733999595046,357.74298350000754,None,357.2437835999299,357.342647299869,357.342647299869,None,358.17659189994447,None,,,,,,,11027,001,2024_Jan_10_1110,ANT,2021.2.3,60.11468681900617,
1,21,spatial,down,C,L,,,,,,Block.xlsx,"你已经完成了整个实验（三个区组）。

请报告实验者已完成实验

非常感谢，再见！",-1.5,0,-1.5,left,LLLLL.png,,,,,0,1,1,1,1,22,46,20,,,,,,,,,,,,,,,,,,,,,,,,,,,,,,,,,,,,,,,,,,,,,,,,,,,,,,,,,,,,,,,,358.5788457999006,358.9785422999412,358.9620723000262,359.0620929999277,359.4641684999224,None,left,1,0.4825371999759227,359.4641684999224,None,358.9620723000262,359.0620929999277,359.0620929999277,None,359.963267599931,None,,,,,,,11027,001,2024_Jan_10_1110,ANT,2021.2.3,60.11468681900617,
1,2,no,up,C,R,,,,,,Block.xlsx,"你已经完成了整个实验（三个区组）。

请报告实验者已完成实验

非常感谢，再见！",50,0,1.5,right,RRRRR.png,,,,,0,1,1,1,1,23,47,1,,,,,,,,,,,,,,,,,,,,,,,,,,,,,,,,,,,,,,,,,,,,,,,,,,,,,,,,,,,,,,,,360.3633854999207,360.7642186000012,360.7480736998841,360.84805869986303,361.24780869996175,None,right,1,0.4193229000084102,361.24780869996175,None,360.7480736998841,360.84805869986303,360.84805869986303,None,361.68216179986484,None,,,,,,,11027,001,2024_Jan_10_1110,ANT,2021.2.3,60.11468681900617,
1,1,no,up,C,L,,,,,,Block.xlsx,"你已经完成了整个实验（三个区组）。

请报告实验者已完成实验

非常感谢，再见！",50,0,1.5,left,LLLLL.png,,,,,0,1,1,1,2,0,48,0,,,,,,,,,,,,,,,,,,,,,,,,,,,,,,,,,,,,,,,,,,,,,,,,,,,,,,,,,,,,,,,,362.0826554999221,362.4832029999234,362.46837079990655,362.5840050999541,362.9695462998934,None,left,1,0.37751580006442964,362.9695462998934,None,362.46837079990655,362.5840050999541,362.5665807998739,None,363.3676728999708,None,,,,,,,11027,001,2024_Jan_10_1110,ANT,2021.2.3,60.11468681900617,
1,10,center,up,C,R,,,,,,Block.xlsx,"你已经完成了整个实验（三个区组）。

请报告实验者已完成实验

非常感谢，再见！",0,50,1.5,right,RRRRR.png,,,,,0,1,1,1,2,1,49,9,,,,,,,,,,,,,,,,,,,,,,,,,,,,,,,,,,,,,,,,,,,,,,,,,,,,,,,,,,,,,,,,363.7681987998076,364.17053260002285,364.1522038998082,364.25290769990534,364.65274669998325,None,right,1,0.4462601998820901,364.65274669998325,None,364.1522038998082,364.25290769990534,364.25290769990534,None,365.1202916998882,None,,,,,,,11027,001,2024_Jan_10_1110,ANT,2021.2.3,60.11468681900617,
1,14,center,down,C,R,,,,,,Block.xlsx,"你已经完成了整个实验（三个区组）。

请报告实验者已完成实验

非常感谢，再见！",0,50,-1.5,right,RRRRR.png,,,,,0,1,1,1,2,2,50,13,,,,,,,,,,,,,,,,,,,,,,,,,,,,,,,,,,,,,,,,,,,,,,,,,,,,,,,,,,,,,,,,365.52095039980486,365.92302410001867,365.90475879982114,366.0066253999248,366.40615409985185,None,right,1,0.4045335000846535,366.40615409985185,None,365.90475879982114,366.0066253999248,366.0066253999248,None,366.8392399000004,None,,,,,,,11027,001,2024_Jan_10_1110,ANT,2021.2.3,60.11468681900617,
1,9,center,up,C,L,,,,,,Block.xlsx,"你已经完成了整个实验（三个区组）。

请报告实验者已完成实验

非常感谢，再见！",0,50,1.5,left,LLLLL.png,,,,,0,1,1,1,2,3,51,8,,,,,,,,,,,,,,,,,,,,,,,,,,,,,,,,,,,,,,,,,,,,,,,,,,,,,,,,,,,,,,,,367.24009959981777,367.6406415000092,367.624020999996,367.7261959000025,368.12680369988084,None,left,1,0.3080007000826299,368.12680369988084,None,367.624020999996,367.7261959000025,367.7261959000025,None,368.45852290000767,None,,,,,,,11027,001,2024_Jan_10_1110,ANT,2021.2.3,60.11468681900617,
1,9,center,up,C,L,,,,,,Block.xlsx,"你已经完成了整个实验（三个区组）。

请报告实验者已完成实验

非常感谢，再见！",0,50,1.5,left,LLLLL.png,,,,,0,1,1,1,2,4,52,8,,,,,,,,,,,,,,,,,,,,,,,,,,,,,,,,,,,,,,,,,,,,,,,,,,,,,,,,,,,,,,,,368.8590466999449,369.26020139991306,369.2450755999889,369.34326779982075,369.744914899813,None,left,1,0.36993160005658865,369.744914899813,None,369.2450755999889,369.34326779982075,369.34326779982075,None,370.1443103000056,None,,,,,,,11027,001,2024_Jan_10_1110,ANT,2021.2.3,60.11468681900617,
1,24,spatial,down,IC,R,,,,,,Block.xlsx,"你已经完成了整个实验（三个区组）。

请报告实验者已完成实验

非常感谢，再见！",-1.5,0,-1.5,right,LLRLL.png,,,,,0,1,1,1,2,5,53,23,,,,,,,,,,,,,,,,,,,,,,,,,,,,,,,,,,,,,,,,,,,,,,,,,,,,,,,,,,,,,,,,370.5448835999705,370.9459638998378,370.92938279989175,371.0301425999496,371.4317250000313,None,right,1,0.4032920999452472,371.4317250000313,None,370.92938279989175,371.0301425999496,371.0301425999496,None,371.86363189993426,None,,,,,,,11027,001,2024_Jan_10_1110,ANT,2021.2.3,60.11468681900617,
1,22,spatial,down,C,R,,,,,,Block.xlsx,"你已经完成了整个实验（三个区组）。

请报告实验者已完成实验

非常感谢，再见！",-1.5,0,-1.5,right,RRRRR.png,,,,,0,1,1,1,2,6,54,21,,,,,,,,,,,,,,,,,,,,,,,,,,,,,,,,,,,,,,,,,,,,,,,,,,,,,,,,,,,,,,,,372.2650011999067,372.66492909984663,372.64900909992866,372.74925029999577,373.1515043999534,None,right,1,0.32318429998122156,373.1515043999534,None,372.64900909992866,372.74925029999577,372.74925029999577,None,373.49955299985595,None,,,,,,,11027,001,2024_Jan_10_1110,ANT,2021.2.3,60.11468681900617,
1,23,spatial,down,IC,L,,,,,,Block.xlsx,"你已经完成了整个实验（三个区组）。

请报告实验者已完成实验

非常感谢，再见！",-1.5,0,-1.5,left,RRLRR.png,,,,,0,1,1,1,2,7,55,22,,,,,,,,,,,,,,,,,,,,,,,,,,,,,,,,,,,,,,,,,,,,,,,,,,,,,,,,,,,,,,,,373.9003535998054,374.30161680001765,374.2838638999965,374.38489039987326,374.7845332999714,None,left,1,0.6660390999168158,374.7845332999714,None,374.2838638999965,374.38489039987326,374.38489039987326,None,375.4688438999001,None,,,,,,,11027,001,2024_Jan_10_1110,ANT,2021.2.3,60.11468681900617,
1,16,center,down,IC,R,,,,,,Block.xlsx,"你已经完成了整个实验（三个区组）。

请报告实验者已完成实验

非常感谢，再见！",0,50,-1.5,right,LLRLL.png,,,,,0,1,1,1,2,8,56,15,,,,,,,,,,,,,,,,,,,,,,,,,,,,,,,,,,,,,,,,,,,,,,,,,,,,,,,,,,,,,,,,375.8696422998328,376.2703291999642,376.2547589999158,376.3544277998153,376.7542039998807,None,right,1,0.40875249984674156,376.7542039998807,None,376.2547589999158,376.3544277998153,376.3544277998153,None,377.18806389998645,None,,,,,,,11027,001,2024_Jan_10_1110,ANT,2021.2.3,60.11468681900617,
1,7,no,down,IC,L,,,,,,Block.xlsx,"你已经完成了整个实验（三个区组）。

请报告实验者已完成实验

非常感谢，再见！",50,0,-1.5,left,RRLRR.png,,,,,0,1,1,1,2,9,57,6,,,,,,,,,,,,,,,,,,,,,,,,,,,,,,,,,,,,,,,,,,,,,,,,,,,,,,,,,,,,,,,,377.58970309980214,377.9894958999939,377.97330479999073,378.0730605998542,378.4758672998287,None,left,1,0.4872180998791009,378.4758672998287,None,377.97330479999073,378.0730605998542,378.0730605998542,None,378.9907750999555,None,,,,,,,11027,001,2024_Jan_10_1110,ANT,2021.2.3,60.11468681900617,
1,4,no,up,IC,R,,,,,,Block.xlsx,"你已经完成了整个实验（三个区组）。

请报告实验者已完成实验

非常感谢，再见！",50,0,1.5,right,LLRLL.png,,,,,0,1,1,1,2,10,58,3,,,,,,,,,,,,,,,,,,,,,,,,,,,,,,,,,,,,,,,,,,,,,,,,,,,,,,,,,,,,,,,,379.3915720998775,379.7920154000167,379.77704349998385,379.89200819982216,380.2766135998536,None,right,1,0.4781680000014603,380.2766135998536,None,379.77704349998385,379.89200819982216,379.877113699913,None,380.776563399937,None,,,,,,,11027,001,2024_Jan_10_1110,ANT,2021.2.3,60.11468681900617,
1,12,center,up,IC,R,,,,,,Block.xlsx,"你已经完成了整个实验（三个区组）。

请报告实验者已完成实验

非常感谢，再见！",0,50,1.5,right,LLRLL.png,,,,,0,1,1,1,2,11,59,11,,,,,,,,,,,,,,,,,,,,,,,,,,,,,,,,,,,,,,,,,,,,,,,,,,,,,,,,,,,,,,,,381.1774577999022,381.5783891999163,381.5628910998348,381.66282229986973,382.0627429999877,None,right,1,0.4040913002099842,382.0627429999877,None,381.5628910998348,381.66282229986973,381.66282229986973,None,382.49691460002214,None,,,,,,,11027,001,2024_Jan_10_1110,ANT,2021.2.3,60.11468681900617,
1,6,no,down,C,R,,,,,,Block.xlsx,"你已经完成了整个实验（三个区组）。

请报告实验者已完成实验

非常感谢，再见！",50,0,-1.5,right,RRRRR.png,,,,,0,1,1,1,2,12,60,5,,,,,,,,,,,,,,,,,,,,,,,,,,,,,,,,,,,,,,,,,,,,,,,,,,,,,,,,,,,,,,,,382.8968642000109,383.29844789998606,383.2806440999266,383.38179579982534,383.7819141999353,None,right,1,0.4205767000094056,383.7819141999353,None,383.2806440999266,383.38179579982534,383.38179579982534,None,384.2318382000085,None,,,,,,,11027,001,2024_Jan_10_1110,ANT,2021.2.3,60.11468681900617,
1,13,center,down,C,L,,,,,,Block.xlsx,"你已经完成了整个实验（三个区组）。

请报告实验者已完成实验

非常感谢，再见！",0,50,-1.5,left,LLLLL.png,,,,,0,1,1,1,2,13,61,12,,,,,,,,,,,,,,,,,,,,,,,,,,,,,,,,,,,,,,,,,,,,,,,,,,,,,,,,,,,,,,,,384.6335137998685,385.03438510000706,385.0167117998935,385.1169961998239,385.5171817999799,None,left,1,0.4297074999194592,385.5171817999799,None,385.0167117998935,385.1169961998239,385.1169961998239,None,385.967855299823,None,,,,,,,11027,001,2024_Jan_10_1110,ANT,2021.2.3,60.11468681900617,
1,11,center,up,IC,L,,,,,,Block.xlsx,"你已经完成了整个实验（三个区组）。

请报告实验者已完成实验

非常感谢，再见！",0,50,1.5,left,RRLRR.png,,,,,0,1,1,1,2,14,62,10,,,,,,,,,,,,,,,,,,,,,,,,,,,,,,,,,,,,,,,,,,,,,,,,,,,,,,,,,,,,,,,,386.3689231998287,386.7690969998948,386.7542484998703,386.8692683998961,387.2546761999838,None,left,1,0.4044278000947088,387.2546761999838,None,386.7542484998703,386.8692683998961,386.85375599982217,None,387.68794770003296,None,,,,,,,11027,001,2024_Jan_10_1110,ANT,2021.2.3,60.11468681900617,
1,20,spatial,up,IC,R,,,,,,Block.xlsx,"你已经完成了整个实验（三个区组）。

请报告实验者已完成实验

非常感谢，再见！",1.5,0,1.5,right,LLRLL.png,,,,,0,1,1,1,2,15,63,19,,,,,,,,,,,,,,,,,,,,,,,,,,,,,,,,,,,,,,,,,,,,,,,,,,,,,,,,,,,,,,,,388.0877211999614,388.4879860000219,388.4729098000098,388.57227919995785,388.9727713998873,None,right,1,0.38255099998787045,388.9727713998873,None,388.4729098000098,388.57227919995785,388.57227919995785,None,389.37286929995753,None,,,,,,,11027,001,2024_Jan_10_1110,ANT,2021.2.3,60.11468681900617,
1,17,spatial,up,C,L,,,,,,Block.xlsx,"你已经完成了整个实验（三个区组）。

请报告实验者已完成实验

非常感谢，再见！",1.5,0,1.5,left,LLLLL.png,,,,,0,1,1,1,2,16,64,16,,,,,,,,,,,,,,,,,,,,,,,,,,,,,,,,,,,,,,,,,,,,,,,,,,,,,,,,,,,,,,,,389.7732714000158,390.17480959999375,390.15836619981565,390.257982699899,390.65966839995235,None,left,1,0.3430787001270801,390.65966839995235,None,390.15836619981565,390.257982699899,390.257982699899,None,391.0254154999275,None,,,,,,,11027,001,2024_Jan_10_1110,ANT,2021.2.3,60.11468681900617,
1,3,no,up,IC,L,,,,,,Block.xlsx,"你已经完成了整个实验（三个区组）。

请报告实验者已完成实验

非常感谢，再见！",50,0,1.5,left,RRLRR.png,,,,,0,1,1,1,2,17,65,2,,,,,,,,,,,,,,,,,,,,,,,,,,,,,,,,,,,,,,,,,,,,,,,,,,,,,,,,,,,,,,,,391.42586289998144,391.82788909994997,391.809733199887,391.9105737998616,392.3113353999797,None,left,1,0.3393496999051422,392.3113353999797,None,391.809733199887,391.9105737998616,391.9105737998616,None,392.6778281999286,None,,,,,,,11027,001,2024_Jan_10_1110,ANT,2021.2.3,60.11468681900617,
1,23,spatial,down,IC,L,,,,,,Block.xlsx,"你已经完成了整个实验（三个区组）。

请报告实验者已完成实验

非常感谢，再见！",-1.5,0,-1.5,left,RRLRR.png,,,,,0,1,1,1,2,18,66,22,,,,,,,,,,,,,,,,,,,,,,,,,,,,,,,,,,,,,,,,,,,,,,,,,,,,,,,,,,,,,,,,393.0788408999797,393.4798153999727,393.4623237999622,393.56301909987815,393.963686699979,None,left,1,0.5508922000881284,393.963686699979,None,393.4623237999622,393.56301909987815,393.56301909987815,None,394.5303044000175,None,,,,,,,11027,001,2024_Jan_10_1110,ANT,2021.2.3,60.11468681900617,
1,15,center,down,IC,L,,,,,,Block.xlsx,"你已经完成了整个实验（三个区组）。

请报告实验者已完成实验

非常感谢，再见！",0,50,-1.5,left,RRLRR.png,,,,,0,1,1,1,2,19,67,14,,,,,,,,,,,,,,,,,,,,,,,,,,,,,,,,,,,,,,,,,,,,,,,,,,,,,,,,,,,,,,,,394.93164039985277,395.3323458000086,395.31610419997014,395.4171754999552,395.8165344998706,None,left,1,0.46711550001055,395.8165344998706,None,395.31610419997014,395.4171754999552,395.4171754999552,None,396.2998081999831,None,,,,,,,11027,001,2024_Jan_10_1110,ANT,2021.2.3,60.11468681900617,
1,3,no,up,IC,L,,,,,,Block.xlsx,"你已经完成了整个实验（三个区组）。

请报告实验者已完成实验

非常感谢，再见！",50,0,1.5,left,RRLRR.png,,,,,0,1,1,1,2,20,68,2,,,,,,,,,,,,,,,,,,,,,,,,,,,,,,,,,,,,,,,,,,,,,,,,,,,,,,,,,,,,,,,,396.70050709997304,397.10208519990556,397.0845637000166,397.1855132000055,397.5857037999667,None,left,1,0.4409517999738455,397.5857037999667,None,397.0845637000166,397.1855132000055,397.1855132000055,None,398.0525894998573,None,,,,,,,11027,001,2024_Jan_10_1110,ANT,2021.2.3,60.11468681900617,
1,22,spatial,down,C,R,,,,,,Block.xlsx,"你已经完成了整个实验（三个区组）。

请报告实验者已完成实验

非常感谢，再见！",-1.5,0,-1.5,right,RRRRR.png,,,,,0,1,1,1,2,21,69,21,,,,,,,,,,,,,,,,,,,,,,,,,,,,,,,,,,,,,,,,,,,,,,,,,,,,,,,,,,,,,,,,398.4530765998643,398.85386159992777,398.8374626999721,398.93806879990734,399.3385722998064,None,right,1,0.4001812001224607,399.3385722998064,None,398.8374626999721,398.93806879990734,398.93806879990734,None,399.75488559994847,None,,,,,,,11027,001,2024_Jan_10_1110,ANT,2021.2.3,60.11468681900617,
1,6,no,down,C,R,,,,,,Block.xlsx,"你已经完成了整个实验（三个区组）。

请报告实验者已完成实验

非常感谢，再见！",50,0,-1.5,right,RRRRR.png,,,,,0,1,1,1,2,22,70,5,,,,,,,,,,,,,,,,,,,,,,,,,,,,,,,,,,,,,,,,,,,,,,,,,,,,,,,,,,,,,,,,400.1555523998104,400.55710309999995,400.5403475998901,400.6410556000192,401.04085249989294,None,right,1,0.33820639993064106,401.04085249989294,None,400.5403475998901,400.6410556000192,400.6410556000192,None,401.4074666998349,None,,,,,,,11027,001,2024_Jan_10_1110,ANT,2021.2.3,60.11468681900617,
1,15,center,down,IC,L,,,,,,Block.xlsx,"你已经完成了整个实验（三个区组）。

请报告实验者已完成实验

非常感谢，再见！",0,50,-1.5,left,RRLRR.png,,,,,0,1,1,1,2,23,71,14,,,,,,,,,,,,,,,,,,,,,,,,,,,,,,,,,,,,,,,,,,,,,,,,,,,,,,,,,,,,,,,,401.80824559996836,402.20989729999565,402.19301039981656,402.29364899988286,402.6927120999899,None,left,1,0.49414949980564415,402.6927120999899,None,402.19301039981656,402.29364899988286,402.29364899988286,None,403.2101021998096,None,,,,,,,11027,001,2024_Jan_10_1110,ANT,2021.2.3,60.11468681900617,
1,12,center,up,IC,R,,,,,,Block.xlsx,"你已经完成了整个实验（三个区组）。

请报告实验者已完成实验

非常感谢，再见！",0,50,1.5,right,LLRLL.png,,,,,0,1,1,1,3,0,72,11,,,,,,,,,,,,,,,,,,,,,,,,,,,,,,,,,,,,,,,,,,,,,,,,,,,,,,,,,,,,,,,,403.6106940000318,404.01328699989244,403.99516289983876,404.0958775000181,404.4968008999713,None,right,1,0.5459719002246857,404.4968008999713,None,403.99516289983876,404.0958775000181,404.0958775000181,None,405.0626932999585,None,,,,,,,11027,001,2024_Jan_10_1110,ANT,2021.2.3,60.11468681900617,
1,21,spatial,down,C,L,,,,,,Block.xlsx,"你已经完成了整个实验（三个区组）。

请报告实验者已完成实验

非常感谢，再见！",-1.5,0,-1.5,left,LLLLL.png,,,,,0,1,1,1,3,1,73,20,,,,,,,,,,,,,,,,,,,,,,,,,,,,,,,,,,,,,,,,,,,,,,,,,,,,,,,,,,,,,,,,405.46335209999233,405.8646227000281,405.8480328998994,405.9475878998637,406.3481254000217,None,left,1,0.33515969989821315,406.3481254000217,None,405.8480328998994,405.9475878998637,405.9475878998637,None,406.69875309988856,None,,,,,,,11027,001,2024_Jan_10_1110,ANT,2021.2.3,60.11468681900617,
1,7,no,down,IC,L,,,,,,Block.xlsx,"你已经完成了整个实验（三个区组）。

请报告实验者已完成实验

非常感谢，再见！",50,0,-1.5,left,RRLRR.png,,,,,0,1,1,1,3,2,74,6,,,,,,,,,,,,,,,,,,,,,,,,,,,,,,,,,,,,,,,,,,,,,,,,,,,,,,,,,,,,,,,,407.0993234999478,407.5006231998559,407.4829811998643,407.58353800000623,407.9852824998088,None,left,1,0.4095201001036912,407.9852824998088,None,407.4829811998643,407.58353800000623,407.58353800000623,None,408.41774629987776,None,,,,,,,11027,001,2024_Jan_10_1110,ANT,2021.2.3,60.11468681900617,
1,22,spatial,down,C,R,,,,,,Block.xlsx,"你已经完成了整个实验（三个区组）。

请报告实验者已完成实验

非常感谢，再见！",-1.5,0,-1.5,right,RRRRR.png,,,,,0,1,1,1,3,3,75,21,,,,,,,,,,,,,,,,,,,,,,,,,,,,,,,,,,,,,,,,,,,,,,,,,,,,,,,,,,,,,,,,408.81831799983047,409.22101879981346,409.2025152000133,409.30488840001635,409.7040263998788,None,right,1,0.3950396999716759,409.7040263998788,None,409.2025152000133,409.30488840001635,409.30488840001635,None,410.12039609998465,None,,,,,,,11027,001,2024_Jan_10_1110,ANT,2021.2.3,60.11468681900617,
1,11,center,up,IC,L,,,,,,Block.xlsx,"你已经完成了整个实验（三个区组）。

请报告实验者已完成实验

非常感谢，再见！",0,50,1.5,left,RRLRR.png,,,,,0,1,1,1,3,4,76,10,,,,,,,,,,,,,,,,,,,,,,,,,,,,,,,,,,,,,,,,,,,,,,,,,,,,,,,,,,,,,,,,410.5221555000171,410.92367869988084,410.90525239985436,411.00635359995067,411.4067919999361,None,right,0,0.3398084999062121,411.4067919999361,None,410.90525239985436,411.00635359995067,411.00635359995067,None,411.7724677999504,None,,,,,,,11027,001,2024_Jan_10_1110,ANT,2021.2.3,60.11468681900617,
1,15,center,down,IC,L,,,,,,Block.xlsx,"你已经完成了整个实验（三个区组）。

请报告实验者已完成实验

非常感谢，再见！",0,50,-1.5,left,RRLRR.png,,,,,0,1,1,1,3,5,77,14,,,,,,,,,,,,,,,,,,,,,,,,,,,,,,,,,,,,,,,,,,,,,,,,,,,,,,,,,,,,,,,,412.1731419998687,412.57472769985907,412.55780959990807,412.6586978000123,413.0587013999466,None,left,1,0.41679789987392724,413.0587013999466,None,412.55780959990807,412.6586978000123,412.6586978000123,None,413.4921595000196,None,,,,,,,11027,001,2024_Jan_10_1110,ANT,2021.2.3,60.11468681900617,
1,10,center,up,C,R,,,,,,Block.xlsx,"你已经完成了整个实验（三个区组）。

请报告实验者已完成实验

非常感谢，再见！",0,50,1.5,right,RRRRR.png,,,,,0,1,1,1,3,6,78,9,,,,,,,,,,,,,,,,,,,,,,,,,,,,,,,,,,,,,,,,,,,,,,,,,,,,,,,,,,,,,,,,413.89297769987024,414.29489839985035,414.2766831999179,414.37727950001135,414.77773529989645,None,right,1,0.4336216999217868,414.77773529989645,None,414.2766831999179,414.37727950001135,414.37727950001135,None,415.2282065998297,None,,,,,,,11027,001,2024_Jan_10_1110,ANT,2021.2.3,60.11468681900617,
1,17,spatial,up,C,L,,,,,,Block.xlsx,"你已经完成了整个实验（三个区组）。

请报告实验者已完成实验

非常感谢，再见！",1.5,0,1.5,left,LLLLL.png,,,,,0,1,1,1,3,7,79,16,,,,,,,,,,,,,,,,,,,,,,,,,,,,,,,,,,,,,,,,,,,,,,,,,,,,,,,,,,,,,,,,415.6283195000142,416.03121799998917,416.0128252999857,416.1132690999657,416.51359719992615,None,left,1,0.39307640003971756,416.51359719992615,None,416.0128252999857,416.1132690999657,416.1132690999657,None,416.9308004998602,None,,,,,,,11027,001,2024_Jan_10_1110,ANT,2021.2.3,60.11468681900617,
1,23,spatial,down,IC,L,,,,,,Block.xlsx,"你已经完成了整个实验（三个区组）。

请报告实验者已完成实验

非常感谢，再见！",-1.5,0,-1.5,left,RRLRR.png,,,,,0,1,1,1,3,8,80,22,,,,,,,,,,,,,,,,,,,,,,,,,,,,,,,,,,,,,,,,,,,,,,,,,,,,,,,,,,,,,,,,417.3325167999137,417.7315729998518,417.7154619998764,417.81723819999024,418.21591499983333,None,left,1,0.4587382001336664,418.21591499983333,None,417.7154619998764,417.81723819999024,417.81723819999024,None,418.70073399995454,None,,,,,,,11027,001,2024_Jan_10_1110,ANT,2021.2.3,60.11468681900617,
1,13,center,down,C,L,,,,,,Block.xlsx,"你已经完成了整个实验（三个区组）。

请报告实验者已完成实验

非常感谢，再见！",0,50,-1.5,left,LLLLL.png,,,,,0,1,1,1,3,9,81,12,,,,,,,,,,,,,,,,,,,,,,,,,,,,,,,,,,,,,,,,,,,,,,,,,,,,,,,,,,,,,,,,419.10072739981115,419.5011132999789,419.4861888999585,419.5846217998769,419.9856540998444,None,left,1,0.4250729999039322,419.9856540998444,None,419.4861888999585,419.5846217998769,419.5846217998769,None,420.43599249981344,None,,,,,,,11027,001,2024_Jan_10_1110,ANT,2021.2.3,60.11468681900617,
1,11,center,up,IC,L,,,,,,Block.xlsx,"你已经完成了整个实验（三个区组）。

请报告实验者已完成实验

非常感谢，再见！",0,50,1.5,left,RRLRR.png,,,,,0,1,1,1,3,10,82,10,,,,,,,,,,,,,,,,,,,,,,,,,,,,,,,,,,,,,,,,,,,,,,,,,,,,,,,,,,,,,,,,420.8363697999157,421.2383085000329,421.2201977998484,421.3212223998271,421.7222200999968,None,left,1,0.4244071999564767,421.7222200999968,None,421.2201977998484,421.3212223998271,421.3212223998271,None,422.17149809980765,None,,,,,,,11027,001,2024_Jan_10_1110,ANT,2021.2.3,60.11468681900617,
1,16,center,down,IC,R,,,,,,Block.xlsx,"你已经完成了整个实验（三个区组）。

请报告实验者已完成实验

非常感谢，再见！",0,50,-1.5,right,LLRLL.png,,,,,0,1,1,1,3,11,83,15,,,,,,,,,,,,,,,,,,,,,,,,,,,,,,,,,,,,,,,,,,,,,,,,,,,,,,,,,,,,,,,,422.5720952998381,422.9727919998113,422.9560459998902,423.0582206000108,423.45746239996515,None,left,0,0.3851765999570489,423.45746239996515,None,422.9560459998902,423.0582206000108,423.0582206000108,None,423.8572714999318,None,,,,,,,11027,001,2024_Jan_10_1110,ANT,2021.2.3,60.11468681900617,
1,7,no,down,IC,L,,,,,,Block.xlsx,"你已经完成了整个实验（三个区组）。

请报告实验者已完成实验

非常感谢，再见！",50,0,-1.5,left,RRLRR.png,,,,,0,1,1,1,3,12,84,6,,,,,,,,,,,,,,,,,,,,,,,,,,,,,,,,,,,,,,,,,,,,,,,,,,,,,,,,,,,,,,,,424.2579220999032,424.6597843999043,424.6416895999573,424.74274769984186,425.14327370002866,None,left,1,0.49160420009866357,425.14327370002866,None,424.6416895999573,424.74274769984186,424.74274769984186,None,425.6601068000309,None,,,,,,,11027,001,2024_Jan_10_1110,ANT,2021.2.3,60.11468681900617,
1,12,center,up,IC,R,,,,,,Block.xlsx,"你已经完成了整个实验（三个区组）。

请报告实验者已完成实验

非常感谢，再见！",0,50,1.5,right,LLRLL.png,,,,,0,1,1,1,3,13,85,11,,,,,,,,,,,,,,,,,,,,,,,,,,,,,,,,,,,,,,,,,,,,,,,,,,,,,,,,,,,,,,,,426.0612531998195,426.4621136998758,426.44586059986614,426.5448037998285,426.945316700032,None,right,1,0.4818130999337882,426.945316700032,None,426.44586059986614,426.5448037998285,426.5448037998285,None,427.4461381000001,None,,,,,,,11027,001,2024_Jan_10_1110,ANT,2021.2.3,60.11468681900617,
1,24,spatial,down,IC,R,,,,,,Block.xlsx,"你已经完成了整个实验（三个区组）。

请报告实验者已完成实验

非常感谢，再见！",-1.5,0,-1.5,right,LLRLL.png,,,,,0,1,1,1,3,14,86,23,,,,,,,,,,,,,,,,,,,,,,,,,,,,,,,,,,,,,,,,,,,,,,,,,,,,,,,,,,,,,,,,427.8466217999812,428.2471863999963,428.23120539984666,428.33105359994806,428.7317048998084,None,right,1,0.5273949999827892,428.7317048998084,None,428.23120539984666,428.33105359994806,428.33105359994806,None,429.28210229985416,None,,,,,,,11027,001,2024_Jan_10_1110,ANT,2021.2.3,60.11468681900617,
1,8,no,down,IC,R,,,,,,Block.xlsx,"你已经完成了整个实验（三个区组）。

请报告实验者已完成实验

非常感谢，再见！",50,0,-1.5,right,LLRLL.png,,,,,0,1,1,1,3,15,87,7,,,,,,,,,,,,,,,,,,,,,,,,,,,,,,,,,,,,,,,,,,,,,,,,,,,,,,,,,,,,,,,,429.68317939992994,430.0858220998198,430.06717920000665,430.16713319998235,430.56888669985346,None,right,1,0.38574830000288785,430.56888669985346,None,430.06717920000665,430.16713319998235,430.16713319998235,None,430.9851585000288,None,,,,,,,11027,001,2024_Jan_10_1110,ANT,2021.2.3,60.11468681900617,
1,16,center,down,IC,R,,,,,,Block.xlsx,"你已经完成了整个实验（三个区组）。

请报告实验者已完成实验

非常感谢，再见！",0,50,-1.5,right,LLRLL.png,,,,,0,1,1,1,3,16,88,15,,,,,,,,,,,,,,,,,,,,,,,,,,,,,,,,,,,,,,,,,,,,,,,,,,,,,,,,,,,,,,,,431.3856920998078,431.78576439991593,431.76990649988875,431.8712836999912,432.26999129983597,None,right,1,0.4686702999752015,432.26999129983597,None,431.76990649988875,431.8712836999912,431.8712836999912,None,432.7537382999435,None,,,,,,,11027,001,2024_Jan_10_1110,ANT,2021.2.3,60.11468681900617,
1,11,center,up,IC,L,,,,,,Block.xlsx,"你已经完成了整个实验（三个区组）。

请报告实验者已完成实验

非常感谢，再见！",0,50,1.5,left,RRLRR.png,,,,,0,1,1,1,3,17,89,10,,,,,,,,,,,,,,,,,,,,,,,,,,,,,,,,,,,,,,,,,,,,,,,,,,,,,,,,,,,,,,,,433.15519169997424,433.5570247999858,433.5386179999914,433.6391542998608,434.03952879994176,None,left,1,0.4518291999120265,434.03952879994176,None,433.5386179999914,433.6391542998608,433.6391542998608,None,434.5064874999225,None,,,,,,,11027,001,2024_Jan_10_1110,ANT,2021.2.3,60.11468681900617,
1,22,spatial,down,C,R,,,,,,Block.xlsx,"你已经完成了整个实验（三个区组）。

请报告实验者已完成实验

非常感谢，再见！",-1.5,0,-1.5,right,RRRRR.png,,,,,0,1,1,1,3,18,90,21,,,,,,,,,,,,,,,,,,,,,,,,,,,,,,,,,,,,,,,,,,,,,,,,,,,,,,,,,,,,,,,,434.9078567000106,435.30898609990254,435.29238879983313,435.3919950998388,435.7923924999777,None,right,1,0.3703313998412341,435.7923924999777,None,435.29238879983313,435.3919950998388,435.3919950998388,None,436.19220479996875,None,,,,,,,11027,001,2024_Jan_10_1110,ANT,2021.2.3,60.11468681900617,
1,2,no,up,C,R,,,,,,Block.xlsx,"你已经完成了整个实验（三个区组）。

请报告实验者已完成实验

非常感谢，再见！",50,0,1.5,right,RRRRR.png,,,,,0,1,1,1,3,19,91,1,,,,,,,,,,,,,,,,,,,,,,,,,,,,,,,,,,,,,,,,,,,,,,,,,,,,,,,,,,,,,,,,436.59281759988517,436.99505869997665,436.9769689999521,437.07718379981816,437.4783073000144,None,right,1,0.3805960000026971,437.4783073000144,None,436.9769689999521,437.07718379981816,437.07718379981816,None,437.87922949995846,None,,,,,,,11027,001,2024_Jan_10_1110,ANT,2021.2.3,60.11468681900617,
1,23,spatial,down,IC,L,,,,,,Block.xlsx,"你已经完成了整个实验（三个区组）。

请报告实验者已完成实验

