TrialType,TrialNumber,WarningType,TargetType,FlankerType,TargetDirection,W,f,Y,corr,imageFile,condition,endtext,Yw,Yf,Yt,Corr,imagefile,trials_3.thisRepN,trials_3.thisTrialN,trials_3.thisN,trials_3.thisIndex,trials_2.thisRepN,trials_2.thisTrialN,trials_2.thisN,trials_2.thisIndex,trials.thisRepN,trials.thisTrialN,trials.thisN,trials.thisIndex,instr.started,instr.stopped,key_resp.keys,key_resp.rt,key_resp.started,key_resp.stopped,image.started,image.stopped,key_resp_6.keys,key_resp_6.rt,key_resp_6.started,key_resp_6.stopped,EX_L.started,EX_L.stopped,AL.started,AL.stopped,key_resp_7.keys,key_resp_7.rt,key_resp_7.started,key_resp_7.stopped,EX_R.started,EX_R.stopped,RR.started,RR.stopped,key_resp_8.keys,key_resp_8.rt,key_resp_8.started,key_resp_8.stopped,image_2.started,image_2.stopped,key_resp_9.keys,key_resp_9.rt,key_resp_9.started,key_resp_9.stopped,image_3.started,image_3.stopped,key_resp_10.keys,key_resp_10.rt,key_resp_10.started,key_resp_10.stopped,fix.started,fix.stopped,war.started,war.stopped,tar.started,tar.stopped,key_resp_4.keys,key_resp_4.corr,key_resp_4.rt,key_resp_4.started,key_resp_4.stopped,fix2.started,fix2.stopped,fix_2.started,fix_2.stopped,Feedback.started,Feedback.stopped,key_resp_2.keys,key_resp_2.rt,key_resp_2.started,key_resp_2.stopped,text_5.started,text_5.stopped,fix2_1.started,fix2_1.stopped,Warn.started,Warn.stopped,Tar.started,Tar.stopped,key_resp_5.keys,key_resp_5.corr,key_resp_5.rt,key_resp_5.started,key_resp_5.stopped,Fix_2.started,Fix_2.stopped,fix2_2.started,fix2_2.stopped,text_4.started,text_4.stopped,key_resp_3.keys,key_resp_3.rt,key_resp_3.started,key_resp_3.stopped,text_3.started,text_3.stopped,participant,session,date,expName,psychopyVersion,frameRate,
,,,,,,,,,,,,,,,,,,,,,,,,,,,,,,14.216241499991156,None,space,121.31436310010031,14.216241499991156,None,,,,,,,,,,,,,,,,,,,,,,,,,,,,,,,,,,,,,,,,,,,,,,,,,,,,,,,,,,,,,,,,,,,,,,,,,,,,,,,,,11024,001,2024_Jan_07_1119,ANT,2021.2.3,59.80056508664466,
,,,,,,,,,,,,,,,,,,,,,,,,,,,,,,,,,,,,135.5612007000018,None,space,23.761398300062865,135.5612007000018,None,,,,,,,,,,,,,,,,,,,,,,,,,,,,,,,,,,,,,,,,,,,,,,,,,,,,,,,,,,,,,,,,,,,,,,,,,,,11024,001,2024_Jan_07_1119,ANT,2021.2.3,59.80056508664466,
,,,,,,,,,,,,,,,,,,,,,,,,,,,,,,,,,,,,,,,,,,159.3463572000619,None,159.3463572000619,None,left,2.864166900049895,159.3463572000619,None,,,,,,,,,,,,,,,,,,,,,,,,,,,,,,,,,,,,,,,,,,,,,,,,,,,,,,,,,,,,,,,,,,,11024,001,2024_Jan_07_1119,ANT,2021.2.3,59.80056508664466,
,,,,,,,,,,,,,,,,,,,,,,,,,,,,,,,,,,,,,,,,,,,,,,,,,,162.23456789995544,None,162.23456789995544,None,right,0.8644989000167698,162.23456789995544,None,,,,,,,,,,,,,,,,,,,,,,,,,,,,,,,,,,,,,,,,,,,,,,,,,,,,,,,,,,,11024,001,2024_Jan_07_1119,ANT,2021.2.3,59.80056508664466,
,,,,,,,,,,,,,,,,,,,,,,,,,,,,,,,,,,,,,,,,,,,,,,,,,,,,,,,,,,163.11855300003663,None,space,42.95612570003141,163.11855300003663,None,,,,,,,,,,,,,,,,,,,,,,,,,,,,,,,,,,,,,,,,,,,,,,,,,,,,,11024,001,2024_Jan_07_1119,ANT,2021.2.3,59.80056508664466,
,,,,,,,,,,,,,,,,,,,,,,,,,,,,,,,,,,,,,,,,,,,,,,,,,,,,,,,,,,,,,,,,206.09970340004656,None,space,3.5197424000361934,206.09970340004656,None,,,,,,,,,,,,,,,,,,,,,,,,,,,,,,,,,,,,,,,,,,,,,,,11024,001,2024_Jan_07_1119,ANT,2021.2.3,59.80056508664466,
0,12,spatial,down,IC,R,-1.5,0,-1.5,right,LLRLL.png,,,,,,,,0,0,0,11,,,,,,,,,,,,,,,,,,,,,,,,,,,,,,,,,,,,,,,,,,,,,,,,,209.70405519998167,210.10599619999994,210.08914120006375,210.1902293000603,210.58968169998843,None,right,1,1.5177497999975458,210.58968169998843,None,210.08914120006375,210.1902293000603,210.1902293000603,None,212.14197550003882,None,,,,,,,,,,,,,,,,,,,,,,,,,,,,,,11024,001,2024_Jan_07_1119,ANT,2021.2.3,59.80056508664466,
0,3,no,down,C,R,50,0,-1.5,right,RRRRR.png,,,,,,,,0,1,1,2,,,,,,,,,,,,,,,,,,,,,,,,,,,,,,,,,,,,,,,,,,,,,,,,,214.14413989998866,214.54503409995232,214.5300943000475,214.62846729997545,215.02971310005523,None,right,1,0.8051593999844044,215.02971310005523,None,214.5300943000475,214.62846729997545,214.62846729997545,None,215.86384570004884,None,,,,,,,,,,,,,,,,,,,,,,,,,,,,,,11024,001,2024_Jan_07_1119,ANT,2021.2.3,59.80056508664466,
0,1,no,up,C,L,50,0,1.5,left,LLLLL.png,,,,,,,,0,2,2,0,,,,,,,,,,,,,,,,,,,,,,,,,,,,,,,,,,,,,,,,,,,,,,,,,217.86670660006348,218.26795979996677,218.25120040006004,218.35141959995963,218.75242370006163,None,left,1,0.7705006999894977,218.75242370006163,None,218.25120040006004,218.35141959995963,218.35141959995963,None,219.55224440002348,None,,,,,,,,,,,,,,,,,,,,,,,,,,,,,,11024,001,2024_Jan_07_1119,ANT,2021.2.3,59.80056508664466,
0,11,spatial,down,C,L,-1.5,0,-1.5,left,LLLLL.png,,,,,,,,0,3,3,10,,,,,,,,,,,,,,,,,,,,,,,,,,,,,,,,,,,,,,,,,,,,,,,,,221.55581429996528,221.95791929995175,221.9396930000512,222.04067110002507,222.44160969997756,None,left,1,0.5614864999661222,222.44160969997756,None,221.9396930000512,222.04067110002507,222.04067110002507,None,223.02399719995447,None,,,,,,,,,,,,,,,,,,,,,,,,,,,,,,11024,001,2024_Jan_07_1119,ANT,2021.2.3,59.80056508664466,
0,5,center,up,C,L,0,50,1.5,left,LLLLL.png,,,,,,,,0,4,4,4,,,,,,,,,,,,,,,,,,,,,,,,,,,,,,,,,,,,,,,,,,,,,,,,,225.0273351999931,225.42964590003248,225.41159649996553,225.51202679995913,225.91306529997382,None,left,1,0.546150799957104,225.91306529997382,None,225.41159649996553,225.51202679995913,225.51202679995913,None,226.47904440003913,None,,,,,,,,,,,,,,,,,,,,,,,,,,,,,,11024,001,2024_Jan_07_1119,ANT,2021.2.3,59.80056508664466,
0,2,no,up,IC,R,50,0,1.5,right,LLRLL.png,,,,,,,,0,5,5,1,,,,,,,,,,,,,,,,,,,,,,,,,,,,,,,,,,,,,,,,,,,,,,,,,228.48247459996492,228.88361080002505,228.86797879997175,228.98488979996182,229.3678506000433,None,right,1,0.6748337000608444,229.3678506000433,None,228.86797879997175,228.98488979996182,228.96689300006256,None,230.0676519999979,None,,,,,,,,,,,,,,,,,,,,,,,,,,,,,,11024,001,2024_Jan_07_1119,ANT,2021.2.3,59.80056508664466,
0,4,no,down,IC,L,50,0,-1.5,left,RRLRR.png,,,,,,,,0,6,6,3,,,,,,,,,,,,,,,,,,,,,,,,,,,,,,,,,,,,,,,,,,,,,,,,,232.07171699998435,232.47251520003192,232.45573489996605,232.5557731000008,232.95642639999278,None,left,1,0.686238499940373,232.95642639999278,None,232.45573489996605,232.5557731000008,232.5557731000008,None,233.67359360004775,None,,,,,,,,,,,,,,,,,,,,,,,,,,,,,,11024,001,2024_Jan_07_1119,ANT,2021.2.3,59.80056508664466,
0,7,center,down,C,R,0,50,-1.5,right,RRRRR.png,,,,,,,,0,7,7,6,,,,,,,,,,,,,,,,,,,,,,,,,,,,,,,,,,,,,,,,,,,,,,,,,235.6765264000278,236.0775888999924,236.0613117000321,236.16261280002072,236.56166370003484,None,right,1,0.49701659998390824,236.56166370003484,None,236.0613117000321,236.16261280002072,236.16261280002072,None,237.078122899984,None,,,,,,,,,,,,,,,,,,,,,,,,,,,,,,11024,001,2024_Jan_07_1119,ANT,2021.2.3,59.80056508664466,
0,6,center,up,IC,R,0,50,1.5,right,LLRLL.png,,,,,,,,0,8,8,5,,,,,,,,,,,,,,,,,,,,,,,,,,,,,,,,,,,,,,,,,,,,,,,,,239.08124149998184,239.48214129998814,239.46595980005804,239.56562919996213,239.9667371000396,None,right,1,0.7645031000720337,239.9667371000396,None,239.46595980005804,239.56562919996213,239.56562919996213,None,240.7503031999804,None,,,,,,,,,,,,,,,,,,,,,,,,,,,,,,11024,001,2024_Jan_07_1119,ANT,2021.2.3,59.80056508664466,
0,10,spatial,up,IC,L,1.5,0,1.5,left,RRLRR.png,,,,,,,,0,9,9,9,,,,,,,,,,,,,,,,,,,,,,,,,,,,,,,,,,,,,,,,,,,,,,,,,242.7545343999518,243.15479089994915,243.1371233999962,243.23803720006254,243.63950819999445,None,left,1,0.5318321000086144,243.63950819999445,None,243.1371233999962,243.23803720006254,243.23803720006254,None,244.18852209998295,None,,,,,,,,,,,,,,,,,,,,,,,,,,,,,,11024,001,2024_Jan_07_1119,ANT,2021.2.3,59.80056508664466,
0,9,spatial,up,C,R,1.5,0,1.5,right,RRRRR.png,,,,,,,,0,10,10,8,,,,,,,,,,,,,,,,,,,,,,,,,,,,,,,,,,,,,,,,,,,,,,,,,246.19236420001835,246.59356930002104,246.57544449996203,246.67663130001165,247.07732699997723,None,right,1,0.46933210000861436,247.07732699997723,None,246.57544449996203,246.67663130001165,246.67663130001165,None,247.57698490004987,None,,,,,,,,,,,,,,,,,,,,,,,,,,,,,,11024,001,2024_Jan_07_1119,ANT,2021.2.3,59.80056508664466,
0,8,center,down,IC,L,0,50,-1.5,left,RRLRR.png,,,,,,,,0,11,11,7,,,,,,,,,,,,,,,,,,,,,,,,,,,,,,,,,,,,,,,,,,,,,,,,,249.58003009995446,249.9815113999648,249.96564459998626,250.06610729999375,250.46589280001353,None,left,1,0.6727607999928296,250.46589280001353,None,249.96564459998626,250.06610729999375,250.06610729999375,None,251.16632419999223,None,,,,,,,,,,,,,,,,,,,,,,,,,,,,,,11024,001,2024_Jan_07_1119,ANT,2021.2.3,59.80056508664466,
,,,,,,,,,,,,,,,,,,,,,,,,,,,,,,,,,,,,,,,,,,,,,,,,,,,,,,,,,,,,,,,,,,,,,,,,,,,,,,,,,,,,,,,space,19.51363229996059,253.16959599999245,None,,,,,,,,,,,,,,,,,,,,,,,,,,11024,001,2024_Jan_07_1119,ANT,2021.2.3,59.80056508664466,
1,22,spatial,down,C,R,,,,,,Block.xlsx,"你已经完成了第一个实验区组

请稍作休息


点击空格键进入下一个区组。",-1.5,0,-1.5,right,RRRRR.png,,,,,0,0,0,0,0,0,0,21,,,,,,,,,,,,,,,,,,,,,,,,,,,,,,,,,,,,,,,,,,,,,,,,,,,,,,,,,,,,,,253.16959599999245,None,272.74820579995867,273.1503995000385,273.1323589000385,273.2327285000356,273.63308169995435,None,right,1,0.6739458000520244,273.63308169995435,None,273.1323589000385,273.2327285000356,273.2327285000356,None,274.33352039998863,None,,,,,,,11024,001,2024_Jan_07_1119,ANT,2021.2.3,59.80056508664466,
1,18,spatial,up,C,R,,,,,,Block.xlsx,"你已经完成了第一个实验区组

请稍作休息


点击空格键进入下一个区组。",1.5,0,1.5,right,RRRRR.png,,,,,0,0,0,0,0,1,1,17,,,,,,,,,,,,,,,,,,,,,,,,,,,,,,,,,,,,,,,,,,,,,,,,,,,,,,,,,,,,,,,,274.73402400000487,275.13499110005796,275.11878450005315,275.2181396000087,275.6193937000353,None,right,1,0.5434888999443501,275.6193937000353,None,275.11878450005315,275.2181396000087,275.2181396000087,None,276.1864425999811,None,,,,,,,11024,001,2024_Jan_07_1119,ANT,2021.2.3,59.80056508664466,
1,11,center,up,IC,L,,,,,,Block.xlsx,"你已经完成了第一个实验区组

请稍作休息


点击空格键进入下一个区组。",0,50,1.5,left,RRLRR.png,,,,,0,0,0,0,0,2,2,10,,,,,,,,,,,,,,,,,,,,,,,,,,,,,,,,,,,,,,,,,,,,,,,,,,,,,,,,,,,,,,,,276.58680950000416,276.98804019996896,276.97130189999007,277.07206519995816,277.4732269999804,None,left,1,0.6177101000212133,277.4732269999804,None,276.97130189999007,277.07206519995816,277.07206519995816,None,278.10623859998304,None,,,,,,,11024,001,2024_Jan_07_1119,ANT,2021.2.3,59.80056508664466,
1,8,no,down,IC,R,,,,,,Block.xlsx,"你已经完成了第一个实验区组

请稍作休息


点击空格键进入下一个区组。",50,0,-1.5,right,LLRLL.png,,,,,0,0,0,0,0,3,3,7,,,,,,,,,,,,,,,,,,,,,,,,,,,,,,,,,,,,,,,,,,,,,,,,,,,,,,,,,,,,,,,,278.5071311000502,278.9084717000369,278.89155060006306,278.9922940999968,279.39301500003785,None,right,1,0.8017379000084475,279.39301500003785,None,278.89155060006306,278.9922940999968,278.9922940999968,None,280.22592690004967,None,,,,,,,11024,001,2024_Jan_07_1119,ANT,2021.2.3,59.80056508664466,
1,3,no,up,IC,L,,,,,,Block.xlsx,"你已经完成了第一个实验区组

请稍作休息


点击空格键进入下一个区组。",50,0,1.5,left,RRLRR.png,,,,,0,0,0,0,0,4,4,2,,,,,,,,,,,,,,,,,,,,,,,,,,,,,,,,,,,,,,,,,,,,,,,,,,,,,,,,,,,,,,,,280.62613830005284,281.02786240004934,281.01104100001976,281.110183199984,281.5123642999679,None,left,1,0.5787277999334037,281.5123642999679,None,281.01104100001976,281.110183199984,281.110183199984,None,282.11162760003936,None,,,,,,,11024,001,2024_Jan_07_1119,ANT,2021.2.3,59.80056508664466,
1,7,no,down,IC,L,,,,,,Block.xlsx,"你已经完成了第一个实验区组

请稍作休息


点击空格键进入下一个区组。",50,0,-1.5,left,RRLRR.png,,,,,0,0,0,0,0,5,5,6,,,,,,,,,,,,,,,,,,,,,,,,,,,,,,,,,,,,,,,,,,,,,,,,,,,,,,,,,,,,,,,,282.5120302999858,282.91379739996046,282.89647699997295,282.99827370001003,283.39891650003847,None,left,1,0.6197892000200227,283.39891650003847,None,282.89647699997295,282.99827370001003,282.99827370001003,None,284.04778360005,None,,,,,,,11024,001,2024_Jan_07_1119,ANT,2021.2.3,59.80056508664466,
1,17,spatial,up,C,L,,,,,,Block.xlsx,"你已经完成了第一个实验区组

请稍作休息


点击空格键进入下一个区组。",1.5,0,1.5,left,LLLLL.png,,,,,0,0,0,0,0,6,6,16,,,,,,,,,,,,,,,,,,,,,,,,,,,,,,,,,,,,,,,,,,,,,,,,,,,,,,,,,,,,,,,,284.44879100006074,284.8499850999797,284.8331404000055,284.93369370000437,285.3332875999622,None,left,1,0.469395799911581,285.3332875999622,None,284.8331404000055,284.93369370000437,284.93369370000437,None,285.8340470000403,None,,,,,,,11024,001,2024_Jan_07_1119,ANT,2021.2.3,59.80056508664466,
1,8,no,down,IC,R,,,,,,Block.xlsx,"你已经完成了第一个实验区组

请稍作休息


点击空格键进入下一个区组。",50,0,-1.5,right,LLRLL.png,,,,,0,0,0,0,0,7,7,7,,,,,,,,,,,,,,,,,,,,,,,,,,,,,,,,,,,,,,,,,,,,,,,,,,,,,,,,,,,,,,,,286.2356976000592,286.6357390000485,286.61971180001274,286.71976560004987,287.11957570002414,None,right,1,0.6517204000847414,287.11957570002414,None,286.61971180001274,286.71976560004987,286.71976560004987,None,287.78668619995005,None,,,,,,,11024,001,2024_Jan_07_1119,ANT,2021.2.3,59.80056508664466,
1,1,no,up,C,L,,,,,,Block.xlsx,"你已经完成了第一个实验区组

请稍作休息


点击空格键进入下一个区组。",50,0,1.5,left,LLLLL.png,,,,,0,0,0,0,0,8,8,0,,,,,,,,,,,,,,,,,,,,,,,,,,,,,,,,,,,,,,,,,,,,,,,,,,,,,,,,,,,,,,,,288.1880952999927,288.5891278999625,288.5731713999994,288.6886148999911,289.0739849000238,None,left,1,0.6247261000098661,289.0739849000238,None,288.5731713999994,288.6886148999911,288.673035099986,None,289.72309210000094,None,,,,,,,11024,001,2024_Jan_07_1119,ANT,2021.2.3,59.80056508664466,
1,24,spatial,down,IC,R,,,,,,Block.xlsx,"你已经完成了第一个实验区组

请稍作休息


点击空格键进入下一个区组。",-1.5,0,-1.5,right,LLRLL.png,,,,,0,0,0,0,0,9,9,23,,,,,,,,,,,,,,,,,,,,,,,,,,,,,,,,,,,,,,,,,,,,,,,,,,,,,,,,,,,,,,,,290.1235016999999,290.52596510003787,290.5080352999503,290.60844089998864,291.0098237999482,None,right,1,0.609030400053598,291.0098237999482,None,290.5080352999503,290.60844089998864,290.60844089998864,None,291.6428764000302,None,,,,,,,11024,001,2024_Jan_07_1119,ANT,2021.2.3,59.80056508664466,
1,3,no,up,IC,L,,,,,,Block.xlsx,"你已经完成了第一个实验区组

请稍作休息


点击空格键进入下一个区组。",50,0,1.5,left,RRLRR.png,,,,,0,0,0,0,0,10,10,2,,,,,,,,,,,,,,,,,,,,,,,,,,,,,,,,,,,,,,,,,,,,,,,,,,,,,,,,,,,,,,,,292.0433739,292.44484739995096,292.42765510000754,292.52942819998134,292.9284352000104,None,left,1,0.6673577999463305,292.9284352000104,None,292.42765510000754,292.52942819998134,292.52942819998134,None,293.61198619997595,None,,,,,,,11024,001,2024_Jan_07_1119,ANT,2021.2.3,59.80056508664466,
1,21,spatial,down,C,L,,,,,,Block.xlsx,"你已经完成了第一个实验区组

请稍作休息


点击空格键进入下一个区组。",-1.5,0,-1.5,left,LLLLL.png,,,,,0,0,0,0,0,11,11,20,,,,,,,,,,,,,,,,,,,,,,,,,,,,,,,,,,,,,,,,,,,,,,,,,,,,,,,,,,,,,,,,294.0135043000337,294.413981199963,294.3971321999561,294.49813700001687,294.8978354999563,None,left,1,0.48922610003501177,294.8978354999563,None,294.3971321999561,294.49813700001687,294.49813700001687,None,295.41471769998316,None,,,,,,,11024,001,2024_Jan_07_1119,ANT,2021.2.3,59.80056508664466,
1,15,center,down,IC,L,,,,,,Block.xlsx,"你已经完成了第一个实验区组

请稍作休息


点击空格键进入下一个区组。",0,50,-1.5,left,RRLRR.png,,,,,0,0,0,0,0,12,12,14,,,,,,,,,,,,,,,,,,,,,,,,,,,,,,,,,,,,,,,,,,,,,,,,,,,,,,,,,,,,,,,,295.8152599000605,296.216673500021,296.1999813000439,296.2998049999587,296.70120050001424,None,left,1,0.6938574000960216,296.70120050001424,None,296.1999813000439,296.2998049999587,296.2998049999587,None,297.41802940005437,None,,,,,,,11024,001,2024_Jan_07_1119,ANT,2021.2.3,59.80056508664466,
1,12,center,up,IC,R,,,,,,Block.xlsx,"你已经完成了第一个实验区组

请稍作休息


点击空格键进入下一个区组。",0,50,1.5,right,LLRLL.png,,,,,0,0,0,0,0,13,13,11,,,,,,,,,,,,,,,,,,,,,,,,,,,,,,,,,,,,,,,,,,,,,,,,,,,,,,,,,,,,,,,,297.81831710005645,298.21955499995966,298.20282480004244,298.30438750004396,298.70392510003876,None,right,1,0.5474663000786677,298.70392510003876,None,298.20282480004244,298.30438750004396,298.30438750004396,None,299.27040040004067,None,,,,,,,11024,001,2024_Jan_07_1119,ANT,2021.2.3,59.80056508664466,
1,11,center,up,IC,L,,,,,,Block.xlsx,"你已经完成了第一个实验区组

请稍作休息


点击空格键进入下一个区组。",0,50,1.5,left,RRLRR.png,,,,,0,0,0,0,0,14,14,10,,,,,,,,,,,,,,,,,,,,,,,,,,,,,,,,,,,,,,,,,,,,,,,,,,,,,,,,,,,,,,,,299.6715886000311,300.0736770000076,300.05560920003336,300.15560299996287,300.55749300005846,None,left,1,0.5497532000299543,300.55749300005846,None,300.05560920003336,300.15560299996287,300.15560299996287,None,301.12352749996353,None,,,,,,,11024,001,2024_Jan_07_1119,ANT,2021.2.3,59.80056508664466,
1,6,no,down,C,R,,,,,,Block.xlsx,"你已经完成了第一个实验区组

请稍作休息


点击空格键进入下一个区组。",50,0,-1.5,right,RRRRR.png,,,,,0,0,0,0,0,15,15,5,,,,,,,,,,,,,,,,,,,,,,,,,,,,,,,,,,,,,,,,,,,,,,,,,,,,,,,,,,,,,,,,301.52476389997173,301.92481580004096,301.9085391999688,302.0080594000174,302.4090159999905,None,right,1,0.5941878999583423,302.4090159999905,None,301.9085391999688,302.0080594000174,302.0080594000174,None,303.02664189995266,None,,,,,,,11024,001,2024_Jan_07_1119,ANT,2021.2.3,59.80056508664466,
1,15,center,down,IC,L,,,,,,Block.xlsx,"你已经完成了第一个实验区组

请稍作休息


点击空格键进入下一个区组。",0,50,-1.5,left,RRLRR.png,,,,,0,0,0,0,0,16,16,14,,,,,,,,,,,,,,,,,,,,,,,,,,,,,,,,,,,,,,,,,,,,,,,,,,,,,,,,,,,,,,,,303.42741859995294,303.8277661000611,303.81199299998116,303.9113219999708,304.31148020003457,None,left,1,0.5713251000270247,304.31148020003457,None,303.81199299998116,303.9113219999708,303.9113219999708,None,304.91190069995355,None,,,,,,,11024,001,2024_Jan_07_1119,ANT,2021.2.3,59.80056508664466,
1,5,no,down,C,L,,,,,,Block.xlsx,"你已经完成了第一个实验区组

请稍作休息


点击空格键进入下一个区组。",50,0,-1.5,left,LLLLL.png,,,,,0,0,0,0,0,17,17,4,,,,,,,,,,,,,,,,,,,,,,,,,,,,,,,,,,,,,,,,,,,,,,,,,,,,,,,,,,,,,,,,305.3137687999988,305.71517380001023,305.6970610000426,305.79748439998366,306.19732060004026,None,left,1,0.5094808998983353,306.19732060004026,None,305.6970610000426,305.79748439998366,305.79748439998366,None,306.73204400006216,None,,,,,,,11024,001,2024_Jan_07_1119,ANT,2021.2.3,59.80056508664466,
1,4,no,up,IC,R,,,,,,Block.xlsx,"你已经完成了第一个实验区组

请稍作休息


点击空格键进入下一个区组。",50,0,1.5,right,LLRLL.png,,,,,0,0,0,0,0,18,18,3,,,,,,,,,,,,,,,,,,,,,,,,,,,,,,,,,,,,,,,,,,,,,,,,,,,,,,,,,,,,,,,,307.1334191999631,307.533380900044,307.5173375000013,307.63338160002604,308.0186999000143,None,right,1,0.576392599963583,308.0186999000143,None,307.5173375000013,307.63338160002604,307.61729680001736,None,308.617760400055,None,,,,,,,11024,001,2024_Jan_07_1119,ANT,2021.2.3,59.80056508664466,
1,11,center,up,IC,L,,,,,,Block.xlsx,"你已经完成了第一个实验区组

请稍作休息


点击空格键进入下一个区组。",0,50,1.5,left,RRLRR.png,,,,,0,0,0,0,0,19,19,10,,,,,,,,,,,,,,,,,,,,,,,,,,,,,,,,,,,,,,,,,,,,,,,,,,,,,,,,,,,,,,,,309.0181541000493,309.4204844000051,309.40270920004696,309.50311859999783,309.9028894000221,None,left,1,0.5885284000542015,309.9028894000221,None,309.40270920004696,309.50311859999783,309.50311859999783,None,310.5209370000521,None,,,,,,,11024,001,2024_Jan_07_1119,ANT,2021.2.3,59.80056508664466,
1,8,no,down,IC,R,,,,,,Block.xlsx,"你已经完成了第一个实验区组

请稍作休息


点击空格键进入下一个区组。",50,0,-1.5,right,LLRLL.png,,,,,0,0,0,0,0,20,20,7,,,,,,,,,,,,,,,,,,,,,,,,,,,,,,,,,,,,,,,,,,,,,,,,,,,,,,,,,,,,,,,,310.92160370002966,311.32275649998337,311.3054570000386,311.40532550006174,311.80658900004346,None,right,1,0.5810194000368938,311.80658900004346,None,311.3054570000386,311.40532550006174,311.40532550006174,None,312.40647879999597,None,,,,,,,11024,001,2024_Jan_07_1119,ANT,2021.2.3,59.80056508664466,
1,10,center,up,C,R,,,,,,Block.xlsx,"你已经完成了第一个实验区组

请稍作休息


点击空格键进入下一个区组。",0,50,1.5,right,RRRRR.png,,,,,0,0,0,0,0,21,21,9,,,,,,,,,,,,,,,,,,,,,,,,,,,,,,,,,,,,,,,,,,,,,,,,,,,,,,,,,,,,,,,,312.8089420000324,313.20798349997494,313.1928312999662,313.29206440004054,313.6924724000273,None,right,1,0.5506723000435159,313.6924724000273,None,313.1928312999662,313.29206440004054,313.29206440004054,None,314.25913879997097,None,,,,,,,11024,001,2024_Jan_07_1119,ANT,2021.2.3,59.80056508664466,
1,14,center,down,C,R,,,,,,Block.xlsx,"你已经完成了第一个实验区组

请稍作休息


点击空格键进入下一个区组。",0,50,-1.5,right,RRRRR.png,,,,,0,0,0,0,0,22,22,13,,,,,,,,,,,,,,,,,,,,,,,,,,,,,,,,,,,,,,,,,,,,,,,,,,,,,,,,,,,,,,,,314.66097660001833,315.0616877999855,315.0434684000211,315.1446401999565,315.54532819997985,None,right,1,0.9296915999148041,315.54532819997985,None,315.0434684000211,315.1446401999565,315.1446401999565,None,316.4959627999924,None,,,,,,,11024,001,2024_Jan_07_1119,ANT,2021.2.3,59.80056508664466,
1,10,center,up,C,R,,,,,,Block.xlsx,"你已经完成了第一个实验区组

请稍作休息


点击空格键进入下一个区组。",0,50,1.5,right,RRRRR.png,,,,,0,0,0,0,0,23,23,9,,,,,,,,,,,,,,,,,,,,,,,,,,,,,,,,,,,,,,,,,,,,,,,,,,,,,,,,,,,,,,,,316.89728110004216,317.298022700008,317.28118799999356,317.381177400006,317.7824764000252,None,right,1,0.5884988000616431,317.7824764000252,None,317.28118799999356,317.381177400006,317.381177400006,None,318.3994227000512,None,,,,,,,11024,001,2024_Jan_07_1119,ANT,2021.2.3,59.80056508664466,
1,12,center,up,IC,R,,,,,,Block.xlsx,"你已经完成了第一个实验区组

请稍作休息


点击空格键进入下一个区组。",0,50,1.5,right,LLRLL.png,,,,,0,0,0,0,1,0,24,11,,,,,,,,,,,,,,,,,,,,,,,,,,,,,,,,,,,,,,,,,,,,,,,,,,,,,,,,,,,,,,,,318.79942669998854,319.20123070001137,319.18396639998537,319.284063900006,319.6846938000526,None,right,1,0.6941322000930086,319.6846938000526,None,319.18396639998537,319.284063900006,319.284063900006,None,320.401690699975,None,,,,,,,11024,001,2024_Jan_07_1119,ANT,2021.2.3,59.80056508664466,
1,13,center,down,C,L,,,,,,Block.xlsx,"你已经完成了第一个实验区组

请稍作休息


点击空格键进入下一个区组。",0,50,-1.5,left,LLLLL.png,,,,,0,0,0,0,1,1,25,12,,,,,,,,,,,,,,,,,,,,,,,,,,,,,,,,,,,,,,,,,,,,,,,,,,,,,,,,,,,,,,,,320.8022589000175,321.2047851999523,321.18709929997567,321.2877862000605,321.6877563999733,None,left,1,0.6429969000164419,321.6877563999733,None,321.18709929997567,321.2877862000605,321.2877862000605,None,322.3544908000622,None,,,,,,,11024,001,2024_Jan_07_1119,ANT,2021.2.3,59.80056508664466,
1,4,no,up,IC,R,,,,,,Block.xlsx,"你已经完成了第一个实验区组

请稍作休息


点击空格键进入下一个区组。",50,0,1.5,right,LLRLL.png,,,,,0,0,0,0,1,2,26,3,,,,,,,,,,,,,,,,,,,,,,,,,,,,,,,,,,,,,,,,,,,,,,,,,,,,,,,,,,,,,,,,322.75513970002066,323.15656469995156,323.1397396000102,323.2403992000036,323.64081400004216,None,right,1,0.5382841000100598,323.64081400004216,None,323.1397396000102,323.2403992000036,323.2403992000036,None,324.20747979998123,None,,,,,,,11024,001,2024_Jan_07_1119,ANT,2021.2.3,59.80056508664466,
1,7,no,down,IC,L,,,,,,Block.xlsx,"你已经完成了第一个实验区组

请稍作休息


点击空格键进入下一个区组。",50,0,-1.5,left,RRLRR.png,,,,,0,0,0,0,1,3,27,6,,,,,,,,,,,,,,,,,,,,,,,,,,,,,,,,,,,,,,,,,,,,,,,,,,,,,,,,,,,,,,,,324.60776459996123,325.01062730001286,324.9922937999945,325.0929307000479,325.4941692999564,None,left,1,0.7649774999590591,325.4941692999564,None,324.9922937999945,325.0929307000479,325.0929307000479,None,326.2770714999642,None,,,,,,,11024,001,2024_Jan_07_1119,ANT,2021.2.3,59.80056508664466,
1,19,spatial,up,IC,L,,,,,,Block.xlsx,"你已经完成了第一个实验区组

请稍作休息


点击空格键进入下一个区组。",1.5,0,1.5,left,RRLRR.png,,,,,0,0,0,0,1,4,28,18,,,,,,,,,,,,,,,,,,,,,,,,,,,,,,,,,,,,,,,,,,,,,,,,,,,,,,,,,,,,,,,,326.6784633999923,327.0794561000075,327.06254329998046,327.16230820002966,327.5626484999666,None,left,1,0.5133354000281543,327.5626484999666,None,327.06254329998046,327.16230820002966,327.16230820002966,None,328.09637080004904,None,,,,,,,11024,001,2024_Jan_07_1119,ANT,2021.2.3,59.80056508664466,
1,24,spatial,down,IC,R,,,,,,Block.xlsx,"你已经完成了第一个实验区组

请稍作休息


点击空格键进入下一个区组。",-1.5,0,-1.5,right,LLRLL.png,,,,,0,0,0,0,1,5,29,23,,,,,,,,,,,,,,,,,,,,,,,,,,,,,,,,,,,,,,,,,,,,,,,,,,,,,,,,,,,,,,,,328.49784309999086,328.89793029997963,328.8829775999766,328.9824627999915,329.38236679998226,None,right,1,0.46931700001005083,329.38236679998226,None,328.8829775999766,328.9824627999915,328.9824627999915,None,329.88247780001257,None,,,,,,,11024,001,2024_Jan_07_1119,ANT,2021.2.3,59.80056508664466,
1,24,spatial,down,IC,R,,,,,,Block.xlsx,"你已经完成了第一个实验区组

请稍作休息


点击空格键进入下一个区组。",-1.5,0,-1.5,right,LLRLL.png,,,,,0,0,0,0,1,6,30,23,,,,,,,,,,,,,,,,,,,,,,,,,,,,,,,,,,,,,,,,,,,,,,,,,,,,,,,,,,,,,,,,330.28358279995155,330.68489829998,330.6670109999832,330.7681549000554,331.16763329994865,None,right,1,0.4752003999892622,331.16763329994865,None,330.6670109999832,330.7681549000554,330.7681549000554,None,331.6681470000185,None,,,,,,,11024,001,2024_Jan_07_1119,ANT,2021.2.3,59.80056508664466,
1,19,spatial,up,IC,L,,,,,,Block.xlsx,"你已经完成了第一个实验区组

请稍作休息


点击空格键进入下一个区组。",1.5,0,1.5,left,RRLRR.png,,,,,0,0,0,0,1,7,31,18,,,,,,,,,,,,,,,,,,,,,,,,,,,,,,,,,,,,,,,,,,,,,,,,,,,,,,,,,,,,,,,,332.06908030004706,332.47014470002614,332.4536049000453,332.5538226000499,332.9535966999829,None,left,1,0.457329299999401,332.9535966999829,None,332.4536049000453,332.5538226000499,332.5538226000499,None,333.43779170000926,None,,,,,,,11024,001,2024_Jan_07_1119,ANT,2021.2.3,59.80056508664466,
1,20,spatial,up,IC,R,,,,,,Block.xlsx,"你已经完成了第一个实验区组

请稍作休息


点击空格键进入下一个区组。",1.5,0,1.5,right,LLRLL.png,,,,,0,0,0,0,1,8,32,19,,,,,,,,,,,,,,,,,,,,,,,,,,,,,,,,,,,,,,,,,,,,,,,,,,,,,,,,,,,,,,,,333.8382885999745,334.2402000000002,334.2229613000527,334.32398450002074,334.72349130001385,None,right,1,0.5434059000108391,334.72349130001385,None,334.2229613000527,334.32398450002074,334.32398450002074,None,335.29101309995167,None,,,,,,,11024,001,2024_Jan_07_1119,ANT,2021.2.3,59.80056508664466,
1,17,spatial,up,C,L,,,,,,Block.xlsx,"你已经完成了第一个实验区组

请稍作休息


点击空格键进入下一个区组。",1.5,0,1.5,left,LLLLL.png,,,,,0,0,0,0,1,9,33,16,,,,,,,,,,,,,,,,,,,,,,,,,,,,,,,,,,,,,,,,,,,,,,,,,,,,,,,,,,,,,,,,335.6918682999676,336.09364740003366,336.0755429000128,336.17585300002247,336.57638990005944,None,left,1,0.3948888999875635,336.57638990005944,None,336.0755429000128,336.17585300002247,336.17585300002247,None,336.99350219999906,None,,,,,,,11024,001,2024_Jan_07_1119,ANT,2021.2.3,59.80056508664466,
1,18,spatial,up,C,R,,,,,,Block.xlsx,"你已经完成了第一个实验区组

请稍作休息


点击空格键进入下一个区组。",1.5,0,1.5,right,RRRRR.png,,,,,0,0,0,0,1,10,34,17,,,,,,,,,,,,,,,,,,,,,,,,,,,,,,,,,,,,,,,,,,,,,,,,,,,,,,,,,,,,,,,,337.39344600006007,337.7944331000326,337.77786240004934,337.87875989999156,338.27968379994854,None,right,1,0.4510973000433296,338.27968379994854,None,337.77786240004934,337.87875989999156,337.87875989999156,None,338.76289270003326,None,,,,,,,11024,001,2024_Jan_07_1119,ANT,2021.2.3,59.80056508664466,
1,10,center,up,C,R,,,,,,Block.xlsx,"你已经完成了第一个实验区组

请稍作休息


点击空格键进入下一个区组。",0,50,1.5,right,RRRRR.png,,,,,0,0,0,0,1,11,35,9,,,,,,,,,,,,,,,,,,,,,,,,,,,,,,,,,,,,,,,,,,,,,,,,,,,,,,,,,,,,,,,,339.1634948999854,339.56403879995923,339.5473200000124,339.6472336000297,340.04766939999536,None,right,1,0.3954546001041308,340.04766939999536,None,339.5473200000124,339.6472336000297,339.6472336000297,None,340.4648175999755,None,,,,,,,11024,001,2024_Jan_07_1119,ANT,2021.2.3,59.80056508664466,
1,2,no,up,C,R,,,,,,Block.xlsx,"你已经完成了第一个实验区组

请稍作休息


点击空格键进入下一个区组。",50,0,1.5,right,RRRRR.png,,,,,0,0,0,0,1,12,36,1,,,,,,,,,,,,,,,,,,,,,,,,,,,,,,,,,,,,,,,,,,,,,,,,,,,,,,,,,,,,,,,,340.8665595999919,341.2667482000543,341.2503143999493,341.35034200001974,341.75073620001785,None,right,1,0.516652200021781,341.75073620001785,None,341.2503143999493,341.35034200001974,341.35034200001974,None,342.28412590001244,None,,,,,,,11024,001,2024_Jan_07_1119,ANT,2021.2.3,59.80056508664466,
1,5,no,down,C,L,,,,,,Block.xlsx,"你已经完成了第一个实验区组

请稍作休息


点击空格键进入下一个区组。",50,0,-1.5,left,LLLLL.png,,,,,0,0,0,0,1,13,37,4,,,,,,,,,,,,,,,,,,,,,,,,,,,,,,,,,,,,,,,,,,,,,,,,,,,,,,,,,,,,,,,,342.6846470000455,343.08650810003746,343.0699955000309,343.17062320001423,343.56956390000414,None,left,1,0.4973891999106854,343.56956390000414,None,343.0699955000309,343.17062320001423,343.17062320001423,None,344.0867952000117,None,,,,,,,11024,001,2024_Jan_07_1119,ANT,2021.2.3,59.80056508664466,
1,16,center,down,IC,R,,,,,,Block.xlsx,"你已经完成了第一个实验区组

请稍作休息


点击空格键进入下一个区组。",0,50,-1.5,right,LLRLL.png,,,,,0,0,0,0,1,14,38,15,,,,,,,,,,,,,,,,,,,,,,,,,,,,,,,,,,,,,,,,,,,,,,,,,,,,,,,,,,,,,,,,344.4880899999989,344.88915189995896,344.8711426999653,344.97211540001445,345.373189899954,None,left,0,0.5178229999728501,345.373189899954,None,344.8711426999653,344.97211540001445,344.97211540001445,None,345.90654949995223,None,,,,,,,11024,001,2024_Jan_07_1119,ANT,2021.2.3,59.80056508664466,
1,16,center,down,IC,R,,,,,,Block.xlsx,"你已经完成了第一个实验区组

请稍作休息


点击空格键进入下一个区组。",0,50,-1.5,right,LLRLL.png,,,,,0,0,0,0,1,15,39,15,,,,,,,,,,,,,,,,,,,,,,,,,,,,,,,,,,,,,,,,,,,,,,,,,,,,,,,,,,,,,,,,346.30679499998223,346.7086257999763,346.69136779999826,346.79224109998904,347.1919866000535,None,right,1,0.4993440000107512,347.1919866000535,None,346.69136779999826,346.79224109998904,346.79224109998904,None,347.7091795000015,None,,,,,,,11024,001,2024_Jan_07_1119,ANT,2021.2.3,59.80056508664466,
1,22,spatial,down,C,R,,,,,,Block.xlsx,"你已经完成了第一个实验区组

请稍作休息


点击空格键进入下一个区组。",-1.5,0,-1.5,right,RRRRR.png,,,,,0,0,0,0,1,16,40,21,,,,,,,,,,,,,,,,,,,,,,,,,,,,,,,,,,,,,,,,,,,,,,,,,,,,,,,,,,,,,,,,348.1100381000433,348.5110814999789,348.49566669994965,348.6108909000177,348.994709599996,None,right,1,0.4884825999615714,348.994709599996,None,348.49566669994965,348.6108909000177,348.5936376999598,None,349.51144130004104,None,,,,,,,11024,001,2024_Jan_07_1119,ANT,2021.2.3,59.80056508664466,
1,18,spatial,up,C,R,,,,,,Block.xlsx,"你已经完成了第一个实验区组

请稍作休息


点击空格键进入下一个区组。",1.5,0,1.5,right,RRRRR.png,,,,,0,0,0,0,1,17,41,17,,,,,,,,,,,,,,,,,,,,,,,,,,,,,,,,,,,,,,,,,,,,,,,,,,,,,,,,,,,,,,,,349.9129016000079,350.31352680001874,350.29680729995016,350.39759399998,350.7978690000018,None,right,1,0.48588870000094175,350.7978690000018,None,350.29680729995016,350.39759399998,350.39759399998,None,351.3141383000184,None,,,,,,,11024,001,2024_Jan_07_1119,ANT,2021.2.3,59.80056508664466,
1,21,spatial,down,C,L,,,,,,Block.xlsx,"你已经完成了第一个实验区组

请稍作休息


点击空格键进入下一个区组。",-1.5,0,-1.5,left,LLLLL.png,,,,,0,0,0,0,1,18,42,20,,,,,,,,,,,,,,,,,,,,,,,,,,,,,,,,,,,,,,,,,,,,,,,,,,,,,,,,,,,,,,,,351.71486249996815,352.11595869995654,352.1002347000176,352.1998157000635,352.6002966000233,None,left,1,0.37077010003849864,352.6002966000233,None,352.1002347000176,352.1998157000635,352.1998157000635,None,352.99996879999526,None,,,,,,,11024,001,2024_Jan_07_1119,ANT,2021.2.3,59.80056508664466,
1,23,spatial,down,IC,L,,,,,,Block.xlsx,"你已经完成了第一个实验区组

请稍作休息


点击空格键进入下一个区组。",-1.5,0,-1.5,left,RRLRR.png,,,,,0,0,0,0,1,19,43,22,,,,,,,,,,,,,,,,,,,,,,,,,,,,,,,,,,,,,,,,,,,,,,,,,,,,,,,,,,,,,,,,353.40135040006135,353.8021431999514,353.78664349997416,353.9019740000367,354.28581819997635,None,left,1,0.5572460000403225,354.28581819997635,None,353.78664349997416,353.9019740000367,353.885974099976,None,354.86967120005284,None,,,,,,,11024,001,2024_Jan_07_1119,ANT,2021.2.3,59.80056508664466,
1,14,center,down,C,R,,,,,,Block.xlsx,"你已经完成了第一个实验区组

请稍作休息


点击空格键进入下一个区组。",0,50,-1.5,right,RRRRR.png,,,,,0,0,0,0,1,20,44,13,,,,,,,,,,,,,,,,,,,,,,,,,,,,,,,,,,,,,,,,,,,,,,,,,,,,,,,,,,,,,,,,355.2707127999747,355.6709659000626,355.6557833000552,355.75541350001004,356.15546210005414,None,right,1,0.4394799000583589,356.15546210005414,None,355.6557833000552,355.75541350001004,355.75541350001004,None,356.6218982000137,None,,,,,,,11024,001,2024_Jan_07_1119,ANT,2021.2.3,59.80056508664466,
1,22,spatial,down,C,R,,,,,,Block.xlsx,"你已经完成了第一个实验区组

请稍作休息


点击空格键进入下一个区组。",-1.5,0,-1.5,right,RRRRR.png,,,,,0,0,0,0,1,21,45,21,,,,,,,,,,,,,,,,,,,,,,,,,,,,,,,,,,,,,,,,,,,,,,,,,,,,,,,,,,,,,,,,357.0233389000641,357.42378219997045,357.40776390000246,357.50780150003266,357.90944269998,None,right,1,0.4297903999686241,357.90944269998,None,357.40776390000246,357.50780150003266,357.50780150003266,None,358.3584790000459,None,,,,,,,11024,001,2024_Jan_07_1119,ANT,2021.2.3,59.80056508664466,
1,20,spatial,up,IC,R,,,,,,Block.xlsx,"你已经完成了第一个实验区组

请稍作休息


点击空格键进入下一个区组。",1.5,0,1.5,right,LLRLL.png,,,,,0,0,0,0,1,22,46,19,,,,,,,,,,,,,,,,,,,,,,,,,,,,,,,,,,,,,,,,,,,,,,,,,,,,,,,,,,,,,,,,358.7592462999746,359.16132299997844,359.14314249996096,359.2431348999962,359.6438373000128,None,right,1,0.5430510001024231,359.6438373000128,None,359.14314249996096,359.2431348999962,359.2431348999962,None,360.2106821000343,None,,,,,,,11024,001,2024_Jan_07_1119,ANT,2021.2.3,59.80056508664466,
1,21,spatial,down,C,L,,,,,,Block.xlsx,"你已经完成了第一个实验区组

请稍作休息


点击空格键进入下一个区组。",-1.5,0,-1.5,left,LLLLL.png,,,,,0,0,0,0,1,23,47,20,,,,,,,,,,,,,,,,,,,,,,,,,,,,,,,,,,,,,,,,,,,,,,,,,,,,,,,,,,,,,,,,360.61231630004477,361.0127458999632,360.99597689998336,361.09628689999226,361.49654900003225,None,left,1,0.4505561999976635,361.49654900003225,None,360.99597689998336,361.09628689999226,361.09628689999226,None,361.9635045999894,None,,,,,,,11024,001,2024_Jan_07_1119,ANT,2021.2.3,59.80056508664466,
1,20,spatial,up,IC,R,,,,,,Block.xlsx,"你已经完成了第一个实验区组

请稍作休息


点击空格键进入下一个区组。",1.5,0,1.5,right,LLRLL.png,,,,,0,0,0,0,2,0,48,19,,,,,,,,,,,,,,,,,,,,,,,,,,,,,,,,,,,,,,,,,,,,,,,,,,,,,,,,,,,,,,,,362.36378769995645,362.76607739995234,362.7484290000284,362.84984310006257,363.24907080002595,None,right,1,0.4579281999031082,363.24907080002595,None,362.7484290000284,362.84984310006257,362.84984310006257,None,363.73260099999607,None,,,,,,,11024,001,2024_Jan_07_1119,ANT,2021.2.3,59.80056508664466,
1,9,center,up,C,L,,,,,,Block.xlsx,"你已经完成了第一个实验区组

请稍作休息


点击空格键进入下一个区组。",0,50,1.5,left,LLLLL.png,,,,,0,0,0,0,2,1,49,8,,,,,,,,,,,,,,,,,,,,,,,,,,,,,,,,,,,,,,,,,,,,,,,,,,,,,,,,,,,,,,,,364.1339707999723,364.5352898000274,364.5170674000401,364.61908440000843,365.01854930003174,None,left,1,0.5288405000464991,365.01854930003174,None,364.5170674000401,364.61908440000843,364.61908440000843,None,365.5690718999831,None,,,,,,,11024,001,2024_Jan_07_1119,ANT,2021.2.3,59.80056508664466,
1,3,no,up,IC,L,,,,,,Block.xlsx,"你已经完成了第一个实验区组

请稍作休息


点击空格键进入下一个区组。",50,0,1.5,left,RRLRR.png,,,,,0,0,0,0,2,2,50,2,,,,,,,,,,,,,,,,,,,,,,,,,,,,,,,,,,,,,,,,,,,,,,,,,,,,,,,,,,,,,,,,365.9702614999842,366.37066210003104,366.35401430004276,366.45375840005,366.85487639997154,None,left,1,0.6122232999186963,366.85487639997154,None,366.35401430004276,366.45375840005,366.45375840005,None,367.488473800011,None,,,,,,,11024,001,2024_Jan_07_1119,ANT,2021.2.3,59.80056508664466,
1,2,no,up,C,R,,,,,,Block.xlsx,"你已经完成了第一个实验区组

请稍作休息


点击空格键进入下一个区组。",50,0,1.5,right,RRRRR.png,,,,,0,0,0,0,2,3,51,1,,,,,,,,,,,,,,,,,,,,,,,,,,,,,,,,,,,,,,,,,,,,,,,,,,,,,,,,,,,,,,,,367.88931929995306,368.28983979998156,368.2733159000054,368.3744681000244,368.77405290002935,None,right,1,0.4294122999999672,368.77405290002935,None,368.2733159000054,368.3744681000244,368.3744681000244,None,369.2244863000233,None,,,,,,,11024,001,2024_Jan_07_1119,ANT,2021.2.3,59.80056508664466,
1,9,center,up,C,L,,,,,,Block.xlsx,"你已经完成了第一个实验区组

请稍作休息


点击空格键进入下一个区组。",0,50,1.5,left,LLLLL.png,,,,,0,0,0,0,2,4,52,8,,,,,,,,,,,,,,,,,,,,,,,,,,,,,,,,,,,,,,,,,,,,,,,,,,,,,,,,,,,,,,,,369.6252968000481,370.02760469994973,370.009266100009,370.109352700063,370.5100192000391,None,left,1,0.3811130999820307,370.5100192000391,None,370.009266100009,370.109352700063,370.109352700063,None,370.9098202000605,None,,,,,,,11024,001,2024_Jan_07_1119,ANT,2021.2.3,59.80056508664466,
1,1,no,up,C,L,,,,,,Block.xlsx,"你已经完成了第一个实验区组

请稍作休息


点击空格键进入下一个区组。",50,0,1.5,left,LLLLL.png,,,,,0,0,0,0,2,5,53,0,,,,,,,,,,,,,,,,,,,,,,,,,,,,,,,,,,,,,,,,,,,,,,,,,,,,,,,,,,,,,,,,371.3102439000504,371.713693000027,371.6953761000186,371.7952379999915,372.1958054000279,None,left,1,0.527159700053744,372.1958054000279,None,371.6953761000186,371.7952379999915,371.7952379999915,None,372.745847000042,None,,,,,,,11024,001,2024_Jan_07_1119,ANT,2021.2.3,59.80056508664466,
1,3,no,up,IC,L,,,,,,Block.xlsx,"你已经完成了第一个实验区组

请稍作休息


点击空格键进入下一个区组。",50,0,1.5,left,RRLRR.png,,,,,0,0,0,0,2,6,54,2,,,,,,,,,,,,,,,,,,,,,,,,,,,,,,,,,,,,,,,,,,,,,,,,,,,,,,,,,,,,,,,,373.1464604999637,373.54813410004135,373.53046100004576,373.63148690003436,374.0319569000276,None,left,1,0.5402547999983653,374.0319569000276,None,373.53046100004576,373.63148690003436,373.63148690003436,None,374.59883240005,None,,,,,,,11024,001,2024_Jan_07_1119,ANT,2021.2.3,59.80056508664466,
1,23,spatial,down,IC,L,,,,,,Block.xlsx,"你已经完成了第一个实验区组

请稍作休息


点击空格键进入下一个区组。",-1.5,0,-1.5,left,RRLRR.png,,,,,0,0,0,0,2,7,55,22,,,,,,,,,,,,,,,,,,,,,,,,,,,,,,,,,,,,,,,,,,,,,,,,,,,,,,,,,,,,,,,,375.0005278000608,375.40109709999524,375.3832375999773,375.48343829996884,375.88483480003197,None,left,1,0.5101318000815809,375.88483480003197,None,375.3832375999773,375.48343829996884,375.48343829996884,None,376.41871660004836,None,,,,,,,11024,001,2024_Jan_07_1119,ANT,2021.2.3,59.80056508664466,
1,23,spatial,down,IC,L,,,,,,Block.xlsx,"你已经完成了第一个实验区组

请稍作休息


点击空格键进入下一个区组。",-1.5,0,-1.5,left,RRLRR.png,,,,,0,0,0,0,2,8,56,22,,,,,,,,,,,,,,,,,,,,,,,,,,,,,,,,,,,,,,,,,,,,,,,,,,,,,,,,,,,,,,,,376.8193155999761,377.2203621000517,377.20356110006105,377.3039455000544,377.70417429995723,None,left,1,0.6589883000124246,377.70417429995723,None,377.20356110006105,377.3039455000544,377.3039455000544,None,378.38773489999585,None,,,,,,,11024,001,2024_Jan_07_1119,ANT,2021.2.3,59.80056508664466,
1,5,no,down,C,L,,,,,,Block.xlsx,"你已经完成了第一个实验区组

请稍作休息


点击空格键进入下一个区组。",50,0,-1.5,left,LLLLL.png,,,,,0,0,0,0,2,9,57,4,,,,,,,,,,,,,,,,,,,,,,,,,,,,,,,,,,,,,,,,,,,,,,,,,,,,,,,,,,,,,,,,378.7891651999671,379.1894909000257,379.1727161000017,379.2742051000241,379.6729506000411,None,left,1,0.42595119995530695,379.6729506000411,None,379.1727161000017,379.2742051000241,379.2742051000241,None,380.12341550004203,None,,,,,,,11024,001,2024_Jan_07_1119,ANT,2021.2.3,59.80056508664466,
1,8,no,down,IC,R,,,,,,Block.xlsx,"你已经完成了第一个实验区组

请稍作休息


点击空格键进入下一个区组。",50,0,-1.5,right,LLRLL.png,,,,,0,0,0,0,2,10,58,7,,,,,,,,,,,,,,,,,,,,,,,,,,,,,,,,,,,,,,,,,,,,,,,,,,,,,,,,,,,,,,,,380.52429690002464,380.9247344000032,380.90859290002845,381.0091934000375,381.4094278999837,None,right,1,0.6895351000130177,381.4094278999837,None,380.90859290002845,381.0091934000375,381.0091934000375,None,382.1264475999633,None,,,,,,,11024,001,2024_Jan_07_1119,ANT,2021.2.3,59.80056508664466,
1,22,spatial,down,C,R,,,,,,Block.xlsx,"你已经完成了第一个实验区组

请稍作休息


点击空格键进入下一个区组。",-1.5,0,-1.5,right,RRRRR.png,,,,,0,0,0,0,2,11,59,21,,,,,,,,,,,,,,,,,,,,,,,,,,,,,,,,,,,,,,,,,,,,,,,,,,,,,,,,,,,,,,,,382.5282223999966,382.9284442999633,382.91271209996194,383.0118986000307,383.4127397000557,None,right,1,0.4461758000543341,383.4127397000557,None,382.91271209996194,383.0118986000307,383.0118986000307,None,383.87909709999803,None,,,,,,,11024,001,2024_Jan_07_1119,ANT,2021.2.3,59.80056508664466,
1,1,no,up,C,L,,,,,,Block.xlsx,"你已经完成了第一个实验区组

请稍作休息


点击空格键进入下一个区组。",50,0,1.5,left,LLLLL.png,,,,,0,0,0,0,2,12,60,0,,,,,,,,,,,,,,,,,,,,,,,,,,,,,,,,,,,,,,,,,,,,,,,,,,,,,,,,,,,,,,,,384.2798329000361,384.67997040005866,384.6642696999479,384.7653191999998,385.16492749995086,None,left,1,0.518100899993442,385.16492749995086,None,384.6642696999479,384.7653191999998,384.7653191999998,None,385.6984777000034,None,,,,,,,11024,001,2024_Jan_07_1119,ANT,2021.2.3,59.80056508664466,
1,6,no,down,C,R,,,,,,Block.xlsx,"你已经完成了第一个实验区组

请稍作休息


点击空格键进入下一个区组。",50,0,-1.5,right,RRRRR.png,,,,,0,0,0,0,2,13,61,5,,,,,,,,,,,,,,,,,,,,,,,,,,,,,,,,,,,,,,,,,,,,,,,,,,,,,,,,,,,,,,,,386.09907130000647,386.50033229996916,386.48494560003746,386.5838015000336,386.98442900006194,None,right,1,0.5153847000328824,386.98442900006194,None,386.48494560003746,386.5838015000336,386.5838015000336,None,387.5181156999897,None,,,,,,,11024,001,2024_Jan_07_1119,ANT,2021.2.3,59.80056508664466,
1,1,no,up,C,L,,,,,,Block.xlsx,"你已经完成了第一个实验区组

请稍作休息


点击空格键进入下一个区组。",50,0,1.5,left,LLLLL.png,,,,,0,0,0,0,2,14,62,0,,,,,,,,,,,,,,,,,,,,,,,,,,,,,,,,,,,,,,,,,,,,,,,,,,,,,,,,,,,,,,,,387.9193108000327,388.3213847000152,388.3032048000023,388.4030332999537,388.8038263999624,None,left,1,0.4634717999724671,388.8038263999624,None,388.3032048000023,388.4030332999537,388.4030332999537,None,389.2872841999633,None,,,,,,,11024,001,2024_Jan_07_1119,ANT,2021.2.3,59.80056508664466,
1,13,center,down,C,L,,,,,,Block.xlsx,"你已经完成了第一个实验区组

请稍作休息


点击空格键进入下一个区组。",0,50,-1.5,left,LLLLL.png,,,,,0,0,0,0,2,15,63,12,,,,,,,,,,,,,,,,,,,,,,,,,,,,,,,,,,,,,,,,,,,,,,,,,,,,,,,,,,,,,,,,389.6876373999985,390.0888960000593,390.0729966999497,390.1739239000017,390.57396770000923,None,left,1,0.41341550007928163,390.57396770000923,None,390.0729966999497,390.1739239000017,390.1739239000017,None,391.00666590000037,None,,,,,,,11024,001,2024_Jan_07_1119,ANT,2021.2.3,59.80056508664466,
1,7,no,down,IC,L,,,,,,Block.xlsx,"你已经完成了第一个实验区组

请稍作休息


点击空格键进入下一个区组。",50,0,-1.5,left,RRLRR.png,,,,,0,0,0,0,2,16,64,6,,,,,,,,,,,,,,,,,,,,,,,,,,,,,,,,,,,,,,,,,,,,,,,,,,,,,,,,,,,,,,,,391.40788870002143,391.80842290003784,391.79174440004863,391.89306439994834,392.2934783999808,None,left,1,0.6301770999561995,392.2934783999808,None,391.79174440004863,391.89306439994834,391.89306439994834,None,392.9424829999916,None,,,,,,,11024,001,2024_Jan_07_1119,ANT,2021.2.3,59.80056508664466,
1,6,no,down,C,R,,,,,,Block.xlsx,"你已经完成了第一个实验区组

请稍作休息


点击空格键进入下一个区组。",50,0,-1.5,right,RRRRR.png,,,,,0,0,0,0,2,17,65,5,,,,,,,,,,,,,,,,,,,,,,,,,,,,,,,,,,,,,,,,,,,,,,,,,,,,,,,,,,,,,,,,393.34347980003804,393.7444508000044,393.72768420004286,393.82987669995055,394.22978739999235,None,right,1,0.7013644999824464,394.22978739999235,None,393.72768420004286,393.82987669995055,393.82987669995055,None,394.945280999993,None,,,,,,,11024,001,2024_Jan_07_1119,ANT,2021.2.3,59.80056508664466,
1,21,spatial,down,C,L,,,,,,Block.xlsx,"你已经完成了第一个实验区组

请稍作休息


点击空格键进入下一个区组。",-1.5,0,-1.5,left,LLLLL.png,,,,,0,0,0,0,2,18,66,20,,,,,,,,,,,,,,,,,,,,,,,,,,,,,,,,,,,,,,,,,,,,,,,,,,,,,,,,,,,,,,,,395.3461362000089,395.747946199961,395.73102669999935,395.83108240005095,396.23159690003376,None,left,1,0.40336260001640767,396.23159690003376,None,395.73102669999935,395.83108240005095,395.83108240005095,None,396.66522770002484,None,,,,,,,11024,001,2024_Jan_07_1119,ANT,2021.2.3,59.80056508664466,
1,12,center,up,IC,R,,,,,,Block.xlsx,"你已经完成了第一个实验区组

请稍作休息


点击空格键进入下一个区组。",0,50,1.5,right,LLRLL.png,,,,,0,0,0,0,2,19,67,11,,,,,,,,,,,,,,,,,,,,,,,,,,,,,,,,,,,,,,,,,,,,,,,,,,,,,,,,,,,,,,,,397.06538719998207,397.4659474999644,397.45096789998934,397.5660176000092,397.9517469999846,None,right,1,0.6194688999094069,397.9517469999846,None,397.45096789998934,397.5660176000092,397.5502237000037,None,398.6015611999901,None,,,,,,,11024,001,2024_Jan_07_1119,ANT,2021.2.3,59.80056508664466,
1,16,center,down,IC,R,,,,,,Block.xlsx,"你已经完成了第一个实验区组

请稍作休息


点击空格键进入下一个区组。",0,50,-1.5,right,LLRLL.png,,,,,0,0,0,0,2,20,68,15,,,,,,,,,,,,,,,,,,,,,,,,,,,,,,,,,,,,,,,,,,,,,,,,,,,,,,,,,,,,,,,,399.00134630000684,399.40398109995294,399.38541280000936,399.4867175000254,399.88695900002494,None,right,1,0.6280696999747306,399.88695900002494,None,399.38541280000936,399.4867175000254,399.4867175000254,None,400.537808699999,None,,,,,,,11024,001,2024_Jan_07_1119,ANT,2021.2.3,59.80056508664466,
1,24,spatial,down,IC,R,,,,,,Block.xlsx,"你已经完成了第一个实验区组

请稍作休息


点击空格键进入下一个区组。",-1.5,0,-1.5,right,LLRLL.png,,,,,0,0,0,0,2,21,69,23,,,,,,,,,,,,,,,,,,,,,,,,,,,,,,,,,,,,,,,,,,,,,,,,,,,,,,,,,,,,,,,,400.93843600002583,401.3389990000287,401.3222724000225,401.4227709999541,401.8242651000619,None,right,1,0.48289139999542385,401.8242651000619,None,401.3222724000225,401.4227709999541,401.4227709999541,None,402.3229677999625,None,,,,,,,11024,001,2024_Jan_07_1119,ANT,2021.2.3,59.80056508664466,
1,12,center,up,IC,R,,,,,,Block.xlsx,"你已经完成了第一个实验区组

请稍作休息


点击空格键进入下一个区组。",0,50,1.5,right,LLRLL.png,,,,,0,0,0,0,2,22,70,11,,,,,,,,,,,,,,,,,,,,,,,,,,,,,,,,,,,,,,,,,,,,,,,,,,,,,,,,,,,,,,,,402.72408199997153,403.12599209998734,403.1081009999616,403.2086172000272,403.6090960999718,None,right,1,0.6506099000107497,403.6090960999718,None,403.1081009999616,403.2086172000272,403.2086172000272,None,404.2760097000282,None,,,,,,,11024,001,2024_Jan_07_1119,ANT,2021.2.3,59.80056508664466,
1,6,no,down,C,R,,,,,,Block.xlsx,"你已经完成了第一个实验区组

请稍作休息


点击空格键进入下一个区组。",50,0,-1.5,right,RRRRR.png,,,,,0,0,0,0,2,23,71,5,,,,,,,,,,,,,,,,,,,,,,,,,,,,,,,,,,,,,,,,,,,,,,,,,,,,,,,,,,,,,,,,404.67711899999995,405.07745219999924,405.0603940000292,405.1611037000548,405.5614356000442,None,right,1,0.4665199000155553,405.5614356000442,None,405.0603940000292,405.1611037000548,405.1611037000548,None,406.0452514999779,None,,,,,,,11024,001,2024_Jan_07_1119,ANT,2021.2.3,59.80056508664466,
1,20,spatial,up,IC,R,,,,,,Block.xlsx,"你已经完成了第一个实验区组

请稍作休息


点击空格键进入下一个区组。",1.5,0,1.5,right,LLRLL.png,,,,,0,0,0,0,3,0,72,19,,,,,,,,,,,,,,,,,,,,,,,,,,,,,,,,,,,,,,,,,,,,,,,,,,,,,,,,,,,,,,,,406.4464763000142,406.84704270004295,406.83236849994864,406.9480137999635,407.3318437000271,None,right,1,0.4161631000461057,407.3318437000271,None,406.83236849994864,406.9480137999635,406.9310312999878,None,407.76482539996505,None,,,,,,,11024,001,2024_Jan_07_1119,ANT,2021.2.3,59.80056508664466,
1,18,spatial,up,C,R,,,,,,Block.xlsx,"你已经完成了第一个实验区组

请稍作休息


点击空格键进入下一个区组。",1.5,0,1.5,right,RRRRR.png,,,,,0,0,0,0,3,1,73,17,,,,,,,,,,,,,,,,,,,,,,,,,,,,,,,,,,,,,,,,,,,,,,,,,,,,,,,,,,,,,,,,408.1667734000366,408.56653830001596,408.5501477000071,408.64989889995195,409.05049080005847,None,right,1,0.43279790005180985,409.05049080005847,None,408.5501477000071,408.64989889995195,408.64989889995195,None,409.5005787999835,None,,,,,,,11024,001,2024_Jan_07_1119,ANT,2021.2.3,59.80056508664466,
1,2,no,up,C,R,,,,,,Block.xlsx,"你已经完成了第一个实验区组

请稍作休息


点击空格键进入下一个区组。",50,0,1.5,right,RRRRR.png,,,,,0,0,0,0,3,2,74,1,,,,,,,,,,,,,,,,,,,,,,,,,,,,,,,,,,,,,,,,,,,,,,,,,,,,,,,,,,,,,,,,409.90144869999494,410.30238010000903,410.2856312999502,410.3850342000369,410.78618169995025,None,right,1,0.5049024999607354,410.78618169995025,None,410.2856312999502,410.3850342000369,410.3850342000369,None,411.31978100002743,None,,,,,,,11024,001,2024_Jan_07_1119,ANT,2021.2.3,59.80056508664466,
1,4,no,up,IC,R,,,,,,Block.xlsx,"你已经完成了第一个实验区组

请稍作休息


点击空格键进入下一个区组。",50,0,1.5,right,LLRLL.png,,,,,0,0,0,0,3,3,75,3,,,,,,,,,,,,,,,,,,,,,,,,,,,,,,,,,,,,,,,,,,,,,,,,,,,,,,,,,,,,,,,,411.72070529998746,412.1226642000256,412.1049722000025,412.20558950002305,412.6057760999538,None,None,0,,412.6057760999538,None,412.1049722000025,412.20558950002305,412.20558950002305,None,414.30827749997843,None,,,,,,,11024,001,2024_Jan_07_1119,ANT,2021.2.3,59.80056508664466,
1,15,center,down,IC,L,,,,,,Block.xlsx,"你已经完成了第一个实验区组

请稍作休息


点击空格键进入下一个区组。",0,50,-1.5,left,RRLRR.png,,,,,0,0,0,0,3,4,76,14,,,,,,,,,,,,,,,,,,,,,,,,,,,,,,,,,,,,,,,,,,,,,,,,,,,,,,,,,,,,,,,,414.7081644999562,415.11086150002666,415.0926920999773,415.19333210005425,415.5943755999906,None,left,1,0.6406148999230936,415.5943755999906,None,415.0926920999773,415.19333210005425,415.19333210005425,None,416.2606555999955,None,,,,,,,11024,001,2024_Jan_07_1119,ANT,2021.2.3,59.80056508664466,
1,2,no,up,C,R,,,,,,Block.xlsx,"你已经完成了第一个实验区组

请稍作休息


点击空格键进入下一个区组。",50,0,1.5,right,RRRRR.png,,,,,0,0,0,0,3,5,77,1,,,,,,,,,,,,,,,,,,,,,,,,,,,,,,,,,,,,,,,,,,,,,,,,,,,,,,,,,,,,,,,,416.6617449000478,417.06167480000295,417.0456164999632,417.1464886000613,417.5465700000059,None,right,1,0.7210817999439314,417.5465700000059,None,417.0456164999632,417.1464886000613,417.1464886000613,None,418.2966776000103,None,,,,,,,11024,001,2024_Jan_07_1119,ANT,2021.2.3,59.80056508664466,
1,19,spatial,up,IC,L,,,,,,Block.xlsx,"你已经完成了第一个实验区组

请稍作休息


点击空格键进入下一个区组。",1.5,0,1.5,left,RRLRR.png,,,,,0,0,0,0,3,6,78,18,,,,,,,,,,,,,,,,,,,,,,,,,,,,,,,,,,,,,,,,,,,,,,,,,,,,,,,,,,,,,,,,418.6974108000286,419.09980820002966,419.0819424999645,419.18281070003286,419.5832585999742,None,left,1,0.6517138000344858,419.5832585999742,None,419.0819424999645,419.18281070003286,419.18281070003286,None,420.2502746999962,None,,,,,,,11024,001,2024_Jan_07_1119,ANT,2021.2.3,59.80056508664466,
1,16,center,down,IC,R,,,,,,Block.xlsx,"你已经完成了第一个实验区组

请稍作休息


点击空格键进入下一个区组。",0,50,-1.5,right,LLRLL.png,,,,,0,0,0,0,3,7,79,15,,,,,,,,,,,,,,,,,,,,,,,,,,,,,,,,,,,,,,,,,,,,,,,,,,,,,,,,,,,,,,,,420.65139070001896,421.05205689999275,421.0354554000078,421.136253100005,421.5356205999851,None,right,1,0.7074612999567762,421.5356205999851,None,421.0354554000078,421.136253100005,421.136253100005,None,422.2692790000001,None,,,,,,,11024,001,2024_Jan_07_1119,ANT,2021.2.3,59.80056508664466,
1,9,center,up,C,L,,,,,,Block.xlsx,"你已经完成了第一个实验区组

请稍作休息


点击空格键进入下一个区组。",0,50,1.5,left,LLLLL.png,,,,,0,0,0,0,3,8,80,8,,,,,,,,,,,,,,,,,,,,,,,,,,,,,,,,,,,,,,,,,,,,,,,,,,,,,,,,,,,,,,,,422.6708101000404,423.071361899958,423.0549819000298,423.15463979996275,423.5550141000422,None,left,1,0.6238556000171229,423.5550141000422,None,423.0549819000298,423.15463979996275,423.15463979996275,None,424.2054251000518,None,,,,,,,11024,001,2024_Jan_07_1119,ANT,2021.2.3,59.80056508664466,
1,5,no,down,C,L,,,,,,Block.xlsx,"你已经完成了第一个实验区组

请稍作休息


点击空格键进入下一个区组。",50,0,-1.5,left,LLLLL.png,,,,,0,0,0,0,3,9,81,4,,,,,,,,,,,,,,,,,,,,,,,,,,,,,,,,,,,,,,,,,,,,,,,,,,,,,,,,,,,,,,,,424.60616980004124,425.00850180001,424.99102539999876,425.0901961000636,425.4925527999876,None,left,1,0.5832844999385998,425.4925527999876,None,424.99102539999876,425.0901961000636,425.0901961000636,None,426.0918900000397,None,,,,,,,11024,001,2024_Jan_07_1119,ANT,2021.2.3,59.80056508664466,
1,14,center,down,C,R,,,,,,Block.xlsx,"你已经完成了第一个实验区组

请稍作休息


点击空格键进入下一个区组。",0,50,-1.5,right,RRRRR.png,,,,,0,0,0,0,3,10,82,13,,,,,,,,,,,,,,,,,,,,,,,,,,,,,,,,,,,,,,,,,,,,,,,,,,,,,,,,,,,,,,,,426.493057899992,426.89432439999655,426.8759863000596,426.9778904999839,427.3776743999915,None,right,1,0.6575729999458417,427.3776743999915,None,426.8759863000596,426.9778904999839,426.9778904999839,None,428.061460900004,None,,,,,,,11024,001,2024_Jan_07_1119,ANT,2021.2.3,59.80056508664466,
1,17,spatial,up,C,L,,,,,,Block.xlsx,"你已经完成了第一个实验区组

请稍作休息


点击空格键进入下一个区组。",1.5,0,1.5,left,LLLLL.png,,,,,0,0,0,0,3,11,83,16,,,,,,,,,,,,,,,,,,,,,,,,,,,,,,,,,,,,,,,,,,,,,,,,,,,,,,,,,,,,,,,,428.46204450004734,428.8632455000188,428.84692499996163,428.9484170000069,429.3483858000254,None,left,1,0.46255789999850094,429.3483858000254,None,428.84692499996163,428.9484170000069,428.9484170000069,None,429.8305217999732,None,,,,,,,11024,001,2024_Jan_07_1119,ANT,2021.2.3,59.80056508664466,
1,23,spatial,down,IC,L,,,,,,Block.xlsx,"你已经完成了第一个实验区组

请稍作休息


点击空格键进入下一个区组。",-1.5,0,-1.5,left,RRLRR.png,,,,,0,0,0,0,3,12,84,22,,,,,,,,,,,,,,,,,,,,,,,,,,,,,,,,,,,,,,,,,,,,,,,,,,,,,,,,,,,,,,,,430.2309801999945,430.6319139000261,430.6169337000465,430.71731129998807,431.1157731000567,None,left,1,0.5836227999534458,431.1157731000567,None,430.6169337000465,430.71731129998807,430.71731129998807,None,431.7167769999942,None,,,,,,,11024,001,2024_Jan_07_1119,ANT,2021.2.3,59.80056508664466,
1,7,no,down,IC,L,,,,,,Block.xlsx,"你已经完成了第一个实验区组

请稍作休息


点击空格键进入下一个区组。",50,0,-1.5,left,RRLRR.png,,,,,0,0,0,0,3,13,85,6,,,,,,,,,,,,,,,,,,,,,,,,,,,,,,,,,,,,,,,,,,,,,,,,,,,,,,,,,,,,,,,,432.1178267999785,432.5188468999695,432.50194139999803,432.6034665000625,433.00359149998985,None,left,1,0.6325048999860883,433.00359149998985,None,432.50194139999803,432.6034665000625,432.6034665000625,None,433.65279720001854,None,,,,,,,11024,001,2024_Jan_07_1119,ANT,2021.2.3,59.80056508664466,
1,14,center,down,C,R,,,,,,Block.xlsx,"你已经完成了第一个实验区组

请稍作休息


点击空格键进入下一个区组。",0,50,-1.5,right,RRRRR.png,,,,,0,0,0,0,3,14,86,13,,,,,,,,,,,,,,,,,,,,,,,,,,,,,,,,,,,,,,,,,,,,,,,,,,,,,,,,,,,,,,,,434.0543400000315,434.4544532999862,434.43799150001723,434.5395935999695,434.93846830003895,None,right,1,0.4886753000319004,434.93846830003895,None,434.43799150001723,434.5395935999695,434.5395935999695,None,435.45549890003167,None,,,,,,,11024,001,2024_Jan_07_1119,ANT,2021.2.3,59.80056508664466,
1,17,spatial,up,C,L,,,,,,Block.xlsx,"你已经完成了第一个实验区组

请稍作休息


点击空格键进入下一个区组。",1.5,0,1.5,left,LLLLL.png,,,,,0,0,0,0,3,15,87,16,,,,,,,,,,,,,,,,,,,,,,,,,,,,,,,,,,,,,,,,,,,,,,,,,,,,,,,,,,,,,,,,435.85686759999953,436.25821320002433,436.2408890000079,436.34189120004885,436.7417898999993,None,left,1,0.4455810999497771,436.7417898999993,None,436.2408890000079,436.34189120004885,436.34189120004885,None,437.20893540000543,None,,,,,,,11024,001,2024_Jan_07_1119,ANT,2021.2.3,59.80056508664466,
1,13,center,down,C,L,,,,,,Block.xlsx,"你已经完成了第一个实验区组

请稍作休息


点击空格键进入下一个区组。",0,50,-1.5,left,LLLLL.png,,,,,0,0,0,0,3,16,88,12,,,,,,,,,,,,,,,,,,,,,,,,,,,,,,,,,,,,,,,,,,,,,,,,,,,,,,,,,,,,,,,,437.609425200033,438.01134109997656,437.9933783999877,438.09484949999023,438.4950042000273,None,left,1,0.4363944000797346,438.4950042000273,None,437.9933783999877,438.09484949999023,438.09484949999023,None,438.96169699996244,None,,,,,,,11024,001,2024_Jan_07_1119,ANT,2021.2.3,59.80056508664466,
1,13,center,down,C,L,,,,,,Block.xlsx,"你已经完成了第一个实验区组

请稍作休息


点击空格键进入下一个区组。",0,50,-1.5,left,LLLLL.png,,,,,0,0,0,0,3,17,89,12,,,,,,,,,,,,,,,,,,,,,,,,,,,,,,,,,,,,,,,,,,,,,,,,,,,,,,,,,,,,,,,,439.36131429998204,439.76306140003726,439.7469379999675,439.84549009997863,440.2467552999733,None,left,1,0.5242073000408709,440.2467552999733,None,439.7469379999675,439.84549009997863,439.84549009997863,None,440.79674140003044,None,,,,,,,11024,001,2024_Jan_07_1119,ANT,2021.2.3,59.80056508664466,
1,4,no,up,IC,R,,,,,,Block.xlsx,"你已经完成了第一个实验区组

请稍作休息


点击空格键进入下一个区组。",50,0,1.5,right,LLRLL.png,,,,,0,0,0,0,3,18,90,3,,,,,,,,,,,,,,,,,,,,,,,,,,,,,,,,,,,,,,,,,,,,,,,,,,,,,,,,,,,,,,,,441.1973102999618,441.5996662999969,441.5816313000396,441.68346450000536,442.0827585000079,None,right,1,0.5122417999664322,442.0827585000079,None,441.5816313000396,441.68346450000536,441.68346450000536,None,442.6170659000054,None,,,,,,,11024,001,2024_Jan_07_1119,ANT,2021.2.3,59.80056508664466,
1,9,center,up,C,L,,,,,,Block.xlsx,"你已经完成了第一个实验区组

请稍作休息


点击空格键进入下一个区组。",0,50,1.5,left,LLLLL.png,,,,,0,0,0,0,3,19,91,8,,,,,,,,,,,,,,,,,,,,,,,,,,,,,,,,,,,,,,,,,,,,,,,,,,,,,,,,,,,,,,,,443.0165398999816,443.4187899000244,443.4006381999934,443.50132429995574,443.9020559999626,None,left,1,0.6535151000134647,443.9020559999626,None,443.4006381999934,443.50132429995574,443.50132429995574,None,444.58628399996087,None,,,,,,,11024,001,2024_Jan_07_1119,ANT,2021.2.3,59.80056508664466,
1,10,center,up,C,R,,,,,,Block.xlsx,"你已经完成了第一个实验区组

请稍作休息


点击空格键进入下一个区组。",0,50,1.5,right,RRRRR.png,,,,,0,0,0,0,3,20,92,9,,,,,,,,,,,,,,,,,,,,,,,,,,,,,,,,,,,,,,,,,,,,,,,,,,,,,,,,,,,,,,,,444.98644370003603,445.3884798999643,445.3709515000228,445.4719581999816,445.8714710000204,None,right,1,0.5398102999897674,445.8714710000204,None,445.3709515000228,445.4719581999816,445.4719581999816,None,446.438572700019,None,,,,,,,11024,001,2024_Jan_07_1119,ANT,2021.2.3,59.80056508664466,
1,19,spatial,up,IC,L,,,,,,Block.xlsx,"你已经完成了第一个实验区组

请稍作休息


点击空格键进入下一个区组。",1.5,0,1.5,left,RRLRR.png,,,,,0,0,0,0,3,21,93,18,,,,,,,,,,,,,,,,,,,,,,,,,,,,,,,,,,,,,,,,,,,,,,,,,,,,,,,,,,,,,,,,446.83979520003777,447.24117519997526,447.2237472999841,447.3245936000021,447.7244414000306,None,left,1,0.5024702000664547,447.7244414000306,None,447.2237472999841,447.3245936000021,447.3245936000021,None,448.25776399997994,None,,,,,,,11024,001,2024_Jan_07_1119,ANT,2021.2.3,59.80056508664466,
1,15,center,down,IC,L,,,,,,Block.xlsx,"你已经完成了第一个实验区组

请稍作休息


点击空格键进入下一个区组。",0,50,-1.5,left,RRLRR.png,,,,,0,0,0,0,3,22,94,14,,,,,,,,,,,,,,,,,,,,,,,,,,,,,,,,,,,,,,,,,,,,,,,,,,,,,,,,,,,,,,,,448.65850799996406,449.0598170000594,449.04304859996773,449.1429485999979,449.54374380002264,None,right,0,0.5631875999970362,449.54374380002264,None,449.04304859996773,449.1429485999979,449.1429485999979,None,450.1278504000511,None,,,,,,,11024,001,2024_Jan_07_1119,ANT,2021.2.3,59.80056508664466,
1,11,center,up,IC,L,,,,,,Block.xlsx,"你已经完成了第一个实验区组

请稍作休息


点击空格键进入下一个区组。",0,50,1.5,left,RRLRR.png,,,,,0,0,0,0,3,23,95,10,,,,,,,,,,,,,,,,,,,,,,,,,,,,,,,,,,,,,,,,,,,,,,,,,,,,,,,,,,,,,,,,450.52777799998876,450.93019210000057,450.9126115000108,451.0122504000319,451.41311960003804,None,left,1,0.6460910000605509,451.41311960003804,None,450.9126115000108,451.0122504000319,451.0122504000319,None,452.08016570005566,None,,,,,,,11024,001,2024_Jan_07_1119,ANT,2021.2.3,59.80056508664466,
,,,,,,,,,,,Block.xlsx,"你已经完成了第一个实验区组

请稍作休息


点击空格键进入下一个区组。",,,,,,,,,,0,0,0,0,,,,,,,,,,,,,,,,,,,,,,,,,,,,,,,,,,,,,,,,,,,,,,,,,,,,,,,,,,,,,,,,,,,,,,,,,,,,,,,,,,,,,space,5.411274100071751,452.48009810002986,None,452.48009810002986,None,11024,001,2024_Jan_07_1119,ANT,2021.2.3,59.80056508664466,
1,17,spatial,up,C,L,,,,,,Block.xlsx,"你已经完成了整个实验（三个区组）。

请报告实验者已完成实验

非常感谢，再见！",1.5,0,1.5,left,LLLLL.png,,,,,0,1,1,1,0,0,0,16,,,,,,,,,,,,,,,,,,,,,,,,,,,,,,,,,,,,,,,,,,,,,,,,,,,,,,,,,,,,,,,,457.9404378000181,458.34036679996643,458.322826800053,458.4243025999749,458.8247331000166,None,left,1,0.47427110001444817,458.8247331000166,None,458.322826800053,458.4243025999749,458.4243025999749,None,459.32456920004915,None,,,,,,,11024,001,2024_Jan_07_1119,ANT,2021.2.3,59.80056508664466,
1,12,center,up,IC,R,,,,,,Block.xlsx,"你已经完成了整个实验（三个区组）。

请报告实验者已完成实验

非常感谢，再见！",0,50,1.5,right,LLRLL.png,,,,,0,1,1,1,0,1,1,11,,,,,,,,,,,,,,,,,,,,,,,,,,,,,,,,,,,,,,,,,,,,,,,,,,,,,,,,,,,,,,,,459.7256934000179,460.1266582000535,460.1097957000602,460.21025050000753,460.6106585999951,None,right,1,0.4886302000377327,460.6106585999951,None,460.1097957000602,460.21025050000753,460.21025050000753,None,461.1270118999528,None,,,,,,,11024,001,2024_Jan_07_1119,ANT,2021.2.3,59.80056508664466,
1,13,center,down,C,L,,,,,,Block.xlsx,"你已经完成了整个实验（三个区组）。

请报告实验者已完成实验

非常感谢，再见！",0,50,-1.5,left,LLLLL.png,,,,,0,1,1,1,0,2,2,12,,,,,,,,,,,,,,,,,,,,,,,,,,,,,,,,,,,,,,,,,,,,,,,,,,,,,,,,,,,,,,,,461.52739429997746,461.929176799953,461.91283879999537,462.01208270003553,462.4130787999602,None,left,1,0.5901333000510931,462.4130787999602,None,461.91283879999537,462.01208270003553,462.01208270003553,None,463.0296075999504,None,,,,,,,11024,001,2024_Jan_07_1119,ANT,2021.2.3,59.80056508664466,
1,24,spatial,down,IC,R,,,,,,Block.xlsx,"你已经完成了整个实验（三个区组）。

请报告实验者已完成实验

非常感谢，再见！",-1.5,0,-1.5,right,LLRLL.png,,,,,0,1,1,1,0,3,3,23,,,,,,,,,,,,,,,,,,,,,,,,,,,,,,,,,,,,,,,,,,,,,,,,,,,,,,,,,,,,,,,,463.43145350005943,463.8329835999757,463.8148924000561,463.9164921999909,464.31498799996916,None,right,1,0.40026569995097816,464.31498799996916,None,463.8148924000561,463.9164921999909,463.9164921999909,None,464.7323256999953,None,,,,,,,11024,001,2024_Jan_07_1119,ANT,2021.2.3,59.80056508664466,
1,1,no,up,C,L,,,,,,Block.xlsx,"你已经完成了整个实验（三个区组）。

请报告实验者已完成实验

非常感谢，再见！",50,0,1.5,left,LLLLL.png,,,,,0,1,1,1,0,4,4,0,,,,,,,,,,,,,,,,,,,,,,,,,,,,,,,,,,,,,,,,,,,,,,,,,,,,,,,,,,,,,,,,465.1335641000187,465.53406019997783,465.51755890005734,465.61748490005266,466.0180381999817,None,left,1,0.5529365999391302,466.0180381999817,None,465.51755890005734,465.61748490005266,465.61748490005266,None,466.60174559999723,None,,,,,,,11024,001,2024_Jan_07_1119,ANT,2021.2.3,59.80056508664466,
1,12,center,up,IC,R,,,,,,Block.xlsx,"你已经完成了整个实验（三个区组）。

请报告实验者已完成实验

非常感谢，再见！",0,50,1.5,right,LLRLL.png,,,,,0,1,1,1,0,5,5,11,,,,,,,,,,,,,,,,,,,,,,,,,,,,,,,,,,,,,,,,,,,,,,,,,,,,,,,,,,,,,,,,467.0034815999679,467.40457410004456,467.38675639999565,467.4879540000111,467.8880408999976,None,right,1,0.5793273000745103,467.8880408999976,None,467.38675639999565,467.4879540000111,467.4879540000111,None,468.48858999996446,None,,,,,,,11024,001,2024_Jan_07_1119,ANT,2021.2.3,59.80056508664466,
1,20,spatial,up,IC,R,,,,,,Block.xlsx,"你已经完成了整个实验（三个区组）。

请报告实验者已完成实验

非常感谢，再见！",1.5,0,1.5,right,LLRLL.png,,,,,0,1,1,1,0,6,6,19,,,,,,,,,,,,,,,,,,,,,,,,,,,,,,,,,,,,,,,,,,,,,,,,,,,,,,,,,,,,,,,,468.8885381000582,469.2890112999594,469.2731834000442,469.37511549994815,469.773905799957,None,right,1,0.5574494999600574,469.773905799957,None,469.2731834000442,469.37511549994815,469.37511549994815,None,470.3574120999547,None,,,,,,,11024,001,2024_Jan_07_1119,ANT,2021.2.3,59.80056508664466,
1,10,center,up,C,R,,,,,,Block.xlsx,"你已经完成了整个实验（三个区组）。

请报告实验者已完成实验

非常感谢，再见！",0,50,1.5,right,RRRRR.png,,,,,0,1,1,1,0,7,7,9,,,,,,,,,,,,,,,,,,,,,,,,,,,,,,,,,,,,,,,,,,,,,,,,,,,,,,,,,,,,,,,,470.75794040004257,471.1591063999804,471.14271799998824,471.24423339997884,471.6449898000574,None,right,1,0.5183069000486284,471.6449898000574,None,471.14271799998824,471.24423339997884,471.24423339997884,None,472.1933250000002,None,,,,,,,11024,001,2024_Jan_07_1119,ANT,2021.2.3,59.80056508664466,
1,10,center,up,C,R,,,,,,Block.xlsx,"你已经完成了整个实验（三个区组）。

请报告实验者已完成实验

非常感谢，再见！",0,50,1.5,right,RRRRR.png,,,,,0,1,1,1,0,8,8,9,,,,,,,,,,,,,,,,,,,,,,,,,,,,,,,,,,,,,,,,,,,,,,,,,,,,,,,,,,,,,,,,472.59497229999397,472.9951529999962,472.9783497999888,473.07918849994894,473.47942930005956,None,right,1,0.4356276000617072,473.47942930005956,None,472.9783497999888,473.07918849994894,473.07918849994894,None,473.94594929995947,None,,,,,,,11024,001,2024_Jan_07_1119,ANT,2021.2.3,59.80056508664466,
1,7,no,down,IC,L,,,,,,Block.xlsx,"你已经完成了整个实验（三个区组）。

请报告实验者已完成实验

非常感谢，再见！",50,0,-1.5,left,RRLRR.png,,,,,0,1,1,1,0,9,9,6,,,,,,,,,,,,,,,,,,,,,,,,,,,,,,,,,,,,,,,,,,,,,,,,,,,,,,,,,,,,,,,,474.34725510003045,474.74943349999376,474.7308918000199,474.8311858000234,475.23209990002215,None,left,1,0.5871610000031069,475.23209990002215,None,474.7308918000199,474.8311858000234,474.8311858000234,None,475.84871749999,None,,,,,,,11024,001,2024_Jan_07_1119,ANT,2021.2.3,59.80056508664466,
1,14,center,down,C,R,,,,,,Block.xlsx,"你已经完成了整个实验（三个区组）。

请报告实验者已完成实验

非常感谢，再见！",0,50,-1.5,right,RRRRR.png,,,,,0,1,1,1,0,10,10,13,,,,,,,,,,,,,,,,,,,,,,,,,,,,,,,,,,,,,,,,,,,,,,,,,,,,,,,,,,,,,,,,476.2493759000208,476.6518649000209,476.63371329999063,476.7341342000291,477.13591239997186,None,right,1,0.4837444999720901,477.13591239997186,None,476.63371329999063,476.7341342000291,476.7341342000291,None,477.6347087000031,None,,,,,,,11024,001,2024_Jan_07_1119,ANT,2021.2.3,59.80056508664466,
1,6,no,down,C,R,,,,,,Block.xlsx,"你已经完成了整个实验（三个区组）。

请报告实验者已完成实验

非常感谢，再见！",50,0,-1.5,right,RRRRR.png,,,,,0,1,1,1,0,11,11,5,,,,,,,,,,,,,,,,,,,,,,,,,,,,,,,,,,,,,,,,,,,,,,,,,,,,,,,,,,,,,,,,478.0361048000632,478.43709160003345,478.4198784000473,478.5199739000527,478.9207286000019,None,right,1,0.5387862999923527,478.9207286000019,None,478.4198784000473,478.5199739000527,478.5199739000527,None,479.48757120000664,None,,,,,,,11024,001,2024_Jan_07_1119,ANT,2021.2.3,59.80056508664466,
1,21,spatial,down,C,L,,,,,,Block.xlsx,"你已经完成了整个实验（三个区组）。

请报告实验者已完成实验

非常感谢，再见！",-1.5,0,-1.5,left,LLLLL.png,,,,,0,1,1,1,0,12,12,20,,,,,,,,,,,,,,,,,,,,,,,,,,,,,,,,,,,,,,,,,,,,,,,,,,,,,,,,,,,,,,,,479.88802930002566,480.28868050000165,480.2743296000408,480.39033740002196,480.77341559994966,None,left,1,0.4217483999673277,480.77341559994966,None,480.2743296000408,480.39033740002196,480.37297819997184,None,481.2235693000257,None,,,,,,,11024,001,2024_Jan_07_1119,ANT,2021.2.3,59.80056508664466,
1,19,spatial,up,IC,L,,,,,,Block.xlsx,"你已经完成了整个实验（三个区组）。

请报告实验者已完成实验

非常感谢，再见！",1.5,0,1.5,left,RRLRR.png,,,,,0,1,1,1,0,13,13,18,,,,,,,,,,,,,,,,,,,,,,,,,,,,,,,,,,,,,,,,,,,,,,,,,,,,,,,,,,,,,,,,481.62405860004947,482.0245659999782,482.0101708000293,482.1262330999598,482.50945759995375,None,left,1,0.5895259999670088,482.50945759995375,None,482.0101708000293,482.1262330999598,482.10823849996086,None,483.1265345000429,None,,,,,,,11024,001,2024_Jan_07_1119,ANT,2021.2.3,59.80056508664466,
1,13,center,down,C,L,,,,,,Block.xlsx,"你已经完成了整个实验（三个区组）。

请报告实验者已完成实验

非常感谢，再见！",0,50,-1.5,left,LLLLL.png,,,,,0,1,1,1,0,14,14,12,,,,,,,,,,,,,,,,,,,,,,,,,,,,,,,,,,,,,,,,,,,,,,,,,,,,,,,,,,,,,,,,483.52752909995615,483.92801010003313,483.91219930001535,484.011684600031,484.41323049995117,None,left,1,0.5340738999657333,484.41323049995117,None,483.91219930001535,484.011684600031,484.011684600031,None,484.9623844999587,None,,,,,,,11024,001,2024_Jan_07_1119,ANT,2021.2.3,59.80056508664466,
1,9,center,up,C,L,,,,,,Block.xlsx,"你已经完成了整个实验（三个区组）。

请报告实验者已完成实验

非常感谢，再见！",0,50,1.5,left,LLLLL.png,,,,,0,1,1,1,0,15,15,8,,,,,,,,,,,,,,,,,,,,,,,,,,,,,,,,,,,,,,,,,,,,,,,,,,,,,,,,,,,,,,,,485.36288629996125,485.7641482000472,485.74787700001616,485.847688299953,486.2494207000127,None,left,1,0.5781516000861302,486.2494207000127,None,485.74787700001616,485.847688299953,485.847688299953,None,486.8482691999525,None,,,,,,,11024,001,2024_Jan_07_1119,ANT,2021.2.3,59.80056508664466,
1,21,spatial,down,C,L,,,,,,Block.xlsx,"你已经完成了整个实验（三个区组）。

请报告实验者已完成实验

非常感谢，再见！",-1.5,0,-1.5,left,LLLLL.png,,,,,0,1,1,1,0,16,16,20,,,,,,,,,,,,,,,,,,,,,,,,,,,,,,,,,,,,,,,,,,,,,,,,,,,,,,,,,,,,,,,,487.2487472000066,487.65122260001954,487.63366980000865,487.7340973999817,488.1340438000625,None,left,1,0.41358629998285323,488.1340438000625,None,487.63366980000865,487.7340973999817,487.7340973999817,None,488.56748159998097,None,,,,,,,11024,001,2024_Jan_07_1119,ANT,2021.2.3,59.80056508664466,
1,1,no,up,C,L,,,,,,Block.xlsx,"你已经完成了整个实验（三个区组）。

请报告实验者已完成实验

非常感谢，再见！",50,0,1.5,left,LLLLL.png,,,,,0,1,1,1,0,17,17,0,,,,,,,,,,,,,,,,,,,,,,,,,,,,,,,,,,,,,,,,,,,,,,,,,,,,,,,,,,,,,,,,488.9681928999489,489.36888359999284,489.35332170000765,489.4524903000565,489.853026399971,None,left,1,0.5342494000215083,489.853026399971,None,489.35332170000765,489.4524903000565,489.4524903000565,None,490.4035815000534,None,,,,,,,11024,001,2024_Jan_07_1119,ANT,2021.2.3,59.80056508664466,
1,2,no,up,C,R,,,,,,Block.xlsx,"你已经完成了整个实验（三个区组）。

请报告实验者已完成实验

非常感谢，再见！",50,0,1.5,right,RRRRR.png,,,,,0,1,1,1,0,18,18,1,,,,,,,,,,,,,,,,,,,,,,,,,,,,,,,,,,,,,,,,,,,,,,,,,,,,,,,,,,,,,,,,490.8041350999847,491.20472899999004,491.1885961999651,491.28966500004753,491.6905154000269,None,right,1,0.5525916999904439,491.6905154000269,None,491.1885961999651,491.28966500004753,491.28966500004753,None,492.2735117999837,None,,,,,,,11024,001,2024_Jan_07_1119,ANT,2021.2.3,59.80056508664466,
1,20,spatial,up,IC,R,,,,,,Block.xlsx,"你已经完成了整个实验（三个区组）。

请报告实验者已完成实验

非常感谢，再见！",1.5,0,1.5,right,LLRLL.png,,,,,0,1,1,1,0,19,19,19,,,,,,,,,,,,,,,,,,,,,,,,,,,,,,,,,,,,,,,,,,,,,,,,,,,,,,,,,,,,,,,,492.67464189999737,493.0755147000309,493.058259399957,493.15834660001565,493.56124449998606,None,right,1,0.6979970999527723,493.56124449998606,None,493.058259399957,493.15834660001565,493.15834660001565,None,494.27604629995767,None,,,,,,,11024,001,2024_Jan_07_1119,ANT,2021.2.3,59.80056508664466,
1,24,spatial,down,IC,R,,,,,,Block.xlsx,"你已经完成了整个实验（三个区组）。

请报告实验者已完成实验

非常感谢，再见！",-1.5,0,-1.5,right,LLRLL.png,,,,,0,1,1,1,0,20,20,23,,,,,,,,,,,,,,,,,,,,,,,,,,,,,,,,,,,,,,,,,,,,,,,,,,,,,,,,,,,,,,,,494.676627799985,495.0793058000272,495.06114420003723,495.16220060002524,495.5623326000059,None,right,1,0.4810646999394521,495.5623326000059,None,495.06114420003723,495.16220060002524,495.16220060002524,None,496.0621617999859,None,,,,,,,11024,001,2024_Jan_07_1119,ANT,2021.2.3,59.80056508664466,
1,17,spatial,up,C,L,,,,,,Block.xlsx,"你已经完成了整个实验（三个区组）。

请报告实验者已完成实验

非常感谢，再见！",1.5,0,1.5,left,LLLLL.png,,,,,0,1,1,1,0,21,21,16,,,,,,,,,,,,,,,,,,,,,,,,,,,,,,,,,,,,,,,,,,,,,,,,,,,,,,,,,,,,,,,,496.4630027000094,496.8638938999502,496.84839790000115,496.9483288000338,497.3484103999799,None,left,1,0.3993676999816671,497.3484103999799,None,496.84839790000115,496.9483288000338,496.9483288000338,None,497.7645919000497,None,,,,,,,11024,001,2024_Jan_07_1119,ANT,2021.2.3,59.80056508664466,
1,4,no,up,IC,R,,,,,,Block.xlsx,"你已经完成了整个实验（三个区组）。

请报告实验者已完成实验

非常感谢，再见！",50,0,1.5,right,LLRLL.png,,,,,0,1,1,1,0,22,22,3,,,,,,,,,,,,,,,,,,,,,,,,,,,,,,,,,,,,,,,,,,,,,,,,,,,,,,,,,,,,,,,,498.1651579999598,498.5664988999488,498.5500810999656,498.65000989998225,499.05037569999695,None,right,1,0.6809656999539584,499.05037569999695,None,498.5500810999656,498.65000989998225,498.65000989998225,None,499.7507658000104,None,,,,,,,11024,001,2024_Jan_07_1119,ANT,2021.2.3,59.80056508664466,
1,4,no,up,IC,R,,,,,,Block.xlsx,"你已经完成了整个实验（三个区组）。

请报告实验者已完成实验

非常感谢，再见！",50,0,1.5,right,LLRLL.png,,,,,0,1,1,1,0,23,23,3,,,,,,,,,,,,,,,,,,,,,,,,,,,,,,,,,,,,,,,,,,,,,,,,,,,,,,,,,,,,,,,,500.1515130000189,500.5519973000046,500.5357688999502,500.6357351000188,501.03794650000054,None,right,1,0.6693162999581546,501.03794650000054,None,500.5357688999502,500.6357351000188,500.6357351000188,None,501.7371031000512,None,,,,,,,11024,001,2024_Jan_07_1119,ANT,2021.2.3,59.80056508664466,
1,8,no,down,IC,R,,,,,,Block.xlsx,"你已经完成了整个实验（三个区组）。

请报告实验者已完成实验

非常感谢，再见！",50,0,-1.5,right,LLRLL.png,,,,,0,1,1,1,1,0,24,7,,,,,,,,,,,,,,,,,,,,,,,,,,,,,,,,,,,,,,,,,,,,,,,,,,,,,,,,,,,,,,,,502.1378486000467,502.53995190002024,502.5222566999728,502.62219729996286,503.02294419996906,None,right,1,0.6441112000029534,503.02294419996906,None,502.5222566999728,502.62219729996286,502.62219729996286,None,503.68991529999766,None,,,,,,,11024,001,2024_Jan_07_1119,ANT,2021.2.3,59.80056508664466,
1,19,spatial,up,IC,L,,,,,,Block.xlsx,"你已经完成了整个实验（三个区组）。

请报告实验者已完成实验

非常感谢，再见！",1.5,0,1.5,left,RRLRR.png,,,,,0,1,1,1,1,1,25,18,,,,,,,,,,,,,,,,,,,,,,,,,,,,,,,,,,,,,,,,,,,,,,,,,,,,,,,,,,,,,,,,504.0904284999706,504.4920718000503,504.47593159996904,504.5933809999842,504.97721439995803,None,left,1,0.489821600029245,504.97721439995803,None,504.47593159996904,504.5933809999842,504.57569259998854,None,505.4927005999489,None,,,,,,,11024,001,2024_Jan_07_1119,ANT,2021.2.3,59.80056508664466,
1,3,no,up,IC,L,,,,,,Block.xlsx,"你已经完成了整个实验（三个区组）。

请报告实验者已完成实验

非常感谢，再见！",50,0,1.5,left,RRLRR.png,,,,,0,1,1,1,1,2,26,2,,,,,,,,,,,,,,,,,,,,,,,,,,,,,,,,,,,,,,,,,,,,,,,,,,,,,,,,,,,,,,,,505.8933665000368,506.2962505000178,506.2778922000434,506.37716589996126,506.77822540001944,None,left,1,0.49754070001654327,506.77822540001944,None,506.2778922000434,506.37716589996126,506.37716589996126,None,507.29604200005997,None,,,,,,,11024,001,2024_Jan_07_1119,ANT,2021.2.3,59.80056508664466,
1,7,no,down,IC,L,,,,,,Block.xlsx,"你已经完成了整个实验（三个区组）。

请报告实验者已完成实验

非常感谢，再见！",50,0,-1.5,left,RRLRR.png,,,,,0,1,1,1,1,3,27,6,,,,,,,,,,,,,,,,,,,,,,,,,,,,,,,,,,,,,,,,,,,,,,,,,,,,,,,,,,,,,,,,507.69593429996166,508.0990043999627,508.0805080999853,508.1812019000063,508.5818679999793,None,left,1,0.7178709999425337,508.5818679999793,None,508.0805080999853,508.1812019000063,508.1812019000063,None,509.31495619995985,None,,,,,,,11024,001,2024_Jan_07_1119,ANT,2021.2.3,59.80056508664466,
1,16,center,down,IC,R,,,,,,Block.xlsx,"你已经完成了整个实验（三个区组）。

请报告实验者已完成实验

非常感谢，再见！",0,50,-1.5,right,LLRLL.png,,,,,0,1,1,1,1,4,28,15,,,,,,,,,,,,,,,,,,,,,,,,,,,,,,,,,,,,,,,,,,,,,,,,,,,,,,,,,,,,,,,,509.7156291999854,510.11687579995487,510.1015438999748,510.2008839000482,510.602331400034,None,right,1,0.7047230000607669,510.602331400034,None,510.1015438999748,510.2008839000482,510.2008839000482,None,511.3346945999656,None,,,,,,,11024,001,2024_Jan_07_1119,ANT,2021.2.3,59.80056508664466,
1,10,center,up,C,R,,,,,,Block.xlsx,"你已经完成了整个实验（三个区组）。

请报告实验者已完成实验

非常感谢，再见！",0,50,1.5,right,RRRRR.png,,,,,0,1,1,1,1,5,29,9,,,,,,,,,,,,,,,,,,,,,,,,,,,,,,,,,,,,,,,,,,,,,,,,,,,,,,,,,,,,,,,,511.735455899965,512.1383220000425,512.119707899983,512.2195786000229,512.6205620999681,None,right,1,0.7024949999758974,512.6205620999681,None,512.119707899983,512.2195786000229,512.2195786000229,None,513.3543301000027,None,,,,,,,11024,001,2024_Jan_07_1119,ANT,2021.2.3,59.80056508664466,
1,9,center,up,C,L,,,,,,Block.xlsx,"你已经完成了整个实验（三个区组）。

请报告实验者已完成实验

非常感谢，再见！",0,50,1.5,left,LLLLL.png,,,,,0,1,1,1,1,6,30,8,,,,,,,,,,,,,,,,,,,,,,,,,,,,,,,,,,,,,,,,,,,,,,,,,,,,,,,,,,,,,,,,513.754843999981,514.1562026999891,514.1398957000347,514.2417706999695,514.6415248999838,None,left,1,0.5860419999808073,514.6415248999838,None,514.1398957000347,514.2417706999695,514.2417706999695,None,515.2570371000329,None,,,,,,,11024,001,2024_Jan_07_1119,ANT,2021.2.3,59.80056508664466,
1,6,no,down,C,R,,,,,,Block.xlsx,"你已经完成了整个实验（三个区组）。

请报告实验者已完成实验

非常感谢，再见！",50,0,-1.5,right,RRRRR.png,,,,,0,1,1,1,1,7,31,5,,,,,,,,,,,,,,,,,,,,,,,,,,,,,,,,,,,,,,,,,,,,,,,,,,,,,,,,,,,,,,,,515.6583546999609,516.0595634999918,516.042537100031,516.1436401000246,516.5430475999601,None,right,1,0.45238359994255006,516.5430475999601,None,516.042537100031,516.1436401000246,516.1436401000246,None,517.0099113000324,None,,,,,,,11024,001,2024_Jan_07_1119,ANT,2021.2.3,59.80056508664466,
1,19,spatial,up,IC,L,,,,,,Block.xlsx,"你已经完成了整个实验（三个区组）。

请报告实验者已完成实验

非常感谢，再见！",1.5,0,1.5,left,RRLRR.png,,,,,0,1,1,1,1,8,32,18,,,,,,,,,,,,,,,,,,,,,,,,,,,,,,,,,,,,,,,,,,,,,,,,,,,,,,,,,,,,,,,,517.4113757000305,517.8130528000183,517.7943767999532,517.8948387999553,518.2967222000007,None,left,1,0.5466450999956578,518.2967222000007,None,517.7943767999532,517.8948387999553,517.8948387999553,None,518.8630474000238,None,,,,,,,11024,001,2024_Jan_07_1119,ANT,2021.2.3,59.80056508664466,
1,2,no,up,C,R,,,,,,Block.xlsx,"你已经完成了整个实验（三个区组）。

请报告实验者已完成实验

非常感谢，再见！",50,0,1.5,right,RRRRR.png,,,,,0,1,1,1,1,9,33,1,,,,,,,,,,,,,,,,,,,,,,,,,,,,,,,,,,,,,,,,,,,,,,,,,,,,,,,,,,,,,,,,519.2639193000505,519.6650694999844,519.6470385000575,519.7478285999969,520.1477862000465,None,right,1,0.5998934999806806,520.1477862000465,None,519.6470385000575,519.7478285999969,519.7478285999969,None,520.7653332999907,None,,,,,,,11024,001,2024_Jan_07_1119,ANT,2021.2.3,59.80056508664466,
1,9,center,up,C,L,,,,,,Block.xlsx,"你已经完成了整个实验（三个区组）。

请报告实验者已完成实验

非常感谢，再见！",0,50,1.5,left,LLLLL.png,,,,,0,1,1,1,1,10,34,8,,,,,,,,,,,,,,,,,,,,,,,,,,,,,,,,,,,,,,,,,,,,,,,,,,,,,,,,,,,,,,,,521.1666474000085,521.5676137000555,521.5511706999969,521.6509489000309,522.0512734999647,None,left,1,0.6881503999466076,522.0512734999647,None,521.5511706999969,521.6509489000309,521.6509489000309,None,522.7694110999582,None,,,,,,,11024,001,2024_Jan_07_1119,ANT,2021.2.3,59.80056508664466,
1,23,spatial,down,IC,L,,,,,,Block.xlsx,"你已经完成了整个实验（三个区组）。

请报告实验者已完成实验

非常感谢，再见！",-1.5,0,-1.5,left,RRLRR.png,,,,,0,1,1,1,1,11,35,22,,,,,,,,,,,,,,,,,,,,,,,,,,,,,,,,,,,,,,,,,,,,,,,,,,,,,,,,,,,,,,,,523.1697418000549,523.5703144000145,523.5534554000478,523.653538399958,524.0535738000181,None,left,1,0.6861865000100806,524.0535738000181,None,523.5534554000478,523.653538399958,523.653538399958,None,524.7546809000196,None,,,,,,,11024,001,2024_Jan_07_1119,ANT,2021.2.3,59.80056508664466,
1,5,no,down,C,L,,,,,,Block.xlsx,"你已经完成了整个实验（三个区组）。

请报告实验者已完成实验

非常感谢，再见！",50,0,-1.5,left,LLLLL.png,,,,,0,1,1,1,1,12,36,4,,,,,,,,,,,,,,,,,,,,,,,,,,,,,,,,,,,,,,,,,,,,,,,,,,,,,,,,,,,,,,,,525.1560072000138,525.5567075000145,525.5396654000506,525.6413429999957,526.0405283999862,None,left,1,0.5785291000502184,526.0405283999862,None,525.5396654000506,525.6413429999957,525.6413429999957,None,526.6405469999881,None,,,,,,,11024,001,2024_Jan_07_1119,ANT,2021.2.3,59.80056508664466,
1,15,center,down,IC,L,,,,,,Block.xlsx,"你已经完成了整个实验（三个区组）。

请报告实验者已完成实验

非常感谢，再见！",0,50,-1.5,left,RRLRR.png,,,,,0,1,1,1,1,13,37,14,,,,,,,,,,,,,,,,,,,,,,,,,,,,,,,,,,,,,,,,,,,,,,,,,,,,,,,,,,,,,,,,527.0423259000527,527.444135800004,527.4257796000456,527.5263544999762,527.9267033999786,None,left,1,0.6525434999493882,527.9267033999786,None,527.4257796000456,527.5263544999762,527.5263544999762,None,528.5939862000523,None,,,,,,,11024,001,2024_Jan_07_1119,ANT,2021.2.3,59.80056508664466,
1,4,no,up,IC,R,,,,,,Block.xlsx,"你已经完成了整个实验（三个区组）。

请报告实验者已完成实验

非常感谢，再见！",50,0,1.5,right,LLRLL.png,,,,,0,1,1,1,1,14,38,3,,,,,,,,,,,,,,,,,,,,,,,,,,,,,,,,,,,,,,,,,,,,,,,,,,,,,,,,,,,,,,,,528.9947409000015,529.3961161000188,529.3787776000099,529.478943199967,529.8794193000067,None,right,1,0.7078147999709472,529.8794193000067,None,529.3787776000099,529.478943199967,529.478943199967,None,530.6133516000118,None,,,,,,,11024,001,2024_Jan_07_1119,ANT,2021.2.3,59.80056508664466,
1,8,no,down,IC,R,,,,,,Block.xlsx,"你已经完成了整个实验（三个区组）。

请报告实验者已完成实验

非常感谢，再见！",50,0,-1.5,right,LLRLL.png,,,,,0,1,1,1,1,15,39,7,,,,,,,,,,,,,,,,,,,,,,,,,,,,,,,,,,,,,,,,,,,,,,,,,,,,,,,,,,,,,,,,531.0141797000542,531.4150633000536,531.3983221000526,531.4985804000171,531.8993957999628,None,right,1,0.6797852000454441,531.8993957999628,None,531.3983221000526,531.4985804000171,531.4985804000171,None,532.5994653999805,None,,,,,,,11024,001,2024_Jan_07_1119,ANT,2021.2.3,59.80056508664466,
1,1,no,up,C,L,,,,,,Block.xlsx,"你已经完成了整个实验（三个区组）。

请报告实验者已完成实验

非常感谢，再见！",50,0,1.5,left,LLLLL.png,,,,,0,1,1,1,1,16,40,0,,,,,,,,,,,,,,,,,,,,,,,,,,,,,,,,,,,,,,,,,,,,,,,,,,,,,,,,,,,,,,,,533.0002316000173,533.4013881999999,533.3863846999593,533.5022177000064,533.8852253999794,None,left,1,0.582797999959439,533.8852253999794,None,533.3863846999593,533.5022177000064,533.4841149999993,None,534.4864668999799,None,,,,,,,11024,001,2024_Jan_07_1119,ANT,2021.2.3,59.80056508664466,
1,15,center,down,IC,L,,,,,,Block.xlsx,"你已经完成了整个实验（三个区组）。

请报告实验者已完成实验

非常感谢，再见！",0,50,-1.5,left,RRLRR.png,,,,,0,1,1,1,1,17,41,14,,,,,,,,,,,,,,,,,,,,,,,,,,,,,,,,,,,,,,,,,,,,,,,,,,,,,,,,,,,,,,,,534.8862450000597,535.2879082000582,535.2710064999992,535.3719042000594,535.7714775999775,None,left,1,0.5515948999673128,535.7714775999775,None,535.2710064999992,535.3719042000594,535.3719042000594,None,536.3389435999561,None,,,,,,,11024,001,2024_Jan_07_1119,ANT,2021.2.3,59.80056508664466,
1,17,spatial,up,C,L,,,,,,Block.xlsx,"你已经完成了整个实验（三个区组）。

请报告实验者已完成实验

非常感谢，再见！",1.5,0,1.5,left,LLLLL.png,,,,,0,1,1,1,1,18,42,16,,,,,,,,,,,,,,,,,,,,,,,,,,,,,,,,,,,,,,,,,,,,,,,,,,,,,,,,,,,,,,,,536.7386871000053,537.140215100022,537.1249822999816,537.2403756000567,537.6236293000402,None,left,1,0.6117611998924986,537.6236293000402,None,537.1249822999816,537.2403756000567,537.223712499952,None,538.2580354999518,None,,,,,,,11024,001,2024_Jan_07_1119,ANT,2021.2.3,59.80056508664466,
1,20,spatial,up,IC,R,,,,,,Block.xlsx,"你已经完成了整个实验（三个区组）。

请报告实验者已完成实验

非常感谢，再见！",1.5,0,1.5,right,LLRLL.png,,,,,0,1,1,1,1,19,43,19,,,,,,,,,,,,,,,,,,,,,,,,,,,,,,,,,,,,,,,,,,,,,,,,,,,,,,,,,,,,,,,,538.65906179999,539.0591996000148,539.0425475999946,539.1425453999545,539.5437814999605,None,right,1,0.6753164000110701,539.5437814999605,None,539.0425475999946,539.1425453999545,539.1425453999545,None,540.2440940999659,None,,,,,,,11024,001,2024_Jan_07_1119,ANT,2021.2.3,59.80056508664466,
1,23,spatial,down,IC,L,,,,,,Block.xlsx,"你已经完成了整个实验（三个区组）。

请报告实验者已完成实验

非常感谢，再见！",-1.5,0,-1.5,left,RRLRR.png,,,,,0,1,1,1,1,20,44,22,,,,,,,,,,,,,,,,,,,,,,,,,,,,,,,,,,,,,,,,,,,,,,,,,,,,,,,,,,,,,,,,540.6459307000041,541.0457432999974,541.0302711999975,541.12895449996,541.5303010999924,None,left,1,0.5368185999104753,541.5303010999924,None,541.0302711999975,541.12895449996,541.12895449996,None,542.0969961000374,None,,,,,,,11024,001,2024_Jan_07_1119,ANT,2021.2.3,59.80056508664466,
1,22,spatial,down,C,R,,,,,,Block.xlsx,"你已经完成了整个实验（三个区组）。

请报告实验者已完成实验

非常感谢，再见！",-1.5,0,-1.5,right,RRRRR.png,,,,,0,1,1,1,1,21,45,21,,,,,,,,,,,,,,,,,,,,,,,,,,,,,,,,,,,,,,,,,,,,,,,,,,,,,,,,,,,,,,,,542.4980143000139,542.8987143000122,542.882064800011,542.9826510000275,543.3837926000124,None,right,1,0.5233295999933034,543.3837926000124,None,542.882064800011,542.9826510000275,542.9826510000275,None,543.9329648000421,None,,,,,,,11024,001,2024_Jan_07_1119,ANT,2021.2.3,59.80056508664466,
1,23,spatial,down,IC,L,,,,,,Block.xlsx,"你已经完成了整个实验（三个区组）。

请报告实验者已完成实验

非常感谢，再见！",-1.5,0,-1.5,left,RRLRR.png,,,,,0,1,1,1,1,22,46,22,,,,,,,,,,,,,,,,,,,,,,,,,,,,,,,,,,,,,,,,,,,,,,,,,,,,,,,,,,,,,,,,544.3342626000522,544.7347896000138,544.7179614000488,544.8200356999878,545.2201436000178,None,left,1,0.5671396000543609,545.2201436000178,None,544.7179614000488,544.8200356999878,544.8200356999878,None,545.8023043000139,None,,,,,,,11024,001,2024_Jan_07_1119,ANT,2021.2.3,59.80056508664466,
1,6,no,down,C,R,,,,,,Block.xlsx,"你已经完成了整个实验（三个区组）。

请报告实验者已完成实验

非常感谢，再见！",50,0,-1.5,right,RRRRR.png,,,,,0,1,1,1,1,23,47,5,,,,,,,,,,,,,,,,,,,,,,,,,,,,,,,,,,,,,,,,,,,,,,,,,,,,,,,,,,,,,,,,546.2030819000211,546.6057460999582,546.587576400023,546.6886822000379,547.0882534000557,None,right,1,0.5230375999817625,547.0882534000557,None,546.587576400023,546.6886822000379,546.6886822000379,None,547.638845999958,None,,,,,,,11024,001,2024_Jan_07_1119,ANT,2021.2.3,59.80056508664466,
1,22,spatial,down,C,R,,,,,,Block.xlsx,"你已经完成了整个实验（三个区组）。

请报告实验者已完成实验

非常感谢，再见！",-1.5,0,-1.5,right,RRRRR.png,,,,,0,1,1,1,2,0,48,21,,,,,,,,,,,,,,,,,,,,,,,,,,,,,,,,,,,,,,,,,,,,,,,,,,,,,,,,,,,,,,,,548.0390640000114,548.4406633999897,548.4237202999648,548.523066499969,548.9251061000396,None,right,1,0.518090600031428,548.9251061000396,None,548.4237202999648,548.523066499969,548.523066499969,None,549.4745368000586,None,,,,,,,11024,001,2024_Jan_07_1119,ANT,2021.2.3,59.80056508664466,
1,8,no,down,IC,R,,,,,,Block.xlsx,"你已经完成了整个实验（三个区组）。

请报告实验者已完成实验

非常感谢，再见！",50,0,-1.5,right,LLRLL.png,,,,,0,1,1,1,2,1,49,7,,,,,,,,,,,,,,,,,,,,,,,,,,,,,,,,,,,,,,,,,,,,,,,,,,,,,,,,,,,,,,,,549.875079600024,550.2761528999545,550.2597902000416,550.3602529000491,550.7604298000224,None,right,1,0.6026568000670522,550.7604298000224,None,550.2597902000416,550.3602529000491,550.3602529000491,None,551.3779641999863,None,,,,,,,11024,001,2024_Jan_07_1119,ANT,2021.2.3,59.80056508664466,
1,9,center,up,C,L,,,,,,Block.xlsx,"你已经完成了整个实验（三个区组）。

请报告实验者已完成实验

非常感谢，再见！",0,50,1.5,left,LLLLL.png,,,,,0,1,1,1,2,2,50,8,,,,,,,,,,,,,,,,,,,,,,,,,,,,,,,,,,,,,,,,,,,,,,,,,,,,,,,,,,,,,,,,551.7779704000568,552.1804592000553,552.1623199000023,552.2629072000273,552.6626288000261,None,left,1,0.6205142000690103,552.6626288000261,None,552.1623199000023,552.2629072000273,552.2629072000273,None,553.2969437000575,None,,,,,,,11024,001,2024_Jan_07_1119,ANT,2021.2.3,59.80056508664466,
1,17,spatial,up,C,L,,,,,,Block.xlsx,"你已经完成了整个实验（三个区组）。

请报告实验者已完成实验

非常感谢，再见！",1.5,0,1.5,left,LLLLL.png,,,,,0,1,1,1,2,3,51,16,,,,,,,,,,,,,,,,,,,,,,,,,,,,,,,,,,,,,,,,,,,,,,,,,,,,,,,,,,,,,,,,553.698034800007,554.098655299982,554.0829051999608,554.1823028000072,554.5821020000149,None,left,1,0.42920399992726743,554.5821020000149,None,554.0829051999608,554.1823028000072,554.1823028000072,None,555.03345550003,None,,,,,,,11024,001,2024_Jan_07_1119,ANT,2021.2.3,59.80056508664466,
1,11,center,up,IC,L,,,,,,Block.xlsx,"你已经完成了整个实验（三个区组）。

请报告实验者已完成实验

非常感谢，再见！",0,50,1.5,left,RRLRR.png,,,,,0,1,1,1,2,4,52,10,,,,,,,,,,,,,,,,,,,,,,,,,,,,,,,,,,,,,,,,,,,,,,,,,,,,,,,,,,,,,,,,555.4333281000145,555.8349646000424,555.8178601999534,555.9180473999586,556.3185638999566,None,left,1,0.7085501999827102,556.3185638999566,None,555.8178601999534,555.9180473999586,555.9180473999586,None,557.052881599986,None,,,,,,,11024,001,2024_Jan_07_1119,ANT,2021.2.3,59.80056508664466,
1,16,center,down,IC,R,,,,,,Block.xlsx,"你已经完成了整个实验（三个区组）。

请报告实验者已完成实验

非常感谢，再见！",0,50,-1.5,right,LLRLL.png,,,,,0,1,1,1,2,5,53,15,,,,,,,,,,,,,,,,,,,,,,,,,,,,,,,,,,,,,,,,,,,,,,,,,,,,,,,,,,,,,,,,557.4545802000212,557.8538107000059,557.8375543999719,557.9378279000521,558.3386369999498,None,right,1,0.6327584000537172,558.3386369999498,None,557.8375543999719,557.9378279000521,557.9378279000521,None,558.9887816000264,None,,,,,,,11024,001,2024_Jan_07_1119,ANT,2021.2.3,59.80056508664466,
1,3,no,up,IC,L,,,,,,Block.xlsx,"你已经完成了整个实验（三个区组）。

请报告实验者已完成实验

非常感谢，再见！",50,0,1.5,left,RRLRR.png,,,,,0,1,1,1,2,6,54,2,,,,,,,,,,,,,,,,,,,,,,,,,,,,,,,,,,,,,,,,,,,,,,,,,,,,,,,,,,,,,,,,559.3891827999614,559.7905580999795,559.7739864999894,559.8748164999997,560.2741752000293,None,left,1,0.6340470000868663,560.2741752000293,None,559.7739864999894,559.8748164999997,559.8748164999997,None,560.9258173999842,None,,,,,,,11024,001,2024_Jan_07_1119,ANT,2021.2.3,59.80056508664466,
1,7,no,down,IC,L,,,,,,Block.xlsx,"你已经完成了整个实验（三个区组）。

请报告实验者已完成实验

非常感谢，再见！",50,0,-1.5,left,RRLRR.png,,,,,0,1,1,1,2,7,55,6,,,,,,,,,,,,,,,,,,,,,,,,,,,,,,,,,,,,,,,,,,,,,,,,,,,,,,,,,,,,,,,,561.3261958999792,561.7282154000131,561.7101717999903,561.8103257999755,562.2107439000392,None,left,1,0.6008536000736058,562.2107439000392,None,561.7101717999903,561.8103257999755,561.8103257999755,None,562.8275591999991,None,,,,,,,11024,001,2024_Jan_07_1119,ANT,2021.2.3,59.80056508664466,
1,7,no,down,IC,L,,,,,,Block.xlsx,"你已经完成了整个实验（三个区组）。

请报告实验者已完成实验

非常感谢，再见！",50,0,-1.5,left,RRLRR.png,,,,,0,1,1,1,2,8,56,6,,,,,,,,,,,,,,,,,,,,,,,,,,,,,,,,,,,,,,,,,,,,,,,,,,,,,,,,,,,,,,,,563.2287109000608,563.6308115000138,563.6129218999995,563.7129443000304,564.1138449000427,None,left,1,0.5300457000266761,564.1138449000427,None,563.6129218999995,563.7129443000304,563.7129443000304,None,564.6636074000271,None,,,,,,,11024,001,2024_Jan_07_1119,ANT,2021.2.3,59.80056508664466,
1,3,no,up,IC,L,,,,,,Block.xlsx,"你已经完成了整个实验（三个区组）。

请报告实验者已完成实验

非常感谢，再见！",50,0,1.5,left,RRLRR.png,,,,,0,1,1,1,2,9,57,2,,,,,,,,,,,,,,,,,,,,,,,,,,,,,,,,,,,,,,,,,,,,,,,,,,,,,,,,,,,,,,,,565.0649527000496,565.4665916999802,565.4481487000594,565.5500191999599,565.9514425999951,None,left,1,0.5799093999667093,565.9514425999951,None,565.4481487000594,565.5500191999599,565.5500191999599,None,566.5496949000517,None,,,,,,,11024,001,2024_Jan_07_1119,ANT,2021.2.3,59.80056508664466,
1,5,no,down,C,L,,,,,,Block.xlsx,"你已经完成了整个实验（三个区组）。

请报告实验者已完成实验

非常感谢，再见！",50,0,-1.5,left,LLLLL.png,,,,,0,1,1,1,2,10,58,4,,,,,,,,,,,,,,,,,,,,,,,,,,,,,,,,,,,,,,,,,,,,,,,,,,,,,,,,,,,,,,,,566.9504546000389,567.3520000999561,567.3366216999711,567.4515148999635,567.8355361999711,None,left,1,0.511764399940148,567.8355361999711,None,567.3366216999711,567.4515148999635,567.4368121000007,None,568.3692113000434,None,,,,,,,11024,001,2024_Jan_07_1119,ANT,2021.2.3,59.80056508664466,
1,6,no,down,C,R,,,,,,Block.xlsx,"你已经完成了整个实验（三个区组）。

请报告实验者已完成实验

非常感谢，再见！",50,0,-1.5,right,RRRRR.png,,,,,0,1,1,1,2,11,59,5,,,,,,,,,,,,,,,,,,,,,,,,,,,,,,,,,,,,,,,,,,,,,,,,,,,,,,,,,,,,,,,,568.7704833999742,569.1705019000219,569.1547787999734,569.2549415000249,569.6551790999947,None,right,1,0.5644788999343291,569.6551790999947,None,569.1547787999734,569.2549415000249,569.2549415000249,None,570.2389080000576,None,,,,,,,11024,001,2024_Jan_07_1119,ANT,2021.2.3,59.80056508664466,
1,24,spatial,down,IC,R,,,,,,Block.xlsx,"你已经完成了整个实验（三个区组）。

请报告实验者已完成实验

非常感谢，再见！",-1.5,0,-1.5,right,LLRLL.png,,,,,0,1,1,1,2,12,60,23,,,,,,,,,,,,,,,,,,,,,,,,,,,,,,,,,,,,,,,,,,,,,,,,,,,,,,,,,,,,,,,,570.640400000033,571.0412654000102,571.0231688000495,571.1249498999678,571.5244491000194,None,right,1,0.5028345000464469,571.5244491000194,None,571.0231688000495,571.1249498999678,571.1249498999678,None,572.0585796999512,None,,,,,,,11024,001,2024_Jan_07_1119,ANT,2021.2.3,59.80056508664466,
1,1,no,up,C,L,,,,,,Block.xlsx,"你已经完成了整个实验（三个区组）。

请报告实验者已完成实验

非常感谢，再见！",50,0,1.5,left,LLLLL.png,,,,,0,1,1,1,2,13,61,0,,,,,,,,,,,,,,,,,,,,,,,,,,,,,,,,,,,,,,,,,,,,,,,,,,,,,,,,,,,,,,,,572.4590628000442,572.8599675999722,572.8432836000575,572.9429562999867,573.3440923000453,None,left,1,0.6190743000479415,573.3440923000453,None,572.8432836000575,572.9429562999867,572.9429562999867,None,573.9943160000257,None,,,,,,,11024,001,2024_Jan_07_1119,ANT,2021.2.3,59.80056508664466,
1,13,center,down,C,L,,,,,,Block.xlsx,"你已经完成了整个实验（三个区组）。

请报告实验者已完成实验

非常感谢，再见！",0,50,-1.5,left,LLLLL.png,,,,,0,1,1,1,2,14,62,12,,,,,,,,,,,,,,,,,,,,,,,,,,,,,,,,,,,,,,,,,,,,,,,,,,,,,,,,,,,,,,,,574.3951709000394,574.7958084000275,574.7799562000437,574.8800828000531,575.2804632000625,None,left,1,0.4992971000028774,575.2804632000625,None,574.7799562000437,574.8800828000531,574.8800828000531,None,575.7967729000375,None,,,,,,,11024,001,2024_Jan_07_1119,ANT,2021.2.3,59.80056508664466,
1,11,center,up,IC,L,,,,,,Block.xlsx,"你已经完成了整个实验（三个区组）。

请报告实验者已完成实验

非常感谢，再见！",0,50,1.5,left,RRLRR.png,,,,,0,1,1,1,2,15,63,10,,,,,,,,,,,,,,,,,,,,,,,,,,,,,,,,,,,,,,,,,,,,,,,,,,,,,,,,,,,,,,,,576.1974106000271,576.5980752999894,576.5823413999751,576.683805000037,577.0828277999535,None,left,1,0.6083824000088498,577.0828277999535,None,576.5823413999751,576.683805000037,576.683805000037,None,577.7162637000438,None,,,,,,,11024,001,2024_Jan_07_1119,ANT,2021.2.3,59.80056508664466,
1,15,center,down,IC,L,,,,,,Block.xlsx,"你已经完成了整个实验（三个区组）。

请报告实验者已完成实验

非常感谢，再见！",0,50,-1.5,left,RRLRR.png,,,,,0,1,1,1,2,16,64,14,,,,,,,,,,,,,,,,,,,,,,,,,,,,,,,,,,,,,,,,,,,,,,,,,,,,,,,,,,,,,,,,578.1169360999484,578.5184139000485,578.5013951000292,578.6008636000333,579.0015632000286,None,left,1,0.553612699965015,579.0015632000286,None,578.5013951000292,578.6008636000333,578.6008636000333,None,579.5861172999721,None,,,,,,,11024,001,2024_Jan_07_1119,ANT,2021.2.3,59.80056508664466,
1,22,spatial,down,C,R,,,,,,Block.xlsx,"你已经完成了整个实验（三个区组）。

请报告实验者已完成实验

非常感谢，再见！",-1.5,0,-1.5,right,RRRRR.png,,,,,0,1,1,1,2,17,65,21,,,,,,,,,,,,,,,,,,,,,,,,,,,,,,,,,,,,,,,,,,,,,,,,,,,,,,,,,,,,,,,,579.9872424000641,580.3877430000575,580.3711335000116,580.471111800056,580.8718434000621,None,right,1,0.8032698000315577,580.8718434000621,None,580.3711335000116,580.471111800056,580.471111800056,None,581.7055927000474,None,,,,,,,11024,001,2024_Jan_07_1119,ANT,2021.2.3,59.80056508664466,
1,2,no,up,C,R,,,,,,Block.xlsx,"你已经完成了整个实验（三个区组）。

请报告实验者已完成实验

非常感谢，再见！",50,0,1.5,right,RRRRR.png,,,,,0,1,1,1,2,18,66,1,,,,,,,,,,,,,,,,,,,,,,,,,,,,,,,,,,,,,,,,,,,,,,,,,,,,,,,,,,,,,,,,582.1061049000127,582.5087720999727,582.4907399000367,582.5905945999548,582.9914238000056,None,right,1,0.7236919000279158,582.9914238000056,None,582.4907399000367,582.5905945999548,582.5905945999548,None,583.7421205999563,None,,,,,,,11024,001,2024_Jan_07_1119,ANT,2021.2.3,59.80056508664466,
1,3,no,up,IC,L,,,,,,Block.xlsx,"你已经完成了整个实验（三个区组）。

请报告实验者已完成实验

非常感谢，再见！",50,0,1.5,left,RRLRR.png,,,,,0,1,1,1,2,19,67,2,,,,,,,,,,,,,,,,,,,,,,,,,,,,,,,,,,,,,,,,,,,,,,,,,,,,,,,,,,,,,,,,584.142730499967,584.543855200056,584.5272025000304,584.6280075999675,585.0300018000416,None,left,1,0.7092095999978483,585.0300018000416,None,584.5272025000304,584.6280075999675,584.6280075999675,None,585.7622626000084,None,,,,,,,11024,001,2024_Jan_07_1119,ANT,2021.2.3,59.80056508664466,
1,5,no,down,C,L,,,,,,Block.xlsx,"你已经完成了整个实验（三个区组）。

请报告实验者已完成实验

非常感谢，再见！",50,0,-1.5,left,LLLLL.png,,,,,0,1,1,1,2,20,68,4,,,,,,,,,,,,,,,,,,,,,,,,,,,,,,,,,,,,,,,,,,,,,,,,,,,,,,,,,,,,,,,,586.162902800017,586.563795199967,586.5460832000244,586.6471604000544,587.0495514000067,None,left,1,0.6019720999756828,587.0495514000067,None,586.5460832000244,586.6471604000544,586.6471604000544,None,587.6811615000479,None,,,,,,,11024,001,2024_Jan_07_1119,ANT,2021.2.3,59.80056508664466,
1,21,spatial,down,C,L,,,,,,Block.xlsx,"你已经完成了整个实验（三个区组）。

请报告实验者已完成实验

非常感谢，再见！",-1.5,0,-1.5,left,LLLLL.png,,,,,0,1,1,1,2,21,69,20,,,,,,,,,,,,,,,,,,,,,,,,,,,,,,,,,,,,,,,,,,,,,,,,,,,,,,,,,,,,,,,,588.0815657000057,588.4822881000582,588.4666572000133,588.5665726000443,588.9669371000491,None,left,1,0.5492740999907255,588.9669371000491,None,588.4666572000133,588.5665726000443,588.5665726000443,None,589.5339880000101,None,,,,,,,11024,001,2024_Jan_07_1119,ANT,2021.2.3,59.80056508664466,
1,12,center,up,IC,R,,,,,,Block.xlsx,"你已经完成了整个实验（三个区组）。

请报告实验者已完成实验

非常感谢，再见！",0,50,1.5,right,LLRLL.png,,,,,0,1,1,1,2,22,70,11,,,,,,,,,,,,,,,,,,,,,,,,,,,,,,,,,,,,,,,,,,,,,,,,,,,,,,,,,,,,,,,,589.9347514000256,590.3351050999481,590.3204753999598,590.4373113999609,590.8203058999497,None,right,1,0.7188289000187069,590.8203058999497,None,590.3204753999598,590.4373113999609,590.4195097000338,None,591.5538720999612,None,,,,,,,11024,001,2024_Jan_07_1119,ANT,2021.2.3,59.80056508664466,
1,18,spatial,up,C,R,,,,,,Block.xlsx,"你已经完成了整个实验（三个区组）。

请报告实验者已完成实验

非常感谢，再见！",1.5,0,1.5,right,RRRRR.png,,,,,0,1,1,1,2,23,71,17,,,,,,,,,,,,,,,,,,,,,,,,,,,,,,,,,,,,,,,,,,,,,,,,,,,,,,,,,,,,,,,,591.9540706999833,592.3570694000227,592.3380209000316,592.4390034000389,592.839938399964,None,right,1,0.44328879995737225,592.839938399964,None,592.3380209000316,592.4390034000389,592.4390034000389,None,593.3060667000245,None,,,,,,,11024,001,2024_Jan_07_1119,ANT,2021.2.3,59.80056508664466,
1,10,center,up,C,R,,,,,,Block.xlsx,"你已经完成了整个实验（三个区组）。

请报告实验者已完成实验

非常感谢，再见！",0,50,1.5,right,RRRRR.png,,,,,0,1,1,1,3,0,72,9,,,,,,,,,,,,,,,,,,,,,,,,,,,,,,,,,,,,,,,,,,,,,,,,,,,,,,,,,,,,,,,,593.7072588000447,594.1079114000313,594.0912443000125,594.192519400036,594.5928408000618,None,right,1,0.4903995000058785,594.5928408000618,None,594.0912443000125,594.192519400036,594.192519400036,None,595.1087289999705,None,,,,,,,11024,001,2024_Jan_07_1119,ANT,2021.2.3,59.80056508664466,
1,22,spatial,down,C,R,,,,,,Block.xlsx,"你已经完成了整个实验（三个区组）。

请报告实验者已完成实验

非常感谢，再见！",-1.5,0,-1.5,right,RRRRR.png,,,,,0,1,1,1,3,1,73,21,,,,,,,,,,,,,,,,,,,,,,,,,,,,,,,,,,,,,,,,,,,,,,,,,,,,,,,,,,,,,,,,595.5098229000578,595.9109041000484,595.8933792000171,595.9942536000162,596.3949938999722,None,right,1,0.6242657999973744,596.3949938999722,None,595.8933792000171,595.9942536000162,595.9942536000162,None,597.0450488999486,None,,,,,,,11024,001,2024_Jan_07_1119,ANT,2021.2.3,59.80056508664466,
1,18,spatial,up,C,R,,,,,,Block.xlsx,"你已经完成了整个实验（三个区组）。

请报告实验者已完成实验

非常感谢，再见！",1.5,0,1.5,right,RRRRR.png,,,,,0,1,1,1,3,2,74,17,,,,,,,,,,,,,,,,,,,,,,,,,,,,,,,,,,,,,,,,,,,,,,,,,,,,,,,,,,,,,,,,597.4459380999906,597.846803399967,597.8303068999667,597.9305223999545,598.331163899973,None,right,1,0.5200031000422314,598.331163899973,None,597.8303068999667,597.9305223999545,597.9305223999545,None,598.8821923000505,None,,,,,,,11024,001,2024_Jan_07_1119,ANT,2021.2.3,59.80056508664466,
1,16,center,down,IC,R,,,,,,Block.xlsx,"你已经完成了整个实验（三个区组）。

请报告实验者已完成实验

非常感谢，再见！",0,50,-1.5,right,LLRLL.png,,,,,0,1,1,1,3,3,75,15,,,,,,,,,,,,,,,,,,,,,,,,,,,,,,,,,,,,,,,,,,,,,,,,,,,,,,,,,,,,,,,,599.2818241999485,599.6827175000217,599.6668505000416,599.7675072000129,600.1670106999809,None,right,1,0.7082193000242114,600.1670106999809,None,599.6668505000416,599.7675072000129,599.7675072000129,None,600.9008466999512,None,,,,,,,11024,001,2024_Jan_07_1119,ANT,2021.2.3,59.80056508664466,
1,4,no,up,IC,R,,,,,,Block.xlsx,"你已经完成了整个实验（三个区组）。

请报告实验者已完成实验

非常感谢，再见！",50,0,1.5,right,LLRLL.png,,,,,0,1,1,1,3,4,76,3,,,,,,,,,,,,,,,,,,,,,,,,,,,,,,,,,,,,,,,,,,,,,,,,,,,,,,,,,,,,,,,,601.3025846000528,601.7034042000305,601.6855128000025,601.7875375000294,602.1869020999875,None,right,1,0.6725991000421345,602.1869020999875,None,601.6855128000025,601.7875375000294,601.7875375000294,None,602.8869736000197,None,,,,,,,11024,001,2024_Jan_07_1119,ANT,2021.2.3,59.80056508664466,
1,14,center,down,C,R,,,,,,Block.xlsx,"你已经完成了整个实验（三个区组）。

请报告实验者已完成实验

非常感谢，再见！",0,50,-1.5,right,RRRRR.png,,,,,0,1,1,1,3,5,77,13,,,,,,,,,,,,,,,,,,,,,,,,,,,,,,,,,,,,,,,,,,,,,,,,,,,,,,,,,,,,,,,,603.2877075000433,603.689482399961,603.6715158000588,603.7721455000574,604.1726305000484,None,right,1,0.5351758999750018,604.1726305000484,None,603.6715158000588,603.7721455000574,603.7721455000574,None,604.7237101000501,None,,,,,,,11024,001,2024_Jan_07_1119,ANT,2021.2.3,59.80056508664466,
1,19,spatial,up,IC,L,,,,,,Block.xlsx,"你已经完成了整个实验（三个区组）。

请报告实验者已完成实验

非常感谢，再见！",1.5,0,1.5,left,RRLRR.png,,,,,0,1,1,1,3,6,78,18,,,,,,,,,,,,,,,,,,,,,,,,,,,,,,,,,,,,,,,,,,,,,,,,,,,,,,,,,,,,,,,,605.1243096999824,605.5250889000017,605.50838080002,605.6083903999534,606.0085471000057,None,None,0,,606.0085471000057,None,605.50838080002,605.6083903999534,605.6083903999534,None,607.7127216999652,None,,,,,,,11024,001,2024_Jan_07_1119,ANT,2021.2.3,59.80056508664466,
1,18,spatial,up,C,R,,,,,,Block.xlsx,"你已经完成了整个实验（三个区组）。

请报告实验者已完成实验

非常感谢，再见！",1.5,0,1.5,right,RRRRR.png,,,,,0,1,1,1,3,7,79,17,,,,,,,,,,,,,,,,,,,,,,,,,,,,,,,,,,,,,,,,,,,,,,,,,,,,,,,,,,,,,,,,608.1120412000455,608.514487599954,608.4962681999896,608.5966015000595,608.9972761999816,None,right,1,0.5345664999913424,608.9972761999816,None,608.4962681999896,608.5966015000595,608.5966015000595,None,609.5468799000373,None,,,,,,,11024,001,2024_Jan_07_1119,ANT,2021.2.3,59.80056508664466,
1,14,center,down,C,R,,,,,,Block.xlsx,"你已经完成了整个实验（三个区组）。

请报告实验者已完成实验

非常感谢，再见！",0,50,-1.5,right,RRRRR.png,,,,,0,1,1,1,3,8,80,13,,,,,,,,,,,,,,,,,,,,,,,,,,,,,,,,,,,,,,,,,,,,,,,,,,,,,,,,,,,,,,,,609.9482523000333,610.3493058000458,610.3313232000219,610.4334361000219,610.832763900049,None,right,1,0.6423864000244066,610.832763900049,None,610.3313232000219,610.4334361000219,610.4334361000219,None,611.5004691999638,None,,,,,,,11024,001,2024_Jan_07_1119,ANT,2021.2.3,59.80056508664466,
1,18,spatial,up,C,R,,,,,,Block.xlsx,"你已经完成了整个实验（三个区组）。

请报告实验者已完成实验

非常感谢，再见！",1.5,0,1.5,right,RRRRR.png,,,,,0,1,1,1,3,9,81,17,,,,,,,,,,,,,,,,,,,,,,,,,,,,,,,,,,,,,,,,,,,,,,,,,,,,,,,,,,,,,,,,611.9008796999697,612.3031769000227,612.2849574000575,612.38506650005,612.7867456000531,None,right,1,0.5929152000462636,612.7867456000531,None,612.2849574000575,612.38506650005,612.38506650005,None,613.4023723000428,None,,,,,,,11024,001,2024_Jan_07_1119,ANT,2021.2.3,59.80056508664466,
1,16,center,down,IC,R,,,,,,Block.xlsx,"你已经完成了整个实验（三个区组）。

请报告实验者已完成实验

非常感谢，再见！",0,50,-1.5,right,LLRLL.png,,,,,0,1,1,1,3,10,82,15,,,,,,,,,,,,,,,,,,,,,,,,,,,,,,,,,,,,,,,,,,,,,,,,,,,,,,,,,,,,,,,,613.8040640000254,614.2043688000413,614.1876850000117,614.2889349999605,614.6875466000056,None,right,1,0.6756639999803156,614.6875466000056,None,614.1876850000117,614.2889349999605,614.2889349999605,None,615.3895772000542,None,,,,,,,11024,001,2024_Jan_07_1119,ANT,2021.2.3,59.80056508664466,
1,20,spatial,up,IC,R,,,,,,Block.xlsx,"你已经完成了整个实验（三个区组）。

请报告实验者已完成实验

非常感谢，再见！",1.5,0,1.5,right,LLRLL.png,,,,,0,1,1,1,3,11,83,19,,,,,,,,,,,,,,,,,,,,,,,,,,,,,,,,,,,,,,,,,,,,,,,,,,,,,,,,,,,,,,,,615.7901337000076,616.1909680999815,616.1747558000498,616.2741568000056,616.6748341999482,None,right,1,0.5851487000472844,616.6748341999482,None,616.1747558000498,616.2741568000056,616.2741568000056,None,617.2751409000484,None,,,,,,,11024,001,2024_Jan_07_1119,ANT,2021.2.3,59.80056508664466,
1,12,center,up,IC,R,,,,,,Block.xlsx,"你已经完成了整个实验（三个区组）。

请报告实验者已完成实验

非常感谢，再见！",0,50,1.5,right,LLRLL.png,,,,,0,1,1,1,3,12,84,11,,,,,,,,,,,,,,,,,,,,,,,,,,,,,,,,,,,,,,,,,,,,,,,,,,,,,,,,,,,,,,,,617.6763037999626,618.077887600055,618.0595232000342,618.1602152000414,618.5609223999782,None,right,1,0.6742370999418199,618.5609223999782,None,618.0595232000342,618.1602152000414,618.1602152000414,None,619.2611867999658,None,,,,,,,11024,001,2024_Jan_07_1119,ANT,2021.2.3,59.80056508664466,
1,2,no,up,C,R,,,,,,Block.xlsx,"你已经完成了整个实验（三个区组）。

请报告实验者已完成实验

非常感谢，再见！",50,0,1.5,right,RRRRR.png,,,,,0,1,1,1,3,13,85,1,,,,,,,,,,,,,,,,,,,,,,,,,,,,,,,,,,,,,,,,,,,,,,,,,,,,,,,,,,,,,,,,619.6618787000189,620.0636702000629,620.0455658000428,620.1477321999846,620.5472401999868,None,right,1,0.600650499924086,620.5472401999868,None,620.0455658000428,620.1477321999846,620.1477321999846,None,621.1641098000109,None,,,,,,,11024,001,2024_Jan_07_1119,ANT,2021.2.3,59.80056508664466,
1,21,spatial,down,C,L,,,,,,Block.xlsx,"你已经完成了整个实验（三个区组）。

请报告实验者已完成实验

非常感谢，再见！",-1.5,0,-1.5,left,LLLLL.png,,,,,0,1,1,1,3,14,86,20,,,,,,,,,,,,,,,,,,,,,,,,,,,,,,,,,,,,,,,,,,,,,,,,,,,,,,,,,,,,,,,,621.5647273999639,621.9670072000008,621.9490092999768,622.0491668999894,622.4499534999486,None,left,1,0.5293146000476554,622.4499534999486,None,621.9490092999768,622.0491668999894,622.0491668999894,None,623.0011733999709,None,,,,,,,11024,001,2024_Jan_07_1119,ANT,2021.2.3,59.80056508664466,
1,23,spatial,down,IC,L,,,,,,Block.xlsx,"你已经完成了整个实验（三个区组）。

请报告实验者已完成实验

非常感谢，再见！",-1.5,0,-1.5,left,RRLRR.png,,,,,0,1,1,1,3,15,87,22,,,,,,,,,,,,,,,,,,,,,,,,,,,,,,,,,,,,,,,,,,,,,,,,,,,,,,,,,,,,,,,,623.4015247999923,623.8035934000509,623.7855218000477,623.8856412000023,624.2867569000227,None,left,1,0.7499455000506714,624.2867569000227,None,623.7855218000477,623.8856412000023,623.8856412000023,None,625.0531548999716,None,,,,,,,11024,001,2024_Jan_07_1119,ANT,2021.2.3,59.80056508664466,
1,24,spatial,down,IC,R,,,,,,Block.xlsx,"你已经完成了整个实验（三个区组）。

请报告实验者已完成实验

非常感谢，再见！",-1.5,0,-1.5,right,LLRLL.png,,,,,0,1,1,1,3,16,88,23,,,,,,,,,,,,,,,,,,,,,,,,,,,,,,,,,,,,,,,,,,,,,,,,,,,,,,,,,,,,,,,,625.4545400000643,625.855044899974,625.8396253000246,625.9553384999745,626.3406864999561,None,right,1,0.43858359998557717,626.3406864999561,None,625.8396253000246,625.9553384999745,625.9397241000552,None,626.805579100037,None,,,,,,,11024,001,2024_Jan_07_1119,ANT,2021.2.3,59.80056508664466,
1,11,center,up,IC,L,,,,,,Block.xlsx,"你已经完成了整个实验（三个区组）。

请报告实验者已完成实验

非常感谢，再见！",0,50,1.5,left,RRLRR.png,,,,,0,1,1,1,3,17,89,10,,,,,,,,,,,,,,,,,,,,,,,,,,,,,,,,,,,,,,,,,,,,,,,,,,,,,,,,,,,,,,,,627.2069653000217,627.6077284000348,627.5914912000299,627.6918689999729,628.0931262000231,None,left,1,0.6701132000889629,628.0931262000231,None,627.5914912000299,627.6918689999729,627.6918689999729,None,628.7924486000556,None,,,,,,,11024,001,2024_Jan_07_1119,ANT,2021.2.3,59.80056508664466,
1,14,center,down,C,R,,,,,,Block.xlsx,"你已经完成了整个实验（三个区组）。

请报告实验者已完成实验

非常感谢，再见！",0,50,-1.5,right,RRRRR.png,,,,,0,1,1,1,3,18,90,13,,,,,,,,,,,,,,,,,,,,,,,,,,,,,,,,,,,,,,,,,,,,,,,,,,,,,,,,,,,,,,,,629.1933713000035,629.594939099974,629.576393699972,629.6787743000314,630.0772024999605,None,right,1,0.5025491999695078,630.0772024999605,None,629.576393699972,629.6787743000314,629.6787743000314,None,630.5954845000524,None,,,,,,,11024,001,2024_Jan_07_1119,ANT,2021.2.3,59.80056508664466,
1,8,no,down,IC,R,,,,,,Block.xlsx,"你已经完成了整个实验（三个区组）。

请报告实验者已完成实验

非常感谢，再见！",50,0,-1.5,right,LLRLL.png,,,,,0,1,1,1,3,19,91,7,,,,,,,,,,,,,,,,,,,,,,,,,,,,,,,,,,,,,,,,,,,,,,,,,,,,,,,,,,,,,,,,630.9952624000143,631.3968632000033,631.3798795000184,631.4801348999608,631.879838700057,None,right,1,0.6997622000053525,631.879838700057,None,631.3798795000184,631.4801348999608,631.4801348999608,None,632.5977423000149,None,,,,,,,11024,001,2024_Jan_07_1119,ANT,2021.2.3,59.80056508664466,
1,15,center,down,IC,L,,,,,,Block.xlsx,"你已经完成了整个实验（三个区组）。

请报告实验者已完成实验

非常感谢，再见！",0,50,-1.5,left,RRLRR.png,,,,,0,1,1,1,3,20,92,14,,,,,,,,,,,,,,,,,,,,,,,,,,,,,,,,,,,,,,,,,,,,,,,,,,,,,,,,,,,,,,,,632.9992071000161,633.400581200025,633.382881400059,633.4830534999492,633.8834884000244,None,left,1,0.5437968999613076,633.8834884000244,None,633.382881400059,633.4830534999492,633.4830534999492,None,634.4504587999545,None,,,,,,,11024,001,2024_Jan_07_1119,ANT,2021.2.3,59.80056508664466,
1,5,no,down,C,L,,,,,,Block.xlsx,"你已经完成了整个实验（三个区组）。

请报告实验者已完成实验

