TrialType,TrialNumber,WarningType,TargetType,FlankerType,TargetDirection,W,f,Y,corr,imageFile,condition,endtext,Yw,Yf,Yt,Corr,imagefile,trials_3.thisRepN,trials_3.thisTrialN,trials_3.thisN,trials_3.thisIndex,trials_2.thisRepN,trials_2.thisTrialN,trials_2.thisN,trials_2.thisIndex,trials.thisRepN,trials.thisTrialN,trials.thisN,trials.thisIndex,instr.started,instr.stopped,key_resp.keys,key_resp.rt,key_resp.started,key_resp.stopped,image.started,image.stopped,key_resp_6.keys,key_resp_6.rt,key_resp_6.started,key_resp_6.stopped,EX_L.started,EX_L.stopped,AL.started,AL.stopped,key_resp_7.keys,key_resp_7.rt,key_resp_7.started,key_resp_7.stopped,EX_R.started,EX_R.stopped,RR.started,RR.stopped,key_resp_8.keys,key_resp_8.rt,key_resp_8.started,key_resp_8.stopped,image_2.started,image_2.stopped,key_resp_9.keys,key_resp_9.rt,key_resp_9.started,key_resp_9.stopped,image_3.started,image_3.stopped,key_resp_10.keys,key_resp_10.rt,key_resp_10.started,key_resp_10.stopped,fix.started,fix.stopped,war.started,war.stopped,tar.started,tar.stopped,key_resp_4.keys,key_resp_4.corr,key_resp_4.rt,key_resp_4.started,key_resp_4.stopped,fix2.started,fix2.stopped,fix_2.started,fix_2.stopped,Feedback.started,Feedback.stopped,key_resp_2.keys,key_resp_2.rt,key_resp_2.started,key_resp_2.stopped,text_5.started,text_5.stopped,fix2_1.started,fix2_1.stopped,Warn.started,Warn.stopped,Tar.started,Tar.stopped,key_resp_5.keys,key_resp_5.corr,key_resp_5.rt,key_resp_5.started,key_resp_5.stopped,Fix_2.started,Fix_2.stopped,fix2_2.started,fix2_2.stopped,text_4.started,text_4.stopped,key_resp_3.keys,key_resp_3.rt,key_resp_3.started,key_resp_3.stopped,text_3.started,text_3.stopped,participant,session,date,expName,psychopyVersion,frameRate,
,,,,,,,,,,,,,,,,,,,,,,,,,,,,,,9.601416099932976,None,space,8.723598100012168,9.601416099932976,None,,,,,,,,,,,,,,,,,,,,,,,,,,,,,,,,,,,,,,,,,,,,,,,,,,,,,,,,,,,,,,,,,,,,,,,,,,,,,,,,,11022,001,2024_Jan_05_1416,ANT,2021.2.3,59.84064434890171,
,,,,,,,,,,,,,,,,,,,,,,,,,,,,,,,,,,,,18.34828029992059,None,space,9.281060800072737,18.34828029992059,None,,,,,,,,,,,,,,,,,,,,,,,,,,,,,,,,,,,,,,,,,,,,,,,,,,,,,,,,,,,,,,,,,,,,,,,,,,,11022,001,2024_Jan_05_1416,ANT,2021.2.3,59.84064434890171,
,,,,,,,,,,,,,,,,,,,,,,,,,,,,,,,,,,,,,,,,,,27.645360499969684,None,27.645360499969684,None,left,21.83232070005033,27.645360499969684,None,,,,,,,,,,,,,,,,,,,,,,,,,,,,,,,,,,,,,,,,,,,,,,,,,,,,,,,,,,,,,,,,,,,11022,001,2024_Jan_05_1416,ANT,2021.2.3,59.84064434890171,
,,,,,,,,,,,,,,,,,,,,,,,,,,,,,,,,,,,,,,,,,,,,,,,,,,49.495437099947594,None,49.495437099947594,None,right,1.1020963999908417,49.495437099947594,None,,,,,,,,,,,,,,,,,,,,,,,,,,,,,,,,,,,,,,,,,,,,,,,,,,,,,,,,,,,11022,001,2024_Jan_05_1416,ANT,2021.2.3,59.84064434890171,
,,,,,,,,,,,,,,,,,,,,,,,,,,,,,,,,,,,,,,,,,,,,,,,,,,,,,,,,,,50.61292119999416,None,space,54.58456610003486,50.61292119999416,None,,,,,,,,,,,,,,,,,,,,,,,,,,,,,,,,,,,,,,,,,,,,,,,,,,,,,11022,001,2024_Jan_05_1416,ANT,2021.2.3,59.84064434890171,
,,,,,,,,,,,,,,,,,,,,,,,,,,,,,,,,,,,,,,,,,,,,,,,,,,,,,,,,,,,,,,,,105.21036299993284,None,space,7.546598300104961,105.21036299993284,None,,,,,,,,,,,,,,,,,,,,,,,,,,,,,,,,,,,,,,,,,,,,,,,11022,001,2024_Jan_05_1416,ANT,2021.2.3,59.84064434890171,
0,6,center,up,IC,R,0,50,1.5,right,LLRLL.png,,,,,,,,0,0,0,5,,,,,,,,,,,,,,,,,,,,,,,,,,,,,,,,,,,,,,,,,,,,,,,,,112.85483389999717,113.25586719997227,113.25586719997227,113.35615809995215,113.7563609998906,None,right,1,1.081156500033103,113.7563609998906,None,113.25586719997227,113.35615809995215,113.35615809995215,None,114.87514419993386,None,,,,,,,,,,,,,,,,,,,,,,,,,,,,,,11022,001,2024_Jan_05_1416,ANT,2021.2.3,59.84064434890171,
0,4,no,down,IC,L,50,0,-1.5,left,RRLRR.png,,,,,,,,0,1,1,3,,,,,,,,,,,,,,,,,,,,,,,,,,,,,,,,,,,,,,,,,,,,,,,,,116.87810380000155,117.27913449995685,117.26230109995231,117.36168739991263,117.76300999999512,None,left,1,0.6905499000567943,117.76300999999512,None,117.26230109995231,117.36168739991263,117.36168739991263,None,118.48009679990355,None,,,,,,,,,,,,,,,,,,,,,,,,,,,,,,11022,001,2024_Jan_05_1416,ANT,2021.2.3,59.84064434890171,
0,12,spatial,down,IC,R,-1.5,0,-1.5,right,LLRLL.png,,,,,,,,0,2,2,11,,,,,,,,,,,,,,,,,,,,,,,,,,,,,,,,,,,,,,,,,,,,,,,,,120.4837489000056,120.88424719998147,120.86825269996189,120.9683284999337,121.36771819996648,None,right,1,0.5734143999870867,121.36771819996648,None,120.86825269996189,120.9683284999337,120.9683284999337,None,121.9683108999161,None,,,,,,,,,,,,,,,,,,,,,,,,,,,,,,11022,001,2024_Jan_05_1416,ANT,2021.2.3,59.84064434890171,
0,3,no,down,C,R,50,0,-1.5,right,RRRRR.png,,,,,,,,0,3,3,2,,,,,,,,,,,,,,,,,,,,,,,,,,,,,,,,,,,,,,,,,,,,,,,,,123.97181099990848,124.37232229998335,124.35621729993727,124.45680759998504,124.85739089990966,None,right,1,0.587919200072065,124.85739089990966,None,124.35621729993727,124.45680759998504,124.45680759998504,None,125.47425479989033,None,,,,,,,,,,,,,,,,,,,,,,,,,,,,,,11022,001,2024_Jan_05_1416,ANT,2021.2.3,59.84064434890171,
0,5,center,up,C,L,0,50,1.5,left,LLLLL.png,,,,,,,,0,4,4,4,,,,,,,,,,,,,,,,,,,,,,,,,,,,,,,,,,,,,,,,,,,,,,,,,127.47713109990582,127.877736800001,127.86249339999631,127.96216299990192,128.36129699996673,None,left,1,0.5157856000587344,128.36129699996673,None,127.86249339999631,127.96216299990192,127.96216299990192,None,128.8954372999724,None,,,,,,,,,,,,,,,,,,,,,,,,,,,,,,11022,001,2024_Jan_05_1416,ANT,2021.2.3,59.84064434890171,
0,8,center,down,IC,L,0,50,-1.5,left,RRLRR.png,,,,,,,,0,5,5,7,,,,,,,,,,,,,,,,,,,,,,,,,,,,,,,,,,,,,,,,,,,,,,,,,130.8984351999825,131.2992717999732,131.2832850998966,131.38409089995548,131.78293059999123,None,left,1,0.5901860999874771,131.78293059999123,None,131.2832850998966,131.38409089995548,131.38409089995548,None,132.40062119998038,None,,,,,,,,,,,,,,,,,,,,,,,,,,,,,,11022,001,2024_Jan_05_1416,ANT,2021.2.3,59.84064434890171,
0,1,no,up,C,L,50,0,1.5,left,LLLLL.png,,,,,,,,0,6,6,0,,,,,,,,,,,,,,,,,,,,,,,,,,,,,,,,,,,,,,,,,,,,,,,,,134.40360909991432,134.80452739994507,134.78926959994715,134.8887067999458,135.2900287999073,None,left,1,0.43511690001469105,135.2900287999073,None,134.78926959994715,134.8887067999458,134.8887067999458,None,135.75566129991785,None,,,,,,,,,,,,,,,,,,,,,,,,,,,,,,11022,001,2024_Jan_05_1416,ANT,2021.2.3,59.84064434890171,
0,11,spatial,down,C,L,-1.5,0,-1.5,left,LLLLL.png,,,,,,,,0,7,7,10,,,,,,,,,,,,,,,,,,,,,,,,,,,,,,,,,,,,,,,,,,,,,,,,,137.75871609989554,138.16026809997857,138.1433824999258,138.24280069989618,138.64505789999384,None,left,1,0.36044109996873885,138.64505789999384,None,138.1433824999258,138.24280069989618,138.24280069989618,None,139.0275038999971,None,,,,,,,,,,,,,,,,,,,,,,,,,,,,,,11022,001,2024_Jan_05_1416,ANT,2021.2.3,59.84064434890171,
0,9,spatial,up,C,R,1.5,0,1.5,right,RRRRR.png,,,,,,,,0,8,8,8,,,,,,,,,,,,,,,,,,,,,,,,,,,,,,,,,,,,,,,,,,,,,,,,,141.03018499992322,141.43230719992425,141.41412779991515,141.51494809996802,141.91554749989882,None,right,1,0.33753430005162954,141.91554749989882,None,141.41412779991515,141.51494809996802,141.51494809996802,None,142.282101699966,None,,,,,,,,,,,,,,,,,,,,,,,,,,,,,,11022,001,2024_Jan_05_1416,ANT,2021.2.3,59.84064434890171,
0,7,center,down,C,R,0,50,-1.5,right,RRRRR.png,,,,,,,,0,9,9,6,,,,,,,,,,,,,,,,,,,,,,,,,,,,,,,,,,,,,,,,,,,,,,,,,144.28524119989015,144.6863051999826,144.67034379998222,144.76940399990417,145.1711292999098,None,right,1,0.36232810001820326,145.1711292999098,None,144.67034379998222,144.76940399990417,144.76940399990417,None,145.55336399993394,None,,,,,,,,,,,,,,,,,,,,,,,,,,,,,,11022,001,2024_Jan_05_1416,ANT,2021.2.3,59.84064434890171,
0,2,no,up,IC,R,50,0,1.5,right,LLRLL.png,,,,,,,,0,10,10,1,,,,,,,,,,,,,,,,,,,,,,,,,,,,,,,,,,,,,,,,,,,,,,,,,147.5573057999136,147.95695709995925,147.9416646999307,148.04163130000234,148.44145469996147,None,left,0,0.37162730004638433,148.44145469996147,None,147.9416646999307,148.04163130000234,148.04163130000234,None,148.8415008999873,None,,,,,,,,,,,,,,,,,,,,,,,,,,,,,,11022,001,2024_Jan_05_1416,ANT,2021.2.3,59.84064434890171,
0,10,spatial,up,IC,L,1.5,0,1.5,left,RRLRR.png,,,,,,,,0,11,11,9,,,,,,,,,,,,,,,,,,,,,,,,,,,,,,,,,,,,,,,,,,,,,,,,,150.8458880999824,151.2467332999222,151.2290353999706,151.33011629991233,151.73008389992174,None,left,1,0.39517609996255487,151.73008389992174,None,151.2290353999706,151.33011629991233,151.33011629991233,None,152.14642859995365,None,,,,,,,,,,,,,,,,,,,,,,,,,,,,,,11022,001,2024_Jan_05_1416,ANT,2021.2.3,59.84064434890171,
,,,,,,,,,,,,,,,,,,,,,,,,,,,,,,,,,,,,,,,,,,,,,,,,,,,,,,,,,,,,,,,,,,,,,,,,,,,,,,,,,,,,,,,space,16.711456699995324,154.14963619993068,None,,,,,,,,,,,,,,,,,,,,,,,,,,11022,001,2024_Jan_05_1416,ANT,2021.2.3,59.84064434890171,
1,17,spatial,up,C,L,,,,,,Block.xlsx,"你已经完成了第一个实验区组

请稍作休息


点击空格键进入下一个区组。",1.5,0,1.5,left,LLLLL.png,,,,,0,0,0,0,0,0,0,16,,,,,,,,,,,,,,,,,,,,,,,,,,,,,,,,,,,,,,,,,,,,,,,,,,,,,,,,,,,,,,154.14963619993068,None,170.92524059989955,171.32598939992022,171.30830359994434,171.40931789996102,171.80909309990238,None,left,1,0.3642113999230787,171.80909309990238,None,171.30830359994434,171.40931789996102,171.40931789996102,None,172.19305409991648,None,,,,,,,11022,001,2024_Jan_05_1416,ANT,2021.2.3,59.84064434890171,
1,23,spatial,down,IC,L,,,,,,Block.xlsx,"你已经完成了第一个实验区组

请稍作休息


点击空格键进入下一个区组。",-1.5,0,-1.5,left,RRLRR.png,,,,,0,0,0,0,0,1,1,22,,,,,,,,,,,,,,,,,,,,,,,,,,,,,,,,,,,,,,,,,,,,,,,,,,,,,,,,,,,,,,,,172.59406239993405,172.99526100000367,172.97984970000107,173.07760989991948,173.47829060000367,None,left,1,0.4228657999774441,173.47829060000367,None,172.97984970000107,173.07760989991948,173.07760989991948,None,173.92892079998273,None,,,,,,,11022,001,2024_Jan_05_1416,ANT,2021.2.3,59.84064434890171,
1,4,no,up,IC,R,,,,,,Block.xlsx,"你已经完成了第一个实验区组

请稍作休息


点击空格键进入下一个区组。",50,0,1.5,right,LLRLL.png,,,,,0,0,0,0,0,2,2,3,,,,,,,,,,,,,,,,,,,,,,,,,,,,,,,,,,,,,,,,,,,,,,,,,,,,,,,,,,,,,,,,174.32952169992495,174.73143029992934,174.7134812999284,174.81357489991933,175.21670699992683,None,right,1,0.4286391999339685,175.21670699992683,None,174.7134812999284,174.81357489991933,174.81357489991933,None,175.66474049992394,None,,,,,,,11022,001,2024_Jan_05_1416,ANT,2021.2.3,59.84064434890171,
1,6,no,down,C,R,,,,,,Block.xlsx,"你已经完成了第一个实验区组

请稍作休息


点击空格键进入下一个区组。",50,0,-1.5,right,RRRRR.png,,,,,0,0,0,0,0,3,3,5,,,,,,,,,,,,,,,,,,,,,,,,,,,,,,,,,,,,,,,,,,,,,,,,,,,,,,,,,,,,,,,,176.06541329994798,176.4665975999087,176.45142199995462,176.5660061999224,176.95124749990646,None,right,1,0.44642109994310886,176.95124749990646,None,176.45142199995462,176.5660061999224,176.5509009999223,None,177.4173472999828,None,,,,,,,11022,001,2024_Jan_05_1416,ANT,2021.2.3,59.84064434890171,
1,1,no,up,C,L,,,,,,Block.xlsx,"你已经完成了第一个实验区组

请稍作休息


点击空格键进入下一个区组。",50,0,1.5,left,LLLLL.png,,,,,0,0,0,0,0,4,4,0,,,,,,,,,,,,,,,,,,,,,,,,,,,,,,,,,,,,,,,,,,,,,,,,,,,,,,,,,,,,,,,,177.81815379997715,178.2198303999612,178.20175149990246,178.30278029991314,178.70355889992788,None,left,1,0.30207550001796335,178.70355889992788,None,178.20175149990246,178.30278029991314,178.30278029991314,None,179.03700629994273,None,,,,,,,11022,001,2024_Jan_05_1416,ANT,2021.2.3,59.84064434890171,
1,5,no,down,C,L,,,,,,Block.xlsx,"你已经完成了第一个实验区组

请稍作休息


点击空格键进入下一个区组。",50,0,-1.5,left,LLLLL.png,,,,,0,0,0,0,0,5,5,4,,,,,,,,,,,,,,,,,,,,,,,,,,,,,,,,,,,,,,,,,,,,,,,,,,,,,,,,,,,,,,,,179.43869609991089,179.85442899994086,179.82085689995438,179.9218526999466,180.3228254999267,None,left,1,0.35452940000686795,180.3228254999267,None,179.82085689995438,179.9218526999466,179.9218526999466,None,180.70715859998018,None,,,,,,,11022,001,2024_Jan_05_1416,ANT,2021.2.3,59.84064434890171,
1,1,no,up,C,L,,,,,,Block.xlsx,"你已经完成了第一个实验区组

请稍作休息


点击空格键进入下一个区组。",50,0,1.5,left,LLLLL.png,,,,,0,0,0,0,0,6,6,0,,,,,,,,,,,,,,,,,,,,,,,,,,,,,,,,,,,,,,,,,,,,,,,,,,,,,,,,,,,,,,,,181.10608729999512,181.50682059989776,181.49049499991816,181.59108239994384,181.9933837999124,None,left,1,0.33200119994580746,181.9933837999124,None,181.49049499991816,181.59108239994384,181.59108239994384,None,182.3414733998943,None,,,,,,,11022,001,2024_Jan_05_1416,ANT,2021.2.3,59.84064434890171,
1,16,center,down,IC,R,,,,,,Block.xlsx,"你已经完成了第一个实验区组

请稍作休息


点击空格键进入下一个区组。",0,50,-1.5,right,LLRLL.png,,,,,0,0,0,0,0,7,7,15,,,,,,,,,,,,,,,,,,,,,,,,,,,,,,,,,,,,,,,,,,,,,,,,,,,,,,,,,,,,,,,,182.74205599993002,183.1432062999811,183.12569119990803,183.2276358999079,183.6283610999817,None,left,0,0.3927730000577867,183.6283610999817,None,183.12569119990803,183.2276358999079,183.2276358999079,None,184.04589869990014,None,,,,,,,11022,001,2024_Jan_05_1416,ANT,2021.2.3,59.84064434890171,
1,22,spatial,down,C,R,,,,,,Block.xlsx,"你已经完成了第一个实验区组

请稍作休息


点击空格键进入下一个区组。",-1.5,0,-1.5,right,RRRRR.png,,,,,0,0,0,0,0,8,8,21,,,,,,,,,,,,,,,,,,,,,,,,,,,,,,,,,,,,,,,,,,,,,,,,,,,,,,,,,,,,,,,,184.44554029998835,184.84687789995223,184.82838339998852,184.92881719989236,185.3311913999496,None,right,1,0.330567300086841,185.3311913999496,None,184.82838339998852,184.92881719989236,184.92881719989236,None,185.67946669994853,None,,,,,,,11022,001,2024_Jan_05_1416,ANT,2021.2.3,59.84064434890171,
1,3,no,up,IC,L,,,,,,Block.xlsx,"你已经完成了第一个实验区组

请稍作休息


点击空格键进入下一个区组。",50,0,1.5,left,RRLRR.png,,,,,0,0,0,0,0,9,9,2,,,,,,,,,,,,,,,,,,,,,,,,,,,,,,,,,,,,,,,,,,,,,,,,,,,,,,,,,,,,,,,,186.08154679997824,186.48147739993874,186.46633919992018,186.5648525999859,186.96576049993746,None,left,1,0.49577909999061376,186.96576049993746,None,186.46633919992018,186.5648525999859,186.5648525999859,None,187.48222759994678,None,,,,,,,11022,001,2024_Jan_05_1416,ANT,2021.2.3,59.84064434890171,
1,18,spatial,up,C,R,,,,,,Block.xlsx,"你已经完成了第一个实验区组

请稍作休息


点击空格键进入下一个区组。",1.5,0,1.5,right,RRRRR.png,,,,,0,0,0,0,0,10,10,17,,,,,,,,,,,,,,,,,,,,,,,,,,,,,,,,,,,,,,,,,,,,,,,,,,,,,,,,,,,,,,,,187.88281159999315,188.28342110000085,188.2683107999619,188.38561389991082,188.76742789999116,None,right,1,0.3179217999568209,188.76742789999116,None,188.2683107999619,188.38561389991082,188.36695479997434,None,189.10132069990505,None,,,,,,,11022,001,2024_Jan_05_1416,ANT,2021.2.3,59.84064434890171,
1,15,center,down,IC,L,,,,,,Block.xlsx,"你已经完成了第一个实验区组

请稍作休息


点击空格键进入下一个区组。",0,50,-1.5,left,RRLRR.png,,,,,0,0,0,0,0,11,11,14,,,,,,,,,,,,,,,,,,,,,,,,,,,,,,,,,,,,,,,,,,,,,,,,,,,,,,,,,,,,,,,,189.50213739997707,189.9024849999696,189.88669229997322,189.98758159996942,190.38714729994535,None,left,1,0.47415010002441704,190.38714729994535,None,189.88669229997322,189.98758159996942,189.98758159996942,None,190.88728789996821,None,,,,,,,11022,001,2024_Jan_05_1416,ANT,2021.2.3,59.84064434890171,
1,15,center,down,IC,L,,,,,,Block.xlsx,"你已经完成了第一个实验区组

请稍作休息


点击空格键进入下一个区组。",0,50,-1.5,left,RRLRR.png,,,,,0,0,0,0,0,12,12,14,,,,,,,,,,,,,,,,,,,,,,,,,,,,,,,,,,,,,,,,,,,,,,,,,,,,,,,,,,,,,,,,191.28792299993802,191.68909339990932,191.6719137999462,191.77182569995057,192.17321709997486,None,left,1,0.5919870999641716,192.17321709997486,None,191.6719137999462,191.77182569995057,191.77182569995057,None,192.79025570000522,None,,,,,,,11022,001,2024_Jan_05_1416,ANT,2021.2.3,59.84064434890171,
1,1,no,up,C,L,,,,,,Block.xlsx,"你已经完成了第一个实验区组

请稍作休息


点击空格键进入下一个区组。",50,0,1.5,left,LLLLL.png,,,,,0,0,0,0,0,13,13,0,,,,,,,,,,,,,,,,,,,,,,,,,,,,,,,,,,,,,,,,,,,,,,,,,,,,,,,,,,,,,,,,193.19214289996307,193.59201919997577,193.57712479995098,193.69314119999763,194.07626040000468,None,left,1,0.45691149996127933,194.07626040000468,None,193.57712479995098,193.69314119999763,193.67527299991343,None,194.55954779998865,None,,,,,,,11022,001,2024_Jan_05_1416,ANT,2021.2.3,59.84064434890171,
1,22,spatial,down,C,R,,,,,,Block.xlsx,"你已经完成了第一个实验区组

请稍作休息


点击空格键进入下一个区组。",-1.5,0,-1.5,right,RRRRR.png,,,,,0,0,0,0,0,14,14,21,,,,,,,,,,,,,,,,,,,,,,,,,,,,,,,,,,,,,,,,,,,,,,,,,,,,,,,,,,,,,,,,194.9602988999104,195.36176139989402,195.34441029990558,195.44479209999554,195.84612469992135,None,right,1,0.3349706999724731,195.84612469992135,None,195.34441029990558,195.44479209999554,195.44479209999554,None,196.21247989998665,None,,,,,,,11022,001,2024_Jan_05_1416,ANT,2021.2.3,59.84064434890171,
1,13,center,down,C,L,,,,,,Block.xlsx,"你已经完成了第一个实验区组

请稍作休息


点击空格键进入下一个区组。",0,50,-1.5,left,LLLLL.png,,,,,0,0,0,0,0,15,15,12,,,,,,,,,,,,,,,,,,,,,,,,,,,,,,,,,,,,,,,,,,,,,,,,,,,,,,,,,,,,,,,,196.61258879990783,197.01323549996596,196.9972069999203,197.09835309989285,197.49879579991102,None,left,1,0.4026609999127686,197.49879579991102,None,196.9972069999203,197.09835309989285,197.09835309989285,None,197.93186899996363,None,,,,,,,11022,001,2024_Jan_05_1416,ANT,2021.2.3,59.84064434890171,
1,1,no,up,C,L,,,,,,Block.xlsx,"你已经完成了第一个实验区组

请稍作休息


点击空格键进入下一个区组。",50,0,1.5,left,LLLLL.png,,,,,0,0,0,0,0,16,16,0,,,,,,,,,,,,,,,,,,,,,,,,,,,,,,,,,,,,,,,,,,,,,,,,,,,,,,,,,,,,,,,,198.3325310999062,198.7338546999963,198.71586189989466,198.81733899994288,199.21644099999685,None,left,1,0.4608802000293508,199.21644099999685,None,198.71586189989466,198.81733899994288,198.81733899994288,None,199.7003997999709,None,,,,,,,11022,001,2024_Jan_05_1416,ANT,2021.2.3,59.84064434890171,
1,16,center,down,IC,R,,,,,,Block.xlsx,"你已经完成了第一个实验区组

请稍作休息


点击空格键进入下一个区组。",0,50,-1.5,right,LLRLL.png,,,,,0,0,0,0,0,17,17,15,,,,,,,,,,,,,,,,,,,,,,,,,,,,,,,,,,,,,,,,,,,,,,,,,,,,,,,,,,,,,,,,200.1011096999282,200.5035310999956,200.48557759996038,200.5861604999518,200.98585939989425,None,right,1,0.47539819998200983,200.98585939989425,None,200.48557759996038,200.5861604999518,200.5861604999518,None,201.4864113999065,None,,,,,,,11022,001,2024_Jan_05_1416,ANT,2021.2.3,59.84064434890171,
1,19,spatial,up,IC,L,,,,,,Block.xlsx,"你已经完成了第一个实验区组

请稍作休息


点击空格键进入下一个区组。",1.5,0,1.5,left,RRLRR.png,,,,,0,0,0,0,0,18,18,18,,,,,,,,,,,,,,,,,,,,,,,,,,,,,,,,,,,,,,,,,,,,,,,,,,,,,,,,,,,,,,,,201.88702029990964,202.28822079999372,202.27097869990394,202.37182109989226,202.77204289997462,None,left,1,0.3855856000445783,202.77204289997462,None,202.27097869990394,202.37182109989226,202.37182109989226,None,203.17357449990232,None,,,,,,,11022,001,2024_Jan_05_1416,ANT,2021.2.3,59.84064434890171,
1,9,center,up,C,L,,,,,,Block.xlsx,"你已经完成了第一个实验区组

请稍作休息


点击空格键进入下一个区组。",0,50,1.5,left,LLLLL.png,,,,,0,0,0,0,0,19,19,8,,,,,,,,,,,,,,,,,,,,,,,,,,,,,,,,,,,,,,,,,,,,,,,,,,,,,,,,,,,,,,,,203.57324079994578,203.9744408999104,203.9567341998918,204.0574951999588,204.45794279989786,None,left,1,0.38722799997776747,204.45794279989786,None,203.9567341998918,204.0574951999588,204.0574951999588,None,204.87508739996701,None,,,,,,,11022,001,2024_Jan_05_1416,ANT,2021.2.3,59.84064434890171,
1,17,spatial,up,C,L,,,,,,Block.xlsx,"你已经完成了第一个实验区组

请稍作休息


点击空格键进入下一个区组。",1.5,0,1.5,left,LLLLL.png,,,,,0,0,0,0,0,20,20,16,,,,,,,,,,,,,,,,,,,,,,,,,,,,,,,,,,,,,,,,,,,,,,,,,,,,,,,,,,,,,,,,205.27558039990254,205.67668789997697,205.66157459991518,205.77674619993195,206.16196299996227,None,left,1,0.32319220004137605,206.16196299996227,None,205.66157459991518,205.77674619993195,205.76085429999512,None,206.51056859991513,None,,,,,,,11022,001,2024_Jan_05_1416,ANT,2021.2.3,59.84064434890171,
1,7,no,down,IC,L,,,,,,Block.xlsx,"你已经完成了第一个实验区组

请稍作休息


点击空格键进入下一个区组。",50,0,-1.5,left,RRLRR.png,,,,,0,0,0,0,0,21,21,6,,,,,,,,,,,,,,,,,,,,,,,,,,,,,,,,,,,,,,,,,,,,,,,,,,,,,,,,,,,,,,,,206.91170709999278,207.31178759993054,207.29569769999944,207.39634809992276,207.79726989998017,None,left,1,0.5359543999657035,207.79726989998017,None,207.29569769999944,207.39634809992276,207.39634809992276,None,208.36328529997263,None,,,,,,,11022,001,2024_Jan_05_1416,ANT,2021.2.3,59.84064434890171,
1,20,spatial,up,IC,R,,,,,,Block.xlsx,"你已经完成了第一个实验区组

请稍作休息


点击空格键进入下一个区组。",1.5,0,1.5,right,LLRLL.png,,,,,0,0,0,0,0,22,22,19,,,,,,,,,,,,,,,,,,,,,,,,,,,,,,,,,,,,,,,,,,,,,,,,,,,,,,,,,,,,,,,,208.76400139997713,209.16655019996688,209.14846459997352,209.24869739997666,209.64913929998875,None,right,1,0.3966716999420896,209.64913929998875,None,209.14846459997352,209.24869739997666,209.24869739997666,None,210.0658817999065,None,,,,,,,11022,001,2024_Jan_05_1416,ANT,2021.2.3,59.84064434890171,
1,8,no,down,IC,R,,,,,,Block.xlsx,"你已经完成了第一个实验区组

请稍作休息


点击空格键进入下一个区组。",50,0,-1.5,right,LLRLL.png,,,,,0,0,0,0,0,23,23,7,,,,,,,,,,,,,,,,,,,,,,,,,,,,,,,,,,,,,,,,,,,,,,,,,,,,,,,,,,,,,,,,210.46657819999382,210.86821579991374,210.85068909998517,210.95269479998387,211.35099239996634,None,right,1,0.534785500029102,211.35099239996634,None,210.85068909998517,210.95269479998387,210.95269479998387,None,211.90190169995185,None,,,,,,,11022,001,2024_Jan_05_1416,ANT,2021.2.3,59.84064434890171,
1,16,center,down,IC,R,,,,,,Block.xlsx,"你已经完成了第一个实验区组

请稍作休息


点击空格键进入下一个区组。",0,50,-1.5,right,LLRLL.png,,,,,0,0,0,0,1,0,24,15,,,,,,,,,,,,,,,,,,,,,,,,,,,,,,,,,,,,,,,,,,,,,,,,,,,,,,,,,,,,,,,,212.3023270999547,212.7029769999208,212.68700419995002,212.7868751999922,213.18910619989038,None,right,1,0.5283328000223264,213.18910619989038,None,212.68700419995002,212.7868751999922,212.7868751999922,None,213.73793019994628,None,,,,,,,11022,001,2024_Jan_05_1416,ANT,2021.2.3,59.84064434890171,
1,21,spatial,down,C,L,,,,,,Block.xlsx,"你已经完成了第一个实验区组

请稍作休息


点击空格键进入下一个区组。",-1.5,0,-1.5,left,LLLLL.png,,,,,0,0,0,0,1,1,25,20,,,,,,,,,,,,,,,,,,,,,,,,,,,,,,,,,,,,,,,,,,,,,,,,,,,,,,,,,,,,,,,,214.1394381999271,214.54122329992242,214.5225124999415,214.62332919996697,215.02315789996646,None,left,1,0.3503166000591591,215.02315789996646,None,214.5225124999415,214.62332919996697,214.62332919996697,None,215.39040579996072,None,,,,,,,11022,001,2024_Jan_05_1416,ANT,2021.2.3,59.84064434890171,
1,4,no,up,IC,R,,,,,,Block.xlsx,"你已经完成了第一个实验区组

请稍作休息


点击空格键进入下一个区组。",50,0,1.5,right,LLRLL.png,,,,,0,0,0,0,1,2,26,3,,,,,,,,,,,,,,,,,,,,,,,,,,,,,,,,,,,,,,,,,,,,,,,,,,,,,,,,,,,,,,,,215.79093569994438,216.19399309996516,216.1754311999539,216.27545509999618,216.67635179997887,None,right,1,0.592836800031364,216.67635179997887,None,216.1754311999539,216.27545509999618,216.27545509999618,None,217.29321699996945,None,,,,,,,11022,001,2024_Jan_05_1416,ANT,2021.2.3,59.84064434890171,
1,18,spatial,up,C,R,,,,,,Block.xlsx,"你已经完成了第一个实验区组

请稍作休息


点击空格键进入下一个区组。",1.5,0,1.5,right,RRRRR.png,,,,,0,0,0,0,1,3,27,17,,,,,,,,,,,,,,,,,,,,,,,,,,,,,,,,,,,,,,,,,,,,,,,,,,,,,,,,,,,,,,,,217.69379129994195,218.0950448999647,218.0794415998971,218.17785119998734,218.5789696999127,None,right,1,0.3542223999975249,218.5789696999127,None,218.0794415998971,218.17785119998734,218.17785119998734,None,218.96221719996538,None,,,,,,,11022,001,2024_Jan_05_1416,ANT,2021.2.3,59.84064434890171,
1,10,center,up,C,R,,,,,,Block.xlsx,"你已经完成了第一个实验区组

请稍作休息


点击空格键进入下一个区组。",0,50,1.5,right,RRRRR.png,,,,,0,0,0,0,1,4,28,9,,,,,,,,,,,,,,,,,,,,,,,,,,,,,,,,,,,,,,,,,,,,,,,,,,,,,,,,,,,,,,,,219.36302439996507,219.76447229995392,219.74746719992254,219.8473182999296,220.24764049996156,None,right,1,0.47777190001215786,220.24764049996156,None,219.74746719992254,219.8473182999296,219.8473182999296,None,220.74848129996099,None,,,,,,,11022,001,2024_Jan_05_1416,ANT,2021.2.3,59.84064434890171,
1,7,no,down,IC,L,,,,,,Block.xlsx,"你已经完成了第一个实验区组

请稍作休息


点击空格键进入下一个区组。",50,0,-1.5,left,RRLRR.png,,,,,0,0,0,0,1,5,29,6,,,,,,,,,,,,,,,,,,,,,,,,,,,,,,,,,,,,,,,,,,,,,,,,,,,,,,,,,,,,,,,,221.14905959996395,221.54959839989897,221.53493279998656,221.64998919994105,222.03463559993543,None,left,1,0.49901540006976575,222.03463559993543,None,221.53493279998656,221.64998919994105,221.6351787999738,None,222.5510740999598,None,,,,,,,11022,001,2024_Jan_05_1416,ANT,2021.2.3,59.84064434890171,
1,11,center,up,IC,L,,,,,,Block.xlsx,"你已经完成了第一个实验区组

请稍作休息


点击空格键进入下一个区组。",0,50,1.5,left,RRLRR.png,,,,,0,0,0,0,1,6,30,10,,,,,,,,,,,,,,,,,,,,,,,,,,,,,,,,,,,,,,,,,,,,,,,,,,,,,,,,,,,,,,,,222.95146979996935,223.35198969999328,223.3365063999081,223.43575009994674,223.83730829996057,None,left,1,0.512959000072442,223.83730829996057,None,223.3365063999081,223.43575009994674,223.43575009994674,None,224.37034229992423,None,,,,,,,11022,001,2024_Jan_05_1416,ANT,2021.2.3,59.84064434890171,
1,2,no,up,C,R,,,,,,Block.xlsx,"你已经完成了第一个实验区组

请稍作休息


点击空格键进入下一个区组。",50,0,1.5,right,RRRRR.png,,,,,0,0,0,0,1,7,31,1,,,,,,,,,,,,,,,,,,,,,,,,,,,,,,,,,,,,,,,,,,,,,,,,,,,,,,,,,,,,,,,,224.77076499990653,225.17163129989058,225.15583169995807,225.25623379996978,225.65639999997802,None,right,1,0.5334241000236943,225.65639999997802,None,225.15583169995807,225.25623379996978,225.25623379996978,None,226.20645389996935,None,,,,,,,11022,001,2024_Jan_05_1416,ANT,2021.2.3,59.84064434890171,
1,5,no,down,C,L,,,,,,Block.xlsx,"你已经完成了第一个实验区组

请稍作休息


点击空格键进入下一个区组。",50,0,-1.5,left,LLLLL.png,,,,,0,0,0,0,1,8,32,4,,,,,,,,,,,,,,,,,,,,,,,,,,,,,,,,,,,,,,,,,,,,,,,,,,,,,,,,,,,,,,,,226.60687989997678,227.00873879995197,226.99091949989088,227.09163679997437,227.49283369991463,None,left,1,0.41656799998600036,227.49283369991463,None,226.99091949989088,227.09163679997437,227.09163679997437,None,227.92550809995737,None,,,,,,,11022,001,2024_Jan_05_1416,ANT,2021.2.3,59.84064434890171,
1,12,center,up,IC,R,,,,,,Block.xlsx,"你已经完成了第一个实验区组

请稍作休息


点击空格键进入下一个区组。",0,50,1.5,right,LLRLL.png,,,,,0,0,0,0,1,9,33,11,,,,,,,,,,,,,,,,,,,,,,,,,,,,,,,,,,,,,,,,,,,,,,,,,,,,,,,,,,,,,,,,228.32624599989504,228.7284969999455,228.71078929991927,228.81111329991836,229.21235369995702,None,right,1,0.40885340003296733,229.21235369995702,None,228.71078929991927,228.81111329991836,228.81111329991836,None,229.6449001999572,None,,,,,,,11022,001,2024_Jan_05_1416,ANT,2021.2.3,59.84064434890171,
1,2,no,up,C,R,,,,,,Block.xlsx,"你已经完成了第一个实验区组

请稍作休息


点击空格键进入下一个区组。",50,0,1.5,right,RRRRR.png,,,,,0,0,0,0,1,10,34,1,,,,,,,,,,,,,,,,,,,,,,,,,,,,,,,,,,,,,,,,,,,,,,,,,,,,,,,,,,,,,,,,230.0455238999566,230.44713349989615,230.42938949994277,230.53082519990858,230.93173469998874,None,right,1,0.5458758999593556,230.93173469998874,None,230.42938949994277,230.53082519990858,230.53082519990858,None,231.49766269989777,None,,,,,,,11022,001,2024_Jan_05_1416,ANT,2021.2.3,59.84064434890171,
1,24,spatial,down,IC,R,,,,,,Block.xlsx,"你已经完成了第一个实验区组

请稍作休息


点击空格键进入下一个区组。",-1.5,0,-1.5,right,LLRLL.png,,,,,0,0,0,0,1,11,35,23,,,,,,,,,,,,,,,,,,,,,,,,,,,,,,,,,,,,,,,,,,,,,,,,,,,,,,,,,,,,,,,,231.89815449994057,232.29939199995715,232.2826875000028,232.3822812999133,232.78375619999133,None,right,1,0.485363099956885,232.78375619999133,None,232.2826875000028,232.3822812999133,232.3822812999133,None,233.3002122999169,None,,,,,,,11022,001,2024_Jan_05_1416,ANT,2021.2.3,59.84064434890171,
1,3,no,up,IC,L,,,,,,Block.xlsx,"你已经完成了第一个实验区组

请稍作休息


点击空格键进入下一个区组。",50,0,1.5,left,RRLRR.png,,,,,0,0,0,0,1,12,36,2,,,,,,,,,,,,,,,,,,,,,,,,,,,,,,,,,,,,,,,,,,,,,,,,,,,,,,,,,,,,,,,,233.7009011999471,234.10197699989658,234.08544349996373,234.18514679989312,234.58635109988973,None,left,1,0.38712750002741814,234.58635109988973,None,234.08544349996373,234.18514679989312,234.18514679989312,None,235.00281529990025,None,,,,,,,11022,001,2024_Jan_05_1416,ANT,2021.2.3,59.84064434890171,
1,12,center,up,IC,R,,,,,,Block.xlsx,"你已经完成了第一个实验区组

请稍作休息


点击空格键进入下一个区组。",0,50,1.5,right,LLRLL.png,,,,,0,0,0,0,1,13,37,11,,,,,,,,,,,,,,,,,,,,,,,,,,,,,,,,,,,,,,,,,,,,,,,,,,,,,,,,,,,,,,,,235.40320589998737,235.80477539997082,235.78706549992785,235.88862250000238,236.288093799958,None,right,1,0.4931192999938503,236.288093799958,None,235.78706549992785,235.88862250000238,235.88862250000238,None,236.805464199977,None,,,,,,,11022,001,2024_Jan_05_1416,ANT,2021.2.3,59.84064434890171,
1,11,center,up,IC,L,,,,,,Block.xlsx,"你已经完成了第一个实验区组

请稍作休息


点击空格键进入下一个区组。",0,50,1.5,left,RRLRR.png,,,,,0,0,0,0,1,14,38,10,,,,,,,,,,,,,,,,,,,,,,,,,,,,,,,,,,,,,,,,,,,,,,,,,,,,,,,,,,,,,,,,237.20611269993242,237.60643799998797,237.59014529990964,237.6908455999801,238.09090650000144,None,left,1,0.42630809999536723,238.09090650000144,None,237.59014529990964,237.6908455999801,237.6908455999801,None,238.54229899996426,None,,,,,,,11022,001,2024_Jan_05_1416,ANT,2021.2.3,59.84064434890171,
1,6,no,down,C,R,,,,,,Block.xlsx,"你已经完成了第一个实验区组

请稍作休息


点击空格键进入下一个区组。",50,0,-1.5,right,RRRRR.png,,,,,0,0,0,0,1,15,39,5,,,,,,,,,,,,,,,,,,,,,,,,,,,,,,,,,,,,,,,,,,,,,,,,,,,,,,,,,,,,,,,,238.94190679991152,239.34328549995553,239.326579399989,239.4268049999373,239.8274232998956,None,right,1,0.4576636999845505,239.8274232998956,None,239.326579399989,239.4268049999373,239.4268049999373,None,240.3111385999946,None,,,,,,,11022,001,2024_Jan_05_1416,ANT,2021.2.3,59.84064434890171,
1,23,spatial,down,IC,L,,,,,,Block.xlsx,"你已经完成了第一个实验区组

请稍作休息


点击空格键进入下一个区组。",-1.5,0,-1.5,left,RRLRR.png,,,,,0,0,0,0,1,16,40,22,,,,,,,,,,,,,,,,,,,,,,,,,,,,,,,,,,,,,,,,,,,,,,,,,,,,,,,,,,,,,,,,240.71183960000053,241.1127888999181,241.09620979998726,241.19615569990128,241.59682399989106,None,left,1,0.45654809998814017,241.59682399989106,None,241.09620979998726,241.19615569990128,241.19615569990128,None,242.0797965999227,None,,,,,,,11022,001,2024_Jan_05_1416,ANT,2021.2.3,59.84064434890171,
1,9,center,up,C,L,,,,,,Block.xlsx,"你已经完成了第一个实验区组

请稍作休息


点击空格键进入下一个区组。",0,50,1.5,left,LLLLL.png,,,,,0,0,0,0,1,17,41,8,,,,,,,,,,,,,,,,,,,,,,,,,,,,,,,,,,,,,,,,,,,,,,,,,,,,,,,,,,,,,,,,242.48053299996536,242.88313939992804,242.86443509999663,242.96451709989924,243.36523839994334,None,left,1,0.40091020008549094,243.36523839994334,None,242.86443509999663,242.96451709989924,242.96451709989924,None,243.78247059998102,None,,,,,,,11022,001,2024_Jan_05_1416,ANT,2021.2.3,59.84064434890171,
1,8,no,down,IC,R,,,,,,Block.xlsx,"你已经完成了第一个实验区组

请稍作休息


点击空格键进入下一个区组。",50,0,-1.5,right,LLRLL.png,,,,,0,0,0,0,1,18,42,7,,,,,,,,,,,,,,,,,,,,,,,,,,,,,,,,,,,,,,,,,,,,,,,,,,,,,,,,,,,,,,,,244.18355059996247,244.58352919993922,244.56768479989842,244.66873959999066,245.0677828999469,None,right,1,0.5375686000334099,245.0677828999469,None,244.56768479989842,244.66873959999066,244.66873959999066,None,245.63524069997948,None,,,,,,,11022,001,2024_Jan_05_1416,ANT,2021.2.3,59.84064434890171,
1,4,no,up,IC,R,,,,,,Block.xlsx,"你已经完成了第一个实验区组

请稍作休息


点击空格键进入下一个区组。",50,0,1.5,right,LLRLL.png,,,,,0,0,0,0,1,19,43,3,,,,,,,,,,,,,,,,,,,,,,,,,,,,,,,,,,,,,,,,,,,,,,,,,,,,,,,,,,,,,,,,246.03566219995264,246.43845809996128,246.4197161999764,246.5207200999139,246.92137359990738,None,right,1,0.43612919992301613,246.92137359990738,None,246.4197161999764,246.5207200999139,246.5207200999139,None,247.38784899993334,None,,,,,,,11022,001,2024_Jan_05_1416,ANT,2021.2.3,59.84064434890171,
1,15,center,down,IC,L,,,,,,Block.xlsx,"你已经完成了第一个实验区组

请稍作休息


点击空格键进入下一个区组。",0,50,-1.5,left,RRLRR.png,,,,,0,0,0,0,1,20,44,14,,,,,,,,,,,,,,,,,,,,,,,,,,,,,,,,,,,,,,,,,,,,,,,,,,,,,,,,,,,,,,,,247.78839319990948,248.1899425999727,248.17313829995692,248.27282779989764,248.67337589990348,None,left,1,0.379820300033316,248.67337589990348,None,248.17313829995692,248.27282779989764,248.27282779989764,None,249.07362739997916,None,,,,,,,11022,001,2024_Jan_05_1416,ANT,2021.2.3,59.84064434890171,
1,10,center,up,C,R,,,,,,Block.xlsx,"你已经完成了第一个实验区组

请稍作休息


点击空格键进入下一个区组。",0,50,1.5,right,RRRRR.png,,,,,0,0,0,0,1,21,45,9,,,,,,,,,,,,,,,,,,,,,,,,,,,,,,,,,,,,,,,,,,,,,,,,,,,,,,,,,,,,,,,,249.4749469999224,249.87467779999133,249.85895669995807,249.96026869991329,250.35876599990297,None,right,1,0.38234729995019734,250.35876599990297,None,249.85895669995807,249.96026869991329,249.96026869991329,None,250.75951709994115,None,,,,,,,11022,001,2024_Jan_05_1416,ANT,2021.2.3,59.84064434890171,
1,10,center,up,C,R,,,,,,Block.xlsx,"你已经完成了第一个实验区组

请稍作休息


点击空格键进入下一个区组。",0,50,1.5,right,RRRRR.png,,,,,0,0,0,0,1,22,46,9,,,,,,,,,,,,,,,,,,,,,,,,,,,,,,,,,,,,,,,,,,,,,,,,,,,,,,,,,,,,,,,,251.16012949997094,251.56145399995148,251.54462989990134,251.64438499999233,252.0451023998903,None,right,1,0.3692249999148771,252.0451023998903,None,251.54462989990134,251.64438499999233,251.64438499999233,None,252.44533299992327,None,,,,,,,11022,001,2024_Jan_05_1416,ANT,2021.2.3,59.84064434890171,
1,22,spatial,down,C,R,,,,,,Block.xlsx,"你已经完成了第一个实验区组

请稍作休息


点击空格键进入下一个区组。",-1.5,0,-1.5,right,RRRRR.png,,,,,0,0,0,0,1,23,47,21,,,,,,,,,,,,,,,,,,,,,,,,,,,,,,,,,,,,,,,,,,,,,,,,,,,,,,,,,,,,,,,,252.84643119992688,253.24647009989712,253.231558999978,253.33087720000185,253.73134919989388,None,right,1,0.4099551000399515,253.73134919989388,None,253.231558999978,253.33087720000185,253.33087720000185,None,254.16434909997042,None,,,,,,,11022,001,2024_Jan_05_1416,ANT,2021.2.3,59.84064434890171,
1,15,center,down,IC,L,,,,,,Block.xlsx,"你已经完成了第一个实验区组

请稍作休息


点击空格键进入下一个区组。",0,50,-1.5,left,RRLRR.png,,,,,0,0,0,0,2,0,48,14,,,,,,,,,,,,,,,,,,,,,,,,,,,,,,,,,,,,,,,,,,,,,,,,,,,,,,,,,,,,,,,,254.56547709996812,254.96765469992533,254.9491242999211,255.0489522999851,255.4511389998952,None,left,1,0.5303969000233337,255.4511389998952,None,254.9491242999211,255.0489522999851,255.0489522999851,None,256.00060939998366,None,,,,,,,11022,001,2024_Jan_05_1416,ANT,2021.2.3,59.84064434890171,
1,24,spatial,down,IC,R,,,,,,Block.xlsx,"你已经完成了第一个实验区组

请稍作休息


点击空格键进入下一个区组。",-1.5,0,-1.5,right,LLRLL.png,,,,,0,0,0,0,2,1,49,23,,,,,,,,,,,,,,,,,,,,,,,,,,,,,,,,,,,,,,,,,,,,,,,,,,,,,,,,,,,,,,,,256.4016125999624,256.80345059989486,256.78544559993315,256.88515359989833,257.287529299967,None,right,1,0.5095838999841362,257.287529299967,None,256.78544559993315,256.88515359989833,256.88515359989833,None,257.81997189996764,None,,,,,,,11022,001,2024_Jan_05_1416,ANT,2021.2.3,59.84064434890171,
1,21,spatial,down,C,L,,,,,,Block.xlsx,"你已经完成了第一个实验区组

请稍作休息


点击空格键进入下一个区组。",-1.5,0,-1.5,left,LLLLL.png,,,,,0,0,0,0,2,2,50,20,,,,,,,,,,,,,,,,,,,,,,,,,,,,,,,,,,,,,,,,,,,,,,,,,,,,,,,,,,,,,,,,258.2206254999619,258.62177509989124,258.60508129990194,258.7052635999862,259.1067716999678,None,left,1,0.41170219995547086,259.1067716999678,None,258.60508129990194,258.7052635999862,258.7052635999862,None,259.53976009995677,None,,,,,,,11022,001,2024_Jan_05_1416,ANT,2021.2.3,59.84064434890171,
1,24,spatial,down,IC,R,,,,,,Block.xlsx,"你已经完成了第一个实验区组

请稍作休息


点击空格键进入下一个区组。",-1.5,0,-1.5,right,LLRLL.png,,,,,0,0,0,0,2,3,51,23,,,,,,,,,,,,,,,,,,,,,,,,,,,,,,,,,,,,,,,,,,,,,,,,,,,,,,,,,,,,,,,,259.9396908999188,260.34166059992276,260.32405969989486,260.4242114999797,260.82502689992543,None,right,1,0.348195799975656,260.82502689992543,None,260.32405969989486,260.4242114999797,260.4242114999797,None,261.1919714999385,None,,,,,,,11022,001,2024_Jan_05_1416,ANT,2021.2.3,59.84064434890171,
1,12,center,up,IC,R,,,,,,Block.xlsx,"你已经完成了第一个实验区组

请稍作休息


点击空格键进入下一个区组。",0,50,1.5,right,LLRLL.png,,,,,0,0,0,0,2,4,52,11,,,,,,,,,,,,,,,,,,,,,,,,,,,,,,,,,,,,,,,,,,,,,,,,,,,,,,,,,,,,,,,,261.5923349999357,261.9927969999844,261.97705729992595,262.07686049991753,262.4781932999613,None,right,1,0.48719760007224977,262.4781932999613,None,261.97705729992595,262.07686049991753,262.07686049991753,None,262.9941350999288,None,,,,,,,11022,001,2024_Jan_05_1416,ANT,2021.2.3,59.84064434890171,
1,18,spatial,up,C,R,,,,,,Block.xlsx,"你已经完成了第一个实验区组

请稍作休息


点击空格键进入下一个区组。",1.5,0,1.5,right,RRRRR.png,,,,,0,0,0,0,2,5,53,17,,,,,,,,,,,,,,,,,,,,,,,,,,,,,,,,,,,,,,,,,,,,,,,,,,,,,,,,,,,,,,,,263.395589999971,263.7962439999683,263.77903360000346,263.8788906999398,264.2800905999029,None,right,1,0.2771395000163466,264.2800905999029,None,263.77903360000346,263.8788906999398,263.8788906999398,None,264.57990259991493,None,,,,,,,11022,001,2024_Jan_05_1416,ANT,2021.2.3,59.84064434890171,
1,22,spatial,down,C,R,,,,,,Block.xlsx,"你已经完成了第一个实验区组

请稍作休息


点击空格键进入下一个区组。",-1.5,0,-1.5,right,RRRRR.png,,,,,0,0,0,0,2,6,54,21,,,,,,,,,,,,,,,,,,,,,,,,,,,,,,,,,,,,,,,,,,,,,,,,,,,,,,,,,,,,,,,,264.98059249995276,265.3810655999696,265.36663209996186,265.4655893999152,265.86688210000284,None,right,1,0.2743373999837786,265.86688210000284,None,265.36663209996186,265.4655893999152,265.4655893999152,None,266.1657137000002,None,,,,,,,11022,001,2024_Jan_05_1416,ANT,2021.2.3,59.84064434890171,
1,3,no,up,IC,L,,,,,,Block.xlsx,"你已经完成了第一个实验区组

请稍作休息


点击空格键进入下一个区组。",50,0,1.5,left,RRLRR.png,,,,,0,0,0,0,2,7,55,2,,,,,,,,,,,,,,,,,,,,,,,,,,,,,,,,,,,,,,,,,,,,,,,,,,,,,,,,,,,,,,,,266.5661562999012,266.96665600000415,266.95129689993337,267.05172279989347,267.451725199935,None,left,1,0.4816681999946013,267.451725199935,None,266.95129689993337,267.05172279989347,267.05172279989347,None,267.9515886999434,None,,,,,,,11022,001,2024_Jan_05_1416,ANT,2021.2.3,59.84064434890171,
1,23,spatial,down,IC,L,,,,,,Block.xlsx,"你已经完成了第一个实验区组

请稍作休息


点击空格键进入下一个区组。",-1.5,0,-1.5,left,RRLRR.png,,,,,0,0,0,0,2,8,56,22,,,,,,,,,,,,,,,,,,,,,,,,,,,,,,,,,,,,,,,,,,,,,,,,,,,,,,,,,,,,,,,,268.352228499949,268.75344119989313,268.7361578999553,268.83683309995104,269.2370605999604,None,left,1,0.3200303999474272,269.2370605999604,None,268.7361578999553,268.83683309995104,268.83683309995104,None,269.5874292999506,None,,,,,,,11022,001,2024_Jan_05_1416,ANT,2021.2.3,59.84064434890171,
1,8,no,down,IC,R,,,,,,Block.xlsx,"你已经完成了第一个实验区组

请稍作休息


点击空格键进入下一个区组。",50,0,-1.5,right,LLRLL.png,,,,,0,0,0,0,2,9,57,7,,,,,,,,,,,,,,,,,,,,,,,,,,,,,,,,,,,,,,,,,,,,,,,,,,,,,,,,,,,,,,,,269.98792329989374,270.3904469999252,270.371844499954,270.47346249991097,270.87382419989444,None,right,1,0.5163081999635324,270.87382419989444,None,270.371844499954,270.47346249991097,270.47346249991097,None,271.40762549999636,None,,,,,,,11022,001,2024_Jan_05_1416,ANT,2021.2.3,59.84064434890171,
1,3,no,up,IC,L,,,,,,Block.xlsx,"你已经完成了第一个实验区组

请稍作休息


点击空格键进入下一个区组。",50,0,1.5,left,RRLRR.png,,,,,0,0,0,0,2,10,58,2,,,,,,,,,,,,,,,,,,,,,,,,,,,,,,,,,,,,,,,,,,,,,,,,,,,,,,,,,,,,,,,,271.8081999999704,272.20801639999263,272.1913306999486,272.2925958998967,272.6925600999966,None,left,1,0.48884430003818125,272.6925600999966,None,272.1913306999486,272.2925958998967,272.2925958998967,None,273.2092774999328,None,,,,,,,11022,001,2024_Jan_05_1416,ANT,2021.2.3,59.84064434890171,
1,14,center,down,C,R,,,,,,Block.xlsx,"你已经完成了第一个实验区组

请稍作休息


点击空格键进入下一个区组。",0,50,-1.5,right,RRRRR.png,,,,,0,0,0,0,2,11,59,13,,,,,,,,,,,,,,,,,,,,,,,,,,,,,,,,,,,,,,,,,,,,,,,,,,,,,,,,,,,,,,,,273.6099523999728,274.0123579999199,273.99397849990055,274.0941773999948,274.4955552999163,None,right,1,0.38272989995311946,274.4955552999163,None,273.99397849990055,274.0941773999948,274.0941773999948,None,274.89529359992594,None,,,,,,,11022,001,2024_Jan_05_1416,ANT,2021.2.3,59.84064434890171,
1,5,no,down,C,L,,,,,,Block.xlsx,"你已经完成了第一个实验区组

请稍作休息


点击空格键进入下一个区组。",50,0,-1.5,left,LLLLL.png,,,,,0,0,0,0,2,12,60,4,,,,,,,,,,,,,,,,,,,,,,,,,,,,,,,,,,,,,,,,,,,,,,,,,,,,,,,,,,,,,,,,275.29582030000165,275.69729989999905,275.68048839992844,275.7817278999137,276.1815882999217,None,left,1,0.527629799908027,276.1815882999217,None,275.68048839992844,275.7817278999137,275.7817278999137,None,276.732056299923,None,,,,,,,11022,001,2024_Jan_05_1416,ANT,2021.2.3,59.84064434890171,
1,14,center,down,C,R,,,,,,Block.xlsx,"你已经完成了第一个实验区组

请稍作休息


点击空格键进入下一个区组。",0,50,-1.5,right,RRRRR.png,,,,,0,0,0,0,2,13,61,13,,,,,,,,,,,,,,,,,,,,,,,,,,,,,,,,,,,,,,,,,,,,,,,,,,,,,,,,,,,,,,,,277.13192109996453,277.5337795999367,277.51576229999773,277.6157889999449,278.01711639994755,None,right,1,0.34817989997100085,278.01711639994755,None,277.51576229999773,277.6157889999449,277.6157889999449,None,278.38374479999766,None,,,,,,,11022,001,2024_Jan_05_1416,ANT,2021.2.3,59.84064434890171,
1,17,spatial,up,C,L,,,,,,Block.xlsx,"你已经完成了第一个实验区组

请稍作休息


点击空格键进入下一个区组。",1.5,0,1.5,left,LLLLL.png,,,,,0,0,0,0,2,14,62,16,,,,,,,,,,,,,,,,,,,,,,,,,,,,,,,,,,,,,,,,,,,,,,,,,,,,,,,,,,,,,,,,278.78430309996475,279.18555890000425,279.1689233999932,279.26930809998885,279.6703321998939,None,left,1,0.2948912000283599,279.6703321998939,None,279.1689233999932,279.26930809998885,279.26930809998885,None,279.9859859999269,None,,,,,,,11022,001,2024_Jan_05_1416,ANT,2021.2.3,59.84064434890171,
1,23,spatial,down,IC,L,,,,,,Block.xlsx,"你已经完成了第一个实验区组

请稍作休息


点击空格键进入下一个区组。",-1.5,0,-1.5,left,RRLRR.png,,,,,0,0,0,0,2,15,63,22,,,,,,,,,,,,,,,,,,,,,,,,,,,,,,,,,,,,,,,,,,,,,,,,,,,,,,,,,,,,,,,,280.3866604999639,280.7872744000051,280.7716232999228,280.87147679994814,281.27339929994196,None,left,1,0.307769599952735,281.27339929994196,None,280.7716232999228,280.87147679994814,280.87147679994814,None,281.6050425999565,None,,,,,,,11022,001,2024_Jan_05_1416,ANT,2021.2.3,59.84064434890171,
1,6,no,down,C,R,,,,,,Block.xlsx,"你已经完成了第一个实验区组

请稍作休息


点击空格键进入下一个区组。",50,0,-1.5,right,RRRRR.png,,,,,0,0,0,0,2,16,64,5,,,,,,,,,,,,,,,,,,,,,,,,,,,,,,,,,,,,,,,,,,,,,,,,,,,,,,,,,,,,,,,,282.00565089995507,282.4074674999574,282.39176709996536,282.4906845999649,282.89191589993425,None,right,1,0.44960149994585663,282.89191589993425,None,282.39176709996536,282.4906845999649,282.4906845999649,None,283.35775649989955,None,,,,,,,11022,001,2024_Jan_05_1416,ANT,2021.2.3,59.84064434890171,
1,19,spatial,up,IC,L,,,,,,Block.xlsx,"你已经完成了第一个实验区组

请稍作休息


点击空格键进入下一个区组。",1.5,0,1.5,left,RRLRR.png,,,,,0,0,0,0,2,17,65,18,,,,,,,,,,,,,,,,,,,,,,,,,,,,,,,,,,,,,,,,,,,,,,,,,,,,,,,,,,,,,,,,283.75834770000074,284.1602425999008,284.1422877999721,284.2424549999414,284.6431091999402,None,left,1,0.34669840009883046,284.6431091999402,None,284.1422877999721,284.2424549999414,284.2424549999414,None,285.01049529993907,None,,,,,,,11022,001,2024_Jan_05_1416,ANT,2021.2.3,59.84064434890171,
1,14,center,down,C,R,,,,,,Block.xlsx,"你已经完成了第一个实验区组

请稍作休息


点击空格键进入下一个区组。",0,50,-1.5,right,RRRRR.png,,,,,0,0,0,0,2,18,66,13,,,,,,,,,,,,,,,,,,,,,,,,,,,,,,,,,,,,,,,,,,,,,,,,,,,,,,,,,,,,,,,,285.41085109999403,285.81153039995115,285.7955924998969,285.8952983999625,286.29591009998694,None,right,1,0.3976179000455886,286.29591009998694,None,285.7955924998969,285.8952983999625,285.8952983999625,None,286.7128758999752,None,,,,,,,11022,001,2024_Jan_05_1416,ANT,2021.2.3,59.84064434890171,
1,19,spatial,up,IC,L,,,,,,Block.xlsx,"你已经完成了第一个实验区组

请稍作休息


点击空格键进入下一个区组。",1.5,0,1.5,left,RRLRR.png,,,,,0,0,0,0,2,19,67,18,,,,,,,,,,,,,,,,,,,,,,,,,,,,,,,,,,,,,,,,,,,,,,,,,,,,,,,,,,,,,,,,287.1137116999598,287.5143853999907,287.49847879994195,287.59828769997694,287.99923009995837,None,left,1,0.310113099985756,287.99923009995837,None,287.49847879994195,287.59828769997694,287.59828769997694,None,288.33208829991054,None,,,,,,,11022,001,2024_Jan_05_1416,ANT,2021.2.3,59.84064434890171,
1,7,no,down,IC,L,,,,,,Block.xlsx,"你已经完成了第一个实验区组

请稍作休息


点击空格键进入下一个区组。",50,0,-1.5,left,RRLRR.png,,,,,0,0,0,0,2,20,68,6,,,,,,,,,,,,,,,,,,,,,,,,,,,,,,,,,,,,,,,,,,,,,,,,,,,,,,,,,,,,,,,,288.7324274999555,289.1330973999575,289.11839739989955,289.21698949998245,289.6178639999125,None,left,1,0.4117221999913454,289.6178639999125,None,289.11839739989955,289.21698949998245,289.21698949998245,None,290.0509719999973,None,,,,,,,11022,001,2024_Jan_05_1416,ANT,2021.2.3,59.84064434890171,
1,13,center,down,C,L,,,,,,Block.xlsx,"你已经完成了第一个实验区组

请稍作休息


点击空格键进入下一个区组。",0,50,-1.5,left,LLLLL.png,,,,,0,0,0,0,2,21,69,12,,,,,,,,,,,,,,,,,,,,,,,,,,,,,,,,,,,,,,,,,,,,,,,,,,,,,,,,,,,,,,,,290.4521678999299,290.8530576999765,290.8359780999599,290.9362805999117,291.33670109999366,None,left,1,0.37280919996555895,291.33670109999366,None,290.8359780999599,290.9362805999117,290.9362805999117,None,291.7367151998915,None,,,,,,,11022,001,2024_Jan_05_1416,ANT,2021.2.3,59.84064434890171,
1,14,center,down,C,R,,,,,,Block.xlsx,"你已经完成了第一个实验区组

请稍作休息


点击空格键进入下一个区组。",0,50,-1.5,right,RRRRR.png,,,,,0,0,0,0,2,22,70,13,,,,,,,,,,,,,,,,,,,,,,,,,,,,,,,,,,,,,,,,,,,,,,,,,,,,,,,,,,,,,,,,292.1373628999572,292.5390722999582,292.5213999999687,292.6213149999967,293.02231109992135,None,right,1,0.35914399998728186,293.02231109992135,None,292.5213999999687,292.6213149999967,292.6213149999967,None,293.40610629995354,None,,,,,,,11022,001,2024_Jan_05_1416,ANT,2021.2.3,59.84064434890171,
1,13,center,down,C,L,,,,,,Block.xlsx,"你已经完成了第一个实验区组

请稍作休息


点击空格键进入下一个区组。",0,50,-1.5,left,LLLLL.png,,,,,0,0,0,0,2,23,71,12,,,,,,,,,,,,,,,,,,,,,,,,,,,,,,,,,,,,,,,,,,,,,,,,,,,,,,,,,,,,,,,,293.806523899897,294.2079990999773,294.1904393999139,294.29314269998576,294.691356999916,None,left,1,0.35388869990129024,294.691356999916,None,294.1904393999139,294.29314269998576,294.29314269998576,None,295.07519939995836,None,,,,,,,11022,001,2024_Jan_05_1416,ANT,2021.2.3,59.84064434890171,
1,9,center,up,C,L,,,,,,Block.xlsx,"你已经完成了第一个实验区组

请稍作休息


点击空格键进入下一个区组。",0,50,1.5,left,LLLLL.png,,,,,0,0,0,0,3,0,72,8,,,,,,,,,,,,,,,,,,,,,,,,,,,,,,,,,,,,,,,,,,,,,,,,,,,,,,,,,,,,,,,,295.4757099999115,295.8783866999438,295.86029819992837,295.9596057999879,296.36067549989093,None,left,1,0.4848713999381289,296.36067549989093,None,295.86029819992837,295.9596057999879,295.9596057999879,None,296.86090729990974,None,,,,,,,11022,001,2024_Jan_05_1416,ANT,2021.2.3,59.84064434890171,
1,6,no,down,C,R,,,,,,Block.xlsx,"你已经完成了第一个实验区组

请稍作休息


点击空格键进入下一个区组。",50,0,-1.5,right,RRRRR.png,,,,,0,0,0,0,3,1,73,5,,,,,,,,,,,,,,,,,,,,,,,,,,,,,,,,,,,,,,,,,,,,,,,,,,,,,,,,,,,,,,,,297.2617624999257,297.66366289998405,297.6455767999869,297.7469052999513,298.14707389997784,None,right,1,0.3782201000722125,298.14707389997784,None,297.6455767999869,297.7469052999513,297.7469052999513,None,298.5468316999031,None,,,,,,,11022,001,2024_Jan_05_1416,ANT,2021.2.3,59.84064434890171,
1,10,center,up,C,R,,,,,,Block.xlsx,"你已经完成了第一个实验区组

请稍作休息


点击空格键进入下一个区组。",0,50,1.5,right,RRRRR.png,,,,,0,0,0,0,3,2,74,9,,,,,,,,,,,,,,,,,,,,,,,,,,,,,,,,,,,,,,,,,,,,,,,,,,,,,,,,,,,,,,,,298.9474917999469,299.35001860000193,299.3319460999919,299.43163609993644,299.8321806999156,None,right,1,0.46149639994837344,299.8321806999156,None,299.3319460999919,299.43163609993644,299.43163609993644,None,300.3162556999596,None,,,,,,,11022,001,2024_Jan_05_1416,ANT,2021.2.3,59.84064434890171,
1,11,center,up,IC,L,,,,,,Block.xlsx,"你已经完成了第一个实验区组

请稍作休息


点击空格键进入下一个区组。",0,50,1.5,left,RRLRR.png,,,,,0,0,0,0,3,3,75,10,,,,,,,,,,,,,,,,,,,,,,,,,,,,,,,,,,,,,,,,,,,,,,,,,,,,,,,,,,,,,,,,300.71792869991623,301.11914510000497,301.1009676998947,301.20161929994356,301.602578699938,None,left,1,0.4426124000456184,301.602578699938,None,301.1009676998947,301.20161929994356,301.20161929994356,None,302.06876259995624,None,,,,,,,11022,001,2024_Jan_05_1416,ANT,2021.2.3,59.84064434890171,
1,4,no,up,IC,R,,,,,,Block.xlsx,"你已经完成了第一个实验区组

请稍作休息


点击空格键进入下一个区组。",50,0,1.5,right,LLRLL.png,,,,,0,0,0,0,3,4,76,3,,,,,,,,,,,,,,,,,,,,,,,,,,,,,,,,,,,,,,,,,,,,,,,,,,,,,,,,,,,,,,,,302.4695460998919,302.871159399976,302.8534694999689,302.95518429996446,303.3555141999386,None,right,1,0.505804100073874,303.3555141999386,None,302.8534694999689,302.95518429996446,302.95518429996446,None,303.88828179996926,None,,,,,,,11022,001,2024_Jan_05_1416,ANT,2021.2.3,59.84064434890171,
1,21,spatial,down,C,L,,,,,,Block.xlsx,"你已经完成了第一个实验区组

请稍作休息


点击空格键进入下一个区组。",-1.5,0,-1.5,left,LLLLL.png,,,,,0,0,0,0,3,5,77,20,,,,,,,,,,,,,,,,,,,,,,,,,,,,,,,,,,,,,,,,,,,,,,,,,,,,,,,,,,,,,,,,304.2887959999498,304.68942169996444,304.6741193999769,304.774097199901,305.1736399999354,None,left,1,0.36857310007326305,305.1736399999354,None,304.6741193999769,304.774097199901,304.774097199901,None,305.55724479991477,None,,,,,,,11022,001,2024_Jan_05_1416,ANT,2021.2.3,59.84064434890171,
1,7,no,down,IC,L,,,,,,Block.xlsx,"你已经完成了第一个实验区组

请稍作休息


点击空格键进入下一个区组。",50,0,-1.5,left,RRLRR.png,,,,,0,0,0,0,3,6,78,6,,,,,,,,,,,,,,,,,,,,,,,,,,,,,,,,,,,,,,,,,,,,,,,,,,,,,,,,,,,,,,,,305.9582953999052,306.35851589997765,306.34244169993326,306.44290879997425,306.8438102999935,None,left,1,0.3536178000504151,306.8438102999935,None,306.34244169993326,306.44290879997425,306.44290879997425,None,307.22650049999356,None,,,,,,,11022,001,2024_Jan_05_1416,ANT,2021.2.3,59.84064434890171,
1,16,center,down,IC,R,,,,,,Block.xlsx,"你已经完成了第一个实验区组

请稍作休息


点击空格键进入下一个区组。",0,50,-1.5,right,LLRLL.png,,,,,0,0,0,0,3,7,79,15,,,,,,,,,,,,,,,,,,,,,,,,,,,,,,,,,,,,,,,,,,,,,,,,,,,,,,,,,,,,,,,,307.6270625999896,308.0289998999797,308.0112245999044,308.1119000999024,308.51177779992577,None,right,1,0.46152180002536625,308.51177779992577,None,308.0112245999044,308.1119000999024,308.1119000999024,None,308.997066599899,None,,,,,,,11022,001,2024_Jan_05_1416,ANT,2021.2.3,59.84064434890171,
1,21,spatial,down,C,L,,,,,,Block.xlsx,"你已经完成了第一个实验区组

请稍作休息


点击空格键进入下一个区组。",-1.5,0,-1.5,left,LLLLL.png,,,,,0,0,0,0,3,8,80,20,,,,,,,,,,,,,,,,,,,,,,,,,,,,,,,,,,,,,,,,,,,,,,,,,,,,,,,,,,,,,,,,309.39649919990916,309.7971200000029,309.7807630999014,309.880394399981,310.2823406999232,None,left,1,0.31561409996356815,310.2823406999232,None,309.7807630999014,309.880394399981,309.880394399981,None,310.6146902999608,None,,,,,,,11022,001,2024_Jan_05_1416,ANT,2021.2.3,59.84064434890171,
1,20,spatial,up,IC,R,,,,,,Block.xlsx,"你已经完成了第一个实验区组

请稍作休息


点击空格键进入下一个区组。",1.5,0,1.5,right,LLRLL.png,,,,,0,0,0,0,3,9,81,19,,,,,,,,,,,,,,,,,,,,,,,,,,,,,,,,,,,,,,,,,,,,,,,,,,,,,,,,,,,,,,,,311.01520679995883,311.4179586999817,311.39979099994525,311.50009999994654,311.90040289994795,None,left,0,0.3292938000522554,311.90040289994795,None,311.39979099994525,311.50009999994654,311.50009999994654,None,312.25032919994555,None,,,,,,,11022,001,2024_Jan_05_1416,ANT,2021.2.3,59.84064434890171,
1,2,no,up,C,R,,,,,,Block.xlsx,"你已经完成了第一个实验区组

请稍作休息


点击空格键进入下一个区组。",50,0,1.5,right,RRRRR.png,,,,,0,0,0,0,3,10,82,1,,,,,,,,,,,,,,,,,,,,,,,,,,,,,,,,,,,,,,,,,,,,,,,,,,,,,,,,,,,,,,,,312.65125299990177,313.05280569999013,313.03543989988975,313.13612269994337,313.53703989996575,None,right,1,0.42054610000923276,313.53703989996575,None,313.03543989988975,313.13612269994337,313.13612269994337,None,313.98642159998417,None,,,,,,,11022,001,2024_Jan_05_1416,ANT,2021.2.3,59.84064434890171,
1,20,spatial,up,IC,R,,,,,,Block.xlsx,"你已经完成了第一个实验区组

请稍作休息


点击空格键进入下一个区组。",1.5,0,1.5,right,LLRLL.png,,,,,0,0,0,0,3,11,83,19,,,,,,,,,,,,,,,,,,,,,,,,,,,,,,,,,,,,,,,,,,,,,,,,,,,,,,,,,,,,,,,,314.3872206999222,314.7897886999417,314.7711070999503,314.8718165999744,315.2725171999773,None,right,1,0.41328199999406934,315.2725171999773,None,314.7711070999503,314.8718165999744,314.8718165999744,None,315.70578530000057,None,,,,,,,11022,001,2024_Jan_05_1416,ANT,2021.2.3,59.84064434890171,
1,8,no,down,IC,R,,,,,,Block.xlsx,"你已经完成了第一个实验区组

请稍作休息


点击空格键进入下一个区组。",50,0,-1.5,right,LLRLL.png,,,,,0,0,0,0,3,12,84,7,,,,,,,,,,,,,,,,,,,,,,,,,,,,,,,,,,,,,,,,,,,,,,,,,,,,,,,,,,,,,,,,316.1062425998971,316.5083079999313,316.4903538998915,316.59226740000304,316.99165829992853,None,left,0,0.4295520999003202,316.99165829992853,None,316.4903538998915,316.59226740000304,316.59226740000304,None,317.44138509989716,None,,,,,,,11022,001,2024_Jan_05_1416,ANT,2021.2.3,59.84064434890171,
1,18,spatial,up,C,R,,,,,,Block.xlsx,"你已经完成了第一个实验区组

请稍作休息


点击空格键进入下一个区组。",1.5,0,1.5,right,RRRRR.png,,,,,0,0,0,0,3,13,85,17,,,,,,,,,,,,,,,,,,,,,,,,,,,,,,,,,,,,,,,,,,,,,,,,,,,,,,,,,,,,,,,,317.84202439989895,318.2437519999221,318.2283184999833,318.3443804999115,318.72805259993766,None,right,1,0.36601730005349964,318.72805259993766,None,318.2283184999833,318.3443804999115,318.32636339997407,None,319.110632399912,None,,,,,,,11022,001,2024_Jan_05_1416,ANT,2021.2.3,59.84064434890171,
1,13,center,down,C,L,,,,,,Block.xlsx,"你已经完成了第一个实验区组

请稍作休息


点击空格键进入下一个区组。",0,50,-1.5,left,LLLLL.png,,,,,0,0,0,0,3,14,86,12,,,,,,,,,,,,,,,,,,,,,,,,,,,,,,,,,,,,,,,,,,,,,,,,,,,,,,,,,,,,,,,,319.5120413999539,319.913689399953,319.89539209997747,319.9955046999967,320.3961404999718,None,left,1,0.42525860003661364,320.3961404999718,None,319.89539209997747,319.9955046999967,319.9955046999967,None,320.84700819989666,None,,,,,,,11022,001,2024_Jan_05_1416,ANT,2021.2.3,59.84064434890171,
1,9,center,up,C,L,,,,,,Block.xlsx,"你已经完成了第一个实验区组

请稍作休息


点击空格键进入下一个区组。",0,50,1.5,left,LLLLL.png,,,,,0,0,0,0,3,15,87,8,,,,,,,,,,,,,,,,,,,,,,,,,,,,,,,,,,,,,,,,,,,,,,,,,,,,,,,,,,,,,,,,321.247633599909,321.6494321998907,321.6317498999415,321.73229469999205,322.13239579997025,None,left,1,0.3770200000144541,322.13239579997025,None,321.6317498999415,321.73229469999205,321.73229469999205,None,322.5326493999455,None,,,,,,,11022,001,2024_Jan_05_1416,ANT,2021.2.3,59.84064434890171,
1,17,spatial,up,C,L,,,,,,Block.xlsx,"你已经完成了第一个实验区组

请稍作休息


点击空格键进入下一个区组。",1.5,0,1.5,left,LLLLL.png,,,,,0,0,0,0,3,16,88,16,,,,,,,,,,,,,,,,,,,,,,,,,,,,,,,,,,,,,,,,,,,,,,,,,,,,,,,,,,,,,,,,322.9329588999972,323.3339700999204,323.3191370998975,323.4346779999323,323.8193747999612,None,left,1,0.38582470000255853,323.8193747999612,None,323.3191370998975,323.4346779999323,323.419092199998,None,324.2351977999788,None,,,,,,,11022,001,2024_Jan_05_1416,ANT,2021.2.3,59.84064434890171,
1,24,spatial,down,IC,R,,,,,,Block.xlsx,"你已经完成了第一个实验区组

请稍作休息


点击空格键进入下一个区组。",-1.5,0,-1.5,right,LLRLL.png,,,,,0,0,0,0,3,17,89,23,,,,,,,,,,,,,,,,,,,,,,,,,,,,,,,,,,,,,,,,,,,,,,,,,,,,,,,,,,,,,,,,324.6363924999023,325.0364518999122,325.02023119991645,325.12124209990725,325.52042239997536,None,right,1,0.47692909999750555,325.52042239997536,None,325.02023119991645,325.12124209990725,325.12124209990725,None,326.0208167999517,None,,,,,,,11022,001,2024_Jan_05_1416,ANT,2021.2.3,59.84064434890171,
1,2,no,up,C,R,,,,,,Block.xlsx,"你已经完成了第一个实验区组

请稍作休息


点击空格键进入下一个区组。",50,0,1.5,right,RRRRR.png,,,,,0,0,0,0,3,18,90,1,,,,,,,,,,,,,,,,,,,,,,,,,,,,,,,,,,,,,,,,,,,,,,,,,,,,,,,,,,,,,,,,326.421601699898,326.82277309999336,326.80606759991497,326.9075471999822,327.30600069998764,None,right,1,0.3958214999875054,327.30600069998764,None,326.80606759991497,326.9075471999822,326.9075471999822,None,327.7235226999037,None,,,,,,,11022,001,2024_Jan_05_1416,ANT,2021.2.3,59.84064434890171,
1,5,no,down,C,L,,,,,,Block.xlsx,"你已经完成了第一个实验区组

请稍作休息


点击空格键进入下一个区组。",50,0,-1.5,left,LLLLL.png,,,,,0,0,0,0,3,19,91,4,,,,,,,,,,,,,,,,,,,,,,,,,,,,,,,,,,,,,,,,,,,,,,,,,,,,,,,,,,,,,,,,328.1240889999317,328.52679329994135,328.5086167999543,328.60904679994565,329.00895229994785,None,left,1,0.3326761000789702,329.00895229994785,None,328.5086167999543,328.60904679994565,328.60904679994565,None,329.3594484999776,None,,,,,,,11022,001,2024_Jan_05_1416,ANT,2021.2.3,59.84064434890171,
1,20,spatial,up,IC,R,,,,,,Block.xlsx,"你已经完成了第一个实验区组

请稍作休息


点击空格键进入下一个区组。",1.5,0,1.5,right,LLRLL.png,,,,,0,0,0,0,3,20,92,19,,,,,,,,,,,,,,,,,,,,,,,,,,,,,,,,,,,,,,,,,,,,,,,,,,,,,,,,,,,,,,,,329.75990849989466,330.16143499989994,330.14375259994995,330.2462413999019,330.6451075999066,None,right,1,0.4081757999956608,330.6451075999066,None,330.14375259994995,330.2462413999019,330.2462413999019,None,331.07883399992716,None,,,,,,,11022,001,2024_Jan_05_1416,ANT,2021.2.3,59.84064434890171,
1,19,spatial,up,IC,L,,,,,,Block.xlsx,"你已经完成了第一个实验区组

请稍作休息


点击空格键进入下一个区组。",1.5,0,1.5,left,RRLRR.png,,,,,0,0,0,0,3,21,93,18,,,,,,,,,,,,,,,,,,,,,,,,,,,,,,,,,,,,,,,,,,,,,,,,,,,,,,,,,,,,,,,,331.47910769993905,331.8804583000019,331.8637440999737,331.96310059993993,332.36544589989353,None,left,1,0.4009259999729693,332.36544589989353,None,331.8637440999737,331.96310059993993,331.96310059993993,None,332.7810587999411,None,,,,,,,11022,001,2024_Jan_05_1416,ANT,2021.2.3,59.84064434890171,
1,11,center,up,IC,L,,,,,,Block.xlsx,"你已经完成了第一个实验区组

请稍作休息


点击空格键进入下一个区组。",0,50,1.5,left,RRLRR.png,,,,,0,0,0,0,3,22,94,10,,,,,,,,,,,,,,,,,,,,,,,,,,,,,,,,,,,,,,,,,,,,,,,,,,,,,,,,,,,,,,,,333.181492799893,333.5837491999846,333.5654085999122,333.6662572999485,334.0672401000047,None,left,1,0.410233199945651,334.0672401000047,None,333.5654085999122,333.6662572999485,333.6662572999485,None,334.5006068999646,None,,,,,,,11022,001,2024_Jan_05_1416,ANT,2021.2.3,59.84064434890171,
1,12,center,up,IC,R,,,,,,Block.xlsx,"你已经完成了第一个实验区组

请稍作休息


点击空格键进入下一个区组。",0,50,1.5,right,LLRLL.png,,,,,0,0,0,0,3,23,95,11,,,,,,,,,,,,,,,,,,,,,,,,,,,,,,,,,,,,,,,,,,,,,,,,,,,,,,,,,,,,,,,,334.9007396999514,335.30157539993525,335.28568440000527,335.38472119998187,335.78737799997907,None,right,1,0.44219149998389184,335.78737799997907,None,335.28568440000527,335.38472119998187,335.38472119998187,None,336.2526192999212,None,,,,,,,11022,001,2024_Jan_05_1416,ANT,2021.2.3,59.84064434890171,
,,,,,,,,,,,Block.xlsx,"你已经完成了第一个实验区组

请稍作休息


点击空格键进入下一个区组。",,,,,,,,,,0,0,0,0,,,,,,,,,,,,,,,,,,,,,,,,,,,,,,,,,,,,,,,,,,,,,,,,,,,,,,,,,,,,,,,,,,,,,,,,,,,,,,,,,,,,,space,88.37729200010654,336.6529252999462,None,336.6529252999462,None,11022,001,2024_Jan_05_1416,ANT,2021.2.3,59.84064434890171,
1,12,center,up,IC,R,,,,,,Block.xlsx,"你已经完成了整个实验（三个区组）。

请报告实验者已完成实验

非常感谢，再见！",0,50,1.5,right,LLRLL.png,,,,,0,1,1,1,0,0,0,11,,,,,,,,,,,,,,,,,,,,,,,,,,,,,,,,,,,,,,,,,,,,,,,,,,,,,,,,,,,,,,,,425.06757509999443,425.4684115999844,425.4684115999844,425.56876779999584,425.9524708999088,None,right,1,0.5089495000429451,425.9524708999088,None,425.4684115999844,425.56876779999584,425.5518101999769,None,426.48651759990025,None,,,,,,,11022,001,2024_Jan_05_1416,ANT,2021.2.3,59.84064434890171,
1,18,spatial,up,C,R,,,,,,Block.xlsx,"你已经完成了整个实验（三个区组）。

请报告实验者已完成实验

非常感谢，再见！",1.5,0,1.5,right,RRRRR.png,,,,,0,1,1,1,0,1,1,17,,,,,,,,,,,,,,,,,,,,,,,,,,,,,,,,,,,,,,,,,,,,,,,,,,,,,,,,,,,,,,,,426.8873277999228,427.28811129997484,427.27084719995037,427.3729890999384,427.77189509989694,None,right,1,0.3460097999777645,427.77189509989694,None,427.27084719995037,427.3729890999384,427.3729890999384,None,428.1390034999931,None,,,,,,,11022,001,2024_Jan_05_1416,ANT,2021.2.3,59.84064434890171,
1,7,no,down,IC,L,,,,,,Block.xlsx,"你已经完成了整个实验（三个区组）。

请报告实验者已完成实验

非常感谢，再见！",50,0,-1.5,left,RRLRR.png,,,,,0,1,1,1,0,2,2,6,,,,,,,,,,,,,,,,,,,,,,,,,,,,,,,,,,,,,,,,,,,,,,,,,,,,,,,,,,,,,,,,428.5394924998982,428.9399847999448,428.9240226999391,429.0240803998895,429.42596559994854,None,left,1,0.5484919000882655,429.42596559994854,None,428.9240226999391,429.0240803998895,429.0240803998895,None,429.99201819999143,None,,,,,,,11022,001,2024_Jan_05_1416,ANT,2021.2.3,59.84064434890171,
1,22,spatial,down,C,R,,,,,,Block.xlsx,"你已经完成了整个实验（三个区组）。

请报告实验者已完成实验

非常感谢，再见！",-1.5,0,-1.5,right,RRRRR.png,,,,,0,1,1,1,0,3,3,21,,,,,,,,,,,,,,,,,,,,,,,,,,,,,,,,,,,,,,,,,,,,,,,,,,,,,,,,,,,,,,,,430.3930646999506,430.7928297999315,430.7780189999612,430.87651420000475,431.2770616998896,None,right,1,0.3684305000351742,431.2770616998896,None,430.7780189999612,430.87651420000475,430.87651420000475,None,431.66068489989266,None,,,,,,,11022,001,2024_Jan_05_1416,ANT,2021.2.3,59.84064434890171,
1,3,no,up,IC,L,,,,,,Block.xlsx,"你已经完成了整个实验（三个区组）。

请报告实验者已完成实验

非常感谢，再见！",50,0,1.5,left,RRLRR.png,,,,,0,1,1,1,0,4,4,2,,,,,,,,,,,,,,,,,,,,,,,,,,,,,,,,,,,,,,,,,,,,,,,,,,,,,,,,,,,,,,,,432.06241679994855,432.4621444999939,432.4452880999306,432.54559749993496,432.94690819992684,None,left,1,0.426549099967815,432.94690819992684,None,432.4452880999306,432.54559749993496,432.54559749993496,None,433.3967847999884,None,,,,,,,11022,001,2024_Jan_05_1416,ANT,2021.2.3,59.84064434890171,
1,4,no,up,IC,R,,,,,,Block.xlsx,"你已经完成了整个实验（三个区组）。

请报告实验者已完成实验

非常感谢，再见！",50,0,1.5,right,LLRLL.png,,,,,0,1,1,1,0,5,5,3,,,,,,,,,,,,,,,,,,,,,,,,,,,,,,,,,,,,,,,,,,,,,,,,,,,,,,,,,,,,,,,,433.79754449997563,434.19866989995353,434.18202259996906,434.2826212999644,434.68236929993145,None,right,1,0.531578200054355,434.68236929993145,None,434.18202259996906,434.2826212999644,434.2826212999644,None,435.2328233999433,None,,,,,,,11022,001,2024_Jan_05_1416,ANT,2021.2.3,59.84064434890171,
1,19,spatial,up,IC,L,,,,,,Block.xlsx,"你已经完成了整个实验（三个区组）。

请报告实验者已完成实验

非常感谢，再见！",1.5,0,1.5,left,RRLRR.png,,,,,0,1,1,1,0,6,6,18,,,,,,,,,,,,,,,,,,,,,,,,,,,,,,,,,,,,,,,,,,,,,,,,,,,,,,,,,,,,,,,,435.63347749994136,436.0341996999923,436.01878729998134,436.136244699941,436.52015879994724,None,left,1,0.373282500077039,436.52015879994724,None,436.01878729998134,436.136244699941,436.1179917999543,None,436.91930309997406,None,,,,,,,11022,001,2024_Jan_05_1416,ANT,2021.2.3,59.84064434890171,
1,11,center,up,IC,L,,,,,,Block.xlsx,"你已经完成了整个实验（三个区组）。

请报告实验者已完成实验

非常感谢，再见！",0,50,1.5,left,RRLRR.png,,,,,0,1,1,1,0,7,7,10,,,,,,,,,,,,,,,,,,,,,,,,,,,,,,,,,,,,,,,,,,,,,,,,,,,,,,,,,,,,,,,,437.31929919996765,437.72222969995346,437.70386459992733,437.8050690999953,438.20486009994056,None,left,1,0.36072220001369715,438.20486009994056,None,437.70386459992733,437.8050690999953,437.8050690999953,None,438.58781389996875,None,,,,,,,11022,001,2024_Jan_05_1416,ANT,2021.2.3,59.84064434890171,
1,12,center,up,IC,R,,,,,,Block.xlsx,"你已经完成了整个实验（三个区组）。

请报告实验者已完成实验

非常感谢，再见！",0,50,1.5,right,LLRLL.png,,,,,0,1,1,1,0,8,8,11,,,,,,,,,,,,,,,,,,,,,,,,,,,,,,,,,,,,,,,,,,,,,,,,,,,,,,,,,,,,,,,,438.988159099943,439.3891973999562,439.3737975999247,439.47304109996185,439.8737285999814,None,right,1,0.3397874999791384,439.8737285999814,None,439.3737975999247,439.47304109996185,439.47304109996185,None,440.2402686999412,None,,,,,,,11022,001,2024_Jan_05_1416,ANT,2021.2.3,59.84064434890171,
1,13,center,down,C,L,,,,,,Block.xlsx,"你已经完成了整个实验（三个区组）。

请报告实验者已完成实验

非常感谢，再见！",0,50,-1.5,left,LLLLL.png,,,,,0,1,1,1,0,9,9,12,,,,,,,,,,,,,,,,,,,,,,,,,,,,,,,,,,,,,,,,,,,,,,,,,,,,,,,,,,,,,,,,440.6409067999339,441.0429792999057,441.02468489995226,441.1251531000016,441.5259145000018,None,left,1,0.4801609000423923,441.5259145000018,None,441.02468489995226,441.1251531000016,441.1251531000016,None,442.0261718999827,None,,,,,,,11022,001,2024_Jan_05_1416,ANT,2021.2.3,59.84064434890171,
1,1,no,up,C,L,,,,,,Block.xlsx,"你已经完成了整个实验（三个区组）。

请报告实验者已完成实验

非常感谢，再见！",50,0,1.5,left,LLLLL.png,,,,,0,1,1,1,0,10,10,0,,,,,,,,,,,,,,,,,,,,,,,,,,,,,,,,,,,,,,,,,,,,,,,,,,,,,,,,,,,,,,,,442.42681909992825,442.8287476999685,442.81197589996736,442.91119539993815,443.31203599995933,None,left,1,0.34994860005099326,443.31203599995933,None,442.81197589996736,442.91119539993815,442.91119539993815,None,443.678891699994,None,,,,,,,11022,001,2024_Jan_05_1416,ANT,2021.2.3,59.84064434890171,
1,23,spatial,down,IC,L,,,,,,Block.xlsx,"你已经完成了整个实验（三个区组）。

请报告实验者已完成实验

非常感谢，再见！",-1.5,0,-1.5,left,RRLRR.png,,,,,0,1,1,1,0,11,11,22,,,,,,,,,,,,,,,,,,,,,,,,,,,,,,,,,,,,,,,,,,,,,,,,,,,,,,,,,,,,,,,,444.079301699996,444.4812425998971,444.4633001999464,444.56389079999644,444.9639101999346,None,left,1,0.4658615000080317,444.9639101999346,None,444.4633001999464,444.56389079999644,444.56389079999644,None,445.44791979994625,None,,,,,,,11022,001,2024_Jan_05_1416,ANT,2021.2.3,59.84064434890171,
1,5,no,down,C,L,,,,,,Block.xlsx,"你已经完成了整个实验（三个区组）。

请报告实验者已完成实验

非常感谢，再见！",50,0,-1.5,left,LLLLL.png,,,,,0,1,1,1,0,12,12,4,,,,,,,,,,,,,,,,,,,,,,,,,,,,,,,,,,,,,,,,,,,,,,,,,,,,,,,,,,,,,,,,445.84922939992975,446.25068339996506,446.23249549989123,446.33319739997387,446.7341371999355,None,left,1,0.3843366999644786,446.7341371999355,None,446.23249549989123,446.33319739997387,446.33319739997387,None,447.1340123999398,None,,,,,,,11022,001,2024_Jan_05_1416,ANT,2021.2.3,59.84064434890171,
1,19,spatial,up,IC,L,,,,,,Block.xlsx,"你已经完成了整个实验（三个区组）。

请报告实验者已完成实验

非常感谢，再见！",1.5,0,1.5,left,RRLRR.png,,,,,0,1,1,1,0,13,13,18,,,,,,,,,,,,,,,,,,,,,,,,,,,,,,,,,,,,,,,,,,,,,,,,,,,,,,,,,,,,,,,,447.53433259995654,447.93673169997055,447.91869819990825,448.01985759998206,448.4197385999141,None,left,1,0.35418829997070134,448.4197385999141,None,447.91869819990825,448.01985759998206,448.01985759998206,None,448.80366179998964,None,,,,,,,11022,001,2024_Jan_05_1416,ANT,2021.2.3,59.84064434890171,
1,14,center,down,C,R,,,,,,Block.xlsx,"你已经完成了整个实验（三个区组）。

请报告实验者已完成实验

非常感谢，再见！",0,50,-1.5,right,RRRRR.png,,,,,0,1,1,1,0,14,14,13,,,,,,,,,,,,,,,,,,,,,,,,,,,,,,,,,,,,,,,,,,,,,,,,,,,,,,,,,,,,,,,,449.2036589999916,449.6049313999247,449.5873684999533,449.6882608999731,450.0886066999519,None,right,1,0.40491990000009537,450.0886066999519,None,449.5873684999533,449.6882608999731,449.6882608999731,None,450.52249059989117,None,,,,,,,11022,001,2024_Jan_05_1416,ANT,2021.2.3,59.84064434890171,
1,23,spatial,down,IC,L,,,,,,Block.xlsx,"你已经完成了整个实验（三个区组）。

请报告实验者已完成实验

非常感谢，再见！",-1.5,0,-1.5,left,RRLRR.png,,,,,0,1,1,1,0,15,15,22,,,,,,,,,,,,,,,,,,,,,,,,,,,,,,,,,,,,,,,,,,,,,,,,,,,,,,,,,,,,,,,,450.92264329991303,451.3232764999848,451.30755139992107,451.40811089996714,451.8080733999377,None,left,1,0.34124859992880374,451.8080733999377,None,451.30755139992107,451.40811089996714,451.40811089996714,None,452.1747189000016,None,,,,,,,11022,001,2024_Jan_05_1416,ANT,2021.2.3,59.84064434890171,
1,5,no,down,C,L,,,,,,Block.xlsx,"你已经完成了整个实验（三个区组）。

请报告实验者已完成实验

非常感谢，再见！",50,0,-1.5,left,LLLLL.png,,,,,0,1,1,1,0,16,16,4,,,,,,,,,,,,,,,,,,,,,,,,,,,,,,,,,,,,,,,,,,,,,,,,,,,,,,,,,,,,,,,,452.5750647999812,452.9766699000029,452.9602659998927,453.0600169999525,453.46168479998596,None,left,1,0.46395640005357563,453.46168479998596,None,452.9602659998927,453.0600169999525,453.0600169999525,None,453.94457399996463,None,,,,,,,11022,001,2024_Jan_05_1416,ANT,2021.2.3,59.84064434890171,
1,4,no,up,IC,R,,,,,,Block.xlsx,"你已经完成了整个实验（三个区组）。

请报告实验者已完成实验

非常感谢，再见！",50,0,1.5,right,LLRLL.png,,,,,0,1,1,1,0,17,17,3,,,,,,,,,,,,,,,,,,,,,,,,,,,,,,,,,,,,,,,,,,,,,,,,,,,,,,,,,,,,,,,,454.3450738999527,454.74581649992615,454.73031339992303,454.82875129999593,455.23039899999276,None,right,1,0.5430686000036076,455.23039899999276,None,454.73031339992303,454.82875129999593,454.82875129999593,None,455.7966490999097,None,,,,,,,11022,001,2024_Jan_05_1416,ANT,2021.2.3,59.84064434890171,
1,13,center,down,C,L,,,,,,Block.xlsx,"你已经完成了整个实验（三个区组）。

请报告实验者已完成实验

非常感谢，再见！",0,50,-1.5,left,LLLLL.png,,,,,0,1,1,1,0,18,18,12,,,,,,,,,,,,,,,,,,,,,,,,,,,,,,,,,,,,,,,,,,,,,,,,,,,,,,,,,,,,,,,,456.1978533999063,456.59788559994195,456.5820094998926,456.68136399996,457.08251340000425,None,left,1,0.43516650004312396,457.08251340000425,None,456.5820094998926,456.68136399996,456.68136399996,None,457.5497628999874,None,,,,,,,11022,001,2024_Jan_05_1416,ANT,2021.2.3,59.84064434890171,
1,23,spatial,down,IC,L,,,,,,Block.xlsx,"你已经完成了整个实验（三个区组）。

请报告实验者已完成实验

非常感谢，再见！",-1.5,0,-1.5,left,RRLRR.png,,,,,0,1,1,1,0,19,19,22,,,,,,,,,,,,,,,,,,,,,,,,,,,,,,,,,,,,,,,,,,,,,,,,,,,,,,,,,,,,,,,,457.94988559989724,458.3511104999343,458.3337519998895,458.43533819995355,458.83462999993935,None,left,1,0.4187801000662148,458.83462999993935,None,458.3337519998895,458.43533819995355,458.43533819995355,None,459.2851761999773,None,,,,,,,11022,001,2024_Jan_05_1416,ANT,2021.2.3,59.84064434890171,
1,4,no,up,IC,R,,,,,,Block.xlsx,"你已经完成了整个实验（三个区组）。

请报告实验者已完成实验

非常感谢，再见！",50,0,1.5,right,LLRLL.png,,,,,0,1,1,1,0,20,20,3,,,,,,,,,,,,,,,,,,,,,,,,,,,,,,,,,,,,,,,,,,,,,,,,,,,,,,,,,,,,,,,,459.6855548999738,460.08762609993573,460.06977579998784,460.1704977999907,460.57123369991314,None,right,1,0.586385199916549,460.57123369991314,None,460.06977579998784,460.1704977999907,460.1704977999907,None,461.1712951998925,None,,,,,,,11022,001,2024_Jan_05_1416,ANT,2021.2.3,59.84064434890171,
1,15,center,down,IC,L,,,,,,Block.xlsx,"你已经完成了整个实验（三个区组）。

请报告实验者已完成实验

非常感谢，再见！",0,50,-1.5,left,RRLRR.png,,,,,0,1,1,1,0,21,21,14,,,,,,,,,,,,,,,,,,,,,,,,,,,,,,,,,,,,,,,,,,,,,,,,,,,,,,,,,,,,,,,,461.57268609991297,461.9730698999483,461.9572736999253,462.05769299995154,462.4575960999355,None,left,1,0.49191949993837625,462.4575960999355,None,461.9572736999253,462.05769299995154,462.05769299995154,None,462.9740168999415,None,,,,,,,11022,001,2024_Jan_05_1416,ANT,2021.2.3,59.84064434890171,
1,16,center,down,IC,R,,,,,,Block.xlsx,"你已经完成了整个实验（三个区组）。

请报告实验者已完成实验

非常感谢，再见！",0,50,-1.5,right,LLRLL.png,,,,,0,1,1,1,0,22,22,15,,,,,,,,,,,,,,,,,,,,,,,,,,,,,,,,,,,,,,,,,,,,,,,,,,,,,,,,,,,,,,,,463.3749181999592,463.77531619998626,463.75827259989455,463.858698099968,464.2606302999193,None,right,1,0.4970591999590397,464.2606302999193,None,463.75827259989455,463.858698099968,463.858698099968,None,464.7773811999941,None,,,,,,,11022,001,2024_Jan_05_1416,ANT,2021.2.3,59.84064434890171,
1,6,no,down,C,R,,,,,,Block.xlsx,"你已经完成了整个实验（三个区组）。

请报告实验者已完成实验

非常感谢，再见！",50,0,-1.5,right,RRRRR.png,,,,,0,1,1,1,0,23,23,5,,,,,,,,,,,,,,,,,,,,,,,,,,,,,,,,,,,,,,,,,,,,,,,,,,,,,,,,,,,,,,,,465.17720959999133,465.57991239998955,465.5619410999352,465.6627320999978,466.0618200999452,None,right,1,0.5036018000682816,466.0618200999452,None,465.5619410999352,465.6627320999978,465.6627320999978,None,466.5791422999464,None,,,,,,,11022,001,2024_Jan_05_1416,ANT,2021.2.3,59.84064434890171,
1,8,no,down,IC,R,,,,,,Block.xlsx,"你已经完成了整个实验（三个区组）。

请报告实验者已完成实验

非常感谢，再见！",50,0,-1.5,right,LLRLL.png,,,,,0,1,1,1,1,0,24,7,,,,,,,,,,,,,,,,,,,,,,,,,,,,,,,,,,,,,,,,,,,,,,,,,,,,,,,,,,,,,,,,466.98030999989714,467.38191979995463,467.3638454999309,467.4641167999944,467.8651105999015,None,right,1,0.4923590999096632,467.8651105999015,None,467.3638454999309,467.4641167999944,467.4641167999944,None,468.3819448999129,None,,,,,,,11022,001,2024_Jan_05_1416,ANT,2021.2.3,59.84064434890171,
1,11,center,up,IC,L,,,,,,Block.xlsx,"你已经完成了整个实验（三个区组）。

请报告实验者已完成实验

非常感谢，再见！",0,50,1.5,left,RRLRR.png,,,,,0,1,1,1,1,1,25,10,,,,,,,,,,,,,,,,,,,,,,,,,,,,,,,,,,,,,,,,,,,,,,,,,,,,,,,,,,,,,,,,468.7828214999754,469.1837947999593,469.1671533999033,469.26695959991775,469.6681717999745,None,left,1,0.4660476000281051,469.6681717999745,None,469.1671533999033,469.26695959991775,469.26695959991775,None,470.1516016999958,None,,,,,,,11022,001,2024_Jan_05_1416,ANT,2021.2.3,59.84064434890171,
1,19,spatial,up,IC,L,,,,,,Block.xlsx,"你已经完成了整个实验（三个区组）。

请报告实验者已完成实验

非常感谢，再见！",1.5,0,1.5,left,RRLRR.png,,,,,0,1,1,1,1,2,26,18,,,,,,,,,,,,,,,,,,,,,,,,,,,,,,,,,,,,,,,,,,,,,,,,,,,,,,,,,,,,,,,,470.5524957999587,470.9523368999362,470.93651249993127,471.0374060999602,471.43671309994534,None,left,1,0.32161009998526424,471.43671309994534,None,470.93651249993127,471.0374060999602,471.0374060999602,None,471.7877219999209,None,,,,,,,11022,001,2024_Jan_05_1416,ANT,2021.2.3,59.84064434890171,
1,6,no,down,C,R,,,,,,Block.xlsx,"你已经完成了整个实验（三个区组）。

请报告实验者已完成实验

非常感谢，再见！",50,0,-1.5,right,RRRRR.png,,,,,0,1,1,1,1,3,27,5,,,,,,,,,,,,,,,,,,,,,,,,,,,,,,,,,,,,,,,,,,,,,,,,,,,,,,,,,,,,,,,,472.18772359995637,472.58799349993933,472.5726445999462,472.67174709995743,473.07404029997997,None,right,1,0.42770060000475496,473.07404029997997,None,472.5726445999462,472.67174709995743,472.67174709995743,None,473.52360889990814,None,,,,,,,11022,001,2024_Jan_05_1416,ANT,2021.2.3,59.84064434890171,
1,15,center,down,IC,L,,,,,,Block.xlsx,"你已经完成了整个实验（三个区组）。

请报告实验者已完成实验

非常感谢，再见！",0,50,-1.5,left,RRLRR.png,,,,,0,1,1,1,1,4,28,14,,,,,,,,,,,,,,,,,,,,,,,,,,,,,,,,,,,,,,,,,,,,,,,,,,,,,,,,,,,,,,,,473.92342199990526,474.3259586999193,474.3073833999224,474.40942749998067,474.8097238999326,None,left,1,0.4598976999986917,474.8097238999326,None,474.3073833999224,474.40942749998067,474.40942749998067,None,475.29224320000503,None,,,,,,,11022,001,2024_Jan_05_1416,ANT,2021.2.3,59.84064434890171,
1,6,no,down,C,R,,,,,,Block.xlsx,"你已经完成了整个实验（三个区组）。

请报告实验者已完成实验

非常感谢，再见！",50,0,-1.5,right,RRRRR.png,,,,,0,1,1,1,1,5,29,5,,,,,,,,,,,,,,,,,,,,,,,,,,,,,,,,,,,,,,,,,,,,,,,,,,,,,,,,,,,,,,,,475.6927316999063,476.09345339995343,476.0770690999925,476.1772236999823,476.5792403999949,None,right,1,0.46636199997738004,476.5792403999949,None,476.0770690999925,476.1772236999823,476.1772236999823,None,477.0614057999337,None,,,,,,,11022,001,2024_Jan_05_1416,ANT,2021.2.3,59.84064434890171,
1,17,spatial,up,C,L,,,,,,Block.xlsx,"你已经完成了整个实验（三个区组）。

请报告实验者已完成实验

非常感谢，再见！",1.5,0,1.5,left,LLLLL.png,,,,,0,1,1,1,1,6,30,16,,,,,,,,,,,,,,,,,,,,,,,,,,,,,,,,,,,,,,,,,,,,,,,,,,,,,,,,,,,,,,,,477.463021799922,477.86255949991755,477.84661239990965,477.9467015999835,478.34742999996524,None,left,1,0.3059701999882236,478.34742999996524,None,477.84661239990965,477.9467015999835,477.9467015999835,None,478.68054349999875,None,,,,,,,11022,001,2024_Jan_05_1416,ANT,2021.2.3,59.84064434890171,
1,16,center,down,IC,R,,,,,,Block.xlsx,"你已经完成了整个实验（三个区组）。

请报告实验者已完成实验

非常感谢，再见！",0,50,-1.5,right,LLRLL.png,,,,,0,1,1,1,1,7,31,15,,,,,,,,,,,,,,,,,,,,,,,,,,,,,,,,,,,,,,,,,,,,,,,,,,,,,,,,,,,,,,,,479.0816477999324,479.4818960999837,479.46593799989205,479.565373999998,479.9657363999868,None,left,0,0.3683868999360129,479.9657363999868,None,479.46593799989205,479.565373999998,479.565373999998,None,480.3499445999041,None,,,,,,,11022,001,2024_Jan_05_1416,ANT,2021.2.3,59.84064434890171,
1,10,center,up,C,R,,,,,,Block.xlsx,"你已经完成了整个实验（三个区组）。

请报告实验者已完成实验

非常感谢，再见！",0,50,1.5,right,RRRRR.png,,,,,0,1,1,1,1,8,32,9,,,,,,,,,,,,,,,,,,,,,,,,,,,,,,,,,,,,,,,,,,,,,,,,,,,,,,,,,,,,,,,,480.75086579995696,481.15088390000165,481.13524259999394,481.23474479990546,481.63491089991294,None,right,1,0.3627656999742612,481.63491089991294,None,481.13524259999394,481.23474479990546,481.23474479990546,None,482.01870259991847,None,,,,,,,11022,001,2024_Jan_05_1416,ANT,2021.2.3,59.84064434890171,
1,1,no,up,C,L,,,,,,Block.xlsx,"你已经完成了整个实验（三个区组）。

请报告实验者已完成实验

非常感谢，再见！",50,0,1.5,left,LLLLL.png,,,,,0,1,1,1,1,9,33,0,,,,,,,,,,,,,,,,,,,,,,,,,,,,,,,,,,,,,,,,,,,,,,,,,,,,,,,,,,,,,,,,482.4200985999778,482.8202185999835,482.8040129999863,482.90408509992994,483.3041466999566,None,left,1,0.5254164000507444,483.3041466999566,None,482.8040129999863,482.90408509992994,482.90408509992994,None,483.85483319999184,None,,,,,,,11022,001,2024_Jan_05_1416,ANT,2021.2.3,59.84064434890171,
1,22,spatial,down,C,R,,,,,,Block.xlsx,"你已经完成了整个实验（三个区组）。

请报告实验者已完成实验

非常感谢，再见！",-1.5,0,-1.5,right,RRRRR.png,,,,,0,1,1,1,1,10,34,21,,,,,,,,,,,,,,,,,,,,,,,,,,,,,,,,,,,,,,,,,,,,,,,,,,,,,,,,,,,,,,,,484.2554720999906,484.65678389999084,484.63990919990465,484.74142209999263,485.14104159991257,None,right,1,0.38512229989282787,485.14104159991257,None,484.63990919990465,484.74142209999263,484.74142209999263,None,485.5407648999244,None,,,,,,,11022,001,2024_Jan_05_1416,ANT,2021.2.3,59.84064434890171,
1,20,spatial,up,IC,R,,,,,,Block.xlsx,"你已经完成了整个实验（三个区组）。

请报告实验者已完成实验

非常感谢，再见！",1.5,0,1.5,right,LLRLL.png,,,,,0,1,1,1,1,11,35,19,,,,,,,,,,,,,,,,,,,,,,,,,,,,,,,,,,,,,,,,,,,,,,,,,,,,,,,,,,,,,,,,485.9413497999776,486.3428505999036,486.32594969996717,486.4263389999978,486.826493499917,None,right,1,0.44296539993956685,486.826493499917,None,486.32594969996717,486.4263389999978,486.4263389999978,None,487.2938915999839,None,,,,,,,11022,001,2024_Jan_05_1416,ANT,2021.2.3,59.84064434890171,
1,1,no,up,C,L,,,,,,Block.xlsx,"你已经完成了整个实验（三个区组）。

请报告实验者已完成实验

非常感谢，再见！",50,0,1.5,left,LLLLL.png,,,,,0,1,1,1,1,12,36,0,,,,,,,,,,,,,,,,,,,,,,,,,,,,,,,,,,,,,,,,,,,,,,,,,,,,,,,,,,,,,,,,487.69386889995076,488.09499689994846,488.0785901999334,488.1786290999735,488.57965809991583,None,left,1,0.45802829996682703,488.57965809991583,None,488.0785901999334,488.1786290999735,488.1786290999735,None,489.06393629999366,None,,,,,,,11022,001,2024_Jan_05_1416,ANT,2021.2.3,59.84064434890171,
1,10,center,up,C,R,,,,,,Block.xlsx,"你已经完成了整个实验（三个区组）。

请报告实验者已完成实验

非常感谢，再见！",0,50,1.5,right,RRRRR.png,,,,,0,1,1,1,1,13,37,9,,,,,,,,,,,,,,,,,,,,,,,,,,,,,,,,,,,,,,,,,,,,,,,,,,,,,,,,,,,,,,,,489.4641410999466,489.8649564998923,489.84764469997026,489.94794079998974,490.34804139996413,None,right,1,0.4736040000570938,490.34804139996413,None,489.84764469997026,489.94794079998974,489.94794079998974,None,490.84961279993877,None,,,,,,,11022,001,2024_Jan_05_1416,ANT,2021.2.3,59.84064434890171,
1,5,no,down,C,L,,,,,,Block.xlsx,"你已经完成了整个实验（三个区组）。

请报告实验者已完成实验

非常感谢，再见！",50,0,-1.5,left,LLLLL.png,,,,,0,1,1,1,1,14,38,4,,,,,,,,,,,,,,,,,,,,,,,,,,,,,,,,,,,,,,,,,,,,,,,,,,,,,,,,,,,,,,,,491.24932899989653,491.64980419992935,491.63378469995223,491.7338109998964,492.13380229996983,None,left,1,0.4878303000004962,492.13380229996983,None,491.63378469995223,491.7338109998964,491.7338109998964,None,492.65129660000093,None,,,,,,,11022,001,2024_Jan_05_1416,ANT,2021.2.3,59.84064434890171,
1,20,spatial,up,IC,R,,,,,,Block.xlsx,"你已经完成了整个实验（三个区组）。

请报告实验者已完成实验

非常感谢，再见！",1.5,0,1.5,right,LLRLL.png,,,,,0,1,1,1,1,15,39,19,,,,,,,,,,,,,,,,,,,,,,,,,,,,,,,,,,,,,,,,,,,,,,,,,,,,,,,,,,,,,,,,493.0521615999751,493.4526488999836,493.4362676999299,493.53653119993396,493.9370632999344,None,right,1,0.41244519990868866,493.9370632999344,None,493.4362676999299,493.53653119993396,493.53653119993396,None,494.3703894999344,None,,,,,,,11022,001,2024_Jan_05_1416,ANT,2021.2.3,59.84064434890171,
1,6,no,down,C,R,,,,,,Block.xlsx,"你已经完成了整个实验（三个区组）。

请报告实验者已完成实验

非常感谢，再见！",50,0,-1.5,right,RRRRR.png,,,,,0,1,1,1,1,16,40,5,,,,,,,,,,,,,,,,,,,,,,,,,,,,,,,,,,,,,,,,,,,,,,,,,,,,,,,,,,,,,,,,494.77178789989557,495.1727972999215,495.15592849999666,495.2556523999665,495.6566139999777,None,right,1,0.48495279997587204,495.6566139999777,None,495.15592849999666,495.2556523999665,495.2556523999665,None,496.15644699998666,None,,,,,,,11022,001,2024_Jan_05_1416,ANT,2021.2.3,59.84064434890171,
1,4,no,up,IC,R,,,,,,Block.xlsx,"你已经完成了整个实验（三个区组）。

请报告实验者已完成实验

非常感谢，再见！",50,0,1.5,right,LLRLL.png,,,,,0,1,1,1,1,17,41,3,,,,,,,,,,,,,,,,,,,,,,,,,,,,,,,,,,,,,,,,,,,,,,,,,,,,,,,,,,,,,,,,496.5571668999037,496.960422599921,496.9412666999269,497.0410724999383,497.44209169992246,None,right,1,0.5715904999524355,497.44209169992246,None,496.9412666999269,497.0410724999383,497.0410724999383,None,498.0425789000001,None,,,,,,,11022,001,2024_Jan_05_1416,ANT,2021.2.3,59.84064434890171,
1,17,spatial,up,C,L,,,,,,Block.xlsx,"你已经完成了整个实验（三个区组）。

请报告实验者已完成实验

非常感谢，再见！",1.5,0,1.5,left,LLLLL.png,,,,,0,1,1,1,1,18,42,16,,,,,,,,,,,,,,,,,,,,,,,,,,,,,,,,,,,,,,,,,,,,,,,,,,,,,,,,,,,,,,,,498.4430883999448,498.844057399896,498.827660299954,498.92831200000364,499.3293830999173,None,left,1,0.420045799924992,499.3293830999173,None,498.827660299954,498.92831200000364,498.92831200000364,None,499.7783847999526,None,,,,,,,11022,001,2024_Jan_05_1416,ANT,2021.2.3,59.84064434890171,
1,9,center,up,C,L,,,,,,Block.xlsx,"你已经完成了整个实验（三个区组）。

请报告实验者已完成实验

非常感谢，再见！",0,50,1.5,left,LLLLL.png,,,,,0,1,1,1,1,19,43,8,,,,,,,,,,,,,,,,,,,,,,,,,,,,,,,,,,,,,,,,,,,,,,,,,,,,,,,,,,,,,,,,500.17917949997354,500.58083269989584,500.56308969995007,500.6646802999312,501.0652551999083,None,left,1,0.4361684999894351,501.0652551999083,None,500.56308969995007,500.6646802999312,500.6646802999312,None,501.5314795000013,None,,,,,,,11022,001,2024_Jan_05_1416,ANT,2021.2.3,59.84064434890171,
1,13,center,down,C,L,,,,,,Block.xlsx,"你已经完成了整个实验（三个区组）。

请报告实验者已完成实验

非常感谢，再见！",0,50,-1.5,left,LLLLL.png,,,,,0,1,1,1,1,20,44,12,,,,,,,,,,,,,,,,,,,,,,,,,,,,,,,,,,,,,,,,,,,,,,,,,,,,,,,,,,,,,,,,501.9315419999184,502.3328899999615,502.31677189993206,502.4179242999526,502.81651499995496,None,left,1,0.42133600008673966,502.81651499995496,None,502.31677189993206,502.4179242999526,502.4179242999526,None,503.2675319999689,None,,,,,,,11022,001,2024_Jan_05_1416,ANT,2021.2.3,59.84064434890171,
1,8,no,down,IC,R,,,,,,Block.xlsx,"你已经完成了整个实验（三个区组）。

请报告实验者已完成实验

非常感谢，再见！",50,0,-1.5,right,LLRLL.png,,,,,0,1,1,1,1,21,45,7,,,,,,,,,,,,,,,,,,,,,,,,,,,,,,,,,,,,,,,,,,,,,,,,,,,,,,,,,,,,,,,,503.66762449999806,504.06867999990936,504.0515112999128,504.15146629989613,504.55359029991087,None,right,1,0.5402520999778062,504.55359029991087,None,504.0515112999128,504.15146629989613,504.15146629989613,None,505.1202849999536,None,,,,,,,11022,001,2024_Jan_05_1416,ANT,2021.2.3,59.84064434890171,
1,17,spatial,up,C,L,,,,,,Block.xlsx,"你已经完成了整个实验（三个区组）。

请报告实验者已完成实验

非常感谢，再见！",1.5,0,1.5,left,LLLLL.png,,,,,0,1,1,1,1,22,46,16,,,,,,,,,,,,,,,,,,,,,,,,,,,,,,,,,,,,,,,,,,,,,,,,,,,,,,,,,,,,,,,,505.5204141999129,505.92103729990777,505.9048859999748,506.0067407999886,506.4053255999461,None,left,1,0.3133080000989139,506.4053255999461,None,505.9048859999748,506.0067407999886,506.0067407999886,None,506.73901489994023,None,,,,,,,11022,001,2024_Jan_05_1416,ANT,2021.2.3,59.84064434890171,
1,11,center,up,IC,L,,,,,,Block.xlsx,"你已经完成了整个实验（三个区组）。

请报告实验者已完成实验

非常感谢，再见！",0,50,1.5,left,RRLRR.png,,,,,0,1,1,1,1,23,47,10,,,,,,,,,,,,,,,,,,,,,,,,,,,,,,,,,,,,,,,,,,,,,,,,,,,,,,,,,,,,,,,,507.13964249996934,507.54029409994837,507.5244430999737,507.62414939992595,508.02532739995513,None,right,0,0.38049750006757677,508.02532739995513,None,507.5244430999737,507.62414939992595,507.62414939992595,None,508.4248723000055,None,,,,,,,11022,001,2024_Jan_05_1416,ANT,2021.2.3,59.84064434890171,
1,24,spatial,down,IC,R,,,,,,Block.xlsx,"你已经完成了整个实验（三个区组）。

请报告实验者已完成实验

非常感谢，再见！",-1.5,0,-1.5,right,LLRLL.png,,,,,0,1,1,1,2,0,48,23,,,,,,,,,,,,,,,,,,,,,,,,,,,,,,,,,,,,,,,,,,,,,,,,,,,,,,,,,,,,,,,,508.8251894999994,509.2267955999123,509.20978289993946,509.3103240999626,509.7099110999843,None,right,1,0.5196017000125721,509.7099110999843,None,509.20978289993946,509.3103240999626,509.3103240999626,None,510.260803299956,None,,,,,,,11022,001,2024_Jan_05_1416,ANT,2021.2.3,59.84064434890171,
1,5,no,down,C,L,,,,,,Block.xlsx,"你已经完成了整个实验（三个区组）。

请报告实验者已完成实验

非常感谢，再见！",50,0,-1.5,left,LLLLL.png,,,,,0,1,1,1,2,1,49,4,,,,,,,,,,,,,,,,,,,,,,,,,,,,,,,,,,,,,,,,,,,,,,,,,,,,,,,,,,,,,,,,510.6618184999097,511.06207220000215,511.04705389996525,511.16210479999427,511.5471613999689,None,left,1,0.5627707000821829,511.5471613999689,None,511.04705389996525,511.16210479999427,511.146356799989,None,512.1301318999613,None,,,,,,,11022,001,2024_Jan_05_1416,ANT,2021.2.3,59.84064434890171,
1,12,center,up,IC,R,,,,,,Block.xlsx,"你已经完成了整个实验（三个区组）。

请报告实验者已完成实验

非常感谢，再见！",0,50,1.5,right,LLRLL.png,,,,,0,1,1,1,2,2,50,11,,,,,,,,,,,,,,,,,,,,,,,,,,,,,,,,,,,,,,,,,,,,,,,,,,,,,,,,,,,,,,,,512.5313690999756,512.9326801999705,512.9148304999107,513.0156691999873,513.4172179999296,None,right,1,0.4763315999880433,513.4172179999296,None,512.9148304999107,513.0156691999873,513.0156691999873,None,513.9161025999347,None,,,,,,,11022,001,2024_Jan_05_1416,ANT,2021.2.3,59.84064434890171,
1,20,spatial,up,IC,R,,,,,,Block.xlsx,"你已经完成了整个实验（三个区组）。

请报告实验者已完成实验

非常感谢，再见！",1.5,0,1.5,right,LLRLL.png,,,,,0,1,1,1,2,3,51,19,,,,,,,,,,,,,,,,,,,,,,,,,,,,,,,,,,,,,,,,,,,,,,,,,,,,,,,,,,,,,,,,514.3167780999793,514.7174184999894,514.7028124999488,514.8019437999465,515.2013586999383,None,right,1,0.4281505000544712,515.2013586999383,None,514.7028124999488,514.8019437999465,514.8019437999465,None,515.6527802998899,None,,,,,,,11022,001,2024_Jan_05_1416,ANT,2021.2.3,59.84064434890171,
1,18,spatial,up,C,R,,,,,,Block.xlsx,"你已经完成了整个实验（三个区组）。

请报告实验者已完成实验

非常感谢，再见！",1.5,0,1.5,right,RRRRR.png,,,,,0,1,1,1,2,4,52,17,,,,,,,,,,,,,,,,,,,,,,,,,,,,,,,,,,,,,,,,,,,,,,,,,,,,,,,,,,,,,,,,516.0525535999332,516.4539254999254,516.4375672999304,516.5367946999613,516.9378018999705,None,right,1,0.37215339997783303,516.9378018999705,None,516.4375672999304,516.5367946999613,516.5367946999613,None,517.3377857999876,None,,,,,,,11022,001,2024_Jan_05_1416,ANT,2021.2.3,59.84064434890171,
1,22,spatial,down,C,R,,,,,,Block.xlsx,"你已经完成了整个实验（三个区组）。

请报告实验者已完成实验

非常感谢，再见！",-1.5,0,-1.5,right,RRRRR.png,,,,,0,1,1,1,2,5,53,21,,,,,,,,,,,,,,,,,,,,,,,,,,,,,,,,,,,,,,,,,,,,,,,,,,,,,,,,,,,,,,,,517.7389743999811,518.1390476999804,518.1236685999902,518.2232729999814,518.6229946999811,None,right,1,0.37514949997421354,518.6229946999811,None,518.1236685999902,518.2232729999814,518.2232729999814,None,519.0235404999694,None,,,,,,,11022,001,2024_Jan_05_1416,ANT,2021.2.3,59.84064434890171,
1,21,spatial,down,C,L,,,,,,Block.xlsx,"你已经完成了整个实验（三个区组）。

请报告实验者已完成实验

非常感谢，再见！",-1.5,0,-1.5,left,LLLLL.png,,,,,0,1,1,1,2,6,54,20,,,,,,,,,,,,,,,,,,,,,,,,,,,,,,,,,,,,,,,,,,,,,,,,,,,,,,,,,,,,,,,,519.42422419996,519.8250073998934,519.8098358999705,519.9088100999361,520.3101880999748,None,left,1,0.3998525000642985,520.3101880999748,None,519.8098358999705,519.9088100999361,519.9088100999361,None,520.7260926999152,None,,,,,,,11022,001,2024_Jan_05_1416,ANT,2021.2.3,59.84064434890171,
1,22,spatial,down,C,R,,,,,,Block.xlsx,"你已经完成了整个实验（三个区组）。

请报告实验者已完成实验

非常感谢，再见！",-1.5,0,-1.5,right,RRRRR.png,,,,,0,1,1,1,2,7,55,21,,,,,,,,,,,,,,,,,,,,,,,,,,,,,,,,,,,,,,,,,,,,,,,,,,,,,,,,,,,,,,,,521.1267927999143,521.5281207999215,521.5127584999427,521.6285171998898,522.0118777999887,None,right,1,0.3537709000520408,522.0118777999887,None,521.5127584999427,521.6285171998898,521.6111317999894,None,522.3956421999028,None,,,,,,,11022,001,2024_Jan_05_1416,ANT,2021.2.3,59.84064434890171,
1,13,center,down,C,L,,,,,,Block.xlsx,"你已经完成了整个实验（三个区组）。

请报告实验者已完成实验

非常感谢，再见！",0,50,-1.5,left,LLLLL.png,,,,,0,1,1,1,2,8,56,12,,,,,,,,,,,,,,,,,,,,,,,,,,,,,,,,,,,,,,,,,,,,,,,,,,,,,,,,,,,,,,,,522.7962765999837,523.1971808999078,523.1813275999157,523.2809067999478,523.682182099903,None,left,1,0.45143829996231943,523.682182099903,None,523.1813275999157,523.2809067999478,523.2809067999478,None,524.1647004999686,None,,,,,,,11022,001,2024_Jan_05_1416,ANT,2021.2.3,59.84064434890171,
1,8,no,down,IC,R,,,,,,Block.xlsx,"你已经完成了整个实验（三个区组）。

请报告实验者已完成实验

非常感谢，再见！",50,0,-1.5,right,LLRLL.png,,,,,0,1,1,1,2,9,57,7,,,,,,,,,,,,,,,,,,,,,,,,,,,,,,,,,,,,,,,,,,,,,,,,,,,,,,,,,,,,,,,,524.5651528999442,524.9679843999911,524.949963199906,525.0507494999329,525.4511350999819,None,right,1,0.4674576000543311,525.4511350999819,None,524.949963199906,525.0507494999329,525.0507494999329,None,525.933940299903,None,,,,,,,11022,001,2024_Jan_05_1416,ANT,2021.2.3,59.84064434890171,
1,3,no,up,IC,L,,,,,,Block.xlsx,"你已经完成了整个实验（三个区组）。

请报告实验者已完成实验

非常感谢，再见！",50,0,1.5,left,RRLRR.png,,,,,0,1,1,1,2,10,58,2,,,,,,,,,,,,,,,,,,,,,,,,,,,,,,,,,,,,,,,,,,,,,,,,,,,,,,,,,,,,,,,,526.3356360999169,526.7351744999178,526.7200537999161,526.8200393998995,527.2203082999913,None,left,1,0.5373573999386281,527.2203082999913,None,526.7200537999161,526.8200393998995,526.8200393998995,None,527.7864550999366,None,,,,,,,11022,001,2024_Jan_05_1416,ANT,2021.2.3,59.84064434890171,
1,16,center,down,IC,R,,,,,,Block.xlsx,"你已经完成了整个实验（三个区组）。

请报告实验者已完成实验

非常感谢，再见！",0,50,-1.5,right,LLRLL.png,,,,,0,1,1,1,2,11,59,15,,,,,,,,,,,,,,,,,,,,,,,,,,,,,,,,,,,,,,,,,,,,,,,,,,,,,,,,,,,,,,,,528.1870588999009,528.5878705999348,528.5711536000017,528.6729355999269,529.0732195999008,None,right,1,0.5486967000178993,529.0732195999008,None,528.5711536000017,528.6729355999269,528.6729355999269,None,529.6394205999095,None,,,,,,,11022,001,2024_Jan_05_1416,ANT,2021.2.3,59.84064434890171,
1,9,center,up,C,L,,,,,,Block.xlsx,"你已经完成了整个实验（三个区组）。

请报告实验者已完成实验

非常感谢，再见！",0,50,1.5,left,LLLLL.png,,,,,0,1,1,1,2,12,60,8,,,,,,,,,,,,,,,,,,,,,,,,,,,,,,,,,,,,,,,,,,,,,,,,,,,,,,,,,,,,,,,,530.0399441999616,530.441473999992,530.4246751999017,530.5251758999657,530.925823199912,None,left,1,0.48029739991761744,530.925823199912,None,530.4246751999017,530.5251758999657,530.5251758999657,None,531.4253275999799,None,,,,,,,11022,001,2024_Jan_05_1416,ANT,2021.2.3,59.84064434890171,
1,2,no,up,C,R,,,,,,Block.xlsx,"你已经完成了整个实验（三个区组）。

请报告实验者已完成实验

非常感谢，再见！",50,0,1.5,right,RRRRR.png,,,,,0,1,1,1,2,13,61,1,,,,,,,,,,,,,,,,,,,,,,,,,,,,,,,,,,,,,,,,,,,,,,,,,,,,,,,,,,,,,,,,531.8268470999319,532.2270370000042,532.2114417999983,532.310762399924,532.7118295999244,None,right,1,0.5577205999288708,532.7118295999244,None,532.2114417999983,532.310762399924,532.310762399924,None,533.2947184999939,None,,,,,,,11022,001,2024_Jan_05_1416,ANT,2021.2.3,59.84064434890171,
1,14,center,down,C,R,,,,,,Block.xlsx,"你已经完成了整个实验（三个区组）。

请报告实验者已完成实验

非常感谢，再见！",0,50,-1.5,right,RRRRR.png,,,,,0,1,1,1,2,14,62,13,,,,,,,,,,,,,,,,,,,,,,,,,,,,,,,,,,,,,,,,,,,,,,,,,,,,,,,,,,,,,,,,533.6954154999694,534.0960440998897,534.0794232999906,534.1804349999875,534.5808056999231,None,right,1,0.46545989997684956,534.5808056999231,None,534.0794232999906,534.1804349999875,534.1804349999875,None,535.064207599964,None,,,,,,,11022,001,2024_Jan_05_1416,ANT,2021.2.3,59.84064434890171,
1,19,spatial,up,IC,L,,,,,,Block.xlsx,"你已经完成了整个实验（三个区组）。

请报告实验者已完成实验

非常感谢，再见！",1.5,0,1.5,left,RRLRR.png,,,,,0,1,1,1,2,15,63,18,,,,,,,,,,,,,,,,,,,,,,,,,,,,,,,,,,,,,,,,,,,,,,,,,,,,,,,,,,,,,,,,535.4655294999247,535.8678125999868,535.8492703998927,535.9499775998993,536.3501823999686,None,left,1,0.503384800045751,536.3501823999686,None,535.8492703998927,535.9499775998993,535.9499775998993,None,536.8843327999348,None,,,,,,,11022,001,2024_Jan_05_1416,ANT,2021.2.3,59.84064434890171,
1,21,spatial,down,C,L,,,,,,Block.xlsx,"你已经完成了整个实验（三个区组）。

请报告实验者已完成实验

非常感谢，再见！",-1.5,0,-1.5,left,LLLLL.png,,,,,0,1,1,1,2,16,64,20,,,,,,,,,,,,,,,,,,,,,,,,,,,,,,,,,,,,,,,,,,,,,,,,,,,,,,,,,,,,,,,,537.2840494998964,537.6857092999853,537.667950199917,537.7692794000031,538.1688465999905,None,left,1,0.4133470000233501,538.1688465999905,None,537.667950199917,537.7692794000031,537.7692794000031,None,538.6029272999149,None,,,,,,,11022,001,2024_Jan_05_1416,ANT,2021.2.3,59.84064434890171,
1,24,spatial,down,IC,R,,,,,,Block.xlsx,"你已经完成了整个实验（三个区组）。

请报告实验者已完成实验

非常感谢，再见！",-1.5,0,-1.5,right,LLRLL.png,,,,,0,1,1,1,2,17,65,23,,,,,,,,,,,,,,,,,,,,,,,,,,,,,,,,,,,,,,,,,,,,,,,,,,,,,,,,,,,,,,,,539.0032624999294,539.403846799978,539.3883840999333,539.4890221999958,539.889008399914,None,right,1,0.5406570999184623,539.889008399914,None,539.3883840999333,539.4890221999958,539.4890221999958,None,540.4553815999534,None,,,,,,,11022,001,2024_Jan_05_1416,ANT,2021.2.3,59.84064434890171,
1,23,spatial,down,IC,L,,,,,,Block.xlsx,"你已经完成了整个实验（三个区组）。

请报告实验者已完成实验

非常感谢，再见！",-1.5,0,-1.5,left,RRLRR.png,,,,,0,1,1,1,2,18,66,22,,,,,,,,,,,,,,,,,,,,,,,,,,,,,,,,,,,,,,,,,,,,,,,,,,,,,,,,,,,,,,,,540.8561256999383,541.2572363999207,541.2414831999922,541.3400794999907,541.7405637999764,None,left,1,0.49714409990701824,541.7405637999764,None,541.2414831999922,541.3400794999907,541.3400794999907,None,542.258109999937,None,,,,,,,11022,001,2024_Jan_05_1416,ANT,2021.2.3,59.84064434890171,
1,15,center,down,IC,L,,,,,,Block.xlsx,"你已经完成了整个实验（三个区组）。

请报告实验者已完成实验

非常感谢，再见！",0,50,-1.5,left,RRLRR.png,,,,,0,1,1,1,2,19,67,14,,,,,,,,,,,,,,,,,,,,,,,,,,,,,,,,,,,,,,,,,,,,,,,,,,,,,,,,,,,,,,,,542.6585579999955,543.0593318999745,543.0433266999898,543.1445643999614,543.5439986999845,None,left,1,0.582300000009127,543.5439986999845,None,543.0433266999898,543.1445643999614,543.1445643999614,None,544.1440706999274,None,,,,,,,11022,001,2024_Jan_05_1416,ANT,2021.2.3,59.84064434890171,
1,12,center,up,IC,R,,,,,,Block.xlsx,"你已经完成了整个实验（三个区组）。

请报告实验者已完成实验

非常感谢，再见！",0,50,1.5,right,LLRLL.png,,,,,0,1,1,1,2,20,68,11,,,,,,,,,,,,,,,,,,,,,,,,,,,,,,,,,,,,,,,,,,,,,,,,,,,,,,,,,,,,,,,,544.5447495999979,544.9468414000003,544.9288278999738,545.0301891999552,545.4295258999337,None,right,1,0.5682265000650659,545.4295258999337,None,544.9288278999738,545.0301891999552,545.0301891999552,None,546.0135879999725,None,,,,,,,11022,001,2024_Jan_05_1416,ANT,2021.2.3,59.84064434890171,
1,24,spatial,down,IC,R,,,,,,Block.xlsx,"你已经完成了整个实验（三个区组）。

请报告实验者已完成实验

非常感谢，再见！",-1.5,0,-1.5,right,LLRLL.png,,,,,0,1,1,1,2,21,69,23,,,,,,,,,,,,,,,,,,,,,,,,,,,,,,,,,,,,,,,,,,,,,,,,,,,,,,,,,,,,,,,,546.4142933998955,546.815375499893,546.7996350999456,546.8993990999879,547.3005902000004,None,right,1,0.4330614999635145,547.3005902000004,None,546.7996350999456,546.8993990999879,546.8993990999879,None,547.7496341998922,None,,,,,,,11022,001,2024_Jan_05_1416,ANT,2021.2.3,59.84064434890171,
1,21,spatial,down,C,L,,,,,,Block.xlsx,"你已经完成了整个实验（三个区组）。

请报告实验者已完成实验

非常感谢，再见！",-1.5,0,-1.5,left,LLLLL.png,,,,,0,1,1,1,2,22,70,20,,,,,,,,,,,,,,,,,,,,,,,,,,,,,,,,,,,,,,,,,,,,,,,,,,,,,,,,,,,,,,,,548.1503321999917,548.5508610999677,548.5346950999228,548.6342813998926,549.035513699986,None,left,1,0.3702119999798015,549.035513699986,None,548.5346950999228,548.6342813998926,548.6342813998926,None,549.4354115999304,None,,,,,,,11022,001,2024_Jan_05_1416,ANT,2021.2.3,59.84064434890171,
1,20,spatial,up,IC,R,,,,,,Block.xlsx,"你已经完成了整个实验（三个区组）。

请报告实验者已完成实验

非常感谢，再见！",1.5,0,1.5,right,LLRLL.png,,,,,0,1,1,1,2,23,71,19,,,,,,,,,,,,,,,,,,,,,,,,,,,,,,,,,,,,,,,,,,,,,,,,,,,,,,,,,,,,,,,,549.835951999994,550.2368152999552,550.2205418999074,550.3199714999646,550.7205986999907,None,right,1,0.41351480002049357,550.7205986999907,None,550.2205418999074,550.3199714999646,550.3199714999646,None,551.1545685000019,None,,,,,,,11022,001,2024_Jan_05_1416,ANT,2021.2.3,59.84064434890171,
1,7,no,down,IC,L,,,,,,Block.xlsx,"你已经完成了整个实验（三个区组）。

请报告实验者已完成实验

非常感谢，再见！",50,0,-1.5,left,RRLRR.png,,,,,0,1,1,1,3,0,72,6,,,,,,,,,,,,,,,,,,,,,,,,,,,,,,,,,,,,,,,,,,,,,,,,,,,,,,,,,,,,,,,,551.5552903999342,551.956911599962,551.9401157998946,552.0397253999254,552.4405075999675,None,left,1,0.47778710001148283,552.4405075999675,None,551.9401157998946,552.0397253999254,552.0397253999254,None,552.9404417999322,None,,,,,,,11022,001,2024_Jan_05_1416,ANT,2021.2.3,59.84064434890171,
1,15,center,down,IC,L,,,,,,Block.xlsx,"你已经完成了整个实验（三个区组）。

请报告实验者已完成实验

非常感谢，再见！",0,50,-1.5,left,RRLRR.png,,,,,0,1,1,1,3,1,73,14,,,,,,,,,,,,,,,,,,,,,,,,,,,,,,,,,,,,,,,,,,,,,,,,,,,,,,,,,,,,,,,,553.3411852999125,553.7435662999051,553.7257563999156,553.826748499996,554.2267702999525,None,left,1,0.46698240004479885,554.2267702999525,None,553.7257563999156,553.826748499996,553.826748499996,None,554.7099522999488,None,,,,,,,11022,001,2024_Jan_05_1416,ANT,2021.2.3,59.84064434890171,
1,1,no,up,C,L,,,,,,Block.xlsx,"你已经完成了整个实验（三个区组）。

请报告实验者已完成实验

非常感谢，再见！",50,0,1.5,left,LLLLL.png,,,,,0,1,1,1,3,2,74,0,,,,,,,,,,,,,,,,,,,,,,,,,,,,,,,,,,,,,,,,,,,,,,,,,,,,,,,,,,,,,,,,555.1128704999574,555.5283971999306,555.4942465999629,555.5963618999813,555.9969243999803,None,left,1,0.46523440000601113,555.9969243999803,None,555.4942465999629,555.5963618999813,555.5963618999813,None,556.4791572999675,None,,,,,,,11022,001,2024_Jan_05_1416,ANT,2021.2.3,59.84064434890171,
1,10,center,up,C,R,,,,,,Block.xlsx,"你已经完成了整个实验（三个区组）。

请报告实验者已完成实验

非常感谢，再见！",0,50,1.5,right,RRRRR.png,,,,,0,1,1,1,3,3,75,9,,,,,,,,,,,,,,,,,,,,,,,,,,,,,,,,,,,,,,,,,,,,,,,,,,,,,,,,,,,,,,,,556.8798959999112,557.2815503999591,557.2648977999343,557.3637650999008,557.7648544999538,None,right,1,0.38505490007810295,557.7648544999538,None,557.2648977999343,557.3637650999008,557.3637650999008,None,558.1654892999213,None,,,,,,,11022,001,2024_Jan_05_1416,ANT,2021.2.3,59.84064434890171,
1,3,no,up,IC,L,,,,,,Block.xlsx,"你已经完成了整个实验（三个区组）。

请报告实验者已完成实验

非常感谢，再见！",50,0,1.5,left,RRLRR.png,,,,,0,1,1,1,3,4,76,2,,,,,,,,,,,,,,,,,,,,,,,,,,,,,,,,,,,,,,,,,,,,,,,,,,,,,,,,,,,,,,,,558.5656463999767,558.9663937999867,558.9498427999206,559.050419999985,559.4521096999524,None,left,1,0.5854056000243872,559.4521096999524,None,558.9498427999206,559.050419999985,559.050419999985,None,560.0678606999572,None,,,,,,,11022,001,2024_Jan_05_1416,ANT,2021.2.3,59.84064434890171,
1,7,no,down,IC,L,,,,,,Block.xlsx,"你已经完成了整个实验（三个区组）。

请报告实验者已完成实验

非常感谢，再见！",50,0,-1.5,left,RRLRR.png,,,,,0,1,1,1,3,5,77,6,,,,,,,,,,,,,,,,,,,,,,,,,,,,,,,,,,,,,,,,,,,,,,,,,,,,,,,,,,,,,,,,560.4694696998922,560.8690611999482,560.8525806999533,560.9532300999854,561.354224099894,None,left,1,0.40335549996234477,561.354224099894,None,560.8525806999533,560.9532300999854,560.9532300999854,None,561.7870531999506,None,,,,,,,11022,001,2024_Jan_05_1416,ANT,2021.2.3,59.84064434890171,
1,21,spatial,down,C,L,,,,,,Block.xlsx,"你已经完成了整个实验（三个区组）。

请报告实验者已完成实验

非常感谢，再见！",-1.5,0,-1.5,left,LLLLL.png,,,,,0,1,1,1,3,6,78,20,,,,,,,,,,,,,,,,,,,,,,,,,,,,,,,,,,,,,,,,,,,,,,,,,,,,,,,,,,,,,,,,562.1887744999258,562.5882888999768,562.5738625999074,562.6891193999909,563.0731809999561,None,left,1,0.33266319998074323,563.0731809999561,None,562.5738625999074,562.6891193999909,562.6728952999692,None,563.4227979999268,None,,,,,,,11022,001,2024_Jan_05_1416,ANT,2021.2.3,59.84064434890171,
1,3,no,up,IC,L,,,,,,Block.xlsx,"你已经完成了整个实验（三个区组）。

请报告实验者已完成实验

非常感谢，再见！",50,0,1.5,left,RRLRR.png,,,,,0,1,1,1,3,7,79,2,,,,,,,,,,,,,,,,,,,,,,,,,,,,,,,,,,,,,,,,,,,,,,,,,,,,,,,,,,,,,,,,563.8233474999433,564.2247135998914,564.2072238998953,564.3081773999147,564.7094015999464,None,left,1,0.48835500003769994,564.7094015999464,None,564.2072238998953,564.3081773999147,564.3081773999147,None,565.2253010999411,None,,,,,,,11022,001,2024_Jan_05_1416,ANT,2021.2.3,59.84064434890171,
1,18,spatial,up,C,R,,,,,,Block.xlsx,"你已经完成了整个实验（三个区组）。

请报告实验者已完成实验

非常感谢，再见！",1.5,0,1.5,right,RRRRR.png,,,,,0,1,1,1,3,8,80,17,,,,,,,,,,,,,,,,,,,,,,,,,,,,,,,,,,,,,,,,,,,,,,,,,,,,,,,,,,,,,,,,565.6260611999314,566.0270322998986,566.0102823999478,566.1099910999183,566.5110808999743,None,right,1,0.28649010008666664,566.5110808999743,None,566.0102823999478,566.1099910999183,566.1099910999183,None,566.8282037999015,None,,,,,,,11022,001,2024_Jan_05_1416,ANT,2021.2.3,59.84064434890171,
1,11,center,up,IC,L,,,,,,Block.xlsx,"你已经完成了整个实验（三个区组）。

请报告实验者已完成实验

非常感谢，再见！",0,50,1.5,left,RRLRR.png,,,,,0,1,1,1,3,9,81,10,,,,,,,,,,,,,,,,,,,,,,,,,,,,,,,,,,,,,,,,,,,,,,,,,,,,,,,,,,,,,,,,567.2282739999937,567.6304685999639,567.6124334000051,567.7124999999069,568.1130812999327,None,left,1,0.3171415999531746,568.1130812999327,None,567.6124334000051,567.7124999999069,567.7124999999069,None,568.4469199999003,None,,,,,,,11022,001,2024_Jan_05_1416,ANT,2021.2.3,59.84064434890171,
1,2,no,up,C,R,,,,,,Block.xlsx,"你已经完成了整个实验（三个区组）。

请报告实验者已完成实验

非常感谢，再见！",50,0,1.5,right,RRRRR.png,,,,,0,1,1,1,3,10,82,1,,,,,,,,,,,,,,,,,,,,,,,,,,,,,,,,,,,,,,,,,,,,,,,,,,,,,,,,,,,,,,,,568.847514999914,569.2494186999975,569.2322856999235,569.3497296998976,569.7330797999166,None,right,1,0.38460470002610236,569.7330797999166,None,569.2322856999235,569.3497296998976,569.3323297000024,None,570.1327569999266,None,,,,,,,11022,001,2024_Jan_05_1416,ANT,2021.2.3,59.84064434890171,
1,16,center,down,IC,R,,,,,,Block.xlsx,"你已经完成了整个实验（三个区组）。

请报告实验者已完成实验

非常感谢，再见！",0,50,-1.5,right,LLRLL.png,,,,,0,1,1,1,3,11,83,15,,,,,,,,,,,,,,,,,,,,,,,,,,,,,,,,,,,,,,,,,,,,,,,,,,,,,,,,,,,,,,,,570.533309499966,570.9351612000028,570.9183129000012,571.0192236999283,571.4180388998939,None,right,1,0.5398282000096515,571.4180388998939,None,570.9183129000012,571.0192236999283,571.0192236999283,None,571.9852692999411,None,,,,,,,11022,001,2024_Jan_05_1416,ANT,2021.2.3,59.84064434890171,
1,9,center,up,C,L,,,,,,Block.xlsx,"你已经完成了整个实验（三个区组）。

请报告实验者已完成实验

非常感谢，再见！",0,50,1.5,left,LLLLL.png,,,,,0,1,1,1,3,12,84,8,,,,,,,,,,,,,,,,,,,,,,,,,,,,,,,,,,,,,,,,,,,,,,,,,,,,,,,,,,,,,,,,572.3860428999178,572.7865967999678,572.7704950999469,572.8702880999772,573.2709703999572,None,left,1,0.44699189998209476,573.2709703999572,None,572.7704950999469,572.8702880999772,572.8702880999772,None,573.7381323999725,None,,,,,,,11022,001,2024_Jan_05_1416,ANT,2021.2.3,59.84064434890171,
1,18,spatial,up,C,R,,,,,,Block.xlsx,"你已经完成了整个实验（三个区组）。

请报告实验者已完成实验

非常感谢，再见！",1.5,0,1.5,right,RRRRR.png,,,,,0,1,1,1,3,13,85,17,,,,,,,,,,,,,,,,,,,,,,,,,,,,,,,,,,,,,,,,,,,,,,,,,,,,,,,,,,,,,,,,574.1389742000028,574.5406772999559,574.5233910999959,574.6232383999741,575.0243272999069,None,right,1,0.3497370999539271,575.0243272999069,None,574.5233910999959,574.6232383999741,574.6232383999741,None,575.3904657999519,None,,,,,,,11022,001,2024_Jan_05_1416,ANT,2021.2.3,59.84064434890171,
1,8,no,down,IC,R,,,,,,Block.xlsx,"你已经完成了整个实验（三个区组）。

请报告实验者已完成实验

非常感谢，再见！",50,0,-1.5,right,LLRLL.png,,,,,0,1,1,1,3,14,86,7,,,,,,,,,,,,,,,,,,,,,,,,,,,,,,,,,,,,,,,,,,,,,,,,,,,,,,,,,,,,,,,,575.7911481999326,576.1914886999875,576.1762502999045,576.275997199933,576.6776288999245,None,right,1,0.5760197999188676,576.6776288999245,None,576.1762502999045,576.275997199933,576.275997199933,None,577.2777095999336,None,,,,,,,11022,001,2024_Jan_05_1416,ANT,2021.2.3,59.84064434890171,
1,7,no,down,IC,L,,,,,,Block.xlsx,"你已经完成了整个实验（三个区组）。

请报告实验者已完成实验

非常感谢，再见！",50,0,-1.5,left,RRLRR.png,,,,,0,1,1,1,3,15,87,6,,,,,,,,,,,,,,,,,,,,,,,,,,,,,,,,,,,,,,,,,,,,,,,,,,,,,,,,,,,,,,,,577.679538999917,578.0947140998906,578.0612876999658,578.1617392000044,578.5630956999958,None,left,1,0.5388275999575853,578.5630956999958,None,578.0612876999658,578.1617392000044,578.1617392000044,None,579.1293099999893,None,,,,,,,11022,001,2024_Jan_05_1416,ANT,2021.2.3,59.84064434890171,
1,9,center,up,C,L,,,,,,Block.xlsx,"你已经完成了整个实验（三个区组）。

请报告实验者已完成实验

非常感谢，再见！",0,50,1.5,left,LLLLL.png,,,,,0,1,1,1,3,16,88,8,,,,,,,,,,,,,,,,,,,,,,,,,,,,,,,,,,,,,,,,,,,,,,,,,,,,,,,,,,,,,,,,579.5300181999337,579.9321375999134,579.9158182999818,580.0317052999744,580.4157162999036,None,left,1,0.34196459990926087,580.4157162999036,None,579.9158182999818,580.0317052999744,580.0149337999756,None,580.7817117999075,None,,,,,,,11022,001,2024_Jan_05_1416,ANT,2021.2.3,59.84064434890171,
1,10,center,up,C,R,,,,,,Block.xlsx,"你已经完成了整个实验（三个区组）。

请报告实验者已完成实验

非常感谢，再见！",0,50,1.5,right,RRRRR.png,,,,,0,1,1,1,3,17,89,9,,,,,,,,,,,,,,,,,,,,,,,,,,,,,,,,,,,,,,,,,,,,,,,,,,,,,,,,,,,,,,,,581.1824006999377,581.584245899925,581.566390199936,581.6667951999698,582.0670629999368,None,right,1,0.44258280005306005,582.0670629999368,None,581.566390199936,581.6667951999698,581.6667951999698,None,582.5346696999623,None,,,,,,,11022,001,2024_Jan_05_1416,ANT,2021.2.3,59.84064434890171,
1,2,no,up,C,R,,,,,,Block.xlsx,"你已经完成了整个实验（三个区组）。

请报告实验者已完成实验

非常感谢，再见！",50,0,1.5,right,RRRRR.png,,,,,0,1,1,1,3,18,90,1,,,,,,,,,,,,,,,,,,,,,,,,,,,,,,,,,,,,,,,,,,,,,,,,,,,,,,,,,,,,,,,,582.9351617998909,583.3368462999351,583.319276599912,583.4195937999757,583.8199118999764,None,right,1,0.3937080000760034,583.8199118999764,None,583.319276599912,583.4195937999757,583.4195937999757,None,584.2370026999852,None,,,,,,,11022,001,2024_Jan_05_1416,ANT,2021.2.3,59.84064434890171,
1,17,spatial,up,C,L,,,,,,Block.xlsx,"你已经完成了整个实验（三个区组）。

请报告实验者已完成实验

非常感谢，再见！",1.5,0,1.5,left,LLLLL.png,,,,,0,1,1,1,3,19,91,16,,,,,,,,,,,,,,,,,,,,,,,,,,,,,,,,,,,,,,,,,,,,,,,,,,,,,,,,,,,,,,,,584.6373798999703,585.039420099929,585.0235307998955,585.1388676998904,585.5228943999391,None,left,1,0.36347480001859367,585.5228943999391,None,585.0235307998955,585.1388676998904,585.1217479999177,None,585.9061193999369,None,,,,,,,11022,001,2024_Jan_05_1416,ANT,2021.2.3,59.84064434890171,
1,14,center,down,C,R,,,,,,Block.xlsx,"你已经完成了整个实验（三个区组）。

请报告实验者已完成实验

