TrialType,TrialNumber,WarningType,TargetType,FlankerType,TargetDirection,W,f,Y,corr,imageFile,condition,endtext,Yw,Yf,Yt,Corr,imagefile,trials_3.thisRepN,trials_3.thisTrialN,trials_3.thisN,trials_3.thisIndex,trials_2.thisRepN,trials_2.thisTrialN,trials_2.thisN,trials_2.thisIndex,trials.thisRepN,trials.thisTrialN,trials.thisN,trials.thisIndex,instr.started,instr.stopped,key_resp.keys,key_resp.rt,key_resp.started,key_resp.stopped,image.started,image.stopped,key_resp_6.keys,key_resp_6.rt,key_resp_6.started,key_resp_6.stopped,EX_L.started,EX_L.stopped,AL.started,AL.stopped,key_resp_7.keys,key_resp_7.rt,key_resp_7.started,key_resp_7.stopped,EX_R.started,EX_R.stopped,RR.started,RR.stopped,key_resp_8.keys,key_resp_8.rt,key_resp_8.started,key_resp_8.stopped,image_2.started,image_2.stopped,key_resp_9.keys,key_resp_9.rt,key_resp_9.started,key_resp_9.stopped,image_3.started,image_3.stopped,key_resp_10.keys,key_resp_10.rt,key_resp_10.started,key_resp_10.stopped,fix.started,fix.stopped,war.started,war.stopped,tar.started,tar.stopped,key_resp_4.keys,key_resp_4.corr,key_resp_4.rt,key_resp_4.started,key_resp_4.stopped,fix2.started,fix2.stopped,fix_2.started,fix_2.stopped,Feedback.started,Feedback.stopped,key_resp_2.keys,key_resp_2.rt,key_resp_2.started,key_resp_2.stopped,text_5.started,text_5.stopped,fix2_1.started,fix2_1.stopped,Warn.started,Warn.stopped,Tar.started,Tar.stopped,key_resp_5.keys,key_resp_5.corr,key_resp_5.rt,key_resp_5.started,key_resp_5.stopped,Fix_2.started,Fix_2.stopped,fix2_2.started,fix2_2.stopped,text_4.started,text_4.stopped,key_resp_3.keys,key_resp_3.rt,key_resp_3.started,key_resp_3.stopped,text_3.started,text_3.stopped,participant,session,date,expName,psychopyVersion,frameRate,
,,,,,,,,,,,,,,,,,,,,,,,,,,,,,,8.590149499941617,None,space,3.5379683000501245,8.590149499941617,None,,,,,,,,,,,,,,,,,,,,,,,,,,,,,,,,,,,,,,,,,,,,,,,,,,,,,,,,,,,,,,,,,,,,,,,,,,,,,,,,,11028,001,2024_Jan_10_1421,ANT,2021.2.3,60.349447431544704,
,,,,,,,,,,,,,,,,,,,,,,,,,,,,,,,,,,,,12.145992300007492,None,space,11.92545980005525,12.145992300007492,None,,,,,,,,,,,,,,,,,,,,,,,,,,,,,,,,,,,,,,,,,,,,,,,,,,,,,,,,,,,,,,,,,,,,,,,,,,,11028,001,2024_Jan_10_1421,ANT,2021.2.3,60.349447431544704,
,,,,,,,,,,,,,,,,,,,,,,,,,,,,,,,,,,,,,,,,,,24.096712399972603,None,24.096712399972603,None,left,17.095135200070217,24.096712399972603,None,,,,,,,,,,,,,,,,,,,,,,,,,,,,,,,,,,,,,,,,,,,,,,,,,,,,,,,,,,,,,,,,,,,11028,001,2024_Jan_10_1421,ANT,2021.2.3,60.349447431544704,
,,,,,,,,,,,,,,,,,,,,,,,,,,,,,,,,,,,,,,,,,,,,,,,,,,41.22208790015429,None,41.22208790015429,None,right,1.4735170998610556,41.22208790015429,None,,,,,,,,,,,,,,,,,,,,,,,,,,,,,,,,,,,,,,,,,,,,,,,,,,,,,,,,,,,11028,001,2024_Jan_10_1421,ANT,2021.2.3,60.349447431544704,
,,,,,,,,,,,,,,,,,,,,,,,,,,,,,,,,,,,,,,,,,,,,,,,,,,,,,,,,,,42.724133000010625,None,space,22.043357899878174,42.724133000010625,None,,,,,,,,,,,,,,,,,,,,,,,,,,,,,,,,,,,,,,,,,,,,,,,,,,,,,11028,001,2024_Jan_10_1421,ANT,2021.2.3,60.349447431544704,
,,,,,,,,,,,,,,,,,,,,,,,,,,,,,,,,,,,,,,,,,,,,,,,,,,,,,,,,,,,,,,,,64.79008599999361,None,space,20.137458400102332,64.79008599999361,None,,,,,,,,,,,,,,,,,,,,,,,,,,,,,,,,,,,,,,,,,,,,,,,11028,001,2024_Jan_10_1421,ANT,2021.2.3,60.349447431544704,
0,2,no,up,IC,R,50,0,1.5,right,LLRLL.png,,,,,,,,0,0,0,1,,,,,,,,,,,,,,,,,,,,,,,,,,,,,,,,,,,,,,,,,,,,,,,,,85.03694180003367,85.43731150007807,85.42194920009933,85.52075150003657,85.92281610006467,None,right,1,0.9087692000903189,85.92281610006467,None,85.42194920009933,85.52075150003657,85.52075150003657,None,86.87299730000086,None,,,,,,,,,,,,,,,,,,,,,,,,,,,,,,11028,001,2024_Jan_10_1421,ANT,2021.2.3,60.349447431544704,
0,8,center,down,IC,L,0,50,-1.5,left,RRLRR.png,,,,,,,,0,1,1,7,,,,,,,,,,,,,,,,,,,,,,,,,,,,,,,,,,,,,,,,,,,,,,,,,88.87575659994036,89.27639520005323,89.26010840013623,89.36039189994335,89.76041330001317,None,left,1,0.8230945998802781,89.76041330001317,None,89.26010840013623,89.36039189994335,89.36039189994335,None,90.6114120001439,None,,,,,,,,,,,,,,,,,,,,,,,,,,,,,,11028,001,2024_Jan_10_1421,ANT,2021.2.3,60.349447431544704,
0,1,no,up,C,L,50,0,1.5,left,LLLLL.png,,,,,,,,0,2,2,0,,,,,,,,,,,,,,,,,,,,,,,,,,,,,,,,,,,,,,,,,,,,,,,,,92.61454179999419,93.01714000012726,92.99925550003536,93.09952419996262,93.50048910011537,None,left,1,0.5068734001833946,93.50048910011537,None,92.99925550003536,93.09952419996262,93.09952419996262,None,94.03326399996877,None,,,,,,,,,,,,,,,,,,,,,,,,,,,,,,11028,001,2024_Jan_10_1421,ANT,2021.2.3,60.349447431544704,
0,5,center,up,C,L,0,50,1.5,left,LLLLL.png,,,,,,,,0,3,3,4,,,,,,,,,,,,,,,,,,,,,,,,,,,,,,,,,,,,,,,,,,,,,,,,,96.03654390014708,96.43799210013822,96.42056800005957,96.52127270004712,96.92345500015654,None,left,1,0.45238279993645847,96.92345500015654,None,96.42056800005957,96.52127270004712,96.52127270004712,None,97.40508399996907,None,,,,,,,,,,,,,,,,,,,,,,,,,,,,,,11028,001,2024_Jan_10_1421,ANT,2021.2.3,60.349447431544704,
0,12,spatial,down,IC,R,-1.5,0,-1.5,right,LLRLL.png,,,,,,,,0,4,4,11,,,,,,,,,,,,,,,,,,,,,,,,,,,,,,,,,,,,,,,,,,,,,,,,,99.40833700005896,99.80914030014537,99.7918317001313,99.89271889999509,100.29252390004694,None,right,1,0.5236452999524772,100.29252390004694,None,99.7918317001313,99.89271889999509,99.89271889999509,None,100.84344920003787,None,,,,,,,,,,,,,,,,,,,,,,,,,,,,,,11028,001,2024_Jan_10_1421,ANT,2021.2.3,60.349447431544704,
0,9,spatial,up,C,R,1.5,0,1.5,right,RRRRR.png,,,,,,,,0,5,5,8,,,,,,,,,,,,,,,,,,,,,,,,,,,,,,,,,,,,,,,,,,,,,,,,,102.84664460015483,103.24845870002173,103.23120309994556,103.3308898000978,103.73337940010242,None,right,1,0.4263438999187201,103.73337940010242,None,103.23120309994556,103.3308898000978,103.3308898000978,None,104.18178360001184,None,,,,,,,,,,,,,,,,,,,,,,,,,,,,,,11028,001,2024_Jan_10_1421,ANT,2021.2.3,60.349447431544704,
0,3,no,down,C,R,50,0,-1.5,right,RRRRR.png,,,,,,,,0,6,6,2,,,,,,,,,,,,,,,,,,,,,,,,,,,,,,,,,,,,,,,,,,,,,,,,,106.18558020005003,106.58656530012377,106.57029900001362,106.67003710009158,107.06966269994155,None,right,1,0.530940200202167,107.06966269994155,None,106.57029900001362,106.67003710009158,106.67003710009158,None,107.61991300014779,None,,,,,,,,,,,,,,,,,,,,,,,,,,,,,,11028,001,2024_Jan_10_1421,ANT,2021.2.3,60.349447431544704,
0,10,spatial,up,IC,L,1.5,0,1.5,left,RRLRR.png,,,,,,,,0,7,7,9,,,,,,,,,,,,,,,,,,,,,,,,,,,,,,,,,,,,,,,,,,,,,,,,,109.62310870015062,110.02447100006975,110.00815670005977,110.10866130003706,110.50959919998422,None,left,1,0.4739516999106854,110.50959919998422,None,110.00815670005977,110.10866130003706,110.10866130003706,None,111.00852819997817,None,,,,,,,,,,,,,,,,,,,,,,,,,,,,,,11028,001,2024_Jan_10_1421,ANT,2021.2.3,60.349447431544704,
0,7,center,down,C,R,0,50,-1.5,right,RRRRR.png,,,,,,,,0,8,8,6,,,,,,,,,,,,,,,,,,,,,,,,,,,,,,,,,,,,,,,,,,,,,,,,,113.01148260012269,113.4130919999443,113.39570010011084,113.49610310001299,113.8966902999673,None,right,1,0.3352742998395115,113.8966902999673,None,113.39570010011084,113.49610310001299,113.49610310001299,None,114.24658860010095,None,,,,,,,,,,,,,,,,,,,,,,,,,,,,,,11028,001,2024_Jan_10_1421,ANT,2021.2.3,60.349447431544704,
0,11,spatial,down,C,L,-1.5,0,-1.5,left,LLLLL.png,,,,,,,,0,9,9,10,,,,,,,,,,,,,,,,,,,,,,,,,,,,,,,,,,,,,,,,,,,,,,,,,116.25051130005158,116.65195540012792,116.63486510002986,116.73406639997847,117.13429750013165,None,right,0,0.2656323001720011,117.13429750013165,None,116.63486510002986,116.73406639997847,116.73406639997847,None,117.41792150004767,None,,,,,,,,,,,,,,,,,,,,,,,,,,,,,,11028,001,2024_Jan_10_1421,ANT,2021.2.3,60.349447431544704,
0,4,no,down,IC,L,50,0,-1.5,left,RRLRR.png,,,,,,,,0,10,10,3,,,,,,,,,,,,,,,,,,,,,,,,,,,,,,,,,,,,,,,,,,,,,,,,,119.42098530009389,119.82168380008079,119.80535549996421,119.90635169995949,120.30686550005339,None,left,1,0.4769427999854088,120.30686550005339,None,119.80535549996421,119.90635169995949,119.90635169995949,None,120.8064276999794,None,,,,,,,,,,,,,,,,,,,,,,,,,,,,,,11028,001,2024_Jan_10_1421,ANT,2021.2.3,60.349447431544704,
0,6,center,up,IC,R,0,50,1.5,right,LLRLL.png,,,,,,,,0,11,11,5,,,,,,,,,,,,,,,,,,,,,,,,,,,,,,,,,,,,,,,,,,,,,,,,,122.8094719001092,123.21008089999668,123.19462350010872,123.29405220015906,123.6947763999924,None,left,0,0.36870400002226233,123.6947763999924,None,123.19462350010872,123.29405220015906,123.29405220015906,None,124.09465330000967,None,,,,,,,,,,,,,,,,,,,,,,,,,,,,,,11028,001,2024_Jan_10_1421,ANT,2021.2.3,60.349447431544704,
,,,,,,,,,,,,,,,,,,,,,,,,,,,,,,,,,,,,,,,,,,,,,,,,,,,,,,,,,,,,,,,,,,,,,,,,,,,,,,,,,,,,,,,space,25.269472799962386,126.09829910006374,None,,,,,,,,,,,,,,,,,,,,,,,,,,11028,001,2024_Jan_10_1421,ANT,2021.2.3,60.349447431544704,
1,1,no,up,C,L,,,,,,Block.xlsx,"你已经完成了第一个实验区组

请稍作休息


点击空格键进入下一个区组。",50,0,1.5,left,LLLLL.png,,,,,0,0,0,0,0,0,0,0,,,,,,,,,,,,,,,,,,,,,,,,,,,,,,,,,,,,,,,,,,,,,,,,,,,,,,,,,,,,,,126.09829910006374,None,151.41940300003625,151.81894130003639,151.80352180008776,151.90368290012702,152.3042945000343,None,left,1,0.47123820008710027,152.3042945000343,None,151.80352180008776,151.90368290012702,151.90368290012702,None,152.8037491000723,None,,,,,,,11028,001,2024_Jan_10_1421,ANT,2021.2.3,60.349447431544704,
1,16,center,down,IC,R,,,,,,Block.xlsx,"你已经完成了第一个实验区组

请稍作休息


点击空格键进入下一个区组。",0,50,-1.5,right,LLRLL.png,,,,,0,0,0,0,0,1,1,15,,,,,,,,,,,,,,,,,,,,,,,,,,,,,,,,,,,,,,,,,,,,,,,,,,,,,,,,,,,,,,,,153.20439440011978,153.60588750010356,153.58838080009446,153.68951539997943,154.09055910003372,None,right,1,0.5009943000040948,154.09055910003372,None,153.58838080009446,153.68951539997943,153.68951539997943,None,154.6064460000489,None,,,,,,,11028,001,2024_Jan_10_1421,ANT,2021.2.3,60.349447431544704,
1,2,no,up,C,R,,,,,,Block.xlsx,"你已经完成了第一个实验区组

请稍作休息


点击空格键进入下一个区组。",50,0,1.5,right,RRRRR.png,,,,,0,0,0,0,0,2,2,1,,,,,,,,,,,,,,,,,,,,,,,,,,,,,,,,,,,,,,,,,,,,,,,,,,,,,,,,,,,,,,,,155.00702399993315,155.40832390007563,155.39222080004402,155.49263160000555,155.89272670005448,None,right,1,0.5163769999053329,155.89272670005448,None,155.39222080004402,155.49263160000555,155.49263160000555,None,156.42567629995756,None,,,,,,,11028,001,2024_Jan_10_1421,ANT,2021.2.3,60.349447431544704,
1,11,center,up,IC,L,,,,,,Block.xlsx,"你已经完成了第一个实验区组

请稍作休息


点击空格键进入下一个区组。",0,50,1.5,left,RRLRR.png,,,,,0,0,0,0,0,3,3,10,,,,,,,,,,,,,,,,,,,,,,,,,,,,,,,,,,,,,,,,,,,,,,,,,,,,,,,,,,,,,,,,156.8265798999928,157.22708310000598,157.21165099996142,157.31279220012948,157.7125101001002,None,left,1,0.5911079000215977,157.7125101001002,None,157.21165099996142,157.31279220012948,157.31279220012948,None,158.32871720008552,None,,,,,,,11028,001,2024_Jan_10_1421,ANT,2021.2.3,60.349447431544704,
1,3,no,up,IC,L,,,,,,Block.xlsx,"你已经完成了第一个实验区组

请稍作休息


点击空格键进入下一个区组。",50,0,1.5,left,RRLRR.png,,,,,0,0,0,0,0,4,4,2,,,,,,,,,,,,,,,,,,,,,,,,,,,,,,,,,,,,,,,,,,,,,,,,,,,,,,,,,,,,,,,,158.72971420013346,159.13074639998376,159.11531369993463,159.2305143000558,159.61422930005938,None,left,1,0.5055594998411834,159.61422930005938,None,159.11531369993463,159.2305143000558,159.21334220003337,None,160.14816760015674,None,,,,,,,11028,001,2024_Jan_10_1421,ANT,2021.2.3,60.349447431544704,
1,7,no,down,IC,L,,,,,,Block.xlsx,"你已经完成了第一个实验区组

请稍作休息


点击空格键进入下一个区组。",50,0,-1.5,left,RRLRR.png,,,,,0,0,0,0,0,5,5,6,,,,,,,,,,,,,,,,,,,,,,,,,,,,,,,,,,,,,,,,,,,,,,,,,,,,,,,,,,,,,,,,160.5491800000891,160.94974429998547,160.9343489999883,161.04989310004748,161.43472829996608,None,left,1,0.5248471999075264,161.43472829996608,None,160.9343489999883,161.04989310004748,161.03265850013122,None,161.9841000000015,None,,,,,,,11028,001,2024_Jan_10_1421,ANT,2021.2.3,60.349447431544704,
1,9,center,up,C,L,,,,,,Block.xlsx,"你已经完成了第一个实验区组

请稍作休息


点击空格键进入下一个区组。",0,50,1.5,left,LLLLL.png,,,,,0,0,0,0,0,6,6,8,,,,,,,,,,,,,,,,,,,,,,,,,,,,,,,,,,,,,,,,,,,,,,,,,,,,,,,,,,,,,,,,162.3846171000041,162.78609770000912,162.768743700115,162.8690429001581,163.26927080005407,None,left,1,0.41892289998941123,163.26927080005407,None,162.768743700115,162.8690429001581,162.8690429001581,None,163.7032876999583,None,,,,,,,11028,001,2024_Jan_10_1421,ANT,2021.2.3,60.349447431544704,
1,3,no,up,IC,L,,,,,,Block.xlsx,"你已经完成了第一个实验区组

请稍作休息


点击空格键进入下一个区组。",50,0,1.5,left,RRLRR.png,,,,,0,0,0,0,0,7,7,2,,,,,,,,,,,,,,,,,,,,,,,,,,,,,,,,,,,,,,,,,,,,,,,,,,,,,,,,,,,,,,,,164.10406460007653,164.50473610009067,164.48872440005653,164.58882370009087,164.98863920010626,None,left,1,0.48367669992148876,164.98863920010626,None,164.48872440005653,164.58882370009087,164.58882370009087,None,165.4892562001478,None,,,,,,,11028,001,2024_Jan_10_1421,ANT,2021.2.3,60.349447431544704,
1,2,no,up,C,R,,,,,,Block.xlsx,"你已经完成了第一个实验区组

请稍作休息


点击空格键进入下一个区组。",50,0,1.5,right,RRRRR.png,,,,,0,0,0,0,0,8,8,1,,,,,,,,,,,,,,,,,,,,,,,,,,,,,,,,,,,,,,,,,,,,,,,,,,,,,,,,,,,,,,,,165.89038760005496,166.2914865000639,166.27448619995266,166.3739312000107,166.77470910013653,None,right,1,0.5289053001906723,166.77470910013653,None,166.27448619995266,166.3739312000107,166.3739312000107,None,167.32538040005602,None,,,,,,,11028,001,2024_Jan_10_1421,ANT,2021.2.3,60.349447431544704,
1,15,center,down,IC,L,,,,,,Block.xlsx,"你已经完成了第一个实验区组

请稍作休息


点击空格键进入下一个区组。",0,50,-1.5,left,RRLRR.png,,,,,0,0,0,0,0,9,9,14,,,,,,,,,,,,,,,,,,,,,,,,,,,,,,,,,,,,,,,,,,,,,,,,,,,,,,,,,,,,,,,,167.72599139995873,168.12686660001054,168.11069380003028,168.21063290000893,168.61079560010694,None,right,0,0.35687840008176863,168.61079560010694,None,168.11069380003028,168.21063290000893,168.21063290000893,None,168.99454570002854,None,,,,,,,11028,001,2024_Jan_10_1421,ANT,2021.2.3,60.349447431544704,
1,4,no,up,IC,R,,,,,,Block.xlsx,"你已经完成了第一个实验区组

请稍作休息


点击空格键进入下一个区组。",50,0,1.5,right,LLRLL.png,,,,,0,0,0,0,0,10,10,3,,,,,,,,,,,,,,,,,,,,,,,,,,,,,,,,,,,,,,,,,,,,,,,,,,,,,,,,,,,,,,,,169.39543689996935,169.79661560012028,169.7790201001335,169.88077050005086,170.28039950015955,None,right,1,0.5278031998313963,170.28039950015955,None,169.7790201001335,169.88077050005086,169.88077050005086,None,170.83064089994878,None,,,,,,,11028,001,2024_Jan_10_1421,ANT,2021.2.3,60.349447431544704,
1,19,spatial,up,IC,L,,,,,,Block.xlsx,"你已经完成了第一个实验区组

请稍作休息


点击空格键进入下一个区组。",1.5,0,1.5,left,RRLRR.png,,,,,0,0,0,0,0,11,11,18,,,,,,,,,,,,,,,,,,,,,,,,,,,,,,,,,,,,,,,,,,,,,,,,,,,,,,,,,,,,,,,,171.23136999993585,171.63258170010522,171.6149204999674,171.71660039993003,172.1158978000749,None,left,1,0.5639925000723451,172.1158978000749,None,171.6149204999674,171.71660039993003,171.71660039993003,None,172.70038049994037,None,,,,,,,11028,001,2024_Jan_10_1421,ANT,2021.2.3,60.349447431544704,
1,16,center,down,IC,R,,,,,,Block.xlsx,"你已经完成了第一个实验区组

请稍作休息


点击空格键进入下一个区组。",0,50,-1.5,right,LLRLL.png,,,,,0,0,0,0,0,12,12,15,,,,,,,,,,,,,,,,,,,,,,,,,,,,,,,,,,,,,,,,,,,,,,,,,,,,,,,,,,,,,,,,173.10085480008274,173.5022390000522,173.4847168000415,173.5847599999979,173.9863442000933,None,right,1,0.5413862001150846,173.9863442000933,None,173.4847168000415,173.5847599999979,173.5847599999979,None,174.55263800011016,None,,,,,,,11028,001,2024_Jan_10_1421,ANT,2021.2.3,60.349447431544704,
1,13,center,down,C,L,,,,,,Block.xlsx,"你已经完成了第一个实验区组

请稍作休息


点击空格键进入下一个区组。",0,50,-1.5,left,LLLLL.png,,,,,0,0,0,0,0,13,13,12,,,,,,,,,,,,,,,,,,,,,,,,,,,,,,,,,,,,,,,,,,,,,,,,,,,,,,,,,,,,,,,,174.95312070008367,175.35516080004163,175.3371578999795,175.43881730013527,175.83785820007324,None,left,1,0.4339678001124412,175.83785820007324,None,175.3371578999795,175.43881730013527,175.43881730013527,None,176.2885919001419,None,,,,,,,11028,001,2024_Jan_10_1421,ANT,2021.2.3,60.349447431544704,
1,5,no,down,C,L,,,,,,Block.xlsx,"你已经完成了第一个实验区组

请稍作休息


点击空格键进入下一个区组。",50,0,-1.5,left,LLLLL.png,,,,,0,0,0,0,0,14,14,4,,,,,,,,,,,,,,,,,,,,,,,,,,,,,,,,,,,,,,,,,,,,,,,,,,,,,,,,,,,,,,,,176.6894414999988,177.09047539997846,177.07482969993725,177.1909173000604,177.57382480008528,None,left,1,0.45781549997627735,177.57382480008528,None,177.07482969993725,177.1909173000604,177.17427449999377,None,178.057736299932,None,,,,,,,11028,001,2024_Jan_10_1421,ANT,2021.2.3,60.349447431544704,
1,23,spatial,down,IC,L,,,,,,Block.xlsx,"你已经完成了第一个实验区组

请稍作休息


点击空格键进入下一个区组。",-1.5,0,-1.5,left,RRLRR.png,,,,,0,0,0,0,0,15,15,22,,,,,,,,,,,,,,,,,,,,,,,,,,,,,,,,,,,,,,,,,,,,,,,,,,,,,,,,,,,,,,,,178.45854170015082,178.85943780001253,178.84267379995435,178.94426629994996,179.34433800005354,None,left,1,0.3996876999735832,179.34433800005354,None,178.84267379995435,178.94426629994996,178.94426629994996,None,179.76038570003584,None,,,,,,,11028,001,2024_Jan_10_1421,ANT,2021.2.3,60.349447431544704,
1,24,spatial,down,IC,R,,,,,,Block.xlsx,"你已经完成了第一个实验区组

请稍作休息


点击空格键进入下一个区组。",-1.5,0,-1.5,right,LLRLL.png,,,,,0,0,0,0,0,16,16,23,,,,,,,,,,,,,,,,,,,,,,,,,,,,,,,,,,,,,,,,,,,,,,,,,,,,,,,,,,,,,,,,180.1609940000344,180.56366360001266,180.54580590012483,180.64655339997262,181.04572720010765,None,right,1,0.4505831999704242,181.04572720010765,None,180.54580590012483,180.64655339997262,180.64655339997262,None,181.51304770004936,None,,,,,,,11028,001,2024_Jan_10_1421,ANT,2021.2.3,60.349447431544704,
1,2,no,up,C,R,,,,,,Block.xlsx,"你已经完成了第一个实验区组

请稍作休息


点击空格键进入下一个区组。",50,0,1.5,right,RRRRR.png,,,,,0,0,0,0,0,17,17,1,,,,,,,,,,,,,,,,,,,,,,,,,,,,,,,,,,,,,,,,,,,,,,,,,,,,,,,,,,,,,,,,181.91343610011972,182.31409390014596,182.2986533001531,182.39770990004763,182.79900080012158,None,right,1,0.4887960001360625,182.79900080012158,None,182.2986533001531,182.39770990004763,182.39770990004763,None,183.31591400015168,None,,,,,,,11028,001,2024_Jan_10_1421,ANT,2021.2.3,60.349447431544704,
1,23,spatial,down,IC,L,,,,,,Block.xlsx,"你已经完成了第一个实验区组

请稍作休息


点击空格键进入下一个区组。",-1.5,0,-1.5,left,RRLRR.png,,,,,0,0,0,0,0,18,18,22,,,,,,,,,,,,,,,,,,,,,,,,,,,,,,,,,,,,,,,,,,,,,,,,,,,,,,,,,,,,,,,,183.7166524999775,184.11815510015003,184.100925500039,184.20046470011584,184.60098990006372,None,left,1,0.43075520009733737,184.60098990006372,None,184.100925500039,184.20046470011584,184.20046470011584,None,185.0513995999936,None,,,,,,,11028,001,2024_Jan_10_1421,ANT,2021.2.3,60.349447431544704,
1,9,center,up,C,L,,,,,,Block.xlsx,"你已经完成了第一个实验区组

请稍作休息


点击空格键进入下一个区组。",0,50,1.5,left,LLLLL.png,,,,,0,0,0,0,0,19,19,8,,,,,,,,,,,,,,,,,,,,,,,,,,,,,,,,,,,,,,,,,,,,,,,,,,,,,,,,,,,,,,,,185.45263310009614,185.85428300010972,185.83643719996326,185.93636799999513,186.3384557000827,None,left,1,0.44542749994434416,186.3384557000827,None,185.83643719996326,185.93636799999513,185.93636799999513,None,186.80477220006287,None,,,,,,,11028,001,2024_Jan_10_1421,ANT,2021.2.3,60.349447431544704,
1,21,spatial,down,C,L,,,,,,Block.xlsx,"你已经完成了第一个实验区组

请稍作休息


点击空格键进入下一个区组。",-1.5,0,-1.5,left,LLLLL.png,,,,,0,0,0,0,0,20,20,20,,,,,,,,,,,,,,,,,,,,,,,,,,,,,,,,,,,,,,,,,,,,,,,,,,,,,,,,,,,,,,,,187.2052287000697,187.60573359997943,187.5907801000867,187.70621030009352,188.0905555000063,None,left,1,0.40530199999921024,188.0905555000063,None,187.5907801000867,187.70621030009352,187.69044889998622,None,188.5232303000521,None,,,,,,,11028,001,2024_Jan_10_1421,ANT,2021.2.3,60.349447431544704,
1,18,spatial,up,C,R,,,,,,Block.xlsx,"你已经完成了第一个实验区组

请稍作休息


点击空格键进入下一个区组。",1.5,0,1.5,right,RRRRR.png,,,,,0,0,0,0,0,21,21,17,,,,,,,,,,,,,,,,,,,,,,,,,,,,,,,,,,,,,,,,,,,,,,,,,,,,,,,,,,,,,,,,188.92408500006422,189.32466450007632,189.3094274001196,189.409514100058,189.81000680010766,None,right,1,0.3497605000156909,189.81000680010766,None,189.3094274001196,189.409514100058,189.409514100058,None,190.1756545000244,None,,,,,,,11028,001,2024_Jan_10_1421,ANT,2021.2.3,60.349447431544704,
1,19,spatial,up,IC,L,,,,,,Block.xlsx,"你已经完成了第一个实验区组

请稍作休息


点击空格键进入下一个区组。",1.5,0,1.5,left,RRLRR.png,,,,,0,0,0,0,0,22,22,18,,,,,,,,,,,,,,,,,,,,,,,,,,,,,,,,,,,,,,,,,,,,,,,,,,,,,,,,,,,,,,,,190.5766680999659,190.97750329994597,190.96022880007513,191.06151850009337,191.4617220000364,None,left,1,0.5379527998156846,191.4617220000364,None,190.96022880007513,191.06151850009337,191.06151850009337,None,192.0285771000199,None,,,,,,,11028,001,2024_Jan_10_1421,ANT,2021.2.3,60.349447431544704,
1,12,center,up,IC,R,,,,,,Block.xlsx,"你已经完成了第一个实验区组

请稍作休息


点击空格键进入下一个区组。",0,50,1.5,right,LLRLL.png,,,,,0,0,0,0,0,23,23,11,,,,,,,,,,,,,,,,,,,,,,,,,,,,,,,,,,,,,,,,,,,,,,,,,,,,,,,,,,,,,,,,192.42931440006942,192.83044619997963,192.81401810003445,192.91325179999694,193.31580820004456,None,right,1,0.5077992000151426,193.31580820004456,None,192.81401810003445,192.91325179999694,192.91325179999694,None,193.84818370011635,None,,,,,,,11028,001,2024_Jan_10_1421,ANT,2021.2.3,60.349447431544704,
1,8,no,down,IC,R,,,,,,Block.xlsx,"你已经完成了第一个实验区组

请稍作休息


点击空格键进入下一个区组。",50,0,-1.5,right,LLRLL.png,,,,,0,0,0,0,1,0,24,7,,,,,,,,,,,,,,,,,,,,,,,,,,,,,,,,,,,,,,,,,,,,,,,,,,,,,,,,,,,,,,,,194.2487206000369,194.649585200008,194.6342552001588,194.74931220011786,195.13326489995234,None,right,1,0.6183263000566512,195.13326489995234,None,194.6342552001588,194.74931220011786,194.73456090013497,None,195.76740949996747,None,,,,,,,11028,001,2024_Jan_10_1421,ANT,2021.2.3,60.349447431544704,
1,4,no,up,IC,R,,,,,,Block.xlsx,"你已经完成了第一个实验区组

请稍作休息


点击空格键进入下一个区组。",50,0,1.5,right,LLRLL.png,,,,,0,0,0,0,1,1,25,3,,,,,,,,,,,,,,,,,,,,,,,,,,,,,,,,,,,,,,,,,,,,,,,,,,,,,,,,,,,,,,,,196.16819919995032,196.57065210002474,196.55329039995559,196.6521614000667,197.05305240000598,None,right,1,0.722552000079304,197.05305240000598,None,196.55329039995559,196.6521614000667,196.6521614000667,None,197.80440900009125,None,,,,,,,11028,001,2024_Jan_10_1421,ANT,2021.2.3,60.349447431544704,
1,14,center,down,C,R,,,,,,Block.xlsx,"你已经完成了第一个实验区组

请稍作休息


点击空格键进入下一个区组。",0,50,-1.5,right,RRRRR.png,,,,,0,0,0,0,1,2,26,13,,,,,,,,,,,,,,,,,,,,,,,,,,,,,,,,,,,,,,,,,,,,,,,,,,,,,,,,,,,,,,,,198.20449710008688,198.60669010016136,198.58952060015872,198.68872470012866,199.08994919992983,None,right,1,0.42179880011826754,199.08994919992983,None,198.58952060015872,198.68872470012866,198.68872470012866,None,199.53952210000716,None,,,,,,,11028,001,2024_Jan_10_1421,ANT,2021.2.3,60.349447431544704,
1,11,center,up,IC,L,,,,,,Block.xlsx,"你已经完成了第一个实验区组

请稍作休息


点击空格键进入下一个区组。",0,50,1.5,left,RRLRR.png,,,,,0,0,0,0,1,3,27,10,,,,,,,,,,,,,,,,,,,,,,,,,,,,,,,,,,,,,,,,,,,,,,,,,,,,,,,,,,,,,,,,199.94034270010889,200.3414515000768,200.32594830007292,200.44128670007922,200.82629720005207,None,left,1,0.4853641998488456,200.82629720005207,None,200.32594830007292,200.44128670007922,200.42525930004194,None,201.3423780000303,None,,,,,,,11028,001,2024_Jan_10_1421,ANT,2021.2.3,60.349447431544704,
1,16,center,down,IC,R,,,,,,Block.xlsx,"你已经完成了第一个实验区组

请稍作休息


点击空格键进入下一个区组。",0,50,-1.5,right,LLRLL.png,,,,,0,0,0,0,1,4,28,15,,,,,,,,,,,,,,,,,,,,,,,,,,,,,,,,,,,,,,,,,,,,,,,,,,,,,,,,,,,,,,,,201.74310630001128,202.14524400001392,202.12800749996677,202.22855450003408,202.62766420003027,None,right,1,0.5644076000899076,202.62766420003027,None,202.12800749996677,202.22855450003408,202.22855450003408,None,203.21176209999248,None,,,,,,,11028,001,2024_Jan_10_1421,ANT,2021.2.3,60.349447431544704,
1,1,no,up,C,L,,,,,,Block.xlsx,"你已经完成了第一个实验区组

请稍作休息


点击空格键进入下一个区组。",50,0,1.5,left,LLLLL.png,,,,,0,0,0,0,1,5,29,0,,,,,,,,,,,,,,,,,,,,,,,,,,,,,,,,,,,,,,,,,,,,,,,,,,,,,,,,,,,,,,,,203.61260080011562,204.01477929996327,203.99689910002053,204.09738579997793,204.49895910010673,None,left,1,0.49281309987418354,204.49895910010673,None,203.99689910002053,204.09738579997793,204.09738579997793,None,205.01437840005383,None,,,,,,,11028,001,2024_Jan_10_1421,ANT,2021.2.3,60.349447431544704,
1,23,spatial,down,IC,L,,,,,,Block.xlsx,"你已经完成了第一个实验区组

请稍作休息


点击空格键进入下一个区组。",-1.5,0,-1.5,left,RRLRR.png,,,,,0,0,0,0,1,6,30,22,,,,,,,,,,,,,,,,,,,,,,,,,,,,,,,,,,,,,,,,,,,,,,,,,,,,,,,,,,,,,,,,205.4149941999931,205.81599269993603,205.79888710007071,205.90006710006855,206.29971279995516,None,left,1,0.3959713000804186,206.29971279995516,None,205.79888710007071,205.90006710006855,205.90006710006855,None,206.71701720007695,None,,,,,,,11028,001,2024_Jan_10_1421,ANT,2021.2.3,60.349447431544704,
1,6,no,down,C,R,,,,,,Block.xlsx,"你已经完成了第一个实验区组

请稍作休息


点击空格键进入下一个区组。",50,0,-1.5,right,RRRRR.png,,,,,0,0,0,0,1,7,31,5,,,,,,,,,,,,,,,,,,,,,,,,,,,,,,,,,,,,,,,,,,,,,,,,,,,,,,,,,,,,,,,,207.11773930001073,207.52018079999834,207.50213339994662,207.60190030001104,208.00341020012274,None,right,1,0.4924726001918316,208.00341020012274,None,207.50213339994662,207.60190030001104,207.60190030001104,None,208.51962790009566,None,,,,,,,11028,001,2024_Jan_10_1421,ANT,2021.2.3,60.349447431544704,
1,17,spatial,up,C,L,,,,,,Block.xlsx,"你已经完成了第一个实验区组

请稍作休息


点击空格键进入下一个区组。",1.5,0,1.5,left,LLLLL.png,,,,,0,0,0,0,1,8,32,16,,,,,,,,,,,,,,,,,,,,,,,,,,,,,,,,,,,,,,,,,,,,,,,,,,,,,,,,,,,,,,,,208.92025500000454,209.32118420000188,209.3063976999838,209.42099130013958,209.80550000001676,None,left,1,0.3063753000460565,209.80550000001676,None,209.3063976999838,209.42099130013958,209.40568840014748,None,210.13880890002474,None,,,,,,,11028,001,2024_Jan_10_1421,ANT,2021.2.3,60.349447431544704,
1,23,spatial,down,IC,L,,,,,,Block.xlsx,"你已经完成了第一个实验区组

请稍作休息


点击空格键进入下一个区组。",-1.5,0,-1.5,left,RRLRR.png,,,,,0,0,0,0,1,9,33,22,,,,,,,,,,,,,,,,,,,,,,,,,,,,,,,,,,,,,,,,,,,,,,,,,,,,,,,,,,,,,,,,210.53926780004986,210.94197320006788,210.92332729999907,211.02554890001193,211.42484460002743,None,left,1,0.43940760008990765,211.42484460002743,None,210.92332729999907,211.02554890001193,211.02554890001193,None,211.89167920011096,None,,,,,,,11028,001,2024_Jan_10_1421,ANT,2021.2.3,60.349447431544704,
1,15,center,down,IC,L,,,,,,Block.xlsx,"你已经完成了第一个实验区组

请稍作休息


点击空格键进入下一个区组。",0,50,-1.5,left,RRLRR.png,,,,,0,0,0,0,1,10,34,14,,,,,,,,,,,,,,,,,,,,,,,,,,,,,,,,,,,,,,,,,,,,,,,,,,,,,,,,,,,,,,,,212.29255559993908,212.69343159999698,212.67778140003793,212.79434329993092,213.1782412000466,None,left,1,0.6217549999710172,213.1782412000466,None,212.67778140003793,212.79434329993092,212.7774449000135,None,213.82742010010406,None,,,,,,,11028,001,2024_Jan_10_1421,ANT,2021.2.3,60.349447431544704,
1,20,spatial,up,IC,R,,,,,,Block.xlsx,"你已经完成了第一个实验区组

请稍作休息


点击空格键进入下一个区组。",1.5,0,1.5,right,LLRLL.png,,,,,0,0,0,0,1,11,35,19,,,,,,,,,,,,,,,,,,,,,,,,,,,,,,,,,,,,,,,,,,,,,,,,,,,,,,,,,,,,,,,,214.22819419996813,214.63035180000588,214.6123563000001,214.7123647001572,215.11352850007825,None,right,1,0.3422034000977874,215.11352850007825,None,214.6123563000001,214.7123647001572,214.7123647001572,None,215.4798359000124,None,,,,,,,11028,001,2024_Jan_10_1421,ANT,2021.2.3,60.349447431544704,
1,12,center,up,IC,R,,,,,,Block.xlsx,"你已经完成了第一个实验区组

请稍作休息


点击空格键进入下一个区组。",0,50,1.5,right,LLRLL.png,,,,,0,0,0,0,1,12,36,11,,,,,,,,,,,,,,,,,,,,,,,,,,,,,,,,,,,,,,,,,,,,,,,,,,,,,,,,,,,,,,,,215.88096710015088,216.28259690012783,216.26462880009785,216.36608910001814,216.76503870007582,None,left,0,0.3787040999159217,216.76503870007582,None,216.26462880009785,216.36608910001814,216.36608910001814,None,217.1657960000448,None,,,,,,,11028,001,2024_Jan_10_1421,ANT,2021.2.3,60.349447431544704,
1,17,spatial,up,C,L,,,,,,Block.xlsx,"你已经完成了第一个实验区组

请稍作休息


点击空格键进入下一个区组。",1.5,0,1.5,left,LLLLL.png,,,,,0,0,0,0,1,13,37,16,,,,,,,,,,,,,,,,,,,,,,,,,,,,,,,,,,,,,,,,,,,,,,,,,,,,,,,,,,,,,,,,217.56645689997822,217.967920999974,217.9508335001301,218.05161030008458,218.45113179995678,None,left,1,0.41263310005888343,218.45113179995678,None,217.9508335001301,218.05161030008458,218.05161030008458,None,218.885096100159,None,,,,,,,11028,001,2024_Jan_10_1421,ANT,2021.2.3,60.349447431544704,
1,1,no,up,C,L,,,,,,Block.xlsx,"你已经完成了第一个实验区组

请稍作休息


点击空格键进入下一个区组。",50,0,1.5,left,LLLLL.png,,,,,0,0,0,0,1,14,38,0,,,,,,,,,,,,,,,,,,,,,,,,,,,,,,,,,,,,,,,,,,,,,,,,,,,,,,,,,,,,,,,,219.28620940004475,219.6864593999926,219.67027890007012,219.77100770012476,220.1729685999453,None,left,1,0.4597381998319179,220.1729685999453,None,219.67027890007012,219.77100770012476,219.77100770012476,None,220.65427289996296,None,,,,,,,11028,001,2024_Jan_10_1421,ANT,2021.2.3,60.349447431544704,
1,8,no,down,IC,R,,,,,,Block.xlsx,"你已经完成了第一个实验区组

请稍作休息


点击空格键进入下一个区组。",50,0,-1.5,right,LLRLL.png,,,,,0,0,0,0,1,15,39,7,,,,,,,,,,,,,,,,,,,,,,,,,,,,,,,,,,,,,,,,,,,,,,,,,,,,,,,,,,,,,,,,221.05532129993662,221.45593459997326,221.44107279996388,221.53971879999153,221.9408869999461,None,right,1,0.6188141999300569,221.9408869999461,None,221.44107279996388,221.53971879999153,221.53971879999153,None,222.59059710009024,None,,,,,,,11028,001,2024_Jan_10_1421,ANT,2021.2.3,60.349447431544704,
1,8,no,down,IC,R,,,,,,Block.xlsx,"你已经完成了第一个实验区组

请稍作休息


点击空格键进入下一个区组。",50,0,-1.5,right,LLRLL.png,,,,,0,0,0,0,1,16,40,7,,,,,,,,,,,,,,,,,,,,,,,,,,,,,,,,,,,,,,,,,,,,,,,,,,,,,,,,,,,,,,,,222.99110360001214,223.39251210005023,223.3757317001,223.47662420012057,223.87633000011556,None,right,1,0.4359901000279933,223.87633000011556,None,223.3757317001,223.47662420012057,223.47662420012057,None,224.32636820012704,None,,,,,,,11028,001,2024_Jan_10_1421,ANT,2021.2.3,60.349447431544704,
1,21,spatial,down,C,L,,,,,,Block.xlsx,"你已经完成了第一个实验区组

请稍作休息


点击空格键进入下一个区组。",-1.5,0,-1.5,left,LLLLL.png,,,,,0,0,0,0,1,17,41,20,,,,,,,,,,,,,,,,,,,,,,,,,,,,,,,,,,,,,,,,,,,,,,,,,,,,,,,,,,,,,,,,224.7271620000247,225.12928240001202,225.11241600010544,225.211116499966,225.61180590000004,None,left,1,0.44388170004822314,225.61180590000004,None,225.11241600010544,225.211116499966,225.211116499966,None,226.07916760002263,None,,,,,,,11028,001,2024_Jan_10_1421,ANT,2021.2.3,60.349447431544704,
1,7,no,down,IC,L,,,,,,Block.xlsx,"你已经完成了第一个实验区组

请稍作休息


点击空格键进入下一个区组。",50,0,-1.5,left,RRLRR.png,,,,,0,0,0,0,1,18,42,6,,,,,,,,,,,,,,,,,,,,,,,,,,,,,,,,,,,,,,,,,,,,,,,,,,,,,,,,,,,,,,,,226.47958040004596,226.880271299975,226.8659092001617,226.96378590003587,227.36476760008372,None,left,1,0.41885039978660643,227.36476760008372,None,226.8659092001617,226.96378590003587,226.96378590003587,None,227.8151887001004,None,,,,,,,11028,001,2024_Jan_10_1421,ANT,2021.2.3,60.349447431544704,
1,18,spatial,up,C,R,,,,,,Block.xlsx,"你已经完成了第一个实验区组

请稍作休息


点击空格键进入下一个区组。",1.5,0,1.5,right,RRRRR.png,,,,,0,0,0,0,1,19,43,17,,,,,,,,,,,,,,,,,,,,,,,,,,,,,,,,,,,,,,,,,,,,,,,,,,,,,,,,,,,,,,,,228.21566969994456,228.6171604001429,228.59972180007026,228.6998147999402,229.10151239996776,None,right,1,0.35453610005788505,229.10151239996776,None,228.59972180007026,228.6998147999402,228.6998147999402,None,229.484283400001,None,,,,,,,11028,001,2024_Jan_10_1421,ANT,2021.2.3,60.349447431544704,
1,19,spatial,up,IC,L,,,,,,Block.xlsx,"你已经完成了第一个实验区组

请稍作休息


点击空格键进入下一个区组。",1.5,0,1.5,left,RRLRR.png,,,,,0,0,0,0,1,20,44,18,,,,,,,,,,,,,,,,,,,,,,,,,,,,,,,,,,,,,,,,,,,,,,,,,,,,,,,,,,,,,,,,229.88495550001971,230.28573180013336,230.27036730013788,230.36947980010882,230.76933829998598,None,right,0,0.3184557999484241,230.76933829998598,None,230.27036730013788,230.36947980010882,230.36947980010882,None,231.119935200084,None,,,,,,,11028,001,2024_Jan_10_1421,ANT,2021.2.3,60.349447431544704,
1,17,spatial,up,C,L,,,,,,Block.xlsx,"你已经完成了第一个实验区组

请稍作休息


点击空格键进入下一个区组。",1.5,0,1.5,left,LLLLL.png,,,,,0,0,0,0,1,21,45,16,,,,,,,,,,,,,,,,,,,,,,,,,,,,,,,,,,,,,,,,,,,,,,,,,,,,,,,,,,,,,,,,231.52054670010693,231.92211259994656,231.90449730004184,232.00655940012075,232.40528800012544,None,left,1,0.44244659994728863,232.40528800012544,None,231.90449730004184,232.00655940012075,232.00655940012075,None,232.872415299993,None,,,,,,,11028,001,2024_Jan_10_1421,ANT,2021.2.3,60.349447431544704,
1,13,center,down,C,L,,,,,,Block.xlsx,"你已经完成了第一个实验区组

请稍作休息


点击空格键进入下一个区组。",0,50,-1.5,left,LLLLL.png,,,,,0,0,0,0,1,22,46,12,,,,,,,,,,,,,,,,,,,,,,,,,,,,,,,,,,,,,,,,,,,,,,,,,,,,,,,,,,,,,,,,233.27334280009381,233.67527390015312,233.65704419999383,233.7582904000301,234.1584757999517,None,left,1,0.46566410013474524,234.1584757999517,None,233.65704419999383,233.7582904000301,233.7582904000301,None,234.6417730001267,None,,,,,,,11028,001,2024_Jan_10_1421,ANT,2021.2.3,60.349447431544704,
1,10,center,up,C,R,,,,,,Block.xlsx,"你已经完成了第一个实验区组

请稍作休息


点击空格键进入下一个区组。",0,50,1.5,right,RRRRR.png,,,,,0,0,0,0,1,23,47,9,,,,,,,,,,,,,,,,,,,,,,,,,,,,,,,,,,,,,,,,,,,,,,,,,,,,,,,,,,,,,,,,235.04244360001758,235.44407700002193,235.42634000000544,235.52686209999956,235.92707320000045,None,right,1,0.4247316000983119,235.92707320000045,None,235.42634000000544,235.52686209999956,235.52686209999956,None,236.37748909997754,None,,,,,,,11028,001,2024_Jan_10_1421,ANT,2021.2.3,60.349447431544704,
1,1,no,up,C,L,,,,,,Block.xlsx,"你已经完成了第一个实验区组

请稍作休息


点击空格键进入下一个区组。",50,0,1.5,left,LLLLL.png,,,,,0,0,0,0,2,0,48,0,,,,,,,,,,,,,,,,,,,,,,,,,,,,,,,,,,,,,,,,,,,,,,,,,,,,,,,,,,,,,,,,236.77820149995387,237.17919980012812,237.1624684999697,237.26240110001527,237.66496460000053,None,left,1,0.4306622000876814,237.66496460000053,None,237.1624684999697,237.26240110001527,237.26240110001527,None,238.11354900011793,None,,,,,,,11028,001,2024_Jan_10_1421,ANT,2021.2.3,60.349447431544704,
1,21,spatial,down,C,L,,,,,,Block.xlsx,"你已经完成了第一个实验区组

请稍作休息


点击空格键进入下一个区组。",-1.5,0,-1.5,left,LLLLL.png,,,,,0,0,0,0,2,1,49,20,,,,,,,,,,,,,,,,,,,,,,,,,,,,,,,,,,,,,,,,,,,,,,,,,,,,,,,,,,,,,,,,238.51445779995993,238.91721939994022,238.89861110015772,238.99978730012663,239.39891079999506,None,left,1,0.38541029999032617,239.39891079999506,None,238.89861110015772,238.99978730012663,238.99978730012663,None,239.7997298000846,None,,,,,,,11028,001,2024_Jan_10_1421,ANT,2021.2.3,60.349447431544704,
1,10,center,up,C,R,,,,,,Block.xlsx,"你已经完成了第一个实验区组

请稍作休息


点击空格键进入下一个区组。",0,50,1.5,right,RRRRR.png,,,,,0,0,0,0,2,2,50,9,,,,,,,,,,,,,,,,,,,,,,,,,,,,,,,,,,,,,,,,,,,,,,,,,,,,,,,,,,,,,,,,240.20011089998297,240.60176310013048,240.58421500003897,240.68446970009245,241.0854422999546,None,right,1,0.4186573999468237,241.0854422999546,None,240.58421500003897,240.68446970009245,240.68446970009245,None,241.51875629997812,None,,,,,,,11028,001,2024_Jan_10_1421,ANT,2021.2.3,60.349447431544704,
1,14,center,down,C,R,,,,,,Block.xlsx,"你已经完成了第一个实验区组

请稍作休息


点击空格键进入下一个区组。",0,50,-1.5,right,RRRRR.png,,,,,0,0,0,0,2,3,51,13,,,,,,,,,,,,,,,,,,,,,,,,,,,,,,,,,,,,,,,,,,,,,,,,,,,,,,,,,,,,,,,,241.91942550009117,242.32099639996886,242.30323630012572,242.40514390007593,242.80542890005745,None,right,1,0.3707787001039833,242.80542890005745,None,242.30323630012572,242.40514390007593,242.40514390007593,None,243.204671200132,None,,,,,,,11028,001,2024_Jan_10_1421,ANT,2021.2.3,60.349447431544704,
1,4,no,up,IC,R,,,,,,Block.xlsx,"你已经完成了第一个实验区组

请稍作休息


点击空格键进入下一个区组。",50,0,1.5,right,LLRLL.png,,,,,0,0,0,0,2,4,52,3,,,,,,,,,,,,,,,,,,,,,,,,,,,,,,,,,,,,,,,,,,,,,,,,,,,,,,,,,,,,,,,,243.60498540010303,244.0059200001415,243.99064820003696,244.10603539994918,244.4903847000096,None,left,0,0.46918590017594397,244.4903847000096,None,243.99064820003696,244.10603539994918,244.08887480013072,None,244.99054650007747,None,,,,,,,11028,001,2024_Jan_10_1421,ANT,2021.2.3,60.349447431544704,
1,17,spatial,up,C,L,,,,,,Block.xlsx,"你已经完成了第一个实验区组

请稍作休息


点击空格键进入下一个区组。",1.5,0,1.5,left,LLLLL.png,,,,,0,0,0,0,2,5,53,16,,,,,,,,,,,,,,,,,,,,,,,,,,,,,,,,,,,,,,,,,,,,,,,,,,,,,,,,,,,,,,,,245.39099300000817,245.7932883000467,245.77498690015636,245.87567050009966,246.27722440008074,None,left,1,0.4343626999761909,246.27722440008074,None,245.77498690015636,245.87567050009966,245.87567050009966,None,246.74311999999918,None,,,,,,,11028,001,2024_Jan_10_1421,ANT,2021.2.3,60.349447431544704,
1,5,no,down,C,L,,,,,,Block.xlsx,"你已经完成了第一个实验区组

请稍作休息


点击空格键进入下一个区组。",50,0,-1.5,left,LLLLL.png,,,,,0,0,0,0,2,6,54,4,,,,,,,,,,,,,,,,,,,,,,,,,,,,,,,,,,,,,,,,,,,,,,,,,,,,,,,,,,,,,,,,247.14413140015677,247.5442924001254,247.5281971001532,247.62834960012697,248.0285104000941,None,left,1,0.5393240000121295,248.0285104000941,None,247.5281971001532,247.62834960012697,247.62834960012697,None,248.5957593000494,None,,,,,,,11028,001,2024_Jan_10_1421,ANT,2021.2.3,60.349447431544704,
1,19,spatial,up,IC,L,,,,,,Block.xlsx,"你已经完成了第一个实验区组

请稍作休息


点击空格键进入下一个区组。",1.5,0,1.5,left,RRLRR.png,,,,,0,0,0,0,2,7,55,18,,,,,,,,,,,,,,,,,,,,,,,,,,,,,,,,,,,,,,,,,,,,,,,,,,,,,,,,,,,,,,,,248.99639720004052,249.39797480008565,249.38035729993135,249.48155450006016,249.88231440004893,None,left,1,0.4533988998737186,249.88231440004893,None,249.38035729993135,249.48155450006016,249.48155450006016,None,250.36494590016082,None,,,,,,,11028,001,2024_Jan_10_1421,ANT,2021.2.3,60.349447431544704,
1,14,center,down,C,R,,,,,,Block.xlsx,"你已经完成了第一个实验区组

请稍作休息


点击空格键进入下一个区组。",0,50,-1.5,right,RRRRR.png,,,,,0,0,0,0,2,8,56,13,,,,,,,,,,,,,,,,,,,,,,,,,,,,,,,,,,,,,,,,,,,,,,,,,,,,,,,,,,,,,,,,250.7656038000714,251.1668136001099,251.1495092001278,251.25067390012555,251.65048420010135,None,right,1,0.36527969990856946,251.65048420010135,None,251.1495092001278,251.25067390012555,251.25067390012555,None,252.0341449000407,None,,,,,,,11028,001,2024_Jan_10_1421,ANT,2021.2.3,60.349447431544704,
1,6,no,down,C,R,,,,,,Block.xlsx,"你已经完成了第一个实验区组

请稍作休息


点击空格键进入下一个区组。",50,0,-1.5,right,RRRRR.png,,,,,0,0,0,0,2,9,57,5,,,,,,,,,,,,,,,,,,,,,,,,,,,,,,,,,,,,,,,,,,,,,,,,,,,,,,,,,,,,,,,,252.4348534999881,252.83551750006154,252.81887169997208,252.91869880002923,253.31938390014693,None,right,1,0.3922698001842946,253.31938390014693,None,252.81887169997208,252.91869880002923,252.91869880002923,None,253.73724970011972,None,,,,,,,11028,001,2024_Jan_10_1421,ANT,2021.2.3,60.349447431544704,
1,12,center,up,IC,R,,,,,,Block.xlsx,"你已经完成了第一个实验区组

请稍作休息


点击空格键进入下一个区组。",0,50,1.5,right,LLRLL.png,,,,,0,0,0,0,2,10,58,11,,,,,,,,,,,,,,,,,,,,,,,,,,,,,,,,,,,,,,,,,,,,,,,,,,,,,,,,,,,,,,,,254.13738119998015,254.53883880004287,254.5213481001556,254.62188809993677,255.0239349999465,None,right,1,0.5282779999542981,255.0239349999465,None,254.5213481001556,254.62188809993677,254.62188809993677,None,255.57284280005842,None,,,,,,,11028,001,2024_Jan_10_1421,ANT,2021.2.3,60.349447431544704,
1,4,no,up,IC,R,,,,,,Block.xlsx,"你已经完成了第一个实验区组

请稍作休息


点击空格键进入下一个区组。",50,0,1.5,right,LLRLL.png,,,,,0,0,0,0,2,11,59,3,,,,,,,,,,,,,,,,,,,,,,,,,,,,,,,,,,,,,,,,,,,,,,,,,,,,,,,,,,,,,,,,255.97356920014136,256.37388300010934,256.35810400010087,256.45839800010435,256.85867320001125,None,right,1,0.6531549000646919,256.85867320001125,None,256.35810400010087,256.45839800010435,256.45839800010435,None,257.54231770010665,None,,,,,,,11028,001,2024_Jan_10_1421,ANT,2021.2.3,60.349447431544704,
1,5,no,down,C,L,,,,,,Block.xlsx,"你已经完成了第一个实验区组

请稍作休息


点击空格键进入下一个区组。",50,0,-1.5,left,LLLLL.png,,,,,0,0,0,0,2,12,60,4,,,,,,,,,,,,,,,,,,,,,,,,,,,,,,,,,,,,,,,,,,,,,,,,,,,,,,,,,,,,,,,,257.94345910008997,258.3439881000668,258.3285622000694,258.4273020999972,258.8280424999539,None,left,1,0.4116756001021713,258.8280424999539,None,258.3285622000694,258.4273020999972,258.4273020999972,None,259.2616403000429,None,,,,,,,11028,001,2024_Jan_10_1421,ANT,2021.2.3,60.349447431544704,
1,6,no,down,C,R,,,,,,Block.xlsx,"你已经完成了第一个实验区组

请稍作休息


点击空格键进入下一个区组。",50,0,-1.5,right,RRRRR.png,,,,,0,0,0,0,2,13,61,5,,,,,,,,,,,,,,,,,,,,,,,,,,,,,,,,,,,,,,,,,,,,,,,,,,,,,,,,,,,,,,,,259.66225000005215,260.06342740007676,260.0459599001333,260.1466759000905,260.5468288001139,None,right,1,0.6369169000536203,260.5468288001139,None,260.0459599001333,260.1466759000905,260.1466759000905,None,261.2144242001232,None,,,,,,,11028,001,2024_Jan_10_1421,ANT,2021.2.3,60.349447431544704,
1,3,no,up,IC,L,,,,,,Block.xlsx,"你已经完成了第一个实验区组

请稍作休息


点击空格键进入下一个区组。",50,0,1.5,left,RRLRR.png,,,,,0,0,0,0,2,14,62,2,,,,,,,,,,,,,,,,,,,,,,,,,,,,,,,,,,,,,,,,,,,,,,,,,,,,,,,,,,,,,,,,261.6151054999791,262.0162993001286,262.0007416999433,262.09988190000877,262.50184360006824,None,left,1,0.5540414000861347,262.50184360006824,None,262.0007416999433,262.09988190000877,262.09988190000877,None,263.0839714000467,None,,,,,,,11028,001,2024_Jan_10_1421,ANT,2021.2.3,60.349447431544704,
1,22,spatial,down,C,R,,,,,,Block.xlsx,"你已经完成了第一个实验区组

请稍作休息


点击空格键进入下一个区组。",-1.5,0,-1.5,right,RRRRR.png,,,,,0,0,0,0,2,15,63,21,,,,,,,,,,,,,,,,,,,,,,,,,,,,,,,,,,,,,,,,,,,,,,,,,,,,,,,,,,,,,,,,263.4846439999528,263.8850978000555,263.86946570011787,263.96850019996054,264.36913709994406,None,right,1,0.3426828000228852,264.36913709994406,None,263.86946570011787,263.96850019996054,263.96850019996054,None,264.73639510013163,None,,,,,,,11028,001,2024_Jan_10_1421,ANT,2021.2.3,60.349447431544704,
1,9,center,up,C,L,,,,,,Block.xlsx,"你已经完成了第一个实验区组

请稍作休息


点击空格键进入下一个区组。",0,50,1.5,left,LLLLL.png,,,,,0,0,0,0,2,16,64,8,,,,,,,,,,,,,,,,,,,,,,,,,,,,,,,,,,,,,,,,,,,,,,,,,,,,,,,,,,,,,,,,265.13696309993975,265.5382115000393,265.52098829997703,265.62147290003486,266.02305439999327,None,left,1,0.4006576999090612,266.02305439999327,None,265.52098829997703,265.62147290003486,265.62147290003486,None,266.4555214000866,None,,,,,,,11028,001,2024_Jan_10_1421,ANT,2021.2.3,60.349447431544704,
1,13,center,down,C,L,,,,,,Block.xlsx,"你已经完成了第一个实验区组

请稍作休息


点击空格键进入下一个区组。",0,50,-1.5,left,LLLLL.png,,,,,0,0,0,0,2,17,65,12,,,,,,,,,,,,,,,,,,,,,,,,,,,,,,,,,,,,,,,,,,,,,,,,,,,,,,,,,,,,,,,,266.856074700132,267.25672630011104,267.2417969999369,267.34098460013047,267.741897800006,None,left,1,0.48974139988422394,267.741897800006,None,267.2417969999369,267.34098460013047,267.34098460013047,None,268.2582785000559,None,,,,,,,11028,001,2024_Jan_10_1421,ANT,2021.2.3,60.349447431544704,
1,14,center,down,C,R,,,,,,Block.xlsx,"你已经完成了第一个实验区组

请稍作休息


点击空格键进入下一个区组。",0,50,-1.5,right,RRRRR.png,,,,,0,0,0,0,2,18,66,13,,,,,,,,,,,,,,,,,,,,,,,,,,,,,,,,,,,,,,,,,,,,,,,,,,,,,,,,,,,,,,,,268.6593283000402,269.0604714001529,269.0426257001236,269.1440916999709,269.54425729997456,None,right,1,0.3996569002047181,269.54425729997456,None,269.0426257001236,269.1440916999709,269.1440916999709,None,269.9609080001246,None,,,,,,,11028,001,2024_Jan_10_1421,ANT,2021.2.3,60.349447431544704,
1,20,spatial,up,IC,R,,,,,,Block.xlsx,"你已经完成了第一个实验区组

请稍作休息


点击空格键进入下一个区组。",1.5,0,1.5,right,LLRLL.png,,,,,0,0,0,0,2,19,67,19,,,,,,,,,,,,,,,,,,,,,,,,,,,,,,,,,,,,,,,,,,,,,,,,,,,,,,,,,,,,,,,,270.3612852001097,270.76309920009226,270.74601879995316,270.84548359992914,271.24618600006215,None,right,1,0.6817922000773251,271.24618600006215,None,270.74601879995316,270.84548359992914,270.84548359992914,None,271.9470468000509,None,,,,,,,11028,001,2024_Jan_10_1421,ANT,2021.2.3,60.349447431544704,
1,22,spatial,down,C,R,,,,,,Block.xlsx,"你已经完成了第一个实验区组

请稍作休息


点击空格键进入下一个区组。",-1.5,0,-1.5,right,RRRRR.png,,,,,0,0,0,0,2,20,68,21,,,,,,,,,,,,,,,,,,,,,,,,,,,,,,,,,,,,,,,,,,,,,,,,,,,,,,,,,,,,,,,,272.3478327000048,272.74961880012415,272.73150490014814,272.83367690001614,273.23323699994944,None,right,1,0.358460099902004,273.23323699994944,None,272.73150490014814,272.83367690001614,272.83367690001614,None,273.6163419999648,None,,,,,,,11028,001,2024_Jan_10_1421,ANT,2021.2.3,60.349447431544704,
1,11,center,up,IC,L,,,,,,Block.xlsx,"你已经完成了第一个实验区组

请稍作休息


点击空格键进入下一个区组。",0,50,1.5,left,RRLRR.png,,,,,0,0,0,0,2,21,69,10,,,,,,,,,,,,,,,,,,,,,,,,,,,,,,,,,,,,,,,,,,,,,,,,,,,,,,,,,,,,,,,,274.0169608001597,274.4181969000492,274.4007151001133,274.50091840000823,274.9028721000068,None,left,1,0.5132548999972641,274.9028721000068,None,274.4007151001133,274.50091840000823,274.50091840000823,None,275.4355846999679,None,,,,,,,11028,001,2024_Jan_10_1421,ANT,2021.2.3,60.349447431544704,
1,5,no,down,C,L,,,,,,Block.xlsx,"你已经完成了第一个实验区组

请稍作休息


点击空格键进入下一个区组。",50,0,-1.5,left,LLLLL.png,,,,,0,0,0,0,2,22,70,4,,,,,,,,,,,,,,,,,,,,,,,,,,,,,,,,,,,,,,,,,,,,,,,,,,,,,,,,,,,,,,,,275.83629000000656,276.2381957999896,276.2205446001608,276.32203879998997,276.72086420003325,None,left,1,0.43907570000737906,276.72086420003325,None,276.2205446001608,276.32203879998997,276.32203879998997,None,277.1881176000461,None,,,,,,,11028,001,2024_Jan_10_1421,ANT,2021.2.3,60.349447431544704,
1,22,spatial,down,C,R,,,,,,Block.xlsx,"你已经完成了第一个实验区组

请稍作休息


点击空格键进入下一个区组。",-1.5,0,-1.5,right,RRRRR.png,,,,,0,0,0,0,2,23,71,21,,,,,,,,,,,,,,,,,,,,,,,,,,,,,,,,,,,,,,,,,,,,,,,,,,,,,,,,,,,,,,,,277.58906250004657,277.9893414999824,277.97272339998744,278.07366849994287,278.47498630010523,None,right,1,0.46884030010551214,278.47498630010523,None,277.97272339998744,278.07366849994287,278.07366849994287,None,278.9740043000784,None,,,,,,,11028,001,2024_Jan_10_1421,ANT,2021.2.3,60.349447431544704,
1,9,center,up,C,L,,,,,,Block.xlsx,"你已经完成了第一个实验区组

请稍作休息


点击空格键进入下一个区组。",0,50,1.5,left,LLLLL.png,,,,,0,0,0,0,3,0,72,8,,,,,,,,,,,,,,,,,,,,,,,,,,,,,,,,,,,,,,,,,,,,,,,,,,,,,,,,,,,,,,,,279.3746007999871,279.7763181999326,279.75861470005475,279.8593091000803,280.26134770014323,None,left,1,0.3705758999567479,280.26134770014323,None,279.75861470005475,279.8593091000803,279.8593091000803,None,280.65996060008183,None,,,,,,,11028,001,2024_Jan_10_1421,ANT,2021.2.3,60.349447431544704,
1,12,center,up,IC,R,,,,,,Block.xlsx,"你已经完成了第一个实验区组

请稍作休息


点击空格键进入下一个区组。",0,50,1.5,right,LLRLL.png,,,,,0,0,0,0,3,1,73,11,,,,,,,,,,,,,,,,,,,,,,,,,,,,,,,,,,,,,,,,,,,,,,,,,,,,,,,,,,,,,,,,281.06055220006965,281.46126130013727,281.44521529995836,281.5458297999576,281.9452124000527,None,right,1,0.4704897999763489,281.9452124000527,None,281.44521529995836,281.5458297999576,281.5458297999576,None,282.446189600043,None,,,,,,,11028,001,2024_Jan_10_1421,ANT,2021.2.3,60.349447431544704,
1,16,center,down,IC,R,,,,,,Block.xlsx,"你已经完成了第一个实验区组

请稍作休息


点击空格键进入下一个区组。",0,50,-1.5,right,LLRLL.png,,,,,0,0,0,0,3,2,74,15,,,,,,,,,,,,,,,,,,,,,,,,,,,,,,,,,,,,,,,,,,,,,,,,,,,,,,,,,,,,,,,,282.84677830012515,283.2477871000301,283.2310325000435,283.3316105999984,283.7317937000189,None,right,1,0.6279588001780212,283.7317937000189,None,283.2310325000435,283.3316105999984,283.3316105999984,None,284.38264010008425,None,,,,,,,11028,001,2024_Jan_10_1421,ANT,2021.2.3,60.349447431544704,
1,2,no,up,C,R,,,,,,Block.xlsx,"你已经完成了第一个实验区组

请稍作休息


点击空格键进入下一个区组。",50,0,1.5,right,RRRRR.png,,,,,0,0,0,0,3,3,75,1,,,,,,,,,,,,,,,,,,,,,,,,,,,,,,,,,,,,,,,,,,,,,,,,,,,,,,,,,,,,,,,,284.78298539994285,285.1857670999598,285.1673020001035,285.2672182000242,285.6679796001408,None,right,1,0.4597623001318425,285.6679796001408,None,285.1673020001035,285.2672182000242,285.2672182000242,None,286.1514900000766,None,,,,,,,11028,001,2024_Jan_10_1421,ANT,2021.2.3,60.349447431544704,
1,7,no,down,IC,L,,,,,,Block.xlsx,"你已经完成了第一个实验区组

请稍作休息


点击空格键进入下一个区组。",50,0,-1.5,left,RRLRR.png,,,,,0,0,0,0,3,4,76,6,,,,,,,,,,,,,,,,,,,,,,,,,,,,,,,,,,,,,,,,,,,,,,,,,,,,,,,,,,,,,,,,286.55226600007154,286.95278459996916,286.9364607001189,287.03753960016184,287.43691099993885,None,left,1,0.5151703001465648,287.43691099993885,None,286.9364607001189,287.03753960016184,287.03753960016184,None,287.9710470000282,None,,,,,,,11028,001,2024_Jan_10_1421,ANT,2021.2.3,60.349447431544704,
1,18,spatial,up,C,R,,,,,,Block.xlsx,"你已经完成了第一个实验区组

请稍作休息


点击空格键进入下一个区组。",1.5,0,1.5,right,RRRRR.png,,,,,0,0,0,0,3,5,77,17,,,,,,,,,,,,,,,,,,,,,,,,,,,,,,,,,,,,,,,,,,,,,,,,,,,,,,,,,,,,,,,,288.3717716000974,288.77239469997585,288.75571210007183,288.8560180000495,289.25760160014033,None,right,1,0.4062593001872301,289.25760160014033,None,288.75571210007183,288.8560180000495,288.8560180000495,None,289.69005009997636,None,,,,,,,11028,001,2024_Jan_10_1421,ANT,2021.2.3,60.349447431544704,
1,3,no,up,IC,L,,,,,,Block.xlsx,"你已经完成了第一个实验区组

请稍作休息


点击空格键进入下一个区组。",50,0,1.5,left,RRLRR.png,,,,,0,0,0,0,3,6,78,2,,,,,,,,,,,,,,,,,,,,,,,,,,,,,,,,,,,,,,,,,,,,,,,,,,,,,,,,,,,,,,,,290.09089100011624,290.4912758001592,290.4747933000326,290.5747676999308,290.9754040001426,None,left,1,0.9044333000201732,290.9754040001426,None,290.4747933000326,290.5747676999308,290.5747676999308,None,291.91049299994484,None,,,,,,,11028,001,2024_Jan_10_1421,ANT,2021.2.3,60.349447431544704,
1,10,center,up,C,R,,,,,,Block.xlsx,"你已经完成了第一个实验区组

请稍作休息


点击空格键进入下一个区组。",0,50,1.5,right,RRRRR.png,,,,,0,0,0,0,3,7,79,9,,,,,,,,,,,,,,,,,,,,,,,,,,,,,,,,,,,,,,,,,,,,,,,,,,,,,,,,,,,,,,,,292.3105242000893,292.71138340001926,292.69514370011166,292.7948932000436,293.1961501999758,None,right,1,0.42766640009358525,293.1961501999758,None,292.69514370011166,292.7948932000436,292.7948932000436,None,293.6458823001012,None,,,,,,,11028,001,2024_Jan_10_1421,ANT,2021.2.3,60.349447431544704,
1,6,no,down,C,R,,,,,,Block.xlsx,"你已经完成了第一个实验区组

请稍作休息


点击空格键进入下一个区组。",50,0,-1.5,right,RRRRR.png,,,,,0,0,0,0,3,8,80,5,,,,,,,,,,,,,,,,,,,,,,,,,,,,,,,,,,,,,,,,,,,,,,,,,,,,,,,,,,,,,,,,294.0464554000646,294.4472205999773,294.4312797000166,294.53065920015797,294.93155340012163,None,right,1,0.33359289984218776,294.93155340012163,None,294.4312797000166,294.53065920015797,294.53065920015797,None,295.2818063001614,None,,,,,,,11028,001,2024_Jan_10_1421,ANT,2021.2.3,60.349447431544704,
1,10,center,up,C,R,,,,,,Block.xlsx,"你已经完成了第一个实验区组

请稍作休息


点击空格键进入下一个区组。",0,50,1.5,right,RRRRR.png,,,,,0,0,0,0,3,9,81,9,,,,,,,,,,,,,,,,,,,,,,,,,,,,,,,,,,,,,,,,,,,,,,,,,,,,,,,,,,,,,,,,295.6824060000945,296.0832609999925,296.0663281001616,296.1670500000473,296.56771820015274,None,right,1,0.4163703001104295,296.56771820015274,None,296.0663281001616,296.1670500000473,296.1670500000473,None,297.00080529996194,None,,,,,,,11028,001,2024_Jan_10_1421,ANT,2021.2.3,60.349447431544704,
1,21,spatial,down,C,L,,,,,,Block.xlsx,"你已经完成了第一个实验区组

请稍作休息


点击空格键进入下一个区组。",-1.5,0,-1.5,left,LLLLL.png,,,,,0,0,0,0,3,10,82,20,,,,,,,,,,,,,,,,,,,,,,,,,,,,,,,,,,,,,,,,,,,,,,,,,,,,,,,,,,,,,,,,297.4016330000013,297.8030850000214,297.7858882001601,297.8859272999689,298.28616240015253,None,left,1,0.3216434000059962,298.28616240015253,None,297.7858882001601,297.8859272999689,297.8859272999689,None,298.6366370001342,None,,,,,,,11028,001,2024_Jan_10_1421,ANT,2021.2.3,60.349447431544704,
1,22,spatial,down,C,R,,,,,,Block.xlsx,"你已经完成了第一个实验区组

请稍作休息


点击空格键进入下一个区组。",-1.5,0,-1.5,right,RRRRR.png,,,,,0,0,0,0,3,11,83,21,,,,,,,,,,,,,,,,,,,,,,,,,,,,,,,,,,,,,,,,,,,,,,,,,,,,,,,,,,,,,,,,299.03720110002905,299.4390730999876,299.421652500052,299.521131800022,299.92180250003,None,right,1,0.526019100099802,299.92180250003,None,299.421652500052,299.521131800022,299.521131800022,None,300.4729236999992,None,,,,,,,11028,001,2024_Jan_10_1421,ANT,2021.2.3,60.349447431544704,
1,13,center,down,C,L,,,,,,Block.xlsx,"你已经完成了第一个实验区组

请稍作休息


点击空格键进入下一个区组。",0,50,-1.5,left,LLLLL.png,,,,,0,0,0,0,3,12,84,12,,,,,,,,,,,,,,,,,,,,,,,,,,,,,,,,,,,,,,,,,,,,,,,,,,,,,,,,,,,,,,,,300.8734903000295,301.2752396001015,301.257176599931,301.3588134001475,301.76000200002454,None,left,1,0.3199399998411536,301.76000200002454,None,301.257176599931,301.3588134001475,301.3588134001475,None,302.10834180004895,None,,,,,,,11028,001,2024_Jan_10_1421,ANT,2021.2.3,60.349447431544704,
1,20,spatial,up,IC,R,,,,,,Block.xlsx,"你已经完成了第一个实验区组

请稍作休息


点击空格键进入下一个区组。",1.5,0,1.5,right,LLRLL.png,,,,,0,0,0,0,3,13,85,19,,,,,,,,,,,,,,,,,,,,,,,,,,,,,,,,,,,,,,,,,,,,,,,,,,,,,,,,,,,,,,,,302.50920540001243,302.91042860015295,302.893020800082,302.9940798000898,303.39421860012226,None,right,1,0.5257150998804718,303.39421860012226,None,302.893020800082,302.9940798000898,302.9940798000898,None,303.94455670006573,None,,,,,,,11028,001,2024_Jan_10_1421,ANT,2021.2.3,60.349447431544704,
1,18,spatial,up,C,R,,,,,,Block.xlsx,"你已经完成了第一个实验区组

请稍作休息


点击空格键进入下一个区组。",1.5,0,1.5,right,RRRRR.png,,,,,0,0,0,0,3,14,86,17,,,,,,,,,,,,,,,,,,,,,,,,,,,,,,,,,,,,,,,,,,,,,,,,,,,,,,,,,,,,,,,,304.3457657000981,304.74650030001067,304.728974299971,304.82994660013355,305.22994180000387,None,right,1,0.4099294999614358,305.22994180000387,None,304.728974299971,304.82994660013355,304.82994660013355,None,305.663713300135,None,,,,,,,11028,001,2024_Jan_10_1421,ANT,2021.2.3,60.349447431544704,
1,24,spatial,down,IC,R,,,,,,Block.xlsx,"你已经完成了第一个实验区组

请稍作休息


点击空格键进入下一个区组。",-1.5,0,-1.5,right,LLRLL.png,,,,,0,0,0,0,3,15,87,23,,,,,,,,,,,,,,,,,,,,,,,,,,,,,,,,,,,,,,,,,,,,,,,,,,,,,,,,,,,,,,,,306.06431249994785,306.4653946000617,306.449049100047,306.5490661000367,306.9493124000728,None,right,1,0.5065595000050962,306.9493124000728,None,306.449049100047,306.5490661000367,306.5490661000367,None,307.4830835000612,None,,,,,,,11028,001,2024_Jan_10_1421,ANT,2021.2.3,60.349447431544704,
1,7,no,down,IC,L,,,,,,Block.xlsx,"你已经完成了第一个实验区组

请稍作休息


点击空格键进入下一个区组。",50,0,-1.5,left,RRLRR.png,,,,,0,0,0,0,3,16,88,6,,,,,,,,,,,,,,,,,,,,,,,,,,,,,,,,,,,,,,,,,,,,,,,,,,,,,,,,,,,,,,,,307.88376810005866,308.28514920012094,308.26797819999047,308.36764920013957,308.7691361999605,None,left,1,0.526700200047344,308.7691361999605,None,308.26797819999047,308.36764920013957,308.36764920013957,None,309.31974870013073,None,,,,,,,11028,001,2024_Jan_10_1421,ANT,2021.2.3,60.349447431544704,
1,11,center,up,IC,L,,,,,,Block.xlsx,"你已经完成了第一个实验区组

请稍作休息


点击空格键进入下一个区组。",0,50,1.5,left,RRLRR.png,,,,,0,0,0,0,3,17,89,10,,,,,,,,,,,,,,,,,,,,,,,,,,,,,,,,,,,,,,,,,,,,,,,,,,,,,,,,,,,,,,,,309.71969890012406,310.12042460008524,310.10465699993074,310.2040029000491,310.60494290012866,None,left,1,0.5708071000408381,310.60494290012866,None,310.10465699993074,310.2040029000491,310.2040029000491,None,311.20533130015247,None,,,,,,,11028,001,2024_Jan_10_1421,ANT,2021.2.3,60.349447431544704,
1,15,center,down,IC,L,,,,,,Block.xlsx,"你已经完成了第一个实验区组

请稍作休息


点击空格键进入下一个区组。",0,50,-1.5,left,RRLRR.png,,,,,0,0,0,0,3,18,90,14,,,,,,,,,,,,,,,,,,,,,,,,,,,,,,,,,,,,,,,,,,,,,,,,,,,,,,,,,,,,,,,,311.60604889993556,312.00753120006993,311.98990379995666,312.09075310011394,312.49134210008197,None,left,1,0.5804887001868337,312.49134210008197,None,311.98990379995666,312.09075310011394,312.09075310011394,None,313.0914112001192,None,,,,,,,11028,001,2024_Jan_10_1421,ANT,2021.2.3,60.349447431544704,
1,24,spatial,down,IC,R,,,,,,Block.xlsx,"你已经完成了第一个实验区组

请稍作休息


点击空格键进入下一个区组。",-1.5,0,-1.5,right,LLRLL.png,,,,,0,0,0,0,3,19,91,23,,,,,,,,,,,,,,,,,,,,,,,,,,,,,,,,,,,,,,,,,,,,,,,,,,,,,,,,,,,,,,,,313.49252089997754,313.8939639001619,313.875905000139,313.97763450001366,314.3777175999712,None,right,1,0.46246010018512607,314.3777175999712,None,313.875905000139,313.97763450001366,313.97763450001366,None,314.86062450008467,None,,,,,,,11028,001,2024_Jan_10_1421,ANT,2021.2.3,60.349447431544704,
1,24,spatial,down,IC,R,,,,,,Block.xlsx,"你已经完成了第一个实验区组

请稍作休息


点击空格键进入下一个区组。",-1.5,0,-1.5,right,LLRLL.png,,,,,0,0,0,0,3,20,92,23,,,,,,,,,,,,,,,,,,,,,,,,,,,,,,,,,,,,,,,,,,,,,,,,,,,,,,,,,,,,,,,,315.26116190012544,315.6624998000916,315.6449874001555,315.746145500103,316.14777430007234,None,right,1,0.4920954001136124,316.14777430007234,None,315.6449874001555,315.746145500103,315.746145500103,None,316.66397910006344,None,,,,,,,11028,001,2024_Jan_10_1421,ANT,2021.2.3,60.349447431544704,
1,20,spatial,up,IC,R,,,,,,Block.xlsx,"你已经完成了第一个实验区组

请稍作休息


点击空格键进入下一个区组。",1.5,0,1.5,right,LLRLL.png,,,,,0,0,0,0,3,21,93,19,,,,,,,,,,,,,,,,,,,,,,,,,,,,,,,,,,,,,,,,,,,,,,,,,,,,,,,,,,,,,,,,317.06474640010856,317.46681100013666,317.44836560008116,317.5498361000791,317.9486895999871,None,right,1,0.5233340000268072,317.9486895999871,None,317.44836560008116,317.5498361000791,317.5498361000791,None,318.49988090014085,None,,,,,,,11028,001,2024_Jan_10_1421,ANT,2021.2.3,60.349447431544704,
1,8,no,down,IC,R,,,,,,Block.xlsx,"你已经完成了第一个实验区组

请稍作休息


点击空格键进入下一个区组。",50,0,-1.5,right,LLRLL.png,,,,,0,0,0,0,3,22,94,7,,,,,,,,,,,,,,,,,,,,,,,,,,,,,,,,,,,,,,,,,,,,,,,,,,,,,,,,,,,,,,,,318.9003060001414,319.30165050015785,319.28458039998077,319.38501780014485,319.7852839000989,None,left,0,0.4865799997933209,319.7852839000989,None,319.28458039998077,319.38501780014485,319.38501780014485,None,320.3022454001475,None,,,,,,,11028,001,2024_Jan_10_1421,ANT,2021.2.3,60.349447431544704,
1,15,center,down,IC,L,,,,,,Block.xlsx,"你已经完成了第一个实验区组

请稍作休息


点击空格键进入下一个区组。",0,50,-1.5,left,RRLRR.png,,,,,0,0,0,0,3,23,95,14,,,,,,,,,,,,,,,,,,,,,,,,,,,,,,,,,,,,,,,,,,,,,,,,,,,,,,,,,,,,,,,,320.7031465000473,321.1048515001312,321.0875721001066,321.18848900008015,321.58761809999123,None,right,0,0.4762031000573188,321.58761809999123,None,321.0875721001066,321.18848900008015,321.18848900008015,None,322.08789650001563,None,,,,,,,11028,001,2024_Jan_10_1421,ANT,2021.2.3,60.349447431544704,
,,,,,,,,,,,Block.xlsx,"你已经完成了第一个实验区组

请稍作休息


点击空格键进入下一个区组。",,,,,,,,,,0,0,0,0,,,,,,,,,,,,,,,,,,,,,,,,,,,,,,,,,,,,,,,,,,,,,,,,,,,,,,,,,,,,,,,,,,,,,,,,,,,,,,,,,,,,,space,4.599522999953479,322.4883715000469,None,322.4883715000469,None,11028,001,2024_Jan_10_1421,ANT,2021.2.3,60.349447431544704,
1,14,center,down,C,R,,,,,,Block.xlsx,"你已经完成了整个实验（三个区组）。

请报告实验者已完成实验

非常感谢，再见！",0,50,-1.5,right,RRRRR.png,,,,,0,1,1,1,0,0,0,13,,,,,,,,,,,,,,,,,,,,,,,,,,,,,,,,,,,,,,,,,,,,,,,,,,,,,,,,,,,,,,,,327.12866239994764,327.5298796000425,327.5298796000425,327.62996460008435,328.03076240001246,None,right,1,0.4573445999994874,328.03076240001246,None,327.5298796000425,327.62996460008435,327.62996460008435,None,328.5142535001505,None,,,,,,,11028,001,2024_Jan_10_1421,ANT,2021.2.3,60.349447431544704,
1,23,spatial,down,IC,L,,,,,,Block.xlsx,"你已经完成了整个实验（三个区组）。

请报告实验者已完成实验

非常感谢，再见！",-1.5,0,-1.5,left,RRLRR.png,,,,,0,1,1,1,0,1,1,22,,,,,,,,,,,,,,,,,,,,,,,,,,,,,,,,,,,,,,,,,,,,,,,,,,,,,,,,,,,,,,,,328.91508740000427,329.3166700999718,329.29931979998946,329.400566900149,329.79982800013386,None,left,1,0.4801962999626994,329.79982800013386,None,329.29931979998946,329.400566900149,329.400566900149,None,330.3000897001475,None,,,,,,,11028,001,2024_Jan_10_1421,ANT,2021.2.3,60.349447431544704,
1,14,center,down,C,R,,,,,,Block.xlsx,"你已经完成了整个实验（三个区组）。

请报告实验者已完成实验

非常感谢，再见！",0,50,-1.5,right,RRRRR.png,,,,,0,1,1,1,0,2,2,13,,,,,,,,,,,,,,,,,,,,,,,,,,,,,,,,,,,,,,,,,,,,,,,,,,,,,,,,,,,,,,,,330.7007816999685,331.10195620008744,331.0847690999508,331.18572519999,331.5860147001222,None,right,1,0.4060312998481095,331.5860147001222,None,331.0847690999508,331.18572519999,331.18572519999,None,332.0196112000849,None,,,,,,,11028,001,2024_Jan_10_1421,ANT,2021.2.3,60.349447431544704,
1,10,center,up,C,R,,,,,,Block.xlsx,"你已经完成了整个实验（三个区组）。

请报告实验者已完成实验

非常感谢，再见！",0,50,1.5,right,RRRRR.png,,,,,0,1,1,1,0,3,3,9,,,,,,,,,,,,,,,,,,,,,,,,,,,,,,,,,,,,,,,,,,,,,,,,,,,,,,,,,,,,,,,,332.4205943001434,332.8209079001099,332.8058821000159,332.9049701001495,333.306552400114,None,right,1,0.3892586000729352,333.306552400114,None,332.8058821000159,332.9049701001495,332.9049701001495,None,333.72256330004893,None,,,,,,,11028,001,2024_Jan_10_1421,ANT,2021.2.3,60.349447431544704,
1,2,no,up,C,R,,,,,,Block.xlsx,"你已经完成了整个实验（三个区组）。

请报告实验者已完成实验

非常感谢，再见！",50,0,1.5,right,RRRRR.png,,,,,0,1,1,1,0,4,4,1,,,,,,,,,,,,,,,,,,,,,,,,,,,,,,,,,,,,,,,,,,,,,,,,,,,,,,,,,,,,,,,,334.1229253001511,334.5254826999735,334.5069959999528,334.60655020014383,335.00837590009905,None,right,1,0.3913165999110788,335.00837590009905,None,334.5069959999528,334.60655020014383,334.60655020014383,None,335.42444150010124,None,,,,,,,11028,001,2024_Jan_10_1421,ANT,2021.2.3,60.349447431544704,
1,1,no,up,C,L,,,,,,Block.xlsx,"你已经完成了整个实验（三个区组）。

请报告实验者已完成实验

非常感谢，再见！",50,0,1.5,left,LLLLL.png,,,,,0,1,1,1,0,5,5,0,,,,,,,,,,,,,,,,,,,,,,,,,,,,,,,,,,,,,,,,,,,,,,,,,,,,,,,,,,,,,,,,335.82488490012474,336.2274389001541,336.2096470000688,336.31030709994957,336.7101174001582,None,left,1,0.45774640003219247,336.7101174001582,None,336.2096470000688,336.31030709994957,336.31030709994957,None,337.19371220003814,None,,,,,,,11028,001,2024_Jan_10_1421,ANT,2021.2.3,60.349447431544704,
1,21,spatial,down,C,L,,,,,,Block.xlsx,"你已经完成了整个实验（三个区组）。

请报告实验者已完成实验

非常感谢，再见！",-1.5,0,-1.5,left,LLLLL.png,,,,,0,1,1,1,0,6,6,20,,,,,,,,,,,,,,,,,,,,,,,,,,,,,,,,,,,,,,,,,,,,,,,,,,,,,,,,,,,,,,,,337.5950237000361,337.9949054000899,337.97879229998216,338.0795092000626,338.47988440003246,None,left,1,0.40035629994235933,338.47988440003246,None,337.97879229998216,338.0795092000626,338.0795092000626,None,338.89665740006603,None,,,,,,,11028,001,2024_Jan_10_1421,ANT,2021.2.3,60.349447431544704,
1,19,spatial,up,IC,L,,,,,,Block.xlsx,"你已经完成了整个实验（三个区组）。

请报告实验者已完成实验

非常感谢，再见！",1.5,0,1.5,left,RRLRR.png,,,,,0,1,1,1,0,7,7,18,,,,,,,,,,,,,,,,,,,,,,,,,,,,,,,,,,,,,,,,,,,,,,,,,,,,,,,,,,,,,,,,339.2966255999636,339.6981174000539,339.68220759998076,339.78110220003873,340.18219750002027,None,left,1,0.43416459998115897,340.18219750002027,None,339.68220759998076,339.78110220003873,339.78110220003873,None,340.6321295001544,None,,,,,,,11028,001,2024_Jan_10_1421,ANT,2021.2.3,60.349447431544704,
1,7,no,down,IC,L,,,,,,Block.xlsx,"你已经完成了整个实验（三个区组）。

请报告实验者已完成实验

非常感谢，再见！",50,0,-1.5,left,RRLRR.png,,,,,0,1,1,1,0,8,8,6,,,,,,,,,,,,,,,,,,,,,,,,,,,,,,,,,,,,,,,,,,,,,,,,,,,,,,,,,,,,,,,,341.03277790010907,341.4336542999372,341.4167470999528,341.51778500014916,341.91748800012283,None,right,0,0.40242469985969365,341.91748800012283,None,341.4167470999528,341.51778500014916,341.51778500014916,None,342.3514891001396,None,,,,,,,11028,001,2024_Jan_10_1421,ANT,2021.2.3,60.349447431544704,
1,21,spatial,down,C,L,,,,,,Block.xlsx,"你已经完成了整个实验（三个区组）。

请报告实验者已完成实验

非常感谢，再见！",-1.5,0,-1.5,left,LLLLL.png,,,,,0,1,1,1,0,9,9,20,,,,,,,,,,,,,,,,,,,,,,,,,,,,,,,,,,,,,,,,,,,,,,,,,,,,,,,,,,,,,,,,342.75204019993544,343.15426440001465,343.136147600133,343.23776619997807,343.63837160007097,None,left,1,0.39349470008164644,343.63837160007097,None,343.136147600133,343.23776619997807,343.23776619997807,None,344.05443440005183,None,,,,,,,11028,001,2024_Jan_10_1421,ANT,2021.2.3,60.349447431544704,
1,16,center,down,IC,R,,,,,,Block.xlsx,"你已经完成了整个实验（三个区组）。

请报告实验者已完成实验

非常感谢，再见！",0,50,-1.5,right,LLRLL.png,,,,,0,1,1,1,0,10,10,15,,,,,,,,,,,,,,,,,,,,,,,,,,,,,,,,,,,,,,,,,,,,,,,,,,,,,,,,,,,,,,,,344.45458490005694,344.85513929999433,344.83895880007185,344.9393088000361,345.33964730007574,None,left,0,0.44428329984657466,345.33964730007574,None,344.83895880007185,344.9393088000361,344.9393088000361,None,345.80649839993566,None,,,,,,,11028,001,2024_Jan_10_1421,ANT,2021.2.3,60.349447431544704,
1,11,center,up,IC,L,,,,,,Block.xlsx,"你已经完成了整个实验（三个区组）。

请报告实验者已完成实验

非常感谢，再见！",0,50,1.5,left,RRLRR.png,,,,,0,1,1,1,0,11,11,10,,,,,,,,,,,,,,,,,,,,,,,,,,,,,,,,,,,,,,,,,,,,,,,,,,,,,,,,,,,,,,,,346.2071436000988,346.60855500004254,346.5912556000985,346.693335799966,347.09270410006866,None,left,1,0.8190967999398708,347.09270410006866,None,346.5912556000985,346.693335799966,346.693335799966,None,347.9263756000437,None,,,,,,,11028,001,2024_Jan_10_1421,ANT,2021.2.3,60.349447431544704,
1,15,center,down,IC,L,,,,,,Block.xlsx,"你已经完成了整个实验（三个区组）。

请报告实验者已完成实验

非常感谢，再见！",0,50,-1.5,left,RRLRR.png,,,,,0,1,1,1,0,12,12,14,,,,,,,,,,,,,,,,,,,,,,,,,,,,,,,,,,,,,,,,,,,,,,,,,,,,,,,,,,,,,,,,348.32714379997924,348.7279191000853,348.71236060000956,348.8118678999599,349.21355290012434,None,right,0,0.3623341000638902,349.21355290012434,None,348.71236060000956,348.8118678999599,348.8118678999599,None,349.5955072999932,None,,,,,,,11028,001,2024_Jan_10_1421,ANT,2021.2.3,60.349447431544704,
1,9,center,up,C,L,,,,,,Block.xlsx,"你已经完成了整个实验（三个区组）。

请报告实验者已完成实验

非常感谢，再见！",0,50,1.5,left,LLLLL.png,,,,,0,1,1,1,0,13,13,8,,,,,,,,,,,,,,,,,,,,,,,,,,,,,,,,,,,,,,,,,,,,,,,,,,,,,,,,,,,,,,,,349.99628980015405,350.3979682000354,350.37990380008705,350.4813189001288,350.8821903001517,None,left,1,0.40563359996303916,350.8821903001517,None,350.37990380008705,350.4813189001288,350.4813189001288,None,351.31464749993756,None,,,,,,,11028,001,2024_Jan_10_1421,ANT,2021.2.3,60.349447431544704,
1,2,no,up,C,R,,,,,,Block.xlsx,"你已经完成了整个实验（三个区组）。

请报告实验者已完成实验

非常感谢，再见！",50,0,1.5,right,RRRRR.png,,,,,0,1,1,1,0,14,14,1,,,,,,,,,,,,,,,,,,,,,,,,,,,,,,,,,,,,,,,,,,,,,,,,,,,,,,,,,,,,,,,,351.7154618999921,352.1169199999422,352.0998472000938,352.1994833999779,352.60069470014423,None,right,1,0.479380999924615,352.60069470014423,None,352.0998472000938,352.1994833999779,352.1994833999779,None,353.100803400157,None,,,,,,,11028,001,2024_Jan_10_1421,ANT,2021.2.3,60.349447431544704,
1,20,spatial,up,IC,R,,,,,,Block.xlsx,"你已经完成了整个实验（三个区组）。

请报告实验者已完成实验

非常感谢，再见！",1.5,0,1.5,right,LLRLL.png,,,,,0,1,1,1,0,15,15,19,,,,,,,,,,,,,,,,,,,,,,,,,,,,,,,,,,,,,,,,,,,,,,,,,,,,,,,,,,,,,,,,353.50163549999706,353.90412910003215,353.88614460011013,354.0030247999821,354.38616729993373,None,right,1,0.45370359998196363,354.38616729993373,None,353.88614460011013,354.0030247999821,353.98606640007347,None,354.8699755000416,None,,,,,,,11028,001,2024_Jan_10_1421,ANT,2021.2.3,60.349447431544704,
1,8,no,down,IC,R,,,,,,Block.xlsx,"你已经完成了整个实验（三个区组）。

请报告实验者已完成实验

非常感谢，再见！",50,0,-1.5,right,LLRLL.png,,,,,0,1,1,1,0,16,16,7,,,,,,,,,,,,,,,,,,,,,,,,,,,,,,,,,,,,,,,,,,,,,,,,,,,,,,,,,,,,,,,,355.27074720012024,355.6730309999548,355.6554716001265,355.75547940004617,356.1557196001522,None,right,1,0.6686531000304967,356.1557196001522,None,355.6554716001265,355.75547940004617,355.75547940004617,None,356.83969329996035,None,,,,,,,11028,001,2024_Jan_10_1421,ANT,2021.2.3,60.349447431544704,
1,23,spatial,down,IC,L,,,,,,Block.xlsx,"你已经完成了整个实验（三个区组）。

请报告实验者已完成实验

非常感谢，再见！",-1.5,0,-1.5,left,RRLRR.png,,,,,0,1,1,1,0,17,17,22,,,,,,,,,,,,,,,,,,,,,,,,,,,,,,,,,,,,,,,,,,,,,,,,,,,,,,,,,,,,,,,,357.2403566001449,357.64192140009254,357.6238850001246,357.7252732999623,358.1275043999776,None,left,1,0.6404577998910099,358.1275043999776,None,357.6238850001246,357.7252732999623,357.7252732999623,None,358.79261080012657,None,,,,,,,11028,001,2024_Jan_10_1421,ANT,2021.2.3,60.349447431544704,
1,16,center,down,IC,R,,,,,,Block.xlsx,"你已经完成了整个实验（三个区组）。

请报告实验者已完成实验

非常感谢，再见！",0,50,-1.5,right,LLRLL.png,,,,,0,1,1,1,0,18,18,15,,,,,,,,,,,,,,,,,,,,,,,,,,,,,,,,,,,,,,,,,,,,,,,,,,,,,,,,,,,,,,,,359.1930178999901,359.5943515000399,359.57761000003666,359.6778371001128,360.0787677001208,None,right,1,0.5771234000567347,360.0787677001208,None,359.57761000003666,359.6778371001128,359.6778371001128,None,360.6785955999512,None,,,,,,,11028,001,2024_Jan_10_1421,ANT,2021.2.3,60.349447431544704,
1,7,no,down,IC,L,,,,,,Block.xlsx,"你已经完成了整个实验（三个区组）。

请报告实验者已完成实验

非常感谢，再见！",50,0,-1.5,left,RRLRR.png,,,,,0,1,1,1,0,19,19,6,,,,,,,,,,,,,,,,,,,,,,,,,,,,,,,,,,,,,,,,,,,,,,,,,,,,,,,,,,,,,,,,361.0791877999436,361.48012139997445,361.4631354000885,361.5642202999443,361.963927899953,None,left,1,0.5721917999908328,361.963927899953,None,361.4631354000885,361.5642202999443,361.5642202999443,None,362.56478859996423,None,,,,,,,11028,001,2024_Jan_10_1421,ANT,2021.2.3,60.349447431544704,
1,2,no,up,C,R,,,,,,Block.xlsx,"你已经完成了整个实验（三个区组）。

请报告实验者已完成实验

非常感谢，再见！",50,0,1.5,right,RRRRR.png,,,,,0,1,1,1,0,20,20,1,,,,,,,,,,,,,,,,,,,,,,,,,,,,,,,,,,,,,,,,,,,,,,,,,,,,,,,,,,,,,,,,362.96500360011123,363.3658926000353,363.3507080001291,363.4671161000151,363.8499131000135,None,right,1,0.3739445998799056,363.8499131000135,None,363.3507080001291,363.4671161000151,363.45040460000746,None,364.25038590002805,None,,,,,,,11028,001,2024_Jan_10_1421,ANT,2021.2.3,60.349447431544704,
1,18,spatial,up,C,R,,,,,,Block.xlsx,"你已经完成了整个实验（三个区组）。

请报告实验者已完成实验

非常感谢，再见！",1.5,0,1.5,right,RRRRR.png,,,,,0,1,1,1,0,21,21,17,,,,,,,,,,,,,,,,,,,,,,,,,,,,,,,,,,,,,,,,,,,,,,,,,,,,,,,,,,,,,,,,364.65104919997975,365.05184380011633,365.0364596999716,365.1528195999563,365.53641719999723,None,right,1,0.3193345000036061,365.53641719999723,None,365.0364596999716,365.1528195999563,365.1358712001238,None,365.88609219994396,None,,,,,,,11028,001,2024_Jan_10_1421,ANT,2021.2.3,60.349447431544704,
1,15,center,down,IC,L,,,,,,Block.xlsx,"你已经完成了整个实验（三个区组）。

请报告实验者已完成实验

非常感谢，再见！",0,50,-1.5,left,RRLRR.png,,,,,0,1,1,1,0,22,22,14,,,,,,,,,,,,,,,,,,,,,,,,,,,,,,,,,,,,,,,,,,,,,,,,,,,,,,,,,,,,,,,,366.286756800022,366.68774470011704,366.6735356999561,366.788655300159,367.17265960015357,None,right,0,0.45117160002700984,367.17265960015357,None,366.6735356999561,366.788655300159,366.7711939001456,None,367.63913360005245,None,,,,,,,11028,001,2024_Jan_10_1421,ANT,2021.2.3,60.349447431544704,
1,4,no,up,IC,R,,,,,,Block.xlsx,"你已经完成了整个实验（三个区组）。

请报告实验者已完成实验

非常感谢，再见！",50,0,1.5,right,LLRLL.png,,,,,0,1,1,1,0,23,23,3,,,,,,,,,,,,,,,,,,,,,,,,,,,,,,,,,,,,,,,,,,,,,,,,,,,,,,,,,,,,,,,,368.0396146001294,368.44026520010084,368.42448600009084,368.52371730003506,368.926286800066,None,right,1,0.49763579992577434,368.926286800066,None,368.42448600009084,368.52371730003506,368.52371730003506,None,369.4417042999994,None,,,,,,,11028,001,2024_Jan_10_1421,ANT,2021.2.3,60.349447431544704,
1,19,spatial,up,IC,L,,,,,,Block.xlsx,"你已经完成了整个实验（三个区组）。

请报告实验者已完成实验

非常感谢，再见！",1.5,0,1.5,left,RRLRR.png,,,,,0,1,1,1,1,0,24,18,,,,,,,,,,,,,,,,,,,,,,,,,,,,,,,,,,,,,,,,,,,,,,,,,,,,,,,,,,,,,,,,369.84283420001157,370.24313900014386,370.22811680007726,370.3428536001593,370.7267444001045,None,left,1,0.4811439998447895,370.7267444001045,None,370.22811680007726,370.3428536001593,370.3275499001611,None,371.22771500004455,None,,,,,,,11028,001,2024_Jan_10_1421,ANT,2021.2.3,60.349447431544704,
1,5,no,down,C,L,,,,,,Block.xlsx,"你已经完成了整个实验（三个区组）。

请报告实验者已完成实验

非常感谢，再见！",50,0,-1.5,left,LLLLL.png,,,,,0,1,1,1,1,1,25,4,,,,,,,,,,,,,,,,,,,,,,,,,,,,,,,,,,,,,,,,,,,,,,,,,,,,,,,,,,,,,,,,371.6280732001178,372.02925459994003,372.01404449995607,372.1303356999997,372.5141638999339,None,left,1,0.5417227998841554,372.5141638999339,None,372.01404449995607,372.1303356999997,372.1121366999578,None,373.0803368999623,None,,,,,,,11028,001,2024_Jan_10_1421,ANT,2021.2.3,60.349447431544704,
1,13,center,down,C,L,,,,,,Block.xlsx,"你已经完成了整个实验（三个区组）。

请报告实验者已完成实验

非常感谢，再见！",0,50,-1.5,left,LLLLL.png,,,,,0,1,1,1,1,2,26,12,,,,,,,,,,,,,,,,,,,,,,,,,,,,,,,,,,,,,,,,,,,,,,,,,,,,,,,,,,,,,,,,373.4808960999362,373.8821374999825,373.86501069995575,373.9651023000479,374.3667793001514,None,left,1,0.44121089996770024,374.3667793001514,None,373.86501069995575,373.9651023000479,373.9651023000479,None,374.8328970000148,None,,,,,,,11028,001,2024_Jan_10_1421,ANT,2021.2.3,60.349447431544704,
1,21,spatial,down,C,L,,,,,,Block.xlsx,"你已经完成了整个实验（三个区组）。

请报告实验者已完成实验

非常感谢，再见！",-1.5,0,-1.5,left,LLLLL.png,,,,,0,1,1,1,1,3,27,20,,,,,,,,,,,,,,,,,,,,,,,,,,,,,,,,,,,,,,,,,,,,,,,,,,,,,,,,,,,,,,,,375.23341029998846,375.63409589999355,375.61946880002506,375.73458439996466,376.12101300014183,None,left,1,0.358952300157398,376.12101300014183,None,375.61946880002506,375.73458439996466,375.7194026999641,None,376.5020380001515,None,,,,,,,11028,001,2024_Jan_10_1421,ANT,2021.2.3,60.349447431544704,
1,18,spatial,up,C,R,,,,,,Block.xlsx,"你已经完成了整个实验（三个区组）。

请报告实验者已完成实验

非常感谢，再见！",1.5,0,1.5,right,RRRRR.png,,,,,0,1,1,1,1,4,28,17,,,,,,,,,,,,,,,,,,,,,,,,,,,,,,,,,,,,,,,,,,,,,,,,,,,,,,,,,,,,,,,,376.90240829996765,377.3032821000088,377.2864159999881,377.3875231000129,377.7875494000036,None,right,1,0.38054400007240474,377.7875494000036,None,377.2864159999881,377.3875231000129,377.3875231000129,None,378.187634000089,None,,,,,,,11028,001,2024_Jan_10_1421,ANT,2021.2.3,60.349447431544704,
1,4,no,up,IC,R,,,,,,Block.xlsx,"你已经完成了整个实验（三个区组）。

请报告实验者已完成实验

非常感谢，再见！",50,0,1.5,right,LLRLL.png,,,,,0,1,1,1,1,5,29,3,,,,,,,,,,,,,,,,,,,,,,,,,,,,,,,,,,,,,,,,,,,,,,,,,,,,,,,,,,,,,,,,378.5885240000207,378.9894665000029,378.9723602000158,379.07369210012257,379.47319869999774,None,right,1,0.48662559990771115,379.47319869999774,None,378.9723602000158,379.07369210012257,379.07369210012257,None,379.9905842000153,None,,,,,,,11028,001,2024_Jan_10_1421,ANT,2021.2.3,60.349447431544704,
1,4,no,up,IC,R,,,,,,Block.xlsx,"你已经完成了整个实验（三个区组）。

请报告实验者已完成实验

非常感谢，再见！",50,0,1.5,right,LLRLL.png,,,,,0,1,1,1,1,6,30,3,,,,,,,,,,,,,,,,,,,,,,,,,,,,,,,,,,,,,,,,,,,,,,,,,,,,,,,,,,,,,,,,380.391347900033,380.79350879997946,380.77494679996744,380.87624130002223,381.2761719999835,None,right,1,0.3718472998589277,381.2761719999835,None,380.77494679996744,380.87624130002223,380.87624130002223,None,381.67635600012727,None,,,,,,,11028,001,2024_Jan_10_1421,ANT,2021.2.3,60.349447431544704,
1,3,no,up,IC,L,,,,,,Block.xlsx,"你已经完成了整个实验（三个区组）。

请报告实验者已完成实验

非常感谢，再见！",50,0,1.5,left,RRLRR.png,,,,,0,1,1,1,1,7,31,2,,,,,,,,,,,,,,,,,,,,,,,,,,,,,,,,,,,,,,,,,,,,,,,,,,,,,,,,,,,,,,,,382.07697180006653,382.47935410006903,382.4616571001243,382.5613138000481,382.96208219998516,None,left,1,0.5098802000284195,382.96208219998516,None,382.4616571001243,382.5613138000481,382.5613138000481,None,383.4955454999581,None,,,,,,,11028,001,2024_Jan_10_1421,ANT,2021.2.3,60.349447431544704,
1,24,spatial,down,IC,R,,,,,,Block.xlsx,"你已经完成了整个实验（三个区组）。

请报告实验者已完成实验

非常感谢，再见！",-1.5,0,-1.5,right,LLRLL.png,,,,,0,1,1,1,1,8,32,23,,,,,,,,,,,,,,,,,,,,,,,,,,,,,,,,,,,,,,,,,,,,,,,,,,,,,,,,,,,,,,,,383.8965672000777,384.2971219001338,384.2822291001212,384.39812120003626,384.78080670000054,None,right,1,0.4590799000579864,384.78080670000054,None,384.2822291001212,384.39812120003626,384.3808192999568,None,385.26499100006185,None,,,,,,,11028,001,2024_Jan_10_1421,ANT,2021.2.3,60.349447431544704,
1,23,spatial,down,IC,L,,,,,,Block.xlsx,"你已经完成了整个实验（三个区组）。

请报告实验者已完成实验

非常感谢，再见！",-1.5,0,-1.5,left,RRLRR.png,,,,,0,1,1,1,1,9,33,22,,,,,,,,,,,,,,,,,,,,,,,,,,,,,,,,,,,,,,,,,,,,,,,,,,,,,,,,,,,,,,,,385.6668287999928,386.0678312999662,386.05046940012835,386.1503084001597,386.55115600000136,None,right,0,0.3140656999312341,386.55115600000136,None,386.05046940012835,386.1503084001597,386.1503084001597,None,386.88402350014076,None,,,,,,,11028,001,2024_Jan_10_1421,ANT,2021.2.3,60.349447431544704,
1,19,spatial,up,IC,L,,,,,,Block.xlsx,"你已经完成了整个实验（三个区组）。

请报告实验者已完成实验

非常感谢，再见！",1.5,0,1.5,left,RRLRR.png,,,,,0,1,1,1,1,10,34,18,,,,,,,,,,,,,,,,,,,,,,,,,,,,,,,,,,,,,,,,,,,,,,,,,,,,,,,,,,,,,,,,387.2852447000332,387.6860138999764,387.6690156001132,387.76894229999743,388.1693593999371,None,left,1,0.44683960010297596,388.1693593999371,None,387.6690156001132,387.76894229999743,387.76894229999743,None,388.6372279000934,None,,,,,,,11028,001,2024_Jan_10_1421,ANT,2021.2.3,60.349447431544704,
1,8,no,down,IC,R,,,,,,Block.xlsx,"你已经完成了整个实验（三个区组）。

请报告实验者已完成实验

非常感谢，再见！",50,0,-1.5,right,LLRLL.png,,,,,0,1,1,1,1,11,35,7,,,,,,,,,,,,,,,,,,,,,,,,,,,,,,,,,,,,,,,,,,,,,,,,,,,,,,,,,,,,,,,,389.03752560005523,389.4381800999399,389.42130280006677,389.5212598000653,389.92237189994194,None,right,1,0.6057035999838263,389.92237189994194,None,389.42130280006677,389.5212598000653,389.5212598000653,None,390.55612360010855,None,,,,,,,11028,001,2024_Jan_10_1421,ANT,2021.2.3,60.349447431544704,
1,5,no,down,C,L,,,,,,Block.xlsx,"你已经完成了整个实验（三个区组）。

请报告实验者已完成实验

非常感谢，再见！",50,0,-1.5,left,LLLLL.png,,,,,0,1,1,1,1,12,36,4,,,,,,,,,,,,,,,,,,,,,,,,,,,,,,,,,,,,,,,,,,,,,,,,,,,,,,,,,,,,,,,,390.9568250000011,391.3576359001454,391.3421231000684,391.44104450009763,391.84154339996167,None,left,1,0.6307998998090625,391.84154339996167,None,391.3421231000684,391.44104450009763,391.44104450009763,None,392.49217079998925,None,,,,,,,11028,001,2024_Jan_10_1421,ANT,2021.2.3,60.349447431544704,
1,15,center,down,IC,L,,,,,,Block.xlsx,"你已经完成了整个实验（三个区组）。

请报告实验者已完成实验

非常感谢，再见！",0,50,-1.5,left,RRLRR.png,,,,,0,1,1,1,1,13,37,14,,,,,,,,,,,,,,,,,,,,,,,,,,,,,,,,,,,,,,,,,,,,,,,,,,,,,,,,,,,,,,,,392.8932006000541,393.2944917001296,393.27685309993103,393.3784036000725,393.7774525999557,None,left,1,0.7506218000780791,393.7774525999557,None,393.27685309993103,393.3784036000725,393.3784036000725,None,394.54533260012977,None,,,,,,,11028,001,2024_Jan_10_1421,ANT,2021.2.3,60.349447431544704,
1,17,spatial,up,C,L,,,,,,Block.xlsx,"你已经完成了整个实验（三个区组）。

请报告实验者已完成实验

非常感谢，再见！",1.5,0,1.5,left,LLLLL.png,,,,,0,1,1,1,1,14,38,16,,,,,,,,,,,,,,,,,,,,,,,,,,,,,,,,,,,,,,,,,,,,,,,,,,,,,,,,,,,,,,,,394.9460122999735,395.3473869001027,395.3299307001289,395.4300671000965,395.83143660007045,None,left,1,0.4726428999565542,395.83143660007045,None,395.3299307001289,395.4300671000965,395.4300671000965,None,396.3318217000924,None,,,,,,,11028,001,2024_Jan_10_1421,ANT,2021.2.3,60.349447431544704,
1,6,no,down,C,R,,,,,,Block.xlsx,"你已经完成了整个实验（三个区组）。

请报告实验者已完成实验

非常感谢，再见！",50,0,-1.5,right,RRRRR.png,,,,,0,1,1,1,1,15,39,5,,,,,,,,,,,,,,,,,,,,,,,,,,,,,,,,,,,,,,,,,,,,,,,,,,,,,,,,,,,,,,,,396.7321695999708,397.13389930012636,397.1164210001007,397.2159514001105,397.6168554001488,None,right,1,0.4233960001729429,397.6168554001488,None,397.1164210001007,397.2159514001105,397.2159514001105,None,398.0672999001108,None,,,,,,,11028,001,2024_Jan_10_1421,ANT,2021.2.3,60.349447431544704,
1,22,spatial,down,C,R,,,,,,Block.xlsx,"你已经完成了整个实验（三个区组）。

请报告实验者已完成实验

非常感谢，再见！",-1.5,0,-1.5,right,RRRRR.png,,,,,0,1,1,1,1,16,40,21,,,,,,,,,,,,,,,,,,,,,,,,,,,,,,,,,,,,,,,,,,,,,,,,,,,,,,,,,,,,,,,,398.46789920004085,398.8696369000245,398.8527484999504,398.95200820011087,399.3534135001246,None,right,1,0.3184728000778705,399.3534135001246,None,398.8527484999504,398.95200820011087,398.95200820011087,None,399.7030487000011,None,,,,,,,11028,001,2024_Jan_10_1421,ANT,2021.2.3,60.349447431544704,
1,16,center,down,IC,R,,,,,,Block.xlsx,"你已经完成了整个实验（三个区组）。

请报告实验者已完成实验

非常感谢，再见！",0,50,-1.5,right,LLRLL.png,,,,,0,1,1,1,1,17,41,15,,,,,,,,,,,,,,,,,,,,,,,,,,,,,,,,,,,,,,,,,,,,,,,,,,,,,,,,,,,,,,,,400.1037032001186,400.5048694999423,400.4876560000703,400.58943479997106,400.99008650006726,None,right,1,0.577789300121367,400.99008650006726,None,400.4876560000703,400.58943479997106,400.58943479997106,None,401.58929120004177,None,,,,,,,11028,001,2024_Jan_10_1421,ANT,2021.2.3,60.349447431544704,
1,9,center,up,C,L,,,,,,Block.xlsx,"你已经完成了整个实验（三个区组）。

请报告实验者已完成实验

非常感谢，再见！",0,50,1.5,left,LLLLL.png,,,,,0,1,1,1,1,18,42,8,,,,,,,,,,,,,,,,,,,,,,,,,,,,,,,,,,,,,,,,,,,,,,,,,,,,,,,,,,,,,,,,401.9897920000367,402.39167629997246,402.37383299996145,402.4759713001549,402.8760371999815,None,left,1,0.451795999892056,402.8760371999815,None,402.37383299996145,402.4759713001549,402.4759713001549,None,403.35836820001714,None,,,,,,,11028,001,2024_Jan_10_1421,ANT,2021.2.3,60.349447431544704,
1,13,center,down,C,L,,,,,,Block.xlsx,"你已经完成了整个实验（三个区组）。

请报告实验者已完成实验

非常感谢，再见！",0,50,-1.5,left,LLLLL.png,,,,,0,1,1,1,1,19,43,12,,,,,,,,,,,,,,,,,,,,,,,,,,,,,,,,,,,,,,,,,,,,,,,,,,,,,,,,,,,,,,,,403.7591079999693,404.1602694999892,404.144289100077,404.2444923000876,404.64461289998144,None,left,1,0.4913518999237567,404.64461289998144,None,404.144289100077,404.2444923000876,404.2444923000876,None,405.1613835999742,None,,,,,,,11028,001,2024_Jan_10_1421,ANT,2021.2.3,60.349447431544704,
1,8,no,down,IC,R,,,,,,Block.xlsx,"你已经完成了整个实验（三个区组）。

请报告实验者已完成实验

非常感谢，再见！",50,0,-1.5,right,LLRLL.png,,,,,0,1,1,1,1,20,44,7,,,,,,,,,,,,,,,,,,,,,,,,,,,,,,,,,,,,,,,,,,,,,,,,,,,,,,,,,,,,,,,,405.5618778001517,405.96351610007696,405.94563170010224,406.04636110016145,406.44737619999796,None,right,1,0.6005475001875311,406.44737619999796,None,405.94563170010224,406.04636110016145,406.04636110016145,None,407.0639170000795,None,,,,,,,11028,001,2024_Jan_10_1421,ANT,2021.2.3,60.349447431544704,
1,5,no,down,C,L,,,,,,Block.xlsx,"你已经完成了整个实验（三个区组）。

请报告实验者已完成实验

非常感谢，再见！",50,0,-1.5,left,LLLLL.png,,,,,0,1,1,1,1,21,45,4,,,,,,,,,,,,,,,,,,,,,,,,,,,,,,,,,,,,,,,,,,,,,,,,,,,,,,,,,,,,,,,,407.46472520008683,407.8663687000517,407.849380900152,407.949526200071,408.3500161000993,None,left,1,0.5939875000622123,408.3500161000993,None,407.849380900152,407.949526200071,407.949526200071,None,408.96691600000486,None,,,,,,,11028,001,2024_Jan_10_1421,ANT,2021.2.3,60.349447431544704,
1,22,spatial,down,C,R,,,,,,Block.xlsx,"你已经完成了整个实验（三个区组）。

请报告实验者已完成实验

非常感谢，再见！",-1.5,0,-1.5,right,RRRRR.png,,,,,0,1,1,1,1,22,46,21,,,,,,,,,,,,,,,,,,,,,,,,,,,,,,,,,,,,,,,,,,,,,,,,,,,,,,,,,,,,,,,,409.36724609998055,409.76811960013583,409.7512261001393,409.85224979999475,410.25193210016005,None,right,1,0.49228399991989136,410.25193210016005,None,409.7512261001393,409.85224979999475,409.85224979999475,None,410.7696659001522,None,,,,,,,11028,001,2024_Jan_10_1421,ANT,2021.2.3,60.349447431544704,
1,18,spatial,up,C,R,,,,,,Block.xlsx,"你已经完成了整个实验（三个区组）。

请报告实验者已完成实验

非常感谢，再见！",1.5,0,1.5,right,RRRRR.png,,,,,0,1,1,1,1,23,47,17,,,,,,,,,,,,,,,,,,,,,,,,,,,,,,,,,,,,,,,,,,,,,,,,,,,,,,,,,,,,,,,,411.169954800047,411.5716339999344,411.5543436000589,411.65500929998234,412.0554978,None,right,1,0.4658636001404375,412.0554978,None,411.5543436000589,411.65500929998234,411.65500929998234,None,412.5388011999894,None,,,,,,,11028,001,2024_Jan_10_1421,ANT,2021.2.3,60.349447431544704,
1,18,spatial,up,C,R,,,,,,Block.xlsx,"你已经完成了整个实验（三个区组）。

请报告实验者已完成实验

非常感谢，再见！",1.5,0,1.5,right,RRRRR.png,,,,,0,1,1,1,2,0,48,17,,,,,,,,,,,,,,,,,,,,,,,,,,,,,,,,,,,,,,,,,,,,,,,,,,,,,,,,,,,,,,,,412.93992849998176,413.3424502001144,413.3237099000253,413.4238933001179,413.82470729993656,None,right,1,0.4152905000373721,413.82470729993656,None,413.3237099000253,413.4238933001179,413.4238933001179,None,414.257998800138,None,,,,,,,11028,001,2024_Jan_10_1421,ANT,2021.2.3,60.349447431544704,
1,4,no,up,IC,R,,,,,,Block.xlsx,"你已经完成了整个实验（三个区组）。

请报告实验者已完成实验

非常感谢，再见！",50,0,1.5,right,LLRLL.png,,,,,0,1,1,1,2,1,49,3,,,,,,,,,,,,,,,,,,,,,,,,,,,,,,,,,,,,,,,,,,,,,,,,,,,,,,,,,,,,,,,,414.65863319998607,415.0624470000621,415.0437523999717,415.1593671001028,415.5439846999943,None,right,1,0.3759405999444425,415.5439846999943,None,415.0437523999717,415.1593671001028,415.1439149000216,None,415.9441917000804,None,,,,,,,11028,001,2024_Jan_10_1421,ANT,2021.2.3,60.349447431544704,
1,6,no,down,C,R,,,,,,Block.xlsx,"你已经完成了整个实验（三个区组）。

请报告实验者已完成实验

非常感谢，再见！",50,0,-1.5,right,RRRRR.png,,,,,0,1,1,1,2,2,50,5,,,,,,,,,,,,,,,,,,,,,,,,,,,,,,,,,,,,,,,,,,,,,,,,,,,,,,,,,,,,,,,,416.344362200005,416.74508120003156,416.72831599996425,416.82906870008446,417.2289919999894,None,right,1,0.49102050019428134,417.2289919999894,None,416.72831599996425,416.82906870008446,416.82906870008446,None,417.746507700067,None,,,,,,,11028,001,2024_Jan_10_1421,ANT,2021.2.3,60.349447431544704,
1,1,no,up,C,L,,,,,,Block.xlsx,"你已经完成了整个实验（三个区组）。

请报告实验者已完成实验

非常感谢，再见！",50,0,1.5,left,LLLLL.png,,,,,0,1,1,1,2,3,51,0,,,,,,,,,,,,,,,,,,,,,,,,,,,,,,,,,,,,,,,,,,,,,,,,,,,,,,,,,,,,,,,,418.1471138999332,418.54819440003484,418.5319114001468,418.6324945001397,419.03265610011294,None,left,1,0.5433298998977989,419.03265610011294,None,418.5319114001468,418.6324945001397,418.6324945001397,None,419.5995422000997,None,,,,,,,11028,001,2024_Jan_10_1421,ANT,2021.2.3,60.349447431544704,
1,7,no,down,IC,L,,,,,,Block.xlsx,"你已经完成了整个实验（三个区组）。

请报告实验者已完成实验

非常感谢，再见！",50,0,-1.5,left,RRLRR.png,,,,,0,1,1,1,2,4,52,6,,,,,,,,,,,,,,,,,,,,,,,,,,,,,,,,,,,,,,,,,,,,,,,,,,,,,,,,,,,,,,,,419.9996495000087,420.4006664000917,420.3848950001411,420.483978100121,420.8847479999531,None,right,0,0.46759429993107915,420.8847479999531,None,420.3848950001411,420.483978100121,420.483978100121,None,421.3685175999999,None,,,,,,,11028,001,2024_Jan_10_1421,ANT,2021.2.3,60.349447431544704,
1,15,center,down,IC,L,,,,,,Block.xlsx,"你已经完成了整个实验（三个区组）。

请报告实验者已完成实验

非常感谢，再见！",0,50,-1.5,left,RRLRR.png,,,,,0,1,1,1,2,5,53,14,,,,,,,,,,,,,,,,,,,,,,,,,,,,,,,,,,,,,,,,,,,,,,,,,,,,,,,,,,,,,,,,421.76959270006046,422.16977449995466,422.1528874000069,422.2531231001485,422.6545849000104,None,right,0,0.4654337000101805,422.6545849000104,None,422.1528874000069,422.2531231001485,422.2531231001485,None,423.13769809994847,None,,,,,,,11028,001,2024_Jan_10_1421,ANT,2021.2.3,60.349447431544704,
1,13,center,down,C,L,,,,,,Block.xlsx,"你已经完成了整个实验（三个区组）。

请报告实验者已完成实验

非常感谢，再见！",0,50,-1.5,left,LLLLL.png,,,,,0,1,1,1,2,6,54,12,,,,,,,,,,,,,,,,,,,,,,,,,,,,,,,,,,,,,,,,,,,,,,,,,,,,,,,,,,,,,,,,423.53858920000494,423.93990500015207,423.922333399998,424.02361130015925,424.42323480010964,None,left,1,0.5048066999297589,424.42323480010964,None,423.922333399998,424.02361130015925,424.02361130015925,None,424.9569509001449,None,,,,,,,11028,001,2024_Jan_10_1421,ANT,2021.2.3,60.349447431544704,
1,17,spatial,up,C,L,,,,,,Block.xlsx,"你已经完成了整个实验（三个区组）。

请报告实验者已完成实验

非常感谢，再见！",1.5,0,1.5,left,LLLLL.png,,,,,0,1,1,1,2,7,55,16,,,,,,,,,,,,,,,,,,,,,,,,,,,,,,,,,,,,,,,,,,,,,,,,,,,,,,,,,,,,,,,,425.35783799993806,425.75974499993026,425.74227620009333,425.8430647000205,426.2424147001002,None,left,1,0.3978229998610914,426.2424147001002,None,425.74227620009333,425.8430647000205,425.8430647000205,None,426.65989560005255,None,,,,,,,11028,001,2024_Jan_10_1421,ANT,2021.2.3,60.349447431544704,
1,11,center,up,IC,L,,,,,,Block.xlsx,"你已经完成了整个实验（三个区组）。

请报告实验者已完成实验

非常感谢，再见！",0,50,1.5,left,RRLRR.png,,,,,0,1,1,1,2,8,56,10,,,,,,,,,,,,,,,,,,,,,,,,,,,,,,,,,,,,,,,,,,,,,,,,,,,,,,,,,,,,,,,,427.0605236000847,427.46133300010115,427.4443239001557,427.5448811999522,427.9448725001421,None,left,1,0.5272205001674592,427.9448725001421,None,427.4443239001557,427.5448811999522,427.5448811999522,None,428.495761499973,None,,,,,,,11028,001,2024_Jan_10_1421,ANT,2021.2.3,60.349447431544704,
1,1,no,up,C,L,,,,,,Block.xlsx,"你已经完成了整个实验（三个区组）。

请报告实验者已完成实验

非常感谢，再见！",50,0,1.5,left,LLLLL.png,,,,,0,1,1,1,2,9,57,0,,,,,,,,,,,,,,,,,,,,,,,,,,,,,,,,,,,,,,,,,,,,,,,,,,,,,,,,,,,,,,,,428.8968057001475,429.2976600001566,429.28137740003876,429.3803000000771,429.78101729997434,None,left,1,0.4908322000410408,429.78101729997434,None,429.28137740003876,429.3803000000771,429.3803000000771,None,430.2982485999819,None,,,,,,,11028,001,2024_Jan_10_1421,ANT,2021.2.3,60.349447431544704,
1,24,spatial,down,IC,R,,,,,,Block.xlsx,"你已经完成了整个实验（三个区组）。

请报告实验者已完成实验

非常感谢，再见！",-1.5,0,-1.5,right,LLRLL.png,,,,,0,1,1,1,2,10,58,23,,,,,,,,,,,,,,,,,,,,,,,,,,,,,,,,,,,,,,,,,,,,,,,,,,,,,,,,,,,,,,,,430.6988826999441,431.0997002001386,431.0841900999658,431.1828849001322,431.5840312000364,None,right,1,0.5280689999926835,431.5840312000364,None,431.0841900999658,431.1828849001322,431.1828849001322,None,432.13464000006206,None,,,,,,,11028,001,2024_Jan_10_1421,ANT,2021.2.3,60.349447431544704,
1,6,no,down,C,R,,,,,,Block.xlsx,"你已经完成了整个实验（三个区组）。

请报告实验者已完成实验

非常感谢，再见！",50,0,-1.5,right,RRRRR.png,,,,,0,1,1,1,2,11,59,5,,,,,,,,,,,,,,,,,,,,,,,,,,,,,,,,,,,,,,,,,,,,,,,,,,,,,,,,,,,,,,,,432.53549950011075,432.9368757000193,432.9191835001111,433.0205988001544,433.4203369000461,None,right,1,0.38832279993221164,433.4203369000461,None,432.9191835001111,433.0205988001544,433.0205988001544,None,433.8369315001182,None,,,,,,,11028,001,2024_Jan_10_1421,ANT,2021.2.3,60.349447431544704,
1,16,center,down,IC,R,,,,,,Block.xlsx,"你已经完成了整个实验（三个区组）。

请报告实验者已完成实验

非常感谢，再见！",0,50,-1.5,right,LLRLL.png,,,,,0,1,1,1,2,12,60,15,,,,,,,,,,,,,,,,,,,,,,,,,,,,,,,,,,,,,,,,,,,,,,,,,,,,,,,,,,,,,,,,434.23759389994666,434.6382740000263,434.6234125001356,434.73908630013466,435.1223472999409,None,right,1,0.4776477999985218,435.1223472999409,None,434.6234125001356,434.73908630013466,434.72162150009535,None,435.6229274000507,None,,,,,,,11028,001,2024_Jan_10_1421,ANT,2021.2.3,60.349447431544704,
1,14,center,down,C,R,,,,,,Block.xlsx,"你已经完成了整个实验（三个区组）。

请报告实验者已完成实验

非常感谢，再见！",0,50,-1.5,right,RRRRR.png,,,,,0,1,1,1,2,13,61,13,,,,,,,,,,,,,,,,,,,,,,,,,,,,,,,,,,,,,,,,,,,,,,,,,,,,,,,,,,,,,,,,436.0235810999293,436.4241862001363,436.4084799999837,436.5097131000366,436.90938169998117,None,right,1,0.4110330000985414,436.90938169998117,None,436.4084799999837,436.5097131000366,436.5097131000366,None,437.34255459997803,None,,,,,,,11028,001,2024_Jan_10_1421,ANT,2021.2.3,60.349447431544704,
1,6,no,down,C,R,,,,,,Block.xlsx,"你已经完成了整个实验（三个区组）。

请报告实验者已完成实验

非常感谢，再见！",50,0,-1.5,right,RRRRR.png,,,,,0,1,1,1,2,14,62,5,,,,,,,,,,,,,,,,,,,,,,,,,,,,,,,,,,,,,,,,,,,,,,,,,,,,,,,,,,,,,,,,437.7427880000323,438.1452230999712,438.1269418001175,438.2272618999705,438.62796179996803,None,right,1,0.4601634999271482,438.62796179996803,None,438.1269418001175,438.2272618999705,438.2272618999705,None,439.11137200007215,None,,,,,,,11028,001,2024_Jan_10_1421,ANT,2021.2.3,60.349447431544704,
1,14,center,down,C,R,,,,,,Block.xlsx,"你已经完成了整个实验（三个区组）。

请报告实验者已完成实验

非常感谢，再见！",0,50,-1.5,right,RRRRR.png,,,,,0,1,1,1,2,15,63,13,,,,,,,,,,,,,,,,,,,,,,,,,,,,,,,,,,,,,,,,,,,,,,,,,,,,,,,,,,,,,,,,439.5123465999495,439.913526999997,439.8959993000608,439.99661700008437,440.3989572999999,None,right,1,0.41699930001050234,440.3989572999999,None,439.8959993000608,439.99661700008437,439.99661700008437,None,440.8480456001125,None,,,,,,,11028,001,2024_Jan_10_1421,ANT,2021.2.3,60.349447431544704,
1,8,no,down,IC,R,,,,,,Block.xlsx,"你已经完成了整个实验（三个区组）。

请报告实验者已完成实验

非常感谢，再见！",50,0,-1.5,right,LLRLL.png,,,,,0,1,1,1,2,16,64,7,,,,,,,,,,,,,,,,,,,,,,,,,,,,,,,,,,,,,,,,,,,,,,,,,,,,,,,,,,,,,,,,441.2480329000391,441.64892690000124,441.63315810007043,441.7323630999308,442.13354329997674,None,right,1,0.46666140016168356,442.13354329997674,None,441.63315810007043,441.7323630999308,441.7323630999308,None,442.61658040015027,None,,,,,,,11028,001,2024_Jan_10_1421,ANT,2021.2.3,60.349447431544704,
1,22,spatial,down,C,R,,,,,,Block.xlsx,"你已经完成了整个实验（三个区组）。

请报告实验者已完成实验

非常感谢，再见！",-1.5,0,-1.5,right,RRRRR.png,,,,,0,1,1,1,2,17,65,21,,,,,,,,,,,,,,,,,,,,,,,,,,,,,,,,,,,,,,,,,,,,,,,,,,,,,,,,,,,,,,,,443.01720470003784,443.41844990011305,443.40182960010134,443.50256930012256,443.90249140001833,None,right,1,0.3299569000955671,443.90249140001833,None,443.40182960010134,443.50256930012256,443.50256930012256,None,444.25234480015934,None,,,,,,,11028,001,2024_Jan_10_1421,ANT,2021.2.3,60.349447431544704,
1,12,center,up,IC,R,,,,,,Block.xlsx,"你已经完成了整个实验（三个区组）。

请报告实验者已完成实验

非常感谢，再见！",0,50,1.5,right,LLRLL.png,,,,,0,1,1,1,2,18,66,11,,,,,,,,,,,,,,,,,,,,,,,,,,,,,,,,,,,,,,,,,,,,,,,,,,,,,,,,,,,,,,,,444.653234800091,445.05530779995024,445.03731760010123,445.1380694000982,445.53764250013046,None,left,0,0.446191200055182,445.53764250013046,None,445.03731760010123,445.1380694000982,445.1380694000982,None,446.0050280999858,None,,,,,,,11028,001,2024_Jan_10_1421,ANT,2021.2.3,60.349447431544704,
1,20,spatial,up,IC,R,,,,,,Block.xlsx,"你已经完成了整个实验（三个区组）。

请报告实验者已完成实验

非常感谢，再见！",1.5,0,1.5,right,LLRLL.png,,,,,0,1,1,1,2,19,67,19,,,,,,,,,,,,,,,,,,,,,,,,,,,,,,,,,,,,,,,,,,,,,,,,,,,,,,,,,,,,,,,,446.4054143000394,446.8068290001247,446.7908384001348,446.88959000003524,447.29084259993397,None,right,1,0.35710340016521513,447.29084259993397,None,446.7908384001348,446.88959000003524,446.88959000003524,None,447.67416230007075,None,,,,,,,11028,001,2024_Jan_10_1421,ANT,2021.2.3,60.349447431544704,
1,22,spatial,down,C,R,,,,,,Block.xlsx,"你已经完成了整个实验（三个区组）。

请报告实验者已完成实验

非常感谢，再见！",-1.5,0,-1.5,right,RRRRR.png,,,,,0,1,1,1,2,20,68,21,,,,,,,,,,,,,,,,,,,,,,,,,,,,,,,,,,,,,,,,,,,,,,,,,,,,,,,,,,,,,,,,448.0745839001611,448.4767666000407,448.45894340006635,448.55948910000734,448.96014680014923,None,right,1,0.31181580014526844,448.96014680014923,None,448.45894340006635,448.55948910000734,448.55948910000734,None,449.2932696000207,None,,,,,,,11028,001,2024_Jan_10_1421,ANT,2021.2.3,60.349447431544704,
1,17,spatial,up,C,L,,,,,,Block.xlsx,"你已经完成了整个实验（三个区组）。

请报告实验者已完成实验

非常感谢，再见！",1.5,0,1.5,left,LLLLL.png,,,,,0,1,1,1,2,21,69,16,,,,,,,,,,,,,,,,,,,,,,,,,,,,,,,,,,,,,,,,,,,,,,,,,,,,,,,,,,,,,,,,449.69389220001176,450.09423010004684,450.0786192000378,450.17793989996426,450.57927230000496,None,left,1,0.4927723999135196,450.57927230000496,None,450.0786192000378,450.17793989996426,450.17793989996426,None,451.095816800138,None,,,,,,,11028,001,2024_Jan_10_1421,ANT,2021.2.3,60.349447431544704,
1,12,center,up,IC,R,,,,,,Block.xlsx,"你已经完成了整个实验（三个区组）。

请报告实验者已完成实验

非常感谢，再见！",0,50,1.5,right,LLRLL.png,,,,,0,1,1,1,2,22,70,11,,,,,,,,,,,,,,,,,,,,,,,,,,,,,,,,,,,,,,,,,,,,,,,,,,,,,,,,,,,,,,,,451.49694510013796,451.89803269994445,451.88035660004243,451.9818820001092,452.38369669998065,None,right,1,0.5761409001424909,452.38369669998065,None,451.88035660004243,451.9818820001092,451.9818820001092,None,452.98198599996977,None,,,,,,,11028,001,2024_Jan_10_1421,ANT,2021.2.3,60.349447431544704,
1,21,spatial,down,C,L,,,,,,Block.xlsx,"你已经完成了整个实验（三个区组）。

请报告实验者已完成实验

非常感谢，再见！",-1.5,0,-1.5,left,LLLLL.png,,,,,0,1,1,1,2,23,71,20,,,,,,,,,,,,,,,,,,,,,,,,,,,,,,,,,,,,,,,,,,,,,,,,,,,,,,,,,,,,,,,,453.38256660010666,453.7840843000449,453.76663880003616,453.8683327001054,454.26815470005386,None,left,1,0.4439805999863893,454.26815470005386,None,453.76663880003616,453.8683327001054,453.8683327001054,None,454.7349295001477,None,,,,,,,11028,001,2024_Jan_10_1421,ANT,2021.2.3,60.349447431544704,
1,20,spatial,up,IC,R,,,,,,Block.xlsx,"你已经完成了整个实验（三个区组）。

请报告实验者已完成实验

非常感谢，再见！",1.5,0,1.5,right,LLRLL.png,,,,,0,1,1,1,3,0,72,19,,,,,,,,,,,,,,,,,,,,,,,,,,,,,,,,,,,,,,,,,,,,,,,,,,,,,,,,,,,,,,,,455.1353684000205,455.5370565999765,455.5198012001347,455.6191800001543,456.021383699961,None,right,1,0.4989917001221329,456.021383699961,None,455.5198012001347,455.6191800001543,455.6191800001543,None,456.53722420008853,None,,,,,,,11028,001,2024_Jan_10_1421,ANT,2021.2.3,60.349447431544704,
1,19,spatial,up,IC,L,,,,,,Block.xlsx,"你已经完成了整个实验（三个区组）。

请报告实验者已完成实验

非常感谢，再见！",1.5,0,1.5,left,RRLRR.png,,,,,0,1,1,1,3,1,73,18,,,,,,,,,,,,,,,,,,,,,,,,,,,,,,,,,,,,,,,,,,,,,,,,,,,,,,,,,,,,,,,,456.9381536000874,457.3389364001341,457.3231065000873,457.423095599981,457.8237141999416,None,left,1,0.4806473001372069,457.8237141999416,None,457.3231065000873,457.423095599981,457.423095599981,None,458.3231164999306,None,,,,,,,11028,001,2024_Jan_10_1421,ANT,2021.2.3,60.349447431544704,
1,23,spatial,down,IC,L,,,,,,Block.xlsx,"你已经完成了整个实验（三个区组）。

请报告实验者已完成实验

非常感谢，再见！",-1.5,0,-1.5,left,RRLRR.png,,,,,0,1,1,1,3,2,74,22,,,,,,,,,,,,,,,,,,,,,,,,,,,,,,,,,,,,,,,,,,,,,,,,,,,,,,,,,,,,,,,,458.7239176000003,459.1263493001461,459.10820470005274,459.20827120007016,459.6083190999925,None,left,1,0.5357492999173701,459.6083190999925,None,459.10820470005274,459.20827120007016,459.20827120007016,None,460.1591483000666,None,,,,,,,11028,001,2024_Jan_10_1421,ANT,2021.2.3,60.349447431544704,
1,7,no,down,IC,L,,,,,,Block.xlsx,"你已经完成了整个实验（三个区组）。

请报告实验者已完成实验

非常感谢，再见！",50,0,-1.5,left,RRLRR.png,,,,,0,1,1,1,3,3,75,6,,,,,,,,,,,,,,,,,,,,,,,,,,,,,,,,,,,,,,,,,,,,,,,,,,,,,,,,,,,,,,,,460.5604024999775,460.96053220005706,460.94529239996336,461.0613836001139,461.4456991001498,None,left,1,0.5146882000844926,461.4456991001498,None,460.94529239996336,461.0613836001139,461.0449248999357,None,461.97872120002285,None,,,,,,,11028,001,2024_Jan_10_1421,ANT,2021.2.3,60.349447431544704,
1,20,spatial,up,IC,R,,,,,,Block.xlsx,"你已经完成了整个实验（三个区组）。

请报告实验者已完成实验

非常感谢，再见！",1.5,0,1.5,right,LLRLL.png,,,,,0,1,1,1,3,4,76,19,,,,,,,,,,,,,,,,,,,,,,,,,,,,,,,,,,,,,,,,,,,,,,,,,,,,,,,,,,,,,,,,462.3795837000944,462.7805385000538,462.765104399994,462.86342760012485,463.265498700086,None,right,1,0.48681199993006885,463.265498700086,None,462.765104399994,462.86342760012485,462.86342760012485,None,463.781335900072,None,,,,,,,11028,001,2024_Jan_10_1421,ANT,2021.2.3,60.349447431544704,
1,10,center,up,C,R,,,,,,Block.xlsx,"你已经完成了整个实验（三个区组）。

请报告实验者已完成实验

非常感谢，再见！",0,50,1.5,right,RRRRR.png,,,,,0,1,1,1,3,5,77,9,,,,,,,,,,,,,,,,,,,,,,,,,,,,,,,,,,,,,,,,,,,,,,,,,,,,,,,,,,,,,,,,464.18182629998773,464.5830318001099,464.5657761001494,464.6674925000407,465.06717559997924,None,right,1,0.38910480006597936,465.06717559997924,None,464.5657761001494,464.6674925000407,464.6674925000407,None,465.48367840005085,None,,,,,,,11028,001,2024_Jan_10_1421,ANT,2021.2.3,60.349447431544704,
1,5,no,down,C,L,,,,,,Block.xlsx,"你已经完成了整个实验（三个区组）。

请报告实验者已完成实验

非常感谢，再见！",50,0,-1.5,left,LLLLL.png,,,,,0,1,1,1,3,6,78,4,,,,,,,,,,,,,,,,,,,,,,,,,,,,,,,,,,,,,,,,,,,,,,,,,,,,,,,,,,,,,,,,465.8843823999632,466.2852968000807,466.270342099946,466.36859960015863,466.7703112999443,None,left,1,0.5183373000472784,466.7703112999443,None,466.270342099946,466.36859960015863,466.36859960015863,None,467.3199175000191,None,,,,,,,11028,001,2024_Jan_10_1421,ANT,2021.2.3,60.349447431544704,
1,3,no,up,IC,L,,,,,,Block.xlsx,"你已经完成了整个实验（三个区组）。

请报告实验者已完成实验

非常感谢，再见！",50,0,1.5,left,RRLRR.png,,,,,0,1,1,1,3,7,79,2,,,,,,,,,,,,,,,,,,,,,,,,,,,,,,,,,,,,,,,,,,,,,,,,,,,,,,,,,,,,,,,,467.7211257000454,468.12168839992955,468.1063965000212,468.22122019995004,468.60496230004355,None,left,1,0.39510659989900887,468.60496230004355,None,468.1063965000212,468.22122019995004,468.20709839998744,None,469.0224489001557,None,,,,,,,11028,001,2024_Jan_10_1421,ANT,2021.2.3,60.349447431544704,
1,24,spatial,down,IC,R,,,,,,Block.xlsx,"你已经完成了整个实验（三个区组）。

请报告实验者已完成实验

非常感谢，再见！",-1.5,0,-1.5,right,LLRLL.png,,,,,0,1,1,1,3,8,80,23,,,,,,,,,,,,,,,,,,,,,,,,,,,,,,,,,,,,,,,,,,,,,,,,,,,,,,,,,,,,,,,,469.4229886000976,469.82396579999477,469.80791840003803,469.90769769996405,470.3095273000654,None,right,1,0.5787613999564201,470.3095273000654,None,469.80791840003803,469.90769769996405,469.90769769996405,None,470.90900480002165,None,,,,,,,11028,001,2024_Jan_10_1421,ANT,2021.2.3,60.349447431544704,
1,17,spatial,up,C,L,,,,,,Block.xlsx,"你已经完成了整个实验（三个区组）。

请报告实验者已完成实验

非常感谢，再见！",1.5,0,1.5,left,LLLLL.png,,,,,0,1,1,1,3,9,81,16,,,,,,,,,,,,,,,,,,,,,,,,,,,,,,,,,,,,,,,,,,,,,,,,,,,,,,,,,,,,,,,,471.3097244000528,471.71078400011174,471.6932365000248,471.7937833999749,472.1946445000358,None,left,1,0.45324179995805025,472.1946445000358,None,471.6932365000248,471.7937833999749,471.7937833999749,None,472.6784353000112,None,,,,,,,11028,001,2024_Jan_10_1421,ANT,2021.2.3,60.349447431544704,
1,11,center,up,IC,L,,,,,,Block.xlsx,"你已经完成了整个实验（三个区组）。

请报告实验者已完成实验

非常感谢，再见！",0,50,1.5,left,RRLRR.png,,,,,0,1,1,1,3,10,82,10,,,,,,,,,,,,,,,,,,,,,,,,,,,,,,,,,,,,,,,,,,,,,,,,,,,,,,,,,,,,,,,,473.07839759998024,473.48082910012454,473.46295730001293,473.56241010013036,473.9630841000471,None,right,0,0.42923410004004836,473.9630841000471,None,473.46295730001293,473.56241010013036,473.56241010013036,None,474.4137445001397,None,,,,,,,11028,001,2024_Jan_10_1421,ANT,2021.2.3,60.349447431544704,
1,11,center,up,IC,L,,,,,,Block.xlsx,"你已经完成了整个实验（三个区组）。

请报告实验者已完成实验

非常感谢，再见！",0,50,1.5,left,RRLRR.png,,,,,0,1,1,1,3,11,83,10,,,,,,,,,,,,,,,,,,,,,,,,,,,,,,,,,,,,,,,,,,,,,,,,,,,,,,,,,,,,,,,,474.8144201000687,475.2163287999574,475.19897409994155,475.2988670000341,475.7013886999339,None,left,1,0.6426144998986274,475.7013886999339,None,475.19897409994155,475.2988670000341,475.2988670000341,None,476.3668851000257,None,,,,,,,11028,001,2024_Jan_10_1421,ANT,2021.2.3,60.349447431544704,
1,2,no,up,C,R,,,,,,Block.xlsx,"你已经完成了整个实验（三个区组）。

请报告实验者已完成实验

非常感谢，再见！",50,0,1.5,right,RRRRR.png,,,,,0,1,1,1,3,12,84,1,,,,,,,,,,,,,,,,,,,,,,,,,,,,,,,,,,,,,,,,,,,,,,,,,,,,,,,,,,,,,,,,476.76725669996813,477.16876829997636,477.1513233000878,477.25268879998475,477.6521846000105,None,right,1,0.691793599864468,477.6521846000105,None,477.1513233000878,477.25268879998475,477.25268879998475,None,478.36983470013365,None,,,,,,,11028,001,2024_Jan_10_1421,ANT,2021.2.3,60.349447431544704,
1,10,center,up,C,R,,,,,,Block.xlsx,"你已经完成了整个实验（三个区组）。

请报告实验者已完成实验

非常感谢，再见！",0,50,1.5,right,RRRRR.png,,,,,0,1,1,1,3,13,85,9,,,,,,,,,,,,,,,,,,,,,,,,,,,,,,,,,,,,,,,,,,,,,,,,,,,,,,,,,,,,,,,,478.7702707001008,479.17165179993026,479.15484500001185,479.2542731000576,479.6550380999688,None,right,1,0.45702519989572465,479.6550380999688,None,479.15484500001185,479.2542731000576,479.2542731000576,None,480.1390056000091,None,,,,,,,11028,001,2024_Jan_10_1421,ANT,2021.2.3,60.349447431544704,
1,3,no,up,IC,L,,,,,,Block.xlsx,"你已经完成了整个实验（三个区组）。

请报告实验者已完成实验

非常感谢，再见！",50,0,1.5,left,RRLRR.png,,,,,0,1,1,1,3,14,86,2,,,,,,,,,,,,,,,,,,,,,,,,,,,,,,,,,,,,,,,,,,,,,,,,,,,,,,,,,,,,,,,,480.5394697000738,480.93999450001866,480.92469600006007,481.0241964000743,481.42571780015714,None,left,1,0.7185906998347491,481.42571780015714,None,480.92469600006007,481.0241964000743,481.0241964000743,None,482.15866559999995,None,,,,,,,11028,001,2024_Jan_10_1421,ANT,2021.2.3,60.349447431544704,
1,10,center,up,C,R,,,,,,Block.xlsx,"你已经完成了整个实验（三个区组）。

请报告实验者已完成实验

非常感谢，再见！",0,50,1.5,right,RRRRR.png,,,,,0,1,1,1,3,15,87,9,,,,,,,,,,,,,,,,,,,,,,,,,,,,,,,,,,,,,,,,,,,,,,,,,,,,,,,,,,,,,,,,482.5594029999338,482.96002180012874,482.9430807000026,483.04353699996136,483.4449863000773,None,right,1,0.6272879999596626,483.4449863000773,None,482.9430807000026,483.04353699996136,483.04353699996136,None,484.0957613000646,None,,,,,,,11028,001,2024_Jan_10_1421,ANT,2021.2.3,60.349447431544704,
1,12,center,up,IC,R,,,,,,Block.xlsx,"你已经完成了整个实验（三个区组）。

请报告实验者已完成实验

非常感谢，再见！",0,50,1.5,right,LLRLL.png,,,,,0,1,1,1,3,16,88,11,,,,,,,,,,,,,,,,,,,,,,,,,,,,,,,,,,,,,,,,,,,,,,,,,,,,,,,,,,,,,,,,484.49541790015064,484.8963826999534,484.8816821000073,484.9797545000911,485.3806350999512,None,right,1,0.6435022000223398,485.3806350999512,None,484.8816821000073,484.9797545000911,484.9797545000911,None,486.0476043999661,None,,,,,,,11028,001,2024_Jan_10_1421,ANT,2021.2.3,60.349447431544704,
1,1,no,up,C,L,,,,,,Block.xlsx,"你已经完成了整个实验（三个区组）。

请报告实验者已完成实验

非常感谢，再见！",50,0,1.5,left,LLLLL.png,,,,,0,1,1,1,3,17,89,0,,,,,,,,,,,,,,,,,,,,,,,,,,,,,,,,,,,,,,,,,,,,,,,,,,,,,,,,,,,,,,,,486.44839869998395,486.849290400045,486.833717700094,486.9335926999338,487.3344739000313,None,left,1,0.44146070000715554,487.3344739000313,None,486.833717700094,486.9335926999338,486.9335926999338,None,487.80032470007427,None,,,,,,,11028,001,2024_Jan_10_1421,ANT,2021.2.3,60.349447431544704,
1,24,spatial,down,IC,R,,,,,,Block.xlsx,"你已经完成了整个实验（三个区组）。

请报告实验者已完成实验

非常感谢，再见！",-1.5,0,-1.5,right,LLRLL.png,,,,,0,1,1,1,3,18,90,23,,,,,,,,,,,,,,,,,,,,,,,,,,,,,,,,,,,,,,,,,,,,,,,,,,,,,,,,,,,,,,,,488.2011806999799,488.6012693999801,488.5871673000511,488.68575760000385,489.0864822999574,None,right,1,0.5217836000956595,489.0864822999574,None,488.5871673000511,488.68575760000385,488.68575760000385,None,489.6364055001177,None,,,,,,,11028,001,2024_Jan_10_1421,ANT,2021.2.3,60.349447431544704,
1,12,center,up,IC,R,,,,,,Block.xlsx,"你已经完成了整个实验（三个区组）。

请报告实验者已完成实验

非常感谢，再见！",0,50,1.5,right,LLRLL.png,,,,,0,1,1,1,3,19,91,11,,,,,,,,,,,,,,,,,,,,,,,,,,,,,,,,,,,,,,,,,,,,,,,,,,,,,,,,,,,,,,,,490.037283499958,490.4388703999575,490.4210469999816,490.5224903000053,490.9216210001614,None,right,1,0.47061560000292957,490.9216210001614,None,490.4210469999816,490.5224903000053,490.5224903000053,None,491.4222870999947,None,,,,,,,11028,001,2024_Jan_10_1421,ANT,2021.2.3,60.349447431544704,
1,3,no,up,IC,L,,,,,,Block.xlsx,"你已经完成了整个实验（三个区组）。

请报告实验者已完成实验

