TrialType,TrialNumber,WarningType,TargetType,FlankerType,TargetDirection,W,f,Y,corr,imageFile,condition,endtext,Yw,Yf,Yt,Corr,imagefile,trials_3.thisRepN,trials_3.thisTrialN,trials_3.thisN,trials_3.thisIndex,trials_2.thisRepN,trials_2.thisTrialN,trials_2.thisN,trials_2.thisIndex,trials.thisRepN,trials.thisTrialN,trials.thisN,trials.thisIndex,instr.started,instr.stopped,key_resp.keys,key_resp.rt,key_resp.started,key_resp.stopped,image.started,image.stopped,key_resp_6.keys,key_resp_6.rt,key_resp_6.started,key_resp_6.stopped,EX_L.started,EX_L.stopped,AL.started,AL.stopped,key_resp_7.keys,key_resp_7.rt,key_resp_7.started,key_resp_7.stopped,EX_R.started,EX_R.stopped,RR.started,RR.stopped,key_resp_8.keys,key_resp_8.rt,key_resp_8.started,key_resp_8.stopped,image_2.started,image_2.stopped,key_resp_9.keys,key_resp_9.rt,key_resp_9.started,key_resp_9.stopped,image_3.started,image_3.stopped,key_resp_10.keys,key_resp_10.rt,key_resp_10.started,key_resp_10.stopped,fix.started,fix.stopped,war.started,war.stopped,tar.started,tar.stopped,key_resp_4.keys,key_resp_4.corr,key_resp_4.rt,key_resp_4.started,key_resp_4.stopped,fix2.started,fix2.stopped,fix_2.started,fix_2.stopped,Feedback.started,Feedback.stopped,key_resp_2.keys,key_resp_2.rt,key_resp_2.started,key_resp_2.stopped,text_5.started,text_5.stopped,fix2_1.started,fix2_1.stopped,Warn.started,Warn.stopped,Tar.started,Tar.stopped,key_resp_5.keys,key_resp_5.corr,key_resp_5.rt,key_resp_5.started,key_resp_5.stopped,Fix_2.started,Fix_2.stopped,fix2_2.started,fix2_2.stopped,text_4.started,text_4.stopped,key_resp_3.keys,key_resp_3.rt,key_resp_3.started,key_resp_3.stopped,text_3.started,text_3.stopped,participant,session,date,expName,psychopyVersion,frameRate,
,,,,,,,,,,,,,,,,,,,,,,,,,,,,,,8.94083470001351,None,space,30.32690960005857,8.94083470001351,None,,,,,,,,,,,,,,,,,,,,,,,,,,,,,,,,,,,,,,,,,,,,,,,,,,,,,,,,,,,,,,,,,,,,,,,,,,,,,,,,,11023,001,2024_Jan_07_1021,ANT,2021.2.3,59.883179909378406,
,,,,,,,,,,,,,,,,,,,,,,,,,,,,,,,,,,,,39.285666099982336,None,space,17.054024699958973,39.285666099982336,None,,,,,,,,,,,,,,,,,,,,,,,,,,,,,,,,,,,,,,,,,,,,,,,,,,,,,,,,,,,,,,,,,,,,,,,,,,,11023,001,2024_Jan_07_1021,ANT,2021.2.3,59.883179909378406,
,,,,,,,,,,,,,,,,,,,,,,,,,,,,,,,,,,,,,,,,,,56.360935600008816,None,56.360935600008816,None,left,1.4423107999609783,56.360935600008816,None,,,,,,,,,,,,,,,,,,,,,,,,,,,,,,,,,,,,,,,,,,,,,,,,,,,,,,,,,,,,,,,,,,,11023,001,2024_Jan_07_1021,ANT,2021.2.3,59.883179909378406,
,,,,,,,,,,,,,,,,,,,,,,,,,,,,,,,,,,,,,,,,,,,,,,,,,,57.82990310003515,None,57.82990310003515,None,right,0.9413942999672145,57.82990310003515,None,,,,,,,,,,,,,,,,,,,,,,,,,,,,,,,,,,,,,,,,,,,,,,,,,,,,,,,,,,,11023,001,2024_Jan_07_1021,ANT,2021.2.3,59.883179909378406,
,,,,,,,,,,,,,,,,,,,,,,,,,,,,,,,,,,,,,,,,,,,,,,,,,,,,,,,,,,58.797721400042064,None,space,46.64573360001668,58.797721400042064,None,,,,,,,,,,,,,,,,,,,,,,,,,,,,,,,,,,,,,,,,,,,,,,,,,,,,,11023,001,2024_Jan_07_1021,ANT,2021.2.3,59.883179909378406,
,,,,,,,,,,,,,,,,,,,,,,,,,,,,,,,,,,,,,,,,,,,,,,,,,,,,,,,,,,,,,,,,105.466994300019,None,space,15.200840699952096,105.466994300019,None,,,,,,,,,,,,,,,,,,,,,,,,,,,,,,,,,,,,,,,,,,,,,,,11023,001,2024_Jan_07_1021,ANT,2021.2.3,59.883179909378406,
0,4,no,down,IC,L,50,0,-1.5,left,RRLRR.png,,,,,,,,0,0,0,3,,,,,,,,,,,,,,,,,,,,,,,,,,,,,,,,,,,,,,,,,,,,,,,,,120.75598999997601,121.15764130000025,121.14237919996958,121.25902060000226,121.64211560005788,None,left,1,0.9531836000969633,121.64211560005788,None,121.14237919996958,121.25902060000226,121.2412486000685,None,122.64286260004155,None,,,,,,,,,,,,,,,,,,,,,,,,,,,,,,11023,001,2024_Jan_07_1021,ANT,2021.2.3,59.883179909378406,
0,7,center,down,C,R,0,50,-1.5,right,RRRRR.png,,,,,,,,0,1,1,6,,,,,,,,,,,,,,,,,,,,,,,,,,,,,,,,,,,,,,,,,,,,,,,,,124.64571790001355,125.04738500004169,125.02940150001086,125.13112410006579,125.53013259998988,None,right,1,0.713825499988161,125.53013259998988,None,125.02940150001086,125.13112410006579,125.13112410006579,None,126.26445070002228,None,,,,,,,,,,,,,,,,,,,,,,,,,,,,,,11023,001,2024_Jan_07_1021,ANT,2021.2.3,59.883179909378406,
0,3,no,down,C,R,50,0,-1.5,right,RRRRR.png,,,,,,,,0,2,2,2,,,,,,,,,,,,,,,,,,,,,,,,,,,,,,,,,,,,,,,,,,,,,,,,,128.26857070007827,128.6689849999966,128.65344200003892,128.76873860007618,129.15288469998632,None,right,1,0.6106621000217274,129.15288469998632,None,128.65344200003892,128.76873860007618,128.75330430001486,None,129.78658950002864,None,,,,,,,,,,,,,,,,,,,,,,,,,,,,,,11023,001,2024_Jan_07_1021,ANT,2021.2.3,59.883179909378406,
0,1,no,up,C,L,50,0,1.5,left,LLLLL.png,,,,,,,,0,3,3,0,,,,,,,,,,,,,,,,,,,,,,,,,,,,,,,,,,,,,,,,,,,,,,,,,131.78946370002814,132.19193049997557,132.17355249996763,132.27422390005086,132.6757132000057,None,left,1,0.7358338000485674,132.6757132000057,None,132.17355249996763,132.27422390005086,132.27422390005086,None,133.44165920000523,None,,,,,,,,,,,,,,,,,,,,,,,,,,,,,,11023,001,2024_Jan_07_1021,ANT,2021.2.3,59.883179909378406,
0,5,center,up,C,L,0,50,1.5,left,LLLLL.png,,,,,,,,0,4,4,4,,,,,,,,,,,,,,,,,,,,,,,,,,,,,,,,,,,,,,,,,,,,,,,,,135.4447260000743,135.84621760004666,135.82982129999436,135.92944159999024,136.33162780001294,None,left,1,0.6161069999216124,136.33162780001294,None,135.82982129999436,135.92944159999024,135.92944159999024,None,136.96387550001964,None,,,,,,,,,,,,,,,,,,,,,,,,,,,,,,11023,001,2024_Jan_07_1021,ANT,2021.2.3,59.883179909378406,
0,9,spatial,up,C,R,1.5,0,1.5,right,RRRRR.png,,,,,,,,0,5,5,8,,,,,,,,,,,,,,,,,,,,,,,,,,,,,,,,,,,,,,,,,,,,,,,,,138.96673119999468,139.3689731999766,139.3506561999675,139.45325450005475,139.85254790005274,None,right,1,0.6394328000023961,139.85254790005274,None,139.3506561999675,139.45325450005475,139.45325450005475,None,140.51900229998864,None,,,,,,,,,,,,,,,,,,,,,,,,,,,,,,11023,001,2024_Jan_07_1021,ANT,2021.2.3,59.883179909378406,
0,12,spatial,down,IC,R,-1.5,0,-1.5,right,LLRLL.png,,,,,,,,0,6,6,11,,,,,,,,,,,,,,,,,,,,,,,,,,,,,,,,,,,,,,,,,,,,,,,,,142.52205420006067,142.922737600049,142.907918300014,143.00720870005898,143.407928599976,None,right,1,0.7641323999268934,143.407928599976,None,142.907918300014,143.00720870005898,143.00720870005898,None,144.19167830003425,None,,,,,,,,,,,,,,,,,,,,,,,,,,,,,,11023,001,2024_Jan_07_1021,ANT,2021.2.3,59.883179909378406,
0,8,center,down,IC,L,0,50,-1.5,left,RRLRR.png,,,,,,,,0,7,7,7,,,,,,,,,,,,,,,,,,,,,,,,,,,,,,,,,,,,,,,,,,,,,,,,,146.194977200008,146.59551380004268,146.57893860002514,146.68093530007172,147.07947410002816,None,left,1,0.7958652999950573,147.07947410002816,None,146.57893860002514,146.68093530007172,146.68093530007172,None,147.89668999996502,None,,,,,,,,,,,,,,,,,,,,,,,,,,,,,,11023,001,2024_Jan_07_1021,ANT,2021.2.3,59.883179909378406,
0,2,no,up,IC,R,50,0,1.5,right,LLRLL.png,,,,,,,,0,8,8,1,,,,,,,,,,,,,,,,,,,,,,,,,,,,,,,,,,,,,,,,,,,,,,,,,149.90042339998763,150.30021859996486,150.28441720001865,150.3844063000288,150.7850618000375,None,right,1,0.6831224999623373,150.7850618000375,None,150.28441720001865,150.3844063000288,150.3844063000288,None,151.48535059997812,None,,,,,,,,,,,,,,,,,,,,,,,,,,,,,,11023,001,2024_Jan_07_1021,ANT,2021.2.3,59.883179909378406,
0,11,spatial,down,C,L,-1.5,0,-1.5,left,LLLLL.png,,,,,,,,0,9,9,10,,,,,,,,,,,,,,,,,,,,,,,,,,,,,,,,,,,,,,,,,,,,,,,,,153.48963720002212,153.88919620006345,153.87287229998037,153.97310070006642,154.37291839998215,None,left,1,0.5670867000008002,154.37291839998215,None,153.87287229998037,153.97310070006642,153.97310070006642,None,154.95702159998473,None,,,,,,,,,,,,,,,,,,,,,,,,,,,,,,11023,001,2024_Jan_07_1021,ANT,2021.2.3,59.883179909378406,
0,6,center,up,IC,R,0,50,1.5,right,LLRLL.png,,,,,,,,0,10,10,5,,,,,,,,,,,,,,,,,,,,,,,,,,,,,,,,,,,,,,,,,,,,,,,,,156.96001080004498,157.36105379997753,157.34390970005188,157.44498040003236,157.8450703000417,None,right,1,0.6547359999967739,157.8450703000417,None,157.34390970005188,157.44498040003236,157.44498040003236,None,158.52903900004458,None,,,,,,,,,,,,,,,,,,,,,,,,,,,,,,11023,001,2024_Jan_07_1021,ANT,2021.2.3,59.883179909378406,
0,10,spatial,up,IC,L,1.5,0,1.5,left,RRLRR.png,,,,,,,,0,11,11,9,,,,,,,,,,,,,,,,,,,,,,,,,,,,,,,,,,,,,,,,,,,,,,,,,160.53260090004187,160.93330470006913,160.9163855999941,161.01621410006192,161.4170379000716,None,left,1,0.570382299949415,161.4170379000716,None,160.9163855999941,161.01621410006192,161.01621410006192,None,162.01765769999474,None,,,,,,,,,,,,,,,,,,,,,,,,,,,,,,11023,001,2024_Jan_07_1021,ANT,2021.2.3,59.883179909378406,
,,,,,,,,,,,,,,,,,,,,,,,,,,,,,,,,,,,,,,,,,,,,,,,,,,,,,,,,,,,,,,,,,,,,,,,,,,,,,,,,,,,,,,,space,3.878326400066726,164.0213602000149,None,,,,,,,,,,,,,,,,,,,,,,,,,,11023,001,2024_Jan_07_1021,ANT,2021.2.3,59.883179909378406,
1,14,center,down,C,R,,,,,,Block.xlsx,"你已经完成了第一个实验区组

请稍作休息


点击空格键进入下一个区组。",0,50,-1.5,right,RRRRR.png,,,,,0,0,0,0,0,0,0,13,,,,,,,,,,,,,,,,,,,,,,,,,,,,,,,,,,,,,,,,,,,,,,,,,,,,,,,,,,,,,,164.0213602000149,None,167.96129979996476,168.36200610001106,168.3436262999894,168.44538100005593,168.8456290999893,None,right,1,0.557793999905698,168.8456290999893,None,168.3436262999894,168.44538100005593,168.44538100005593,None,169.428688300075,None,,,,,,,11023,001,2024_Jan_07_1021,ANT,2021.2.3,59.883179909378406,
1,16,center,down,IC,R,,,,,,Block.xlsx,"你已经完成了第一个实验区组

请稍作休息


点击空格键进入下一个区组。",0,50,-1.5,right,LLRLL.png,,,,,0,0,0,0,0,1,1,15,,,,,,,,,,,,,,,,,,,,,,,,,,,,,,,,,,,,,,,,,,,,,,,,,,,,,,,,,,,,,,,,169.82986579998396,170.230167599977,170.21361450001132,170.3144575000042,170.71569230000023,None,right,1,0.6324395999545231,170.71569230000023,None,170.21361450001132,170.3144575000042,170.3144575000042,None,171.3647640000563,None,,,,,,,11023,001,2024_Jan_07_1021,ANT,2021.2.3,59.883179909378406,
1,20,spatial,up,IC,R,,,,,,Block.xlsx,"你已经完成了第一个实验区组

请稍作休息


点击空格键进入下一个区组。",1.5,0,1.5,right,LLRLL.png,,,,,0,0,0,0,0,2,2,19,,,,,,,,,,,,,,,,,,,,,,,,,,,,,,,,,,,,,,,,,,,,,,,,,,,,,,,,,,,,,,,,171.76601010002196,172.1672971000662,172.1491811000742,172.250848100055,172.65197110001463,None,right,1,0.583725200034678,172.65197110001463,None,172.1491811000742,172.250848100055,172.250848100055,None,173.25103140005376,None,,,,,,,11023,001,2024_Jan_07_1021,ANT,2021.2.3,59.883179909378406,
1,15,center,down,IC,L,,,,,,Block.xlsx,"你已经完成了第一个实验区组

请稍作休息


点击空格键进入下一个区组。",0,50,-1.5,left,RRLRR.png,,,,,0,0,0,0,0,3,3,14,,,,,,,,,,,,,,,,,,,,,,,,,,,,,,,,,,,,,,,,,,,,,,,,,,,,,,,,,,,,,,,,173.65259179996792,174.05331970006227,174.03592100006063,174.13578330003656,174.53607899998315,None,left,1,0.6359849999425933,174.53607899998315,None,174.03592100006063,174.13578330003656,174.13578330003656,None,175.187089700019,None,,,,,,,11023,001,2024_Jan_07_1021,ANT,2021.2.3,59.883179909378406,
1,1,no,up,C,L,,,,,,Block.xlsx,"你已经完成了第一个实验区组

请稍作休息


点击空格键进入下一个区组。",50,0,1.5,left,LLLLL.png,,,,,0,0,0,0,0,4,4,0,,,,,,,,,,,,,,,,,,,,,,,,,,,,,,,,,,,,,,,,,,,,,,,,,,,,,,,,,,,,,,,,175.58844890003093,175.98908009997103,175.9722555000335,176.07238380005583,176.47413870005403,None,left,1,0.5373459999682382,176.47413870005403,None,175.9722555000335,176.07238380005583,176.07238380005583,None,177.04025690001436,None,,,,,,,11023,001,2024_Jan_07_1021,ANT,2021.2.3,59.883179909378406,
1,24,spatial,down,IC,R,,,,,,Block.xlsx,"你已经完成了第一个实验区组

请稍作休息


点击空格键进入下一个区组。",-1.5,0,-1.5,right,LLRLL.png,,,,,0,0,0,0,0,5,5,23,,,,,,,,,,,,,,,,,,,,,,,,,,,,,,,,,,,,,,,,,,,,,,,,,,,,,,,,,,,,,,,,177.4404099000385,177.84320300002582,177.82475270004943,177.9244377000723,178.32518929999787,None,right,1,0.5992705000098795,178.32518929999787,None,177.82475270004943,177.9244377000723,177.9244377000723,None,178.94237249996513,None,,,,,,,11023,001,2024_Jan_07_1021,ANT,2021.2.3,59.883179909378406,
1,2,no,up,C,R,,,,,,Block.xlsx,"你已经完成了第一个实验区组

请稍作休息


点击空格键进入下一个区组。",50,0,1.5,right,RRRRR.png,,,,,0,0,0,0,0,6,6,1,,,,,,,,,,,,,,,,,,,,,,,,,,,,,,,,,,,,,,,,,,,,,,,,,,,,,,,,,,,,,,,,179.34323070000391,179.7457930999808,179.72784349997528,179.82788060000166,180.2282158000162,None,right,1,0.5432247999124229,180.2282158000162,None,179.72784349997528,179.82788060000166,179.82788060000166,None,180.795573099982,None,,,,,,,11023,001,2024_Jan_07_1021,ANT,2021.2.3,59.883179909378406,
1,6,no,down,C,R,,,,,,Block.xlsx,"你已经完成了第一个实验区组

请稍作休息


点击空格键进入下一个区组。",50,0,-1.5,right,RRRRR.png,,,,,0,0,0,0,0,7,7,5,,,,,,,,,,,,,,,,,,,,,,,,,,,,,,,,,,,,,,,,,,,,,,,,,,,,,,,,,,,,,,,,181.1962438999908,181.5985595000675,181.58031990006566,181.68067290005274,182.08141920005437,None,right,1,0.41019240010064095,182.08141920005437,None,181.58031990006566,181.68067290005274,181.68067290005274,None,182.51515270001255,None,,,,,,,11023,001,2024_Jan_07_1021,ANT,2021.2.3,59.883179909378406,
1,2,no,up,C,R,,,,,,Block.xlsx,"你已经完成了第一个实验区组

请稍作休息


点击空格键进入下一个区组。",50,0,1.5,right,RRRRR.png,,,,,0,0,0,0,0,8,8,1,,,,,,,,,,,,,,,,,,,,,,,,,,,,,,,,,,,,,,,,,,,,,,,,,,,,,,,,,,,,,,,,182.915262500057,183.31570859998465,183.29919260006864,183.3999323999742,183.80064270005096,None,right,1,0.4429616000270471,183.80064270005096,None,183.29919260006864,183.3999323999742,183.3999323999742,None,184.26738049997948,None,,,,,,,11023,001,2024_Jan_07_1021,ANT,2021.2.3,59.883179909378406,
1,18,spatial,up,C,R,,,,,,Block.xlsx,"你已经完成了第一个实验区组

请稍作休息


点击空格键进入下一个区组。",1.5,0,1.5,right,RRRRR.png,,,,,0,0,0,0,0,9,9,17,,,,,,,,,,,,,,,,,,,,,,,,,,,,,,,,,,,,,,,,,,,,,,,,,,,,,,,,,,,,,,,,184.66782660002355,185.07013979996555,185.05245219997596,185.15255870006513,185.55331700004172,None,right,1,0.3542449000524357,185.55331700004172,None,185.05245219997596,185.15255870006513,185.15255870006513,None,185.9362301999936,None,,,,,,,11023,001,2024_Jan_07_1021,ANT,2021.2.3,59.883179909378406,
1,12,center,up,IC,R,,,,,,Block.xlsx,"你已经完成了第一个实验区组

请稍作休息


点击空格键进入下一个区组。",0,50,1.5,right,LLRLL.png,,,,,0,0,0,0,0,10,10,11,,,,,,,,,,,,,,,,,,,,,,,,,,,,,,,,,,,,,,,,,,,,,,,,,,,,,,,,,,,,,,,,186.337020499981,186.7383158999728,186.7214969000779,186.82194549997803,187.22414229996502,None,right,1,0.5553675999399275,187.22414229996502,None,186.7214969000779,186.82194549997803,186.82194549997803,None,187.80590619996656,None,,,,,,,11023,001,2024_Jan_07_1021,ANT,2021.2.3,59.883179909378406,
1,7,no,down,IC,L,,,,,,Block.xlsx,"你已经完成了第一个实验区组

请稍作休息


点击空格键进入下一个区组。",50,0,-1.5,left,RRLRR.png,,,,,0,0,0,0,0,11,11,6,,,,,,,,,,,,,,,,,,,,,,,,,,,,,,,,,,,,,,,,,,,,,,,,,,,,,,,,,,,,,,,,188.20636910002213,188.60783280001488,188.5903744000243,188.69201690005139,189.0910608000122,None,left,1,0.6805842999601737,189.0910608000122,None,188.5903744000243,188.69201690005139,188.69201690005139,None,189.7920427999925,None,,,,,,,11023,001,2024_Jan_07_1021,ANT,2021.2.3,59.883179909378406,
1,13,center,down,C,L,,,,,,Block.xlsx,"你已经完成了第一个实验区组

请稍作休息


点击空格键进入下一个区组。",0,50,-1.5,left,LLLLL.png,,,,,0,0,0,0,0,12,12,12,,,,,,,,,,,,,,,,,,,,,,,,,,,,,,,,,,,,,,,,,,,,,,,,,,,,,,,,,,,,,,,,190.1926867000293,190.59391900000628,190.57738100003917,190.67767420003656,191.07735380006488,None,left,1,0.47868519998155534,191.07735380006488,None,190.57738100003917,190.67767420003656,190.67767420003656,None,191.57792700000573,None,,,,,,,11023,001,2024_Jan_07_1021,ANT,2021.2.3,59.883179909378406,
1,18,spatial,up,C,R,,,,,,Block.xlsx,"你已经完成了第一个实验区组

请稍作休息


点击空格键进入下一个区组。",1.5,0,1.5,right,RRRRR.png,,,,,0,0,0,0,0,13,13,17,,,,,,,,,,,,,,,,,,,,,,,,,,,,,,,,,,,,,,,,,,,,,,,,,,,,,,,,,,,,,,,,191.97966820001602,192.37960400001612,192.3630871999776,192.4632337000221,192.86517700005788,None,right,1,0.36302940000314265,192.86517700005788,None,192.3630871999776,192.4632337000221,192.4632337000221,None,193.24712000007275,None,,,,,,,11023,001,2024_Jan_07_1021,ANT,2021.2.3,59.883179909378406,
1,22,spatial,down,C,R,,,,,,Block.xlsx,"你已经完成了第一个实验区组

请稍作休息


点击空格键进入下一个区组。",-1.5,0,-1.5,right,RRRRR.png,,,,,0,0,0,0,0,14,14,21,,,,,,,,,,,,,,,,,,,,,,,,,,,,,,,,,,,,,,,,,,,,,,,,,,,,,,,,,,,,,,,,193.6480850999942,194.0498113000067,194.03194180002902,194.13378979999106,194.5331412999658,None,right,1,0.4469287999672815,194.5331412999658,None,194.03194180002902,194.13378979999106,194.13378979999106,None,194.9997615000466,None,,,,,,,11023,001,2024_Jan_07_1021,ANT,2021.2.3,59.883179909378406,
1,13,center,down,C,L,,,,,,Block.xlsx,"你已经完成了第一个实验区组

请稍作休息


点击空格键进入下一个区组。",0,50,-1.5,left,LLLLL.png,,,,,0,0,0,0,0,15,15,12,,,,,,,,,,,,,,,,,,,,,,,,,,,,,,,,,,,,,,,,,,,,,,,,,,,,,,,,,,,,,,,,195.40129040007014,195.80303219996858,195.78505679999944,195.88576440000907,196.28559079999104,None,left,1,0.47789059998467565,196.28559079999104,None,195.78505679999944,195.88576440000907,195.88576440000907,None,196.78589940001257,None,,,,,,,11023,001,2024_Jan_07_1021,ANT,2021.2.3,59.883179909378406,
1,20,spatial,up,IC,R,,,,,,Block.xlsx,"你已经完成了第一个实验区组

请稍作休息


点击空格键进入下一个区组。",1.5,0,1.5,right,LLRLL.png,,,,,0,0,0,0,0,16,16,19,,,,,,,,,,,,,,,,,,,,,,,,,,,,,,,,,,,,,,,,,,,,,,,,,,,,,,,,,,,,,,,,197.18678640003782,197.58779150003102,197.57083870004863,197.67165889998432,198.07313939998858,None,right,1,0.38682609994430095,198.07313939998858,None,197.57083870004863,197.67165889998432,197.67165889998432,None,198.4891193000367,None,,,,,,,11023,001,2024_Jan_07_1021,ANT,2021.2.3,59.883179909378406,
1,16,center,down,IC,R,,,,,,Block.xlsx,"你已经完成了第一个实验区组

请稍作休息


点击空格键进入下一个区组。",0,50,-1.5,right,LLRLL.png,,,,,0,0,0,0,0,17,17,15,,,,,,,,,,,,,,,,,,,,,,,,,,,,,,,,,,,,,,,,,,,,,,,,,,,,,,,,,,,,,,,,198.8903676000191,199.29099550005049,199.27352070005145,199.3735576000763,199.7741423000116,None,right,1,0.5572999999858439,199.7741423000116,None,199.27352070005145,199.3735576000763,199.3735576000763,None,200.3580114999786,None,,,,,,,11023,001,2024_Jan_07_1021,ANT,2021.2.3,59.883179909378406,
1,23,spatial,down,IC,L,,,,,,Block.xlsx,"你已经完成了第一个实验区组

请稍作休息


点击空格键进入下一个区组。",-1.5,0,-1.5,left,RRLRR.png,,,,,0,0,0,0,0,18,18,22,,,,,,,,,,,,,,,,,,,,,,,,,,,,,,,,,,,,,,,,,,,,,,,,,,,,,,,,,,,,,,,,200.75821920007002,201.16026010003407,201.1421735000331,201.24293900001794,201.64406600000802,None,left,1,0.5838613999076188,201.64406600000802,None,201.1421735000331,201.24293900001794,201.24293900001794,None,202.24364950007293,None,,,,,,,11023,001,2024_Jan_07_1021,ANT,2021.2.3,59.883179909378406,
1,11,center,up,IC,L,,,,,,Block.xlsx,"你已经完成了第一个实验区组

请稍作休息


点击空格键进入下一个区组。",0,50,1.5,left,RRLRR.png,,,,,0,0,0,0,0,19,19,10,,,,,,,,,,,,,,,,,,,,,,,,,,,,,,,,,,,,,,,,,,,,,,,,,,,,,,,,,,,,,,,,202.64484189997893,203.04567789996509,203.02964940003585,203.12957720004488,203.52995780005585,None,left,1,0.6661215000785887,203.52995780005585,None,203.02964940003585,203.12957720004488,203.12957720004488,None,204.2141858000541,None,,,,,,,11023,001,2024_Jan_07_1021,ANT,2021.2.3,59.883179909378406,
1,22,spatial,down,C,R,,,,,,Block.xlsx,"你已经完成了第一个实验区组

请稍作休息


点击空格键进入下一个区组。",-1.5,0,-1.5,right,RRRRR.png,,,,,0,0,0,0,0,20,20,21,,,,,,,,,,,,,,,,,,,,,,,,,,,,,,,,,,,,,,,,,,,,,,,,,,,,,,,,,,,,,,,,204.61492670001462,205.01644779997878,204.99800969997887,205.09891950001474,205.4986117000226,None,right,1,0.42498560005333275,205.4986117000226,None,204.99800969997887,205.09891950001474,205.09891950001474,None,205.94948040007148,None,,,,,,,11023,001,2024_Jan_07_1021,ANT,2021.2.3,59.883179909378406,
1,3,no,up,IC,L,,,,,,Block.xlsx,"你已经完成了第一个实验区组

请稍作休息


点击空格键进入下一个区组。",50,0,1.5,left,RRLRR.png,,,,,0,0,0,0,0,21,21,2,,,,,,,,,,,,,,,,,,,,,,,,,,,,,,,,,,,,,,,,,,,,,,,,,,,,,,,,,,,,,,,,206.3499512000708,206.75083250005264,206.73565140005667,206.8364340000553,207.23529810004402,None,left,1,0.6171449000248685,207.23529810004402,None,206.73565140005667,206.8364340000553,206.8364340000553,None,207.8696260000579,None,,,,,,,11023,001,2024_Jan_07_1021,ANT,2021.2.3,59.883179909378406,
1,1,no,up,C,L,,,,,,Block.xlsx,"你已经完成了第一个实验区组

请稍作休息


点击空格键进入下一个区组。",50,0,1.5,left,LLLLL.png,,,,,0,0,0,0,0,22,22,0,,,,,,,,,,,,,,,,,,,,,,,,,,,,,,,,,,,,,,,,,,,,,,,,,,,,,,,,,,,,,,,,208.27023829997052,208.67242540000007,208.65381809999235,208.75406469998416,209.1550785000436,None,left,1,0.5285590999992564,209.1550785000436,None,208.65381809999235,208.75406469998416,208.75406469998416,None,209.70559260004666,None,,,,,,,11023,001,2024_Jan_07_1021,ANT,2021.2.3,59.883179909378406,
1,12,center,up,IC,R,,,,,,Block.xlsx,"你已经完成了第一个实验区组

请稍作休息


点击空格键进入下一个区组。",0,50,1.5,right,LLRLL.png,,,,,0,0,0,0,0,23,23,11,,,,,,,,,,,,,,,,,,,,,,,,,,,,,,,,,,,,,,,,,,,,,,,,,,,,,,,,,,,,,,,,210.10606919997372,210.50679770007264,210.49020900006872,210.5902347000083,210.9910539999837,None,right,1,0.63649159995839,210.9910539999837,None,210.49020900006872,210.5902347000083,210.5902347000083,None,211.65774789999705,None,,,,,,,11023,001,2024_Jan_07_1021,ANT,2021.2.3,59.883179909378406,
1,14,center,down,C,R,,,,,,Block.xlsx,"你已经完成了第一个实验区组

请稍作休息


点击空格键进入下一个区组。",0,50,-1.5,right,RRRRR.png,,,,,0,0,0,0,1,0,24,13,,,,,,,,,,,,,,,,,,,,,,,,,,,,,,,,,,,,,,,,,,,,,,,,,,,,,,,,,,,,,,,,212.05852840002626,212.45991560001858,212.44331130001228,212.54391969996504,212.9434696000535,None,right,1,0.4444567000027746,212.9434696000535,None,212.44331130001228,212.54391969996504,212.54391969996504,None,213.41131930006668,None,,,,,,,11023,001,2024_Jan_07_1021,ANT,2021.2.3,59.883179909378406,
1,7,no,down,IC,L,,,,,,Block.xlsx,"你已经完成了第一个实验区组

请稍作休息


点击空格键进入下一个区组。",50,0,-1.5,left,RRLRR.png,,,,,0,0,0,0,1,1,25,6,,,,,,,,,,,,,,,,,,,,,,,,,,,,,,,,,,,,,,,,,,,,,,,,,,,,,,,,,,,,,,,,213.81112820003182,214.21251490002032,214.19496019999497,214.2961511000758,214.69562320003752,None,left,1,0.7080812000203878,214.69562320003752,None,214.19496019999497,214.2961511000758,214.2961511000758,None,215.43058729998302,None,,,,,,,11023,001,2024_Jan_07_1021,ANT,2021.2.3,59.883179909378406,
1,17,spatial,up,C,L,,,,,,Block.xlsx,"你已经完成了第一个实验区组

请稍作休息


点击空格键进入下一个区组。",1.5,0,1.5,left,LLLLL.png,,,,,0,0,0,0,1,2,26,16,,,,,,,,,,,,,,,,,,,,,,,,,,,,,,,,,,,,,,,,,,,,,,,,,,,,,,,,,,,,,,,,215.8307436000323,216.23135160002857,216.21533929998986,216.31539040000644,216.71548730006907,None,left,1,0.4081372000509873,216.71548730006907,None,216.21533929998986,216.31539040000644,216.31539040000644,None,217.14919700007886,None,,,,,,,11023,001,2024_Jan_07_1021,ANT,2021.2.3,59.883179909378406,
1,12,center,up,IC,R,,,,,,Block.xlsx,"你已经完成了第一个实验区组

请稍作休息


点击空格键进入下一个区组。",0,50,1.5,right,LLRLL.png,,,,,0,0,0,0,1,3,27,11,,,,,,,,,,,,,,,,,,,,,,,,,,,,,,,,,,,,,,,,,,,,,,,,,,,,,,,,,,,,,,,,217.5499329000013,217.95263620000333,217.9346397999907,218.03433669998776,218.43518360005692,None,right,1,0.576342900050804,218.43518360005692,None,217.9346397999907,218.03433669998776,218.03433669998776,None,219.0354292000411,None,,,,,,,11023,001,2024_Jan_07_1021,ANT,2021.2.3,59.883179909378406,
1,23,spatial,down,IC,L,,,,,,Block.xlsx,"你已经完成了第一个实验区组

请稍作休息


点击空格键进入下一个区组。",-1.5,0,-1.5,left,RRLRR.png,,,,,0,0,0,0,1,4,28,22,,,,,,,,,,,,,,,,,,,,,,,,,,,,,,,,,,,,,,,,,,,,,,,,,,,,,,,,,,,,,,,,219.43630499998108,219.83747809997294,219.82067300006747,219.9215423000278,220.3213649999816,None,left,1,0.5623005999950692,220.3213649999816,None,219.82067300006747,219.9215423000278,219.9215423000278,None,220.90483869996388,None,,,,,,,11023,001,2024_Jan_07_1021,ANT,2021.2.3,59.883179909378406,
1,22,spatial,down,C,R,,,,,,Block.xlsx,"你已经完成了第一个实验区组

请稍作休息


点击空格键进入下一个区组。",-1.5,0,-1.5,right,RRRRR.png,,,,,0,0,0,0,1,5,29,21,,,,,,,,,,,,,,,,,,,,,,,,,,,,,,,,,,,,,,,,,,,,,,,,,,,,,,,,,,,,,,,,221.30540559999645,221.706148999976,221.6898738000309,221.79119250003714,222.19080710003618,None,right,1,0.676986200036481,222.19080710003618,None,221.6898738000309,221.79119250003714,221.79119250003714,None,222.8918053000234,None,,,,,,,11023,001,2024_Jan_07_1021,ANT,2021.2.3,59.883179909378406,
1,18,spatial,up,C,R,,,,,,Block.xlsx,"你已经完成了第一个实验区组

请稍作休息


点击空格键进入下一个区组。",1.5,0,1.5,right,RRRRR.png,,,,,0,0,0,0,1,6,30,17,,,,,,,,,,,,,,,,,,,,,,,,,,,,,,,,,,,,,,,,,,,,,,,,,,,,,,,,,,,,,,,,223.29231260006782,223.69297209999058,223.6761532999808,223.77649289998226,224.17704249999952,None,right,1,0.4264965000329539,224.17704249999952,None,223.6761532999808,223.77649289998226,223.77649289998226,None,224.6268248000415,None,,,,,,,11023,001,2024_Jan_07_1021,ANT,2021.2.3,59.883179909378406,
1,5,no,down,C,L,,,,,,Block.xlsx,"你已经完成了第一个实验区组

请稍作休息


点击空格键进入下一个区组。",50,0,-1.5,left,LLLLL.png,,,,,0,0,0,0,1,7,31,4,,,,,,,,,,,,,,,,,,,,,,,,,,,,,,,,,,,,,,,,,,,,,,,,,,,,,,,,,,,,,,,,225.02871770004276,225.42885989998467,225.4122292000102,225.5129768999759,225.91319560003467,None,left,1,0.5386476999847218,225.91319560003467,None,225.4122292000102,225.5129768999759,225.5129768999759,None,226.47973969997838,None,,,,,,,11023,001,2024_Jan_07_1021,ANT,2021.2.3,59.883179909378406,
1,24,spatial,down,IC,R,,,,,,Block.xlsx,"你已经完成了第一个实验区组

请稍作休息


点击空格键进入下一个区组。",-1.5,0,-1.5,right,LLRLL.png,,,,,0,0,0,0,1,8,32,23,,,,,,,,,,,,,,,,,,,,,,,,,,,,,,,,,,,,,,,,,,,,,,,,,,,,,,,,,,,,,,,,226.88067039998714,227.2816439999733,227.26503270003013,227.3652165000094,227.76520859997254,None,right,1,0.5509801999432966,227.76520859997254,None,227.26503270003013,227.3652165000094,227.3652165000094,None,228.33247330004815,None,,,,,,,11023,001,2024_Jan_07_1021,ANT,2021.2.3,59.883179909378406,
1,4,no,up,IC,R,,,,,,Block.xlsx,"你已经完成了第一个实验区组

请稍作休息


点击空格键进入下一个区组。",50,0,1.5,right,LLRLL.png,,,,,0,0,0,0,1,9,33,3,,,,,,,,,,,,,,,,,,,,,,,,,,,,,,,,,,,,,,,,,,,,,,,,,,,,,,,,,,,,,,,,228.7330162000144,229.13578380004037,229.11771770007908,229.21808240003884,229.6182407999877,None,right,1,0.5054037999361753,229.6182407999877,None,229.11771770007908,229.21808240003884,229.21808240003884,None,230.15182899998035,None,,,,,,,11023,001,2024_Jan_07_1021,ANT,2021.2.3,59.883179909378406,
1,19,spatial,up,IC,L,,,,,,Block.xlsx,"你已经完成了第一个实验区组

请稍作休息


点击空格键进入下一个区组。",1.5,0,1.5,left,RRLRR.png,,,,,0,0,0,0,1,10,34,18,,,,,,,,,,,,,,,,,,,,,,,,,,,,,,,,,,,,,,,,,,,,,,,,,,,,,,,,,,,,,,,,230.55303800001275,230.95346280001104,230.93673840002157,231.0380931000691,231.43779070000164,None,left,1,0.541704099974595,231.43779070000164,None,230.93673840002157,231.0380931000691,231.0380931000691,None,232.00452710001264,None,,,,,,,11023,001,2024_Jan_07_1021,ANT,2021.2.3,59.883179909378406,
1,6,no,down,C,R,,,,,,Block.xlsx,"你已经完成了第一个实验区组

请稍作休息


点击空格键进入下一个区组。",50,0,-1.5,right,RRRRR.png,,,,,0,0,0,0,1,11,35,5,,,,,,,,,,,,,,,,,,,,,,,,,,,,,,,,,,,,,,,,,,,,,,,,,,,,,,,,,,,,,,,,232.40556860005017,232.8066505000461,232.78999089996796,232.890814900049,233.2903757999884,None,right,1,0.6179448999464512,233.2903757999884,None,232.78999089996796,232.890814900049,232.890814900049,None,233.92421760002617,None,,,,,,,11023,001,2024_Jan_07_1021,ANT,2021.2.3,59.883179909378406,
1,23,spatial,down,IC,L,,,,,,Block.xlsx,"你已经完成了第一个实验区组

请稍作休息


点击空格键进入下一个区组。",-1.5,0,-1.5,left,RRLRR.png,,,,,0,0,0,0,1,12,36,22,,,,,,,,,,,,,,,,,,,,,,,,,,,,,,,,,,,,,,,,,,,,,,,,,,,,,,,,,,,,,,,,234.32558060006704,234.7262756000273,234.7096762000583,234.80950540001504,235.2113348999992,None,left,1,0.536310900002718,235.2113348999992,None,234.7096762000583,234.80950540001504,234.80950540001504,None,235.7778633000562,None,,,,,,,11023,001,2024_Jan_07_1021,ANT,2021.2.3,59.883179909378406,
1,19,spatial,up,IC,L,,,,,,Block.xlsx,"你已经完成了第一个实验区组

请稍作休息


点击空格键进入下一个区组。",1.5,0,1.5,left,RRLRR.png,,,,,0,0,0,0,1,13,37,18,,,,,,,,,,,,,,,,,,,,,,,,,,,,,,,,,,,,,,,,,,,,,,,,,,,,,,,,,,,,,,,,236.17764040001202,236.5793321999954,236.56233840005007,236.66305390000343,237.06272749998607,None,left,1,0.49285779998172075,237.06272749998607,None,236.56233840005007,236.66305390000343,236.66305390000343,None,237.57960270007607,None,,,,,,,11023,001,2024_Jan_07_1021,ANT,2021.2.3,59.883179909378406,
1,10,center,up,C,R,,,,,,Block.xlsx,"你已经完成了第一个实验区组

请稍作休息


点击空格键进入下一个区组。",0,50,1.5,right,RRRRR.png,,,,,0,0,0,0,1,14,38,9,,,,,,,,,,,,,,,,,,,,,,,,,,,,,,,,,,,,,,,,,,,,,,,,,,,,,,,,,,,,,,,,237.98004270007368,238.38262230006512,238.36491570004728,238.4652175999945,238.86533429997507,None,right,1,0.45030080003198236,238.86533429997507,None,238.36491570004728,238.4652175999945,238.4652175999945,None,239.33226569998078,None,,,,,,,11023,001,2024_Jan_07_1021,ANT,2021.2.3,59.883179909378406,
1,12,center,up,IC,R,,,,,,Block.xlsx,"你已经完成了第一个实验区组

请稍作休息


点击空格键进入下一个区组。",0,50,1.5,right,LLRLL.png,,,,,0,0,0,0,1,15,39,11,,,,,,,,,,,,,,,,,,,,,,,,,,,,,,,,,,,,,,,,,,,,,,,,,,,,,,,,,,,,,,,,239.7332840000745,240.13538250001147,240.11730889999308,240.21796080004424,240.61847280000802,None,right,1,0.56905009993352,240.61847280000802,None,240.11730889999308,240.21796080004424,240.21796080004424,None,241.21835740003735,None,,,,,,,11023,001,2024_Jan_07_1021,ANT,2021.2.3,59.883179909378406,
1,6,no,down,C,R,,,,,,Block.xlsx,"你已经完成了第一个实验区组

请稍作休息


点击空格键进入下一个区组。",50,0,-1.5,right,RRRRR.png,,,,,0,0,0,0,1,16,40,5,,,,,,,,,,,,,,,,,,,,,,,,,,,,,,,,,,,,,,,,,,,,,,,,,,,,,,,,,,,,,,,,241.6195882000029,242.0202772000339,242.00347250001505,242.1035084000323,242.50419260002673,None,right,1,0.49986590002663434,242.50419260002673,None,242.00347250001505,242.1035084000323,242.1035084000323,None,243.02087410003878,None,,,,,,,11023,001,2024_Jan_07_1021,ANT,2021.2.3,59.883179909378406,
1,1,no,up,C,L,,,,,,Block.xlsx,"你已经完成了第一个实验区组

请稍作休息


点击空格键进入下一个区组。",50,0,1.5,left,LLLLL.png,,,,,0,0,0,0,1,17,41,0,,,,,,,,,,,,,,,,,,,,,,,,,,,,,,,,,,,,,,,,,,,,,,,,,,,,,,,,,,,,,,,,243.4215946000768,243.82304459996521,243.80632560001686,243.907272499986,244.3068140000105,None,left,1,0.48908029997255653,244.3068140000105,None,243.80632560001686,243.907272499986,243.907272499986,None,244.82380490005016,None,,,,,,,11023,001,2024_Jan_07_1021,ANT,2021.2.3,59.883179909378406,
1,21,spatial,down,C,L,,,,,,Block.xlsx,"你已经完成了第一个实验区组

请稍作休息


点击空格键进入下一个区组。",-1.5,0,-1.5,left,LLLLL.png,,,,,0,0,0,0,1,18,42,20,,,,,,,,,,,,,,,,,,,,,,,,,,,,,,,,,,,,,,,,,,,,,,,,,,,,,,,,,,,,,,,,245.22415490006097,245.625498300069,245.60876510001253,245.70884370000567,246.10874789999798,None,left,1,0.39082510001026094,246.10874789999798,None,245.60876510001253,245.70884370000567,245.70884370000567,None,246.52612439997029,None,,,,,,,11023,001,2024_Jan_07_1021,ANT,2021.2.3,59.883179909378406,
1,7,no,down,IC,L,,,,,,Block.xlsx,"你已经完成了第一个实验区组

请稍作休息


点击空格键进入下一个区组。",50,0,-1.5,left,RRLRR.png,,,,,0,0,0,0,1,19,43,6,,,,,,,,,,,,,,,,,,,,,,,,,,,,,,,,,,,,,,,,,,,,,,,,,,,,,,,,,,,,,,,,246.9266745999921,247.3276946999831,247.3108351000119,247.41062860004604,247.81156820000615,None,left,1,0.5599784000078216,247.81156820000615,None,247.3108351000119,247.41062860004604,247.41062860004604,None,248.39551399997436,None,,,,,,,11023,001,2024_Jan_07_1021,ANT,2021.2.3,59.883179909378406,
1,14,center,down,C,R,,,,,,Block.xlsx,"你已经完成了第一个实验区组

请稍作休息


点击空格键进入下一个区组。",0,50,-1.5,right,RRRRR.png,,,,,0,0,0,0,1,20,44,13,,,,,,,,,,,,,,,,,,,,,,,,,,,,,,,,,,,,,,,,,,,,,,,,,,,,,,,,,,,,,,,,248.7960119000636,249.19779800006654,249.18012979999185,249.28007119998801,249.68159000005107,None,right,1,0.4739157999865711,249.68159000005107,None,249.18012979999185,249.28007119998801,249.28007119998801,None,250.1813923000591,None,,,,,,,11023,001,2024_Jan_07_1021,ANT,2021.2.3,59.883179909378406,
1,19,spatial,up,IC,L,,,,,,Block.xlsx,"你已经完成了第一个实验区组

请稍作休息


点击空格键进入下一个区组。",1.5,0,1.5,left,RRLRR.png,,,,,0,0,0,0,1,21,45,18,,,,,,,,,,,,,,,,,,,,,,,,,,,,,,,,,,,,,,,,,,,,,,,,,,,,,,,,,,,,,,,,250.5821084000636,250.98321710003074,250.9660678000655,251.06640929996502,251.46677040006034,None,left,1,0.44867210008669645,251.46677040006034,None,250.9660678000655,251.06640929996502,251.06640929996502,None,251.93388889997732,None,,,,,,,11023,001,2024_Jan_07_1021,ANT,2021.2.3,59.883179909378406,
1,18,spatial,up,C,R,,,,,,Block.xlsx,"你已经完成了第一个实验区组

请稍作休息


点击空格键进入下一个区组。",1.5,0,1.5,right,RRRRR.png,,,,,0,0,0,0,1,22,46,17,,,,,,,,,,,,,,,,,,,,,,,,,,,,,,,,,,,,,,,,,,,,,,,,,,,,,,,,,,,,,,,,252.33460419997573,252.73531230003573,252.71905359998345,252.81905699998606,253.22103190002963,None,right,1,0.44715670007281005,253.22103190002963,None,252.71905359998345,252.81905699998606,252.81905699998606,None,253.6866289000027,None,,,,,,,11023,001,2024_Jan_07_1021,ANT,2021.2.3,59.883179909378406,
1,8,no,down,IC,R,,,,,,Block.xlsx,"你已经完成了第一个实验区组

请稍作休息


点击空格键进入下一个区组。",50,0,-1.5,right,LLRLL.png,,,,,0,0,0,0,1,23,47,7,,,,,,,,,,,,,,,,,,,,,,,,,,,,,,,,,,,,,,,,,,,,,,,,,,,,,,,,,,,,,,,,254.08733550005127,254.4905741000548,254.47120809997432,254.57132139999885,254.9724428000627,None,right,1,0.5511746999109164,254.9724428000627,None,254.47120809997432,254.57132139999885,254.57132139999885,None,255.539368800004,None,,,,,,,11023,001,2024_Jan_07_1021,ANT,2021.2.3,59.883179909378406,
1,11,center,up,IC,L,,,,,,Block.xlsx,"你已经完成了第一个实验区组

请稍作休息


点击空格键进入下一个区组。",0,50,1.5,left,RRLRR.png,,,,,0,0,0,0,2,0,48,10,,,,,,,,,,,,,,,,,,,,,,,,,,,,,,,,,,,,,,,,,,,,,,,,,,,,,,,,,,,,,,,,255.94004840007983,256.34174760000315,256.32448589999694,256.4241985999979,256.82590549997985,None,left,1,0.4823554999893531,256.82590549997985,None,256.32448589999694,256.4241985999979,256.4241985999979,None,257.32535549998283,None,,,,,,,11023,001,2024_Jan_07_1021,ANT,2021.2.3,59.883179909378406,
1,9,center,up,C,L,,,,,,Block.xlsx,"你已经完成了第一个实验区组

请稍作休息


点击空格键进入下一个区组。",0,50,1.5,left,LLLLL.png,,,,,0,0,0,0,2,1,49,8,,,,,,,,,,,,,,,,,,,,,,,,,,,,,,,,,,,,,,,,,,,,,,,,,,,,,,,,,,,,,,,,257.72602940001525,258.1269459000323,258.10948790004477,258.21006289997604,258.6111703000497,None,left,1,0.4172320000361651,258.6111703000497,None,258.10948790004477,258.21006289997604,258.21006289997604,None,259.0446158000268,None,,,,,,,11023,001,2024_Jan_07_1021,ANT,2021.2.3,59.883179909378406,
1,7,no,down,IC,L,,,,,,Block.xlsx,"你已经完成了第一个实验区组

请稍作休息


点击空格键进入下一个区组。",50,0,-1.5,left,RRLRR.png,,,,,0,0,0,0,2,2,50,6,,,,,,,,,,,,,,,,,,,,,,,,,,,,,,,,,,,,,,,,,,,,,,,,,,,,,,,,,,,,,,,,259.44528159999754,259.8456801000284,259.8300693000201,259.9293324999744,260.3303148000268,None,left,1,0.5612877999665216,260.3303148000268,None,259.8300693000201,259.9293324999744,259.9293324999744,None,260.91446780005936,None,,,,,,,11023,001,2024_Jan_07_1021,ANT,2021.2.3,59.883179909378406,
1,11,center,up,IC,L,,,,,,Block.xlsx,"你已经完成了第一个实验区组

请稍作休息


点击空格键进入下一个区组。",0,50,1.5,left,RRLRR.png,,,,,0,0,0,0,2,3,51,10,,,,,,,,,,,,,,,,,,,,,,,,,,,,,,,,,,,,,,,,,,,,,,,,,,,,,,,,,,,,,,,,261.3146385999862,261.7157823999878,261.6985517999856,261.79879340005573,262.19931100006215,None,left,1,0.5563120000297204,262.19931100006215,None,261.6985517999856,261.79879340005573,261.79879340005573,None,262.78352020005696,None,,,,,,,11023,001,2024_Jan_07_1021,ANT,2021.2.3,59.883179909378406,
1,4,no,up,IC,R,,,,,,Block.xlsx,"你已经完成了第一个实验区组

请稍作休息


点击空格键进入下一个区组。",50,0,1.5,right,LLRLL.png,,,,,0,0,0,0,2,4,52,3,,,,,,,,,,,,,,,,,,,,,,,,,,,,,,,,,,,,,,,,,,,,,,,,,,,,,,,,,,,,,,,,263.1839492999716,263.58471750002354,263.57000289997086,263.66936940001324,264.0696282000281,None,right,1,0.581893700058572,264.0696282000281,None,263.57000289997086,263.66936940001324,263.66936940001324,None,264.6695415000431,None,,,,,,,11023,001,2024_Jan_07_1021,ANT,2021.2.3,59.883179909378406,
1,5,no,down,C,L,,,,,,Block.xlsx,"你已经完成了第一个实验区组

请稍作休息


点击空格键进入下一个区组。",50,0,-1.5,left,LLLLL.png,,,,,0,0,0,0,2,5,53,4,,,,,,,,,,,,,,,,,,,,,,,,,,,,,,,,,,,,,,,,,,,,,,,,,,,,,,,,,,,,,,,,265.0703306000214,265.4717571999645,265.4554862000514,265.55540820001625,265.9557731000241,None,left,1,0.5120993000455201,265.9557731000241,None,265.4554862000514,265.55540820001625,265.55540820001625,None,266.4891990000615,None,,,,,,,11023,001,2024_Jan_07_1021,ANT,2021.2.3,59.883179909378406,
1,15,center,down,IC,L,,,,,,Block.xlsx,"你已经完成了第一个实验区组

请稍作休息


点击空格键进入下一个区组。",0,50,-1.5,left,RRLRR.png,,,,,0,0,0,0,2,6,54,14,,,,,,,,,,,,,,,,,,,,,,,,,,,,,,,,,,,,,,,,,,,,,,,,,,,,,,,,,,,,,,,,266.88960029999726,267.2904059999855,267.2744259000756,267.374594300054,267.7743386999937,None,left,1,0.5252939999336377,267.7743386999937,None,267.2744259000756,267.374594300054,267.374594300054,None,268.3251457000151,None,,,,,,,11023,001,2024_Jan_07_1021,ANT,2021.2.3,59.883179909378406,
1,24,spatial,down,IC,R,,,,,,Block.xlsx,"你已经完成了第一个实验区组

请稍作休息


点击空格键进入下一个区组。",-1.5,0,-1.5,right,LLRLL.png,,,,,0,0,0,0,2,7,55,23,,,,,,,,,,,,,,,,,,,,,,,,,,,,,,,,,,,,,,,,,,,,,,,,,,,,,,,,,,,,,,,,268.7263812000165,269.1271056999685,269.11009360000025,269.2098012000788,269.61088529997505,None,right,1,0.5527876999694854,269.61088529997505,None,269.11009360000025,269.2098012000788,269.2098012000788,None,270.19488830002956,None,,,,,,,11023,001,2024_Jan_07_1021,ANT,2021.2.3,59.883179909378406,
1,8,no,down,IC,R,,,,,,Block.xlsx,"你已经完成了第一个实验区组

请稍作休息


点击空格键进入下一个区组。",50,0,-1.5,right,LLRLL.png,,,,,0,0,0,0,2,8,56,7,,,,,,,,,,,,,,,,,,,,,,,,,,,,,,,,,,,,,,,,,,,,,,,,,,,,,,,,,,,,,,,,270.59599559998605,270.9979377000127,270.97928600001615,271.0798158000689,271.48122800001875,None,right,1,0.5066921000834554,271.48122800001875,None,270.97928600001615,271.0798158000689,271.0798158000689,None,272.0139108999865,None,,,,,,,11023,001,2024_Jan_07_1021,ANT,2021.2.3,59.883179909378406,
1,21,spatial,down,C,L,,,,,,Block.xlsx,"你已经完成了第一个实验区组

请稍作休息


点击空格键进入下一个区组。",-1.5,0,-1.5,left,LLLLL.png,,,,,0,0,0,0,2,9,57,20,,,,,,,,,,,,,,,,,,,,,,,,,,,,,,,,,,,,,,,,,,,,,,,,,,,,,,,,,,,,,,,,272.4150831999723,272.8172750000376,272.7990351000335,272.90018790005706,273.2994577999925,None,left,1,0.4241567999124527,273.2994577999925,None,272.7990351000335,272.90018790005706,272.90018790005706,None,273.7504293000093,None,,,,,,,11023,001,2024_Jan_07_1021,ANT,2021.2.3,59.883179909378406,
1,20,spatial,up,IC,R,,,,,,Block.xlsx,"你已经完成了第一个实验区组

请稍作休息


点击空格键进入下一个区组。",1.5,0,1.5,right,LLRLL.png,,,,,0,0,0,0,2,10,58,19,,,,,,,,,,,,,,,,,,,,,,,,,,,,,,,,,,,,,,,,,,,,,,,,,,,,,,,,,,,,,,,,274.15123570000287,274.5522485000547,274.53537679999135,274.63448220002465,275.03632559999824,None,right,1,0.4714173999382183,275.03632559999824,None,274.53537679999135,274.63448220002465,274.63448220002465,None,275.53583790000994,None,,,,,,,11023,001,2024_Jan_07_1021,ANT,2021.2.3,59.883179909378406,
1,17,spatial,up,C,L,,,,,,Block.xlsx,"你已经完成了第一个实验区组

请稍作休息


点击空格键进入下一个区组。",1.5,0,1.5,left,LLLLL.png,,,,,0,0,0,0,2,11,59,16,,,,,,,,,,,,,,,,,,,,,,,,,,,,,,,,,,,,,,,,,,,,,,,,,,,,,,,,,,,,,,,,275.9369249000447,276.3378300999757,276.3208682000404,276.4219369000057,276.8217326999875,None,left,1,0.5578581999288872,276.8217326999875,None,276.3208682000404,276.4219369000057,276.4219369000057,None,277.40552260004915,None,,,,,,,11023,001,2024_Jan_07_1021,ANT,2021.2.3,59.883179909378406,
1,13,center,down,C,L,,,,,,Block.xlsx,"你已经完成了第一个实验区组

请稍作休息


点击空格键进入下一个区组。",0,50,-1.5,left,LLLLL.png,,,,,0,0,0,0,2,12,60,12,,,,,,,,,,,,,,,,,,,,,,,,,,,,,,,,,,,,,,,,,,,,,,,,,,,,,,,,,,,,,,,,277.80574300000444,278.2077026000479,278.1908270000713,278.2914289999753,278.69078180007637,None,left,1,0.4249499998986721,278.69078180007637,None,278.1908270000713,278.2914289999753,278.2914289999753,None,279.1418085000478,None,,,,,,,11023,001,2024_Jan_07_1021,ANT,2021.2.3,59.883179909378406,
1,23,spatial,down,IC,L,,,,,,Block.xlsx,"你已经完成了第一个实验区组

请稍作休息


点击空格键进入下一个区组。",-1.5,0,-1.5,left,RRLRR.png,,,,,0,0,0,0,2,13,61,22,,,,,,,,,,,,,,,,,,,,,,,,,,,,,,,,,,,,,,,,,,,,,,,,,,,,,,,,,,,,,,,,279.5423785999883,279.94377810007427,279.9260105000576,280.0281663000351,280.42750350001734,None,left,1,0.4963142001070082,280.42750350001734,None,279.9260105000576,280.0281663000351,280.0281663000351,None,280.9442810000619,None,,,,,,,11023,001,2024_Jan_07_1021,ANT,2021.2.3,59.883179909378406,
1,21,spatial,down,C,L,,,,,,Block.xlsx,"你已经完成了第一个实验区组

请稍作休息


点击空格键进入下一个区组。",-1.5,0,-1.5,left,LLLLL.png,,,,,0,0,0,0,2,14,62,20,,,,,,,,,,,,,,,,,,,,,,,,,,,,,,,,,,,,,,,,,,,,,,,,,,,,,,,,,,,,,,,,281.34542510006577,281.74657429999206,281.72831110004336,281.8284031000221,282.23004819999915,None,left,1,0.3828942999243736,282.23004819999915,None,281.72831110004336,281.8284031000221,281.8284031000221,None,282.62976490007713,None,,,,,,,11023,001,2024_Jan_07_1021,ANT,2021.2.3,59.883179909378406,
1,22,spatial,down,C,R,,,,,,Block.xlsx,"你已经完成了第一个实验区组

请稍作休息


点击空格键进入下一个区组。",-1.5,0,-1.5,right,RRRRR.png,,,,,0,0,0,0,2,15,63,21,,,,,,,,,,,,,,,,,,,,,,,,,,,,,,,,,,,,,,,,,,,,,,,,,,,,,,,,,,,,,,,,283.0303988000378,283.4312929000007,283.41410840000026,283.5141458000289,283.91536580002867,None,right,1,0.42426869994960725,283.91536580002867,None,283.41410840000026,283.5141458000289,283.5141458000289,None,284.3660970000783,None,,,,,,,11023,001,2024_Jan_07_1021,ANT,2021.2.3,59.883179909378406,
1,9,center,up,C,L,,,,,,Block.xlsx,"你已经完成了第一个实验区组

请稍作休息


点击空格键进入下一个区组。",0,50,1.5,left,LLLLL.png,,,,,0,0,0,0,2,16,64,8,,,,,,,,,,,,,,,,,,,,,,,,,,,,,,,,,,,,,,,,,,,,,,,,,,,,,,,,,,,,,,,,284.7659318000078,285.1681835000636,285.1507621000055,285.251982799964,285.65086910000537,None,left,1,0.5134145000483841,285.65086910000537,None,285.1507621000055,285.251982799964,285.251982799964,None,286.1849870000733,None,,,,,,,11023,001,2024_Jan_07_1021,ANT,2021.2.3,59.883179909378406,
1,19,spatial,up,IC,L,,,,,,Block.xlsx,"你已经完成了第一个实验区组

请稍作休息


点击空格键进入下一个区组。",1.5,0,1.5,left,RRLRR.png,,,,,0,0,0,0,2,17,65,18,,,,,,,,,,,,,,,,,,,,,,,,,,,,,,,,,,,,,,,,,,,,,,,,,,,,,,,,,,,,,,,,286.5863362000091,286.98830910003744,286.9703059999738,287.0702836000128,287.4720014000777,None,left,1,0.5076796000357717,287.4720014000777,None,286.9703059999738,287.0702836000128,287.0702836000128,None,288.0042393000331,None,,,,,,,11023,001,2024_Jan_07_1021,ANT,2021.2.3,59.883179909378406,
1,21,spatial,down,C,L,,,,,,Block.xlsx,"你已经完成了第一个实验区组

请稍作休息


点击空格键进入下一个区组。",-1.5,0,-1.5,left,LLLLL.png,,,,,0,0,0,0,2,18,66,20,,,,,,,,,,,,,,,,,,,,,,,,,,,,,,,,,,,,,,,,,,,,,,,,,,,,,,,,,,,,,,,,288.40536169998813,288.8064413999673,288.78912129998207,288.89051359996665,289.2913624000503,None,left,1,0.4243419000413269,289.2913624000503,None,288.78912129998207,288.89051359996665,288.89051359996665,None,289.74037060001865,None,,,,,,,11023,001,2024_Jan_07_1021,ANT,2021.2.3,59.883179909378406,
1,1,no,up,C,L,,,,,,Block.xlsx,"你已经完成了第一个实验区组

请稍作休息


点击空格键进入下一个区组。",50,0,1.5,left,LLLLL.png,,,,,0,0,0,0,2,19,67,0,,,,,,,,,,,,,,,,,,,,,,,,,,,,,,,,,,,,,,,,,,,,,,,,,,,,,,,,,,,,,,,,290.14155499998014,290.54201940004714,290.52675710001495,290.6419182000682,291.0275012999773,None,left,1,0.5204587000189349,291.0275012999773,None,290.52675710001495,290.6419182000682,290.62637139996514,None,291.5762024000287,None,,,,,,,11023,001,2024_Jan_07_1021,ANT,2021.2.3,59.883179909378406,
1,13,center,down,C,L,,,,,,Block.xlsx,"你已经完成了第一个实验区组

请稍作休息


点击空格键进入下一个区组。",0,50,-1.5,left,LLLLL.png,,,,,0,0,0,0,2,20,68,12,,,,,,,,,,,,,,,,,,,,,,,,,,,,,,,,,,,,,,,,,,,,,,,,,,,,,,,,,,,,,,,,291.97703840001486,292.3795856999932,292.361399800051,292.4623463000171,292.8626291999826,None,left,1,0.44571289990562946,292.8626291999826,None,292.361399800051,292.4623463000171,292.4623463000171,None,293.3289039999945,None,,,,,,,11023,001,2024_Jan_07_1021,ANT,2021.2.3,59.883179909378406,
1,5,no,down,C,L,,,,,,Block.xlsx,"你已经完成了第一个实验区组

请稍作休息


点击空格键进入下一个区组。",50,0,-1.5,left,LLLLL.png,,,,,0,0,0,0,2,21,69,4,,,,,,,,,,,,,,,,,,,,,,,,,,,,,,,,,,,,,,,,,,,,,,,,,,,,,,,,,,,,,,,,293.729516100022,294.1307200000156,294.1138918000506,294.2148538000183,294.61444849998225,None,left,1,0.5498375999741256,294.61444849998225,None,294.1138918000506,294.2148538000183,294.2148538000183,None,295.1822127000196,None,,,,,,,11023,001,2024_Jan_07_1021,ANT,2021.2.3,59.883179909378406,
1,9,center,up,C,L,,,,,,Block.xlsx,"你已经完成了第一个实验区组

请稍作休息


点击空格键进入下一个区组。",0,50,1.5,left,LLLLL.png,,,,,0,0,0,0,2,22,70,8,,,,,,,,,,,,,,,,,,,,,,,,,,,,,,,,,,,,,,,,,,,,,,,,,,,,,,,,,,,,,,,,295.58209450007416,295.9842413000297,295.9667787000071,296.06845889997203,296.46866889996454,None,left,1,0.4160031999927014,296.46866889996454,None,295.9667787000071,296.06845889997203,296.06845889997203,None,296.90154960006475,None,,,,,,,11023,001,2024_Jan_07_1021,ANT,2021.2.3,59.883179909378406,
1,4,no,up,IC,R,,,,,,Block.xlsx,"你已经完成了第一个实验区组

请稍作休息


点击空格键进入下一个区组。",50,0,1.5,right,LLRLL.png,,,,,0,0,0,0,2,23,71,3,,,,,,,,,,,,,,,,,,,,,,,,,,,,,,,,,,,,,,,,,,,,,,,,,,,,,,,,,,,,,,,,297.30192390002776,297.702367400052,297.68605340004433,297.78539049997926,298.18742349999957,None,right,1,0.6564444999676198,298.18742349999957,None,297.68605340004433,297.78539049997926,297.78539049997926,None,298.8711151999887,None,,,,,,,11023,001,2024_Jan_07_1021,ANT,2021.2.3,59.883179909378406,
1,17,spatial,up,C,L,,,,,,Block.xlsx,"你已经完成了第一个实验区组

请稍作休息


点击空格键进入下一个区组。",1.5,0,1.5,left,LLLLL.png,,,,,0,0,0,0,3,0,72,16,,,,,,,,,,,,,,,,,,,,,,,,,,,,,,,,,,,,,,,,,,,,,,,,,,,,,,,,,,,,,,,,299.27094040007796,299.673381300061,299.65526829997543,299.75682120001875,300.15781730005983,None,left,1,0.4303947000298649,300.15781730005983,None,299.65526829997543,299.75682120001875,299.75682120001875,None,300.606288400013,None,,,,,,,11023,001,2024_Jan_07_1021,ANT,2021.2.3,59.883179909378406,
1,14,center,down,C,R,,,,,,Block.xlsx,"你已经完成了第一个实验区组

请稍作休息


点击空格键进入下一个区组。",0,50,-1.5,right,RRRRR.png,,,,,0,0,0,0,3,1,73,13,,,,,,,,,,,,,,,,,,,,,,,,,,,,,,,,,,,,,,,,,,,,,,,,,,,,,,,,,,,,,,,,301.0081584000727,301.4082559000235,301.3908573000226,301.4918670000043,301.89136820007116,None,right,1,0.5282102000201121,301.89136820007116,None,301.3908573000226,301.4918670000043,301.4918670000043,None,302.4426020999672,None,,,,,,,11023,001,2024_Jan_07_1021,ANT,2021.2.3,59.883179909378406,
1,24,spatial,down,IC,R,,,,,,Block.xlsx,"你已经完成了第一个实验区组

请稍作休息


点击空格键进入下一个区组。",-1.5,0,-1.5,right,LLRLL.png,,,,,0,0,0,0,3,2,74,23,,,,,,,,,,,,,,,,,,,,,,,,,,,,,,,,,,,,,,,,,,,,,,,,,,,,,,,,,,,,,,,,302.8435252000345,303.2438502999721,303.22741980000865,303.3280633999966,303.7276904999744,None,right,1,0.5079611000837758,303.7276904999744,None,303.22741980000865,303.3280633999966,303.3280633999966,None,304.261788600008,None,,,,,,,11023,001,2024_Jan_07_1021,ANT,2021.2.3,59.883179909378406,
1,16,center,down,IC,R,,,,,,Block.xlsx,"你已经完成了第一个实验区组

请稍作休息


点击空格键进入下一个区组。",0,50,-1.5,right,LLRLL.png,,,,,0,0,0,0,3,3,75,15,,,,,,,,,,,,,,,,,,,,,,,,,,,,,,,,,,,,,,,,,,,,,,,,,,,,,,,,,,,,,,,,304.66290930006653,305.06366310000885,305.04692640004214,305.1463402999798,305.5481682000682,None,right,1,0.5512998000485823,305.5481682000682,None,305.04692640004214,305.1463402999798,305.1463402999798,None,306.11449349997565,None,,,,,,,11023,001,2024_Jan_07_1021,ANT,2021.2.3,59.883179909378406,
1,17,spatial,up,C,L,,,,,,Block.xlsx,"你已经完成了第一个实验区组

请稍作休息


点击空格键进入下一个区组。",1.5,0,1.5,left,LLLLL.png,,,,,0,0,0,0,3,4,76,16,,,,,,,,,,,,,,,,,,,,,,,,,,,,,,,,,,,,,,,,,,,,,,,,,,,,,,,,,,,,,,,,306.5151084000245,306.91766879998613,306.8993988999864,307.000808199984,307.4014835000271,None,left,1,0.41049670008942485,307.4014835000271,None,306.8993988999864,307.000808199984,307.000808199984,None,307.83454209996853,None,,,,,,,11023,001,2024_Jan_07_1021,ANT,2021.2.3,59.883179909378406,
1,3,no,up,IC,L,,,,,,Block.xlsx,"你已经完成了第一个实验区组

请稍作休息


点击空格键进入下一个区组。",50,0,1.5,left,RRLRR.png,,,,,0,0,0,0,3,5,77,2,,,,,,,,,,,,,,,,,,,,,,,,,,,,,,,,,,,,,,,,,,,,,,,,,,,,,,,,,,,,,,,,308.23355520004407,308.6351876000408,308.6196369000245,308.7357282000594,309.11958190007135,None,left,1,0.5240826000226662,309.11958190007135,None,308.6196369000245,308.7357282000594,308.7201751000248,None,309.67045680002775,None,,,,,,,11023,001,2024_Jan_07_1021,ANT,2021.2.3,59.883179909378406,
1,16,center,down,IC,R,,,,,,Block.xlsx,"你已经完成了第一个实验区组

请稍作休息


点击空格键进入下一个区组。",0,50,-1.5,right,LLRLL.png,,,,,0,0,0,0,3,6,78,15,,,,,,,,,,,,,,,,,,,,,,,,,,,,,,,,,,,,,,,,,,,,,,,,,,,,,,,,,,,,,,,,310.0709285000339,310.4723892000038,310.45483469998,310.5559842999792,310.9558351000305,None,right,1,0.5357660000445321,310.9558351000305,None,310.45483469998,310.5559842999792,310.5559842999792,None,311.52272949996404,None,,,,,,,11023,001,2024_Jan_07_1021,ANT,2021.2.3,59.883179909378406,
1,9,center,up,C,L,,,,,,Block.xlsx,"你已经完成了第一个实验区组

请稍作休息


点击空格键进入下一个区组。",0,50,1.5,left,LLLLL.png,,,,,0,0,0,0,3,7,79,8,,,,,,,,,,,,,,,,,,,,,,,,,,,,,,,,,,,,,,,,,,,,,,,,,,,,,,,,,,,,,,,,311.92296050000004,312.32467580004595,312.30788680003025,312.4072479000315,312.80824490007944,None,left,1,0.4913584999740124,312.80824490007944,None,312.30788680003025,312.4072479000315,312.4072479000315,None,313.3251275999937,None,,,,,,,11023,001,2024_Jan_07_1021,ANT,2021.2.3,59.883179909378406,
1,2,no,up,C,R,,,,,,Block.xlsx,"你已经完成了第一个实验区组

请稍作休息


点击空格键进入下一个区组。",50,0,1.5,right,RRRRR.png,,,,,0,0,0,0,3,8,80,1,,,,,,,,,,,,,,,,,,,,,,,,,,,,,,,,,,,,,,,,,,,,,,,,,,,,,,,,,,,,,,,,313.72599629999604,314.1272869000677,314.1107991000172,314.21148120006546,314.6111475999933,None,right,1,0.5205601999768987,314.6111475999933,None,314.1107991000172,314.21148120006546,314.21148120006546,None,315.1612654000055,None,,,,,,,11023,001,2024_Jan_07_1021,ANT,2021.2.3,59.883179909378406,
1,8,no,down,IC,R,,,,,,Block.xlsx,"你已经完成了第一个实验区组

请稍作休息


点击空格键进入下一个区组。",50,0,-1.5,right,LLRLL.png,,,,,0,0,0,0,3,9,81,7,,,,,,,,,,,,,,,,,,,,,,,,,,,,,,,,,,,,,,,,,,,,,,,,,,,,,,,,,,,,,,,,315.561679800041,315.9632297999924,315.946441099979,316.0469484999776,316.4472463000566,None,right,1,0.5571789999958128,316.4472463000566,None,315.946441099979,316.0469484999776,316.0469484999776,None,317.0310384000186,None,,,,,,,11023,001,2024_Jan_07_1021,ANT,2021.2.3,59.883179909378406,
1,10,center,up,C,R,,,,,,Block.xlsx,"你已经完成了第一个实验区组

请稍作休息


点击空格键进入下一个区组。",0,50,1.5,right,RRRRR.png,,,,,0,0,0,0,3,10,82,9,,,,,,,,,,,,,,,,,,,,,,,,,,,,,,,,,,,,,,,,,,,,,,,,,,,,,,,,,,,,,,,,317.43194300006144,317.8325684000738,317.8157718000002,317.9170090999687,318.3169019999914,None,right,1,0.4066721999552101,318.3169019999914,None,317.8157718000002,317.9170090999687,317.9170090999687,None,318.75076860003173,None,,,,,,,11023,001,2024_Jan_07_1021,ANT,2021.2.3,59.883179909378406,
1,6,no,down,C,R,,,,,,Block.xlsx,"你已经完成了第一个实验区组

请稍作休息


点击空格键进入下一个区组。",50,0,-1.5,right,RRRRR.png,,,,,0,0,0,0,3,11,83,5,,,,,,,,,,,,,,,,,,,,,,,,,,,,,,,,,,,,,,,,,,,,,,,,,,,,,,,,,,,,,,,,319.1510029999772,319.5517722000368,319.53498250001576,319.63603759999387,320.0362874000566,None,right,1,0.48740940005518496,320.0362874000566,None,319.53498250001576,319.63603759999387,319.63603759999387,None,320.5524641000666,None,,,,,,,11023,001,2024_Jan_07_1021,ANT,2021.2.3,59.883179909378406,
1,3,no,up,IC,L,,,,,,Block.xlsx,"你已经完成了第一个实验区组

请稍作休息


点击空格键进入下一个区组。",50,0,1.5,left,RRLRR.png,,,,,0,0,0,0,3,12,84,2,,,,,,,,,,,,,,,,,,,,,,,,,,,,,,,,,,,,,,,,,,,,,,,,,,,,,,,,,,,,,,,,320.9545108000748,321.3535937999841,321.3374565000413,321.43721430003643,321.83862549997866,None,left,1,0.541115100029856,321.83862549997866,None,321.3374565000413,321.43721430003643,321.43721430003643,None,322.40540100005455,None,,,,,,,11023,001,2024_Jan_07_1021,ANT,2021.2.3,59.883179909378406,
1,10,center,up,C,R,,,,,,Block.xlsx,"你已经完成了第一个实验区组

请稍作休息


点击空格键进入下一个区组。",0,50,1.5,right,RRRRR.png,,,,,0,0,0,0,3,13,85,9,,,,,,,,,,,,,,,,,,,,,,,,,,,,,,,,,,,,,,,,,,,,,,,,,,,,,,,,,,,,,,,,322.80658019997645,323.2064039000543,323.1904904000694,323.2907034000382,323.6910720000742,None,right,1,0.392530900076963,323.6910720000742,None,323.1904904000694,323.2907034000382,323.2907034000382,None,324.10774780006614,None,,,,,,,11023,001,2024_Jan_07_1021,ANT,2021.2.3,59.883179909378406,
1,20,spatial,up,IC,R,,,,,,Block.xlsx,"你已经完成了第一个实验区组

请稍作休息


点击空格键进入下一个区组。",1.5,0,1.5,right,LLRLL.png,,,,,0,0,0,0,3,14,86,19,,,,,,,,,,,,,,,,,,,,,,,,,,,,,,,,,,,,,,,,,,,,,,,,,,,,,,,,,,,,,,,,324.50914139999077,324.9106982999947,324.89273610000964,324.9928688000655,325.3932848999975,None,right,1,0.48309689993038774,325.3932848999975,None,324.89273610000964,324.9928688000655,324.9928688000655,None,325.89373690006323,None,,,,,,,11023,001,2024_Jan_07_1021,ANT,2021.2.3,59.883179909378406,
1,2,no,up,C,R,,,,,,Block.xlsx,"你已经完成了第一个实验区组

请稍作休息


点击空格键进入下一个区组。",50,0,1.5,right,RRRRR.png,,,,,0,0,0,0,3,15,87,1,,,,,,,,,,,,,,,,,,,,,,,,,,,,,,,,,,,,,,,,,,,,,,,,,,,,,,,,,,,,,,,,326.2945574000478,326.69489549996797,326.6784020999912,326.77907729998697,327.18006070004776,None,right,1,0.40768730000127107,327.18006070004776,None,326.6784020999912,326.77907729998697,326.77907729998697,None,327.61335570004303,None,,,,,,,11023,001,2024_Jan_07_1021,ANT,2021.2.3,59.883179909378406,
1,8,no,down,IC,R,,,,,,Block.xlsx,"你已经完成了第一个实验区组

请稍作休息


点击空格键进入下一个区组。",50,0,-1.5,right,LLRLL.png,,,,,0,0,0,0,3,16,88,7,,,,,,,,,,,,,,,,,,,,,,,,,,,,,,,,,,,,,,,,,,,,,,,,,,,,,,,,,,,,,,,,328.0138803999871,328.41622590005863,328.3981108000735,328.4982357000699,328.89813570003025,None,right,1,0.6021334000397474,328.89813570003025,None,328.3981108000735,328.4982357000699,328.4982357000699,None,329.5161642000312,None,,,,,,,11023,001,2024_Jan_07_1021,ANT,2021.2.3,59.883179909378406,
1,11,center,up,IC,L,,,,,,Block.xlsx,"你已经完成了第一个实验区组

请稍作休息


点击空格键进入下一个区组。",0,50,1.5,left,RRLRR.png,,,,,0,0,0,0,3,17,89,10,,,,,,,,,,,,,,,,,,,,,,,,,,,,,,,,,,,,,,,,,,,,,,,,,,,,,,,,,,,,,,,,329.917334400001,330.3181425000075,330.30053640005644,330.4024704999756,330.80175830004737,None,left,1,0.4898469999898225,330.80175830004737,None,330.30053640005644,330.4024704999756,330.4024704999756,None,331.3184578999644,None,,,,,,,11023,001,2024_Jan_07_1021,ANT,2021.2.3,59.883179909378406,
1,3,no,up,IC,L,,,,,,Block.xlsx,"你已经完成了第一个实验区组

请稍作休息


点击空格键进入下一个区组。",50,0,1.5,left,RRLRR.png,,,,,0,0,0,0,3,18,90,2,,,,,,,,,,,,,,,,,,,,,,,,,,,,,,,,,,,,,,,,,,,,,,,,,,,,,,,,,,,,,,,,331.719810300041,332.1196695000399,332.1036695999792,332.20385679998435,332.6045676000649,None,left,1,0.47948410001117736,332.6045676000649,None,332.1036695999792,332.20385679998435,332.20385679998435,None,333.10521870001685,None,,,,,,,11023,001,2024_Jan_07_1021,ANT,2021.2.3,59.883179909378406,
1,15,center,down,IC,L,,,,,,Block.xlsx,"你已经完成了第一个实验区组

请稍作休息


点击空格键进入下一个区组。",0,50,-1.5,left,RRLRR.png,,,,,0,0,0,0,3,19,91,14,,,,,,,,,,,,,,,,,,,,,,,,,,,,,,,,,,,,,,,,,,,,,,,,,,,,,,,,,,,,,,,,333.50600230006967,333.90776580001693,333.88923239998985,333.9904715999728,334.38965490006376,None,left,1,0.5899999999674037,334.38965490006376,None,333.88923239998985,333.9904715999728,333.9904715999728,None,335.00771869998425,None,,,,,,,11023,001,2024_Jan_07_1021,ANT,2021.2.3,59.883179909378406,
1,4,no,up,IC,R,,,,,,Block.xlsx,"你已经完成了第一个实验区组

请稍作休息


点击空格键进入下一个区组。",50,0,1.5,right,LLRLL.png,,,,,0,0,0,0,3,20,92,3,,,,,,,,,,,,,,,,,,,,,,,,,,,,,,,,,,,,,,,,,,,,,,,,,,,,,,,,,,,,,,,,335.4086849000305,335.8096071999753,335.792657300015,335.89257050002925,336.29329329996835,None,right,1,0.5105093000456691,336.29329329996835,None,335.792657300015,335.89257050002925,335.89257050002925,None,336.82675340003334,None,,,,,,,11023,001,2024_Jan_07_1021,ANT,2021.2.3,59.883179909378406,
1,5,no,down,C,L,,,,,,Block.xlsx,"你已经完成了第一个实验区组

请稍作休息


点击空格键进入下一个区组。",50,0,-1.5,left,LLLLL.png,,,,,0,0,0,0,3,21,93,4,,,,,,,,,,,,,,,,,,,,,,,,,,,,,,,,,,,,,,,,,,,,,,,,,,,,,,,,,,,,,,,,337.22802879998926,337.63033740001265,337.61200329998974,337.71331040002406,338.1133739000652,None,left,1,0.5864047000650316,338.1133739000652,None,337.61200329998974,337.71331040002406,337.71331040002406,None,338.72974029998295,None,,,,,,,11023,001,2024_Jan_07_1021,ANT,2021.2.3,59.883179909378406,
1,15,center,down,IC,L,,,,,,Block.xlsx,"你已经完成了第一个实验区组

请稍作休息


点击空格键进入下一个区组。",0,50,-1.5,left,RRLRR.png,,,,,0,0,0,0,3,22,94,14,,,,,,,,,,,,,,,,,,,,,,,,,,,,,,,,,,,,,,,,,,,,,,,,,,,,,,,,,,,,,,,,339.1299498999724,339.5323477999773,339.5145238999976,339.61630670004524,340.01467850001063,None,left,1,0.5729257999919355,340.01467850001063,None,339.5145238999976,339.61630670004524,339.61630670004524,None,340.6158144000219,None,,,,,,,11023,001,2024_Jan_07_1021,ANT,2021.2.3,59.883179909378406,
1,10,center,up,C,R,,,,,,Block.xlsx,"你已经完成了第一个实验区组

请稍作休息


点击空格键进入下一个区组。",0,50,1.5,right,RRRRR.png,,,,,0,0,0,0,3,23,95,9,,,,,,,,,,,,,,,,,,,,,,,,,,,,,,,,,,,,,,,,,,,,,,,,,,,,,,,,,,,,,,,,341.0162366000004,341.4168403999647,341.4021882000379,341.51743000000715,341.90143630001694,None,right,1,0.38352770009078085,341.90143630001694,None,341.4021882000379,341.51743000000715,341.50172689999454,None,342.30149159999564,None,,,,,,,11023,001,2024_Jan_07_1021,ANT,2021.2.3,59.883179909378406,
,,,,,,,,,,,Block.xlsx,"你已经完成了第一个实验区组

请稍作休息


点击空格键进入下一个区组。",,,,,,,,,,0,0,0,0,,,,,,,,,,,,,,,,,,,,,,,,,,,,,,,,,,,,,,,,,,,,,,,,,,,,,,,,,,,,,,,,,,,,,,,,,,,,,,,,,,,,,space,69.23570690001361,342.72040990006644,None,342.72040990006644,None,11023,001,2024_Jan_07_1021,ANT,2021.2.3,59.883179909378406,
1,24,spatial,down,IC,R,,,,,,Block.xlsx,"你已经完成了整个实验（三个区组）。

请报告实验者已完成实验

非常感谢，再见！",-1.5,0,-1.5,right,LLRLL.png,,,,,0,1,1,1,0,0,0,23,,,,,,,,,,,,,,,,,,,,,,,,,,,,,,,,,,,,,,,,,,,,,,,,,,,,,,,,,,,,,,,,411.98763089999557,412.38916520006023,412.37253320007585,412.4726784999948,412.87285789998714,None,right,1,0.5874871999258175,412.87285789998714,None,412.37253320007585,412.4726784999948,412.4726784999948,None,413.4902841000585,None,,,,,,,11023,001,2024_Jan_07_1021,ANT,2021.2.3,59.883179909378406,
1,9,center,up,C,L,,,,,,Block.xlsx,"你已经完成了整个实验（三个区组）。

请报告实验者已完成实验

非常感谢，再见！",0,50,1.5,left,LLLLL.png,,,,,0,1,1,1,0,1,1,8,,,,,,,,,,,,,,,,,,,,,,,,,,,,,,,,,,,,,,,,,,,,,,,,,,,,,,,,,,,,,,,,413.8905828000279,414.291791500058,414.2755831000395,414.37667979998514,414.77753590000793,None,left,1,0.4505136999068782,414.77753590000793,None,414.2755831000395,414.37667979998514,414.37667979998514,None,415.242749899975,None,,,,,,,11023,001,2024_Jan_07_1021,ANT,2021.2.3,59.883179909378406,
1,10,center,up,C,R,,,,,,Block.xlsx,"你已经完成了整个实验（三个区组）。

请报告实验者已完成实验

非常感谢，再见！",0,50,1.5,right,RRRRR.png,,,,,0,1,1,1,0,2,2,9,,,,,,,,,,,,,,,,,,,,,,,,,,,,,,,,,,,,,,,,,,,,,,,,,,,,,,,,,,,,,,,,415.6440814000089,416.04461750003975,416.0281471000053,416.1285823000362,416.5294638000196,None,right,1,0.4182889999356121,416.5294638000196,None,416.0281471000053,416.1285823000362,416.1285823000362,None,416.9791258000769,None,,,,,,,11023,001,2024_Jan_07_1021,ANT,2021.2.3,59.883179909378406,
1,4,no,up,IC,R,,,,,,Block.xlsx,"你已经完成了整个实验（三个区组）。

请报告实验者已完成实验

非常感谢，再见！",50,0,1.5,right,LLRLL.png,,,,,0,1,1,1,0,3,3,3,,,,,,,,,,,,,,,,,,,,,,,,,,,,,,,,,,,,,,,,,,,,,,,,,,,,,,,,,,,,,,,,417.3790851000231,417.78187110007275,417.76352380006574,417.8641127999872,418.26468490005936,None,right,1,0.49111509998328984,418.26468490005936,None,417.76352380006574,417.8641127999872,417.8641127999872,None,418.7814057000214,None,,,,,,,11023,001,2024_Jan_07_1021,ANT,2021.2.3,59.883179909378406,
1,4,no,up,IC,R,,,,,,Block.xlsx,"你已经完成了整个实验（三个区组）。

请报告实验者已完成实验

非常感谢，再见！",50,0,1.5,right,LLRLL.png,,,,,0,1,1,1,0,4,4,3,,,,,,,,,,,,,,,,,,,,,,,,,,,,,,,,,,,,,,,,,,,,,,,,,,,,,,,,,,,,,,,,419.18203530006576,419.5833409000188,419.5666053000605,419.6662005999824,420.0673522000434,None,right,1,0.36878070002421737,420.0673522000434,None,419.5666053000605,419.6662005999824,419.6662005999824,None,420.45043900003657,None,,,,,,,11023,001,2024_Jan_07_1021,ANT,2021.2.3,59.883179909378406,
1,18,spatial,up,C,R,,,,,,Block.xlsx,"你已经完成了整个实验（三个区组）。

请报告实验者已完成实验

非常感谢，再见！",1.5,0,1.5,right,RRRRR.png,,,,,0,1,1,1,0,5,5,17,,,,,,,,,,,,,,,,,,,,,,,,,,,,,,,,,,,,,,,,,,,,,,,,,,,,,,,,,,,,,,,,420.85113890003413,421.25260010000784,421.2360772000393,421.3369792000158,421.73670080001466,None,right,1,0.34770569996908307,421.73670080001466,None,421.2360772000393,421.3369792000158,421.3369792000158,None,422.10310639999807,None,,,,,,,11023,001,2024_Jan_07_1021,ANT,2021.2.3,59.883179909378406,
1,14,center,down,C,R,,,,,,Block.xlsx,"你已经完成了整个实验（三个区组）。

请报告实验者已完成实验

非常感谢，再见！",0,50,-1.5,right,RRRRR.png,,,,,0,1,1,1,0,6,6,13,,,,,,,,,,,,,,,,,,,,,,,,,,,,,,,,,,,,,,,,,,,,,,,,,,,,,,,,,,,,,,,,422.50358710007276,422.90633220004383,422.8882671999745,422.9890414000256,423.38848289998714,None,right,1,0.40059749991633,423.38848289998714,None,422.8882671999745,422.9890414000256,422.9890414000256,None,423.805354500073,None,,,,,,,11023,001,2024_Jan_07_1021,ANT,2021.2.3,59.883179909378406,
1,15,center,down,IC,L,,,,,,Block.xlsx,"你已经完成了整个实验（三个区组）。

请报告实验者已完成实验

非常感谢，再见！",0,50,-1.5,left,RRLRR.png,,,,,0,1,1,1,0,7,7,14,,,,,,,,,,,,,,,,,,,,,,,,,,,,,,,,,,,,,,,,,,,,,,,,,,,,,,,,,,,,,,,,424.2060894999886,424.6073980999645,424.59169789997395,424.6922758000437,425.0914908000268,None,right,0,0.3449095000978559,425.0914908000268,None,424.59169789997395,424.6922758000437,424.6922758000437,None,425.4586498000426,None,,,,,,,11023,001,2024_Jan_07_1021,ANT,2021.2.3,59.883179909378406,
1,20,spatial,up,IC,R,,,,,,Block.xlsx,"你已经完成了整个实验（三个区组）。

请报告实验者已完成实验

非常感谢，再见！",1.5,0,1.5,right,LLRLL.png,,,,,0,1,1,1,0,8,8,19,,,,,,,,,,,,,,,,,,,,,,,,,,,,,,,,,,,,,,,,,,,,,,,,,,,,,,,,,,,,,,,,425.8586513000773,426.26108209998347,426.24314649996813,426.3430615999969,426.7431839000201,None,right,1,0.43664800003170967,426.7431839000201,None,426.24314649996813,426.3430615999969,426.3430615999969,None,427.210764599964,None,,,,,,,11023,001,2024_Jan_07_1021,ANT,2021.2.3,59.883179909378406,
1,12,center,up,IC,R,,,,,,Block.xlsx,"你已经完成了整个实验（三个区组）。

请报告实验者已完成实验

非常感谢，再见！",0,50,1.5,right,LLRLL.png,,,,,0,1,1,1,0,9,9,11,,,,,,,,,,,,,,,,,,,,,,,,,,,,,,,,,,,,,,,,,,,,,,,,,,,,,,,,,,,,,,,,427.61245090002194,428.01191920007113,427.9952940000221,428.0953774000518,428.49666900001466,None,right,1,0.5321415000362322,428.49666900001466,None,427.9952940000221,428.0953774000518,428.0953774000518,None,429.04713590000756,None,,,,,,,11023,001,2024_Jan_07_1021,ANT,2021.2.3,59.883179909378406,
1,22,spatial,down,C,R,,,,,,Block.xlsx,"你已经完成了整个实验（三个区组）。

请报告实验者已完成实验

非常感谢，再见！",-1.5,0,-1.5,right,RRRRR.png,,,,,0,1,1,1,0,10,10,21,,,,,,,,,,,,,,,,,,,,,,,,,,,,,,,,,,,,,,,,,,,,,,,,,,,,,,,,,,,,,,,,429.4475378000643,429.8490225999849,429.8312344000442,429.9325651000254,430.3326825000113,None,right,1,0.3751098000211641,430.3326825000113,None,429.8312344000442,429.9325651000254,429.9325651000254,None,430.7327720000176,None,,,,,,,11023,001,2024_Jan_07_1021,ANT,2021.2.3,59.883179909378406,
1,2,no,up,C,R,,,,,,Block.xlsx,"你已经完成了整个实验（三个区组）。

请报告实验者已完成实验

非常感谢，再见！",50,0,1.5,right,RRRRR.png,,,,,0,1,1,1,0,11,11,1,,,,,,,,,,,,,,,,,,,,,,,,,,,,,,,,,,,,,,,,,,,,,,,,,,,,,,,,,,,,,,,,431.1330985999666,431.53401509998366,431.51751819998026,431.6179148000665,432.0188294000691,None,right,1,0.44941270002163947,432.0188294000691,None,431.51751819998026,431.6179148000665,431.6179148000665,None,432.4850174000021,None,,,,,,,11023,001,2024_Jan_07_1021,ANT,2021.2.3,59.883179909378406,
1,5,no,down,C,L,,,,,,Block.xlsx,"你已经完成了整个实验（三个区组）。

请报告实验者已完成实验

非常感谢，再见！",50,0,-1.5,left,LLLLL.png,,,,,0,1,1,1,0,12,12,4,,,,,,,,,,,,,,,,,,,,,,,,,,,,,,,,,,,,,,,,,,,,,,,,,,,,,,,,,,,,,,,,432.88560200005304,433.28729810006917,433.27017170004547,433.37073399999645,433.7708128000377,None,left,1,0.4650048000039533,433.7708128000377,None,433.27017170004547,433.37073399999645,433.37073399999645,None,434.2540052999975,None,,,,,,,11023,001,2024_Jan_07_1021,ANT,2021.2.3,59.883179909378406,
1,7,no,down,IC,L,,,,,,Block.xlsx,"你已经完成了整个实验（三个区组）。

请报告实验者已完成实验

非常感谢，再见！",50,0,-1.5,left,RRLRR.png,,,,,0,1,1,1,0,13,13,6,,,,,,,,,,,,,,,,,,,,,,,,,,,,,,,,,,,,,,,,,,,,,,,,,,,,,,,,,,,,,,,,434.6566015999997,435.0569566000486,435.0400144000305,435.13953509996645,435.54108360002283,None,right,0,0.6792570999823511,435.54108360002283,None,435.0400144000305,435.13953509996645,435.13953509996645,None,436.2406587000005,None,,,,,,,11023,001,2024_Jan_07_1021,ANT,2021.2.3,59.883179909378406,
1,13,center,down,C,L,,,,,,Block.xlsx,"你已经完成了整个实验（三个区组）。

请报告实验者已完成实验

非常感谢，再见！",0,50,-1.5,left,LLLLL.png,,,,,0,1,1,1,0,14,14,12,,,,,,,,,,,,,,,,,,,,,,,,,,,,,,,,,,,,,,,,,,,,,,,,,,,,,,,,,,,,,,,,436.64125800004695,437.0428128000349,437.0263334000483,437.1272431999678,437.52639310003724,None,left,1,0.5499582000775263,437.52639310003724,None,437.0263334000483,437.1272431999678,437.1272431999678,None,438.0933110000333,None,,,,,,,11023,001,2024_Jan_07_1021,ANT,2021.2.3,59.883179909378406,
1,22,spatial,down,C,R,,,,,,Block.xlsx,"你已经完成了整个实验（三个区组）。

请报告实验者已完成实验

非常感谢，再见！",-1.5,0,-1.5,right,RRRRR.png,,,,,0,1,1,1,0,15,15,21,,,,,,,,,,,,,,,,,,,,,,,,,,,,,,,,,,,,,,,,,,,,,,,,,,,,,,,,,,,,,,,,438.4942194999894,438.8955740999663,438.87887919996865,438.97910390002653,439.37943600001745,None,right,1,0.5286232999060303,439.37943600001745,None,438.87887919996865,438.97910390002653,438.97910390002653,None,439.9309587000171,None,,,,,,,11023,001,2024_Jan_07_1021,ANT,2021.2.3,59.883179909378406,
1,23,spatial,down,IC,L,,,,,,Block.xlsx,"你已经完成了整个实验（三个区组）。

请报告实验者已完成实验

非常感谢，再见！",-1.5,0,-1.5,left,RRLRR.png,,,,,0,1,1,1,0,16,16,22,,,,,,,,,,,,,,,,,,,,,,,,,,,,,,,,,,,,,,,,,,,,,,,,,,,,,,,,,,,,,,,,440.32997760002036,440.7331429000478,440.7145685000578,440.8147069000406,441.21604900003877,None,left,1,0.5078111999901012,441.21604900003877,None,440.7145685000578,440.8147069000406,440.8147069000406,None,441.74976809998043,None,,,,,,,11023,001,2024_Jan_07_1021,ANT,2021.2.3,59.883179909378406,
1,21,spatial,down,C,L,,,,,,Block.xlsx,"你已经完成了整个实验（三个区组）。

请报告实验者已完成实验

非常感谢，再见！",-1.5,0,-1.5,left,LLLLL.png,,,,,0,1,1,1,0,17,17,20,,,,,,,,,,,,,,,,,,,,,,,,,,,,,,,,,,,,,,,,,,,,,,,,,,,,,,,,,,,,,,,,442.14947000006214,442.5515030999668,442.5332806999795,442.63364650006406,443.0347130000591,None,left,1,0.4410893999738619,443.0347130000591,None,442.5332806999795,442.63364650006406,442.63364650006406,None,443.50139750004746,None,,,,,,,11023,001,2024_Jan_07_1021,ANT,2021.2.3,59.883179909378406,
1,10,center,up,C,R,,,,,,Block.xlsx,"你已经完成了整个实验（三个区组）。

请报告实验者已完成实验

非常感谢，再见！",0,50,1.5,right,RRRRR.png,,,,,0,1,1,1,0,18,18,9,,,,,,,,,,,,,,,,,,,,,,,,,,,,,,,,,,,,,,,,,,,,,,,,,,,,,,,,,,,,,,,,443.9020412999671,444.3033970000688,444.28592920000665,444.38593940006103,444.78660079999827,None,right,1,0.4975267999107018,444.78660079999827,None,444.28592920000665,444.38593940006103,444.38593940006103,None,445.3040057000471,None,,,,,,,11023,001,2024_Jan_07_1021,ANT,2021.2.3,59.883179909378406,
1,23,spatial,down,IC,L,,,,,,Block.xlsx,"你已经完成了整个实验（三个区组）。

请报告实验者已完成实验

非常感谢，再见！",-1.5,0,-1.5,left,RRLRR.png,,,,,0,1,1,1,0,19,19,22,,,,,,,,,,,,,,,,,,,,,,,,,,,,,,,,,,,,,,,,,,,,,,,,,,,,,,,,,,,,,,,,445.7046261000214,446.10619149997365,446.0887745000655,446.1894999999786,446.5910495000426,None,left,1,0.428793300059624,446.5910495000426,None,446.0887745000655,446.1894999999786,446.1894999999786,None,447.0400289000245,None,,,,,,,11023,001,2024_Jan_07_1021,ANT,2021.2.3,59.883179909378406,
1,3,no,up,IC,L,,,,,,Block.xlsx,"你已经完成了整个实验（三个区组）。

请报告实验者已完成实验

非常感谢，再见！",50,0,1.5,left,RRLRR.png,,,,,0,1,1,1,0,20,20,2,,,,,,,,,,,,,,,,,,,,,,,,,,,,,,,,,,,,,,,,,,,,,,,,,,,,,,,,,,,,,,,,447.44150369998533,447.8426149999723,447.825290900073,447.926563700079,448.3257192000747,None,left,1,0.6701142999809235,448.3257192000747,None,447.825290900073,447.926563700079,447.926563700079,None,449.0262069000164,None,,,,,,,11023,001,2024_Jan_07_1021,ANT,2021.2.3,59.883179909378406,
1,5,no,down,C,L,,,,,,Block.xlsx,"你已经完成了整个实验（三个区组）。

请报告实验者已完成实验

非常感谢，再见！",50,0,-1.5,left,LLLLL.png,,,,,0,1,1,1,0,21,21,4,,,,,,,,,,,,,,,,,,,,,,,,,,,,,,,,,,,,,,,,,,,,,,,,,,,,,,,,,,,,,,,,449.4276558000129,449.8281134000281,449.8116835000692,449.9115495000733,450.3126767000649,None,left,1,0.48312680004164577,450.3126767000649,None,449.8116835000692,449.9115495000733,449.9115495000733,None,450.8120912000304,None,,,,,,,11023,001,2024_Jan_07_1021,ANT,2021.2.3,59.883179909378406,
1,9,center,up,C,L,,,,,,Block.xlsx,"你已经完成了整个实验（三个区组）。

请报告实验者已完成实验

非常感谢，再见！",0,50,1.5,left,LLLLL.png,,,,,0,1,1,1,0,22,22,8,,,,,,,,,,,,,,,,,,,,,,,,,,,,,,,,,,,,,,,,,,,,,,,,,,,,,,,,,,,,,,,,451.21317360003013,451.61423609999474,451.59742590005044,451.69740810000803,452.09790250007063,None,left,1,0.38597249996382743,452.09790250007063,None,451.59742590005044,451.69740810000803,451.69740810000803,None,452.49792130000424,None,,,,,,,11023,001,2024_Jan_07_1021,ANT,2021.2.3,59.883179909378406,
1,3,no,up,IC,L,,,,,,Block.xlsx,"你已经完成了整个实验（三个区组）。

请报告实验者已完成实验

非常感谢，再见！",50,0,1.5,left,RRLRR.png,,,,,0,1,1,1,0,23,23,2,,,,,,,,,,,,,,,,,,,,,,,,,,,,,,,,,,,,,,,,,,,,,,,,,,,,,,,,,,,,,,,,452.89871139999013,453.30080339999404,453.2832008000696,453.3837722999742,453.7855661000358,None,left,1,0.770643400028348,453.7855661000358,None,453.2832008000696,453.3837722999742,453.3837722999742,None,454.5844963999698,None,,,,,,,11023,001,2024_Jan_07_1021,ANT,2021.2.3,59.883179909378406,
1,5,no,down,C,L,,,,,,Block.xlsx,"你已经完成了整个实验（三个区组）。

请报告实验者已完成实验

非常感谢，再见！",50,0,-1.5,left,LLLLL.png,,,,,0,1,1,1,1,0,24,4,,,,,,,,,,,,,,,,,,,,,,,,,,,,,,,,,,,,,,,,,,,,,,,,,,,,,,,,,,,,,,,,454.9859545000363,455.38747149996925,455.36969239998143,455.4700672000181,455.8720422000624,None,left,1,0.5718486000550911,455.8720422000624,None,455.36969239998143,455.4700672000181,455.4700672000181,None,456.47073689999525,None,,,,,,,11023,001,2024_Jan_07_1021,ANT,2021.2.3,59.883179909378406,
1,11,center,up,IC,L,,,,,,Block.xlsx,"你已经完成了整个实验（三个区组）。

请报告实验者已完成实验

非常感谢，再见！",0,50,1.5,left,RRLRR.png,,,,,0,1,1,1,1,1,25,10,,,,,,,,,,,,,,,,,,,,,,,,,,,,,,,,,,,,,,,,,,,,,,,,,,,,,,,,,,,,,,,,456.8712583000306,457.27255900006276,457.25583729997743,457.35615370003507,457.75718030007556,None,left,1,0.5746000000508502,457.75718030007556,None,457.25583729997743,457.35615370003507,457.35615370003507,None,458.3566736000357,None,,,,,,,11023,001,2024_Jan_07_1021,ANT,2021.2.3,59.883179909378406,
1,20,spatial,up,IC,R,,,,,,Block.xlsx,"你已经完成了整个实验（三个区组）。

请报告实验者已完成实验

非常感谢，再见！",1.5,0,1.5,right,LLRLL.png,,,,,0,1,1,1,1,2,26,19,,,,,,,,,,,,,,,,,,,,,,,,,,,,,,,,,,,,,,,,,,,,,,,,,,,,,,,,,,,,,,,,458.7579890000634,459.15989919996355,459.14190270006657,459.2428535000654,459.64271260006353,None,right,1,0.8572549000382423,459.64271260006353,None,459.14190270006657,459.2428535000654,459.2428535000654,None,460.52678319998085,None,,,,,,,11023,001,2024_Jan_07_1021,ANT,2021.2.3,59.883179909378406,
1,17,spatial,up,C,L,,,,,,Block.xlsx,"你已经完成了整个实验（三个区组）。

请报告实验者已完成实验

非常感谢，再见！",1.5,0,1.5,left,LLLLL.png,,,,,0,1,1,1,1,3,27,16,,,,,,,,,,,,,,,,,,,,,,,,,,,,,,,,,,,,,,,,,,,,,,,,,,,,,,,,,,,,,,,,460.9271988000255,461.3286556999665,461.31178240000736,461.41185899998527,461.812895799987,None,left,1,0.5350424000062048,461.812895799987,None,461.31178240000736,461.41185899998527,461.41185899998527,None,462.3625447000377,None,,,,,,,11023,001,2024_Jan_07_1021,ANT,2021.2.3,59.883179909378406,
1,8,no,down,IC,R,,,,,,Block.xlsx,"你已经完成了整个实验（三个区组）。

请报告实验者已完成实验

非常感谢，再见！",50,0,-1.5,right,LLRLL.png,,,,,0,1,1,1,1,4,28,7,,,,,,,,,,,,,,,,,,,,,,,,,,,,,,,,,,,,,,,,,,,,,,,,,,,,,,,,,,,,,,,,462.7637887999881,463.1645785999717,463.14792620006483,463.24872440006584,463.6498858999694,None,right,1,0.666506199981086,463.6498858999694,None,463.14792620006483,463.24872440006584,463.24872440006584,None,464.33197910001036,None,,,,,,,11023,001,2024_Jan_07_1021,ANT,2021.2.3,59.883179909378406,
1,23,spatial,down,IC,L,,,,,,Block.xlsx,"你已经完成了整个实验（三个区组）。

请报告实验者已完成实验

非常感谢，再见！",-1.5,0,-1.5,left,RRLRR.png,,,,,0,1,1,1,1,5,29,22,,,,,,,,,,,,,,,,,,,,,,,,,,,,,,,,,,,,,,,,,,,,,,,,,,,,,,,,,,,,,,,,464.7326984000392,465.13411220000125,465.11790850001853,465.2174701000331,465.6174025000073,None,left,1,0.578834000043571,465.6174025000073,None,465.11790850001853,465.2174701000331,465.2174701000331,None,466.2195234000683,None,,,,,,,11023,001,2024_Jan_07_1021,ANT,2021.2.3,59.883179909378406,
1,4,no,up,IC,R,,,,,,Block.xlsx,"你已经完成了整个实验（三个区组）。

请报告实验者已完成实验

非常感谢，再见！",50,0,1.5,right,LLRLL.png,,,,,0,1,1,1,1,6,30,3,,,,,,,,,,,,,,,,,,,,,,,,,,,,,,,,,,,,,,,,,,,,,,,,,,,,,,,,,,,,,,,,466.6189458000008,467.01968660007697,467.0035241000587,467.10377110005356,467.5047883000225,None,right,1,0.611486499896273,467.5047883000225,None,467.0035241000587,467.10377110005356,467.10377110005356,None,468.1379176999908,None,,,,,,,11023,001,2024_Jan_07_1021,ANT,2021.2.3,59.883179909378406,
1,2,no,up,C,R,,,,,,Block.xlsx,"你已经完成了整个实验（三个区组）。

请报告实验者已完成实验

非常感谢，再见！",50,0,1.5,right,RRRRR.png,,,,,0,1,1,1,1,7,31,1,,,,,,,,,,,,,,,,,,,,,,,,,,,,,,,,,,,,,,,,,,,,,,,,,,,,,,,,,,,,,,,,468.5383221000666,468.9412018000148,468.923249399988,469.0241718000034,469.4249234000454,None,right,1,0.5712757000001147,469.4249234000454,None,468.923249399988,469.0241718000034,469.0241718000034,None,470.02564969996456,None,,,,,,,11023,001,2024_Jan_07_1021,ANT,2021.2.3,59.883179909378406,
1,20,spatial,up,IC,R,,,,,,Block.xlsx,"你已经完成了整个实验（三个区组）。

请报告实验者已完成实验

非常感谢，再见！",1.5,0,1.5,right,LLRLL.png,,,,,0,1,1,1,1,8,32,19,,,,,,,,,,,,,,,,,,,,,,,,,,,,,,,,,,,,,,,,,,,,,,,,,,,,,,,,,,,,,,,,470.4245060000103,470.8255524999695,470.8108766999794,470.9274454000406,471.3099260000745,None,right,1,0.5826206000056118,471.3099260000745,None,470.8108766999794,470.9274454000406,470.9087544999784,None,471.9107414999744,None,,,,,,,11023,001,2024_Jan_07_1021,ANT,2021.2.3,59.883179909378406,
1,18,spatial,up,C,R,,,,,,Block.xlsx,"你已经完成了整个实验（三个区组）。

请报告实验者已完成实验

非常感谢，再见！",1.5,0,1.5,right,RRRRR.png,,,,,0,1,1,1,1,9,33,17,,,,,,,,,,,,,,,,,,,,,,,,,,,,,,,,,,,,,,,,,,,,,,,,,,,,,,,,,,,,,,,,472.31137570005376,472.7131468000589,472.69530000002123,472.795533800032,473.19678530003875,None,right,1,0.45519750006496906,473.19678530003875,None,472.69530000002123,472.795533800032,472.795533800032,None,473.68018819997087,None,,,,,,,11023,001,2024_Jan_07_1021,ANT,2021.2.3,59.883179909378406,
1,21,spatial,down,C,L,,,,,,Block.xlsx,"你已经完成了整个实验（三个区组）。

请报告实验者已完成实验

非常感谢，再见！",-1.5,0,-1.5,left,LLLLL.png,,,,,0,1,1,1,1,10,34,20,,,,,,,,,,,,,,,,,,,,,,,,,,,,,,,,,,,,,,,,,,,,,,,,,,,,,,,,,,,,,,,,474.0800310000777,474.4817213000497,474.46475200005807,474.5649484000169,474.96547260007355,None,left,1,0.44669060001615435,474.96547260007355,None,474.46475200005807,474.5649484000169,474.5649484000169,None,475.43194629997015,None,,,,,,,11023,001,2024_Jan_07_1021,ANT,2021.2.3,59.883179909378406,
1,18,spatial,up,C,R,,,,,,Block.xlsx,"你已经完成了整个实验（三个区组）。

请报告实验者已完成实验

非常感谢，再见！",1.5,0,1.5,right,RRRRR.png,,,,,0,1,1,1,1,11,35,17,,,,,,,,,,,,,,,,,,,,,,,,,,,,,,,,,,,,,,,,,,,,,,,,,,,,,,,,,,,,,,,,475.8326757000759,476.23479859996587,476.21709819999523,476.317846299964,476.7179510999704,None,right,1,0.5503489000257105,476.7179510999704,None,476.21709819999523,476.317846299964,476.317846299964,None,477.2855624000076,None,,,,,,,11023,001,2024_Jan_07_1021,ANT,2021.2.3,59.883179909378406,
1,15,center,down,IC,L,,,,,,Block.xlsx,"你已经完成了整个实验（三个区组）。

请报告实验者已完成实验

非常感谢，再见！",0,50,-1.5,left,RRLRR.png,,,,,0,1,1,1,1,12,36,14,,,,,,,,,,,,,,,,,,,,,,,,,,,,,,,,,,,,,,,,,,,,,,,,,,,,,,,,,,,,,,,,477.68539640004747,478.08818159997463,478.0701009000186,478.170065500075,478.56993590004276,None,left,1,0.6984038000227883,478.56993590004276,None,478.0701009000186,478.170065500075,478.170065500075,None,479.2877710000612,None,,,,,,,11023,001,2024_Jan_07_1021,ANT,2021.2.3,59.883179909378406,
1,22,spatial,down,C,R,,,,,,Block.xlsx,"你已经完成了整个实验（三个区组）。

请报告实验者已完成实验

非常感谢，再见！",-1.5,0,-1.5,right,RRRRR.png,,,,,0,1,1,1,1,13,37,21,,,,,,,,,,,,,,,,,,,,,,,,,,,,,,,,,,,,,,,,,,,,,,,,,,,,,,,,,,,,,,,,479.68914769997355,480.08960820001084,480.07418790005613,480.1743181999773,480.5730353000108,None,right,1,0.5911181999836117,480.5730353000108,None,480.07418790005613,480.1743181999773,480.1743181999773,None,481.19063820003066,None,,,,,,,11023,001,2024_Jan_07_1021,ANT,2021.2.3,59.883179909378406,
1,7,no,down,IC,L,,,,,,Block.xlsx,"你已经完成了整个实验（三个区组）。

请报告实验者已完成实验

非常感谢，再见！",50,0,-1.5,left,RRLRR.png,,,,,0,1,1,1,1,14,38,6,,,,,,,,,,,,,,,,,,,,,,,,,,,,,,,,,,,,,,,,,,,,,,,,,,,,,,,,,,,,,,,,481.5909958999837,481.9943258999847,481.9761634999886,482.07710520003457,482.47612770006526,None,left,1,0.7118931000586599,482.47612770006526,None,481.9761634999886,482.07710520003457,482.07710520003457,None,483.2101881999988,None,,,,,,,11023,001,2024_Jan_07_1021,ANT,2021.2.3,59.883179909378406,
1,3,no,up,IC,L,,,,,,Block.xlsx,"你已经完成了整个实验（三个区组）。

请报告实验者已完成实验

非常感谢，再见！",50,0,1.5,left,RRLRR.png,,,,,0,1,1,1,1,15,39,2,,,,,,,,,,,,,,,,,,,,,,,,,,,,,,,,,,,,,,,,,,,,,,,,,,,,,,,,,,,,,,,,483.61066999996547,484.0121500999667,483.99567159998696,484.0963091000449,484.4962298000464,None,left,1,0.6120171000948176,484.4962298000464,None,483.99567159998696,484.0963091000449,484.0963091000449,None,485.1296934999991,None,,,,,,,11023,001,2024_Jan_07_1021,ANT,2021.2.3,59.883179909378406,
1,11,center,up,IC,L,,,,,,Block.xlsx,"你已经完成了整个实验（三个区组）。

请报告实验者已完成实验

非常感谢，再见！",0,50,1.5,left,RRLRR.png,,,,,0,1,1,1,1,16,40,10,,,,,,,,,,,,,,,,,,,,,,,,,,,,,,,,,,,,,,,,,,,,,,,,,,,,,,,,,,,,,,,,485.5309736999916,485.93186640006024,485.9141101000132,486.01589679997414,486.4164531000424,None,left,1,0.6035178999882191,486.4164531000424,None,485.9141101000132,486.01589679997414,486.01589679997414,None,487.0491022000788,None,,,,,,,11023,001,2024_Jan_07_1021,ANT,2021.2.3,59.883179909378406,
1,12,center,up,IC,R,,,,,,Block.xlsx,"你已经完成了整个实验（三个区组）。

请报告实验者已完成实验

非常感谢，再见！",0,50,1.5,right,LLRLL.png,,,,,0,1,1,1,1,17,41,11,,,,,,,,,,,,,,,,,,,,,,,,,,,,,,,,,,,,,,,,,,,,,,,,,,,,,,,,,,,,,,,,487.4508544000564,487.851450300077,487.8346054999856,487.93451779999305,488.33555499999784,None,right,1,0.5652353999903426,488.33555499999784,None,487.8346054999856,487.93451779999305,487.93451779999305,None,488.91929490002804,None,,,,,,,11023,001,2024_Jan_07_1021,ANT,2021.2.3,59.883179909378406,
1,7,no,down,IC,L,,,,,,Block.xlsx,"你已经完成了整个实验（三个区组）。

请报告实验者已完成实验

非常感谢，再见！",50,0,-1.5,left,RRLRR.png,,,,,0,1,1,1,1,18,42,6,,,,,,,,,,,,,,,,,,,,,,,,,,,,,,,,,,,,,,,,,,,,,,,,,,,,,,,,,,,,,,,,489.32031079998706,489.72250789997634,489.7038476000307,489.8056523000123,490.20480890001636,None,left,1,0.639337099972181,490.20480890001636,None,489.7038476000307,489.8056523000123,489.8056523000123,None,490.8718050000025,None,,,,,,,11023,001,2024_Jan_07_1021,ANT,2021.2.3,59.883179909378406,
1,1,no,up,C,L,,,,,,Block.xlsx,"你已经完成了整个实验（三个区组）。

请报告实验者已完成实验

非常感谢，再见！",50,0,1.5,left,LLLLL.png,,,,,0,1,1,1,1,19,43,0,,,,,,,,,,,,,,,,,,,,,,,,,,,,,,,,,,,,,,,,,,,,,,,,,,,,,,,,,,,,,,,,491.2734592000488,491.6731093999697,491.65808610001113,491.77469690004364,492.15758280002046,None,left,1,0.5263970999512821,492.15758280002046,None,491.65808610001113,491.77469690004364,491.75699869997334,None,492.7076240000315,None,,,,,,,11023,001,2024_Jan_07_1021,ANT,2021.2.3,59.883179909378406,
1,2,no,up,C,R,,,,,,Block.xlsx,"你已经完成了整个实验（三个区组）。

请报告实验者已完成实验

非常感谢，再见！",50,0,1.5,right,RRRRR.png,,,,,0,1,1,1,1,20,44,1,,,,,,,,,,,,,,,,,,,,,,,,,,,,,,,,,,,,,,,,,,,,,,,,,,,,,,,,,,,,,,,,493.10925720003434,493.5108669999754,493.4929068000056,493.5929614000488,493.99534070002846,None,right,1,0.7529682000167668,493.99534070002846,None,493.4929068000056,493.5929614000488,493.5929614000488,None,494.77858839998953,None,,,,,,,11023,001,2024_Jan_07_1021,ANT,2021.2.3,59.883179909378406,
1,12,center,up,IC,R,,,,,,Block.xlsx,"你已经完成了整个实验（三个区组）。

请报告实验者已完成实验

非常感谢，再见！",0,50,1.5,right,LLRLL.png,,,,,0,1,1,1,1,21,45,11,,,,,,,,,,,,,,,,,,,,,,,,,,,,,,,,,,,,,,,,,,,,,,,,,,,,,,,,,,,,,,,,495.17776770005,495.5785602000542,495.5624902000418,495.6624819000717,496.0633024000563,None,right,1,0.7009698000038043,496.0633024000563,None,495.5624902000418,495.6624819000717,495.6624819000717,None,496.7806637000758,None,,,,,,,11023,001,2024_Jan_07_1021,ANT,2021.2.3,59.883179909378406,
1,9,center,up,C,L,,,,,,Block.xlsx,"你已经完成了整个实验（三个区组）。

请报告实验者已完成实验

非常感谢，再见！",0,50,1.5,left,LLLLL.png,,,,,0,1,1,1,1,22,46,8,,,,,,,,,,,,,,,,,,,,,,,,,,,,,,,,,,,,,,,,,,,,,,,,,,,,,,,,,,,,,,,,497.1821147999726,497.5838094999781,497.56575880001765,497.6669890000485,498.06618099997286,None,left,1,0.4980968999443576,498.06618099997286,None,497.56575880001765,497.6669890000485,497.6669890000485,None,498.58363260002807,None,,,,,,,11023,001,2024_Jan_07_1021,ANT,2021.2.3,59.883179909378406,
1,6,no,down,C,R,,,,,,Block.xlsx,"你已经完成了整个实验（三个区组）。

请报告实验者已完成实验

非常感谢，再见！",50,0,-1.5,right,RRRRR.png,,,,,0,1,1,1,1,23,47,5,,,,,,,,,,,,,,,,,,,,,,,,,,,,,,,,,,,,,,,,,,,,,,,,,,,,,,,,,,,,,,,,498.9842989000026,499.38490930001717,499.36833790002856,499.46789740002714,499.8691528000636,None,right,1,0.4550923000788316,499.8691528000636,None,499.36833790002856,499.46789740002714,499.46789740002714,None,500.3522442000685,None,,,,,,,11023,001,2024_Jan_07_1021,ANT,2021.2.3,59.883179909378406,
1,16,center,down,IC,R,,,,,,Block.xlsx,"你已经完成了整个实验（三个区组）。

请报告实验者已完成实验

非常感谢，再见！",0,50,-1.5,right,LLRLL.png,,,,,0,1,1,1,2,0,48,15,,,,,,,,,,,,,,,,,,,,,,,,,,,,,,,,,,,,,,,,,,,,,,,,,,,,,,,,,,,,,,,,500.7528605000116,501.1559990000678,501.13747129996773,501.2378752999939,501.6393193000695,None,right,1,0.6210310000460595,501.6393193000695,None,501.13747129996773,501.2378752999939,501.2378752999939,None,502.288433299982,None,,,,,,,11023,001,2024_Jan_07_1021,ANT,2021.2.3,59.883179909378406,
1,16,center,down,IC,R,,,,,,Block.xlsx,"你已经完成了整个实验（三个区组）。

请报告实验者已完成实验

非常感谢，再见！",0,50,-1.5,right,LLRLL.png,,,,,0,1,1,1,2,1,49,15,,,,,,,,,,,,,,,,,,,,,,,,,,,,,,,,,,,,,,,,,,,,,,,,,,,,,,,,,,,,,,,,502.6901131999912,503.0908693000674,503.0739085000241,503.17445619998034,503.5754289000761,None,right,1,0.5169857000000775,503.5754289000761,None,503.0739085000241,503.17445619998034,503.17445619998034,None,504.1087399000535,None,,,,,,,11023,001,2024_Jan_07_1021,ANT,2021.2.3,59.883179909378406,
1,19,spatial,up,IC,L,,,,,,Block.xlsx,"你已经完成了整个实验（三个区组）。

请报告实验者已完成实验

非常感谢，再见！",1.5,0,1.5,left,RRLRR.png,,,,,0,1,1,1,2,2,50,18,,,,,,,,,,,,,,,,,,,,,,,,,,,,,,,,,,,,,,,,,,,,,,,,,,,,,,,,,,,,,,,,504.50832130003255,504.91072789998725,504.89310400001705,504.99282699998,505.3949996000156,None,left,1,0.44925519998651,505.3949996000156,None,504.89310400001705,504.99282699998,504.99282699998,None,505.8603160000639,None,,,,,,,11023,001,2024_Jan_07_1021,ANT,2021.2.3,59.883179909378406,
1,20,spatial,up,IC,R,,,,,,Block.xlsx,"你已经完成了整个实验（三个区组）。

请报告实验者已完成实验

非常感谢，再见！",1.5,0,1.5,right,LLRLL.png,,,,,0,1,1,1,2,3,51,19,,,,,,,,,,,,,,,,,,,,,,,,,,,,,,,,,,,,,,,,,,,,,,,,,,,,,,,,,,,,,,,,506.2621301000472,506.66251240007114,506.64496219996363,506.74660539999604,507.147253000061,None,right,1,0.5528219999978319,507.147253000061,None,506.64496219996363,506.74660539999604,506.74660539999604,None,507.73068000003695,None,,,,,,,11023,001,2024_Jan_07_1021,ANT,2021.2.3,59.883179909378406,
1,16,center,down,IC,R,,,,,,Block.xlsx,"你已经完成了整个实验（三个区组）。

请报告实验者已完成实验

非常感谢，再见！",0,50,-1.5,right,LLRLL.png,,,,,0,1,1,1,2,4,52,15,,,,,,,,,,,,,,,,,,,,,,,,,,,,,,,,,,,,,,,,,,,,,,,,,,,,,,,,,,,,,,,,508.1305041000014,508.53188450005837,508.5153688000282,508.6150541000534,509.0158536999952,None,right,1,0.5167911999160424,509.0158536999952,None,508.5153688000282,508.6150541000534,508.6150541000534,None,509.549561599968,None,,,,,,,11023,001,2024_Jan_07_1021,ANT,2021.2.3,59.883179909378406,
1,6,no,down,C,R,,,,,,Block.xlsx,"你已经完成了整个实验（三个区组）。

请报告实验者已完成实验

非常感谢，再见！",50,0,-1.5,right,RRRRR.png,,,,,0,1,1,1,2,5,53,5,,,,,,,,,,,,,,,,,,,,,,,,,,,,,,,,,,,,,,,,,,,,,,,,,,,,,,,,,,,,,,,,509.9498606000561,510.3511329999892,510.33464740007184,510.4345409000525,510.83518320007715,None,right,1,0.424650999950245,510.83518320007715,None,510.33464740007184,510.4345409000525,510.4345409000525,None,511.2850826000795,None,,,,,,,11023,001,2024_Jan_07_1021,ANT,2021.2.3,59.883179909378406,
1,21,spatial,down,C,L,,,,,,Block.xlsx,"你已经完成了整个实验（三个区组）。

请报告实验者已完成实验

非常感谢，再见！",-1.5,0,-1.5,left,LLLLL.png,,,,,0,1,1,1,2,6,54,20,,,,,,,,,,,,,,,,,,,,,,,,,,,,,,,,,,,,,,,,,,,,,,,,,,,,,,,,,,,,,,,,511.6857387999771,512.0867242000531,512.0708593999734,512.1871988000348,512.5703533000778,None,left,1,0.4574899999424815,512.5703533000778,None,512.0708593999734,512.1871988000348,512.1719816999976,None,513.0544627000345,None,,,,,,,11023,001,2024_Jan_07_1021,ANT,2021.2.3,59.883179909378406,
1,1,no,up,C,L,,,,,,Block.xlsx,"你已经完成了整个实验（三个区组）。

请报告实验者已完成实验

非常感谢，再见！",50,0,1.5,left,LLLLL.png,,,,,0,1,1,1,2,7,55,0,,,,,,,,,,,,,,,,,,,,,,,,,,,,,,,,,,,,,,,,,,,,,,,,,,,,,,,,,,,,,,,,513.4550231000176,513.857867600047,513.8394715000177,513.939089499996,514.3399512000615,None,left,1,0.45601099997293204,514.3399512000615,None,513.8394715000177,513.939089499996,513.939089499996,None,514.8238339000382,None,,,,,,,11023,001,2024_Jan_07_1021,ANT,2021.2.3,59.883179909378406,
1,14,center,down,C,R,,,,,,Block.xlsx,"你已经完成了整个实验（三个区组）。

请报告实验者已完成实验

非常感谢，再见！",0,50,-1.5,right,RRRRR.png,,,,,0,1,1,1,2,8,56,13,,,,,,,,,,,,,,,,,,,,,,,,,,,,,,,,,,,,,,,,,,,,,,,,,,,,,,,,,,,,,,,,515.2244182999711,515.6251919000642,515.6101463000523,515.709427200025,516.1101246000035,None,right,1,0.733925599954091,516.1101246000035,None,515.6101463000523,515.709427200025,515.709427200025,None,516.8602545000613,None,,,,,,,11023,001,2024_Jan_07_1021,ANT,2021.2.3,59.883179909378406,
1,21,spatial,down,C,L,,,,,,Block.xlsx,"你已经完成了整个实验（三个区组）。

请报告实验者已完成实验

非常感谢，再见！",-1.5,0,-1.5,left,LLLLL.png,,,,,0,1,1,1,2,9,57,20,,,,,,,,,,,,,,,,,,,,,,,,,,,,,,,,,,,,,,,,,,,,,,,,,,,,,,,,,,,,,,,,517.2612114000367,517.6634243000299,517.6453136000782,517.7463437999832,518.1459923000075,None,left,1,0.46702529990579933,518.1459923000075,None,517.6453136000782,517.7463437999832,517.7463437999832,None,518.6290591000579,None,,,,,,,11023,001,2024_Jan_07_1021,ANT,2021.2.3,59.883179909378406,
1,24,spatial,down,IC,R,,,,,,Block.xlsx,"你已经完成了整个实验（三个区组）。

请报告实验者已完成实验

非常感谢，再见！",-1.5,0,-1.5,right,LLRLL.png,,,,,0,1,1,1,2,10,58,23,,,,,,,,,,,,,,,,,,,,,,,,,,,,,,,,,,,,,,,,,,,,,,,,,,,,,,,,,,,,,,,,519.0299562000437,519.4308503000066,519.4146140000084,519.5146171000088,519.9154554000124,None,right,1,0.4654739999677986,519.9154554000124,None,519.4146140000084,519.5146171000088,519.5146171000088,None,520.3993390999967,None,,,,,,,11023,001,2024_Jan_07_1021,ANT,2021.2.3,59.883179909378406,
1,10,center,up,C,R,,,,,,Block.xlsx,"你已经完成了整个实验（三个区组）。

请报告实验者已完成实验

非常感谢，再见！",0,50,1.5,right,RRRRR.png,,,,,0,1,1,1,2,11,59,9,,,,,,,,,,,,,,,,,,,,,,,,,,,,,,,,,,,,,,,,,,,,,,,,,,,,,,,,,,,,,,,,520.7993630999699,521.2007258000085,521.1838014000095,521.283959900029,521.68473670003,None,right,1,0.4071914000669494,521.68473670003,None,521.1838014000095,521.283959900029,521.283959900029,None,522.1185387000442,None,,,,,,,11023,001,2024_Jan_07_1021,ANT,2021.2.3,59.883179909378406,
1,22,spatial,down,C,R,,,,,,Block.xlsx,"你已经完成了整个实验（三个区组）。

请报告实验者已完成实验

非常感谢，再见！",-1.5,0,-1.5,right,RRRRR.png,,,,,0,1,1,1,2,12,60,21,,,,,,,,,,,,,,,,,,,,,,,,,,,,,,,,,,,,,,,,,,,,,,,,,,,,,,,,,,,,,,,,522.51832500007,522.919781500008,522.9037728999974,523.0036750000436,523.4037185000489,None,right,1,0.4081999999471009,523.4037185000489,None,522.9037728999974,523.0036750000436,523.0036750000436,None,523.8370730000315,None,,,,,,,11023,001,2024_Jan_07_1021,ANT,2021.2.3,59.883179909378406,
1,17,spatial,up,C,L,,,,,,Block.xlsx,"你已经完成了整个实验（三个区组）。

请报告实验者已完成实验

非常感谢，再见！",1.5,0,1.5,left,LLLLL.png,,,,,0,1,1,1,2,13,61,16,,,,,,,,,,,,,,,,,,,,,,,,,,,,,,,,,,,,,,,,,,,,,,,,,,,,,,,,,,,,,,,,524.2376537000528,524.6390335999895,524.6240451000631,524.7396513000131,525.1230811000569,None,left,1,0.4016696000471711,525.1230811000569,None,524.6240451000631,524.7396513000131,524.7228523000376,None,525.5394942000275,None,,,,,,,11023,001,2024_Jan_07_1021,ANT,2021.2.3,59.883179909378406,
1,8,no,down,IC,R,,,,,,Block.xlsx,"你已经完成了整个实验（三个区组）。

请报告实验者已完成实验

非常感谢，再见！",50,0,-1.5,right,LLRLL.png,,,,,0,1,1,1,2,14,62,7,,,,,,,,,,,,,,,,,,,,,,,,,,,,,,,,,,,,,,,,,,,,,,,,,,,,,,,,,,,,,,,,525.9405356000643,526.340999100008,526.3247835000511,526.4250364999752,526.8258433999727,None,right,1,0.5781668999698013,526.8258433999727,None,526.3247835000511,526.4250364999752,526.4250364999752,None,527.4256415000418,None,,,,,,,11023,001,2024_Jan_07_1021,ANT,2021.2.3,59.883179909378406,
1,2,no,up,C,R,,,,,,Block.xlsx,"你已经完成了整个实验（三个区组）。

请报告实验者已完成实验

非常感谢，再见！",50,0,1.5,right,RRRRR.png,,,,,0,1,1,1,2,15,63,1,,,,,,,,,,,,,,,,,,,,,,,,,,,,,,,,,,,,,,,,,,,,,,,,,,,,,,,,,,,,,,,,527.8263177999761,528.2280506000388,528.2115020999918,528.3110390000511,528.7118109000148,None,right,1,0.41254169994499534,528.7118109000148,None,528.2115020999918,528.3110390000511,528.3110390000511,None,529.146349000046,None,,,,,,,11023,001,2024_Jan_07_1021,ANT,2021.2.3,59.883179909378406,
1,13,center,down,C,L,,,,,,Block.xlsx,"你已经完成了整个实验（三个区组）。

请报告实验者已完成实验

非常感谢，再见！",0,50,-1.5,left,LLLLL.png,,,,,0,1,1,1,2,16,64,12,,,,,,,,,,,,,,,,,,,,,,,,,,,,,,,,,,,,,,,,,,,,,,,,,,,,,,,,,,,,,,,,529.5461965000723,529.946763999993,529.9298494000686,530.0305200000294,530.4301809000317,None,left,1,0.4860148000298068,530.4301809000317,None,529.9298494000686,530.0305200000294,530.0305200000294,None,530.9309043000685,None,,,,,,,11023,001,2024_Jan_07_1021,ANT,2021.2.3,59.883179909378406,
1,23,spatial,down,IC,L,,,,,,Block.xlsx,"你已经完成了整个实验（三个区组）。

请报告实验者已完成实验

非常感谢，再见！",-1.5,0,-1.5,left,RRLRR.png,,,,,0,1,1,1,2,17,65,22,,,,,,,,,,,,,,,,,,,,,,,,,,,,,,,,,,,,,,,,,,,,,,,,,,,,,,,,,,,,,,,,531.332668100018,531.7328829000471,531.716126400046,531.8166435000021,532.2169036000269,None,left,1,0.8838284000521526,532.2169036000269,None,531.716126400046,531.8166435000021,531.8166435000021,None,533.117449900019,None,,,,,,,11023,001,2024_Jan_07_1021,ANT,2021.2.3,59.883179909378406,
1,13,center,down,C,L,,,,,,Block.xlsx,"你已经完成了整个实验（三个区组）。

请报告实验者已完成实验

非常感谢，再见！",0,50,-1.5,left,LLLLL.png,,,,,0,1,1,1,2,18,66,12,,,,,,,,,,,,,,,,,,,,,,,,,,,,,,,,,,,,,,,,,,,,,,,,,,,,,,,,,,,,,,,,533.5190535000293,533.9186497000046,533.9025812000036,534.0040656999918,534.40350330004,None,left,1,0.4169480000855401,534.40350330004,None,533.9025812000036,534.0040656999918,534.0040656999918,None,534.8373446000041,None,,,,,,,11023,001,2024_Jan_07_1021,ANT,2021.2.3,59.883179909378406,
1,15,center,down,IC,L,,,,,,Block.xlsx,"你已经完成了整个实验（三个区组）。

请报告实验者已完成实验

非常感谢，再见！",0,50,-1.5,left,RRLRR.png,,,,,0,1,1,1,2,19,67,14,,,,,,,,,,,,,,,,,,,,,,,,,,,,,,,,,,,,,,,,,,,,,,,,,,,,,,,,,,,,,,,,535.2381024999777,535.638900800026,535.6220692000352,535.7223313000286,536.1230697999708,None,left,1,0.521172899985686,536.1230697999708,None,535.6220692000352,535.7223313000286,535.7223313000286,None,536.6743425000459,None,,,,,,,11023,001,2024_Jan_07_1021,ANT,2021.2.3,59.883179909378406,
1,19,spatial,up,IC,L,,,,,,Block.xlsx,"你已经完成了整个实验（三个区组）。

请报告实验者已完成实验

非常感谢，再见！",1.5,0,1.5,left,RRLRR.png,,,,,0,1,1,1,2,20,68,18,,,,,,,,,,,,,,,,,,,,,,,,,,,,,,,,,,,,,,,,,,,,,,,,,,,,,,,,,,,,,,,,537.0734002999961,537.4759841000196,537.4579391999869,537.5587301000487,537.9587047999958,None,left,1,0.4531122000189498,537.9587047999958,None,537.4579391999869,537.5587301000487,537.5587301000487,None,538.4419968000147,None,,,,,,,11023,001,2024_Jan_07_1021,ANT,2021.2.3,59.883179909378406,
1,14,center,down,C,R,,,,,,Block.xlsx,"你已经完成了整个实验（三个区组）。

请报告实验者已完成实验

非常感谢，再见！",0,50,-1.5,right,RRRRR.png,,,,,0,1,1,1,2,21,69,13,,,,,,,,,,,,,,,,,,,,,,,,,,,,,,,,,,,,,,,,,,,,,,,,,,,,,,,,,,,,,,,,538.8426488999976,539.2448254000628,539.2278733999701,539.3287854000228,539.7279837999959,None,right,1,0.3963646999327466,539.7279837999959,None,539.2278733999701,539.3287854000228,539.3287854000228,None,540.1451166999759,None,,,,,,,11023,001,2024_Jan_07_1021,ANT,2021.2.3,59.883179909378406,
1,8,no,down,IC,R,,,,,,Block.xlsx,"你已经完成了整个实验（三个区组）。

请报告实验者已完成实验

非常感谢，再见！",50,0,-1.5,right,LLRLL.png,,,,,0,1,1,1,2,22,70,7,,,,,,,,,,,,,,,,,,,,,,,,,,,,,,,,,,,,,,,,,,,,,,,,,,,,,,,,,,,,,,,,540.5458399000345,540.9476724000415,540.9294414999895,541.0309979000594,541.4309252999956,None,right,1,0.6613982999697328,541.4309252999956,None,540.9294414999895,541.0309979000594,541.0309979000594,None,542.1150195000228,None,,,,,,,11023,001,2024_Jan_07_1021,ANT,2021.2.3,59.883179909378406,
1,12,center,up,IC,R,,,,,,Block.xlsx,"你已经完成了整个实验（三个区组）。

请报告实验者已完成实验

非常感谢，再见！",0,50,1.5,right,LLRLL.png,,,,,0,1,1,1,2,23,71,11,,,,,,,,,,,,,,,,,,,,,,,,,,,,,,,,,,,,,,,,,,,,,,,,,,,,,,,,,,,,,,,,542.5153732000617,542.9159204000607,542.900313399965,542.9996270000702,543.4003502000123,None,right,1,0.5164029999868944,543.4003502000123,None,542.900313399965,542.9996270000702,542.9996270000702,None,543.9334115000675,None,,,,,,,11023,001,2024_Jan_07_1021,ANT,2021.2.3,59.883179909378406,
1,14,center,down,C,R,,,,,,Block.xlsx,"你已经完成了整个实验（三个区组）。

请报告实验者已完成实验

非常感谢，再见！",0,50,-1.5,right,RRRRR.png,,,,,0,1,1,1,3,0,72,13,,,,,,,,,,,,,,,,,,,,,,,,,,,,,,,,,,,,,,,,,,,,,,,,,,,,,,,,,,,,,,,,544.3349696999649,544.7373284000205,544.7185235000215,544.8201717999764,545.2187403000426,None,right,1,0.44985400000587106,545.2187403000426,None,544.7185235000215,544.8201717999764,544.8201717999764,None,545.6861606000457,None,,,,,,,11023,001,2024_Jan_07_1021,ANT,2021.2.3,59.883179909378406,
1,5,no,down,C,L,,,,,,Block.xlsx,"你已经完成了整个实验（三个区组）。

请报告实验者已完成实验

非常感谢，再见！",50,0,-1.5,left,LLLLL.png,,,,,0,1,1,1,3,1,73,4,,,,,,,,,,,,,,,,,,,,,,,,,,,,,,,,,,,,,,,,,,,,,,,,,,,,,,,,,,,,,,,,546.0867582000792,546.4880039000418,546.472928400035,546.5876779999817,546.9720041999826,None,left,1,0.46427290001884103,546.9720041999826,None,546.472928400035,546.5876779999817,546.5728959999979,None,547.4555266000098,None,,,,,,,11023,001,2024_Jan_07_1021,ANT,2021.2.3,59.883179909378406,
1,19,spatial,up,IC,L,,,,,,Block.xlsx,"你已经完成了整个实验（三个区组）。

请报告实验者已完成实验

非常感谢，再见！",1.5,0,1.5,left,RRLRR.png,,,,,0,1,1,1,3,2,74,18,,,,,,,,,,,,,,,,,,,,,,,,,,,,,,,,,,,,,,,,,,,,,,,,,,,,,,,,,,,,,,,,547.8565095000667,548.2585683000507,548.2405494999839,548.3424184999894,548.7417686000699,None,left,1,0.5985767999663949,548.7417686000699,None,548.2405494999839,548.3424184999894,548.3424184999894,None,549.3583877000492,None,,,,,,,11023,001,2024_Jan_07_1021,ANT,2021.2.3,59.883179909378406,
1,13,center,down,C,L,,,,,,Block.xlsx,"你已经完成了整个实验（三个区组）。

请报告实验者已完成实验

非常感谢，再见！",0,50,-1.5,left,LLLLL.png,,,,,0,1,1,1,3,3,75,12,,,,,,,,,,,,,,,,,,,,,,,,,,,,,,,,,,,,,,,,,,,,,,,,,,,,,,,,,,,,,,,,549.7593153000344,550.1605228000553,550.142857800005,550.243436699966,550.6436842000112,None,left,1,0.48850200010929257,550.6436842000112,None,550.142857800005,550.243436699966,550.243436699966,None,551.1610726000508,None,,,,,,,11023,001,2024_Jan_07_1021,ANT,2021.2.3,59.883179909378406,
1,15,center,down,IC,L,,,,,,Block.xlsx,"你已经完成了整个实验（三个区组）。

请报告实验者已完成实验

非常感谢，再见！",0,50,-1.5,left,RRLRR.png,,,,,0,1,1,1,3,4,76,14,,,,,,,,,,,,,,,,,,,,,,,,,,,,,,,,,,,,,,,,,,,,,,,,,,,,,,,,,,,,,,,,551.5616808000486,551.96264719998,551.9461102000205,552.0456377000082,552.446156400023,None,left,1,0.6300713999662548,552.446156400023,None,551.9461102000205,552.0456377000082,552.0456377000082,None,553.0974526000209,None,,,,,,,11023,001,2024_Jan_07_1021,ANT,2021.2.3,59.883179909378406,
1,24,spatial,down,IC,R,,,,,,Block.xlsx,"你已经完成了整个实验（三个区组）。

请报告实验者已完成实验

非常感谢，再见！",-1.5,0,-1.5,right,LLRLL.png,,,,,0,1,1,1,3,5,77,23,,,,,,,,,,,,,,,,,,,,,,,,,,,,,,,,,,,,,,,,,,,,,,,,,,,,,,,,,,,,,,,,553.4976448999951,553.8983805000316,553.8839123999933,553.9825675999746,554.3830703999847,None,right,1,0.5174012999050319,554.3830703999847,None,553.8839123999933,553.9825675999746,553.9825675999746,None,554.9164382000454,None,,,,,,,11023,001,2024_Jan_07_1021,ANT,2021.2.3,59.883179909378406,
1,1,no,up,C,L,,,,,,Block.xlsx,"你已经完成了整个实验（三个区组）。

请报告实验者已完成实验

非常感谢，再见！",50,0,1.5,left,LLLLL.png,,,,,0,1,1,1,3,6,78,0,,,,,,,,,,,,,,,,,,,,,,,,,,,,,,,,,,,,,,,,,,,,,,,,,,,,,,,,,,,,,,,,555.317824000027,555.7186534999637,555.7018471000483,555.8017210999969,556.2023924000096,None,left,1,0.5375609999755397,556.2023924000096,None,555.7018471000483,555.8017210999969,555.8017210999969,None,556.7691299000289,None,,,,,,,11023,001,2024_Jan_07_1021,ANT,2021.2.3,59.883179909378406,
1,1,no,up,C,L,,,,,,Block.xlsx,"你已经完成了整个实验（三个区组）。

请报告实验者已完成实验

非常感谢，再见！",50,0,1.5,left,LLLLL.png,,,,,0,1,1,1,3,7,79,0,,,,,,,,,,,,,,,,,,,,,,,,,,,,,,,,,,,,,,,,,,,,,,,,,,,,,,,,,,,,,,,,557.1708660000004,557.5715072000166,557.5552036999725,557.6547731000464,558.0543867000379,None,left,1,0.5415873000165448,558.0543867000379,None,557.5552036999725,557.6547731000464,557.6547731000464,None,558.6224212000379,None,,,,,,,11023,001,2024_Jan_07_1021,ANT,2021.2.3,59.883179909378406,
1,7,no,down,IC,L,,,,,,Block.xlsx,"你已经完成了整个实验（三个区组）。

请报告实验者已完成实验

非常感谢，再见！",50,0,-1.5,left,RRLRR.png,,,,,0,1,1,1,3,8,80,6,,,,,,,,,,,,,,,,,,,,,,,,,,,,,,,,,,,,,,,,,,,,,,,,,,,,,,,,,,,,,,,,559.0236413000384,559.4238644000143,559.4077751999721,559.5077381000156,559.9078130000271,None,left,1,0.8169706999324262,559.9078130000271,None,559.4077751999721,559.5077381000156,559.5077381000156,None,560.7423896000255,None,,,,,,,11023,001,2024_Jan_07_1021,ANT,2021.2.3,59.883179909378406,
1,11,center,up,IC,L,,,,,,Block.xlsx,"你已经完成了整个实验（三个区组）。

请报告实验者已完成实验

非常感谢，再见！",0,50,1.5,left,RRLRR.png,,,,,0,1,1,1,3,9,81,10,,,,,,,,,,,,,,,,,,,,,,,,,,,,,,,,,,,,,,,,,,,,,,,,,,,,,,,,,,,,,,,,561.1436673999997,561.5451314999955,561.5270162000088,561.62713300006,562.027548699989,None,left,1,0.5444359999382868,562.027548699989,None,561.5270162000088,561.62713300006,561.62713300006,None,562.5945069000591,None,,,,,,,11023,001,2024_Jan_07_1021,ANT,2021.2.3,59.883179909378406,
1,6,no,down,C,R,,,,,,Block.xlsx,"你已经完成了整个实验（三个区组）。

请报告实验者已完成实验

非常感谢，再见！",50,0,-1.5,right,RRRRR.png,,,,,0,1,1,1,3,10,82,5,,,,,,,,,,,,,,,,,,,,,,,,,,,,,,,,,,,,,,,,,,,,,,,,,,,,,,,,,,,,,,,,562.9957936999854,563.3975951999892,563.3794024999952,563.4799931000452,563.880781600019,None,right,1,0.4591525999130681,563.880781600019,None,563.3794024999952,563.4799931000452,563.4799931000452,None,564.364491000073,None,,,,,,,11023,001,2024_Jan_07_1021,ANT,2021.2.3,59.883179909378406,
1,19,spatial,up,IC,L,,,,,,Block.xlsx,"你已经完成了整个实验（三个区组）。

请报告实验者已完成实验

非常感谢，再见！",1.5,0,1.5,left,RRLRR.png,,,,,0,1,1,1,3,11,83,18,,,,,,,,,,,,,,,,,,,,,,,,,,,,,,,,,,,,,,,,,,,,,,,,,,,,,,,,,,,,,,,,564.765115300077,565.1659273999976,565.1492706000572,565.2493947000476,565.6490020999918,None,left,1,0.49965070001780987,565.6490020999918,None,565.1492706000572,565.2493947000476,565.2493947000476,None,566.166497200029,None,,,,,,,11023,001,2024_Jan_07_1021,ANT,2021.2.3,59.883179909378406,
1,9,center,up,C,L,,,,,,Block.xlsx,"你已经完成了整个实验（三个区组）。

请报告实验者已完成实验

非常感谢，再见！",0,50,1.5,left,LLLLL.png,,,,,0,1,1,1,3,12,84,8,,,,,,,,,,,,,,,,,,,,,,,,,,,,,,,,,,,,,,,,,,,,,,,,,,,,,,,,,,,,,,,,566.5670105000027,566.9696076000109,566.9510044000344,567.0533862999873,567.4517082000384,None,left,1,0.46505860006436706,567.4517082000384,None,566.9510044000344,567.0533862999873,567.0533862999873,None,567.9360488000093,None,,,,,,,11023,001,2024_Jan_07_1021,ANT,2021.2.3,59.883179909378406,
1,10,center,up,C,R,,,,,,Block.xlsx,"你已经完成了整个实验（三个区组）。

请报告实验者已完成实验

非常感谢，再见！",0,50,1.5,right,RRRRR.png,,,,,0,1,1,1,3,13,85,9,,,,,,,,,,,,,,,,,,,,,,,,,,,,,,,,,,,,,,,,,,,,,,,,,,,,,,,,,,,,,,,,568.3361658999929,568.7366073000012,568.7201270000078,568.8212257999694,569.2221486000344,None,right,1,0.5737373998854309,569.2221486000344,None,568.7201270000078,568.8212257999694,568.8212257999694,None,569.8219930999912,None,,,,,,,11023,001,2024_Jan_07_1021,ANT,2021.2.3,59.883179909378406,
1,11,center,up,IC,L,,,,,,Block.xlsx,"你已经完成了整个实验（三个区组）。

请报告实验者已完成实验

非常感谢，再见！",0,50,1.5,left,RRLRR.png,,,,,0,1,1,1,3,14,86,10,,,,,,,,,,,,,,,,,,,,,,,,,,,,,,,,,,,,,,,,,,,,,,,,,,,,,,,,,,,,,,,,570.2222965999972,570.6237760999938,570.607823300059,570.7084580999799,571.1069828000618,None,right,0,0.4092062000418082,571.1069828000618,None,570.607823300059,570.7084580999799,570.7084580999799,None,571.5410478999838,None,,,,,,,11023,001,2024_Jan_07_1021,ANT,2021.2.3,59.883179909378406,
1,18,spatial,up,C,R,,,,,,Block.xlsx,"你已经完成了整个实验（三个区组）。

请报告实验者已完成实验

非常感谢，再见！",1.5,0,1.5,right,RRRRR.png,,,,,0,1,1,1,3,15,87,17,,,,,,,,,,,,,,,,,,,,,,,,,,,,,,,,,,,,,,,,,,,,,,,,,,,,,,,,,,,,,,,,571.9417143000755,572.3438052000711,572.3257097000023,572.4256283000577,572.8269728000741,None,right,1,0.560963699943386,572.8269728000741,None,572.3257097000023,572.4256283000577,572.4256283000577,None,573.4108867000323,None,,,,,,,11023,001,2024_Jan_07_1021,ANT,2021.2.3,59.883179909378406,
1,16,center,down,IC,R,,,,,,Block.xlsx,"你已经完成了整个实验（三个区组）。

请报告实验者已完成实验

非常感谢，再见！",0,50,-1.5,right,LLRLL.png,,,,,0,1,1,1,3,16,88,15,,,,,,,,,,,,,,,,,,,,,,,,,,,,,,,,,,,,,,,,,,,,,,,,,,,,,,,,,,,,,,,,573.8109340000665,574.2132862000726,574.1949440999888,574.2956889000488,574.6958109000698,None,right,1,0.7486131000332534,574.6958109000698,None,574.1949440999888,574.2956889000488,574.2956889000488,None,575.4636979000643,None,,,,,,,11023,001,2024_Jan_07_1021,ANT,2021.2.3,59.883179909378406,
1,3,no,up,IC,L,,,,,,Block.xlsx,"你已经完成了整个实验（三个区组）。

请报告实验者已完成实验

非常感谢，再见！",50,0,1.5,left,RRLRR.png,,,,,0,1,1,1,3,17,89,2,,,,,,,,,,,,,,,,,,,,,,,,,,,,,,,,,,,,,,,,,,,,,,,,,,,,,,,,,,,,,,,,575.8653863000218,576.2652204000624,576.2489389000693,576.3501521999715,576.7496428000741,None,left,1,0.6225396000081673,576.7496428000741,None,576.2489389000693,576.3501521999715,576.3501521999715,None,577.3998944000341,None,,,,,,,11023,001,2024_Jan_07_1021,ANT,2021.2.3,59.883179909378406,
1,4,no,up,IC,R,,,,,,Block.xlsx,"你已经完成了整个实验（三个区组）。

请报告实验者已完成实验

非常感谢，再见！",50,0,1.5,right,LLRLL.png,,,,,0,1,1,1,3,18,90,3,,,,,,,,,,,,,,,,,,,,,,,,,,,,,,,,,,,,,,,,,,,,,,,,,,,,,,,,,,,,,,,,577.8003519000486,578.2017271000659,578.1849772999994,578.2845605000621,578.6871238000458,None,right,1,0.5978918999899179,578.6871238000458,None,578.1849772999994,578.2845605000621,578.2845605000621,None,579.3038059000392,None,,,,,,,11023,001,2024_Jan_07_1021,ANT,2021.2.3,59.883179909378406,
1,17,spatial,up,C,L,,,,,,Block.xlsx,"你已经完成了整个实验（三个区组）。

请报告实验者已完成实验

非常感谢，再见！",1.5,0,1.5,left,LLLLL.png,,,,,0,1,1,1,3,19,91,16,,,,,,,,,,,,,,,,,,,,,,,,,,,,,,,,,,,,,,,,,,,,,,,,,,,,,,,,,,,,,,,,579.7031432000222,580.1047164000338,580.088094900013,580.1879074000753,580.5885121000465,None,left,1,0.5197305000619963,580.5885121000465,None,580.088094900013,580.1879074000753,580.1879074000753,None,581.1387361000525,None,,,,,,,11023,001,2024_Jan_07_1021,ANT,2021.2.3,59.883179909378406,
1,6,no,down,C,R,,,,,,Block.xlsx,"你已经完成了整个实验（三个区组）。

请报告实验者已完成实验

