TrialType,TrialNumber,WarningType,TargetType,FlankerType,TargetDirection,W,f,Y,corr,imageFile,condition,endtext,Yw,Yf,Yt,Corr,imagefile,trials_3.thisRepN,trials_3.thisTrialN,trials_3.thisN,trials_3.thisIndex,trials_2.thisRepN,trials_2.thisTrialN,trials_2.thisN,trials_2.thisIndex,trials.thisRepN,trials.thisTrialN,trials.thisN,trials.thisIndex,instr.started,instr.stopped,key_resp.keys,key_resp.rt,key_resp.started,key_resp.stopped,image.started,image.stopped,key_resp_6.keys,key_resp_6.rt,key_resp_6.started,key_resp_6.stopped,EX_L.started,EX_L.stopped,AL.started,AL.stopped,key_resp_7.keys,key_resp_7.rt,key_resp_7.started,key_resp_7.stopped,EX_R.started,EX_R.stopped,RR.started,RR.stopped,key_resp_8.keys,key_resp_8.rt,key_resp_8.started,key_resp_8.stopped,image_2.started,image_2.stopped,key_resp_9.keys,key_resp_9.rt,key_resp_9.started,key_resp_9.stopped,image_3.started,image_3.stopped,key_resp_10.keys,key_resp_10.rt,key_resp_10.started,key_resp_10.stopped,fix.started,fix.stopped,war.started,war.stopped,tar.started,tar.stopped,key_resp_4.keys,key_resp_4.corr,key_resp_4.rt,key_resp_4.started,key_resp_4.stopped,fix2.started,fix2.stopped,fix_2.started,fix_2.stopped,Feedback.started,Feedback.stopped,key_resp_2.keys,key_resp_2.rt,key_resp_2.started,key_resp_2.stopped,text_5.started,text_5.stopped,fix2_1.started,fix2_1.stopped,Warn.started,Warn.stopped,Tar.started,Tar.stopped,key_resp_5.keys,key_resp_5.corr,key_resp_5.rt,key_resp_5.started,key_resp_5.stopped,Fix_2.started,Fix_2.stopped,fix2_2.started,fix2_2.stopped,text_4.started,text_4.stopped,key_resp_3.keys,key_resp_3.rt,key_resp_3.started,key_resp_3.stopped,text_3.started,text_3.stopped,participant,session,date,expName,psychopyVersion,frameRate,
,,,,,,,,,,,,,,,,,,,,,,,,,,,,,,16.24613770004362,None,space,8.836789099965245,16.24613770004362,None,,,,,,,,,,,,,,,,,,,,,,,,,,,,,,,,,,,,,,,,,,,,,,,,,,,,,,,,,,,,,,,,,,,,,,,,,,,,,,,,,11021,001,2024_Jan_05_1127,ANT,2021.2.3,59.691193590325,
,,,,,,,,,,,,,,,,,,,,,,,,,,,,,,,,,,,,25.10934460000135,None,space,18.10163020004984,25.10934460000135,None,,,,,,,,,,,,,,,,,,,,,,,,,,,,,,,,,,,,,,,,,,,,,,,,,,,,,,,,,,,,,,,,,,,,,,,,,,,11021,001,2024_Jan_05_1127,ANT,2021.2.3,59.691193590325,
,,,,,,,,,,,,,,,,,,,,,,,,,,,,,,,,,,,,,,,,,,43.23581270000432,None,43.23581270000432,None,left,1.0235407000873238,43.23581270000432,None,,,,,,,,,,,,,,,,,,,,,,,,,,,,,,,,,,,,,,,,,,,,,,,,,,,,,,,,,,,,,,,,,,,11021,001,2024_Jan_05_1127,ANT,2021.2.3,59.691193590325,
,,,,,,,,,,,,,,,,,,,,,,,,,,,,,,,,,,,,,,,,,,,,,,,,,,44.28749090002384,None,44.28749090002384,None,right,0.9154204999795184,44.28749090002384,None,,,,,,,,,,,,,,,,,,,,,,,,,,,,,,,,,,,,,,,,,,,,,,,,,,,,,,,,,,,11021,001,2024_Jan_05_1127,ANT,2021.2.3,59.691193590325,
,,,,,,,,,,,,,,,,,,,,,,,,,,,,,,,,,,,,,,,,,,,,,,,,,,,,,,,,,,45.22217770002317,None,space,41.86881859996356,45.22217770002317,None,,,,,,,,,,,,,,,,,,,,,,,,,,,,,,,,,,,,,,,,,,,,,,,,,,,,,11021,001,2024_Jan_05_1127,ANT,2021.2.3,59.691193590325,
,,,,,,,,,,,,,,,,,,,,,,,,,,,,,,,,,,,,,,,,,,,,,,,,,,,,,,,,,,,,,,,,87.11760240001604,None,space,7.910294300061651,87.11760240001604,None,,,,,,,,,,,,,,,,,,,,,,,,,,,,,,,,,,,,,,,,,,,,,,,11021,001,2024_Jan_05_1127,ANT,2021.2.3,59.691193590325,
0,6,center,up,IC,R,0,50,1.5,right,LLRLL.png,,,,,,,,0,0,0,5,,,,,,,,,,,,,,,,,,,,,,,,,,,,,,,,,,,,,,,,,,,,,,,,,95.11230359994806,95.51511599996593,95.49662999995053,95.59755349997431,95.99825830000918,None,right,1,0.9654202000238001,95.99825830000918,None,95.49662999995053,95.59755349997431,95.59755349997431,None,96.99936629994772,None,,,,,,,,,,,,,,,,,,,,,,,,,,,,,,11021,001,2024_Jan_05_1127,ANT,2021.2.3,59.691193590325,
0,1,no,up,C,L,50,0,1.5,left,LLLLL.png,,,,,,,,0,1,1,0,,,,,,,,,,,,,,,,,,,,,,,,,,,,,,,,,,,,,,,,,,,,,,,,,99.00290790002327,99.40323499997612,99.38702889997512,99.48623449995648,99.88811289996374,None,left,1,0.6991155999712646,99.88811289996374,None,99.38702889997512,99.48623449995648,99.48623449995648,None,100.60400010005105,None,,,,,,,,,,,,,,,,,,,,,,,,,,,,,,11021,001,2024_Jan_05_1127,ANT,2021.2.3,59.691193590325,
0,7,center,down,C,R,0,50,-1.5,right,RRRRR.png,,,,,,,,0,2,2,6,,,,,,,,,,,,,,,,,,,,,,,,,,,,,,,,,,,,,,,,,,,,,,,,,102.6071629000362,103.00887170003261,102.99196240003221,103.09287829999812,103.49205130001064,None,right,1,0.5429575999733061,103.49205130001064,None,102.99196240003221,103.09287829999812,103.09287829999812,None,104.05930129997432,None,,,,,,,,,,,,,,,,,,,,,,,,,,,,,,11021,001,2024_Jan_05_1127,ANT,2021.2.3,59.691193590325,
0,2,no,up,IC,R,50,0,1.5,right,LLRLL.png,,,,,,,,0,3,3,1,,,,,,,,,,,,,,,,,,,,,,,,,,,,,,,,,,,,,,,,,,,,,,,,,106.06239019997884,106.46424030000344,106.44638269999996,106.5466049000388,106.94897639995907,None,right,1,0.6702131000347435,106.94897639995907,None,106.44638269999996,106.5466049000388,106.5466049000388,None,107.64808229997288,None,,,,,,,,,,,,,,,,,,,,,,,,,,,,,,11021,001,2024_Jan_05_1127,ANT,2021.2.3,59.691193590325,
0,3,no,down,C,R,50,0,-1.5,right,RRRRR.png,,,,,,,,0,4,4,2,,,,,,,,,,,,,,,,,,,,,,,,,,,,,,,,,,,,,,,,,,,,,,,,,109.65113560005557,110.05191210005432,110.03654760005884,110.1358695999952,110.53722469997592,None,right,1,0.57811290002428,110.53722469997592,None,110.03654760005884,110.1358695999952,110.1358695999952,None,111.1363664000528,None,,,,,,,,,,,,,,,,,,,,,,,,,,,,,,11021,001,2024_Jan_05_1127,ANT,2021.2.3,59.691193590325,
0,8,center,down,IC,L,0,50,-1.5,left,RRLRR.png,,,,,,,,0,5,5,7,,,,,,,,,,,,,,,,,,,,,,,,,,,,,,,,,,,,,,,,,,,,,,,,,113.14075260004029,113.54083379998337,113.52408780006226,113.62454580003396,114.02523320005275,None,left,1,0.5780353000154719,114.02523320005275,None,113.52408780006226,113.62454580003396,113.62454580003396,None,114.62531969998963,None,,,,,,,,,,,,,,,,,,,,,,,,,,,,,,11021,001,2024_Jan_05_1127,ANT,2021.2.3,59.691193590325,
0,12,spatial,down,IC,R,-1.5,0,-1.5,right,LLRLL.png,,,,,,,,0,6,6,11,,,,,,,,,,,,,,,,,,,,,,,,,,,,,,,,,,,,,,,,,,,,,,,,,116.62819550000131,117.02887489995919,117.01276559999678,117.11339219997171,117.51432469999418,None,right,1,0.5047514999751002,117.51432469999418,None,117.01276559999678,117.11339219997171,117.11339219997171,None,118.04653160006274,None,,,,,,,,,,,,,,,,,,,,,,,,,,,,,,11021,001,2024_Jan_05_1127,ANT,2021.2.3,59.691193590325,
0,11,spatial,down,C,L,-1.5,0,-1.5,left,LLLLL.png,,,,,,,,0,7,7,10,,,,,,,,,,,,,,,,,,,,,,,,,,,,,,,,,,,,,,,,,,,,,,,,,120.05059520003852,120.45133319997694,120.43444760004058,120.53459000005387,120.93492549995426,None,left,1,0.5080647999420762,120.93492549995426,None,120.43444760004058,120.53459000005387,120.53459000005387,None,121.46864239999559,None,,,,,,,,,,,,,,,,,,,,,,,,,,,,,,11021,001,2024_Jan_05_1127,ANT,2021.2.3,59.691193590325,
0,9,spatial,up,C,R,1.5,0,1.5,right,RRRRR.png,,,,,,,,0,8,8,8,,,,,,,,,,,,,,,,,,,,,,,,,,,,,,,,,,,,,,,,,,,,,,,,,123.47152360004839,123.87300999998115,123.85591990000103,123.9570340999635,124.35748969996348,None,right,1,0.39748139993753284,124.35748969996348,None,123.85591990000103,123.9570340999635,123.9570340999635,None,124.773982899962,None,,,,,,,,,,,,,,,,,,,,,,,,,,,,,,11021,001,2024_Jan_05_1127,ANT,2021.2.3,59.691193590325,
0,10,spatial,up,IC,L,1.5,0,1.5,left,RRLRR.png,,,,,,,,0,9,9,9,,,,,,,,,,,,,,,,,,,,,,,,,,,,,,,,,,,,,,,,,,,,,,,,,126.7766553000547,127.17704189999495,127.16138109995518,127.26207149995025,127.66251689998899,None,left,1,0.41291060007642955,127.66251689998899,None,127.16138109995518,127.26207149995025,127.26207149995025,None,128.09500570001546,None,,,,,,,,,,,,,,,,,,,,,,,,,,,,,,11021,001,2024_Jan_05_1127,ANT,2021.2.3,59.691193590325,
0,5,center,up,C,L,0,50,1.5,left,LLLLL.png,,,,,,,,0,10,10,4,,,,,,,,,,,,,,,,,,,,,,,,,,,,,,,,,,,,,,,,,,,,,,,,,130.09808330005035,130.50045910000335,130.48272440000437,130.58327099995222,130.98285180004314,None,left,1,0.6203285999363288,130.98285180004314,None,130.48272440000437,130.58327099995222,130.58327099995222,None,131.63335280003957,None,,,,,,,,,,,,,,,,,,,,,,,,,,,,,,11021,001,2024_Jan_05_1127,ANT,2021.2.3,59.691193590325,
0,4,no,down,IC,L,50,0,-1.5,left,RRLRR.png,,,,,,,,0,11,11,3,,,,,,,,,,,,,,,,,,,,,,,,,,,,,,,,,,,,,,,,,,,,,,,,,133.6365370999556,134.03780749998987,134.02107799996156,134.12078320002183,134.5218531000428,None,left,1,0.5935668000020087,134.5218531000428,None,134.02107799996156,134.12078320002183,134.12078320002183,None,135.13891720003448,None,,,,,,,,,,,,,,,,,,,,,,,,,,,,,,11021,001,2024_Jan_05_1127,ANT,2021.2.3,59.691193590325,
,,,,,,,,,,,,,,,,,,,,,,,,,,,,,,,,,,,,,,,,,,,,,,,,,,,,,,,,,,,,,,,,,,,,,,,,,,,,,,,,,,,,,,,space,12.053702900069766,137.14164769998752,None,,,,,,,,,,,,,,,,,,,,,,,,,,11021,001,2024_Jan_05_1127,ANT,2021.2.3,59.691193590325,
1,17,spatial,up,C,L,,,,,,Block.xlsx,"你已经完成了第一个实验区组

请稍作休息


点击空格键进入下一个区组。",1.5,0,1.5,left,LLLLL.png,,,,,0,0,0,0,0,0,0,16,,,,,,,,,,,,,,,,,,,,,,,,,,,,,,,,,,,,,,,,,,,,,,,,,,,,,,,,,,,,,,137.14164769998752,None,149.26057509996463,149.66099520004354,149.64362250000704,149.7442687000148,150.1450601000106,None,left,1,0.41817120008636266,150.1450601000106,None,149.64362250000704,149.7442687000148,149.7442687000148,None,150.57831300003454,None,,,,,,,11021,001,2024_Jan_05_1127,ANT,2021.2.3,59.691193590325,
1,24,spatial,down,IC,R,,,,,,Block.xlsx,"你已经完成了第一个实验区组

请稍作休息


点击空格键进入下一个区组。",-1.5,0,-1.5,right,LLRLL.png,,,,,0,0,0,0,0,1,1,23,,,,,,,,,,,,,,,,,,,,,,,,,,,,,,,,,,,,,,,,,,,,,,,,,,,,,,,,,,,,,,,,150.97973869997077,151.38132439996116,151.36315230000764,151.4646522999974,151.8639061000431,None,right,1,0.6432590000331402,151.8639061000431,None,151.36315230000764,151.4646522999974,151.4646522999974,None,152.53108480002265,None,,,,,,,11021,001,2024_Jan_05_1127,ANT,2021.2.3,59.691193590325,
1,24,spatial,down,IC,R,,,,,,Block.xlsx,"你已经完成了第一个实验区组

请稍作休息


点击空格键进入下一个区组。",-1.5,0,-1.5,right,LLRLL.png,,,,,0,0,0,0,0,2,2,23,,,,,,,,,,,,,,,,,,,,,,,,,,,,,,,,,,,,,,,,,,,,,,,,,,,,,,,,,,,,,,,,152.93200479994994,153.33308600005694,153.3162897999864,153.4165000000503,153.8168308000313,None,right,1,0.4262397000566125,153.8168308000313,None,153.3162897999864,153.4165000000503,153.4165000000503,None,154.26713020005263,None,,,,,,,11021,001,2024_Jan_05_1127,ANT,2021.2.3,59.691193590325,
1,1,no,up,C,L,,,,,,Block.xlsx,"你已经完成了第一个实验区组

请稍作休息


点击空格键进入下一个区组。",50,0,1.5,left,LLLLL.png,,,,,0,0,0,0,0,3,3,0,,,,,,,,,,,,,,,,,,,,,,,,,,,,,,,,,,,,,,,,,,,,,,,,,,,,,,,,,,,,,,,,154.6681847999571,155.06864569999743,155.0517088000197,155.15234230004717,155.5524001000449,None,left,1,0.4186743999598548,155.5524001000449,None,155.0517088000197,155.15234230004717,155.15234230004717,None,156.00293519999832,None,,,,,,,11021,001,2024_Jan_05_1127,ANT,2021.2.3,59.691193590325,
1,8,no,down,IC,R,,,,,,Block.xlsx,"你已经完成了第一个实验区组

请稍作休息


点击空格键进入下一个区组。",50,0,-1.5,right,LLRLL.png,,,,,0,0,0,0,0,4,4,7,,,,,,,,,,,,,,,,,,,,,,,,,,,,,,,,,,,,,,,,,,,,,,,,,,,,,,,,,,,,,,,,156.40452149999328,156.80595409998205,156.78858789999504,156.90459559997544,157.2888777999906,None,right,1,0.5065092999720946,157.2888777999906,None,156.78858789999504,156.90459559997544,156.8898509000428,None,157.8225082999561,None,,,,,,,11021,001,2024_Jan_05_1127,ANT,2021.2.3,59.691193590325,
1,18,spatial,up,C,R,,,,,,Block.xlsx,"你已经完成了第一个实验区组

请稍作休息


点击空格键进入下一个区组。",1.5,0,1.5,right,RRRRR.png,,,,,0,0,0,0,0,5,5,17,,,,,,,,,,,,,,,,,,,,,,,,,,,,,,,,,,,,,,,,,,,,,,,,,,,,,,,,,,,,,,,,158.22370339999907,158.62475179997273,158.60780470003374,158.7079896000214,159.1086691999808,None,right,1,0.31844489998184144,159.1086691999808,None,158.60780470003374,158.7079896000214,158.7079896000214,None,159.4414916000096,None,,,,,,,11021,001,2024_Jan_05_1127,ANT,2021.2.3,59.691193590325,
1,10,center,up,C,R,,,,,,Block.xlsx,"你已经完成了第一个实验区组

请稍作休息


点击空格键进入下一个区组。",0,50,1.5,right,RRRRR.png,,,,,0,0,0,0,0,6,6,9,,,,,,,,,,,,,,,,,,,,,,,,,,,,,,,,,,,,,,,,,,,,,,,,,,,,,,,,,,,,,,,,159.84209090005606,160.2429733000463,160.22844510001596,160.34449909999967,160.72821640002076,None,right,1,0.36294580006506294,160.72821640002076,None,160.22844510001596,160.34449909999967,160.3268275000155,None,161.1106693999609,None,,,,,,,11021,001,2024_Jan_05_1127,ANT,2021.2.3,59.691193590325,
1,4,no,up,IC,R,,,,,,Block.xlsx,"你已经完成了第一个实验区组

请稍作休息


点击空格键进入下一个区组。",50,0,1.5,right,LLRLL.png,,,,,0,0,0,0,0,7,7,3,,,,,,,,,,,,,,,,,,,,,,,,,,,,,,,,,,,,,,,,,,,,,,,,,,,,,,,,,,,,,,,,161.51178030006122,161.91353430005256,161.89529590005986,161.99675849999767,162.3958919000579,None,right,1,0.5678294999524951,162.3958919000579,None,161.89529590005986,161.99675849999767,161.99675849999767,None,162.97998549998738,None,,,,,,,11021,001,2024_Jan_05_1127,ANT,2021.2.3,59.691193590325,
1,11,center,up,IC,L,,,,,,Block.xlsx,"你已经完成了第一个实验区组

请稍作休息


点击空格键进入下一个区组。",0,50,1.5,left,RRLRR.png,,,,,0,0,0,0,0,8,8,10,,,,,,,,,,,,,,,,,,,,,,,,,,,,,,,,,,,,,,,,,,,,,,,,,,,,,,,,,,,,,,,,163.38051980000455,163.78180430002976,163.76568019995466,163.86584199999925,164.2676956000505,None,right,0,0.3677294000517577,164.2676956000505,None,163.76568019995466,163.86584199999925,163.86584199999925,None,164.66588410001714,None,,,,,,,11021,001,2024_Jan_05_1127,ANT,2021.2.3,59.691193590325,
1,5,no,down,C,L,,,,,,Block.xlsx,"你已经完成了第一个实验区组

请稍作休息


点击空格键进入下一个区组。",50,0,-1.5,left,LLLLL.png,,,,,0,0,0,0,0,9,9,4,,,,,,,,,,,,,,,,,,,,,,,,,,,,,,,,,,,,,,,,,,,,,,,,,,,,,,,,,,,,,,,,165.06632610002998,165.467098299996,165.4509195999708,165.55046930001117,165.9524359999923,None,left,1,0.49094679998233914,165.9524359999923,None,165.4509195999708,165.55046930001117,165.55046930001117,None,166.47023670002818,None,,,,,,,11021,001,2024_Jan_05_1127,ANT,2021.2.3,59.691193590325,
1,12,center,up,IC,R,,,,,,Block.xlsx,"你已经完成了第一个实验区组

请稍作休息


点击空格键进入下一个区组。",0,50,1.5,right,LLRLL.png,,,,,0,0,0,0,0,10,10,11,,,,,,,,,,,,,,,,,,,,,,,,,,,,,,,,,,,,,,,,,,,,,,,,,,,,,,,,,,,,,,,,166.8690960999811,167.27004680002574,167.2546835000394,167.37171249999665,167.7535523000406,None,right,1,0.5216760999755934,167.7535523000406,None,167.2546835000394,167.37171249999665,167.35398869996425,None,168.3045367000159,None,,,,,,,11021,001,2024_Jan_05_1127,ANT,2021.2.3,59.691193590325,
1,22,spatial,down,C,R,,,,,,Block.xlsx,"你已经完成了第一个实验区组

请稍作休息


点击空格键进入下一个区组。",-1.5,0,-1.5,right,RRRRR.png,,,,,0,0,0,0,0,11,11,21,,,,,,,,,,,,,,,,,,,,,,,,,,,,,,,,,,,,,,,,,,,,,,,,,,,,,,,,,,,,,,,,168.705333000049,169.10622870002408,169.0910074999556,169.18954040005337,169.5909166999627,None,right,1,0.4121892999392003,169.5909166999627,None,169.0910074999556,169.18954040005337,169.18954040005337,None,170.0237688999623,None,,,,,,,11021,001,2024_Jan_05_1127,ANT,2021.2.3,59.691193590325,
1,16,center,down,IC,R,,,,,,Block.xlsx,"你已经完成了第一个实验区组

请稍作休息


点击空格键进入下一个区组。",0,50,-1.5,right,LLRLL.png,,,,,0,0,0,0,0,12,12,15,,,,,,,,,,,,,,,,,,,,,,,,,,,,,,,,,,,,,,,,,,,,,,,,,,,,,,,,,,,,,,,,170.4244801000459,170.82650990004186,170.80893409997225,170.90915820002556,171.3089644999709,None,right,1,0.430521700065583,171.3089644999709,None,170.80893409997225,170.90915820002556,170.90915820002556,None,171.7598434999818,None,,,,,,,11021,001,2024_Jan_05_1127,ANT,2021.2.3,59.691193590325,
1,4,no,up,IC,R,,,,,,Block.xlsx,"你已经完成了第一个实验区组

请稍作休息


点击空格键进入下一个区组。",50,0,1.5,right,LLRLL.png,,,,,0,0,0,0,0,13,13,3,,,,,,,,,,,,,,,,,,,,,,,,,,,,,,,,,,,,,,,,,,,,,,,,,,,,,,,,,,,,,,,,172.16059260000475,172.5609927000478,172.54537329997402,172.64519609999843,173.0456256000325,None,right,1,0.5095196000766009,173.0456256000325,None,172.54537329997402,172.64519609999843,172.64519609999843,None,173.57920060004108,None,,,,,,,11021,001,2024_Jan_05_1127,ANT,2021.2.3,59.691193590325,
1,13,center,down,C,L,,,,,,Block.xlsx,"你已经完成了第一个实验区组

请稍作休息


点击空格键进入下一个区组。",0,50,-1.5,left,LLLLL.png,,,,,0,0,0,0,0,14,14,12,,,,,,,,,,,,,,,,,,,,,,,,,,,,,,,,,,,,,,,,,,,,,,,,,,,,,,,,,,,,,,,,173.98033439996652,174.3818911999697,174.36356279999018,174.4645941000199,174.86445160000585,None,left,1,0.4587882000487298,174.86445160000585,None,174.36356279999018,174.4645941000199,174.4645941000199,None,175.34835810004734,None,,,,,,,11021,001,2024_Jan_05_1127,ANT,2021.2.3,59.691193590325,
1,2,no,up,C,R,,,,,,Block.xlsx,"你已经完成了第一个实验区组

请稍作休息


点击空格键进入下一个区组。",50,0,1.5,right,RRRRR.png,,,,,0,0,0,0,0,15,15,1,,,,,,,,,,,,,,,,,,,,,,,,,,,,,,,,,,,,,,,,,,,,,,,,,,,,,,,,,,,,,,,,175.74895409995224,176.14956829999574,176.13382460002322,176.23429679998662,176.63459879998118,None,right,1,0.5606752999592572,176.63459879998118,None,176.13382460002322,176.23429679998662,176.23429679998662,None,177.21780380001292,None,,,,,,,11021,001,2024_Jan_05_1127,ANT,2021.2.3,59.691193590325,
1,2,no,up,C,R,,,,,,Block.xlsx,"你已经完成了第一个实验区组

请稍作休息


点击空格键进入下一个区组。",50,0,1.5,right,RRRRR.png,,,,,0,0,0,0,0,16,16,1,,,,,,,,,,,,,,,,,,,,,,,,,,,,,,,,,,,,,,,,,,,,,,,,,,,,,,,,,,,,,,,,177.61874229996465,178.01990489999298,178.0022093000589,178.1041826000437,178.5055877000559,None,right,1,0.4895969999488443,178.5055877000559,None,178.0022093000589,178.1041826000437,178.1041826000437,None,179.02125340001658,None,,,,,,,11021,001,2024_Jan_05_1127,ANT,2021.2.3,59.691193590325,
1,12,center,up,IC,R,,,,,,Block.xlsx,"你已经完成了第一个实验区组

请稍作休息


点击空格键进入下一个区组。",0,50,1.5,right,LLRLL.png,,,,,0,0,0,0,0,17,17,11,,,,,,,,,,,,,,,,,,,,,,,,,,,,,,,,,,,,,,,,,,,,,,,,,,,,,,,,,,,,,,,,179.42113639996387,179.82244759995956,179.805647399975,179.9069537000032,180.3072727000108,None,right,1,0.5041765000205487,180.3072727000108,None,179.805647399975,179.9069537000032,179.9069537000032,None,180.83968029997777,None,,,,,,,11021,001,2024_Jan_05_1127,ANT,2021.2.3,59.691193590325,
1,16,center,down,IC,R,,,,,,Block.xlsx,"你已经完成了第一个实验区组

请稍作休息


点击空格键进入下一个区组。",0,50,-1.5,right,LLRLL.png,,,,,0,0,0,0,0,18,18,15,,,,,,,,,,,,,,,,,,,,,,,,,,,,,,,,,,,,,,,,,,,,,,,,,,,,,,,,,,,,,,,,181.24106060003396,181.64162700006273,181.62532430002466,181.7247033000458,182.12558520003222,None,right,1,0.5021573000121862,182.12558520003222,None,181.62532430002466,181.7247033000458,181.7247033000458,None,182.64241059997585,None,,,,,,,11021,001,2024_Jan_05_1127,ANT,2021.2.3,59.691193590325,
1,12,center,up,IC,R,,,,,,Block.xlsx,"你已经完成了第一个实验区组

请稍作休息


点击空格键进入下一个区组。",0,50,1.5,right,LLRLL.png,,,,,0,0,0,0,0,19,19,11,,,,,,,,,,,,,,,,,,,,,,,,,,,,,,,,,,,,,,,,,,,,,,,,,,,,,,,,,,,,,,,,183.04384549998213,183.44570799998473,183.42717020004056,183.5284153999528,183.92841599998064,None,right,1,0.5315087999915704,183.92841599998064,None,183.42717020004056,183.5284153999528,183.5284153999528,None,184.47847830003593,None,,,,,,,11021,001,2024_Jan_05_1127,ANT,2021.2.3,59.691193590325,
1,12,center,up,IC,R,,,,,,Block.xlsx,"你已经完成了第一个实验区组

请稍作休息


点击空格键进入下一个区组。",0,50,1.5,right,LLRLL.png,,,,,0,0,0,0,0,20,20,11,,,,,,,,,,,,,,,,,,,,,,,,,,,,,,,,,,,,,,,,,,,,,,,,,,,,,,,,,,,,,,,,184.87910819996614,185.2799737000605,185.26376430003438,185.36321099998895,185.76437140000053,None,right,1,0.4630945000099018,185.76437140000053,None,185.26376430003438,185.36321099998895,185.36321099998895,None,186.24796710000373,None,,,,,,,11021,001,2024_Jan_05_1127,ANT,2021.2.3,59.691193590325,
1,9,center,up,C,L,,,,,,Block.xlsx,"你已经完成了第一个实验区组

请稍作休息


点击空格键进入下一个区组。",0,50,1.5,left,LLLLL.png,,,,,0,0,0,0,0,21,21,8,,,,,,,,,,,,,,,,,,,,,,,,,,,,,,,,,,,,,,,,,,,,,,,,,,,,,,,,,,,,,,,,186.64894820004702,187.0502418000251,187.03232879994903,187.1338949999772,187.53368660004344,None,left,1,0.509659199975431,187.53368660004344,None,187.03232879994903,187.1338949999772,187.1338949999772,None,188.0683405000018,None,,,,,,,11021,001,2024_Jan_05_1127,ANT,2021.2.3,59.691193590325,
1,6,no,down,C,R,,,,,,Block.xlsx,"你已经完成了第一个实验区组

请稍作休息


点击空格键进入下一个区组。",50,0,-1.5,right,RRRRR.png,,,,,0,0,0,0,0,22,22,5,,,,,,,,,,,,,,,,,,,,,,,,,,,,,,,,,,,,,,,,,,,,,,,,,,,,,,,,,,,,,,,,188.46793230006006,188.87025040003937,188.85243329999503,188.9526483999798,189.35235639999155,None,right,1,0.5068663000129163,189.35235639999155,None,188.85243329999503,188.9526483999798,188.9526483999798,None,189.8866444999585,None,,,,,,,11021,001,2024_Jan_05_1127,ANT,2021.2.3,59.691193590325,
1,20,spatial,up,IC,R,,,,,,Block.xlsx,"你已经完成了第一个实验区组

请稍作休息


点击空格键进入下一个区组。",1.5,0,1.5,right,LLRLL.png,,,,,0,0,0,0,0,23,23,19,,,,,,,,,,,,,,,,,,,,,,,,,,,,,,,,,,,,,,,,,,,,,,,,,,,,,,,,,,,,,,,,190.28784560004715,190.68760209996253,190.67292519996408,190.78963590005878,191.17246320005506,None,right,1,0.3905740000773221,191.17246320005506,None,190.67292519996408,190.78963590005878,190.7723163999617,None,191.58923180005513,None,,,,,,,11021,001,2024_Jan_05_1127,ANT,2021.2.3,59.691193590325,
1,1,no,up,C,L,,,,,,Block.xlsx,"你已经完成了第一个实验区组

请稍作休息


点击空格键进入下一个区组。",50,0,1.5,left,LLLLL.png,,,,,0,0,0,0,1,0,24,0,,,,,,,,,,,,,,,,,,,,,,,,,,,,,,,,,,,,,,,,,,,,,,,,,,,,,,,,,,,,,,,,191.98958619998302,192.3914593999507,192.37502369994763,192.47397930000443,192.87615410005674,None,left,1,0.5190301999682561,192.87615410005674,None,192.37502369994763,192.47397930000443,192.47397930000443,None,193.4251523000421,None,,,,,,,11021,001,2024_Jan_05_1127,ANT,2021.2.3,59.691193590325,
1,17,spatial,up,C,L,,,,,,Block.xlsx,"你已经完成了第一个实验区组

请稍作休息


点击空格键进入下一个区组。",1.5,0,1.5,left,LLLLL.png,,,,,0,0,0,0,1,1,25,16,,,,,,,,,,,,,,,,,,,,,,,,,,,,,,,,,,,,,,,,,,,,,,,,,,,,,,,,,,,,,,,,193.82573479996063,194.22801700001583,194.20994780003093,194.31139829999302,194.71084569999948,None,left,1,0.4205191999208182,194.71084569999948,None,194.20994780003093,194.31139829999302,194.31139829999302,None,195.1610993000213,None,,,,,,,11021,001,2024_Jan_05_1127,ANT,2021.2.3,59.691193590325,
1,10,center,up,C,R,,,,,,Block.xlsx,"你已经完成了第一个实验区组

请稍作休息


点击空格键进入下一个区组。",0,50,1.5,right,RRRRR.png,,,,,0,0,0,0,1,2,26,9,,,,,,,,,,,,,,,,,,,,,,,,,,,,,,,,,,,,,,,,,,,,,,,,,,,,,,,,,,,,,,,,195.561635900056,195.96458719996735,195.9463173999684,196.0463362999726,196.4474337999709,None,right,1,0.5959494999842718,196.4474337999709,None,195.9463173999684,196.0463362999726,196.0463362999726,None,197.06415420002304,None,,,,,,,11021,001,2024_Jan_05_1127,ANT,2021.2.3,59.691193590325,
1,22,spatial,down,C,R,,,,,,Block.xlsx,"你已经完成了第一个实验区组

请稍作休息


点击空格键进入下一个区组。",-1.5,0,-1.5,right,RRRRR.png,,,,,0,0,0,0,1,3,27,21,,,,,,,,,,,,,,,,,,,,,,,,,,,,,,,,,,,,,,,,,,,,,,,,,,,,,,,,,,,,,,,,197.46470150002278,197.86572899995372,197.84899079997558,197.9489572000457,198.34913139999844,None,right,1,0.5101567999226972,198.34913139999844,None,197.84899079997558,197.9489572000457,197.9489572000457,None,198.88376909994986,None,,,,,,,11021,001,2024_Jan_05_1127,ANT,2021.2.3,59.691193590325,
1,3,no,up,IC,L,,,,,,Block.xlsx,"你已经完成了第一个实验区组

请稍作休息


点击空格键进入下一个区组。",50,0,1.5,left,RRLRR.png,,,,,0,0,0,0,1,4,28,2,,,,,,,,,,,,,,,,,,,,,,,,,,,,,,,,,,,,,,,,,,,,,,,,,,,,,,,,,,,,,,,,199.2834106000373,199.6850292000454,199.66823529999238,199.76869990001433,200.16984650003724,None,right,0,0.4096443000016734,200.16984650003724,None,199.66823529999238,199.76869990001433,199.76869990001433,None,200.60234710003715,None,,,,,,,11021,001,2024_Jan_05_1127,ANT,2021.2.3,59.691193590325,
1,10,center,up,C,R,,,,,,Block.xlsx,"你已经完成了第一个实验区组

请稍作休息


点击空格键进入下一个区组。",0,50,1.5,right,RRRRR.png,,,,,0,0,0,0,1,5,29,9,,,,,,,,,,,,,,,,,,,,,,,,,,,,,,,,,,,,,,,,,,,,,,,,,,,,,,,,,,,,,,,,201.00304610002786,201.40473169996403,201.38697810005397,201.48838590004016,201.88830360001884,None,right,1,0.48305800009984523,201.88830360001884,None,201.38697810005397,201.48838590004016,201.48838590004016,None,202.38844620005693,None,,,,,,,11021,001,2024_Jan_05_1127,ANT,2021.2.3,59.691193590325,
1,3,no,up,IC,L,,,,,,Block.xlsx,"你已经完成了第一个实验区组

请稍作休息


点击空格键进入下一个区组。",50,0,1.5,left,RRLRR.png,,,,,0,0,0,0,1,6,30,2,,,,,,,,,,,,,,,,,,,,,,,,,,,,,,,,,,,,,,,,,,,,,,,,,,,,,,,,,,,,,,,,202.7888329999987,203.19061599997804,203.17453119996935,203.29054479999468,203.67471689998638,None,left,1,0.5285889999940991,203.67471689998638,None,203.17453119996935,203.29054479999468,203.2740088000428,None,204.2245702999644,None,,,,,,,11021,001,2024_Jan_05_1127,ANT,2021.2.3,59.691193590325,
1,19,spatial,up,IC,L,,,,,,Block.xlsx,"你已经完成了第一个实验区组

请稍作休息


点击空格键进入下一个区组。",1.5,0,1.5,left,RRLRR.png,,,,,0,0,0,0,1,7,31,18,,,,,,,,,,,,,,,,,,,,,,,,,,,,,,,,,,,,,,,,,,,,,,,,,,,,,,,,,,,,,,,,204.62507980002556,205.02633430005517,205.01046929997392,205.11060360004194,205.51144110003952,None,left,1,0.5014798999764025,205.51144110003952,None,205.01046929997392,205.11060360004194,205.11060360004194,None,206.02713970001787,None,,,,,,,11021,001,2024_Jan_05_1127,ANT,2021.2.3,59.691193590325,
1,22,spatial,down,C,R,,,,,,Block.xlsx,"你已经完成了第一个实验区组

请稍作休息


点击空格键进入下一个区组。",-1.5,0,-1.5,right,RRRRR.png,,,,,0,0,0,0,1,8,32,21,,,,,,,,,,,,,,,,,,,,,,,,,,,,,,,,,,,,,,,,,,,,,,,,,,,,,,,,,,,,,,,,206.42806309997104,206.82893499999773,206.81216970004607,206.91329659998883,207.31328790006228,None,right,1,0.7146982999984175,207.31328790006228,None,206.81216970004607,206.91329659998883,206.91329659998883,None,208.04745319997892,None,,,,,,,11021,001,2024_Jan_05_1127,ANT,2021.2.3,59.691193590325,
1,7,no,down,IC,L,,,,,,Block.xlsx,"你已经完成了第一个实验区组

请稍作休息


点击空格键进入下一个区组。",50,0,-1.5,left,RRLRR.png,,,,,0,0,0,0,1,9,33,6,,,,,,,,,,,,,,,,,,,,,,,,,,,,,,,,,,,,,,,,,,,,,,,,,,,,,,,,,,,,,,,,208.44754860003013,208.85016010003164,208.8321495000273,208.93201440002304,209.3324884000467,None,left,1,0.5986817000666633,209.3324884000467,None,208.8321495000273,208.93201440002304,208.93201440002304,None,209.94947450002655,None,,,,,,,11021,001,2024_Jan_05_1127,ANT,2021.2.3,59.691193590325,
1,1,no,up,C,L,,,,,,Block.xlsx,"你已经完成了第一个实验区组

请稍作休息


点击空格键进入下一个区组。",50,0,1.5,left,LLLLL.png,,,,,0,0,0,0,1,10,34,0,,,,,,,,,,,,,,,,,,,,,,,,,,,,,,,,,,,,,,,,,,,,,,,,,,,,,,,,,,,,,,,,210.3508574999869,210.75162620004267,210.73474560002796,210.83515399997123,211.2361827000277,None,left,1,0.4551719999872148,211.2361827000277,None,210.73474560002796,210.83515399997123,210.83515399997123,None,211.7194671999896,None,,,,,,,11021,001,2024_Jan_05_1127,ANT,2021.2.3,59.691193590325,
1,7,no,down,IC,L,,,,,,Block.xlsx,"你已经完成了第一个实验区组

请稍作休息


点击空格键进入下一个区组。",50,0,-1.5,left,RRLRR.png,,,,,0,0,0,0,1,11,35,6,,,,,,,,,,,,,,,,,,,,,,,,,,,,,,,,,,,,,,,,,,,,,,,,,,,,,,,,,,,,,,,,212.12003900005948,212.52171999996062,212.50366389995907,212.60437910002656,213.00492650002707,None,left,1,0.5668776000384241,213.00492650002707,None,212.50366389995907,212.60437910002656,212.60437910002656,None,213.58838630001992,None,,,,,,,11021,001,2024_Jan_05_1127,ANT,2021.2.3,59.691193590325,
1,9,center,up,C,L,,,,,,Block.xlsx,"你已经完成了第一个实验区组

请稍作休息


点击空格键进入下一个区组。",0,50,1.5,left,LLLLL.png,,,,,0,0,0,0,1,12,36,8,,,,,,,,,,,,,,,,,,,,,,,,,,,,,,,,,,,,,,,,,,,,,,,,,,,,,,,,,,,,,,,,213.98884200002067,214.39127490005922,214.3734722000081,214.47363390005194,214.87428290001117,None,left,1,0.464871900039725,214.87428290001117,None,214.3734722000081,214.47363390005194,214.47363390005194,None,215.35766029998194,None,,,,,,,11021,001,2024_Jan_05_1127,ANT,2021.2.3,59.691193590325,
1,4,no,up,IC,R,,,,,,Block.xlsx,"你已经完成了第一个实验区组

请稍作休息


点击空格键进入下一个区组。",50,0,1.5,right,LLRLL.png,,,,,0,0,0,0,1,13,37,3,,,,,,,,,,,,,,,,,,,,,,,,,,,,,,,,,,,,,,,,,,,,,,,,,,,,,,,,,,,,,,,,215.75832190003712,216.1600111000007,216.1436608999502,216.242862300016,216.64372419996653,None,right,1,0.5673975000390783,216.64372419996653,None,216.1436608999502,216.242862300016,216.242862300016,None,217.22786710003857,None,,,,,,,11021,001,2024_Jan_05_1127,ANT,2021.2.3,59.691193590325,
1,6,no,down,C,R,,,,,,Block.xlsx,"你已经完成了第一个实验区组

请稍作休息


点击空格键进入下一个区组。",50,0,-1.5,right,RRRRR.png,,,,,0,0,0,0,1,14,38,5,,,,,,,,,,,,,,,,,,,,,,,,,,,,,,,,,,,,,,,,,,,,,,,,,,,,,,,,,,,,,,,,217.6280412999913,218.02912980003748,218.01206219999585,218.11351090006065,218.5132002000464,None,right,1,0.5221130000427365,218.5132002000464,None,218.01206219999585,218.11351090006065,218.11351090006065,None,219.06330120004714,None,,,,,,,11021,001,2024_Jan_05_1127,ANT,2021.2.3,59.691193590325,
1,16,center,down,IC,R,,,,,,Block.xlsx,"你已经完成了第一个实验区组

请稍作休息


点击空格键进入下一个区组。",0,50,-1.5,right,LLRLL.png,,,,,0,0,0,0,1,15,39,15,,,,,,,,,,,,,,,,,,,,,,,,,,,,,,,,,,,,,,,,,,,,,,,,,,,,,,,,,,,,,,,,219.46475309995003,219.86421290005092,219.84903180005495,219.94878830004018,220.3492107000202,None,right,1,0.5346392000792548,220.3492107000202,None,219.84903180005495,219.94878830004018,219.94878830004018,None,220.89921900001355,None,,,,,,,11021,001,2024_Jan_05_1127,ANT,2021.2.3,59.691193590325,
1,15,center,down,IC,L,,,,,,Block.xlsx,"你已经完成了第一个实验区组

请稍作休息


点击空格键进入下一个区组。",0,50,-1.5,left,RRLRR.png,,,,,0,0,0,0,1,16,40,14,,,,,,,,,,,,,,,,,,,,,,,,,,,,,,,,,,,,,,,,,,,,,,,,,,,,,,,,,,,,,,,,221.29996570001822,221.7014648000477,221.68363900005352,221.78454789996613,222.18589500000235,None,left,1,0.5778003999730572,222.18589500000235,None,221.68363900005352,221.78454789996613,221.78454789996613,None,222.7851560000563,None,,,,,,,11021,001,2024_Jan_05_1127,ANT,2021.2.3,59.691193590325,
1,13,center,down,C,L,,,,,,Block.xlsx,"你已经完成了第一个实验区组

请稍作休息


点击空格键进入下一个区组。",0,50,-1.5,left,LLLLL.png,,,,,0,0,0,0,1,17,41,12,,,,,,,,,,,,,,,,,,,,,,,,,,,,,,,,,,,,,,,,,,,,,,,,,,,,,,,,,,,,,,,,223.18598219996784,223.58717019995674,223.57147560000885,223.67056810006034,224.07130700000562,None,left,1,0.507949500111863,224.07130700000562,None,223.57147560000885,223.67056810006034,223.67056810006034,None,224.60436050000135,None,,,,,,,11021,001,2024_Jan_05_1127,ANT,2021.2.3,59.691193590325,
1,13,center,down,C,L,,,,,,Block.xlsx,"你已经完成了第一个实验区组

请稍作休息


点击空格键进入下一个区组。",0,50,-1.5,left,LLLLL.png,,,,,0,0,0,0,1,18,42,12,,,,,,,,,,,,,,,,,,,,,,,,,,,,,,,,,,,,,,,,,,,,,,,,,,,,,,,,,,,,,,,,225.00521289999597,225.40757529996336,225.38959260005504,225.49008699995466,225.8908526999876,None,left,1,0.43295970000326633,225.8908526999876,None,225.38959260005504,225.49008699995466,225.49008699995466,None,226.34051739994902,None,,,,,,,11021,001,2024_Jan_05_1127,ANT,2021.2.3,59.691193590325,
1,8,no,down,IC,R,,,,,,Block.xlsx,"你已经完成了第一个实验区组

请稍作休息


点击空格键进入下一个区组。",50,0,-1.5,right,LLRLL.png,,,,,0,0,0,0,1,19,43,7,,,,,,,,,,,,,,,,,,,,,,,,,,,,,,,,,,,,,,,,,,,,,,,,,,,,,,,,,,,,,,,,226.7412055999739,227.14294259995222,227.1252397999633,227.22528560005594,227.62769740005024,None,left,0,0.35154220007825643,227.62769740005024,None,227.1252397999633,227.22528560005594,227.22528560005594,None,227.9931165999733,None,,,,,,,11021,001,2024_Jan_05_1127,ANT,2021.2.3,59.691193590325,
1,7,no,down,IC,L,,,,,,Block.xlsx,"你已经完成了第一个实验区组

请稍作休息


点击空格键进入下一个区组。",50,0,-1.5,left,RRLRR.png,,,,,0,0,0,0,1,20,44,6,,,,,,,,,,,,,,,,,,,,,,,,,,,,,,,,,,,,,,,,,,,,,,,,,,,,,,,,,,,,,,,,228.39369519997854,228.79709690005984,228.7782765000593,228.8787248999579,229.27984960004687,None,left,1,0.49985939997714013,229.27984960004687,None,228.7782765000593,228.8787248999579,228.8787248999579,None,229.79559670004528,None,,,,,,,11021,001,2024_Jan_05_1127,ANT,2021.2.3,59.691193590325,
1,14,center,down,C,R,,,,,,Block.xlsx,"你已经完成了第一个实验区组

请稍作休息


点击空格键进入下一个区组。",0,50,-1.5,right,RRRRR.png,,,,,0,0,0,0,1,21,45,13,,,,,,,,,,,,,,,,,,,,,,,,,,,,,,,,,,,,,,,,,,,,,,,,,,,,,,,,,,,,,,,,230.1969297999749,230.59837310004514,230.58074240002315,230.6807567999931,231.0823948000325,None,right,1,0.4967630999162793,231.0823948000325,None,230.58074240002315,230.6807567999931,230.6807567999931,None,231.59828799997922,None,,,,,,,11021,001,2024_Jan_05_1127,ANT,2021.2.3,59.691193590325,
1,9,center,up,C,L,,,,,,Block.xlsx,"你已经完成了第一个实验区组

请稍作休息


点击空格键进入下一个区组。",0,50,1.5,left,LLLLL.png,,,,,0,0,0,0,1,22,46,8,,,,,,,,,,,,,,,,,,,,,,,,,,,,,,,,,,,,,,,,,,,,,,,,,,,,,,,,,,,,,,,,231.9989969000453,232.40182430006098,232.38348299998324,232.48362499999348,232.88442919997033,None,left,1,0.46315550000872463,232.88442919997033,None,232.38348299998324,232.48362499999348,232.48362499999348,None,233.36779180006124,None,,,,,,,11021,001,2024_Jan_05_1127,ANT,2021.2.3,59.691193590325,
1,10,center,up,C,R,,,,,,Block.xlsx,"你已经完成了第一个实验区组

请稍作休息


点击空格键进入下一个区组。",0,50,1.5,right,RRRRR.png,,,,,0,0,0,0,1,23,47,9,,,,,,,,,,,,,,,,,,,,,,,,,,,,,,,,,,,,,,,,,,,,,,,,,,,,,,,,,,,,,,,,233.76812030002475,234.1705427999841,234.1526254999917,234.25351229996886,234.6537013000343,None,right,1,0.6696844999678433,234.6537013000343,None,234.1526254999917,234.25351229996886,234.25351229996886,None,235.35401560005266,None,,,,,,,11021,001,2024_Jan_05_1127,ANT,2021.2.3,59.691193590325,
1,2,no,up,C,R,,,,,,Block.xlsx,"你已经完成了第一个实验区组

请稍作休息


点击空格键进入下一个区组。",50,0,1.5,right,RRRRR.png,,,,,0,0,0,0,2,0,48,1,,,,,,,,,,,,,,,,,,,,,,,,,,,,,,,,,,,,,,,,,,,,,,,,,,,,,,,,,,,,,,,,235.7547104000114,236.15609489998315,236.13844360003714,236.2392719000345,236.64031950000208,None,right,1,0.3390165999298915,236.64031950000208,None,236.13844360003714,236.2392719000345,236.2392719000345,None,237.00639490003232,None,,,,,,,11021,001,2024_Jan_05_1127,ANT,2021.2.3,59.691193590325,
1,19,spatial,up,IC,L,,,,,,Block.xlsx,"你已经完成了第一个实验区组

请稍作休息


点击空格键进入下一个区组。",1.5,0,1.5,left,RRLRR.png,,,,,0,0,0,0,2,1,49,18,,,,,,,,,,,,,,,,,,,,,,,,,,,,,,,,,,,,,,,,,,,,,,,,,,,,,,,,,,,,,,,,237.40757300006226,237.80982419999782,237.79144399997313,237.8914174999809,238.29335389996413,None,left,1,0.47781419998500496,238.29335389996413,None,237.79144399997313,237.8914174999809,237.8914174999809,None,238.79241899994668,None,,,,,,,11021,001,2024_Jan_05_1127,ANT,2021.2.3,59.691193590325,
1,21,spatial,down,C,L,,,,,,Block.xlsx,"你已经完成了第一个实验区组

请稍作休息


点击空格键进入下一个区组。",-1.5,0,-1.5,left,LLLLL.png,,,,,0,0,0,0,2,2,50,20,,,,,,,,,,,,,,,,,,,,,,,,,,,,,,,,,,,,,,,,,,,,,,,,,,,,,,,,,,,,,,,,239.19290519994684,239.5945632000221,239.57701270002872,239.67703330004588,240.07832339999732,None,left,1,0.36562499997671694,240.07832339999732,None,239.57701270002872,239.67703330004588,239.67703330004588,None,240.46168319997378,None,,,,,,,11021,001,2024_Jan_05_1127,ANT,2021.2.3,59.691193590325,
1,6,no,down,C,R,,,,,,Block.xlsx,"你已经完成了第一个实验区组

请稍作休息


点击空格键进入下一个区组。",50,0,-1.5,right,RRRRR.png,,,,,0,0,0,0,2,3,51,5,,,,,,,,,,,,,,,,,,,,,,,,,,,,,,,,,,,,,,,,,,,,,,,,,,,,,,,,,,,,,,,,240.862917499966,241.26330969994888,241.2466331999749,241.34733949997462,241.7479680000106,None,right,1,0.6397051000967622,241.7479680000106,None,241.2466331999749,241.34733949997462,241.34733949997462,None,242.4142806000309,None,,,,,,,11021,001,2024_Jan_05_1127,ANT,2021.2.3,59.691193590325,
1,6,no,down,C,R,,,,,,Block.xlsx,"你已经完成了第一个实验区组

请稍作休息


点击空格键进入下一个区组。",50,0,-1.5,right,RRRRR.png,,,,,0,0,0,0,2,4,52,5,,,,,,,,,,,,,,,,,,,,,,,,,,,,,,,,,,,,,,,,,,,,,,,,,,,,,,,,,,,,,,,,242.8155860999832,243.21571729995776,243.2003015000373,243.2997579999501,243.7006618999876,None,right,1,0.5746937999501824,243.7006618999876,None,243.2003015000373,243.2997579999501,243.2997579999501,None,244.30071250000037,None,,,,,,,11021,001,2024_Jan_05_1127,ANT,2021.2.3,59.691193590325,
1,22,spatial,down,C,R,,,,,,Block.xlsx,"你已经完成了第一个实验区组

请稍作休息


点击空格键进入下一个区组。",-1.5,0,-1.5,right,RRRRR.png,,,,,0,0,0,0,2,5,53,21,,,,,,,,,,,,,,,,,,,,,,,,,,,,,,,,,,,,,,,,,,,,,,,,,,,,,,,,,,,,,,,,244.70118329999968,245.10382760001812,245.08513889997266,245.18701039999723,245.58632680005394,None,right,1,0.36897439998574555,245.58632680005394,None,245.08513889997266,245.18701039999723,245.18701039999723,None,245.96979480003938,None,,,,,,,11021,001,2024_Jan_05_1127,ANT,2021.2.3,59.691193590325,
1,24,spatial,down,IC,R,,,,,,Block.xlsx,"你已经完成了第一个实验区组

请稍作休息


点击空格键进入下一个区组。",-1.5,0,-1.5,right,LLRLL.png,,,,,0,0,0,0,2,6,54,23,,,,,,,,,,,,,,,,,,,,,,,,,,,,,,,,,,,,,,,,,,,,,,,,,,,,,,,,,,,,,,,,246.37040390004404,246.77184199995827,246.7543558999896,246.85576649999712,247.2575363999931,None,right,1,0.5146143001038581,247.2575363999931,None,246.7543558999896,246.85576649999712,246.85576649999712,None,247.78941810003016,None,,,,,,,11021,001,2024_Jan_05_1127,ANT,2021.2.3,59.691193590325,
1,5,no,down,C,L,,,,,,Block.xlsx,"你已经完成了第一个实验区组

请稍作休息


点击空格键进入下一个区组。",50,0,-1.5,left,LLLLL.png,,,,,0,0,0,0,2,7,55,4,,,,,,,,,,,,,,,,,,,,,,,,,,,,,,,,,,,,,,,,,,,,,,,,,,,,,,,,,,,,,,,,248.1895754999714,248.591606699978,248.57357240002602,248.67548560001887,249.07444550003856,None,left,1,0.50503340002615,249.07444550003856,None,248.57357240002602,248.67548560001887,248.67548560001887,None,249.60841630003415,None,,,,,,,11021,001,2024_Jan_05_1127,ANT,2021.2.3,59.691193590325,
1,21,spatial,down,C,L,,,,,,Block.xlsx,"你已经完成了第一个实验区组

请稍作休息


点击空格键进入下一个区组。",-1.5,0,-1.5,left,LLLLL.png,,,,,0,0,0,0,2,8,56,20,,,,,,,,,,,,,,,,,,,,,,,,,,,,,,,,,,,,,,,,,,,,,,,,,,,,,,,,,,,,,,,,250.00960380001925,250.4106706000166,250.39290159998927,250.4935271999566,250.89522129995748,None,left,1,0.4201953000156209,250.89522129995748,None,250.39290159998927,250.4935271999566,250.4935271999566,None,251.34431900002528,None,,,,,,,11021,001,2024_Jan_05_1127,ANT,2021.2.3,59.691193590325,
1,20,spatial,up,IC,R,,,,,,Block.xlsx,"你已经完成了第一个实验区组

请稍作休息


点击空格键进入下一个区组。",1.5,0,1.5,right,LLRLL.png,,,,,0,0,0,0,2,9,57,19,,,,,,,,,,,,,,,,,,,,,,,,,,,,,,,,,,,,,,,,,,,,,,,,,,,,,,,,,,,,,,,,251.74502799997572,252.14699779998045,252.12907480006106,252.22915430006105,252.62957680004183,None,right,1,0.5979790999554098,252.62957680004183,None,252.12907480006106,252.22915430006105,252.22915430006105,None,253.24702370003797,None,,,,,,,11021,001,2024_Jan_05_1127,ANT,2021.2.3,59.691193590325,
1,2,no,up,C,R,,,,,,Block.xlsx,"你已经完成了第一个实验区组

请稍作休息


点击空格键进入下一个区组。",50,0,1.5,right,RRRRR.png,,,,,0,0,0,0,2,10,58,1,,,,,,,,,,,,,,,,,,,,,,,,,,,,,,,,,,,,,,,,,,,,,,,,,,,,,,,,,,,,,,,,253.64837910002097,254.049674400012,254.03170229995158,254.13264139997773,254.5324637000449,None,right,1,0.414697999949567,254.5324637000449,None,254.03170229995158,254.13264139997773,254.13264139997773,None,254.96625499997754,None,,,,,,,11021,001,2024_Jan_05_1127,ANT,2021.2.3,59.691193590325,
1,3,no,up,IC,L,,,,,,Block.xlsx,"你已经完成了第一个实验区组

请稍作休息


点击空格键进入下一个区组。",50,0,1.5,left,RRLRR.png,,,,,0,0,0,0,2,11,59,2,,,,,,,,,,,,,,,,,,,,,,,,,,,,,,,,,,,,,,,,,,,,,,,,,,,,,,,,,,,,,,,,255.3668892000569,255.7677796999924,255.75161340006161,255.85108870000113,256.2517569999909,None,left,1,0.5435217999620363,256.2517569999909,None,255.75161340006161,255.85108870000113,255.85108870000113,None,256.8191898999503,None,,,,,,,11021,001,2024_Jan_05_1127,ANT,2021.2.3,59.691193590325,
1,20,spatial,up,IC,R,,,,,,Block.xlsx,"你已经完成了第一个实验区组

请稍作休息


点击空格键进入下一个区组。",1.5,0,1.5,right,LLRLL.png,,,,,0,0,0,0,2,12,60,19,,,,,,,,,,,,,,,,,,,,,,,,,,,,,,,,,,,,,,,,,,,,,,,,,,,,,,,,,,,,,,,,257.21989139996003,257.6199910000432,257.6044798999792,257.70470959995873,258.1049731000094,None,right,1,0.5623274000827223,258.1049731000094,None,257.6044798999792,257.70470959995873,257.70470959995873,None,258.6885948999552,None,,,,,,,11021,001,2024_Jan_05_1127,ANT,2021.2.3,59.691193590325,
1,17,spatial,up,C,L,,,,,,Block.xlsx,"你已经完成了第一个实验区组

请稍作休息


点击空格键进入下一个区组。",1.5,0,1.5,left,LLLLL.png,,,,,0,0,0,0,2,13,61,16,,,,,,,,,,,,,,,,,,,,,,,,,,,,,,,,,,,,,,,,,,,,,,,,,,,,,,,,,,,,,,,,259.08900170004927,259.4899420000147,259.47292049997486,259.57376069994643,259.97391719999723,None,left,1,0.5822384000057355,259.97391719999723,None,259.47292049997486,259.57376069994643,259.57376069994643,None,260.57449260004796,None,,,,,,,11021,001,2024_Jan_05_1127,ANT,2021.2.3,59.691193590325,
1,13,center,down,C,L,,,,,,Block.xlsx,"你已经完成了第一个实验区组

请稍作休息


点击空格键进入下一个区组。",0,50,-1.5,left,LLLLL.png,,,,,0,0,0,0,2,14,62,12,,,,,,,,,,,,,,,,,,,,,,,,,,,,,,,,,,,,,,,,,,,,,,,,,,,,,,,,,,,,,,,,260.97588369995356,261.37650620006025,261.3604968000436,261.4605145000387,261.8607574000489,None,left,1,0.5744156000437215,261.8607574000489,None,261.3604968000436,261.4605145000387,261.4605145000387,None,262.46076739998534,None,,,,,,,11021,001,2024_Jan_05_1127,ANT,2021.2.3,59.691193590325,
1,1,no,up,C,L,,,,,,Block.xlsx,"你已经完成了第一个实验区组

请稍作休息


点击空格键进入下一个区组。",50,0,1.5,left,LLLLL.png,,,,,0,0,0,0,2,15,63,0,,,,,,,,,,,,,,,,,,,,,,,,,,,,,,,,,,,,,,,,,,,,,,,,,,,,,,,,,,,,,,,,262.86152539995965,263.2633650000207,263.2459146999754,263.3472350999946,263.74612749996595,None,left,1,0.4972628999967128,263.74612749996595,None,263.2459146999754,263.3472350999946,263.3472350999946,None,264.26338090002537,None,,,,,,,11021,001,2024_Jan_05_1127,ANT,2021.2.3,59.691193590325,
1,21,spatial,down,C,L,,,,,,Block.xlsx,"你已经完成了第一个实验区组

请稍作休息


点击空格键进入下一个区组。",-1.5,0,-1.5,left,LLLLL.png,,,,,0,0,0,0,2,16,64,20,,,,,,,,,,,,,,,,,,,,,,,,,,,,,,,,,,,,,,,,,,,,,,,,,,,,,,,,,,,,,,,,264.664139600005,265.06519220001064,265.04957370006014,265.1484435000457,265.5496554999845,None,left,1,0.5505394999636337,265.5496554999845,None,265.04957370006014,265.1484435000457,265.1484435000457,None,266.1163997000549,None,,,,,,,11021,001,2024_Jan_05_1127,ANT,2021.2.3,59.691193590325,
1,11,center,up,IC,L,,,,,,Block.xlsx,"你已经完成了第一个实验区组

请稍作休息


点击空格键进入下一个区组。",0,50,1.5,left,RRLRR.png,,,,,0,0,0,0,2,17,65,10,,,,,,,,,,,,,,,,,,,,,,,,,,,,,,,,,,,,,,,,,,,,,,,,,,,,,,,,,,,,,,,,266.51679280004464,266.91916389996186,266.9010808999883,267.0012100000167,267.40261530003045,None,left,1,0.5686976000433788,267.40261530003045,None,266.9010808999883,267.0012100000167,267.0012100000167,None,268.00242130004335,None,,,,,,,11021,001,2024_Jan_05_1127,ANT,2021.2.3,59.691193590325,
1,5,no,down,C,L,,,,,,Block.xlsx,"你已经完成了第一个实验区组

请稍作休息


点击空格键进入下一个区组。",50,0,-1.5,left,LLLLL.png,,,,,0,0,0,0,2,18,66,4,,,,,,,,,,,,,,,,,,,,,,,,,,,,,,,,,,,,,,,,,,,,,,,,,,,,,,,,,,,,,,,,268.4032339999685,268.8043798999861,268.78683989995625,268.8875751000596,269.28862120001577,None,left,1,0.4586097999708727,269.28862120001577,None,268.78683989995625,268.8875751000596,268.8875751000596,None,269.77180950006004,None,,,,,,,11021,001,2024_Jan_05_1127,ANT,2021.2.3,59.691193590325,
1,15,center,down,IC,L,,,,,,Block.xlsx,"你已经完成了第一个实验区组

请稍作休息


点击空格键进入下一个区组。",0,50,-1.5,left,RRLRR.png,,,,,0,0,0,0,2,19,67,14,,,,,,,,,,,,,,,,,,,,,,,,,,,,,,,,,,,,,,,,,,,,,,,,,,,,,,,,,,,,,,,,270.17291029996704,270.5746960999677,270.5567761999555,270.656100400025,271.05675200000405,None,left,1,0.5544261999893934,271.05675200000405,None,270.5567761999555,270.656100400025,270.656100400025,None,271.64110460004304,None,,,,,,,11021,001,2024_Jan_05_1127,ANT,2021.2.3,59.691193590325,
1,14,center,down,C,R,,,,,,Block.xlsx,"你已经完成了第一个实验区组

请稍作休息


点击空格键进入下一个区组。",0,50,-1.5,right,RRRRR.png,,,,,0,0,0,0,2,20,68,13,,,,,,,,,,,,,,,,,,,,,,,,,,,,,,,,,,,,,,,,,,,,,,,,,,,,,,,,,,,,,,,,272.0423179999925,272.4438441999955,272.4260443999665,272.5269985999912,272.9278152999468,None,right,1,0.45988139999099076,272.9278152999468,None,272.4260443999665,272.5269985999912,272.5269985999912,None,273.4103160999948,None,,,,,,,11021,001,2024_Jan_05_1127,ANT,2021.2.3,59.691193590325,
1,19,spatial,up,IC,L,,,,,,Block.xlsx,"你已经完成了第一个实验区组

请稍作休息


点击空格键进入下一个区组。",1.5,0,1.5,left,RRLRR.png,,,,,0,0,0,0,2,21,69,18,,,,,,,,,,,,,,,,,,,,,,,,,,,,,,,,,,,,,,,,,,,,,,,,,,,,,,,,,,,,,,,,273.8112451999914,274.2132322000107,274.19549559999723,274.295741799986,274.69722640002146,None,left,1,0.45823039999231696,274.69722640002146,None,274.19549559999723,274.295741799986,274.295741799986,None,275.18025940004736,None,,,,,,,11021,001,2024_Jan_05_1127,ANT,2021.2.3,59.691193590325,
1,23,spatial,down,IC,L,,,,,,Block.xlsx,"你已经完成了第一个实验区组

请稍作休息


点击空格键进入下一个区组。",-1.5,0,-1.5,left,RRLRR.png,,,,,0,0,0,0,2,22,70,22,,,,,,,,,,,,,,,,,,,,,,,,,,,,,,,,,,,,,,,,,,,,,,,,,,,,,,,,,,,,,,,,275.58074580004904,275.9825183999492,275.9641472999938,276.06597850006074,276.46674790000543,None,left,1,0.5525847999379039,276.46674790000543,None,275.9641472999938,276.06597850006074,276.06597850006074,None,277.04910479998216,None,,,,,,,11021,001,2024_Jan_05_1127,ANT,2021.2.3,59.691193590325,
1,17,spatial,up,C,L,,,,,,Block.xlsx,"你已经完成了第一个实验区组

请稍作休息


点击空格键进入下一个区组。",1.5,0,1.5,left,LLLLL.png,,,,,0,0,0,0,2,23,71,16,,,,,,,,,,,,,,,,,,,,,,,,,,,,,,,,,,,,,,,,,,,,,,,,,,,,,,,,,,,,,,,,277.4506768999854,277.85160789999645,277.83417859999463,277.9338031000225,278.33421969995834,None,left,1,0.3498889999464154,278.33421969995834,None,277.83417859999463,277.9338031000225,277.9338031000225,None,278.7021059000399,None,,,,,,,11021,001,2024_Jan_05_1127,ANT,2021.2.3,59.691193590325,
1,23,spatial,down,IC,L,,,,,,Block.xlsx,"你已经完成了第一个实验区组

请稍作休息


点击空格键进入下一个区组。",-1.5,0,-1.5,left,RRLRR.png,,,,,0,0,0,0,3,0,72,22,,,,,,,,,,,,,,,,,,,,,,,,,,,,,,,,,,,,,,,,,,,,,,,,,,,,,,,,,,,,,,,,279.10208890005015,279.50311619997956,279.4860917000333,279.58663459995296,279.9868406000314,None,left,1,0.4011125999968499,279.9868406000314,None,279.4860917000333,279.58663459995296,279.58663459995296,None,280.4039676999673,None,,,,,,,11021,001,2024_Jan_05_1127,ANT,2021.2.3,59.691193590325,
1,23,spatial,down,IC,L,,,,,,Block.xlsx,"你已经完成了第一个实验区组

请稍作休息


点击空格键进入下一个区组。",-1.5,0,-1.5,left,RRLRR.png,,,,,0,0,0,0,3,1,73,22,,,,,,,,,,,,,,,,,,,,,,,,,,,,,,,,,,,,,,,,,,,,,,,,,,,,,,,,,,,,,,,,280.804679700057,281.2055975999683,281.1903207000578,281.2906215999974,281.6900570000289,None,left,1,0.3692288000602275,281.6900570000289,None,281.1903207000578,281.2906215999974,281.2906215999974,None,282.08980249997694,None,,,,,,,11021,001,2024_Jan_05_1127,ANT,2021.2.3,59.691193590325,
1,16,center,down,IC,R,,,,,,Block.xlsx,"你已经完成了第一个实验区组

请稍作休息


点击空格键进入下一个区组。",0,50,-1.5,right,LLRLL.png,,,,,0,0,0,0,3,2,74,15,,,,,,,,,,,,,,,,,,,,,,,,,,,,,,,,,,,,,,,,,,,,,,,,,,,,,,,,,,,,,,,,282.4905112000415,282.8925901000621,282.8744622999802,282.97559960000217,283.37696410005447,None,right,1,0.5784173000138253,283.37696410005447,None,282.8744622999802,282.97559960000217,282.97559960000217,None,283.9760479000397,None,,,,,,,11021,001,2024_Jan_05_1127,ANT,2021.2.3,59.691193590325,
1,5,no,down,C,L,,,,,,Block.xlsx,"你已经完成了第一个实验区组

请稍作休息


点击空格键进入下一个区组。",50,0,-1.5,left,LLLLL.png,,,,,0,0,0,0,3,3,75,4,,,,,,,,,,,,,,,,,,,,,,,,,,,,,,,,,,,,,,,,,,,,,,,,,,,,,,,,,,,,,,,,284.37709890003316,284.77787220000755,284.76174580003135,284.8614275000291,285.26120039995294,None,left,1,0.43041919998358935,285.26120039995294,None,284.76174580003135,284.8614275000291,284.8614275000291,None,285.7120633999584,None,,,,,,,11021,001,2024_Jan_05_1127,ANT,2021.2.3,59.691193590325,
1,11,center,up,IC,L,,,,,,Block.xlsx,"你已经完成了第一个实验区组

请稍作休息


点击空格键进入下一个区组。",0,50,1.5,left,RRLRR.png,,,,,0,0,0,0,3,4,76,10,,,,,,,,,,,,,,,,,,,,,,,,,,,,,,,,,,,,,,,,,,,,,,,,,,,,,,,,,,,,,,,,286.1137982000364,286.5135612000013,286.49645430000965,286.59722430002876,286.99860150006134,None,left,1,0.5727934000315145,286.99860150006134,None,286.49645430000965,286.59722430002876,286.59722430002876,None,287.5984360000584,None,,,,,,,11021,001,2024_Jan_05_1127,ANT,2021.2.3,59.691193590325,
1,24,spatial,down,IC,R,,,,,,Block.xlsx,"你已经完成了第一个实验区组

请稍作休息


点击空格键进入下一个区组。",-1.5,0,-1.5,right,LLRLL.png,,,,,0,0,0,0,3,5,77,23,,,,,,,,,,,,,,,,,,,,,,,,,,,,,,,,,,,,,,,,,,,,,,,,,,,,,,,,,,,,,,,,287.99868299998343,288.39990179997403,288.3831828000257,288.4848939999938,288.8832835999783,None,right,1,0.624645100091584,288.8832835999783,None,288.3831828000257,288.4848939999938,288.4848939999938,None,289.53402530006133,None,,,,,,,11021,001,2024_Jan_05_1127,ANT,2021.2.3,59.691193590325,
1,4,no,up,IC,R,,,,,,Block.xlsx,"你已经完成了第一个实验区组

请稍作休息


点击空格键进入下一个区组。",50,0,1.5,right,LLRLL.png,,,,,0,0,0,0,3,6,78,3,,,,,,,,,,,,,,,,,,,,,,,,,,,,,,,,,,,,,,,,,,,,,,,,,,,,,,,,,,,,,,,,289.9351153000025,290.33698749996256,290.3196756000398,290.4195327999769,290.8194593000226,None,right,1,0.6321955999592319,290.8194593000226,None,290.3196756000398,290.4195327999769,290.4195327999769,None,291.4710872999858,None,,,,,,,11021,001,2024_Jan_05_1127,ANT,2021.2.3,59.691193590325,
1,20,spatial,up,IC,R,,,,,,Block.xlsx,"你已经完成了第一个实验区组

请稍作休息


点击空格键进入下一个区组。",1.5,0,1.5,right,LLRLL.png,,,,,0,0,0,0,3,7,79,19,,,,,,,,,,,,,,,,,,,,,,,,,,,,,,,,,,,,,,,,,,,,,,,,,,,,,,,,,,,,,,,,291.8712413000176,292.27231469994877,292.2570369000314,292.37339339999016,292.757315200055,None,right,1,0.43802619993221015,292.757315200055,None,292.2570369000314,292.37339339999016,292.3555191999767,None,293.2232185000321,None,,,,,,,11021,001,2024_Jan_05_1127,ANT,2021.2.3,59.691193590325,
1,7,no,down,IC,L,,,,,,Block.xlsx,"你已经完成了第一个实验区组

请稍作休息


点击空格键进入下一个区组。",50,0,-1.5,left,RRLRR.png,,,,,0,0,0,0,3,8,80,6,,,,,,,,,,,,,,,,,,,,,,,,,,,,,,,,,,,,,,,,,,,,,,,,,,,,,,,,,,,,,,,,293.624216599972,294.0243204999715,294.0078744000057,294.1089278999716,294.50881519995164,None,left,1,0.5351938999956474,294.50881519995164,None,294.0078744000057,294.1089278999716,294.1089278999716,None,295.0589433000423,None,,,,,,,11021,001,2024_Jan_05_1127,ANT,2021.2.3,59.691193590325,
1,3,no,up,IC,L,,,,,,Block.xlsx,"你已经完成了第一个实验区组

请稍作休息


点击空格键进入下一个区组。",50,0,1.5,left,RRLRR.png,,,,,0,0,0,0,3,9,81,2,,,,,,,,,,,,,,,,,,,,,,,,,,,,,,,,,,,,,,,,,,,,,,,,,,,,,,,,,,,,,,,,295.45962870004587,295.8619160000235,295.8441335000098,295.944975099992,296.34624730004,None,left,1,0.592987300013192,296.34624730004,None,295.8441335000098,295.944975099992,295.944975099992,None,296.9618860000046,None,,,,,,,11021,001,2024_Jan_05_1127,ANT,2021.2.3,59.691193590325,
1,8,no,down,IC,R,,,,,,Block.xlsx,"你已经完成了第一个实验区组

请稍作休息


点击空格键进入下一个区组。",50,0,-1.5,right,LLRLL.png,,,,,0,0,0,0,3,10,82,7,,,,,,,,,,,,,,,,,,,,,,,,,,,,,,,,,,,,,,,,,,,,,,,,,,,,,,,,,,,,,,,,297.3625917000463,297.76330440002494,297.74658240005374,297.8479956999654,298.24741409998387,None,right,1,0.6521945000858977,298.24741409998387,None,297.74658240005374,297.8479956999654,297.8479956999654,None,298.91469989996403,None,,,,,,,11021,001,2024_Jan_05_1127,ANT,2021.2.3,59.691193590325,
1,19,spatial,up,IC,L,,,,,,Block.xlsx,"你已经完成了第一个实验区组

请稍作休息


点击空格键进入下一个区组。",1.5,0,1.5,left,RRLRR.png,,,,,0,0,0,0,3,11,83,18,,,,,,,,,,,,,,,,,,,,,,,,,,,,,,,,,,,,,,,,,,,,,,,,,,,,,,,,,,,,,,,,299.3154842000222,299.71707130002324,299.6999684999464,299.8009191000601,300.2000686000101,None,left,1,0.4836966000730172,300.2000686000101,None,299.6999684999464,299.8009191000601,299.8009191000601,None,300.70079250005074,None,,,,,,,11021,001,2024_Jan_05_1127,ANT,2021.2.3,59.691193590325,
1,14,center,down,C,R,,,,,,Block.xlsx,"你已经完成了第一个实验区组

请稍作休息


点击空格键进入下一个区组。",0,50,-1.5,right,RRRRR.png,,,,,0,0,0,0,3,12,84,13,,,,,,,,,,,,,,,,,,,,,,,,,,,,,,,,,,,,,,,,,,,,,,,,,,,,,,,,,,,,,,,,301.1012026000535,301.50375939998776,301.4862176000606,301.58673530002125,301.9867798000341,None,right,1,0.5606704000383615,301.9867798000341,None,301.4862176000606,301.58673530002125,301.58673530002125,None,302.5700469999574,None,,,,,,,11021,001,2024_Jan_05_1127,ANT,2021.2.3,59.691193590325,
1,9,center,up,C,L,,,,,,Block.xlsx,"你已经完成了第一个实验区组

请稍作休息


点击空格键进入下一个区组。",0,50,1.5,left,LLLLL.png,,,,,0,0,0,0,3,13,85,8,,,,,,,,,,,,,,,,,,,,,,,,,,,,,,,,,,,,,,,,,,,,,,,,,,,,,,,,,,,,,,,,302.9713564000558,303.37233270006254,303.3550400000531,303.4555932000512,303.85769289999735,None,left,1,0.441545799956657,303.85769289999735,None,303.3550400000531,303.4555932000512,303.4555932000512,None,304.3228640999878,None,,,,,,,11021,001,2024_Jan_05_1127,ANT,2021.2.3,59.691193590325,
1,23,spatial,down,IC,L,,,,,,Block.xlsx,"你已经完成了第一个实验区组

请稍作休息


点击空格键进入下一个区组。",-1.5,0,-1.5,left,RRLRR.png,,,,,0,0,0,0,3,14,86,22,,,,,,,,,,,,,,,,,,,,,,,,,,,,,,,,,,,,,,,,,,,,,,,,,,,,,,,,,,,,,,,,304.7241606999887,305.1261725999648,305.10788609995507,305.2095910999924,305.6097155000316,None,left,1,0.7935888000065461,305.6097155000316,None,305.10788609995507,305.2095910999924,305.2095910999924,None,306.42604920000304,None,,,,,,,11021,001,2024_Jan_05_1127,ANT,2021.2.3,59.691193590325,
1,15,center,down,IC,L,,,,,,Block.xlsx,"你已经完成了第一个实验区组

请稍作休息


点击空格键进入下一个区组。",0,50,-1.5,left,RRLRR.png,,,,,0,0,0,0,3,15,87,14,,,,,,,,,,,,,,,,,,,,,,,,,,,,,,,,,,,,,,,,,,,,,,,,,,,,,,,,,,,,,,,,306.8273199000396,307.2271261999849,307.2118820999749,307.3113282000413,307.711068399949,None,left,1,0.29218470002524555,307.711068399949,None,307.2118820999749,307.3113282000413,307.3113282000413,None,308.0282663999824,None,,,,,,,11021,001,2024_Jan_05_1127,ANT,2021.2.3,59.691193590325,
1,11,center,up,IC,L,,,,,,Block.xlsx,"你已经完成了第一个实验区组

请稍作休息


点击空格键进入下一个区组。",0,50,1.5,left,RRLRR.png,,,,,0,0,0,0,3,16,88,10,,,,,,,,,,,,,,,,,,,,,,,,,,,,,,,,,,,,,,,,,,,,,,,,,,,,,,,,,,,,,,,,308.42911400005687,308.83128309994936,308.8137706000125,308.9130582000362,309.31636679999065,None,left,1,0.6229205999989063,309.31636679999065,None,308.8137706000125,308.9130582000362,308.9130582000362,None,309.9644533999963,None,,,,,,,11021,001,2024_Jan_05_1127,ANT,2021.2.3,59.691193590325,
1,14,center,down,C,R,,,,,,Block.xlsx,"你已经完成了第一个实验区组

请稍作休息


点击空格键进入下一个区组。",0,50,-1.5,right,RRRRR.png,,,,,0,0,0,0,3,17,89,13,,,,,,,,,,,,,,,,,,,,,,,,,,,,,,,,,,,,,,,,,,,,,,,,,,,,,,,,,,,,,,,,310.36512219998986,310.7658465000568,310.7499173999531,310.8504691000562,311.2518293999601,None,right,1,0.607590900035575,311.2518293999601,None,310.7499173999531,310.8504691000562,310.8504691000562,None,311.8841437000083,None,,,,,,,11021,001,2024_Jan_05_1127,ANT,2021.2.3,59.691193590325,
1,18,spatial,up,C,R,,,,,,Block.xlsx,"你已经完成了第一个实验区组

请稍作休息


点击空格键进入下一个区组。",1.5,0,1.5,right,RRRRR.png,,,,,0,0,0,0,3,18,90,17,,,,,,,,,,,,,,,,,,,,,,,,,,,,,,,,,,,,,,,,,,,,,,,,,,,,,,,,,,,,,,,,312.2847179999808,312.68585210002493,312.66928579995874,312.7687481000321,313.1700927000493,None,right,1,0.5134216999867931,313.1700927000493,None,312.66928579995874,312.7687481000321,312.7687481000321,None,313.70348659995943,None,,,,,,,11021,001,2024_Jan_05_1127,ANT,2021.2.3,59.691193590325,
1,8,no,down,IC,R,,,,,,Block.xlsx,"你已经完成了第一个实验区组

请稍作休息


点击空格键进入下一个区组。",50,0,-1.5,right,LLRLL.png,,,,,0,0,0,0,3,19,91,7,,,,,,,,,,,,,,,,,,,,,,,,,,,,,,,,,,,,,,,,,,,,,,,,,,,,,,,,,,,,,,,,314.1040435000323,314.5043700999813,314.4882799000479,314.58834769995883,314.9893037000438,None,right,1,0.5739555000327528,314.9893037000438,None,314.4882799000479,314.58834769995883,314.58834769995883,None,315.58949279994704,None,,,,,,,11021,001,2024_Jan_05_1127,ANT,2021.2.3,59.691193590325,
1,21,spatial,down,C,L,,,,,,Block.xlsx,"你已经完成了第一个实验区组

请稍作休息


点击空格键进入下一个区组。",-1.5,0,-1.5,left,LLLLL.png,,,,,0,0,0,0,3,20,92,20,,,,,,,,,,,,,,,,,,,,,,,,,,,,,,,,,,,,,,,,,,,,,,,,,,,,,,,,,,,,,,,,315.9900352000259,316.39122230000794,316.3754690999631,316.475033499999,316.8753626999678,None,left,1,0.49627220002003014,316.8753626999678,None,316.3754690999631,316.475033499999,316.475033499999,None,317.3921621000627,None,,,,,,,11021,001,2024_Jan_05_1127,ANT,2021.2.3,59.691193590325,
1,18,spatial,up,C,R,,,,,,Block.xlsx,"你已经完成了第一个实验区组

请稍作休息


点击空格键进入下一个区组。",1.5,0,1.5,right,RRRRR.png,,,,,0,0,0,0,3,21,93,17,,,,,,,,,,,,,,,,,,,,,,,,,,,,,,,,,,,,,,,,,,,,,,,,,,,,,,,,,,,,,,,,317.79269260005094,318.19343450001907,318.17783669999335,318.27745130006224,318.67813839996234,None,right,1,0.45353669999167323,318.67813839996234,None,318.17783669999335,318.27745130006224,318.27745130006224,None,319.161438500043,None,,,,,,,11021,001,2024_Jan_05_1127,ANT,2021.2.3,59.691193590325,
1,18,spatial,up,C,R,,,,,,Block.xlsx,"你已经完成了第一个实验区组

请稍作休息


点击空格键进入下一个区组。",1.5,0,1.5,right,RRRRR.png,,,,,0,0,0,0,3,22,94,17,,,,,,,,,,,,,,,,,,,,,,,,,,,,,,,,,,,,,,,,,,,,,,,,,,,,,,,,,,,,,,,,319.56218660005834,319.96297820005566,319.9473839000566,320.04746350005735,320.44883470004424,None,right,1,0.49058149999473244,320.44883470004424,None,319.9473839000566,320.04746350005735,320.04746350005735,None,320.9641340000089,None,,,,,,,11021,001,2024_Jan_05_1127,ANT,2021.2.3,59.691193590325,
1,15,center,down,IC,L,,,,,,Block.xlsx,"你已经完成了第一个实验区组

请稍作休息


点击空格键进入下一个区组。",0,50,-1.5,left,RRLRR.png,,,,,0,0,0,0,3,23,95,14,,,,,,,,,,,,,,,,,,,,,,,,,,,,,,,,,,,,,,,,,,,,,,,,,,,,,,,,,,,,,,,,321.36560859996825,321.7670445999829,321.74875869997777,321.8488011000445,322.2499297000468,None,right,0,0.39368320000357926,322.2499297000468,None,321.74875869997777,321.8488011000445,321.8488011000445,None,322.66665200004354,None,,,,,,,11021,001,2024_Jan_05_1127,ANT,2021.2.3,59.691193590325,
,,,,,,,,,,,Block.xlsx,"你已经完成了第一个实验区组

请稍作休息


点击空格键进入下一个区组。",,,,,,,,,,0,0,0,0,,,,,,,,,,,,,,,,,,,,,,,,,,,,,,,,,,,,,,,,,,,,,,,,,,,,,,,,,,,,,,,,,,,,,,,,,,,,,,,,,,,,,space,3.7212091999826953,323.06661570002325,None,323.06661570002325,None,11021,001,2024_Jan_05_1127,ANT,2021.2.3,59.691193590325,
1,2,no,up,C,R,,,,,,Block.xlsx,"你已经完成了整个实验（三个区组）。

请报告实验者已完成实验

非常感谢，再见！",50,0,1.5,right,RRRRR.png,,,,,0,1,1,1,0,0,0,1,,,,,,,,,,,,,,,,,,,,,,,,,,,,,,,,,,,,,,,,,,,,,,,,,,,,,,,,,,,,,,,,326.82256849994883,327.22447989997454,327.20686939998996,327.30823219998274,327.7083318999503,None,right,1,0.6313890999881551,327.7083318999503,None,327.20686939998996,327.30823219998274,327.30823219998274,None,328.35849550005514,None,,,,,,,11021,001,2024_Jan_05_1127,ANT,2021.2.3,59.691193590325,
1,7,no,down,IC,L,,,,,,Block.xlsx,"你已经完成了整个实验（三个区组）。

请报告实验者已完成实验

非常感谢，再见！",50,0,-1.5,left,RRLRR.png,,,,,0,1,1,1,0,1,1,6,,,,,,,,,,,,,,,,,,,,,,,,,,,,,,,,,,,,,,,,,,,,,,,,,,,,,,,,,,,,,,,,328.7603746999521,329.1615629000589,329.1432270000223,329.2435589999659,329.6438578000525,None,left,1,0.37535720004234463,329.6438578000525,None,329.1432270000223,329.2435589999659,329.2435589999659,None,330.0443937999662,None,,,,,,,11021,001,2024_Jan_05_1127,ANT,2021.2.3,59.691193590325,
1,8,no,down,IC,R,,,,,,Block.xlsx,"你已经完成了整个实验（三个区组）。

请报告实验者已完成实验

非常感谢，再见！",50,0,-1.5,right,LLRLL.png,,,,,0,1,1,1,0,2,2,7,,,,,,,,,,,,,,,,,,,,,,,,,,,,,,,,,,,,,,,,,,,,,,,,,,,,,,,,,,,,,,,,330.4448201999767,330.8468037999701,330.8296714000171,330.9299786000047,331.33051730005536,None,right,1,0.5774223000044003,331.33051730005536,None,330.8296714000171,330.9299786000047,330.9299786000047,None,331.93036520003807,None,,,,,,,11021,001,2024_Jan_05_1127,ANT,2021.2.3,59.691193590325,
1,19,spatial,up,IC,L,,,,,,Block.xlsx,"你已经完成了整个实验（三个区组）。

请报告实验者已完成实验

非常感谢，再见！",1.5,0,1.5,left,RRLRR.png,,,,,0,1,1,1,0,3,3,18,,,,,,,,,,,,,,,,,,,,,,,,,,,,,,,,,,,,,,,,,,,,,,,,,,,,,,,,,,,,,,,,332.33113099995535,332.73217470000964,332.7162626000354,332.8154781999765,333.21645549999084,None,left,1,0.48364899994339794,333.21645549999084,None,332.7162626000354,332.8154781999765,332.8154781999765,None,333.7167068000417,None,,,,,,,11021,001,2024_Jan_05_1127,ANT,2021.2.3,59.691193590325,
1,13,center,down,C,L,,,,,,Block.xlsx,"你已经完成了整个实验（三个区组）。

请报告实验者已完成实验

非常感谢，再见！",0,50,-1.5,left,LLLLL.png,,,,,0,1,1,1,0,4,4,12,,,,,,,,,,,,,,,,,,,,,,,,,,,,,,,,,,,,,,,,,,,,,,,,,,,,,,,,,,,,,,,,334.11771649995353,334.51819660002366,334.5009422999574,334.601181200007,335.0021183999488,None,left,1,0.3932798000751063,335.0021183999488,None,334.5009422999574,334.601181200007,334.601181200007,None,335.41893110005185,None,,,,,,,11021,001,2024_Jan_05_1127,ANT,2021.2.3,59.691193590325,
1,5,no,down,C,L,,,,,,Block.xlsx,"你已经完成了整个实验（三个区组）。

请报告实验者已完成实验

非常感谢，再见！",50,0,-1.5,left,LLLLL.png,,,,,0,1,1,1,0,5,5,4,,,,,,,,,,,,,,,,,,,,,,,,,,,,,,,,,,,,,,,,,,,,,,,,,,,,,,,,,,,,,,,,335.8194786000531,336.2219331000233,336.2039548000321,336.30483459995594,336.70414549997076,None,left,1,0.3313649999909103,336.70414549997076,None,336.2039548000321,336.30483459995594,336.30483459995594,None,337.0545588999521,None,,,,,,,11021,001,2024_Jan_05_1127,ANT,2021.2.3,59.691193590325,
1,16,center,down,IC,R,,,,,,Block.xlsx,"你已经完成了整个实验（三个区组）。

请报告实验者已完成实验

非常感谢，再见！",0,50,-1.5,right,LLRLL.png,,,,,0,1,1,1,0,6,6,15,,,,,,,,,,,,,,,,,,,,,,,,,,,,,,,,,,,,,,,,,,,,,,,,,,,,,,,,,,,,,,,,337.4553583000088,337.8577243000036,337.83979959995486,337.93938830005936,338.33975669997744,None,right,1,0.5276132000144571,338.33975669997744,None,337.83979959995486,337.93938830005936,337.93938830005936,None,338.89191879995633,None,,,,,,,11021,001,2024_Jan_05_1127,ANT,2021.2.3,59.691193590325,
1,22,spatial,down,C,R,,,,,,Block.xlsx,"你已经完成了整个实验（三个区组）。

请报告实验者已完成实验

非常感谢，再见！",-1.5,0,-1.5,right,RRRRR.png,,,,,0,1,1,1,0,7,7,21,,,,,,,,,,,,,,,,,,,,,,,,,,,,,,,,,,,,,,,,,,,,,,,,,,,,,,,,,,,,,,,,339.2914187000133,339.6936873999657,339.67582869995385,339.7758910000557,340.17810629995074,None,right,1,0.4171160999685526,340.17810629995074,None,339.67582869995385,339.7758910000557,339.7758910000557,None,340.62664849997964,None,,,,,,,11021,001,2024_Jan_05_1127,ANT,2021.2.3,59.691193590325,
1,14,center,down,C,R,,,,,,Block.xlsx,"你已经完成了整个实验（三个区组）。

请报告实验者已完成实验

非常感谢，再见！",0,50,-1.5,right,RRRRR.png,,,,,0,1,1,1,0,8,8,13,,,,,,,,,,,,,,,,,,,,,,,,,,,,,,,,,,,,,,,,,,,,,,,,,,,,,,,,,,,,,,,,341.02737030002754,341.4298471000511,341.4118916000007,341.51139310002327,341.91247920005117,None,right,1,0.4588380000786856,341.91247920005117,None,341.4118916000007,341.51139310002327,341.51139310002327,None,342.3961104999762,None,,,,,,,11021,001,2024_Jan_05_1127,ANT,2021.2.3,59.691193590325,
1,22,spatial,down,C,R,,,,,,Block.xlsx,"你已经完成了整个实验（三个区组）。

请报告实验者已完成实验

非常感谢，再见！",-1.5,0,-1.5,right,RRRRR.png,,,,,0,1,1,1,0,9,9,21,,,,,,,,,,,,,,,,,,,,,,,,,,,,,,,,,,,,,,,,,,,,,,,,,,,,,,,,,,,,,,,,342.79687069996726,343.1977026000386,343.1824990999885,343.29758610005956,343.68203949998133,None,right,1,0.5457825999474153,343.68203949998133,None,343.1824990999885,343.29758610005956,343.2805201000301,None,344.24877269996796,None,,,,,,,11021,001,2024_Jan_05_1127,ANT,2021.2.3,59.691193590325,
1,14,center,down,C,R,,,,,,Block.xlsx,"你已经完成了整个实验（三个区组）。

请报告实验者已完成实验

非常感谢，再见！",0,50,-1.5,right,RRRRR.png,,,,,0,1,1,1,0,10,10,13,,,,,,,,,,,,,,,,,,,,,,,,,,,,,,,,,,,,,,,,,,,,,,,,,,,,,,,,,,,,,,,,344.64951190003194,345.0499179000035,345.0337722999975,345.13342890003696,345.5349908999633,None,right,1,0.5567190999863669,345.5349908999633,None,345.0337722999975,345.13342890003696,345.13342890003696,None,346.1194924999727,None,,,,,,,11021,001,2024_Jan_05_1127,ANT,2021.2.3,59.691193590325,
1,11,center,up,IC,L,,,,,,Block.xlsx,"你已经完成了整个实验（三个区组）。

请报告实验者已完成实验

非常感谢，再见！",0,50,1.5,left,RRLRR.png,,,,,0,1,1,1,0,11,11,10,,,,,,,,,,,,,,,,,,,,,,,,,,,,,,,,,,,,,,,,,,,,,,,,,,,,,,,,,,,,,,,,346.51981359999627,346.9200931000523,346.90334910003,347.00399310002103,347.40441059996374,None,left,1,0.5272646999219432,347.40441059996374,None,346.90334910003,347.00399310002103,347.00399310002103,None,347.9542056999635,None,,,,,,,11021,001,2024_Jan_05_1127,ANT,2021.2.3,59.691193590325,
1,6,no,down,C,R,,,,,,Block.xlsx,"你已经完成了整个实验（三个区组）。

请报告实验者已完成实验

非常感谢，再见！",50,0,-1.5,right,RRRRR.png,,,,,0,1,1,1,0,12,12,5,,,,,,,,,,,,,,,,,,,,,,,,,,,,,,,,,,,,,,,,,,,,,,,,,,,,,,,,,,,,,,,,348.3548546000384,348.7553597999504,348.7403205999872,348.8389629999874,349.2406097999774,None,right,1,0.6108107999898493,349.2406097999774,None,348.7403205999872,348.8389629999874,348.8389629999874,None,349.87400479998905,None,,,,,,,11021,001,2024_Jan_05_1127,ANT,2021.2.3,59.691193590325,
1,23,spatial,down,IC,L,,,,,,Block.xlsx,"你已经完成了整个实验（三个区组）。

请报告实验者已完成实验

非常感谢，再见！",-1.5,0,-1.5,left,RRLRR.png,,,,,0,1,1,1,0,13,13,22,,,,,,,,,,,,,,,,,,,,,,,,,,,,,,,,,,,,,,,,,,,,,,,,,,,,,,,,,,,,,,,,350.2748613000149,350.67675159999635,350.65965679998044,350.7751858000411,351.1602760000387,None,left,1,0.49939330003689975,351.1602760000387,None,350.65965679998044,350.7751858000411,350.7594213000266,None,351.6769272000529,None,,,,,,,11021,001,2024_Jan_05_1127,ANT,2021.2.3,59.691193590325,
1,18,spatial,up,C,R,,,,,,Block.xlsx,"你已经完成了整个实验（三个区组）。

请报告实验者已完成实验

非常感谢，再见！",1.5,0,1.5,right,RRRRR.png,,,,,0,1,1,1,0,14,14,17,,,,,,,,,,,,,,,,,,,,,,,,,,,,,,,,,,,,,,,,,,,,,,,,,,,,,,,,,,,,,,,,352.0777659000596,352.47810639999807,352.4613248000387,352.56259950005915,352.96229199995287,None,right,1,0.6411009000148624,352.96229199995287,None,352.4613248000387,352.56259950005915,352.56259950005915,None,353.62991639995016,None,,,,,,,11021,001,2024_Jan_05_1127,ANT,2021.2.3,59.691193590325,
1,12,center,up,IC,R,,,,,,Block.xlsx,"你已经完成了整个实验（三个区组）。

请报告实验者已完成实验

非常感谢，再见！",0,50,1.5,right,LLRLL.png,,,,,0,1,1,1,0,15,15,11,,,,,,,,,,,,,,,,,,,,,,,,,,,,,,,,,,,,,,,,,,,,,,,,,,,,,,,,,,,,,,,,354.0304405000061,354.43111300002784,354.4137693999801,354.51530920004006,354.91634310001973,None,right,1,0.6551392000401393,354.91634310001973,None,354.4137693999801,354.51530920004006,354.51530920004006,None,355.59887400001753,None,,,,,,,11021,001,2024_Jan_05_1127,ANT,2021.2.3,59.691193590325,
1,18,spatial,up,C,R,,,,,,Block.xlsx,"你已经完成了整个实验（三个区组）。

请报告实验者已完成实验

非常感谢，再见！",1.5,0,1.5,right,RRRRR.png,,,,,0,1,1,1,0,16,16,17,,,,,,,,,,,,,,,,,,,,,,,,,,,,,,,,,,,,,,,,,,,,,,,,,,,,,,,,,,,,,,,,355.99955379997846,356.4005742999725,356.3834173999494,356.4846366000129,356.8849419000326,None,right,1,0.4704364000353962,356.8849419000326,None,356.3834173999494,356.4846366000129,356.4846366000129,None,357.3848393999506,None,,,,,,,11021,001,2024_Jan_05_1127,ANT,2021.2.3,59.691193590325,
1,4,no,up,IC,R,,,,,,Block.xlsx,"你已经完成了整个实验（三个区组）。

请报告实验者已完成实验

非常感谢，再见！",50,0,1.5,right,LLRLL.png,,,,,0,1,1,1,0,17,17,3,,,,,,,,,,,,,,,,,,,,,,,,,,,,,,,,,,,,,,,,,,,,,,,,,,,,,,,,,,,,,,,,357.78522600000724,358.1864969000453,358.1697177999886,358.2712804999901,358.6705895999912,None,right,1,0.46072829992044717,358.6705895999912,None,358.1697177999886,358.2712804999901,358.2712804999901,None,359.15408919996116,None,,,,,,,11021,001,2024_Jan_05_1127,ANT,2021.2.3,59.691193590325,
1,22,spatial,down,C,R,,,,,,Block.xlsx,"你已经完成了整个实验（三个区组）。

请报告实验者已完成实验

非常感谢，再见！",-1.5,0,-1.5,right,RRRRR.png,,,,,0,1,1,1,0,18,18,21,,,,,,,,,,,,,,,,,,,,,,,,,,,,,,,,,,,,,,,,,,,,,,,,,,,,,,,,,,,,,,,,359.55460579996,359.95583089999855,359.9392307000235,360.04018600005656,360.43996089999564,None,right,1,0.37975879991427064,360.43996089999564,None,359.9392307000235,360.04018600005656,360.04018600005656,None,360.83995329996105,None,,,,,,,11021,001,2024_Jan_05_1127,ANT,2021.2.3,59.691193590325,
1,7,no,down,IC,L,,,,,,Block.xlsx,"你已经完成了整个实验（三个区组）。

请报告实验者已完成实验

非常感谢，再见！",50,0,-1.5,left,RRLRR.png,,,,,0,1,1,1,0,19,19,6,,,,,,,,,,,,,,,,,,,,,,,,,,,,,,,,,,,,,,,,,,,,,,,,,,,,,,,,,,,,,,,,361.24047750001773,361.64249859994743,361.62508579995483,361.7261590999551,362.1265691999579,None,left,1,0.5247714000288397,362.1265691999579,None,361.62508579995483,361.7261590999551,361.7261590999551,None,362.67603800003417,None,,,,,,,11021,001,2024_Jan_05_1127,ANT,2021.2.3,59.691193590325,
1,24,spatial,down,IC,R,,,,,,Block.xlsx,"你已经完成了整个实验（三个区组）。

请报告实验者已完成实验

非常感谢，再见！",-1.5,0,-1.5,right,LLRLL.png,,,,,0,1,1,1,0,20,20,23,,,,,,,,,,,,,,,,,,,,,,,,,,,,,,,,,,,,,,,,,,,,,,,,,,,,,,,,,,,,,,,,363.0765643999912,363.4784102999838,363.46069620002527,363.5611659999704,363.96136369998567,None,right,1,0.6188164999475703,363.96136369998567,None,363.46069620002527,363.5611659999704,363.5611659999704,None,364.61221489997115,None,,,,,,,11021,001,2024_Jan_05_1127,ANT,2021.2.3,59.691193590325,
1,6,no,down,C,R,,,,,,Block.xlsx,"你已经完成了整个实验（三个区组）。

请报告实验者已完成实验

非常感谢，再见！",50,0,-1.5,right,RRRRR.png,,,,,0,1,1,1,0,21,21,5,,,,,,,,,,,,,,,,,,,,,,,,,,,,,,,,,,,,,,,,,,,,,,,,,,,,,,,,,,,,,,,,365.01334649999626,365.4139547999948,365.3968291999772,365.4976008000085,365.8975863000378,None,right,1,0.4902208000421524,365.8975863000378,None,365.3968291999772,365.4976008000085,365.4976008000085,None,366.4161992999725,None,,,,,,,11021,001,2024_Jan_05_1127,ANT,2021.2.3,59.691193590325,
1,9,center,up,C,L,,,,,,Block.xlsx,"你已经完成了整个实验（三个区组）。

请报告实验者已完成实验

非常感谢，再见！",0,50,1.5,left,LLLLL.png,,,,,0,1,1,1,0,22,22,8,,,,,,,,,,,,,,,,,,,,,,,,,,,,,,,,,,,,,,,,,,,,,,,,,,,,,,,,,,,,,,,,366.8160852000583,367.2161469999701,367.20134709996637,367.2997473999858,367.70192689995747,None,left,1,0.40553420002106577,367.70192689995747,None,367.20134709996637,367.2997473999858,367.2997473999858,None,368.1340212000068,None,,,,,,,11021,001,2024_Jan_05_1127,ANT,2021.2.3,59.691193590325,
1,2,no,up,C,R,,,,,,Block.xlsx,"你已经完成了整个实验（三个区组）。

请报告实验者已完成实验

非常感谢，再见！",50,0,1.5,right,RRRRR.png,,,,,0,1,1,1,0,23,23,1,,,,,,,,,,,,,,,,,,,,,,,,,,,,,,,,,,,,,,,,,,,,,,,,,,,,,,,,,,,,,,,,368.53469170001335,368.93602050002664,368.91869880002923,369.01995830005035,369.4205940000247,None,right,1,0.6067792000249028,369.4205940000247,None,368.91869880002923,369.01995830005035,369.01995830005035,None,370.0535713999998,None,,,,,,,11021,001,2024_Jan_05_1127,ANT,2021.2.3,59.691193590325,
1,3,no,up,IC,L,,,,,,Block.xlsx,"你已经完成了整个实验（三个区组）。

请报告实验者已完成实验

非常感谢，再见！",50,0,1.5,left,RRLRR.png,,,,,0,1,1,1,1,0,24,2,,,,,,,,,,,,,,,,,,,,,,,,,,,,,,,,,,,,,,,,,,,,,,,,,,,,,,,,,,,,,,,,370.4541882999474,370.8565199000295,370.8387866000412,370.94006930000614,371.3390274000121,None,left,1,0.40834199998062104,371.3390274000121,None,370.8387866000412,370.94006930000614,370.94006930000614,None,371.77272100001574,None,,,,,,,11021,001,2024_Jan_05_1127,ANT,2021.2.3,59.691193590325,
1,15,center,down,IC,L,,,,,,Block.xlsx,"你已经完成了整个实验（三个区组）。

请报告实验者已完成实验

非常感谢，再见！",0,50,-1.5,left,RRLRR.png,,,,,0,1,1,1,1,1,25,14,,,,,,,,,,,,,,,,,,,,,,,,,,,,,,,,,,,,,,,,,,,,,,,,,,,,,,,,,,,,,,,,372.17394600005355,372.57523620000575,372.5574137000367,372.65932950004935,373.05826189997606,None,left,1,0.569233600050211,373.05826189997606,None,372.5574137000367,372.65932950004935,372.65932950004935,None,373.6426953000482,None,,,,,,,11021,001,2024_Jan_05_1127,ANT,2021.2.3,59.691193590325,
1,3,no,up,IC,L,,,,,,Block.xlsx,"你已经完成了整个实验（三个区组）。

请报告实验者已完成实验

非常感谢，再见！",50,0,1.5,left,RRLRR.png,,,,,0,1,1,1,1,2,26,2,,,,,,,,,,,,,,,,,,,,,,,,,,,,,,,,,,,,,,,,,,,,,,,,,,,,,,,,,,,,,,,,374.0435350999469,374.44426460005343,374.4267011999618,374.5270918000024,374.9285402999958,None,left,1,0.5633241999894381,374.9285402999958,None,374.4267011999618,374.5270918000024,374.5270918000024,None,375.5120686000446,None,,,,,,,11021,001,2024_Jan_05_1127,ANT,2021.2.3,59.691193590325,
1,12,center,up,IC,R,,,,,,Block.xlsx,"你已经完成了整个实验（三个区组）。

请报告实验者已完成实验

非常感谢，再见！",0,50,1.5,right,LLRLL.png,,,,,0,1,1,1,1,3,27,11,,,,,,,,,,,,,,,,,,,,,,,,,,,,,,,,,,,,,,,,,,,,,,,,,,,,,,,,,,,,,,,,375.9124057999579,376.3132878000615,376.2968611000106,376.3980240999954,376.7985738000134,None,right,1,0.5177789001027122,376.7985738000134,None,376.2968611000106,376.3980240999954,376.3980240999954,None,377.33104880002793,None,,,,,,,11021,001,2024_Jan_05_1127,ANT,2021.2.3,59.691193590325,
1,6,no,down,C,R,,,,,,Block.xlsx,"你已经完成了整个实验（三个区组）。

请报告实验者已完成实验

非常感谢，再见！",50,0,-1.5,right,RRRRR.png,,,,,0,1,1,1,1,4,28,5,,,,,,,,,,,,,,,,,,,,,,,,,,,,,,,,,,,,,,,,,,,,,,,,,,,,,,,,,,,,,,,,377.7315548999468,378.1332670999691,378.1165419999743,378.21681640006136,378.6177280000411,None,right,1,0.5058971999678761,378.6177280000411,None,378.1165419999743,378.21681640006136,378.21681640006136,None,379.15033049997874,None,,,,,,,11021,001,2024_Jan_05_1127,ANT,2021.2.3,59.691193590325,
1,1,no,up,C,L,,,,,,Block.xlsx,"你已经完成了整个实验（三个区组）。

请报告实验者已完成实验

非常感谢，再见！",50,0,1.5,left,LLLLL.png,,,,,0,1,1,1,1,5,29,0,,,,,,,,,,,,,,,,,,,,,,,,,,,,,,,,,,,,,,,,,,,,,,,,,,,,,,,,,,,,,,,,379.5509732000064,379.95267859997693,379.9351013000123,380.03651929995976,380.4357105999952,None,left,1,0.5117331000510603,380.4357105999952,None,379.9351013000123,380.03651929995976,380.03651929995976,None,380.97050529997796,None,,,,,,,11021,001,2024_Jan_05_1127,ANT,2021.2.3,59.691193590325,
1,2,no,up,C,R,,,,,,Block.xlsx,"你已经完成了整个实验（三个区组）。

请报告实验者已完成实验

非常感谢，再见！",50,0,1.5,right,RRRRR.png,,,,,0,1,1,1,1,6,30,1,,,,,,,,,,,,,,,,,,,,,,,,,,,,,,,,,,,,,,,,,,,,,,,,,,,,,,,,,,,,,,,,381.3718639999861,381.7716478999937,381.75646599999163,381.871881900006,382.25539219996426,None,right,1,0.5004365999484435,382.25539219996426,None,381.75646599999163,381.871881900006,381.85571619996335,None,382.7722808000399,None,,,,,,,11021,001,2024_Jan_05_1127,ANT,2021.2.3,59.691193590325,
1,14,center,down,C,R,,,,,,Block.xlsx,"你已经完成了整个实验（三个区组）。

请报告实验者已完成实验

非常感谢，再见！",0,50,-1.5,right,RRRRR.png,,,,,0,1,1,1,1,7,31,13,,,,,,,,,,,,,,,,,,,,,,,,,,,,,,,,,,,,,,,,,,,,,,,,,,,,,,,,,,,,,,,,383.1732393000275,383.574592799996,383.55690409999806,383.6576754000271,384.05902259994764,None,right,1,0.5208745000418276,384.05902259994764,None,383.55690409999806,383.6576754000271,383.6576754000271,None,384.6084388999734,None,,,,,,,11021,001,2024_Jan_05_1127,ANT,2021.2.3,59.691193590325,
1,5,no,down,C,L,,,,,,Block.xlsx,"你已经完成了整个实验（三个区组）。

请报告实验者已完成实验

非常感谢，再见！",50,0,-1.5,left,LLLLL.png,,,,,0,1,1,1,1,8,32,4,,,,,,,,,,,,,,,,,,,,,,,,,,,,,,,,,,,,,,,,,,,,,,,,,,,,,,,,,,,,,,,,385.0092849000357,385.4097529000137,385.39339900005143,385.4941499000415,385.8950108999852,None,left,1,0.39658409997355193,385.8950108999852,None,385.39339900005143,385.4941499000415,385.4941499000415,None,386.3110038000159,None,,,,,,,11021,001,2024_Jan_05_1127,ANT,2021.2.3,59.691193590325,
1,18,spatial,up,C,R,,,,,,Block.xlsx,"你已经完成了整个实验（三个区组）。

请报告实验者已完成实验

非常感谢，再见！",1.5,0,1.5,right,RRRRR.png,,,,,0,1,1,1,1,9,33,17,,,,,,,,,,,,,,,,,,,,,,,,,,,,,,,,,,,,,,,,,,,,,,,,,,,,,,,,,,,,,,,,386.7118060999783,387.1133987000212,387.0958714999724,387.1960960000288,387.5962956000585,None,right,1,0.48730509995948523,387.5962956000585,None,387.0958714999724,387.1960960000288,387.1960960000288,None,388.1137564999517,None,,,,,,,11021,001,2024_Jan_05_1127,ANT,2021.2.3,59.691193590325,
1,20,spatial,up,IC,R,,,,,,Block.xlsx,"你已经完成了整个实验（三个区组）。

请报告实验者已完成实验

非常感谢，再见！",1.5,0,1.5,right,LLRLL.png,,,,,0,1,1,1,1,10,34,19,,,,,,,,,,,,,,,,,,,,,,,,,,,,,,,,,,,,,,,,,,,,,,,,,,,,,,,,,,,,,,,,388.51428979996126,388.91706620005425,388.8987154000206,388.99944439996034,389.3997310999548,None,right,1,0.4839031998999417,389.3997310999548,None,388.8987154000206,388.99944439996034,388.99944439996034,None,389.89952249999624,None,,,,,,,11021,001,2024_Jan_05_1127,ANT,2021.2.3,59.691193590325,
1,10,center,up,C,R,,,,,,Block.xlsx,"你已经完成了整个实验（三个区组）。

请报告实验者已完成实验

非常感谢，再见！",0,50,1.5,right,RRRRR.png,,,,,0,1,1,1,1,11,35,9,,,,,,,,,,,,,,,,,,,,,,,,,,,,,,,,,,,,,,,,,,,,,,,,,,,,,,,,,,,,,,,,390.30263010005,390.7175090999808,390.68399489996955,390.78466969996225,391.1858474999899,None,right,1,0.4500748999416828,391.1858474999899,None,390.68399489996955,390.78466969996225,390.78466969996225,None,391.65230820002034,None,,,,,,,11021,001,2024_Jan_05_1127,ANT,2021.2.3,59.691193590325,
1,10,center,up,C,R,,,,,,Block.xlsx,"你已经完成了整个实验（三个区组）。

请报告实验者已完成实验

非常感谢，再见！",0,50,1.5,right,RRRRR.png,,,,,0,1,1,1,1,12,36,9,,,,,,,,,,,,,,,,,,,,,,,,,,,,,,,,,,,,,,,,,,,,,,,,,,,,,,,,,,,,,,,,392.0528542000102,392.45416860003024,392.43883440003265,392.537465200061,392.9384483000031,None,right,1,0.4008874000282958,392.9384483000031,None,392.43883440003265,392.537465200061,392.537465200061,None,393.35462280001957,None,,,,,,,11021,001,2024_Jan_05_1127,ANT,2021.2.3,59.691193590325,
1,21,spatial,down,C,L,,,,,,Block.xlsx,"你已经完成了整个实验（三个区组）。

请报告实验者已完成实验

非常感谢，再见！",-1.5,0,-1.5,left,LLLLL.png,,,,,0,1,1,1,1,13,37,20,,,,,,,,,,,,,,,,,,,,,,,,,,,,,,,,,,,,,,,,,,,,,,,,,,,,,,,,,,,,,,,,393.75553089997265,394.15656969998963,394.1410668999888,394.2565987999551,394.6412094000261,None,left,1,0.37825900001917034,394.6412094000261,None,394.1410668999888,394.2565987999551,394.2399262000108,None,395.04077690001577,None,,,,,,,11021,001,2024_Jan_05_1127,ANT,2021.2.3,59.691193590325,
1,5,no,down,C,L,,,,,,Block.xlsx,"你已经完成了整个实验（三个区组）。

请报告实验者已完成实验

非常感谢，再见！",50,0,-1.5,left,LLLLL.png,,,,,0,1,1,1,1,14,38,4,,,,,,,,,,,,,,,,,,,,,,,,,,,,,,,,,,,,,,,,,,,,,,,,,,,,,,,,,,,,,,,,395.4414060000563,395.8424296999583,395.826709200046,395.9258461999707,396.32764929998666,None,left,1,0.3398249000310898,396.32764929998666,None,395.826709200046,395.9258461999707,395.9258461999707,None,396.69323269999586,None,,,,,,,11021,001,2024_Jan_05_1127,ANT,2021.2.3,59.691193590325,
1,24,spatial,down,IC,R,,,,,,Block.xlsx,"你已经完成了整个实验（三个区组）。

请报告实验者已完成实验

非常感谢，再见！",-1.5,0,-1.5,right,LLRLL.png,,,,,0,1,1,1,1,15,39,23,,,,,,,,,,,,,,,,,,,,,,,,,,,,,,,,,,,,,,,,,,,,,,,,,,,,,,,,,,,,,,,,397.0937471999787,397.4948679000372,397.4781466999557,397.57850469998084,397.9782479000278,None,right,1,0.5375376000301912,397.9782479000278,None,397.4781466999557,397.57850469998084,397.57850469998084,None,398.54591139999684,None,,,,,,,11021,001,2024_Jan_05_1127,ANT,2021.2.3,59.691193590325,
1,24,spatial,down,IC,R,,,,,,Block.xlsx,"你已经完成了整个实验（三个区组）。

请报告实验者已完成实验

非常感谢，再见！",-1.5,0,-1.5,right,LLRLL.png,,,,,0,1,1,1,1,16,40,23,,,,,,,,,,,,,,,,,,,,,,,,,,,,,,,,,,,,,,,,,,,,,,,,,,,,,,,,,,,,,,,,398.9467502000043,399.3492369999876,399.3306240000529,399.4302791999653,399.8312818000559,None,right,1,0.4845406000968069,399.8312818000559,None,399.3306240000529,399.4302791999653,399.4302791999653,None,400.3317066000309,None,,,,,,,11021,001,2024_Jan_05_1127,ANT,2021.2.3,59.691193590325,
1,14,center,down,C,R,,,,,,Block.xlsx,"你已经完成了整个实验（三个区组）。

请报告实验者已完成实验

非常感谢，再见！",0,50,-1.5,right,RRRRR.png,,,,,0,1,1,1,1,17,41,13,,,,,,,,,,,,,,,,,,,,,,,,,,,,,,,,,,,,,,,,,,,,,,,,,,,,,,,,,,,,,,,,400.7323919000337,401.13450110005215,401.11664200003725,401.2163852000376,401.6170509000076,None,left,0,0.32262120000086725,401.6170509000076,None,401.11664200003725,401.2163852000376,401.2163852000376,None,401.96767509996425,None,,,,,,,11021,001,2024_Jan_05_1127,ANT,2021.2.3,59.691193590325,
1,4,no,up,IC,R,,,,,,Block.xlsx,"你已经完成了整个实验（三个区组）。

请报告实验者已完成实验

非常感谢，再见！",50,0,1.5,right,LLRLL.png,,,,,0,1,1,1,1,18,42,3,,,,,,,,,,,,,,,,,,,,,,,,,,,,,,,,,,,,,,,,,,,,,,,,,,,,,,,,,,,,,,,,402.3680956000462,402.76925679994747,402.75348439998925,402.85276339994743,403.25280570006,None,right,1,0.5829017999349162,403.25280570006,None,402.75348439998925,402.85276339994743,402.85276339994743,None,403.8536260999972,None,,,,,,,11021,001,2024_Jan_05_1127,ANT,2021.2.3,59.691193590325,
1,3,no,up,IC,L,,,,,,Block.xlsx,"你已经完成了整个实验（三个区组）。

请报告实验者已完成实验

非常感谢，再见！",50,0,1.5,left,RRLRR.png,,,,,0,1,1,1,1,19,43,2,,,,,,,,,,,,,,,,,,,,,,,,,,,,,,,,,,,,,,,,,,,,,,,,,,,,,,,,,,,,,,,,404.25482250005007,404.6554968999699,404.638829399948,404.7395557999844,405.1405872000614,None,left,1,0.48701989999972284,405.1405872000614,None,404.638829399948,404.7395557999844,404.7395557999844,None,405.65618960000575,None,,,,,,,11021,001,2024_Jan_05_1127,ANT,2021.2.3,59.691193590325,
1,24,spatial,down,IC,R,,,,,,Block.xlsx,"你已经完成了整个实验（三个区组）。

请报告实验者已完成实验

非常感谢，再见！",-1.5,0,-1.5,right,LLRLL.png,,,,,0,1,1,1,1,20,44,23,,,,,,,,,,,,,,,,,,,,,,,,,,,,,,,,,,,,,,,,,,,,,,,,,,,,,,,,,,,,,,,,406.0570703999838,406.45799180003814,406.44088560005184,406.54169570002705,406.9428052000003,None,right,1,0.6927071999525651,406.9428052000003,None,406.44088560005184,406.54169570002705,406.54169570002705,None,407.6592693000566,None,,,,,,,11021,001,2024_Jan_05_1127,ANT,2021.2.3,59.691193590325,
1,10,center,up,C,R,,,,,,Block.xlsx,"你已经完成了整个实验（三个区组）。

请报告实验者已完成实验

非常感谢，再见！",0,50,1.5,right,RRRRR.png,,,,,0,1,1,1,1,21,45,9,,,,,,,,,,,,,,,,,,,,,,,,,,,,,,,,,,,,,,,,,,,,,,,,,,,,,,,,,,,,,,,,408.05997369997203,408.4624031999847,408.4440362000605,408.54412199999206,408.94534109998494,None,right,1,0.41802730003837496,408.94534109998494,None,408.4440362000605,408.54412199999206,408.54412199999206,None,409.39515780005604,None,,,,,,,11021,001,2024_Jan_05_1127,ANT,2021.2.3,59.691193590325,
1,20,spatial,up,IC,R,,,,,,Block.xlsx,"你已经完成了整个实验（三个区组）。

请报告实验者已完成实验

非常感谢，再见！",1.5,0,1.5,right,LLRLL.png,,,,,0,1,1,1,1,22,46,19,,,,,,,,,,,,,,,,,,,,,,,,,,,,,,,,,,,,,,,,,,,,,,,,,,,,,,,,,,,,,,,,409.79593240004033,410.1971800000174,410.1806014999747,410.2798559999792,410.6813395000063,None,left,0,0.3860518999863416,410.6813395000063,None,410.1806014999747,410.2798559999792,410.2798559999792,None,411.09771849995013,None,,,,,,,11021,001,2024_Jan_05_1127,ANT,2021.2.3,59.691193590325,
1,13,center,down,C,L,,,,,,Block.xlsx,"你已经完成了整个实验（三个区组）。

请报告实验者已完成实验

非常感谢，再见！",0,50,-1.5,left,LLLLL.png,,,,,0,1,1,1,1,23,47,12,,,,,,,,,,,,,,,,,,,,,,,,,,,,,,,,,,,,,,,,,,,,,,,,,,,,,,,,,,,,,,,,411.498258800013,411.90045029995963,411.88212159997784,411.98307660000864,412.3830072999699,None,left,1,0.7013204999966547,412.3830072999699,None,411.88212159997784,411.98307660000864,411.98307660000864,None,413.1007207999937,None,,,,,,,11021,001,2024_Jan_05_1127,ANT,2021.2.3,59.691193590325,
1,1,no,up,C,L,,,,,,Block.xlsx,"你已经完成了整个实验（三个区组）。

请报告实验者已完成实验

非常感谢，再见！",50,0,1.5,left,LLLLL.png,,,,,0,1,1,1,2,0,48,0,,,,,,,,,,,,,,,,,,,,,,,,,,,,,,,,,,,,,,,,,,,,,,,,,,,,,,,,,,,,,,,,413.50131810002495,413.9029305999866,413.8856740000192,413.9854329000227,414.38655349996407,None,left,1,0.4970108999405056,414.38655349996407,None,413.8856740000192,413.9854329000227,413.9854329000227,None,414.90327789995354,None,,,,,,,11021,001,2024_Jan_05_1127,ANT,2021.2.3,59.691193590325,
1,15,center,down,IC,L,,,,,,Block.xlsx,"你已经完成了整个实验（三个区组）。

请报告实验者已完成实验

非常感谢，再见！",0,50,-1.5,left,RRLRR.png,,,,,0,1,1,1,2,1,49,14,,,,,,,,,,,,,,,,,,,,,,,,,,,,,,,,,,,,,,,,,,,,,,,,,,,,,,,,,,,,,,,,415.3046632000478,415.70654080004897,415.6885519999778,415.7894385999534,416.1900519999908,None,left,1,0.533385599963367,416.1900519999908,None,415.6885519999778,415.7894385999534,415.7894385999534,None,416.73933030001353,None,,,,,,,11021,001,2024_Jan_05_1127,ANT,2021.2.3,59.691193590325,
1,11,center,up,IC,L,,,,,,Block.xlsx,"你已经完成了整个实验（三个区组）。

请报告实验者已完成实验

非常感谢，再见！",0,50,1.5,left,RRLRR.png,,,,,0,1,1,1,2,2,50,10,,,,,,,,,,,,,,,,,,,,,,,,,,,,,,,,,,,,,,,,,,,,,,,,,,,,,,,,,,,,,,,,417.1401137999492,417.5415668999776,417.52399619994685,417.6255364000099,418.0246537999483,None,left,1,0.4676122999517247,418.0246537999483,None,417.52399619994685,417.6255364000099,417.6255364000099,None,418.5085546999471,None,,,,,,,11021,001,2024_Jan_05_1127,ANT,2021.2.3,59.691193590325,
1,11,center,up,IC,L,,,,,,Block.xlsx,"你已经完成了整个实验（三个区组）。

请报告实验者已完成实验

非常感谢，再见！",0,50,1.5,left,RRLRR.png,,,,,0,1,1,1,2,3,51,10,,,,,,,,,,,,,,,,,,,,,,,,,,,,,,,,,,,,,,,,,,,,,,,,,,,,,,,,,,,,,,,,418.90921049995814,419.31068340002093,419.29517940001097,419.39400690002367,419.7937563000014,None,left,1,0.4498684999998659,419.7937563000014,None,419.29517940001097,419.39400690002367,419.39400690002367,None,420.26130749995355,None,,,,,,,11021,001,2024_Jan_05_1127,ANT,2021.2.3,59.691193590325,
1,6,no,down,C,R,,,,,,Block.xlsx,"你已经完成了整个实验（三个区组）。

请报告实验者已完成实验

非常感谢，再见！",50,0,-1.5,right,RRRRR.png,,,,,0,1,1,1,2,4,52,5,,,,,,,,,,,,,,,,,,,,,,,,,,,,,,,,,,,,,,,,,,,,,,,,,,,,,,,,,,,,,,,,420.66223190003075,421.0637096000137,421.0457317000255,421.1470344000263,421.54858139995486,None,right,1,0.4548310999525711,421.54858139995486,None,421.0457317000255,421.1470344000263,421.1470344000263,None,422.0308378000045,None,,,,,,,11021,001,2024_Jan_05_1127,ANT,2021.2.3,59.691193590325,
1,12,center,up,IC,R,,,,,,Block.xlsx,"你已经完成了整个实验（三个区组）。

请报告实验者已完成实验

非常感谢，再见！",0,50,1.5,right,LLRLL.png,,,,,0,1,1,1,2,5,53,11,,,,,,,,,,,,,,,,,,,,,,,,,,,,,,,,,,,,,,,,,,,,,,,,,,,,,,,,,,,,,,,,422.4317387000192,422.83184969995636,422.8154065000126,422.91636090003885,423.3161040999694,None,right,1,0.5592759000137448,423.3161040999694,None,422.8154065000126,422.91636090003885,422.91636090003885,None,423.89996619999874,None,,,,,,,11021,001,2024_Jan_05_1127,ANT,2021.2.3,59.691193590325,
1,15,center,down,IC,L,,,,,,Block.xlsx,"你已经完成了整个实验（三个区组）。

请报告实验者已完成实验

非常感谢，再见！",0,50,-1.5,left,RRLRR.png,,,,,0,1,1,1,2,6,54,14,,,,,,,,,,,,,,,,,,,,,,,,,,,,,,,,,,,,,,,,,,,,,,,,,,,,,,,,,,,,,,,,424.3013554000063,424.70128949999344,424.68696219997946,424.78541819995735,425.1862801000243,None,left,1,0.7613508000504225,425.1862801000243,None,424.68696219997946,424.78541819995735,424.78541819995735,None,425.97055730002467,None,,,,,,,11021,001,2024_Jan_05_1127,ANT,2021.2.3,59.691193590325,
1,13,center,down,C,L,,,,,,Block.xlsx,"你已经完成了整个实验（三个区组）。

请报告实验者已完成实验

非常感谢，再见！",0,50,-1.5,left,LLLLL.png,,,,,0,1,1,1,2,7,55,12,,,,,,,,,,,,,,,,,,,,,,,,,,,,,,,,,,,,,,,,,,,,,,,,,,,,,,,,,,,,,,,,426.37079249997623,426.7723169999663,426.75416839995887,426.85440970002674,427.2562399000162,None,left,1,0.603584999917075,427.2562399000162,None,426.75416839995887,426.85440970002674,426.85440970002674,None,427.88938559999224,None,,,,,,,11021,001,2024_Jan_05_1127,ANT,2021.2.3,59.691193590325,
1,8,no,down,IC,R,,,,,,Block.xlsx,"你已经完成了整个实验（三个区组）。

请报告实验者已完成实验

非常感谢，再见！",50,0,-1.5,right,LLRLL.png,,,,,0,1,1,1,2,8,56,7,,,,,,,,,,,,,,,,,,,,,,,,,,,,,,,,,,,,,,,,,,,,,,,,,,,,,,,,,,,,,,,,428.2900852999883,428.6914298000047,428.6741419000318,428.77468859998044,429.17630130006,None,right,1,0.7071061000460759,429.17630130006,None,428.6741419000318,428.77468859998044,428.77468859998044,None,429.9090421999572,None,,,,,,,11021,001,2024_Jan_05_1127,ANT,2021.2.3,59.691193590325,
1,22,spatial,down,C,R,,,,,,Block.xlsx,"你已经完成了整个实验（三个区组）。

请报告实验者已完成实验

非常感谢，再见！",-1.5,0,-1.5,right,RRRRR.png,,,,,0,1,1,1,2,9,57,21,,,,,,,,,,,,,,,,,,,,,,,,,,,,,,,,,,,,,,,,,,,,,,,,,,,,,,,,,,,,,,,,430.30990170000587,430.71187009999994,430.69354680005927,430.7935165000381,431.1942265999969,None,right,1,0.5534616000950336,431.1942265999969,None,430.69354680005927,430.7935165000381,430.7935165000381,None,431.77845250000246,None,,,,,,,11021,001,2024_Jan_05_1127,ANT,2021.2.3,59.691193590325,
1,10,center,up,C,R,,,,,,Block.xlsx,"你已经完成了整个实验（三个区组）。

请报告实验者已完成实验

非常感谢，再见！",0,50,1.5,right,RRRRR.png,,,,,0,1,1,1,2,10,58,9,,,,,,,,,,,,,,,,,,,,,,,,,,,,,,,,,,,,,,,,,,,,,,,,,,,,,,,,,,,,,,,,432.1789795999648,432.58162860001903,432.5638409999665,432.6630263000261,433.06456970004365,None,None,0,,433.06456970004365,None,432.5638409999665,432.6630263000261,432.6630263000261,None,434.7668076000409,None,,,,,,,11021,001,2024_Jan_05_1127,ANT,2021.2.3,59.691193590325,
1,18,spatial,up,C,R,,,,,,Block.xlsx,"你已经完成了整个实验（三个区组）。

请报告实验者已完成实验

非常感谢，再见！",1.5,0,1.5,right,RRRRR.png,,,,,0,1,1,1,2,11,59,17,,,,,,,,,,,,,,,,,,,,,,,,,,,,,,,,,,,,,,,,,,,,,,,,,,,,,,,,,,,,,,,,435.1667132000439,435.5681067999685,435.5529379999498,435.66798440006096,436.0519729000516,None,right,1,0.4235044999513775,436.0519729000516,None,435.5529379999498,435.66798440006096,435.65241940005217,None,436.50218589999713,None,,,,,,,11021,001,2024_Jan_05_1127,ANT,2021.2.3,59.691193590325,
1,23,spatial,down,IC,L,,,,,,Block.xlsx,"你已经完成了整个实验（三个区组）。

请报告实验者已完成实验

非常感谢，再见！",-1.5,0,-1.5,left,RRLRR.png,,,,,0,1,1,1,2,12,60,22,,,,,,,,,,,,,,,,,,,,,,,,,,,,,,,,,,,,,,,,,,,,,,,,,,,,,,,,,,,,,,,,436.9031070000492,437.30412460002117,437.28650249994826,437.3865217999555,437.78703859995585,None,left,1,0.6486006999621168,437.78703859995585,None,437.28650249994826,437.3865217999555,437.3865217999555,None,438.4550345999887,None,,,,,,,11021,001,2024_Jan_05_1127,ANT,2021.2.3,59.691193590325,
1,3,no,up,IC,L,,,,,,Block.xlsx,"你已经完成了整个实验（三个区组）。

请报告实验者已完成实验

非常感谢，再见！",50,0,1.5,left,RRLRR.png,,,,,0,1,1,1,2,13,61,2,,,,,,,,,,,,,,,,,,,,,,,,,,,,,,,,,,,,,,,,,,,,,,,,,,,,,,,,,,,,,,,,438.8554849999491,439.2572174000088,439.2394398000324,439.34160499996506,439.7405623999657,None,left,1,0.631187199964188,439.7405623999657,None,439.2394398000324,439.34160499996506,439.34160499996506,None,440.3911141999997,None,,,,,,,11021,001,2024_Jan_05_1127,ANT,2021.2.3,59.691193590325,
1,20,spatial,up,IC,R,,,,,,Block.xlsx,"你已经完成了整个实验（三个区组）。

请报告实验者已完成实验

非常感谢，再见！",1.5,0,1.5,right,LLRLL.png,,,,,0,1,1,1,2,14,62,19,,,,,,,,,,,,,,,,,,,,,,,,,,,,,,,,,,,,,,,,,,,,,,,,,,,,,,,,,,,,,,,,440.79168769996613,441.1941700000316,441.1763222999871,441.2757258999627,441.67809780000243,None,right,1,0.4852590000955388,441.67809780000243,None,441.1763222999871,441.2757258999627,441.2757258999627,None,442.194521300029,None,,,,,,,11021,001,2024_Jan_05_1127,ANT,2021.2.3,59.691193590325,
1,4,no,up,IC,R,,,,,,Block.xlsx,"你已经完成了整个实验（三个区组）。

请报告实验者已完成实验

非常感谢，再见！",50,0,1.5,right,LLRLL.png,,,,,0,1,1,1,2,15,63,3,,,,,,,,,,,,,,,,,,,,,,,,,,,,,,,,,,,,,,,,,,,,,,,,,,,,,,,,,,,,,,,,442.59461430006195,442.99570450000465,442.9782995999558,443.0808105999604,443.48087299999315,None,right,1,0.4745551999658346,443.48087299999315,None,442.9782995999558,443.0808105999604,443.0808105999604,None,443.97989219997544,None,,,,,,,11021,001,2024_Jan_05_1127,ANT,2021.2.3,59.691193590325,
1,19,spatial,up,IC,L,,,,,,Block.xlsx,"你已经完成了整个实验（三个区组）。

请报告实验者已完成实验

非常感谢，再见！",1.5,0,1.5,left,RRLRR.png,,,,,0,1,1,1,2,16,64,18,,,,,,,,,,,,,,,,,,,,,,,,,,,,,,,,,,,,,,,,,,,,,,,,,,,,,,,,,,,,,,,,444.3804457000224,444.7816724999575,444.76498820004053,444.86448710004333,445.2665158000309,None,left,1,0.4729297000449151,445.2665158000309,None,444.76498820004053,444.86448710004333,444.86448710004333,None,445.7666371000232,None,,,,,,,11021,001,2024_Jan_05_1127,ANT,2021.2.3,59.691193590325,
1,23,spatial,down,IC,L,,,,,,Block.xlsx,"你已经完成了整个实验（三个区组）。

请报告实验者已完成实验

非常感谢，再见！",-1.5,0,-1.5,left,RRLRR.png,,,,,0,1,1,1,2,17,65,22,,,,,,,,,,,,,,,,,,,,,,,,,,,,,,,,,,,,,,,,,,,,,,,,,,,,,,,,,,,,,,,,446.16645739995874,446.5668972999556,446.552573199966,446.6683542999672,447.0518363000592,None,left,1,0.3916905999649316,447.0518363000592,None,446.552573199966,446.6683542999672,446.6504869000055,None,447.46822439995594,None,,,,,,,11021,001,2024_Jan_05_1127,ANT,2021.2.3,59.691193590325,
1,1,no,up,C,L,,,,,,Block.xlsx,"你已经完成了整个实验（三个区组）。

请报告实验者已完成实验

非常感谢，再见！",50,0,1.5,left,LLLLL.png,,,,,0,1,1,1,2,18,66,0,,,,,,,,,,,,,,,,,,,,,,,,,,,,,,,,,,,,,,,,,,,,,,,,,,,,,,,,,,,,,,,,447.86914389999583,448.27133000001777,448.2537432999816,448.3541330000153,448.7543133000145,None,left,1,0.5372292000101879,448.7543133000145,None,448.2537432999816,448.3541330000153,448.3541330000153,None,449.32123080000747,None,,,,,,,11021,001,2024_Jan_05_1127,ANT,2021.2.3,59.691193590325,
1,7,no,down,IC,L,,,,,,Block.xlsx,"你已经完成了整个实验（三个区组）。

请报告实验者已完成实验

非常感谢，再见！",50,0,-1.5,left,RRLRR.png,,,,,0,1,1,1,2,19,67,6,,,,,,,,,,,,,,,,,,,,,,,,,,,,,,,,,,,,,,,,,,,,,,,,,,,,,,,,,,,,,,,,449.7216828999808,450.1236954999622,450.1057452999521,450.2062747000018,450.60619720001705,None,left,1,0.47733160003554076,450.60619720001705,None,450.1057452999521,450.2062747000018,450.2062747000018,None,451.10734360001516,None,,,,,,,11021,001,2024_Jan_05_1127,ANT,2021.2.3,59.691193590325,
1,21,spatial,down,C,L,,,,,,Block.xlsx,"你已经完成了整个实验（三个区组）。

请报告实验者已完成实验

非常感谢，再见！",-1.5,0,-1.5,left,LLLLL.png,,,,,0,1,1,1,2,20,68,20,,,,,,,,,,,,,,,,,,,,,,,,,,,,,,,,,,,,,,,,,,,,,,,,,,,,,,,,,,,,,,,,451.507864800049,451.9083246999653,451.89205919997767,451.9925891000312,452.39221319998614,None,left,1,0.39573910005856305,452.39221319998614,None,451.89205919997767,451.9925891000312,451.9925891000312,None,452.8091302999528,None,,,,,,,11021,001,2024_Jan_05_1127,ANT,2021.2.3,59.691193590325,
1,16,center,down,IC,R,,,,,,Block.xlsx,"你已经完成了整个实验（三个区组）。

请报告实验者已完成实验

非常感谢，再见！",0,50,-1.5,right,LLRLL.png,,,,,0,1,1,1,2,21,69,15,,,,,,,,,,,,,,,,,,,,,,,,,,,,,,,,,,,,,,,,,,,,,,,,,,,,,,,,,,,,,,,,453.21026049996726,453.6125792999519,453.5940905000316,453.69433880003635,454.09498499997426,None,right,1,0.5808865999570116,454.09498499997426,None,453.5940905000316,453.69433880003635,453.69433880003635,None,454.6956383000361,None,,,,,,,11021,001,2024_Jan_05_1127,ANT,2021.2.3,59.691193590325,
1,21,spatial,down,C,L,,,,,,Block.xlsx,"你已经完成了整个实验（三个区组）。

请报告实验者已完成实验

非常感谢，再见！",-1.5,0,-1.5,left,LLLLL.png,,,,,0,1,1,1,2,22,70,20,,,,,,,,,,,,,,,,,,,,,,,,,,,,,,,,,,,,,,,,,,,,,,,,,,,,,,,,,,,,,,,,455.09623599995393,455.4984401999973,455.4804868999636,455.58049039996695,455.9825708999997,None,left,1,0.3808799999533221,455.9825708999997,None,455.4804868999636,455.58049039996695,455.58049039996695,None,456.38143599999603,None,,,,,,,11021,001,2024_Jan_05_1127,ANT,2021.2.3,59.691193590325,
1,9,center,up,C,L,,,,,,Block.xlsx,"你已经完成了整个实验（三个区组）。

请报告实验者已完成实验

非常感谢，再见！",0,50,1.5,left,LLLLL.png,,,,,0,1,1,1,2,23,71,8,,,,,,,,,,,,,,,,,,,,,,,,,,,,,,,,,,,,,,,,,,,,,,,,,,,,,,,,,,,,,,,,456.78304260002915,457.18297239998356,457.1667208999861,457.26612889999524,457.6670777000254,None,left,1,0.4325717000756413,457.6670777000254,None,457.1667208999861,457.26612889999524,457.26612889999524,None,458.1171845999779,None,,,,,,,11021,001,2024_Jan_05_1127,ANT,2021.2.3,59.691193590325,
1,5,no,down,C,L,,,,,,Block.xlsx,"你已经完成了整个实验（三个区组）。

请报告实验者已完成实验

非常感谢，再见！",50,0,-1.5,left,LLLLL.png,,,,,0,1,1,1,3,0,72,4,,,,,,,,,,,,,,,,,,,,,,,,,,,,,,,,,,,,,,,,,,,,,,,,,,,,,,,,,,,,,,,,458.51810039998963,458.92037659999914,458.9020422999747,459.00250800000504,459.4041654999601,None,left,1,0.4073670000070706,459.4041654999601,None,458.9020422999747,459.00250800000504,459.00250800000504,None,459.8367232000455,None,,,,,,,11021,001,2024_Jan_05_1127,ANT,2021.2.3,59.691193590325,
1,20,spatial,up,IC,R,,,,,,Block.xlsx,"你已经完成了整个实验（三个区组）。

请报告实验者已完成实验

非常感谢，再见！",1.5,0,1.5,right,LLRLL.png,,,,,0,1,1,1,3,1,73,19,,,,,,,,,,,,,,,,,,,,,,,,,,,,,,,,,,,,,,,,,,,,,,,,,,,,,,,,,,,,,,,,460.2371831999626,460.6385379000567,460.62304700003006,460.72124109999277,461.12212409998756,None,right,1,0.6093915000092238,461.12212409998756,None,460.62304700003006,460.72124109999277,460.72124109999277,None,461.75599980005063,None,,,,,,,11021,001,2024_Jan_05_1127,ANT,2021.2.3,59.691193590325,
1,17,spatial,up,C,L,,,,,,Block.xlsx,"你已经完成了整个实验（三个区组）。

请报告实验者已完成实验

非常感谢，再见！",1.5,0,1.5,left,LLLLL.png,,,,,0,1,1,1,3,2,74,16,,,,,,,,,,,,,,,,,,,,,,,,,,,,,,,,,,,,,,,,,,,,,,,,,,,,,,,,,,,,,,,,462.1568189000245,462.55727180000395,462.54125889996067,462.643093300052,463.0411961999489,None,left,1,0.33841289998963475,463.0411961999489,None,462.54125889996067,462.643093300052,462.643093300052,None,463.4086301999632,None,,,,,,,11021,001,2024_Jan_05_1127,ANT,2021.2.3,59.691193590325,
1,4,no,up,IC,R,,,,,,Block.xlsx,"你已经完成了整个实验（三个区组）。

请报告实验者已完成实验

非常感谢，再见！",50,0,1.5,right,LLRLL.png,,,,,0,1,1,1,3,3,75,3,,,,,,,,,,,,,,,,,,,,,,,,,,,,,,,,,,,,,,,,,,,,,,,,,,,,,,,,,,,,,,,,463.8091099000303,464.21151459997054,464.1940476000309,464.2938621999929,464.69438869995065,None,right,1,0.5731607000343502,464.69438869995065,None,464.1940476000309,464.2938621999929,464.2938621999929,None,465.29458930005785,None,,,,,,,11021,001,2024_Jan_05_1127,ANT,2021.2.3,59.691193590325,
1,7,no,down,IC,L,,,,,,Block.xlsx,"你已经完成了整个实验（三个区组）。

请报告实验者已完成实验

非常感谢，再见！",50,0,-1.5,left,RRLRR.png,,,,,0,1,1,1,3,4,76,6,,,,,,,,,,,,,,,,,,,,,,,,,,,,,,,,,,,,,,,,,,,,,,,,,,,,,,,,,,,,,,,,465.6955924000358,466.0974558000453,466.07967620005365,466.18200120003894,466.581252999953,None,left,1,0.8144657999509946,466.581252999953,None,466.07967620005365,466.18200120003894,466.18200120003894,None,467.41460849996656,None,,,,,,,11021,001,2024_Jan_05_1127,ANT,2021.2.3,59.691193590325,
1,13,center,down,C,L,,,,,,Block.xlsx,"你已经完成了整个实验（三个区组）。

请报告实验者已完成实验

非常感谢，再见！",0,50,-1.5,left,LLLLL.png,,,,,0,1,1,1,3,5,77,12,,,,,,,,,,,,,,,,,,,,,,,,,,,,,,,,,,,,,,,,,,,,,,,,,,,,,,,,,,,,,,,,467.81508530001156,468.2167259999551,468.1998281000415,468.29998040001374,468.6998149000574,None,left,1,0.38432519999332726,468.6998149000574,None,468.1998281000415,468.29998040001374,468.29998040001374,None,469.10041049995925,None,,,,,,,11021,001,2024_Jan_05_1127,ANT,2021.2.3,59.691193590325,
1,8,no,down,IC,R,,,,,,Block.xlsx,"你已经完成了整个实验（三个区组）。

请报告实验者已完成实验

非常感谢，再见！",50,0,-1.5,right,LLRLL.png,,,,,0,1,1,1,3,6,78,7,,,,,,,,,,,,,,,,,,,,,,,,,,,,,,,,,,,,,,,,,,,,,,,,,,,,,,,,,,,,,,,,469.5007729999488,469.90372419997584,469.8861051000422,469.98654449998867,470.3856751000276,None,right,1,0.5302884000120685,470.3856751000276,None,469.8861051000422,469.98654449998867,469.98654449998867,None,470.93630089994986,None,,,,,,,11021,001,2024_Jan_05_1127,ANT,2021.2.3,59.691193590325,
1,15,center,down,IC,L,,,,,,Block.xlsx,"你已经完成了整个实验（三个区组）。

请报告实验者已完成实验

非常感谢，再见！",0,50,-1.5,left,RRLRR.png,,,,,0,1,1,1,3,7,79,14,,,,,,,,,,,,,,,,,,,,,,,,,,,,,,,,,,,,,,,,,,,,,,,,,,,,,,,,,,,,,,,,471.33792750001885,471.7389390000608,471.72154119994957,471.8224309999496,472.22219380002934,None,left,1,0.5733528999844566,472.22219380002934,None,471.72154119994957,471.8224309999496,471.8224309999496,None,472.8226095000282,None,,,,,,,11021,001,2024_Jan_05_1127,ANT,2021.2.3,59.691193590325,
1,16,center,down,IC,R,,,,,,Block.xlsx,"你已经完成了整个实验（三个区组）。

请报告实验者已完成实验

非常感谢，再见！",0,50,-1.5,right,LLRLL.png,,,,,0,1,1,1,3,8,80,15,,,,,,,,,,,,,,,,,,,,,,,,,,,,,,,,,,,,,,,,,,,,,,,,,,,,,,,,,,,,,,,,473.22308999998495,473.62434530002065,473.60729309997987,473.70816609996837,474.10898320004344,None,right,1,0.45449230005033314,474.10898320004344,None,473.60729309997987,473.70816609996837,473.70816609996837,None,474.5917885999661,None,,,,,,,11021,001,2024_Jan_05_1127,ANT,2021.2.3,59.691193590325,
1,9,center,up,C,L,,,,,,Block.xlsx,"你已经完成了整个实验（三个区组）。

请报告实验者已完成实验

非常感谢，再见！",0,50,1.5,left,LLLLL.png,,,,,0,1,1,1,3,9,81,8,,,,,,,,,,,,,,,,,,,,,,,,,,,,,,,,,,,,,,,,,,,,,,,,,,,,,,,,,,,,,,,,474.992208700045,475.39363980002236,475.37698970001657,475.47760059998836,475.8774044000311,None,left,1,0.5100510000484064,475.8774044000311,None,475.37698970001657,475.47760059998836,475.47760059998836,None,476.4112421000609,None,,,,,,,11021,001,2024_Jan_05_1127,ANT,2021.2.3,59.691193590325,
1,9,center,up,C,L,,,,,,Block.xlsx,"你已经完成了整个实验（三个区组）。

请报告实验者已完成实验

非常感谢，再见！",0,50,1.5,left,LLLLL.png,,,,,0,1,1,1,3,10,82,8,,,,,,,,,,,,,,,,,,,,,,,,,,,,,,,,,,,,,,,,,,,,,,,,,,,,,,,,,,,,,,,,476.8117730000522,477.21246670000255,477.1971134999767,477.3132603999693,477.6968771000393,None,left,1,0.4351093000732362,477.6968771000393,None,477.1971134999767,477.3132603999693,477.29687439999543,None,478.14710279996507,None,,,,,,,11021,001,2024_Jan_05_1127,ANT,2021.2.3,59.691193590325,
1,16,center,down,IC,R,,,,,,Block.xlsx,"你已经完成了整个实验（三个区组）。

请报告实验者已完成实验

非常感谢，再见！",0,50,-1.5,right,LLRLL.png,,,,,0,1,1,1,3,11,83,15,,,,,,,,,,,,,,,,,,,,,,,,,,,,,,,,,,,,,,,,,,,,,,,,,,,,,,,,,,,,,,,,478.54768730001524,478.94919329998083,478.9316068999469,479.0324662999483,479.43352660001256,None,right,1,0.49832570005673915,479.43352660001256,None,478.9316068999469,479.0324662999483,479.0324662999483,None,479.9496365999803,None,,,,,,,11021,001,2024_Jan_05_1127,ANT,2021.2.3,59.691193590325,
1,19,spatial,up,IC,L,,,,,,Block.xlsx,"你已经完成了整个实验（三个区组）。

请报告实验者已完成实验

非常感谢，再见！",1.5,0,1.5,left,RRLRR.png,,,,,0,1,1,1,3,12,84,18,,,,,,,,,,,,,,,,,,,,,,,,,,,,,,,,,,,,,,,,,,,,,,,,,,,,,,,,,,,,,,,,480.3509930999717,480.7531752999639,480.73481569997966,480.8355532999849,481.2363860999467,None,left,1,0.5591567000374198,481.2363860999467,None,480.73481569997966,480.8355532999849,480.8355532999849,None,481.819131199969,None,,,,,,,11021,001,2024_Jan_05_1127,ANT,2021.2.3,59.691193590325,
1,2,no,up,C,R,,,,,,Block.xlsx,"你已经完成了整个实验（三个区组）。

请报告实验者已完成实验

非常感谢，再见！",50,0,1.5,right,RRRRR.png,,,,,0,1,1,1,3,13,85,1,,,,,,,,,,,,,,,,,,,,,,,,,,,,,,,,,,,,,,,,,,,,,,,,,,,,,,,,,,,,,,,,482.22031390003394,482.6205095000332,482.60503760003485,482.7042682999745,483.1055578000378,None,right,1,0.5459740000078455,483.1055578000378,None,482.60503760003485,482.7042682999745,482.7042682999745,None,483.67236029997,None,,,,,,,11021,001,2024_Jan_05_1127,ANT,2021.2.3,59.691193590325,
1,8,no,down,IC,R,,,,,,Block.xlsx,"你已经完成了整个实验（三个区组）。

请报告实验者已完成实验

非常感谢，再见！",50,0,-1.5,right,LLRLL.png,,,,,0,1,1,1,3,14,86,7,,,,,,,,,,,,,,,,,,,,,,,,,,,,,,,,,,,,,,,,,,,,,,,,,,,,,,,,,,,,,,,,484.0725273999851,484.4749470000388,484.45716700004414,484.55832770001143,484.9581806999631,None,right,1,0.5656027999939397,484.9581806999631,None,484.45716700004414,484.55832770001143,484.55832770001143,None,485.5416422999697,None,,,,,,,11021,001,2024_Jan_05_1127,ANT,2021.2.3,59.691193590325,
1,11,center,up,IC,L,,,,,,Block.xlsx,"你已经完成了整个实验（三个区组）。

请报告实验者已完成实验

非常感谢，再见！",0,50,1.5,left,RRLRR.png,,,,,0,1,1,1,3,15,87,10,,,,,,,,,,,,,,,,,,,,,,,,,,,,,,,,,,,,,,,,,,,,,,,,,,,,,,,,,,,,,,,,485.94209280004725,486.3433381000068,486.3267222000286,486.4274944999488,486.82697689998895,None,left,1,0.5290296000894159,486.82697689998895,None,486.3267222000286,486.4274944999488,486.4274944999488,None,487.3778473000275,None,,,,,,,11021,001,2024_Jan_05_1127,ANT,2021.2.3,59.691193590325,
1,17,spatial,up,C,L,,,,,,Block.xlsx,"你已经完成了整个实验（三个区组）。

请报告实验者已完成实验

非常感谢，再见！",1.5,0,1.5,left,LLLLL.png,,,,,0,1,1,1,3,16,88,16,,,,,,,,,,,,,,,,,,,,,,,,,,,,,,,,,,,,,,,,,,,,,,,,,,,,,,,,,,,,,,,,487.77817179996055,488.17890010005794,488.16412910004146,488.2790447999723,488.663662499981,None,left,1,0.40461780002806336,488.663662499981,None,488.16412910004146,488.2790447999723,488.26204509998206,None,489.09670170000754,None,,,,,,,11021,001,2024_Jan_05_1127,ANT,2021.2.3,59.691193590325,
1,12,center,up,IC,R,,,,,,Block.xlsx,"你已经完成了整个实验（三个区组）。

请报告实验者已完成实验

非常感谢，再见！",0,50,1.5,right,LLRLL.png,,,,,0,1,1,1,3,17,89,11,,,,,,,,,,,,,,,,,,,,,,,,,,,,,,,,,,,,,,,,,,,,,,,,,,,,,,,,,,,,,,,,489.49727519997396,489.89948879997246,489.8825864000246,489.9990473999642,490.3830985999666,None,right,1,0.492393699940294,490.3830985999666,None,489.8825864000246,489.9990473999642,489.98227819998283,None,490.9008943999652,None,,,,,,,11021,001,2024_Jan_05_1127,ANT,2021.2.3,59.691193590325,
1,19,spatial,up,IC,L,,,,,,Block.xlsx,"你已经完成了整个实验（三个区组）。

请报告实验者已完成实验

非常感谢，再见！",1.5,0,1.5,left,RRLRR.png,,,,,0,1,1,1,3,18,90,18,,,,,,,,,,,,,,,,,,,,,,,,,,,,,,,,,,,,,,,,,,,,,,,,,,,,,,,,,,,,,,,,491.300834499998,491.70182740001474,491.6850137000438,491.78521750005893,492.1853497000411,None,left,1,0.4989454000024125,492.1853497000411,None,491.6850137000438,491.78521750005893,491.78521750005893,None,492.70243019994814,None,,,,,,,11021,001,2024_Jan_05_1127,ANT,2021.2.3,59.691193590325,
1,1,no,up,C,L,,,,,,Block.xlsx,"你已经完成了整个实验（三个区组）。

请报告实验者已完成实验

非常感谢，再见！",50,0,1.5,left,LLLLL.png,,,,,0,1,1,1,3,19,91,0,,,,,,,,,,,,,,,,,,,,,,,,,,,,,,,,,,,,,,,,,,,,,,,,,,,,,,,,,,,,,,,,493.1029402000131,493.5037719999673,493.48783610004466,493.58731770003214,493.9894417000469,None,left,1,0.31821910000871867,493.9894417000469,None,493.48783610004466,493.58731770003214,493.58731770003214,None,494.33777119999286,None,,,,,,,11021,001,2024_Jan_05_1127,ANT,2021.2.3,59.691193590325,
1,21,spatial,down,C,L,,,,,,Block.xlsx,"你已经完成了整个实验（三个区组）。

请报告实验者已完成实验

非常感谢，再见！",-1.5,0,-1.5,left,LLLLL.png,,,,,0,1,1,1,3,20,92,20,,,,,,,,,,,,,,,,,,,,,,,,,,,,,,,,,,,,,,,,,,,,,,,,,,,,,,,,,,,,,,,,494.7386679999763,495.14001920004375,495.12234770006035,495.2243832000531,495.6255690000253,None,left,1,0.4580617999890819,495.6255690000253,None,495.12234770006035,495.2243832000531,495.2243832000531,None,496.10690120002255,None,,,,,,,11021,001,2024_Jan_05_1127,ANT,2021.2.3,59.691193590325,
1,17,spatial,up,C,L,,,,,,Block.xlsx,"你已经完成了整个实验（三个区组）。

请报告实验者已完成实验

