TrialType,TrialNumber,WarningType,TargetType,FlankerType,TargetDirection,W,f,Y,corr,imageFile,condition,endtext,Yw,Yf,Yt,Corr,imagefile,trials_3.thisRepN,trials_3.thisTrialN,trials_3.thisN,trials_3.thisIndex,trials_2.thisRepN,trials_2.thisTrialN,trials_2.thisN,trials_2.thisIndex,trials.thisRepN,trials.thisTrialN,trials.thisN,trials.thisIndex,instr.started,instr.stopped,key_resp.keys,key_resp.rt,key_resp.started,key_resp.stopped,image.started,image.stopped,key_resp_6.keys,key_resp_6.rt,key_resp_6.started,key_resp_6.stopped,EX_L.started,EX_L.stopped,AL.started,AL.stopped,key_resp_7.keys,key_resp_7.rt,key_resp_7.started,key_resp_7.stopped,EX_R.started,EX_R.stopped,RR.started,RR.stopped,key_resp_8.keys,key_resp_8.rt,key_resp_8.started,key_resp_8.stopped,image_2.started,image_2.stopped,key_resp_9.keys,key_resp_9.rt,key_resp_9.started,key_resp_9.stopped,image_3.started,image_3.stopped,key_resp_10.keys,key_resp_10.rt,key_resp_10.started,key_resp_10.stopped,fix.started,fix.stopped,war.started,war.stopped,tar.started,tar.stopped,key_resp_4.keys,key_resp_4.corr,key_resp_4.rt,key_resp_4.started,key_resp_4.stopped,fix2.started,fix2.stopped,fix_2.started,fix_2.stopped,Feedback.started,Feedback.stopped,key_resp_2.keys,key_resp_2.rt,key_resp_2.started,key_resp_2.stopped,text_5.started,text_5.stopped,fix2_1.started,fix2_1.stopped,Warn.started,Warn.stopped,Tar.started,Tar.stopped,key_resp_5.keys,key_resp_5.corr,key_resp_5.rt,key_resp_5.started,key_resp_5.stopped,Fix_2.started,Fix_2.stopped,fix2_2.started,fix2_2.stopped,text_4.started,text_4.stopped,key_resp_3.keys,key_resp_3.rt,key_resp_3.started,key_resp_3.stopped,text_3.started,text_3.stopped,participant,session,date,expName,psychopyVersion,frameRate,
,,,,,,,,,,,,,,,,,,,,,,,,,,,,,,8.868510200059973,None,space,61.405325899948366,8.868510200059973,None,,,,,,,,,,,,,,,,,,,,,,,,,,,,,,,,,,,,,,,,,,,,,,,,,,,,,,,,,,,,,,,,,,,,,,,,,,,,,,,,,11020,001,2024_Jan_05_1031,ANT,2021.2.3,59.422790770254856,
,,,,,,,,,,,,,,,,,,,,,,,,,,,,,,,,,,,,70.29279890004545,None,space,17.26028090005275,70.29279890004545,None,,,,,,,,,,,,,,,,,,,,,,,,,,,,,,,,,,,,,,,,,,,,,,,,,,,,,,,,,,,,,,,,,,,,,,,,,,,11020,001,2024_Jan_05_1031,ANT,2021.2.3,59.422790770254856,
,,,,,,,,,,,,,,,,,,,,,,,,,,,,,,,,,,,,,,,,,,87.58511880005244,None,87.58511880005244,None,left,0.9039200999541208,87.58511880005244,None,,,,,,,,,,,,,,,,,,,,,,,,,,,,,,,,,,,,,,,,,,,,,,,,,,,,,,,,,,,,,,,,,,,11020,001,2024_Jan_05_1031,ANT,2021.2.3,59.422790770254856,
,,,,,,,,,,,,,,,,,,,,,,,,,,,,,,,,,,,,,,,,,,,,,,,,,,88.51979100005701,None,88.51979100005701,None,right,0.5933993000071496,88.51979100005701,None,,,,,,,,,,,,,,,,,,,,,,,,,,,,,,,,,,,,,,,,,,,,,,,,,,,,,,,,,,,11020,001,2024_Jan_05_1031,ANT,2021.2.3,59.422790770254856,
,,,,,,,,,,,,,,,,,,,,,,,,,,,,,,,,,,,,,,,,,,,,,,,,,,,,,,,,,,89.137461300008,None,space,36.311847800039686,89.137461300008,None,,,,,,,,,,,,,,,,,,,,,,,,,,,,,,,,,,,,,,,,,,,,,,,,,,,,,11020,001,2024_Jan_05_1031,ANT,2021.2.3,59.422790770254856,
,,,,,,,,,,,,,,,,,,,,,,,,,,,,,,,,,,,,,,,,,,,,,,,,,,,,,,,,,,,,,,,,125.47465280001052,None,space,7.1346166000002995,125.47465280001052,None,,,,,,,,,,,,,,,,,,,,,,,,,,,,,,,,,,,,,,,,,,,,,,,11020,001,2024_Jan_05_1031,ANT,2021.2.3,59.422790770254856,
0,4,no,down,IC,L,50,0,-1.5,left,RRLRR.png,,,,,,,,0,0,0,3,,,,,,,,,,,,,,,,,,,,,,,,,,,,,,,,,,,,,,,,,,,,,,,,,132.7019095000578,133.10254029999487,133.08795890002511,133.20394540007692,133.58765190001577,None,left,1,0.8214945999206975,133.58765190001577,None,133.08795890002511,133.20394540007692,133.18609079997987,None,134.4375412000809,None,,,,,,,,,,,,,,,,,,,,,,,,,,,,,,11020,001,2024_Jan_05_1031,ANT,2021.2.3,59.422790770254856,
0,11,spatial,down,C,L,-1.5,0,-1.5,left,LLLLL.png,,,,,,,,0,1,1,10,,,,,,,,,,,,,,,,,,,,,,,,,,,,,,,,,,,,,,,,,,,,,,,,,136.44105550006498,136.8414437000174,136.82642789999954,136.92566680000164,137.32590739999432,None,left,1,0.4677482999395579,137.32590739999432,None,136.82642789999954,136.92566680000164,136.92566680000164,None,137.80929990008008,None,,,,,,,,,,,,,,,,,,,,,,,,,,,,,,11020,001,2024_Jan_05_1031,ANT,2021.2.3,59.422790770254856,
0,3,no,down,C,R,50,0,-1.5,right,RRRRR.png,,,,,,,,0,2,2,2,,,,,,,,,,,,,,,,,,,,,,,,,,,,,,,,,,,,,,,,,,,,,,,,,139.81316010002047,140.2136966000544,140.1973471000092,140.2975055000279,140.69787370006088,None,right,1,0.4553540999768302,140.69787370006088,None,140.1973471000092,140.2975055000279,140.2975055000279,None,141.1810528000351,None,,,,,,,,,,,,,,,,,,,,,,,,,,,,,,11020,001,2024_Jan_05_1031,ANT,2021.2.3,59.422790770254856,
0,6,center,up,IC,R,0,50,1.5,right,LLRLL.png,,,,,,,,0,3,3,5,,,,,,,,,,,,,,,,,,,,,,,,,,,,,,,,,,,,,,,,,,,,,,,,,143.18515320005827,143.58526319998782,143.56924790004268,143.6700445000315,144.06892500002868,None,left,0,0.42834350001066923,144.06892500002868,None,143.56924790004268,143.6700445000315,143.6700445000315,None,144.51940119999927,None,,,,,,,,,,,,,,,,,,,,,,,,,,,,,,11020,001,2024_Jan_05_1031,ANT,2021.2.3,59.422790770254856,
0,5,center,up,C,L,0,50,1.5,left,LLLLL.png,,,,,,,,0,4,4,4,,,,,,,,,,,,,,,,,,,,,,,,,,,,,,,,,,,,,,,,,,,,,,,,,146.52373000001535,146.9237217999762,146.90642870008014,147.00835260003805,147.40711809997447,None,left,1,0.44202519999817014,147.40711809997447,None,146.90642870008014,147.00835260003805,147.00835260003805,None,147.87432750000153,None,,,,,,,,,,,,,,,,,,,,,,,,,,,,,,11020,001,2024_Jan_05_1031,ANT,2021.2.3,59.422790770254856,
0,7,center,down,C,R,0,50,-1.5,right,RRRRR.png,,,,,,,,0,5,5,6,,,,,,,,,,,,,,,,,,,,,,,,,,,,,,,,,,,,,,,,,,,,,,,,,149.87741449999157,150.27955890004523,150.26139440003317,150.36183900001924,150.7636282000458,None,right,1,0.4304031999781728,150.7636282000458,None,150.26139440003317,150.36183900001924,150.36183900001924,None,151.21272830001544,None,,,,,,,,,,,,,,,,,,,,,,,,,,,,,,11020,001,2024_Jan_05_1031,ANT,2021.2.3,59.422790770254856,
0,10,spatial,up,IC,L,1.5,0,1.5,left,RRLRR.png,,,,,,,,0,6,6,9,,,,,,,,,,,,,,,,,,,,,,,,,,,,,,,,,,,,,,,,,,,,,,,,,153.21632870007306,153.61731000000145,153.6018282000441,153.71834979997948,154.10168950003572,None,left,1,0.516539299977012,154.10168950003572,None,153.6018282000441,153.71834979997948,153.7004068000242,None,154.63435740000568,None,,,,,,,,,,,,,,,,,,,,,,,,,,,,,,11020,001,2024_Jan_05_1031,ANT,2021.2.3,59.422790770254856,
0,2,no,up,IC,R,50,0,1.5,right,LLRLL.png,,,,,,,,0,7,7,1,,,,,,,,,,,,,,,,,,,,,,,,,,,,,,,,,,,,,,,,,,,,,,,,,156.6376092999708,157.04007300001103,157.02148870006204,157.12250789999962,157.52355490007903,None,right,1,0.6375577000435442,157.52355490007903,None,157.02148870006204,157.12250789999962,157.12250789999962,None,158.189776299987,None,,,,,,,,,,,,,,,,,,,,,,,,,,,,,,11020,001,2024_Jan_05_1031,ANT,2021.2.3,59.422790770254856,
0,8,center,down,IC,L,0,50,-1.5,left,RRLRR.png,,,,,,,,0,8,8,7,,,,,,,,,,,,,,,,,,,,,,,,,,,,,,,,,,,,,,,,,,,,,,,,,160.193209100049,160.59338690002915,160.5780755999731,160.67771050008014,161.0786655000411,None,left,1,0.4908816000679508,161.0786655000411,None,160.5780755999731,160.67771050008014,160.67771050008014,None,161.59500910004135,None,,,,,,,,,,,,,,,,,,,,,,,,,,,,,,11020,001,2024_Jan_05_1031,ANT,2021.2.3,59.422790770254856,
0,1,no,up,C,L,50,0,1.5,left,LLLLL.png,,,,,,,,0,9,9,0,,,,,,,,,,,,,,,,,,,,,,,,,,,,,,,,,,,,,,,,,,,,,,,,,163.59770519996528,163.99836530000903,163.98378959996626,164.09939190000296,164.4824474999914,None,left,1,0.46262319991365075,164.4824474999914,None,163.98378959996626,164.09939190000296,164.0828769999789,None,164.96647960005794,None,,,,,,,,,,,,,,,,,,,,,,,,,,,,,,11020,001,2024_Jan_05_1031,ANT,2021.2.3,59.422790770254856,
0,9,spatial,up,C,R,1.5,0,1.5,right,RRRRR.png,,,,,,,,0,10,10,8,,,,,,,,,,,,,,,,,,,,,,,,,,,,,,,,,,,,,,,,,,,,,,,,,166.96953180001583,167.37107760005165,167.35350730002392,167.45432899997104,167.85411189997103,None,right,1,0.3710063999751583,167.85411189997103,None,167.35350730002392,167.45432899997104,167.45432899997104,None,168.25479400006589,None,,,,,,,,,,,,,,,,,,,,,,,,,,,,,,11020,001,2024_Jan_05_1031,ANT,2021.2.3,59.422790770254856,
0,12,spatial,down,IC,R,-1.5,0,-1.5,right,LLRLL.png,,,,,,,,0,11,11,11,,,,,,,,,,,,,,,,,,,,,,,,,,,,,,,,,,,,,,,,,,,,,,,,,170.25837280007545,170.65894059999846,170.64240640006028,170.7422153999796,171.14273089997005,None,right,1,0.40239800000563264,171.14273089997005,None,170.64240640006028,170.7422153999796,170.7422153999796,None,171.57626780006103,None,,,,,,,,,,,,,,,,,,,,,,,,,,,,,,11020,001,2024_Jan_05_1031,ANT,2021.2.3,59.422790770254856,
,,,,,,,,,,,,,,,,,,,,,,,,,,,,,,,,,,,,,,,,,,,,,,,,,,,,,,,,,,,,,,,,,,,,,,,,,,,,,,,,,,,,,,,space,57.52556259999983,173.57976800005417,None,,,,,,,,,,,,,,,,,,,,,,,,,,11020,001,2024_Jan_05_1031,ANT,2021.2.3,59.422790770254856,
1,19,spatial,up,IC,L,,,,,,Block.xlsx,"你已经完成了第一个实验区组

请稍作休息


点击空格键进入下一个区组。",1.5,0,1.5,left,RRLRR.png,,,,,0,0,0,0,0,0,0,18,,,,,,,,,,,,,,,,,,,,,,,,,,,,,,,,,,,,,,,,,,,,,,,,,,,,,,,,,,,,,,173.57976800005417,None,231.16508770000655,231.5655680000782,231.54925120004918,231.64880139997695,232.0490888999775,None,left,1,0.4804621998919174,232.0490888999775,None,231.54925120004918,231.64880139997695,231.64880139997695,None,232.54992160003167,None,,,,,,,11020,001,2024_Jan_05_1031,ANT,2021.2.3,59.422790770254856,
1,3,no,up,IC,L,,,,,,Block.xlsx,"你已经完成了第一个实验区组

请稍作休息


点击空格键进入下一个区组。",50,0,1.5,left,RRLRR.png,,,,,0,0,0,0,0,1,1,2,,,,,,,,,,,,,,,,,,,,,,,,,,,,,,,,,,,,,,,,,,,,,,,,,,,,,,,,,,,,,,,,232.95064140006434,233.35169609996956,233.33455070003401,233.43589560000692,233.83522690006066,None,left,1,0.45405369997024536,233.83522690006066,None,233.33455070003401,233.43589560000692,233.43589560000692,None,234.319229500019,None,,,,,,,11020,001,2024_Jan_05_1031,ANT,2021.2.3,59.422790770254856,
1,1,no,up,C,L,,,,,,Block.xlsx,"你已经完成了第一个实验区组

请稍作休息


点击空格键进入下一个区组。",50,0,1.5,left,LLLLL.png,,,,,0,0,0,0,0,2,2,0,,,,,,,,,,,,,,,,,,,,,,,,,,,,,,,,,,,,,,,,,,,,,,,,,,,,,,,,,,,,,,,,234.72086270002183,235.12214890005998,235.10415150003973,235.20568420004565,235.60499180003535,None,left,1,0.3805953999981284,235.60499180003535,None,235.10415150003973,235.20568420004565,235.20568420004565,None,236.00528020004276,None,,,,,,,11020,001,2024_Jan_05_1031,ANT,2021.2.3,59.422790770254856,
1,2,no,up,C,R,,,,,,Block.xlsx,"你已经完成了第一个实验区组

请稍作休息


点击空格键进入下一个区组。",50,0,1.5,right,RRRRR.png,,,,,0,0,0,0,0,3,3,1,,,,,,,,,,,,,,,,,,,,,,,,,,,,,,,,,,,,,,,,,,,,,,,,,,,,,,,,,,,,,,,,236.4066578000784,236.80745840002783,236.78947730001528,236.8904726000037,237.29121000005398,None,right,1,0.42217170004732907,237.29121000005398,None,236.78947730001528,236.8904726000037,236.8904726000037,None,237.7410076999804,None,,,,,,,11020,001,2024_Jan_05_1031,ANT,2021.2.3,59.422790770254856,
1,19,spatial,up,IC,L,,,,,,Block.xlsx,"你已经完成了第一个实验区组

请稍作休息


点击空格键进入下一个区组。",1.5,0,1.5,left,RRLRR.png,,,,,0,0,0,0,0,4,4,18,,,,,,,,,,,,,,,,,,,,,,,,,,,,,,,,,,,,,,,,,,,,,,,,,,,,,,,,,,,,,,,,238.14171560003888,238.54313820006792,238.52556360000744,238.6256057000719,239.02685110003222,None,left,1,0.3905689000384882,239.02685110003222,None,238.52556360000744,238.6256057000719,238.6256057000719,None,239.4435978999827,None,,,,,,,11020,001,2024_Jan_05_1031,ANT,2021.2.3,59.422790770254856,
1,6,no,down,C,R,,,,,,Block.xlsx,"你已经完成了第一个实验区组

请稍作休息


点击空格键进入下一个区组。",50,0,-1.5,right,RRRRR.png,,,,,0,0,0,0,0,5,5,5,,,,,,,,,,,,,,,,,,,,,,,,,,,,,,,,,,,,,,,,,,,,,,,,,,,,,,,,,,,,,,,,239.84409919998143,240.2450105000753,240.22796370007563,240.32896179996897,240.72985760006122,None,right,1,0.4956222000764683,240.72985760006122,None,240.22796370007563,240.32896179996897,240.32896179996897,None,241.2469654000597,None,,,,,,,11020,001,2024_Jan_05_1031,ANT,2021.2.3,59.422790770254856,
1,24,spatial,down,IC,R,,,,,,Block.xlsx,"你已经完成了第一个实验区组

请稍作休息


点击空格键进入下一个区组。",-1.5,0,-1.5,right,LLRLL.png,,,,,0,0,0,0,0,6,6,23,,,,,,,,,,,,,,,,,,,,,,,,,,,,,,,,,,,,,,,,,,,,,,,,,,,,,,,,,,,,,,,,241.64682879997417,242.04719259997364,242.03123039996717,242.13095350004733,242.53219619998708,None,right,1,0.4460094999521971,242.53219619998708,None,242.03123039996717,242.13095350004733,242.13095350004733,None,242.99871100008022,None,,,,,,,11020,001,2024_Jan_05_1031,ANT,2021.2.3,59.422790770254856,
1,5,no,down,C,L,,,,,,Block.xlsx,"你已经完成了第一个实验区组

请稍作休息


点击空格键进入下一个区组。",50,0,-1.5,left,LLLLL.png,,,,,0,0,0,0,0,7,7,4,,,,,,,,,,,,,,,,,,,,,,,,,,,,,,,,,,,,,,,,,,,,,,,,,,,,,,,,,,,,,,,,243.3996696000686,243.8007879999932,243.78386490000412,243.88422530004755,244.28505980002228,None,left,1,0.4284672000212595,244.28505980002228,None,243.78386490000412,243.88422530004755,243.88422530004755,None,244.73531170003116,None,,,,,,,11020,001,2024_Jan_05_1031,ANT,2021.2.3,59.422790770254856,
1,3,no,up,IC,L,,,,,,Block.xlsx,"你已经完成了第一个实验区组

请稍作休息


点击空格键进入下一个区组。",50,0,1.5,left,RRLRR.png,,,,,0,0,0,0,0,8,8,2,,,,,,,,,,,,,,,,,,,,,,,,,,,,,,,,,,,,,,,,,,,,,,,,,,,,,,,,,,,,,,,,245.135326800053,245.5375034000026,245.51904859999195,245.6199435000308,246.02239830000326,None,left,1,0.5629575999919325,246.02239830000326,None,245.51904859999195,245.6199435000308,245.6199435000308,None,246.60405500000343,None,,,,,,,11020,001,2024_Jan_05_1031,ANT,2021.2.3,59.422790770254856,
1,8,no,down,IC,R,,,,,,Block.xlsx,"你已经完成了第一个实验区组

请稍作休息


点击空格键进入下一个区组。",50,0,-1.5,right,LLRLL.png,,,,,0,0,0,0,0,9,9,7,,,,,,,,,,,,,,,,,,,,,,,,,,,,,,,,,,,,,,,,,,,,,,,,,,,,,,,,,,,,,,,,247.00461770000402,247.40673759998754,247.3888187999837,247.48959230002947,247.88981249998324,None,right,1,0.5032706999918446,247.88981249998324,None,247.3888187999837,247.48959230002947,247.48959230002947,None,248.4238072000444,None,,,,,,,11020,001,2024_Jan_05_1031,ANT,2021.2.3,59.422790770254856,
1,11,center,up,IC,L,,,,,,Block.xlsx,"你已经完成了第一个实验区组

请稍作休息


点击空格键进入下一个区组。",0,50,1.5,left,RRLRR.png,,,,,0,0,0,0,0,10,10,10,,,,,,,,,,,,,,,,,,,,,,,,,,,,,,,,,,,,,,,,,,,,,,,,,,,,,,,,,,,,,,,,248.82386830006726,249.2256487000268,249.20912440004759,249.30987090000417,249.7093872000696,None,left,1,0.49190889997407794,249.7093872000696,None,249.20912440004759,249.30987090000417,249.30987090000417,None,250.22611549997237,None,,,,,,,11020,001,2024_Jan_05_1031,ANT,2021.2.3,59.422790770254856,
1,14,center,down,C,R,,,,,,Block.xlsx,"你已经完成了第一个实验区组

请稍作休息


点击空格键进入下一个区组。",0,50,-1.5,right,RRRRR.png,,,,,0,0,0,0,0,11,11,13,,,,,,,,,,,,,,,,,,,,,,,,,,,,,,,,,,,,,,,,,,,,,,,,,,,,,,,,,,,,,,,,250.62681340007111,251.02858450007625,251.01056810002774,251.11079259996768,251.5117128000129,None,right,1,0.39356899994891137,251.5117128000129,None,251.01056810002774,251.11079259996768,251.11079259996768,None,251.92854280001484,None,,,,,,,11020,001,2024_Jan_05_1031,ANT,2021.2.3,59.422790770254856,
1,15,center,down,IC,L,,,,,,Block.xlsx,"你已经完成了第一个实验区组

请稍作休息


点击空格键进入下一个区组。",0,50,-1.5,left,RRLRR.png,,,,,0,0,0,0,0,12,12,14,,,,,,,,,,,,,,,,,,,,,,,,,,,,,,,,,,,,,,,,,,,,,,,,,,,,,,,,,,,,,,,,252.32911499997135,252.73114360007457,252.71303660003468,252.81342979997862,253.21491610002704,None,left,1,0.5382820999948308,253.21491610002704,None,252.71303660003468,252.81342979997862,252.81342979997862,None,253.7813742000144,None,,,,,,,11020,001,2024_Jan_05_1031,ANT,2021.2.3,59.422790770254856,
1,16,center,down,IC,R,,,,,,Block.xlsx,"你已经完成了第一个实验区组

请稍作休息


点击空格键进入下一个区组。",0,50,-1.5,right,LLRLL.png,,,,,0,0,0,0,0,13,13,15,,,,,,,,,,,,,,,,,,,,,,,,,,,,,,,,,,,,,,,,,,,,,,,,,,,,,,,,,,,,,,,,254.1831361000659,254.5832051000325,254.5671338000102,254.66625720006414,255.0672567000147,None,right,1,0.5028024999191985,255.0672567000147,None,254.5671338000102,254.66625720006414,254.66625720006414,None,255.60114899999462,None,,,,,,,11020,001,2024_Jan_05_1031,ANT,2021.2.3,59.422790770254856,
1,22,spatial,down,C,R,,,,,,Block.xlsx,"你已经完成了第一个实验区组

请稍作休息


点击空格键进入下一个区组。",-1.5,0,-1.5,right,RRRRR.png,,,,,0,0,0,0,0,14,14,21,,,,,,,,,,,,,,,,,,,,,,,,,,,,,,,,,,,,,,,,,,,,,,,,,,,,,,,,,,,,,,,,256.0021262000082,256.4025696000317,256.38603170006536,256.486335100024,256.8869104000041,None,right,1,0.37053000007290393,256.8869104000041,None,256.38603170006536,256.486335100024,256.486335100024,None,257.2876731000142,None,,,,,,,11020,001,2024_Jan_05_1031,ANT,2021.2.3,59.422790770254856,
1,21,spatial,down,C,L,,,,,,Block.xlsx,"你已经完成了第一个实验区组

请稍作休息


点击空格键进入下一个区组。",-1.5,0,-1.5,left,LLLLL.png,,,,,0,0,0,0,0,15,15,20,,,,,,,,,,,,,,,,,,,,,,,,,,,,,,,,,,,,,,,,,,,,,,,,,,,,,,,,,,,,,,,,257.68846930004656,258.0878254000563,258.07120840006974,258.1721000999678,258.57207510003354,None,left,1,0.3731811000034213,258.57207510003354,None,258.07120840006974,258.1721000999678,258.1721000999678,None,258.9724086000351,None,,,,,,,11020,001,2024_Jan_05_1031,ANT,2021.2.3,59.422790770254856,
1,1,no,up,C,L,,,,,,Block.xlsx,"你已经完成了第一个实验区组

请稍作休息


点击空格键进入下一个区组。",50,0,1.5,left,LLLLL.png,,,,,0,0,0,0,0,16,16,0,,,,,,,,,,,,,,,,,,,,,,,,,,,,,,,,,,,,,,,,,,,,,,,,,,,,,,,,,,,,,,,,259.37301910005044,259.7754489000654,259.75765220005997,259.8575402999995,260.2590233000228,None,left,1,0.45464720006566495,260.2590233000228,None,259.75765220005997,259.8575402999995,259.8575402999995,None,260.74178200005554,None,,,,,,,11020,001,2024_Jan_05_1031,ANT,2021.2.3,59.422790770254856,
1,13,center,down,C,L,,,,,,Block.xlsx,"你已经完成了第一个实验区组

请稍作休息


点击空格键进入下一个区组。",0,50,-1.5,left,LLLLL.png,,,,,0,0,0,0,0,17,17,12,,,,,,,,,,,,,,,,,,,,,,,,,,,,,,,,,,,,,,,,,,,,,,,,,,,,,,,,,,,,,,,,261.14330870006233,261.54443090001587,261.5261446000077,261.6274929000065,262.028173699975,None,left,1,0.45310029992833734,262.028173699975,None,261.5261446000077,261.6274929000065,261.6274929000065,None,262.51101879996713,None,,,,,,,11020,001,2024_Jan_05_1031,ANT,2021.2.3,59.422790770254856,
1,3,no,up,IC,L,,,,,,Block.xlsx,"你已经完成了第一个实验区组

请稍作休息


点击空格键进入下一个区组。",50,0,1.5,left,RRLRR.png,,,,,0,0,0,0,0,18,18,2,,,,,,,,,,,,,,,,,,,,,,,,,,,,,,,,,,,,,,,,,,,,,,,,,,,,,,,,,,,,,,,,262.9121784999734,263.3122239999939,263.2965721000219,263.3971231000032,263.7963472000556,None,left,1,0.5336836000205949,263.7963472000556,None,263.2965721000219,263.3971231000032,263.3971231000032,None,264.34746650001034,None,,,,,,,11020,001,2024_Jan_05_1031,ANT,2021.2.3,59.422790770254856,
1,21,spatial,down,C,L,,,,,,Block.xlsx,"你已经完成了第一个实验区组

请稍作休息


点击空格键进入下一个区组。",-1.5,0,-1.5,left,LLLLL.png,,,,,0,0,0,0,0,19,19,20,,,,,,,,,,,,,,,,,,,,,,,,,,,,,,,,,,,,,,,,,,,,,,,,,,,,,,,,,,,,,,,,264.74802529998124,265.14972190000117,265.13221860001795,265.2323327000486,265.6327638999792,None,left,1,0.38482589996419847,265.6327638999792,None,265.13221860001795,265.2323327000486,265.2323327000486,None,266.03291120007634,None,,,,,,,11020,001,2024_Jan_05_1031,ANT,2021.2.3,59.422790770254856,
1,1,no,up,C,L,,,,,,Block.xlsx,"你已经完成了第一个实验区组

请稍作休息


点击空格键进入下一个区组。",50,0,1.5,left,LLLLL.png,,,,,0,0,0,0,0,20,20,0,,,,,,,,,,,,,,,,,,,,,,,,,,,,,,,,,,,,,,,,,,,,,,,,,,,,,,,,,,,,,,,,266.4334699000465,266.83470850007143,266.8186741999816,266.9194768000161,267.31936860003043,None,left,1,0.3784248000010848,267.31936860003043,None,266.8186741999816,266.9194768000161,266.9194768000161,None,267.718537400011,None,,,,,,,11020,001,2024_Jan_05_1031,ANT,2021.2.3,59.422790770254856,
1,10,center,up,C,R,,,,,,Block.xlsx,"你已经完成了第一个实验区组

请稍作休息


点击空格键进入下一个区组。",0,50,1.5,right,RRRRR.png,,,,,0,0,0,0,0,21,21,9,,,,,,,,,,,,,,,,,,,,,,,,,,,,,,,,,,,,,,,,,,,,,,,,,,,,,,,,,,,,,,,,268.1193649000488,268.5215936000459,268.5038976999931,268.6051751000341,269.00475920003373,None,right,1,0.4125783999916166,269.00475920003373,None,268.5038976999931,268.6051751000341,268.6051751000341,None,269.438030899968,None,,,,,,,11020,001,2024_Jan_05_1031,ANT,2021.2.3,59.422790770254856,
1,21,spatial,down,C,L,,,,,,Block.xlsx,"你已经完成了第一个实验区组

请稍作休息


点击空格键进入下一个区组。",-1.5,0,-1.5,left,LLLLL.png,,,,,0,0,0,0,0,22,22,20,,,,,,,,,,,,,,,,,,,,,,,,,,,,,,,,,,,,,,,,,,,,,,,,,,,,,,,,,,,,,,,,269.83889360004105,270.239261400071,270.22333289997187,270.32417210005224,270.7232756000012,None,left,1,0.4060030000982806,270.7232756000012,None,270.22333289997187,270.32417210005224,270.32417210005224,None,271.15723620005883,None,,,,,,,11020,001,2024_Jan_05_1031,ANT,2021.2.3,59.422790770254856,
1,16,center,down,IC,R,,,,,,Block.xlsx,"你已经完成了第一个实验区组

请稍作休息


点击空格键进入下一个区组。",0,50,-1.5,right,LLRLL.png,,,,,0,0,0,0,0,23,23,15,,,,,,,,,,,,,,,,,,,,,,,,,,,,,,,,,,,,,,,,,,,,,,,,,,,,,,,,,,,,,,,,271.55771079997066,271.9596105000237,271.94195360003505,272.0431312000146,272.44400480005424,None,right,1,0.4936476000584662,272.44400480005424,None,271.94195360003505,272.0431312000146,272.0431312000146,None,272.96021300007124,None,,,,,,,11020,001,2024_Jan_05_1031,ANT,2021.2.3,59.422790770254856,
1,3,no,up,IC,L,,,,,,Block.xlsx,"你已经完成了第一个实验区组

请稍作休息


点击空格键进入下一个区组。",50,0,1.5,left,RRLRR.png,,,,,0,0,0,0,1,0,24,2,,,,,,,,,,,,,,,,,,,,,,,,,,,,,,,,,,,,,,,,,,,,,,,,,,,,,,,,,,,,,,,,273.36086330004036,273.76103950000834,273.74503290001303,273.8463694000384,274.2469207000686,None,left,1,0.46726840001065284,274.2469207000686,None,273.74503290001303,273.8463694000384,273.8463694000384,None,274.7291221000487,None,,,,,,,11020,001,2024_Jan_05_1031,ANT,2021.2.3,59.422790770254856,
1,7,no,down,IC,L,,,,,,Block.xlsx,"你已经完成了第一个实验区组

请稍作休息


点击空格键进入下一个区组。",50,0,-1.5,left,RRLRR.png,,,,,0,0,0,0,1,1,25,6,,,,,,,,,,,,,,,,,,,,,,,,,,,,,,,,,,,,,,,,,,,,,,,,,,,,,,,,,,,,,,,,275.12968900008127,275.53221179998945,275.51393949997146,275.6136639000615,276.0147432000376,None,left,1,0.44260599999688566,276.0147432000376,None,275.51393949997146,275.6136639000615,275.6136639000615,None,276.48177730001044,None,,,,,,,11020,001,2024_Jan_05_1031,ANT,2021.2.3,59.422790770254856,
1,12,center,up,IC,R,,,,,,Block.xlsx,"你已经完成了第一个实验区组

请稍作休息


点击空格键进入下一个区组。",0,50,1.5,right,LLRLL.png,,,,,0,0,0,0,1,2,26,11,,,,,,,,,,,,,,,,,,,,,,,,,,,,,,,,,,,,,,,,,,,,,,,,,,,,,,,,,,,,,,,,276.88224840001203,277.2829343000194,277.26788589998614,277.3663211000385,277.7670338000171,None,right,1,0.5146977000404149,277.7670338000171,None,277.26788589998614,277.3663211000385,277.3663211000385,None,278.3011469000485,None,,,,,,,11020,001,2024_Jan_05_1031,ANT,2021.2.3,59.422790770254856,
1,11,center,up,IC,L,,,,,,Block.xlsx,"你已经完成了第一个实验区组

请稍作休息


点击空格键进入下一个区组。",0,50,1.5,left,RRLRR.png,,,,,0,0,0,0,1,3,27,10,,,,,,,,,,,,,,,,,,,,,,,,,,,,,,,,,,,,,,,,,,,,,,,,,,,,,,,,,,,,,,,,278.7016353000654,279.1022901000688,279.08623800007626,279.1879153000191,279.5866709999973,None,left,1,0.5672661999706179,279.5866709999973,None,279.08623800007626,279.1879153000191,279.1879153000191,None,280.1705791000277,None,,,,,,,11020,001,2024_Jan_05_1031,ANT,2021.2.3,59.422790770254856,
1,23,spatial,down,IC,L,,,,,,Block.xlsx,"你已经完成了第一个实验区组

请稍作休息


点击空格键进入下一个区组。",-1.5,0,-1.5,left,RRLRR.png,,,,,0,0,0,0,1,4,28,22,,,,,,,,,,,,,,,,,,,,,,,,,,,,,,,,,,,,,,,,,,,,,,,,,,,,,,,,,,,,,,,,280.57178660004865,280.9735400000354,280.9556588999694,281.05578539997805,281.4558023000136,None,left,1,0.3458133999956772,281.4558023000136,None,280.9556588999694,281.05578539997805,281.05578539997805,None,281.82298349996563,None,,,,,,,11020,001,2024_Jan_05_1031,ANT,2021.2.3,59.422790770254856,
1,15,center,down,IC,L,,,,,,Block.xlsx,"你已经完成了第一个实验区组

请稍作休息


点击空格键进入下一个区组。",0,50,-1.5,left,RRLRR.png,,,,,0,0,0,0,1,5,29,14,,,,,,,,,,,,,,,,,,,,,,,,,,,,,,,,,,,,,,,,,,,,,,,,,,,,,,,,,,,,,,,,282.2235263000475,282.62424779997673,282.60820130002685,282.70785050000995,283.10895600006916,None,left,1,0.4683538000099361,283.10895600006916,None,282.60820130002685,282.70785050000995,282.70785050000995,None,283.59217109996825,None,,,,,,,11020,001,2024_Jan_05_1031,ANT,2021.2.3,59.422790770254856,
1,22,spatial,down,C,R,,,,,,Block.xlsx,"你已经完成了第一个实验区组

请稍作休息


点击空格键进入下一个区组。",-1.5,0,-1.5,right,RRRRR.png,,,,,0,0,0,0,1,6,30,21,,,,,,,,,,,,,,,,,,,,,,,,,,,,,,,,,,,,,,,,,,,,,,,,,,,,,,,,,,,,,,,,283.9934709999943,284.39339890005067,284.3770459999796,284.4774368000217,284.87792840006296,None,right,1,0.3633790999883786,284.87792840006296,None,284.3770459999796,284.4774368000217,284.4774368000217,None,285.2613690000726,None,,,,,,,11020,001,2024_Jan_05_1031,ANT,2021.2.3,59.422790770254856,
1,24,spatial,down,IC,R,,,,,,Block.xlsx,"你已经完成了第一个实验区组

请稍作休息


点击空格键进入下一个区组。",-1.5,0,-1.5,right,LLRLL.png,,,,,0,0,0,0,1,7,31,23,,,,,,,,,,,,,,,,,,,,,,,,,,,,,,,,,,,,,,,,,,,,,,,,,,,,,,,,,,,,,,,,285.66261380002834,286.06329419999383,286.04797569999937,286.1628063999815,286.5466428999789,None,right,1,0.4233298000181094,286.5466428999789,None,286.04797569999937,286.1628063999815,286.1461085000774,None,286.9972911999794,None,,,,,,,11020,001,2024_Jan_05_1031,ANT,2021.2.3,59.422790770254856,
1,8,no,down,IC,R,,,,,,Block.xlsx,"你已经完成了第一个实验区组

请稍作休息


点击空格键进入下一个区组。",50,0,-1.5,right,LLRLL.png,,,,,0,0,0,0,1,8,32,7,,,,,,,,,,,,,,,,,,,,,,,,,,,,,,,,,,,,,,,,,,,,,,,,,,,,,,,,,,,,,,,,287.398065000074,287.80076380004175,287.78183980006725,287.8831517000217,288.28469040000346,None,right,1,0.5406377000035718,288.28469040000346,None,287.78183980006725,287.8831517000217,287.8831517000217,None,288.8499709999887,None,,,,,,,11020,001,2024_Jan_05_1031,ANT,2021.2.3,59.422790770254856,
1,7,no,down,IC,L,,,,,,Block.xlsx,"你已经完成了第一个实验区组

请稍作休息


点击空格键进入下一个区组。",50,0,-1.5,left,RRLRR.png,,,,,0,0,0,0,1,9,33,6,,,,,,,,,,,,,,,,,,,,,,,,,,,,,,,,,,,,,,,,,,,,,,,,,,,,,,,,,,,,,,,,289.2507226000307,289.6524128000019,289.6344916999806,289.7355487999739,290.13701950001996,None,left,1,0.4242200000444427,290.13701950001996,None,289.6344916999806,289.7355487999739,289.7355487999739,None,290.586395499995,None,,,,,,,11020,001,2024_Jan_05_1031,ANT,2021.2.3,59.422790770254856,
1,19,spatial,up,IC,L,,,,,,Block.xlsx,"你已经完成了第一个实验区组

请稍作休息


点击空格键进入下一个区组。",1.5,0,1.5,left,RRLRR.png,,,,,0,0,0,0,1,10,34,18,,,,,,,,,,,,,,,,,,,,,,,,,,,,,,,,,,,,,,,,,,,,,,,,,,,,,,,,,,,,,,,,290.98813910002355,291.3870009999955,291.3711704000598,291.472699200036,291.8721976999659,None,left,1,0.3771565000060946,291.8721976999659,None,291.3711704000598,291.472699200036,291.472699200036,None,292.27213419997133,None,,,,,,,11020,001,2024_Jan_05_1031,ANT,2021.2.3,59.422790770254856,
1,20,spatial,up,IC,R,,,,,,Block.xlsx,"你已经完成了第一个实验区组

请稍作休息


点击空格键进入下一个区组。",1.5,0,1.5,right,LLRLL.png,,,,,0,0,0,0,1,11,35,19,,,,,,,,,,,,,,,,,,,,,,,,,,,,,,,,,,,,,,,,,,,,,,,,,,,,,,,,,,,,,,,,292.67384920001496,293.0895656000357,293.05607439996675,293.15710569999646,293.55866560002323,None,right,1,0.3793298000236973,293.55866560002323,None,293.05607439996675,293.15710569999646,293.15710569999646,None,293.9575130000012,None,,,,,,,11020,001,2024_Jan_05_1031,ANT,2021.2.3,59.422790770254856,
1,6,no,down,C,R,,,,,,Block.xlsx,"你已经完成了第一个实验区组

请稍作休息


点击空格键进入下一个区组。",50,0,-1.5,right,RRRRR.png,,,,,0,0,0,0,1,12,36,5,,,,,,,,,,,,,,,,,,,,,,,,,,,,,,,,,,,,,,,,,,,,,,,,,,,,,,,,,,,,,,,,294.35816770000383,294.7594650000101,294.74331980000716,294.842616799986,295.2445887000067,None,right,1,0.6445877999067307,295.2445887000067,None,294.74331980000716,294.842616799986,294.842616799986,None,295.91064620006364,None,,,,,,,11020,001,2024_Jan_05_1031,ANT,2021.2.3,59.422790770254856,
1,22,spatial,down,C,R,,,,,,Block.xlsx,"你已经完成了第一个实验区组

请稍作休息


点击空格键进入下一个区组。",-1.5,0,-1.5,right,RRRRR.png,,,,,0,0,0,0,1,13,37,21,,,,,,,,,,,,,,,,,,,,,,,,,,,,,,,,,,,,,,,,,,,,,,,,,,,,,,,,,,,,,,,,296.311200199998,296.71288120001554,296.69591000000946,296.7952535999939,297.1959504999686,None,right,1,0.3733853999292478,297.1959504999686,None,296.69591000000946,296.7952535999939,296.7952535999939,None,297.59637769998517,None,,,,,,,11020,001,2024_Jan_05_1031,ANT,2021.2.3,59.422790770254856,
1,17,spatial,up,C,L,,,,,,Block.xlsx,"你已经完成了第一个实验区组

请稍作休息


点击空格键进入下一个区组。",1.5,0,1.5,left,LLLLL.png,,,,,0,0,0,0,1,14,38,16,,,,,,,,,,,,,,,,,,,,,,,,,,,,,,,,,,,,,,,,,,,,,,,,,,,,,,,,,,,,,,,,297.99676800007,298.3978892000159,298.3808543999912,298.4815526000457,298.88165460003074,None,left,1,0.3357746999245137,298.88165460003074,None,298.3808543999912,298.4815526000457,298.4815526000457,None,299.2320813999977,None,,,,,,,11020,001,2024_Jan_05_1031,ANT,2021.2.3,59.422790770254856,
1,24,spatial,down,IC,R,,,,,,Block.xlsx,"你已经完成了第一个实验区组

请稍作休息


点击空格键进入下一个区组。",-1.5,0,-1.5,right,LLRLL.png,,,,,0,0,0,0,1,15,39,23,,,,,,,,,,,,,,,,,,,,,,,,,,,,,,,,,,,,,,,,,,,,,,,,,,,,,,,,,,,,,,,,299.63340869999956,300.0341962999664,300.01649319997523,300.11766190000344,300.51753509999253,None,right,1,0.3644553000340238,300.51753509999253,None,300.01649319997523,300.11766190000344,300.11766190000344,None,300.9015825999668,None,,,,,,,11020,001,2024_Jan_05_1031,ANT,2021.2.3,59.422790770254856,
1,14,center,down,C,R,,,,,,Block.xlsx,"你已经完成了第一个实验区组

请稍作休息


点击空格键进入下一个区组。",0,50,-1.5,right,RRRRR.png,,,,,0,0,0,0,1,16,40,13,,,,,,,,,,,,,,,,,,,,,,,,,,,,,,,,,,,,,,,,,,,,,,,,,,,,,,,,,,,,,,,,301.30174899997655,301.70243539998773,301.6867496999912,301.78636700008065,302.1878589000553,None,right,1,0.5174999999580905,302.1878589000553,None,301.6867496999912,301.78636700008065,301.78636700008065,None,302.73720770003274,None,,,,,,,11020,001,2024_Jan_05_1031,ANT,2021.2.3,59.422790770254856,
1,4,no,up,IC,R,,,,,,Block.xlsx,"你已经完成了第一个实验区组

请稍作休息


点击空格键进入下一个区组。",50,0,1.5,right,LLRLL.png,,,,,0,0,0,0,1,17,41,3,,,,,,,,,,,,,,,,,,,,,,,,,,,,,,,,,,,,,,,,,,,,,,,,,,,,,,,,,,,,,,,,303.1381247000536,303.53972780006006,303.5235183000332,303.62208090000786,304.0230513999704,None,right,1,0.5225386000238359,304.0230513999704,None,303.5235183000332,303.62208090000786,303.62208090000786,None,304.573384599993,None,,,,,,,11020,001,2024_Jan_05_1031,ANT,2021.2.3,59.422790770254856,
1,8,no,down,IC,R,,,,,,Block.xlsx,"你已经完成了第一个实验区组

请稍作休息


点击空格键进入下一个区组。",50,0,-1.5,right,LLRLL.png,,,,,0,0,0,0,1,18,42,7,,,,,,,,,,,,,,,,,,,,,,,,,,,,,,,,,,,,,,,,,,,,,,,,,,,,,,,,,,,,,,,,304.9737820000155,305.37439520005137,305.3583975000074,305.45856100006495,305.85867660003714,None,right,1,0.41459820000454783,305.85867660003714,None,305.3583975000074,305.45856100006495,305.45856100006495,None,306.2926048999652,None,,,,,,,11020,001,2024_Jan_05_1031,ANT,2021.2.3,59.422790770254856,
1,5,no,down,C,L,,,,,,Block.xlsx,"你已经完成了第一个实验区组

请稍作休息


点击空格键进入下一个区组。",50,0,-1.5,left,LLLLL.png,,,,,0,0,0,0,1,19,43,4,,,,,,,,,,,,,,,,,,,,,,,,,,,,,,,,,,,,,,,,,,,,,,,,,,,,,,,,,,,,,,,,306.69310470006894,307.09556839999277,307.07758909999393,307.1771693000337,307.5777119999984,None,left,1,0.43197749997489154,307.5777119999984,None,307.07758909999393,307.1771693000337,307.1771693000337,None,308.02847610006575,None,,,,,,,11020,001,2024_Jan_05_1031,ANT,2021.2.3,59.422790770254856,
1,4,no,up,IC,R,,,,,,Block.xlsx,"你已经完成了第一个实验区组

请稍作休息


点击空格键进入下一个区组。",50,0,1.5,right,LLRLL.png,,,,,0,0,0,0,1,20,44,3,,,,,,,,,,,,,,,,,,,,,,,,,,,,,,,,,,,,,,,,,,,,,,,,,,,,,,,,,,,,,,,,308.42894999997225,308.83047569997143,308.8136984000448,308.9151609999826,309.31486619997304,None,right,1,0.5108343999600038,309.31486619997304,None,308.8136984000448,308.9151609999826,308.9151609999826,None,309.8478630000027,None,,,,,,,11020,001,2024_Jan_05_1031,ANT,2021.2.3,59.422790770254856,
1,19,spatial,up,IC,L,,,,,,Block.xlsx,"你已经完成了第一个实验区组

请稍作休息


点击空格键进入下一个区组。",1.5,0,1.5,left,RRLRR.png,,,,,0,0,0,0,1,21,45,18,,,,,,,,,,,,,,,,,,,,,,,,,,,,,,,,,,,,,,,,,,,,,,,,,,,,,,,,,,,,,,,,310.2483314999845,310.65017450007144,310.63302020006813,310.73316509998403,311.1334291000385,None,left,1,0.43583159998524934,311.1334291000385,None,310.63302020006813,310.73316509998403,310.73316509998403,None,311.6003353999695,None,,,,,,,11020,001,2024_Jan_05_1031,ANT,2021.2.3,59.422790770254856,
1,6,no,down,C,R,,,,,,Block.xlsx,"你已经完成了第一个实验区组

请稍作休息


点击空格键进入下一个区组。",50,0,-1.5,right,RRRRR.png,,,,,0,0,0,0,1,22,46,5,,,,,,,,,,,,,,,,,,,,,,,,,,,,,,,,,,,,,,,,,,,,,,,,,,,,,,,,,,,,,,,,312.0016406000359,312.4026666000718,312.3848434999818,312.4861898999661,312.8866862000432,None,right,1,0.47451030008960515,312.8866862000432,None,312.3848434999818,312.4861898999661,312.4861898999661,None,313.3864437000593,None,,,,,,,11020,001,2024_Jan_05_1031,ANT,2021.2.3,59.422790770254856,
1,7,no,down,IC,L,,,,,,Block.xlsx,"你已经完成了第一个实验区组

请稍作休息


点击空格键进入下一个区组。",50,0,-1.5,left,RRLRR.png,,,,,0,0,0,0,1,23,47,6,,,,,,,,,,,,,,,,,,,,,,,,,,,,,,,,,,,,,,,,,,,,,,,,,,,,,,,,,,,,,,,,313.7870109999785,314.18900780007243,314.1708808999974,314.2717842999846,314.6715833999915,None,left,1,0.40978950005955994,314.6715833999915,None,314.1708808999974,314.2717842999846,314.2717842999846,None,315.1064121000236,None,,,,,,,11020,001,2024_Jan_05_1031,ANT,2021.2.3,59.422790770254856,
1,13,center,down,C,L,,,,,,Block.xlsx,"你已经完成了第一个实验区组

请稍作休息


点击空格键进入下一个区组。",0,50,-1.5,left,LLLLL.png,,,,,0,0,0,0,2,0,48,12,,,,,,,,,,,,,,,,,,,,,,,,,,,,,,,,,,,,,,,,,,,,,,,,,,,,,,,,,,,,,,,,315.50631169998087,315.9079403000651,315.89069779997226,315.9901638000738,316.39092809997965,None,left,1,0.3626361999195069,316.39092809997965,None,315.89069779997226,315.9901638000738,315.9901638000738,None,316.77472139999736,None,,,,,,,11020,001,2024_Jan_05_1031,ANT,2021.2.3,59.422790770254856,
1,12,center,up,IC,R,,,,,,Block.xlsx,"你已经完成了第一个实验区组

请稍作休息


点击空格键进入下一个区组。",0,50,1.5,right,LLRLL.png,,,,,0,0,0,0,2,1,49,11,,,,,,,,,,,,,,,,,,,,,,,,,,,,,,,,,,,,,,,,,,,,,,,,,,,,,,,,,,,,,,,,317.1756149000721,317.5765675000148,317.5593000999652,317.65949920006096,318.0605026000412,None,right,1,0.5408352999947965,318.0605026000412,None,317.5593000999652,317.65949920006096,317.65949920006096,None,318.62831860000733,None,,,,,,,11020,001,2024_Jan_05_1031,ANT,2021.2.3,59.422790770254856,
1,17,spatial,up,C,L,,,,,,Block.xlsx,"你已经完成了第一个实验区组

请稍作休息


点击空格键进入下一个区组。",1.5,0,1.5,left,LLLLL.png,,,,,0,0,0,0,2,2,50,16,,,,,,,,,,,,,,,,,,,,,,,,,,,,,,,,,,,,,,,,,,,,,,,,,,,,,,,,,,,,,,,,319.0281975000398,319.4298682999797,319.412213100004,319.51207769999746,319.9127423000755,None,left,1,0.3688103000167757,319.9127423000755,None,319.412213100004,319.51207769999746,319.51207769999746,None,320.2969547000248,None,,,,,,,11020,001,2024_Jan_05_1031,ANT,2021.2.3,59.422790770254856,
1,12,center,up,IC,R,,,,,,Block.xlsx,"你已经完成了第一个实验区组

请稍作休息


点击空格键进入下一个区组。",0,50,1.5,right,LLRLL.png,,,,,0,0,0,0,2,3,51,11,,,,,,,,,,,,,,,,,,,,,,,,,,,,,,,,,,,,,,,,,,,,,,,,,,,,,,,,,,,,,,,,320.6974693000084,321.09777850005776,321.0819472000003,321.18284720007796,321.5823537000688,None,right,1,0.48409379995428026,321.5823537000688,None,321.0819472000003,321.18284720007796,321.18284720007796,None,322.0825132000027,None,,,,,,,11020,001,2024_Jan_05_1031,ANT,2021.2.3,59.422790770254856,
1,14,center,down,C,R,,,,,,Block.xlsx,"你已经完成了第一个实验区组

请稍作休息


点击空格键进入下一个区组。",0,50,-1.5,right,RRRRR.png,,,,,0,0,0,0,2,4,52,13,,,,,,,,,,,,,,,,,,,,,,,,,,,,,,,,,,,,,,,,,,,,,,,,,,,,,,,,,,,,,,,,322.4832840000745,322.8840128000593,322.8679088000208,322.9682528000558,323.36800879996736,None,right,1,0.38528569997288287,323.36800879996736,None,322.8679088000208,322.9682528000558,322.9682528000558,None,323.7694774999982,None,,,,,,,11020,001,2024_Jan_05_1031,ANT,2021.2.3,59.422790770254856,
1,23,spatial,down,IC,L,,,,,,Block.xlsx,"你已经完成了第一个实验区组

请稍作休息


点击空格键进入下一个区组。",-1.5,0,-1.5,left,RRLRR.png,,,,,0,0,0,0,2,5,53,22,,,,,,,,,,,,,,,,,,,,,,,,,,,,,,,,,,,,,,,,,,,,,,,,,,,,,,,,,,,,,,,,324.1698524999665,324.56992400006857,324.5538911999902,324.6531533000525,325.05421780003235,None,left,1,0.4518168999347836,325.05421780003235,None,324.5538911999902,324.6531533000525,324.6531533000525,None,325.5208722000243,None,,,,,,,11020,001,2024_Jan_05_1031,ANT,2021.2.3,59.422790770254856,
1,24,spatial,down,IC,R,,,,,,Block.xlsx,"你已经完成了第一个实验区组

请稍作休息


点击空格键进入下一个区组。",-1.5,0,-1.5,right,LLRLL.png,,,,,0,0,0,0,2,6,54,23,,,,,,,,,,,,,,,,,,,,,,,,,,,,,,,,,,,,,,,,,,,,,,,,,,,,,,,,,,,,,,,,325.9220321000321,326.3237627000781,326.3067421000451,326.4071703000227,326.8067539000185,None,right,1,0.4025314999744296,326.8067539000185,None,326.3067421000451,326.4071703000227,326.4071703000227,None,327.24033639999107,None,,,,,,,11020,001,2024_Jan_05_1031,ANT,2021.2.3,59.422790770254856,
1,6,no,down,C,R,,,,,,Block.xlsx,"你已经完成了第一个实验区组

请稍作休息


点击空格键进入下一个区组。",50,0,-1.5,right,RRRRR.png,,,,,0,0,0,0,2,7,55,5,,,,,,,,,,,,,,,,,,,,,,,,,,,,,,,,,,,,,,,,,,,,,,,,,,,,,,,,,,,,,,,,327.64137730002403,328.0427978000371,328.02486430003773,328.1268414000515,328.5272025000304,None,right,1,0.4500309000723064,328.5272025000304,None,328.02486430003773,328.1268414000515,328.1268414000515,None,328.992683700053,None,,,,,,,11020,001,2024_Jan_05_1031,ANT,2021.2.3,59.422790770254856,
1,10,center,up,C,R,,,,,,Block.xlsx,"你已经完成了第一个实验区组

请稍作休息


点击空格键进入下一个区组。",0,50,1.5,right,RRRRR.png,,,,,0,0,0,0,2,8,56,9,,,,,,,,,,,,,,,,,,,,,,,,,,,,,,,,,,,,,,,,,,,,,,,,,,,,,,,,,,,,,,,,329.39357169996947,329.79482189996634,329.77887370006647,329.8951458000811,330.27871440001763,None,right,1,0.4026881998870522,330.27871440001763,None,329.77887370006647,329.8951458000811,329.8778017000295,None,330.7119638000149,None,,,,,,,11020,001,2024_Jan_05_1031,ANT,2021.2.3,59.422790770254856,
1,2,no,up,C,R,,,,,,Block.xlsx,"你已经完成了第一个实验区组

请稍作休息


点击空格键进入下一个区组。",50,0,1.5,right,RRRRR.png,,,,,0,0,0,0,2,9,57,1,,,,,,,,,,,,,,,,,,,,,,,,,,,,,,,,,,,,,,,,,,,,,,,,,,,,,,,,,,,,,,,,331.11356750002597,331.51363760000095,331.4966774000786,331.59744290006347,331.9985243000556,None,right,1,0.3790604999521747,331.9985243000556,None,331.4966774000786,331.59744290006347,331.59744290006347,None,332.39853360003326,None,,,,,,,11020,001,2024_Jan_05_1031,ANT,2021.2.3,59.422790770254856,
1,8,no,down,IC,R,,,,,,Block.xlsx,"你已经完成了第一个实验区组

请稍作休息


点击空格键进入下一个区组。",50,0,-1.5,right,LLRLL.png,,,,,0,0,0,0,2,10,58,7,,,,,,,,,,,,,,,,,,,,,,,,,,,,,,,,,,,,,,,,,,,,,,,,,,,,,,,,,,,,,,,,332.7985929000424,333.19987320003565,333.18248389998917,333.28333650005516,333.68311610003,None,right,1,0.47044770000502467,333.68311610003,None,333.18248389998917,333.28333650005516,333.28333650005516,None,334.18411989999004,None,,,,,,,11020,001,2024_Jan_05_1031,ANT,2021.2.3,59.422790770254856,
1,10,center,up,C,R,,,,,,Block.xlsx,"你已经完成了第一个实验区组

请稍作休息


点击空格键进入下一个区组。",0,50,1.5,right,RRRRR.png,,,,,0,0,0,0,2,11,59,9,,,,,,,,,,,,,,,,,,,,,,,,,,,,,,,,,,,,,,,,,,,,,,,,,,,,,,,,,,,,,,,,334.58486309996806,334.9855637999717,334.9684254999738,335.0692973000696,335.46933300001547,None,right,1,0.3561176999937743,335.46933300001547,None,334.9684254999738,335.0692973000696,335.0692973000696,None,335.8532310000155,None,,,,,,,11020,001,2024_Jan_05_1031,ANT,2021.2.3,59.422790770254856,
1,16,center,down,IC,R,,,,,,Block.xlsx,"你已经完成了第一个实验区组

请稍作休息


点击空格键进入下一个区组。",0,50,-1.5,right,LLRLL.png,,,,,0,0,0,0,2,12,60,15,,,,,,,,,,,,,,,,,,,,,,,,,,,,,,,,,,,,,,,,,,,,,,,,,,,,,,,,,,,,,,,,336.2540487999795,336.6550493000541,336.6383400000632,336.7394670000067,337.138184200041,None,right,1,0.45537740003783256,337.138184200041,None,336.6383400000632,336.7394670000067,336.7394670000067,None,337.62225010001566,None,,,,,,,11020,001,2024_Jan_05_1031,ANT,2021.2.3,59.422790770254856,
1,23,spatial,down,IC,L,,,,,,Block.xlsx,"你已经完成了第一个实验区组

请稍作休息


点击空格键进入下一个区组。",-1.5,0,-1.5,left,RRLRR.png,,,,,0,0,0,0,2,13,61,22,,,,,,,,,,,,,,,,,,,,,,,,,,,,,,,,,,,,,,,,,,,,,,,,,,,,,,,,,,,,,,,,338.0228443000233,338.4247401000466,338.40686200000346,338.50768430007156,338.9075701000402,None,left,1,0.46173790004104376,338.9075701000402,None,338.40686200000346,338.50768430007156,338.50768430007156,None,339.3916548000416,None,,,,,,,11020,001,2024_Jan_05_1031,ANT,2021.2.3,59.422790770254856,
1,9,center,up,C,L,,,,,,Block.xlsx,"你已经完成了第一个实验区组

请稍作休息


点击空格键进入下一个区组。",0,50,1.5,left,LLLLL.png,,,,,0,0,0,0,2,14,62,8,,,,,,,,,,,,,,,,,,,,,,,,,,,,,,,,,,,,,,,,,,,,,,,,,,,,,,,,,,,,,,,,339.7920086000813,340.194431800046,340.1768941000337,340.27725230006035,340.67890729999635,None,left,1,0.34755770000629127,340.67890729999635,None,340.1768941000337,340.27725230006035,340.27725230006035,None,341.0441050999798,None,,,,,,,11020,001,2024_Jan_05_1031,ANT,2021.2.3,59.422790770254856,
1,20,spatial,up,IC,R,,,,,,Block.xlsx,"你已经完成了第一个实验区组

请稍作休息


点击空格键进入下一个区组。",1.5,0,1.5,right,LLRLL.png,,,,,0,0,0,0,2,15,63,19,,,,,,,,,,,,,,,,,,,,,,,,,,,,,,,,,,,,,,,,,,,,,,,,,,,,,,,,,,,,,,,,341.4449764000019,341.846990799997,341.82858019997366,341.9290252000792,342.3296222999925,None,right,1,0.37565139995422214,342.3296222999925,None,341.82858019997366,341.9290252000792,341.9290252000792,None,342.73026500002015,None,,,,,,,11020,001,2024_Jan_05_1031,ANT,2021.2.3,59.422790770254856,
1,5,no,down,C,L,,,,,,Block.xlsx,"你已经完成了第一个实验区组

请稍作休息


点击空格键进入下一个区组。",50,0,-1.5,left,LLLLL.png,,,,,0,0,0,0,2,16,64,4,,,,,,,,,,,,,,,,,,,,,,,,,,,,,,,,,,,,,,,,,,,,,,,,,,,,,,,,,,,,,,,,343.1313433999894,343.531046200078,343.51576039998326,343.6166995000094,344.0158208999783,None,left,1,0.4094467000104487,344.0158208999783,None,343.51576039998326,343.6166995000094,343.6166995000094,None,344.44909930008,None,,,,,,,11020,001,2024_Jan_05_1031,ANT,2021.2.3,59.422790770254856,
1,9,center,up,C,L,,,,,,Block.xlsx,"你已经完成了第一个实验区组

请稍作休息


点击空格键进入下一个区组。",0,50,1.5,left,LLLLL.png,,,,,0,0,0,0,2,17,65,8,,,,,,,,,,,,,,,,,,,,,,,,,,,,,,,,,,,,,,,,,,,,,,,,,,,,,,,,,,,,,,,,344.8496757000685,345.2522186000133,345.23412210005336,345.33538259996567,345.7346997000277,None,left,1,0.3790086000226438,345.7346997000277,None,345.23412210005336,345.33538259996567,345.33538259996567,None,346.13494270003866,None,,,,,,,11020,001,2024_Jan_05_1031,ANT,2021.2.3,59.422790770254856,
1,18,spatial,up,C,R,,,,,,Block.xlsx,"你已经完成了第一个实验区组

请稍作休息


点击空格键进入下一个区组。",1.5,0,1.5,right,RRRRR.png,,,,,0,0,0,0,2,18,66,17,,,,,,,,,,,,,,,,,,,,,,,,,,,,,,,,,,,,,,,,,,,,,,,,,,,,,,,,,,,,,,,,346.53568239999004,346.936892000027,346.9197847000323,347.02124490006827,347.42048840003554,None,right,1,0.46873139997478575,347.42048840003554,None,346.9197847000323,347.02124490006827,347.02124490006827,None,347.90411330002826,None,,,,,,,11020,001,2024_Jan_05_1031,ANT,2021.2.3,59.422790770254856,
1,2,no,up,C,R,,,,,,Block.xlsx,"你已经完成了第一个实验区组

请稍作休息


点击空格键进入下一个区组。",50,0,1.5,right,RRRRR.png,,,,,0,0,0,0,2,19,67,1,,,,,,,,,,,,,,,,,,,,,,,,,,,,,,,,,,,,,,,,,,,,,,,,,,,,,,,,,,,,,,,,348.30517479998525,348.70761769998353,348.6891075000167,348.79003160004504,349.1896830999758,None,right,1,0.4276792999589816,349.1896830999758,None,348.6891075000167,348.79003160004504,348.79003160004504,None,349.64009600004647,None,,,,,,,11020,001,2024_Jan_05_1031,ANT,2021.2.3,59.422790770254856,
1,4,no,up,IC,R,,,,,,Block.xlsx,"你已经完成了第一个实验区组

请稍作休息


点击空格键进入下一个区组。",50,0,1.5,right,LLRLL.png,,,,,0,0,0,0,2,20,68,3,,,,,,,,,,,,,,,,,,,,,,,,,,,,,,,,,,,,,,,,,,,,,,,,,,,,,,,,,,,,,,,,350.0410425000591,350.44135079998523,350.42465180007275,350.5253889000742,350.92717849998735,None,right,1,0.4502535000210628,350.92717849998735,None,350.42465180007275,350.5253889000742,350.5253889000742,None,351.3926574999932,None,,,,,,,11020,001,2024_Jan_05_1031,ANT,2021.2.3,59.422790770254856,
1,18,spatial,up,C,R,,,,,,Block.xlsx,"你已经完成了第一个实验区组

请稍作休息


点击空格键进入下一个区组。",1.5,0,1.5,right,RRRRR.png,,,,,0,0,0,0,2,21,69,17,,,,,,,,,,,,,,,,,,,,,,,,,,,,,,,,,,,,,,,,,,,,,,,,,,,,,,,,,,,,,,,,351.79340219998267,352.1949437999865,352.1770757000195,352.2780268000206,352.67934230004903,None,right,1,0.3939614000264555,352.67934230004903,None,352.1770757000195,352.2780268000206,352.2780268000206,None,353.0951784000499,None,,,,,,,11020,001,2024_Jan_05_1031,ANT,2021.2.3,59.422790770254856,
1,4,no,up,IC,R,,,,,,Block.xlsx,"你已经完成了第一个实验区组

请稍作休息


点击空格键进入下一个区组。",50,0,1.5,right,LLRLL.png,,,,,0,0,0,0,2,22,70,3,,,,,,,,,,,,,,,,,,,,,,,,,,,,,,,,,,,,,,,,,,,,,,,,,,,,,,,,,,,,,,,,353.496536700055,353.89728560007643,353.8802786000306,353.9803609000519,354.3804964000592,None,right,1,0.3568419999210164,354.3804964000592,None,353.8802786000306,353.9803609000519,353.9803609000519,None,354.76438200008124,None,,,,,,,11020,001,2024_Jan_05_1031,ANT,2021.2.3,59.422790770254856,
1,17,spatial,up,C,L,,,,,,Block.xlsx,"你已经完成了第一个实验区组

请稍作休息


点击空格键进入下一个区组。",1.5,0,1.5,left,LLLLL.png,,,,,0,0,0,0,2,23,71,16,,,,,,,,,,,,,,,,,,,,,,,,,,,,,,,,,,,,,,,,,,,,,,,,,,,,,,,,,,,,,,,,355.1655010000104,355.565588700003,355.5493828000035,355.6507735999767,356.05224029999226,None,left,1,0.4135441998951137,356.05224029999226,None,355.5493828000035,355.6507735999767,355.6507735999767,None,356.4836072999751,None,,,,,,,11020,001,2024_Jan_05_1031,ANT,2021.2.3,59.422790770254856,
1,18,spatial,up,C,R,,,,,,Block.xlsx,"你已经完成了第一个实验区组

请稍作休息


点击空格键进入下一个区组。",1.5,0,1.5,right,RRRRR.png,,,,,0,0,0,0,3,0,72,17,,,,,,,,,,,,,,,,,,,,,,,,,,,,,,,,,,,,,,,,,,,,,,,,,,,,,,,,,,,,,,,,356.8840417000465,357.2852740000235,357.26816500001587,357.3687983000418,357.7705851000501,None,right,1,0.3668401000322774,357.7705851000501,None,357.26816500001587,357.3687983000418,357.3687983000418,None,358.15255370002706,None,,,,,,,11020,001,2024_Jan_05_1031,ANT,2021.2.3,59.422790770254856,
1,18,spatial,up,C,R,,,,,,Block.xlsx,"你已经完成了第一个实验区组

请稍作休息


点击空格键进入下一个区组。",1.5,0,1.5,right,RRRRR.png,,,,,0,0,0,0,3,1,73,17,,,,,,,,,,,,,,,,,,,,,,,,,,,,,,,,,,,,,,,,,,,,,,,,,,,,,,,,,,,,,,,,358.55392930004746,358.9541884000646,358.9385253000073,359.03944339999,359.43923050002195,None,right,1,0.3303583998931572,359.43923050002195,None,358.9385253000073,359.03944339999,359.03944339999,None,359.7884990000166,None,,,,,,,11020,001,2024_Jan_05_1031,ANT,2021.2.3,59.422790770254856,
1,13,center,down,C,L,,,,,,Block.xlsx,"你已经完成了第一个实验区组

请稍作休息


点击空格键进入下一个区组。",0,50,-1.5,left,LLLLL.png,,,,,0,0,0,0,3,2,74,12,,,,,,,,,,,,,,,,,,,,,,,,,,,,,,,,,,,,,,,,,,,,,,,,,,,,,,,,,,,,,,,,360.1892619000282,360.59042859997135,360.5731609000359,360.673700000043,361.0744825999718,None,left,1,0.43898159998934716,361.0744825999718,None,360.5731609000359,360.673700000043,360.673700000043,None,361.5426167000551,None,,,,,,,11020,001,2024_Jan_05_1031,ANT,2021.2.3,59.422790770254856,
1,16,center,down,IC,R,,,,,,Block.xlsx,"你已经完成了第一个实验区组

请稍作休息


点击空格键进入下一个区组。",0,50,-1.5,right,LLRLL.png,,,,,0,0,0,0,3,3,75,15,,,,,,,,,,,,,,,,,,,,,,,,,,,,,,,,,,,,,,,,,,,,,,,,,,,,,,,,,,,,,,,,361.9417037999956,362.3432375000557,362.3256865000585,362.42570150003303,362.82663640007377,None,right,1,0.4550730000482872,362.82663640007377,None,362.3256865000585,362.42570150003303,362.42570150003303,None,363.310353100067,None,,,,,,,11020,001,2024_Jan_05_1031,ANT,2021.2.3,59.422790770254856,
1,20,spatial,up,IC,R,,,,,,Block.xlsx,"你已经完成了第一个实验区组

请稍作休息


点击空格键进入下一个区组。",1.5,0,1.5,right,LLRLL.png,,,,,0,0,0,0,3,4,76,19,,,,,,,,,,,,,,,,,,,,,,,,,,,,,,,,,,,,,,,,,,,,,,,,,,,,,,,,,,,,,,,,363.71255830000155,364.1129347999813,364.09524330007844,364.19713380001485,364.5955552000087,None,right,1,0.38991520006675273,364.5955552000087,None,364.09524330007844,364.19713380001485,364.19713380001485,None,365.01287900004536,None,,,,,,,11020,001,2024_Jan_05_1031,ANT,2021.2.3,59.422790770254856,
1,20,spatial,up,IC,R,,,,,,Block.xlsx,"你已经完成了第一个实验区组

请稍作休息


点击空格键进入下一个区组。",1.5,0,1.5,right,LLRLL.png,,,,,0,0,0,0,3,5,77,19,,,,,,,,,,,,,,,,,,,,,,,,,,,,,,,,,,,,,,,,,,,,,,,,,,,,,,,,,,,,,,,,365.414139600005,365.8151118999813,365.7982877000468,365.89810750004835,366.30018919997383,None,right,1,0.3814667999977246,366.30018919997383,None,365.7982877000468,365.89810750004835,365.89810750004835,None,366.6987546000164,None,,,,,,,11020,001,2024_Jan_05_1031,ANT,2021.2.3,59.422790770254856,
1,5,no,down,C,L,,,,,,Block.xlsx,"你已经完成了第一个实验区组

请稍作休息


点击空格键进入下一个区组。",50,0,-1.5,left,LLLLL.png,,,,,0,0,0,0,3,6,78,4,,,,,,,,,,,,,,,,,,,,,,,,,,,,,,,,,,,,,,,,,,,,,,,,,,,,,,,,,,,,,,,,367.09950110001955,367.5013990000589,367.4835867000511,367.5849698999664,367.98465040000156,None,left,1,0.3849110999144614,367.98465040000156,None,367.4835867000511,367.5849698999664,367.5849698999664,None,368.38486049999483,None,,,,,,,11020,001,2024_Jan_05_1031,ANT,2021.2.3,59.422790770254856,
1,1,no,up,C,L,,,,,,Block.xlsx,"你已经完成了第一个实验区组

请稍作休息


点击空格键进入下一个区组。",50,0,1.5,left,LLLLL.png,,,,,0,0,0,0,3,7,79,0,,,,,,,,,,,,,,,,,,,,,,,,,,,,,,,,,,,,,,,,,,,,,,,,,,,,,,,,,,,,,,,,368.785495200078,369.1859580000164,369.16892149997875,369.2707320000045,369.67053700005636,None,left,1,0.3630236000753939,369.67053700005636,None,369.16892149997875,369.2707320000045,369.2707320000045,None,370.05383540003095,None,,,,,,,11020,001,2024_Jan_05_1031,ANT,2021.2.3,59.422790770254856,
1,14,center,down,C,R,,,,,,Block.xlsx,"你已经完成了第一个实验区组

请稍作休息


点击空格键进入下一个区组。",0,50,-1.5,right,RRRRR.png,,,,,0,0,0,0,3,8,80,13,,,,,,,,,,,,,,,,,,,,,,,,,,,,,,,,,,,,,,,,,,,,,,,,,,,,,,,,,,,,,,,,370.4552460999694,370.85484609997366,370.83944830007385,370.93953530001454,371.3399002000224,None,right,1,0.350607700063847,371.3399002000224,None,370.83944830007385,370.93953530001454,370.93953530001454,None,371.70610830001533,None,,,,,,,11020,001,2024_Jan_05_1031,ANT,2021.2.3,59.422790770254856,
1,22,spatial,down,C,R,,,,,,Block.xlsx,"你已经完成了第一个实验区组

请稍作休息


点击空格键进入下一个区组。",-1.5,0,-1.5,right,RRRRR.png,,,,,0,0,0,0,3,9,81,21,,,,,,,,,,,,,,,,,,,,,,,,,,,,,,,,,,,,,,,,,,,,,,,,,,,,,,,,,,,,,,,,372.10657240008004,372.5079747000709,372.4913157999981,372.59147390001453,372.9925514999777,None,right,1,0.34499410004355013,372.9925514999777,None,372.4913157999981,372.59147390001453,372.59147390001453,None,373.358591599972,None,,,,,,,11020,001,2024_Jan_05_1031,ANT,2021.2.3,59.422790770254856,
1,21,spatial,down,C,L,,,,,,Block.xlsx,"你已经完成了第一个实验区组

请稍作休息


点击空格键进入下一个区组。",-1.5,0,-1.5,left,LLLLL.png,,,,,0,0,0,0,3,10,82,20,,,,,,,,,,,,,,,,,,,,,,,,,,,,,,,,,,,,,,,,,,,,,,,,,,,,,,,,,,,,,,,,373.75999220006634,374.1616400000639,374.1431897999719,374.24338190001436,374.64513239997905,None,left,1,0.39669369999319315,374.64513239997905,None,374.1431897999719,374.24338190001436,374.24338190001436,None,375.06111030001193,None,,,,,,,11020,001,2024_Jan_05_1031,ANT,2021.2.3,59.422790770254856,
1,10,center,up,C,R,,,,,,Block.xlsx,"你已经完成了第一个实验区组

请稍作休息


点击空格键进入下一个区组。",0,50,1.5,right,RRRRR.png,,,,,0,0,0,0,3,11,83,9,,,,,,,,,,,,,,,,,,,,,,,,,,,,,,,,,,,,,,,,,,,,,,,,,,,,,,,,,,,,,,,,375.4617261000676,375.8630008000182,375.8456917000003,375.9462446999969,376.34704010002315,None,right,1,0.40638260007835925,376.34704010002315,None,375.8456917000003,375.9462446999969,375.9462446999969,None,376.7804922000505,None,,,,,,,11020,001,2024_Jan_05_1031,ANT,2021.2.3,59.422790770254856,
1,11,center,up,IC,L,,,,,,Block.xlsx,"你已经完成了第一个实验区组

请稍作休息


点击空格键进入下一个区组。",0,50,1.5,left,RRLRR.png,,,,,0,0,0,0,3,12,84,10,,,,,,,,,,,,,,,,,,,,,,,,,,,,,,,,,,,,,,,,,,,,,,,,,,,,,,,,,,,,,,,,377.1812905999832,377.5834837000584,377.5653999000788,377.6671207000036,378.06678360002115,None,left,1,0.5907000999432057,378.06678360002115,None,377.5653999000788,377.6671207000036,377.6671207000036,None,378.6831902000122,None,,,,,,,11020,001,2024_Jan_05_1031,ANT,2021.2.3,59.422790770254856,
1,11,center,up,IC,L,,,,,,Block.xlsx,"你已经完成了第一个实验区组

请稍作休息


点击空格键进入下一个区组。",0,50,1.5,left,RRLRR.png,,,,,0,0,0,0,3,13,85,10,,,,,,,,,,,,,,,,,,,,,,,,,,,,,,,,,,,,,,,,,,,,,,,,,,,,,,,,,,,,,,,,379.0837631999748,379.48538239998743,379.46776600007433,379.5684029000113,379.9705603000475,None,left,1,0.5508252000436187,379.9705603000475,None,379.46776600007433,379.5684029000113,379.5684029000113,None,380.55267970007844,None,,,,,,,11020,001,2024_Jan_05_1031,ANT,2021.2.3,59.422790770254856,
1,9,center,up,C,L,,,,,,Block.xlsx,"你已经完成了第一个实验区组

请稍作休息


点击空格键进入下一个区组。",0,50,1.5,left,LLLLL.png,,,,,0,0,0,0,3,14,86,8,,,,,,,,,,,,,,,,,,,,,,,,,,,,,,,,,,,,,,,,,,,,,,,,,,,,,,,,,,,,,,,,380.9532578000799,381.35443910001777,381.3374044999946,381.43880310002714,381.83890259999316,None,left,1,0.3467206999193877,381.83890259999316,None,381.3374044999946,381.43880310002714,381.43880310002714,None,382.20508990006056,None,,,,,,,11020,001,2024_Jan_05_1031,ANT,2021.2.3,59.422790770254856,
1,15,center,down,IC,L,,,,,,Block.xlsx,"你已经完成了第一个实验区组

请稍作休息


点击空格键进入下一个区组。",0,50,-1.5,left,RRLRR.png,,,,,0,0,0,0,3,15,87,14,,,,,,,,,,,,,,,,,,,,,,,,,,,,,,,,,,,,,,,,,,,,,,,,,,,,,,,,,,,,,,,,382.60615060001146,383.0077615000773,382.98960840003565,383.08958650007844,383.49084410001524,None,left,1,0.6465345000615343,383.49084410001524,None,382.98960840003565,383.08958650007844,383.08958650007844,None,384.1580257000169,None,,,,,,,11020,001,2024_Jan_05_1031,ANT,2021.2.3,59.422790770254856,
1,12,center,up,IC,R,,,,,,Block.xlsx,"你已经完成了第一个实验区组

请稍作休息


点击空格键进入下一个区组。",0,50,1.5,right,LLRLL.png,,,,,0,0,0,0,3,16,88,11,,,,,,,,,,,,,,,,,,,,,,,,,,,,,,,,,,,,,,,,,,,,,,,,,,,,,,,,,,,,,,,,384.55837350001093,384.9591228000354,384.9442277000053,385.0431530000642,385.4436896999832,None,right,1,0.42976870003622025,385.4436896999832,None,384.9442277000053,385.0431530000642,385.0431530000642,None,385.89386589999776,None,,,,,,,11020,001,2024_Jan_05_1031,ANT,2021.2.3,59.422790770254856,
1,15,center,down,IC,L,,,,,,Block.xlsx,"你已经完成了第一个实验区组

请稍作休息


点击空格键进入下一个区组。",0,50,-1.5,left,RRLRR.png,,,,,0,0,0,0,3,17,89,14,,,,,,,,,,,,,,,,,,,,,,,,,,,,,,,,,,,,,,,,,,,,,,,,,,,,,,,,,,,,,,,,386.29465419996995,386.6960009000031,386.67908510006964,386.7790611999808,387.1791224000044,None,left,1,0.5263551999814808,387.1791224000044,None,386.67908510006964,386.7790611999808,386.7790611999808,None,387.72979340003803,None,,,,,,,11020,001,2024_Jan_05_1031,ANT,2021.2.3,59.422790770254856,
1,2,no,up,C,R,,,,,,Block.xlsx,"你已经完成了第一个实验区组

请稍作休息


点击空格键进入下一个区组。",50,0,1.5,right,RRRRR.png,,,,,0,0,0,0,3,18,90,1,,,,,,,,,,,,,,,,,,,,,,,,,,,,,,,,,,,,,,,,,,,,,,,,,,,,,,,,,,,,,,,,388.13063570007216,388.5332735000411,388.515072899987,388.61448139999993,389.01546650007367,None,right,1,0.44246629998087883,389.01546650007367,None,388.515072899987,388.61448139999993,388.61448139999993,None,389.48284890002105,None,,,,,,,11020,001,2024_Jan_05_1031,ANT,2021.2.3,59.422790770254856,
1,23,spatial,down,IC,L,,,,,,Block.xlsx,"你已经完成了第一个实验区组

请稍作休息


点击空格键进入下一个区组。",-1.5,0,-1.5,left,RRLRR.png,,,,,0,0,0,0,3,19,91,22,,,,,,,,,,,,,,,,,,,,,,,,,,,,,,,,,,,,,,,,,,,,,,,,,,,,,,,,,,,,,,,,389.8835970000364,390.2855190000264,390.2669416000135,390.3674163999967,390.7679014999885,None,left,1,0.37755179998930544,390.7679014999885,None,390.2669416000135,390.3674163999967,390.3674163999967,None,391.16835280007217,None,,,,,,,11020,001,2024_Jan_05_1031,ANT,2021.2.3,59.422790770254856,
1,9,center,up,C,L,,,,,,Block.xlsx,"你已经完成了第一个实验区组

请稍作休息


点击空格键进入下一个区组。",0,50,1.5,left,LLLLL.png,,,,,0,0,0,0,3,20,92,8,,,,,,,,,,,,,,,,,,,,,,,,,,,,,,,,,,,,,,,,,,,,,,,,,,,,,,,,,,,,,,,,391.5690768000204,391.96978859999217,391.95315700001083,392.0530199999921,392.4538418999873,None,left,1,0.41952829994261265,392.4538418999873,None,391.95315700001083,392.0530199999921,392.0530199999921,None,392.9042963000247,None,,,,,,,11020,001,2024_Jan_05_1031,ANT,2021.2.3,59.422790770254856,
1,13,center,down,C,L,,,,,,Block.xlsx,"你已经完成了第一个实验区组

请稍作休息


点击空格键进入下一个区组。",0,50,-1.5,left,LLLLL.png,,,,,0,0,0,0,3,21,93,12,,,,,,,,,,,,,,,,,,,,,,,,,,,,,,,,,,,,,,,,,,,,,,,,,,,,,,,,,,,,,,,,393.305477200076,393.70637809997424,393.68955760006793,393.7895927000791,394.19020020007156,None,left,1,0.37150909996125847,394.19020020007156,None,393.68955760006793,393.7895927000791,393.7895927000791,None,394.591128100059,None,,,,,,,11020,001,2024_Jan_05_1031,ANT,2021.2.3,59.422790770254856,
1,17,spatial,up,C,L,,,,,,Block.xlsx,"你已经完成了第一个实验区组

请稍作休息


点击空格键进入下一个区组。",1.5,0,1.5,left,LLLLL.png,,,,,0,0,0,0,3,22,94,16,,,,,,,,,,,,,,,,,,,,,,,,,,,,,,,,,,,,,,,,,,,,,,,,,,,,,,,,,,,,,,,,394.9906228000764,395.3912719000364,395.376333000022,395.49262050003745,395.87592040002346,None,left,1,0.3100056000985205,395.87592040002346,None,395.376333000022,395.49262050003745,395.47510729997884,None,396.2096887000371,None,,,,,,,11020,001,2024_Jan_05_1031,ANT,2021.2.3,59.422790770254856,
1,7,no,down,IC,L,,,,,,Block.xlsx,"你已经完成了第一个实验区组

请稍作休息


点击空格键进入下一个区组。",50,0,-1.5,left,RRLRR.png,,,,,0,0,0,0,3,23,95,6,,,,,,,,,,,,,,,,,,,,,,,,,,,,,,,,,,,,,,,,,,,,,,,,,,,,,,,,,,,,,,,,396.6097127000103,397.01137630001176,396.9938994999975,397.09375840006396,397.4966122000478,None,left,1,0.41681129997596145,397.4966122000478,None,396.9938994999975,397.09375840006396,397.09375840006396,None,397.9283346000593,None,,,,,,,11020,001,2024_Jan_05_1031,ANT,2021.2.3,59.422790770254856,
,,,,,,,,,,,Block.xlsx,"你已经完成了第一个实验区组

请稍作休息


点击空格键进入下一个区组。",,,,,,,,,,0,0,0,0,,,,,,,,,,,,,,,,,,,,,,,,,,,,,,,,,,,,,,,,,,,,,,,,,,,,,,,,,,,,,,,,,,,,,,,,,,,,,,,,,,,,,space,15.59285309992265,398.3286691000685,None,398.3286691000685,None,11020,001,2024_Jan_05_1031,ANT,2021.2.3,59.422790770254856,
1,9,center,up,C,L,,,,,,Block.xlsx,"你已经完成了整个实验（三个区组）。

请报告实验者已完成实验

非常感谢，再见！",0,50,1.5,left,LLLLL.png,,,,,0,1,1,1,0,0,0,8,,,,,,,,,,,,,,,,,,,,,,,,,,,,,,,,,,,,,,,,,,,,,,,,,,,,,,,,,,,,,,,,413.96857190004084,414.3700475000078,414.35255609999876,414.45422129996587,414.8542661999818,None,left,1,0.3791390999685973,414.8542661999818,None,414.35255609999876,414.45422129996587,414.46947999997064,None,415.25418250006624,None,,,,,,,11020,001,2024_Jan_05_1031,ANT,2021.2.3,59.422790770254856,
1,7,no,down,IC,L,,,,,,Block.xlsx,"你已经完成了整个实验（三个区组）。

请报告实验者已完成实验

非常感谢，再见！",50,0,-1.5,left,RRLRR.png,,,,,0,1,1,1,0,1,1,6,,,,,,,,,,,,,,,,,,,,,,,,,,,,,,,,,,,,,,,,,,,,,,,,,,,,,,,,,,,,,,,,415.65463750006165,416.0568268999923,416.03897750005126,416.13863940001465,416.5393506999826,None,left,1,0.5261900000041351,416.5393506999826,None,416.03897750005126,416.13863940001465,416.13863940001465,None,417.0900701000355,None,,,,,,,11020,001,2024_Jan_05_1031,ANT,2021.2.3,59.422790770254856,
1,19,spatial,up,IC,L,,,,,,Block.xlsx,"你已经完成了整个实验（三个区组）。

请报告实验者已完成实验

非常感谢，再见！",1.5,0,1.5,left,RRLRR.png,,,,,0,1,1,1,0,2,2,18,,,,,,,,,,,,,,,,,,,,,,,,,,,,,,,,,,,,,,,,,,,,,,,,,,,,,,,,,,,,,,,,417.4907588000642,417.89147270005196,417.8752957000397,417.97599289997015,418.37615720008034,None,left,1,0.3382844999432564,418.37615720008034,None,417.8752957000397,417.97599289997015,417.97599289997015,None,418.74271490005776,None,,,,,,,11020,001,2024_Jan_05_1031,ANT,2021.2.3,59.422790770254856,
1,10,center,up,C,R,,,,,,Block.xlsx,"你已经完成了整个实验（三个区组）。

请报告实验者已完成实验

非常感谢，再见！",0,50,1.5,right,RRRRR.png,,,,,0,1,1,1,0,3,3,9,,,,,,,,,,,,,,,,,,,,,,,,,,,,,,,,,,,,,,,,,,,,,,,,,,,,,,,,,,,,,,,,419.14343180006836,419.5438599999761,419.52782359998673,419.62787329999264,420.02842870005406,None,right,1,0.3729950999841094,420.02842870005406,None,419.52782359998673,419.62787329999264,419.62787329999264,None,420.4290882999776,None,,,,,,,11020,001,2024_Jan_05_1031,ANT,2021.2.3,59.422790770254856,
1,7,no,down,IC,L,,,,,,Block.xlsx,"你已经完成了整个实验（三个区组）。

请报告实验者已完成实验

非常感谢，再见！",50,0,-1.5,left,RRLRR.png,,,,,0,1,1,1,0,4,4,6,,,,,,,,,,,,,,,,,,,,,,,,,,,,,,,,,,,,,,,,,,,,,,,,,,,,,,,,,,,,,,,,420.8291105000535,421.2306554999668,421.2132027000189,421.31384970003273,421.714813800063,None,left,1,0.5116382000269368,421.714813800063,None,421.2132027000189,421.31384970003273,421.31384970003273,None,422.24774740007706,None,,,,,,,11020,001,2024_Jan_05_1031,ANT,2021.2.3,59.422790770254856,
1,8,no,down,IC,R,,,,,,Block.xlsx,"你已经完成了整个实验（三个区组）。

请报告实验者已完成实验

非常感谢，再见！",50,0,-1.5,right,LLRLL.png,,,,,0,1,1,1,0,5,5,7,,,,,,,,,,,,,,,,,,,,,,,,,,,,,,,,,,,,,,,,,,,,,,,,,,,,,,,,,,,,,,,,422.6487025000388,423.0500403000042,423.0330369999865,423.132527400041,423.53421000007074,None,right,1,0.5393000000622123,423.53421000007074,None,423.0330369999865,423.132527400041,423.132527400041,None,424.10044389998075,None,,,,,,,11020,001,2024_Jan_05_1031,ANT,2021.2.3,59.422790770254856,
1,16,center,down,IC,R,,,,,,Block.xlsx,"你已经完成了整个实验（三个区组）。

请报告实验者已完成实验

非常感谢，再见！",0,50,-1.5,right,LLRLL.png,,,,,0,1,1,1,0,6,6,15,,,,,,,,,,,,,,,,,,,,,,,,,,,,,,,,,,,,,,,,,,,,,,,,,,,,,,,,,,,,,,,,424.5010934000602,424.9025378000224,424.8849630000768,424.98507419996895,425.3866104000481,None,right,1,0.4708927000174299,425.3866104000481,None,424.8849630000768,424.98507419996895,424.98507419996895,None,425.8863654000452,None,,,,,,,11020,001,2024_Jan_05_1031,ANT,2021.2.3,59.422790770254856,
1,24,spatial,down,IC,R,,,,,,Block.xlsx,"你已经完成了整个实验（三个区组）。

请报告实验者已完成实验

非常感谢，再见！",-1.5,0,-1.5,right,LLRLL.png,,,,,0,1,1,1,0,7,7,23,,,,,,,,,,,,,,,,,,,,,,,,,,,,,,,,,,,,,,,,,,,,,,,,,,,,,,,,,,,,,,,,426.287067700061,426.68875780003145,426.6709619000321,426.7721159000648,427.1736709000543,None,right,1,0.42814169998746365,427.1736709000543,None,426.6709619000321,426.7721159000648,426.7721159000648,None,427.6226986000547,None,,,,,,,11020,001,2024_Jan_05_1031,ANT,2021.2.3,59.422790770254856,
1,13,center,down,C,L,,,,,,Block.xlsx,"你已经完成了整个实验（三个区组）。

请报告实验者已完成实验

非常感谢，再见！",0,50,-1.5,left,LLLLL.png,,,,,0,1,1,1,0,8,8,12,,,,,,,,,,,,,,,,,,,,,,,,,,,,,,,,,,,,,,,,,,,,,,,,,,,,,,,,,,,,,,,,428.0233400000725,428.42341120005585,428.40873390005436,428.52385830006097,428.9076898000203,None,left,1,0.35771780007053167,428.9076898000203,None,428.40873390005436,428.52385830006097,428.5086494999705,None,429.2919474999653,None,,,,,,,11020,001,2024_Jan_05_1031,ANT,2021.2.3,59.422790770254856,
1,12,center,up,IC,R,,,,,,Block.xlsx,"你已经完成了整个实验（三个区组）。

请报告实验者已完成实验

非常感谢，再见！",0,50,1.5,right,LLRLL.png,,,,,0,1,1,1,0,9,9,11,,,,,,,,,,,,,,,,,,,,,,,,,,,,,,,,,,,,,,,,,,,,,,,,,,,,,,,,,,,,,,,,429.6925636000233,430.0926638999954,430.07646510005,430.1776946000755,430.5785284000449,None,right,1,0.5350385000929236,430.5785284000449,None,430.07646510005,430.1776946000755,430.1776946000755,None,431.1444361000322,None,,,,,,,11020,001,2024_Jan_05_1031,ANT,2021.2.3,59.422790770254856,
1,12,center,up,IC,R,,,,,,Block.xlsx,"你已经完成了整个实验（三个区组）。

请报告实验者已完成实验

非常感谢，再见！",0,50,1.5,right,LLRLL.png,,,,,0,1,1,1,0,10,10,11,,,,,,,,,,,,,,,,,,,,,,,,,,,,,,,,,,,,,,,,,,,,,,,,,,,,,,,,,,,,,,,,431.54476389999036,431.94569680001587,431.9304120000452,432.0456099000294,432.4292950000381,None,right,1,0.6684074000222608,432.4292950000381,None,431.9304120000452,432.0456099000294,432.0306120000314,None,433.1138274000259,None,,,,,,,11020,001,2024_Jan_05_1031,ANT,2021.2.3,59.422790770254856,
1,23,spatial,down,IC,L,,,,,,Block.xlsx,"你已经完成了整个实验（三个区组）。

请报告实验者已完成实验

非常感谢，再见！",-1.5,0,-1.5,left,RRLRR.png,,,,,0,1,1,1,0,11,11,22,,,,,,,,,,,,,,,,,,,,,,,,,,,,,,,,,,,,,,,,,,,,,,,,,,,,,,,,,,,,,,,,433.5145080999937,433.91618810000364,433.9004721000092,434.01520450005773,434.3995033999672,None,left,1,0.4825182999484241,434.3995033999672,None,433.9004721000092,434.01520450005773,434.0004889999982,None,434.8999068000121,None,,,,,,,11020,001,2024_Jan_05_1031,ANT,2021.2.3,59.422790770254856,
1,24,spatial,down,IC,R,,,,,,Block.xlsx,"你已经完成了整个实验（三个区组）。

请报告实验者已完成实验

非常感谢，再见！",-1.5,0,-1.5,right,LLRLL.png,,,,,0,1,1,1,0,12,12,23,,,,,,,,,,,,,,,,,,,,,,,,,,,,,,,,,,,,,,,,,,,,,,,,,,,,,,,,,,,,,,,,435.3004390000133,435.70369690004736,435.68519770004787,435.7860748000676,436.1860276000807,None,right,1,0.36766610003542155,436.1860276000807,None,435.68519770004787,435.7860748000676,435.7860748000676,None,436.5689932999667,None,,,,,,,11020,001,2024_Jan_05_1031,ANT,2021.2.3,59.422790770254856,
1,19,spatial,up,IC,L,,,,,,Block.xlsx,"你已经完成了整个实验（三个区组）。

请报告实验者已完成实验

非常感谢，再见！",1.5,0,1.5,left,RRLRR.png,,,,,0,1,1,1,0,13,13,18,,,,,,,,,,,,,,,,,,,,,,,,,,,,,,,,,,,,,,,,,,,,,,,,,,,,,,,,,,,,,,,,436.9697829000652,437.37075310002547,437.3544993000105,437.45376679999754,437.8549951000605,None,left,1,0.40230880002491176,437.8549951000605,None,437.3544993000105,437.45376679999754,437.45376679999754,None,438.2882660999894,None,,,,,,,11020,001,2024_Jan_05_1031,ANT,2021.2.3,59.422790770254856,
1,8,no,down,IC,R,,,,,,Block.xlsx,"你已经完成了整个实验（三个区组）。

请报告实验者已完成实验

非常感谢，再见！",50,0,-1.5,right,LLRLL.png,,,,,0,1,1,1,0,14,14,7,,,,,,,,,,,,,,,,,,,,,,,,,,,,,,,,,,,,,,,,,,,,,,,,,,,,,,,,,,,,,,,,438.68869880004786,439.09010989998933,439.0724811999826,439.17291339999065,439.5741750000743,None,right,1,0.3559142999583855,439.5741750000743,None,439.0724811999826,439.17291339999065,439.17291339999065,None,439.9571324000135,None,,,,,,,11020,001,2024_Jan_05_1031,ANT,2021.2.3,59.422790770254856,
1,1,no,up,C,L,,,,,,Block.xlsx,"你已经完成了整个实验（三个区组）。

请报告实验者已完成实验

非常感谢，再见！",50,0,1.5,left,LLLLL.png,,,,,0,1,1,1,0,15,15,0,,,,,,,,,,,,,,,,,,,,,,,,,,,,,,,,,,,,,,,,,,,,,,,,,,,,,,,,,,,,,,,,440.3578169000102,440.7602288000053,440.74244399997406,440.84337630006485,441.24393480003346,None,left,1,0.31796680006664246,441.24393480003346,None,440.74244399997406,440.84337630006485,440.84337630006485,None,441.5763675000053,None,,,,,,,11020,001,2024_Jan_05_1031,ANT,2021.2.3,59.422790770254856,
1,4,no,up,IC,R,,,,,,Block.xlsx,"你已经完成了整个实验（三个区组）。

请报告实验者已完成实验

非常感谢，再见！",50,0,1.5,right,LLRLL.png,,,,,0,1,1,1,0,16,16,3,,,,,,,,,,,,,,,,,,,,,,,,,,,,,,,,,,,,,,,,,,,,,,,,,,,,,,,,,,,,,,,,441.97690620005596,442.37759539997205,442.3624312999891,442.4787376000313,442.86297380004544,None,right,1,0.5465978001011536,442.86297380004544,None,442.3624312999891,442.4787376000313,442.4618383999914,None,443.4290898999898,None,,,,,,,11020,001,2024_Jan_05_1031,ANT,2021.2.3,59.422790770254856,
1,7,no,down,IC,L,,,,,,Block.xlsx,"你已经完成了整个实验（三个区组）。

请报告实验者已完成实验

非常感谢，再见！",50,0,-1.5,left,RRLRR.png,,,,,0,1,1,1,0,17,17,6,,,,,,,,,,,,,,,,,,,,,,,,,,,,,,,,,,,,,,,,,,,,,,,,,,,,,,,,,,,,,,,,443.8295861000661,444.23071879998315,444.21531010000035,444.33117370004766,444.71440020005684,None,left,1,0.4634729999816045,444.71440020005684,None,444.21531010000035,444.33117370004766,444.31551950005814,None,445.19874540006276,None,,,,,,,11020,001,2024_Jan_05_1031,ANT,2021.2.3,59.422790770254856,
1,20,spatial,up,IC,R,,,,,,Block.xlsx,"你已经完成了整个实验（三个区组）。

请报告实验者已完成实验

非常感谢，再见！",1.5,0,1.5,right,LLRLL.png,,,,,0,1,1,1,0,18,18,19,,,,,,,,,,,,,,,,,,,,,,,,,,,,,,,,,,,,,,,,,,,,,,,,,,,,,,,,,,,,,,,,445.5991396000609,446.00129150005523,445.98367610003334,446.0831507999683,446.4845870999852,None,right,1,0.4369622999802232,446.4845870999852,None,445.98367610003334,446.0831507999683,446.0831507999683,None,446.9511827999959,None,,,,,,,11020,001,2024_Jan_05_1031,ANT,2021.2.3,59.422790770254856,
1,5,no,down,C,L,,,,,,Block.xlsx,"你已经完成了整个实验（三个区组）。

请报告实验者已完成实验

非常感谢，再见！",50,0,-1.5,left,LLLLL.png,,,,,0,1,1,1,0,19,19,4,,,,,,,,,,,,,,,,,,,,,,,,,,,,,,,,,,,,,,,,,,,,,,,,,,,,,,,,,,,,,,,,447.35202710004523,447.75292090000585,447.73751350003295,447.85348859999795,448.2373359000776,None,left,1,0.3641592999920249,448.2373359000776,None,447.73751350003295,447.85348859999795,447.83636349998415,None,448.6202356000431,None,,,,,,,11020,001,2024_Jan_05_1031,ANT,2021.2.3,59.422790770254856,
1,22,spatial,down,C,R,,,,,,Block.xlsx,"你已经完成了整个实验（三个区组）。

请报告实验者已完成实验

非常感谢，再见！",-1.5,0,-1.5,right,RRRRR.png,,,,,0,1,1,1,0,20,20,21,,,,,,,,,,,,,,,,,,,,,,,,,,,,,,,,,,,,,,,,,,,,,,,,,,,,,,,,,,,,,,,,449.02082480001263,449.42211500008125,449.4064262000611,449.50508899998385,449.9066903999774,None,right,1,0.43156469997484237,449.9066903999774,None,449.4064262000611,449.50508899998385,449.50508899998385,None,450.35595220001414,None,,,,,,,11020,001,2024_Jan_05_1031,ANT,2021.2.3,59.422790770254856,
1,24,spatial,down,IC,R,,,,,,Block.xlsx,"你已经完成了整个实验（三个区组）。

请报告实验者已完成实验

非常感谢，再见！",-1.5,0,-1.5,right,LLRLL.png,,,,,0,1,1,1,0,21,21,23,,,,,,,,,,,,,,,,,,,,,,,,,,,,,,,,,,,,,,,,,,,,,,,,,,,,,,,,,,,,,,,,450.7569827999687,451.1571113000391,451.1410992000019,451.2415927000111,451.6413505000528,None,right,1,0.4164606999838725,451.6413505000528,None,451.1410992000019,451.2415927000111,451.2415927000111,None,452.07515569997486,None,,,,,,,11020,001,2024_Jan_05_1031,ANT,2021.2.3,59.422790770254856,
1,3,no,up,IC,L,,,,,,Block.xlsx,"你已经完成了整个实验（三个区组）。

请报告实验者已完成实验

非常感谢，再见！",50,0,1.5,left,RRLRR.png,,,,,0,1,1,1,0,22,22,2,,,,,,,,,,,,,,,,,,,,,,,,,,,,,,,,,,,,,,,,,,,,,,,,,,,,,,,,,,,,,,,,452.47632590006106,452.8772751999786,452.8599071999779,452.96020850003697,453.3615723999683,None,left,1,0.5679248999804258,453.3615723999683,None,452.8599071999779,452.96020850003697,452.96020850003697,None,453.9447793000145,None,,,,,,,11020,001,2024_Jan_05_1031,ANT,2021.2.3,59.422790770254856,
1,20,spatial,up,IC,R,,,,,,Block.xlsx,"你已经完成了整个实验（三个区组）。

请报告实验者已完成实验

非常感谢，再见！",1.5,0,1.5,right,LLRLL.png,,,,,0,1,1,1,0,23,23,19,,,,,,,,,,,,,,,,,,,,,,,,,,,,,,,,,,,,,,,,,,,,,,,,,,,,,,,,,,,,,,,,454.34541840001475,454.7473844999913,454.72969479998574,454.83183010003995,455.22968570003286,None,right,1,0.4128340999595821,455.22968570003286,None,454.72969479998574,454.83183010003995,454.83183010003995,None,455.6639234999893,None,,,,,,,11020,001,2024_Jan_05_1031,ANT,2021.2.3,59.422790770254856,
1,14,center,down,C,R,,,,,,Block.xlsx,"你已经完成了整个实验（三个区组）。

请报告实验者已完成实验

非常感谢，再见！",0,50,-1.5,right,RRRRR.png,,,,,0,1,1,1,1,0,24,13,,,,,,,,,,,,,,,,,,,,,,,,,,,,,,,,,,,,,,,,,,,,,,,,,,,,,,,,,,,,,,,,456.0646805000724,456.46558119996917,456.4494286000263,456.54884349997155,456.9493510000175,None,right,1,0.45220039994455874,456.9493510000175,None,456.4494286000263,456.54884349997155,456.54884349997155,None,457.4164118000772,None,,,,,,,11020,001,2024_Jan_05_1031,ANT,2021.2.3,59.422790770254856,
1,11,center,up,IC,L,,,,,,Block.xlsx,"你已经完成了整个实验（三个区组）。

请报告实验者已完成实验

非常感谢，再见！",0,50,1.5,left,RRLRR.png,,,,,0,1,1,1,1,1,25,10,,,,,,,,,,,,,,,,,,,,,,,,,,,,,,,,,,,,,,,,,,,,,,,,,,,,,,,,,,,,,,,,457.8170652000699,458.219477500068,458.2016743000131,458.30295549996663,458.70179109997116,None,left,1,0.4596629000734538,458.70179109997116,None,458.2016743000131,458.30295549996663,458.30295549996663,None,459.18579510005657,None,,,,,,,11020,001,2024_Jan_05_1031,ANT,2021.2.3,59.422790770254856,
1,2,no,up,C,R,,,,,,Block.xlsx,"你已经完成了整个实验（三个区组）。

请报告实验者已完成实验

非常感谢，再见！",50,0,1.5,right,RRRRR.png,,,,,0,1,1,1,1,2,26,1,,,,,,,,,,,,,,,,,,,,,,,,,,,,,,,,,,,,,,,,,,,,,,,,,,,,,,,,,,,,,,,,459.5871199000394,459.9880243000807,459.97157080005854,460.07108600006904,460.4723848999711,None,right,1,0.6812125999713317,460.4723848999711,None,459.97157080005854,460.07108600006904,460.07108600006904,None,461.1720527000725,None,,,,,,,11020,001,2024_Jan_05_1031,ANT,2021.2.3,59.422790770254856,
1,19,spatial,up,IC,L,,,,,,Block.xlsx,"你已经完成了整个实验（三个区组）。

请报告实验者已完成实验

非常感谢，再见！",1.5,0,1.5,left,RRLRR.png,,,,,0,1,1,1,1,3,27,18,,,,,,,,,,,,,,,,,,,,,,,,,,,,,,,,,,,,,,,,,,,,,,,,,,,,,,,,,,,,,,,,461.5727665000595,461.97414690000005,461.9573658000445,462.0573713000631,462.45831160002854,None,left,1,0.3993443000363186,462.45831160002854,None,461.9573658000445,462.0573713000631,462.0573713000631,None,462.87451420002617,None,,,,,,,11020,001,2024_Jan_05_1031,ANT,2021.2.3,59.422790770254856,
1,4,no,up,IC,R,,,,,,Block.xlsx,"你已经完成了整个实验（三个区组）。

请报告实验者已完成实验

非常感谢，再见！",50,0,1.5,right,LLRLL.png,,,,,0,1,1,1,1,4,28,3,,,,,,,,,,,,,,,,,,,,,,,,,,,,,,,,,,,,,,,,,,,,,,,,,,,,,,,,,,,,,,,,463.27525649999734,463.6765982999932,463.6602259000065,463.7601174999727,464.1600452000275,None,right,1,0.3854626000393182,464.1600452000275,None,463.6602259000065,463.7601174999727,463.7601174999727,None,464.56061609997414,None,,,,,,,11020,001,2024_Jan_05_1031,ANT,2021.2.3,59.422790770254856,
1,18,spatial,up,C,R,,,,,,Block.xlsx,"你已经完成了整个实验（三个区组）。

请报告实验者已完成实验

非常感谢，再见！",1.5,0,1.5,right,RRRRR.png,,,,,0,1,1,1,1,5,29,17,,,,,,,,,,,,,,,,,,,,,,,,,,,,,,,,,,,,,,,,,,,,,,,,,,,,,,,,,,,,,,,,464.96140590007417,465.3622282000724,465.34554440004285,465.44544300006237,465.84665479999967,None,right,1,0.3231081999838352,465.84665479999967,None,465.34554440004285,465.44544300006237,465.44544300006237,None,466.196162700071,None,,,,,,,11020,001,2024_Jan_05_1031,ANT,2021.2.3,59.422790770254856,
1,22,spatial,down,C,R,,,,,,Block.xlsx,"你已经完成了整个实验（三个区组）。

请报告实验者已完成实验

非常感谢，再见！",-1.5,0,-1.5,right,RRRRR.png,,,,,0,1,1,1,1,6,30,21,,,,,,,,,,,,,,,,,,,,,,,,,,,,,,,,,,,,,,,,,,,,,,,,,,,,,,,,,,,,,,,,466.5968265000265,466.9981792999897,466.9807392000221,467.081709900056,467.4821248999797,None,right,1,0.33565949997864664,467.4821248999797,None,466.9807392000221,467.081709900056,467.081709900056,None,467.8487678000238,None,,,,,,,11020,001,2024_Jan_05_1031,ANT,2021.2.3,59.422790770254856,
1,7,no,down,IC,L,,,,,,Block.xlsx,"你已经完成了整个实验（三个区组）。

请报告实验者已完成实验

非常感谢，再见！",50,0,-1.5,left,RRLRR.png,,,,,0,1,1,1,1,7,31,6,,,,,,,,,,,,,,,,,,,,,,,,,,,,,,,,,,,,,,,,,,,,,,,,,,,,,,,,,,,,,,,,468.2495562999975,468.6520062000491,468.6331799000036,468.7340410000179,469.13372290006373,None,left,1,0.5645607000915334,469.13372290006373,None,468.6331799000036,468.7340410000179,468.7340410000179,None,469.71806740004104,None,,,,,,,11020,001,2024_Jan_05_1031,ANT,2021.2.3,59.422790770254856,
1,8,no,down,IC,R,,,,,,Block.xlsx,"你已经完成了整个实验（三个区组）。

请报告实验者已完成实验

非常感谢，再见！",50,0,-1.5,right,LLRLL.png,,,,,0,1,1,1,1,8,32,7,,,,,,,,,,,,,,,,,,,,,,,,,,,,,,,,,,,,,,,,,,,,,,,,,,,,,,,,,,,,,,,,470.11873200000264,470.52087440004107,470.5031094000442,470.6030070000561,471.0033007999882,None,right,1,0.49419780005700886,471.0033007999882,None,470.5031094000442,470.6030070000561,470.6030070000561,None,471.5207893999759,None,,,,,,,11020,001,2024_Jan_05_1031,ANT,2021.2.3,59.422790770254856,
1,4,no,up,IC,R,,,,,,Block.xlsx,"你已经完成了整个实验（三个区组）。

请报告实验者已完成实验

非常感谢，再见！",50,0,1.5,right,LLRLL.png,,,,,0,1,1,1,1,9,33,3,,,,,,,,,,,,,,,,,,,,,,,,,,,,,,,,,,,,,,,,,,,,,,,,,,,,,,,,,,,,,,,,471.92128630005755,472.32201640005223,472.30511449999176,472.40542039996944,472.8057915000245,None,right,1,0.5877896000165492,472.8057915000245,None,472.30511449999176,472.40542039996944,472.40542039996944,None,473.42422460007947,None,,,,,,,11020,001,2024_Jan_05_1031,ANT,2021.2.3,59.422790770254856,
1,6,no,down,C,R,,,,,,Block.xlsx,"你已经完成了整个实验（三个区组）。

请报告实验者已完成实验

非常感谢，再见！",50,0,-1.5,right,RRRRR.png,,,,,0,1,1,1,1,10,34,5,,,,,,,,,,,,,,,,,,,,,,,,,,,,,,,,,,,,,,,,,,,,,,,,,,,,,,,,,,,,,,,,473.8252094000345,474.22689849999733,474.2086444000015,474.30856390006375,474.7088578999974,None,right,1,0.44514690001960844,474.7088578999974,None,474.2086444000015,474.30856390006375,474.30856390006375,None,475.1760935999919,None,,,,,,,11020,001,2024_Jan_05_1031,ANT,2021.2.3,59.422790770254856,
1,12,center,up,IC,R,,,,,,Block.xlsx,"你已经完成了整个实验（三个区组）。

请报告实验者已完成实验

非常感谢，再见！",0,50,1.5,right,LLRLL.png,,,,,0,1,1,1,1,11,35,11,,,,,,,,,,,,,,,,,,,,,,,,,,,,,,,,,,,,,,,,,,,,,,,,,,,,,,,,,,,,,,,,475.5767351000104,475.9780579999788,475.96138160000555,476.06171000003815,476.4619240000611,None,right,1,0.4596577000338584,476.4619240000611,None,475.96138160000555,476.06171000003815,476.06171000003815,None,476.94550000003073,None,,,,,,,11020,001,2024_Jan_05_1031,ANT,2021.2.3,59.422790770254856,
1,6,no,down,C,R,,,,,,Block.xlsx,"你已经完成了整个实验（三个区组）。

请报告实验者已完成实验

非常感谢，再见！",50,0,-1.5,right,RRRRR.png,,,,,0,1,1,1,1,12,36,5,,,,,,,,,,,,,,,,,,,,,,,,,,,,,,,,,,,,,,,,,,,,,,,,,,,,,,,,,,,,,,,,477.3470467000734,477.74655060004443,477.73088719998486,477.83057160000317,478.23078169999644,None,right,1,0.37891880003735423,478.23078169999644,None,477.73088719998486,477.83057160000317,477.83057160000317,None,478.6313385000685,None,,,,,,,11020,001,2024_Jan_05_1031,ANT,2021.2.3,59.422790770254856,
1,10,center,up,C,R,,,,,,Block.xlsx,"你已经完成了整个实验（三个区组）。

请报告实验者已完成实验

非常感谢，再见！",0,50,1.5,right,RRRRR.png,,,,,0,1,1,1,1,13,37,9,,,,,,,,,,,,,,,,,,,,,,,,,,,,,,,,,,,,,,,,,,,,,,,,,,,,,,,,,,,,,,,,479.0326150000328,479.4332219000207,479.4173024999909,479.5160439000465,479.9165998999961,None,right,1,0.3337010000832379,479.9165998999961,None,479.4173024999909,479.5160439000465,479.5160439000465,None,480.26733399997465,None,,,,,,,11020,001,2024_Jan_05_1031,ANT,2021.2.3,59.422790770254856,
1,5,no,down,C,L,,,,,,Block.xlsx,"你已经完成了整个实验（三个区组）。

请报告实验者已完成实验

非常感谢，再见！",50,0,-1.5,left,LLLLL.png,,,,,0,1,1,1,1,14,38,4,,,,,,,,,,,,,,,,,,,,,,,,,,,,,,,,,,,,,,,,,,,,,,,,,,,,,,,,,,,,,,,,480.668380600051,481.0704551000381,481.05231349996757,481.1517227999866,481.55332309997175,None,left,1,0.3762186999665573,481.55332309997175,None,481.05231349996757,481.1517227999866,481.1517227999866,None,481.9526509999996,None,,,,,,,11020,001,2024_Jan_05_1031,ANT,2021.2.3,59.422790770254856,
1,19,spatial,up,IC,L,,,,,,Block.xlsx,"你已经完成了整个实验（三个区组）。

请报告实验者已完成实验

非常感谢，再见！",1.5,0,1.5,left,RRLRR.png,,,,,0,1,1,1,1,15,39,18,,,,,,,,,,,,,,,,,,,,,,,,,,,,,,,,,,,,,,,,,,,,,,,,,,,,,,,,,,,,,,,,482.3543643000303,482.75412649998907,482.73914990003686,482.83813960000407,483.23996540007647,None,left,1,0.4015221999725327,483.23996540007647,None,482.73914990003686,482.83813960000407,482.83813960000407,None,483.6721473999787,None,,,,,,,11020,001,2024_Jan_05_1031,ANT,2021.2.3,59.422790770254856,
1,18,spatial,up,C,R,,,,,,Block.xlsx,"你已经完成了整个实验（三个区组）。

请报告实验者已完成实验

非常感谢，再见！",1.5,0,1.5,right,RRRRR.png,,,,,0,1,1,1,1,16,40,17,,,,,,,,,,,,,,,,,,,,,,,,,,,,,,,,,,,,,,,,,,,,,,,,,,,,,,,,,,,,,,,,484.0732684000395,484.4733648999827,484.45798499998637,484.55846580001526,484.9581404000055,None,right,1,0.5074702999554574,484.9581404000055,None,484.45798499998637,484.55846580001526,484.55846580001526,None,485.4915353000397,None,,,,,,,11020,001,2024_Jan_05_1031,ANT,2021.2.3,59.422790770254856,
1,21,spatial,down,C,L,,,,,,Block.xlsx,"你已经完成了整个实验（三个区组）。

请报告实验者已完成实验

非常感谢，再见！",-1.5,0,-1.5,left,LLLLL.png,,,,,0,1,1,1,1,17,41,20,,,,,,,,,,,,,,,,,,,,,,,,,,,,,,,,,,,,,,,,,,,,,,,,,,,,,,,,,,,,,,,,485.89197180001065,486.29369299998507,486.27627300005406,486.377193500055,486.77856740006246,None,left,1,0.3750438999850303,486.77856740006246,None,486.27627300005406,486.377193500055,486.377193500055,None,487.1780334999785,None,,,,,,,11020,001,2024_Jan_05_1031,ANT,2021.2.3,59.422790770254856,
1,21,spatial,down,C,L,,,,,,Block.xlsx,"你已经完成了整个实验（三个区组）。

请报告实验者已完成实验

非常感谢，再见！",-1.5,0,-1.5,left,LLLLL.png,,,,,0,1,1,1,1,18,42,20,,,,,,,,,,,,,,,,,,,,,,,,,,,,,,,,,,,,,,,,,,,,,,,,,,,,,,,,,,,,,,,,487.5784068000503,487.9791718000779,487.9619160000002,488.06209140003193,488.46253240003716,None,left,1,0.33905950002372265,488.46253240003716,None,487.9619160000002,488.06209140003193,488.06209140003193,None,488.82996260002255,None,,,,,,,11020,001,2024_Jan_05_1031,ANT,2021.2.3,59.422790770254856,
1,24,spatial,down,IC,R,,,,,,Block.xlsx,"你已经完成了整个实验（三个区组）。

请报告实验者已完成实验

非常感谢，再见！",-1.5,0,-1.5,right,LLRLL.png,,,,,0,1,1,1,1,19,43,23,,,,,,,,,,,,,,,,,,,,,,,,,,,,,,,,,,,,,,,,,,,,,,,,,,,,,,,,,,,,,,,,489.23115270002745,489.6316410000436,489.6151237000013,489.7145122999791,490.1171974000754,None,right,1,0.4127207000274211,490.1171974000754,None,489.6151237000013,489.7145122999791,489.7145122999791,None,490.549078800017,None,,,,,,,11020,001,2024_Jan_05_1031,ANT,2021.2.3,59.422790770254856,
1,2,no,up,C,R,,,,,,Block.xlsx,"你已经完成了整个实验（三个区组）。

请报告实验者已完成实验

非常感谢，再见！",50,0,1.5,right,RRRRR.png,,,,,0,1,1,1,1,20,44,1,,,,,,,,,,,,,,,,,,,,,,,,,,,,,,,,,,,,,,,,,,,,,,,,,,,,,,,,,,,,,,,,490.9507616000483,491.3512868999969,491.335568999988,491.4341224000091,491.8354595999699,None,right,1,0.45405980001669377,491.8354595999699,None,491.335568999988,491.4341224000091,491.4341224000091,None,492.3182412000606,None,,,,,,,11020,001,2024_Jan_05_1031,ANT,2021.2.3,59.422790770254856,
1,16,center,down,IC,R,,,,,,Block.xlsx,"你已经完成了整个实验（三个区组）。

请报告实验者已完成实验

非常感谢，再见！",0,50,-1.5,right,LLRLL.png,,,,,0,1,1,1,1,21,45,15,,,,,,,,,,,,,,,,,,,,,,,,,,,,,,,,,,,,,,,,,,,,,,,,,,,,,,,,,,,,,,,,492.71887460001744,493.120628100005,493.1028248000657,493.20335930003785,493.603397400002,None,right,1,0.3744203000096604,493.603397400002,None,493.1028248000657,493.20335930003785,493.20335930003785,None,494.00450040004216,None,,,,,,,11020,001,2024_Jan_05_1031,ANT,2021.2.3,59.422790770254856,
1,8,no,down,IC,R,,,,,,Block.xlsx,"你已经完成了整个实验（三个区组）。

请报告实验者已完成实验

非常感谢，再见！",50,0,-1.5,right,LLRLL.png,,,,,0,1,1,1,1,22,46,7,,,,,,,,,,,,,,,,,,,,,,,,,,,,,,,,,,,,,,,,,,,,,,,,,,,,,,,,,,,,,,,,494.4047946999781,494.80703949998133,494.78871480003,494.8892390000401,495.29006959998515,None,right,1,0.5275934999808669,495.29006959998515,None,494.78871480003,494.8892390000401,494.8892390000401,None,495.8403057999676,None,,,,,,,11020,001,2024_Jan_05_1031,ANT,2021.2.3,59.422790770254856,
1,17,spatial,up,C,L,,,,,,Block.xlsx,"你已经完成了整个实验（三个区组）。

请报告实验者已完成实验

非常感谢，再见！",1.5,0,1.5,left,LLLLL.png,,,,,0,1,1,1,1,23,47,16,,,,,,,,,,,,,,,,,,,,,,,,,,,,,,,,,,,,,,,,,,,,,,,,,,,,,,,,,,,,,,,,496.24106879998,496.64218159997836,496.625470399973,496.72490030003246,497.1262958999723,None,left,1,0.3553097000112757,497.1262958999723,None,496.625470399973,496.72490030003246,496.72490030003246,None,497.50932050007395,None,,,,,,,11020,001,2024_Jan_05_1031,ANT,2021.2.3,59.422790770254856,
1,23,spatial,down,IC,L,,,,,,Block.xlsx,"你已经完成了整个实验（三个区组）。

请报告实验者已完成实验

非常感谢，再见！",-1.5,0,-1.5,left,RRLRR.png,,,,,0,1,1,1,2,0,48,22,,,,,,,,,,,,,,,,,,,,,,,,,,,,,,,,,,,,,,,,,,,,,,,,,,,,,,,,,,,,,,,,497.91003789997194,498.31281160004437,498.2947718000505,498.3944849000545,498.7964334000135,None,left,1,0.382246500113979,498.7964334000135,None,498.2947718000505,498.3944849000545,498.3944849000545,None,499.1949664000422,None,,,,,,,11020,001,2024_Jan_05_1031,ANT,2021.2.3,59.422790770254856,
1,9,center,up,C,L,,,,,,Block.xlsx,"你已经完成了整个实验（三个区组）。

请报告实验者已完成实验

非常感谢，再见！",0,50,1.5,left,LLLLL.png,,,,,0,1,1,1,2,1,49,8,,,,,,,,,,,,,,,,,,,,,,,,,,,,,,,,,,,,,,,,,,,,,,,,,,,,,,,,,,,,,,,,499.5956398000708,499.9963786000153,499.9814518999774,500.09855160000734,500.48092240002006,None,left,1,0.3212616000091657,500.48092240002006,None,499.9814518999774,500.09855160000734,500.08033130003605,None,500.8308556000702,None,,,,,,,11020,001,2024_Jan_05_1031,ANT,2021.2.3,59.422790770254856,
1,13,center,down,C,L,,,,,,Block.xlsx,"你已经完成了整个实验（三个区组）。

请报告实验者已完成实验

非常感谢，再见！",0,50,-1.5,left,LLLLL.png,,,,,0,1,1,1,2,2,50,12,,,,,,,,,,,,,,,,,,,,,,,,,,,,,,,,,,,,,,,,,,,,,,,,,,,,,,,,,,,,,,,,501.2313021000009,501.6333793000085,501.6158903000178,501.7163494999986,502.1173135000281,None,left,1,0.33317970007192343,502.1173135000281,None,501.6158903000178,501.7163494999986,501.7163494999986,None,502.4666771000484,None,,,,,,,11020,001,2024_Jan_05_1031,ANT,2021.2.3,59.422790770254856,
1,20,spatial,up,IC,R,,,,,,Block.xlsx,"你已经完成了整个实验（三个区组）。

请报告实验者已完成实验

非常感谢，再见！",1.5,0,1.5,right,LLRLL.png,,,,,0,1,1,1,2,3,51,19,,,,,,,,,,,,,,,,,,,,,,,,,,,,,,,,,,,,,,,,,,,,,,,,,,,,,,,,,,,,,,,,502.8678272999823,503.2688404000364,503.2524069000501,503.35215769999195,503.75252139999066,None,right,1,0.33000279997941107,503.75252139999066,None,503.2524069000501,503.35215769999195,503.35215769999195,None,504.10241180006415,None,,,,,,,11020,001,2024_Jan_05_1031,ANT,2021.2.3,59.422790770254856,
1,2,no,up,C,R,,,,,,Block.xlsx,"你已经完成了整个实验（三个区组）。

请报告实验者已完成实验

非常感谢，再见！",50,0,1.5,right,RRRRR.png,,,,,0,1,1,1,2,4,52,1,,,,,,,,,,,,,,,,,,,,,,,,,,,,,,,,,,,,,,,,,,,,,,,,,,,,,,,,,,,,,,,,504.50339049997274,504.9033610000042,504.88839590002317,505.00377860001754,505.388954199967,None,right,1,0.604827200062573,505.388954199967,None,504.88839590002317,505.00377860001754,504.98814220004715,None,506.021769199986,None,,,,,,,11020,001,2024_Jan_05_1031,ANT,2021.2.3,59.422790770254856,
1,17,spatial,up,C,L,,,,,,Block.xlsx,"你已经完成了整个实验（三个区组）。

请报告实验者已完成实验

非常感谢，再见！",1.5,0,1.5,left,LLLLL.png,,,,,0,1,1,1,2,5,53,16,,,,,,,,,,,,,,,,,,,,,,,,,,,,,,,,,,,,,,,,,,,,,,,,,,,,,,,,,,,,,,,,506.42333150003105,506.8237935000798,506.80630000005476,506.9065326000564,507.3081195000559,None,left,1,0.3573510000715032,507.3081195000559,None,506.80630000005476,506.9065326000564,506.9065326000564,None,507.69117380003445,None,,,,,,,11020,001,2024_Jan_05_1031,ANT,2021.2.3,59.422790770254856,
1,4,no,up,IC,R,,,,,,Block.xlsx,"你已经完成了整个实验（三个区组）。

请报告实验者已完成实验

非常感谢，再见！",50,0,1.5,right,LLRLL.png,,,,,0,1,1,1,2,6,54,3,,,,,,,,,,,,,,,,,,,,,,,,,,,,,,,,,,,,,,,,,,,,,,,,,,,,,,,,,,,,,,,,508.09160889999475,508.4939029000234,508.47570010006893,508.5773204000434,508.97648860001937,None,right,1,0.4651357000693679,508.97648860001937,None,508.47570010006893,508.5773204000434,508.5773204000434,None,509.4603494000621,None,,,,,,,11020,001,2024_Jan_05_1031,ANT,2021.2.3,59.422790770254856,
1,9,center,up,C,L,,,,,,Block.xlsx,"你已经完成了整个实验（三个区组）。

请报告实验者已完成实验

非常感谢，再见！",0,50,1.5,left,LLLLL.png,,,,,0,1,1,1,2,7,55,8,,,,,,,,,,,,,,,,,,,,,,,,,,,,,,,,,,,,,,,,,,,,,,,,,,,,,,,,,,,,,,,,509.8617578999838,510.2620784000028,510.24590550002176,510.345529000042,510.74697019997984,None,left,1,0.430968499975279,510.74697019997984,None,510.24590550002176,510.345529000042,510.345529000042,None,511.19618890003767,None,,,,,,,11020,001,2024_Jan_05_1031,ANT,2021.2.3,59.422790770254856,
1,18,spatial,up,C,R,,,,,,Block.xlsx,"你已经完成了整个实验（三个区组）。

请报告实验者已完成实验

非常感谢，再见！",1.5,0,1.5,right,RRRRR.png,,,,,0,1,1,1,2,8,56,17,,,,,,,,,,,,,,,,,,,,,,,,,,,,,,,,,,,,,,,,,,,,,,,,,,,,,,,,,,,,,,,,511.59755649999715,511.998059000005,511.9824098000536,512.0815456999699,512.4815093000652,None,right,1,0.3124404000118375,512.4815093000652,None,511.9824098000536,512.0815456999699,512.0815456999699,None,512.8153415999841,None,,,,,,,11020,001,2024_Jan_05_1031,ANT,2021.2.3,59.422790770254856,
1,2,no,up,C,R,,,,,,Block.xlsx,"你已经完成了整个实验（三个区组）。

请报告实验者已完成实验

非常感谢，再见！",50,0,1.5,right,RRRRR.png,,,,,0,1,1,1,2,9,57,1,,,,,,,,,,,,,,,,,,,,,,,,,,,,,,,,,,,,,,,,,,,,,,,,,,,,,,,,,,,,,,,,513.2159485999728,513.6171380999731,513.6005641000811,513.7002665000036,514.101994000026,None,right,1,0.44353859999682754,514.101994000026,None,513.6005641000811,513.7002665000036,513.7002665000036,None,514.5685344000813,None,,,,,,,11020,001,2024_Jan_05_1031,ANT,2021.2.3,59.422790770254856,
1,16,center,down,IC,R,,,,,,Block.xlsx,"你已经完成了整个实验（三个区组）。

请报告实验者已完成实验

非常感谢，再见！",0,50,-1.5,right,LLRLL.png,,,,,0,1,1,1,2,10,58,15,,,,,,,,,,,,,,,,,,,,,,,,,,,,,,,,,,,,,,,,,,,,,,,,,,,,,,,,,,,,,,,,514.9684246999677,515.3690987000009,515.3541432999773,515.4529295000248,515.8533459000755,None,right,1,0.540413900045678,515.8533459000755,None,515.3541432999773,515.4529295000248,515.4529295000248,None,516.420930000022,None,,,,,,,11020,001,2024_Jan_05_1031,ANT,2021.2.3,59.422790770254856,
1,1,no,up,C,L,,,,,,Block.xlsx,"你已经完成了整个实验（三个区组）。

请报告实验者已完成实验

非常感谢，再见！",50,0,1.5,left,LLLLL.png,,,,,0,1,1,1,2,11,59,0,,,,,,,,,,,,,,,,,,,,,,,,,,,,,,,,,,,,,,,,,,,,,,,,,,,,,,,,,,,,,,,,516.8211954999715,517.2229005000554,517.2065637999913,517.3054120000452,517.7058952000225,None,left,1,0.3516693999990821,517.7058952000225,None,517.2065637999913,517.3054120000452,517.3054120000452,None,518.0730614999775,None,,,,,,,11020,001,2024_Jan_05_1031,ANT,2021.2.3,59.422790770254856,
1,20,spatial,up,IC,R,,,,,,Block.xlsx,"你已经完成了整个实验（三个区组）。

请报告实验者已完成实验

非常感谢，再见！",1.5,0,1.5,right,LLRLL.png,,,,,0,1,1,1,2,12,60,19,,,,,,,,,,,,,,,,,,,,,,,,,,,,,,,,,,,,,,,,,,,,,,,,,,,,,,,,,,,,,,,,518.473898199969,518.8747810000787,518.8576598999789,518.9587354999967,519.3586892000167,None,right,1,0.3076678999932483,519.3586892000167,None,518.8576598999789,518.9587354999967,518.9587354999967,None,519.6922594000353,None,,,,,,,11020,001,2024_Jan_05_1031,ANT,2021.2.3,59.422790770254856,
1,21,spatial,down,C,L,,,,,,Block.xlsx,"你已经完成了整个实验（三个区组）。

请报告实验者已完成实验

非常感谢，再见！",-1.5,0,-1.5,left,LLLLL.png,,,,,0,1,1,1,2,13,61,20,,,,,,,,,,,,,,,,,,,,,,,,,,,,,,,,,,,,,,,,,,,,,,,,,,,,,,,,,,,,,,,,520.0931469000643,520.4945649000583,520.4764329000609,520.5782614999916,520.9781779000768,None,left,1,0.3279278000118211,520.9781779000768,None,520.4764329000609,520.5782614999916,520.5782614999916,None,521.327934000059,None,,,,,,,11020,001,2024_Jan_05_1031,ANT,2021.2.3,59.422790770254856,
1,3,no,up,IC,L,,,,,,Block.xlsx,"你已经完成了整个实验（三个区组）。

请报告实验者已完成实验

非常感谢，再见！",50,0,1.5,left,RRLRR.png,,,,,0,1,1,1,2,14,62,2,,,,,,,,,,,,,,,,,,,,,,,,,,,,,,,,,,,,,,,,,,,,,,,,,,,,,,,,,,,,,,,,521.7292641999666,522.1289693000726,522.1126315000001,522.2139850000385,522.6138289000373,None,left,1,0.4839293999830261,522.6138289000373,None,522.1126315000001,522.2139850000385,522.2139850000385,None,523.1138895000331,None,,,,,,,11020,001,2024_Jan_05_1031,ANT,2021.2.3,59.422790770254856,
1,6,no,down,C,R,,,,,,Block.xlsx,"你已经完成了整个实验（三个区组）。

请报告实验者已完成实验

非常感谢，再见！",50,0,-1.5,right,RRRRR.png,,,,,0,1,1,1,2,15,63,5,,,,,,,,,,,,,,,,,,,,,,,,,,,,,,,,,,,,,,,,,,,,,,,,,,,,,,,,,,,,,,,,523.514448300004,523.9151482000016,523.8988045000006,524.0002638000296,524.3994075000519,None,right,1,0.4184661000035703,524.3994075000519,None,523.8988045000006,524.0002638000296,524.0002638000296,None,524.8331417000154,None,,,,,,,11020,001,2024_Jan_05_1031,ANT,2021.2.3,59.422790770254856,
1,1,no,up,C,L,,,,,,Block.xlsx,"你已经完成了整个实验（三个区组）。

请报告实验者已完成实验

非常感谢，再见！",50,0,1.5,left,LLLLL.png,,,,,0,1,1,1,2,16,64,0,,,,,,,,,,,,,,,,,,,,,,,,,,,,,,,,,,,,,,,,,,,,,,,,,,,,,,,,,,,,,,,,525.2335552000441,525.6352008000249,525.6200322000077,525.7347822000738,526.1206150000216,None,left,1,0.4010116000426933,526.1206150000216,None,525.6200322000077,525.7347822000738,525.7199919000268,None,526.5523122000741,None,,,,,,,11020,001,2024_Jan_05_1031,ANT,2021.2.3,59.422790770254856,
1,16,center,down,IC,R,,,,,,Block.xlsx,"你已经完成了整个实验（三个区组）。

请报告实验者已完成实验

非常感谢，再见！",0,50,-1.5,right,LLRLL.png,,,,,0,1,1,1,2,17,65,15,,,,,,,,,,,,,,,,,,,,,,,,,,,,,,,,,,,,,,,,,,,,,,,,,,,,,,,,,,,,,,,,526.954183200025,527.3535647999961,527.3374323999742,527.4376263000304,527.8374080000212,None,right,1,0.5085055000381544,527.8374080000212,None,527.3374323999742,527.4376263000304,527.4376263000304,None,528.3715265999781,None,,,,,,,11020,001,2024_Jan_05_1031,ANT,2021.2.3,59.422790770254856,
1,13,center,down,C,L,,,,,,Block.xlsx,"你已经完成了整个实验（三个区组）。

请报告实验者已完成实验

非常感谢，再见！",0,50,-1.5,left,LLLLL.png,,,,,0,1,1,1,2,18,66,12,,,,,,,,,,,,,,,,,,,,,,,,,,,,,,,,,,,,,,,,,,,,,,,,,,,,,,,,,,,,,,,,528.7721498999745,529.1734145999653,529.1575735000661,529.258262700052,529.6574673000723,None,right,0,0.44013230002019554,529.6574673000723,None,529.1575735000661,529.258262700052,529.258262700052,None,530.1243930000346,None,,,,,,,11020,001,2024_Jan_05_1031,ANT,2021.2.3,59.422790770254856,
1,3,no,up,IC,L,,,,,,Block.xlsx,"你已经完成了整个实验（三个区组）。

请报告实验者已完成实验

非常感谢，再见！",50,0,1.5,left,RRLRR.png,,,,,0,1,1,1,2,19,67,2,,,,,,,,,,,,,,,,,,,,,,,,,,,,,,,,,,,,,,,,,,,,,,,,,,,,,,,,,,,,,,,,530.5250121999998,530.9271680000238,530.9087753000204,531.0100822000531,531.4096008000197,None,left,1,0.512421700055711,531.4096008000197,None,530.9087753000204,531.0100822000531,531.0100822000531,None,531.9436247000704,None,,,,,,,11020,001,2024_Jan_05_1031,ANT,2021.2.3,59.422790770254856,
1,1,no,up,C,L,,,,,,Block.xlsx,"你已经完成了整个实验（三个区组）。

请报告实验者已完成实验

非常感谢，再见！",50,0,1.5,left,LLLLL.png,,,,,0,1,1,1,2,20,68,0,,,,,,,,,,,,,,,,,,,,,,,,,,,,,,,,,,,,,,,,,,,,,,,,,,,,,,,,,,,,,,,,532.3446960999863,532.7467564999824,532.7282428999897,532.8296577000292,533.2306737999897,None,left,1,0.4274167000548914,533.2306737999897,None,532.7282428999897,532.8296577000292,532.8296577000292,None,533.6794597000116,None,,,,,,,11020,001,2024_Jan_05_1031,ANT,2021.2.3,59.422790770254856,
1,10,center,up,C,R,,,,,,Block.xlsx,"你已经完成了整个实验（三个区组）。

请报告实验者已完成实验

非常感谢，再见！",0,50,1.5,right,RRRRR.png,,,,,0,1,1,1,2,21,69,9,,,,,,,,,,,,,,,,,,,,,,,,,,,,,,,,,,,,,,,,,,,,,,,,,,,,,,,,,,,,,,,,534.0801524000708,534.4807191999862,534.4655269000214,534.5650011000689,534.9661755000707,None,right,1,0.3872863999567926,534.9661755000707,None,534.4655269000214,534.5650011000689,534.5650011000689,None,535.3821123000234,None,,,,,,,11020,001,2024_Jan_05_1031,ANT,2021.2.3,59.422790770254856,
1,11,center,up,IC,L,,,,,,Block.xlsx,"你已经完成了整个实验（三个区组）。

请报告实验者已完成实验

非常感谢，再见！",0,50,1.5,left,RRLRR.png,,,,,0,1,1,1,2,22,70,10,,,,,,,,,,,,,,,,,,,,,,,,,,,,,,,,,,,,,,,,,,,,,,,,,,,,,,,,,,,,,,,,535.7828880000161,536.184104999993,536.166919899988,536.2669093000004,536.6677398000611,None,left,1,0.4057971000438556,536.6677398000611,None,536.166919899988,536.2669093000004,536.2669093000004,None,537.1012499000644,None,,,,,,,11020,001,2024_Jan_05_1031,ANT,2021.2.3,59.422790770254856,
1,3,no,up,IC,L,,,,,,Block.xlsx,"你已经完成了整个实验（三个区组）。

请报告实验者已完成实验

非常感谢，再见！",50,0,1.5,left,RRLRR.png,,,,,0,1,1,1,2,23,71,2,,,,,,,,,,,,,,,,,,,,,,,,,,,,,,,,,,,,,,,,,,,,,,,,,,,,,,,,,,,,,,,,537.5019610000309,537.9032440000447,537.8865536000812,537.9871047000634,538.3866663000081,None,left,1,0.4071422000415623,538.3866663000081,None,537.8865536000812,537.9871047000634,537.9871047000634,None,538.8204374000197,None,,,,,,,11020,001,2024_Jan_05_1031,ANT,2021.2.3,59.422790770254856,
1,5,no,down,C,L,,,,,,Block.xlsx,"你已经完成了整个实验（三个区组）。

请报告实验者已完成实验

非常感谢，再见！",50,0,-1.5,left,LLLLL.png,,,,,0,1,1,1,3,0,72,4,,,,,,,,,,,,,,,,,,,,,,,,,,,,,,,,,,,,,,,,,,,,,,,,,,,,,,,,,,,,,,,,539.2211941999849,539.623815500061,539.6048910999671,539.7071843000595,540.1064704000019,None,left,1,0.4794485999736935,540.1064704000019,None,539.6048910999671,539.7071843000595,539.7071843000595,None,540.6064851999981,None,,,,,,,11020,001,2024_Jan_05_1031,ANT,2021.2.3,59.422790770254856,
1,21,spatial,down,C,L,,,,,,Block.xlsx,"你已经完成了整个实验（三个区组）。

请报告实验者已完成实验

非常感谢，再见！",-1.5,0,-1.5,left,LLLLL.png,,,,,0,1,1,1,3,1,73,20,,,,,,,,,,,,,,,,,,,,,,,,,,,,,,,,,,,,,,,,,,,,,,,,,,,,,,,,,,,,,,,,541.0074327000184,541.4092940000119,541.3907753999811,541.4916464000707,541.8918414000655,None,left,1,0.3418651999672875,541.8918414000655,None,541.3907753999811,541.4916464000707,541.4916464000707,None,542.2589903000044,None,,,,,,,11020,001,2024_Jan_05_1031,ANT,2021.2.3,59.422790770254856,
1,9,center,up,C,L,,,,,,Block.xlsx,"你已经完成了整个实验（三个区组）。

请报告实验者已完成实验

非常感谢，再见！",0,50,1.5,left,LLLLL.png,,,,,0,1,1,1,3,2,74,8,,,,,,,,,,,,,,,,,,,,,,,,,,,,,,,,,,,,,,,,,,,,,,,,,,,,,,,,,,,,,,,,542.661050900002,543.0773742999882,543.0432441000594,543.144221900031,543.5462516000262,None,left,1,0.3673052000813186,543.5462516000262,None,543.0432441000594,543.144221900031,543.144221900031,None,543.9453467000276,None,,,,,,,11020,001,2024_Jan_05_1031,ANT,2021.2.3,59.422790770254856,
1,5,no,down,C,L,,,,,,Block.xlsx,"你已经完成了整个实验（三个区组）。

请报告实验者已完成实验

非常感谢，再见！",50,0,-1.5,left,LLLLL.png,,,,,0,1,1,1,3,3,75,4,,,,,,,,,,,,,,,,,,,,,,,,,,,,,,,,,,,,,,,,,,,,,,,,,,,,,,,,,,,,,,,,544.3454662000295,544.7467388000805,544.7303993999958,544.8294956000755,545.2311080000363,None,left,1,0.34740990004502237,545.2311080000363,None,544.7303993999958,544.8294956000755,544.8294956000755,None,545.5971465000184,None,,,,,,,11020,001,2024_Jan_05_1031,ANT,2021.2.3,59.422790770254856,
1,17,spatial,up,C,L,,,,,,Block.xlsx,"你已经完成了整个实验（三个区组）。

请报告实验者已完成实验

非常感谢，再见！",1.5,0,1.5,left,LLLLL.png,,,,,0,1,1,1,3,4,76,16,,,,,,,,,,,,,,,,,,,,,,,,,,,,,,,,,,,,,,,,,,,,,,,,,,,,,,,,,,,,,,,,545.9977676999988,546.4005685000448,546.381965400069,546.482217599987,546.882931399974,None,left,1,0.2710205999901518,546.882931399974,None,546.381965400069,546.482217599987,546.482217599987,None,547.1828760000644,None,,,,,,,11020,001,2024_Jan_05_1031,ANT,2021.2.3,59.422790770254856,
1,23,spatial,down,IC,L,,,,,,Block.xlsx,"你已经完成了整个实验（三个区组）。

请报告实验者已完成实验

非常感谢，再见！",-1.5,0,-1.5,left,RRLRR.png,,,,,0,1,1,1,3,5,77,22,,,,,,,,,,,,,,,,,,,,,,,,,,,,,,,,,,,,,,,,,,,,,,,,,,,,,,,,,,,,,,,,547.5835535000078,547.9861400000518,547.9680541000562,548.068040800048,548.468980900012,None,left,1,0.4206776999635622,548.468980900012,None,547.9680541000562,548.068040800048,548.068040800048,None,548.9189365999773,None,,,,,,,11020,001,2024_Jan_05_1031,ANT,2021.2.3,59.422790770254856,
1,23,spatial,down,IC,L,,,,,,Block.xlsx,"你已经完成了整个实验（三个区组）。

请报告实验者已完成实验

非常感谢，再见！",-1.5,0,-1.5,left,RRLRR.png,,,,,0,1,1,1,3,6,78,22,,,,,,,,,,,,,,,,,,,,,,,,,,,,,,,,,,,,,,,,,,,,,,,,,,,,,,,,,,,,,,,,549.3193928999826,549.7215073000407,549.7039379000198,549.8043798999861,550.2038477000315,None,left,1,0.5097366999834776,550.2038477000315,None,549.7039379000198,549.8043798999861,549.8043798999861,None,550.7380116999848,None,,,,,,,11020,001,2024_Jan_05_1031,ANT,2021.2.3,59.422790770254856,
1,13,center,down,C,L,,,,,,Block.xlsx,"你已经完成了整个实验（三个区组）。

请报告实验者已完成实验

非常感谢，再见！",0,50,-1.5,left,LLLLL.png,,,,,0,1,1,1,3,7,79,12,,,,,,,,,,,,,,,,,,,,,,,,,,,,,,,,,,,,,,,,,,,,,,,,,,,,,,,,,,,,,,,,551.1388893000549,551.5395688000135,551.5229386000428,551.624367600074,552.024281400023,None,left,1,0.4413301000604406,552.024281400023,None,551.5229386000428,551.624367600074,551.624367600074,None,552.4906705999747,None,,,,,,,11020,001,2024_Jan_05_1031,ANT,2021.2.3,59.422790770254856,
1,15,center,down,IC,L,,,,,,Block.xlsx,"你已经完成了整个实验（三个区组）。

请报告实验者已完成实验

非常感谢，再见！",0,50,-1.5,left,RRLRR.png,,,,,0,1,1,1,3,8,80,14,,,,,,,,,,,,,,,,,,,,,,,,,,,,,,,,,,,,,,,,,,,,,,,,,,,,,,,,,,,,,,,,552.8914923999691,553.2925779999932,553.2761538000777,553.3754910000134,553.7767122000223,None,left,1,0.497256200062111,553.7767122000223,None,553.2761538000777,553.3754910000134,553.3754910000134,None,554.2934267000528,None,,,,,,,11020,001,2024_Jan_05_1031,ANT,2021.2.3,59.422790770254856,
1,15,center,down,IC,L,,,,,,Block.xlsx,"你已经完成了整个实验（三个区组）。

请报告实验者已完成实验

非常感谢，再见！",0,50,-1.5,left,RRLRR.png,,,,,0,1,1,1,3,9,81,14,,,,,,,,,,,,,,,,,,,,,,,,,,,,,,,,,,,,,,,,,,,,,,,,,,,,,,,,,,,,,,,,554.6940934000304,555.0952999000438,555.0785616000649,555.1780098000308,555.5798458000645,None,left,1,0.4060052999993786,555.5798458000645,None,555.0785616000649,555.1780098000308,555.1780098000308,None,556.0133961000247,None,,,,,,,11020,001,2024_Jan_05_1031,ANT,2021.2.3,59.422790770254856,
1,12,center,up,IC,R,,,,,,Block.xlsx,"你已经完成了整个实验（三个区组）。

请报告实验者已完成实验

非常感谢，再见！",0,50,1.5,right,LLRLL.png,,,,,0,1,1,1,3,10,82,11,,,,,,,,,,,,,,,,,,,,,,,,,,,,,,,,,,,,,,,,,,,,,,,,,,,,,,,,,,,,,,,,556.4139604000375,556.8159540999914,556.7970904000103,556.8981048000278,557.2985626000445,None,right,1,0.5836178999161348,557.2985626000445,None,556.7970904000103,556.8981048000278,556.8981048000278,None,557.8985947000328,None,,,,,,,11020,001,2024_Jan_05_1031,ANT,2021.2.3,59.422790770254856,
1,6,no,down,C,R,,,,,,Block.xlsx,"你已经完成了整个实验（三个区组）。

请报告实验者已完成实验

非常感谢，再见！",50,0,-1.5,right,RRRRR.png,,,,,0,1,1,1,3,11,83,5,,,,,,,,,,,,,,,,,,,,,,,,,,,,,,,,,,,,,,,,,,,,,,,,,,,,,,,,,,,,,,,,558.2993615000742,558.7002897000639,558.6832787999883,558.7843302000547,559.1842527000699,None,right,1,0.5695715000620112,559.1842527000699,None,558.6832787999883,558.7843302000547,558.7843302000547,None,559.7680949000642,None,,,,,,,11020,001,2024_Jan_05_1031,ANT,2021.2.3,59.422790770254856,
1,18,spatial,up,C,R,,,,,,Block.xlsx,"你已经完成了整个实验（三个区组）。

请报告实验者已完成实验

非常感谢，再见！",1.5,0,1.5,right,RRRRR.png,,,,,0,1,1,1,3,12,84,17,,,,,,,,,,,,,,,,,,,,,,,,,,,,,,,,,,,,,,,,,,,,,,,,,,,,,,,,,,,,,,,,560.1686750999652,560.5697912999894,560.5542490000371,560.6694969000528,561.0547385000391,None,right,1,0.3793631000444293,561.0547385000391,None,560.5542490000371,560.6694969000528,560.6541753000347,None,561.4539091000333,None,,,,,,,11020,001,2024_Jan_05_1031,ANT,2021.2.3,59.422790770254856,
1,14,center,down,C,R,,,,,,Block.xlsx,"你已经完成了整个实验（三个区组）。

请报告实验者已完成实验

非常感谢，再见！",0,50,-1.5,right,RRRRR.png,,,,,0,1,1,1,3,13,85,13,,,,,,,,,,,,,,,,,,,,,,,,,,,,,,,,,,,,,,,,,,,,,,,,,,,,,,,,,,,,,,,,561.8546624999726,562.2566361000063,562.238594800001,562.3392478000605,562.739836200024,None,right,1,0.42211720009800047,562.739836200024,None,562.238594800001,562.3392478000605,562.3392478000605,None,563.1905967000639,None,,,,,,,11020,001,2024_Jan_05_1031,ANT,2021.2.3,59.422790770254856,
1,15,center,down,IC,L,,,,,,Block.xlsx,"你已经完成了整个实验（三个区组）。

请报告实验者已完成实验

非常感谢，再见！",0,50,-1.5,left,RRLRR.png,,,,,0,1,1,1,3,14,86,14,,,,,,,,,,,,,,,,,,,,,,,,,,,,,,,,,,,,,,,,,,,,,,,,,,,,,,,,,,,,,,,,563.5906657000305,563.9918972000014,563.9756086000707,564.0757612000452,564.4761138000758,None,left,1,0.5660798000171781,564.4761138000758,None,563.9756086000707,564.0757612000452,564.0757612000452,None,565.0593828000128,None,,,,,,,11020,001,2024_Jan_05_1031,ANT,2021.2.3,59.422790770254856,
1,11,center,up,IC,L,,,,,,Block.xlsx,"你已经完成了整个实验（三个区组）。

请报告实验者已完成实验

非常感谢，再见！",0,50,1.5,left,RRLRR.png,,,,,0,1,1,1,3,15,87,10,,,,,,,,,,,,,,,,,,,,,,,,,,,,,,,,,,,,,,,,,,,,,,,,,,,,,,,,,,,,,,,,565.4600075000199,565.8610081999796,565.8456678000512,565.9447887999704,566.3458884999854,None,left,1,0.519784800009802,566.3458884999854,None,565.8456678000512,565.9447887999704,565.9447887999704,None,566.8953928999836,None,,,,,,,11020,001,2024_Jan_05_1031,ANT,2021.2.3,59.422790770254856,
1,22,spatial,down,C,R,,,,,,Block.xlsx,"你已经完成了整个实验（三个区组）。

请报告实验者已完成实验

非常感谢，再见！",-1.5,0,-1.5,right,RRRRR.png,,,,,0,1,1,1,3,16,88,21,,,,,,,,,,,,,,,,,,,,,,,,,,,,,,,,,,,,,,,,,,,,,,,,,,,,,,,,,,,,,,,,567.2961163000436,567.6965644999873,567.6801792000188,567.7804937000619,568.1815339999739,None,right,1,0.3240761999040842,568.1815339999739,None,567.6801792000188,567.7804937000619,567.7804937000619,None,568.5310615000781,None,,,,,,,11020,001,2024_Jan_05_1031,ANT,2021.2.3,59.422790770254856,
1,15,center,down,IC,L,,,,,,Block.xlsx,"你已经完成了整个实验（三个区组）。

请报告实验者已完成实验

非常感谢，再见！",0,50,-1.5,left,RRLRR.png,,,,,0,1,1,1,3,17,89,14,,,,,,,,,,,,,,,,,,,,,,,,,,,,,,,,,,,,,,,,,,,,,,,,,,,,,,,,,,,,,,,,568.9318797000451,569.3340878000017,569.3155646000523,569.4168501000386,569.8165222000098,None,left,1,0.5139950000448152,569.8165222000098,None,569.3155646000523,569.4168501000386,569.4168501000386,None,570.3514714000048,None,,,,,,,11020,001,2024_Jan_05_1031,ANT,2021.2.3,59.422790770254856,
1,10,center,up,C,R,,,,,,Block.xlsx,"你已经完成了整个实验（三个区组）。

请报告实验者已完成实验

非常感谢，再见！",0,50,1.5,right,RRRRR.png,,,,,0,1,1,1,3,18,90,9,,,,,,,,,,,,,,,,,,,,,,,,,,,,,,,,,,,,,,,,,,,,,,,,,,,,,,,,,,,,,,,,570.7511614999967,571.1520440999884,571.1356705999933,571.2350822000299,571.6374831000576,None,right,1,0.412166399997659,571.6374831000576,None,571.1356705999933,571.2350822000299,571.2350822000299,None,572.0702534000156,None,,,,,,,11020,001,2024_Jan_05_1031,ANT,2021.2.3,59.422790770254856,
1,17,spatial,up,C,L,,,,,,Block.xlsx,"你已经完成了整个实验（三个区组）。

请报告实验者已完成实验

非常感谢，再见！",1.5,0,1.5,left,LLLLL.png,,,,,0,1,1,1,3,19,91,16,,,,,,,,,,,,,,,,,,,,,,,,,,,,,,,,,,,,,,,,,,,,,,,,,,,,,,,,,,,,,,,,572.4711446000729,572.8722864000592,572.8546378000174,572.9561817999929,573.3562401999952,None,left,1,0.3823303999379277,573.3562401999952,None,572.8546378000174,572.9561817999929,572.9561817999929,None,573.7555499000009,None,,,,,,,11020,001,2024_Jan_05_1031,ANT,2021.2.3,59.422790770254856,
1,14,center,down,C,R,,,,,,Block.xlsx,"你已经完成了整个实验（三个区组）。

请报告实验者已完成实验

