TrialType,TrialNumber,WarningType,TargetType,FlankerType,TargetDirection,W,f,Y,corr,imageFile,condition,endtext,Yw,Yf,Yt,Corr,imagefile,trials_3.thisRepN,trials_3.thisTrialN,trials_3.thisN,trials_3.thisIndex,trials_2.thisRepN,trials_2.thisTrialN,trials_2.thisN,trials_2.thisIndex,trials.thisRepN,trials.thisTrialN,trials.thisN,trials.thisIndex,instr.started,instr.stopped,key_resp.keys,key_resp.rt,key_resp.started,key_resp.stopped,image.started,image.stopped,key_resp_6.keys,key_resp_6.rt,key_resp_6.started,key_resp_6.stopped,EX_L.started,EX_L.stopped,AL.started,AL.stopped,key_resp_7.keys,key_resp_7.rt,key_resp_7.started,key_resp_7.stopped,EX_R.started,EX_R.stopped,RR.started,RR.stopped,key_resp_8.keys,key_resp_8.rt,key_resp_8.started,key_resp_8.stopped,image_2.started,image_2.stopped,key_resp_9.keys,key_resp_9.rt,key_resp_9.started,key_resp_9.stopped,image_3.started,image_3.stopped,key_resp_10.keys,key_resp_10.rt,key_resp_10.started,key_resp_10.stopped,fix.started,fix.stopped,war.started,war.stopped,tar.started,tar.stopped,key_resp_4.keys,key_resp_4.corr,key_resp_4.rt,key_resp_4.started,key_resp_4.stopped,fix2.started,fix2.stopped,fix_2.started,fix_2.stopped,Feedback.started,Feedback.stopped,key_resp_2.keys,key_resp_2.rt,key_resp_2.started,key_resp_2.stopped,text_5.started,text_5.stopped,fix2_1.started,fix2_1.stopped,Warn.started,Warn.stopped,Tar.started,Tar.stopped,key_resp_5.keys,key_resp_5.corr,key_resp_5.rt,key_resp_5.started,key_resp_5.stopped,Fix_2.started,Fix_2.stopped,fix2_2.started,fix2_2.stopped,text_4.started,text_4.stopped,key_resp_3.keys,key_resp_3.rt,key_resp_3.started,key_resp_3.stopped,text_3.started,text_3.stopped,participant,session,date,expName,psychopyVersion,frameRate,
,,,,,,,,,,,,,,,,,,,,,,,,,,,,,,11.374804399907589,None,space,4.436056999955326,11.374804399907589,None,,,,,,,,,,,,,,,,,,,,,,,,,,,,,,,,,,,,,,,,,,,,,,,,,,,,,,,,,,,,,,,,,,,,,,,,,,,,,,,,,11029,001,2024_Jan_10_1542,ANT,2021.2.3,60.01176233909215,
,,,,,,,,,,,,,,,,,,,,,,,,,,,,,,,,,,,,15.830865899799392,None,space,5.539628499886021,15.830865899799392,None,,,,,,,,,,,,,,,,,,,,,,,,,,,,,,,,,,,,,,,,,,,,,,,,,,,,,,,,,,,,,,,,,,,,,,,,,,,11029,001,2024_Jan_10_1542,ANT,2021.2.3,60.01176233909215,
,,,,,,,,,,,,,,,,,,,,,,,,,,,,,,,,,,,,,,,,,,21.389302999945357,None,21.389302999945357,None,left,2.109145199880004,21.389302999945357,None,,,,,,,,,,,,,,,,,,,,,,,,,,,,,,,,,,,,,,,,,,,,,,,,,,,,,,,,,,,,,,,,,,,11029,001,2024_Jan_10_1542,ANT,2021.2.3,60.01176233909215,
,,,,,,,,,,,,,,,,,,,,,,,,,,,,,,,,,,,,,,,,,,,,,,,,,,23.52562259999104,None,23.52562259999104,None,right,0.6446104000788182,23.52562259999104,None,,,,,,,,,,,,,,,,,,,,,,,,,,,,,,,,,,,,,,,,,,,,,,,,,,,,,,,,,,,11029,001,2024_Jan_10_1542,ANT,2021.2.3,60.01176233909215,
,,,,,,,,,,,,,,,,,,,,,,,,,,,,,,,,,,,,,,,,,,,,,,,,,,,,,,,,,,24.193454299820587,None,space,7.808909100014716,24.193454299820587,None,,,,,,,,,,,,,,,,,,,,,,,,,,,,,,,,,,,,,,,,,,,,,,,,,,,,,11029,001,2024_Jan_10_1542,ANT,2021.2.3,60.01176233909215,
,,,,,,,,,,,,,,,,,,,,,,,,,,,,,,,,,,,,,,,,,,,,,,,,,,,,,,,,,,,,,,,,32.02138079982251,None,space,7.605020499788225,32.02138079982251,None,,,,,,,,,,,,,,,,,,,,,,,,,,,,,,,,,,,,,,,,,,,,,,,11029,001,2024_Jan_10_1542,ANT,2021.2.3,60.01176233909215,
0,11,spatial,down,C,L,-1.5,0,-1.5,left,LLLLL.png,,,,,,,,0,0,0,10,,,,,,,,,,,,,,,,,,,,,,,,,,,,,,,,,,,,,,,,,,,,,,,,,39.73328999988735,40.135811399901286,40.11719619994983,40.217111999867484,40.61943620000966,None,left,1,0.7995786999817938,40.61943620000966,None,40.11719619994983,40.217111999867484,40.217111999867484,None,41.45325139979832,None,,,,,,,,,,,,,,,,,,,,,,,,,,,,,,11029,001,2024_Jan_10_1542,ANT,2021.2.3,60.01176233909215,
0,4,no,down,IC,L,50,0,-1.5,left,RRLRR.png,,,,,,,,0,1,1,3,,,,,,,,,,,,,,,,,,,,,,,,,,,,,,,,,,,,,,,,,,,,,,,,,43.45526369987056,43.856120500015095,43.84037119988352,43.95587589987554,44.34011320001446,None,right,0,0.3507457000669092,44.34011320001446,None,43.84037119988352,43.95587589987554,43.94055980001576,None,44.70698809996247,None,,,,,,,,,,,,,,,,,,,,,,,,,,,,,,11029,001,2024_Jan_10_1542,ANT,2021.2.3,60.01176233909215,
0,10,spatial,up,IC,L,1.5,0,1.5,left,RRLRR.png,,,,,,,,0,2,2,9,,,,,,,,,,,,,,,,,,,,,,,,,,,,,,,,,,,,,,,,,,,,,,,,,46.71040440001525,47.11126289982349,47.095692599890754,47.2116715000011,47.5947364999447,None,left,1,0.5596347998362035,47.5947364999447,None,47.095692599890754,47.2116715000011,47.19401059998199,None,48.17905129981227,None,,,,,,,,,,,,,,,,,,,,,,,,,,,,,,11029,001,2024_Jan_10_1542,ANT,2021.2.3,60.01176233909215,
0,2,no,up,IC,R,50,0,1.5,right,LLRLL.png,,,,,,,,0,3,3,1,,,,,,,,,,,,,,,,,,,,,,,,,,,,,,,,,,,,,,,,,,,,,,,,,50.18179679987952,50.58353649987839,50.56573469983414,50.6676325998269,51.066357099916786,None,left,0,0.5039690001867712,51.066357099916786,None,50.56573469983414,50.6676325998269,50.6676325998269,None,51.60066479980014,None,,,,,,,,,,,,,,,,,,,,,,,,,,,,,,11029,001,2024_Jan_10_1542,ANT,2021.2.3,60.01176233909215,
0,8,center,down,IC,L,0,50,-1.5,left,RRLRR.png,,,,,,,,0,4,4,7,,,,,,,,,,,,,,,,,,,,,,,,,,,,,,,,,,,,,,,,,,,,,,,,,53.60357269993983,54.005861799931154,53.98765659984201,54.088316599838436,54.488865699851885,None,left,1,0.5775987000670284,54.488865699851885,None,53.98765659984201,54.088316599838436,54.088316599838436,None,55.08902399986982,None,,,,,,,,,,,,,,,,,,,,,,,,,,,,,,11029,001,2024_Jan_10_1542,ANT,2021.2.3,60.01176233909215,
0,12,spatial,down,IC,R,-1.5,0,-1.5,right,LLRLL.png,,,,,,,,0,5,5,11,,,,,,,,,,,,,,,,,,,,,,,,,,,,,,,,,,,,,,,,,,,,,,,,,57.09204089990817,57.49261890002526,57.47710599983111,57.57599499984644,57.97930619982071,None,right,1,0.4230210999958217,57.97930619982071,None,57.47710599983111,57.57599499984644,57.57599499984644,None,58.42704979982227,None,,,,,,,,,,,,,,,,,,,,,,,,,,,,,,11029,001,2024_Jan_10_1542,ANT,2021.2.3,60.01176233909215,
0,3,no,down,C,R,50,0,-1.5,right,RRRRR.png,,,,,,,,0,6,6,2,,,,,,,,,,,,,,,,,,,,,,,,,,,,,,,,,,,,,,,,,,,,,,,,,60.43016149988398,60.83020899980329,60.81409699982032,60.914430799894035,61.315535499947146,None,right,1,0.5587699001189321,61.315535499947146,None,60.81409699982032,60.914430799894035,60.914430799894035,None,61.89897799980827,None,,,,,,,,,,,,,,,,,,,,,,,,,,,,,,11029,001,2024_Jan_10_1542,ANT,2021.2.3,60.01176233909215,
0,1,no,up,C,L,50,0,1.5,left,LLLLL.png,,,,,,,,0,7,7,0,,,,,,,,,,,,,,,,,,,,,,,,,,,,,,,,,,,,,,,,,,,,,,,,,63.90209829993546,64.30365419993177,64.28598149982281,64.38685659994371,64.78909419989213,None,left,1,0.3492477999534458,64.78909419989213,None,64.28598149982281,64.38685659994371,64.38685659994371,None,65.15465119993314,None,,,,,,,,,,,,,,,,,,,,,,,,,,,,,,11029,001,2024_Jan_10_1542,ANT,2021.2.3,60.01176233909215,
0,9,spatial,up,C,R,1.5,0,1.5,right,RRRRR.png,,,,,,,,0,8,8,8,,,,,,,,,,,,,,,,,,,,,,,,,,,,,,,,,,,,,,,,,,,,,,,,,67.15725039993413,67.55816299980506,67.5434113999363,67.65794399986044,68.04210209986195,None,right,1,0.4172329001594335,68.04210209986195,None,67.5434113999363,67.65794399986044,67.64282389986329,None,68.47530299983919,None,,,,,,,,,,,,,,,,,,,,,,,,,,,,,,11029,001,2024_Jan_10_1542,ANT,2021.2.3,60.01176233909215,
0,6,center,up,IC,R,0,50,1.5,right,LLRLL.png,,,,,,,,0,9,9,5,,,,,,,,,,,,,,,,,,,,,,,,,,,,,,,,,,,,,,,,,,,,,,,,,70.47905649989843,70.88088890002109,70.86216779984534,70.96281119994819,71.36381389992312,None,right,1,0.5265920998062938,71.36381389992312,None,70.86216779984534,70.96281119994819,70.96281119994819,None,71.91401009983383,None,,,,,,,,,,,,,,,,,,,,,,,,,,,,,,11029,001,2024_Jan_10_1542,ANT,2021.2.3,60.01176233909215,
0,5,center,up,C,L,0,50,1.5,left,LLLLL.png,,,,,,,,0,10,10,4,,,,,,,,,,,,,,,,,,,,,,,,,,,,,,,,,,,,,,,,,,,,,,,,,73.91724929981865,74.31806949991733,74.30081119993702,74.40221489989199,74.80247120000422,None,left,1,0.3518745999317616,74.80247120000422,None,74.30081119993702,74.40221489989199,74.40221489989199,None,75.16871969983913,None,,,,,,,,,,,,,,,,,,,,,,,,,,,,,,11029,001,2024_Jan_10_1542,ANT,2021.2.3,60.01176233909215,
0,7,center,down,C,R,0,50,-1.5,right,RRRRR.png,,,,,,,,0,11,11,6,,,,,,,,,,,,,,,,,,,,,,,,,,,,,,,,,,,,,,,,,,,,,,,,,77.1721036999952,77.57368839997798,77.55589800002053,77.65750589990057,78.05628359992988,None,right,1,0.41892699990421534,78.05628359992988,None,77.55589800002053,77.65750589990057,77.65750589990057,None,78.49029849981889,None,,,,,,,,,,,,,,,,,,,,,,,,,,,,,,11029,001,2024_Jan_10_1542,ANT,2021.2.3,60.01176233909215,
,,,,,,,,,,,,,,,,,,,,,,,,,,,,,,,,,,,,,,,,,,,,,,,,,,,,,,,,,,,,,,,,,,,,,,,,,,,,,,,,,,,,,,,space,5.843642800115049,80.49464859999716,None,,,,,,,,,,,,,,,,,,,,,,,,,,11029,001,2024_Jan_10_1542,ANT,2021.2.3,60.01176233909215,
1,18,spatial,up,C,R,,,,,,Block.xlsx,"你已经完成了第一个实验区组

请稍作休息


点击空格键进入下一个区组。",1.5,0,1.5,right,RRRRR.png,,,,,0,0,0,0,0,0,0,17,,,,,,,,,,,,,,,,,,,,,,,,,,,,,,,,,,,,,,,,,,,,,,,,,,,,,,,,,,,,,,80.49464859999716,None,86.40228569996543,86.8029102999717,86.78602799982764,86.88642310001887,87.2893268999178,None,right,1,0.3611524000298232,87.2893268999178,None,86.78602799982764,86.88642310001887,86.88642310001887,None,87.67064599995501,None,,,,,,,11029,001,2024_Jan_10_1542,ANT,2021.2.3,60.01176233909215,
1,22,spatial,down,C,R,,,,,,Block.xlsx,"你已经完成了第一个实验区组

请稍作休息


点击空格键进入下一个区组。",-1.5,0,-1.5,right,RRRRR.png,,,,,0,0,0,0,0,1,1,21,,,,,,,,,,,,,,,,,,,,,,,,,,,,,,,,,,,,,,,,,,,,,,,,,,,,,,,,,,,,,,,,88.07193149998784,88.472198799951,88.45607610000297,88.55576599994674,88.95667039998807,None,right,1,0.3337325998581946,88.95667039998807,None,88.45607610000297,88.55576599994674,88.55576599994674,None,89.30643370002508,None,,,,,,,11029,001,2024_Jan_10_1542,ANT,2021.2.3,60.01176233909215,
1,7,no,down,IC,L,,,,,,Block.xlsx,"你已经完成了第一个实验区组

请稍作休息


点击空格键进入下一个区组。",50,0,-1.5,left,RRLRR.png,,,,,0,0,0,0,0,2,2,6,,,,,,,,,,,,,,,,,,,,,,,,,,,,,,,,,,,,,,,,,,,,,,,,,,,,,,,,,,,,,,,,89.70699819992296,90.10998369986191,90.0913529000245,90.19099839986302,90.59394119982608,None,left,1,0.48080580006353557,90.59394119982608,None,90.0913529000245,90.19099839986302,90.19099839986302,None,91.0923230999615,None,,,,,,,11029,001,2024_Jan_10_1542,ANT,2021.2.3,60.01176233909215,
1,12,center,up,IC,R,,,,,,Block.xlsx,"你已经完成了第一个实验区组

请稍作休息


点击空格键进入下一个区组。",0,50,1.5,right,LLRLL.png,,,,,0,0,0,0,0,3,3,11,,,,,,,,,,,,,,,,,,,,,,,,,,,,,,,,,,,,,,,,,,,,,,,,,,,,,,,,,,,,,,,,91.49296719999984,91.89559470000677,91.87699579983018,91.97805999987759,92.37874019984156,None,right,1,0.4641362000256777,92.37874019984156,None,91.87699579983018,91.97805999987759,91.97805999987759,None,92.86246520001441,None,,,,,,,11029,001,2024_Jan_10_1542,ANT,2021.2.3,60.01176233909215,
1,6,no,down,C,R,,,,,,Block.xlsx,"你已经完成了第一个实验区组

请稍作休息


点击空格键进入下一个区组。",50,0,-1.5,right,RRRRR.png,,,,,0,0,0,0,0,4,4,5,,,,,,,,,,,,,,,,,,,,,,,,,,,,,,,,,,,,,,,,,,,,,,,,,,,,,,,,,,,,,,,,93.26311579998583,93.66362839983776,93.64640109986067,93.74652429996058,94.14788689999841,None,right,1,0.4864018999505788,94.14788689999841,None,93.64640109986067,93.74652429996058,93.74652429996058,None,94.66435099998489,None,,,,,,,11029,001,2024_Jan_10_1542,ANT,2021.2.3,60.01176233909215,
1,11,center,up,IC,L,,,,,,Block.xlsx,"你已经完成了第一个实验区组

请稍作休息


点击空格键进入下一个区组。",0,50,1.5,left,RRLRR.png,,,,,0,0,0,0,0,5,5,10,,,,,,,,,,,,,,,,,,,,,,,,,,,,,,,,,,,,,,,,,,,,,,,,,,,,,,,,,,,,,,,,95.06500009982847,95.46660779998638,95.4488228999544,95.54909749981016,95.9495839998126,None,left,1,0.4527437000069767,95.9495839998126,None,95.4488228999544,95.54909749981016,95.54909749981016,None,96.41690259985626,None,,,,,,,11029,001,2024_Jan_10_1542,ANT,2021.2.3,60.01176233909215,
1,16,center,down,IC,R,,,,,,Block.xlsx,"你已经完成了第一个实验区组

请稍作休息


点击空格键进入下一个区组。",0,50,-1.5,right,LLRLL.png,,,,,0,0,0,0,0,6,6,15,,,,,,,,,,,,,,,,,,,,,,,,,,,,,,,,,,,,,,,,,,,,,,,,,,,,,,,,,,,,,,,,96.81747719994746,97.21891769999638,97.20179449999705,97.30174169992097,97.70257459999993,None,right,1,0.41980820009484887,97.70257459999993,None,97.20179449999705,97.30174169992097,97.30174169992097,None,98.15284759993665,None,,,,,,,11029,001,2024_Jan_10_1542,ANT,2021.2.3,60.01176233909215,
1,5,no,down,C,L,,,,,,Block.xlsx,"你已经完成了第一个实验区组

请稍作休息


点击空格键进入下一个区组。",50,0,-1.5,left,LLLLL.png,,,,,0,0,0,0,0,7,7,4,,,,,,,,,,,,,,,,,,,,,,,,,,,,,,,,,,,,,,,,,,,,,,,,,,,,,,,,,,,,,,,,98.55364119983278,98.95570799987763,98.93746869987808,99.03759499988519,99.43867529998533,None,left,1,0.4838560000061989,99.43867529998533,None,98.93746869987808,99.03759499988519,99.03759499988519,None,99.93875309987925,None,,,,,,,11029,001,2024_Jan_10_1542,ANT,2021.2.3,60.01176233909215,
1,5,no,down,C,L,,,,,,Block.xlsx,"你已经完成了第一个实验区组

请稍作休息


点击空格键进入下一个区组。",50,0,-1.5,left,LLLLL.png,,,,,0,0,0,0,0,8,8,4,,,,,,,,,,,,,,,,,,,,,,,,,,,,,,,,,,,,,,,,,,,,,,,,,,,,,,,,,,,,,,,,100.33949539996684,100.74073249986395,100.72433489980176,100.82332179998048,101.22454539989121,None,left,1,0.5538095999509096,101.22454539989121,None,100.72433489980176,100.82332179998048,100.82332179998048,None,101.8083093999885,None,,,,,,,11029,001,2024_Jan_10_1542,ANT,2021.2.3,60.01176233909215,
1,11,center,up,IC,L,,,,,,Block.xlsx,"你已经完成了第一个实验区组

请稍作休息


点击空格键进入下一个区组。",0,50,1.5,left,RRLRR.png,,,,,0,0,0,0,0,9,9,10,,,,,,,,,,,,,,,,,,,,,,,,,,,,,,,,,,,,,,,,,,,,,,,,,,,,,,,,,,,,,,,,102.20991660002619,102.61069949995726,102.59334469982423,102.69287969986908,103.0941170998849,None,left,1,0.5323966001160443,103.0941170998849,None,102.59334469982423,102.69287969986908,102.69287969986908,None,103.64428919996135,None,,,,,,,11029,001,2024_Jan_10_1542,ANT,2021.2.3,60.01176233909215,
1,19,spatial,up,IC,L,,,,,,Block.xlsx,"你已经完成了第一个实验区组

请稍作休息


点击空格键进入下一个区组。",1.5,0,1.5,left,RRLRR.png,,,,,0,0,0,0,0,10,10,18,,,,,,,,,,,,,,,,,,,,,,,,,,,,,,,,,,,,,,,,,,,,,,,,,,,,,,,,,,,,,,,,104.04525239998475,104.44662979990244,104.42897369991988,104.52956949989311,104.9309502998367,None,left,1,0.4797820998355746,104.9309502998367,None,104.42897369991988,104.52956949989311,104.52956949989311,None,105.4301828998141,None,,,,,,,11029,001,2024_Jan_10_1542,ANT,2021.2.3,60.01176233909215,
1,5,no,down,C,L,,,,,,Block.xlsx,"你已经完成了第一个实验区组

请稍作休息


点击空格键进入下一个区组。",50,0,-1.5,left,LLLLL.png,,,,,0,0,0,0,0,11,11,4,,,,,,,,,,,,,,,,,,,,,,,,,,,,,,,,,,,,,,,,,,,,,,,,,,,,,,,,,,,,,,,,105.83111639996059,106.23166009993292,106.21666199993342,106.31499410001561,106.71584249986336,None,left,1,0.4545413001906127,106.71584249986336,None,106.21666199993342,106.31499410001561,106.31499410001561,None,107.20003329985775,None,,,,,,,11029,001,2024_Jan_10_1542,ANT,2021.2.3,60.01176233909215,
1,8,no,down,IC,R,,,,,,Block.xlsx,"你已经完成了第一个实验区组

请稍作休息


点击空格键进入下一个区组。",50,0,-1.5,right,LLRLL.png,,,,,0,0,0,0,0,12,12,7,,,,,,,,,,,,,,,,,,,,,,,,,,,,,,,,,,,,,,,,,,,,,,,,,,,,,,,,,,,,,,,,107.60019969986752,108.00088680000044,107.98614369984716,108.10158899985254,108.48709139996208,None,right,1,0.539481199812144,108.48709139996208,None,107.98614369984716,108.10158899985254,108.08508539991453,None,109.0525454999879,None,,,,,,,11029,001,2024_Jan_10_1542,ANT,2021.2.3,60.01176233909215,
1,11,center,up,IC,L,,,,,,Block.xlsx,"你已经完成了第一个实验区组

请稍作休息


点击空格键进入下一个区组。",0,50,1.5,left,RRLRR.png,,,,,0,0,0,0,0,13,13,10,,,,,,,,,,,,,,,,,,,,,,,,,,,,,,,,,,,,,,,,,,,,,,,,,,,,,,,,,,,,,,,,109.4532739999704,109.85395379993133,109.83675689995289,109.93702610000037,110.33866250002757,None,left,1,0.3923877999186516,110.33866250002757,None,109.83675689995289,109.93702610000037,109.93702610000037,None,110.75477999984287,None,,,,,,,11029,001,2024_Jan_10_1542,ANT,2021.2.3,60.01176233909215,
1,15,center,down,IC,L,,,,,,Block.xlsx,"你已经完成了第一个实验区组

请稍作休息


点击空格键进入下一个区组。",0,50,-1.5,left,RRLRR.png,,,,,0,0,0,0,0,14,14,14,,,,,,,,,,,,,,,,,,,,,,,,,,,,,,,,,,,,,,,,,,,,,,,,,,,,,,,,,,,,,,,,111.15547290001996,111.55708149983548,111.53985709999688,111.63995879981667,112.04042099998333,None,left,1,0.4739304999820888,112.04042099998333,None,111.53985709999688,111.63995879981667,111.63995879981667,None,112.54069929989055,None,,,,,,,11029,001,2024_Jan_10_1542,ANT,2021.2.3,60.01176233909215,
1,8,no,down,IC,R,,,,,,Block.xlsx,"你已经完成了第一个实验区组

请稍作休息


点击空格键进入下一个区组。",50,0,-1.5,right,LLRLL.png,,,,,0,0,0,0,0,15,15,7,,,,,,,,,,,,,,,,,,,,,,,,,,,,,,,,,,,,,,,,,,,,,,,,,,,,,,,,,,,,,,,,112.94162589986809,113.3429833999835,113.32564069982618,113.42548239999451,113.8264266999904,None,right,1,0.5282306000590324,113.8264266999904,None,113.32564069982618,113.42548239999451,113.42548239999451,None,114.37675639986992,None,,,,,,,11029,001,2024_Jan_10_1542,ANT,2021.2.3,60.01176233909215,
1,2,no,up,C,R,,,,,,Block.xlsx,"你已经完成了第一个实验区组

请稍作休息


点击空格键进入下一个区组。",50,0,1.5,right,RRRRR.png,,,,,0,0,0,0,0,16,16,1,,,,,,,,,,,,,,,,,,,,,,,,,,,,,,,,,,,,,,,,,,,,,,,,,,,,,,,,,,,,,,,,114.777546599973,115.17855179985054,115.1615902998019,115.26279879990034,115.66268519987352,None,right,1,0.4838726001325995,115.66268519987352,None,115.1615902998019,115.26279879990034,115.26279879990034,None,116.16296669980511,None,,,,,,,11029,001,2024_Jan_10_1542,ANT,2021.2.3,60.01176233909215,
1,14,center,down,C,R,,,,,,Block.xlsx,"你已经完成了第一个实验区组

请稍作休息


点击空格键进入下一个区组。",0,50,-1.5,right,RRRRR.png,,,,,0,0,0,0,0,17,17,13,,,,,,,,,,,,,,,,,,,,,,,,,,,,,,,,,,,,,,,,,,,,,,,,,,,,,,,,,,,,,,,,116.56332729989663,116.96533219981939,116.94757670001127,117.04824169981293,117.4489110999275,None,right,1,0.393427399918437,117.4489110999275,None,116.94757670001127,117.04824169981293,117.04824169981293,None,117.86531149991788,None,,,,,,,11029,001,2024_Jan_10_1542,ANT,2021.2.3,60.01176233909215,
1,23,spatial,down,IC,L,,,,,,Block.xlsx,"你已经完成了第一个实验区组

请稍作休息


点击空格键进入下一个区组。",-1.5,0,-1.5,left,RRLRR.png,,,,,0,0,0,0,0,18,18,22,,,,,,,,,,,,,,,,,,,,,,,,,,,,,,,,,,,,,,,,,,,,,,,,,,,,,,,,,,,,,,,,118.26609319983982,118.66664889990352,118.6511129999999,118.7500200998038,119.15195369999856,None,left,1,0.5145294999238104,119.15195369999856,None,118.6511129999999,118.7500200998038,118.7500200998038,None,119.68461410002783,None,,,,,,,11029,001,2024_Jan_10_1542,ANT,2021.2.3,60.01176233909215,
1,23,spatial,down,IC,L,,,,,,Block.xlsx,"你已经完成了第一个实验区组

请稍作休息


点击空格键进入下一个区组。",-1.5,0,-1.5,left,RRLRR.png,,,,,0,0,0,0,0,19,19,22,,,,,,,,,,,,,,,,,,,,,,,,,,,,,,,,,,,,,,,,,,,,,,,,,,,,,,,,,,,,,,,,120.08551839995198,120.48588619986549,120.47127379989251,120.57066179998219,120.97118419990875,None,left,1,0.41562279989011586,120.97118419990875,None,120.47127379989251,120.57066179998219,120.57066179998219,None,121.40438239998184,None,,,,,,,11029,001,2024_Jan_10_1542,ANT,2021.2.3,60.01176233909215,
1,20,spatial,up,IC,R,,,,,,Block.xlsx,"你已经完成了第一个实验区组

请稍作休息


点击空格键进入下一个区组。",1.5,0,1.5,right,LLRLL.png,,,,,0,0,0,0,0,20,20,19,,,,,,,,,,,,,,,,,,,,,,,,,,,,,,,,,,,,,,,,,,,,,,,,,,,,,,,,,,,,,,,,121.80456650000997,122.20580759993754,122.18856669985689,122.28891519992612,122.68915719981305,None,right,1,0.40921289985999465,122.68915719981305,None,122.18856669985689,122.28891519992612,122.28891519992612,None,123.1236246000044,None,,,,,,,11029,001,2024_Jan_10_1542,ANT,2021.2.3,60.01176233909215,
1,19,spatial,up,IC,L,,,,,,Block.xlsx,"你已经完成了第一个实验区组

请稍作休息


点击空格键进入下一个区组。",1.5,0,1.5,left,RRLRR.png,,,,,0,0,0,0,0,21,21,18,,,,,,,,,,,,,,,,,,,,,,,,,,,,,,,,,,,,,,,,,,,,,,,,,,,,,,,,,,,,,,,,123.52388340001926,123.9246921997983,123.90756509988569,124.00783609994687,124.40966449980624,None,left,1,0.5126316000241786,124.40966449980624,None,123.90756509988569,124.00783609994687,124.00783609994687,None,124.94296989985742,None,,,,,,,11029,001,2024_Jan_10_1542,ANT,2021.2.3,60.01176233909215,
1,12,center,up,IC,R,,,,,,Block.xlsx,"你已经完成了第一个实验区组

请稍作休息


点击空格键进入下一个区组。",0,50,1.5,right,LLRLL.png,,,,,0,0,0,0,0,22,22,11,,,,,,,,,,,,,,,,,,,,,,,,,,,,,,,,,,,,,,,,,,,,,,,,,,,,,,,,,,,,,,,,125.34321099985391,125.74439399992116,125.72832169989124,125.82721779984422,126.22787569998764,None,right,1,0.5105177001096308,126.22787569998764,None,125.72832169989124,125.82721779984422,125.82721779984422,None,126.76206159987487,None,,,,,,,11029,001,2024_Jan_10_1542,ANT,2021.2.3,60.01176233909215,
1,15,center,down,IC,L,,,,,,Block.xlsx,"你已经完成了第一个实验区组

请稍作休息


点击空格键进入下一个区组。",0,50,-1.5,left,RRLRR.png,,,,,0,0,0,0,0,23,23,14,,,,,,,,,,,,,,,,,,,,,,,,,,,,,,,,,,,,,,,,,,,,,,,,,,,,,,,,,,,,,,,,127.16262719989754,127.56410219985992,127.54679950000718,127.64819199987687,128.04735899996012,None,left,1,0.41114789992570877,128.04735899996012,None,127.54679950000718,127.64819199987687,127.64819199987687,None,128.48115059989505,None,,,,,,,11029,001,2024_Jan_10_1542,ANT,2021.2.3,60.01176233909215,
1,19,spatial,up,IC,L,,,,,,Block.xlsx,"你已经完成了第一个实验区组

请稍作休息


点击空格键进入下一个区组。",1.5,0,1.5,left,RRLRR.png,,,,,0,0,0,0,1,0,24,18,,,,,,,,,,,,,,,,,,,,,,,,,,,,,,,,,,,,,,,,,,,,,,,,,,,,,,,,,,,,,,,,128.88175539998338,129.28259680001065,129.26588899991475,129.3676673998125,129.76666760002263,None,left,1,0.3962238999083638,129.76666760002263,None,129.26588899991475,129.3676673998125,129.3676673998125,None,130.18438240000978,None,,,,,,,11029,001,2024_Jan_10_1542,ANT,2021.2.3,60.01176233909215,
1,13,center,down,C,L,,,,,,Block.xlsx,"你已经完成了第一个实验区组

请稍作休息


点击空格键进入下一个区组。",0,50,-1.5,left,LLLLL.png,,,,,0,0,0,0,1,1,25,12,,,,,,,,,,,,,,,,,,,,,,,,,,,,,,,,,,,,,,,,,,,,,,,,,,,,,,,,,,,,,,,,130.58422239986248,130.985361199826,130.96848159981892,131.06977809988894,131.4694127999246,None,left,1,0.3970162000041455,131.4694127999246,None,130.96848159981892,131.06977809988894,131.06977809988894,None,131.8862022999674,None,,,,,,,11029,001,2024_Jan_10_1542,ANT,2021.2.3,60.01176233909215,
1,15,center,down,IC,L,,,,,,Block.xlsx,"你已经完成了第一个实验区组

请稍作休息


点击空格键进入下一个区组。",0,50,-1.5,left,RRLRR.png,,,,,0,0,0,0,1,2,26,14,,,,,,,,,,,,,,,,,,,,,,,,,,,,,,,,,,,,,,,,,,,,,,,,,,,,,,,,,,,,,,,,132.28688069991767,132.68921320000663,132.67221189988777,132.78753019985743,133.1737030998338,None,left,1,0.48474489990621805,133.1737030998338,None,132.67221189988777,132.78753019985743,132.77211869996972,None,133.68888399982825,None,,,,,,,11029,001,2024_Jan_10_1542,ANT,2021.2.3,60.01176233909215,
1,3,no,up,IC,L,,,,,,Block.xlsx,"你已经完成了第一个实验区组

请稍作休息


点击空格键进入下一个区组。",50,0,1.5,left,RRLRR.png,,,,,0,0,0,0,1,3,27,2,,,,,,,,,,,,,,,,,,,,,,,,,,,,,,,,,,,,,,,,,,,,,,,,,,,,,,,,,,,,,,,,134.08991530002095,134.49113749992102,134.47344349999912,134.57378159998916,134.97424190002494,None,left,1,0.39629710000008345,134.97424190002494,None,134.47344349999912,134.57378159998916,134.57378159998916,None,135.3913253999781,None,,,,,,,11029,001,2024_Jan_10_1542,ANT,2021.2.3,60.01176233909215,
1,17,spatial,up,C,L,,,,,,Block.xlsx,"你已经完成了第一个实验区组

请稍作休息


点击空格键进入下一个区组。",1.5,0,1.5,left,LLLLL.png,,,,,0,0,0,0,1,4,28,16,,,,,,,,,,,,,,,,,,,,,,,,,,,,,,,,,,,,,,,,,,,,,,,,,,,,,,,,,,,,,,,,135.79202950000763,136.1930863999296,136.17756389989518,136.29330959985964,136.677330999868,None,left,1,0.38993330020457506,136.677330999868,None,136.17756389989518,136.29330959985964,136.27670089993626,None,137.09405129984953,None,,,,,,,11029,001,2024_Jan_10_1542,ANT,2021.2.3,60.01176233909215,
1,22,spatial,down,C,R,,,,,,Block.xlsx,"你已经完成了第一个实验区组

请稍作休息


点击空格键进入下一个区组。",-1.5,0,-1.5,right,RRRRR.png,,,,,0,0,0,0,1,5,29,21,,,,,,,,,,,,,,,,,,,,,,,,,,,,,,,,,,,,,,,,,,,,,,,,,,,,,,,,,,,,,,,,137.4944996999111,137.8965639998205,137.8790853000246,137.9788198999595,138.38012959994376,None,right,1,0.39840999990701675,138.38012959994376,None,137.8790853000246,137.9788198999595,137.9788198999595,None,138.79659389983863,None,,,,,,,11029,001,2024_Jan_10_1542,ANT,2021.2.3,60.01176233909215,
1,8,no,down,IC,R,,,,,,Block.xlsx,"你已经完成了第一个实验区组

请稍作休息


点击空格键进入下一个区组。",50,0,-1.5,right,LLRLL.png,,,,,0,0,0,0,1,6,30,7,,,,,,,,,,,,,,,,,,,,,,,,,,,,,,,,,,,,,,,,,,,,,,,,,,,,,,,,,,,,,,,,139.19789159996435,139.5976424999535,139.58210479980335,139.6829962998163,140.0830140998587,None,right,1,0.5674091998953372,140.0830140998587,None,139.58210479980335,139.6829962998163,139.6829962998163,None,140.66609729989432,None,,,,,,,11029,001,2024_Jan_10_1542,ANT,2021.2.3,60.01176233909215,
1,2,no,up,C,R,,,,,,Block.xlsx,"你已经完成了第一个实验区组

请稍作休息


点击空格键进入下一个区组。",50,0,1.5,right,RRRRR.png,,,,,0,0,0,0,1,7,31,1,,,,,,,,,,,,,,,,,,,,,,,,,,,,,,,,,,,,,,,,,,,,,,,,,,,,,,,,,,,,,,,,141.06687199999578,141.46780059998855,141.45116389985196,141.55244939983822,141.95108739985153,None,right,1,0.49970650020986795,141.95108739985153,None,141.45116389985196,141.55244939983822,141.55244939983822,None,142.46847199997865,None,,,,,,,11029,001,2024_Jan_10_1542,ANT,2021.2.3,60.01176233909215,
1,1,no,up,C,L,,,,,,Block.xlsx,"你已经完成了第一个实验区组

请稍作休息


点击空格键进入下一个区组。",50,0,1.5,left,LLLLL.png,,,,,0,0,0,0,1,8,32,0,,,,,,,,,,,,,,,,,,,,,,,,,,,,,,,,,,,,,,,,,,,,,,,,,,,,,,,,,,,,,,,,142.869103099918,143.2699590998236,143.25473719998263,143.35308829997666,143.7555197000038,None,left,1,0.4551993999630213,143.7555197000038,None,143.25473719998263,143.35308829997666,143.35308829997666,None,144.23791389982216,None,,,,,,,11029,001,2024_Jan_10_1542,ANT,2021.2.3,60.01176233909215,
1,18,spatial,up,C,R,,,,,,Block.xlsx,"你已经完成了第一个实验区组

请稍作休息


点击空格键进入下一个区组。",1.5,0,1.5,right,RRRRR.png,,,,,0,0,0,0,1,9,33,17,,,,,,,,,,,,,,,,,,,,,,,,,,,,,,,,,,,,,,,,,,,,,,,,,,,,,,,,,,,,,,,,144.63829559995793,145.04030779981986,145.02270849980414,145.1225948999636,145.5236350998748,None,right,1,0.46404240000993013,145.5236350998748,None,145.02270849980414,145.1225948999636,145.1225948999636,None,146.00738829979673,None,,,,,,,11029,001,2024_Jan_10_1542,ANT,2021.2.3,60.01176233909215,
1,4,no,up,IC,R,,,,,,Block.xlsx,"你已经完成了第一个实验区组

请稍作休息


点击空格键进入下一个区组。",50,0,1.5,right,LLRLL.png,,,,,0,0,0,0,1,10,34,3,,,,,,,,,,,,,,,,,,,,,,,,,,,,,,,,,,,,,,,,,,,,,,,,,,,,,,,,,,,,,,,,146.40837409999222,146.8086641000118,146.7917071999982,146.89200919982977,147.29417090001516,None,right,1,0.5082490001805127,147.29417090001516,None,146.7917071999982,146.89200919982977,146.89200919982977,None,147.82654919987544,None,,,,,,,11029,001,2024_Jan_10_1542,ANT,2021.2.3,60.01176233909215,
1,3,no,up,IC,L,,,,,,Block.xlsx,"你已经完成了第一个实验区组

请稍作休息


点击空格键进入下一个区组。",50,0,1.5,left,RRLRR.png,,,,,0,0,0,0,1,11,35,2,,,,,,,,,,,,,,,,,,,,,,,,,,,,,,,,,,,,,,,,,,,,,,,,,,,,,,,,,,,,,,,,148.22770379995927,148.6283253999427,148.61116959992796,148.71241059992462,149.1133461999707,None,left,1,0.5212119999341667,149.1133461999707,None,148.61116959992796,148.71241059992462,148.71241059992462,None,149.66250149998814,None,,,,,,,11029,001,2024_Jan_10_1542,ANT,2021.2.3,60.01176233909215,
1,24,spatial,down,IC,R,,,,,,Block.xlsx,"你已经完成了第一个实验区组

请稍作休息


点击空格键进入下一个区组。",-1.5,0,-1.5,right,LLRLL.png,,,,,0,0,0,0,1,12,36,23,,,,,,,,,,,,,,,,,,,,,,,,,,,,,,,,,,,,,,,,,,,,,,,,,,,,,,,,,,,,,,,,150.06323720002547,150.46501489984803,150.44706229981966,150.54755089990795,150.9478952998761,None,right,1,0.4226269999053329,150.9478952998761,None,150.44706229981966,150.54755089990795,150.54755089990795,None,151.39819949981757,None,,,,,,,11029,001,2024_Jan_10_1542,ANT,2021.2.3,60.01176233909215,
1,21,spatial,down,C,L,,,,,,Block.xlsx,"你已经完成了第一个实验区组

请稍作休息


点击空格键进入下一个区组。",-1.5,0,-1.5,left,LLLLL.png,,,,,0,0,0,0,1,13,37,20,,,,,,,,,,,,,,,,,,,,,,,,,,,,,,,,,,,,,,,,,,,,,,,,,,,,,,,,,,,,,,,,151.7990407999605,152.2004579999484,152.183261499973,152.28551309998147,152.68406290002167,None,left,1,0.37432399997487664,152.68406290002167,None,152.183261499973,152.28551309998147,152.28551309998147,None,153.08413679990917,None,,,,,,,11029,001,2024_Jan_10_1542,ANT,2021.2.3,60.01176233909215,
1,21,spatial,down,C,L,,,,,,Block.xlsx,"你已经完成了第一个实验区组

请稍作休息


点击空格键进入下一个区组。",-1.5,0,-1.5,left,LLLLL.png,,,,,0,0,0,0,1,14,38,20,,,,,,,,,,,,,,,,,,,,,,,,,,,,,,,,,,,,,,,,,,,,,,,,,,,,,,,,,,,,,,,,153.48544059996493,153.88551649986766,153.86925349989906,153.97042529983446,154.37134639988653,None,left,1,0.3590936998371035,154.37134639988653,None,153.86925349989906,153.97042529983446,153.97042529983446,None,154.75341230002232,None,,,,,,,11029,001,2024_Jan_10_1542,ANT,2021.2.3,60.01176233909215,
1,5,no,down,C,L,,,,,,Block.xlsx,"你已经完成了第一个实验区组

请稍作休息


点击空格键进入下一个区组。",50,0,-1.5,left,LLLLL.png,,,,,0,0,0,0,1,15,39,4,,,,,,,,,,,,,,,,,,,,,,,,,,,,,,,,,,,,,,,,,,,,,,,,,,,,,,,,,,,,,,,,155.154670199845,155.55578689998947,155.5382240000181,155.6390782999806,156.03987309988588,None,left,1,0.4108861000277102,156.03987309988588,None,155.5382240000181,155.6390782999806,155.6390782999806,None,156.4729345999658,None,,,,,,,11029,001,2024_Jan_10_1542,ANT,2021.2.3,60.01176233909215,
1,1,no,up,C,L,,,,,,Block.xlsx,"你已经完成了第一个实验区组

请稍作休息


点击空格键进入下一个区组。",50,0,1.5,left,LLLLL.png,,,,,0,0,0,0,1,16,40,0,,,,,,,,,,,,,,,,,,,,,,,,,,,,,,,,,,,,,,,,,,,,,,,,,,,,,,,,,,,,,,,,156.8732943998184,157.2749838999007,157.25718979979865,157.35824119998142,157.75784599990584,None,left,1,0.4851424000225961,157.75784599990584,None,157.25718979979865,157.35824119998142,157.35824119998142,None,158.2585940998979,None,,,,,,,11029,001,2024_Jan_10_1542,ANT,2021.2.3,60.01176233909215,
1,16,center,down,IC,R,,,,,,Block.xlsx,"你已经完成了第一个实验区组

请稍作休息


点击空格键进入下一个区组。",0,50,-1.5,right,LLRLL.png,,,,,0,0,0,0,1,17,41,15,,,,,,,,,,,,,,,,,,,,,,,,,,,,,,,,,,,,,,,,,,,,,,,,,,,,,,,,,,,,,,,,158.65999149996787,159.0605837998446,159.0439593999181,159.14317759987898,159.5452027998399,None,right,1,0.4654141999781132,159.5452027998399,None,159.0439593999181,159.14317759987898,159.14317759987898,None,160.0277976000216,None,,,,,,,11029,001,2024_Jan_10_1542,ANT,2021.2.3,60.01176233909215,
1,24,spatial,down,IC,R,,,,,,Block.xlsx,"你已经完成了第一个实验区组

请稍作休息


点击空格键进入下一个区组。",-1.5,0,-1.5,right,LLRLL.png,,,,,0,0,0,0,1,18,42,23,,,,,,,,,,,,,,,,,,,,,,,,,,,,,,,,,,,,,,,,,,,,,,,,,,,,,,,,,,,,,,,,160.42869460000657,160.83054749993607,160.81232449994422,160.91340249986388,161.31439199997112,None,right,1,0.39205150003544986,161.31439199997112,None,160.81232449994422,160.91340249986388,160.91340249986388,None,161.73073549987748,None,,,,,,,11029,001,2024_Jan_10_1542,ANT,2021.2.3,60.01176233909215,
1,7,no,down,IC,L,,,,,,Block.xlsx,"你已经完成了第一个实验区组

请稍作休息


点击空格键进入下一个区组。",50,0,-1.5,left,RRLRR.png,,,,,0,0,0,0,1,19,43,6,,,,,,,,,,,,,,,,,,,,,,,,,,,,,,,,,,,,,,,,,,,,,,,,,,,,,,,,,,,,,,,,162.13176969997585,162.53227239986882,162.516203999985,162.61642299988307,163.0178178998176,None,left,1,0.40063620009459555,163.0178178998176,None,162.516203999985,162.61642299988307,162.61642299988307,None,163.45012699998915,None,,,,,,,11029,001,2024_Jan_10_1542,ANT,2021.2.3,60.01176233909215,
1,14,center,down,C,R,,,,,,Block.xlsx,"你已经完成了第一个实验区组

请稍作休息


点击空格键进入下一个区组。",0,50,-1.5,right,RRRRR.png,,,,,0,0,0,0,1,20,44,13,,,,,,,,,,,,,,,,,,,,,,,,,,,,,,,,,,,,,,,,,,,,,,,,,,,,,,,,,,,,,,,,163.8503298999276,164.25199209991843,164.23421669984236,164.33572179987095,164.73710619984195,None,right,1,0.4502677998971194,164.73710619984195,None,164.23421669984236,164.33572179987095,164.33572179987095,None,165.2021244999487,None,,,,,,,11029,001,2024_Jan_10_1542,ANT,2021.2.3,60.01176233909215,
1,9,center,up,C,L,,,,,,Block.xlsx,"你已经完成了第一个实验区组

请稍作休息


点击空格键进入下一个区组。",0,50,1.5,left,LLLLL.png,,,,,0,0,0,0,1,21,45,8,,,,,,,,,,,,,,,,,,,,,,,,,,,,,,,,,,,,,,,,,,,,,,,,,,,,,,,,,,,,,,,,165.60278750001453,166.00337229995057,165.98827599990182,166.08665369986556,166.48733799997717,None,left,1,0.4270566999912262,166.48733799997717,None,165.98827599990182,166.08665369986556,166.08665369986556,None,166.93814009986818,None,,,,,,,11029,001,2024_Jan_10_1542,ANT,2021.2.3,60.01176233909215,
1,14,center,down,C,R,,,,,,Block.xlsx,"你已经完成了第一个实验区组

请稍作休息


点击空格键进入下一个区组。",0,50,-1.5,right,RRRRR.png,,,,,0,0,0,0,1,22,46,13,,,,,,,,,,,,,,,,,,,,,,,,,,,,,,,,,,,,,,,,,,,,,,,,,,,,,,,,,,,,,,,,167.33883859985508,167.74064769991674,167.7225579000078,167.8231819998473,168.22397039993666,None,right,1,0.3785872000735253,168.22397039993666,None,167.7225579000078,167.8231819998473,167.8231819998473,None,168.62433519982733,None,,,,,,,11029,001,2024_Jan_10_1542,ANT,2021.2.3,60.01176233909215,
1,10,center,up,C,R,,,,,,Block.xlsx,"你已经完成了第一个实验区组

请稍作休息


点击空格键进入下一个区组。",0,50,1.5,right,RRRRR.png,,,,,0,0,0,0,1,23,47,9,,,,,,,,,,,,,,,,,,,,,,,,,,,,,,,,,,,,,,,,,,,,,,,,,,,,,,,,,,,,,,,,169.02449289988726,169.42592970002443,169.40849999990314,169.5094884999562,169.90922149992548,None,left,0,0.3653541000094265,169.90922149992548,None,169.40849999990314,169.5094884999562,169.5094884999562,None,170.2931122998707,None,,,,,,,11029,001,2024_Jan_10_1542,ANT,2021.2.3,60.01176233909215,
1,11,center,up,IC,L,,,,,,Block.xlsx,"你已经完成了第一个实验区组

请稍作休息


点击空格键进入下一个区组。",0,50,1.5,left,RRLRR.png,,,,,0,0,0,0,2,0,48,10,,,,,,,,,,,,,,,,,,,,,,,,,,,,,,,,,,,,,,,,,,,,,,,,,,,,,,,,,,,,,,,,170.6935242000036,171.09430280001834,171.07899029995315,171.18028400000185,171.57930019986816,None,left,1,0.6232112001162022,171.57930019986816,None,171.07899029995315,171.18028400000185,171.18028400000185,None,172.22992339986376,None,,,,,,,11029,001,2024_Jan_10_1542,ANT,2021.2.3,60.01176233909215,
1,16,center,down,IC,R,,,,,,Block.xlsx,"你已经完成了第一个实验区组

请稍作休息


点击空格键进入下一个区组。",0,50,-1.5,right,LLRLL.png,,,,,0,0,0,0,2,1,49,15,,,,,,,,,,,,,,,,,,,,,,,,,,,,,,,,,,,,,,,,,,,,,,,,,,,,,,,,,,,,,,,,172.62989309988916,173.03161019994877,173.01447639986873,173.11555619980209,173.51649059983902,None,right,1,0.44604079984128475,173.51649059983902,None,173.01447639986873,173.11555619980209,173.11555619980209,None,173.9817232999485,None,,,,,,,11029,001,2024_Jan_10_1542,ANT,2021.2.3,60.01176233909215,
1,9,center,up,C,L,,,,,,Block.xlsx,"你已经完成了第一个实验区组

请稍作休息


点击空格键进入下一个区组。",0,50,1.5,left,LLLLL.png,,,,,0,0,0,0,2,2,50,8,,,,,,,,,,,,,,,,,,,,,,,,,,,,,,,,,,,,,,,,,,,,,,,,,,,,,,,,,,,,,,,,174.3832672999706,174.7835003999062,174.76639020000584,174.86844969983213,175.26719369995408,None,left,1,0.42365580005571246,175.26719369995408,None,174.76639020000584,174.86844969983213,174.86844969983213,None,175.71796819986776,None,,,,,,,11029,001,2024_Jan_10_1542,ANT,2021.2.3,60.01176233909215,
1,24,spatial,down,IC,R,,,,,,Block.xlsx,"你已经完成了第一个实验区组

请稍作休息


点击空格键进入下一个区组。",-1.5,0,-1.5,right,LLRLL.png,,,,,0,0,0,0,2,3,51,23,,,,,,,,,,,,,,,,,,,,,,,,,,,,,,,,,,,,,,,,,,,,,,,,,,,,,,,,,,,,,,,,176.11922249989584,176.51970159984194,176.50226729991846,176.6029802998528,177.0045237999875,None,right,1,0.3899972001090646,177.0045237999875,None,176.50226729991846,176.6029802998528,176.6029802998528,None,177.42110749986023,None,,,,,,,11029,001,2024_Jan_10_1542,ANT,2021.2.3,60.01176233909215,
1,17,spatial,up,C,L,,,,,,Block.xlsx,"你已经完成了第一个实验区组

请稍作休息


点击空格键进入下一个区组。",1.5,0,1.5,left,LLLLL.png,,,,,0,0,0,0,2,4,52,16,,,,,,,,,,,,,,,,,,,,,,,,,,,,,,,,,,,,,,,,,,,,,,,,,,,,,,,,,,,,,,,,177.82080859993584,178.22216469980776,178.20553879998624,178.30603379989043,178.70630889991298,None,left,1,0.4004812999628484,178.70630889991298,None,178.20553879998624,178.30603379989043,178.30603379989043,None,179.12268289993517,None,,,,,,,11029,001,2024_Jan_10_1542,ANT,2021.2.3,60.01176233909215,
1,15,center,down,IC,L,,,,,,Block.xlsx,"你已经完成了第一个实验区组

请稍作休息


点击空格键进入下一个区组。",0,50,-1.5,left,RRLRR.png,,,,,0,0,0,0,2,5,53,14,,,,,,,,,,,,,,,,,,,,,,,,,,,,,,,,,,,,,,,,,,,,,,,,,,,,,,,,,,,,,,,,179.52364049991593,179.92459279997274,179.90953219984658,180.0250887000002,180.40929089998826,None,left,1,0.4734789999201894,180.40929089998826,None,179.90953219984658,180.0250887000002,180.00814869999886,None,180.90891419979744,None,,,,,,,11029,001,2024_Jan_10_1542,ANT,2021.2.3,60.01176233909215,
1,24,spatial,down,IC,R,,,,,,Block.xlsx,"你已经完成了第一个实验区组

请稍作休息


点击空格键进入下一个区组。",-1.5,0,-1.5,right,LLRLL.png,,,,,0,0,0,0,2,6,54,23,,,,,,,,,,,,,,,,,,,,,,,,,,,,,,,,,,,,,,,,,,,,,,,,,,,,,,,,,,,,,,,,181.30921559990384,181.7113816998899,181.69312219996937,181.7941502998583,182.1950570999179,None,right,1,0.4967575999908149,182.1950570999179,None,181.69312219996937,181.7941502998583,181.7941502998583,None,182.71150629990734,None,,,,,,,11029,001,2024_Jan_10_1542,ANT,2021.2.3,60.01176233909215,
1,13,center,down,C,L,,,,,,Block.xlsx,"你已经完成了第一个实验区组

请稍作休息


点击空格键进入下一个区组。",0,50,-1.5,left,LLLLL.png,,,,,0,0,0,0,2,7,55,12,,,,,,,,,,,,,,,,,,,,,,,,,,,,,,,,,,,,,,,,,,,,,,,,,,,,,,,,,,,,,,,,183.11215509986505,183.5134874000214,183.4959236998111,183.59614379983395,183.99768349993974,None,left,1,0.508667399873957,183.99768349993974,None,183.4959236998111,183.59614379983395,183.59614379983395,None,184.5308918999508,None,,,,,,,11029,001,2024_Jan_10_1542,ANT,2021.2.3,60.01176233909215,
1,7,no,down,IC,L,,,,,,Block.xlsx,"你已经完成了第一个实验区组

请稍作休息


点击空格键进入下一个区组。",50,0,-1.5,left,RRLRR.png,,,,,0,0,0,0,2,8,56,6,,,,,,,,,,,,,,,,,,,,,,,,,,,,,,,,,,,,,,,,,,,,,,,,,,,,,,,,,,,,,,,,184.931545099942,185.33333059982397,185.31567129981704,185.41564389993437,185.8179554999806,None,left,1,0.44048940017819405,185.8179554999806,None,185.31567129981704,185.41564389993437,185.41564389993437,None,186.28335639997385,None,,,,,,,11029,001,2024_Jan_10_1542,ANT,2021.2.3,60.01176233909215,
1,9,center,up,C,L,,,,,,Block.xlsx,"你已经完成了第一个实验区组

请稍作休息


点击空格键进入下一个区组。",0,50,1.5,left,LLLLL.png,,,,,0,0,0,0,2,9,57,8,,,,,,,,,,,,,,,,,,,,,,,,,,,,,,,,,,,,,,,,,,,,,,,,,,,,,,,,,,,,,,,,186.68447349988855,187.08530609984882,187.067964799935,187.1694008000195,187.5685921998229,None,left,1,0.4511792999692261,187.5685921998229,None,187.067964799935,187.1694008000195,187.1694008000195,None,188.0360774998553,None,,,,,,,11029,001,2024_Jan_10_1542,ANT,2021.2.3,60.01176233909215,
1,6,no,down,C,R,,,,,,Block.xlsx,"你已经完成了第一个实验区组

请稍作休息


点击空格键进入下一个区组。",50,0,-1.5,right,RRRRR.png,,,,,0,0,0,0,2,10,58,5,,,,,,,,,,,,,,,,,,,,,,,,,,,,,,,,,,,,,,,,,,,,,,,,,,,,,,,,,,,,,,,,188.437091199914,188.83824720000848,188.82065099989995,188.92219770001248,189.3219173999969,None,right,1,0.4167194999754429,189.3219173999969,None,188.82065099989995,188.92219770001248,188.92219770001248,None,189.75513219996355,None,,,,,,,11029,001,2024_Jan_10_1542,ANT,2021.2.3,60.01176233909215,
1,14,center,down,C,R,,,,,,Block.xlsx,"你已经完成了第一个实验区组

请稍作休息


点击空格键进入下一个区组。",0,50,-1.5,right,RRRRR.png,,,,,0,0,0,0,2,11,59,13,,,,,,,,,,,,,,,,,,,,,,,,,,,,,,,,,,,,,,,,,,,,,,,,,,,,,,,,,,,,,,,,190.15600199997425,190.5566612998955,190.54040850000456,190.6410862999037,191.0425523999147,None,right,1,0.5280305999331176,191.0425523999147,None,190.54040850000456,190.6410862999037,190.6410862999037,None,191.5912177998107,None,,,,,,,11029,001,2024_Jan_10_1542,ANT,2021.2.3,60.01176233909215,
1,4,no,up,IC,R,,,,,,Block.xlsx,"你已经完成了第一个实验区组

请稍作休息


点击空格键进入下一个区组。",50,0,1.5,right,LLRLL.png,,,,,0,0,0,0,2,12,60,3,,,,,,,,,,,,,,,,,,,,,,,,,,,,,,,,,,,,,,,,,,,,,,,,,,,,,,,,,,,,,,,,191.99186529987492,192.3944245998282,192.3765908998903,192.47680870001204,192.87751129991375,None,right,1,0.4771239999681711,192.87751129991375,None,192.3765908998903,192.47680870001204,192.47680870001204,None,193.37777439993806,None,,,,,,,11029,001,2024_Jan_10_1542,ANT,2021.2.3,60.01176233909215,
1,3,no,up,IC,L,,,,,,Block.xlsx,"你已经完成了第一个实验区组

请稍作休息


点击空格键进入下一个区组。",50,0,1.5,left,RRLRR.png,,,,,0,0,0,0,2,13,61,2,,,,,,,,,,,,,,,,,,,,,,,,,,,,,,,,,,,,,,,,,,,,,,,,,,,,,,,,,,,,,,,,193.7777066999115,194.17923709983006,194.1617755999323,194.2635708998423,194.66254989989102,None,left,1,0.49190020002424717,194.66254989989102,None,194.1617755999323,194.2635708998423,194.2635708998423,None,195.1804374998901,None,,,,,,,11029,001,2024_Jan_10_1542,ANT,2021.2.3,60.01176233909215,
1,12,center,up,IC,R,,,,,,Block.xlsx,"你已经完成了第一个实验区组

请稍作休息


点击空格键进入下一个区组。",0,50,1.5,right,LLRLL.png,,,,,0,0,0,0,2,14,62,11,,,,,,,,,,,,,,,,,,,,,,,,,,,,,,,,,,,,,,,,,,,,,,,,,,,,,,,,,,,,,,,,195.58089599991217,195.98161859996617,195.96505809994414,196.06556969997473,196.46596029982902,None,right,1,0.5452121999114752,196.46596029982902,None,195.96505809994414,196.06556969997473,196.06556969997473,None,197.03383999993093,None,,,,,,,11029,001,2024_Jan_10_1542,ANT,2021.2.3,60.01176233909215,
1,22,spatial,down,C,R,,,,,,Block.xlsx,"你已经完成了第一个实验区组

请稍作休息


点击空格键进入下一个区组。",-1.5,0,-1.5,right,RRRRR.png,,,,,0,0,0,0,2,15,63,21,,,,,,,,,,,,,,,,,,,,,,,,,,,,,,,,,,,,,,,,,,,,,,,,,,,,,,,,,,,,,,,,197.43367479997687,197.83408379997127,197.81803580000997,197.91741629992612,198.31844299985096,None,right,1,0.380499399965629,198.31844299985096,None,197.81803580000997,197.91741629992612,197.91741629992612,None,198.7186529999599,None,,,,,,,11029,001,2024_Jan_10_1542,ANT,2021.2.3,60.01176233909215,
1,3,no,up,IC,L,,,,,,Block.xlsx,"你已经完成了第一个实验区组

请稍作休息


点击空格键进入下一个区组。",50,0,1.5,left,RRLRR.png,,,,,0,0,0,0,2,16,64,2,,,,,,,,,,,,,,,,,,,,,,,,,,,,,,,,,,,,,,,,,,,,,,,,,,,,,,,,,,,,,,,,199.1189439999871,199.5210731998086,199.50398179981858,199.6037279998418,200.00377930002287,None,left,1,0.4790160998236388,200.00377930002287,None,199.50398179981858,199.6037279998418,199.6037279998418,None,200.50451969983988,None,,,,,,,11029,001,2024_Jan_10_1542,ANT,2021.2.3,60.01176233909215,
1,10,center,up,C,R,,,,,,Block.xlsx,"你已经完成了第一个实验区组

请稍作休息


点击空格键进入下一个区组。",0,50,1.5,right,RRRRR.png,,,,,0,0,0,0,2,17,65,9,,,,,,,,,,,,,,,,,,,,,,,,,,,,,,,,,,,,,,,,,,,,,,,,,,,,,,,,,,,,,,,,200.90521669993177,201.30766659998335,201.29021709994413,201.39065829990432,201.7907492998056,None,right,1,0.45202290010638535,201.7907492998056,None,201.29021709994413,201.39065829990432,201.39065829990432,None,202.25697829993442,None,,,,,,,11029,001,2024_Jan_10_1542,ANT,2021.2.3,60.01176233909215,
1,19,spatial,up,IC,L,,,,,,Block.xlsx,"你已经完成了第一个实验区组

请稍作休息


点击空格键进入下一个区组。",1.5,0,1.5,left,RRLRR.png,,,,,0,0,0,0,2,18,66,18,,,,,,,,,,,,,,,,,,,,,,,,,,,,,,,,,,,,,,,,,,,,,,,,,,,,,,,,,,,,,,,,202.65788879990578,203.0586011998821,203.04393399995752,203.15840509999543,203.54239690001123,None,left,1,0.40423320000991225,203.54239690001123,None,203.04393399995752,203.15840509999543,203.1435518998187,None,203.97631549998187,None,,,,,,,11029,001,2024_Jan_10_1542,ANT,2021.2.3,60.01176233909215,
1,21,spatial,down,C,L,,,,,,Block.xlsx,"你已经完成了第一个实验区组

请稍作休息


点击空格键进入下一个区组。",-1.5,0,-1.5,left,LLLLL.png,,,,,0,0,0,0,2,19,67,20,,,,,,,,,,,,,,,,,,,,,,,,,,,,,,,,,,,,,,,,,,,,,,,,,,,,,,,,,,,,,,,,204.37689840001985,204.77830789983273,204.7624242999591,204.8777791999746,205.26296259998344,None,left,1,0.43557469989173114,205.26296259998344,None,204.7624242999591,204.8777791999746,204.86250629997812,None,205.7290037998464,None,,,,,,,11029,001,2024_Jan_10_1542,ANT,2021.2.3,60.01176233909215,
1,12,center,up,IC,R,,,,,,Block.xlsx,"你已经完成了第一个实验区组

请稍作休息


点击空格键进入下一个区组。",0,50,1.5,right,LLRLL.png,,,,,0,0,0,0,2,20,68,11,,,,,,,,,,,,,,,,,,,,,,,,,,,,,,,,,,,,,,,,,,,,,,,,,,,,,,,,,,,,,,,,206.12963869981468,206.53236519987695,206.51386509998702,206.6144846000243,207.0156960999593,None,right,1,0.3948254999704659,207.0156960999593,None,206.51386509998702,206.6144846000243,206.6144846000243,None,207.43141389987431,None,,,,,,,11029,001,2024_Jan_10_1542,ANT,2021.2.3,60.01176233909215,
1,1,no,up,C,L,,,,,,Block.xlsx,"你已经完成了第一个实验区组

请稍作休息


点击空格键进入下一个区组。",50,0,1.5,left,LLLLL.png,,,,,0,0,0,0,2,21,69,0,,,,,,,,,,,,,,,,,,,,,,,,,,,,,,,,,,,,,,,,,,,,,,,,,,,,,,,,,,,,,,,,207.83208879991435,208.23386979987845,208.21610079985112,208.31773879984394,208.7174881999381,None,left,1,0.48505349992774427,208.7174881999381,None,208.21610079985112,208.31773879984394,208.31773879984394,None,209.21744089992717,None,,,,,,,11029,001,2024_Jan_10_1542,ANT,2021.2.3,60.01176233909215,
1,8,no,down,IC,R,,,,,,Block.xlsx,"你已经完成了第一个实验区组

请稍作休息


点击空格键进入下一个区组。",50,0,-1.5,right,LLRLL.png,,,,,0,0,0,0,2,22,70,7,,,,,,,,,,,,,,,,,,,,,,,,,,,,,,,,,,,,,,,,,,,,,,,,,,,,,,,,,,,,,,,,209.61799459997565,210.02079269988462,210.00254309992306,210.10218219994567,210.50360049982555,None,right,1,0.5068644999992102,210.50360049982555,None,210.00254309992306,210.10218219994567,210.10218219994567,None,211.03660989995115,None,,,,,,,11029,001,2024_Jan_10_1542,ANT,2021.2.3,60.01176233909215,
1,17,spatial,up,C,L,,,,,,Block.xlsx,"你已经完成了第一个实验区组

请稍作休息


点击空格键进入下一个区组。",1.5,0,1.5,left,LLLLL.png,,,,,0,0,0,0,2,23,71,16,,,,,,,,,,,,,,,,,,,,,,,,,,,,,,,,,,,,,,,,,,,,,,,,,,,,,,,,,,,,,,,,211.43752509984188,211.8383329999633,211.82319329981692,211.9389154999517,212.32313829986379,None,left,1,0.41543609998188913,212.32313829986379,None,211.82319329981692,211.9389154999517,211.92152229999192,None,212.7559896998573,None,,,,,,,11029,001,2024_Jan_10_1542,ANT,2021.2.3,60.01176233909215,
1,18,spatial,up,C,R,,,,,,Block.xlsx,"你已经完成了第一个实验区组

请稍作休息


点击空格键进入下一个区组。",1.5,0,1.5,right,RRRRR.png,,,,,0,0,0,0,3,0,72,17,,,,,,,,,,,,,,,,,,,,,,,,,,,,,,,,,,,,,,,,,,,,,,,,,,,,,,,,,,,,,,,,213.15667679999024,213.55724260001443,213.54112249985337,213.64199899998493,214.04119789996184,None,right,1,0.4899823998566717,214.04119789996184,None,213.54112249985337,213.64199899998493,213.64199899998493,None,214.55871149990708,None,,,,,,,11029,001,2024_Jan_10_1542,ANT,2021.2.3,60.01176233909215,
1,4,no,up,IC,R,,,,,,Block.xlsx,"你已经完成了第一个实验区组

请稍作休息


点击空格键进入下一个区组。",50,0,1.5,right,LLRLL.png,,,,,0,0,0,0,3,1,73,3,,,,,,,,,,,,,,,,,,,,,,,,,,,,,,,,,,,,,,,,,,,,,,,,,,,,,,,,,,,,,,,,214.95929489983246,215.36062900000252,215.3432006998919,215.4447898999788,215.84419259987772,None,right,1,0.53471489995718,215.84419259987772,None,215.3432006998919,215.4447898999788,215.4447898999788,None,216.39476319984533,None,,,,,,,11029,001,2024_Jan_10_1542,ANT,2021.2.3,60.01176233909215,
1,10,center,up,C,R,,,,,,Block.xlsx,"你已经完成了第一个实验区组

请稍作休息


点击空格键进入下一个区组。",0,50,1.5,right,RRRRR.png,,,,,0,0,0,0,3,2,74,9,,,,,,,,,,,,,,,,,,,,,,,,,,,,,,,,,,,,,,,,,,,,,,,,,,,,,,,,,,,,,,,,216.7957458999008,217.19755849987268,217.17974039982073,217.2815295998007,217.68012999999337,None,right,1,0.4423811000306159,217.68012999999337,None,217.17974039982073,217.2815295998007,217.2815295998007,None,218.14764209999703,None,,,,,,,11029,001,2024_Jan_10_1542,ANT,2021.2.3,60.01176233909215,
1,23,spatial,down,IC,L,,,,,,Block.xlsx,"你已经完成了第一个实验区组

请稍作休息


点击空格键进入下一个区组。",-1.5,0,-1.5,left,RRLRR.png,,,,,0,0,0,0,3,3,75,22,,,,,,,,,,,,,,,,,,,,,,,,,,,,,,,,,,,,,,,,,,,,,,,,,,,,,,,,,,,,,,,,218.5477932000067,218.94856329984032,218.93329559988342,219.03243809984997,219.43280289997347,None,left,1,0.5856716001871973,219.43280289997347,None,218.93329559988342,219.03243809984997,219.03243809984997,None,220.03367839986458,None,,,,,,,11029,001,2024_Jan_10_1542,ANT,2021.2.3,60.01176233909215,
1,18,spatial,up,C,R,,,,,,Block.xlsx,"你已经完成了第一个实验区组

请稍作休息


点击空格键进入下一个区组。",1.5,0,1.5,right,RRRRR.png,,,,,0,0,0,0,3,4,76,17,,,,,,,,,,,,,,,,,,,,,,,,,,,,,,,,,,,,,,,,,,,,,,,,,,,,,,,,,,,,,,,,220.43462489987724,220.83480549999513,220.81823189998977,220.91890239994973,221.31906999996863,None,right,1,0.39547730004414916,221.31906999996863,None,220.81823189998977,220.91890239994973,220.91890239994973,None,221.73608559998684,None,,,,,,,11029,001,2024_Jan_10_1542,ANT,2021.2.3,60.01176233909215,
1,9,center,up,C,L,,,,,,Block.xlsx,"你已经完成了第一个实验区组

请稍作休息


点击空格键进入下一个区组。",0,50,1.5,left,LLLLL.png,,,,,0,0,0,0,3,5,77,8,,,,,,,,,,,,,,,,,,,,,,,,,,,,,,,,,,,,,,,,,,,,,,,,,,,,,,,,,,,,,,,,222.13662879983895,222.53729219990782,222.52295239991508,222.63846469996497,223.02123579988256,None,left,1,0.6773652001284063,223.02123579988256,None,222.52295239991508,222.63846469996497,222.62057789997198,None,223.7222825998906,None,,,,,,,11029,001,2024_Jan_10_1542,ANT,2021.2.3,60.01176233909215,
1,20,spatial,up,IC,R,,,,,,Block.xlsx,"你已经完成了第一个实验区组

请稍作休息


点击空格键进入下一个区组。",1.5,0,1.5,right,LLRLL.png,,,,,0,0,0,0,3,6,78,19,,,,,,,,,,,,,,,,,,,,,,,,,,,,,,,,,,,,,,,,,,,,,,,,,,,,,,,,,,,,,,,,224.12312739994377,224.52403169986792,224.50742419995368,224.60680309985764,225.0087637999095,None,right,1,0.4498793000821024,225.0087637999095,None,224.50742419995368,224.60680309985764,224.60680309985764,None,225.47491809981875,None,,,,,,,11029,001,2024_Jan_10_1542,ANT,2021.2.3,60.01176233909215,
1,1,no,up,C,L,,,,,,Block.xlsx,"你已经完成了第一个实验区组

请稍作休息


点击空格键进入下一个区组。",50,0,1.5,left,LLLLL.png,,,,,0,0,0,0,3,7,79,0,,,,,,,,,,,,,,,,,,,,,,,,,,,,,,,,,,,,,,,,,,,,,,,,,,,,,,,,,,,,,,,,225.87595140002668,226.27791689988226,226.25957029988058,226.3601945999544,226.76049309992231,None,left,1,0.3864602001849562,226.76049309992231,None,226.25957029988058,226.3601945999544,226.3601945999544,None,227.17725729988888,None,,,,,,,11029,001,2024_Jan_10_1542,ANT,2021.2.3,60.01176233909215,
1,20,spatial,up,IC,R,,,,,,Block.xlsx,"你已经完成了第一个实验区组

请稍作休息


点击空格键进入下一个区组。",1.5,0,1.5,right,LLRLL.png,,,,,0,0,0,0,3,8,80,19,,,,,,,,,,,,,,,,,,,,,,,,,,,,,,,,,,,,,,,,,,,,,,,,,,,,,,,,,,,,,,,,227.5781743999105,227.97848879988305,227.96209869999439,228.06204200000502,228.46345269982703,None,right,1,0.47534399991855025,228.46345269982703,None,227.96209869999439,228.06204200000502,228.06204200000502,None,228.96342569985427,None,,,,,,,11029,001,2024_Jan_10_1542,ANT,2021.2.3,60.01176233909215,
1,16,center,down,IC,R,,,,,,Block.xlsx,"你已经完成了第一个实验区组

请稍作休息


点击空格键进入下一个区组。",0,50,-1.5,right,LLRLL.png,,,,,0,0,0,0,3,9,81,15,,,,,,,,,,,,,,,,,,,,,,,,,,,,,,,,,,,,,,,,,,,,,,,,,,,,,,,,,,,,,,,,229.3639885999728,229.76573609979823,229.74849869986065,229.8485983000137,230.24912149994634,None,right,1,0.5774781000800431,230.24912149994634,None,229.74849869986065,229.8485983000137,229.8485983000137,None,230.8493668998126,None,,,,,,,11029,001,2024_Jan_10_1542,ANT,2021.2.3,60.01176233909215,
1,20,spatial,up,IC,R,,,,,,Block.xlsx,"你已经完成了第一个实验区组

请稍作休息


点击空格键进入下一个区组。",1.5,0,1.5,right,LLRLL.png,,,,,0,0,0,0,3,10,82,19,,,,,,,,,,,,,,,,,,,,,,,,,,,,,,,,,,,,,,,,,,,,,,,,,,,,,,,,,,,,,,,,231.24998539988883,231.6521361998748,231.63418429996818,231.73520819982514,232.13607399980538,None,right,1,0.4112406999338418,232.13607399980538,None,231.63418429996818,231.73520819982514,231.73520819982514,None,232.5688979998231,None,,,,,,,11029,001,2024_Jan_10_1542,ANT,2021.2.3,60.01176233909215,
1,6,no,down,C,R,,,,,,Block.xlsx,"你已经完成了第一个实验区组

请稍作休息


点击空格键进入下一个区组。",50,0,-1.5,right,RRRRR.png,,,,,0,0,0,0,3,11,83,5,,,,,,,,,,,,,,,,,,,,,,,,,,,,,,,,,,,,,,,,,,,,,,,,,,,,,,,,,,,,,,,,232.9694050999824,233.3714429999236,233.35406089993194,233.45452089980245,233.8540560998954,None,right,1,0.5406057999935001,233.8540560998954,None,233.35406089993194,233.45452089980245,233.45452089980245,None,234.4214757999871,None,,,,,,,11029,001,2024_Jan_10_1542,ANT,2021.2.3,60.01176233909215,
1,2,no,up,C,R,,,,,,Block.xlsx,"你已经完成了第一个实验区组

请稍作休息


点击空格键进入下一个区组。",50,0,1.5,right,RRRRR.png,,,,,0,0,0,0,3,12,84,1,,,,,,,,,,,,,,,,,,,,,,,,,,,,,,,,,,,,,,,,,,,,,,,,,,,,,,,,,,,,,,,,234.82303109997883,235.22421499993652,235.2060736999847,235.30605009989813,235.70665999990888,None,right,1,0.47182630002498627,235.70665999990888,None,235.2060736999847,235.30605009989813,235.30605009989813,None,236.20737319998443,None,,,,,,,11029,001,2024_Jan_10_1542,ANT,2021.2.3,60.01176233909215,
1,7,no,down,IC,L,,,,,,Block.xlsx,"你已经完成了第一个实验区组

请稍作休息


点击空格键进入下一个区组。",50,0,-1.5,left,RRLRR.png,,,,,0,0,0,0,3,13,85,6,,,,,,,,,,,,,,,,,,,,,,,,,,,,,,,,,,,,,,,,,,,,,,,,,,,,,,,,,,,,,,,,236.60851019993424,237.00925579993054,236.9940582998097,237.09231179999188,237.4936970998533,None,left,1,0.47707320004701614,237.4936970998533,None,236.9940582998097,237.09231179999188,237.09231179999188,None,237.99318699981086,None,,,,,,,11029,001,2024_Jan_10_1542,ANT,2021.2.3,60.01176233909215,
1,23,spatial,down,IC,L,,,,,,Block.xlsx,"你已经完成了第一个实验区组

请稍作休息


点击空格键进入下一个区组。",-1.5,0,-1.5,left,RRLRR.png,,,,,0,0,0,0,3,14,86,22,,,,,,,,,,,,,,,,,,,,,,,,,,,,,,,,,,,,,,,,,,,,,,,,,,,,,,,,,,,,,,,,238.39388479990885,238.7949787999969,238.77852880000137,238.87915159994736,239.28043949999847,None,left,1,0.48215309996157885,239.28043949999847,None,238.77852880000137,238.87915159994736,238.87915159994736,None,239.779433199903,None,,,,,,,11029,001,2024_Jan_10_1542,ANT,2021.2.3,60.01176233909215,
1,22,spatial,down,C,R,,,,,,Block.xlsx,"你已经完成了第一个实验区组

请稍作休息


点击空格键进入下一个区组。",-1.5,0,-1.5,right,RRRRR.png,,,,,0,0,0,0,3,15,87,21,,,,,,,,,,,,,,,,,,,,,,,,,,,,,,,,,,,,,,,,,,,,,,,,,,,,,,,,,,,,,,,,240.18050929997116,240.58280209987424,240.56454619998112,240.66466849995777,241.0651821999345,None,right,1,0.3299632999114692,241.0651821999345,None,240.56454619998112,240.66466849995777,240.66466849995777,None,241.41522899991833,None,,,,,,,11029,001,2024_Jan_10_1542,ANT,2021.2.3,60.01176233909215,
1,6,no,down,C,R,,,,,,Block.xlsx,"你已经完成了第一个实验区组

请稍作休息


点击空格键进入下一个区组。",50,0,-1.5,right,RRRRR.png,,,,,0,0,0,0,3,16,88,5,,,,,,,,,,,,,,,,,,,,,,,,,,,,,,,,,,,,,,,,,,,,,,,,,,,,,,,,,,,,,,,,241.8157905000262,242.21727849985473,242.19988229987212,242.30082889995538,242.70074249990284,None,right,1,0.3898082999512553,242.70074249990284,None,242.19988229987212,242.30082889995538,242.30082889995538,None,243.11782169993967,None,,,,,,,11029,001,2024_Jan_10_1542,ANT,2021.2.3,60.01176233909215,
1,4,no,up,IC,R,,,,,,Block.xlsx,"你已经完成了第一个实验区组

请稍作休息


点击空格键进入下一个区组。",50,0,1.5,right,LLRLL.png,,,,,0,0,0,0,3,17,89,3,,,,,,,,,,,,,,,,,,,,,,,,,,,,,,,,,,,,,,,,,,,,,,,,,,,,,,,,,,,,,,,,243.51834969990887,243.92091749981046,243.9021791999694,244.0030461999122,244.40462719998322,None,left,0,0.38209889992140234,244.40462719998322,None,243.9021791999694,244.0030461999122,244.0030461999122,None,244.80342100001872,None,,,,,,,11029,001,2024_Jan_10_1542,ANT,2021.2.3,60.01176233909215,
1,13,center,down,C,L,,,,,,Block.xlsx,"你已经完成了第一个实验区组

请稍作休息


点击空格键进入下一个区组。",0,50,-1.5,left,LLLLL.png,,,,,0,0,0,0,3,18,90,12,,,,,,,,,,,,,,,,,,,,,,,,,,,,,,,,,,,,,,,,,,,,,,,,,,,,,,,,,,,,,,,,245.20437199994922,245.60529599990696,245.58802089979872,245.6889317999594,246.08991739992052,None,left,1,0.46511340001598,246.08991739992052,None,245.58802089979872,245.6889317999594,245.6889317999594,None,246.57290469994769,None,,,,,,,11029,001,2024_Jan_10_1542,ANT,2021.2.3,60.01176233909215,
1,13,center,down,C,L,,,,,,Block.xlsx,"你已经完成了第一个实验区组

请稍作休息


点击空格键进入下一个区组。",0,50,-1.5,left,LLLLL.png,,,,,0,0,0,0,3,19,91,12,,,,,,,,,,,,,,,,,,,,,,,,,,,,,,,,,,,,,,,,,,,,,,,,,,,,,,,,,,,,,,,,246.97361520002596,247.37539329985157,247.35709699988365,247.45745470002294,247.85875749983825,None,left,1,0.46426869998686016,247.85875749983825,None,247.35709699988365,247.45745470002294,247.45745470002294,None,248.34208939992823,None,,,,,,,11029,001,2024_Jan_10_1542,ANT,2021.2.3,60.01176233909215,
1,2,no,up,C,R,,,,,,Block.xlsx,"你已经完成了第一个实验区组

请稍作休息


点击空格键进入下一个区组。",50,0,1.5,right,RRRRR.png,,,,,0,0,0,0,3,20,92,1,,,,,,,,,,,,,,,,,,,,,,,,,,,,,,,,,,,,,,,,,,,,,,,,,,,,,,,,,,,,,,,,248.74274339992553,249.1455492998939,249.12735720002092,249.2266577000264,249.62889890000224,None,right,1,0.4297754999715835,249.62889890000224,None,249.12735720002092,249.2266577000264,249.2266577000264,None,250.07801009994,None,,,,,,,11029,001,2024_Jan_10_1542,ANT,2021.2.3,60.01176233909215,
1,21,spatial,down,C,L,,,,,,Block.xlsx,"你已经完成了第一个实验区组

请稍作休息


点击空格键进入下一个区组。",-1.5,0,-1.5,left,LLLLL.png,,,,,0,0,0,0,3,21,93,20,,,,,,,,,,,,,,,,,,,,,,,,,,,,,,,,,,,,,,,,,,,,,,,,,,,,,,,,,,,,,,,,250.47857309994288,250.87910529994406,250.8632131998893,250.9636659999378,251.3644335998688,None,left,1,0.6544051000382751,251.3644335998688,None,250.8632131998893,250.9636659999378,250.9636659999378,None,252.04821479995735,None,,,,,,,11029,001,2024_Jan_10_1542,ANT,2021.2.3,60.01176233909215,
1,10,center,up,C,R,,,,,,Block.xlsx,"你已经完成了第一个实验区组

请稍作休息


点击空格键进入下一个区组。",0,50,1.5,right,RRRRR.png,,,,,0,0,0,0,3,22,94,9,,,,,,,,,,,,,,,,,,,,,,,,,,,,,,,,,,,,,,,,,,,,,,,,,,,,,,,,,,,,,,,,252.44807119993493,252.8494724999182,252.83289860002697,252.93286179983988,253.3328223999124,None,right,1,0.4058509999886155,253.3328223999124,None,252.83289860002697,252.93286179983988,252.93286179983988,None,253.76662999996915,None,,,,,,,11029,001,2024_Jan_10_1542,ANT,2021.2.3,60.01176233909215,
1,17,spatial,up,C,L,,,,,,Block.xlsx,"你已经完成了第一个实验区组

请稍作休息


点击空格键进入下一个区组。",1.5,0,1.5,left,LLLLL.png,,,,,0,0,0,0,3,23,95,16,,,,,,,,,,,,,,,,,,,,,,,,,,,,,,,,,,,,,,,,,,,,,,,,,,,,,,,,,,,,,,,,254.1673485999927,254.56852199998684,254.55305709992535,254.65363099984825,255.05258809984662,None,left,1,0.573937299894169,255.05258809984662,None,254.55305709992535,254.65363099984825,254.65363099984825,None,255.65294309984893,None,,,,,,,11029,001,2024_Jan_10_1542,ANT,2021.2.3,60.01176233909215,
,,,,,,,,,,,Block.xlsx,"你已经完成了第一个实验区组

请稍作休息


点击空格键进入下一个区组。",,,,,,,,,,0,0,0,0,,,,,,,,,,,,,,,,,,,,,,,,,,,,,,,,,,,,,,,,,,,,,,,,,,,,,,,,,,,,,,,,,,,,,,,,,,,,,,,,,,,,,space,21.09343480016105,256.0533255999908,None,256.0533255999908,None,11029,001,2024_Jan_10_1542,ANT,2021.2.3,60.01176233909215,
1,17,spatial,up,C,L,,,,,,Block.xlsx,"你已经完成了整个实验（三个区组）。

请报告实验者已完成实验

非常感谢，再见！",1.5,0,1.5,left,LLLLL.png,,,,,0,1,1,1,0,0,0,16,,,,,,,,,,,,,,,,,,,,,,,,,,,,,,,,,,,,,,,,,,,,,,,,,,,,,,,,,,,,,,,,277.1846247999929,277.58745809993707,277.56946059991606,277.6690724999644,278.0701517998241,None,left,1,0.3651765000540763,278.0701517998241,None,277.56946059991606,277.6690724999644,277.6690724999644,None,278.45376909989864,None,,,,,,,11029,001,2024_Jan_10_1542,ANT,2021.2.3,60.01176233909215,
1,3,no,up,IC,L,,,,,,Block.xlsx,"你已经完成了整个实验（三个区组）。

请报告实验者已完成实验

非常感谢，再见！",50,0,1.5,left,RRLRR.png,,,,,0,1,1,1,0,1,1,2,,,,,,,,,,,,,,,,,,,,,,,,,,,,,,,,,,,,,,,,,,,,,,,,,,,,,,,,,,,,,,,,278.8540969998576,279.25578129990026,279.23769139987417,279.338551599998,279.73878379981034,None,left,1,0.5199098000302911,279.73878379981034,None,279.23769139987417,279.338551599998,279.338551599998,None,280.28946279990487,None,,,,,,,11029,001,2024_Jan_10_1542,ANT,2021.2.3,60.01176233909215,
1,6,no,down,C,R,,,,,,Block.xlsx,"你已经完成了整个实验（三个区组）。

请报告实验者已完成实验

非常感谢，再见！",50,0,-1.5,right,RRRRR.png,,,,,0,1,1,1,0,2,2,5,,,,,,,,,,,,,,,,,,,,,,,,,,,,,,,,,,,,,,,,,,,,,,,,,,,,,,,,,,,,,,,,280.69005939993076,281.09054089989513,281.0763642999809,281.1911642998457,281.57512359996326,None,right,1,0.4114196998998523,281.57512359996326,None,281.0763642999809,281.1911642998457,281.1760787998792,None,282.0087150998879,None,,,,,,,11029,001,2024_Jan_10_1542,ANT,2021.2.3,60.01176233909215,
1,8,no,down,IC,R,,,,,,Block.xlsx,"你已经完成了整个实验（三个区组）。

请报告实验者已完成实验

非常感谢，再见！",50,0,-1.5,right,LLRLL.png,,,,,0,1,1,1,0,3,3,7,,,,,,,,,,,,,,,,,,,,,,,,,,,,,,,,,,,,,,,,,,,,,,,,,,,,,,,,,,,,,,,,282.4090891999658,282.8105395999737,282.79354809992947,282.8933242999483,283.294415100012,None,right,1,0.5488377001602203,283.294415100012,None,282.79354809992947,282.8933242999483,282.8933242999483,None,283.86200019996613,None,,,,,,,11029,001,2024_Jan_10_1542,ANT,2021.2.3,60.01176233909215,
1,14,center,down,C,R,,,,,,Block.xlsx,"你已经完成了整个实验（三个区组）。

请报告实验者已完成实验

非常感谢，再见！",0,50,-1.5,right,RRRRR.png,,,,,0,1,1,1,0,4,4,13,,,,,,,,,,,,,,,,,,,,,,,,,,,,,,,,,,,,,,,,,,,,,,,,,,,,,,,,,,,,,,,,284.26268929988146,284.66357539989986,284.6459094998427,284.7476659999229,285.14762079995126,None,right,1,0.35902770003303885,285.14762079995126,None,284.6459094998427,284.7476659999229,284.7476659999229,None,285.5303683998063,None,,,,,,,11029,001,2024_Jan_10_1542,ANT,2021.2.3,60.01176233909215,
1,1,no,up,C,L,,,,,,Block.xlsx,"你已经完成了整个实验（三个区组）。

请报告实验者已完成实验

非常感谢，再见！",50,0,1.5,left,LLLLL.png,,,,,0,1,1,1,0,5,5,0,,,,,,,,,,,,,,,,,,,,,,,,,,,,,,,,,,,,,,,,,,,,,,,,,,,,,,,,,,,,,,,,285.9310842999257,286.33239849982783,286.31509259995073,286.4152502999641,286.81653179996647,None,left,1,0.33037390001118183,286.81653179996647,None,286.31509259995073,286.4152502999641,286.4152502999641,None,287.16623849980533,None,,,,,,,11029,001,2024_Jan_10_1542,ANT,2021.2.3,60.01176233909215,
1,4,no,up,IC,R,,,,,,Block.xlsx,"你已经完成了整个实验（三个区组）。

请报告实验者已完成实验

非常感谢，再见！",50,0,1.5,right,LLRLL.png,,,,,0,1,1,1,0,6,6,3,,,,,,,,,,,,,,,,,,,,,,,,,,,,,,,,,,,,,,,,,,,,,,,,,,,,,,,,,,,,,,,,287.5668017999269,287.9695390998386,287.9516816998366,288.0516297998838,288.45308679994196,None,right,1,0.3894907000940293,288.45308679994196,None,287.9516816998366,288.0516297998838,288.0516297998838,None,288.8687674999237,None,,,,,,,11029,001,2024_Jan_10_1542,ANT,2021.2.3,60.01176233909215,
1,7,no,down,IC,L,,,,,,Block.xlsx,"你已经完成了整个实验（三个区组）。

请报告实验者已完成实验

非常感谢，再见！",50,0,-1.5,left,RRLRR.png,,,,,0,1,1,1,0,7,7,6,,,,,,,,,,,,,,,,,,,,,,,,,,,,,,,,,,,,,,,,,,,,,,,,,,,,,,,,,,,,,,,,289.2693391998764,289.6704734999221,289.6556219998747,289.77064539981075,290.154804199934,None,left,1,0.4878359998110682,290.154804199934,None,289.6556219998747,289.77064539981075,289.75350639992394,None,290.67144529987127,None,,,,,,,11029,001,2024_Jan_10_1542,ANT,2021.2.3,60.01176233909215,
1,6,no,down,C,R,,,,,,Block.xlsx,"你已经完成了整个实验（三个区组）。

请报告实验者已完成实验

非常感谢，再见！",50,0,-1.5,right,RRRRR.png,,,,,0,1,1,1,0,8,8,5,,,,,,,,,,,,,,,,,,,,,,,,,,,,,,,,,,,,,,,,,,,,,,,,,,,,,,,,,,,,,,,,291.0719814999029,291.47346739983186,291.4564042999409,291.55711399996653,291.9572148998268,None,right,1,0.5574078999925405,291.9572148998268,None,291.4564042999409,291.55711399996653,291.55711399996653,None,292.5410800999962,None,,,,,,,11029,001,2024_Jan_10_1542,ANT,2021.2.3,60.01176233909215,
1,1,no,up,C,L,,,,,,Block.xlsx,"你已经完成了整个实验（三个区组）。

请报告实验者已完成实验

非常感谢，再见！",50,0,1.5,left,LLLLL.png,,,,,0,1,1,1,0,9,9,0,,,,,,,,,,,,,,,,,,,,,,,,,,,,,,,,,,,,,,,,,,,,,,,,,,,,,,,,,,,,,,,,292.94152739993297,293.34460989991203,293.326085699955,293.42567109991796,293.8264799998142,None,left,1,0.3041775000747293,293.8264799998142,None,293.326085699955,293.42567109991796,293.42567109991796,None,294.16003289981745,None,,,,,,,11029,001,2024_Jan_10_1542,ANT,2021.2.3,60.01176233909215,
1,23,spatial,down,IC,L,,,,,,Block.xlsx,"你已经完成了整个实验（三个区组）。

请报告实验者已完成实验

非常感谢，再见！",-1.5,0,-1.5,left,RRLRR.png,,,,,0,1,1,1,0,10,10,22,,,,,,,,,,,,,,,,,,,,,,,,,,,,,,,,,,,,,,,,,,,,,,,,,,,,,,,,,,,,,,,,294.56095059984364,294.9617296999786,294.9446617998183,295.0458392999135,295.44526129984297,None,left,1,0.49392440007068217,295.44526129984297,None,294.9446617998183,295.0458392999135,295.0458392999135,None,295.9626111998223,None,,,,,,,11029,001,2024_Jan_10_1542,ANT,2021.2.3,60.01176233909215,
1,8,no,down,IC,R,,,,,,Block.xlsx,"你已经完成了整个实验（三个区组）。

请报告实验者已完成实验

非常感谢，再见！",50,0,-1.5,right,LLRLL.png,,,,,0,1,1,1,0,11,11,7,,,,,,,,,,,,,,,,,,,,,,,,,,,,,,,,,,,,,,,,,,,,,,,,,,,,,,,,,,,,,,,,296.36323169991374,296.7643662998453,296.7474423998501,296.84839709987864,297.2484567000065,None,right,1,0.5386461999733001,297.2484567000065,None,296.7474423998501,296.84839709987864,296.84839709987864,None,297.81531269988045,None,,,,,,,11029,001,2024_Jan_10_1542,ANT,2021.2.3,60.01176233909215,
1,24,spatial,down,IC,R,,,,,,Block.xlsx,"你已经完成了整个实验（三个区组）。

请报告实验者已完成实验

非常感谢，再见！",-1.5,0,-1.5,right,LLRLL.png,,,,,0,1,1,1,0,12,12,23,,,,,,,,,,,,,,,,,,,,,,,,,,,,,,,,,,,,,,,,,,,,,,,,,,,,,,,,,,,,,,,,298.2159908998292,298.6166399999056,298.6023518999573,298.71826320001855,299.1010208998341,None,right,1,0.46157859987579286,299.1010208998341,None,298.6023518999573,298.71826320001855,298.7004269999452,None,299.58468899992295,None,,,,,,,11029,001,2024_Jan_10_1542,ANT,2021.2.3,60.01176233909215,
1,24,spatial,down,IC,R,,,,,,Block.xlsx,"你已经完成了整个实验（三个区组）。

请报告实验者已完成实验

非常感谢，再见！",-1.5,0,-1.5,right,LLRLL.png,,,,,0,1,1,1,0,13,13,23,,,,,,,,,,,,,,,,,,,,,,,,,,,,,,,,,,,,,,,,,,,,,,,,,,,,,,,,,,,,,,,,299.98639480001293,300.38682619994506,300.36935859988444,300.47008539992385,300.8708947999403,None,right,1,0.37199019989930093,300.8708947999403,None,300.36935859988444,300.47008539992385,300.47008539992385,None,301.2710406999104,None,,,,,,,11029,001,2024_Jan_10_1542,ANT,2021.2.3,60.01176233909215,
1,22,spatial,down,C,R,,,,,,Block.xlsx,"你已经完成了整个实验（三个区组）。

请报告实验者已完成实验

非常感谢，再见！",-1.5,0,-1.5,right,RRRRR.png,,,,,0,1,1,1,0,14,14,21,,,,,,,,,,,,,,,,,,,,,,,,,,,,,,,,,,,,,,,,,,,,,,,,,,,,,,,,,,,,,,,,301.671659699874,302.0738654998131,302.05607699998654,302.15617119986564,302.5581378999632,None,right,1,0.4129935000091791,302.5581378999632,None,302.05607699998654,302.15617119986564,302.15617119986564,None,302.98976669996046,None,,,,,,,11029,001,2024_Jan_10_1542,ANT,2021.2.3,60.01176233909215,
1,5,no,down,C,L,,,,,,Block.xlsx,"你已经完成了整个实验（三个区组）。

请报告实验者已完成实验

非常感谢，再见！",50,0,-1.5,left,LLLLL.png,,,,,0,1,1,1,0,15,15,4,,,,,,,,,,,,,,,,,,,,,,,,,,,,,,,,,,,,,,,,,,,,,,,,,,,,,,,,,,,,,,,,303.39033229998313,303.7915878999047,303.7742492000107,303.8755258999299,304.27503030002117,None,left,1,0.4002765999175608,304.27503030002117,None,303.7742492000107,303.8755258999299,303.8755258999299,None,304.6922281999141,None,,,,,,,11029,001,2024_Jan_10_1542,ANT,2021.2.3,60.01176233909215,
1,12,center,up,IC,R,,,,,,Block.xlsx,"你已经完成了整个实验（三个区组）。

请报告实验者已完成实验

非常感谢，再见！",0,50,1.5,right,LLRLL.png,,,,,0,1,1,1,0,16,16,11,,,,,,,,,,,,,,,,,,,,,,,,,,,,,,,,,,,,,,,,,,,,,,,,,,,,,,,,,,,,,,,,305.0929123000242,305.49382019997574,305.47669559996575,305.57862369995564,305.9783939998597,None,right,1,0.6402220001909882,305.9783939998597,None,305.47669559996575,305.57862369995564,305.57862369995564,None,306.64519449998625,None,,,,,,,11029,001,2024_Jan_10_1542,ANT,2021.2.3,60.01176233909215,
1,19,spatial,up,IC,L,,,,,,Block.xlsx,"你已经完成了整个实验（三个区组）。

请报告实验者已完成实验

非常感谢，再见！",1.5,0,1.5,left,RRLRR.png,,,,,0,1,1,1,0,17,17,18,,,,,,,,,,,,,,,,,,,,,,,,,,,,,,,,,,,,,,,,,,,,,,,,,,,,,,,,,,,,,,,,307.0457338998094,307.44699590001255,307.43026089994237,307.53014009981416,307.93191809998825,None,left,1,0.39886389998719096,307.93191809998825,None,307.43026089994237,307.53014009981416,307.53014009981416,None,308.3477157999296,None,,,,,,,11029,001,2024_Jan_10_1542,ANT,2021.2.3,60.01176233909215,
1,23,spatial,down,IC,L,,,,,,Block.xlsx,"你已经完成了整个实验（三个区组）。

请报告实验者已完成实验

非常感谢，再见！",-1.5,0,-1.5,left,RRLRR.png,,,,,0,1,1,1,0,18,18,22,,,,,,,,,,,,,,,,,,,,,,,,,,,,,,,,,,,,,,,,,,,,,,,,,,,,,,,,,,,,,,,,308.74906609999016,309.15025409986265,309.1331529999152,309.23279089992866,309.6329202000052,None,left,1,0.3622186998836696,309.6329202000052,None,309.1331529999152,309.23279089992866,309.23279089992866,None,310.0171842998825,None,,,,,,,11029,001,2024_Jan_10_1542,ANT,2021.2.3,60.01176233909215,
1,2,no,up,C,R,,,,,,Block.xlsx,"你已经完成了整个实验（三个区组）。

请报告实验者已完成实验

非常感谢，再见！",50,0,1.5,right,RRRRR.png,,,,,0,1,1,1,0,19,19,1,,,,,,,,,,,,,,,,,,,,,,,,,,,,,,,,,,,,,,,,,,,,,,,,,,,,,,,,,,,,,,,,310.417545999866,310.8194234999828,310.8020338998176,310.90321939997375,311.3030373000074,None,right,1,0.4116632000077516,311.3030373000074,None,310.8020338998176,310.90321939997375,310.90321939997375,None,311.7359246998094,None,,,,,,,11029,001,2024_Jan_10_1542,ANT,2021.2.3,60.01176233909215,
1,2,no,up,C,R,,,,,,Block.xlsx,"你已经完成了整个实验（三个区组）。

请报告实验者已完成实验

非常感谢，再见！",50,0,1.5,right,RRRRR.png,,,,,0,1,1,1,0,20,20,1,,,,,,,,,,,,,,,,,,,,,,,,,,,,,,,,,,,,,,,,,,,,,,,,,,,,,,,,,,,,,,,,312.1368441998493,312.5377776999958,312.52047879993916,312.6216196999885,313.0216550999321,None,right,1,0.4131288998760283,313.0216550999321,None,312.52047879993916,312.6216196999885,312.6216196999885,None,313.4551828999538,None,,,,,,,11029,001,2024_Jan_10_1542,ANT,2021.2.3,60.01176233909215,
1,18,spatial,up,C,R,,,,,,Block.xlsx,"你已经完成了整个实验（三个区组）。

请报告实验者已完成实验

非常感谢，再见！",1.5,0,1.5,right,RRRRR.png,,,,,0,1,1,1,0,21,21,17,,,,,,,,,,,,,,,,,,,,,,,,,,,,,,,,,,,,,,,,,,,,,,,,,,,,,,,,,,,,,,,,313.8558647998143,314.25796109996736,314.2406601998955,314.3404337998945,314.7421923999209,None,right,1,0.3404862000606954,314.7421923999209,None,314.2406601998955,314.3404337998945,314.3404337998945,None,315.1077480998356,None,,,,,,,11029,001,2024_Jan_10_1542,ANT,2021.2.3,60.01176233909215,
1,12,center,up,IC,R,,,,,,Block.xlsx,"你已经完成了整个实验（三个区组）。

请报告实验者已完成实验

非常感谢，再见！",0,50,1.5,right,LLRLL.png,,,,,0,1,1,1,0,22,22,11,,,,,,,,,,,,,,,,,,,,,,,,,,,,,,,,,,,,,,,,,,,,,,,,,,,,,,,,,,,,,,,,315.5084149998147,315.90953750000335,315.89225059980527,315.9934900000226,316.39451789995655,None,right,1,0.5201650001108646,316.39451789995655,None,315.89225059980527,315.9934900000226,315.9934900000226,None,316.9437029999681,None,,,,,,,11029,001,2024_Jan_10_1542,ANT,2021.2.3,60.01176233909215,
1,24,spatial,down,IC,R,,,,,,Block.xlsx,"你已经完成了整个实验（三个区组）。

请报告实验者已完成实验

非常感谢，再见！",-1.5,0,-1.5,right,LLRLL.png,,,,,0,1,1,1,0,23,23,23,,,,,,,,,,,,,,,,,,,,,,,,,,,,,,,,,,,,,,,,,,,,,,,,,,,,,,,,,,,,,,,,317.3444399998989,317.74549669981934,317.7291665999219,317.8290130000096,318.228937599808,None,left,0,0.27768649999052286,318.228937599808,None,317.7291665999219,317.8290130000096,317.8290130000096,None,318.529393899953,None,,,,,,,11029,001,2024_Jan_10_1542,ANT,2021.2.3,60.01176233909215,
1,14,center,down,C,R,,,,,,Block.xlsx,"你已经完成了整个实验（三个区组）。

请报告实验者已完成实验

非常感谢，再见！",0,50,-1.5,right,RRRRR.png,,,,,0,1,1,1,1,0,24,13,,,,,,,,,,,,,,,,,,,,,,,,,,,,,,,,,,,,,,,,,,,,,,,,,,,,,,,,,,,,,,,,318.9302882999182,319.33119199983776,319.31402639998123,319.41527729993686,319.8160426998511,None,right,1,0.7709027000237256,319.8160426998511,None,319.31402639998123,319.41527729993686,319.41527729993686,None,320.61579279997386,None,,,,,,,11029,001,2024_Jan_10_1542,ANT,2021.2.3,60.01176233909215,
1,13,center,down,C,L,,,,,,Block.xlsx,"你已经完成了整个实验（三个区组）。

请报告实验者已完成实验

非常感谢，再见！",0,50,-1.5,left,LLLLL.png,,,,,0,1,1,1,1,1,25,12,,,,,,,,,,,,,,,,,,,,,,,,,,,,,,,,,,,,,,,,,,,,,,,,,,,,,,,,,,,,,,,,321.0168479999993,321.4181663999334,321.40094339987263,321.5017554999795,321.90299249999225,None,left,1,0.47577710007317364,321.90299249999225,None,321.40094339987263,321.5017554999795,321.5017554999795,None,322.40178920002654,None,,,,,,,11029,001,2024_Jan_10_1542,ANT,2021.2.3,60.01176233909215,
1,18,spatial,up,C,R,,,,,,Block.xlsx,"你已经完成了整个实验（三个区组）。

请报告实验者已完成实验

非常感谢，再见！",1.5,0,1.5,right,RRRRR.png,,,,,0,1,1,1,1,2,26,17,,,,,,,,,,,,,,,,,,,,,,,,,,,,,,,,,,,,,,,,,,,,,,,,,,,,,,,,,,,,,,,,322.80242299987003,323.2029903999064,323.18742819991894,323.2872402998619,323.68848509993404,None,right,1,0.3461004998534918,323.68848509993404,None,323.18742819991894,323.2872402998619,323.2872402998619,None,324.05448839999735,None,,,,,,,11029,001,2024_Jan_10_1542,ANT,2021.2.3,60.01176233909215,
1,2,no,up,C,R,,,,,,Block.xlsx,"你已经完成了整个实验（三个区组）。

请报告实验者已完成实验

非常感谢，再见！",50,0,1.5,right,RRRRR.png,,,,,0,1,1,1,1,3,27,1,,,,,,,,,,,,,,,,,,,,,,,,,,,,,,,,,,,,,,,,,,,,,,,,,,,,,,,,,,,,,,,,324.4548822999932,324.8560118000023,324.8394804999698,324.940017899964,325.3416898997966,None,right,1,0.4611269000452012,325.3416898997966,None,324.8394804999698,324.940017899964,324.940017899964,None,325.82360229990445,None,,,,,,,11029,001,2024_Jan_10_1542,ANT,2021.2.3,60.01176233909215,
1,3,no,up,IC,L,,,,,,Block.xlsx,"你已经完成了整个实验（三个区组）。

请报告实验者已完成实验

非常感谢，再见！",50,0,1.5,left,RRLRR.png,,,,,0,1,1,1,1,4,28,2,,,,,,,,,,,,,,,,,,,,,,,,,,,,,,,,,,,,,,,,,,,,,,,,,,,,,,,,,,,,,,,,326.22418489982374,326.6250648999121,326.6098326998763,326.70939689991064,327.11102989991195,None,left,1,0.3957368000410497,327.11102989991195,None,326.6098326998763,326.70939689991064,326.70939689991064,None,327.5259987998288,None,,,,,,,11029,001,2024_Jan_10_1542,ANT,2021.2.3,60.01176233909215,
1,20,spatial,up,IC,R,,,,,,Block.xlsx,"你已经完成了整个实验（三个区组）。

请报告实验者已完成实验

非常感谢，再见！",1.5,0,1.5,right,LLRLL.png,,,,,0,1,1,1,1,5,29,19,,,,,,,,,,,,,,,,,,,,,,,,,,,,,,,,,,,,,,,,,,,,,,,,,,,,,,,,,,,,,,,,327.9268559999764,328.32782140001655,328.3109840999823,328.41071809991263,328.81251039984636,None,right,1,0.4144617000129074,328.81251039984636,None,328.3109840999823,328.41071809991263,328.41071809991263,None,329.2455500999931,None,,,,,,,11029,001,2024_Jan_10_1542,ANT,2021.2.3,60.01176233909215,
1,11,center,up,IC,L,,,,,,Block.xlsx,"你已经完成了整个实验（三个区组）。

请报告实验者已完成实验

非常感谢，再见！",0,50,1.5,left,RRLRR.png,,,,,0,1,1,1,1,6,30,10,,,,,,,,,,,,,,,,,,,,,,,,,,,,,,,,,,,,,,,,,,,,,,,,,,,,,,,,,,,,,,,,329.6466915998608,330.04664019984193,330.0310111998115,330.13139019999653,330.53088089986704,None,left,1,0.4010046999901533,330.53088089986704,None,330.0310111998115,330.13139019999653,330.13139019999653,None,330.94794490002096,None,,,,,,,11029,001,2024_Jan_10_1542,ANT,2021.2.3,60.01176233909215,
1,1,no,up,C,L,,,,,,Block.xlsx,"你已经完成了整个实验（三个区组）。

请报告实验者已完成实验

非常感谢，再见！",50,0,1.5,left,LLLLL.png,,,,,0,1,1,1,1,7,31,0,,,,,,,,,,,,,,,,,,,,,,,,,,,,,,,,,,,,,,,,,,,,,,,,,,,,,,,,,,,,,,,,331.3484698999673,331.74904879997484,331.7342326999642,331.8491829999257,332.2335001998581,None,left,1,0.42517990013584495,332.2335001998581,None,331.7342326999642,331.8491829999257,331.83441809983924,None,332.68384479987435,None,,,,,,,11029,001,2024_Jan_10_1542,ANT,2021.2.3,60.01176233909215,
1,21,spatial,down,C,L,,,,,,Block.xlsx,"你已经完成了整个实验（三个区组）。

请报告实验者已完成实验

非常感谢，再见！",-1.5,0,-1.5,left,LLLLL.png,,,,,0,1,1,1,1,8,32,20,,,,,,,,,,,,,,,,,,,,,,,,,,,,,,,,,,,,,,,,,,,,,,,,,,,,,,,,,,,,,,,,333.08426129980944,333.4862783998251,333.4682813999243,333.56833259994164,333.9697312999051,None,left,1,0.4569268000777811,333.9697312999051,None,333.4682813999243,333.56833259994164,333.56833259994164,None,334.45309919980355,None,,,,,,,11029,001,2024_Jan_10_1542,ANT,2021.2.3,60.01176233909215,
1,16,center,down,IC,R,,,,,,Block.xlsx,"你已经完成了整个实验（三个区组）。

请报告实验者已完成实验

非常感谢，再见！",0,50,-1.5,right,LLRLL.png,,,,,0,1,1,1,1,9,33,15,,,,,,,,,,,,,,,,,,,,,,,,,,,,,,,,,,,,,,,,,,,,,,,,,,,,,,,,,,,,,,,,334.85438529984094,335.25619839993306,335.23749279999174,335.3382480000146,335.7396785998717,None,right,1,0.5111065001692623,335.7396785998717,None,335.23749279999174,335.3382480000146,335.3382480000146,None,336.27247359999456,None,,,,,,,11029,001,2024_Jan_10_1542,ANT,2021.2.3,60.01176233909215,
1,22,spatial,down,C,R,,,,,,Block.xlsx,"你已经完成了整个实验（三个区组）。

请报告实验者已完成实验

非常感谢，再见！",-1.5,0,-1.5,right,RRRRR.png,,,,,0,1,1,1,1,10,34,21,,,,,,,,,,,,,,,,,,,,,,,,,,,,,,,,,,,,,,,,,,,,,,,,,,,,,,,,,,,,,,,,336.6730303999502,337.0749521998223,337.05708309984766,337.1584584999364,337.55855889990926,None,right,1,0.35605680011212826,337.55855889990926,None,337.05708309984766,337.1584584999364,337.1584584999364,None,337.94158789981157,None,,,,,,,11029,001,2024_Jan_10_1542,ANT,2021.2.3,60.01176233909215,
1,7,no,down,IC,L,,,,,,Block.xlsx,"你已经完成了整个实验（三个区组）。

请报告实验者已完成实验

非常感谢，再见！",50,0,-1.5,left,RRLRR.png,,,,,0,1,1,1,1,11,35,6,,,,,,,,,,,,,,,,,,,,,,,,,,,,,,,,,,,,,,,,,,,,,,,,,,,,,,,,,,,,,,,,338.34195449994877,338.7428776999004,338.7274191000033,338.8278465999756,339.2270301999524,None,left,1,0.4075595000758767,339.2270301999524,None,338.7274191000033,338.8278465999756,338.8278465999756,None,339.6609298000112,None,,,,,,,11029,001,2024_Jan_10_1542,ANT,2021.2.3,60.01176233909215,
1,15,center,down,IC,L,,,,,,Block.xlsx,"你已经完成了整个实验（三个区组）。

请报告实验者已完成实验

非常感谢，再见！",0,50,-1.5,left,RRLRR.png,,,,,0,1,1,1,1,12,36,14,,,,,,,,,,,,,,,,,,,,,,,,,,,,,,,,,,,,,,,,,,,,,,,,,,,,,,,,,,,,,,,,340.0622080999892,340.462517199805,340.44531310000457,340.5471669998951,340.9463553999085,None,left,1,0.4403250999748707,340.9463553999085,None,340.44531310000457,340.5471669998951,340.5471669998951,None,341.4137209998444,None,,,,,,,11029,001,2024_Jan_10_1542,ANT,2021.2.3,60.01176233909215,
1,12,center,up,IC,R,,,,,,Block.xlsx,"你已经完成了整个实验（三个区组）。

请报告实验者已完成实验

非常感谢，再见！",0,50,1.5,right,LLRLL.png,,,,,0,1,1,1,1,13,37,11,,,,,,,,,,,,,,,,,,,,,,,,,,,,,,,,,,,,,,,,,,,,,,,,,,,,,,,,,,,,,,,,341.8137928999495,342.2151243998669,342.1999793997966,342.3147683998104,342.69892879994586,None,right,1,0.5516170000191778,342.69892879994586,None,342.1999793997966,342.3147683998104,342.29970039986074,None,343.2661230999511,None,,,,,,,11029,001,2024_Jan_10_1542,ANT,2021.2.3,60.01176233909215,
1,1,no,up,C,L,,,,,,Block.xlsx,"你已经完成了整个实验（三个区组）。

请报告实验者已完成实验

非常感谢，再见！",50,0,1.5,left,LLLLL.png,,,,,0,1,1,1,1,14,38,0,,,,,,,,,,,,,,,,,,,,,,,,,,,,,,,,,,,,,,,,,,,,,,,,,,,,,,,,,,,,,,,,343.6666406998411,344.06781459995545,344.0518959998153,344.15088199987076,344.5515602999367,None,left,1,0.38708010013215244,344.5515602999367,None,344.0518959998153,344.15088199987076,344.15088199987076,None,344.9687711999286,None,,,,,,,11029,001,2024_Jan_10_1542,ANT,2021.2.3,60.01176233909215,
1,18,spatial,up,C,R,,,,,,Block.xlsx,"你已经完成了整个实验（三个区组）。

请报告实验者已完成实验

非常感谢，再见！",1.5,0,1.5,right,RRRRR.png,,,,,0,1,1,1,1,15,39,17,,,,,,,,,,,,,,,,,,,,,,,,,,,,,,,,,,,,,,,,,,,,,,,,,,,,,,,,,,,,,,,,345.36937149986625,345.7703129998408,345.7531402998138,345.8535966000054,346.2546989999246,None,right,1,0.40442000003531575,346.2546989999246,None,345.7531402998138,345.8535966000054,345.8535966000054,None,346.68785869982094,None,,,,,,,11029,001,2024_Jan_10_1542,ANT,2021.2.3,60.01176233909215,
1,15,center,down,IC,L,,,,,,Block.xlsx,"你已经完成了整个实验（三个区组）。

请报告实验者已完成实验

非常感谢，再见！",0,50,-1.5,left,RRLRR.png,,,,,0,1,1,1,1,16,40,14,,,,,,,,,,,,,,,,,,,,,,,,,,,,,,,,,,,,,,,,,,,,,,,,,,,,,,,,,,,,,,,,347.0889331998769,347.48991629993543,347.47306440002285,347.5728720999323,347.9748221000191,None,left,1,0.533039900008589,347.9748221000191,None,347.47306440002285,347.5728720999323,347.5728720999323,None,348.5238359000068,None,,,,,,,11029,001,2024_Jan_10_1542,ANT,2021.2.3,60.01176233909215,
1,8,no,down,IC,R,,,,,,Block.xlsx,"你已经完成了整个实验（三个区组）。

请报告实验者已完成实验

非常感谢，再见！",50,0,-1.5,right,LLRLL.png,,,,,0,1,1,1,1,17,41,7,,,,,,,,,,,,,,,,,,,,,,,,,,,,,,,,,,,,,,,,,,,,,,,,,,,,,,,,,,,,,,,,348.92455170000903,349.3264295000117,349.30877909995615,349.4102784998249,349.8092844998464,None,right,1,0.7933084999676794,349.8092844998464,None,349.30877909995615,349.4102784998249,349.4102784998249,None,350.6268209000118,None,,,,,,,11029,001,2024_Jan_10_1542,ANT,2021.2.3,60.01176233909215,
1,21,spatial,down,C,L,,,,,,Block.xlsx,"你已经完成了整个实验（三个区组）。

请报告实验者已完成实验

非常感谢，再见！",-1.5,0,-1.5,left,LLLLL.png,,,,,0,1,1,1,1,18,42,20,,,,,,,,,,,,,,,,,,,,,,,,,,,,,,,,,,,,,,,,,,,,,,,,,,,,,,,,,,,,,,,,351.02786719985306,351.4300998998806,351.41206209990196,351.51226889993995,351.9136979000177,None,left,1,0.3528683001641184,351.9136979000177,None,351.41206209990196,351.51226889993995,351.51226889993995,None,352.29646579991095,None,,,,,,,11029,001,2024_Jan_10_1542,ANT,2021.2.3,60.01176233909215,
1,19,spatial,up,IC,L,,,,,,Block.xlsx,"你已经完成了整个实验（三个区组）。

请报告实验者已完成实验

非常感谢，再见！",1.5,0,1.5,left,RRLRR.png,,,,,0,1,1,1,1,19,43,18,,,,,,,,,,,,,,,,,,,,,,,,,,,,,,,,,,,,,,,,,,,,,,,,,,,,,,,,,,,,,,,,352.6968880998902,353.0977824998554,353.08268639980815,353.1977456000168,353.5815171999857,None,left,1,0.36573020019568503,353.5815171999857,None,353.08268639980815,353.1977456000168,353.18067959998734,None,353.96534839994274,None,,,,,,,11029,001,2024_Jan_10_1542,ANT,2021.2.3,60.01176233909215,
1,13,center,down,C,L,,,,,,Block.xlsx,"你已经完成了整个实验（三个区组）。

请报告实验者已完成实验

非常感谢，再见！",0,50,-1.5,left,LLLLL.png,,,,,0,1,1,1,1,20,44,12,,,,,,,,,,,,,,,,,,,,,,,,,,,,,,,,,,,,,,,,,,,,,,,,,,,,,,,,,,,,,,,,354.3659039000049,354.76796919992194,354.75059439986944,354.8505019999575,355.2507031999994,None,left,1,0.4079979001544416,355.2507031999994,None,354.75059439986944,354.8505019999575,354.8505019999575,None,355.68455219990574,None,,,,,,,11029,001,2024_Jan_10_1542,ANT,2021.2.3,60.01176233909215,
1,17,spatial,up,C,L,,,,,,Block.xlsx,"你已经完成了整个实验（三个区组）。

请报告实验者已完成实验

非常感谢，再见！",1.5,0,1.5,left,LLLLL.png,,,,,0,1,1,1,1,21,45,16,,,,,,,,,,,,,,,,,,,,,,,,,,,,,,,,,,,,,,,,,,,,,,,,,,,,,,,,,,,,,,,,356.0851580000017,356.4866271999199,356.47012219997123,356.56913979980163,356.97144879982807,None,left,1,0.3592079000081867,356.97144879982807,None,356.47012219997123,356.56913979980163,356.56913979980163,None,357.3536366999615,None,,,,,,,11029,001,2024_Jan_10_1542,ANT,2021.2.3,60.01176233909215,
1,20,spatial,up,IC,R,,,,,,Block.xlsx,"你已经完成了整个实验（三个区组）。

请报告实验者已完成实验

非常感谢，再见！",1.5,0,1.5,right,LLRLL.png,,,,,0,1,1,1,1,22,46,19,,,,,,,,,,,,,,,,,,,,,,,,,,,,,,,,,,,,,,,,,,,,,,,,,,,,,,,,,,,,,,,,357.7543240999803,358.1547528998926,358.13879769993946,358.23910669982433,358.6392373999115,None,right,1,0.32361980015411973,358.6392373999115,None,358.13879769993946,358.23910669982433,358.23910669982433,None,358.98938980000094,None,,,,,,,11029,001,2024_Jan_10_1542,ANT,2021.2.3,60.01176233909215,
1,9,center,up,C,L,,,,,,Block.xlsx,"你已经完成了整个实验（三个区组）。

请报告实验者已完成实验

非常感谢，再见！",0,50,1.5,left,LLLLL.png,,,,,0,1,1,1,1,23,47,8,,,,,,,,,,,,,,,,,,,,,,,,,,,,,,,,,,,,,,,,,,,,,,,,,,,,,,,,,,,,,,,,359.3899141999427,359.79181699990295,359.77397340000607,359.8760438999161,360.2763211999554,None,left,1,0.3987078999634832,360.2763211999554,None,359.77397340000607,359.8760438999161,359.8760438999161,None,360.6919583999552,None,,,,,,,11029,001,2024_Jan_10_1542,ANT,2021.2.3,60.01176233909215,
1,15,center,down,IC,L,,,,,,Block.xlsx,"你已经完成了整个实验（三个区组）。

请报告实验者已完成实验

非常感谢，再见！",0,50,-1.5,left,RRLRR.png,,,,,0,1,1,1,2,0,48,14,,,,,,,,,,,,,,,,,,,,,,,,,,,,,,,,,,,,,,,,,,,,,,,,,,,,,,,,,,,,,,,,361.0933108997997,361.4946639998816,361.4767773000058,361.57840380002744,361.97788339992985,None,left,1,0.5135866000782698,361.97788339992985,None,361.4767773000058,361.57840380002744,361.57840380002744,None,362.5111737998668,None,,,,,,,11029,001,2024_Jan_10_1542,ANT,2021.2.3,60.01176233909215,
1,14,center,down,C,R,,,,,,Block.xlsx,"你已经完成了整个实验（三个区组）。

请报告实验者已完成实验

非常感谢，再见！",0,50,-1.5,right,RRRRR.png,,,,,0,1,1,1,2,1,49,13,,,,,,,,,,,,,,,,,,,,,,,,,,,,,,,,,,,,,,,,,,,,,,,,,,,,,,,,,,,,,,,,362.91183599992655,363.31243569985963,363.2957176999189,363.3960684998892,363.79750119987875,None,right,1,0.5816434000153095,363.79750119987875,None,363.2957176999189,363.3960684998892,363.3960684998892,None,364.3976087998599,None,,,,,,,11029,001,2024_Jan_10_1542,ANT,2021.2.3,60.01176233909215,
1,24,spatial,down,IC,R,,,,,,Block.xlsx,"你已经完成了整个实验（三个区组）。

请报告实验者已完成实验

非常感谢，再见！",-1.5,0,-1.5,right,LLRLL.png,,,,,0,1,1,1,2,2,50,23,,,,,,,,,,,,,,,,,,,,,,,,,,,,,,,,,,,,,,,,,,,,,,,,,,,,,,,,,,,,,,,,364.7980225000065,365.1990339998156,365.18306399998255,365.28362359991297,365.6840585998725,None,right,1,0.4228781999554485,365.6840585998725,None,365.18306399998255,365.28362359991297,365.28362359991297,None,366.1333115999587,None,,,,,,,11029,001,2024_Jan_10_1542,ANT,2021.2.3,60.01176233909215,
1,10,center,up,C,R,,,,,,Block.xlsx,"你已经完成了整个实验（三个区组）。

请报告实验者已完成实验

非常感谢，再见！",0,50,1.5,right,RRRRR.png,,,,,0,1,1,1,2,3,51,9,,,,,,,,,,,,,,,,,,,,,,,,,,,,,,,,,,,,,,,,,,,,,,,,,,,,,,,,,,,,,,,,366.5341179999523,366.93515629996546,366.9195869998075,367.0195451998152,367.419001000002,None,right,1,0.5356794998515397,367.419001000002,None,366.9195869998075,367.0195451998152,367.0195451998152,None,367.9693816998042,None,,,,,,,11029,001,2024_Jan_10_1542,ANT,2021.2.3,60.01176233909215,
1,18,spatial,up,C,R,,,,,,Block.xlsx,"你已经完成了整个实验（三个区组）。

请报告实验者已完成实验

非常感谢，再见！",1.5,0,1.5,right,RRRRR.png,,,,,0,1,1,1,2,4,52,17,,,,,,,,,,,,,,,,,,,,,,,,,,,,,,,,,,,,,,,,,,,,,,,,,,,,,,,,,,,,,,,,368.3701043999754,368.77235639980063,368.7543287000153,368.8546380000189,369.25459819985554,None,right,1,0.4199652001261711,369.25459819985554,None,368.7543287000153,368.8546380000189,368.8546380000189,None,369.70515819988213,None,,,,,,,11029,001,2024_Jan_10_1542,ANT,2021.2.3,60.01176233909215,
1,13,center,down,C,L,,,,,,Block.xlsx,"你已经完成了整个实验（三个区组）。

请报告实验者已完成实验

非常感谢，再见！",0,50,-1.5,left,LLLLL.png,,,,,0,1,1,1,2,5,53,12,,,,,,,,,,,,,,,,,,,,,,,,,,,,,,,,,,,,,,,,,,,,,,,,,,,,,,,,,,,,,,,,370.1059602999594,370.50702269980684,370.49149629985914,370.59018489997834,370.99178449995816,None,left,1,0.2749457999598235,370.99178449995816,None,370.49149629985914,370.59018489997834,370.59018489997834,None,371.29096859996207,None,,,,,,,11029,001,2024_Jan_10_1542,ANT,2021.2.3,60.01176233909215,
1,14,center,down,C,R,,,,,,Block.xlsx,"你已经完成了整个实验（三个区组）。

请报告实验者已完成实验

非常感谢，再见！",0,50,-1.5,right,RRRRR.png,,,,,0,1,1,1,2,6,54,13,,,,,,,,,,,,,,,,,,,,,,,,,,,,,,,,,,,,,,,,,,,,,,,,,,,,,,,,,,,,,,,,371.69270879984833,372.0926438998431,372.07641669991426,372.17590289982036,372.57650909991935,None,right,1,0.5304705000016838,372.57650909991935,None,372.07641669991426,372.17590289982036,372.17590289982036,None,373.12763909995556,None,,,,,,,11029,001,2024_Jan_10_1542,ANT,2021.2.3,60.01176233909215,
1,11,center,up,IC,L,,,,,,Block.xlsx,"你已经完成了整个实验（三个区组）。

请报告实验者已完成实验

非常感谢，再见！",0,50,1.5,left,RRLRR.png,,,,,0,1,1,1,2,7,55,10,,,,,,,,,,,,,,,,,,,,,,,,,,,,,,,,,,,,,,,,,,,,,,,,,,,,,,,,,,,,,,,,373.5277189000044,373.92957629985176,373.9121600999497,374.01268649986014,374.41237229993567,None,left,1,0.4225389000494033,374.41237229993567,None,373.9121600999497,374.01268649986014,374.01268649986014,None,374.86291209980845,None,,,,,,,11029,001,2024_Jan_10_1542,ANT,2021.2.3,60.01176233909215,
1,10,center,up,C,R,,,,,,Block.xlsx,"你已经完成了整个实验（三个区组）。

请报告实验者已完成实验

非常感谢，再见！",0,50,1.5,right,RRRRR.png,,,,,0,1,1,1,2,8,56,9,,,,,,,,,,,,,,,,,,,,,,,,,,,,,,,,,,,,,,,,,,,,,,,,,,,,,,,,,,,,,,,,375.26387629983947,375.66487729991786,375.6480193999596,375.7475671998691,376.14876559982076,None,right,1,0.46985469991341233,376.14876559982076,None,375.6480193999596,375.7475671998691,375.7475671998691,None,376.6489541998599,None,,,,,,,11029,001,2024_Jan_10_1542,ANT,2021.2.3,60.01176233909215,
1,11,center,up,IC,L,,,,,,Block.xlsx,"你已经完成了整个实验（三个区组）。

请报告实验者已完成实验

非常感谢，再见！",0,50,1.5,left,RRLRR.png,,,,,0,1,1,1,2,9,57,10,,,,,,,,,,,,,,,,,,,,,,,,,,,,,,,,,,,,,,,,,,,,,,,,,,,,,,,,,,,,,,,,377.04944029985927,377.4500893999357,377.4341302998364,377.53615159983747,377.93497750000097,None,left,1,0.5078557999804616,377.93497750000097,None,377.4341302998364,377.53615159983747,377.53615159983747,None,378.4686246998608,None,,,,,,,11029,001,2024_Jan_10_1542,ANT,2021.2.3,60.01176233909215,
1,23,spatial,down,IC,L,,,,,,Block.xlsx,"你已经完成了整个实验（三个区组）。

请报告实验者已完成实验

非常感谢，再见！",-1.5,0,-1.5,left,RRLRR.png,,,,,0,1,1,1,2,10,58,22,,,,,,,,,,,,,,,,,,,,,,,,,,,,,,,,,,,,,,,,,,,,,,,,,,,,,,,,,,,,,,,,378.8687768999953,379.2704374999739,379.252639999846,379.3534607999027,379.7536308998242,None,left,1,0.553091200068593,379.7536308998242,None,379.252639999846,379.3534607999027,379.3534607999027,None,380.3214179999195,None,,,,,,,11029,001,2024_Jan_10_1542,ANT,2021.2.3,60.01176233909215,
1,17,spatial,up,C,L,,,,,,Block.xlsx,"你已经完成了整个实验（三个区组）。

请报告实验者已完成实验

非常感谢，再见！",1.5,0,1.5,left,LLLLL.png,,,,,0,1,1,1,2,11,59,16,,,,,,,,,,,,,,,,,,,,,,,,,,,,,,,,,,,,,,,,,,,,,,,,,,,,,,,,,,,,,,,,380.7216134998016,381.1221500998363,381.1066895998083,381.2059702000115,381.60665489989333,None,left,1,0.4282098999246955,381.60665489989333,None,381.1066895998083,381.2059702000115,381.2059702000115,None,382.056854599854,None,,,,,,,11029,001,2024_Jan_10_1542,ANT,2021.2.3,60.01176233909215,
1,5,no,down,C,L,,,,,,Block.xlsx,"你已经完成了整个实验（三个区组）。

请报告实验者已完成实验

非常感谢，再见！",50,0,-1.5,left,LLLLL.png,,,,,0,1,1,1,2,12,60,4,,,,,,,,,,,,,,,,,,,,,,,,,,,,,,,,,,,,,,,,,,,,,,,,,,,,,,,,,,,,,,,,382.45788749982603,382.8588429999072,382.8414429000113,382.94249349995516,383.343707999913,None,left,1,0.37949740001931787,383.343707999913,None,382.8414429000113,382.94249349995516,382.94249349995516,None,383.74341629981063,None,,,,,,,11029,001,2024_Jan_10_1542,ANT,2021.2.3,60.01176233909215,
1,17,spatial,up,C,L,,,,,,Block.xlsx,"你已经完成了整个实验（三个区组）。

请报告实验者已完成实验

非常感谢，再见！",1.5,0,1.5,left,LLLLL.png,,,,,0,1,1,1,2,13,61,16,,,,,,,,,,,,,,,,,,,,,,,,,,,,,,,,,,,,,,,,,,,,,,,,,,,,,,,,,,,,,,,,384.1435502998065,384.5461330998223,384.52726849983446,384.62801889982074,385.02879559993744,None,left,1,0.37395219993777573,385.02879559993744,None,384.52726849983446,384.62801889982074,384.62801889982074,None,385.42861209996045,None,,,,,,,11029,001,2024_Jan_10_1542,ANT,2021.2.3,60.01176233909215,
1,2,no,up,C,R,,,,,,Block.xlsx,"你已经完成了整个实验（三个区组）。

请报告实验者已完成实验

非常感谢，再见！",50,0,1.5,right,RRRRR.png,,,,,0,1,1,1,2,14,62,1,,,,,,,,,,,,,,,,,,,,,,,,,,,,,,,,,,,,,,,,,,,,,,,,,,,,,,,,,,,,,,,,385.8291078999173,386.2307796999812,386.21378619992174,386.3135464999359,386.7146729999222,None,right,1,0.4481902997940779,386.7146729999222,None,386.21378619992174,386.3135464999359,386.3135464999359,None,387.1810875998344,None,,,,,,,11029,001,2024_Jan_10_1542,ANT,2021.2.3,60.01176233909215,
1,10,center,up,C,R,,,,,,Block.xlsx,"你已经完成了整个实验（三个区组）。

请报告实验者已完成实验

非常感谢，再见！",0,50,1.5,right,RRRRR.png,,,,,0,1,1,1,2,15,63,9,,,,,,,,,,,,,,,,,,,,,,,,,,,,,,,,,,,,,,,,,,,,,,,,,,,,,,,,,,,,,,,,387.5822256000247,387.9834160997998,387.96778139984235,388.08258449984714,388.4664596999064,None,right,1,0.4082329000812024,388.4664596999064,None,387.96778139984235,388.08258449984714,388.0668695999775,None,388.90037059993483,None,,,,,,,11029,001,2024_Jan_10_1542,ANT,2021.2.3,60.01176233909215,
1,8,no,down,IC,R,,,,,,Block.xlsx,"你已经完成了整个实验（三个区组）。

请报告实验者已完成实验

非常感谢，再见！",50,0,-1.5,right,LLRLL.png,,,,,0,1,1,1,2,16,64,7,,,,,,,,,,,,,,,,,,,,,,,,,,,,,,,,,,,,,,,,,,,,,,,,,,,,,,,,,,,,,,,,389.3011203999631,389.7016320999246,389.686566399876,389.80250909994356,390.1856958998833,None,left,0,0.4250347998458892,390.1856958998833,None,389.686566399876,389.80250909994356,389.7864551998209,None,390.63614779990166,None,,,,,,,11029,001,2024_Jan_10_1542,ANT,2021.2.3,60.01176233909215,
1,19,spatial,up,IC,L,,,,,,Block.xlsx,"你已经完成了整个实验（三个区组）。

请报告实验者已完成实验

非常感谢，再见！",1.5,0,1.5,left,RRLRR.png,,,,,0,1,1,1,2,17,65,18,,,,,,,,,,,,,,,,,,,,,,,,,,,,,,,,,,,,,,,,,,,,,,,,,,,,,,,,,,,,,,,,391.03716149996035,391.4374810999725,391.42247299989685,391.52116109989583,391.92184019996785,None,left,1,0.4089230000972748,391.92184019996785,None,391.42247299989685,391.52116109989583,391.52116109989583,None,392.3554957997985,None,,,,,,,11029,001,2024_Jan_10_1542,ANT,2021.2.3,60.01176233909215,
1,7,no,down,IC,L,,,,,,Block.xlsx,"你已经完成了整个实验（三个区组）。

请报告实验者已完成实验

非常感谢，再见！",50,0,-1.5,left,RRLRR.png,,,,,0,1,1,1,2,18,66,6,,,,,,,,,,,,,,,,,,,,,,,,,,,,,,,,,,,,,,,,,,,,,,,,,,,,,,,,,,,,,,,,392.756208299892,393.15761390002444,393.1401573999319,393.2408546998631,393.64243619982153,None,left,1,0.5610529000405222,393.64243619982153,None,393.1401573999319,393.2408546998631,393.2408546998631,None,394.2250118998345,None,,,,,,,11029,001,2024_Jan_10_1542,ANT,2021.2.3,60.01176233909215,
1,10,center,up,C,R,,,,,,Block.xlsx,"你已经完成了整个实验（三个区组）。

请报告实验者已完成实验

非常感谢，再见！",0,50,1.5,right,RRRRR.png,,,,,0,1,1,1,2,19,67,9,,,,,,,,,,,,,,,,,,,,,,,,,,,,,,,,,,,,,,,,,,,,,,,,,,,,,,,,,,,,,,,,394.6257235999219,395.027348899981,395.01071419985965,395.1101065999828,395.5111240998376,None,right,1,0.3476118999533355,395.5111240998376,None,395.01071419985965,395.1101065999828,395.1101065999828,None,395.87737699993886,None,,,,,,,11029,001,2024_Jan_10_1542,ANT,2021.2.3,60.01176233909215,
1,5,no,down,C,L,,,,,,Block.xlsx,"你已经完成了整个实验（三个区组）。

请报告实验者已完成实验

非常感谢，再见！",50,0,-1.5,left,LLLLL.png,,,,,0,1,1,1,2,20,68,4,,,,,,,,,,,,,,,,,,,,,,,,,,,,,,,,,,,,,,,,,,,,,,,,,,,,,,,,,,,,,,,,396.2779513997957,396.6799500999041,396.6620829999447,396.76294539985247,397.1627900998574,None,left,1,0.4004645000677556,397.1627900998574,None,396.6620829999447,396.76294539985247,396.76294539985247,None,397.5798223998863,None,,,,,,,11029,001,2024_Jan_10_1542,ANT,2021.2.3,60.01176233909215,
1,19,spatial,up,IC,L,,,,,,Block.xlsx,"你已经完成了整个实验（三个区组）。

请报告实验者已完成实验

非常感谢，再见！",1.5,0,1.5,left,RRLRR.png,,,,,0,1,1,1,2,21,69,18,,,,,,,,,,,,,,,,,,,,,,,,,,,,,,,,,,,,,,,,,,,,,,,,,,,,,,,,,,,,,,,,397.9805558999069,398.38108740001917,398.3655826000031,398.4652960000094,398.8655209999997,None,left,1,0.505531300092116,398.8655209999997,None,398.3655826000031,398.4652960000094,398.4652960000094,None,399.3992987999227,None,,,,,,,11029,001,2024_Jan_10_1542,ANT,2021.2.3,60.01176233909215,
1,5,no,down,C,L,,,,,,Block.xlsx,"你已经完成了整个实验（三个区组）。

请报告实验者已完成实验

非常感谢，再见！",50,0,-1.5,left,LLLLL.png,,,,,0,1,1,1,2,22,70,4,,,,,,,,,,,,,,,,,,,,,,,,,,,,,,,,,,,,,,,,,,,,,,,,,,,,,,,,,,,,,,,,399.8001077999361,400.2015519000124,400.18403270002455,400.2846295000054,400.6843310999684,None,left,1,0.46267440007068217,400.6843310999684,None,400.18403270002455,400.2846295000054,400.2846295000054,None,401.16864829999395,None,,,,,,,11029,001,2024_Jan_10_1542,ANT,2021.2.3,60.01176233909215,
1,12,center,up,IC,R,,,,,,Block.xlsx,"你已经完成了整个实验（三个区组）。

请报告实验者已完成实验

非常感谢，再见！",0,50,1.5,right,LLRLL.png,,,,,0,1,1,1,2,23,71,11,,,,,,,,,,,,,,,,,,,,,,,,,,,,,,,,,,,,,,,,,,,,,,,,,,,,,,,,,,,,,,,,401.5692793999333,401.97068039979786,401.9531200998463,402.0536841999274,402.4544738000259,None,right,1,0.4287290999200195,402.4544738000259,None,401.9531200998463,402.0536841999274,402.0536841999274,None,402.90436079981737,None,,,,,,,11029,001,2024_Jan_10_1542,ANT,2021.2.3,60.01176233909215,
1,21,spatial,down,C,L,,,,,,Block.xlsx,"你已经完成了整个实验（三个区组）。

请报告实验者已完成实验

非常感谢，再见！",-1.5,0,-1.5,left,LLLLL.png,,,,,0,1,1,1,3,0,72,20,,,,,,,,,,,,,,,,,,,,,,,,,,,,,,,,,,,,,,,,,,,,,,,,,,,,,,,,,,,,,,,,403.3051320000086,403.70793839986436,403.6890523999464,403.7903318000026,404.1905712999869,None,left,1,0.34008120000362396,404.1905712999869,None,403.6890523999464,403.7903318000026,403.7903318000026,None,404.556892399909,None,,,,,,,11029,001,2024_Jan_10_1542,ANT,2021.2.3,60.01176233909215,
1,23,spatial,down,IC,L,,,,,,Block.xlsx,"你已经完成了整个实验（三个区组）。

请报告实验者已完成实验

非常感谢，再见！",-1.5,0,-1.5,left,RRLRR.png,,,,,0,1,1,1,3,1,73,22,,,,,,,,,,,,,,,,,,,,,,,,,,,,,,,,,,,,,,,,,,,,,,,,,,,,,,,,,,,,,,,,404.95785019989125,405.35855289991014,405.3422538000159,405.4421188000124,405.84409769997,None,left,1,0.486799499951303,405.84409769997,None,405.3422538000159,405.4421188000124,405.4421188000124,None,406.3597395999823,None,,,,,,,11029,001,2024_Jan_10_1542,ANT,2021.2.3,60.01176233909215,
1,3,no,up,IC,L,,,,,,Block.xlsx,"你已经完成了整个实验（三个区组）。

请报告实验者已完成实验

非常感谢，再见！",50,0,1.5,left,RRLRR.png,,,,,0,1,1,1,3,2,74,2,,,,,,,,,,,,,,,,,,,,,,,,,,,,,,,,,,,,,,,,,,,,,,,,,,,,,,,,,,,,,,,,406.7610524999909,407.16282949992456,407.1442303999793,407.2446461999789,407.6450030999258,None,left,1,0.5344459998887032,407.6450030999258,None,407.1442303999793,407.2446461999789,407.2446461999789,None,408.19549839990214,None,,,,,,,11029,001,2024_Jan_10_1542,ANT,2021.2.3,60.01176233909215,
1,11,center,up,IC,L,,,,,,Block.xlsx,"你已经完成了整个实验（三个区组）。

请报告实验者已完成实验

非常感谢，再见！",0,50,1.5,left,RRLRR.png,,,,,0,1,1,1,3,3,75,10,,,,,,,,,,,,,,,,,,,,,,,,,,,,,,,,,,,,,,,,,,,,,,,,,,,,,,,,,,,,,,,,408.59612079989165,408.9980142998975,408.980261699995,409.0806244998239,409.48147429991513,None,left,1,0.4253211000468582,409.48147429991513,None,408.980261699995,409.0806244998239,409.0806244998239,None,409.93170850002207,None,,,,,,,11029,001,2024_Jan_10_1542,ANT,2021.2.3,60.01176233909215,
1,6,no,down,C,R,,,,,,Block.xlsx,"你已经完成了整个实验（三个区组）。

请报告实验者已完成实验

非常感谢，再见！",50,0,-1.5,right,RRRRR.png,,,,,0,1,1,1,3,4,76,5,,,,,,,,,,,,,,,,,,,,,,,,,,,,,,,,,,,,,,,,,,,,,,,,,,,,,,,,,,,,,,,,410.3327930998057,410.7335260999389,410.716213000007,410.8162596998736,411.2184233998414,None,right,1,0.664298800053075,411.2184233998414,None,410.716213000007,410.8162596998736,410.8162596998736,None,411.9010512998793,None,,,,,,,11029,001,2024_Jan_10_1542,ANT,2021.2.3,60.01176233909215,
1,21,spatial,down,C,L,,,,,,Block.xlsx,"你已经完成了整个实验（三个区组）。

请报告实验者已完成实验

非常感谢，再见！",-1.5,0,-1.5,left,LLLLL.png,,,,,0,1,1,1,3,5,77,20,,,,,,,,,,,,,,,,,,,,,,,,,,,,,,,,,,,,,,,,,,,,,,,,,,,,,,,,,,,,,,,,412.3015886999201,412.7033598998096,412.6871904998552,412.7857476999052,413.1865483999718,None,left,1,0.4485594998113811,413.1865483999718,None,412.6871904998552,412.7857476999052,412.7857476999052,None,413.6538295999635,None,,,,,,,11029,001,2024_Jan_10_1542,ANT,2021.2.3,60.01176233909215,
1,3,no,up,IC,L,,,,,,Block.xlsx,"你已经完成了整个实验（三个区组）。

请报告实验者已完成实验

非常感谢，再见！",50,0,1.5,left,RRLRR.png,,,,,0,1,1,1,3,6,78,2,,,,,,,,,,,,,,,,,,,,,,,,,,,,,,,,,,,,,,,,,,,,,,,,,,,,,,,,,,,,,,,,414.0546457997989,414.4555072998628,414.4382207999006,414.5404768998269,414.9397625999991,None,left,1,0.43116749986074865,414.9397625999991,None,414.4382207999006,414.5404768998269,414.5404768998269,None,415.3895506998524,None,,,,,,,11029,001,2024_Jan_10_1542,ANT,2021.2.3,60.01176233909215,
1,4,no,up,IC,R,,,,,,Block.xlsx,"你已经完成了整个实验（三个区组）。

请报告实验者已完成实验

非常感谢，再见！",50,0,1.5,right,LLRLL.png,,,,,0,1,1,1,3,7,79,3,,,,,,,,,,,,,,,,,,,,,,,,,,,,,,,,,,,,,,,,,,,,,,,,,,,,,,,,,,,,,,,,415.79025999992155,416.19142059981823,416.1757809999399,416.2755687998142,416.67514800000936,None,right,1,0.4959041001275182,416.67514800000936,None,416.1757809999399,416.2755687998142,416.2755687998142,None,417.19278509984724,None,,,,,,,11029,001,2024_Jan_10_1542,ANT,2021.2.3,60.01176233909215,
1,15,center,down,IC,L,,,,,,Block.xlsx,"你已经完成了整个实验（三个区组）。

请报告实验者已完成实验

非常感谢，再见！",0,50,-1.5,left,RRLRR.png,,,,,0,1,1,1,3,8,80,14,,,,,,,,,,,,,,,,,,,,,,,,,,,,,,,,,,,,,,,,,,,,,,,,,,,,,,,,,,,,,,,,417.59312859992497,417.99440509988926,417.9776804000139,418.07799729984254,418.47829969995655,None,left,1,0.5244649997912347,418.47829969995655,None,417.9776804000139,418.07799729984254,418.07799729984254,None,419.0281612998806,None,,,,,,,11029,001,2024_Jan_10_1542,ANT,2021.2.3,60.01176233909215,
1,9,center,up,C,L,,,,,,Block.xlsx,"你已经完成了整个实验（三个区组）。

请报告实验者已完成实验

非常感谢，再见！",0,50,1.5,left,LLLLL.png,,,,,0,1,1,1,3,9,81,8,,,,,,,,,,,,,,,,,,,,,,,,,,,,,,,,,,,,,,,,,,,,,,,,,,,,,,,,,,,,,,,,419.4289669999853,419.82955689984374,419.81357769994065,419.914050999796,420.314322500024,None,left,1,0.5204800998326391,420.314322500024,None,419.81357769994065,419.914050999796,419.914050999796,None,420.8648494000081,None,,,,,,,11029,001,2024_Jan_10_1542,ANT,2021.2.3,60.01176233909215,
1,4,no,up,IC,R,,,,,,Block.xlsx,"你已经完成了整个实验（三个区组）。

请报告实验者已完成实验

非常感谢，再见！",50,0,1.5,right,LLRLL.png,,,,,0,1,1,1,3,10,82,3,,,,,,,,,,,,,,,,,,,,,,,,,,,,,,,,,,,,,,,,,,,,,,,,,,,,,,,,,,,,,,,,421.26518989983015,421.66683200001717,421.6491180998273,421.75056119984947,422.1507124998607,None,right,1,0.5080647000577301,422.1507124998607,None,421.6491180998273,421.75056119984947,421.75056119984947,None,422.6837674998678,None,,,,,,,11029,001,2024_Jan_10_1542,ANT,2021.2.3,60.01176233909215,
1,22,spatial,down,C,R,,,,,,Block.xlsx,"你已经完成了整个实验（三个区组）。

请报告实验者已完成实验

非常感谢，再见！",-1.5,0,-1.5,right,RRRRR.png,,,,,0,1,1,1,3,11,83,21,,,,,,,,,,,,,,,,,,,,,,,,,,,,,,,,,,,,,,,,,,,,,,,,,,,,,,,,,,,,,,,,423.084580599796,423.48490449995734,423.4691510000266,423.5685250000097,423.9691043999046,None,right,1,0.6502451999112964,423.9691043999046,None,423.4691510000266,423.5685250000097,423.5685250000097,None,424.63667689985596,None,,,,,,,11029,001,2024_Jan_10_1542,ANT,2021.2.3,60.01176233909215,
1,16,center,down,IC,R,,,,,,Block.xlsx,"你已经完成了整个实验（三个区组）。

请报告实验者已完成实验

非常感谢，再见！",0,50,-1.5,right,LLRLL.png,,,,,0,1,1,1,3,12,84,15,,,,,,,,,,,,,,,,,,,,,,,,,,,,,,,,,,,,,,,,,,,,,,,,,,,,,,,,,,,,,,,,425.03741889982484,425.43895209999755,425.42159619997256,425.52160499989986,425.92266679997556,None,right,1,0.584193899994716,425.92266679997556,None,425.42159619997256,425.52160499989986,425.52160499989986,None,426.5231716998387,None,,,,,,,11029,001,2024_Jan_10_1542,ANT,2021.2.3,60.01176233909215,
1,13,center,down,C,L,,,,,,Block.xlsx,"你已经完成了整个实验（三个区组）。

请报告实验者已完成实验

非常感谢，再见！",0,50,-1.5,left,LLLLL.png,,,,,0,1,1,1,3,13,85,12,,,,,,,,,,,,,,,,,,,,,,,,,,,,,,,,,,,,,,,,,,,,,,,,,,,,,,,,,,,,,,,,426.92321999999695,427.3248007998336,427.30881089996547,427.40747979981825,427.8085562000051,None,left,1,0.6021485000383109,427.8085562000051,None,427.30881089996547,427.40747979981825,427.40747979981825,None,428.4255666998215,None,,,,,,,11029,001,2024_Jan_10_1542,ANT,2021.2.3,60.01176233909215,
1,9,center,up,C,L,,,,,,Block.xlsx,"你已经完成了整个实验（三个区组）。

请报告实验者已完成实验

非常感谢，再见！",0,50,1.5,left,LLLLL.png,,,,,0,1,1,1,3,14,86,8,,,,,,,,,,,,,,,,,,,,,,,,,,,,,,,,,,,,,,,,,,,,,,,,,,,,,,,,,,,,,,,,428.8266706999857,429.22770359995775,429.21004809997976,429.3113752999343,429.71084679989144,None,left,1,0.40400939993560314,429.71084679989144,None,429.21004809997976,429.3113752999343,429.3113752999343,None,430.14481359999627,None,,,,,,,11029,001,2024_Jan_10_1542,ANT,2021.2.3,60.01176233909215,
1,22,spatial,down,C,R,,,,,,Block.xlsx,"你已经完成了整个实验（三个区组）。

请报告实验者已完成实验

非常感谢，再见！",-1.5,0,-1.5,right,RRRRR.png,,,,,0,1,1,1,3,15,87,21,,,,,,,,,,,,,,,,,,,,,,,,,,,,,,,,,,,,,,,,,,,,,,,,,,,,,,,,,,,,,,,,430.54552109981887,430.9460735998582,430.9316814998165,431.0487059999723,431.4307036998216,None,right,1,0.42815260007046163,431.4307036998216,None,430.9316814998165,431.0487059999723,431.03023559995927,None,431.8806404999923,None,,,,,,,11029,001,2024_Jan_10_1542,ANT,2021.2.3,60.01176233909215,
1,20,spatial,up,IC,R,,,,,,Block.xlsx,"你已经完成了整个实验（三个区组）。

请报告实验者已完成实验

非常感谢，再见！",1.5,0,1.5,right,LLRLL.png,,,,,0,1,1,1,3,16,88,19,,,,,,,,,,,,,,,,,,,,,,,,,,,,,,,,,,,,,,,,,,,,,,,,,,,,,,,,,,,,,,,,432.28133909986354,432.6832268999424,432.66597949992865,432.76564419991337,433.16602449980564,None,right,1,0.5887410000432283,433.16602449980564,None,432.66597949992865,432.76564419991337,432.76564419991337,None,433.78356749983504,None,,,,,,,11029,001,2024_Jan_10_1542,ANT,2021.2.3,60.01176233909215,
1,6,no,down,C,R,,,,,,Block.xlsx,"你已经完成了整个实验（三个区组）。

请报告实验者已完成实验

非常感谢，再见！",50,0,-1.5,right,RRRRR.png,,,,,0,1,1,1,3,17,89,5,,,,,,,,,,,,,,,,,,,,,,,,,,,,,,,,,,,,,,,,,,,,,,,,,,,,,,,,,,,,,,,,434.18417699984275,434.5856228999328,434.5682077999227,434.6686710999347,435.06900090002455,None,right,1,0.46176399989053607,435.06900090002455,None,434.5682077999227,434.6686710999347,434.6686710999347,None,435.5526941998396,None,,,,,,,11029,001,2024_Jan_10_1542,ANT,2021.2.3,60.01176233909215,
1,16,center,down,IC,R,,,,,,Block.xlsx,"你已经完成了整个实验（三个区组）。

请报告实验者已完成实验

非常感谢，再见！",0,50,-1.5,right,LLRLL.png,,,,,0,1,1,1,3,18,90,15,,,,,,,,,,,,,,,,,,,,,,,,,,,,,,,,,,,,,,,,,,,,,,,,,,,,,,,,,,,,,,,,435.95356019982137,436.3557368000038,436.3375681999605,436.4383094999939,436.8386762998998,None,right,1,0.6523120999336243,436.8386762998998,None,436.3375681999605,436.4383094999939,436.4383094999939,None,437.50577069981955,None,,,,,,,11029,001,2024_Jan_10_1542,ANT,2021.2.3,60.01176233909215,
1,20,spatial,up,IC,R,,,,,,Block.xlsx,"你已经完成了整个实验（三个区组）。

请报告实验者已完成实验

非常感谢，再见！",1.5,0,1.5,right,LLRLL.png,,,,,0,1,1,1,3,19,91,19,,,,,,,,,,,,,,,,,,,,,,,,,,,,,,,,,,,,,,,,,,,,,,,,,,,,,,,,,,,,,,,,437.90643819980323,438.3080246997997,438.2901977999136,438.39101449982263,438.79173729987815,None,right,1,0.5791425001807511,438.79173729987815,None,438.2901977999136,438.39101449982263,438.39101449982263,None,439.3923388000112,None,,,,,,,11029,001,2024_Jan_10_1542,ANT,2021.2.3,60.01176233909215,
1,9,center,up,C,L,,,,,,Block.xlsx,"你已经完成了整个实验（三个区组）。

请报告实验者已完成实验

