TrialType,TrialNumber,WarningType,TargetType,FlankerType,TargetDirection,W,f,Y,corr,imageFile,condition,endtext,Yw,Yf,Yt,Corr,imagefile,trials_3.thisRepN,trials_3.thisTrialN,trials_3.thisN,trials_3.thisIndex,trials_2.thisRepN,trials_2.thisTrialN,trials_2.thisN,trials_2.thisIndex,trials.thisRepN,trials.thisTrialN,trials.thisN,trials.thisIndex,instr.started,instr.stopped,key_resp.keys,key_resp.rt,key_resp.started,key_resp.stopped,image.started,image.stopped,key_resp_6.keys,key_resp_6.rt,key_resp_6.started,key_resp_6.stopped,EX_L.started,EX_L.stopped,AL.started,AL.stopped,key_resp_7.keys,key_resp_7.rt,key_resp_7.started,key_resp_7.stopped,EX_R.started,EX_R.stopped,RR.started,RR.stopped,key_resp_8.keys,key_resp_8.rt,key_resp_8.started,key_resp_8.stopped,image_2.started,image_2.stopped,key_resp_9.keys,key_resp_9.rt,key_resp_9.started,key_resp_9.stopped,image_3.started,image_3.stopped,key_resp_10.keys,key_resp_10.rt,key_resp_10.started,key_resp_10.stopped,fix.started,fix.stopped,war.started,war.stopped,tar.started,tar.stopped,key_resp_4.keys,key_resp_4.corr,key_resp_4.rt,key_resp_4.started,key_resp_4.stopped,fix2.started,fix2.stopped,fix_2.started,fix_2.stopped,Feedback.started,Feedback.stopped,key_resp_2.keys,key_resp_2.rt,key_resp_2.started,key_resp_2.stopped,text_5.started,text_5.stopped,fix2_1.started,fix2_1.stopped,Warn.started,Warn.stopped,Tar.started,Tar.stopped,key_resp_5.keys,key_resp_5.corr,key_resp_5.rt,key_resp_5.started,key_resp_5.stopped,Fix_2.started,Fix_2.stopped,fix2_2.started,fix2_2.stopped,text_4.started,text_4.stopped,key_resp_3.keys,key_resp_3.rt,key_resp_3.started,key_resp_3.stopped,text_3.started,text_3.stopped,participant,session,date,expName,psychopyVersion,frameRate,
,,,,,,,,,,,,,,,,,,,,,,,,,,,,,,9.689375400077552,None,space,38.986187300179154,9.689375400077552,None,,,,,,,,,,,,,,,,,,,,,,,,,,,,,,,,,,,,,,,,,,,,,,,,,,,,,,,,,,,,,,,,,,,,,,,,,,,,,,,,,11026,001,2024_Jan_10_1017,ANT,2021.2.3,59.75896816516461,
,,,,,,,,,,,,,,,,,,,,,,,,,,,,,,,,,,,,48.69663040013984,None,space,12.63502090005204,48.69663040013984,None,,,,,,,,,,,,,,,,,,,,,,,,,,,,,,,,,,,,,,,,,,,,,,,,,,,,,,,,,,,,,,,,,,,,,,,,,,,11026,001,2024_Jan_10_1017,ANT,2021.2.3,59.75896816516461,
,,,,,,,,,,,,,,,,,,,,,,,,,,,,,,,,,,,,,,,,,,61.34871150017716,None,61.34871150017716,None,left,1.574442199897021,61.34871150017716,None,,,,,,,,,,,,,,,,,,,,,,,,,,,,,,,,,,,,,,,,,,,,,,,,,,,,,,,,,,,,,,,,,,,11026,001,2024_Jan_10_1017,ANT,2021.2.3,59.75896816516461,
,,,,,,,,,,,,,,,,,,,,,,,,,,,,,,,,,,,,,,,,,,,,,,,,,,62.95111609995365,None,62.95111609995365,None,right,1.1721716998144984,62.95111609995365,None,,,,,,,,,,,,,,,,,,,,,,,,,,,,,,,,,,,,,,,,,,,,,,,,,,,,,,,,,,,11026,001,2024_Jan_10_1017,ANT,2021.2.3,59.75896816516461,
,,,,,,,,,,,,,,,,,,,,,,,,,,,,,,,,,,,,,,,,,,,,,,,,,,,,,,,,,,64.15309080015868,None,space,11.689858499914408,64.15309080015868,None,,,,,,,,,,,,,,,,,,,,,,,,,,,,,,,,,,,,,,,,,,,,,,,,,,,,,11026,001,2024_Jan_10_1017,ANT,2021.2.3,59.75896816516461,
,,,,,,,,,,,,,,,,,,,,,,,,,,,,,,,,,,,,,,,,,,,,,,,,,,,,,,,,,,,,,,,,75.87034330004826,None,space,12.260874799918383,75.87034330004826,None,,,,,,,,,,,,,,,,,,,,,,,,,,,,,,,,,,,,,,,,,,,,,,,11026,001,2024_Jan_10_1017,ANT,2021.2.3,59.75896816516461,
0,5,center,up,C,L,0,50,1.5,left,LLLLL.png,,,,,,,,0,0,0,4,,,,,,,,,,,,,,,,,,,,,,,,,,,,,,,,,,,,,,,,,,,,,,,,,88.22121830005199,88.6223879000172,88.6223879000172,88.72440590010956,89.10658690007403,None,left,1,0.7365888000931591,89.10658690007403,None,88.6223879000172,88.72440590010956,88.7066512000747,None,89.87456460017711,None,,,,,,,,,,,,,,,,,,,,,,,,,,,,,,11026,001,2024_Jan_10_1017,ANT,2021.2.3,59.75896816516461,
0,3,no,down,C,R,50,0,-1.5,right,RRRRR.png,,,,,,,,0,1,1,2,,,,,,,,,,,,,,,,,,,,,,,,,,,,,,,,,,,,,,,,,,,,,,,,,91.87730480008759,92.27874290011823,92.2619726001285,92.36195209994912,92.7638978001196,None,right,1,0.5591357999946922,92.7638978001196,None,92.2619726001285,92.36195209994912,92.36195209994912,None,93.3459127000533,None,,,,,,,,,,,,,,,,,,,,,,,,,,,,,,11026,001,2024_Jan_10_1017,ANT,2021.2.3,59.75896816516461,
0,2,no,up,IC,R,50,0,1.5,right,LLRLL.png,,,,,,,,0,2,2,1,,,,,,,,,,,,,,,,,,,,,,,,,,,,,,,,,,,,,,,,,,,,,,,,,95.34908810001798,95.74974430003203,95.733751000138,95.83430800004862,96.23385219997726,None,right,1,0.681873899884522,96.23385219997726,None,95.733751000138,95.83430800004862,95.83430800004862,None,96.93451020005159,None,,,,,,,,,,,,,,,,,,,,,,,,,,,,,,11026,001,2024_Jan_10_1017,ANT,2021.2.3,59.75896816516461,
0,8,center,down,IC,L,0,50,-1.5,left,RRLRR.png,,,,,,,,0,3,3,7,,,,,,,,,,,,,,,,,,,,,,,,,,,,,,,,,,,,,,,,,,,,,,,,,98.93826900003478,99.33894390007481,99.32221690006554,99.42171630007215,99.82226230017841,None,left,1,0.7086926000192761,99.82226230017841,None,99.32221690006554,99.42171630007215,99.42171630007215,None,100.55685789999552,None,,,,,,,,,,,,,,,,,,,,,,,,,,,,,,11026,001,2024_Jan_10_1017,ANT,2021.2.3,59.75896816516461,
0,11,spatial,down,C,L,-1.5,0,-1.5,left,LLLLL.png,,,,,,,,0,4,4,10,,,,,,,,,,,,,,,,,,,,,,,,,,,,,,,,,,,,,,,,,,,,,,,,,102.55992070003413,102.96116139995866,102.94383280002512,103.04500790010206,103.44430460012518,None,left,1,0.44676549988798797,103.44430460012518,None,102.94383280002512,103.04500790010206,103.04500790010206,None,103.91172590013593,None,,,,,,,,,,,,,,,,,,,,,,,,,,,,,,11026,001,2024_Jan_10_1017,ANT,2021.2.3,59.75896816516461,
0,12,spatial,down,IC,R,-1.5,0,-1.5,right,LLRLL.png,,,,,,,,0,5,5,11,,,,,,,,,,,,,,,,,,,,,,,,,,,,,,,,,,,,,,,,,,,,,,,,,105.91571209998801,106.31729240017012,106.29904570011422,106.40039340010844,106.8002929999493,None,right,1,0.48350899992510676,106.8002929999493,None,106.29904570011422,106.40039340010844,106.40039340010844,None,107.299983400153,None,,,,,,,,,,,,,,,,,,,,,,,,,,,,,,11026,001,2024_Jan_10_1017,ANT,2021.2.3,59.75896816516461,
0,10,spatial,up,IC,L,1.5,0,1.5,left,RRLRR.png,,,,,,,,0,6,6,9,,,,,,,,,,,,,,,,,,,,,,,,,,,,,,,,,,,,,,,,,,,,,,,,,109.30302370013669,109.70394759997725,109.68828330002725,109.78913050005212,110.18889990006573,None,left,1,0.37410120014101267,110.18889990006573,None,109.68828330002725,109.78913050005212,109.78913050005212,None,110.58822949999012,None,,,,,,,,,,,,,,,,,,,,,,,,,,,,,,11026,001,2024_Jan_10_1017,ANT,2021.2.3,59.75896816516461,
0,6,center,up,IC,R,0,50,1.5,right,LLRLL.png,,,,,,,,0,7,7,5,,,,,,,,,,,,,,,,,,,,,,,,,,,,,,,,,,,,,,,,,,,,,,,,,112.59134380007163,112.9919172001537,112.97604049998336,113.07540860003792,113.47648920002393,None,right,1,0.5585149000398815,113.47648920002393,None,112.97604049998336,113.07540860003792,113.07540860003792,None,114.06027390016243,None,,,,,,,,,,,,,,,,,,,,,,,,,,,,,,11026,001,2024_Jan_10_1017,ANT,2021.2.3,59.75896816516461,
0,1,no,up,C,L,50,0,1.5,left,LLLLL.png,,,,,,,,0,8,8,0,,,,,,,,,,,,,,,,,,,,,,,,,,,,,,,,,,,,,,,,,,,,,,,,,116.06325220013969,116.46359760011546,116.44783319998533,116.5472802000586,116.94926210003905,None,left,1,0.4699395000934601,116.94926210003905,None,116.44783319998533,116.5472802000586,116.5472802000586,None,117.44853819999844,None,,,,,,,,,,,,,,,,,,,,,,,,,,,,,,11026,001,2024_Jan_10_1017,ANT,2021.2.3,59.75896816516461,
0,7,center,down,C,R,0,50,-1.5,right,RRRRR.png,,,,,,,,0,9,9,6,,,,,,,,,,,,,,,,,,,,,,,,,,,,,,,,,,,,,,,,,,,,,,,,,119.45161910005845,119.85238940012641,119.83754470013082,119.95212040003389,120.33750879997388,None,right,1,0.409486300079152,120.33750879997388,None,119.83754470013082,119.95212040003389,119.93688430008478,None,120.77039330010302,None,,,,,,,,,,,,,,,,,,,,,,,,,,,,,,11026,001,2024_Jan_10_1017,ANT,2021.2.3,59.75896816516461,
0,9,spatial,up,C,R,1.5,0,1.5,right,RRRRR.png,,,,,,,,0,10,10,8,,,,,,,,,,,,,,,,,,,,,,,,,,,,,,,,,,,,,,,,,,,,,,,,,122.77315030014142,123.17429030011408,123.15748010016978,123.25700099999085,123.65807910007425,None,right,1,0.3689647999126464,123.65807910007425,None,123.15748010016978,123.25700099999085,123.25700099999085,None,124.041564400075,None,,,,,,,,,,,,,,,,,,,,,,,,,,,,,,11026,001,2024_Jan_10_1017,ANT,2021.2.3,59.75896816516461,
0,4,no,down,IC,L,50,0,-1.5,left,RRLRR.png,,,,,,,,0,11,11,3,,,,,,,,,,,,,,,,,,,,,,,,,,,,,,,,,,,,,,,,,,,,,,,,,126.04455960006453,126.44536689994857,126.42882250016555,126.53068120009266,126.9307051000651,None,left,1,0.40030220011249185,126.9307051000651,None,126.42882250016555,126.53068120009266,126.53068120009266,None,127.3464677000884,None,,,,,,,,,,,,,,,,,,,,,,,,,,,,,,11026,001,2024_Jan_10_1017,ANT,2021.2.3,59.75896816516461,
,,,,,,,,,,,,,,,,,,,,,,,,,,,,,,,,,,,,,,,,,,,,,,,,,,,,,,,,,,,,,,,,,,,,,,,,,,,,,,,,,,,,,,,space,7.964588999981061,129.35059659997933,None,,,,,,,,,,,,,,,,,,,,,,,,,,11026,001,2024_Jan_10_1017,ANT,2021.2.3,59.75896816516461,
1,1,no,up,C,L,,,,,,Block.xlsx,"你已经完成了第一个实验区组

请稍作休息


点击空格键进入下一个区组。",50,0,1.5,left,LLLLL.png,,,,,0,0,0,0,0,0,0,0,,,,,,,,,,,,,,,,,,,,,,,,,,,,,,,,,,,,,,,,,,,,,,,,,,,,,,,,,,,,,,129.35059659997933,None,137.37902330001816,137.78014250006527,137.76212430000305,137.86370780016296,138.26274399994873,None,left,1,0.46038790000602603,138.26274399994873,None,137.76212430000305,137.86370780016296,137.86370780016296,None,138.74688320001587,None,,,,,,,11026,001,2024_Jan_10_1017,ANT,2021.2.3,59.75896816516461,
1,9,center,up,C,L,,,,,,Block.xlsx,"你已经完成了第一个实验区组

请稍作休息


点击空格键进入下一个区组。",0,50,1.5,left,LLLLL.png,,,,,0,0,0,0,0,1,1,8,,,,,,,,,,,,,,,,,,,,,,,,,,,,,,,,,,,,,,,,,,,,,,,,,,,,,,,,,,,,,,,,139.1475017000921,139.5487782000564,139.5314821000211,139.63211490004323,140.03376680007204,None,left,1,0.3941416998859495,140.03376680007204,None,139.5314821000211,139.63211490004323,139.63211490004323,None,140.4493339001201,None,,,,,,,11026,001,2024_Jan_10_1017,ANT,2021.2.3,59.75896816516461,
1,6,no,down,C,R,,,,,,Block.xlsx,"你已经完成了第一个实验区组

请稍作休息


点击空格键进入下一个区组。",50,0,-1.5,right,RRRRR.png,,,,,0,0,0,0,0,2,2,5,,,,,,,,,,,,,,,,,,,,,,,,,,,,,,,,,,,,,,,,,,,,,,,,,,,,,,,,,,,,,,,,140.85009510000236,141.25287670013495,141.23447040002793,141.3347008000128,141.73463489999995,None,right,1,0.7488859000150114,141.73463489999995,None,141.23447040002793,141.3347008000128,141.3347008000128,None,142.50240870006382,None,,,,,,,11026,001,2024_Jan_10_1017,ANT,2021.2.3,59.75896816516461,
1,19,spatial,up,IC,L,,,,,,Block.xlsx,"你已经完成了第一个实验区组

请稍作休息


点击空格键进入下一个区组。",1.5,0,1.5,left,RRLRR.png,,,,,0,0,0,0,0,3,3,18,,,,,,,,,,,,,,,,,,,,,,,,,,,,,,,,,,,,,,,,,,,,,,,,,,,,,,,,,,,,,,,,142.90302020008676,143.30388120003045,143.28668440016918,143.38806540006772,143.78763839998282,None,left,1,0.3117084000259638,143.78763839998282,None,143.28668440016918,143.38806540006772,143.38806540006772,None,144.12190690007992,None,,,,,,,11026,001,2024_Jan_10_1017,ANT,2021.2.3,59.75896816516461,
1,9,center,up,C,L,,,,,,Block.xlsx,"你已经完成了第一个实验区组

请稍作休息


点击空格键进入下一个区组。",0,50,1.5,left,LLLLL.png,,,,,0,0,0,0,0,4,4,8,,,,,,,,,,,,,,,,,,,,,,,,,,,,,,,,,,,,,,,,,,,,,,,,,,,,,,,,,,,,,,,,144.52237930009142,144.92318200017326,144.9058741000481,145.00619770004414,145.40792490006424,None,left,1,0.5875222000759095,145.40792490006424,None,144.9058741000481,145.00619770004414,145.00619770004414,None,146.02446580003016,None,,,,,,,11026,001,2024_Jan_10_1017,ANT,2021.2.3,59.75896816516461,
1,17,spatial,up,C,L,,,,,,Block.xlsx,"你已经完成了第一个实验区组

请稍作休息


点击空格键进入下一个区组。",1.5,0,1.5,left,LLLLL.png,,,,,0,0,0,0,0,5,5,16,,,,,,,,,,,,,,,,,,,,,,,,,,,,,,,,,,,,,,,,,,,,,,,,,,,,,,,,,,,,,,,,146.42490210011601,146.82636060006917,146.8103279999923,146.92725359997712,147.31153970002197,None,left,1,0.2915998001117259,147.31153970002197,None,146.8103279999923,146.92725359997712,146.90891889994964,None,147.62664459994994,None,,,,,,,11026,001,2024_Jan_10_1017,ANT,2021.2.3,59.75896816516461,
1,1,no,up,C,L,,,,,,Block.xlsx,"你已经完成了第一个实验区组

请稍作休息


点击空格键进入下一个区组。",50,0,1.5,left,LLLLL.png,,,,,0,0,0,0,0,6,6,0,,,,,,,,,,,,,,,,,,,,,,,,,,,,,,,,,,,,,,,,,,,,,,,,,,,,,,,,,,,,,,,,148.0270349001512,148.42862150003202,148.41210360010155,148.5121323999483,148.91232040012255,None,left,1,0.34692930011078715,148.91232040012255,None,148.41210360010155,148.5121323999483,148.5121323999483,None,149.27902320004068,None,,,,,,,11026,001,2024_Jan_10_1017,ANT,2021.2.3,59.75896816516461,
1,13,center,down,C,L,,,,,,Block.xlsx,"你已经完成了第一个实验区组

请稍作休息


点击空格键进入下一个区组。",0,50,-1.5,left,LLLLL.png,,,,,0,0,0,0,0,7,7,12,,,,,,,,,,,,,,,,,,,,,,,,,,,,,,,,,,,,,,,,,,,,,,,,,,,,,,,,,,,,,,,,149.67980150016956,150.08148910012096,150.06499200011604,150.18076110002585,150.56500800000504,None,left,1,0.606142400065437,150.56500800000504,None,150.06499200011604,150.18076110002585,150.165002200054,None,151.1986259999685,None,,,,,,,11026,001,2024_Jan_10_1017,ANT,2021.2.3,59.75896816516461,
1,14,center,down,C,R,,,,,,Block.xlsx,"你已经完成了第一个实验区组

请稍作休息


点击空格键进入下一个区组。",0,50,-1.5,right,RRRRR.png,,,,,0,0,0,0,0,8,8,13,,,,,,,,,,,,,,,,,,,,,,,,,,,,,,,,,,,,,,,,,,,,,,,,,,,,,,,,,,,,,,,,151.6001307000406,152.00055620004423,151.98306710016914,152.08425690000877,152.4838718001265,None,right,1,0.5591485002078116,152.4838718001265,None,151.98306710016914,152.08425690000877,152.08425690000877,None,153.06834240001626,None,,,,,,,11026,001,2024_Jan_10_1017,ANT,2021.2.3,59.75896816516461,
1,24,spatial,down,IC,R,,,,,,Block.xlsx,"你已经完成了第一个实验区组

请稍作休息


点击空格键进入下一个区组。",-1.5,0,-1.5,right,LLRLL.png,,,,,0,0,0,0,0,9,9,23,,,,,,,,,,,,,,,,,,,,,,,,,,,,,,,,,,,,,,,,,,,,,,,,,,,,,,,,,,,,,,,,153.4687151000835,153.86975960014388,153.85333980014548,153.95311300014146,154.35397809999995,None,right,1,0.5531492999289185,154.35397809999995,None,153.85333980014548,153.95311300014146,153.95311300014146,None,154.93763420009054,None,,,,,,,11026,001,2024_Jan_10_1017,ANT,2021.2.3,59.75896816516461,
1,21,spatial,down,C,L,,,,,,Block.xlsx,"你已经完成了第一个实验区组

请稍作休息


点击空格键进入下一个区组。",-1.5,0,-1.5,left,LLLLL.png,,,,,0,0,0,0,0,10,10,20,,,,,,,,,,,,,,,,,,,,,,,,,,,,,,,,,,,,,,,,,,,,,,,,,,,,,,,,,,,,,,,,155.33809150010347,155.73972840001807,155.72246960015036,155.8223192000296,156.2234314000234,None,left,1,0.44413889991119504,156.2234314000234,None,155.72246960015036,155.8223192000296,155.8223192000296,None,156.69035000004806,None,,,,,,,11026,001,2024_Jan_10_1017,ANT,2021.2.3,59.75896816516461,
1,10,center,up,C,R,,,,,,Block.xlsx,"你已经完成了第一个实验区组

请稍作休息


点击空格键进入下一个区组。",0,50,1.5,right,RRRRR.png,,,,,0,0,0,0,0,11,11,9,,,,,,,,,,,,,,,,,,,,,,,,,,,,,,,,,,,,,,,,,,,,,,,,,,,,,,,,,,,,,,,,157.09063250012696,157.4922496001236,157.4751874001231,157.57473280001432,157.97584790014662,None,right,1,0.4352068998850882,157.97584790014662,None,157.4751874001231,157.57473280001432,157.57473280001432,None,158.42661059997045,None,,,,,,,11026,001,2024_Jan_10_1017,ANT,2021.2.3,59.75896816516461,
1,6,no,down,C,R,,,,,,Block.xlsx,"你已经完成了第一个实验区组

请稍作休息


点击空格键进入下一个区组。",50,0,-1.5,right,RRRRR.png,,,,,0,0,0,0,0,12,12,5,,,,,,,,,,,,,,,,,,,,,,,,,,,,,,,,,,,,,,,,,,,,,,,,,,,,,,,,,,,,,,,,158.82664700015448,159.22902279999107,159.2111880001612,159.3125867000781,159.71183379995637,None,right,1,0.3952180000487715,159.71183379995637,None,159.2111880001612,159.3125867000781,159.3125867000781,None,160.12841779994778,None,,,,,,,11026,001,2024_Jan_10_1017,ANT,2021.2.3,59.75896816516461,
1,11,center,up,IC,L,,,,,,Block.xlsx,"你已经完成了第一个实验区组

请稍作休息


点击空格键进入下一个区组。",0,50,1.5,left,RRLRR.png,,,,,0,0,0,0,0,13,13,10,,,,,,,,,,,,,,,,,,,,,,,,,,,,,,,,,,,,,,,,,,,,,,,,,,,,,,,,,,,,,,,,160.5290413000621,160.93217430007644,160.9136729000602,161.01300120004453,161.41513670003042,None,right,0,0.38079510000534356,161.41513670003042,None,160.9136729000602,161.01300120004453,161.01300120004453,None,161.81437040003948,None,,,,,,,11026,001,2024_Jan_10_1017,ANT,2021.2.3,59.75896816516461,
1,8,no,down,IC,R,,,,,,Block.xlsx,"你已经完成了第一个实验区组

请稍作休息


点击空格键进入下一个区组。",50,0,-1.5,right,LLRLL.png,,,,,0,0,0,0,0,14,14,7,,,,,,,,,,,,,,,,,,,,,,,,,,,,,,,,,,,,,,,,,,,,,,,,,,,,,,,,,,,,,,,,162.21515830000862,162.6163445999846,162.59896320011467,162.6990923001431,163.10010140016675,None,right,1,0.5832527000457048,163.10010140016675,None,162.59896320011467,162.6990923001431,162.6990923001431,None,163.7003816999495,None,,,,,,,11026,001,2024_Jan_10_1017,ANT,2021.2.3,59.75896816516461,
1,23,spatial,down,IC,L,,,,,,Block.xlsx,"你已经完成了第一个实验区组

请稍作休息


点击空格键进入下一个区组。",-1.5,0,-1.5,left,RRLRR.png,,,,,0,0,0,0,0,15,15,22,,,,,,,,,,,,,,,,,,,,,,,,,,,,,,,,,,,,,,,,,,,,,,,,,,,,,,,,,,,,,,,,164.10187650006264,164.5023080999963,164.4856855000835,164.58584369998425,164.98637810000218,None,left,1,0.45666499994695187,164.98637810000218,None,164.4856855000835,164.58584369998425,164.58584369998425,None,165.47148389997892,None,,,,,,,11026,001,2024_Jan_10_1017,ANT,2021.2.3,59.75896816516461,
1,16,center,down,IC,R,,,,,,Block.xlsx,"你已经完成了第一个实验区组

请稍作休息


点击空格键进入下一个区组。",0,50,-1.5,right,LLRLL.png,,,,,0,0,0,0,0,16,16,15,,,,,,,,,,,,,,,,,,,,,,,,,,,,,,,,,,,,,,,,,,,,,,,,,,,,,,,,,,,,,,,,165.88744070008397,166.28824530006386,166.271758900024,166.37220960017294,166.77258910005912,None,right,1,0.6628133999183774,166.77258910005912,None,166.271758900024,166.37220960017294,166.37220960017294,None,167.45575130009092,None,,,,,,,11026,001,2024_Jan_10_1017,ANT,2021.2.3,59.75896816516461,
1,16,center,down,IC,R,,,,,,Block.xlsx,"你已经完成了第一个实验区组

请稍作休息


点击空格键进入下一个区组。",0,50,-1.5,right,LLRLL.png,,,,,0,0,0,0,0,17,17,15,,,,,,,,,,,,,,,,,,,,,,,,,,,,,,,,,,,,,,,,,,,,,,,,,,,,,,,,,,,,,,,,167.8571140000131,168.25785970012657,168.24239390017465,168.34104200010188,168.742004300002,None,right,1,0.5893912999890745,168.742004300002,None,168.24239390017465,168.34104200010188,168.34104200010188,None,169.3590762000531,None,,,,,,,11026,001,2024_Jan_10_1017,ANT,2021.2.3,59.75896816516461,
1,3,no,up,IC,L,,,,,,Block.xlsx,"你已经完成了第一个实验区组

请稍作休息


点击空格键进入下一个区组。",50,0,1.5,left,RRLRR.png,,,,,0,0,0,0,0,18,18,2,,,,,,,,,,,,,,,,,,,,,,,,,,,,,,,,,,,,,,,,,,,,,,,,,,,,,,,,,,,,,,,,169.759326600004,170.1623226001393,170.14343799999915,170.243797800038,170.64513220009394,None,left,1,0.6139523999299854,170.64513220009394,None,170.14343799999915,170.243797800038,170.243797800038,None,171.27828560001217,None,,,,,,,11026,001,2024_Jan_10_1017,ANT,2021.2.3,59.75896816516461,
1,14,center,down,C,R,,,,,,Block.xlsx,"你已经完成了第一个实验区组

请稍作休息


点击空格键进入下一个区组。",0,50,-1.5,right,RRRRR.png,,,,,0,0,0,0,0,19,19,13,,,,,,,,,,,,,,,,,,,,,,,,,,,,,,,,,,,,,,,,,,,,,,,,,,,,,,,,,,,,,,,,171.67934529995546,172.08126500016078,172.062817200087,172.1638392000459,172.56394720007665,None,right,1,0.5671709000598639,172.56394720007665,None,172.062817200087,172.1638392000459,172.1638392000459,None,173.14762990013696,None,,,,,,,11026,001,2024_Jan_10_1017,ANT,2021.2.3,59.75896816516461,
1,20,spatial,up,IC,R,,,,,,Block.xlsx,"你已经完成了第一个实验区组

请稍作休息


点击空格键进入下一个区组。",1.5,0,1.5,right,LLRLL.png,,,,,0,0,0,0,0,20,20,19,,,,,,,,,,,,,,,,,,,,,,,,,,,,,,,,,,,,,,,,,,,,,,,,,,,,,,,,,,,,,,,,173.5485635001678,173.94971100008115,173.93295170017518,174.03307660017163,174.43500780011527,None,right,1,0.48806299990974367,174.43500780011527,None,173.93295170017518,174.03307660017163,174.03307660017163,None,174.9507569000125,None,,,,,,,11026,001,2024_Jan_10_1017,ANT,2021.2.3,59.75896816516461,
1,14,center,down,C,R,,,,,,Block.xlsx,"你已经完成了第一个实验区组

请稍作休息


点击空格键进入下一个区组。",0,50,-1.5,right,RRRRR.png,,,,,0,0,0,0,0,21,21,13,,,,,,,,,,,,,,,,,,,,,,,,,,,,,,,,,,,,,,,,,,,,,,,,,,,,,,,,,,,,,,,,175.35086910007522,175.75154040008783,175.7357866000384,175.83580530015752,176.23653390002437,None,right,1,0.43041579984128475,176.23653390002437,None,175.7357866000384,175.83580530015752,175.83580530015752,None,176.68642839998938,None,,,,,,,11026,001,2024_Jan_10_1017,ANT,2021.2.3,59.75896816516461,
1,15,center,down,IC,L,,,,,,Block.xlsx,"你已经完成了第一个实验区组

请稍作休息


点击空格键进入下一个区组。",0,50,-1.5,left,RRLRR.png,,,,,0,0,0,0,0,22,22,14,,,,,,,,,,,,,,,,,,,,,,,,,,,,,,,,,,,,,,,,,,,,,,,,,,,,,,,,,,,,,,,,177.08689850009978,177.4876945000142,177.47082379995845,177.5725645001512,177.97214950015768,None,left,1,0.6069940000306815,177.97214950015768,None,177.47082379995845,177.5725645001512,177.5725645001512,None,178.6059451000765,None,,,,,,,11026,001,2024_Jan_10_1017,ANT,2021.2.3,59.75896816516461,
1,4,no,up,IC,R,,,,,,Block.xlsx,"你已经完成了第一个实验区组

请稍作休息


点击空格键进入下一个区组。",50,0,1.5,right,LLRLL.png,,,,,0,0,0,0,0,23,23,3,,,,,,,,,,,,,,,,,,,,,,,,,,,,,,,,,,,,,,,,,,,,,,,,,,,,,,,,,,,,,,,,179.00638519995846,179.40809250017628,179.39037110004574,179.49195419996977,179.89343550009653,None,right,1,0.7661435001064092,179.89343550009653,None,179.39037110004574,179.49195419996977,179.49195419996977,None,180.67541550006717,None,,,,,,,11026,001,2024_Jan_10_1017,ANT,2021.2.3,59.75896816516461,
1,2,no,up,C,R,,,,,,Block.xlsx,"你已经完成了第一个实验区组

请稍作休息


点击空格键进入下一个区组。",50,0,1.5,right,RRRRR.png,,,,,0,0,0,0,1,0,24,1,,,,,,,,,,,,,,,,,,,,,,,,,,,,,,,,,,,,,,,,,,,,,,,,,,,,,,,,,,,,,,,,181.07605869998224,181.47689520008862,181.46017840015702,181.56134290015325,181.96145169995725,None,right,1,0.5137646999210119,181.96145169995725,None,181.46017840015702,181.56134290015325,181.56134290015325,None,182.4948666000273,None,,,,,,,11026,001,2024_Jan_10_1017,ANT,2021.2.3,59.75896816516461,
1,13,center,down,C,L,,,,,,Block.xlsx,"你已经完成了第一个实验区组

请稍作休息


点击空格键进入下一个区组。",0,50,-1.5,left,LLLLL.png,,,,,0,0,0,0,1,1,25,12,,,,,,,,,,,,,,,,,,,,,,,,,,,,,,,,,,,,,,,,,,,,,,,,,,,,,,,,,,,,,,,,182.89562760014087,183.2967155999504,183.28080280008726,183.39656840008684,183.78122280002572,None,left,1,0.4382323999889195,183.78122280002572,None,183.28080280008726,183.39656840008684,183.38052730006166,None,184.24752179998904,None,,,,,,,11026,001,2024_Jan_10_1017,ANT,2021.2.3,59.75896816516461,
1,24,spatial,down,IC,R,,,,,,Block.xlsx,"你已经完成了第一个实验区组

请稍作休息


点击空格键进入下一个区组。",-1.5,0,-1.5,right,LLRLL.png,,,,,0,0,0,0,1,2,26,23,,,,,,,,,,,,,,,,,,,,,,,,,,,,,,,,,,,,,,,,,,,,,,,,,,,,,,,,,,,,,,,,184.6487614000216,185.04995659994893,185.03376550017856,185.13242419995368,185.533413000172,None,right,1,0.7017021998763084,185.533413000172,None,185.03376550017856,185.13242419995368,185.13242419995368,None,186.26728390017524,None,,,,,,,11026,001,2024_Jan_10_1017,ANT,2021.2.3,59.75896816516461,
1,22,spatial,down,C,R,,,,,,Block.xlsx,"你已经完成了第一个实验区组

请稍作休息


点击空格键进入下一个区组。",-1.5,0,-1.5,right,RRRRR.png,,,,,0,0,0,0,1,3,27,21,,,,,,,,,,,,,,,,,,,,,,,,,,,,,,,,,,,,,,,,,,,,,,,,,,,,,,,,,,,,,,,,186.66873409994878,187.0699698999524,187.0520193001721,187.15345089999028,187.55422869999893,None,right,1,0.3689860000740737,187.55422869999893,None,187.0520193001721,187.15345089999028,187.15345089999028,None,187.9531245001126,None,,,,,,,11026,001,2024_Jan_10_1017,ANT,2021.2.3,59.75896816516461,
1,3,no,up,IC,L,,,,,,Block.xlsx,"你已经完成了第一个实验区组

请稍作休息


点击空格键进入下一个区组。",50,0,1.5,left,RRLRR.png,,,,,0,0,0,0,1,4,28,2,,,,,,,,,,,,,,,,,,,,,,,,,,,,,,,,,,,,,,,,,,,,,,,,,,,,,,,,,,,,,,,,188.3541661000345,188.75573200010695,188.73738900013268,188.8383227000013,189.23907250002958,None,left,1,0.6284016000572592,189.23907250002958,None,188.73738900013268,188.8383227000013,188.8383227000013,None,189.88931460003369,None,,,,,,,11026,001,2024_Jan_10_1017,ANT,2021.2.3,59.75896816516461,
1,4,no,up,IC,R,,,,,,Block.xlsx,"你已经完成了第一个实验区组

请稍作休息


点击空格键进入下一个区组。",50,0,1.5,right,LLRLL.png,,,,,0,0,0,0,1,5,29,3,,,,,,,,,,,,,,,,,,,,,,,,,,,,,,,,,,,,,,,,,,,,,,,,,,,,,,,,,,,,,,,,190.28988749999553,190.69045370002277,190.6742504001595,190.77390280016698,191.17446460016072,None,right,1,0.4850323998834938,191.17446460016072,None,190.6742504001595,190.77390280016698,190.77390280016698,None,191.6752047999762,None,,,,,,,11026,001,2024_Jan_10_1017,ANT,2021.2.3,59.75896816516461,
1,11,center,up,IC,L,,,,,,Block.xlsx,"你已经完成了第一个实验区组

请稍作休息


点击空格键进入下一个区组。",0,50,1.5,left,RRLRR.png,,,,,0,0,0,0,1,6,30,10,,,,,,,,,,,,,,,,,,,,,,,,,,,,,,,,,,,,,,,,,,,,,,,,,,,,,,,,,,,,,,,,192.0756997000426,192.47726790001616,192.4597541000694,192.5618923001457,192.96132710017264,None,left,1,0.3701716000214219,192.96132710017264,None,192.4597541000694,192.5618923001457,192.5618923001457,None,193.36118130013347,None,,,,,,,11026,001,2024_Jan_10_1017,ANT,2021.2.3,59.75896816516461,
1,20,spatial,up,IC,R,,,,,,Block.xlsx,"你已经完成了第一个实验区组

请稍作休息


点击空格键进入下一个区组。",1.5,0,1.5,right,LLRLL.png,,,,,0,0,0,0,1,7,31,19,,,,,,,,,,,,,,,,,,,,,,,,,,,,,,,,,,,,,,,,,,,,,,,,,,,,,,,,,,,,,,,,193.7619078999851,194.16283960011788,194.14689039997756,194.24620490008965,194.64670270006172,None,right,1,0.41347550018690526,194.64670270006172,None,194.14689039997756,194.24620490008965,194.24620490008965,None,195.0803333001677,None,,,,,,,11026,001,2024_Jan_10_1017,ANT,2021.2.3,59.75896816516461,
1,7,no,down,IC,L,,,,,,Block.xlsx,"你已经完成了第一个实验区组

请稍作休息


点击空格键进入下一个区组。",50,0,-1.5,left,RRLRR.png,,,,,0,0,0,0,1,8,32,6,,,,,,,,,,,,,,,,,,,,,,,,,,,,,,,,,,,,,,,,,,,,,,,,,,,,,,,,,,,,,,,,195.48149779997766,195.882950700121,195.8647315001581,195.96742590004578,196.3662137000356,None,left,1,0.49298059986904263,196.3662137000356,None,195.8647315001581,195.96742590004578,195.96742590004578,None,196.88417230010964,None,,,,,,,11026,001,2024_Jan_10_1017,ANT,2021.2.3,59.75896816516461,
1,2,no,up,C,R,,,,,,Block.xlsx,"你已经完成了第一个实验区组

请稍作休息


点击空格键进入下一个区组。",50,0,1.5,right,RRRRR.png,,,,,0,0,0,0,1,9,33,1,,,,,,,,,,,,,,,,,,,,,,,,,,,,,,,,,,,,,,,,,,,,,,,,,,,,,,,,,,,,,,,,197.28366019995883,197.68421280011535,197.6678446000442,197.7684186999686,198.1681908001192,None,right,1,0.3474866000469774,198.1681908001192,None,197.6678446000442,197.7684186999686,197.7684186999686,None,198.5356078001205,None,,,,,,,11026,001,2024_Jan_10_1017,ANT,2021.2.3,59.75896816516461,
1,19,spatial,up,IC,L,,,,,,Block.xlsx,"你已经完成了第一个实验区组

请稍作休息


点击空格键进入下一个区组。",1.5,0,1.5,left,RRLRR.png,,,,,0,0,0,0,1,10,34,18,,,,,,,,,,,,,,,,,,,,,,,,,,,,,,,,,,,,,,,,,,,,,,,,,,,,,,,,,,,,,,,,198.93612350011244,199.33753810008056,199.31996820005588,199.4214000001084,199.82136930013075,None,left,1,0.39781640004366636,199.82136930013075,None,199.31996820005588,199.4214000001084,199.4214000001084,None,200.23837190004997,None,,,,,,,11026,001,2024_Jan_10_1017,ANT,2021.2.3,59.75896816516461,
1,5,no,down,C,L,,,,,,Block.xlsx,"你已经完成了第一个实验区组

请稍作休息


点击空格键进入下一个区组。",50,0,-1.5,left,LLLLL.png,,,,,0,0,0,0,1,11,35,4,,,,,,,,,,,,,,,,,,,,,,,,,,,,,,,,,,,,,,,,,,,,,,,,,,,,,,,,,,,,,,,,200.63861460005865,201.04087950009853,201.0226166001521,201.12359299999662,201.5242341000121,None,left,1,0.5831263000145555,201.5242341000121,None,201.0226166001521,201.12359299999662,201.12359299999662,None,202.12389650009573,None,,,,,,,11026,001,2024_Jan_10_1017,ANT,2021.2.3,59.75896816516461,
1,21,spatial,down,C,L,,,,,,Block.xlsx,"你已经完成了第一个实验区组

请稍作休息


点击空格键进入下一个区组。",-1.5,0,-1.5,left,LLLLL.png,,,,,0,0,0,0,1,12,36,20,,,,,,,,,,,,,,,,,,,,,,,,,,,,,,,,,,,,,,,,,,,,,,,,,,,,,,,,,,,,,,,,202.5248869000934,202.92592129996046,202.90958570013754,203.00874070008285,203.40975080011413,None,left,1,0.40170999988913536,203.40975080011413,None,202.90958570013754,203.00874070008285,203.00874070008285,None,203.826591799967,None,,,,,,,11026,001,2024_Jan_10_1017,ANT,2021.2.3,59.75896816516461,
1,12,center,up,IC,R,,,,,,Block.xlsx,"你已经完成了第一个实验区组

请稍作休息


点击空格键进入下一个区组。",0,50,1.5,right,LLRLL.png,,,,,0,0,0,0,1,13,37,11,,,,,,,,,,,,,,,,,,,,,,,,,,,,,,,,,,,,,,,,,,,,,,,,,,,,,,,,,,,,,,,,204.22721950011328,204.62959569995292,204.61113400012255,204.7131240000017,205.11245480016805,None,right,1,0.48336669988930225,205.11245480016805,None,204.61113400012255,204.7131240000017,204.7131240000017,None,205.61275670002215,None,,,,,,,11026,001,2024_Jan_10_1017,ANT,2021.2.3,59.75896816516461,
1,5,no,down,C,L,,,,,,Block.xlsx,"你已经完成了第一个实验区组

请稍作休息


点击空格键进入下一个区组。",50,0,-1.5,left,LLLLL.png,,,,,0,0,0,0,1,14,38,4,,,,,,,,,,,,,,,,,,,,,,,,,,,,,,,,,,,,,,,,,,,,,,,,,,,,,,,,,,,,,,,,206.01328680012375,206.41563339997083,206.39759630011395,206.49819660000503,206.89874530001543,None,left,1,0.3923992000054568,206.89874530001543,None,206.39759630011395,206.49819660000503,206.49819660000503,None,207.31545560015365,None,,,,,,,11026,001,2024_Jan_10_1017,ANT,2021.2.3,59.75896816516461,
1,17,spatial,up,C,L,,,,,,Block.xlsx,"你已经完成了第一个实验区组

请稍作休息


点击空格键进入下一个区组。",1.5,0,1.5,left,LLLLL.png,,,,,0,0,0,0,1,15,39,16,,,,,,,,,,,,,,,,,,,,,,,,,,,,,,,,,,,,,,,,,,,,,,,,,,,,,,,,,,,,,,,,207.71572990017012,208.11661970010027,208.10099530010484,208.21738269994967,208.60066670016386,None,left,1,0.4353008000180125,208.60066670016386,None,208.10099530010484,208.21738269994967,208.20126210013404,None,209.05111250001937,None,,,,,,,11026,001,2024_Jan_10_1017,ANT,2021.2.3,59.75896816516461,
1,12,center,up,IC,R,,,,,,Block.xlsx,"你已经完成了第一个实验区组

请稍作休息


点击空格键进入下一个区组。",0,50,1.5,right,LLRLL.png,,,,,0,0,0,0,1,16,40,11,,,,,,,,,,,,,,,,,,,,,,,,,,,,,,,,,,,,,,,,,,,,,,,,,,,,,,,,,,,,,,,,209.45231440011412,209.85380090004764,209.8356717999559,209.9364330000244,210.33674470009282,None,right,1,0.44238139991648495,210.33674470009282,None,209.8356717999559,209.9364330000244,209.9364330000244,None,210.80368560017087,None,,,,,,,11026,001,2024_Jan_10_1017,ANT,2021.2.3,59.75896816516461,
1,13,center,down,C,L,,,,,,Block.xlsx,"你已经完成了第一个实验区组

请稍作休息


点击空格键进入下一个区组。",0,50,-1.5,left,LLLLL.png,,,,,0,0,0,0,1,17,41,12,,,,,,,,,,,,,,,,,,,,,,,,,,,,,,,,,,,,,,,,,,,,,,,,,,,,,,,,,,,,,,,,211.2041293999646,211.60501409997232,211.58812210010365,211.6881528000813,212.0888372999616,None,left,1,0.5708731999620795,212.0888372999616,None,211.58812210010365,211.6881528000813,211.6881528000813,None,212.69005560013466,None,,,,,,,11026,001,2024_Jan_10_1017,ANT,2021.2.3,59.75896816516461,
1,4,no,up,IC,R,,,,,,Block.xlsx,"你已经完成了第一个实验区组

请稍作休息


点击空格键进入下一个区组。",50,0,1.5,right,LLRLL.png,,,,,0,0,0,0,1,18,42,3,,,,,,,,,,,,,,,,,,,,,,,,,,,,,,,,,,,,,,,,,,,,,,,,,,,,,,,,,,,,,,,,213.09033940010704,213.49216310004704,213.47454820014536,213.5750097001437,213.97503260010853,None,right,1,0.3485699000302702,213.97503260010853,None,213.47454820014536,213.5750097001437,213.5750097001437,None,214.34214320010506,None,,,,,,,11026,001,2024_Jan_10_1017,ANT,2021.2.3,59.75896816516461,
1,15,center,down,IC,L,,,,,,Block.xlsx,"你已经完成了第一个实验区组

请稍作休息


点击空格键进入下一个区组。",0,50,-1.5,left,RRLRR.png,,,,,0,0,0,0,1,19,43,14,,,,,,,,,,,,,,,,,,,,,,,,,,,,,,,,,,,,,,,,,,,,,,,,,,,,,,,,,,,,,,,,214.74266240000725,215.14442660007626,215.1274415999651,215.22782750008628,215.62856250000186,None,left,1,0.40657579991966486,215.62856250000186,None,215.1274415999651,215.22782750008628,215.22782750008628,None,216.0611754001584,None,,,,,,,11026,001,2024_Jan_10_1017,ANT,2021.2.3,59.75896816516461,
1,2,no,up,C,R,,,,,,Block.xlsx,"你已经完成了第一个实验区组

请稍作休息


点击空格键进入下一个区组。",50,0,1.5,right,RRRRR.png,,,,,0,0,0,0,1,20,44,1,,,,,,,,,,,,,,,,,,,,,,,,,,,,,,,,,,,,,,,,,,,,,,,,,,,,,,,,,,,,,,,,216.46181430015713,216.8630502000451,216.84571390016936,216.94723080005497,217.34752100007609,None,right,1,0.3118135998956859,217.34752100007609,None,216.84571390016936,216.94723080005497,216.94723080005497,None,217.6805064000655,None,,,,,,,11026,001,2024_Jan_10_1017,ANT,2021.2.3,59.75896816516461,
1,23,spatial,down,IC,L,,,,,,Block.xlsx,"你已经完成了第一个实验区组

请稍作休息


点击空格键进入下一个区组。",-1.5,0,-1.5,left,RRLRR.png,,,,,0,0,0,0,1,21,45,22,,,,,,,,,,,,,,,,,,,,,,,,,,,,,,,,,,,,,,,,,,,,,,,,,,,,,,,,,,,,,,,,218.0813460999634,218.4830167000182,218.4651773001533,218.56579970009625,218.96646580006927,None,left,1,0.4049740000627935,218.96646580006927,None,218.4651773001533,218.56579970009625,218.56579970009625,None,219.39954450004734,None,,,,,,,11026,001,2024_Jan_10_1017,ANT,2021.2.3,59.75896816516461,
1,13,center,down,C,L,,,,,,Block.xlsx,"你已经完成了第一个实验区组

请稍作休息


点击空格键进入下一个区组。",0,50,-1.5,left,LLLLL.png,,,,,0,0,0,0,1,22,46,12,,,,,,,,,,,,,,,,,,,,,,,,,,,,,,,,,,,,,,,,,,,,,,,,,,,,,,,,,,,,,,,,219.80038759997115,220.20157720008865,220.18454110017046,220.28506510006264,220.6864849999547,None,left,1,0.3568448999430984,220.6864849999547,None,220.18454110017046,220.28506510006264,220.28506510006264,None,221.06885430007242,None,,,,,,,11026,001,2024_Jan_10_1017,ANT,2021.2.3,59.75896816516461,
1,20,spatial,up,IC,R,,,,,,Block.xlsx,"你已经完成了第一个实验区组

请稍作休息


点击空格键进入下一个区组。",1.5,0,1.5,right,LLRLL.png,,,,,0,0,0,0,1,23,47,19,,,,,,,,,,,,,,,,,,,,,,,,,,,,,,,,,,,,,,,,,,,,,,,,,,,,,,,,,,,,,,,,221.4696445001755,221.8700798000209,221.85340559994802,221.9545537000522,222.35449100006372,None,right,1,0.2807404000777751,222.35449100006372,None,221.85340559994802,221.9545537000522,221.9545537000522,None,222.65483020013198,None,,,,,,,11026,001,2024_Jan_10_1017,ANT,2021.2.3,59.75896816516461,
1,23,spatial,down,IC,L,,,,,,Block.xlsx,"你已经完成了第一个实验区组

请稍作休息


点击空格键进入下一个区组。",-1.5,0,-1.5,left,RRLRR.png,,,,,0,0,0,0,2,0,48,22,,,,,,,,,,,,,,,,,,,,,,,,,,,,,,,,,,,,,,,,,,,,,,,,,,,,,,,,,,,,,,,,223.05492949998006,223.4563768999651,223.44012419995852,223.53913719998673,223.94182970002294,None,left,1,0.42157249990850687,223.94182970002294,None,223.44012419995852,223.53913719998673,223.53913719998673,None,224.39042389998212,None,,,,,,,11026,001,2024_Jan_10_1017,ANT,2021.2.3,59.75896816516461,
1,5,no,down,C,L,,,,,,Block.xlsx,"你已经完成了第一个实验区组

请稍作休息


点击空格键进入下一个区组。",50,0,-1.5,left,LLLLL.png,,,,,0,0,0,0,2,1,49,4,,,,,,,,,,,,,,,,,,,,,,,,,,,,,,,,,,,,,,,,,,,,,,,,,,,,,,,,,,,,,,,,224.79096970008686,225.19237870001234,225.17494289996102,225.2749415000435,225.67575259995647,None,left,1,0.47968180011957884,225.67575259995647,None,225.17494289996102,225.2749415000435,225.2749415000435,None,226.1764033001382,None,,,,,,,11026,001,2024_Jan_10_1017,ANT,2021.2.3,59.75896816516461,
1,6,no,down,C,R,,,,,,Block.xlsx,"你已经完成了第一个实验区组

请稍作休息


点击空格键进入下一个区组。",50,0,-1.5,right,RRRRR.png,,,,,0,0,0,0,2,2,50,5,,,,,,,,,,,,,,,,,,,,,,,,,,,,,,,,,,,,,,,,,,,,,,,,,,,,,,,,,,,,,,,,226.57781030004844,226.9778510001488,226.9632376001682,227.07860620017163,227.46245510014705,None,right,1,0.4848284001927823,227.46245510014705,None,226.9632376001682,227.07860620017163,227.06185250007547,None,227.9623114001006,None,,,,,,,11026,001,2024_Jan_10_1017,ANT,2021.2.3,59.75896816516461,
1,10,center,up,C,R,,,,,,Block.xlsx,"你已经完成了第一个实验区组

请稍作休息


点击空格键进入下一个区组。",0,50,1.5,right,RRRRR.png,,,,,0,0,0,0,2,3,51,9,,,,,,,,,,,,,,,,,,,,,,,,,,,,,,,,,,,,,,,,,,,,,,,,,,,,,,,,,,,,,,,,228.3639241999481,228.7661223001778,228.74796109995805,228.84794480004348,229.24747289996594,None,right,1,0.45199870015494525,229.24747289996594,None,228.74796109995805,228.84794480004348,228.84794480004348,None,229.71507360017858,None,,,,,,,11026,001,2024_Jan_10_1017,ANT,2021.2.3,59.75896816516461,
1,17,spatial,up,C,L,,,,,,Block.xlsx,"你已经完成了第一个实验区组

请稍作休息


点击空格键进入下一个区组。",1.5,0,1.5,left,LLLLL.png,,,,,0,0,0,0,2,4,52,16,,,,,,,,,,,,,,,,,,,,,,,,,,,,,,,,,,,,,,,,,,,,,,,,,,,,,,,,,,,,,,,,230.1156947000418,230.51775240013376,230.5000092999544,230.5996547001414,231.0008644000627,None,left,1,0.26677019987255335,231.0008644000627,None,230.5000092999544,230.5996547001414,230.5996547001414,None,231.28374009998515,None,,,,,,,11026,001,2024_Jan_10_1017,ANT,2021.2.3,59.75896816516461,
1,9,center,up,C,L,,,,,,Block.xlsx,"你已经完成了第一个实验区组

请稍作休息


点击空格键进入下一个区组。",0,50,1.5,left,LLLLL.png,,,,,0,0,0,0,2,5,53,8,,,,,,,,,,,,,,,,,,,,,,,,,,,,,,,,,,,,,,,,,,,,,,,,,,,,,,,,,,,,,,,,231.6847459001001,232.08551899995655,232.06950540002435,232.16950360010378,232.57086870004423,None,left,1,0.33683139993809164,232.57086870004423,None,232.06950540002435,232.16950360010378,232.16950360010378,None,232.93627870013006,None,,,,,,,11026,001,2024_Jan_10_1017,ANT,2021.2.3,59.75896816516461,
1,17,spatial,up,C,L,,,,,,Block.xlsx,"你已经完成了第一个实验区组

请稍作休息


点击空格键进入下一个区组。",1.5,0,1.5,left,LLLLL.png,,,,,0,0,0,0,2,6,54,16,,,,,,,,,,,,,,,,,,,,,,,,,,,,,,,,,,,,,,,,,,,,,,,,,,,,,,,,,,,,,,,,233.33678360003978,233.73836750001647,233.722588500008,233.83871640008874,234.2223885001149,None,left,1,0.28489729994907975,234.2223885001149,None,233.722588500008,233.83871640008874,233.82111090002581,None,234.53879870008677,None,,,,,,,11026,001,2024_Jan_10_1017,ANT,2021.2.3,59.75896816516461,
1,16,center,down,IC,R,,,,,,Block.xlsx,"你已经完成了第一个实验区组

请稍作休息


点击空格键进入下一个区组。",0,50,-1.5,right,LLRLL.png,,,,,0,0,0,0,2,7,55,15,,,,,,,,,,,,,,,,,,,,,,,,,,,,,,,,,,,,,,,,,,,,,,,,,,,,,,,,,,,,,,,,234.94098820001818,235.3399118001107,235.32350850012153,235.42572619998828,235.82482760003768,None,right,1,0.6424477000255138,235.82482760003768,None,235.32350850012153,235.42572619998828,235.42572619998828,None,236.49163260008208,None,,,,,,,11026,001,2024_Jan_10_1017,ANT,2021.2.3,59.75896816516461,
1,24,spatial,down,IC,R,,,,,,Block.xlsx,"你已经完成了第一个实验区组

请稍作休息


点击空格键进入下一个区组。",-1.5,0,-1.5,right,LLRLL.png,,,,,0,0,0,0,2,8,56,23,,,,,,,,,,,,,,,,,,,,,,,,,,,,,,,,,,,,,,,,,,,,,,,,,,,,,,,,,,,,,,,,236.89235640014522,237.29431330016814,237.27635170007125,237.37749590002932,237.7769552001264,None,right,1,0.434724299935624,237.7769552001264,None,237.27635170007125,237.37749590002932,237.37749590002932,None,238.22756980010308,None,,,,,,,11026,001,2024_Jan_10_1017,ANT,2021.2.3,59.75896816516461,
1,18,spatial,up,C,R,,,,,,Block.xlsx,"你已经完成了第一个实验区组

请稍作休息


点击空格键进入下一个区组。",1.5,0,1.5,right,RRRRR.png,,,,,0,0,0,0,2,9,57,17,,,,,,,,,,,,,,,,,,,,,,,,,,,,,,,,,,,,,,,,,,,,,,,,,,,,,,,,,,,,,,,,238.62797060003504,239.0287958001718,239.01260370016098,239.11292070010677,239.51310850004666,None,right,1,0.4661018999759108,239.51310850004666,None,239.01260370016098,239.11292070010677,239.11292070010677,None,239.99722300004214,None,,,,,,,11026,001,2024_Jan_10_1017,ANT,2021.2.3,59.75896816516461,
1,9,center,up,C,L,,,,,,Block.xlsx,"你已经完成了第一个实验区组

请稍作休息


点击空格键进入下一个区组。",0,50,1.5,left,LLLLL.png,,,,,0,0,0,0,2,10,58,8,,,,,,,,,,,,,,,,,,,,,,,,,,,,,,,,,,,,,,,,,,,,,,,,,,,,,,,,,,,,,,,,240.3976655001752,240.79886290011927,240.78167080017738,240.88211010000668,241.2820113999769,None,left,1,0.3616987999994308,241.2820113999769,None,240.78167080017738,240.88211010000668,240.88211010000668,None,241.66608330002055,None,,,,,,,11026,001,2024_Jan_10_1017,ANT,2021.2.3,59.75896816516461,
1,6,no,down,C,R,,,,,,Block.xlsx,"你已经完成了第一个实验区组

请稍作休息


点击空格键进入下一个区组。",50,0,-1.5,right,RRRRR.png,,,,,0,0,0,0,2,11,59,5,,,,,,,,,,,,,,,,,,,,,,,,,,,,,,,,,,,,,,,,,,,,,,,,,,,,,,,,,,,,,,,,242.06668419996276,242.46740399999544,242.45266119996086,242.56802220013924,242.95201370003633,None,right,1,0.3071528000291437,242.95201370003633,None,242.45266119996086,242.56802220013924,242.55059700016864,None,243.28540370007977,None,,,,,,,11026,001,2024_Jan_10_1017,ANT,2021.2.3,59.75896816516461,
1,10,center,up,C,R,,,,,,Block.xlsx,"你已经完成了第一个实验区组

请稍作休息


点击空格键进入下一个区组。",0,50,1.5,right,RRRRR.png,,,,,0,0,0,0,2,12,60,9,,,,,,,,,,,,,,,,,,,,,,,,,,,,,,,,,,,,,,,,,,,,,,,,,,,,,,,,,,,,,,,,243.68599879997782,244.08643440017477,244.0709164000582,244.1712454999797,244.5711354999803,None,right,1,0.3680003001354635,244.5711354999803,None,244.0709164000582,244.1712454999797,244.1712454999797,None,244.9541889000684,None,,,,,,,11026,001,2024_Jan_10_1017,ANT,2021.2.3,59.75896816516461,
1,22,spatial,down,C,R,,,,,,Block.xlsx,"你已经完成了第一个实验区组

请稍作休息


点击空格键进入下一个区组。",-1.5,0,-1.5,right,RRRRR.png,,,,,0,0,0,0,2,13,61,21,,,,,,,,,,,,,,,,,,,,,,,,,,,,,,,,,,,,,,,,,,,,,,,,,,,,,,,,,,,,,,,,245.3547459000256,245.75599239999428,245.7394678001292,245.839645100059,246.23964869999327,None,right,1,0.36401300015859306,246.23964869999327,None,245.7394678001292,245.839645100059,245.839645100059,None,246.62330560013652,None,,,,,,,11026,001,2024_Jan_10_1017,ANT,2021.2.3,59.75896816516461,
1,18,spatial,up,C,R,,,,,,Block.xlsx,"你已经完成了第一个实验区组

请稍作休息


点击空格键进入下一个区组。",1.5,0,1.5,right,RRRRR.png,,,,,0,0,0,0,2,14,62,17,,,,,,,,,,,,,,,,,,,,,,,,,,,,,,,,,,,,,,,,,,,,,,,,,,,,,,,,,,,,,,,,247.02472710004076,247.42571240011603,247.40768970013596,247.509281600127,247.9086707001552,None,right,1,0.33502959995530546,247.9086707001552,None,247.40768970013596,247.509281600127,247.509281600127,None,248.25925970007665,None,,,,,,,11026,001,2024_Jan_10_1017,ANT,2021.2.3,59.75896816516461,
1,7,no,down,IC,L,,,,,,Block.xlsx,"你已经完成了第一个实验区组

请稍作休息


点击空格键进入下一个区组。",50,0,-1.5,left,RRLRR.png,,,,,0,0,0,0,2,15,63,6,,,,,,,,,,,,,,,,,,,,,,,,,,,,,,,,,,,,,,,,,,,,,,,,,,,,,,,,,,,,,,,,248.65973550011404,249.0612268000841,249.0436420000624,249.14487920003012,249.54433890013024,None,left,1,0.4428230000194162,249.54433890013024,None,249.0436420000624,249.14487920003012,249.14487920003012,None,250.01148080010898,None,,,,,,,11026,001,2024_Jan_10_1017,ANT,2021.2.3,59.75896816516461,
1,24,spatial,down,IC,R,,,,,,Block.xlsx,"你已经完成了第一个实验区组

请稍作休息


点击空格键进入下一个区组。",-1.5,0,-1.5,right,LLRLL.png,,,,,0,0,0,0,2,16,64,23,,,,,,,,,,,,,,,,,,,,,,,,,,,,,,,,,,,,,,,,,,,,,,,,,,,,,,,,,,,,,,,,250.41246010013856,250.81300950003788,250.79660330014303,250.89755979995243,251.29809579998255,None,right,1,0.4170417001005262,251.29809579998255,None,250.79660330014303,250.89755979995243,250.89755979995243,None,251.73086040001363,None,,,,,,,11026,001,2024_Jan_10_1017,ANT,2021.2.3,59.75896816516461,
1,21,spatial,down,C,L,,,,,,Block.xlsx,"你已经完成了第一个实验区组

请稍作休息


点击空格键进入下一个区组。",-1.5,0,-1.5,left,LLLLL.png,,,,,0,0,0,0,2,17,65,20,,,,,,,,,,,,,,,,,,,,,,,,,,,,,,,,,,,,,,,,,,,,,,,,,,,,,,,,,,,,,,,,252.13155140005983,252.53300549997948,252.51608150009997,252.6159511001315,253.01727410010062,None,left,1,0.39395150006748736,253.01727410010062,None,252.51608150009997,252.6159511001315,252.6159511001315,None,253.43345230002888,None,,,,,,,11026,001,2024_Jan_10_1017,ANT,2021.2.3,59.75896816516461,
1,7,no,down,IC,L,,,,,,Block.xlsx,"你已经完成了第一个实验区组

请稍作休息


点击空格键进入下一个区组。",50,0,-1.5,left,RRLRR.png,,,,,0,0,0,0,2,18,66,6,,,,,,,,,,,,,,,,,,,,,,,,,,,,,,,,,,,,,,,,,,,,,,,,,,,,,,,,,,,,,,,,253.83405459998176,254.23592580016702,254.21781709999777,254.3192078000866,254.71959730004892,None,left,1,0.5320327000226825,254.71959730004892,None,254.21781709999777,254.3192078000866,254.3192078000866,None,255.27008150005713,None,,,,,,,11026,001,2024_Jan_10_1017,ANT,2021.2.3,59.75896816516461,
1,12,center,up,IC,R,,,,,,Block.xlsx,"你已经完成了第一个实验区组

请稍作休息


点击空格键进入下一个区组。",0,50,1.5,right,LLRLL.png,,,,,0,0,0,0,2,19,67,11,,,,,,,,,,,,,,,,,,,,,,,,,,,,,,,,,,,,,,,,,,,,,,,,,,,,,,,,,,,,,,,,255.67039740015753,256.072485400131,256.05399450007826,256.1548530999571,256.5554541000165,None,right,1,0.5197469999548048,256.5554541000165,None,256.05399450007826,256.1548530999571,256.1548530999571,None,257.10563879995607,None,,,,,,,11026,001,2024_Jan_10_1017,ANT,2021.2.3,59.75896816516461,
1,18,spatial,up,C,R,,,,,,Block.xlsx,"你已经完成了第一个实验区组

请稍作休息


点击空格键进入下一个区组。",1.5,0,1.5,right,RRRRR.png,,,,,0,0,0,0,2,20,68,17,,,,,,,,,,,,,,,,,,,,,,,,,,,,,,,,,,,,,,,,,,,,,,,,,,,,,,,,,,,,,,,,257.5059911001008,257.9073841001373,257.8900065999478,257.9912293001544,258.3916711001657,None,right,1,0.37173489993438125,258.3916711001657,None,257.8900065999478,257.9912293001544,257.9912293001544,None,258.79129850002937,None,,,,,,,11026,001,2024_Jan_10_1017,ANT,2021.2.3,59.75896816516461,
1,8,no,down,IC,R,,,,,,Block.xlsx,"你已经完成了第一个实验区组

请稍作休息


点击空格键进入下一个区组。",50,0,-1.5,right,LLRLL.png,,,,,0,0,0,0,2,21,69,7,,,,,,,,,,,,,,,,,,,,,,,,,,,,,,,,,,,,,,,,,,,,,,,,,,,,,,,,,,,,,,,,259.1922822999768,259.5938868999947,259.5762641001493,259.67636499996297,260.0765812001191,None,left,0,0.37474680016748607,260.0765812001191,None,259.5762641001493,259.67636499996297,259.67636499996297,None,260.4772626000922,None,,,,,,,11026,001,2024_Jan_10_1017,ANT,2021.2.3,59.75896816516461,
1,4,no,up,IC,R,,,,,,Block.xlsx,"你已经完成了第一个实验区组

请稍作休息


点击空格键进入下一个区组。",50,0,1.5,right,LLRLL.png,,,,,0,0,0,0,2,22,70,3,,,,,,,,,,,,,,,,,,,,,,,,,,,,,,,,,,,,,,,,,,,,,,,,,,,,,,,,,,,,,,,,260.8778506000526,261.27914570015855,261.26173400017433,261.3633612000849,261.7624184000306,None,right,1,0.6490080000367016,261.7624184000306,None,261.26173400017433,261.3633612000849,261.3633612000849,None,262.43017269996926,None,,,,,,,11026,001,2024_Jan_10_1017,ANT,2021.2.3,59.75896816516461,
1,10,center,up,C,R,,,,,,Block.xlsx,"你已经完成了第一个实验区组

请稍作休息


点击空格键进入下一个区组。",0,50,1.5,right,RRRRR.png,,,,,0,0,0,0,2,23,71,9,,,,,,,,,,,,,,,,,,,,,,,,,,,,,,,,,,,,,,,,,,,,,,,,,,,,,,,,,,,,,,,,262.83059470006265,263.2322118000593,263.2160055001732,263.3165631000884,263.71586430002935,None,right,1,0.41573720006272197,263.71586430002935,None,263.2160055001732,263.3165631000884,263.3165631000884,None,264.1495286000427,None,,,,,,,11026,001,2024_Jan_10_1017,ANT,2021.2.3,59.75896816516461,
1,5,no,down,C,L,,,,,,Block.xlsx,"你已经完成了第一个实验区组

请稍作休息


点击空格键进入下一个区组。",50,0,-1.5,left,LLLLL.png,,,,,0,0,0,0,3,0,72,4,,,,,,,,,,,,,,,,,,,,,,,,,,,,,,,,,,,,,,,,,,,,,,,,,,,,,,,,,,,,,,,,264.5498478000518,264.9509815000929,264.9357678000815,265.0524431001395,265.43594860006124,None,left,1,0.44851680006831884,265.43594860006124,None,264.9357678000815,265.0524431001395,265.03479079995304,None,265.9019133001566,None,,,,,,,11026,001,2024_Jan_10_1017,ANT,2021.2.3,59.75896816516461,
1,15,center,down,IC,L,,,,,,Block.xlsx,"你已经完成了第一个实验区组

请稍作休息


点击空格键进入下一个区组。",0,50,-1.5,left,RRLRR.png,,,,,0,0,0,0,3,1,73,14,,,,,,,,,,,,,,,,,,,,,,,,,,,,,,,,,,,,,,,,,,,,,,,,,,,,,,,,,,,,,,,,266.30256350012496,266.70293370005675,266.68749030004255,266.78787800017744,267.1869330999907,None,left,1,0.352138000074774,267.1869330999907,None,266.68749030004255,266.78787800017744,266.78787800017744,None,267.55489000002854,None,,,,,,,11026,001,2024_Jan_10_1017,ANT,2021.2.3,59.75896816516461,
1,19,spatial,up,IC,L,,,,,,Block.xlsx,"你已经完成了第一个实验区组

请稍作休息


点击空格键进入下一个区组。",1.5,0,1.5,left,RRLRR.png,,,,,0,0,0,0,3,2,74,18,,,,,,,,,,,,,,,,,,,,,,,,,,,,,,,,,,,,,,,,,,,,,,,,,,,,,,,,,,,,,,,,267.9551242000889,268.35543690016493,268.33956090011634,268.44058279995807,268.84074090002105,None,left,1,0.3787488001398742,268.84074090002105,None,268.33956090011634,268.44058279995807,268.44058279995807,None,269.2402541001793,None,,,,,,,11026,001,2024_Jan_10_1017,ANT,2021.2.3,59.75896816516461,
1,22,spatial,down,C,R,,,,,,Block.xlsx,"你已经完成了第一个实验区组

请稍作休息


点击空格键进入下一个区组。",-1.5,0,-1.5,right,RRRRR.png,,,,,0,0,0,0,3,3,75,21,,,,,,,,,,,,,,,,,,,,,,,,,,,,,,,,,,,,,,,,,,,,,,,,,,,,,,,,,,,,,,,,269.6407513001468,270.04153529996984,270.02493980014697,270.12576130009256,270.5254615000449,None,right,1,0.31829160009510815,270.5254615000449,None,270.02493980014697,270.12576130009256,270.12576130009256,None,270.8593468000181,None,,,,,,,11026,001,2024_Jan_10_1017,ANT,2021.2.3,59.75896816516461,
1,21,spatial,down,C,L,,,,,,Block.xlsx,"你已经完成了第一个实验区组

请稍作休息


点击空格键进入下一个区组。",-1.5,0,-1.5,left,LLLLL.png,,,,,0,0,0,0,3,4,76,20,,,,,,,,,,,,,,,,,,,,,,,,,,,,,,,,,,,,,,,,,,,,,,,,,,,,,,,,,,,,,,,,271.25992229999974,271.66074940003455,271.6453126000706,271.7612521999981,272.14559480012394,None,left,1,0.3940900999587029,272.14559480012394,None,271.6453126000706,271.7612521999981,271.745277200127,None,272.5616007000208,None,,,,,,,11026,001,2024_Jan_10_1017,ANT,2021.2.3,59.75896816516461,
1,11,center,up,IC,L,,,,,,Block.xlsx,"你已经完成了第一个实验区组

请稍作休息


点击空格键进入下一个区组。",0,50,1.5,left,RRLRR.png,,,,,0,0,0,0,3,5,77,10,,,,,,,,,,,,,,,,,,,,,,,,,,,,,,,,,,,,,,,,,,,,,,,,,,,,,,,,,,,,,,,,272.9623595001176,273.36290549999103,273.3472472000867,273.4470079999883,273.849168300163,None,left,1,0.47418959997594357,273.849168300163,None,273.3472472000867,273.4470079999883,273.4470079999883,None,274.34797390014865,None,,,,,,,11026,001,2024_Jan_10_1017,ANT,2021.2.3,59.75896816516461,
1,20,spatial,up,IC,R,,,,,,Block.xlsx,"你已经完成了第一个实验区组

请稍作休息


点击空格键进入下一个区组。",1.5,0,1.5,right,LLRLL.png,,,,,0,0,0,0,3,6,78,19,,,,,,,,,,,,,,,,,,,,,,,,,,,,,,,,,,,,,,,,,,,,,,,,,,,,,,,,,,,,,,,,274.7484777001664,275.1501384000294,275.1322182000149,275.23239040002227,275.6333165001124,None,right,1,0.5940131000243127,275.6333165001124,None,275.1322182000149,275.23239040002227,275.23239040002227,None,276.25053730001673,None,,,,,,,11026,001,2024_Jan_10_1017,ANT,2021.2.3,59.75896816516461,
1,8,no,down,IC,R,,,,,,Block.xlsx,"你已经完成了第一个实验区组

请稍作休息


点击空格键进入下一个区组。",50,0,-1.5,right,LLRLL.png,,,,,0,0,0,0,3,7,79,7,,,,,,,,,,,,,,,,,,,,,,,,,,,,,,,,,,,,,,,,,,,,,,,,,,,,,,,,,,,,,,,,276.6512227000203,277.05224450002424,277.0349845001474,277.13621210004203,277.5366825000383,None,right,1,0.594602599972859,277.5366825000383,None,277.0349845001474,277.13621210004203,277.13621210004203,None,278.1533355000429,None,,,,,,,11026,001,2024_Jan_10_1017,ANT,2021.2.3,59.75896816516461,
1,8,no,down,IC,R,,,,,,Block.xlsx,"你已经完成了第一个实验区组

请稍作休息


点击空格键进入下一个区组。",50,0,-1.5,right,LLRLL.png,,,,,0,0,0,0,3,8,80,7,,,,,,,,,,,,,,,,,,,,,,,,,,,,,,,,,,,,,,,,,,,,,,,,,,,,,,,,,,,,,,,,278.553991000168,278.95687800017186,278.9386432999745,279.0380637999624,279.4390106999781,None,right,1,0.4762805998325348,279.4390106999781,None,278.9386432999745,279.0380637999624,279.0380637999624,None,279.93923260015436,None,,,,,,,11026,001,2024_Jan_10_1017,ANT,2021.2.3,59.75896816516461,
1,11,center,up,IC,L,,,,,,Block.xlsx,"你已经完成了第一个实验区组

请稍作休息


点击空格键进入下一个区组。",0,50,1.5,left,RRLRR.png,,,,,0,0,0,0,3,9,81,10,,,,,,,,,,,,,,,,,,,,,,,,,,,,,,,,,,,,,,,,,,,,,,,,,,,,,,,,,,,,,,,,280.34083010000177,280.74318989994936,280.7244947999716,280.824622400105,281.22466409998015,None,left,1,0.5946648998651654,281.22466409998015,None,280.7244947999716,280.824622400105,280.824622400105,None,281.8421547000762,None,,,,,,,11026,001,2024_Jan_10_1017,ANT,2021.2.3,59.75896816516461,
1,3,no,up,IC,L,,,,,,Block.xlsx,"你已经完成了第一个实验区组

请稍作休息


点击空格键进入下一个区组。",50,0,1.5,left,RRLRR.png,,,,,0,0,0,0,3,10,82,2,,,,,,,,,,,,,,,,,,,,,,,,,,,,,,,,,,,,,,,,,,,,,,,,,,,,,,,,,,,,,,,,282.2432806000579,282.6443156001624,282.62725050002337,282.72744849999435,283.1291060000658,None,left,1,0.4423243999481201,283.1291060000658,None,282.62725050002337,282.72744849999435,282.72744849999435,None,283.59485340001993,None,,,,,,,11026,001,2024_Jan_10_1017,ANT,2021.2.3,59.75896816516461,
1,7,no,down,IC,L,,,,,,Block.xlsx,"你已经完成了第一个实验区组

请稍作休息


点击空格键进入下一个区组。",50,0,-1.5,left,RRLRR.png,,,,,0,0,0,0,3,11,83,6,,,,,,,,,,,,,,,,,,,,,,,,,,,,,,,,,,,,,,,,,,,,,,,,,,,,,,,,,,,,,,,,283.99551789998077,284.39718129998073,284.37964590010233,284.47931049996987,284.88136250013486,None,left,1,0.6578502000775188,284.88136250013486,None,284.37964590010233,284.47931049996987,284.47931049996987,None,285.56433250010014,None,,,,,,,11026,001,2024_Jan_10_1017,ANT,2021.2.3,59.75896816516461,
1,1,no,up,C,L,,,,,,Block.xlsx,"你已经完成了第一个实验区组

请稍作休息


点击空格键进入下一个区组。",50,0,1.5,left,LLLLL.png,,,,,0,0,0,0,3,12,84,0,,,,,,,,,,,,,,,,,,,,,,,,,,,,,,,,,,,,,,,,,,,,,,,,,,,,,,,,,,,,,,,,285.96505580004305,286.3659961000085,286.3489942001179,286.4491249001585,286.85082420008257,None,left,1,0.4243666999973357,286.85082420008257,None,286.3489942001179,286.4491249001585,286.4491249001585,None,287.3003652000334,None,,,,,,,11026,001,2024_Jan_10_1017,ANT,2021.2.3,59.75896816516461,
1,23,spatial,down,IC,L,,,,,,Block.xlsx,"你已经完成了第一个实验区组

请稍作休息


点击空格键进入下一个区组。",-1.5,0,-1.5,left,RRLRR.png,,,,,0,0,0,0,3,13,85,22,,,,,,,,,,,,,,,,,,,,,,,,,,,,,,,,,,,,,,,,,,,,,,,,,,,,,,,,,,,,,,,,287.70108380005695,288.10155869997106,288.08532580011524,288.18512380006723,288.58616039995104,None,left,1,0.43337849993258715,288.58616039995104,None,288.08532580011524,288.18512380006723,288.18512380006723,None,289.0362158000935,None,,,,,,,11026,001,2024_Jan_10_1017,ANT,2021.2.3,59.75896816516461,
1,18,spatial,up,C,R,,,,,,Block.xlsx,"你已经完成了第一个实验区组

请稍作休息


点击空格键进入下一个区组。",1.5,0,1.5,right,RRRRR.png,,,,,0,0,0,0,3,14,86,17,,,,,,,,,,,,,,,,,,,,,,,,,,,,,,,,,,,,,,,,,,,,,,,,,,,,,,,,,,,,,,,,289.43662150017917,289.83732390007935,289.8219974001404,289.9218131999951,290.321788799949,None,right,1,0.2906049999874085,290.321788799949,None,289.8219974001404,289.9218131999951,289.9218131999951,None,290.63907409994863,None,,,,,,,11026,001,2024_Jan_10_1017,ANT,2021.2.3,59.75896816516461,
1,15,center,down,IC,L,,,,,,Block.xlsx,"你已经完成了第一个实验区组

请稍作休息


点击空格键进入下一个区组。",0,50,-1.5,left,RRLRR.png,,,,,0,0,0,0,3,15,87,14,,,,,,,,,,,,,,,,,,,,,,,,,,,,,,,,,,,,,,,,,,,,,,,,,,,,,,,,,,,,,,,,291.03979950002395,291.4405739000067,291.42360860016197,291.5236277000513,291.9244397999719,None,left,1,0.3588485000655055,291.9244397999719,None,291.42360860016197,291.5236277000513,291.5236277000513,None,292.3082892000675,None,,,,,,,11026,001,2024_Jan_10_1017,ANT,2021.2.3,59.75896816516461,
1,16,center,down,IC,R,,,,,,Block.xlsx,"你已经完成了第一个实验区组

请稍作休息


点击空格键进入下一个区组。",0,50,-1.5,right,LLRLL.png,,,,,0,0,0,0,3,16,88,15,,,,,,,,,,,,,,,,,,,,,,,,,,,,,,,,,,,,,,,,,,,,,,,,,,,,,,,,,,,,,,,,292.70840879995376,293.10995210008696,293.0928678000346,293.1925580999814,293.5938017000444,None,right,1,0.5458799998741597,293.5938017000444,None,293.0928678000346,293.1925580999814,293.1925580999814,None,294.16053440002725,None,,,,,,,11026,001,2024_Jan_10_1017,ANT,2021.2.3,59.75896816516461,
1,19,spatial,up,IC,L,,,,,,Block.xlsx,"你已经完成了第一个实验区组

请稍作休息


点击空格键进入下一个区组。",1.5,0,1.5,left,RRLRR.png,,,,,0,0,0,0,3,17,89,18,,,,,,,,,,,,,,,,,,,,,,,,,,,,,,,,,,,,,,,,,,,,,,,,,,,,,,,,,,,,,,,,294.5625779000111,294.9616304000374,294.94617830007337,295.0456875001546,295.4471036000177,None,left,1,0.34022500016726553,295.4471036000177,None,294.94617830007337,295.0456875001546,295.0456875001546,None,295.8128301000688,None,,,,,,,11026,001,2024_Jan_10_1017,ANT,2021.2.3,59.75896816516461,
1,2,no,up,C,R,,,,,,Block.xlsx,"你已经完成了第一个实验区组

请稍作休息


点击空格键进入下一个区组。",50,0,1.5,right,RRRRR.png,,,,,0,0,0,0,3,18,90,1,,,,,,,,,,,,,,,,,,,,,,,,,,,,,,,,,,,,,,,,,,,,,,,,,,,,,,,,,,,,,,,,296.2136040001642,296.6149175001774,296.59727430017665,296.6979769000318,297.09932929999195,None,left,0,0.41605750005692244,297.09932929999195,None,296.59727430017665,296.6979769000318,296.6979769000318,None,297.5319616999477,None,,,,,,,11026,001,2024_Jan_10_1017,ANT,2021.2.3,59.75896816516461,
1,14,center,down,C,R,,,,,,Block.xlsx,"你已经完成了第一个实验区组

请稍作休息


点击空格键进入下一个区组。",0,50,-1.5,right,RRRRR.png,,,,,0,0,0,0,3,19,91,13,,,,,,,,,,,,,,,,,,,,,,,,,,,,,,,,,,,,,,,,,,,,,,,,,,,,,,,,,,,,,,,,297.93290260015056,298.3338618001435,298.3166788001545,298.4169880000409,298.8190641000401,None,right,1,0.40081670018844306,298.8190641000401,None,298.3166788001545,298.4169880000409,298.4169880000409,None,299.23490889999084,None,,,,,,,11026,001,2024_Jan_10_1017,ANT,2021.2.3,59.75896816516461,
1,1,no,up,C,L,,,,,,Block.xlsx,"你已经完成了第一个实验区组

请稍作休息


点击空格键进入下一个区组。",50,0,1.5,left,LLLLL.png,,,,,0,0,0,0,3,20,92,0,,,,,,,,,,,,,,,,,,,,,,,,,,,,,,,,,,,,,,,,,,,,,,,,,,,,,,,,,,,,,,,,299.63519990001805,300.03677650005557,300.0191879000049,300.12052210001275,300.5203164999839,None,left,1,0.4193777998443693,300.5203164999839,None,300.0191879000049,300.12052210001275,300.12052210001275,None,300.97062869998626,None,,,,,,,11026,001,2024_Jan_10_1017,ANT,2021.2.3,59.75896816516461,
1,3,no,up,IC,L,,,,,,Block.xlsx,"你已经完成了第一个实验区组

请稍作休息


点击空格键进入下一个区组。",50,0,1.5,left,RRLRR.png,,,,,0,0,0,0,3,21,93,2,,,,,,,,,,,,,,,,,,,,,,,,,,,,,,,,,,,,,,,,,,,,,,,,,,,,,,,,,,,,,,,,301.3710418001283,301.77187940012664,301.7563561000861,301.85521250008605,302.25640650000423,None,left,1,0.602863899897784,302.25640650000423,None,301.7563561000861,301.85521250008605,301.85521250008605,None,302.8900770000182,None,,,,,,,11026,001,2024_Jan_10_1017,ANT,2021.2.3,59.75896816516461,
1,22,spatial,down,C,R,,,,,,Block.xlsx,"你已经完成了第一个实验区组

请稍作休息


点击空格键进入下一个区组。",-1.5,0,-1.5,right,RRRRR.png,,,,,0,0,0,0,3,22,94,21,,,,,,,,,,,,,,,,,,,,,,,,,,,,,,,,,,,,,,,,,,,,,,,,,,,,,,,,,,,,,,,,303.2907290000003,303.69368450017646,303.67508379998617,303.7759477000218,304.175712000113,None,right,1,0.3166834998410195,304.175712000113,None,303.67508379998617,303.7759477000218,303.7759477000218,None,304.5090278000571,None,,,,,,,11026,001,2024_Jan_10_1017,ANT,2021.2.3,59.75896816516461,
1,12,center,up,IC,R,,,,,,Block.xlsx,"你已经完成了第一个实验区组

请稍作休息


点击空格键进入下一个区组。",0,50,1.5,right,LLRLL.png,,,,,0,0,0,0,3,23,95,11,,,,,,,,,,,,,,,,,,,,,,,,,,,,,,,,,,,,,,,,,,,,,,,,,,,,,,,,,,,,,,,,304.9099145999644,305.310769099975,305.29427810013294,305.3934198000934,305.7943049001042,None,right,1,0.6249649000819772,305.7943049001042,None,305.29427810013294,305.3934198000934,305.3934198000934,None,306.4454224000219,None,,,,,,,11026,001,2024_Jan_10_1017,ANT,2021.2.3,59.75896816516461,
,,,,,,,,,,,Block.xlsx,"你已经完成了第一个实验区组

请稍作休息


点击空格键进入下一个区组。",,,,,,,,,,0,0,0,0,,,,,,,,,,,,,,,,,,,,,,,,,,,,,,,,,,,,,,,,,,,,,,,,,,,,,,,,,,,,,,,,,,,,,,,,,,,,,,,,,,,,,space,12.836626500124112,306.8629680001177,None,306.8629680001177,None,11026,001,2024_Jan_10_1017,ANT,2021.2.3,59.75896816516461,
1,11,center,up,IC,L,,,,,,Block.xlsx,"你已经完成了整个实验（三个区组）。

请报告实验者已完成实验

非常感谢，再见！",0,50,1.5,left,RRLRR.png,,,,,0,1,1,1,0,0,0,10,,,,,,,,,,,,,,,,,,,,,,,,,,,,,,,,,,,,,,,,,,,,,,,,,,,,,,,,,,,,,,,,319.7486539001111,320.149083300028,320.13337050005794,320.2333433001768,320.63289630017243,None,left,1,0.45857089990749955,320.63289630017243,None,320.13337050005794,320.2333433001768,320.2333433001768,None,321.11710639996454,None,,,,,,,11026,001,2024_Jan_10_1017,ANT,2021.2.3,59.75896816516461,
1,11,center,up,IC,L,,,,,,Block.xlsx,"你已经完成了整个实验（三个区组）。

请报告实验者已完成实验

非常感谢，再见！",0,50,1.5,left,RRLRR.png,,,,,0,1,1,1,0,1,1,10,,,,,,,,,,,,,,,,,,,,,,,,,,,,,,,,,,,,,,,,,,,,,,,,,,,,,,,,,,,,,,,,321.5176224000752,321.920042200014,321.9023512999993,322.0020942001138,322.40412680013105,None,left,1,0.3995707998983562,322.40412680013105,None,321.9023512999993,322.0020942001138,322.0020942001138,None,322.8194314001594,None,,,,,,,11026,001,2024_Jan_10_1017,ANT,2021.2.3,59.75896816516461,
1,13,center,down,C,L,,,,,,Block.xlsx,"你已经完成了整个实验（三个区组）。

请报告实验者已完成实验

非常感谢，再见！",0,50,-1.5,left,LLLLL.png,,,,,0,1,1,1,0,2,2,12,,,,,,,,,,,,,,,,,,,,,,,,,,,,,,,,,,,,,,,,,,,,,,,,,,,,,,,,,,,,,,,,323.22034710017033,323.6216544001363,323.6040334000718,323.70440120017156,324.1056262999773,None,left,1,0.5057001998648047,324.1056262999773,None,323.6040334000718,323.70440120017156,323.70440120017156,None,324.6388147000689,None,,,,,,,11026,001,2024_Jan_10_1017,ANT,2021.2.3,59.75896816516461,
1,23,spatial,down,IC,L,,,,,,Block.xlsx,"你已经完成了整个实验（三个区组）。

请报告实验者已完成实验

非常感谢，再见！",-1.5,0,-1.5,left,RRLRR.png,,,,,0,1,1,1,0,3,3,22,,,,,,,,,,,,,,,,,,,,,,,,,,,,,,,,,,,,,,,,,,,,,,,,,,,,,,,,,,,,,,,,325.03991180006415,325.4401457000058,325.4243898000568,325.52616150001995,325.9247092001606,None,left,1,0.4472356999758631,325.9247092001606,None,325.4243898000568,325.52616150001995,325.52616150001995,None,326.39169760001823,None,,,,,,,11026,001,2024_Jan_10_1017,ANT,2021.2.3,59.75896816516461,
1,21,spatial,down,C,L,,,,,,Block.xlsx,"你已经完成了整个实验（三个区组）。

请报告实验者已完成实验

非常感谢，再见！",-1.5,0,-1.5,left,LLLLL.png,,,,,0,1,1,1,0,4,4,20,,,,,,,,,,,,,,,,,,,,,,,,,,,,,,,,,,,,,,,,,,,,,,,,,,,,,,,,,,,,,,,,326.79304370004684,327.1937746000476,327.17658290010877,327.2782700001262,327.6767945999745,None,left,1,0.3103743998799473,327.6767945999745,None,327.17658290010877,327.2782700001262,327.2782700001262,None,328.01070910017006,None,,,,,,,11026,001,2024_Jan_10_1017,ANT,2021.2.3,59.75896816516461,
1,24,spatial,down,IC,R,,,,,,Block.xlsx,"你已经完成了整个实验（三个区组）。

请报告实验者已完成实验

非常感谢，再见！",-1.5,0,-1.5,right,LLRLL.png,,,,,0,1,1,1,0,5,5,23,,,,,,,,,,,,,,,,,,,,,,,,,,,,,,,,,,,,,,,,,,,,,,,,,,,,,,,,,,,,,,,,328.4111738000065,328.81331050000153,328.79510330013,328.89578830008395,329.29725780012086,None,right,1,0.4510349000338465,329.29725780012086,None,328.79510330013,328.89578830008395,328.89578830008395,None,329.7631914000958,None,,,,,,,11026,001,2024_Jan_10_1017,ANT,2021.2.3,59.75896816516461,
1,4,no,up,IC,R,,,,,,Block.xlsx,"你已经完成了整个实验（三个区组）。

请报告实验者已完成实验

非常感谢，再见！",50,0,1.5,right,LLRLL.png,,,,,0,1,1,1,0,6,6,3,,,,,,,,,,,,,,,,,,,,,,,,,,,,,,,,,,,,,,,,,,,,,,,,,,,,,,,,,,,,,,,,330.1637246001046,330.5647863999475,330.549602500163,330.66512760007754,331.0490594001021,None,right,1,0.6184537999797612,331.0490594001021,None,330.549602500163,330.66512760007754,330.64964540000074,None,331.6826486000791,None,,,,,,,11026,001,2024_Jan_10_1017,ANT,2021.2.3,59.75896816516461,
1,15,center,down,IC,L,,,,,,Block.xlsx,"你已经完成了整个实验（三个区组）。

请报告实验者已完成实验

非常感谢，再见！",0,50,-1.5,left,RRLRR.png,,,,,0,1,1,1,0,7,7,14,,,,,,,,,,,,,,,,,,,,,,,,,,,,,,,,,,,,,,,,,,,,,,,,,,,,,,,,,,,,,,,,332.0835867000278,332.4864417000208,332.46757730003446,332.5687514001038,332.96870670001954,None,left,1,0.6106639998033643,332.96870670001954,None,332.46757730003446,332.5687514001038,332.5687514001038,None,333.6025702999905,None,,,,,,,11026,001,2024_Jan_10_1017,ANT,2021.2.3,59.75896816516461,
1,2,no,up,C,R,,,,,,Block.xlsx,"你已经完成了整个实验（三个区组）。

请报告实验者已完成实验

非常感谢，再见！",50,0,1.5,right,RRRRR.png,,,,,0,1,1,1,0,8,8,1,,,,,,,,,,,,,,,,,,,,,,,,,,,,,,,,,,,,,,,,,,,,,,,,,,,,,,,,,,,,,,,,334.002776700072,334.4048164000269,334.38742060004734,334.4875731000211,334.8885327000171,None,right,1,0.41883510001935065,334.8885327000171,None,334.38742060004734,334.4875731000211,334.4875731000211,None,335.3381294000428,None,,,,,,,11026,001,2024_Jan_10_1017,ANT,2021.2.3,59.75896816516461,
1,2,no,up,C,R,,,,,,Block.xlsx,"你已经完成了整个实验（三个区组）。

请报告实验者已完成实验

非常感谢，再见！",50,0,1.5,right,RRRRR.png,,,,,0,1,1,1,0,9,9,1,,,,,,,,,,,,,,,,,,,,,,,,,,,,,,,,,,,,,,,,,,,,,,,,,,,,,,,,,,,,,,,,335.73925730003975,336.13988670008257,336.1234971000813,336.22363890009,336.6250846001785,None,right,1,0.45002719992771745,336.6250846001785,None,336.1234971000813,336.22363890009,336.22363890009,None,337.09083590004593,None,,,,,,,11026,001,2024_Jan_10_1017,ANT,2021.2.3,59.75896816516461,
1,12,center,up,IC,R,,,,,,Block.xlsx,"你已经完成了整个实验（三个区组）。

请报告实验者已完成实验

非常感谢，再见！",0,50,1.5,right,LLRLL.png,,,,,0,1,1,1,0,10,10,11,,,,,,,,,,,,,,,,,,,,,,,,,,,,,,,,,,,,,,,,,,,,,,,,,,,,,,,,,,,,,,,,337.4912877001334,337.89187350007705,337.87599860015325,337.97596470010467,338.3764719001483,None,right,1,0.5309483001474291,338.3764719001483,None,337.87599860015325,337.97596470010467,337.97596470010467,None,338.9270594001282,None,,,,,,,11026,001,2024_Jan_10_1017,ANT,2021.2.3,59.75896816516461,
1,8,no,down,IC,R,,,,,,Block.xlsx,"你已经完成了整个实验（三个区组）。

请报告实验者已完成实验

非常感谢，再见！",50,0,-1.5,right,LLRLL.png,,,,,0,1,1,1,0,11,11,7,,,,,,,,,,,,,,,,,,,,,,,,,,,,,,,,,,,,,,,,,,,,,,,,,,,,,,,,,,,,,,,,339.32719760015607,339.72812620014884,339.71287499996834,339.82890990003943,340.21235980000347,None,right,1,0.6314266000408679,340.21235980000347,None,339.71287499996834,339.82890990003943,339.81145719997585,None,340.86315000010654,None,,,,,,,11026,001,2024_Jan_10_1017,ANT,2021.2.3,59.75896816516461,
1,16,center,down,IC,R,,,,,,Block.xlsx,"你已经完成了整个实验（三个区组）。

请报告实验者已完成实验

非常感谢，再见！",0,50,-1.5,right,LLRLL.png,,,,,0,1,1,1,0,12,12,15,,,,,,,,,,,,,,,,,,,,,,,,,,,,,,,,,,,,,,,,,,,,,,,,,,,,,,,,,,,,,,,,341.26361510017887,341.6646982000675,341.6500906001311,341.76544850016944,342.1499302999582,None,right,1,0.46142220008186996,342.1499302999582,None,341.6500906001311,341.76544850016944,341.7496368000284,None,342.6322403999511,None,,,,,,,11026,001,2024_Jan_10_1017,ANT,2021.2.3,59.75896816516461,
1,14,center,down,C,R,,,,,,Block.xlsx,"你已经完成了整个实验（三个区组）。

请报告实验者已完成实验

非常感谢，再见！",0,50,-1.5,right,RRRRR.png,,,,,0,1,1,1,0,13,13,13,,,,,,,,,,,,,,,,,,,,,,,,,,,,,,,,,,,,,,,,,,,,,,,,,,,,,,,,,,,,,,,,343.03429430001415,343.43422370008193,343.41682280017994,343.5179240000434,343.9178637000732,None,right,1,0.39786909986287355,343.9178637000732,None,343.41682280017994,343.5179240000434,343.5179240000434,None,344.33474850002676,None,,,,,,,11026,001,2024_Jan_10_1017,ANT,2021.2.3,59.75896816516461,
1,6,no,down,C,R,,,,,,Block.xlsx,"你已经完成了整个实验（三个区组）。

请报告实验者已完成实验

非常感谢，再见！",50,0,-1.5,right,RRRRR.png,,,,,0,1,1,1,0,14,14,5,,,,,,,,,,,,,,,,,,,,,,,,,,,,,,,,,,,,,,,,,,,,,,,,,,,,,,,,,,,,,,,,344.7361290000845,345.136781899957,345.1193258999847,345.2212225999683,345.62129730009474,None,right,1,0.3899753999430686,345.62129730009474,None,345.1193258999847,345.2212225999683,345.2212225999683,None,346.03729710006155,None,,,,,,,11026,001,2024_Jan_10_1017,ANT,2021.2.3,59.75896816516461,
1,6,no,down,C,R,,,,,,Block.xlsx,"你已经完成了整个实验（三个区组）。

请报告实验者已完成实验

非常感谢，再见！",50,0,-1.5,right,RRRRR.png,,,,,0,1,1,1,0,15,15,5,,,,,,,,,,,,,,,,,,,,,,,,,,,,,,,,,,,,,,,,,,,,,,,,,,,,,,,,,,,,,,,,346.4391086001415,346.8398551000282,346.82251440011896,346.92213149997406,347.323300300166,None,right,1,0.3840342001058161,347.323300300166,None,346.82251440011896,346.92213149997406,346.92213149997406,None,347.7234879999887,None,,,,,,,11026,001,2024_Jan_10_1017,ANT,2021.2.3,59.75896816516461,
1,17,spatial,up,C,L,,,,,,Block.xlsx,"你已经完成了整个实验（三个区组）。

请报告实验者已完成实验

非常感谢，再见！",1.5,0,1.5,left,LLLLL.png,,,,,0,1,1,1,0,16,16,16,,,,,,,,,,,,,,,,,,,,,,,,,,,,,,,,,,,,,,,,,,,,,,,,,,,,,,,,,,,,,,,,348.1237978001591,348.52438409999013,348.5088379001245,348.60868850001134,349.00856400001794,None,left,1,0.47468730015680194,349.00856400001794,None,348.5088379001245,348.60868850001134,348.60868850001134,None,349.5090324000921,None,,,,,,,11026,001,2024_Jan_10_1017,ANT,2021.2.3,59.75896816516461,
1,18,spatial,up,C,R,,,,,,Block.xlsx,"你已经完成了整个实验（三个区组）。

请报告实验者已完成实验

非常感谢，再见！",1.5,0,1.5,right,RRRRR.png,,,,,0,1,1,1,0,17,17,17,,,,,,,,,,,,,,,,,,,,,,,,,,,,,,,,,,,,,,,,,,,,,,,,,,,,,,,,,,,,,,,,349.9102998999879,350.31022960017435,350.2946081000846,350.3952413999941,350.79426690004766,None,right,1,0.4496911000460386,350.79426690004766,None,350.2946081000846,350.3952413999941,350.3952413999941,None,351.26148400013335,None,,,,,,,11026,001,2024_Jan_10_1017,ANT,2021.2.3,59.75896816516461,
1,20,spatial,up,IC,R,,,,,,Block.xlsx,"你已经完成了整个实验（三个区组）。

请报告实验者已完成实验

非常感谢，再见！",1.5,0,1.5,right,LLRLL.png,,,,,0,1,1,1,0,18,18,19,,,,,,,,,,,,,,,,,,,,,,,,,,,,,,,,,,,,,,,,,,,,,,,,,,,,,,,,,,,,,,,,351.66241380013525,352.06349109997973,352.0468117001001,352.1469151000492,352.54759520012885,None,right,1,0.45612130011431873,352.54759520012885,None,352.0468117001001,352.1469151000492,352.1469151000492,None,353.031718299957,None,,,,,,,11026,001,2024_Jan_10_1017,ANT,2021.2.3,59.75896816516461,
1,7,no,down,IC,L,,,,,,Block.xlsx,"你已经完成了整个实验（三个区组）。

请报告实验者已完成实验

非常感谢，再见！",50,0,-1.5,left,RRLRR.png,,,,,0,1,1,1,0,19,19,6,,,,,,,,,,,,,,,,,,,,,,,,,,,,,,,,,,,,,,,,,,,,,,,,,,,,,,,,,,,,,,,,353.43159339996055,353.8322434001602,353.8163014999591,353.91711589996703,354.31720950012095,None,left,1,0.4940361001063138,354.31720950012095,None,353.8163014999591,353.91711589996703,353.91711589996703,None,354.83375039999373,None,,,,,,,11026,001,2024_Jan_10_1017,ANT,2021.2.3,59.75896816516461,
1,1,no,up,C,L,,,,,,Block.xlsx,"你已经完成了整个实验（三个区组）。

请报告实验者已完成实验

非常感谢，再见！",50,0,1.5,left,LLLLL.png,,,,,0,1,1,1,0,20,20,0,,,,,,,,,,,,,,,,,,,,,,,,,,,,,,,,,,,,,,,,,,,,,,,,,,,,,,,,,,,,,,,,355.23433570005,355.6352588001173,355.62035500002094,355.7350320001133,356.1207877001725,None,left,1,0.5065260000992566,356.1207877001725,None,355.62035500002094,355.7350320001133,355.7199184000492,None,356.65295809996314,None,,,,,,,11026,001,2024_Jan_10_1017,ANT,2021.2.3,59.75896816516461,
1,3,no,up,IC,L,,,,,,Block.xlsx,"你已经完成了整个实验（三个区组）。

请报告实验者已完成实验

非常感谢，再见！",50,0,1.5,left,RRLRR.png,,,,,0,1,1,1,0,21,21,2,,,,,,,,,,,,,,,,,,,,,,,,,,,,,,,,,,,,,,,,,,,,,,,,,,,,,,,,,,,,,,,,357.0542161001358,357.4544043999631,357.43823460000567,357.53941319999285,357.93842040002346,None,left,1,0.4408694999292493,357.93842040002346,None,357.43823460000567,357.53941319999285,357.53941319999285,None,358.40542820002884,None,,,,,,,11026,001,2024_Jan_10_1017,ANT,2021.2.3,59.75896816516461,
1,8,no,down,IC,R,,,,,,Block.xlsx,"你已经完成了整个实验（三个区组）。

请报告实验者已完成实验

非常感谢，再见！",50,0,-1.5,right,LLRLL.png,,,,,0,1,1,1,0,22,22,7,,,,,,,,,,,,,,,,,,,,,,,,,,,,,,,,,,,,,,,,,,,,,,,,,,,,,,,,,,,,,,,,358.8062096000649,359.20710820006207,359.1914772000164,359.2910130000673,359.69169490016066,None,right,1,0.5595906001981348,359.69169490016066,None,359.1914772000164,359.2910130000673,359.2910130000673,None,360.2750452000182,None,,,,,,,11026,001,2024_Jan_10_1017,ANT,2021.2.3,59.75896816516461,
1,3,no,up,IC,L,,,,,,Block.xlsx,"你已经完成了整个实验（三个区组）。

请报告实验者已完成实验

非常感谢，再见！",50,0,1.5,left,RRLRR.png,,,,,0,1,1,1,0,23,23,2,,,,,,,,,,,,,,,,,,,,,,,,,,,,,,,,,,,,,,,,,,,,,,,,,,,,,,,,,,,,,,,,360.6756111001596,361.0779053999577,361.06016520014964,361.16006839997135,361.56192430015653,None,left,1,0.4415261000394821,361.56192430015653,None,361.06016520014964,361.16006839997135,361.16006839997135,None,362.02812370005995,None,,,,,,,11026,001,2024_Jan_10_1017,ANT,2021.2.3,59.75896816516461,
1,24,spatial,down,IC,R,,,,,,Block.xlsx,"你已经完成了整个实验（三个区组）。

请报告实验者已完成实验

非常感谢，再见！",-1.5,0,-1.5,right,LLRLL.png,,,,,0,1,1,1,1,0,24,23,,,,,,,,,,,,,,,,,,,,,,,,,,,,,,,,,,,,,,,,,,,,,,,,,,,,,,,,,,,,,,,,362.42943280003965,362.8290901000146,362.8138896001037,362.9135567001067,363.3136685001664,None,right,1,0.3698625999968499,363.3136685001664,None,362.8138896001037,362.9135567001067,362.9135567001067,None,363.71358110010624,None,,,,,,,11026,001,2024_Jan_10_1017,ANT,2021.2.3,59.75896816516461,
1,21,spatial,down,C,L,,,,,,Block.xlsx,"你已经完成了整个实验（三个区组）。

请报告实验者已完成实验

非常感谢，再见！",-1.5,0,-1.5,left,LLLLL.png,,,,,0,1,1,1,1,1,25,20,,,,,,,,,,,,,,,,,,,,,,,,,,,,,,,,,,,,,,,,,,,,,,,,,,,,,,,,,,,,,,,,364.1140797000844,364.51585930003785,364.4997589001432,364.61527230008505,364.9987773001194,None,left,1,0.3807598000857979,364.9987773001194,None,364.4997589001432,364.61527230008505,364.59810810000636,None,365.3992924001068,None,,,,,,,11026,001,2024_Jan_10_1017,ANT,2021.2.3,59.75896816516461,
1,15,center,down,IC,L,,,,,,Block.xlsx,"你已经完成了整个实验（三个区组）。

请报告实验者已完成实验

非常感谢，再见！",0,50,-1.5,left,RRLRR.png,,,,,0,1,1,1,1,2,26,14,,,,,,,,,,,,,,,,,,,,,,,,,,,,,,,,,,,,,,,,,,,,,,,,,,,,,,,,,,,,,,,,365.80008030007593,366.19996640016325,366.184580600122,366.2848755000159,366.686548900092,None,left,1,0.42086609988473356,366.686548900092,None,366.184580600122,366.2848755000159,366.2848755000159,None,367.1352304001339,None,,,,,,,11026,001,2024_Jan_10_1017,ANT,2021.2.3,59.75896816516461,
1,10,center,up,C,R,,,,,,Block.xlsx,"你已经完成了整个实验（三个区组）。

请报告实验者已完成实验

非常感谢，再见！",0,50,1.5,right,RRRRR.png,,,,,0,1,1,1,1,3,27,9,,,,,,,,,,,,,,,,,,,,,,,,,,,,,,,,,,,,,,,,,,,,,,,,,,,,,,,,,,,,,,,,367.53593669994734,367.9366488000378,367.9205535000656,368.01989070000127,368.4205017001368,None,right,1,0.5511025001760572,368.4205017001368,None,367.9205535000656,368.01989070000127,368.01989070000127,None,368.98813830013387,None,,,,,,,11026,001,2024_Jan_10_1017,ANT,2021.2.3,59.75896816516461,
1,23,spatial,down,IC,L,,,,,,Block.xlsx,"你已经完成了整个实验（三个区组）。

请报告实验者已完成实验

非常感谢，再见！",-1.5,0,-1.5,left,RRLRR.png,,,,,0,1,1,1,1,4,28,22,,,,,,,,,,,,,,,,,,,,,,,,,,,,,,,,,,,,,,,,,,,,,,,,,,,,,,,,,,,,,,,,369.3886198999826,369.7893469000701,369.77397480001673,369.89076960016973,370.27428780007176,None,left,1,0.4811750999651849,370.27428780007176,None,369.77397480001673,369.89076960016973,369.87326620006934,None,370.774073000066,None,,,,,,,11026,001,2024_Jan_10_1017,ANT,2021.2.3,59.75896816516461,
1,18,spatial,up,C,R,,,,,,Block.xlsx,"你已经完成了整个实验（三个区组）。

请报告实验者已完成实验

非常感谢，再见！",1.5,0,1.5,right,RRRRR.png,,,,,0,1,1,1,1,5,29,17,,,,,,,,,,,,,,,,,,,,,,,,,,,,,,,,,,,,,,,,,,,,,,,,,,,,,,,,,,,,,,,,371.1748638001736,371.5751645001583,371.55960580008104,371.65867649996653,372.0597143000923,None,right,1,0.36813360010273755,372.0597143000923,None,371.55960580008104,371.65867649996653,371.65867649996653,None,372.44307880010456,None,,,,,,,11026,001,2024_Jan_10_1017,ANT,2021.2.3,59.75896816516461,
1,7,no,down,IC,L,,,,,,Block.xlsx,"你已经完成了整个实验（三个区组）。

请报告实验者已完成实验

非常感谢，再见！",50,0,-1.5,left,RRLRR.png,,,,,0,1,1,1,1,6,30,6,,,,,,,,,,,,,,,,,,,,,,,,,,,,,,,,,,,,,,,,,,,,,,,,,,,,,,,,,,,,,,,,372.843811100116,373.2449036000762,373.2286551001016,373.3294200999662,373.72863760008477,None,left,1,0.3947047998663038,373.72863760008477,None,373.2286551001016,373.3294200999662,373.3294200999662,None,374.1457069001626,None,,,,,,,11026,001,2024_Jan_10_1017,ANT,2021.2.3,59.75896816516461,
1,13,center,down,C,L,,,,,,Block.xlsx,"你已经完成了整个实验（三个区组）。

请报告实验者已完成实验

非常感谢，再见！",0,50,-1.5,left,LLLLL.png,,,,,0,1,1,1,1,7,31,12,,,,,,,,,,,,,,,,,,,,,,,,,,,,,,,,,,,,,,,,,,,,,,,,,,,,,,,,,,,,,,,,374.5461638001725,374.94679330009967,374.9318536000792,375.04751970013604,375.4319283000659,None,left,1,0.3798467998858541,375.4319283000659,None,374.9318536000792,375.04751970013604,375.03216550010256,None,375.8313234001398,None,,,,,,,11026,001,2024_Jan_10_1017,ANT,2021.2.3,59.75896816516461,
1,12,center,up,IC,R,,,,,,Block.xlsx,"你已经完成了整个实验（三个区组）。

请报告实验者已完成实验

非常感谢，再见！",0,50,1.5,right,LLRLL.png,,,,,0,1,1,1,1,8,32,11,,,,,,,,,,,,,,,,,,,,,,,,,,,,,,,,,,,,,,,,,,,,,,,,,,,,,,,,,,,,,,,,376.2320574000478,376.6331305000931,376.6176077001728,376.7326561999507,377.1177451000549,None,right,1,0.5576132000423968,377.1177451000549,None,376.6176077001728,376.7326561999507,376.71826320001855,None,377.7008330000099,None,,,,,,,11026,001,2024_Jan_10_1017,ANT,2021.2.3,59.75896816516461,
1,16,center,down,IC,R,,,,,,Block.xlsx,"你已经完成了整个实验（三个区组）。

请报告实验者已完成实验

非常感谢，再见！",0,50,-1.5,right,LLRLL.png,,,,,0,1,1,1,1,9,33,15,,,,,,,,,,,,,,,,,,,,,,,,,,,,,,,,,,,,,,,,,,,,,,,,,,,,,,,,,,,,,,,,378.1014340000693,378.5028828999493,378.485435300041,378.5871468000114,378.98655180004425,None,right,1,0.5687763001769781,378.98655180004425,None,378.485435300041,378.5871468000114,378.5871468000114,None,379.58709569997154,None,,,,,,,11026,001,2024_Jan_10_1017,ANT,2021.2.3,59.75896816516461,
1,23,spatial,down,IC,L,,,,,,Block.xlsx,"你已经完成了整个实验（三个区组）。

请报告实验者已完成实验

非常感谢，再见！",-1.5,0,-1.5,left,RRLRR.png,,,,,0,1,1,1,1,10,34,22,,,,,,,,,,,,,,,,,,,,,,,,,,,,,,,,,,,,,,,,,,,,,,,,,,,,,,,,,,,,,,,,379.9876747999806,380.388645300176,380.3721670000814,380.47337000002153,380.87276579998434,None,left,1,0.41878470010124147,380.87276579998434,None,380.3721670000814,380.47337000002153,380.47337000002153,None,381.3065574001521,None,,,,,,,11026,001,2024_Jan_10_1017,ANT,2021.2.3,59.75896816516461,
1,22,spatial,down,C,R,,,,,,Block.xlsx,"你已经完成了整个实验（三个区组）。

请报告实验者已完成实验

非常感谢，再见！",-1.5,0,-1.5,right,RRRRR.png,,,,,0,1,1,1,1,11,35,21,,,,,,,,,,,,,,,,,,,,,,,,,,,,,,,,,,,,,,,,,,,,,,,,,,,,,,,,,,,,,,,,381.707058200147,382.1078876000829,382.0908127001021,382.19228550000116,382.5919578000903,None,right,1,0.5000300998799503,382.5919578000903,None,382.0908127001021,382.19228550000116,382.19228550000116,None,383.10893460013904,None,,,,,,,11026,001,2024_Jan_10_1017,ANT,2021.2.3,59.75896816516461,
1,1,no,up,C,L,,,,,,Block.xlsx,"你已经完成了整个实验（三个区组）。

请报告实验者已完成实验

非常感谢，再见！",50,0,1.5,left,LLLLL.png,,,,,0,1,1,1,1,12,36,0,,,,,,,,,,,,,,,,,,,,,,,,,,,,,,,,,,,,,,,,,,,,,,,,,,,,,,,,,,,,,,,,383.5094576999545,383.91107479995117,383.89418240007944,383.9943512000609,384.3949963999912,None,left,1,0.42436870001256466,384.3949963999912,None,383.89418240007944,383.9943512000609,383.9943512000609,None,384.8457808000967,None,,,,,,,11026,001,2024_Jan_10_1017,ANT,2021.2.3,59.75896816516461,
1,3,no,up,IC,L,,,,,,Block.xlsx,"你已经完成了整个实验（三个区组）。

请报告实验者已完成实验

非常感谢，再见！",50,0,1.5,left,RRLRR.png,,,,,0,1,1,1,1,13,37,2,,,,,,,,,,,,,,,,,,,,,,,,,,,,,,,,,,,,,,,,,,,,,,,,,,,,,,,,,,,,,,,,385.2467475000303,385.64667630009353,385.63017180003226,385.72953390004113,386.1301849000156,None,left,1,0.42550010001286864,386.1301849000156,None,385.63017180003226,385.72953390004113,385.72953390004113,None,386.5807270000223,None,,,,,,,11026,001,2024_Jan_10_1017,ANT,2021.2.3,59.75896816516461,
1,9,center,up,C,L,,,,,,Block.xlsx,"你已经完成了整个实验（三个区组）。

请报告实验者已完成实验

非常感谢，再见！",0,50,1.5,left,LLLLL.png,,,,,0,1,1,1,1,14,38,8,,,,,,,,,,,,,,,,,,,,,,,,,,,,,,,,,,,,,,,,,,,,,,,,,,,,,,,,,,,,,,,,386.9813656001352,387.3821720001288,387.3667099000886,387.48351279995404,387.86644200002775,None,left,1,0.32892820006236434,387.86644200002775,None,387.3667099000886,387.48351279995404,387.46606670017354,None,388.21679420000874,None,,,,,,,11026,001,2024_Jan_10_1017,ANT,2021.2.3,59.75896816516461,
1,17,spatial,up,C,L,,,,,,Block.xlsx,"你已经完成了整个实验（三个区组）。

请报告实验者已完成实验

非常感谢，再见！",1.5,0,1.5,left,LLLLL.png,,,,,0,1,1,1,1,15,39,16,,,,,,,,,,,,,,,,,,,,,,,,,,,,,,,,,,,,,,,,,,,,,,,,,,,,,,,,,,,,,,,,388.61745520005934,389.0177182001062,389.0014180999715,389.1012612001505,389.50174860004336,None,left,1,0.3343285000883043,389.50174860004336,None,389.0014180999715,389.1012612001505,389.1012612001505,None,389.85302320006303,None,,,,,,,11026,001,2024_Jan_10_1017,ANT,2021.2.3,59.75896816516461,
1,19,spatial,up,IC,L,,,,,,Block.xlsx,"你已经完成了整个实验（三个区组）。

请报告实验者已完成实验

非常感谢，再见！",1.5,0,1.5,left,RRLRR.png,,,,,0,1,1,1,1,16,40,18,,,,,,,,,,,,,,,,,,,,,,,,,,,,,,,,,,,,,,,,,,,,,,,,,,,,,,,,,,,,,,,,390.25296650012024,390.654257300077,390.6380684999749,390.73757090000436,391.1374911000021,None,left,1,0.33000920014455914,391.1374911000021,None,390.6380684999749,390.73757090000436,390.73757090000436,None,391.4880119001027,None,,,,,,,11026,001,2024_Jan_10_1017,ANT,2021.2.3,59.75896816516461,
1,22,spatial,down,C,R,,,,,,Block.xlsx,"你已经完成了整个实验（三个区组）。

请报告实验者已完成实验

非常感谢，再见！",-1.5,0,-1.5,right,RRRRR.png,,,,,0,1,1,1,1,17,41,21,,,,,,,,,,,,,,,,,,,,,,,,,,,,,,,,,,,,,,,,,,,,,,,,,,,,,,,,,,,,,,,,391.88856680016033,392.2896212001797,392.27288500010036,392.3742323999759,392.77341719996184,None,right,1,0.3579146999400109,392.77341719996184,None,392.27288500010036,392.3742323999759,392.3742323999759,None,393.1574989000801,None,,,,,,,11026,001,2024_Jan_10_1017,ANT,2021.2.3,59.75896816516461,
1,18,spatial,up,C,R,,,,,,Block.xlsx,"你已经完成了整个实验（三个区组）。

请报告实验者已完成实验

非常感谢，再见！",1.5,0,1.5,right,RRRRR.png,,,,,0,1,1,1,1,18,42,17,,,,,,,,,,,,,,,,,,,,,,,,,,,,,,,,,,,,,,,,,,,,,,,,,,,,,,,,,,,,,,,,393.55776810017414,393.9609409000259,393.9421892000828,394.0420852000825,394.4428203001153,None,right,1,0.45686519984155893,394.4428203001153,None,393.9421892000828,394.0420852000825,394.0420852000825,None,394.9264795000199,None,,,,,,,11026,001,2024_Jan_10_1017,ANT,2021.2.3,59.75896816516461,
1,4,no,up,IC,R,,,,,,Block.xlsx,"你已经完成了整个实验（三个区组）。

请报告实验者已完成实验

非常感谢，再见！",50,0,1.5,right,LLRLL.png,,,,,0,1,1,1,1,19,43,3,,,,,,,,,,,,,,,,,,,,,,,,,,,,,,,,,,,,,,,,,,,,,,,,,,,,,,,,,,,,,,,,395.3270189000759,395.7276463001035,395.71295340009965,395.8129935001489,396.21154960012063,None,right,1,0.5684926998801529,396.21154960012063,None,395.71295340009965,395.8129935001489,395.8129935001489,None,396.79584429995157,None,,,,,,,11026,001,2024_Jan_10_1017,ANT,2021.2.3,59.75896816516461,
1,12,center,up,IC,R,,,,,,Block.xlsx,"你已经完成了整个实验（三个区组）。

请报告实验者已完成实验

非常感谢，再见！",0,50,1.5,right,LLRLL.png,,,,,0,1,1,1,1,20,44,11,,,,,,,,,,,,,,,,,,,,,,,,,,,,,,,,,,,,,,,,,,,,,,,,,,,,,,,,,,,,,,,,397.19642650010064,397.59833059995435,397.580529600149,397.6816710999701,398.081038299948,None,right,1,0.45062820008024573,398.081038299948,None,397.580529600149,397.6816710999701,397.6816710999701,None,398.548715100158,None,,,,,,,11026,001,2024_Jan_10_1017,ANT,2021.2.3,59.75896816516461,
1,9,center,up,C,L,,,,,,Block.xlsx,"你已经完成了整个实验（三个区组）。

请报告实验者已完成实验

非常感谢，再见！",0,50,1.5,left,LLLLL.png,,,,,0,1,1,1,1,21,45,8,,,,,,,,,,,,,,,,,,,,,,,,,,,,,,,,,,,,,,,,,,,,,,,,,,,,,,,,,,,,,,,,398.94931850000285,399.3496753000654,399.33423220016994,399.4521189001389,399.8339160999749,None,left,1,0.4574523000046611,399.8339160999749,None,399.33423220016994,399.4521189001389,399.43403320014477,None,400.31780920014717,None,,,,,,,11026,001,2024_Jan_10_1017,ANT,2021.2.3,59.75896816516461,
1,3,no,up,IC,L,,,,,,Block.xlsx,"你已经完成了整个实验（三个区组）。

请报告实验者已完成实验

非常感谢，再见！",50,0,1.5,left,RRLRR.png,,,,,0,1,1,1,1,22,46,2,,,,,,,,,,,,,,,,,,,,,,,,,,,,,,,,,,,,,,,,,,,,,,,,,,,,,,,,,,,,,,,,400.7183803000953,401.1197057000827,401.1047624000348,401.21914179995656,401.60540909995325,None,left,1,0.44614519993774593,401.60540909995325,None,401.1047624000348,401.21914179995656,401.2037818999961,None,402.0702043999918,None,,,,,,,11026,001,2024_Jan_10_1017,ANT,2021.2.3,59.75896816516461,
1,24,spatial,down,IC,R,,,,,,Block.xlsx,"你已经完成了整个实验（三个区组）。

请报告实验者已完成实验

非常感谢，再见！",-1.5,0,-1.5,right,LLRLL.png,,,,,0,1,1,1,1,23,47,23,,,,,,,,,,,,,,,,,,,,,,,,,,,,,,,,,,,,,,,,,,,,,,,,,,,,,,,,,,,,,,,,402.4708667001687,402.8723959000781,402.8559984001331,402.95516750006936,403.3559449999593,None,right,1,0.3274429999291897,403.3559449999593,None,402.8559984001331,402.95516750006936,402.95516750006936,None,403.7059047999792,None,,,,,,,11026,001,2024_Jan_10_1017,ANT,2021.2.3,59.75896816516461,
1,16,center,down,IC,R,,,,,,Block.xlsx,"你已经完成了整个实验（三个区组）。

请报告实验者已完成实验

非常感谢，再见！",0,50,-1.5,right,LLRLL.png,,,,,0,1,1,1,2,0,48,15,,,,,,,,,,,,,,,,,,,,,,,,,,,,,,,,,,,,,,,,,,,,,,,,,,,,,,,,,,,,,,,,404.10662380000576,404.50793660013005,404.4922380000353,404.60785640007816,404.99262230005115,None,right,1,0.5227073999121785,404.99262230005115,None,404.4922380000353,404.60785640007816,404.59279910009354,None,405.5419864000287,None,,,,,,,11026,001,2024_Jan_10_1017,ANT,2021.2.3,59.75896816516461,
1,21,spatial,down,C,L,,,,,,Block.xlsx,"你已经完成了整个实验（三个区组）。

请报告实验者已完成实验

非常感谢，再见！",-1.5,0,-1.5,left,LLLLL.png,,,,,0,1,1,1,2,1,49,20,,,,,,,,,,,,,,,,,,,,,,,,,,,,,,,,,,,,,,,,,,,,,,,,,,,,,,,,,,,,,,,,405.9428016000893,406.34385409997776,406.3271214000415,406.4281689999625,406.8274340000935,None,right,0,0.26461969991214573,406.8274340000935,None,406.3271214000415,406.4281689999625,406.4281689999625,None,407.1111259001773,None,,,,,,,11026,001,2024_Jan_10_1017,ANT,2021.2.3,59.75896816516461,
1,20,spatial,up,IC,R,,,,,,Block.xlsx,"你已经完成了整个实验（三个区组）。

请报告实验者已完成实验

非常感谢，再见！",1.5,0,1.5,right,LLRLL.png,,,,,0,1,1,1,2,2,50,19,,,,,,,,,,,,,,,,,,,,,,,,,,,,,,,,,,,,,,,,,,,,,,,,,,,,,,,,,,,,,,,,407.51236409996636,407.91247670003213,407.8984575001523,408.0133128000889,408.396440600045,None,right,1,0.7273941000457853,408.396440600045,None,407.8984575001523,408.0133128000889,407.99588540010154,None,409.1479766999837,None,,,,,,,11026,001,2024_Jan_10_1017,ANT,2021.2.3,59.75896816516461,
1,9,center,up,C,L,,,,,,Block.xlsx,"你已经完成了整个实验（三个区组）。

请报告实验者已完成实验

非常感谢，再见！",0,50,1.5,left,LLLLL.png,,,,,0,1,1,1,2,3,51,8,,,,,,,,,,,,,,,,,,,,,,,,,,,,,,,,,,,,,,,,,,,,,,,,,,,,,,,,,,,,,,,,409.5482729000505,409.94973850017413,409.93199650011957,410.03255520015955,410.4335082001053,None,left,1,0.3939432001207024,410.4335082001053,None,409.93199650011957,410.03255520015955,410.03255520015955,None,410.850086200051,None,,,,,,,11026,001,2024_Jan_10_1017,ANT,2021.2.3,59.75896816516461,
1,19,spatial,up,IC,L,,,,,,Block.xlsx,"你已经完成了整个实验（三个区组）。

请报告实验者已完成实验

非常感谢，再见！",1.5,0,1.5,left,RRLRR.png,,,,,0,1,1,1,2,4,52,18,,,,,,,,,,,,,,,,,,,,,,,,,,,,,,,,,,,,,,,,,,,,,,,,,,,,,,,,,,,,,,,,411.25063939997926,411.6518654001411,411.6353486001026,411.7355784000829,412.1349574001506,None,left,1,0.36480990005657077,412.1349574001506,None,411.6353486001026,411.7355784000829,411.7355784000829,None,412.519015799975,None,,,,,,,11026,001,2024_Jan_10_1017,ANT,2021.2.3,59.75896816516461,
1,5,no,down,C,L,,,,,,Block.xlsx,"你已经完成了整个实验（三个区组）。

请报告实验者已完成实验

非常感谢，再见！",50,0,-1.5,left,LLLLL.png,,,,,0,1,1,1,2,5,53,4,,,,,,,,,,,,,,,,,,,,,,,,,,,,,,,,,,,,,,,,,,,,,,,,,,,,,,,,,,,,,,,,412.920823500026,413.3204579001758,413.30491059995256,413.40419639996253,413.8041964999866,None,left,1,0.5518402999732643,413.8041964999866,None,413.30491059995256,413.40419639996253,413.40419639996253,None,414.3718056001235,None,,,,,,,11026,001,2024_Jan_10_1017,ANT,2021.2.3,59.75896816516461,
1,15,center,down,IC,L,,,,,,Block.xlsx,"你已经完成了整个实验（三个区组）。

请报告实验者已完成实验

非常感谢，再见！",0,50,-1.5,left,RRLRR.png,,,,,0,1,1,1,2,6,54,14,,,,,,,,,,,,,,,,,,,,,,,,,,,,,,,,,,,,,,,,,,,,,,,,,,,,,,,,,,,,,,,,414.77262530010194,415.1736501001287,415.15659789997153,415.257831200026,415.65949150011875,None,left,1,0.5127046001143754,415.65949150011875,None,415.15659789997153,415.257831200026,415.257831200026,None,416.1911184999626,None,,,,,,,11026,001,2024_Jan_10_1017,ANT,2021.2.3,59.75896816516461,
1,10,center,up,C,R,,,,,,Block.xlsx,"你已经完成了整个实验（三个区组）。

请报告实验者已完成实验

非常感谢，再见！",0,50,1.5,right,RRRRR.png,,,,,0,1,1,1,2,7,55,9,,,,,,,,,,,,,,,,,,,,,,,,,,,,,,,,,,,,,,,,,,,,,,,,,,,,,,,,,,,,,,,,416.59198100003414,416.9932226999663,416.97564830002375,417.0766753000207,417.4776918999851,None,right,1,0.5981249001342803,417.4776918999851,None,416.97564830002375,417.0766753000207,417.0766753000207,None,418.09402490011416,None,,,,,,,11026,001,2024_Jan_10_1017,ANT,2021.2.3,59.75896816516461,
1,15,center,down,IC,L,,,,,,Block.xlsx,"你已经完成了整个实验（三个区组）。

请报告实验者已完成实验

非常感谢，再见！",0,50,-1.5,left,RRLRR.png,,,,,0,1,1,1,2,8,56,14,,,,,,,,,,,,,,,,,,,,,,,,,,,,,,,,,,,,,,,,,,,,,,,,,,,,,,,,,,,,,,,,418.4952237000689,418.8972943001427,418.87867490015924,418.980289200088,419.38153540017083,None,left,1,0.67025430011563,419.38153540017083,None,418.87867490015924,418.980289200088,418.980289200088,None,420.0814996000845,None,,,,,,,11026,001,2024_Jan_10_1017,ANT,2021.2.3,59.75896816516461,
1,2,no,up,C,R,,,,,,Block.xlsx,"你已经完成了整个实验（三个区组）。

请报告实验者已完成实验

非常感谢，再见！",50,0,1.5,right,RRRRR.png,,,,,0,1,1,1,2,9,57,1,,,,,,,,,,,,,,,,,,,,,,,,,,,,,,,,,,,,,,,,,,,,,,,,,,,,,,,,,,,,,,,,420.48167610005476,420.88339109998196,420.86548779997975,420.9660458001308,421.36754210013896,None,right,1,0.42827120004221797,421.36754210013896,None,420.86548779997975,420.9660458001308,420.9660458001308,None,421.8166666000616,None,,,,,,,11026,001,2024_Jan_10_1017,ANT,2021.2.3,59.75896816516461,
1,24,spatial,down,IC,R,,,,,,Block.xlsx,"你已经完成了整个实验（三个区组）。

请报告实验者已完成实验

非常感谢，再见！",-1.5,0,-1.5,right,LLRLL.png,,,,,0,1,1,1,2,10,58,23,,,,,,,,,,,,,,,,,,,,,,,,,,,,,,,,,,,,,,,,,,,,,,,,,,,,,,,,,,,,,,,,422.21730410004966,422.6196985000279,422.6012123001274,422.70253560016863,423.10362450010143,None,right,1,0.7330322000198066,423.10362450010143,None,422.6012123001274,422.70253560016863,422.70253560016863,None,423.85272249998525,None,,,,,,,11026,001,2024_Jan_10_1017,ANT,2021.2.3,59.75896816516461,
1,16,center,down,IC,R,,,,,,Block.xlsx,"你已经完成了整个实验（三个区组）。

请报告实验者已完成实验

非常感谢，再见！",0,50,-1.5,right,LLRLL.png,,,,,0,1,1,1,2,11,59,15,,,,,,,,,,,,,,,,,,,,,,,,,,,,,,,,,,,,,,,,,,,,,,,,,,,,,,,,,,,,,,,,424.25324720004573,424.65535240015015,424.6371599000413,424.73795310012065,425.13922570017166,None,right,1,0.440403199987486,425.13922570017166,None,424.6371599000413,424.73795310012065,424.73795310012065,None,425.60544640012085,None,,,,,,,11026,001,2024_Jan_10_1017,ANT,2021.2.3,59.75896816516461,
1,8,no,down,IC,R,,,,,,Block.xlsx,"你已经完成了整个实验（三个区组）。

请报告实验者已完成实验

非常感谢，再见！",50,0,-1.5,right,LLRLL.png,,,,,0,1,1,1,2,12,60,7,,,,,,,,,,,,,,,,,,,,,,,,,,,,,,,,,,,,,,,,,,,,,,,,,,,,,,,,,,,,,,,,426.0058085999917,426.40867909998633,426.39027620013803,426.49155090004206,426.8904552999884,None,right,1,0.44095350010320544,426.8904552999884,None,426.39027620013803,426.49155090004206,426.49155090004206,None,427.35783910006285,None,,,,,,,11026,001,2024_Jan_10_1017,ANT,2021.2.3,59.75896816516461,
1,1,no,up,C,L,,,,,,Block.xlsx,"你已经完成了整个实验（三个区组）。

请报告实验者已完成实验

非常感谢，再见！",50,0,1.5,left,LLLLL.png,,,,,0,1,1,1,2,13,61,0,,,,,,,,,,,,,,,,,,,,,,,,,,,,,,,,,,,,,,,,,,,,,,,,,,,,,,,,,,,,,,,,427.75863260007463,428.159416800132,428.14440670004115,428.242575700162,428.64351149997674,None,left,1,0.543844599975273,428.64351149997674,None,428.14440670004115,428.242575700162,428.242575700162,None,429.2107577000279,None,,,,,,,11026,001,2024_Jan_10_1017,ANT,2021.2.3,59.75896816516461,
1,19,spatial,up,IC,L,,,,,,Block.xlsx,"你已经完成了整个实验（三个区组）。

请报告实验者已完成实验

非常感谢，再见！",1.5,0,1.5,left,RRLRR.png,,,,,0,1,1,1,2,14,62,18,,,,,,,,,,,,,,,,,,,,,,,,,,,,,,,,,,,,,,,,,,,,,,,,,,,,,,,,,,,,,,,,429.61129999998957,430.0122921001166,429.99515760014765,430.09529840014875,430.4960340000689,None,left,1,0.3557382000144571,430.4960340000689,None,429.99515760014765,430.09529840014875,430.09529840014875,None,430.87984009995125,None,,,,,,,11026,001,2024_Jan_10_1017,ANT,2021.2.3,59.75896816516461,
1,11,center,up,IC,L,,,,,,Block.xlsx,"你已经完成了整个实验（三个区组）。

请报告实验者已完成实验

非常感谢，再见！",0,50,1.5,left,RRLRR.png,,,,,0,1,1,1,2,15,63,10,,,,,,,,,,,,,,,,,,,,,,,,,,,,,,,,,,,,,,,,,,,,,,,,,,,,,,,,,,,,,,,,431.28039150009863,431.68278020014986,431.6643519999925,431.7651687001344,432.1648669000715,None,left,1,0.3745658998377621,432.1648669000715,None,431.6643519999925,431.7651687001344,431.7651687001344,None,432.5656573001761,None,,,,,,,11026,001,2024_Jan_10_1017,ANT,2021.2.3,59.75896816516461,
1,20,spatial,up,IC,R,,,,,,Block.xlsx,"你已经完成了整个实验（三个区组）。

请报告实验者已完成实验

非常感谢，再见！",1.5,0,1.5,right,LLRLL.png,,,,,0,1,1,1,2,16,64,19,,,,,,,,,,,,,,,,,,,,,,,,,,,,,,,,,,,,,,,,,,,,,,,,,,,,,,,,,,,,,,,,432.9669737999793,433.36752990004607,433.35206559998915,433.4501320000272,433.8516826000996,None,right,1,0.5121305000502616,433.8516826000996,None,433.35206559998915,433.4501320000272,433.4501320000272,None,434.3848457999993,None,,,,,,,11026,001,2024_Jan_10_1017,ANT,2021.2.3,59.75896816516461,
1,13,center,down,C,L,,,,,,Block.xlsx,"你已经完成了整个实验（三个区组）。

请报告实验者已完成实验

非常感谢，再见！",0,50,-1.5,left,LLLLL.png,,,,,0,1,1,1,2,17,65,12,,,,,,,,,,,,,,,,,,,,,,,,,,,,,,,,,,,,,,,,,,,,,,,,,,,,,,,,,,,,,,,,434.78563529998064,435.18651459994726,435.17178540001623,435.2704942000564,435.670446400065,None,left,1,0.41356390016153455,435.670446400065,None,435.17178540001623,435.2704942000564,435.2704942000564,None,436.1045487001538,None,,,,,,,11026,001,2024_Jan_10_1017,ANT,2021.2.3,59.75896816516461,
1,20,spatial,up,IC,R,,,,,,Block.xlsx,"你已经完成了整个实验（三个区组）。

请报告实验者已完成实验

非常感谢，再见！",1.5,0,1.5,right,LLRLL.png,,,,,0,1,1,1,2,18,66,19,,,,,,,,,,,,,,,,,,,,,,,,,,,,,,,,,,,,,,,,,,,,,,,,,,,,,,,,,,,,,,,,436.5048138999846,436.9054845001083,436.88961930014193,436.99010850000195,437.3901425001677,None,right,1,0.4932593998964876,437.3901425001677,None,436.88961930014193,436.99010850000195,436.99010850000195,None,437.90701130009256,None,,,,,,,11026,001,2024_Jan_10_1017,ANT,2021.2.3,59.75896816516461,
1,13,center,down,C,L,,,,,,Block.xlsx,"你已经完成了整个实验（三个区组）。

请报告实验者已完成实验

非常感谢，再见！",0,50,-1.5,left,LLLLL.png,,,,,0,1,1,1,2,19,67,12,,,,,,,,,,,,,,,,,,,,,,,,,,,,,,,,,,,,,,,,,,,,,,,,,,,,,,,,,,,,,,,,438.30755120003596,438.70807930012234,438.6915711001493,438.7936717001721,439.19283040007576,None,left,1,0.40290009998716414,439.19283040007576,None,438.6915711001493,438.7936717001721,438.7936717001721,None,439.62604670017026,None,,,,,,,11026,001,2024_Jan_10_1017,ANT,2021.2.3,59.75896816516461,
1,5,no,down,C,L,,,,,,Block.xlsx,"你已经完成了整个实验（三个区组）。

请报告实验者已完成实验

非常感谢，再见！",50,0,-1.5,left,LLLLL.png,,,,,0,1,1,1,2,20,68,4,,,,,,,,,,,,,,,,,,,,,,,,,,,,,,,,,,,,,,,,,,,,,,,,,,,,,,,,,,,,,,,,440.02636960009113,440.4282659001183,440.41128959995694,440.51222810009494,440.9125793001149,None,left,1,0.3069052000064403,440.9125793001149,None,440.41128959995694,440.51222810009494,440.51222810009494,None,441.2450719999615,None,,,,,,,11026,001,2024_Jan_10_1017,ANT,2021.2.3,59.75896816516461,
1,9,center,up,C,L,,,,,,Block.xlsx,"你已经完成了整个实验（三个区组）。

请报告实验者已完成实验

非常感谢，再见！",0,50,1.5,left,LLLLL.png,,,,,0,1,1,1,2,21,69,8,,,,,,,,,,,,,,,,,,,,,,,,,,,,,,,,,,,,,,,,,,,,,,,,,,,,,,,,,,,,,,,,441.6462976001203,442.0462202001363,442.03026390005834,442.131023599999,442.5323975000065,None,left,1,0.4551748998928815,442.5323975000065,None,442.03026390005834,442.131023599999,442.131023599999,None,443.0144545000512,None,,,,,,,11026,001,2024_Jan_10_1017,ANT,2021.2.3,59.75896816516461,
1,4,no,up,IC,R,,,,,,Block.xlsx,"你已经完成了整个实验（三个区组）。

请报告实验者已完成实验

非常感谢，再见！",50,0,1.5,right,LLRLL.png,,,,,0,1,1,1,2,22,70,3,,,,,,,,,,,,,,,,,,,,,,,,,,,,,,,,,,,,,,,,,,,,,,,,,,,,,,,,,,,,,,,,443.41501740016975,443.8162573999725,443.7998798000626,443.8990391001571,444.30100990016945,None,right,1,0.5104040999431163,444.30100990016945,None,443.7998798000626,443.8990391001571,443.8990391001571,None,444.8336080000736,None,,,,,,,11026,001,2024_Jan_10_1017,ANT,2021.2.3,59.75896816516461,
1,14,center,down,C,R,,,,,,Block.xlsx,"你已经完成了整个实验（三个区组）。

请报告实验者已完成实验

非常感谢，再见！",0,50,-1.5,right,RRRRR.png,,,,,0,1,1,1,2,23,71,13,,,,,,,,,,,,,,,,,,,,,,,,,,,,,,,,,,,,,,,,,,,,,,,,,,,,,,,,,,,,,,,,445.2348734000698,445.63545579998754,445.6185155999847,445.7187475000974,446.1200769999996,None,right,1,0.38764360011555254,446.1200769999996,None,445.6185155999847,445.7187475000974,445.7187475000974,None,446.53631370002404,None,,,,,,,11026,001,2024_Jan_10_1017,ANT,2021.2.3,59.75896816516461,
1,17,spatial,up,C,L,,,,,,Block.xlsx,"你已经完成了整个实验（三个区组）。

请报告实验者已完成实验

非常感谢，再见！",1.5,0,1.5,left,LLLLL.png,,,,,0,1,1,1,3,0,72,16,,,,,,,,,,,,,,,,,,,,,,,,,,,,,,,,,,,,,,,,,,,,,,,,,,,,,,,,,,,,,,,,446.93698660004884,447.3394616001751,447.32123790006153,447.4213549999986,447.82272160006687,None,left,1,0.43719480000436306,447.82272160006687,None,447.32123790006153,447.4213549999986,447.4213549999986,None,448.28902470017783,None,,,,,,,11026,001,2024_Jan_10_1017,ANT,2021.2.3,59.75896816516461,
1,23,spatial,down,IC,L,,,,,,Block.xlsx,"你已经完成了整个实验（三个区组）。

请报告实验者已完成实验

非常感谢，再见！",-1.5,0,-1.5,left,RRLRR.png,,,,,0,1,1,1,3,1,73,22,,,,,,,,,,,,,,,,,,,,,,,,,,,,,,,,,,,,,,,,,,,,,,,,,,,,,,,,,,,,,,,,448.68945790012367,449.0900720001664,449.0745264000725,449.1740372001659,449.5761824999936,None,left,1,0.8435481998603791,449.5761824999936,None,449.0745264000725,449.1740372001659,449.1740372001659,None,450.4421441000886,None,,,,,,,11026,001,2024_Jan_10_1017,ANT,2021.2.3,59.75896816516461,
1,8,no,down,IC,R,,,,,,Block.xlsx,"你已经完成了整个实验（三个区组）。

请报告实验者已完成实验

非常感谢，再见！",50,0,-1.5,right,LLRLL.png,,,,,0,1,1,1,3,2,74,7,,,,,,,,,,,,,,,,,,,,,,,,,,,,,,,,,,,,,,,,,,,,,,,,,,,,,,,,,,,,,,,,450.84340110002086,451.2443846000824,451.22678719996475,451.32752520008944,451.7277899000328,None,right,1,0.555659499950707,451.7277899000328,None,451.22678719996475,451.32752520008944,451.32752520008944,None,452.3122568000108,None,,,,,,,11026,001,2024_Jan_10_1017,ANT,2021.2.3,59.75896816516461,
1,22,spatial,down,C,R,,,,,,Block.xlsx,"你已经完成了整个实验（三个区组）。

请报告实验者已完成实验

非常感谢，再见！",-1.5,0,-1.5,right,RRRRR.png,,,,,0,1,1,1,3,3,75,21,,,,,,,,,,,,,,,,,,,,,,,,,,,,,,,,,,,,,,,,,,,,,,,,,,,,,,,,,,,,,,,,452.712074900046,453.11370730004273,453.09601530013606,453.1958773001097,453.5974817001261,None,right,1,0.3980081002227962,453.5974817001261,None,453.09601530013606,453.1958773001097,453.1958773001097,None,454.0142359000165,None,,,,,,,11026,001,2024_Jan_10_1017,ANT,2021.2.3,59.75896816516461,
1,5,no,down,C,L,,,,,,Block.xlsx,"你已经完成了整个实验（三个区组）。

请报告实验者已完成实验

非常感谢，再见！",50,0,-1.5,left,LLLLL.png,,,,,0,1,1,1,3,4,76,4,,,,,,,,,,,,,,,,,,,,,,,,,,,,,,,,,,,,,,,,,,,,,,,,,,,,,,,,,,,,,,,,454.4146551999729,454.8165967001114,454.7990910001099,454.90005569998175,455.2993586000521,None,left,1,0.5685638000722975,455.2993586000521,None,454.7990910001099,454.90005569998175,454.90005569998175,None,455.8834361000918,None,,,,,,,11026,001,2024_Jan_10_1017,ANT,2021.2.3,59.75896816516461,
1,5,no,down,C,L,,,,,,Block.xlsx,"你已经完成了整个实验（三个区组）。

请报告实验者已完成实验

非常感谢，再见！",50,0,-1.5,left,LLLLL.png,,,,,0,1,1,1,3,5,77,4,,,,,,,,,,,,,,,,,,,,,,,,,,,,,,,,,,,,,,,,,,,,,,,,,,,,,,,,,,,,,,,,456.28413780010305,456.684818000067,456.668464000104,456.7681062000338,457.1686162999831,None,left,1,0.4672920999582857,457.1686162999831,None,456.668464000104,456.7681062000338,456.7681062000338,None,457.6527118999511,None,,,,,,,11026,001,2024_Jan_10_1017,ANT,2021.2.3,59.75896816516461,
1,14,center,down,C,R,,,,,,Block.xlsx,"你已经完成了整个实验（三个区组）。

请报告实验者已完成实验

非常感谢，再见！",0,50,-1.5,right,RRRRR.png,,,,,0,1,1,1,3,6,78,13,,,,,,,,,,,,,,,,,,,,,,,,,,,,,,,,,,,,,,,,,,,,,,,,,,,,,,,,,,,,,,,,458.053327600006,458.4554394001607,458.43728390010074,458.5376828999724,458.93801859999076,None,right,1,0.4495824999175966,458.93801859999076,None,458.43728390010074,458.5376828999724,458.5376828999724,None,459.40539510012604,None,,,,,,,11026,001,2024_Jan_10_1017,ANT,2021.2.3,59.75896816516461,
1,10,center,up,C,R,,,,,,Block.xlsx,"你已经完成了整个实验（三个区组）。

请报告实验者已完成实验

非常感谢，再见！",0,50,1.5,right,RRRRR.png,,,,,0,1,1,1,3,7,79,9,,,,,,,,,,,,,,,,,,,,,,,,,,,,,,,,,,,,,,,,,,,,,,,,,,,,,,,,,,,,,,,,459.8068740000017,460.20939360000193,460.1905362000689,460.2906566001475,460.69243460008875,None,right,1,0.4716556998901069,460.69243460008875,None,460.1905362000689,460.2906566001475,460.2906566001475,None,461.1916368000675,None,,,,,,,11026,001,2024_Jan_10_1017,ANT,2021.2.3,59.75896816516461,
1,4,no,up,IC,R,,,,,,Block.xlsx,"你已经完成了整个实验（三个区组）。

请报告实验者已完成实验

非常感谢，再见！",50,0,1.5,right,LLRLL.png,,,,,0,1,1,1,3,8,80,3,,,,,,,,,,,,,,,,,,,,,,,,,,,,,,,,,,,,,,,,,,,,,,,,,,,,,,,,,,,,,,,,461.5925839000847,461.9928023000248,461.9767754001077,462.07591590005904,462.47751760017127,None,right,1,0.5579874999821186,462.47751760017127,None,461.9767754001077,462.07591590005904,462.07591590005904,None,463.0607825999614,None,,,,,,,11026,001,2024_Jan_10_1017,ANT,2021.2.3,59.75896816516461,
1,6,no,down,C,R,,,,,,Block.xlsx,"你已经完成了整个实验（三个区组）。

请报告实验者已完成实验

非常感谢，再见！",50,0,-1.5,right,RRRRR.png,,,,,0,1,1,1,3,9,81,5,,,,,,,,,,,,,,,,,,,,,,,,,,,,,,,,,,,,,,,,,,,,,,,,,,,,,,,,,,,,,,,,463.4619446999859,463.8637618001085,463.8461144999601,463.9454153999686,464.34678320004605,None,right,1,0.4169839001260698,464.34678320004605,None,463.8461144999601,463.9454153999686,463.9454153999686,None,464.779919099994,None,,,,,,,11026,001,2024_Jan_10_1017,ANT,2021.2.3,59.75896816516461,
1,21,spatial,down,C,L,,,,,,Block.xlsx,"你已经完成了整个实验（三个区组）。

请报告实验者已完成实验

非常感谢，再见！",-1.5,0,-1.5,left,LLLLL.png,,,,,0,1,1,1,3,10,82,20,,,,,,,,,,,,,,,,,,,,,,,,,,,,,,,,,,,,,,,,,,,,,,,,,,,,,,,,,,,,,,,,465.1811934001744,465.5815810000058,465.5656592999585,465.66481270012446,466.06573599996045,None,left,1,0.4098473999183625,466.06573599996045,None,465.5656592999585,465.66481270012446,465.66481270012446,None,466.49920119997114,None,,,,,,,11026,001,2024_Jan_10_1017,ANT,2021.2.3,59.75896816516461,
1,11,center,up,IC,L,,,,,,Block.xlsx,"你已经完成了整个实验（三个区组）。

请报告实验者已完成实验

非常感谢，再见！",0,50,1.5,left,RRLRR.png,,,,,0,1,1,1,3,11,83,10,,,,,,,,,,,,,,,,,,,,,,,,,,,,,,,,,,,,,,,,,,,,,,,,,,,,,,,,,,,,,,,,466.89980889996514,467.3009911000263,467.28536340012215,467.3839510001708,467.78444180008955,None,right,0,0.3710334999486804,467.78444180008955,None,467.28536340012215,467.3839510001708,467.3839510001708,None,468.184961900115,None,,,,,,,11026,001,2024_Jan_10_1017,ANT,2021.2.3,59.75896816516461,
1,22,spatial,down,C,R,,,,,,Block.xlsx,"你已经完成了整个实验（三个区组）。

请报告实验者已完成实验

非常感谢，再见！",-1.5,0,-1.5,right,RRRRR.png,,,,,0,1,1,1,3,12,84,21,,,,,,,,,,,,,,,,,,,,,,,,,,,,,,,,,,,,,,,,,,,,,,,,,,,,,,,,,,,,,,,,468.58563180011697,468.9865959000308,468.96967200003564,469.0696621001698,469.47236660006456,None,right,1,0.41905730008147657,469.47236660006456,None,468.96967200003564,469.0696621001698,469.0696621001698,None,469.9214497001376,None,,,,,,,11026,001,2024_Jan_10_1017,ANT,2021.2.3,59.75896816516461,
1,10,center,up,C,R,,,,,,Block.xlsx,"你已经完成了整个实验（三个区组）。

请报告实验者已完成实验

非常感谢，再见！",0,50,1.5,right,RRRRR.png,,,,,0,1,1,1,3,13,85,9,,,,,,,,,,,,,,,,,,,,,,,,,,,,,,,,,,,,,,,,,,,,,,,,,,,,,,,,,,,,,,,,470.32222700002603,470.7223678000737,470.70654790010303,470.8057836999651,471.2060364000499,None,right,1,0.4295443999581039,471.2060364000499,None,470.70654790010303,470.8057836999651,470.8057836999651,None,471.6575685001444,None,,,,,,,11026,001,2024_Jan_10_1017,ANT,2021.2.3,59.75896816516461,
1,2,no,up,C,R,,,,,,Block.xlsx,"你已经完成了整个实验（三个区组）。

请报告实验者已完成实验

非常感谢，再见！",50,0,1.5,right,RRRRR.png,,,,,0,1,1,1,3,14,86,1,,,,,,,,,,,,,,,,,,,,,,,,,,,,,,,,,,,,,,,,,,,,,,,,,,,,,,,,,,,,,,,,472.0576688000001,472.4580841001589,472.4433310001623,472.54152339999564,472.94287730008364,None,right,1,0.48541199997998774,472.94287730008364,None,472.4433310001623,472.54152339999564,472.54152339999564,None,473.4430309999734,None,,,,,,,11026,001,2024_Jan_10_1017,ANT,2021.2.3,59.75896816516461,
1,1,no,up,C,L,,,,,,Block.xlsx,"你已经完成了整个实验（三个区组）。

请报告实验者已完成实验

非常感谢，再见！",50,0,1.5,left,LLLLL.png,,,,,0,1,1,1,3,15,87,0,,,,,,,,,,,,,,,,,,,,,,,,,,,,,,,,,,,,,,,,,,,,,,,,,,,,,,,,,,,,,,,,473.8435162999667,474.24506160011515,474.227521300083,474.3284024000168,474.7279839999974,None,left,1,0.42771660001017153,474.7279839999974,None,474.227521300083,474.3284024000168,474.3284024000168,None,475.17866960004903,None,,,,,,,11026,001,2024_Jan_10_1017,ANT,2021.2.3,59.75896816516461,
1,18,spatial,up,C,R,,,,,,Block.xlsx,"你已经完成了整个实验（三个区组）。

请报告实验者已完成实验

非常感谢，再见！",1.5,0,1.5,right,RRRRR.png,,,,,0,1,1,1,3,16,88,17,,,,,,,,,,,,,,,,,,,,,,,,,,,,,,,,,,,,,,,,,,,,,,,,,,,,,,,,,,,,,,,,475.579748300137,475.9798624000978,475.9631515000947,476.0635526999831,476.46455070003867,None,right,1,0.3629256000276655,476.46455070003867,None,475.9631515000947,476.0635526999831,476.0635526999831,None,476.84791640006006,None,,,,,,,11026,001,2024_Jan_10_1017,ANT,2021.2.3,59.75896816516461,
1,14,center,down,C,R,,,,,,Block.xlsx,"你已经完成了整个实验（三个区组）。

请报告实验者已完成实验

非常感谢，再见！",0,50,-1.5,right,RRRRR.png,,,,,0,1,1,1,3,17,89,13,,,,,,,,,,,,,,,,,,,,,,,,,,,,,,,,,,,,,,,,,,,,,,,,,,,,,,,,,,,,,,,,477.2484840999823,477.6499420001637,477.6332917001564,477.7335286999587,478.1336930000689,None,right,1,0.526251700008288,478.1336930000689,None,477.6332917001564,477.7335286999587,477.7335286999587,None,478.68393930001184,None,,,,,,,11026,001,2024_Jan_10_1017,ANT,2021.2.3,59.75896816516461,
1,17,spatial,up,C,L,,,,,,Block.xlsx,"你已经完成了整个实验（三个区组）。

请报告实验者已完成实验

非常感谢，再见！",1.5,0,1.5,left,LLLLL.png,,,,,0,1,1,1,3,18,90,16,,,,,,,,,,,,,,,,,,,,,,,,,,,,,,,,,,,,,,,,,,,,,,,,,,,,,,,,,,,,,,,,479.08453790005296,479.4860118001234,479.4692162000574,479.56931499997154,479.97045930009335,None,left,1,0.44926309981383383,479.97045930009335,None,479.4692162000574,479.56931499997154,479.56931499997154,None,480.4365248000249,None,,,,,,,11026,001,2024_Jan_10_1017,ANT,2021.2.3,59.75896816516461,
1,6,no,down,C,R,,,,,,Block.xlsx,"你已经完成了整个实验（三个区组）。

请报告实验者已完成实验

非常感谢，再见！",50,0,-1.5,right,RRRRR.png,,,,,0,1,1,1,3,19,91,5,,,,,,,,,,,,,,,,,,,,,,,,,,,,,,,,,,,,,,,,,,,,,,,,,,,,,,,,,,,,,,,,480.8371331000235,481.23827860015444,481.22112190001644,481.32273170002736,481.7221137001179,None,right,1,0.34561700001358986,481.7221137001179,None,481.22112190001644,481.32273170002736,481.32273170002736,None,482.0888933001552,None,,,,,,,11026,001,2024_Jan_10_1017,ANT,2021.2.3,59.75896816516461,
1,7,no,down,IC,L,,,,,,Block.xlsx,"你已经完成了整个实验（三个区组）。

请报告实验者已完成实验

