TrialType,TrialNumber,WarningType,TargetType,FlankerType,TargetDirection,W,f,Y,corr,imageFile,condition,endtext,Yw,Yf,Yt,Corr,imagefile,trials_3.thisRepN,trials_3.thisTrialN,trials_3.thisN,trials_3.thisIndex,trials_2.thisRepN,trials_2.thisTrialN,trials_2.thisN,trials_2.thisIndex,trials.thisRepN,trials.thisTrialN,trials.thisN,trials.thisIndex,instr.started,instr.stopped,key_resp.keys,key_resp.rt,key_resp.started,key_resp.stopped,image.started,image.stopped,key_resp_6.keys,key_resp_6.rt,key_resp_6.started,key_resp_6.stopped,EX_L.started,EX_L.stopped,AL.started,AL.stopped,key_resp_7.keys,key_resp_7.rt,key_resp_7.started,key_resp_7.stopped,EX_R.started,EX_R.stopped,RR.started,RR.stopped,key_resp_8.keys,key_resp_8.rt,key_resp_8.started,key_resp_8.stopped,image_2.started,image_2.stopped,key_resp_9.keys,key_resp_9.rt,key_resp_9.started,key_resp_9.stopped,image_3.started,image_3.stopped,key_resp_10.keys,key_resp_10.rt,key_resp_10.started,key_resp_10.stopped,fix.started,fix.stopped,war.started,war.stopped,tar.started,tar.stopped,key_resp_4.keys,key_resp_4.corr,key_resp_4.started,key_resp_4.stopped,fix2.started,fix2.stopped,fix_2.started,fix_2.stopped,Feedback.started,Feedback.stopped,key_resp_4.rt,key_resp_2.keys,key_resp_2.rt,key_resp_2.started,key_resp_2.stopped,text_5.started,text_5.stopped,fix2_1.started,fix2_1.stopped,Warn.started,Warn.stopped,Tar.started,Tar.stopped,key_resp_5.keys,key_resp_5.corr,key_resp_5.rt,key_resp_5.started,key_resp_5.stopped,Fix_2.started,Fix_2.stopped,fix2_2.started,fix2_2.stopped,text_4.started,text_4.stopped,key_resp_3.keys,key_resp_3.rt,key_resp_3.started,key_resp_3.stopped,text_3.started,text_3.stopped,participant,session,date,expName,psychopyVersion,frameRate,
,,,,,,,,,,,,,,,,,,,,,,,,,,,,,,8.265284899855033,None,space,3.971940399846062,8.265284899855033,None,,,,,,,,,,,,,,,,,,,,,,,,,,,,,,,,,,,,,,,,,,,,,,,,,,,,,,,,,,,,,,,,,,,,,,,,,,,,,,,,,11033,001,2024_Jan_11_1834,ANT,2021.2.3,60.014571509185,
,,,,,,,,,,,,,,,,,,,,,,,,,,,,,,,,,,,,12.25420739990659,None,space,2.3907711000647396,12.25420739990659,None,,,,,,,,,,,,,,,,,,,,,,,,,,,,,,,,,,,,,,,,,,,,,,,,,,,,,,,,,,,,,,,,,,,,,,,,,,,11033,001,2024_Jan_11_1834,ANT,2021.2.3,60.014571509185,
,,,,,,,,,,,,,,,,,,,,,,,,,,,,,,,,,,,,,,,,,,14.674766999902204,None,14.674766999902204,None,left,5.962615699972957,14.674766999902204,None,,,,,,,,,,,,,,,,,,,,,,,,,,,,,,,,,,,,,,,,,,,,,,,,,,,,,,,,,,,,,,,,,,,11033,001,2024_Jan_11_1834,ANT,2021.2.3,60.014571509185,
,,,,,,,,,,,,,,,,,,,,,,,,,,,,,,,,,,,,,,,,,,,,,,,,,,20.667941899970174,None,20.667941899970174,None,right,0.8247701998334378,20.667941899970174,None,,,,,,,,,,,,,,,,,,,,,,,,,,,,,,,,,,,,,,,,,,,,,,,,,,,,,,,,,,,11033,001,2024_Jan_11_1834,ANT,2021.2.3,60.014571509185,
,,,,,,,,,,,,,,,,,,,,,,,,,,,,,,,,,,,,,,,,,,,,,,,,,,,,,,,,,,21.517828800017014,None,space,7.215234800009057,21.517828800017014,None,,,,,,,,,,,,,,,,,,,,,,,,,,,,,,,,,,,,,,,,,,,,,,,,,,,,,11033,001,2024_Jan_11_1834,ANT,2021.2.3,60.014571509185,
,,,,,,,,,,,,,,,,,,,,,,,,,,,,,,,,,,,,,,,,,,,,,,,,,,,,,,,,,,,,,,,,28.76192560000345,None,space,2.3550408999435604,28.76192560000345,None,,,,,,,,,,,,,,,,,,,,,,,,,,,,,,,,,,,,,,,,,,,,,,,11033,001,2024_Jan_11_1834,ANT,2021.2.3,60.014571509185,
0,6,center,up,IC,R,0,50,1.5,right,LLRLL.png,,,,,,,,0,0,0,5,,,,,,,,,,,,,,,,,,,,,,,,,,,,,,,,,,,,,,,,,,,,,,,,,31.19824059982784,31.600204899907112,31.58358069998212,31.683864899910986,32.08483159984462,None,None,0,32.08483159984462,None,31.58358069998212,31.683864899910986,31.683864899910986,None,33.73602980002761,None,,,,,,,,,,,,,,,,,,,,,,,,,,,,,,,11033,001,2024_Jan_11_1834,ANT,2021.2.3,60.014571509185,
0,11,spatial,down,C,L,-1.5,0,-1.5,left,LLLLL.png,,,,,,,,0,1,1,10,,,,,,,,,,,,,,,,,,,,,,,,,,,,,,,,,,,,,,,,,,,,,,,,,35.73962799995206,36.14014359982684,36.124184399843216,36.223173999926075,36.624477699864656,None,left,1,36.624477699864656,None,36.124184399843216,36.223173999926075,36.223173999926075,None,37.54202239983715,None,0.8764737998135388,,,,,,,,,,,,,,,,,,,,,,,,,,,,,,11033,001,2024_Jan_11_1834,ANT,2021.2.3,60.014571509185,
0,2,no,up,IC,R,50,0,1.5,right,LLRLL.png,,,,,,,,0,2,2,1,,,,,,,,,,,,,,,,,,,,,,,,,,,,,,,,,,,,,,,,,,,,,,,,,39.545587099855766,39.94751719990745,39.929337499896064,40.029503599973395,40.42998369992711,None,right,1,40.42998369992711,None,39.929337499896064,40.029503599973395,40.029503599973395,None,41.09666229994036,None,0.647609599865973,,,,,,,,,,,,,,,,,,,,,,,,,,,,,,11033,001,2024_Jan_11_1834,ANT,2021.2.3,60.014571509185,
0,9,spatial,up,C,R,1.5,0,1.5,right,RRRRR.png,,,,,,,,0,3,3,8,,,,,,,,,,,,,,,,,,,,,,,,,,,,,,,,,,,,,,,,,,,,,,,,,43.099653699900955,43.50164299993776,43.48424809984863,43.5846629999578,43.986774099990726,None,right,1,43.986774099990726,None,43.48424809984863,43.5846629999578,43.5846629999578,None,44.4517893998418,None,0.4420793999452144,,,,,,,,,,,,,,,,,,,,,,,,,,,,,,11033,001,2024_Jan_11_1834,ANT,2021.2.3,60.014571509185,
0,10,spatial,up,IC,L,1.5,0,1.5,left,RRLRR.png,,,,,,,,0,4,4,9,,,,,,,,,,,,,,,,,,,,,,,,,,,,,,,,,,,,,,,,,,,,,,,,,46.455287099815905,46.85696260002442,46.838799600023776,46.940847399877384,47.33956189989112,None,left,1,47.33956189989112,None,46.838799600023776,46.940847399877384,46.940847399877384,None,47.84001939999871,None,0.4811888001859188,,,,,,,,,,,,,,,,,,,,,,,,,,,,,,11033,001,2024_Jan_11_1834,ANT,2021.2.3,60.014571509185,
0,1,no,up,C,L,50,0,1.5,left,LLLLL.png,,,,,,,,0,5,5,0,,,,,,,,,,,,,,,,,,,,,,,,,,,,,,,,,,,,,,,,,,,,,,,,,49.84321129997261,50.244767299853265,50.22820829995908,50.327318700030446,50.72930069989525,None,left,1,50.72930069989525,None,50.22820829995908,50.327318700030446,50.327318700030446,None,51.095068800030276,None,0.3480187999084592,,,,,,,,,,,,,,,,,,,,,,,,,,,,,,11033,001,2024_Jan_11_1834,ANT,2021.2.3,60.014571509185,
0,8,center,down,IC,L,0,50,-1.5,left,RRLRR.png,,,,,,,,0,6,6,7,,,,,,,,,,,,,,,,,,,,,,,,,,,,,,,,,,,,,,,,,,,,,,,,,53.09876299998723,53.49928599991836,53.48268439993262,53.582301599904895,53.983358999947086,None,right,0,53.983358999947086,None,53.48268439993262,53.582301599904895,53.582301599904895,None,54.50030459999107,None,0.49380569998174906,,,,,,,,,,,,,,,,,,,,,,,,,,,,,,11033,001,2024_Jan_11_1834,ANT,2021.2.3,60.014571509185,
0,5,center,up,C,L,0,50,1.5,left,LLLLL.png,,,,,,,,0,7,7,4,,,,,,,,,,,,,,,,,,,,,,,,,,,,,,,,,,,,,,,,,,,,,,,,,56.50390319991857,56.904432100011036,56.887659299885854,56.98787019983865,57.38774030003697,None,left,1,57.38774030003697,None,56.887659299885854,56.98787019983865,56.98787019983865,None,57.80489939986728,None,0.4008994000032544,,,,,,,,,,,,,,,,,,,,,,,,,,,,,,11033,001,2024_Jan_11_1834,ANT,2021.2.3,60.014571509185,
0,12,spatial,down,IC,R,-1.5,0,-1.5,right,LLRLL.png,,,,,,,,0,8,8,11,,,,,,,,,,,,,,,,,,,,,,,,,,,,,,,,,,,,,,,,,,,,,,,,,59.8080640998669,60.2095039000269,60.19183289981447,60.29364990000613,60.69355549989268,None,right,1,60.69355549989268,None,60.19183289981447,60.29364990000613,60.29364990000613,None,61.126522899838164,None,0.40725890011526644,,,,,,,,,,,,,,,,,,,,,,,,,,,,,,11033,001,2024_Jan_11_1834,ANT,2021.2.3,60.014571509185,
0,3,no,down,C,R,50,0,-1.5,right,RRRRR.png,,,,,,,,0,9,9,2,,,,,,,,,,,,,,,,,,,,,,,,,,,,,,,,,,,,,,,,,,,,,,,,,63.12960929982364,63.530290900031105,63.5139737999998,63.614785299869254,64.01565669989213,None,right,1,64.01565669989213,None,63.5139737999998,63.614785299869254,63.614785299869254,None,64.39807150000706,None,0.35694080009125173,,,,,,,,,,,,,,,,,,,,,,,,,,,,,,11033,001,2024_Jan_11_1834,ANT,2021.2.3,60.014571509185,
0,4,no,down,IC,L,50,0,-1.5,left,RRLRR.png,,,,,,,,0,10,10,3,,,,,,,,,,,,,,,,,,,,,,,,,,,,,,,,,,,,,,,,,,,,,,,,,66.40219679987058,66.80255159991793,66.78503759996966,66.8858309998177,67.28700140002184,None,right,0,67.28700140002184,None,66.78503759996966,66.8858309998177,66.8858309998177,None,67.65278350003064,None,0.3417609999887645,,,,,,,,,,,,,,,,,,,,,,,,,,,,,,11033,001,2024_Jan_11_1834,ANT,2021.2.3,60.014571509185,
0,7,center,down,C,R,0,50,-1.5,right,RRRRR.png,,,,,,,,0,11,11,6,,,,,,,,,,,,,,,,,,,,,,,,,,,,,,,,,,,,,,,,,,,,,,,,,69.6567689999938,70.05693259998225,70.0410292998422,70.14187699998729,70.54050390003249,None,right,1,70.54050390003249,None,70.0410292998422,70.14187699998729,70.14187699998729,None,71.04115099995397,None,0.4800935999955982,,,,,,,,,,,,,,,,,,,,,,,,,,,,,,11033,001,2024_Jan_11_1834,ANT,2021.2.3,60.014571509185,
,,,,,,,,,,,,,,,,,,,,,,,,,,,,,,,,,,,,,,,,,,,,,,,,,,,,,,,,,,,,,,,,,,,,,,,,,,,,,,,,,,,,,,,space,11.207991099916399,73.04493639990687,None,,,,,,,,,,,,,,,,,,,,,,,,,,11033,001,2024_Jan_11_1834,ANT,2021.2.3,60.014571509185,
1,1,no,up,C,L,,,,,,Block.xlsx,"你已经完成了第一个实验区组

请稍作休息


点击空格键进入下一个区组。",50,0,1.5,left,LLLLL.png,,,,,0,0,0,0,0,0,0,0,,,,,,,,,,,,,,,,,,,,,,,,,,,,,,,,,,,,,,,,,,,,,,,,,,,,,,,,,,,,,,73.04493639990687,None,84.31172030000016,84.71274099987932,84.69522270001471,84.79686530004255,85.19643559982069,None,left,1,0.5448268000036478,85.19643559982069,None,84.69522270001471,84.79686530004255,84.79686530004255,None,85.7631545998156,None,,,,,,,11033,001,2024_Jan_11_1834,ANT,2021.2.3,60.014571509185,
1,20,spatial,up,IC,R,,,,,,Block.xlsx,"你已经完成了第一个实验区组

请稍作休息


点击空格键进入下一个区组。",1.5,0,1.5,right,LLRLL.png,,,,,0,0,0,0,0,1,1,19,,,,,,,,,,,,,,,,,,,,,,,,,,,,,,,,,,,,,,,,,,,,,,,,,,,,,,,,,,,,,,,,86.16372179985046,86.56546309986152,86.54876869986765,86.64771759998985,87.04891519993544,None,right,1,0.45190509990788996,87.04891519993544,None,86.54876869986765,86.64771759998985,86.64771759998985,None,87.53240769985132,None,,,,,,,11033,001,2024_Jan_11_1834,ANT,2021.2.3,60.014571509185,
1,18,spatial,up,C,R,,,,,,Block.xlsx,"你已经完成了第一个实验区组

请稍作休息


点击空格键进入下一个区组。",1.5,0,1.5,right,RRRRR.png,,,,,0,0,0,0,0,2,2,17,,,,,,,,,,,,,,,,,,,,,,,,,,,,,,,,,,,,,,,,,,,,,,,,,,,,,,,,,,,,,,,,87.9335437999107,88.33431379985996,88.31755769997835,88.41851879982278,88.81920599984005,None,right,1,0.3538669999688864,88.81920599984005,None,88.31755769997835,88.41851879982278,88.41851879982278,None,89.20165429986082,None,,,,,,,11033,001,2024_Jan_11_1834,ANT,2021.2.3,60.014571509185,
1,21,spatial,down,C,L,,,,,,Block.xlsx,"你已经完成了第一个实验区组

请稍作休息


点击空格键进入下一个区组。",-1.5,0,-1.5,left,LLLLL.png,,,,,0,0,0,0,0,3,3,20,,,,,,,,,,,,,,,,,,,,,,,,,,,,,,,,,,,,,,,,,,,,,,,,,,,,,,,,,,,,,,,,89.602918199962,90.00473819999024,89.98634059983306,90.08667809981853,90.48752409988083,None,left,1,0.3899371000006795,90.48752409988083,None,89.98634059983306,90.08667809981853,90.08667809981853,None,90.904070999939,None,,,,,,,11033,001,2024_Jan_11_1834,ANT,2021.2.3,60.014571509185,
1,11,center,up,IC,L,,,,,,Block.xlsx,"你已经完成了第一个实验区组

请稍作休息


点击空格键进入下一个区组。",0,50,1.5,left,RRLRR.png,,,,,0,0,0,0,0,4,4,10,,,,,,,,,,,,,,,,,,,,,,,,,,,,,,,,,,,,,,,,,,,,,,,,,,,,,,,,,,,,,,,,91.3048806998413,91.70587920001708,91.6899957000278,91.80746249994263,92.18998829997145,None,right,0,0.31075299996882677,92.18998829997145,None,91.6899957000278,91.80746249994263,91.78927890001796,None,92.52315200003795,None,,,,,,,11033,001,2024_Jan_11_1834,ANT,2021.2.3,60.014571509185,
1,24,spatial,down,IC,R,,,,,,Block.xlsx,"你已经完成了第一个实验区组

请稍作休息


点击空格键进入下一个区组。",-1.5,0,-1.5,right,LLRLL.png,,,,,0,0,0,0,0,5,5,23,,,,,,,,,,,,,,,,,,,,,,,,,,,,,,,,,,,,,,,,,,,,,,,,,,,,,,,,,,,,,,,,92.92360119987279,93.32502039987594,93.30851499992423,93.4084991000127,93.80879499996081,None,right,1,0.38814330007880926,93.80879499996081,None,93.30851499992423,93.4084991000127,93.4084991000127,None,94.22635809984058,None,,,,,,,11033,001,2024_Jan_11_1834,ANT,2021.2.3,60.014571509185,
1,17,spatial,up,C,L,,,,,,Block.xlsx,"你已经完成了第一个实验区组

请稍作休息


点击空格键进入下一个区组。",1.5,0,1.5,left,LLLLL.png,,,,,0,0,0,0,0,6,6,16,,,,,,,,,,,,,,,,,,,,,,,,,,,,,,,,,,,,,,,,,,,,,,,,,,,,,,,,,,,,,,,,94.62628209986724,95.02757529984228,95.01137969992124,95.1115748998709,95.51248669996858,None,left,1,0.3493585998658091,95.51248669996858,None,95.01137969992124,95.1115748998709,95.1115748998709,None,95.87824620003812,None,,,,,,,11033,001,2024_Jan_11_1834,ANT,2021.2.3,60.014571509185,
1,6,no,down,C,R,,,,,,Block.xlsx,"你已经完成了第一个实验区组

请稍作休息


点击空格键进入下一个区组。",50,0,-1.5,right,RRRRR.png,,,,,0,0,0,0,0,7,7,5,,,,,,,,,,,,,,,,,,,,,,,,,,,,,,,,,,,,,,,,,,,,,,,,,,,,,,,,,,,,,,,,96.2798917000182,96.67962890001945,96.66309149982408,96.76346869999543,97.16537499986589,None,right,1,0.5115874002221972,97.16537499986589,None,96.66309149982408,96.76346869999543,96.76346869999543,None,97.69738069991581,None,,,,,,,11033,001,2024_Jan_11_1834,ANT,2021.2.3,60.014571509185,
1,14,center,down,C,R,,,,,,Block.xlsx,"你已经完成了第一个实验区组

请稍作休息


点击空格键进入下一个区组。",0,50,-1.5,right,RRRRR.png,,,,,0,0,0,0,0,8,8,13,,,,,,,,,,,,,,,,,,,,,,,,,,,,,,,,,,,,,,,,,,,,,,,,,,,,,,,,,,,,,,,,98.09799339994788,98.49994020001031,98.48257380002178,98.58319299994037,98.98339429986663,None,right,1,0.37386579997837543,98.98339429986663,None,98.48257380002178,98.58319299994037,98.58319299994037,None,99.3831680000294,None,,,,,,,11033,001,2024_Jan_11_1834,ANT,2021.2.3,60.014571509185,
1,23,spatial,down,IC,L,,,,,,Block.xlsx,"你已经完成了第一个实验区组

请稍作休息


点击空格键进入下一个区组。",-1.5,0,-1.5,left,RRLRR.png,,,,,0,0,0,0,0,9,9,22,,,,,,,,,,,,,,,,,,,,,,,,,,,,,,,,,,,,,,,,,,,,,,,,,,,,,,,,,,,,,,,,99.78434459981509,100.18526069982909,100.16860149987042,100.2685236998368,100.6685597000178,None,right,0,0.31261100014671683,100.6685597000178,None,100.16860149987042,100.2685236998368,100.2685236998368,None,101.00242339982651,None,,,,,,,11033,001,2024_Jan_11_1834,ANT,2021.2.3,60.014571509185,
1,3,no,up,IC,L,,,,,,Block.xlsx,"你已经完成了第一个实验区组

请稍作休息


点击空格键进入下一个区组。",50,0,1.5,left,RRLRR.png,,,,,0,0,0,0,0,10,10,2,,,,,,,,,,,,,,,,,,,,,,,,,,,,,,,,,,,,,,,,,,,,,,,,,,,,,,,,,,,,,,,,101.4036000999622,101.80424179998226,101.7880029999651,101.88869289983995,102.28832059982233,None,left,1,0.6847526000346988,102.28832059982233,None,101.7880029999651,101.88869289983995,101.88869289983995,None,102.98892329982482,None,,,,,,,11033,001,2024_Jan_11_1834,ANT,2021.2.3,60.014571509185,
1,14,center,down,C,R,,,,,,Block.xlsx,"你已经完成了第一个实验区组

请稍作休息


点击空格键进入下一个区组。",0,50,-1.5,right,RRRRR.png,,,,,0,0,0,0,0,11,11,13,,,,,,,,,,,,,,,,,,,,,,,,,,,,,,,,,,,,,,,,,,,,,,,,,,,,,,,,,,,,,,,,103.38923339988105,103.79082809993997,103.77415549987927,103.873351899907,104.27583729987964,None,right,1,0.4409453999251127,104.27583729987964,None,103.77415549987927,103.873351899907,103.873351899907,None,104.74114529998042,None,,,,,,,11033,001,2024_Jan_11_1834,ANT,2021.2.3,60.014571509185,
1,23,spatial,down,IC,L,,,,,,Block.xlsx,"你已经完成了第一个实验区组

请稍作休息


点击空格键进入下一个区组。",-1.5,0,-1.5,left,RRLRR.png,,,,,0,0,0,0,0,12,12,22,,,,,,,,,,,,,,,,,,,,,,,,,,,,,,,,,,,,,,,,,,,,,,,,,,,,,,,,,,,,,,,,105.14265639986843,105.54305420001037,105.52728949999437,105.62678059982136,106.02777189994231,None,left,1,0.45709220017306507,106.02777189994231,None,105.52728949999437,105.62678059982136,105.62678059982136,None,106.51127159991302,None,,,,,,,11033,001,2024_Jan_11_1834,ANT,2021.2.3,60.014571509185,
1,11,center,up,IC,L,,,,,,Block.xlsx,"你已经完成了第一个实验区组

请稍作休息


点击空格键进入下一个区组。",0,50,1.5,left,RRLRR.png,,,,,0,0,0,0,0,13,13,10,,,,,,,,,,,,,,,,,,,,,,,,,,,,,,,,,,,,,,,,,,,,,,,,,,,,,,,,,,,,,,,,106.91124079981819,107.31316639995202,107.29568440001458,107.39527929993346,107.79661579988897,None,left,1,0.5525075998157263,107.79661579988897,None,107.29568440001458,107.39527929993346,107.39527929993346,None,108.38010209985077,None,,,,,,,11033,001,2024_Jan_11_1834,ANT,2021.2.3,60.014571509185,
1,8,no,down,IC,R,,,,,,Block.xlsx,"你已经完成了第一个实验区组

请稍作休息


点击空格键进入下一个区组。",50,0,-1.5,right,LLRLL.png,,,,,0,0,0,0,0,14,14,7,,,,,,,,,,,,,,,,,,,,,,,,,,,,,,,,,,,,,,,,,,,,,,,,,,,,,,,,,,,,,,,,108.78186749992892,109.18194289994426,109.16517299995758,109.26541289989837,109.66708719986491,None,right,1,0.4819322000257671,109.66708719986491,None,109.16517299995758,109.26541289989837,109.26541289989837,None,110.16594969993457,None,,,,,,,11033,001,2024_Jan_11_1834,ANT,2021.2.3,60.014571509185,
1,7,no,down,IC,L,,,,,,Block.xlsx,"你已经完成了第一个实验区组

请稍作休息


点击空格键进入下一个区组。",50,0,-1.5,left,RRLRR.png,,,,,0,0,0,0,0,15,15,6,,,,,,,,,,,,,,,,,,,,,,,,,,,,,,,,,,,,,,,,,,,,,,,,,,,,,,,,,,,,,,,,110.56654839986004,110.96714970003814,110.95139509998262,111.05126319988631,111.45283229998313,None,left,1,0.528340500080958,111.45283229998313,None,110.95139509998262,111.05126319988631,111.05126319988631,None,112.00199619983323,None,,,,,,,11033,001,2024_Jan_11_1834,ANT,2021.2.3,60.014571509185,
1,19,spatial,up,IC,L,,,,,,Block.xlsx,"你已经完成了第一个实验区组

请稍作休息


点击空格键进入下一个区组。",1.5,0,1.5,left,RRLRR.png,,,,,0,0,0,0,0,16,16,18,,,,,,,,,,,,,,,,,,,,,,,,,,,,,,,,,,,,,,,,,,,,,,,,,,,,,,,,,,,,,,,,112.40258679981343,112.80321729998104,112.78902080003172,112.90397099987604,113.28788860002533,None,left,1,0.37316940003074706,113.28788860002533,None,112.78902080003172,112.90397099987604,112.88802329986356,None,113.6877829998266,None,,,,,,,11033,001,2024_Jan_11_1834,ANT,2021.2.3,60.014571509185,
1,6,no,down,C,R,,,,,,Block.xlsx,"你已经完成了第一个实验区组

请稍作休息


点击空格键进入下一个区组。",50,0,-1.5,right,RRRRR.png,,,,,0,0,0,0,0,17,17,5,,,,,,,,,,,,,,,,,,,,,,,,,,,,,,,,,,,,,,,,,,,,,,,,,,,,,,,,,,,,,,,,114.08870329987258,114.49047169997357,114.47275149985217,114.57395219989121,114.97370189987123,None,right,1,0.39996199985034764,114.97370189987123,None,114.47275149985217,114.57395219989121,114.57395219989121,None,115.39029129990377,None,,,,,,,11033,001,2024_Jan_11_1834,ANT,2021.2.3,60.014571509185,
1,2,no,up,C,R,,,,,,Block.xlsx,"你已经完成了第一个实验区组

请稍作休息


点击空格键进入下一个区组。",50,0,1.5,right,RRRRR.png,,,,,0,0,0,0,0,18,18,1,,,,,,,,,,,,,,,,,,,,,,,,,,,,,,,,,,,,,,,,,,,,,,,,,,,,,,,,,,,,,,,,115.79158059996553,116.19222579989582,116.17551729991101,116.27570099988952,116.6762476998847,None,right,1,0.42503500008024275,116.6762476998847,None,116.17551729991101,116.27570099988952,116.27570099988952,None,117.12658089981414,None,,,,,,,11033,001,2024_Jan_11_1834,ANT,2021.2.3,60.014571509185,
1,4,no,up,IC,R,,,,,,Block.xlsx,"你已经完成了第一个实验区组

请稍作休息


点击空格键进入下一个区组。",50,0,1.5,right,LLRLL.png,,,,,0,0,0,0,0,19,19,3,,,,,,,,,,,,,,,,,,,,,,,,,,,,,,,,,,,,,,,,,,,,,,,,,,,,,,,,,,,,,,,,117.52675600000657,117.92851819982752,117.9126782999374,118.02951529994607,118.41276329988614,None,left,0,0.5442413999699056,118.41276329988614,None,117.9126782999374,118.02951529994607,118.0125406999141,None,118.97889999998733,None,,,,,,,11033,001,2024_Jan_11_1834,ANT,2021.2.3,60.014571509185,
1,22,spatial,down,C,R,,,,,,Block.xlsx,"你已经完成了第一个实验区组

请稍作休息


点击空格键进入下一个区组。",-1.5,0,-1.5,right,RRRRR.png,,,,,0,0,0,0,0,20,20,21,,,,,,,,,,,,,,,,,,,,,,,,,,,,,,,,,,,,,,,,,,,,,,,,,,,,,,,,,,,,,,,,119.37975730001926,119.78073429991491,119.7637447998859,119.86566469981335,120.26480929995887,None,right,1,0.4842833001166582,120.26480929995887,None,119.7637447998859,119.86566469981335,119.86566469981335,None,120.76500809984282,None,,,,,,,11033,001,2024_Jan_11_1834,ANT,2021.2.3,60.014571509185,
1,4,no,up,IC,R,,,,,,Block.xlsx,"你已经完成了第一个实验区组

请稍作休息


点击空格键进入下一个区组。",50,0,1.5,right,LLRLL.png,,,,,0,0,0,0,0,21,21,3,,,,,,,,,,,,,,,,,,,,,,,,,,,,,,,,,,,,,,,,,,,,,,,,,,,,,,,,,,,,,,,,121.16619689995423,121.56704630004242,121.55068779992871,121.65149990003556,122.05076689994894,None,right,1,0.530534700024873,122.05076689994894,None,121.55068779992871,121.65149990003556,121.65149990003556,None,122.60107979993336,None,,,,,,,11033,001,2024_Jan_11_1834,ANT,2021.2.3,60.014571509185,
1,5,no,down,C,L,,,,,,Block.xlsx,"你已经完成了第一个实验区组

请稍作休息


点击空格键进入下一个区组。",50,0,-1.5,left,LLLLL.png,,,,,0,0,0,0,0,22,22,4,,,,,,,,,,,,,,,,,,,,,,,,,,,,,,,,,,,,,,,,,,,,,,,,,,,,,,,,,,,,,,,,123.00158199993894,123.40362949995324,123.38679599994794,123.48743329988793,123.88705709995702,None,left,1,0.3899253001436591,123.88705709995702,None,123.38679599994794,123.48743329988793,123.48743329988793,None,124.30354100000113,None,,,,,,,11033,001,2024_Jan_11_1834,ANT,2021.2.3,60.014571509185,
1,13,center,down,C,L,,,,,,Block.xlsx,"你已经完成了第一个实验区组

请稍作休息


点击空格键进入下一个区组。",0,50,-1.5,left,LLLLL.png,,,,,0,0,0,0,0,23,23,12,,,,,,,,,,,,,,,,,,,,,,,,,,,,,,,,,,,,,,,,,,,,,,,,,,,,,,,,,,,,,,,,124.70423499983735,125.10471299989149,125.08822239981964,125.18888499983586,125.5909673999995,None,left,1,0.5179759000893682,125.5909673999995,None,125.08822239981964,125.18888499983586,125.18888499983586,None,126.13948829984292,None,,,,,,,11033,001,2024_Jan_11_1834,ANT,2021.2.3,60.014571509185,
1,13,center,down,C,L,,,,,,Block.xlsx,"你已经完成了第一个实验区组

请稍作休息


点击空格键进入下一个区组。",0,50,-1.5,left,LLLLL.png,,,,,0,0,0,0,1,0,24,12,,,,,,,,,,,,,,,,,,,,,,,,,,,,,,,,,,,,,,,,,,,,,,,,,,,,,,,,,,,,,,,,126.5410195000004,126.94143819995224,126.92532129981555,127.02494359994307,127.42582629993558,None,left,1,0.4518132000230253,127.42582629993558,None,126.92532129981555,127.02494359994307,127.02494359994307,None,127.89219589997083,None,,,,,,,11033,001,2024_Jan_11_1834,ANT,2021.2.3,60.014571509185,
1,6,no,down,C,R,,,,,,Block.xlsx,"你已经完成了第一个实验区组

请稍作休息


点击空格键进入下一个区组。",50,0,-1.5,right,RRRRR.png,,,,,0,0,0,0,1,1,25,5,,,,,,,,,,,,,,,,,,,,,,,,,,,,,,,,,,,,,,,,,,,,,,,,,,,,,,,,,,,,,,,,128.2937401998788,128.6955030998215,128.67694019991904,128.77806509984657,129.1780196998734,None,right,1,0.45182289998047054,129.1780196998734,None,128.67694019991904,128.77806509984657,128.77806509984657,None,129.6455699999351,None,,,,,,,11033,001,2024_Jan_11_1834,ANT,2021.2.3,60.014571509185,
1,8,no,down,IC,R,,,,,,Block.xlsx,"你已经完成了第一个实验区组

请稍作休息


点击空格键进入下一个区组。",50,0,-1.5,right,LLRLL.png,,,,,0,0,0,0,1,2,26,7,,,,,,,,,,,,,,,,,,,,,,,,,,,,,,,,,,,,,,,,,,,,,,,,,,,,,,,,,,,,,,,,130.04544149991125,130.4465035998728,130.43113409983926,130.53016499988735,130.9307944998145,None,right,1,0.5626068999990821,130.9307944998145,None,130.43113409983926,130.53016499988735,130.53016499988735,None,131.5141372999642,None,,,,,,,11033,001,2024_Jan_11_1834,ANT,2021.2.3,60.014571509185,
1,21,spatial,down,C,L,,,,,,Block.xlsx,"你已经完成了第一个实验区组

请稍作休息


点击空格键进入下一个区组。",-1.5,0,-1.5,left,LLLLL.png,,,,,0,0,0,0,1,3,27,20,,,,,,,,,,,,,,,,,,,,,,,,,,,,,,,,,,,,,,,,,,,,,,,,,,,,,,,,,,,,,,,,131.91481489990838,132.31636359984986,132.29947549989447,132.39907059981488,132.80022670002654,None,left,1,0.39704050007276237,132.80022670002654,None,132.29947549989447,132.39907059981488,132.39907059981488,None,133.2167610998731,None,,,,,,,11033,001,2024_Jan_11_1834,ANT,2021.2.3,60.014571509185,
1,12,center,up,IC,R,,,,,,Block.xlsx,"你已经完成了第一个实验区组

请稍作休息


点击空格键进入下一个区组。",0,50,1.5,right,LLRLL.png,,,,,0,0,0,0,1,4,28,11,,,,,,,,,,,,,,,,,,,,,,,,,,,,,,,,,,,,,,,,,,,,,,,,,,,,,,,,,,,,,,,,133.61755730002187,134.01918799988925,134.00195969990455,134.1020682998933,134.5021108998917,None,left,0,0.4153144999872893,134.5021108998917,None,134.00195969990455,134.1020682998933,134.1020682998933,None,134.9362778000068,None,,,,,,,11033,001,2024_Jan_11_1834,ANT,2021.2.3,60.014571509185,
1,20,spatial,up,IC,R,,,,,,Block.xlsx,"你已经完成了第一个实验区组

请稍作休息


点击空格键进入下一个区组。",1.5,0,1.5,right,LLRLL.png,,,,,0,0,0,0,1,5,29,19,,,,,,,,,,,,,,,,,,,,,,,,,,,,,,,,,,,,,,,,,,,,,,,,,,,,,,,,,,,,,,,,135.3377873999998,135.7396503998898,135.72163569997065,135.82121469988488,136.22348659997806,None,right,1,0.5823504999279976,136.22348659997806,None,135.72163569997065,135.82121469988488,135.82121469988488,None,136.82204100000672,None,,,,,,,11033,001,2024_Jan_11_1834,ANT,2021.2.3,60.014571509185,
1,10,center,up,C,R,,,,,,Block.xlsx,"你已经完成了第一个实验区组

请稍作休息


点击空格键进入下一个区组。",0,50,1.5,right,RRRRR.png,,,,,0,0,0,0,1,6,30,9,,,,,,,,,,,,,,,,,,,,,,,,,,,,,,,,,,,,,,,,,,,,,,,,,,,,,,,,,,,,,,,,137.22274150000885,137.62331009982154,137.607267400017,137.708806599956,138.10859239986166,None,right,1,0.45626890007406473,138.10859239986166,None,137.607267400017,137.708806599956,137.708806599956,None,138.59135399991646,None,,,,,,,11033,001,2024_Jan_11_1834,ANT,2021.2.3,60.014571509185,
1,16,center,down,IC,R,,,,,,Block.xlsx,"你已经完成了第一个实验区组

请稍作休息


点击空格键进入下一个区组。",0,50,-1.5,right,LLRLL.png,,,,,0,0,0,0,1,7,31,15,,,,,,,,,,,,,,,,,,,,,,,,,,,,,,,,,,,,,,,,,,,,,,,,,,,,,,,,,,,,,,,,138.99270479986444,139.39245359995402,139.37625259999186,139.4772991000209,139.87649059994146,None,right,1,0.5445856000296772,139.87649059994146,None,139.37625259999186,139.4772991000209,139.4772991000209,None,140.4440943999216,None,,,,,,,11033,001,2024_Jan_11_1834,ANT,2021.2.3,60.014571509185,
1,15,center,down,IC,L,,,,,,Block.xlsx,"你已经完成了第一个实验区组

请稍作休息


点击空格键进入下一个区组。",0,50,-1.5,left,RRLRR.png,,,,,0,0,0,0,1,8,32,14,,,,,,,,,,,,,,,,,,,,,,,,,,,,,,,,,,,,,,,,,,,,,,,,,,,,,,,,,,,,,,,,140.844757999992,141.24524630000815,141.2299980998505,141.32977129984647,141.72988919983618,None,left,1,0.5154513998422772,141.72988919983618,None,141.2299980998505,141.32977129984647,141.32977129984647,None,142.26465459982865,None,,,,,,,11033,001,2024_Jan_11_1834,ANT,2021.2.3,60.014571509185,
1,21,spatial,down,C,L,,,,,,Block.xlsx,"你已经完成了第一个实验区组

请稍作休息


点击空格键进入下一个区组。",-1.5,0,-1.5,left,LLLLL.png,,,,,0,0,0,0,1,9,33,20,,,,,,,,,,,,,,,,,,,,,,,,,,,,,,,,,,,,,,,,,,,,,,,,,,,,,,,,,,,,,,,,142.6641007999424,143.06694439984858,143.04841589997523,143.1487815999426,143.54964270000346,None,left,1,0.3758970000781119,143.54964270000346,None,143.04841589997523,143.1487815999426,143.1487815999426,None,143.94915489992127,None,,,,,,,11033,001,2024_Jan_11_1834,ANT,2021.2.3,60.014571509185,
1,1,no,up,C,L,,,,,,Block.xlsx,"你已经完成了第一个实验区组

请稍作休息


点击空格键进入下一个区组。",50,0,1.5,left,LLLLL.png,,,,,0,0,0,0,1,10,34,0,,,,,,,,,,,,,,,,,,,,,,,,,,,,,,,,,,,,,,,,,,,,,,,,,,,,,,,,,,,,,,,,144.349976999918,144.7504278998822,144.7353674999904,144.8347718999721,145.23593299998902,None,left,1,0.5055420999415219,145.23593299998902,None,144.7353674999904,144.8347718999721,144.8347718999721,None,145.76865089987405,None,,,,,,,11033,001,2024_Jan_11_1834,ANT,2021.2.3,60.014571509185,
1,4,no,up,IC,R,,,,,,Block.xlsx,"你已经完成了第一个实验区组

请稍作休息


点击空格键进入下一个区组。",50,0,1.5,right,LLRLL.png,,,,,0,0,0,0,1,11,35,3,,,,,,,,,,,,,,,,,,,,,,,,,,,,,,,,,,,,,,,,,,,,,,,,,,,,,,,,,,,,,,,,146.16982589988038,146.57054999982938,146.55429590004496,146.65397969982587,147.05453109997325,None,right,1,0.5263411998748779,147.05453109997325,None,146.55429590004496,146.65397969982587,146.65397969982587,None,147.60472159995697,None,,,,,,,11033,001,2024_Jan_11_1834,ANT,2021.2.3,60.014571509185,
1,16,center,down,IC,R,,,,,,Block.xlsx,"你已经完成了第一个实验区组

请稍作休息


点击空格键进入下一个区组。",0,50,-1.5,right,LLRLL.png,,,,,0,0,0,0,1,12,36,15,,,,,,,,,,,,,,,,,,,,,,,,,,,,,,,,,,,,,,,,,,,,,,,,,,,,,,,,,,,,,,,,148.00540649984032,148.40653369994834,148.38947639986873,148.4904744999949,148.89002699987032,None,right,1,0.4674925999715924,148.89002699987032,None,148.38947639986873,148.4904744999949,148.4904744999949,None,149.37394630000927,None,,,,,,,11033,001,2024_Jan_11_1834,ANT,2021.2.3,60.014571509185,
1,15,center,down,IC,L,,,,,,Block.xlsx,"你已经完成了第一个实验区组

请稍作休息


点击空格键进入下一个区组。",0,50,-1.5,left,RRLRR.png,,,,,0,0,0,0,1,13,37,14,,,,,,,,,,,,,,,,,,,,,,,,,,,,,,,,,,,,,,,,,,,,,,,,,,,,,,,,,,,,,,,,149.7745540998876,150.17667039996013,150.15844130003825,150.2590343998745,150.65977619984187,None,right,0,0.41816819994710386,150.65977619984187,None,150.15844130003825,150.2590343998745,150.2590343998745,None,151.09299539984204,None,,,,,,,11033,001,2024_Jan_11_1834,ANT,2021.2.3,60.014571509185,
1,5,no,down,C,L,,,,,,Block.xlsx,"你已经完成了第一个实验区组

请稍作休息


点击空格键进入下一个区组。",50,0,-1.5,left,LLLLL.png,,,,,0,0,0,0,1,14,38,4,,,,,,,,,,,,,,,,,,,,,,,,,,,,,,,,,,,,,,,,,,,,,,,,,,,,,,,,,,,,,,,,151.49492239998654,151.89508349983953,151.87904779985547,151.9784205998294,152.3790368998889,None,left,1,0.6096909001935273,152.3790368998889,None,151.87904779985547,151.9784205998294,151.9784205998294,None,153.0127750998363,None,,,,,,,11033,001,2024_Jan_11_1834,ANT,2021.2.3,60.014571509185,
1,11,center,up,IC,L,,,,,,Block.xlsx,"你已经完成了第一个实验区组

请稍作休息


点击空格键进入下一个区组。",0,50,1.5,left,RRLRR.png,,,,,0,0,0,0,1,15,39,10,,,,,,,,,,,,,,,,,,,,,,,,,,,,,,,,,,,,,,,,,,,,,,,,,,,,,,,,,,,,,,,,153.41418239986524,153.81466969987378,153.79776740004309,153.89870829996653,154.29868669994175,None,left,1,0.6184052999597043,154.29868669994175,None,153.79776740004309,153.89870829996653,153.89870829996653,None,154.93297159997746,None,,,,,,,11033,001,2024_Jan_11_1834,ANT,2021.2.3,60.014571509185,
1,8,no,down,IC,R,,,,,,Block.xlsx,"你已经完成了第一个实验区组

请稍作休息


点击空格键进入下一个区组。",50,0,-1.5,right,LLRLL.png,,,,,0,0,0,0,1,16,40,7,,,,,,,,,,,,,,,,,,,,,,,,,,,,,,,,,,,,,,,,,,,,,,,,,,,,,,,,,,,,,,,,155.33274389989674,155.73373840004206,155.71839299984276,155.83404290000908,156.2197242998518,None,right,1,0.5693270000629127,156.2197242998518,None,155.71839299984276,155.83404290000908,155.81822160002775,None,156.8184833000414,None,,,,,,,11033,001,2024_Jan_11_1834,ANT,2021.2.3,60.014571509185,
1,23,spatial,down,IC,L,,,,,,Block.xlsx,"你已经完成了第一个实验区组

请稍作休息


点击空格键进入下一个区组。",-1.5,0,-1.5,left,RRLRR.png,,,,,0,0,0,0,1,17,41,22,,,,,,,,,,,,,,,,,,,,,,,,,,,,,,,,,,,,,,,,,,,,,,,,,,,,,,,,,,,,,,,,157.2190828998573,157.6196784998756,157.60436540003866,157.70390650001355,158.1054928000085,None,left,1,0.46759609994478524,158.1054928000085,None,157.60436540003866,157.70390650001355,157.70390650001355,None,158.58807159983553,None,,,,,,,11033,001,2024_Jan_11_1834,ANT,2021.2.3,60.014571509185,
1,10,center,up,C,R,,,,,,Block.xlsx,"你已经完成了第一个实验区组

请稍作休息


点击空格键进入下一个区组。",0,50,1.5,right,RRRRR.png,,,,,0,0,0,0,1,18,42,9,,,,,,,,,,,,,,,,,,,,,,,,,,,,,,,,,,,,,,,,,,,,,,,,,,,,,,,,,,,,,,,,158.989163500024,159.39078049990349,159.3722147999797,159.47489889990538,159.87372359982692,None,right,1,0.4591433999594301,159.87372359982692,None,159.3722147999797,159.47489889990538,159.47489889990538,None,160.35759279993363,None,,,,,,,11033,001,2024_Jan_11_1834,ANT,2021.2.3,60.014571509185,
1,2,no,up,C,R,,,,,,Block.xlsx,"你已经完成了第一个实验区组

请稍作休息


点击空格键进入下一个区组。",50,0,1.5,right,RRRRR.png,,,,,0,0,0,0,1,19,43,1,,,,,,,,,,,,,,,,,,,,,,,,,,,,,,,,,,,,,,,,,,,,,,,,,,,,,,,,,,,,,,,,160.75821669981815,161.15811860002577,161.14175229985267,161.24215890001506,161.64291089982726,None,right,1,0.5148564998526126,161.64291089982726,None,161.14175229985267,161.24215890001506,161.24215890001506,None,162.17632550001144,None,,,,,,,11033,001,2024_Jan_11_1834,ANT,2021.2.3,60.014571509185,
1,9,center,up,C,L,,,,,,Block.xlsx,"你已经完成了第一个实验区组

请稍作休息


点击空格键进入下一个区组。",0,50,1.5,left,LLLLL.png,,,,,0,0,0,0,1,20,44,8,,,,,,,,,,,,,,,,,,,,,,,,,,,,,,,,,,,,,,,,,,,,,,,,,,,,,,,,,,,,,,,,162.5769654000178,162.97944539994933,162.9609930999577,163.06274009984918,163.46309800003655,None,left,1,0.4785330998711288,163.46309800003655,None,162.9609930999577,163.06274009984918,163.06274009984918,None,163.96245140000246,None,,,,,,,11033,001,2024_Jan_11_1834,ANT,2021.2.3,60.014571509185,
1,13,center,down,C,L,,,,,,Block.xlsx,"你已经完成了第一个实验区组

请稍作休息


点击空格键进入下一个区组。",0,50,-1.5,left,LLLLL.png,,,,,0,0,0,0,1,21,45,12,,,,,,,,,,,,,,,,,,,,,,,,,,,,,,,,,,,,,,,,,,,,,,,,,,,,,,,,,,,,,,,,164.36354449996725,164.76428989996202,164.7475774998311,164.8476140999701,165.24883909989148,None,left,1,0.3802062999457121,165.24883909989148,None,164.7475774998311,164.8476140999701,164.8476140999701,None,165.64832789986394,None,,,,,,,11033,001,2024_Jan_11_1834,ANT,2021.2.3,60.014571509185,
1,23,spatial,down,IC,L,,,,,,Block.xlsx,"你已经完成了第一个实验区组

请稍作休息


点击空格键进入下一个区组。",-1.5,0,-1.5,left,RRLRR.png,,,,,0,0,0,0,1,22,46,22,,,,,,,,,,,,,,,,,,,,,,,,,,,,,,,,,,,,,,,,,,,,,,,,,,,,,,,,,,,,,,,,166.04928119992837,166.45016509993002,166.43265530001372,166.53435089997947,166.93341999989934,None,left,1,0.4956478998064995,166.93341999989934,None,166.43265530001372,166.53435089997947,166.53435089997947,None,167.45084289996885,None,,,,,,,11033,001,2024_Jan_11_1834,ANT,2021.2.3,60.014571509185,
1,10,center,up,C,R,,,,,,Block.xlsx,"你已经完成了第一个实验区组

请稍作休息


点击空格键进入下一个区组。",0,50,1.5,right,RRRRR.png,,,,,0,0,0,0,1,23,47,9,,,,,,,,,,,,,,,,,,,,,,,,,,,,,,,,,,,,,,,,,,,,,,,,,,,,,,,,,,,,,,,,167.85222520004027,168.25272029987536,168.23549410002306,168.3366711998824,168.73782509984449,None,right,1,0.435019199969247,168.73782509984449,None,168.23549410002306,168.3366711998824,168.3366711998824,None,169.18671739986166,None,,,,,,,11033,001,2024_Jan_11_1834,ANT,2021.2.3,60.014571509185,
1,9,center,up,C,L,,,,,,Block.xlsx,"你已经完成了第一个实验区组

请稍作休息


点击空格键进入下一个区组。",0,50,1.5,left,LLLLL.png,,,,,0,0,0,0,2,0,48,8,,,,,,,,,,,,,,,,,,,,,,,,,,,,,,,,,,,,,,,,,,,,,,,,,,,,,,,,,,,,,,,,169.58776129991747,169.98983470001258,169.9720560000278,170.07333639985882,170.47392329992726,None,left,1,0.47505790018476546,170.47392329992726,None,169.9720560000278,170.07333639985882,170.07333639985882,None,170.97255449998192,None,,,,,,,11033,001,2024_Jan_11_1834,ANT,2021.2.3,60.014571509185,
1,8,no,down,IC,R,,,,,,Block.xlsx,"你已经完成了第一个实验区组

请稍作休息


点击空格键进入下一个区组。",50,0,-1.5,right,LLRLL.png,,,,,0,0,0,0,2,1,49,7,,,,,,,,,,,,,,,,,,,,,,,,,,,,,,,,,,,,,,,,,,,,,,,,,,,,,,,,,,,,,,,,171.37319479999132,171.77492200001143,171.75757059990428,171.85839689988643,172.25868940004148,None,right,1,0.39429949992336333,172.25868940004148,None,171.75757059990428,171.85839689988643,171.85839689988643,None,172.67523940000683,None,,,,,,,11033,001,2024_Jan_11_1834,ANT,2021.2.3,60.014571509185,
1,15,center,down,IC,L,,,,,,Block.xlsx,"你已经完成了第一个实验区组

请稍作休息


点击空格键进入下一个区组。",0,50,-1.5,left,RRLRR.png,,,,,0,0,0,0,2,2,50,14,,,,,,,,,,,,,,,,,,,,,,,,,,,,,,,,,,,,,,,,,,,,,,,,,,,,,,,,,,,,,,,,173.07608659984544,173.47761279996485,173.45968349999748,173.56048959982581,173.96080280002207,None,left,1,0.5493477000854909,173.96080280002207,None,173.45968349999748,173.56048959982581,173.56048959982581,None,174.52803389984183,None,,,,,,,11033,001,2024_Jan_11_1834,ANT,2021.2.3,60.014571509185,
1,7,no,down,IC,L,,,,,,Block.xlsx,"你已经完成了第一个实验区组

请稍作休息


点击空格键进入下一个区组。",50,0,-1.5,left,RRLRR.png,,,,,0,0,0,0,2,3,51,6,,,,,,,,,,,,,,,,,,,,,,,,,,,,,,,,,,,,,,,,,,,,,,,,,,,,,,,,,,,,,,,,174.92852179985493,175.33000890002586,175.31407779990695,175.43004899984226,175.81607429985888,None,left,1,0.5816951000597328,175.81607429985888,None,175.31407779990695,175.43004899984226,175.4132598999422,None,176.41406630002894,None,,,,,,,11033,001,2024_Jan_11_1834,ANT,2021.2.3,60.014571509185,
1,22,spatial,down,C,R,,,,,,Block.xlsx,"你已经完成了第一个实验区组

请稍作休息


点击空格键进入下一个区组。",-1.5,0,-1.5,right,RRRRR.png,,,,,0,0,0,0,2,4,52,21,,,,,,,,,,,,,,,,,,,,,,,,,,,,,,,,,,,,,,,,,,,,,,,,,,,,,,,,,,,,,,,,176.81592089985497,177.21591169992462,177.20077939983457,177.3159839999862,177.70033179991879,None,right,1,0.5767667000181973,177.70033179991879,None,177.20077939983457,177.3159839999862,177.30094209988602,None,178.2999716999475,None,,,,,,,11033,001,2024_Jan_11_1834,ANT,2021.2.3,60.014571509185,
1,18,spatial,up,C,R,,,,,,Block.xlsx,"你已经完成了第一个实验区组

请稍作休息


点击空格键进入下一个区组。",1.5,0,1.5,right,RRRRR.png,,,,,0,0,0,0,2,5,53,17,,,,,,,,,,,,,,,,,,,,,,,,,,,,,,,,,,,,,,,,,,,,,,,,,,,,,,,,,,,,,,,,178.7013508998789,179.1036751999054,179.08536279993132,179.18641970003955,179.58716079988517,None,right,1,0.36214230000041425,179.58716079988517,None,179.08536279993132,179.18641970003955,179.18641970003955,None,179.96945979981683,None,,,,,,,11033,001,2024_Jan_11_1834,ANT,2021.2.3,60.014571509185,
1,13,center,down,C,L,,,,,,Block.xlsx,"你已经完成了第一个实验区组

请稍作休息


点击空格键进入下一个区组。",0,50,-1.5,left,LLLLL.png,,,,,0,0,0,0,2,6,54,12,,,,,,,,,,,,,,,,,,,,,,,,,,,,,,,,,,,,,,,,,,,,,,,,,,,,,,,,,,,,,,,,180.36996239982545,180.77276910003275,180.75481779989786,180.8547206998337,181.25633300002664,None,left,1,0.3890666998922825,181.25633300002664,None,180.75481779989786,180.8547206998337,180.8547206998337,None,181.67261819983833,None,,,,,,,11033,001,2024_Jan_11_1834,ANT,2021.2.3,60.014571509185,
1,7,no,down,IC,L,,,,,,Block.xlsx,"你已经完成了第一个实验区组

请稍作休息


点击空格键进入下一个区组。",50,0,-1.5,left,RRLRR.png,,,,,0,0,0,0,2,7,55,6,,,,,,,,,,,,,,,,,,,,,,,,,,,,,,,,,,,,,,,,,,,,,,,,,,,,,,,,,,,,,,,,182.07244589994662,182.473128200043,182.45735139981844,182.55722750001587,182.95754650002345,None,left,1,0.5434137000702322,182.95754650002345,None,182.45735139981844,182.55722750001587,182.55722750001587,None,183.52499279985204,None,,,,,,,11033,001,2024_Jan_11_1834,ANT,2021.2.3,60.014571509185,
1,20,spatial,up,IC,R,,,,,,Block.xlsx,"你已经完成了第一个实验区组

请稍作休息


点击空格键进入下一个区组。",1.5,0,1.5,right,LLRLL.png,,,,,0,0,0,0,2,8,56,19,,,,,,,,,,,,,,,,,,,,,,,,,,,,,,,,,,,,,,,,,,,,,,,,,,,,,,,,,,,,,,,,183.92614919994958,184.3256470998749,184.31002340000123,184.40947950002737,184.80975739983842,None,right,1,0.4991269998718053,184.80975739983842,None,184.31002340000123,184.40947950002737,184.40947950002737,None,185.32734819990583,None,,,,,,,11033,001,2024_Jan_11_1834,ANT,2021.2.3,60.014571509185,
1,15,center,down,IC,L,,,,,,Block.xlsx,"你已经完成了第一个实验区组

请稍作休息


点击空格键进入下一个区组。",0,50,-1.5,left,RRLRR.png,,,,,0,0,0,0,2,9,57,14,,,,,,,,,,,,,,,,,,,,,,,,,,,,,,,,,,,,,,,,,,,,,,,,,,,,,,,,,,,,,,,,185.72871759999543,186.12843959988095,186.112644799985,186.2127598999068,186.61332759982906,None,left,1,0.5278906000312418,186.61332759982906,None,186.112644799985,186.2127598999068,186.2127598999068,None,187.1638026998844,None,,,,,,,11033,001,2024_Jan_11_1834,ANT,2021.2.3,60.014571509185,
1,21,spatial,down,C,L,,,,,,Block.xlsx,"你已经完成了第一个实验区组

请稍作休息


点击空格键进入下一个区组。",-1.5,0,-1.5,left,LLLLL.png,,,,,0,0,0,0,2,10,58,20,,,,,,,,,,,,,,,,,,,,,,,,,,,,,,,,,,,,,,,,,,,,,,,,,,,,,,,,,,,,,,,,187.56437429995276,187.96436610003002,187.9478132999502,188.0486440998502,188.44902969989926,None,left,1,0.4037826000712812,188.44902969989926,None,187.9478132999502,188.0486440998502,188.0486440998502,None,188.8823200999759,None,,,,,,,11033,001,2024_Jan_11_1834,ANT,2021.2.3,60.014571509185,
1,22,spatial,down,C,R,,,,,,Block.xlsx,"你已经完成了第一个实验区组

请稍作休息


点击空格键进入下一个区组。",-1.5,0,-1.5,right,RRRRR.png,,,,,0,0,0,0,2,11,59,21,,,,,,,,,,,,,,,,,,,,,,,,,,,,,,,,,,,,,,,,,,,,,,,,,,,,,,,,,,,,,,,,189.28345959982835,189.68404459999874,189.6678567000199,189.76833009999245,190.1690674999263,None,right,1,0.4278094000183046,190.1690674999263,None,189.6678567000199,189.76833009999245,189.76833009999245,None,190.61857209983282,None,,,,,,,11033,001,2024_Jan_11_1834,ANT,2021.2.3,60.014571509185,
1,18,spatial,up,C,R,,,,,,Block.xlsx,"你已经完成了第一个实验区组

请稍作休息


点击空格键进入下一个区组。",1.5,0,1.5,right,RRRRR.png,,,,,0,0,0,0,2,12,60,17,,,,,,,,,,,,,,,,,,,,,,,,,,,,,,,,,,,,,,,,,,,,,,,,,,,,,,,,,,,,,,,,191.01910919998772,191.42077209986746,191.40290450002067,191.5038603998255,191.90449969982728,None,right,1,0.3725918000563979,191.90449969982728,None,191.40290450002067,191.5038603998255,191.5038603998255,None,192.3042941999156,None,,,,,,,11033,001,2024_Jan_11_1834,ANT,2021.2.3,60.014571509185,
1,3,no,up,IC,L,,,,,,Block.xlsx,"你已经完成了第一个实验区组

请稍作休息


点击空格键进入下一个区组。",50,0,1.5,left,RRLRR.png,,,,,0,0,0,0,2,13,61,2,,,,,,,,,,,,,,,,,,,,,,,,,,,,,,,,,,,,,,,,,,,,,,,,,,,,,,,,,,,,,,,,192.7057049998548,193.10777479992248,193.08936209999956,193.19098099996336,193.5902144999709,None,right,0,0.40666909981518984,193.5902144999709,None,193.08936209999956,193.19098099996336,193.19098099996336,None,194.02367409993894,None,,,,,,,11033,001,2024_Jan_11_1834,ANT,2021.2.3,60.014571509185,
1,14,center,down,C,R,,,,,,Block.xlsx,"你已经完成了第一个实验区组

请稍作休息


点击空格键进入下一个区组。",0,50,-1.5,right,RRRRR.png,,,,,0,0,0,0,2,14,62,13,,,,,,,,,,,,,,,,,,,,,,,,,,,,,,,,,,,,,,,,,,,,,,,,,,,,,,,,,,,,,,,,194.42412849981338,194.825676899869,194.81046359986067,194.9253624000121,195.30944149987772,None,right,1,0.4158679998945445,195.30944149987772,None,194.81046359986067,194.9253624000121,194.90986269991845,None,195.74276559986174,None,,,,,,,11033,001,2024_Jan_11_1834,ANT,2021.2.3,60.014571509185,
1,12,center,up,IC,R,,,,,,Block.xlsx,"你已经完成了第一个实验区组

请稍作休息


点击空格键进入下一个区组。",0,50,1.5,right,LLRLL.png,,,,,0,0,0,0,2,15,63,11,,,,,,,,,,,,,,,,,,,,,,,,,,,,,,,,,,,,,,,,,,,,,,,,,,,,,,,,,,,,,,,,196.14431310002692,196.5447039999999,196.5275891998317,196.63032620004378,197.0285759998951,None,right,1,0.5127037998754531,197.0285759998951,None,196.5275891998317,196.63032620004378,196.63032620004378,None,197.56224889983423,None,,,,,,,11033,001,2024_Jan_11_1834,ANT,2021.2.3,60.014571509185,
1,3,no,up,IC,L,,,,,,Block.xlsx,"你已经完成了第一个实验区组

请稍作休息


点击空格键进入下一个区组。",50,0,1.5,left,RRLRR.png,,,,,0,0,0,0,2,16,64,2,,,,,,,,,,,,,,,,,,,,,,,,,,,,,,,,,,,,,,,,,,,,,,,,,,,,,,,,,,,,,,,,197.96270259981975,198.36432289984077,198.34776599984616,198.44790699984878,198.84806999983266,None,left,1,0.564892299938947,198.84806999983266,None,198.34776599984616,198.44790699984878,198.44790699984878,None,199.43157809996046,None,,,,,,,11033,001,2024_Jan_11_1834,ANT,2021.2.3,60.014571509185,
1,2,no,up,C,R,,,,,,Block.xlsx,"你已经完成了第一个实验区组

请稍作休息


点击空格键进入下一个区组。",50,0,1.5,right,RRRRR.png,,,,,0,0,0,0,2,17,65,1,,,,,,,,,,,,,,,,,,,,,,,,,,,,,,,,,,,,,,,,,,,,,,,,,,,,,,,,,,,,,,,,199.83241429994814,200.23375589982606,200.21672729984857,200.31795459985733,200.71734979981557,None,right,1,0.5357891998719424,200.71734979981557,None,200.21672729984857,200.31795459985733,200.31795459985733,None,201.26841340004466,None,,,,,,,11033,001,2024_Jan_11_1834,ANT,2021.2.3,60.014571509185,
1,16,center,down,IC,R,,,,,,Block.xlsx,"你已经完成了第一个实验区组

请稍作休息


点击空格键进入下一个区组。",0,50,-1.5,right,LLRLL.png,,,,,0,0,0,0,2,18,66,15,,,,,,,,,,,,,,,,,,,,,,,,,,,,,,,,,,,,,,,,,,,,,,,,,,,,,,,,,,,,,,,,201.66826359997503,202.0692107998766,202.05265900003724,202.15420569991693,202.55430629989132,None,right,1,0.5554420000407845,202.55430629989132,None,202.05265900003724,202.15420569991693,202.15420569991693,None,203.13828099984676,None,,,,,,,11033,001,2024_Jan_11_1834,ANT,2021.2.3,60.014571509185,
1,1,no,up,C,L,,,,,,Block.xlsx,"你已经完成了第一个实验区组

请稍作休息


点击空格键进入下一个区组。",50,0,1.5,left,LLLLL.png,,,,,0,0,0,0,2,19,67,0,,,,,,,,,,,,,,,,,,,,,,,,,,,,,,,,,,,,,,,,,,,,,,,,,,,,,,,,,,,,,,,,203.53758839983493,203.93922479986213,203.92365469993092,204.04014800000004,204.42314759991132,None,left,1,0.5662237000651658,204.42314759991132,None,203.92365469993092,204.04014800000004,204.0219769999385,None,205.0062489998527,None,,,,,,,11033,001,2024_Jan_11_1834,ANT,2021.2.3,60.014571509185,
1,22,spatial,down,C,R,,,,,,Block.xlsx,"你已经完成了第一个实验区组

请稍作休息


点击空格键进入下一个区组。",-1.5,0,-1.5,right,RRRRR.png,,,,,0,0,0,0,2,20,68,21,,,,,,,,,,,,,,,,,,,,,,,,,,,,,,,,,,,,,,,,,,,,,,,,,,,,,,,,,,,,,,,,205.40699749998748,205.80792009993456,205.79168999986723,205.89217510004528,206.2935942998156,None,right,1,0.44741040002554655,206.2935942998156,None,205.79168999986723,205.89217510004528,205.89217510004528,None,206.75904359994456,None,,,,,,,11033,001,2024_Jan_11_1834,ANT,2021.2.3,60.014571509185,
1,19,spatial,up,IC,L,,,,,,Block.xlsx,"你已经完成了第一个实验区组

请稍作休息


点击空格键进入下一个区组。",1.5,0,1.5,left,RRLRR.png,,,,,0,0,0,0,2,21,69,18,,,,,,,,,,,,,,,,,,,,,,,,,,,,,,,,,,,,,,,,,,,,,,,,,,,,,,,,,,,,,,,,207.15978499990888,207.56108619994484,207.54446779983118,207.64440819993615,208.04473620001227,None,left,1,0.6488665000069886,208.04473620001227,None,207.54446779983118,207.64440819993615,207.64440819993615,None,208.7119042999111,None,,,,,,,11033,001,2024_Jan_11_1834,ANT,2021.2.3,60.014571509185,
1,3,no,up,IC,L,,,,,,Block.xlsx,"你已经完成了第一个实验区组

请稍作休息


点击空格键进入下一个区组。",50,0,1.5,left,RRLRR.png,,,,,0,0,0,0,2,22,70,2,,,,,,,,,,,,,,,,,,,,,,,,,,,,,,,,,,,,,,,,,,,,,,,,,,,,,,,,,,,,,,,,209.11257649981417,209.51323489984497,209.4981771998573,209.61458309995942,209.99802939989604,None,left,1,0.5188423001673073,209.99802939989604,None,209.4981771998573,209.61458309995942,209.5963301998563,None,210.5491297999397,None,,,,,,,11033,001,2024_Jan_11_1834,ANT,2021.2.3,60.014571509185,
1,18,spatial,up,C,R,,,,,,Block.xlsx,"你已经完成了第一个实验区组

请稍作休息


点击空格键进入下一个区组。",1.5,0,1.5,right,RRRRR.png,,,,,0,0,0,0,2,23,71,17,,,,,,,,,,,,,,,,,,,,,,,,,,,,,,,,,,,,,,,,,,,,,,,,,,,,,,,,,,,,,,,,210.94873770000413,211.35128779988736,211.33319689985365,211.43247099989094,211.83377749985084,None,right,1,0.3553188999649137,211.83377749985084,None,211.33319689985365,211.43247099989094,211.43247099989094,None,212.21710979985073,None,,,,,,,11033,001,2024_Jan_11_1834,ANT,2021.2.3,60.014571509185,
1,2,no,up,C,R,,,,,,Block.xlsx,"你已经完成了第一个实验区组

请稍作休息


点击空格键进入下一个区组。",50,0,1.5,right,RRRRR.png,,,,,0,0,0,0,3,0,72,1,,,,,,,,,,,,,,,,,,,,,,,,,,,,,,,,,,,,,,,,,,,,,,,,,,,,,,,,,,,,,,,,212.61776609998196,213.02021320001222,213.00202479981817,213.1031869999133,213.50256629986688,None,right,1,0.39895469998009503,213.50256629986688,None,213.00202479981817,213.1031869999133,213.1031869999133,None,213.91968689998612,None,,,,,,,11033,001,2024_Jan_11_1834,ANT,2021.2.3,60.014571509185,
1,9,center,up,C,L,,,,,,Block.xlsx,"你已经完成了第一个实验区组

请稍作休息


点击空格键进入下一个区组。",0,50,1.5,left,LLLLL.png,,,,,0,0,0,0,3,1,73,8,,,,,,,,,,,,,,,,,,,,,,,,,,,,,,,,,,,,,,,,,,,,,,,,,,,,,,,,,,,,,,,,214.32035139994696,214.72212639986537,214.70466519985348,214.8049796000123,215.20497339987196,None,left,1,0.5122792001347989,215.20497339987196,None,214.70466519985348,214.8049796000123,214.8049796000123,None,215.73943249997683,None,,,,,,,11033,001,2024_Jan_11_1834,ANT,2021.2.3,60.014571509185,
1,1,no,up,C,L,,,,,,Block.xlsx,"你已经完成了第一个实验区组

请稍作休息


点击空格键进入下一个区组。",50,0,1.5,left,LLLLL.png,,,,,0,0,0,0,3,2,74,0,,,,,,,,,,,,,,,,,,,,,,,,,,,,,,,,,,,,,,,,,,,,,,,,,,,,,,,,,,,,,,,,216.13972430001013,216.54261050000787,216.52415009983815,216.62480779993348,217.02556019998156,None,left,1,0.4036604999564588,217.02556019998156,None,216.52415009983815,216.62480779993348,216.62480779993348,None,217.45824739988893,None,,,,,,,11033,001,2024_Jan_11_1834,ANT,2021.2.3,60.014571509185,
1,12,center,up,IC,R,,,,,,Block.xlsx,"你已经完成了第一个实验区组

请稍作休息


点击空格键进入下一个区组。",0,50,1.5,right,LLRLL.png,,,,,0,0,0,0,3,3,75,11,,,,,,,,,,,,,,,,,,,,,,,,,,,,,,,,,,,,,,,,,,,,,,,,,,,,,,,,,,,,,,,,217.8594020998571,218.2600026000291,218.2434153999202,218.34484759997576,218.74416769994423,None,right,1,0.4211249998770654,218.74416769994423,None,218.2434153999202,218.34484759997576,218.34484759997576,None,219.1943124998361,None,,,,,,,11033,001,2024_Jan_11_1834,ANT,2021.2.3,60.014571509185,
1,20,spatial,up,IC,R,,,,,,Block.xlsx,"你已经完成了第一个实验区组

请稍作休息


点击空格键进入下一个区组。",1.5,0,1.5,right,LLRLL.png,,,,,0,0,0,0,3,4,76,19,,,,,,,,,,,,,,,,,,,,,,,,,,,,,,,,,,,,,,,,,,,,,,,,,,,,,,,,,,,,,,,,219.59485799982212,219.9972188998945,219.97900729998946,220.08033869997598,220.47965079988353,None,right,1,0.38216069992631674,220.47965079988353,None,219.97900729998946,220.08033869997598,220.08033869997598,None,220.88013389986008,None,,,,,,,11033,001,2024_Jan_11_1834,ANT,2021.2.3,60.014571509185,
1,24,spatial,down,IC,R,,,,,,Block.xlsx,"你已经完成了第一个实验区组

请稍作休息


点击空格键进入下一个区组。",-1.5,0,-1.5,right,LLRLL.png,,,,,0,0,0,0,3,5,77,23,,,,,,,,,,,,,,,,,,,,,,,,,,,,,,,,,,,,,,,,,,,,,,,,,,,,,,,,,,,,,,,,221.28178639989346,221.68189090001397,221.66543199983425,221.76501319999807,222.1653529999312,None,right,1,0.5278851999901235,222.1653529999312,None,221.66543199983425,221.76501319999807,221.76501319999807,None,222.71607109997422,None,,,,,,,11033,001,2024_Jan_11_1834,ANT,2021.2.3,60.014571509185,
1,10,center,up,C,R,,,,,,Block.xlsx,"你已经完成了第一个实验区组

请稍作休息


点击空格键进入下一个区组。",0,50,1.5,right,RRRRR.png,,,,,0,0,0,0,3,6,78,9,,,,,,,,,,,,,,,,,,,,,,,,,,,,,,,,,,,,,,,,,,,,,,,,,,,,,,,,,,,,,,,,223.11670250003226,223.5178900999017,223.50134209985845,223.60092949983664,224.00322259985842,None,right,1,0.35381389991380274,224.00322259985842,None,223.50134209985845,223.60092949983664,223.60092949983664,None,224.3851492998656,None,,,,,,,11033,001,2024_Jan_11_1834,ANT,2021.2.3,60.014571509185,
1,24,spatial,down,IC,R,,,,,,Block.xlsx,"你已经完成了第一个实验区组

请稍作休息


点击空格键进入下一个区组。",-1.5,0,-1.5,right,LLRLL.png,,,,,0,0,0,0,3,7,79,23,,,,,,,,,,,,,,,,,,,,,,,,,,,,,,,,,,,,,,,,,,,,,,,,,,,,,,,,,,,,,,,,224.78582390001975,225.18782559991814,225.1702741999179,225.27204229985364,225.67048879992217,None,right,1,0.4144261998590082,225.67048879992217,None,225.1702741999179,225.27204229985364,225.27204229985364,None,226.10443099983968,None,,,,,,,11033,001,2024_Jan_11_1834,ANT,2021.2.3,60.014571509185,
1,6,no,down,C,R,,,,,,Block.xlsx,"你已经完成了第一个实验区组

请稍作休息


点击空格键进入下一个区组。",50,0,-1.5,right,RRRRR.png,,,,,0,0,0,0,3,8,80,5,,,,,,,,,,,,,,,,,,,,,,,,,,,,,,,,,,,,,,,,,,,,,,,,,,,,,,,,,,,,,,,,226.50484079984017,226.90563349984586,226.89028379996307,226.9895472000353,227.39038040000014,None,right,1,0.4947522000875324,227.39038040000014,None,226.89028379996307,226.9895472000353,226.9895472000353,None,227.9085295998957,None,,,,,,,11033,001,2024_Jan_11_1834,ANT,2021.2.3,60.014571509185,
1,19,spatial,up,IC,L,,,,,,Block.xlsx,"你已经完成了第一个实验区组

请稍作休息


点击空格键进入下一个区组。",1.5,0,1.5,left,RRLRR.png,,,,,0,0,0,0,3,9,81,18,,,,,,,,,,,,,,,,,,,,,,,,,,,,,,,,,,,,,,,,,,,,,,,,,,,,,,,,,,,,,,,,228.30783649999648,228.70923339994624,228.69263369985856,228.7922147999052,229.19257199997082,None,left,1,0.42036729981191456,229.19257199997082,None,228.69263369985856,228.7922147999052,228.7922147999052,None,229.64352469984442,None,,,,,,,11033,001,2024_Jan_11_1834,ANT,2021.2.3,60.014571509185,
1,5,no,down,C,L,,,,,,Block.xlsx,"你已经完成了第一个实验区组

请稍作休息


点击空格键进入下一个区组。",50,0,-1.5,left,LLLLL.png,,,,,0,0,0,0,3,10,82,4,,,,,,,,,,,,,,,,,,,,,,,,,,,,,,,,,,,,,,,,,,,,,,,,,,,,,,,,,,,,,,,,230.04437320004217,230.44585340004414,230.4274784999434,230.5285000000149,230.9293319999706,None,left,1,0.46775899990461767,230.9293319999706,None,230.4274784999434,230.5285000000149,230.5285000000149,None,231.41214210004546,None,,,,,,,11033,001,2024_Jan_11_1834,ANT,2021.2.3,60.014571509185,
1,24,spatial,down,IC,R,,,,,,Block.xlsx,"你已经完成了第一个实验区组

请稍作休息


点击空格键进入下一个区组。",-1.5,0,-1.5,right,LLRLL.png,,,,,0,0,0,0,3,11,83,23,,,,,,,,,,,,,,,,,,,,,,,,,,,,,,,,,,,,,,,,,,,,,,,,,,,,,,,,,,,,,,,,231.81280569988303,232.21421230002306,232.1975731998682,232.29751099995337,232.6974670998752,None,right,1,0.5161714998539537,232.6974670998752,None,232.1975731998682,232.29751099995337,232.29751099995337,None,233.23168440000154,None,,,,,,,11033,001,2024_Jan_11_1834,ANT,2021.2.3,60.014571509185,
1,17,spatial,up,C,L,,,,,,Block.xlsx,"你已经完成了第一个实验区组

请稍作休息


点击空格键进入下一个区组。",1.5,0,1.5,left,LLLLL.png,,,,,0,0,0,0,3,12,84,16,,,,,,,,,,,,,,,,,,,,,,,,,,,,,,,,,,,,,,,,,,,,,,,,,,,,,,,,,,,,,,,,233.63320319983177,234.03474339982495,234.01654209988192,234.11706799990498,234.51810380001552,None,left,1,0.38409810001030564,234.51810380001552,None,234.01654209988192,234.11706799990498,234.11706799990498,None,234.91727830003947,None,,,,,,,11033,001,2024_Jan_11_1834,ANT,2021.2.3,60.014571509185,
1,11,center,up,IC,L,,,,,,Block.xlsx,"你已经完成了第一个实验区组

请稍作休息


点击空格键进入下一个区组。",0,50,1.5,left,RRLRR.png,,,,,0,0,0,0,3,13,85,10,,,,,,,,,,,,,,,,,,,,,,,,,,,,,,,,,,,,,,,,,,,,,,,,,,,,,,,,,,,,,,,,235.31865409994498,235.71940059983172,235.7033642998431,235.80232919985428,236.20371109992266,None,right,0,0.41826830012723804,236.20371109992266,None,235.7033642998431,235.80232919985428,235.80232919985428,None,236.63696769997478,None,,,,,,,11033,001,2024_Jan_11_1834,ANT,2021.2.3,60.014571509185,
1,12,center,up,IC,R,,,,,,Block.xlsx,"你已经完成了第一个实验区组

请稍作休息


点击空格键进入下一个区组。",0,50,1.5,right,LLRLL.png,,,,,0,0,0,0,3,14,86,11,,,,,,,,,,,,,,,,,,,,,,,,,,,,,,,,,,,,,,,,,,,,,,,,,,,,,,,,,,,,,,,,237.03731859987602,237.44008229998872,237.42190099996515,237.52296159998514,237.9227403998375,None,right,1,0.5221744000446051,237.9227403998375,None,237.42190099996515,237.52296159998514,237.52296159998514,None,238.47272809990682,None,,,,,,,11033,001,2024_Jan_11_1834,ANT,2021.2.3,60.014571509185,
1,19,spatial,up,IC,L,,,,,,Block.xlsx,"你已经完成了第一个实验区组

请稍作休息


点击空格键进入下一个区组。",1.5,0,1.5,left,RRLRR.png,,,,,0,0,0,0,3,15,87,18,,,,,,,,,,,,,,,,,,,,,,,,,,,,,,,,,,,,,,,,,,,,,,,,,,,,,,,,,,,,,,,,238.87346369982697,239.2748940999154,239.25871279998682,239.35890679992735,239.75840039993636,None,left,1,0.43877830007113516,239.75840039993636,None,239.25871279998682,239.35890679992735,239.35890679992735,None,240.22571649984457,None,,,,,,,11033,001,2024_Jan_11_1834,ANT,2021.2.3,60.014571509185,
1,17,spatial,up,C,L,,,,,,Block.xlsx,"你已经完成了第一个实验区组

请稍作休息


点击空格键进入下一个区组。",1.5,0,1.5,left,LLLLL.png,,,,,0,0,0,0,3,16,88,16,,,,,,,,,,,,,,,,,,,,,,,,,,,,,,,,,,,,,,,,,,,,,,,,,,,,,,,,,,,,,,,,240.625970199937,241.02707409998402,241.00975560001098,241.11089969985187,241.51132589997724,None,left,1,0.389760899823159,241.51132589997724,None,241.00975560001098,241.11089969985187,241.11089969985187,None,241.9277596999891,None,,,,,,,11033,001,2024_Jan_11_1834,ANT,2021.2.3,60.014571509185,
1,9,center,up,C,L,,,,,,Block.xlsx,"你已经完成了第一个实验区组

请稍作休息


点击空格键进入下一个区组。",0,50,1.5,left,LLLLL.png,,,,,0,0,0,0,3,17,89,8,,,,,,,,,,,,,,,,,,,,,,,,,,,,,,,,,,,,,,,,,,,,,,,,,,,,,,,,,,,,,,,,242.32935380004346,242.7309033998754,242.71295810001902,242.8130761999637,243.21468629990704,None,left,1,0.414692800026387,243.21468629990704,None,242.71295810001902,242.8130761999637,242.8130761999637,None,243.64784899982624,None,,,,,,,11033,001,2024_Jan_11_1834,ANT,2021.2.3,60.014571509185,
1,17,spatial,up,C,L,,,,,,Block.xlsx,"你已经完成了第一个实验区组

请稍作休息


点击空格键进入下一个区组。",1.5,0,1.5,left,LLLLL.png,,,,,0,0,0,0,3,18,90,16,,,,,,,,,,,,,,,,,,,,,,,,,,,,,,,,,,,,,,,,,,,,,,,,,,,,,,,,,,,,,,,,244.0477527999319,244.44927549990825,244.4319285999518,244.5323637998663,244.93263729987666,None,left,1,0.3923845000099391,244.93263729987666,None,244.4319285999518,244.5323637998663,244.5323637998663,None,245.34963539987803,None,,,,,,,11033,001,2024_Jan_11_1834,ANT,2021.2.3,60.014571509185,
1,7,no,down,IC,L,,,,,,Block.xlsx,"你已经完成了第一个实验区组

请稍作休息


点击空格键进入下一个区组。",50,0,-1.5,left,RRLRR.png,,,,,0,0,0,0,3,19,91,6,,,,,,,,,,,,,,,,,,,,,,,,,,,,,,,,,,,,,,,,,,,,,,,,,,,,,,,,,,,,,,,,245.75016189995222,246.15197509992868,246.135253299959,246.23577629984356,246.63771179993637,None,right,0,0.47152039990760386,246.63771179993637,None,246.135253299959,246.23577629984356,246.23577629984356,None,247.13558020000346,None,,,,,,,11033,001,2024_Jan_11_1834,ANT,2021.2.3,60.014571509185,
1,14,center,down,C,R,,,,,,Block.xlsx,"你已经完成了第一个实验区组

请稍作休息


点击空格键进入下一个区组。",0,50,-1.5,right,RRRRR.png,,,,,0,0,0,0,3,20,92,13,,,,,,,,,,,,,,,,,,,,,,,,,,,,,,,,,,,,,,,,,,,,,,,,,,,,,,,,,,,,,,,,247.536790400045,247.93824979988858,247.92096479982138,248.02016239985824,248.42131399991922,None,right,1,0.6717884000390768,248.42131399991922,None,247.92096479982138,248.02016239985824,248.02016239985824,None,249.1219234999735,None,,,,,,,11033,001,2024_Jan_11_1834,ANT,2021.2.3,60.014571509185,
1,5,no,down,C,L,,,,,,Block.xlsx,"你已经完成了第一个实验区组

请稍作休息


点击空格键进入下一个区组。",50,0,-1.5,left,LLLLL.png,,,,,0,0,0,0,3,21,93,4,,,,,,,,,,,,,,,,,,,,,,,,,,,,,,,,,,,,,,,,,,,,,,,,,,,,,,,,,,,,,,,,249.5233085998334,249.92412069998682,249.90708060003817,250.0082672999706,250.40891449991614,None,left,1,0.5645641000010073,250.40891449991614,None,249.90708060003817,250.0082672999706,250.0082672999706,None,250.99140759999864,None,,,,,,,11033,001,2024_Jan_11_1834,ANT,2021.2.3,60.014571509185,
1,16,center,down,IC,R,,,,,,Block.xlsx,"你已经完成了第一个实验区组

请稍作休息


点击空格键进入下一个区组。",0,50,-1.5,right,LLRLL.png,,,,,0,0,0,0,3,22,94,15,,,,,,,,,,,,,,,,,,,,,,,,,,,,,,,,,,,,,,,,,,,,,,,,,,,,,,,,,,,,,,,,251.391864300007,251.79362709983252,251.7766215999145,251.87810229999013,252.2771146998275,None,right,1,0.5598436000291258,252.2771146998275,None,251.7766215999145,251.87810229999013,251.87810229999013,None,252.8606540998444,None,,,,,,,11033,001,2024_Jan_11_1834,ANT,2021.2.3,60.014571509185,
1,4,no,up,IC,R,,,,,,Block.xlsx,"你已经完成了第一个实验区组

请稍作休息


点击空格键进入下一个区组。",50,0,1.5,right,LLRLL.png,,,,,0,0,0,0,3,23,95,3,,,,,,,,,,,,,,,,,,,,,,,,,,,,,,,,,,,,,,,,,,,,,,,,,,,,,,,,,,,,,,,,253.2611831999384,253.662721300032,253.6453153998591,253.745969499927,254.14620970003307,None,right,1,0.555123400175944,254.14620970003307,None,253.6453153998591,253.745969499927,253.745969499927,None,254.7312839999795,None,,,,,,,11033,001,2024_Jan_11_1834,ANT,2021.2.3,60.014571509185,
,,,,,,,,,,,Block.xlsx,"你已经完成了第一个实验区组

请稍作休息


点击空格键进入下一个区组。",,,,,,,,,,0,0,0,0,,,,,,,,,,,,,,,,,,,,,,,,,,,,,,,,,,,,,,,,,,,,,,,,,,,,,,,,,,,,,,,,,,,,,,,,,,,,,,,,,,,,,space,7.395002600038424,255.1301162999589,None,255.1301162999589,None,11033,001,2024_Jan_11_1834,ANT,2021.2.3,60.014571509185,
1,4,no,up,IC,R,,,,,,Block.xlsx,"你已经完成了整个实验（三个区组）。

请报告实验者已完成实验

非常感谢，再见！",50,0,1.5,right,LLRLL.png,,,,,0,1,1,1,0,0,0,3,,,,,,,,,,,,,,,,,,,,,,,,,,,,,,,,,,,,,,,,,,,,,,,,,,,,,,,,,,,,,,,,262.55817079986446,262.95963159995154,262.9429099999834,263.04326800000854,263.4436707999557,None,right,1,0.5295615999493748,263.4436707999557,None,262.9429099999834,263.04326800000854,263.04326800000854,None,263.99531130003743,None,,,,,,,11033,001,2024_Jan_11_1834,ANT,2021.2.3,60.014571509185,
1,10,center,up,C,R,,,,,,Block.xlsx,"你已经完成了整个实验（三个区组）。

请报告实验者已完成实验

非常感谢，再见！",0,50,1.5,right,RRRRR.png,,,,,0,1,1,1,0,1,1,9,,,,,,,,,,,,,,,,,,,,,,,,,,,,,,,,,,,,,,,,,,,,,,,,,,,,,,,,,,,,,,,,264.3956358998548,264.7971393999178,264.7785353998188,264.8805416999385,265.27993499999866,None,right,1,0.38211879995651543,265.27993499999866,None,264.7785353998188,264.8805416999385,264.8805416999385,None,265.68027979996987,None,,,,,,,11033,001,2024_Jan_11_1834,ANT,2021.2.3,60.014571509185,
1,18,spatial,up,C,R,,,,,,Block.xlsx,"你已经完成了整个实验（三个区组）。

请报告实验者已完成实验

非常感谢，再见！",1.5,0,1.5,right,RRRRR.png,,,,,0,1,1,1,0,2,2,17,,,,,,,,,,,,,,,,,,,,,,,,,,,,,,,,,,,,,,,,,,,,,,,,,,,,,,,,,,,,,,,,266.08110329997726,266.4815789000131,266.4641762999818,266.56621359987184,266.96672989986837,None,right,1,0.3584805999416858,266.96672989986837,None,266.4641762999818,266.56621359987184,266.56621359987184,None,267.3495050999336,None,,,,,,,11033,001,2024_Jan_11_1834,ANT,2021.2.3,60.014571509185,
1,22,spatial,down,C,R,,,,,,Block.xlsx,"你已经完成了整个实验（三个区组）。

请报告实验者已完成实验

非常感谢，再见！",-1.5,0,-1.5,right,RRRRR.png,,,,,0,1,1,1,0,3,3,21,,,,,,,,,,,,,,,,,,,,,,,,,,,,,,,,,,,,,,,,,,,,,,,,,,,,,,,,,,,,,,,,267.7494147999678,268.1511890999973,268.135519299889,268.2507293999661,268.6347839999944,None,right,1,0.4185575000010431,268.6347839999944,None,268.135519299889,268.2507293999661,268.23450699984096,None,269.067989599891,None,,,,,,,11033,001,2024_Jan_11_1834,ANT,2021.2.3,60.014571509185,
1,1,no,up,C,L,,,,,,Block.xlsx,"你已经完成了整个实验（三个区组）。

请报告实验者已完成实验

非常感谢，再见！",50,0,1.5,left,LLLLL.png,,,,,0,1,1,1,0,4,4,0,,,,,,,,,,,,,,,,,,,,,,,,,,,,,,,,,,,,,,,,,,,,,,,,,,,,,,,,,,,,,,,,269.46858510002494,269.8700408998411,269.85334569984116,269.952637600014,270.355219299905,None,left,1,0.3697810999583453,270.355219299905,None,269.85334569984116,269.952637600014,269.952637600014,None,270.7538858000189,None,,,,,,,11033,001,2024_Jan_11_1834,ANT,2021.2.3,60.014571509185,
1,20,spatial,up,IC,R,,,,,,Block.xlsx,"你已经完成了整个实验（三个区组）。

请报告实验者已完成实验

非常感谢，再见！",1.5,0,1.5,right,LLRLL.png,,,,,0,1,1,1,0,5,5,19,,,,,,,,,,,,,,,,,,,,,,,,,,,,,,,,,,,,,,,,,,,,,,,,,,,,,,,,,,,,,,,,271.15463520004414,271.5552330999635,271.5392142999917,271.63937979983166,272.03992179990746,None,right,1,0.48507499997504056,272.03992179990746,None,271.5392142999917,271.63937979983166,271.63937979983166,None,272.55657809996046,None,,,,,,,11033,001,2024_Jan_11_1834,ANT,2021.2.3,60.014571509185,
1,2,no,up,C,R,,,,,,Block.xlsx,"你已经完成了整个实验（三个区组）。

请报告实验者已完成实验

非常感谢，再见！",50,0,1.5,right,RRRRR.png,,,,,0,1,1,1,0,6,6,1,,,,,,,,,,,,,,,,,,,,,,,,,,,,,,,,,,,,,,,,,,,,,,,,,,,,,,,,,,,,,,,,272.95758739998564,273.3586078998633,273.341769099934,273.4426813998725,273.84244919987395,None,right,1,0.44265049998648465,273.84244919987395,None,273.341769099934,273.4426813998725,273.4426813998725,None,274.3091511998791,None,,,,,,,11033,001,2024_Jan_11_1834,ANT,2021.2.3,60.014571509185,
1,14,center,down,C,R,,,,,,Block.xlsx,"你已经完成了整个实验（三个区组）。

请报告实验者已完成实验

非常感谢，再见！",0,50,-1.5,right,RRRRR.png,,,,,0,1,1,1,0,7,7,13,,,,,,,,,,,,,,,,,,,,,,,,,,,,,,,,,,,,,,,,,,,,,,,,,,,,,,,,,,,,,,,,274.7096861000173,275.1113399998285,275.0957498999778,275.2107555998955,275.59535419987515,None,right,1,0.3620126999448985,275.59535419987515,None,275.0957498999778,275.2107555998955,275.19454649998806,None,275.9784164999146,None,,,,,,,11033,001,2024_Jan_11_1834,ANT,2021.2.3,60.014571509185,
1,8,no,down,IC,R,,,,,,Block.xlsx,"你已经完成了整个实验（三个区组）。

请报告实验者已完成实验

非常感谢，再见！",50,0,-1.5,right,LLRLL.png,,,,,0,1,1,1,0,8,8,7,,,,,,,,,,,,,,,,,,,,,,,,,,,,,,,,,,,,,,,,,,,,,,,,,,,,,,,,,,,,,,,,276.37886419985443,276.7815449000336,276.76377710001543,276.8637055999134,277.2655584998429,None,right,1,0.4036844000220299,277.2655584998429,None,276.76377710001543,276.8637055999134,276.8637055999134,None,277.697486900026,None,,,,,,,11033,001,2024_Jan_11_1834,ANT,2021.2.3,60.014571509185,
1,5,no,down,C,L,,,,,,Block.xlsx,"你已经完成了整个实验（三个区组）。

请报告实验者已完成实验

非常感谢，再见！",50,0,-1.5,left,LLLLL.png,,,,,0,1,1,1,0,9,9,4,,,,,,,,,,,,,,,,,,,,,,,,,,,,,,,,,,,,,,,,,,,,,,,,,,,,,,,,,,,,,,,,278.0986770000309,278.4995744000189,278.4825180999469,278.58285099989735,278.9838768998161,None,left,1,0.5570716001093388,278.9838768998161,None,278.4825180999469,278.58285099989735,278.58285099989735,None,279.5670327998232,None,,,,,,,11033,001,2024_Jan_11_1834,ANT,2021.2.3,60.014571509185,
1,10,center,up,C,R,,,,,,Block.xlsx,"你已经完成了整个实验（三个区组）。

请报告实验者已完成实验

非常感谢，再见！",0,50,1.5,right,RRRRR.png,,,,,0,1,1,1,0,10,10,9,,,,,,,,,,,,,,,,,,,,,,,,,,,,,,,,,,,,,,,,,,,,,,,,,,,,,,,,,,,,,,,,279.9676106998231,280.36898109992035,280.3534168000333,280.45196840004064,280.85396700003184,None,right,1,0.36720409989356995,280.85396700003184,None,280.3534168000333,280.45196840004064,280.45196840004064,None,281.23607879993506,None,,,,,,,11033,001,2024_Jan_11_1834,ANT,2021.2.3,60.014571509185,
1,23,spatial,down,IC,L,,,,,,Block.xlsx,"你已经完成了整个实验（三个区组）。

请报告实验者已完成实验

非常感谢，再见！",-1.5,0,-1.5,left,RRLRR.png,,,,,0,1,1,1,0,11,11,22,,,,,,,,,,,,,,,,,,,,,,,,,,,,,,,,,,,,,,,,,,,,,,,,,,,,,,,,,,,,,,,,281.6373605998233,282.03834980004467,282.02171189989895,282.1210341998376,282.52311469987035,None,left,1,0.49907489982433617,282.52311469987035,None,282.02171189989895,282.1210341998376,282.1210341998376,None,283.0387640998233,None,,,,,,,11033,001,2024_Jan_11_1834,ANT,2021.2.3,60.014571509185,
1,1,no,up,C,L,,,,,,Block.xlsx,"你已经完成了整个实验（三个区组）。

请报告实验者已完成实验

非常感谢，再见！",50,0,1.5,left,LLLLL.png,,,,,0,1,1,1,0,12,12,0,,,,,,,,,,,,,,,,,,,,,,,,,,,,,,,,,,,,,,,,,,,,,,,,,,,,,,,,,,,,,,,,283.43940949998796,283.84085289994255,283.8252605998423,283.9243773999624,284.32552769989707,None,left,1,0.40747239999473095,284.32552769989707,None,283.8252605998423,283.9243773999624,283.9243773999624,None,284.7583761999849,None,,,,,,,11033,001,2024_Jan_11_1834,ANT,2021.2.3,60.014571509185,
1,6,no,down,C,R,,,,,,Block.xlsx,"你已经完成了整个实验（三个区组）。

请报告实验者已完成实验

非常感谢，再见！",50,0,-1.5,right,RRRRR.png,,,,,0,1,1,1,0,13,13,5,,,,,,,,,,,,,,,,,,,,,,,,,,,,,,,,,,,,,,,,,,,,,,,,,,,,,,,,,,,,,,,,285.1593569999095,285.55903859995306,285.54329459997825,285.6430730000138,286.04378949990496,None,right,1,0.4092714001890272,286.04378949990496,None,285.54329459997825,285.6430730000138,285.6430730000138,None,286.477278099861,None,,,,,,,11033,001,2024_Jan_11_1834,ANT,2021.2.3,60.014571509185,
1,10,center,up,C,R,,,,,,Block.xlsx,"你已经完成了整个实验（三个区组）。

请报告实验者已完成实验

非常感谢，再见！",0,50,1.5,right,RRRRR.png,,,,,0,1,1,1,0,14,14,9,,,,,,,,,,,,,,,,,,,,,,,,,,,,,,,,,,,,,,,,,,,,,,,,,,,,,,,,,,,,,,,,286.8789420998655,287.28017429984175,287.261719299946,287.3640156998299,287.7633803000208,None,right,1,0.3698908998630941,287.7633803000208,None,287.261719299946,287.3640156998299,287.3640156998299,None,288.16393219982274,None,,,,,,,11033,001,2024_Jan_11_1834,ANT,2021.2.3,60.014571509185,
1,17,spatial,up,C,L,,,,,,Block.xlsx,"你已经完成了整个实验（三个区组）。

请报告实验者已完成实验

非常感谢，再见！",1.5,0,1.5,left,LLLLL.png,,,,,0,1,1,1,0,15,15,16,,,,,,,,,,,,,,,,,,,,,,,,,,,,,,,,,,,,,,,,,,,,,,,,,,,,,,,,,,,,,,,,288.5642136000097,288.9667187000159,288.9483499999624,289.04957539984025,289.45026439987123,None,left,1,0.3630937999114394,289.45026439987123,None,288.9483499999624,289.04957539984025,289.04957539984025,None,289.8321095998399,None,,,,,,,11033,001,2024_Jan_11_1834,ANT,2021.2.3,60.014571509185,
1,2,no,up,C,R,,,,,,Block.xlsx,"你已经完成了整个实验（三个区组）。

请报告实验者已完成实验

非常感谢，再见！",50,0,1.5,right,RRRRR.png,,,,,0,1,1,1,0,16,16,1,,,,,,,,,,,,,,,,,,,,,,,,,,,,,,,,,,,,,,,,,,,,,,,,,,,,,,,,,,,,,,,,290.233762799995,290.63427889999,290.61724789999425,290.7184790999163,291.11808409984224,None,right,1,0.4633164999540895,291.11808409984224,None,290.61724789999425,290.7184790999163,290.7184790999163,None,291.60127819981426,None,,,,,,,11033,001,2024_Jan_11_1834,ANT,2021.2.3,60.014571509185,
1,7,no,down,IC,L,,,,,,Block.xlsx,"你已经完成了整个实验（三个区组）。

请报告实验者已完成实验

非常感谢，再见！",50,0,-1.5,left,RRLRR.png,,,,,0,1,1,1,0,17,17,6,,,,,,,,,,,,,,,,,,,,,,,,,,,,,,,,,,,,,,,,,,,,,,,,,,,,,,,,,,,,,,,,292.00345749990083,292.40262409998104,292.3866546000354,292.4868397999089,292.8875686000101,None,left,1,0.509327600011602,292.8875686000101,None,292.3866546000354,292.4868397999089,292.4868397999089,None,293.42072169994935,None,,,,,,,11033,001,2024_Jan_11_1834,ANT,2021.2.3,60.014571509185,
1,22,spatial,down,C,R,,,,,,Block.xlsx,"你已经完成了整个实验（三个区组）。

请报告实验者已完成实验

非常感谢，再见！",-1.5,0,-1.5,right,RRRRR.png,,,,,0,1,1,1,0,18,18,21,,,,,,,,,,,,,,,,,,,,,,,,,,,,,,,,,,,,,,,,,,,,,,,,,,,,,,,,,,,,,,,,293.8222890999168,294.22348369983956,294.2065436998382,294.3062724999618,294.70696750003844,None,right,1,0.44229230005294085,294.70696750003844,None,294.2065436998382,294.3062724999618,294.3062724999618,None,295.1741954998579,None,,,,,,,11033,001,2024_Jan_11_1834,ANT,2021.2.3,60.014571509185,
1,21,spatial,down,C,L,,,,,,Block.xlsx,"你已经完成了整个实验（三个区组）。

请报告实验者已完成实验

非常感谢，再见！",-1.5,0,-1.5,left,LLLLL.png,,,,,0,1,1,1,0,19,19,20,,,,,,,,,,,,,,,,,,,,,,,,,,,,,,,,,,,,,,,,,,,,,,,,,,,,,,,,,,,,,,,,295.57464389991947,295.97539269994013,295.95872189989313,296.0589556999039,296.45932499994524,None,left,1,0.4506267998367548,296.45932499994524,None,295.95872189989313,296.0589556999039,296.0589556999039,None,296.9261508998461,None,,,,,,,11033,001,2024_Jan_11_1834,ANT,2021.2.3,60.014571509185,
1,6,no,down,C,R,,,,,,Block.xlsx,"你已经完成了整个实验（三个区组）。

请报告实验者已完成实验

非常感谢，再见！",50,0,-1.5,right,RRRRR.png,,,,,0,1,1,1,0,20,20,5,,,,,,,,,,,,,,,,,,,,,,,,,,,,,,,,,,,,,,,,,,,,,,,,,,,,,,,,,,,,,,,,297.32707749982364,297.72791679995134,297.7112993998453,297.81201220001094,298.21278829989024,None,right,1,0.40843630000017583,298.21278829989024,None,297.7112993998453,297.81201220001094,297.81201220001094,None,298.6452850999776,None,,,,,,,11033,001,2024_Jan_11_1834,ANT,2021.2.3,60.014571509185,
1,19,spatial,up,IC,L,,,,,,Block.xlsx,"你已经完成了整个实验（三个区组）。

请报告实验者已完成实验

非常感谢，再见！",1.5,0,1.5,left,RRLRR.png,,,,,0,1,1,1,0,21,21,18,,,,,,,,,,,,,,,,,,,,,,,,,,,,,,,,,,,,,,,,,,,,,,,,,,,,,,,,,,,,,,,,299.0466048999224,299.4471721998416,299.42974629998207,299.5318344999105,299.93254569987766,None,left,1,0.3924889999907464,299.93254569987766,None,299.42974629998207,299.5318344999105,299.5318344999105,None,300.347822799813,None,,,,,,,11033,001,2024_Jan_11_1834,ANT,2021.2.3,60.014571509185,
1,6,no,down,C,R,,,,,,Block.xlsx,"你已经完成了整个实验（三个区组）。

请报告实验者已完成实验

非常感谢，再见！",50,0,-1.5,right,RRRRR.png,,,,,0,1,1,1,0,22,22,5,,,,,,,,,,,,,,,,,,,,,,,,,,,,,,,,,,,,,,,,,,,,,,,,,,,,,,,,,,,,,,,,300.74842890002765,301.1500714998692,301.132837299956,301.23314179992303,301.63332409993745,None,right,1,0.3719632001593709,301.63332409993745,None,301.132837299956,301.23314179992303,301.23314179992303,None,302.03365210001357,None,,,,,,,11033,001,2024_Jan_11_1834,ANT,2021.2.3,60.014571509185,
1,5,no,down,C,L,,,,,,Block.xlsx,"你已经完成了整个实验（三个区组）。

请报告实验者已完成实验

非常感谢，再见！",50,0,-1.5,left,LLLLL.png,,,,,0,1,1,1,0,23,23,4,,,,,,,,,,,,,,,,,,,,,,,,,,,,,,,,,,,,,,,,,,,,,,,,,,,,,,,,,,,,,,,,302.4344160000328,302.8355071998667,302.81925149983726,302.91902779997326,303.3209481998347,None,left,1,0.4602743999566883,303.3209481998347,None,302.81925149983726,302.91902779997326,302.91902779997326,None,303.8031079999637,None,,,,,,,11033,001,2024_Jan_11_1834,ANT,2021.2.3,60.014571509185,
1,11,center,up,IC,L,,,,,,Block.xlsx,"你已经完成了整个实验（三个区组）。

请报告实验者已完成实验

非常感谢，再见！",0,50,1.5,left,RRLRR.png,,,,,0,1,1,1,1,0,24,10,,,,,,,,,,,,,,,,,,,,,,,,,,,,,,,,,,,,,,,,,,,,,,,,,,,,,,,,,,,,,,,,304.2045419998467,304.60479180002585,304.58808839996345,304.6882923999801,305.0890265998896,None,left,1,0.35595909995026886,305.0890265998896,None,304.58808839996345,304.6882923999801,304.6882923999801,None,305.47206279984675,None,,,,,,,11033,001,2024_Jan_11_1834,ANT,2021.2.3,60.014571509185,
1,11,center,up,IC,L,,,,,,Block.xlsx,"你已经完成了整个实验（三个区组）。

请报告实验者已完成实验

非常感谢，再见！",0,50,1.5,left,RRLRR.png,,,,,0,1,1,1,1,1,25,10,,,,,,,,,,,,,,,,,,,,,,,,,,,,,,,,,,,,,,,,,,,,,,,,,,,,,,,,,,,,,,,,305.87295489991084,306.27417730004527,306.25728689995594,306.35872409981675,306.7579912999645,None,left,1,0.6317140001337975,306.7579912999645,None,306.25728689995594,306.35872409981675,306.35872409981675,None,307.40824649995193,None,,,,,,,11033,001,2024_Jan_11_1834,ANT,2021.2.3,60.014571509185,
1,2,no,up,C,R,,,,,,Block.xlsx,"你已经完成了整个实验（三个区组）。

请报告实验者已完成实验

非常感谢，再见！",50,0,1.5,right,RRRRR.png,,,,,0,1,1,1,1,2,26,1,,,,,,,,,,,,,,,,,,,,,,,,,,,,,,,,,,,,,,,,,,,,,,,,,,,,,,,,,,,,,,,,307.80882429983467,308.2117816999089,308.1935021998361,308.29418609989807,308.6959275000263,None,right,1,0.4932672001887113,308.6959275000263,None,308.1935021998361,308.29418609989807,308.29418609989807,None,309.21071180002764,None,,,,,,,11033,001,2024_Jan_11_1834,ANT,2021.2.3,60.014571509185,
1,9,center,up,C,L,,,,,,Block.xlsx,"你已经完成了整个实验（三个区组）。

请报告实验者已完成实验

非常感谢，再见！",0,50,1.5,left,LLLLL.png,,,,,0,1,1,1,1,3,27,8,,,,,,,,,,,,,,,,,,,,,,,,,,,,,,,,,,,,,,,,,,,,,,,,,,,,,,,,,,,,,,,,309.61130389990285,310.0126673998311,309.9960944999475,310.09620569995604,310.49688380002044,None,left,1,0.36422730004414916,310.49688380002044,None,309.9960944999475,310.09620569995604,310.09620569995604,None,310.88007909990847,None,,,,,,,11033,001,2024_Jan_11_1834,ANT,2021.2.3,60.014571509185,
1,16,center,down,IC,R,,,,,,Block.xlsx,"你已经完成了整个实验（三个区组）。

请报告实验者已完成实验

非常感谢，再见！",0,50,-1.5,right,LLRLL.png,,,,,0,1,1,1,1,4,28,15,,,,,,,,,,,,,,,,,,,,,,,,,,,,,,,,,,,,,,,,,,,,,,,,,,,,,,,,,,,,,,,,311.2807226998266,311.68337760004215,311.66491229995154,311.7654526999686,312.16619859985076,None,right,1,0.6069870998617262,312.16619859985076,None,311.66491229995154,311.7654526999686,311.7654526999686,None,312.80015679984353,None,,,,,,,11033,001,2024_Jan_11_1834,ANT,2021.2.3,60.014571509185,
1,7,no,down,IC,L,,,,,,Block.xlsx,"你已经完成了整个实验（三个区组）。

请报告实验者已完成实验

非常感谢，再见！",50,0,-1.5,left,RRLRR.png,,,,,0,1,1,1,1,5,29,6,,,,,,,,,,,,,,,,,,,,,,,,,,,,,,,,,,,,,,,,,,,,,,,,,,,,,,,,,,,,,,,,313.2011088998988,313.60305359982885,313.5848222998902,313.6861630999483,314.0854042000137,None,left,1,0.6320666999090463,314.0854042000137,None,313.5848222998902,313.6861630999483,313.6861630999483,None,314.7367753998842,None,,,,,,,11033,001,2024_Jan_11_1834,ANT,2021.2.3,60.014571509185,
1,21,spatial,down,C,L,,,,,,Block.xlsx,"你已经完成了整个实验（三个区组）。

请报告实验者已完成实验

非常感谢，再见！",-1.5,0,-1.5,left,LLLLL.png,,,,,0,1,1,1,1,6,30,20,,,,,,,,,,,,,,,,,,,,,,,,,,,,,,,,,,,,,,,,,,,,,,,,,,,,,,,,,,,,,,,,315.13632479985245,315.5389659998473,315.5206048998516,315.6221794998273,316.0219872999005,None,left,1,0.44754260010086,316.0219872999005,None,315.5206048998516,315.6221794998273,315.6221794998273,None,316.4888827998657,None,,,,,,,11033,001,2024_Jan_11_1834,ANT,2021.2.3,60.014571509185,
1,24,spatial,down,IC,R,,,,,,Block.xlsx,"你已经完成了整个实验（三个区组）。

请报告实验者已完成实验

非常感谢，再见！",-1.5,0,-1.5,right,LLRLL.png,,,,,0,1,1,1,1,7,31,23,,,,,,,,,,,,,,,,,,,,,,,,,,,,,,,,,,,,,,,,,,,,,,,,,,,,,,,,,,,,,,,,316.88884609984234,317.2895261000376,317.273526399862,317.37359289987944,317.7736541000195,None,right,1,0.5193553999997675,317.7736541000195,None,317.273526399862,317.37359289987944,317.37359289987944,None,318.3250178999733,None,,,,,,,11033,001,2024_Jan_11_1834,ANT,2021.2.3,60.014571509185,
1,23,spatial,down,IC,L,,,,,,Block.xlsx,"你已经完成了整个实验（三个区组）。

请报告实验者已完成实验

非常感谢，再见！",-1.5,0,-1.5,left,RRLRR.png,,,,,0,1,1,1,1,8,32,22,,,,,,,,,,,,,,,,,,,,,,,,,,,,,,,,,,,,,,,,,,,,,,,,,,,,,,,,,,,,,,,,318.72499060002156,319.1269125000108,319.10949249984697,319.21001040004194,319.61014709994197,None,left,1,0.5950256001669914,319.61014709994197,None,319.10949249984697,319.21001040004194,319.21001040004194,None,320.22712189983577,None,,,,,,,11033,001,2024_Jan_11_1834,ANT,2021.2.3,60.014571509185,
1,20,spatial,up,IC,R,,,,,,Block.xlsx,"你已经完成了整个实验（三个区组）。

请报告实验者已完成实验

非常感谢，再见！",1.5,0,1.5,right,LLRLL.png,,,,,0,1,1,1,1,9,33,19,,,,,,,,,,,,,,,,,,,,,,,,,,,,,,,,,,,,,,,,,,,,,,,,,,,,,,,,,,,,,,,,320.62786829983816,321.0291340998374,321.01237829984166,321.11291829985566,321.5132179998327,None,left,0,0.3967136999126524,321.5132179998327,None,321.01237829984166,321.11291829985566,321.11291829985566,None,321.93002730002627,None,,,,,,,11033,001,2024_Jan_11_1834,ANT,2021.2.3,60.014571509185,
1,12,center,up,IC,R,,,,,,Block.xlsx,"你已经完成了整个实验（三个区组）。

请报告实验者已完成实验

非常感谢，再见！",0,50,1.5,right,LLRLL.png,,,,,0,1,1,1,1,10,34,11,,,,,,,,,,,,,,,,,,,,,,,,,,,,,,,,,,,,,,,,,,,,,,,,,,,,,,,,,,,,,,,,322.3303802998271,322.73159169987775,322.71524049993604,322.81462950003333,323.2156563999597,None,right,1,0.6294414000585675,323.2156563999597,None,322.71524049993604,322.81462950003333,322.81462950003333,None,323.8658857999835,None,,,,,,,11033,001,2024_Jan_11_1834,ANT,2021.2.3,60.014571509185,
1,2,no,up,C,R,,,,,,Block.xlsx,"你已经完成了整个实验（三个区组）。

请报告实验者已完成实验

非常感谢，再见！",50,0,1.5,right,RRRRR.png,,,,,0,1,1,1,1,11,35,1,,,,,,,,,,,,,,,,,,,,,,,,,,,,,,,,,,,,,,,,,,,,,,,,,,,,,,,,,,,,,,,,324.2665130000096,324.6674375999719,324.65128650004044,324.7508788998239,325.15208150004037,None,right,1,0.53379140002653,325.15208150004037,None,324.65128650004044,324.7508788998239,324.7508788998239,None,325.7024917998351,None,,,,,,,11033,001,2024_Jan_11_1834,ANT,2021.2.3,60.014571509185,
1,21,spatial,down,C,L,,,,,,Block.xlsx,"你已经完成了整个实验（三个区组）。

请报告实验者已完成实验

非常感谢，再见！",-1.5,0,-1.5,left,LLLLL.png,,,,,0,1,1,1,1,12,36,20,,,,,,,,,,,,,,,,,,,,,,,,,,,,,,,,,,,,,,,,,,,,,,,,,,,,,,,,,,,,,,,,326.10259979986586,326.50385259999894,326.4877298998181,326.58686099993065,326.98800239991397,None,left,1,0.353320499882102,326.98800239991397,None,326.4877298998181,326.58686099993065,326.58686099993065,None,327.371056499891,None,,,,,,,11033,001,2024_Jan_11_1834,ANT,2021.2.3,60.014571509185,
1,12,center,up,IC,R,,,,,,Block.xlsx,"你已经完成了整个实验（三个区组）。

请报告实验者已完成实验

非常感谢，再见！",0,50,1.5,right,LLRLL.png,,,,,0,1,1,1,1,13,37,11,,,,,,,,,,,,,,,,,,,,,,,,,,,,,,,,,,,,,,,,,,,,,,,,,,,,,,,,,,,,,,,,327.7725082000252,328.17329349997453,328.15761019987985,328.25654360000044,328.65743230003864,None,left,0,0.46813689987175167,328.65743230003864,None,328.15761019987985,328.25654360000044,328.25654360000044,None,329.1579272998497,None,,,,,,,11033,001,2024_Jan_11_1834,ANT,2021.2.3,60.014571509185,
1,3,no,up,IC,L,,,,,,Block.xlsx,"你已经完成了整个实验（三个区组）。

请报告实验者已完成实验

非常感谢，再见！",50,0,1.5,left,RRLRR.png,,,,,0,1,1,1,1,14,38,2,,,,,,,,,,,,,,,,,,,,,,,,,,,,,,,,,,,,,,,,,,,,,,,,,,,,,,,,,,,,,,,,329.55837220000103,329.95927189989015,329.94252409995534,330.0424214999657,330.4423936000094,None,left,1,0.5787742999382317,330.4423936000094,None,329.94252409995534,330.0424214999657,330.0424214999657,None,331.0430330999661,None,,,,,,,11033,001,2024_Jan_11_1834,ANT,2021.2.3,60.014571509185,
1,3,no,up,IC,L,,,,,,Block.xlsx,"你已经完成了整个实验（三个区组）。

请报告实验者已完成实验

非常感谢，再见！",50,0,1.5,left,RRLRR.png,,,,,0,1,1,1,1,15,39,2,,,,,,,,,,,,,,,,,,,,,,,,,,,,,,,,,,,,,,,,,,,,,,,,,,,,,,,,,,,,,,,,331.4438805000391,331.84591150004417,331.8278500000015,331.9287086999975,332.33002260001376,None,left,1,0.5162682000081986,332.33002260001376,None,331.8278500000015,331.9287086999975,331.9287086999975,None,332.86259109992534,None,,,,,,,11033,001,2024_Jan_11_1834,ANT,2021.2.3,60.014571509185,
1,15,center,down,IC,L,,,,,,Block.xlsx,"你已经完成了整个实验（三个区组）。

请报告实验者已完成实验

非常感谢，再见！",0,50,-1.5,left,RRLRR.png,,,,,0,1,1,1,1,16,40,14,,,,,,,,,,,,,,,,,,,,,,,,,,,,,,,,,,,,,,,,,,,,,,,,,,,,,,,,,,,,,,,,333.2633068000432,333.6639697998762,333.6478444999084,333.74798799981363,334.14951959997416,None,left,1,0.6481743999756873,334.14951959997416,None,333.6478444999084,333.74798799981363,333.74798799981363,None,334.8158115998376,None,,,,,,,11033,001,2024_Jan_11_1834,ANT,2021.2.3,60.014571509185,
1,9,center,up,C,L,,,,,,Block.xlsx,"你已经完成了整个实验（三个区组）。

请报告实验者已完成实验

非常感谢，再见！",0,50,1.5,left,LLLLL.png,,,,,0,1,1,1,1,17,41,8,,,,,,,,,,,,,,,,,,,,,,,,,,,,,,,,,,,,,,,,,,,,,,,,,,,,,,,,,,,,,,,,335.2169914999977,335.6173149999231,335.60069849994034,335.7008251999505,336.10114529985003,None,left,1,0.4325800999067724,336.10114529985003,None,335.60069849994034,335.7008251999505,335.7008251999505,None,336.55235649994574,None,,,,,,,11033,001,2024_Jan_11_1834,ANT,2021.2.3,60.014571509185,
1,7,no,down,IC,L,,,,,,Block.xlsx,"你已经完成了整个实验（三个区组）。

请报告实验者已完成实验

非常感谢，再见！",50,0,-1.5,left,RRLRR.png,,,,,0,1,1,1,1,18,42,6,,,,,,,,,,,,,,,,,,,,,,,,,,,,,,,,,,,,,,,,,,,,,,,,,,,,,,,,,,,,,,,,336.95218929997645,337.3527857000008,337.33641049987637,337.43729339982383,337.83726669987664,None,right,0,0.3838537000119686,337.83726669987664,None,337.33641049987637,337.43729339982383,337.43729339982383,None,338.2374332998879,None,,,,,,,11033,001,2024_Jan_11_1834,ANT,2021.2.3,60.014571509185,
1,15,center,down,IC,L,,,,,,Block.xlsx,"你已经完成了整个实验（三个区组）。

请报告实验者已完成实验

非常感谢，再见！",0,50,-1.5,left,RRLRR.png,,,,,0,1,1,1,1,19,43,14,,,,,,,,,,,,,,,,,,,,,,,,,,,,,,,,,,,,,,,,,,,,,,,,,,,,,,,,,,,,,,,,338.63857059995644,339.03960359981284,339.02250439999625,339.1242123998236,339.52441509999335,None,left,1,0.6495368001051247,339.52441509999335,None,339.02250439999625,339.1242123998236,339.1242123998236,None,340.1899298999924,None,,,,,,,11033,001,2024_Jan_11_1834,ANT,2021.2.3,60.014571509185,
1,10,center,up,C,R,,,,,,Block.xlsx,"你已经完成了整个实验（三个区组）。

请报告实验者已完成实验

非常感谢，再见！",0,50,1.5,right,RRRRR.png,,,,,0,1,1,1,1,20,44,9,,,,,,,,,,,,,,,,,,,,,,,,,,,,,,,,,,,,,,,,,,,,,,,,,,,,,,,,,,,,,,,,340.59155509993434,340.99189159995876,340.97709889989346,341.0932487999089,341.47611449984834,None,right,1,0.6250217000488192,341.47611449984834,None,340.97709889989346,341.0932487999089,341.07485949993134,None,342.1271460999269,None,,,,,,,11033,001,2024_Jan_11_1834,ANT,2021.2.3,60.014571509185,
1,24,spatial,down,IC,R,,,,,,Block.xlsx,"你已经完成了整个实验（三个区组）。

请报告实验者已完成实验

非常感谢，再见！",-1.5,0,-1.5,right,LLRLL.png,,,,,0,1,1,1,1,21,45,23,,,,,,,,,,,,,,,,,,,,,,,,,,,,,,,,,,,,,,,,,,,,,,,,,,,,,,,,,,,,,,,,342.5278778998181,342.92945579998195,342.91150539997034,343.01243159989826,343.4116523999255,None,right,1,0.48986249999143183,343.4116523999255,None,342.91150539997034,343.01243159989826,343.01243159989826,None,343.92921979981475,None,,,,,,,11033,001,2024_Jan_11_1834,ANT,2021.2.3,60.014571509185,
1,8,no,down,IC,R,,,,,,Block.xlsx,"你已经完成了整个实验（三个区组）。

请报告实验者已完成实验

非常感谢，再见！",50,0,-1.5,right,LLRLL.png,,,,,0,1,1,1,1,22,46,7,,,,,,,,,,,,,,,,,,,,,,,,,,,,,,,,,,,,,,,,,,,,,,,,,,,,,,,,,,,,,,,,344.3296824998688,344.73025669995695,344.7162197998259,344.8145089999307,345.2158204000443,None,left,0,0.5175141000654548,345.2158204000443,None,344.7162197998259,344.8145089999307,344.8145089999307,None,345.74857529997826,None,,,,,,,11033,001,2024_Jan_11_1834,ANT,2021.2.3,60.014571509185,
1,20,spatial,up,IC,R,,,,,,Block.xlsx,"你已经完成了整个实验（三个区组）。

请报告实验者已完成实验

非常感谢，再见！",1.5,0,1.5,right,LLRLL.png,,,,,0,1,1,1,1,23,47,19,,,,,,,,,,,,,,,,,,,,,,,,,,,,,,,,,,,,,,,,,,,,,,,,,,,,,,,,,,,,,,,,346.1495784998406,346.5512870999519,346.5334741999395,346.63507129997015,347.03466039989144,None,right,1,0.60246940003708,347.03466039989144,None,346.5334741999395,346.63507129997015,346.63507129997015,None,347.66803399985656,None,,,,,,,11033,001,2024_Jan_11_1834,ANT,2021.2.3,60.014571509185,
1,21,spatial,down,C,L,,,,,,Block.xlsx,"你已经完成了整个实验（三个区组）。

请报告实验者已完成实验

非常感谢，再见！",-1.5,0,-1.5,left,LLLLL.png,,,,,0,1,1,1,2,0,48,20,,,,,,,,,,,,,,,,,,,,,,,,,,,,,,,,,,,,,,,,,,,,,,,,,,,,,,,,,,,,,,,,348.068498800043,348.4698639998678,348.4536702998448,348.5700898999348,348.9539722998161,None,left,1,0.3955212999135256,348.9539722998161,None,348.4536702998448,348.5700898999348,348.55434479983523,None,349.37039739987813,None,,,,,,,11033,001,2024_Jan_11_1834,ANT,2021.2.3,60.014571509185,
1,19,spatial,up,IC,L,,,,,,Block.xlsx,"你已经完成了整个实验（三个区组）。

请报告实验者已完成实验

非常感谢，再见！",1.5,0,1.5,left,RRLRR.png,,,,,0,1,1,1,2,1,49,18,,,,,,,,,,,,,,,,,,,,,,,,,,,,,,,,,,,,,,,,,,,,,,,,,,,,,,,,,,,,,,,,349.77150160004385,350.1722258999944,350.1555695999414,350.2556765000336,350.65653109992854,None,left,1,0.46051479992456734,350.65653109992854,None,350.1555695999414,350.2556765000336,350.2556765000336,None,351.13972679991275,None,,,,,,,11033,001,2024_Jan_11_1834,ANT,2021.2.3,60.014571509185,
1,14,center,down,C,R,,,,,,Block.xlsx,"你已经完成了整个实验（三个区组）。

请报告实验者已完成实验

非常感谢，再见！",0,50,-1.5,right,RRRRR.png,,,,,0,1,1,1,2,2,50,13,,,,,,,,,,,,,,,,,,,,,,,,,,,,,,,,,,,,,,,,,,,,,,,,,,,,,,,,,,,,,,,,351.54096939996816,351.9423569999635,351.92459820001386,352.02520549995825,352.4255255998578,None,right,1,0.4194851000793278,352.4255255998578,None,351.92459820001386,352.02520549995825,352.02520549995825,None,352.8757509998977,None,,,,,,,11033,001,2024_Jan_11_1834,ANT,2021.2.3,60.014571509185,
1,9,center,up,C,L,,,,,,Block.xlsx,"你已经完成了整个实验（三个区组）。

请报告实验者已完成实验

非常感谢，再见！",0,50,1.5,left,LLLLL.png,,,,,0,1,1,1,2,3,51,8,,,,,,,,,,,,,,,,,,,,,,,,,,,,,,,,,,,,,,,,,,,,,,,,,,,,,,,,,,,,,,,,353.27612809999846,353.6777254999615,353.66034840000793,353.7605489999987,354.16069679986686,None,left,1,0.40523190004751086,354.16069679986686,None,353.66034840000793,353.7605489999987,353.7605489999987,None,354.59480750001967,None,,,,,,,11033,001,2024_Jan_11_1834,ANT,2021.2.3,60.014571509185,
1,16,center,down,IC,R,,,,,,Block.xlsx,"你已经完成了整个实验（三个区组）。

请报告实验者已完成实验

非常感谢，再见！",0,50,-1.5,right,LLRLL.png,,,,,0,1,1,1,2,4,52,15,,,,,,,,,,,,,,,,,,,,,,,,,,,,,,,,,,,,,,,,,,,,,,,,,,,,,,,,,,,,,,,,354.99595599994063,355.39714449993335,355.37963599991053,355.48116969992407,355.8807796998881,None,right,1,0.508301000110805,355.8807796998881,None,355.37963599991053,355.48116969992407,355.48116969992407,None,356.4141128999181,None,,,,,,,11033,001,2024_Jan_11_1834,ANT,2021.2.3,60.014571509185,
1,12,center,up,IC,R,,,,,,Block.xlsx,"你已经完成了整个实验（三个区组）。

请报告实验者已完成实验

非常感谢，再见！",0,50,1.5,right,LLRLL.png,,,,,0,1,1,1,2,5,53,11,,,,,,,,,,,,,,,,,,,,,,,,,,,,,,,,,,,,,,,,,,,,,,,,,,,,,,,,,,,,,,,,356.8154270998202,357.2179936999455,357.199473900022,357.3003165998962,357.7000911999494,None,right,1,0.5296754001174122,357.7000911999494,None,357.199473900022,357.3003165998962,357.3003165998962,None,358.25052280002274,None,,,,,,,11033,001,2024_Jan_11_1834,ANT,2021.2.3,60.014571509185,
1,17,spatial,up,C,L,,,,,,Block.xlsx,"你已经完成了整个实验（三个区组）。

请报告实验者已完成实验

非常感谢，再见！",1.5,0,1.5,left,LLLLL.png,,,,,0,1,1,1,2,6,54,16,,,,,,,,,,,,,,,,,,,,,,,,,,,,,,,,,,,,,,,,,,,,,,,,,,,,,,,,,,,,,,,,358.65086989989504,359.0527223998215,359.035360599868,359.13603009982035,359.5354616998229,None,left,1,0.4777279000263661,359.5354616998229,None,359.035360599868,359.13603009982035,359.13603009982035,None,360.0360811999999,None,,,,,,,11033,001,2024_Jan_11_1834,ANT,2021.2.3,60.014571509185,
1,13,center,down,C,L,,,,,,Block.xlsx,"你已经完成了整个实验（三个区组）。

请报告实验者已完成实验

非常感谢，再见！",0,50,-1.5,left,LLLLL.png,,,,,0,1,1,1,2,7,55,12,,,,,,,,,,,,,,,,,,,,,,,,,,,,,,,,,,,,,,,,,,,,,,,,,,,,,,,,,,,,,,,,360.4368175000418,360.83973310003057,360.821375799831,360.9214893998578,361.32207169989124,None,left,1,0.44320629979483783,361.32207169989124,None,360.821375799831,360.9214893998578,360.9214893998578,None,361.7893825999927,None,,,,,,,11033,001,2024_Jan_11_1834,ANT,2021.2.3,60.014571509185,
1,4,no,up,IC,R,,,,,,Block.xlsx,"你已经完成了整个实验（三个区组）。

请报告实验者已完成实验

非常感谢，再见！",50,0,1.5,right,LLRLL.png,,,,,0,1,1,1,2,8,56,3,,,,,,,,,,,,,,,,,,,,,,,,,,,,,,,,,,,,,,,,,,,,,,,,,,,,,,,,,,,,,,,,362.19010080001317,362.5908033999149,362.5740059998352,362.6751468000002,363.0751350999344,None,right,1,0.5780873000621796,363.0751350999344,None,362.5740059998352,362.6751468000002,362.6751468000002,None,363.67638359987177,None,,,,,,,11033,001,2024_Jan_11_1834,ANT,2021.2.3,60.014571509185,
1,23,spatial,down,IC,L,,,,,,Block.xlsx,"你已经完成了整个实验（三个区组）。

请报告实验者已完成实验

非常感谢，再见！",-1.5,0,-1.5,left,RRLRR.png,,,,,0,1,1,1,2,9,57,22,,,,,,,,,,,,,,,,,,,,,,,,,,,,,,,,,,,,,,,,,,,,,,,,,,,,,,,,,,,,,,,,364.0754186999984,364.47690310003236,364.4612191999331,364.5592534998432,364.9616832998581,None,left,1,0.5318658999167383,364.9616832998581,None,364.4612191999331,364.5592534998432,364.5592534998432,None,365.51160579989664,None,,,,,,,11033,001,2024_Jan_11_1834,ANT,2021.2.3,60.014571509185,
1,5,no,down,C,L,,,,,,Block.xlsx,"你已经完成了整个实验（三个区组）。

请报告实验者已完成实验

非常感谢，再见！",50,0,-1.5,left,LLLLL.png,,,,,0,1,1,1,2,10,58,4,,,,,,,,,,,,,,,,,,,,,,,,,,,,,,,,,,,,,,,,,,,,,,,,,,,,,,,,,,,,,,,,365.91160719981417,366.3129265999887,366.29664039984345,366.3963535998482,366.7964985999279,None,left,1,0.5856959000229836,366.7964985999279,None,366.29664039984345,366.3963535998482,366.3963535998482,None,367.39701609988697,None,,,,,,,11033,001,2024_Jan_11_1834,ANT,2021.2.3,60.014571509185,
1,18,spatial,up,C,R,,,,,,Block.xlsx,"你已经完成了整个实验（三个区组）。

请报告实验者已完成实验

非常感谢，再见！",1.5,0,1.5,right,RRRRR.png,,,,,0,1,1,1,2,11,59,17,,,,,,,,,,,,,,,,,,,,,,,,,,,,,,,,,,,,,,,,,,,,,,,,,,,,,,,,,,,,,,,,367.7977090999484,368.1987707000226,368.1835204998497,368.2824438000098,368.6836078998167,None,right,1,0.39354009996168315,368.6836078998167,None,368.1835204998497,368.2824438000098,368.2824438000098,None,369.099652600009,None,,,,,,,11033,001,2024_Jan_11_1834,ANT,2021.2.3,60.014571509185,
1,22,spatial,down,C,R,,,,,,Block.xlsx,"你已经完成了整个实验（三个区组）。

请报告实验者已完成实验

非常感谢，再见！",-1.5,0,-1.5,right,RRRRR.png,,,,,0,1,1,1,2,12,60,21,,,,,,,,,,,,,,,,,,,,,,,,,,,,,,,,,,,,,,,,,,,,,,,,,,,,,,,,,,,,,,,,369.50034789997153,369.90152189997025,369.88487489987165,369.98562989989296,370.38572219992056,None,right,1,0.435378200141713,370.38572219992056,None,369.88487489987165,369.98562989989296,369.98562989989296,None,370.835351199843,None,,,,,,,11033,001,2024_Jan_11_1834,ANT,2021.2.3,60.014571509185,
1,3,no,up,IC,L,,,,,,Block.xlsx,"你已经完成了整个实验（三个区组）。

请报告实验者已完成实验

非常感谢，再见！",50,0,1.5,left,RRLRR.png,,,,,0,1,1,1,2,13,61,2,,,,,,,,,,,,,,,,,,,,,,,,,,,,,,,,,,,,,,,,,,,,,,,,,,,,,,,,,,,,,,,,371.236234099837,371.63749430002645,371.62134950002655,371.7213136998471,372.12233679997735,None,left,1,0.4748490999918431,372.12233679997735,None,371.62134950002655,371.7213136998471,371.7213136998471,None,372.62164309993386,None,,,,,,,11033,001,2024_Jan_11_1834,ANT,2021.2.3,60.014571509185,
1,4,no,up,IC,R,,,,,,Block.xlsx,"你已经完成了整个实验（三个区组）。

请报告实验者已完成实验

非常感谢，再见！",50,0,1.5,right,LLRLL.png,,,,,0,1,1,1,2,14,62,3,,,,,,,,,,,,,,,,,,,,,,,,,,,,,,,,,,,,,,,,,,,,,,,,,,,,,,,,,,,,,,,,373.0230835999828,373.4241843998898,373.40636369981803,373.50687569985166,373.9072224998381,None,left,0,0.4418019999284297,373.9072224998381,None,373.40636369981803,373.50687569985166,373.50687569985166,None,374.3741758998949,None,,,,,,,11033,001,2024_Jan_11_1834,ANT,2021.2.3,60.014571509185,
1,5,no,down,C,L,,,,,,Block.xlsx,"你已经完成了整个实验（三个区组）。

请报告实验者已完成实验

非常感谢，再见！",50,0,-1.5,left,LLLLL.png,,,,,0,1,1,1,2,15,63,4,,,,,,,,,,,,,,,,,,,,,,,,,,,,,,,,,,,,,,,,,,,,,,,,,,,,,,,,,,,,,,,,374.7755082999356,375.17535469983704,375.1592534999363,375.25961489998735,375.66089709987864,None,left,1,0.4805974999908358,375.66089709987864,None,375.1592534999363,375.25961489998735,375.25961489998735,None,376.16001269989647,None,,,,,,,11033,001,2024_Jan_11_1834,ANT,2021.2.3,60.014571509185,
1,15,center,down,IC,L,,,,,,Block.xlsx,"你已经完成了整个实验（三个区组）。

请报告实验者已完成实验

非常感谢，再见！",0,50,-1.5,left,RRLRR.png,,,,,0,1,1,1,2,16,64,14,,,,,,,,,,,,,,,,,,,,,,,,,,,,,,,,,,,,,,,,,,,,,,,,,,,,,,,,,,,,,,,,376.56061319983564,376.96290209982544,376.9446461999323,377.04556160001084,377.44529319996946,None,left,1,0.9598395999055356,377.44529319996946,None,376.9446461999323,377.04556160001084,377.04556160001084,None,378.4302395998966,None,,,,,,,11033,001,2024_Jan_11_1834,ANT,2021.2.3,60.014571509185,
1,4,no,up,IC,R,,,,,,Block.xlsx,"你已经完成了整个实验（三个区组）。

请报告实验者已完成实验

非常感谢，再见！",50,0,1.5,right,LLRLL.png,,,,,0,1,1,1,2,17,65,3,,,,,,,,,,,,,,,,,,,,,,,,,,,,,,,,,,,,,,,,,,,,,,,,,,,,,,,,,,,,,,,,378.83196570002474,379.23147169989534,379.2152425998356,379.31611549993977,379.7162061999552,None,right,1,0.5692981998436153,379.7162061999552,None,379.2152425998356,379.31611549993977,379.31611549993977,None,380.3162545999512,None,,,,,,,11033,001,2024_Jan_11_1834,ANT,2021.2.3,60.014571509185,
1,19,spatial,up,IC,L,,,,,,Block.xlsx,"你已经完成了整个实验（三个区组）。

请报告实验者已完成实验

非常感谢，再见！",1.5,0,1.5,left,RRLRR.png,,,,,0,1,1,1,2,18,66,18,,,,,,,,,,,,,,,,,,,,,,,,,,,,,,,,,,,,,,,,,,,,,,,,,,,,,,,,,,,,,,,,380.71763169998303,381.118877899833,381.1015155999921,381.20134819997475,381.6026413999498,None,right,0,0.46660069981589913,381.6026413999498,None,381.1015155999921,381.20134819997475,381.20134819997475,None,382.08566459990107,None,,,,,,,11033,001,2024_Jan_11_1834,ANT,2021.2.3,60.014571509185,
1,8,no,down,IC,R,,,,,,Block.xlsx,"你已经完成了整个实验（三个区组）。

请报告实验者已完成实验

非常感谢，再见！",50,0,-1.5,right,LLRLL.png,,,,,0,1,1,1,2,19,67,7,,,,,,,,,,,,,,,,,,,,,,,,,,,,,,,,,,,,,,,,,,,,,,,,,,,,,,,,,,,,,,,,382.4861014999915,382.8883590998594,382.8707428998314,382.97147349989973,383.37266969983466,None,right,1,0.624458699952811,383.37266969983466,None,382.8707428998314,382.97147349989973,382.97147349989973,None,384.0224392998498,None,,,,,,,11033,001,2024_Jan_11_1834,ANT,2021.2.3,60.014571509185,
1,1,no,up,C,L,,,,,,Block.xlsx,"你已经完成了整个实验（三个区组）。

请报告实验者已完成实验

非常感谢，再见！",50,0,1.5,left,LLLLL.png,,,,,0,1,1,1,2,20,68,0,,,,,,,,,,,,,,,,,,,,,,,,,,,,,,,,,,,,,,,,,,,,,,,,,,,,,,,,,,,,,,,,384.42293130001053,384.82407159986906,384.80841769999824,384.9069138998166,385.3076643999666,None,left,1,0.4503729999996722,385.3076643999666,None,384.80841769999824,384.9069138998166,384.9069138998166,None,385.77430669986643,None,,,,,,,11033,001,2024_Jan_11_1834,ANT,2021.2.3,60.014571509185,
1,22,spatial,down,C,R,,,,,,Block.xlsx,"你已经完成了整个实验（三个区组）。

请报告实验者已完成实验

非常感谢，再见！",-1.5,0,-1.5,right,RRRRR.png,,,,,0,1,1,1,2,21,69,21,,,,,,,,,,,,,,,,,,,,,,,,,,,,,,,,,,,,,,,,,,,,,,,,,,,,,,,,,,,,,,,,386.1763338998426,386.57631090003997,386.55987429991364,386.66056540003046,387.06017499999143,None,right,1,0.4250201000832021,387.06017499999143,None,386.55987429991364,386.66056540003046,386.66056540003046,None,387.51028109993786,None,,,,,,,11033,001,2024_Jan_11_1834,ANT,2021.2.3,60.014571509185,
1,17,spatial,up,C,L,,,,,,Block.xlsx,"你已经完成了整个实验（三个区组）。

请报告实验者已完成实验

非常感谢，再见！",1.5,0,1.5,left,LLLLL.png,,,,,0,1,1,1,2,22,70,16,,,,,,,,,,,,,,,,,,,,,,,,,,,,,,,,,,,,,,,,,,,,,,,,,,,,,,,,,,,,,,,,387.9118301998824,388.3119975000154,388.29560109996237,388.3962905998342,388.79636119981296,None,left,1,0.37691089999862015,388.79636119981296,None,388.29560109996237,388.3962905998342,388.3962905998342,None,389.19605230004527,None,,,,,,,11033,001,2024_Jan_11_1834,ANT,2021.2.3,60.014571509185,
1,19,spatial,up,IC,L,,,,,,Block.xlsx,"你已经完成了整个实验（三个区组）。

请报告实验者已完成实验

非常感谢，再见！",1.5,0,1.5,left,RRLRR.png,,,,,0,1,1,1,2,23,71,18,,,,,,,,,,,,,,,,,,,,,,,,,,,,,,,,,,,,,,,,,,,,,,,,,,,,,,,,,,,,,,,,389.597200299846,389.99853049986996,389.98097959998995,390.08174599986523,390.48222899995744,None,left,1,0.49106979998759925,390.48222899995744,None,389.98097959998995,390.08174599986523,390.08174599986523,None,390.9996229999233,None,,,,,,,11033,001,2024_Jan_11_1834,ANT,2021.2.3,60.014571509185,
1,14,center,down,C,R,,,,,,Block.xlsx,"你已经完成了整个实验（三个区组）。

请报告实验者已完成实验

非常感谢，再见！",0,50,-1.5,right,RRRRR.png,,,,,0,1,1,1,3,0,72,13,,,,,,,,,,,,,,,,,,,,,,,,,,,,,,,,,,,,,,,,,,,,,,,,,,,,,,,,,,,,,,,,391.4005077998154,391.80178079986945,391.78392759989947,391.88383639999665,392.2853361000307,None,right,1,0.46487949998117983,392.2853361000307,None,391.78392759989947,391.88383639999665,391.88383639999665,None,392.76836510002613,None,,,,,,,11033,001,2024_Jan_11_1834,ANT,2021.2.3,60.014571509185,
1,13,center,down,C,L,,,,,,Block.xlsx,"你已经完成了整个实验（三个区组）。

请报告实验者已完成实验

非常感谢，再见！",0,50,-1.5,left,LLLLL.png,,,,,0,1,1,1,3,1,73,12,,,,,,,,,,,,,,,,,,,,,,,,,,,,,,,,,,,,,,,,,,,,,,,,,,,,,,,,,,,,,,,,393.16924849990755,393.5693852000404,393.5531666998286,393.65349489985965,394.05527539993636,None,left,1,0.5663748001679778,394.05527539993636,None,393.5531666998286,393.65349489985965,393.65349489985965,None,394.6376322999131,None,,,,,,,11033,001,2024_Jan_11_1834,ANT,2021.2.3,60.014571509185,
1,9,center,up,C,L,,,,,,Block.xlsx,"你已经完成了整个实验（三个区组）。

请报告实验者已完成实验

非常感谢，再见！",0,50,1.5,left,LLLLL.png,,,,,0,1,1,1,3,2,74,8,,,,,,,,,,,,,,,,,,,,,,,,,,,,,,,,,,,,,,,,,,,,,,,,,,,,,,,,,,,,,,,,395.0381226998288,395.4403810999356,395.42256330000237,395.52290949993767,395.92468369985,None,left,1,0.40049310005269945,395.92468369985,None,395.42256330000237,395.52290949993767,395.52290949993767,None,396.3569916000124,None,,,,,,,11033,001,2024_Jan_11_1834,ANT,2021.2.3,60.014571509185,
1,20,spatial,up,IC,R,,,,,,Block.xlsx,"你已经完成了整个实验（三个区组）。

请报告实验者已完成实验

非常感谢，再见！",1.5,0,1.5,right,LLRLL.png,,,,,0,1,1,1,3,3,75,19,,,,,,,,,,,,,,,,,,,,,,,,,,,,,,,,,,,,,,,,,,,,,,,,,,,,,,,,,,,,,,,,396.75882550003007,397.15856929984875,397.1410711999051,397.2421265998855,397.64315519994125,None,right,1,0.5544724999926984,397.64315519994125,None,397.1410711999051,397.2421265998855,397.2421265998855,None,398.22610099986196,None,,,,,,,11033,001,2024_Jan_11_1834,ANT,2021.2.3,60.014571509185,
1,3,no,up,IC,L,,,,,,Block.xlsx,"你已经完成了整个实验（三个区组）。

请报告实验者已完成实验

非常感谢，再见！",50,0,1.5,left,RRLRR.png,,,,,0,1,1,1,3,4,76,2,,,,,,,,,,,,,,,,,,,,,,,,,,,,,,,,,,,,,,,,,,,,,,,,,,,,,,,,,,,,,,,,398.62793800001964,399.02813109988347,399.0124053999316,399.11270259995945,399.5121173998341,None,left,1,0.5504749999381602,399.5121173998341,None,399.0124053999316,399.11270259995945,399.11270259995945,None,400.07887099985965,None,,,,,,,11033,001,2024_Jan_11_1834,ANT,2021.2.3,60.014571509185,
1,12,center,up,IC,R,,,,,,Block.xlsx,"你已经完成了整个实验（三个区组）。

请报告实验者已完成实验

非常感谢，再见！",0,50,1.5,right,LLRLL.png,,,,,0,1,1,1,3,5,77,11,,,,,,,,,,,,,,,,,,,,,,,,,,,,,,,,,,,,,,,,,,,,,,,,,,,,,,,,,,,,,,,,400.4796014998574,400.88019689987414,400.86548129981384,400.9810073999688,401.36429889989085,None,right,1,0.5133393998257816,401.36429889989085,None,400.86548129981384,400.9810073999688,400.9657070999965,None,401.89850279991515,None,,,,,,,11033,001,2024_Jan_11_1834,ANT,2021.2.3,60.014571509185,
1,18,spatial,up,C,R,,,,,,Block.xlsx,"你已经完成了整个实验（三个区组）。

请报告实验者已完成实验

非常感谢，再见！",1.5,0,1.5,right,RRRRR.png,,,,,0,1,1,1,3,6,78,17,,,,,,,,,,,,,,,,,,,,,,,,,,,,,,,,,,,,,,,,,,,,,,,,,,,,,,,,,,,,,,,,402.2998883998953,402.6997293999884,402.68356219981797,402.78366889990866,403.1842704999726,None,right,1,0.3892394998110831,403.1842704999726,None,402.68356219981797,402.78366889990866,402.78366889990866,None,403.6008174000308,None,,,,,,,11033,001,2024_Jan_11_1834,ANT,2021.2.3,60.014571509185,
1,11,center,up,IC,L,,,,,,Block.xlsx,"你已经完成了整个实验（三个区组）。

请报告实验者已完成实验

非常感谢，再见！",0,50,1.5,left,RRLRR.png,,,,,0,1,1,1,3,7,79,10,,,,,,,,,,,,,,,,,,,,,,,,,,,,,,,,,,,,,,,,,,,,,,,,,,,,,,,,,,,,,,,,404.00204039993696,404.4021421999205,404.38723859982565,404.4872518000193,404.8859391999431,None,left,1,0.49630310013890266,404.8859391999431,None,404.38723859982565,404.4872518000193,404.4872518000193,None,405.40373059990816,None,,,,,,,11033,001,2024_Jan_11_1834,ANT,2021.2.3,60.014571509185,
1,15,center,down,IC,L,,,,,,Block.xlsx,"你已经完成了整个实验（三个区组）。

请报告实验者已完成实验

非常感谢，再见！",0,50,-1.5,left,RRLRR.png,,,,,0,1,1,1,3,8,80,14,,,,,,,,,,,,,,,,,,,,,,,,,,,,,,,,,,,,,,,,,,,,,,,,,,,,,,,,,,,,,,,,405.8041119000409,406.20564509998076,406.1890259999782,406.28838269994594,406.6889322998468,None,left,1,0.612223600037396,406.6889322998468,None,406.1890259999782,406.28838269994594,406.28838269994594,None,407.32274600001983,None,,,,,,,11033,001,2024_Jan_11_1834,ANT,2021.2.3,60.014571509185,
1,23,spatial,down,IC,L,,,,,,Block.xlsx,"你已经完成了整个实验（三个区组）。

请报告实验者已完成实验

非常感谢，再见！",-1.5,0,-1.5,left,RRLRR.png,,,,,0,1,1,1,3,9,81,22,,,,,,,,,,,,,,,,,,,,,,,,,,,,,,,,,,,,,,,,,,,,,,,,,,,,,,,,,,,,,,,,407.7245078999549,408.1254618000239,408.1085893998388,408.2085501998663,408.6090074998792,None,left,1,0.6852273000404239,408.6090074998792,None,408.1085893998388,408.2085501998663,408.2085501998663,None,409.30999959982,None,,,,,,,11033,001,2024_Jan_11_1834,ANT,2021.2.3,60.014571509185,
1,16,center,down,IC,R,,,,,,Block.xlsx,"你已经完成了整个实验（三个区组）。

请报告实验者已完成实验

非常感谢，再见！",0,50,-1.5,right,LLRLL.png,,,,,0,1,1,1,3,10,82,15,,,,,,,,,,,,,,,,,,,,,,,,,,,,,,,,,,,,,,,,,,,,,,,,,,,,,,,,,,,,,,,,409.71061139996164,410.1118467999622,410.09363859985024,410.19630720000714,410.59541549999267,None,right,1,0.617639800067991,410.59541549999267,None,410.09363859985024,410.19630720000714,410.19630720000714,None,411.228645300027,None,,,,,,,11033,001,2024_Jan_11_1834,ANT,2021.2.3,60.014571509185,
1,11,center,up,IC,L,,,,,,Block.xlsx,"你已经完成了整个实验（三个区组）。

请报告实验者已完成实验

非常感谢，再见！",0,50,1.5,left,RRLRR.png,,,,,0,1,1,1,3,11,83,10,,,,,,,,,,,,,,,,,,,,,,,,,,,,,,,,,,,,,,,,,,,,,,,,,,,,,,,,,,,,,,,,411.6293583998922,412.03072489984334,412.0140386999119,412.1154604998883,412.5151098999195,None,left,1,0.5304124001413584,412.5151098999195,None,412.0140386999119,412.1154604998883,412.1154604998883,None,413.0647159998771,None,,,,,,,11033,001,2024_Jan_11_1834,ANT,2021.2.3,60.014571509185,
1,17,spatial,up,C,L,,,,,,Block.xlsx,"你已经完成了整个实验（三个区组）。

请报告实验者已完成实验

非常感谢，再见！",1.5,0,1.5,left,LLLLL.png,,,,,0,1,1,1,3,12,84,16,,,,,,,,,,,,,,,,,,,,,,,,,,,,,,,,,,,,,,,,,,,,,,,,,,,,,,,,,,,,,,,,413.46565239992924,413.8664573999122,413.84991009999067,413.9501161999069,414.3517620000057,None,left,1,0.6536852999124676,414.3517620000057,None,413.84991009999067,413.9501161999069,413.9501161999069,None,415.0342288999818,None,,,,,,,11033,001,2024_Jan_11_1834,ANT,2021.2.3,60.014571509185,
1,7,no,down,IC,L,,,,,,Block.xlsx,"你已经完成了整个实验（三个区组）。

请报告实验者已完成实验

非常感谢，再见！",50,0,-1.5,left,RRLRR.png,,,,,0,1,1,1,3,13,85,6,,,,,,,,,,,,,,,,,,,,,,,,,,,,,,,,,,,,,,,,,,,,,,,,,,,,,,,,,,,,,,,,415.43491409998387,415.83569439989515,415.82098059984855,415.93566909991205,416.3219708998222,None,left,1,0.5954732000827789,416.3219708998222,None,415.82098059984855,415.93566909991205,415.9198395998683,None,416.938446899876,None,,,,,,,11033,001,2024_Jan_11_1834,ANT,2021.2.3,60.014571509185,
1,24,spatial,down,IC,R,,,,,,Block.xlsx,"你已经完成了整个实验（三个区组）。

请报告实验者已完成实验

非常感谢，再见！",-1.5,0,-1.5,right,LLRLL.png,,,,,0,1,1,1,3,14,86,23,,,,,,,,,,,,,,,,,,,,,,,,,,,,,,,,,,,,,,,,,,,,,,,,,,,,,,,,,,,,,,,,417.3377906999085,417.7402749999892,417.7224650999997,417.82280079997145,418.22322369995527,None,left,0,0.46236709994263947,418.22322369995527,None,417.7224650999997,417.82280079997145,417.82280079997145,None,418.7064501999412,None,,,,,,,11033,001,2024_Jan_11_1834,ANT,2021.2.3,60.014571509185,
1,18,spatial,up,C,R,,,,,,Block.xlsx,"你已经完成了整个实验（三个区组）。

请报告实验者已完成实验

非常感谢，再见！",1.5,0,1.5,right,RRRRR.png,,,,,0,1,1,1,3,15,87,17,,,,,,,,,,,,,,,,,,,,,,,,,,,,,,,,,,,,,,,,,,,,,,,,,,,,,,,,,,,,,,,,419.10811819997616,419.5082423998974,419.49212339986116,419.59192499984056,419.99263129988685,None,right,1,0.4528058001305908,419.99263129988685,None,419.49212339986116,419.59192499984056,419.59192499984056,None,420.47645860002376,None,,,,,,,11033,001,2024_Jan_11_1834,ANT,2021.2.3,60.014571509185,
1,24,spatial,down,IC,R,,,,,,Block.xlsx,"你已经完成了整个实验（三个区组）。

请报告实验者已完成实验

非常感谢，再见！",-1.5,0,-1.5,right,LLRLL.png,,,,,0,1,1,1,3,16,88,23,,,,,,,,,,,,,,,,,,,,,,,,,,,,,,,,,,,,,,,,,,,,,,,,,,,,,,,,,,,,,,,,420.8768448999617,421.2772025000304,421.26088580000214,421.36166119994596,421.76291469996795,None,right,1,0.6106181999202818,421.76291469996795,None,421.26088580000214,421.36166119994596,421.36166119994596,None,422.39517269982025,None,,,,,,,11033,001,2024_Jan_11_1834,ANT,2021.2.3,60.014571509185,
1,16,center,down,IC,R,,,,,,Block.xlsx,"你已经完成了整个实验（三个区组）。

请报告实验者已完成实验

非常感谢，再见！",0,50,-1.5,right,LLRLL.png,,,,,0,1,1,1,3,17,89,15,,,,,,,,,,,,,,,,,,,,,,,,,,,,,,,,,,,,,,,,,,,,,,,,,,,,,,,,,,,,,,,,422.7961615000386,423.1976868000347,423.18005009996705,423.28161049983464,423.68154859985225,None,right,1,0.5558769998606294,423.68154859985225,None,423.18005009996705,423.28161049983464,423.28161049983464,None,424.26526080002077,None,,,,,,,11033,001,2024_Jan_11_1834,ANT,2021.2.3,60.014571509185,
1,13,center,down,C,L,,,,,,Block.xlsx,"你已经完成了整个实验（三个区组）。

请报告实验者已完成实验

非常感谢，再见！",0,50,-1.5,left,LLLLL.png,,,,,0,1,1,1,3,18,90,12,,,,,,,,,,,,,,,,,,,,,,,,,,,,,,,,,,,,,,,,,,,,,,,,,,,,,,,,,,,,,,,,424.666861299891,425.0681928000413,425.04982770001516,425.15080699999817,425.55005800002255,None,left,1,0.41545319999568164,425.55005800002255,None,425.04982770001516,425.15080699999817,425.15080699999817,None,425.9847107999958,None,,,,,,,11033,001,2024_Jan_11_1834,ANT,2021.2.3,60.014571509185,
1,1,no,up,C,L,,,,,,Block.xlsx,"你已经完成了整个实验（三个区组）。

请报告实验者已完成实验

非常感谢，再见！",50,0,1.5,left,LLLLL.png,,,,,0,1,1,1,3,19,91,0,,,,,,,,,,,,,,,,,,,,,,,,,,,,,,,,,,,,,,,,,,,,,,,,,,,,,,,,,,,,,,,,426.38460200000554,426.78515559993684,426.7690625998657,426.868636299856,427.26940949982964,None,left,1,0.4482288998551667,427.26940949982964,None,426.7690625998657,426.868636299856,426.868636299856,None,427.7365704998374,None,,,,,,,11033,001,2024_Jan_11_1834,ANT,2021.2.3,60.014571509185,
1,6,no,down,C,R,,,,,,Block.xlsx,"你已经完成了整个实验（三个区组）。

请报告实验者已完成实验

非常感谢，再见！",50,0,-1.5,right,RRRRR.png,,,,,0,1,1,1,3,20,92,5,,,,,,,,,,,,,,,,,,,,,,,,,,,,,,,,,,,,,,,,,,,,,,,,,,,,,,,,,,,,,,,,428.13712410000153,428.5383512999397,428.52184019982815,428.6211420998443,429.0216520000249,None,right,1,0.40761870006099343,429.0216520000249,None,428.52184019982815,428.6211420998443,428.6211420998443,None,429.4562206999399,None,,,,,,,11033,001,2024_Jan_11_1834,ANT,2021.2.3,60.014571509185,
1,13,center,down,C,L,,,,,,Block.xlsx,"你已经完成了整个实验（三个区组）。

请报告实验者已完成实验

