TrialType,TrialNumber,WarningType,TargetType,FlankerType,TargetDirection,W,f,Y,corr,imageFile,condition,endtext,Yw,Yf,Yt,Corr,imagefile,trials_3.thisRepN,trials_3.thisTrialN,trials_3.thisN,trials_3.thisIndex,trials_2.thisRepN,trials_2.thisTrialN,trials_2.thisN,trials_2.thisIndex,trials.thisRepN,trials.thisTrialN,trials.thisN,trials.thisIndex,instr.started,instr.stopped,key_resp.keys,key_resp.rt,key_resp.started,key_resp.stopped,image.started,image.stopped,key_resp_6.keys,key_resp_6.rt,key_resp_6.started,key_resp_6.stopped,EX_L.started,EX_L.stopped,AL.started,AL.stopped,key_resp_7.keys,key_resp_7.rt,key_resp_7.started,key_resp_7.stopped,EX_R.started,EX_R.stopped,RR.started,RR.stopped,key_resp_8.keys,key_resp_8.rt,key_resp_8.started,key_resp_8.stopped,image_2.started,image_2.stopped,key_resp_9.keys,key_resp_9.rt,key_resp_9.started,key_resp_9.stopped,image_3.started,image_3.stopped,key_resp_10.keys,key_resp_10.rt,key_resp_10.started,key_resp_10.stopped,fix.started,fix.stopped,war.started,war.stopped,tar.started,tar.stopped,key_resp_4.keys,key_resp_4.corr,key_resp_4.rt,key_resp_4.started,key_resp_4.stopped,fix2.started,fix2.stopped,fix_2.started,fix_2.stopped,Feedback.started,Feedback.stopped,key_resp_2.keys,key_resp_2.rt,key_resp_2.started,key_resp_2.stopped,text_5.started,text_5.stopped,fix2_1.started,fix2_1.stopped,Warn.started,Warn.stopped,Tar.started,Tar.stopped,key_resp_5.keys,key_resp_5.corr,key_resp_5.rt,key_resp_5.started,key_resp_5.stopped,Fix_2.started,Fix_2.stopped,fix2_2.started,fix2_2.stopped,text_4.started,text_4.stopped,key_resp_3.keys,key_resp_3.rt,key_resp_3.started,key_resp_3.stopped,text_3.started,text_3.stopped,participant,session,date,expName,psychopyVersion,frameRate,
,,,,,,,,,,,,,,,,,,,,,,,,,,,,,,9.39301890018396,None,space,4.203851599944755,9.39301890018396,None,,,,,,,,,,,,,,,,,,,,,,,,,,,,,,,,,,,,,,,,,,,,,,,,,,,,,,,,,,,,,,,,,,,,,,,,,,,,,,,,,11037,001,2024_Mar_11_1520,ANT,2021.2.3,59.93920959545546,
,,,,,,,,,,,,,,,,,,,,,,,,,,,,,,,,,,,,13.615039000054821,None,space,3.5746204999741167,13.615039000054821,None,,,,,,,,,,,,,,,,,,,,,,,,,,,,,,,,,,,,,,,,,,,,,,,,,,,,,,,,,,,,,,,,,,,,,,,,,,,11037,001,2024_Mar_11_1520,ANT,2021.2.3,59.93920959545546,
,,,,,,,,,,,,,,,,,,,,,,,,,,,,,,,,,,,,,,,,,,17.203857199987397,None,17.203857199987397,None,left,3.2006757999770343,17.203857199987397,None,,,,,,,,,,,,,,,,,,,,,,,,,,,,,,,,,,,,,,,,,,,,,,,,,,,,,,,,,,,,,,,,,,,11037,001,2024_Mar_11_1520,ANT,2021.2.3,59.93920959545546,
,,,,,,,,,,,,,,,,,,,,,,,,,,,,,,,,,,,,,,,,,,,,,,,,,,20.4252633000724,None,20.4252633000724,None,right,2.2595969000831246,20.4252633000724,None,,,,,,,,,,,,,,,,,,,,,,,,,,,,,,,,,,,,,,,,,,,,,,,,,,,,,,,,,,,11037,001,2024_Mar_11_1520,ANT,2021.2.3,59.93920959545546,
,,,,,,,,,,,,,,,,,,,,,,,,,,,,,,,,,,,,,,,,,,,,,,,,,,,,,,,,,,22.712117900140584,None,space,10.557025799993426,22.712117900140584,None,,,,,,,,,,,,,,,,,,,,,,,,,,,,,,,,,,,,,,,,,,,,,,,,,,,,,11037,001,2024_Mar_11_1520,ANT,2021.2.3,59.93920959545546,
,,,,,,,,,,,,,,,,,,,,,,,,,,,,,,,,,,,,,,,,,,,,,,,,,,,,,,,,,,,,,,,,33.29587010014802,None,space,13.125402999809012,33.29587010014802,None,,,,,,,,,,,,,,,,,,,,,,,,,,,,,,,,,,,,,,,,,,,,,,,11037,001,2024_Mar_11_1520,ANT,2021.2.3,59.93920959545546,
0,4,no,down,IC,L,50,0,-1.5,left,RRLRR.png,,,,,,,,0,0,0,3,,,,,,,,,,,,,,,,,,,,,,,,,,,,,,,,,,,,,,,,,,,,,,,,,46.514047500211746,46.916222400031984,46.899169200100005,46.99872290017083,47.399905800120905,None,left,1,1.2137122999411076,47.399905800120905,None,46.899169200100005,46.99872290017083,46.99872290017083,None,48.65160270011984,None,,,,,,,,,,,,,,,,,,,,,,,,,,,,,,11037,001,2024_Mar_11_1520,ANT,2021.2.3,59.93920959545546,
0,12,spatial,down,IC,R,-1.5,0,-1.5,right,LLRLL.png,,,,,,,,0,1,1,11,,,,,,,,,,,,,,,,,,,,,,,,,,,,,,,,,,,,,,,,,,,,,,,,,50.65433440008201,51.05507930018939,51.038039200007915,51.13830290012993,51.53911680006422,None,right,1,0.7148706999141723,51.53911680006422,None,51.038039200007915,51.13830290012993,51.13830290012993,None,52.27345159999095,None,,,,,,,,,,,,,,,,,,,,,,,,,,,,,,11037,001,2024_Mar_11_1520,ANT,2021.2.3,59.93920959545546,
0,9,spatial,up,C,R,1.5,0,1.5,right,RRRRR.png,,,,,,,,0,2,2,8,,,,,,,,,,,,,,,,,,,,,,,,,,,,,,,,,,,,,,,,,,,,,,,,,54.276414200197905,54.677185900043696,54.66041860007681,54.76119180000387,55.161034299992025,None,right,1,0.8368035999592394,55.161034299992025,None,54.66041860007681,54.76119180000387,54.76119180000387,None,56.01203350001015,None,,,,,,,,,,,,,,,,,,,,,,,,,,,,,,11037,001,2024_Mar_11_1520,ANT,2021.2.3,59.93920959545546,
0,1,no,up,C,L,50,0,1.5,left,LLLLL.png,,,,,,,,0,3,3,0,,,,,,,,,,,,,,,,,,,,,,,,,,,,,,,,,,,,,,,,,,,,,,,,,58.016305200057104,58.41619830019772,58.399278400000185,58.49981510010548,58.900186100043356,None,left,1,0.8333809999749064,58.900186100043356,None,58.399278400000185,58.49981510010548,58.49981510010548,None,59.751284199999645,None,,,,,,,,,,,,,,,,,,,,,,,,,,,,,,11037,001,2024_Mar_11_1520,ANT,2021.2.3,59.93920959545546,
0,5,center,up,C,L,0,50,1.5,left,LLLLL.png,,,,,,,,0,4,4,4,,,,,,,,,,,,,,,,,,,,,,,,,,,,,,,,,,,,,,,,,,,,,,,,,61.75431470014155,62.15555030014366,62.13818270014599,62.23943830002099,62.64004100020975,None,left,1,0.6295292000286281,62.64004100020975,None,62.13818270014599,62.23943830002099,62.23943830002099,None,63.289988100063056,None,,,,,,,,,,,,,,,,,,,,,,,,,,,,,,11037,001,2024_Mar_11_1520,ANT,2021.2.3,59.93920959545546,
0,8,center,down,IC,L,0,50,-1.5,left,RRLRR.png,,,,,,,,0,5,5,7,,,,,,,,,,,,,,,,,,,,,,,,,,,,,,,,,,,,,,,,,,,,,,,,,65.29315120005049,65.694396100007,65.67797820013948,65.7787880001124,66.17770160012878,None,left,1,0.9720786001998931,66.17770160012878,None,65.67797820013948,65.7787880001124,65.7787880001124,None,67.17971840011887,None,,,,,,,,,,,,,,,,,,,,,,,,,,,,,,11037,001,2024_Mar_11_1520,ANT,2021.2.3,59.93920959545546,
0,3,no,down,C,R,50,0,-1.5,right,RRRRR.png,,,,,,,,0,6,6,2,,,,,,,,,,,,,,,,,,,,,,,,,,,,,,,,,,,,,,,,,,,,,,,,,69.1830836001318,69.5837844000198,69.56681030010805,69.66752650006674,70.06803900003433,None,right,1,0.6018008999526501,70.06803900003433,None,69.56681030010805,69.66752650006674,69.66752650006674,None,70.70119770010933,None,,,,,,,,,,,,,,,,,,,,,,,,,,,,,,11037,001,2024_Mar_11_1520,ANT,2021.2.3,59.93920959545546,
0,7,center,down,C,R,0,50,-1.5,right,RRRRR.png,,,,,,,,0,7,7,6,,,,,,,,,,,,,,,,,,,,,,,,,,,,,,,,,,,,,,,,,,,,,,,,,72.7051053000614,73.1048807001207,73.08992170006968,73.2050642000977,73.5899690000806,None,right,1,0.544481199933216,73.5899690000806,None,73.08992170006968,73.2050642000977,73.18845230014995,None,74.15640000021085,None,,,,,,,,,,,,,,,,,,,,,,,,,,,,,,11037,001,2024_Mar_11_1520,ANT,2021.2.3,59.93920959545546,
0,10,spatial,up,IC,L,1.5,0,1.5,left,RRLRR.png,,,,,,,,0,8,8,9,,,,,,,,,,,,,,,,,,,,,,,,,,,,,,,,,,,,,,,,,,,,,,,,,76.15945610008202,76.56081080017611,76.54456640011631,76.64431230002083,77.04468940012157,None,left,1,0.5616623999085277,77.04468940012157,None,76.54456640011631,76.64431230002083,76.64431230002083,None,77.62821400002576,None,,,,,,,,,,,,,,,,,,,,,,,,,,,,,,11037,001,2024_Mar_11_1520,ANT,2021.2.3,59.93920959545546,
0,2,no,up,IC,R,50,0,1.5,right,LLRLL.png,,,,,,,,0,9,9,1,,,,,,,,,,,,,,,,,,,,,,,,,,,,,,,,,,,,,,,,,,,,,,,,,79.63191880006343,80.03314070007764,80.01644030003808,80.11607030010782,80.51659010001458,None,right,1,0.6259754002094269,80.51659010001458,None,80.01644030003808,80.11607030010782,80.11607030010782,None,81.16694490006194,None,,,,,,,,,,,,,,,,,,,,,,,,,,,,,,11037,001,2024_Mar_11_1520,ANT,2021.2.3,59.93920959545546,
0,11,spatial,down,C,L,-1.5,0,-1.5,left,LLLLL.png,,,,,,,,0,10,10,10,,,,,,,,,,,,,,,,,,,,,,,,,,,,,,,,,,,,,,,,,,,,,,,,,83.1700844001025,83.57319880020805,83.55406910018064,83.6543463000562,84.05543439998291,None,left,1,0.4551359999459237,84.05543439998291,None,83.55406910018064,83.6543463000562,83.6543463000562,None,84.53880230011418,None,,,,,,,,,,,,,,,,,,,,,,,,,,,,,,11037,001,2024_Mar_11_1520,ANT,2021.2.3,59.93920959545546,
0,6,center,up,IC,R,0,50,1.5,right,LLRLL.png,,,,,,,,0,11,11,5,,,,,,,,,,,,,,,,,,,,,,,,,,,,,,,,,,,,,,,,,,,,,,,,,86.54173150006682,86.94308360014111,86.92714490019716,87.04380560014397,87.42830850020982,None,right,1,0.5948680001311004,87.42830850020982,None,86.92714490019716,87.04380560014397,87.02586540021002,None,88.04455640004016,None,,,,,,,,,,,,,,,,,,,,,,,,,,,,,,11037,001,2024_Mar_11_1520,ANT,2021.2.3,59.93920959545546,
,,,,,,,,,,,,,,,,,,,,,,,,,,,,,,,,,,,,,,,,,,,,,,,,,,,,,,,,,,,,,,,,,,,,,,,,,,,,,,,,,,,,,,,space,9.862572399899364,90.04819450015202,None,,,,,,,,,,,,,,,,,,,,,,,,,,11037,001,2024_Mar_11_1520,ANT,2021.2.3,59.93920959545546,
1,20,spatial,up,IC,R,,,,,,Block.xlsx,"你已经完成了第一个实验区组

请稍作休息


点击空格键进入下一个区组。",1.5,0,1.5,right,LLRLL.png,,,,,0,0,0,0,0,0,0,19,,,,,,,,,,,,,,,,,,,,,,,,,,,,,,,,,,,,,,,,,,,,,,,,,,,,,,,,,,,,,,90.04819450015202,None,99.96321359998547,100.36517890007235,100.34596260008402,100.44620110001415,100.848653400084,None,right,1,0.5345866000279784,100.848653400084,None,100.34596260008402,100.44620110001415,100.44620110001415,None,101.41417640005238,None,,,,,,,11037,001,2024_Mar_11_1520,ANT,2021.2.3,59.93920959545546,
1,15,center,down,IC,L,,,,,,Block.xlsx,"你已经完成了第一个实验区组

请稍作休息


点击空格键进入下一个区组。",0,50,-1.5,left,RRLRR.png,,,,,0,0,0,0,0,1,1,14,,,,,,,,,,,,,,,,,,,,,,,,,,,,,,,,,,,,,,,,,,,,,,,,,,,,,,,,,,,,,,,,101.8149018001277,102.21564650000073,102.19934829999693,102.2993280000519,102.70028140000068,None,left,1,0.667000399902463,102.70028140000068,None,102.19934829999693,102.2993280000519,102.2993280000519,None,103.38389950012788,None,,,,,,,11037,001,2024_Mar_11_1520,ANT,2021.2.3,59.93920959545546,
1,13,center,down,C,L,,,,,,Block.xlsx,"你已经完成了第一个实验区组

请稍作休息


点击空格键进入下一个区组。",0,50,-1.5,left,LLLLL.png,,,,,0,0,0,0,0,2,2,12,,,,,,,,,,,,,,,,,,,,,,,,,,,,,,,,,,,,,,,,,,,,,,,,,,,,,,,,,,,,,,,,103.78442320018075,104.18729310017079,104.16886430000886,104.2695393001195,104.67006170004606,None,left,1,0.552660700166598,104.67006170004606,None,104.16886430000886,104.2695393001195,104.2695393001195,None,105.2532879000064,None,,,,,,,11037,001,2024_Mar_11_1520,ANT,2021.2.3,59.93920959545546,
1,20,spatial,up,IC,R,,,,,,Block.xlsx,"你已经完成了第一个实验区组

请稍作休息


点击空格键进入下一个区组。",1.5,0,1.5,right,LLRLL.png,,,,,0,0,0,0,0,3,3,19,,,,,,,,,,,,,,,,,,,,,,,,,,,,,,,,,,,,,,,,,,,,,,,,,,,,,,,,,,,,,,,,105.65399090014398,106.05536080012098,106.03874490014277,106.13799800002016,106.53787920018658,None,right,1,0.5251704000402242,106.53787920018658,None,106.03874490014277,106.13799800002016,106.13799800002016,None,107.08944050013088,None,,,,,,,11037,001,2024_Mar_11_1520,ANT,2021.2.3,59.93920959545546,
1,19,spatial,up,IC,L,,,,,,Block.xlsx,"你已经完成了第一个实验区组

请稍作休息


点击空格键进入下一个区组。",1.5,0,1.5,left,RRLRR.png,,,,,0,0,0,0,0,4,4,18,,,,,,,,,,,,,,,,,,,,,,,,,,,,,,,,,,,,,,,,,,,,,,,,,,,,,,,,,,,,,,,,107.49088220018893,107.8914342999924,107.87492480012588,107.97477319999598,108.3756991000846,None,left,1,0.6876951998565346,108.3756991000846,None,107.87492480012588,107.97477319999598,107.97477319999598,None,109.09242810006253,None,,,,,,,11037,001,2024_Mar_11_1520,ANT,2021.2.3,59.93920959545546,
1,3,no,up,IC,L,,,,,,Block.xlsx,"你已经完成了第一个实验区组

请稍作休息


点击空格键进入下一个区组。",50,0,1.5,left,RRLRR.png,,,,,0,0,0,0,0,5,5,2,,,,,,,,,,,,,,,,,,,,,,,,,,,,,,,,,,,,,,,,,,,,,,,,,,,,,,,,,,,,,,,,109.49400000018068,109.8953182999976,109.8771819001995,109.9789239000529,110.37836190010421,None,left,1,0.6206989001948386,110.37836190010421,None,109.8771819001995,109.9789239000529,109.9789239000529,None,111.02867400017567,None,,,,,,,11037,001,2024_Mar_11_1520,ANT,2021.2.3,59.93920959545546,
1,9,center,up,C,L,,,,,,Block.xlsx,"你已经完成了第一个实验区组

请稍作休息


点击空格键进入下一个区组。",0,50,1.5,left,LLLLL.png,,,,,0,0,0,0,0,6,6,8,,,,,,,,,,,,,,,,,,,,,,,,,,,,,,,,,,,,,,,,,,,,,,,,,,,,,,,,,,,,,,,,111.43058899999596,111.8306114000734,111.81358790001832,111.91440680017695,112.31382560008205,None,left,1,0.5733586999122053,112.31382560008205,None,111.81358790001832,111.91440680017695,111.91440680017695,None,112.91487510013394,None,,,,,,,11037,001,2024_Mar_11_1520,ANT,2021.2.3,59.93920959545546,
1,15,center,down,IC,L,,,,,,Block.xlsx,"你已经完成了第一个实验区组

请稍作休息


点击空格键进入下一个区组。",0,50,-1.5,left,RRLRR.png,,,,,0,0,0,0,0,7,7,14,,,,,,,,,,,,,,,,,,,,,,,,,,,,,,,,,,,,,,,,,,,,,,,,,,,,,,,,,,,,,,,,113.31581810000353,113.71667080000043,113.69935550005175,113.80042920005508,114.20111810020171,None,left,1,0.7740788001101464,114.20111810020171,None,113.69935550005175,113.80042920005508,113.80042920005508,None,115.0013638001401,None,,,,,,,11037,001,2024_Mar_11_1520,ANT,2021.2.3,59.93920959545546,
1,5,no,down,C,L,,,,,,Block.xlsx,"你已经完成了第一个实验区组

请稍作休息


点击空格键进入下一个区组。",50,0,-1.5,left,LLLLL.png,,,,,0,0,0,0,0,8,8,4,,,,,,,,,,,,,,,,,,,,,,,,,,,,,,,,,,,,,,,,,,,,,,,,,,,,,,,,,,,,,,,,115.4027588001918,115.80373370018788,115.78629540000111,115.88679150003009,116.28671730007045,None,left,1,0.5928730999585241,116.28671730007045,None,115.78629540000111,115.88679150003009,115.88679150003009,None,116.90404710010625,None,,,,,,,11037,001,2024_Mar_11_1520,ANT,2021.2.3,59.93920959545546,
1,13,center,down,C,L,,,,,,Block.xlsx,"你已经完成了第一个实验区组

请稍作休息


点击空格键进入下一个区组。",0,50,-1.5,left,LLLLL.png,,,,,0,0,0,0,0,9,9,12,,,,,,,,,,,,,,,,,,,,,,,,,,,,,,,,,,,,,,,,,,,,,,,,,,,,,,,,,,,,,,,,117.30506420019083,117.70543240010738,117.6899230000563,117.79032670008019,118.190494999988,None,left,1,0.8727341000922024,118.190494999988,None,117.6899230000563,117.79032670008019,117.79032670008019,None,119.09068210003898,None,,,,,,,11037,001,2024_Mar_11_1520,ANT,2021.2.3,59.93920959545546,
1,24,spatial,down,IC,R,,,,,,Block.xlsx,"你已经完成了第一个实验区组

请稍作休息


点击空格键进入下一个区组。",-1.5,0,-1.5,right,LLRLL.png,,,,,0,0,0,0,0,10,10,23,,,,,,,,,,,,,,,,,,,,,,,,,,,,,,,,,,,,,,,,,,,,,,,,,,,,,,,,,,,,,,,,119.4923821000848,119.89393490017392,119.87552900006995,119.97614460019395,120.37655799998902,None,right,1,0.5748781999573112,120.37655799998902,None,119.87552900006995,119.97614460019395,119.97614460019395,None,120.9771819000598,None,,,,,,,11037,001,2024_Mar_11_1520,ANT,2021.2.3,59.93920959545546,
1,2,no,up,C,R,,,,,,Block.xlsx,"你已经完成了第一个实验区组

请稍作休息


点击空格键进入下一个区组。",50,0,1.5,right,RRRRR.png,,,,,0,0,0,0,0,11,11,1,,,,,,,,,,,,,,,,,,,,,,,,,,,,,,,,,,,,,,,,,,,,,,,,,,,,,,,,,,,,,,,,121.37787470011972,121.77931490004994,121.76170160016045,121.862668100046,122.26283630006947,None,right,1,0.5847477000206709,122.26283630006947,None,121.76170160016045,121.862668100046,121.862668100046,None,122.86321660014801,None,,,,,,,11037,001,2024_Mar_11_1520,ANT,2021.2.3,59.93920959545546,
1,10,center,up,C,R,,,,,,Block.xlsx,"你已经完成了第一个实验区组

请稍作休息


点击空格键进入下一个区组。",0,50,1.5,right,RRRRR.png,,,,,0,0,0,0,0,12,12,9,,,,,,,,,,,,,,,,,,,,,,,,,,,,,,,,,,,,,,,,,,,,,,,,,,,,,,,,,,,,,,,,123.26450470020063,123.66505000018515,123.64836540003307,123.74878500006162,124.14924330008216,None,right,1,0.5944413000252098,124.14924330008216,None,123.64836540003307,123.74878500006162,123.74878500006162,None,124.76614299998619,None,,,,,,,11037,001,2024_Mar_11_1520,ANT,2021.2.3,59.93920959545546,
1,5,no,down,C,L,,,,,,Block.xlsx,"你已经完成了第一个实验区组

请稍作休息


点击空格键进入下一个区组。",50,0,-1.5,left,LLLLL.png,,,,,0,0,0,0,0,13,13,4,,,,,,,,,,,,,,,,,,,,,,,,,,,,,,,,,,,,,,,,,,,,,,,,,,,,,,,,,,,,,,,,125.16797880013473,125.56753350002691,125.55171880009584,125.65161620010622,126.05284480005503,None,left,1,0.5466178001370281,126.05284480005503,None,125.55171880009584,125.65161620010622,125.65161620010622,None,126.61882730014622,None,,,,,,,11037,001,2024_Mar_11_1520,ANT,2021.2.3,59.93920959545546,
1,19,spatial,up,IC,L,,,,,,Block.xlsx,"你已经完成了第一个实验区组

请稍作休息


点击空格键进入下一个区组。",1.5,0,1.5,left,RRLRR.png,,,,,0,0,0,0,0,14,14,18,,,,,,,,,,,,,,,,,,,,,,,,,,,,,,,,,,,,,,,,,,,,,,,,,,,,,,,,,,,,,,,,127.02004269999452,127.42176390020177,127.40397850004956,127.50366960000247,127.90452209999785,None,left,1,0.6632683000061661,127.90452209999785,None,127.40397850004956,127.50366960000247,127.50366960000247,None,128.58847500011325,None,,,,,,,11037,001,2024_Mar_11_1520,ANT,2021.2.3,59.93920959545546,
1,23,spatial,down,IC,L,,,,,,Block.xlsx,"你已经完成了第一个实验区组

请稍作休息


点击空格键进入下一个区组。",-1.5,0,-1.5,left,RRLRR.png,,,,,0,0,0,0,0,15,15,22,,,,,,,,,,,,,,,,,,,,,,,,,,,,,,,,,,,,,,,,,,,,,,,,,,,,,,,,,,,,,,,,128.98978850012645,129.39061550004408,129.37310790014453,129.4740785001777,129.87385300011374,None,left,1,0.5352578999008983,129.87385300011374,None,129.37310790014453,129.4740785001777,129.4740785001777,None,130.4245678000152,None,,,,,,,11037,001,2024_Mar_11_1520,ANT,2021.2.3,59.93920959545546,
1,15,center,down,IC,L,,,,,,Block.xlsx,"你已经完成了第一个实验区组

请稍作休息


点击空格键进入下一个区组。",0,50,-1.5,left,RRLRR.png,,,,,0,0,0,0,0,16,16,14,,,,,,,,,,,,,,,,,,,,,,,,,,,,,,,,,,,,,,,,,,,,,,,,,,,,,,,,,,,,,,,,130.82521720021032,131.22588270017877,131.20985380001366,131.30986859998666,131.71076630009338,None,left,1,0.5612198999151587,131.71076630009338,None,131.20985380001366,131.30986859998666,131.30986859998666,None,132.29419740010053,None,,,,,,,11037,001,2024_Mar_11_1520,ANT,2021.2.3,59.93920959545546,
1,24,spatial,down,IC,R,,,,,,Block.xlsx,"你已经完成了第一个实验区组

请稍作休息


点击空格键进入下一个区组。",-1.5,0,-1.5,right,LLRLL.png,,,,,0,0,0,0,0,17,17,23,,,,,,,,,,,,,,,,,,,,,,,,,,,,,,,,,,,,,,,,,,,,,,,,,,,,,,,,,,,,,,,,132.69565660017543,133.09692260017619,133.07918070000596,133.17956010019407,133.58014299999923,None,right,1,0.6035990999080241,133.58014299999923,None,133.07918070000596,133.17956010019407,133.17956010019407,None,134.21458999998868,None,,,,,,,11037,001,2024_Mar_11_1520,ANT,2021.2.3,59.93920959545546,
1,12,center,up,IC,R,,,,,,Block.xlsx,"你已经完成了第一个实验区组

请稍作休息


点击空格键进入下一个区组。",0,50,1.5,right,LLRLL.png,,,,,0,0,0,0,0,18,18,11,,,,,,,,,,,,,,,,,,,,,,,,,,,,,,,,,,,,,,,,,,,,,,,,,,,,,,,,,,,,,,,,134.614460100187,135.01529780006967,134.9987874000799,135.09828889998607,135.50086940010078,None,right,1,0.6510568999219686,135.50086940010078,None,134.9987874000799,135.09828889998607,135.09828889998607,None,136.18340070010163,None,,,,,,,11037,001,2024_Mar_11_1520,ANT,2021.2.3,59.93920959545546,
1,16,center,down,IC,R,,,,,,Block.xlsx,"你已经完成了第一个实验区组

请稍作休息


点击空格键进入下一个区组。",0,50,-1.5,right,LLRLL.png,,,,,0,0,0,0,0,19,19,15,,,,,,,,,,,,,,,,,,,,,,,,,,,,,,,,,,,,,,,,,,,,,,,,,,,,,,,,,,,,,,,,136.58386630006135,136.98635730007663,136.9678365001455,137.06869120011106,137.46961230016313,None,right,1,0.6188636000733823,137.46961230016313,None,136.9678365001455,137.06869120011106,137.06869120011106,None,138.10284380009398,None,,,,,,,11037,001,2024_Mar_11_1520,ANT,2021.2.3,59.93920959545546,
1,16,center,down,IC,R,,,,,,Block.xlsx,"你已经完成了第一个实验区组

请稍作休息


点击空格键进入下一个区组。",0,50,-1.5,right,LLRLL.png,,,,,0,0,0,0,0,20,20,15,,,,,,,,,,,,,,,,,,,,,,,,,,,,,,,,,,,,,,,,,,,,,,,,,,,,,,,,,,,,,,,,138.50366060016677,138.90512440004386,138.8874639000278,138.98762510018423,139.38871760014445,None,right,1,0.8757949999999255,139.38871760014445,None,138.8874639000278,138.98762510018423,138.98762510018423,None,140.2895259000361,None,,,,,,,11037,001,2024_Mar_11_1520,ANT,2021.2.3,59.93920959545546,
1,17,spatial,up,C,L,,,,,,Block.xlsx,"你已经完成了第一个实验区组

请稍作休息


点击空格键进入下一个区组。",1.5,0,1.5,left,LLLLL.png,,,,,0,0,0,0,0,21,21,16,,,,,,,,,,,,,,,,,,,,,,,,,,,,,,,,,,,,,,,,,,,,,,,,,,,,,,,,,,,,,,,,140.69082270003855,141.09147460013628,141.07502430002205,141.17544440017082,141.575294499984,None,left,1,0.4969015000388026,141.575294499984,None,141.07502430002205,141.17544440017082,141.17544440017082,None,142.0923229001928,None,,,,,,,11037,001,2024_Mar_11_1520,ANT,2021.2.3,59.93920959545546,
1,10,center,up,C,R,,,,,,Block.xlsx,"你已经完成了第一个实验区组

请稍作休息


点击空格键进入下一个区组。",0,50,1.5,right,RRRRR.png,,,,,0,0,0,0,0,22,22,9,,,,,,,,,,,,,,,,,,,,,,,,,,,,,,,,,,,,,,,,,,,,,,,,,,,,,,,,,,,,,,,,142.4935469001066,142.89347270014696,142.87738040019758,142.97803280013613,143.37747740000486,None,right,1,0.5835800999775529,143.37747740000486,None,142.87738040019758,142.97803280013613,142.97803280013613,None,143.97849810007028,None,,,,,,,11037,001,2024_Mar_11_1520,ANT,2021.2.3,59.93920959545546,
1,22,spatial,down,C,R,,,,,,Block.xlsx,"你已经完成了第一个实验区组

请稍作休息


点击空格键进入下一个区组。",-1.5,0,-1.5,right,RRRRR.png,,,,,0,0,0,0,0,23,23,21,,,,,,,,,,,,,,,,,,,,,,,,,,,,,,,,,,,,,,,,,,,,,,,,,,,,,,,,,,,,,,,,144.37966940016486,144.7814412000589,144.76297370018438,144.86388349998742,145.26385680004023,None,right,1,0.5845495001412928,145.26385680004023,None,144.76297370018438,144.86388349998742,144.86388349998742,None,145.86451340001076,None,,,,,,,11037,001,2024_Mar_11_1520,ANT,2021.2.3,59.93920959545546,
1,21,spatial,down,C,L,,,,,,Block.xlsx,"你已经完成了第一个实验区组

请稍作休息


点击空格键进入下一个区组。",-1.5,0,-1.5,left,LLLLL.png,,,,,0,0,0,0,1,0,24,20,,,,,,,,,,,,,,,,,,,,,,,,,,,,,,,,,,,,,,,,,,,,,,,,,,,,,,,,,,,,,,,,146.2650367000606,146.66678140009753,146.65170930000022,146.7659575000871,147.14991380018182,None,left,1,0.47433790005743504,147.14991380018182,None,146.65170930000022,146.7659575000871,146.75135480007157,None,147.65154600003734,None,,,,,,,11037,001,2024_Mar_11_1520,ANT,2021.2.3,59.93920959545546,
1,17,spatial,up,C,L,,,,,,Block.xlsx,"你已经完成了第一个实验区组

请稍作休息


点击空格键进入下一个区组。",1.5,0,1.5,left,LLLLL.png,,,,,0,0,0,0,1,1,25,16,,,,,,,,,,,,,,,,,,,,,,,,,,,,,,,,,,,,,,,,,,,,,,,,,,,,,,,,,,,,,,,,148.05247920006514,148.45182790001854,148.4353824001737,148.53534860000946,148.93611110001802,None,left,1,0.5038379998877645,148.93611110001802,None,148.4353824001737,148.53534860000946,148.53534860000946,None,149.47018360020593,None,,,,,,,11037,001,2024_Mar_11_1520,ANT,2021.2.3,59.93920959545546,
1,7,no,down,IC,L,,,,,,Block.xlsx,"你已经完成了第一个实验区组

请稍作休息


点击空格键进入下一个区组。",50,0,-1.5,left,RRLRR.png,,,,,0,0,0,0,1,2,26,6,,,,,,,,,,,,,,,,,,,,,,,,,,,,,,,,,,,,,,,,,,,,,,,,,,,,,,,,,,,,,,,,149.87137000006624,150.2721155001782,150.25460590003058,150.35536030004732,150.75735920015723,None,left,1,0.5791242001578212,150.75735920015723,None,150.25460590003058,150.35536030004732,150.35536030004732,None,151.3561482001096,None,,,,,,,11037,001,2024_Mar_11_1520,ANT,2021.2.3,59.93920959545546,
1,14,center,down,C,R,,,,,,Block.xlsx,"你已经完成了第一个实验区组

请稍作休息


点击空格键进入下一个区组。",0,50,-1.5,right,RRRRR.png,,,,,0,0,0,0,1,3,27,13,,,,,,,,,,,,,,,,,,,,,,,,,,,,,,,,,,,,,,,,,,,,,,,,,,,,,,,,,,,,,,,,151.75774800009094,152.157383200014,152.14088670001365,152.24161720019765,152.64237020001747,None,right,1,0.5672206999734044,152.64237020001747,None,152.14088670001365,152.24161720019765,152.24161720019765,None,153.22552380012348,None,,,,,,,11037,001,2024_Mar_11_1520,ANT,2021.2.3,59.93920959545546,
1,13,center,down,C,L,,,,,,Block.xlsx,"你已经完成了第一个实验区组

请稍作休息


点击空格键进入下一个区组。",0,50,-1.5,left,LLLLL.png,,,,,0,0,0,0,1,4,28,12,,,,,,,,,,,,,,,,,,,,,,,,,,,,,,,,,,,,,,,,,,,,,,,,,,,,,,,,,,,,,,,,153.62621130002663,154.027033300139,154.01065600011498,154.11219320003875,154.51292920019478,None,left,1,0.4959321999922395,154.51292920019478,None,154.01065600011498,154.11219320003875,154.11219320003875,None,155.02878520009108,None,,,,,,,11037,001,2024_Mar_11_1520,ANT,2021.2.3,59.93920959545546,
1,14,center,down,C,R,,,,,,Block.xlsx,"你已经完成了第一个实验区组

请稍作休息


点击空格键进入下一个区组。",0,50,-1.5,right,RRRRR.png,,,,,0,0,0,0,1,5,29,13,,,,,,,,,,,,,,,,,,,,,,,,,,,,,,,,,,,,,,,,,,,,,,,,,,,,,,,,,,,,,,,,155.43016950017773,155.83081980003044,155.8139220001176,155.91549270018004,156.31431620009243,None,right,1,0.49422100000083447,156.31431620009243,None,155.8139220001176,155.91549270018004,155.91549270018004,None,156.83123820018955,None,,,,,,,11037,001,2024_Mar_11_1520,ANT,2021.2.3,59.93920959545546,
1,1,no,up,C,L,,,,,,Block.xlsx,"你已经完成了第一个实验区组

请稍作休息


点击空格键进入下一个区组。",50,0,1.5,left,LLLLL.png,,,,,0,0,0,0,1,6,30,0,,,,,,,,,,,,,,,,,,,,,,,,,,,,,,,,,,,,,,,,,,,,,,,,,,,,,,,,,,,,,,,,157.23177890013903,157.6332221000921,157.6165208001621,157.71614400018007,158.11791570018977,None,left,1,0.554420999949798,158.11791570018977,None,157.6165208001621,157.71614400018007,157.71614400018007,None,158.70058530010283,None,,,,,,,11037,001,2024_Mar_11_1520,ANT,2021.2.3,59.93920959545546,
1,20,spatial,up,IC,R,,,,,,Block.xlsx,"你已经完成了第一个实验区组

请稍作休息


点击空格键进入下一个区组。",1.5,0,1.5,right,LLRLL.png,,,,,0,0,0,0,1,7,31,19,,,,,,,,,,,,,,,,,,,,,,,,,,,,,,,,,,,,,,,,,,,,,,,,,,,,,,,,,,,,,,,,159.10177690000273,159.5025131001603,159.4865677000489,159.58622739999555,159.98682070011273,None,right,1,0.5496716999914497,159.98682070011273,None,159.4865677000489,159.58622739999555,159.58622739999555,None,160.55317650013603,None,,,,,,,11037,001,2024_Mar_11_1520,ANT,2021.2.3,59.93920959545546,
1,22,spatial,down,C,R,,,,,,Block.xlsx,"你已经完成了第一个实验区组

请稍作休息


点击空格键进入下一个区组。",-1.5,0,-1.5,right,RRRRR.png,,,,,0,0,0,0,1,8,32,21,,,,,,,,,,,,,,,,,,,,,,,,,,,,,,,,,,,,,,,,,,,,,,,,,,,,,,,,,,,,,,,,160.95414120005444,161.35643699998036,161.33801669999957,161.43928140006028,161.83928150008433,None,right,1,0.7539709999691695,161.83928150008433,None,161.33801669999957,161.43928140006028,161.43928140006028,None,162.62325180019252,None,,,,,,,11037,001,2024_Mar_11_1520,ANT,2021.2.3,59.93920959545546,
1,11,center,up,IC,L,,,,,,Block.xlsx,"你已经完成了第一个实验区组

请稍作休息


点击空格键进入下一个区组。",0,50,1.5,left,RRLRR.png,,,,,0,0,0,0,1,9,33,10,,,,,,,,,,,,,,,,,,,,,,,,,,,,,,,,,,,,,,,,,,,,,,,,,,,,,,,,,,,,,,,,163.02436400018632,163.4245001000818,163.4078751001507,163.50867450004444,163.90882530016825,None,left,1,0.5639905000571162,163.90882530016825,None,163.4078751001507,163.50867450004444,163.50867450004444,None,164.4925993999932,None,,,,,,,11037,001,2024_Mar_11_1520,ANT,2021.2.3,59.93920959545546,
1,21,spatial,down,C,L,,,,,,Block.xlsx,"你已经完成了第一个实验区组

请稍作休息


点击空格键进入下一个区组。",-1.5,0,-1.5,left,LLLLL.png,,,,,0,0,0,0,1,10,34,20,,,,,,,,,,,,,,,,,,,,,,,,,,,,,,,,,,,,,,,,,,,,,,,,,,,,,,,,,,,,,,,,164.89326780010015,165.29454120015725,165.2779329000041,165.3774437000975,165.77845910005271,None,left,1,0.3905741001944989,165.77845910005271,None,165.2779329000041,165.3774437000975,165.3774437000975,None,166.19562100013718,None,,,,,,,11037,001,2024_Mar_11_1520,ANT,2021.2.3,59.93920959545546,
1,6,no,down,C,R,,,,,,Block.xlsx,"你已经完成了第一个实验区组

请稍作休息


点击空格键进入下一个区组。",50,0,-1.5,right,RRRRR.png,,,,,0,0,0,0,1,11,35,5,,,,,,,,,,,,,,,,,,,,,,,,,,,,,,,,,,,,,,,,,,,,,,,,,,,,,,,,,,,,,,,,166.59593520010822,166.9972984001506,166.9807686000131,167.0806797000114,167.48109760018997,None,right,1,0.4800120999570936,167.48109760018997,None,166.9807686000131,167.0806797000114,167.0806797000114,None,167.98120070016012,None,,,,,,,11037,001,2024_Mar_11_1520,ANT,2021.2.3,59.93920959545546,
1,9,center,up,C,L,,,,,,Block.xlsx,"你已经完成了第一个实验区组

请稍作休息


点击空格键进入下一个区组。",0,50,1.5,left,LLLLL.png,,,,,0,0,0,0,1,12,36,8,,,,,,,,,,,,,,,,,,,,,,,,,,,,,,,,,,,,,,,,,,,,,,,,,,,,,,,,,,,,,,,,168.38277110015042,168.78308430011384,168.76840490009636,168.88283670018427,169.26837619999424,None,left,1,0.4126915999222547,169.26837619999424,None,168.76840490009636,168.88283670018427,168.86745960009284,None,169.70064090006053,None,,,,,,,11037,001,2024_Mar_11_1520,ANT,2021.2.3,59.93920959545546,
1,10,center,up,C,R,,,,,,Block.xlsx,"你已经完成了第一个实验区组

请稍作休息


点击空格键进入下一个区组。",0,50,1.5,right,RRRRR.png,,,,,0,0,0,0,1,13,37,9,,,,,,,,,,,,,,,,,,,,,,,,,,,,,,,,,,,,,,,,,,,,,,,,,,,,,,,,,,,,,,,,170.10099430009723,170.5031936999876,170.4863601999823,170.58736190013587,170.98714690003544,None,right,1,0.7498517001513392,170.98714690003544,None,170.4863601999823,170.58736190013587,170.58736190013587,None,171.75409910012968,None,,,,,,,11037,001,2024_Mar_11_1520,ANT,2021.2.3,59.93920959545546,
1,6,no,down,C,R,,,,,,Block.xlsx,"你已经完成了第一个实验区组

请稍作休息


点击空格键进入下一个区组。",50,0,-1.5,right,RRRRR.png,,,,,0,0,0,0,1,14,38,5,,,,,,,,,,,,,,,,,,,,,,,,,,,,,,,,,,,,,,,,,,,,,,,,,,,,,,,,,,,,,,,,172.15528930001892,172.55554500012659,172.5390271001961,172.6390972000081,173.03969920007512,None,right,1,0.48979100002907217,173.03969920007512,None,172.5390271001961,172.6390972000081,172.6390972000081,None,173.5563263001386,None,,,,,,,11037,001,2024_Mar_11_1520,ANT,2021.2.3,59.93920959545546,
1,11,center,up,IC,L,,,,,,Block.xlsx,"你已经完成了第一个实验区组

请稍作休息


点击空格键进入下一个区组。",0,50,1.5,left,RRLRR.png,,,,,0,0,0,0,1,15,39,10,,,,,,,,,,,,,,,,,,,,,,,,,,,,,,,,,,,,,,,,,,,,,,,,,,,,,,,,,,,,,,,,173.95697800000198,174.35968980006874,174.34095020010136,174.44186960021034,174.84285150002688,None,left,1,0.5258113997988403,174.84285150002688,None,174.34095020010136,174.44186960021034,174.44186960021034,None,175.39254790009,None,,,,,,,11037,001,2024_Mar_11_1520,ANT,2021.2.3,59.93920959545546,
1,24,spatial,down,IC,R,,,,,,Block.xlsx,"你已经完成了第一个实验区组

请稍作休息


点击空格键进入下一个区组。",-1.5,0,-1.5,right,LLRLL.png,,,,,0,0,0,0,1,16,40,23,,,,,,,,,,,,,,,,,,,,,,,,,,,,,,,,,,,,,,,,,,,,,,,,,,,,,,,,,,,,,,,,175.79314490011893,176.1941814001184,176.17691280017607,176.27794490009546,176.67837560013868,None,right,1,0.4184528000187129,176.67837560013868,None,176.17691280017607,176.27794490009546,176.27794490009546,None,177.1117698000744,None,,,,,,,11037,001,2024_Mar_11_1520,ANT,2021.2.3,59.93920959545546,
1,11,center,up,IC,L,,,,,,Block.xlsx,"你已经完成了第一个实验区组

请稍作休息


点击空格键进入下一个区组。",0,50,1.5,left,RRLRR.png,,,,,0,0,0,0,1,17,41,10,,,,,,,,,,,,,,,,,,,,,,,,,,,,,,,,,,,,,,,,,,,,,,,,,,,,,,,,,,,,,,,,177.51245220005512,177.91480400017463,177.8963080001995,177.99878280004486,178.39787019998766,None,left,1,0.41906250012107193,178.39787019998766,None,177.8963080001995,177.99878280004486,177.99878280004486,None,178.84818339999765,None,,,,,,,11037,001,2024_Mar_11_1520,ANT,2021.2.3,59.93920959545546,
1,6,no,down,C,R,,,,,,Block.xlsx,"你已经完成了第一个实验区组

请稍作休息


点击空格键进入下一个区组。",50,0,-1.5,right,RRRRR.png,,,,,0,0,0,0,1,18,42,5,,,,,,,,,,,,,,,,,,,,,,,,,,,,,,,,,,,,,,,,,,,,,,,,,,,,,,,,,,,,,,,,179.249442800181,179.64922660007142,179.63227070006542,179.73281550011598,180.13400640012696,None,right,1,0.41115269996225834,180.13400640012696,None,179.63227070006542,179.73281550011598,179.73281550011598,None,180.56688580010086,None,,,,,,,11037,001,2024_Mar_11_1520,ANT,2021.2.3,59.93920959545546,
1,1,no,up,C,L,,,,,,Block.xlsx,"你已经完成了第一个实验区组

请稍作休息


点击空格键进入下一个区组。",50,0,1.5,left,LLLLL.png,,,,,0,0,0,0,1,19,43,0,,,,,,,,,,,,,,,,,,,,,,,,,,,,,,,,,,,,,,,,,,,,,,,,,,,,,,,,,,,,,,,,180.96768030012026,181.36878220015205,181.3526135000866,181.4525059000589,181.8534905000124,None,left,1,0.4438710999675095,181.8534905000124,None,181.3526135000866,181.4525059000589,181.4525059000589,None,182.31963050016202,None,,,,,,,11037,001,2024_Mar_11_1520,ANT,2021.2.3,59.93920959545546,
1,3,no,up,IC,L,,,,,,Block.xlsx,"你已经完成了第一个实验区组

请稍作休息


点击空格键进入下一个区组。",50,0,1.5,left,RRLRR.png,,,,,0,0,0,0,1,20,44,2,,,,,,,,,,,,,,,,,,,,,,,,,,,,,,,,,,,,,,,,,,,,,,,,,,,,,,,,,,,,,,,,182.72038610000163,183.12146680010483,183.10484260017984,183.20423430018127,183.6051143000368,None,left,1,0.5403567000757903,183.6051143000368,None,183.10484260017984,183.20423430018127,183.20423430018127,None,184.17297530011274,None,,,,,,,11037,001,2024_Mar_11_1520,ANT,2021.2.3,59.93920959545546,
1,8,no,down,IC,R,,,,,,Block.xlsx,"你已经完成了第一个实验区组

请稍作休息


点击空格键进入下一个区组。",50,0,-1.5,right,LLRLL.png,,,,,0,0,0,0,1,21,45,7,,,,,,,,,,,,,,,,,,,,,,,,,,,,,,,,,,,,,,,,,,,,,,,,,,,,,,,,,,,,,,,,184.57368959998712,184.97368290019222,184.9577808000613,185.05892820004374,185.45871220016852,None,right,1,0.5510288998484612,185.45871220016852,None,184.9577808000613,185.05892820004374,185.05892820004374,None,186.02531550009735,None,,,,,,,11037,001,2024_Mar_11_1520,ANT,2021.2.3,59.93920959545546,
1,14,center,down,C,R,,,,,,Block.xlsx,"你已经完成了第一个实验区组

请稍作休息


点击空格键进入下一个区组。",0,50,-1.5,right,RRRRR.png,,,,,0,0,0,0,1,22,46,13,,,,,,,,,,,,,,,,,,,,,,,,,,,,,,,,,,,,,,,,,,,,,,,,,,,,,,,,,,,,,,,,186.42578890011646,186.8277975001838,186.81063800002448,186.91064980020747,187.31110669998452,None,right,1,0.5866999998688698,187.31110669998452,None,186.81063800002448,186.91064980020747,186.91064980020747,None,187.92905670008622,None,,,,,,,11037,001,2024_Mar_11_1520,ANT,2021.2.3,59.93920959545546,
1,18,spatial,up,C,R,,,,,,Block.xlsx,"你已经完成了第一个实验区组

请稍作休息


点击空格键进入下一个区组。",1.5,0,1.5,right,RRRRR.png,,,,,0,0,0,0,1,23,47,17,,,,,,,,,,,,,,,,,,,,,,,,,,,,,,,,,,,,,,,,,,,,,,,,,,,,,,,,,,,,,,,,188.32855199999176,188.72934610000812,188.71356230019592,188.813970600022,189.21427560015582,None,right,1,0.522967099910602,189.21427560015582,None,188.71356230019592,188.813970600022,188.813970600022,None,189.76429010019638,None,,,,,,,11037,001,2024_Mar_11_1520,ANT,2021.2.3,59.93920959545546,
1,18,spatial,up,C,R,,,,,,Block.xlsx,"你已经完成了第一个实验区组

请稍作休息


点击空格键进入下一个区组。",1.5,0,1.5,right,RRRRR.png,,,,,0,0,0,0,2,0,48,17,,,,,,,,,,,,,,,,,,,,,,,,,,,,,,,,,,,,,,,,,,,,,,,,,,,,,,,,,,,,,,,,190.16575110005215,190.5666063001845,190.54867260018364,190.64874940016307,191.0492701001931,None,right,1,0.5039182999171317,191.0492701001931,None,190.54867260018364,190.64874940016307,190.64874940016307,None,191.58362910011783,None,,,,,,,11037,001,2024_Mar_11_1520,ANT,2021.2.3,59.93920959545546,
1,20,spatial,up,IC,R,,,,,,Block.xlsx,"你已经完成了第一个实验区组

请稍作休息


点击空格键进入下一个区组。",1.5,0,1.5,right,LLRLL.png,,,,,0,0,0,0,2,1,49,19,,,,,,,,,,,,,,,,,,,,,,,,,,,,,,,,,,,,,,,,,,,,,,,,,,,,,,,,,,,,,,,,191.98419310012832,192.3847928000614,192.3688004000578,192.46989910001867,192.8698621999938,None,right,1,0.5960093999747187,192.8698621999938,None,192.3688004000578,192.46989910001867,192.46989910001867,None,193.48647600016557,None,,,,,,,11037,001,2024_Mar_11_1520,ANT,2021.2.3,59.93920959545546,
1,4,no,up,IC,R,,,,,,Block.xlsx,"你已经完成了第一个实验区组

请稍作休息


点击空格键进入下一个区组。",50,0,1.5,right,LLRLL.png,,,,,0,0,0,0,2,2,50,3,,,,,,,,,,,,,,,,,,,,,,,,,,,,,,,,,,,,,,,,,,,,,,,,,,,,,,,,,,,,,,,,193.88714060001075,194.28850140003487,194.27182170003653,194.3718270000536,194.77228690008633,None,right,1,0.5026944000273943,194.77228690008633,None,194.27182170003653,194.3718270000536,194.3718270000536,None,195.28911100002006,None,,,,,,,11037,001,2024_Mar_11_1520,ANT,2021.2.3,59.93920959545546,
1,8,no,down,IC,R,,,,,,Block.xlsx,"你已经完成了第一个实验区组

请稍作休息


点击空格键进入下一个区组。",50,0,-1.5,right,LLRLL.png,,,,,0,0,0,0,2,3,51,7,,,,,,,,,,,,,,,,,,,,,,,,,,,,,,,,,,,,,,,,,,,,,,,,,,,,,,,,,,,,,,,,195.68988239997998,196.09120540018193,196.0737329002004,196.17487059999257,196.5744436001405,None,right,1,0.6362578000407666,196.5744436001405,None,196.0737329002004,196.17487059999257,196.17487059999257,None,197.22511740005575,None,,,,,,,11037,001,2024_Mar_11_1520,ANT,2021.2.3,59.93920959545546,
1,22,spatial,down,C,R,,,,,,Block.xlsx,"你已经完成了第一个实验区组

请稍作休息


点击空格键进入下一个区组。",-1.5,0,-1.5,right,RRRRR.png,,,,,0,0,0,0,2,4,52,21,,,,,,,,,,,,,,,,,,,,,,,,,,,,,,,,,,,,,,,,,,,,,,,,,,,,,,,,,,,,,,,,197.62585190008394,198.0273043999914,198.01003440003842,198.1102136000991,198.5109928001184,None,right,1,0.426574399927631,198.5109928001184,None,198.01003440003842,198.1102136000991,198.1102136000991,None,198.9612933001481,None,,,,,,,11037,001,2024_Mar_11_1520,ANT,2021.2.3,59.93920959545546,
1,16,center,down,IC,R,,,,,,Block.xlsx,"你已经完成了第一个实验区组

请稍作休息


点击空格键进入下一个区组。",0,50,-1.5,right,LLRLL.png,,,,,0,0,0,0,2,5,53,15,,,,,,,,,,,,,,,,,,,,,,,,,,,,,,,,,,,,,,,,,,,,,,,,,,,,,,,,,,,,,,,,199.36242990009487,199.76342940004542,199.74675580020994,199.84752330021,200.24686280009337,None,right,1,0.7230366000439972,200.24686280009337,None,199.74675580020994,199.84752330021,199.84752330021,None,200.9980997000821,None,,,,,,,11037,001,2024_Mar_11_1520,ANT,2021.2.3,59.93920959545546,
1,22,spatial,down,C,R,,,,,,Block.xlsx,"你已经完成了第一个实验区组

请稍作休息


点击空格键进入下一个区组。",-1.5,0,-1.5,right,RRRRR.png,,,,,0,0,0,0,2,6,54,21,,,,,,,,,,,,,,,,,,,,,,,,,,,,,,,,,,,,,,,,,,,,,,,,,,,,,,,,,,,,,,,,201.39830540004186,201.7998680002056,201.78270470001735,201.8835336000193,202.28368650004268,None,right,1,0.43029640009626746,202.28368650004268,None,201.78270470001735,201.8835336000193,201.8835336000193,None,202.73351619997993,None,,,,,,,11037,001,2024_Mar_11_1520,ANT,2021.2.3,59.93920959545546,
1,12,center,up,IC,R,,,,,,Block.xlsx,"你已经完成了第一个实验区组

请稍作休息


点击空格键进入下一个区组。",0,50,1.5,right,LLRLL.png,,,,,0,0,0,0,2,7,55,11,,,,,,,,,,,,,,,,,,,,,,,,,,,,,,,,,,,,,,,,,,,,,,,,,,,,,,,,,,,,,,,,203.13443000009283,203.53558770008385,203.51820990000851,203.61937490012497,204.01960600004531,None,right,1,0.5348949001636356,204.01960600004531,None,203.51820990000851,203.61937490012497,203.61937490012497,None,204.56990810018033,None,,,,,,,11037,001,2024_Mar_11_1520,ANT,2021.2.3,59.93920959545546,
1,18,spatial,up,C,R,,,,,,Block.xlsx,"你已经完成了第一个实验区组

请稍作休息


点击空格键进入下一个区组。",1.5,0,1.5,right,RRRRR.png,,,,,0,0,0,0,2,8,56,17,,,,,,,,,,,,,,,,,,,,,,,,,,,,,,,,,,,,,,,,,,,,,,,,,,,,,,,,,,,,,,,,204.9702742001973,205.3711230000481,205.35452460008673,205.45463240006939,205.8549687000923,None,right,1,0.48271719994954765,205.8549687000923,None,205.35452460008673,205.45463240006939,205.45463240006939,None,206.35623140004463,None,,,,,,,11037,001,2024_Mar_11_1520,ANT,2021.2.3,59.93920959545546,
1,23,spatial,down,IC,L,,,,,,Block.xlsx,"你已经完成了第一个实验区组

请稍作休息


点击空格键进入下一个区组。",-1.5,0,-1.5,left,RRLRR.png,,,,,0,0,0,0,2,9,57,22,,,,,,,,,,,,,,,,,,,,,,,,,,,,,,,,,,,,,,,,,,,,,,,,,,,,,,,,,,,,,,,,206.75660520000383,207.15755280014127,207.141139900079,207.24148229998536,207.64223670004867,None,left,1,0.5282841001171619,207.64223670004867,None,207.141139900079,207.24148229998536,207.24148229998536,None,208.1920045001898,None,,,,,,,11037,001,2024_Mar_11_1520,ANT,2021.2.3,59.93920959545546,
1,9,center,up,C,L,,,,,,Block.xlsx,"你已经完成了第一个实验区组

请稍作休息


点击空格键进入下一个区组。",0,50,1.5,left,LLLLL.png,,,,,0,0,0,0,2,10,58,8,,,,,,,,,,,,,,,,,,,,,,,,,,,,,,,,,,,,,,,,,,,,,,,,,,,,,,,,,,,,,,,,208.592609600164,208.99374509998597,208.97730450006202,209.07733180001378,209.47845040005632,None,left,1,0.5718332000542432,209.47845040005632,None,208.97730450006202,209.07733180001378,209.07733180001378,None,210.0779437001329,None,,,,,,,11037,001,2024_Mar_11_1520,ANT,2021.2.3,59.93920959545546,
1,9,center,up,C,L,,,,,,Block.xlsx,"你已经完成了第一个实验区组

请稍作休息


点击空格键进入下一个区组。",0,50,1.5,left,LLLLL.png,,,,,0,0,0,0,2,11,59,8,,,,,,,,,,,,,,,,,,,,,,,,,,,,,,,,,,,,,,,,,,,,,,,,,,,,,,,,,,,,,,,,210.479532700032,210.8792514000088,210.8637258000672,210.96326069999486,211.36419860017486,None,left,1,0.43815040006302297,211.36419860017486,None,210.8637258000672,210.96326069999486,210.96326069999486,None,211.83076140005141,None,,,,,,,11037,001,2024_Mar_11_1520,ANT,2021.2.3,59.93920959545546,
1,4,no,up,IC,R,,,,,,Block.xlsx,"你已经完成了第一个实验区组

请稍作休息


点击空格键进入下一个区组。",50,0,1.5,right,LLRLL.png,,,,,0,0,0,0,2,12,60,3,,,,,,,,,,,,,,,,,,,,,,,,,,,,,,,,,,,,,,,,,,,,,,,,,,,,,,,,,,,,,,,,212.23198839998804,212.63187890010886,212.61591860000044,212.71735709998757,213.11634539999068,None,right,1,0.6376287001185119,213.11634539999068,None,212.61591860000044,212.71735709998757,212.71735709998757,None,213.78375550010242,None,,,,,,,11037,001,2024_Mar_11_1520,ANT,2021.2.3,59.93920959545546,
1,4,no,up,IC,R,,,,,,Block.xlsx,"你已经完成了第一个实验区组

请稍作休息


点击空格键进入下一个区组。",50,0,1.5,right,LLRLL.png,,,,,0,0,0,0,2,13,61,3,,,,,,,,,,,,,,,,,,,,,,,,,,,,,,,,,,,,,,,,,,,,,,,,,,,,,,,,,,,,,,,,214.18483959999867,214.5856793001294,214.5689141000621,214.66923870006576,215.06998460018076,None,right,1,0.5559975998476148,215.06998460018076,None,214.5689141000621,214.66923870006576,214.66923870006576,None,215.6531399001833,None,,,,,,,11037,001,2024_Mar_11_1520,ANT,2021.2.3,59.93920959545546,
1,19,spatial,up,IC,L,,,,,,Block.xlsx,"你已经完成了第一个实验区组

请稍作休息


点击空格键进入下一个区组。",1.5,0,1.5,left,RRLRR.png,,,,,0,0,0,0,2,14,62,18,,,,,,,,,,,,,,,,,,,,,,,,,,,,,,,,,,,,,,,,,,,,,,,,,,,,,,,,,,,,,,,,216.05391720007174,216.45449160016142,216.43853070004843,216.53862980008125,216.9390982000623,None,left,1,0.5348000999074429,216.9390982000623,None,216.43853070004843,216.53862980008125,216.53862980008125,None,217.48925189999864,None,,,,,,,11037,001,2024_Mar_11_1520,ANT,2021.2.3,59.93920959545546,
1,2,no,up,C,R,,,,,,Block.xlsx,"你已经完成了第一个实验区组

请稍作休息


点击空格键进入下一个区组。",50,0,1.5,right,RRRRR.png,,,,,0,0,0,0,2,15,63,1,,,,,,,,,,,,,,,,,,,,,,,,,,,,,,,,,,,,,,,,,,,,,,,,,,,,,,,,,,,,,,,,217.89054829999804,218.29164710012265,218.27385470014997,218.3755297001917,218.7746908001136,None,right,1,0.45958070014603436,218.7746908001136,None,218.27385470014997,218.3755297001917,218.3755297001917,None,219.25934890005738,None,,,,,,,11037,001,2024_Mar_11_1520,ANT,2021.2.3,59.93920959545546,
1,12,center,up,IC,R,,,,,,Block.xlsx,"你已经完成了第一个实验区组

请稍作休息


点击空格键进入下一个区组。",0,50,1.5,right,LLRLL.png,,,,,0,0,0,0,2,16,64,11,,,,,,,,,,,,,,,,,,,,,,,,,,,,,,,,,,,,,,,,,,,,,,,,,,,,,,,,,,,,,,,,219.65919260005467,220.06050740019418,220.044140300015,220.14363180007786,220.54443140001968,None,right,1,0.5946022998541594,220.54443140001968,None,220.044140300015,220.14363180007786,220.14363180007786,None,221.16169780003838,None,,,,,,,11037,001,2024_Mar_11_1520,ANT,2021.2.3,59.93920959545546,
1,1,no,up,C,L,,,,,,Block.xlsx,"你已经完成了第一个实验区组

请稍作休息


点击空格键进入下一个区组。",50,0,1.5,left,LLLLL.png,,,,,0,0,0,0,2,17,65,0,,,,,,,,,,,,,,,,,,,,,,,,,,,,,,,,,,,,,,,,,,,,,,,,,,,,,,,,,,,,,,,,221.56204590015113,221.9634895999916,221.94670670013875,222.04694530018605,222.44728100020438,None,left,1,0.47512870002537966,222.44728100020438,None,221.94670670013875,222.04694530018605,222.04694530018605,None,222.94769190018997,None,,,,,,,11037,001,2024_Mar_11_1520,ANT,2021.2.3,59.93920959545546,
1,13,center,down,C,L,,,,,,Block.xlsx,"你已经完成了第一个实验区组

请稍作休息


点击空格键进入下一个区组。",0,50,-1.5,left,LLLLL.png,,,,,0,0,0,0,2,18,66,12,,,,,,,,,,,,,,,,,,,,,,,,,,,,,,,,,,,,,,,,,,,,,,,,,,,,,,,,,,,,,,,,223.34814900020137,223.74932750011794,223.73358270013705,223.83245660015382,224.23380190017633,None,right,0,0.4972472998779267,224.23380190017633,None,223.73358270013705,223.83245660015382,223.83245660015382,None,224.7500826001633,None,,,,,,,11037,001,2024_Mar_11_1520,ANT,2021.2.3,59.93920959545546,
1,3,no,up,IC,L,,,,,,Block.xlsx,"你已经完成了第一个实验区组

请稍作休息


点击空格键进入下一个区组。",50,0,1.5,left,RRLRR.png,,,,,0,0,0,0,2,19,67,2,,,,,,,,,,,,,,,,,,,,,,,,,,,,,,,,,,,,,,,,,,,,,,,,,,,,,,,,,,,,,,,,225.15084170014597,225.55276009999216,225.535897300113,225.63559240009636,226.03717840020545,None,left,1,0.581293199909851,226.03717840020545,None,225.535897300113,225.63559240009636,225.63559240009636,None,226.63641180004925,None,,,,,,,11037,001,2024_Mar_11_1520,ANT,2021.2.3,59.93920959545546,
1,7,no,down,IC,L,,,,,,Block.xlsx,"你已经完成了第一个实验区组

请稍作休息


点击空格键进入下一个区组。",50,0,-1.5,left,RRLRR.png,,,,,0,0,0,0,2,20,68,6,,,,,,,,,,,,,,,,,,,,,,,,,,,,,,,,,,,,,,,,,,,,,,,,,,,,,,,,,,,,,,,,227.0369975999929,227.4380133000668,227.42175660002977,227.52256519999355,227.9236458002124,None,left,1,0.6626015999354422,227.9236458002124,None,227.42175660002977,227.52256519999355,227.52256519999355,None,228.60610370012,None,,,,,,,11037,001,2024_Mar_11_1520,ANT,2021.2.3,59.93920959545546,
1,17,spatial,up,C,L,,,,,,Block.xlsx,"你已经完成了第一个实验区组

请稍作休息


点击空格键进入下一个区组。",1.5,0,1.5,left,LLLLL.png,,,,,0,0,0,0,2,21,69,16,,,,,,,,,,,,,,,,,,,,,,,,,,,,,,,,,,,,,,,,,,,,,,,,,,,,,,,,,,,,,,,,229.00767040019855,229.40913400007412,229.3909487000201,229.49158480018377,229.89114290010184,None,left,1,0.4873023999389261,229.89114290010184,None,229.3909487000201,229.49158480018377,229.49158480018377,None,230.40956729999743,None,,,,,,,11037,001,2024_Mar_11_1520,ANT,2021.2.3,59.93920959545546,
1,19,spatial,up,IC,L,,,,,,Block.xlsx,"你已经完成了第一个实验区组

请稍作休息


点击空格键进入下一个区组。",1.5,0,1.5,left,RRLRR.png,,,,,0,0,0,0,2,22,70,18,,,,,,,,,,,,,,,,,,,,,,,,,,,,,,,,,,,,,,,,,,,,,,,,,,,,,,,,,,,,,,,,230.81025730003603,231.21098780003376,231.19425710011274,231.2934420001693,231.69426920008846,None,left,1,0.5563445000443608,231.69426920008846,None,231.19425710011274,231.2934420001693,231.2934420001693,None,232.27814370021224,None,,,,,,,11037,001,2024_Mar_11_1520,ANT,2021.2.3,59.93920959545546,
1,6,no,down,C,R,,,,,,Block.xlsx,"你已经完成了第一个实验区组

请稍作休息


点击空格键进入下一个区组。",50,0,-1.5,right,RRRRR.png,,,,,0,0,0,0,2,23,71,5,,,,,,,,,,,,,,,,,,,,,,,,,,,,,,,,,,,,,,,,,,,,,,,,,,,,,,,,,,,,,,,,232.67899790010415,233.08118640002795,233.06312060006894,233.16429079999216,233.56429110001773,None,right,1,0.47850670013576746,233.56429110001773,None,233.06312060006894,233.16429079999216,233.16429079999216,None,234.06435520015657,None,,,,,,,11037,001,2024_Mar_11_1520,ANT,2021.2.3,59.93920959545546,
1,10,center,up,C,R,,,,,,Block.xlsx,"你已经完成了第一个实验区组

请稍作休息


点击空格键进入下一个区组。",0,50,1.5,right,RRRRR.png,,,,,0,0,0,0,3,0,72,9,,,,,,,,,,,,,,,,,,,,,,,,,,,,,,,,,,,,,,,,,,,,,,,,,,,,,,,,,,,,,,,,234.46466180006973,234.86540870019235,234.8486697000917,234.9512332000304,235.34964110003784,None,right,1,0.5253956001251936,235.34964110003784,None,234.8486697000917,234.9512332000304,234.9512332000304,None,235.90065150009468,None,,,,,,,11037,001,2024_Mar_11_1520,ANT,2021.2.3,59.93920959545546,
1,14,center,down,C,R,,,,,,Block.xlsx,"你已经完成了第一个实验区组

请稍作休息


点击空格键进入下一个区组。",0,50,-1.5,right,RRRRR.png,,,,,0,0,0,0,3,1,73,13,,,,,,,,,,,,,,,,,,,,,,,,,,,,,,,,,,,,,,,,,,,,,,,,,,,,,,,,,,,,,,,,236.30112220020965,236.70163730019704,236.68572590011172,236.78551469999366,237.18576220003888,None,right,1,0.5132039999589324,237.18576220003888,None,236.68572590011172,236.78551469999366,236.78551469999366,None,237.71987460018136,None,,,,,,,11037,001,2024_Mar_11_1520,ANT,2021.2.3,59.93920959545546,
1,1,no,up,C,L,,,,,,Block.xlsx,"你已经完成了第一个实验区组

请稍作休息


点击空格键进入下一个区组。",50,0,1.5,left,LLLLL.png,,,,,0,0,0,0,3,2,74,0,,,,,,,,,,,,,,,,,,,,,,,,,,,,,,,,,,,,,,,,,,,,,,,,,,,,,,,,,,,,,,,,238.12091510021128,238.5208873001393,238.5045735000167,238.60443580010906,239.00580680021085,None,left,1,0.45306229987181723,239.00580680021085,None,238.5045735000167,238.60443580010906,238.60443580010906,None,239.49034940009005,None,,,,,,,11037,001,2024_Mar_11_1520,ANT,2021.2.3,59.93920959545546,
1,5,no,down,C,L,,,,,,Block.xlsx,"你已经完成了第一个实验区组

请稍作休息


点击空格键进入下一个区组。",50,0,-1.5,left,LLLLL.png,,,,,0,0,0,0,3,3,75,4,,,,,,,,,,,,,,,,,,,,,,,,,,,,,,,,,,,,,,,,,,,,,,,,,,,,,,,,,,,,,,,,239.8909627001267,240.29142040014267,240.27560110017657,240.39172499999404,240.7760339002125,None,left,1,0.4347832000348717,240.7760339002125,None,240.27560110017657,240.39172499999404,240.37526140012778,None,241.2420279001817,None,,,,,,,11037,001,2024_Mar_11_1520,ANT,2021.2.3,59.93920959545546,
1,21,spatial,down,C,L,,,,,,Block.xlsx,"你已经完成了第一个实验区组

请稍作休息


点击空格键进入下一个区组。",-1.5,0,-1.5,left,LLLLL.png,,,,,0,0,0,0,3,4,76,20,,,,,,,,,,,,,,,,,,,,,,,,,,,,,,,,,,,,,,,,,,,,,,,,,,,,,,,,,,,,,,,,241.6424459000118,242.04399110004306,242.02731780009344,242.12870000000112,242.5278398001101,None,left,1,0.4270750000141561,242.5278398001101,None,242.02731780009344,242.12870000000112,242.12870000000112,None,242.97823120001704,None,,,,,,,11037,001,2024_Mar_11_1520,ANT,2021.2.3,59.93920959545546,
1,2,no,up,C,R,,,,,,Block.xlsx,"你已经完成了第一个实验区组

请稍作休息


点击空格键进入下一个区组。",50,0,1.5,right,RRRRR.png,,,,,0,0,0,0,3,5,77,1,,,,,,,,,,,,,,,,,,,,,,,,,,,,,,,,,,,,,,,,,,,,,,,,,,,,,,,,,,,,,,,,243.37903160019778,243.7789572000038,243.76243290002458,243.86240880005062,244.2634639001917,None,right,1,0.45138809992931783,244.2634639001917,None,243.76243290002458,243.86240880005062,243.86240880005062,None,244.7317179001402,None,,,,,,,11037,001,2024_Mar_11_1520,ANT,2021.2.3,59.93920959545546,
1,7,no,down,IC,L,,,,,,Block.xlsx,"你已经完成了第一个实验区组

请稍作休息


点击空格键进入下一个区组。",50,0,-1.5,left,RRLRR.png,,,,,0,0,0,0,3,6,78,6,,,,,,,,,,,,,,,,,,,,,,,,,,,,,,,,,,,,,,,,,,,,,,,,,,,,,,,,,,,,,,,,245.13131780014373,245.53173990012147,245.5155487000011,245.6163218000438,246.0159516001586,None,left,1,0.627056400058791,246.0159516001586,None,245.5155487000011,245.6163218000438,245.6163218000438,None,246.66662360006012,None,,,,,,,11037,001,2024_Mar_11_1520,ANT,2021.2.3,59.93920959545546,
1,24,spatial,down,IC,R,,,,,,Block.xlsx,"你已经完成了第一个实验区组

请稍作休息


点击空格键进入下一个区组。",-1.5,0,-1.5,right,LLRLL.png,,,,,0,0,0,0,3,7,79,23,,,,,,,,,,,,,,,,,,,,,,,,,,,,,,,,,,,,,,,,,,,,,,,,,,,,,,,,,,,,,,,,247.06807370018214,247.4679632000625,247.4519375001546,247.5526614000555,247.9521235001739,None,right,1,0.6265755998902023,247.9521235001739,None,247.4519375001546,247.5526614000555,247.5526614000555,None,248.60286330012605,None,,,,,,,11037,001,2024_Mar_11_1520,ANT,2021.2.3,59.93920959545546,
1,11,center,up,IC,L,,,,,,Block.xlsx,"你已经完成了第一个实验区组

请稍作休息


点击空格键进入下一个区组。",0,50,1.5,left,RRLRR.png,,,,,0,0,0,0,3,8,80,10,,,,,,,,,,,,,,,,,,,,,,,,,,,,,,,,,,,,,,,,,,,,,,,,,,,,,,,,,,,,,,,,249.0044478001073,249.4041792000644,249.3885137999896,249.488193300087,249.88807570002973,None,left,1,0.6355733000673354,249.88807570002973,None,249.3885137999896,249.488193300087,249.488193300087,None,250.5391081001144,None,,,,,,,11037,001,2024_Mar_11_1520,ANT,2021.2.3,59.93920959545546,
1,23,spatial,down,IC,L,,,,,,Block.xlsx,"你已经完成了第一个实验区组

请稍作休息


点击空格键进入下一个区组。",-1.5,0,-1.5,left,RRLRR.png,,,,,0,0,0,0,3,9,81,22,,,,,,,,,,,,,,,,,,,,,,,,,,,,,,,,,,,,,,,,,,,,,,,,,,,,,,,,,,,,,,,,250.94070570007898,251.34009740012698,251.32451519998722,251.42560720001347,251.82472610007972,None,left,1,0.4663684000261128,251.82472610007972,None,251.32451519998722,251.42560720001347,251.42560720001347,None,252.30867550009862,None,,,,,,,11037,001,2024_Mar_11_1520,ANT,2021.2.3,59.93920959545546,
1,17,spatial,up,C,L,,,,,,Block.xlsx,"你已经完成了第一个实验区组

请稍作休息


点击空格键进入下一个区组。",1.5,0,1.5,left,LLLLL.png,,,,,0,0,0,0,3,10,82,16,,,,,,,,,,,,,,,,,,,,,,,,,,,,,,,,,,,,,,,,,,,,,,,,,,,,,,,,,,,,,,,,252.70903920009732,253.11134810000658,253.09304470010102,253.1937120000366,253.59457110008225,None,left,1,0.36843509995378554,253.59457110008225,None,253.09304470010102,253.1937120000366,253.1937120000366,None,253.99440820002928,None,,,,,,,11037,001,2024_Mar_11_1520,ANT,2021.2.3,59.93920959545546,
1,18,spatial,up,C,R,,,,,,Block.xlsx,"你已经完成了第一个实验区组

请稍作休息


点击空格键进入下一个区组。",1.5,0,1.5,right,RRRRR.png,,,,,0,0,0,0,3,11,83,17,,,,,,,,,,,,,,,,,,,,,,,,,,,,,,,,,,,,,,,,,,,,,,,,,,,,,,,,,,,,,,,,254.39582780003548,254.79564860020764,254.77987190010026,254.87975120008923,255.28077130019665,None,right,1,0.45823039999231696,255.28077130019665,None,254.77987190010026,254.87975120008923,254.87975120008923,None,255.76353760017082,None,,,,,,,11037,001,2024_Mar_11_1520,ANT,2021.2.3,59.93920959545546,
1,21,spatial,down,C,L,,,,,,Block.xlsx,"你已经完成了第一个实验区组

请稍作休息


点击空格键进入下一个区组。",-1.5,0,-1.5,left,LLLLL.png,,,,,0,0,0,0,3,12,84,20,,,,,,,,,,,,,,,,,,,,,,,,,,,,,,,,,,,,,,,,,,,,,,,,,,,,,,,,,,,,,,,,256.16423940006644,256.5654120000545,256.54873100016266,256.64841850008816,257.0487713001203,None,left,1,0.4511469998396933,257.0487713001203,None,256.54873100016266,256.64841850008816,256.64841850008816,None,257.5163342000451,None,,,,,,,11037,001,2024_Mar_11_1520,ANT,2021.2.3,59.93920959545546,
1,5,no,down,C,L,,,,,,Block.xlsx,"你已经完成了第一个实验区组

请稍作休息


点击空格键进入下一个区组。",50,0,-1.5,left,LLLLL.png,,,,,0,0,0,0,3,13,85,4,,,,,,,,,,,,,,,,,,,,,,,,,,,,,,,,,,,,,,,,,,,,,,,,,,,,,,,,,,,,,,,,257.917474700138,258.3190761001315,258.30077470000833,258.4019197002053,258.80302250012755,None,left,1,0.4968391000293195,258.80302250012755,None,258.30077470000833,258.4019197002053,258.4019197002053,None,259.31921069999225,None,,,,,,,11037,001,2024_Mar_11_1520,ANT,2021.2.3,59.93920959545546,
1,8,no,down,IC,R,,,,,,Block.xlsx,"你已经完成了第一个实验区组

请稍作休息


点击空格键进入下一个区组。",50,0,-1.5,right,LLRLL.png,,,,,0,0,0,0,3,14,86,7,,,,,,,,,,,,,,,,,,,,,,,,,,,,,,,,,,,,,,,,,,,,,,,,,,,,,,,,,,,,,,,,259.7196688000113,260.12115630018525,260.104367100168,260.20433490001597,260.60500110010616,None,left,0,0.41472469992004335,260.60500110010616,None,260.104367100168,260.20433490001597,260.20433490001597,None,261.0383347000461,None,,,,,,,11037,001,2024_Mar_11_1520,ANT,2021.2.3,59.93920959545546,
1,2,no,up,C,R,,,,,,Block.xlsx,"你已经完成了第一个实验区组

请稍作休息


点击空格键进入下一个区组。",50,0,1.5,right,RRRRR.png,,,,,0,0,0,0,3,15,87,1,,,,,,,,,,,,,,,,,,,,,,,,,,,,,,,,,,,,,,,,,,,,,,,,,,,,,,,,,,,,,,,,261.4400431001559,261.84087980003096,261.823736499995,261.9230332002044,262.3241399000399,None,right,1,0.5680424999445677,262.3241399000399,None,261.823736499995,261.9230332002044,261.9230332002044,None,262.90800070017576,None,,,,,,,11037,001,2024_Mar_11_1520,ANT,2021.2.3,59.93920959545546,
1,23,spatial,down,IC,L,,,,,,Block.xlsx,"你已经完成了第一个实验区组

请稍作休息


点击空格键进入下一个区组。",-1.5,0,-1.5,left,RRLRR.png,,,,,0,0,0,0,3,16,88,22,,,,,,,,,,,,,,,,,,,,,,,,,,,,,,,,,,,,,,,,,,,,,,,,,,,,,,,,,,,,,,,,263.30840920004994,263.7092504000757,263.69432400004007,263.81056020013057,264.1938784001395,None,left,1,0.5458235000260174,264.1938784001395,None,263.69432400004007,263.81056020013057,263.7924671000801,None,264.76058020000346,None,,,,,,,11037,001,2024_Mar_11_1520,ANT,2021.2.3,59.93920959545546,
1,15,center,down,IC,L,,,,,,Block.xlsx,"你已经完成了第一个实验区组

请稍作休息


点击空格键进入下一个区组。",0,50,-1.5,left,RRLRR.png,,,,,0,0,0,0,3,17,89,14,,,,,,,,,,,,,,,,,,,,,,,,,,,,,,,,,,,,,,,,,,,,,,,,,,,,,,,,,,,,,,,,265.16127620008774,265.5618915001396,265.5459867999889,265.64633290003985,266.04591450002044,None,left,1,0.502201700117439,266.04591450002044,None,265.5459867999889,265.64633290003985,265.64633290003985,None,266.56317460001446,None,,,,,,,11037,001,2024_Mar_11_1520,ANT,2021.2.3,59.93920959545546,
1,16,center,down,IC,R,,,,,,Block.xlsx,"你已经完成了第一个实验区组

请稍作休息


点击空格键进入下一个区组。",0,50,-1.5,right,LLRLL.png,,,,,0,0,0,0,3,18,90,15,,,,,,,,,,,,,,,,,,,,,,,,,,,,,,,,,,,,,,,,,,,,,,,,,,,,,,,,,,,,,,,,266.9638648000546,267.366366900038,267.3484124999959,267.44910369999707,267.84892680007033,None,right,1,0.6193383000791073,267.84892680007033,None,267.3484124999959,267.44910369999707,267.44910369999707,None,268.5001072001178,None,,,,,,,11037,001,2024_Mar_11_1520,ANT,2021.2.3,59.93920959545546,
1,8,no,down,IC,R,,,,,,Block.xlsx,"你已经完成了第一个实验区组

请稍作休息


点击空格键进入下一个区组。",50,0,-1.5,right,LLRLL.png,,,,,0,0,0,0,3,19,91,7,,,,,,,,,,,,,,,,,,,,,,,,,,,,,,,,,,,,,,,,,,,,,,,,,,,,,,,,,,,,,,,,268.9010887001641,269.3008805999998,269.28492490015924,269.3841090002097,269.78491300018504,None,right,1,0.539229900110513,269.78491300018504,None,269.28492490015924,269.3841090002097,269.3841090002097,None,270.3523441001307,None,,,,,,,11037,001,2024_Mar_11_1520,ANT,2021.2.3,59.93920959545546,
1,7,no,down,IC,L,,,,,,Block.xlsx,"你已经完成了第一个实验区组

请稍作休息


点击空格键进入下一个区组。",50,0,-1.5,left,RRLRR.png,,,,,0,0,0,0,3,20,92,6,,,,,,,,,,,,,,,,,,,,,,,,,,,,,,,,,,,,,,,,,,,,,,,,,,,,,,,,,,,,,,,,270.75403499999084,271.153934400063,271.1375767001882,271.2384176000487,271.63776340009645,None,left,1,0.5419606999494135,271.63776340009645,None,271.1375767001882,271.2384176000487,271.2384176000487,None,272.2051254999824,None,,,,,,,11037,001,2024_Mar_11_1520,ANT,2021.2.3,59.93920959545546,
1,4,no,up,IC,R,,,,,,Block.xlsx,"你已经完成了第一个实验区组

请稍作休息


点击空格键进入下一个区组。",50,0,1.5,right,LLRLL.png,,,,,0,0,0,0,3,21,93,3,,,,,,,,,,,,,,,,,,,,,,,,,,,,,,,,,,,,,,,,,,,,,,,,,,,,,,,,,,,,,,,,272.60678500006907,273.0077787002083,272.98957219999284,273.0897404002026,273.49113099998794,None,right,1,0.5605536999646574,273.49113099998794,None,272.98957219999284,273.0897404002026,273.0897404002026,None,274.0745751000941,None,,,,,,,11037,001,2024_Mar_11_1520,ANT,2021.2.3,59.93920959545546,
1,3,no,up,IC,L,,,,,,Block.xlsx,"你已经完成了第一个实验区组

请稍作休息


点击空格键进入下一个区组。",50,0,1.5,left,RRLRR.png,,,,,0,0,0,0,3,22,94,2,,,,,,,,,,,,,,,,,,,,,,,,,,,,,,,,,,,,,,,,,,,,,,,,,,,,,,,,,,,,,,,,274.47512780013494,274.8773135000374,274.8592364001088,274.9605735000223,275.3609953999985,None,left,1,0.5865752000827342,275.3609953999985,None,274.8592364001088,274.9605735000223,274.9605735000223,None,275.9607140000444,None,,,,,,,11037,001,2024_Mar_11_1520,ANT,2021.2.3,59.93920959545546,
1,12,center,up,IC,R,,,,,,Block.xlsx,"你已经完成了第一个实验区组

请稍作休息


点击空格键进入下一个区组。",0,50,1.5,right,LLRLL.png,,,,,0,0,0,0,3,23,95,11,,,,,,,,,,,,,,,,,,,,,,,,,,,,,,,,,,,,,,,,,,,,,,,,,,,,,,,,,,,,,,,,276.3615928001236,276.7620652001351,276.7461042001378,276.8455335001927,277.2459047001321,None,right,1,0.5575563998427242,277.2459047001321,None,276.7461042001378,276.8455335001927,276.8455335001927,None,277.83030550018884,None,,,,,,,11037,001,2024_Mar_11_1520,ANT,2021.2.3,59.93920959545546,
,,,,,,,,,,,Block.xlsx,"你已经完成了第一个实验区组

请稍作休息


点击空格键进入下一个区组。",,,,,,,,,,0,0,0,0,,,,,,,,,,,,,,,,,,,,,,,,,,,,,,,,,,,,,,,,,,,,,,,,,,,,,,,,,,,,,,,,,,,,,,,,,,,,,,,,,,,,,space,13.988565400009975,278.24805640010163,None,278.24805640010163,None,11037,001,2024_Mar_11_1520,ANT,2021.2.3,59.93920959545546,
1,2,no,up,C,R,,,,,,Block.xlsx,"你已经完成了整个实验（三个区组）。

请报告实验者已完成实验

非常感谢，再见！",50,0,1.5,right,RRRRR.png,,,,,0,1,1,1,0,0,0,1,,,,,,,,,,,,,,,,,,,,,,,,,,,,,,,,,,,,,,,,,,,,,,,,,,,,,,,,,,,,,,,,292.2686631001998,292.6692013000138,292.6527484001126,292.75470150006004,293.15468490007333,None,right,1,0.5614997998345643,293.15468490007333,None,292.6527484001126,292.75470150006004,292.75470150006004,None,293.73760690004565,None,,,,,,,11037,001,2024_Mar_11_1520,ANT,2021.2.3,59.93920959545546,
1,16,center,down,IC,R,,,,,,Block.xlsx,"你已经完成了整个实验（三个区组）。

请报告实验者已完成实验

非常感谢，再见！",0,50,-1.5,right,LLRLL.png,,,,,0,1,1,1,0,1,1,15,,,,,,,,,,,,,,,,,,,,,,,,,,,,,,,,,,,,,,,,,,,,,,,,,,,,,,,,,,,,,,,,294.13959130016156,294.5405662001576,294.52222290006466,294.6229960999917,295.0250581,None,right,1,0.8276076000183821,295.0250581,None,294.52222290006466,294.6229960999917,294.6229960999917,None,295.87416940019466,None,,,,,,,11037,001,2024_Mar_11_1520,ANT,2021.2.3,59.93920959545546,
1,13,center,down,C,L,,,,,,Block.xlsx,"你已经完成了整个实验（三个区组）。

请报告实验者已完成实验

非常感谢，再见！",0,50,-1.5,left,LLLLL.png,,,,,0,1,1,1,0,2,2,12,,,,,,,,,,,,,,,,,,,,,,,,,,,,,,,,,,,,,,,,,,,,,,,,,,,,,,,,,,,,,,,,296.274757000152,296.6768875999842,296.65865270001814,296.75981600000523,297.16026820009574,None,left,1,0.5009566000662744,297.16026820009574,None,296.65865270001814,296.75981600000523,296.75981600000523,None,297.6768548002001,None,,,,,,,11037,001,2024_Mar_11_1520,ANT,2021.2.3,59.93920959545546,
1,11,center,up,IC,L,,,,,,Block.xlsx,"你已经完成了整个实验（三个区组）。

请报告实验者已完成实验

非常感谢，再见！",0,50,1.5,left,RRLRR.png,,,,,0,1,1,1,0,3,3,10,,,,,,,,,,,,,,,,,,,,,,,,,,,,,,,,,,,,,,,,,,,,,,,,,,,,,,,,,,,,,,,,298.07851740019396,298.47896259999834,298.4614773001522,298.56329110008664,298.9637504001148,None,left,1,0.6247580999042839,298.9637504001148,None,298.4614773001522,298.56329110008664,298.56329110008664,None,299.61323300004005,None,,,,,,,11037,001,2024_Mar_11_1520,ANT,2021.2.3,59.93920959545546,
1,4,no,up,IC,R,,,,,,Block.xlsx,"你已经完成了整个实验（三个区组）。

请报告实验者已完成实验

非常感谢，再见！",50,0,1.5,right,LLRLL.png,,,,,0,1,1,1,0,4,4,3,,,,,,,,,,,,,,,,,,,,,,,,,,,,,,,,,,,,,,,,,,,,,,,,,,,,,,,,,,,,,,,,300.01386150019243,300.41643050010316,300.3986024002079,300.4998318001162,300.8996232000645,None,right,1,0.520722100045532,300.8996232000645,None,300.3986024002079,300.4998318001162,300.4998318001162,None,301.4492526000831,None,,,,,,,11037,001,2024_Mar_11_1520,ANT,2021.2.3,59.93920959545546,
1,19,spatial,up,IC,L,,,,,,Block.xlsx,"你已经完成了整个实验（三个区组）。

请报告实验者已完成实验

非常感谢，再见！",1.5,0,1.5,left,RRLRR.png,,,,,0,1,1,1,0,5,5,18,,,,,,,,,,,,,,,,,,,,,,,,,,,,,,,,,,,,,,,,,,,,,,,,,,,,,,,,,,,,,,,,301.8504715000745,302.2519571001176,302.23366060014814,302.3360558000859,302.734523500083,None,left,1,0.5900700001511723,302.734523500083,None,302.23366060014814,302.3360558000859,302.3360558000859,None,303.3521306000184,None,,,,,,,11037,001,2024_Mar_11_1520,ANT,2021.2.3,59.93920959545546,
1,3,no,up,IC,L,,,,,,Block.xlsx,"你已经完成了整个实验（三个区组）。

请报告实验者已完成实验

非常感谢，再见！",50,0,1.5,left,RRLRR.png,,,,,0,1,1,1,0,6,6,2,,,,,,,,,,,,,,,,,,,,,,,,,,,,,,,,,,,,,,,,,,,,,,,,,,,,,,,,,,,,,,,,303.753982800059,304.15460620005615,304.136713600019,304.2366575000342,304.6372983001638,None,left,1,0.4796066000126302,304.6372983001638,None,304.136713600019,304.2366575000342,304.2366575000342,None,305.13806969998404,None,,,,,,,11037,001,2024_Mar_11_1520,ANT,2021.2.3,59.93920959545546,
1,20,spatial,up,IC,R,,,,,,Block.xlsx,"你已经完成了整个实验（三个区组）。

请报告实验者已完成实验

非常感谢，再见！",1.5,0,1.5,right,LLRLL.png,,,,,0,1,1,1,0,7,7,19,,,,,,,,,,,,,,,,,,,,,,,,,,,,,,,,,,,,,,,,,,,,,,,,,,,,,,,,,,,,,,,,305.5394398001954,305.9411727001425,305.92266839998774,306.0241307001561,306.4234962000046,None,right,1,0.5332373001147062,306.4234962000046,None,305.92266839998774,306.0241307001561,306.0241307001561,None,306.97412959998474,None,,,,,,,11037,001,2024_Mar_11_1520,ANT,2021.2.3,59.93920959545546,
1,22,spatial,down,C,R,,,,,,Block.xlsx,"你已经完成了整个实验（三个区组）。

请报告实验者已完成实验

非常感谢，再见！",-1.5,0,-1.5,right,RRRRR.png,,,,,0,1,1,1,0,8,8,21,,,,,,,,,,,,,,,,,,,,,,,,,,,,,,,,,,,,,,,,,,,,,,,,,,,,,,,,,,,,,,,,307.3747477000579,307.7754514000844,307.75931020011194,307.85892110015266,308.260643000016,None,right,1,0.45614579995162785,308.260643000016,None,307.75931020011194,307.85892110015266,307.85892110015266,None,308.74378580017947,None,,,,,,,11037,001,2024_Mar_11_1520,ANT,2021.2.3,59.93920959545546,
1,6,no,down,C,R,,,,,,Block.xlsx,"你已经完成了整个实验（三个区组）。

请报告实验者已完成实验

非常感谢，再见！",50,0,-1.5,right,RRRRR.png,,,,,0,1,1,1,0,9,9,5,,,,,,,,,,,,,,,,,,,,,,,,,,,,,,,,,,,,,,,,,,,,,,,,,,,,,,,,,,,,,,,,309.1454492001794,309.545778500149,309.52803240017965,309.62873120000586,310.02949140011333,None,right,1,0.4631531999912113,310.02949140011333,None,309.52803240017965,309.62873120000586,309.62873120000586,None,310.5131146002095,None,,,,,,,11037,001,2024_Mar_11_1520,ANT,2021.2.3,59.93920959545546,
1,10,center,up,C,R,,,,,,Block.xlsx,"你已经完成了整个实验（三个区组）。

请报告实验者已完成实验

非常感谢，再见！",0,50,1.5,right,RRRRR.png,,,,,0,1,1,1,0,10,10,9,,,,,,,,,,,,,,,,,,,,,,,,,,,,,,,,,,,,,,,,,,,,,,,,,,,,,,,,,,,,,,,,310.9135788001586,311.31498700007796,311.29979750001803,311.3984779000748,311.798854800174,None,right,1,0.5418698000721633,311.798854800174,None,311.29979750001803,311.3984779000748,311.3984779000748,None,312.3657537000254,None,,,,,,,11037,001,2024_Mar_11_1520,ANT,2021.2.3,59.93920959545546,
1,7,no,down,IC,L,,,,,,Block.xlsx,"你已经完成了整个实验（三个区组）。

请报告实验者已完成实验

非常感谢，再见！",50,0,-1.5,left,RRLRR.png,,,,,0,1,1,1,0,11,11,6,,,,,,,,,,,,,,,,,,,,,,,,,,,,,,,,,,,,,,,,,,,,,,,,,,,,,,,,,,,,,,,,312.766467000125,313.16689750016667,313.1505987001583,313.2512168001849,313.6510708001442,None,left,1,0.5618243000935763,313.6510708001442,None,313.1505987001583,313.2512168001849,313.2512168001849,None,314.23560650018044,None,,,,,,,11037,001,2024_Mar_11_1520,ANT,2021.2.3,59.93920959545546,
1,4,no,up,IC,R,,,,,,Block.xlsx,"你已经完成了整个实验（三个区组）。

请报告实验者已完成实验

非常感谢，再见！",50,0,1.5,right,LLRLL.png,,,,,0,1,1,1,0,12,12,3,,,,,,,,,,,,,,,,,,,,,,,,,,,,,,,,,,,,,,,,,,,,,,,,,,,,,,,,,,,,,,,,314.6358712001238,315.036461800104,315.02067470015027,315.1203121000435,315.5213380001951,None,right,1,0.5638720998540521,315.5213380001951,None,315.02067470015027,315.1203121000435,315.1203121000435,None,316.1046645999886,None,,,,,,,11037,001,2024_Mar_11_1520,ANT,2021.2.3,59.93920959545546,
1,13,center,down,C,L,,,,,,Block.xlsx,"你已经完成了整个实验（三个区组）。

请报告实验者已完成实验

非常感谢，再见！",0,50,-1.5,left,LLLLL.png,,,,,0,1,1,1,0,13,13,12,,,,,,,,,,,,,,,,,,,,,,,,,,,,,,,,,,,,,,,,,,,,,,,,,,,,,,,,,,,,,,,,316.5063378000632,316.90580110019073,316.89044059999287,316.9900698000565,317.3896763001103,None,left,1,0.48704269994050264,317.3896763001103,None,316.89044059999287,316.9900698000565,316.9900698000565,None,317.90751300007105,None,,,,,,,11037,001,2024_Mar_11_1520,ANT,2021.2.3,59.93920959545546,
1,7,no,down,IC,L,,,,,,Block.xlsx,"你已经完成了整个实验（三个区组）。

请报告实验者已完成实验

非常感谢，再见！",50,0,-1.5,left,RRLRR.png,,,,,0,1,1,1,0,14,14,6,,,,,,,,,,,,,,,,,,,,,,,,,,,,,,,,,,,,,,,,,,,,,,,,,,,,,,,,,,,,,,,,318.30798130016774,318.70972610008903,318.69265220011584,318.7927259001881,319.1934872001875,None,left,1,0.5957440999336541,319.1934872001875,None,318.69265220011584,318.7927259001881,318.7927259001881,None,319.81021040002815,None,,,,,,,11037,001,2024_Mar_11_1520,ANT,2021.2.3,59.93920959545546,
1,7,no,down,IC,L,,,,,,Block.xlsx,"你已经完成了整个实验（三个区组）。

请报告实验者已完成实验

非常感谢，再见！",50,0,-1.5,left,RRLRR.png,,,,,0,1,1,1,0,15,15,6,,,,,,,,,,,,,,,,,,,,,,,,,,,,,,,,,,,,,,,,,,,,,,,,,,,,,,,,,,,,,,,,320.2123287001159,320.6133177001029,320.594838200137,320.69596150005236,321.0954224001616,None,left,1,0.541620000032708,321.0954224001616,None,320.594838200137,320.69596150005236,320.69596150005236,None,321.6633123999927,None,,,,,,,11037,001,2024_Mar_11_1520,ANT,2021.2.3,59.93920959545546,
1,6,no,down,C,R,,,,,,Block.xlsx,"你已经完成了整个实验（三个区组）。

请报告实验者已完成实验

非常感谢，再见！",50,0,-1.5,right,RRRRR.png,,,,,0,1,1,1,0,16,16,5,,,,,,,,,,,,,,,,,,,,,,,,,,,,,,,,,,,,,,,,,,,,,,,,,,,,,,,,,,,,,,,,322.06465710001066,322.46610700013116,322.44760549999774,322.5492933001369,322.9488586001098,None,right,1,0.5046367000322789,322.9488586001098,None,322.44760549999774,322.5492933001369,322.5492933001369,None,323.4825376002118,None,,,,,,,11037,001,2024_Mar_11_1520,ANT,2021.2.3,59.93920959545546,
1,2,no,up,C,R,,,,,,Block.xlsx,"你已经完成了整个实验（三个区组）。

请报告实验者已完成实验

非常感谢，再见！",50,0,1.5,right,RRRRR.png,,,,,0,1,1,1,0,17,17,1,,,,,,,,,,,,,,,,,,,,,,,,,,,,,,,,,,,,,,,,,,,,,,,,,,,,,,,,,,,,,,,,323.88306979998015,324.28408350003883,324.2677706000395,324.36837370018475,324.769478400005,None,right,1,0.4999369999859482,324.769478400005,None,324.2677706000395,324.36837370018475,324.36837370018475,None,325.28503190004267,None,,,,,,,11037,001,2024_Mar_11_1520,ANT,2021.2.3,59.93920959545546,
1,22,spatial,down,C,R,,,,,,Block.xlsx,"你已经完成了整个实验（三个区组）。

请报告实验者已完成实验

非常感谢，再见！",-1.5,0,-1.5,right,RRRRR.png,,,,,0,1,1,1,0,18,18,21,,,,,,,,,,,,,,,,,,,,,,,,,,,,,,,,,,,,,,,,,,,,,,,,,,,,,,,,,,,,,,,,325.6860028000083,326.087219200097,326.070702200057,326.1697587000672,326.57132009998895,None,right,1,0.45786159997805953,326.57132009998895,None,326.070702200057,326.1697587000672,326.1697587000672,None,327.0546319000423,None,,,,,,,11037,001,2024_Mar_11_1520,ANT,2021.2.3,59.93920959545546,
1,7,no,down,IC,L,,,,,,Block.xlsx,"你已经完成了整个实验（三个区组）。

请报告实验者已完成实验

非常感谢，再见！",50,0,-1.5,left,RRLRR.png,,,,,0,1,1,1,0,19,19,6,,,,,,,,,,,,,,,,,,,,,,,,,,,,,,,,,,,,,,,,,,,,,,,,,,,,,,,,,,,,,,,,327.45519320014864,327.8567331000231,327.8387625000905,327.93988000019453,328.3405724000186,None,left,1,0.5928399998228997,328.3405724000186,None,327.8387625000905,327.93988000019453,327.93988000019453,None,328.9572358999867,None,,,,,,,11037,001,2024_Mar_11_1520,ANT,2021.2.3,59.93920959545546,
1,19,spatial,up,IC,L,,,,,,Block.xlsx,"你已经完成了整个实验（三个区组）。

请报告实验者已完成实验

非常感谢，再见！",1.5,0,1.5,left,RRLRR.png,,,,,0,1,1,1,0,20,20,18,,,,,,,,,,,,,,,,,,,,,,,,,,,,,,,,,,,,,,,,,,,,,,,,,,,,,,,,,,,,,,,,329.35814160015434,329.758651799988,329.74396790005267,329.842977500055,330.24312710016966,None,left,1,0.46684219990856946,330.24312710016966,None,329.74396790005267,329.842977500055,329.842977500055,None,330.7274037001189,None,,,,,,,11037,001,2024_Mar_11_1520,ANT,2021.2.3,59.93920959545546,
1,10,center,up,C,R,,,,,,Block.xlsx,"你已经完成了整个实验（三个区组）。

请报告实验者已完成实验

非常感谢，再见！",0,50,1.5,right,RRRRR.png,,,,,0,1,1,1,0,21,21,9,,,,,,,,,,,,,,,,,,,,,,,,,,,,,,,,,,,,,,,,,,,,,,,,,,,,,,,,,,,,,,,,331.1279141001869,331.5305916001089,331.5123442001641,331.6133832000196,332.0119806001894,None,right,1,0.5056374000851065,332.0119806001894,None,331.5123442001641,331.6133832000196,331.6133832000196,None,332.5469337000977,None,,,,,,,11037,001,2024_Mar_11_1520,ANT,2021.2.3,59.93920959545546,
1,11,center,up,IC,L,,,,,,Block.xlsx,"你已经完成了整个实验（三个区组）。

请报告实验者已完成实验

非常感谢，再见！",0,50,1.5,left,RRLRR.png,,,,,0,1,1,1,0,22,22,10,,,,,,,,,,,,,,,,,,,,,,,,,,,,,,,,,,,,,,,,,,,,,,,,,,,,,,,,,,,,,,,,332.94689240003936,333.3475152000319,333.3315676001366,333.4309057001956,333.83231450011954,None,left,1,0.5341816998552531,333.83231450011954,None,333.3315676001366,333.4309057001956,333.4309057001956,None,334.38218040019274,None,,,,,,,11037,001,2024_Mar_11_1520,ANT,2021.2.3,59.93920959545546,
1,10,center,up,C,R,,,,,,Block.xlsx,"你已经完成了整个实验（三个区组）。

请报告实验者已完成实验

非常感谢，再见！",0,50,1.5,right,RRRRR.png,,,,,0,1,1,1,0,23,23,9,,,,,,,,,,,,,,,,,,,,,,,,,,,,,,,,,,,,,,,,,,,,,,,,,,,,,,,,,,,,,,,,334.78356110001914,335.1834083001595,335.16662840009667,335.2678731000051,335.66841310006566,None,right,1,0.7049753998871893,335.66841310006566,None,335.16662840009667,335.2678731000051,335.2678731000051,None,336.4019655000884,None,,,,,,,11037,001,2024_Mar_11_1520,ANT,2021.2.3,59.93920959545546,
1,18,spatial,up,C,R,,,,,,Block.xlsx,"你已经完成了整个实验（三个区组）。

请报告实验者已完成实验

非常感谢，再见！",1.5,0,1.5,right,RRRRR.png,,,,,0,1,1,1,1,0,24,17,,,,,,,,,,,,,,,,,,,,,,,,,,,,,,,,,,,,,,,,,,,,,,,,,,,,,,,,,,,,,,,,336.80258160014637,337.20482210000046,337.18676459998824,337.2873865000438,337.6879984000698,None,right,1,0.40573820006102324,337.6879984000698,None,337.18676459998824,337.2873865000438,337.2873865000438,None,338.12118470016867,None,,,,,,,11037,001,2024_Mar_11_1520,ANT,2021.2.3,59.93920959545546,
1,15,center,down,IC,L,,,,,,Block.xlsx,"你已经完成了整个实验（三个区组）。

请报告实验者已完成实验

非常感谢，再见！",0,50,-1.5,left,RRLRR.png,,,,,0,1,1,1,1,1,25,14,,,,,,,,,,,,,,,,,,,,,,,,,,,,,,,,,,,,,,,,,,,,,,,,,,,,,,,,,,,,,,,,338.5217899000272,338.923986800015,338.9056889000349,339.0059880001936,339.40733500011265,None,left,1,0.5903129999060184,339.40733500011265,None,338.9056889000349,339.0059880001936,339.0059880001936,None,340.0241685002111,None,,,,,,,11037,001,2024_Mar_11_1520,ANT,2021.2.3,59.93920959545546,
1,9,center,up,C,L,,,,,,Block.xlsx,"你已经完成了整个实验（三个区组）。

请报告实验者已完成实验

非常感谢，再见！",0,50,1.5,left,LLLLL.png,,,,,0,1,1,1,1,2,26,8,,,,,,,,,,,,,,,,,,,,,,,,,,,,,,,,,,,,,,,,,,,,,,,,,,,,,,,,,,,,,,,,340.4246999002062,340.82647610013373,340.80860550003126,340.9091496001929,341.3106341001112,None,left,1,0.5028469001408666,341.3106341001112,None,340.80860550003126,340.9091496001929,340.9091496001929,None,341.84346460015513,None,,,,,,,11037,001,2024_Mar_11_1520,ANT,2021.2.3,59.93920959545546,
1,5,no,down,C,L,,,,,,Block.xlsx,"你已经完成了整个实验（三个区组）。

请报告实验者已完成实验

非常感谢，再见！",50,0,-1.5,left,LLLLL.png,,,,,0,1,1,1,1,3,27,4,,,,,,,,,,,,,,,,,,,,,,,,,,,,,,,,,,,,,,,,,,,,,,,,,,,,,,,,,,,,,,,,342.24471310013905,342.64469550014473,342.6281573001761,342.7281530001201,343.12880170019343,None,left,1,0.5412201001308858,343.12880170019343,None,342.6281573001761,342.7281530001201,342.7281530001201,None,343.696223200066,None,,,,,,,11037,001,2024_Mar_11_1520,ANT,2021.2.3,59.93920959545546,
1,17,spatial,up,C,L,,,,,,Block.xlsx,"你已经完成了整个实验（三个区组）。

请报告实验者已完成实验

非常感谢，再见！",1.5,0,1.5,left,LLLLL.png,,,,,0,1,1,1,1,4,28,16,,,,,,,,,,,,,,,,,,,,,,,,,,,,,,,,,,,,,,,,,,,,,,,,,,,,,,,,,,,,,,,,344.09774410002865,344.4975021001883,344.48181560006924,344.5814220001921,344.98327940003946,None,left,1,0.4145786000881344,344.98327940003946,None,344.48181560006924,344.5814220001921,344.5814220001921,None,345.41558370017447,None,,,,,,,11037,001,2024_Mar_11_1520,ANT,2021.2.3,59.93920959545546,
1,1,no,up,C,L,,,,,,Block.xlsx,"你已经完成了整个实验（三个区组）。

请报告实验者已完成实验

非常感谢，再见！",50,0,1.5,left,LLLLL.png,,,,,0,1,1,1,1,5,29,0,,,,,,,,,,,,,,,,,,,,,,,,,,,,,,,,,,,,,,,,,,,,,,,,,,,,,,,,,,,,,,,,345.8163380001206,346.2177286001388,346.2004840001464,346.3018726001028,346.70201520016417,None,left,1,0.4956128001213074,346.70201520016417,None,346.2004840001464,346.3018726001028,346.3018726001028,None,347.2183162001893,None,,,,,,,11037,001,2024_Mar_11_1520,ANT,2021.2.3,59.93920959545546,
1,21,spatial,down,C,L,,,,,,Block.xlsx,"你已经完成了整个实验（三个区组）。

请报告实验者已完成实验

非常感谢，再见！",-1.5,0,-1.5,left,LLLLL.png,,,,,0,1,1,1,1,6,30,20,,,,,,,,,,,,,,,,,,,,,,,,,,,,,,,,,,,,,,,,,,,,,,,,,,,,,,,,,,,,,,,,347.6199825000949,348.0202663000673,348.0035655000247,348.1045817001723,348.5035139999818,None,right,0,0.4064390000421554,348.5035139999818,None,348.0035655000247,348.1045817001723,348.1045817001723,None,348.93740910012275,None,,,,,,,11037,001,2024_Mar_11_1520,ANT,2021.2.3,59.93920959545546,
1,19,spatial,up,IC,L,,,,,,Block.xlsx,"你已经完成了整个实验（三个区组）。

请报告实验者已完成实验

非常感谢，再见！",1.5,0,1.5,left,RRLRR.png,,,,,0,1,1,1,1,7,31,18,,,,,,,,,,,,,,,,,,,,,,,,,,,,,,,,,,,,,,,,,,,,,,,,,,,,,,,,,,,,,,,,349.33848460018635,349.74044249998406,349.72216970007867,349.82320550014265,350.22379330010153,None,left,1,0.485885500209406,350.22379330010153,None,349.72216970007867,349.82320550014265,349.82320550014265,None,350.74045600020327,None,,,,,,,11037,001,2024_Mar_11_1520,ANT,2021.2.3,59.93920959545546,
1,23,spatial,down,IC,L,,,,,,Block.xlsx,"你已经完成了整个实验（三个区组）。

请报告实验者已完成实验

非常感谢，再见！",-1.5,0,-1.5,left,RRLRR.png,,,,,0,1,1,1,1,8,32,22,,,,,,,,,,,,,,,,,,,,,,,,,,,,,,,,,,,,,,,,,,,,,,,,,,,,,,,,,,,,,,,,351.14172470010817,351.5415253001265,351.52639200002886,351.62579370010644,352.02559540001675,None,left,1,0.5964325000531971,352.02559540001675,None,351.52639200002886,351.62579370010644,351.62579370010644,None,352.6442421001848,None,,,,,,,11037,001,2024_Mar_11_1520,ANT,2021.2.3,59.93920959545546,
1,23,spatial,down,IC,L,,,,,,Block.xlsx,"你已经完成了整个实验（三个区组）。

请报告实验者已完成实验

非常感谢，再见！",-1.5,0,-1.5,left,RRLRR.png,,,,,0,1,1,1,1,9,33,22,,,,,,,,,,,,,,,,,,,,,,,,,,,,,,,,,,,,,,,,,,,,,,,,,,,,,,,,,,,,,,,,353.04462840012275,353.4447969000321,353.4291995000094,353.5445181999821,353.9294754001312,None,left,1,0.4522155998274684,353.9294754001312,None,353.4291995000094,353.5445181999821,353.52821290004067,None,354.4125272000674,None,,,,,,,11037,001,2024_Mar_11_1520,ANT,2021.2.3,59.93920959545546,
1,3,no,up,IC,L,,,,,,Block.xlsx,"你已经完成了整个实验（三个区组）。

请报告实验者已完成实验

非常感谢，再见！",50,0,1.5,left,RRLRR.png,,,,,0,1,1,1,1,10,34,2,,,,,,,,,,,,,,,,,,,,,,,,,,,,,,,,,,,,,,,,,,,,,,,,,,,,,,,,,,,,,,,,354.81300620012917,355.2149414999876,355.196855599992,355.29919390007854,355.69857830018736,None,left,1,0.5557660001795739,355.69857830018736,None,355.196855599992,355.29919390007854,355.29919390007854,None,356.2818011001218,None,,,,,,,11037,001,2024_Mar_11_1520,ANT,2021.2.3,59.93920959545546,
1,4,no,up,IC,R,,,,,,Block.xlsx,"你已经完成了整个实验（三个区组）。

请报告实验者已完成实验

非常感谢，再见！",50,0,1.5,right,LLRLL.png,,,,,0,1,1,1,1,11,35,3,,,,,,,,,,,,,,,,,,,,,,,,,,,,,,,,,,,,,,,,,,,,,,,,,,,,,,,,,,,,,,,,356.6835272000171,357.08303970005363,357.06720430008136,357.16677570017055,357.5670283001382,None,right,1,0.7187344999983907,357.5670283001382,None,357.06720430008136,357.16677570017055,357.16677570017055,None,358.3015155000612,None,,,,,,,11037,001,2024_Mar_11_1520,ANT,2021.2.3,59.93920959545546,
1,1,no,up,C,L,,,,,,Block.xlsx,"你已经完成了整个实验（三个区组）。

请报告实验者已完成实验

非常感谢，再见！",50,0,1.5,left,LLLLL.png,,,,,0,1,1,1,1,12,36,0,,,,,,,,,,,,,,,,,,,,,,,,,,,,,,,,,,,,,,,,,,,,,,,,,,,,,,,,,,,,,,,,358.70296560018323,359.1035794999916,359.0874336999841,359.1867290001828,359.5876920002047,None,left,1,0.4911176001187414,359.5876920002047,None,359.0874336999841,359.1867290001828,359.1867290001828,None,360.10444670007564,None,,,,,,,11037,001,2024_Mar_11_1520,ANT,2021.2.3,59.93920959545546,
1,8,no,down,IC,R,,,,,,Block.xlsx,"你已经完成了整个实验（三个区组）。

请报告实验者已完成实验

非常感谢，再见！",50,0,-1.5,right,LLRLL.png,,,,,0,1,1,1,1,13,37,7,,,,,,,,,,,,,,,,,,,,,,,,,,,,,,,,,,,,,,,,,,,,,,,,,,,,,,,,,,,,,,,,360.5049509999808,360.90565020008944,360.8902811000589,360.989079200197,361.38990230020136,None,right,1,0.6644854000769556,361.38990230020136,None,360.8902811000589,360.989079200197,360.989079200197,None,362.07564060017467,None,,,,,,,11037,001,2024_Mar_11_1520,ANT,2021.2.3,59.93920959545546,
1,12,center,up,IC,R,,,,,,Block.xlsx,"你已经完成了整个实验（三个区组）。

请报告实验者已完成实验

非常感谢，再见！",0,50,1.5,right,LLRLL.png,,,,,0,1,1,1,1,14,38,11,,,,,,,,,,,,,,,,,,,,,,,,,,,,,,,,,,,,,,,,,,,,,,,,,,,,,,,,,,,,,,,,362.47469440009445,362.87600940000266,362.8593142000027,362.95936480001546,363.3596739000641,None,right,1,0.6147316000424325,363.3596739000641,None,362.8593142000027,362.95936480001546,362.95936480001546,None,363.9939539001789,None,,,,,,,11037,001,2024_Mar_11_1520,ANT,2021.2.3,59.93920959545546,
1,22,spatial,down,C,R,,,,,,Block.xlsx,"你已经完成了整个实验（三个区组）。

请报告实验者已完成实验

非常感谢，再见！",-1.5,0,-1.5,right,RRRRR.png,,,,,0,1,1,1,1,15,39,21,,,,,,,,,,,,,,,,,,,,,,,,,,,,,,,,,,,,,,,,,,,,,,,,,,,,,,,,,,,,,,,,364.39429370011203,364.7951923001092,364.77953430009075,364.8801834001206,365.27987190010026,None,right,1,0.7508972000796348,365.27987190010026,None,364.77953430009075,364.8801834001206,364.8801834001206,None,366.04679829999804,None,,,,,,,11037,001,2024_Mar_11_1520,ANT,2021.2.3,59.93920959545546,
1,21,spatial,down,C,L,,,,,,Block.xlsx,"你已经完成了整个实验（三个区组）。

请报告实验者已完成实验

非常感谢，再见！",-1.5,0,-1.5,left,LLLLL.png,,,,,0,1,1,1,1,16,40,20,,,,,,,,,,,,,,,,,,,,,,,,,,,,,,,,,,,,,,,,,,,,,,,,,,,,,,,,,,,,,,,,366.4472553001251,366.84786080010235,366.8322012000717,366.93228500010446,367.33279130002484,None,left,1,0.3937135001178831,367.33279130002484,None,366.8322012000717,366.93228500010446,366.93228500010446,None,367.7491623000242,None,,,,,,,11037,001,2024_Mar_11_1520,ANT,2021.2.3,59.93920959545546,
1,24,spatial,down,IC,R,,,,,,Block.xlsx,"你已经完成了整个实验（三个区组）。

请报告实验者已完成实验

非常感谢，再见！",-1.5,0,-1.5,right,LLRLL.png,,,,,0,1,1,1,1,17,41,23,,,,,,,,,,,,,,,,,,,,,,,,,,,,,,,,,,,,,,,,,,,,,,,,,,,,,,,,,,,,,,,,368.15139230014756,368.55026390007697,368.53418070008047,368.6354432001244,369.0346266000997,None,right,1,0.468826400116086,369.0346266000997,None,368.53418070008047,368.6354432001244,368.6354432001244,None,369.5186131000519,None,,,,,,,11037,001,2024_Mar_11_1520,ANT,2021.2.3,59.93920959545546,
1,5,no,down,C,L,,,,,,Block.xlsx,"你已经完成了整个实验（三个区组）。

请报告实验者已完成实验

非常感谢，再见！",50,0,-1.5,left,LLLLL.png,,,,,0,1,1,1,1,18,42,4,,,,,,,,,,,,,,,,,,,,,,,,,,,,,,,,,,,,,,,,,,,,,,,,,,,,,,,,,,,,,,,,369.9202293001581,370.3216343000531,370.30300770001486,370.40517980000004,370.80386830004863,None,left,1,0.5866034999489784,370.80386830004863,None,370.30300770001486,370.40517980000004,370.40517980000004,None,371.4215009000618,None,,,,,,,11037,001,2024_Mar_11_1520,ANT,2021.2.3,59.93920959545546,
1,8,no,down,IC,R,,,,,,Block.xlsx,"你已经完成了整个实验（三个区组）。

请报告实验者已完成实验

非常感谢，再见！",50,0,-1.5,right,LLRLL.png,,,,,0,1,1,1,1,19,43,7,,,,,,,,,,,,,,,,,,,,,,,,,,,,,,,,,,,,,,,,,,,,,,,,,,,,,,,,,,,,,,,,371.8234074001666,372.2240107001271,372.20670830016024,372.3070676000789,372.70730430004187,None,right,1,0.5318839000537992,372.70730430004187,None,372.20670830016024,372.3070676000789,372.3070676000789,None,373.2577031000983,None,,,,,,,11037,001,2024_Mar_11_1520,ANT,2021.2.3,59.93920959545546,
1,18,spatial,up,C,R,,,,,,Block.xlsx,"你已经完成了整个实验（三个区组）。

请报告实验者已完成实验

非常感谢，再见！",1.5,0,1.5,right,RRRRR.png,,,,,0,1,1,1,1,20,44,17,,,,,,,,,,,,,,,,,,,,,,,,,,,,,,,,,,,,,,,,,,,,,,,,,,,,,,,,,,,,,,,,373.65862920018844,374.05957030016,374.042085000081,374.1427114000544,374.54364930000156,None,right,1,0.5027877998072654,374.54364930000156,None,374.042085000081,374.1427114000544,374.1427114000544,None,375.0775478000287,None,,,,,,,11037,001,2024_Mar_11_1520,ANT,2021.2.3,59.93920959545546,
1,11,center,up,IC,L,,,,,,Block.xlsx,"你已经完成了整个实验（三个区组）。

请报告实验者已完成实验

非常感谢，再见！",0,50,1.5,left,RRLRR.png,,,,,0,1,1,1,1,21,45,10,,,,,,,,,,,,,,,,,,,,,,,,,,,,,,,,,,,,,,,,,,,,,,,,,,,,,,,,,,,,,,,,375.47764260019176,375.8782062001992,375.86163639998995,375.96248250012286,376.36238260008395,None,left,1,0.5560336001217365,376.36238260008395,None,375.86163639998995,375.96248250012286,375.96248250012286,None,376.94640550017357,None,,,,,,,11037,001,2024_Mar_11_1520,ANT,2021.2.3,59.93920959545546,
1,3,no,up,IC,L,,,,,,Block.xlsx,"你已经完成了整个实验（三个区组）。

请报告实验者已完成实验

非常感谢，再见！",50,0,1.5,left,RRLRR.png,,,,,0,1,1,1,1,22,46,2,,,,,,,,,,,,,,,,,,,,,,,,,,,,,,,,,,,,,,,,,,,,,,,,,,,,,,,,,,,,,,,,377.3469742999878,377.74841650016606,377.730859400006,377.8320574001409,378.23253790009767,None,left,1,0.5987903999630362,378.23253790009767,None,377.730859400006,377.8320574001409,377.8320574001409,None,378.8491905000992,None,,,,,,,11037,001,2024_Mar_11_1520,ANT,2021.2.3,59.93920959545546,
1,14,center,down,C,R,,,,,,Block.xlsx,"你已经完成了整个实验（三个区组）。

请报告实验者已完成实验

非常感谢，再见！",0,50,-1.5,right,RRRRR.png,,,,,0,1,1,1,1,23,47,13,,,,,,,,,,,,,,,,,,,,,,,,,,,,,,,,,,,,,,,,,,,,,,,,,,,,,,,,,,,,,,,,379.25003560003825,379.6519112000242,379.6350798001513,379.7338767000474,380.1355489999987,None,right,1,0.4948819000273943,380.1355489999987,None,379.6350798001513,379.7338767000474,379.7338767000474,None,380.6519775001798,None,,,,,,,11037,001,2024_Mar_11_1520,ANT,2021.2.3,59.93920959545546,
1,15,center,down,IC,L,,,,,,Block.xlsx,"你已经完成了整个实验（三个区组）。

请报告实验者已完成实验

非常感谢，再见！",0,50,-1.5,left,RRLRR.png,,,,,0,1,1,1,2,0,48,14,,,,,,,,,,,,,,,,,,,,,,,,,,,,,,,,,,,,,,,,,,,,,,,,,,,,,,,,,,,,,,,,381.05293770018034,381.4531973002013,381.4366576001048,381.5387560999952,381.9381800000556,None,left,1,0.5576810000929981,381.9381800000556,None,381.4366576001048,381.5387560999952,381.5387560999952,None,382.5223350999877,None,,,,,,,11037,001,2024_Mar_11_1520,ANT,2021.2.3,59.93920959545546,
1,9,center,up,C,L,,,,,,Block.xlsx,"你已经完成了整个实验（三个区组）。

请报告实验者已完成实验

非常感谢，再见！",0,50,1.5,left,LLLLL.png,,,,,0,1,1,1,2,1,49,8,,,,,,,,,,,,,,,,,,,,,,,,,,,,,,,,,,,,,,,,,,,,,,,,,,,,,,,,,,,,,,,,382.92211190005764,383.323630400002,383.30604650010355,383.4065835000947,383.80721460003406,None,left,1,0.4395898999646306,383.80721460003406,None,383.30604650010355,383.4065835000947,383.4065835000947,None,384.27405480016023,None,,,,,,,11037,001,2024_Mar_11_1520,ANT,2021.2.3,59.93920959545546,
1,8,no,down,IC,R,,,,,,Block.xlsx,"你已经完成了整个实验（三个区组）。

请报告实验者已完成实验

非常感谢，再见！",50,0,-1.5,right,LLRLL.png,,,,,0,1,1,1,2,2,50,7,,,,,,,,,,,,,,,,,,,,,,,,,,,,,,,,,,,,,,,,,,,,,,,,,,,,,,,,,,,,,,,,384.6748087001033,385.0753727001138,385.0590173001401,385.16050620004535,385.5600564000197,None,right,1,0.7585104000754654,385.5600564000197,None,385.0590173001401,385.16050620004535,385.16050620004535,None,386.3436326000374,None,,,,,,,11037,001,2024_Mar_11_1520,ANT,2021.2.3,59.93920959545546,
1,18,spatial,up,C,R,,,,,,Block.xlsx,"你已经完成了整个实验（三个区组）。

请报告实验者已完成实验

非常感谢，再见！",1.5,0,1.5,right,RRRRR.png,,,,,0,1,1,1,2,3,51,17,,,,,,,,,,,,,,,,,,,,,,,,,,,,,,,,,,,,,,,,,,,,,,,,,,,,,,,,,,,,,,,,386.74543060013093,387.14642480015755,387.13009600015357,387.22945890016854,387.630317900097,None,right,1,0.472574400017038,387.630317900097,None,387.13009600015357,387.22945890016854,387.22945890016854,None,388.12994990008883,None,,,,,,,11037,001,2024_Mar_11_1520,ANT,2021.2.3,59.93920959545546,
1,3,no,up,IC,L,,,,,,Block.xlsx,"你已经完成了整个实验（三个区组）。

请报告实验者已完成实验

非常感谢，再见！",50,0,1.5,left,RRLRR.png,,,,,0,1,1,1,2,4,52,2,,,,,,,,,,,,,,,,,,,,,,,,,,,,,,,,,,,,,,,,,,,,,,,,,,,,,,,,,,,,,,,,388.53060490009375,388.93284670007415,388.9143577001523,389.0150832000654,389.41725519998,None,left,1,0.541927499929443,389.41725519998,None,388.9143577001523,389.0150832000654,389.0150832000654,None,389.98277230001986,None,,,,,,,11037,001,2024_Mar_11_1520,ANT,2021.2.3,59.93920959545546,
1,16,center,down,IC,R,,,,,,Block.xlsx,"你已经完成了整个实验（三个区组）。

请报告实验者已完成实验

非常感谢，再见！",0,50,-1.5,right,LLRLL.png,,,,,0,1,1,1,2,5,53,15,,,,,,,,,,,,,,,,,,,,,,,,,,,,,,,,,,,,,,,,,,,,,,,,,,,,,,,,,,,,,,,,390.3844386001583,390.785893100081,390.7683470000047,390.86741820001043,391.26867530005984,None,right,1,0.5541465000715107,391.26867530005984,None,390.7683470000047,390.86741820001043,390.86741820001043,None,391.853190000169,None,,,,,,,11037,001,2024_Mar_11_1520,ANT,2021.2.3,59.93920959545546,
1,15,center,down,IC,L,,,,,,Block.xlsx,"你已经完成了整个实验（三个区组）。

请报告实验者已完成实验

非常感谢，再见！",0,50,-1.5,left,RRLRR.png,,,,,0,1,1,1,2,6,54,14,,,,,,,,,,,,,,,,,,,,,,,,,,,,,,,,,,,,,,,,,,,,,,,,,,,,,,,,,,,,,,,,392.25377260008827,392.65526780020446,392.63695280021057,392.7389778001234,393.1374989000615,None,left,1,0.5255649001337588,393.1374989000615,None,392.63695280021057,392.7389778001234,392.7389778001234,None,393.6890581001062,None,,,,,,,11037,001,2024_Mar_11_1520,ANT,2021.2.3,59.93920959545546,
1,24,spatial,down,IC,R,,,,,,Block.xlsx,"你已经完成了整个实验（三个区组）。

请报告实验者已完成实验

非常感谢，再见！",-1.5,0,-1.5,right,LLRLL.png,,,,,0,1,1,1,2,7,55,23,,,,,,,,,,,,,,,,,,,,,,,,,,,,,,,,,,,,,,,,,,,,,,,,,,,,,,,,,,,,,,,,394.0890103999991,394.49096030020155,394.47379350010306,394.5734571001958,394.9750444001984,None,right,1,0.4877831998746842,394.9750444001984,None,394.47379350010306,394.5734571001958,394.5734571001958,None,395.4911195000168,None,,,,,,,11037,001,2024_Mar_11_1520,ANT,2021.2.3,59.93920959545546,
1,19,spatial,up,IC,L,,,,,,Block.xlsx,"你已经完成了整个实验（三个区组）。

请报告实验者已完成实验

非常感谢，再见！",1.5,0,1.5,left,RRLRR.png,,,,,0,1,1,1,2,8,56,18,,,,,,,,,,,,,,,,,,,,,,,,,,,,,,,,,,,,,,,,,,,,,,,,,,,,,,,,,,,,,,,,395.8915908001363,396.2938983000349,396.2755892002024,396.37570730014704,396.7770506001543,None,left,1,0.40628549992106855,396.7770506001543,None,396.2755892002024,396.37570730014704,396.37570730014704,None,397.21024190005846,None,,,,,,,11037,001,2024_Mar_11_1520,ANT,2021.2.3,59.93920959545546,
1,14,center,down,C,R,,,,,,Block.xlsx,"你已经完成了整个实验（三个区组）。

请报告实验者已完成实验

非常感谢，再见！",0,50,-1.5,right,RRRRR.png,,,,,0,1,1,1,2,9,57,13,,,,,,,,,,,,,,,,,,,,,,,,,,,,,,,,,,,,,,,,,,,,,,,,,,,,,,,,,,,,,,,,397.6122205001302,398.0125359001104,397.9958454000298,398.09682800015435,398.49740620004013,None,right,1,0.47805190016515553,398.49740620004013,None,397.9958454000298,398.09682800015435,398.09682800015435,None,398.99636400002055,None,,,,,,,11037,001,2024_Mar_11_1520,ANT,2021.2.3,59.93920959545546,
1,21,spatial,down,C,L,,,,,,Block.xlsx,"你已经完成了整个实验（三个区组）。

请报告实验者已完成实验

非常感谢，再见！",-1.5,0,-1.5,left,LLLLL.png,,,,,0,1,1,1,2,10,58,20,,,,,,,,,,,,,,,,,,,,,,,,,,,,,,,,,,,,,,,,,,,,,,,,,,,,,,,,,,,,,,,,399.3969915001653,399.7977224001661,399.7810884001665,399.8811202000361,400.28173710010014,None,left,1,0.446001699892804,400.28173710010014,None,399.7810884001665,399.8811202000361,399.8811202000361,None,400.7489980000537,None,,,,,,,11037,001,2024_Mar_11_1520,ANT,2021.2.3,59.93920959545546,
1,17,spatial,up,C,L,,,,,,Block.xlsx,"你已经完成了整个实验（三个区组）。

请报告实验者已完成实验

非常感谢，再见！",1.5,0,1.5,left,LLLLL.png,,,,,0,1,1,1,2,11,59,16,,,,,,,,,,,,,,,,,,,,,,,,,,,,,,,,,,,,,,,,,,,,,,,,,,,,,,,,,,,,,,,,401.1497389001306,401.5502565000206,401.53414190001786,401.63607100001536,402.0348807000555,None,left,1,0.444764900021255,402.0348807000555,None,401.53414190001786,401.63607100001536,401.63607100001536,None,402.50174110010266,None,,,,,,,11037,001,2024_Mar_11_1520,ANT,2021.2.3,59.93920959545546,
1,13,center,down,C,L,,,,,,Block.xlsx,"你已经完成了整个实验（三个区组）。

请报告实验者已完成实验

非常感谢，再见！",0,50,-1.5,left,LLLLL.png,,,,,0,1,1,1,2,12,60,12,,,,,,,,,,,,,,,,,,,,,,,,,,,,,,,,,,,,,,,,,,,,,,,,,,,,,,,,,,,,,,,,402.9021807999816,403.3037646000739,403.28667400009,403.3881131000817,403.7882266000379,None,left,1,0.5155276998411864,403.7882266000379,None,403.28667400009,403.3881131000817,403.3881131000817,None,404.3207816001959,None,,,,,,,11037,001,2024_Mar_11_1520,ANT,2021.2.3,59.93920959545546,
1,13,center,down,C,L,,,,,,Block.xlsx,"你已经完成了整个实验（三个区组）。

请报告实验者已完成实验

非常感谢，再见！",0,50,-1.5,left,LLLLL.png,,,,,0,1,1,1,2,13,61,12,,,,,,,,,,,,,,,,,,,,,,,,,,,,,,,,,,,,,,,,,,,,,,,,,,,,,,,,,,,,,,,,404.72167840017937,405.1223965000827,405.10699850018136,405.2062239001971,405.6072290001903,None,left,1,0.43233239999972284,405.6072290001903,None,405.10699850018136,405.2062239001971,405.2062239001971,None,406.0569279000629,None,,,,,,,11037,001,2024_Mar_11_1520,ANT,2021.2.3,59.93920959545546,
1,12,center,up,IC,R,,,,,,Block.xlsx,"你已经完成了整个实验（三个区组）。

请报告实验者已完成实验

非常感谢，再见！",0,50,1.5,right,LLRLL.png,,,,,0,1,1,1,2,14,62,11,,,,,,,,,,,,,,,,,,,,,,,,,,,,,,,,,,,,,,,,,,,,,,,,,,,,,,,,,,,,,,,,406.4575697002001,406.8583957001101,406.8424937000964,406.9418805001769,407.3431558001321,None,right,1,0.5358341000974178,407.3431558001321,None,406.8424937000964,406.9418805001769,406.9418805001769,None,407.89300500019453,None,,,,,,,11037,001,2024_Mar_11_1520,ANT,2021.2.3,59.93920959545546,
1,16,center,down,IC,R,,,,,,Block.xlsx,"你已经完成了整个实验（三个区组）。

请报告实验者已完成实验

非常感谢，再见！",0,50,-1.5,right,LLRLL.png,,,,,0,1,1,1,2,15,63,15,,,,,,,,,,,,,,,,,,,,,,,,,,,,,,,,,,,,,,,,,,,,,,,,,,,,,,,,,,,,,,,,408.2938666001428,408.69494060007855,408.67873729998246,408.79524340014905,409.17911170003936,None,right,1,0.6042016001883894,409.17911170003936,None,408.67873729998246,408.79524340014905,408.77792690019123,None,409.8134354001377,None,,,,,,,11037,001,2024_Mar_11_1520,ANT,2021.2.3,59.93920959545546,
1,22,spatial,down,C,R,,,,,,Block.xlsx,"你已经完成了整个实验（三个区组）。

请报告实验者已完成实验

非常感谢，再见！",-1.5,0,-1.5,right,RRRRR.png,,,,,0,1,1,1,2,16,64,21,,,,,,,,,,,,,,,,,,,,,,,,,,,,,,,,,,,,,,,,,,,,,,,,,,,,,,,,,,,,,,,,410.2141512001399,410.61503920005634,410.5976739001926,410.69800750003196,411.09903930011205,None,right,1,0.44435860007070005,411.09903930011205,None,410.5976739001926,410.69800750003196,410.69800750003196,None,411.56553010013886,None,,,,,,,11037,001,2024_Mar_11_1520,ANT,2021.2.3,59.93920959545546,
1,20,spatial,up,IC,R,,,,,,Block.xlsx,"你已经完成了整个实验（三个区组）。

请报告实验者已完成实验

非常感谢，再见！",1.5,0,1.5,right,LLRLL.png,,,,,0,1,1,1,2,17,65,19,,,,,,,,,,,,,,,,,,,,,,,,,,,,,,,,,,,,,,,,,,,,,,,,,,,,,,,,,,,,,,,,411.9659333000891,412.3670553001575,412.3504971000366,412.45013240003027,412.8510963001754,None,right,1,0.5245243001263589,412.8510963001754,None,412.3504971000366,412.45013240003027,412.45013240003027,None,413.401416500099,None,,,,,,,11037,001,2024_Mar_11_1520,ANT,2021.2.3,59.93920959545546,
1,24,spatial,down,IC,R,,,,,,Block.xlsx,"你已经完成了整个实验（三个区组）。

请报告实验者已完成实验

非常感谢，再见！",-1.5,0,-1.5,right,LLRLL.png,,,,,0,1,1,1,2,18,66,23,,,,,,,,,,,,,,,,,,,,,,,,,,,,,,,,,,,,,,,,,,,,,,,,,,,,,,,,,,,,,,,,413.80275610019453,414.2031223999802,414.1868328000419,414.28773300000466,414.6885701001156,None,right,1,0.44674040004611015,414.6885701001156,None,414.1868328000419,414.28773300000466,414.28773300000466,None,415.1538571000565,None,,,,,,,11037,001,2024_Mar_11_1520,ANT,2021.2.3,59.93920959545546,
1,16,center,down,IC,R,,,,,,Block.xlsx,"你已经完成了整个实验（三个区组）。

请报告实验者已完成实验

非常感谢，再见！",0,50,-1.5,right,LLRLL.png,,,,,0,1,1,1,2,19,67,15,,,,,,,,,,,,,,,,,,,,,,,,,,,,,,,,,,,,,,,,,,,,,,,,,,,,,,,,,,,,,,,,415.5547657001298,415.95517870015465,415.9393553000409,416.0396134001203,416.43907040008344,None,right,1,0.4652709001675248,416.43907040008344,None,415.9393553000409,416.0396134001203,416.0396134001203,None,416.92339360015467,None,,,,,,,11037,001,2024_Mar_11_1520,ANT,2021.2.3,59.93920959545546,
1,15,center,down,IC,L,,,,,,Block.xlsx,"你已经完成了整个实验（三个区组）。

请报告实验者已完成实验

非常感谢，再见！",0,50,-1.5,left,RRLRR.png,,,,,0,1,1,1,2,20,68,14,,,,,,,,,,,,,,,,,,,,,,,,,,,,,,,,,,,,,,,,,,,,,,,,,,,,,,,,,,,,,,,,417.3247864001896,417.7254837001674,417.7087338999845,417.80949140014127,418.20902800001204,None,left,1,0.7192095997743309,418.20902800001204,None,417.7087338999845,417.80949140014127,417.80949140014127,None,418.943257200066,None,,,,,,,11037,001,2024_Mar_11_1520,ANT,2021.2.3,59.93920959545546,
1,23,spatial,down,IC,L,,,,,,Block.xlsx,"你已经完成了整个实验（三个区组）。

请报告实验者已完成实验

非常感谢，再见！",-1.5,0,-1.5,left,RRLRR.png,,,,,0,1,1,1,2,21,69,22,,,,,,,,,,,,,,,,,,,,,,,,,,,,,,,,,,,,,,,,,,,,,,,,,,,,,,,,,,,,,,,,419.3445570000913,419.74536300008185,419.72832400002517,419.8285028000828,420.2294230000116,None,left,1,0.5541883001569659,420.2294230000116,None,419.72832400002517,419.8285028000828,419.8285028000828,None,420.8127127001062,None,,,,,,,11037,001,2024_Mar_11_1520,ANT,2021.2.3,59.93920959545546,
1,12,center,up,IC,R,,,,,,Block.xlsx,"你已经完成了整个实验（三个区组）。

请报告实验者已完成实验

非常感谢，再见！",0,50,1.5,right,LLRLL.png,,,,,0,1,1,1,2,22,70,11,,,,,,,,,,,,,,,,,,,,,,,,,,,,,,,,,,,,,,,,,,,,,,,,,,,,,,,,,,,,,,,,421.21405609999783,421.6145417999942,421.598128200043,421.6990169000346,422.09860650007613,None,right,1,0.5339311000425369,422.09860650007613,None,421.598128200043,421.6990169000346,421.6990169000346,None,422.6487222001888,None,,,,,,,11037,001,2024_Mar_11_1520,ANT,2021.2.3,59.93920959545546,
1,2,no,up,C,R,,,,,,Block.xlsx,"你已经完成了整个实验（三个区组）。

请报告实验者已完成实验

非常感谢，再见！",50,0,1.5,right,RRRRR.png,,,,,0,1,1,1,2,23,71,1,,,,,,,,,,,,,,,,,,,,,,,,,,,,,,,,,,,,,,,,,,,,,,,,,,,,,,,,,,,,,,,,423.0493325002026,423.45046810014173,423.4332929002121,423.5345004000701,423.9346486001741,None,right,1,0.4492200000677258,423.9346486001741,None,423.4332929002121,423.5345004000701,423.5345004000701,None,424.40128150000237,None,,,,,,,11037,001,2024_Mar_11_1520,ANT,2021.2.3,59.93920959545546,
1,17,spatial,up,C,L,,,,,,Block.xlsx,"你已经完成了整个实验（三个区组）。

请报告实验者已完成实验

非常感谢，再见！",1.5,0,1.5,left,LLLLL.png,,,,,0,1,1,1,3,0,72,16,,,,,,,,,,,,,,,,,,,,,,,,,,,,,,,,,,,,,,,,,,,,,,,,,,,,,,,,,,,,,,,,424.8026332000736,425.2032573001925,425.1861950000748,425.2882522,425.68680340005085,None,left,1,0.489112300099805,425.68680340005085,None,425.1861950000748,425.2882522,425.2882522,None,426.2042668000795,None,,,,,,,11037,001,2024_Mar_11_1520,ANT,2021.2.3,59.93920959545546,
1,4,no,up,IC,R,,,,,,Block.xlsx,"你已经完成了整个实验（三个区组）。

请报告实验者已完成实验

非常感谢，再见！",50,0,1.5,right,LLRLL.png,,,,,0,1,1,1,3,1,73,3,,,,,,,,,,,,,,,,,,,,,,,,,,,,,,,,,,,,,,,,,,,,,,,,,,,,,,,,,,,,,,,,426.6055795000866,427.0067062000744,426.9886264000088,427.08946510008536,427.49014010000974,None,right,1,0.534326900029555,427.49014010000974,None,426.9886264000088,427.08946510008536,427.08946510008536,None,428.0400684000924,None,,,,,,,11037,001,2024_Mar_11_1520,ANT,2021.2.3,59.93920959545546,
1,6,no,down,C,R,,,,,,Block.xlsx,"你已经完成了整个实验（三个区组）。

请报告实验者已完成实验

非常感谢，再见！",50,0,-1.5,right,RRRRR.png,,,,,0,1,1,1,3,2,74,5,,,,,,,,,,,,,,,,,,,,,,,,,,,,,,,,,,,,,,,,,,,,,,,,,,,,,,,,,,,,,,,,428.44082820019685,428.84133520000614,428.8249523001723,428.92651800019667,429.3268483001739,None,right,1,0.5130656000692397,429.3268483001739,None,428.8249523001723,428.92651800019667,428.92651800019667,None,429.85974390013143,None,,,,,,,11037,001,2024_Mar_11_1520,ANT,2021.2.3,59.93920959545546,
1,14,center,down,C,R,,,,,,Block.xlsx,"你已经完成了整个实验（三个区组）。

请报告实验者已完成实验

非常感谢，再见！",0,50,-1.5,right,RRRRR.png,,,,,0,1,1,1,3,3,75,13,,,,,,,,,,,,,,,,,,,,,,,,,,,,,,,,,,,,,,,,,,,,,,,,,,,,,,,,,,,,,,,,430.26009300001897,430.66145240003243,430.6449722000398,430.7450265001971,431.146183000179,None,right,1,0.4785657001193613,431.146183000179,None,430.6449722000398,430.7450265001971,430.7450265001971,None,431.6456720000133,None,,,,,,,11037,001,2024_Mar_11_1520,ANT,2021.2.3,59.93920959545546,
1,5,no,down,C,L,,,,,,Block.xlsx,"你已经完成了整个实验（三个区组）。

请报告实验者已完成实验

非常感谢，再见！",50,0,-1.5,left,LLLLL.png,,,,,0,1,1,1,3,4,76,4,,,,,,,,,,,,,,,,,,,,,,,,,,,,,,,,,,,,,,,,,,,,,,,,,,,,,,,,,,,,,,,,432.0470996000804,432.4470571000129,432.4315700000152,432.5315952000674,432.93109460012056,None,left,1,0.4847335999365896,432.93109460012056,None,432.4315700000152,432.5315952000674,432.5315952000674,None,433.4316096000839,None,,,,,,,11037,001,2024_Mar_11_1520,ANT,2021.2.3,59.93920959545546,
1,14,center,down,C,R,,,,,,Block.xlsx,"你已经完成了整个实验（三个区组）。

请报告实验者已完成实验

非常感谢，再见！",0,50,-1.5,right,RRRRR.png,,,,,0,1,1,1,3,5,77,13,,,,,,,,,,,,,,,,,,,,,,,,,,,,,,,,,,,,,,,,,,,,,,,,,,,,,,,,,,,,,,,,433.8329229999799,434.2327668000944,434.21699500014074,434.3163918000646,434.71855220012367,None,right,1,0.5133573999628425,434.71855220012367,None,434.21699500014074,434.3163918000646,434.3163918000646,None,435.2512939001899,None,,,,,,,11037,001,2024_Mar_11_1520,ANT,2021.2.3,59.93920959545546,
1,8,no,down,IC,R,,,,,,Block.xlsx,"你已经完成了整个实验（三个区组）。

请报告实验者已完成实验

非常感谢，再见！",50,0,-1.5,right,LLRLL.png,,,,,0,1,1,1,3,6,78,7,,,,,,,,,,,,,,,,,,,,,,,,,,,,,,,,,,,,,,,,,,,,,,,,,,,,,,,,,,,,,,,,435.652226800099,436.0528985001147,436.0363666000776,436.13590670004487,436.53739439998753,None,right,1,0.5672022998332977,436.53739439998753,None,436.0363666000776,436.13590670004487,436.13590670004487,None,437.1205812001135,None,,,,,,,11037,001,2024_Mar_11_1520,ANT,2021.2.3,59.93920959545546,
1,6,no,down,C,R,,,,,,Block.xlsx,"你已经完成了整个实验（三个区组）。

请报告实验者已完成实验

非常感谢，再见！",50,0,-1.5,right,RRRRR.png,,,,,0,1,1,1,3,7,79,5,,,,,,,,,,,,,,,,,,,,,,,,,,,,,,,,,,,,,,,,,,,,,,,,,,,,,,,,,,,,,,,,437.522063100012,437.9217509001028,437.90593730006367,438.00553820002824,438.4068366000429,None,right,1,0.6493583999108523,438.4068366000429,None,437.90593730006367,438.00553820002824,438.00553820002824,None,439.0737032000907,None,,,,,,,11037,001,2024_Mar_11_1520,ANT,2021.2.3,59.93920959545546,
1,18,spatial,up,C,R,,,,,,Block.xlsx,"你已经完成了整个实验（三个区组）。

请报告实验者已完成实验

非常感谢，再见！",1.5,0,1.5,right,RRRRR.png,,,,,0,1,1,1,3,8,80,17,,,,,,,,,,,,,,,,,,,,,,,,,,,,,,,,,,,,,,,,,,,,,,,,,,,,,,,,,,,,,,,,439.4756832001731,439.8750140001066,439.85858870018274,439.95906260004267,440.35921500017866,None,right,1,0.5136094000190496,440.35921500017866,None,439.85858870018274,439.95906260004267,439.95906260004267,None,440.8930439001415,None,,,,,,,11037,001,2024_Mar_11_1520,ANT,2021.2.3,59.93920959545546,
1,21,spatial,down,C,L,,,,,,Block.xlsx,"你已经完成了整个实验（三个区组）。

请报告实验者已完成实验

非常感谢，再见！",-1.5,0,-1.5,left,LLLLL.png,,,,,0,1,1,1,3,9,81,20,,,,,,,,,,,,,,,,,,,,,,,,,,,,,,,,,,,,,,,,,,,,,,,,,,,,,,,,,,,,,,,,441.2935442000162,441.6941810999997,441.678065800108,441.77911390014924,442.17862190003507,None,left,1,0.421507699880749,442.17862190003507,None,441.678065800108,441.77911390014924,441.77911390014924,None,442.62895560008474,None,,,,,,,11037,001,2024_Mar_11_1520,ANT,2021.2.3,59.93920959545546,
1,10,center,up,C,R,,,,,,Block.xlsx,"你已经完成了整个实验（三个区组）。

请报告实验者已完成实验

非常感谢，再见！",0,50,1.5,right,RRRRR.png,,,,,0,1,1,1,3,10,82,9,,,,,,,,,,,,,,,,,,,,,,,,,,,,,,,,,,,,,,,,,,,,,,,,,,,,,,,,,,,,,,,,443.0294384001754,443.43020360008813,443.41481760004535,443.51412330009043,443.91466180002317,None,right,1,0.5418787999078631,443.91466180002317,None,443.41481760004535,443.51412330009043,443.51412330009043,None,444.4815371001605,None,,,,,,,11037,001,2024_Mar_11_1520,ANT,2021.2.3,59.93920959545546,
1,23,spatial,down,IC,L,,,,,,Block.xlsx,"你已经完成了整个实验（三个区组）。

请报告实验者已完成实验

非常感谢，再见！",-1.5,0,-1.5,left,RRLRR.png,,,,,0,1,1,1,3,11,83,22,,,,,,,,,,,,,,,,,,,,,,,,,,,,,,,,,,,,,,,,,,,,,,,,,,,,,,,,,,,,,,,,444.882024000166,445.28343460010365,445.26709110010415,445.36681820009835,445.7677383001428,None,left,1,0.48998630000278354,445.7677383001428,None,445.26709110010415,445.36681820009835,445.36681820009835,None,446.2843928001821,None,,,,,,,11037,001,2024_Mar_11_1520,ANT,2021.2.3,59.93920959545546,
1,9,center,up,C,L,,,,,,Block.xlsx,"你已经完成了整个实验（三个区组）。

请报告实验者已完成实验

非常感谢，再见！",0,50,1.5,left,LLLLL.png,,,,,0,1,1,1,3,12,84,8,,,,,,,,,,,,,,,,,,,,,,,,,,,,,,,,,,,,,,,,,,,,,,,,,,,,,,,,,,,,,,,,446.68494010018185,447.0864703999832,447.06975540006533,447.16976530011743,447.57064900011756,None,left,1,0.5181384000461549,447.57064900011756,None,447.06975540006533,447.16976530011743,447.16976530011743,None,448.10387210012414,None,,,,,,,11037,001,2024_Mar_11_1520,ANT,2021.2.3,59.93920959545546,
1,20,spatial,up,IC,R,,,,,,Block.xlsx,"你已经完成了整个实验（三个区组）。

请报告实验者已完成实验

非常感谢，再见！",1.5,0,1.5,right,LLRLL.png,,,,,0,1,1,1,3,13,85,19,,,,,,,,,,,,,,,,,,,,,,,,,,,,,,,,,,,,,,,,,,,,,,,,,,,,,,,,,,,,,,,,448.50438400008716,448.9054009001702,448.88872270006686,448.9890464001801,449.38935170019977,None,right,1,0.47544599999673665,449.38935170019977,None,448.88872270006686,448.9890464001801,448.9890464001801,None,449.8899854000192,None,,,,,,,11037,001,2024_Mar_11_1520,ANT,2021.2.3,59.93920959545546,
1,17,spatial,up,C,L,,,,,,Block.xlsx,"你已经完成了整个实验（三个区组）。

请报告实验者已完成实验

非常感谢，再见！",1.5,0,1.5,left,LLLLL.png,,,,,0,1,1,1,3,14,86,16,,,,,,,,,,,,,,,,,,,,,,,,,,,,,,,,,,,,,,,,,,,,,,,,,,,,,,,,,,,,,,,,450.2904025001917,450.69117230013944,450.6751767001115,450.7748235000763,451.1752971999813,None,left,1,0.4254969998728484,451.1752971999813,None,450.6751767001115,450.7748235000763,450.7748235000763,None,451.6262866000179,None,,,,,,,11037,001,2024_Mar_11_1520,ANT,2021.2.3,59.93920959545546,
1,1,no,up,C,L,,,,,,Block.xlsx,"你已经完成了整个实验（三个区组）。

请报告实验者已完成实验

非常感谢，再见！",50,0,1.5,left,LLLLL.png,,,,,0,1,1,1,3,15,87,0,,,,,,,,,,,,,,,,,,,,,,,,,,,,,,,,,,,,,,,,,,,,,,,,,,,,,,,,,,,,,,,,452.0272816000506,452.42833320004866,452.4110774002038,452.51076890015975,452.91186140011996,None,left,1,0.4724323998671025,452.91186140011996,None,452.4110774002038,452.51076890015975,452.51076890015975,None,453.4121229001321,None,,,,,,,11037,001,2024_Mar_11_1520,ANT,2021.2.3,59.93920959545546,
1,12,center,up,IC,R,,,,,,Block.xlsx,"你已经完成了整个实验（三个区组）。

请报告实验者已完成实验

非常感谢，再见！",0,50,1.5,right,LLRLL.png,,,,,0,1,1,1,3,16,88,11,,,,,,,,,,,,,,,,,,,,,,,,,,,,,,,,,,,,,,,,,,,,,,,,,,,,,,,,,,,,,,,,453.81345820007846,454.21376610011794,454.19698870019056,454.29697630018927,454.6969994001556,None,right,1,0.6564461998641491,454.6969994001556,None,454.19698870019056,454.29697630018927,454.29697630018927,None,455.3813727002125,None,,,,,,,11037,001,2024_Mar_11_1520,ANT,2021.2.3,59.93920959545546,
1,2,no,up,C,R,,,,,,Block.xlsx,"你已经完成了整个实验（三个区组）。

请报告实验者已完成实验

非常感谢，再见！",50,0,1.5,right,RRRRR.png,,,,,0,1,1,1,3,17,89,1,,,,,,,,,,,,,,,,,,,,,,,,,,,,,,,,,,,,,,,,,,,,,,,,,,,,,,,,,,,,,,,,455.78240720019676,456.18353280005977,456.16652179998346,456.2668310001027,456.66800900013186,None,right,1,0.5727780999150127,456.66800900013186,None,456.16652179998346,456.2668310001027,456.2668310001027,None,457.2679630999919,None,,,,,,,11037,001,2024_Mar_11_1520,ANT,2021.2.3,59.93920959545546,
1,5,no,down,C,L,,,,,,Block.xlsx,"你已经完成了整个实验（三个区组）。

请报告实验者已完成实验

非常感谢，再见！",50,0,-1.5,left,LLLLL.png,,,,,0,1,1,1,3,18,90,4,,,,,,,,,,,,,,,,,,,,,,,,,,,,,,,,,,,,,,,,,,,,,,,,,,,,,,,,,,,,,,,,457.6683654000517,458.0687657999806,458.0527771001216,458.1521839001216,458.5541677000001,None,left,1,0.5269096000120044,458.5541677000001,None,458.0527771001216,458.1521839001216,458.1521839001216,None,459.10375430015847,None,,,,,,,11037,001,2024_Mar_11_1520,ANT,2021.2.3,59.93920959545546,
1,24,spatial,down,IC,R,,,,,,Block.xlsx,"你已经完成了整个实验（三个区组）。

请报告实验者已完成实验

非常感谢，再见！",-1.5,0,-1.5,right,LLRLL.png,,,,,0,1,1,1,3,19,91,23,,,,,,,,,,,,,,,,,,,,,,,,,,,,,,,,,,,,,,,,,,,,,,,,,,,,,,,,,,,,,,,,459.50441609998234,459.90554570010863,459.88882630015723,459.98915590019897,460.3890356000047,None,right,1,0.5399341001175344,460.3890356000047,None,459.88882630015723,459.98915590019897,459.98915590019897,None,460.9566522000823,None,,,,,,,11037,001,2024_Mar_11_1520,ANT,2021.2.3,59.93920959545546,
1,20,spatial,up,IC,R,,,,,,Block.xlsx,"你已经完成了整个实验（三个区组）。

请报告实验者已完成实验

