TrialType,TrialNumber,WarningType,TargetType,FlankerType,TargetDirection,W,f,Y,corr,imageFile,condition,endtext,Yw,Yf,Yt,Corr,imagefile,trials_3.thisRepN,trials_3.thisTrialN,trials_3.thisN,trials_3.thisIndex,trials_2.thisRepN,trials_2.thisTrialN,trials_2.thisN,trials_2.thisIndex,trials.thisRepN,trials.thisTrialN,trials.thisN,trials.thisIndex,instr.started,instr.stopped,key_resp.keys,key_resp.rt,key_resp.started,key_resp.stopped,image.started,image.stopped,key_resp_6.keys,key_resp_6.rt,key_resp_6.started,key_resp_6.stopped,EX_L.started,EX_L.stopped,AL.started,AL.stopped,key_resp_7.keys,key_resp_7.rt,key_resp_7.started,key_resp_7.stopped,EX_R.started,EX_R.stopped,RR.started,RR.stopped,key_resp_8.keys,key_resp_8.rt,key_resp_8.started,key_resp_8.stopped,image_2.started,image_2.stopped,key_resp_9.keys,key_resp_9.rt,key_resp_9.started,key_resp_9.stopped,image_3.started,image_3.stopped,key_resp_10.keys,key_resp_10.rt,key_resp_10.started,key_resp_10.stopped,fix.started,fix.stopped,war.started,war.stopped,tar.started,tar.stopped,key_resp_4.keys,key_resp_4.corr,key_resp_4.rt,key_resp_4.started,key_resp_4.stopped,fix2.started,fix2.stopped,fix_2.started,fix_2.stopped,Feedback.started,Feedback.stopped,key_resp_2.keys,key_resp_2.rt,key_resp_2.started,key_resp_2.stopped,text_5.started,text_5.stopped,fix2_1.started,fix2_1.stopped,Warn.started,Warn.stopped,Tar.started,Tar.stopped,key_resp_5.keys,key_resp_5.corr,key_resp_5.rt,key_resp_5.started,key_resp_5.stopped,Fix_2.started,Fix_2.stopped,fix2_2.started,fix2_2.stopped,text_4.started,text_4.stopped,key_resp_3.keys,key_resp_3.rt,key_resp_3.started,key_resp_3.stopped,text_3.started,text_3.stopped,participant,session,date,expName,psychopyVersion,frameRate,
,,,,,,,,,,,,,,,,,,,,,,,,,,,,,,10.451193799963221,None,space,4.430850700009614,10.451193799963221,None,,,,,,,,,,,,,,,,,,,,,,,,,,,,,,,,,,,,,,,,,,,,,,,,,,,,,,,,,,,,,,,,,,,,,,,,,,,,,,,,,11030,001,2024_Jan_11_0822,ANT,2021.2.3,60.09265078494192,
,,,,,,,,,,,,,,,,,,,,,,,,,,,,,,,,,,,,14.908579299924895,None,space,1.2376894000917673,14.908579299924895,None,,,,,,,,,,,,,,,,,,,,,,,,,,,,,,,,,,,,,,,,,,,,,,,,,,,,,,,,,,,,,,,,,,,,,,,,,,,11030,001,2024_Jan_11_0822,ANT,2021.2.3,60.09265078494192,
,,,,,,,,,,,,,,,,,,,,,,,,,,,,,,,,,,,,,,,,,,16.176549900090322,None,16.176549900090322,None,left,2.241703199921176,16.176549900090322,None,,,,,,,,,,,,,,,,,,,,,,,,,,,,,,,,,,,,,,,,,,,,,,,,,,,,,,,,,,,,,,,,,,,11030,001,2024_Jan_11_0822,ANT,2021.2.3,60.09265078494192,
,,,,,,,,,,,,,,,,,,,,,,,,,,,,,,,,,,,,,,,,,,,,,,,,,,18.446658100001514,None,18.446658100001514,None,right,1.539680999936536,18.446658100001514,None,,,,,,,,,,,,,,,,,,,,,,,,,,,,,,,,,,,,,,,,,,,,,,,,,,,,,,,,,,,11030,001,2024_Jan_11_0822,ANT,2021.2.3,60.09265078494192,
,,,,,,,,,,,,,,,,,,,,,,,,,,,,,,,,,,,,,,,,,,,,,,,,,,,,,,,,,,20.01563229993917,None,space,1.5303778999950737,20.01563229993917,None,,,,,,,,,,,,,,,,,,,,,,,,,,,,,,,,,,,,,,,,,,,,,,,,,,,,,11030,001,2024_Jan_11_0822,ANT,2021.2.3,60.09265078494192,
,,,,,,,,,,,,,,,,,,,,,,,,,,,,,,,,,,,,,,,,,,,,,,,,,,,,,,,,,,,,,,,,21.567686999915168,None,space,1.2027429000008851,21.567686999915168,None,,,,,,,,,,,,,,,,,,,,,,,,,,,,,,,,,,,,,,,,,,,,,,,11030,001,2024_Jan_11_0822,ANT,2021.2.3,60.09265078494192,
0,11,spatial,down,C,L,-1.5,0,-1.5,left,LLLLL.png,,,,,,,,0,0,0,10,,,,,,,,,,,,,,,,,,,,,,,,,,,,,,,,,,,,,,,,,,,,,,,,,22.852460599970073,23.25459020002745,23.237053100019693,23.338715099962428,23.738147200085223,None,left,1,0.6879394000861794,23.738147200085223,None,23.237053100019693,23.338715099962428,23.338715099962428,None,24.472797699971125,None,,,,,,,,,,,,,,,,,,,,,,,,,,,,,,11030,001,2024_Jan_11_0822,ANT,2021.2.3,60.09265078494192,
0,8,center,down,IC,L,0,50,-1.5,left,RRLRR.png,,,,,,,,0,1,1,7,,,,,,,,,,,,,,,,,,,,,,,,,,,,,,,,,,,,,,,,,,,,,,,,,26.47572509991005,26.875811300007626,26.859543799888343,26.959307000041008,27.36185189988464,None,left,1,0.6884917998686433,27.36185189988464,None,26.859543799888343,26.959307000041008,26.959307000041008,None,28.077198599930853,None,,,,,,,,,,,,,,,,,,,,,,,,,,,,,,11030,001,2024_Jan_11_0822,ANT,2021.2.3,60.09265078494192,
0,1,no,up,C,L,50,0,1.5,left,LLLLL.png,,,,,,,,0,2,2,0,,,,,,,,,,,,,,,,,,,,,,,,,,,,,,,,,,,,,,,,,,,,,,,,,30.081012800103053,30.48153050011024,30.466041299980134,30.564182000001892,30.96558260009624,None,left,1,0.3975760000757873,30.96558260009624,None,30.466041299980134,30.564182000001892,30.564182000001892,None,31.3820825999137,None,,,,,,,,,,,,,,,,,,,,,,,,,,,,,,11030,001,2024_Jan_11_0822,ANT,2021.2.3,60.09265078494192,
0,5,center,up,C,L,0,50,1.5,left,LLLLL.png,,,,,,,,0,3,3,4,,,,,,,,,,,,,,,,,,,,,,,,,,,,,,,,,,,,,,,,,,,,,,,,,33.385267799953,33.78699450008571,33.76893260003999,33.86926999990828,34.27039600000717,None,left,1,0.36434129998087883,34.27039600000717,None,33.76893260003999,33.86926999990828,33.86926999990828,None,34.6536820998881,None,,,,,,,,,,,,,,,,,,,,,,,,,,,,,,11030,001,2024_Jan_11_0822,ANT,2021.2.3,60.09265078494192,
0,10,spatial,up,IC,L,1.5,0,1.5,left,RRLRR.png,,,,,,,,0,4,4,9,,,,,,,,,,,,,,,,,,,,,,,,,,,,,,,,,,,,,,,,,,,,,,,,,36.657447200035676,37.05939349997789,37.04081099992618,37.14271409995854,37.54303689999506,None,right,0,0.5314831999130547,37.54303689999506,None,37.04081099992618,37.14271409995854,37.14271409995854,None,38.09185620001517,None,,,,,,,,,,,,,,,,,,,,,,,,,,,,,,11030,001,2024_Jan_11_0822,ANT,2021.2.3,60.09265078494192,
0,3,no,down,C,R,50,0,-1.5,right,RRRRR.png,,,,,,,,0,5,5,2,,,,,,,,,,,,,,,,,,,,,,,,,,,,,,,,,,,,,,,,,,,,,,,,,40.09560859994963,40.495551799889654,40.47955369995907,40.57914429996163,40.97991960006766,None,right,1,0.6147802001796663,40.97991960006766,None,40.47955369995907,40.57914429996163,40.57914429996163,None,41.61380470008589,None,,,,,,,,,,,,,,,,,,,,,,,,,,,,,,11030,001,2024_Jan_11_0822,ANT,2021.2.3,60.09265078494192,
0,7,center,down,C,R,0,50,-1.5,right,RRRRR.png,,,,,,,,0,6,6,6,,,,,,,,,,,,,,,,,,,,,,,,,,,,,,,,,,,,,,,,,,,,,,,,,43.61683840001933,44.01804329990409,44.00264950003475,44.10219500004314,44.501556700095534,None,right,1,0.46069790003821254,44.501556700095534,None,44.00264950003475,44.10219500004314,44.10219500004314,None,44.98567089997232,None,,,,,,,,,,,,,,,,,,,,,,,,,,,,,,11030,001,2024_Jan_11_0822,ANT,2021.2.3,60.09265078494192,
0,2,no,up,IC,R,50,0,1.5,right,LLRLL.png,,,,,,,,0,7,7,1,,,,,,,,,,,,,,,,,,,,,,,,,,,,,,,,,,,,,,,,,,,,,,,,,46.9887806000188,47.39105589990504,47.37280769995414,47.47380020003766,47.873633299954236,None,left,0,0.46445410000160336,47.873633299954236,None,47.37280769995414,47.47380020003766,47.47380020003766,None,48.35712349996902,None,,,,,,,,,,,,,,,,,,,,,,,,,,,,,,11030,001,2024_Jan_11_0822,ANT,2021.2.3,60.09265078494192,
0,12,spatial,down,IC,R,-1.5,0,-1.5,right,LLRLL.png,,,,,,,,0,8,8,11,,,,,,,,,,,,,,,,,,,,,,,,,,,,,,,,,,,,,,,,,,,,,,,,,50.360355800017715,50.76086989999749,50.74640029994771,50.86187019990757,51.245007700053975,None,left,0,0.4211442000232637,51.245007700053975,None,50.74640029994771,50.86187019990757,50.84458380006254,None,51.695651399903,None,,,,,,,,,,,,,,,,,,,,,,,,,,,,,,11030,001,2024_Jan_11_0822,ANT,2021.2.3,60.09265078494192,
0,6,center,up,IC,R,0,50,1.5,right,LLRLL.png,,,,,,,,0,9,9,5,,,,,,,,,,,,,,,,,,,,,,,,,,,,,,,,,,,,,,,,,,,,,,,,,53.69854820007458,54.10049100010656,54.08390629990026,54.199414500035346,54.58346059988253,None,right,1,0.5545461000874639,54.58346059988253,None,54.08390629990026,54.199414500035346,54.18342239991762,None,55.168174399994314,None,,,,,,,,,,,,,,,,,,,,,,,,,,,,,,11030,001,2024_Jan_11_0822,ANT,2021.2.3,60.09265078494192,
0,4,no,down,IC,L,50,0,-1.5,left,RRLRR.png,,,,,,,,0,10,10,3,,,,,,,,,,,,,,,,,,,,,,,,,,,,,,,,,,,,,,,,,,,,,,,,,57.17011600011028,57.571143300039694,57.554972199955955,57.65447130007669,58.05509299994446,None,left,1,0.6353866001591086,58.05509299994446,None,57.554972199955955,57.65447130007669,57.65447130007669,None,58.70606569992378,None,,,,,,,,,,,,,,,,,,,,,,,,,,,,,,11030,001,2024_Jan_11_0822,ANT,2021.2.3,60.09265078494192,
0,9,spatial,up,C,R,1.5,0,1.5,right,RRRRR.png,,,,,,,,0,11,11,8,,,,,,,,,,,,,,,,,,,,,,,,,,,,,,,,,,,,,,,,,,,,,,,,,60.70907330000773,61.109606799902394,61.09428340010345,61.193005400011316,61.59434670000337,None,right,1,0.4398803999647498,61.59434670000337,None,61.09428340010345,61.193005400011316,61.193005400011316,None,62.06091900006868,None,,,,,,,,,,,,,,,,,,,,,,,,,,,,,,11030,001,2024_Jan_11_0822,ANT,2021.2.3,60.09265078494192,
,,,,,,,,,,,,,,,,,,,,,,,,,,,,,,,,,,,,,,,,,,,,,,,,,,,,,,,,,,,,,,,,,,,,,,,,,,,,,,,,,,,,,,,space,10.122102200053632,64.06401870003901,None,,,,,,,,,,,,,,,,,,,,,,,,,,11030,001,2024_Jan_11_0822,ANT,2021.2.3,60.09265078494192,
1,12,center,up,IC,R,,,,,,Block.xlsx,"你已经完成了第一个实验区组

请稍作休息


点击空格键进入下一个区组。",0,50,1.5,right,LLRLL.png,,,,,0,0,0,0,0,0,0,11,,,,,,,,,,,,,,,,,,,,,,,,,,,,,,,,,,,,,,,,,,,,,,,,,,,,,,,,,,,,,,64.06401870003901,None,74.24672539997846,74.647390200058,74.63054080004804,74.72984430007637,75.13026720006019,None,left,0,0.4008015999570489,75.13026720006019,None,74.63054080004804,74.72984430007637,74.72984430007637,None,75.547414700035,None,,,,,,,11030,001,2024_Jan_11_0822,ANT,2021.2.3,60.09265078494192,
1,8,no,down,IC,R,,,,,,Block.xlsx,"你已经完成了第一个实验区组

请稍作休息


点击空格键进入下一个区组。",50,0,-1.5,right,LLRLL.png,,,,,0,0,0,0,0,1,1,7,,,,,,,,,,,,,,,,,,,,,,,,,,,,,,,,,,,,,,,,,,,,,,,,,,,,,,,,,,,,,,,,75.94876689999364,76.34958079992794,76.3321098999586,76.43388190004043,76.8333020999562,None,right,1,0.6170659000054002,76.8333020999562,None,76.3321098999586,76.43388190004043,76.43388190004043,None,77.4674984999001,None,,,,,,,11030,001,2024_Jan_11_0822,ANT,2021.2.3,60.09265078494192,
1,9,center,up,C,L,,,,,,Block.xlsx,"你已经完成了第一个实验区组

请稍作休息


点击空格键进入下一个区组。",0,50,1.5,left,LLLLL.png,,,,,0,0,0,0,0,2,2,8,,,,,,,,,,,,,,,,,,,,,,,,,,,,,,,,,,,,,,,,,,,,,,,,,,,,,,,,,,,,,,,,77.86805450008251,78.26827219990082,78.25313710002229,78.35384569992311,78.75386429997161,None,left,1,0.440342899877578,78.75386429997161,None,78.25313710002229,78.35384569992311,78.35384569992311,None,79.21965149999596,None,,,,,,,11030,001,2024_Jan_11_0822,ANT,2021.2.3,60.09265078494192,
1,12,center,up,IC,R,,,,,,Block.xlsx,"你已经完成了第一个实验区组

请稍作休息


点击空格键进入下一个区组。",0,50,1.5,right,LLRLL.png,,,,,0,0,0,0,0,3,3,11,,,,,,,,,,,,,,,,,,,,,,,,,,,,,,,,,,,,,,,,,,,,,,,,,,,,,,,,,,,,,,,,79.62022510007955,80.02092429995537,80.0047840999905,80.10453779995441,80.50627369992435,None,right,1,0.5197829001117498,80.50627369992435,None,80.0047840999905,80.10453779995441,80.10453779995441,None,81.05587940011173,None,,,,,,,11030,001,2024_Jan_11_0822,ANT,2021.2.3,60.09265078494192,
1,21,spatial,down,C,L,,,,,,Block.xlsx,"你已经完成了第一个实验区组

请稍作休息


点击空格键进入下一个区组。",-1.5,0,-1.5,left,LLLLL.png,,,,,0,0,0,0,0,4,4,20,,,,,,,,,,,,,,,,,,,,,,,,,,,,,,,,,,,,,,,,,,,,,,,,,,,,,,,,,,,,,,,,81.45669730007648,81.85768479993567,81.8424261000473,81.9412219999358,82.34163999999873,None,left,1,0.4370097001083195,82.34163999999873,None,81.8424261000473,81.9412219999358,81.9412219999358,None,82.80849840003066,None,,,,,,,11030,001,2024_Jan_11_0822,ANT,2021.2.3,60.09265078494192,
1,1,no,up,C,L,,,,,,Block.xlsx,"你已经完成了第一个实验区组

请稍作休息


点击空格键进入下一个区组。",50,0,1.5,left,LLLLL.png,,,,,0,0,0,0,0,5,5,0,,,,,,,,,,,,,,,,,,,,,,,,,,,,,,,,,,,,,,,,,,,,,,,,,,,,,,,,,,,,,,,,83.2089408999309,83.61004579998553,83.5945003000088,83.69308499991894,84.09459839994088,None,left,1,0.4355411999858916,84.09459839994088,None,83.5945003000088,83.69308499991894,83.69308499991894,None,84.56148999999277,None,,,,,,,11030,001,2024_Jan_11_0822,ANT,2021.2.3,60.09265078494192,
1,17,spatial,up,C,L,,,,,,Block.xlsx,"你已经完成了第一个实验区组

请稍作休息


点击空格键进入下一个区组。",1.5,0,1.5,left,LLLLL.png,,,,,0,0,0,0,0,6,6,16,,,,,,,,,,,,,,,,,,,,,,,,,,,,,,,,,,,,,,,,,,,,,,,,,,,,,,,,,,,,,,,,84.961545499973,85.36229049996473,85.34626480005682,85.44686789996922,85.84747130004689,None,left,1,0.43499309988692403,85.84747130004689,None,85.34626480005682,85.44686789996922,85.44686789996922,None,86.29692159988917,None,,,,,,,11030,001,2024_Jan_11_0822,ANT,2021.2.3,60.09265078494192,
1,24,spatial,down,IC,R,,,,,,Block.xlsx,"你已经完成了第一个实验区组

请稍作休息


点击空格键进入下一个区组。",-1.5,0,-1.5,right,LLRLL.png,,,,,0,0,0,0,0,7,7,23,,,,,,,,,,,,,,,,,,,,,,,,,,,,,,,,,,,,,,,,,,,,,,,,,,,,,,,,,,,,,,,,86.69740170007572,87.09912279993296,87.08239119988866,87.18248290009797,87.58286469988525,None,right,1,0.4352820001076907,87.58286469988525,None,87.08239119988866,87.18248290009797,87.18248290009797,None,88.04952979995869,None,,,,,,,11030,001,2024_Jan_11_0822,ANT,2021.2.3,60.09265078494192,
1,20,spatial,up,IC,R,,,,,,Block.xlsx,"你已经完成了第一个实验区组

请稍作休息


点击空格键进入下一个区组。",1.5,0,1.5,right,LLRLL.png,,,,,0,0,0,0,0,8,8,19,,,,,,,,,,,,,,,,,,,,,,,,,,,,,,,,,,,,,,,,,,,,,,,,,,,,,,,,,,,,,,,,88.45039610005915,88.85318899992853,88.83466610009782,88.93524689995684,89.3346659000963,None,right,1,0.411642599850893,89.3346659000963,None,88.83466610009782,88.93524689995684,88.93524689995684,None,89.76936369994655,None,,,,,,,11030,001,2024_Jan_11_0822,ANT,2021.2.3,60.09265078494192,
1,2,no,up,C,R,,,,,,Block.xlsx,"你已经完成了第一个实验区组

请稍作休息


点击空格键进入下一个区组。",50,0,1.5,right,RRRRR.png,,,,,0,0,0,0,0,9,9,1,,,,,,,,,,,,,,,,,,,,,,,,,,,,,,,,,,,,,,,,,,,,,,,,,,,,,,,,,,,,,,,,90.17012390005402,90.57005549990572,90.55381760001183,90.65389549988322,91.05492689996026,None,right,1,0.4433488000649959,91.05492689996026,None,90.55381760001183,90.65389549988322,90.65389549988322,None,91.52134529990144,None,,,,,,,11030,001,2024_Jan_11_0822,ANT,2021.2.3,60.09265078494192,
1,10,center,up,C,R,,,,,,Block.xlsx,"你已经完成了第一个实验区组

请稍作休息


点击空格键进入下一个区组。",0,50,1.5,right,RRRRR.png,,,,,0,0,0,0,0,10,10,9,,,,,,,,,,,,,,,,,,,,,,,,,,,,,,,,,,,,,,,,,,,,,,,,,,,,,,,,,,,,,,,,91.9232151999604,92.32270919997245,92.3080710999202,92.42457309993915,92.80769969988614,None,right,1,0.3950491000432521,92.80769969988614,None,92.3080710999202,92.42457309993915,92.40613140002824,None,93.22415479994379,None,,,,,,,11030,001,2024_Jan_11_0822,ANT,2021.2.3,60.09265078494192,
1,11,center,up,IC,L,,,,,,Block.xlsx,"你已经完成了第一个实验区组

请稍作休息


点击空格键进入下一个区组。",0,50,1.5,left,RRLRR.png,,,,,0,0,0,0,0,11,11,10,,,,,,,,,,,,,,,,,,,,,,,,,,,,,,,,,,,,,,,,,,,,,,,,,,,,,,,,,,,,,,,,93.62447130004875,94.0261901000049,94.00875389995053,94.10922909993678,94.51109690009616,None,left,1,0.49113520001992583,94.51109690009616,None,94.00875389995053,94.10922909993678,94.10922909993678,None,95.02641590009443,None,,,,,,,11030,001,2024_Jan_11_0822,ANT,2021.2.3,60.09265078494192,
1,1,no,up,C,L,,,,,,Block.xlsx,"你已经完成了第一个实验区组

请稍作休息


点击空格键进入下一个区组。",50,0,1.5,left,LLLLL.png,,,,,0,0,0,0,0,12,12,0,,,,,,,,,,,,,,,,,,,,,,,,,,,,,,,,,,,,,,,,,,,,,,,,,,,,,,,,,,,,,,,,95.42747369990684,95.82787550007924,95.81110100005753,95.91334079997614,96.31164960004389,None,left,1,0.4426207998767495,96.31164960004389,None,95.81110100005753,95.91334079997614,95.91334079997614,None,96.77944010007195,None,,,,,,,11030,001,2024_Jan_11_0822,ANT,2021.2.3,60.09265078494192,
1,22,spatial,down,C,R,,,,,,Block.xlsx,"你已经完成了第一个实验区组

请稍作休息


点击空格键进入下一个区组。",-1.5,0,-1.5,right,RRRRR.png,,,,,0,0,0,0,0,13,13,21,,,,,,,,,,,,,,,,,,,,,,,,,,,,,,,,,,,,,,,,,,,,,,,,,,,,,,,,,,,,,,,,97.17983880010433,97.58049679989927,97.56520460010506,97.6640095000621,98.06475019990467,None,right,1,0.3776277999859303,98.06475019990467,None,97.56520460010506,97.6640095000621,97.6640095000621,None,98.46490069990978,None,,,,,,,11030,001,2024_Jan_11_0822,ANT,2021.2.3,60.09265078494192,
1,8,no,down,IC,R,,,,,,Block.xlsx,"你已经完成了第一个实验区组

请稍作休息


点击空格键进入下一个区组。",50,0,-1.5,right,LLRLL.png,,,,,0,0,0,0,0,14,14,7,,,,,,,,,,,,,,,,,,,,,,,,,,,,,,,,,,,,,,,,,,,,,,,,,,,,,,,,,,,,,,,,98.86591750010848,99.26781830005348,99.2499555000104,99.34954309999011,99.7513160998933,None,left,0,0.5228144999127835,99.7513160998933,None,99.2499555000104,99.34954309999011,99.34954309999011,None,100.3012331998907,None,,,,,,,11030,001,2024_Jan_11_0822,ANT,2021.2.3,60.09265078494192,
1,16,center,down,IC,R,,,,,,Block.xlsx,"你已经完成了第一个实验区组

请稍作休息


点击空格键进入下一个区组。",0,50,-1.5,right,LLRLL.png,,,,,0,0,0,0,0,15,15,15,,,,,,,,,,,,,,,,,,,,,,,,,,,,,,,,,,,,,,,,,,,,,,,,,,,,,,,,,,,,,,,,100.70186079991981,101.10218139993958,101.08588039991446,101.18644999992102,101.5860943000298,None,right,1,0.6085291998460889,101.5860943000298,None,101.08588039991446,101.18644999992102,101.18644999992102,None,102.22056700009853,None,,,,,,,11030,001,2024_Jan_11_0822,ANT,2021.2.3,60.09265078494192,
1,5,no,down,C,L,,,,,,Block.xlsx,"你已经完成了第一个实验区组

请稍作休息


点击空格键进入下一个区组。",50,0,-1.5,left,LLLLL.png,,,,,0,0,0,0,0,16,16,4,,,,,,,,,,,,,,,,,,,,,,,,,,,,,,,,,,,,,,,,,,,,,,,,,,,,,,,,,,,,,,,,102.62109620007686,103.02279469999485,103.0049479000736,103.10579599998891,103.5064348001033,None,left,1,0.5119775000493973,103.5064348001033,None,103.0049479000736,103.10579599998891,103.10579599998891,None,104.0402005999349,None,,,,,,,11030,001,2024_Jan_11_0822,ANT,2021.2.3,60.09265078494192,
1,21,spatial,down,C,L,,,,,,Block.xlsx,"你已经完成了第一个实验区组

请稍作休息


点击空格键进入下一个区组。",-1.5,0,-1.5,left,LLLLL.png,,,,,0,0,0,0,0,17,17,20,,,,,,,,,,,,,,,,,,,,,,,,,,,,,,,,,,,,,,,,,,,,,,,,,,,,,,,,,,,,,,,,104.44103009998798,104.84191969991662,104.82445199997164,104.92468490009196,105.32606250001118,None,left,1,0.4121940000914037,105.32606250001118,None,104.82445199997164,104.92468490009196,104.92468490009196,None,105.75912380008958,None,,,,,,,11030,001,2024_Jan_11_0822,ANT,2021.2.3,60.09265078494192,
1,4,no,up,IC,R,,,,,,Block.xlsx,"你已经完成了第一个实验区组

请稍作休息


点击空格键进入下一个区组。",50,0,1.5,right,LLRLL.png,,,,,0,0,0,0,0,18,18,3,,,,,,,,,,,,,,,,,,,,,,,,,,,,,,,,,,,,,,,,,,,,,,,,,,,,,,,,,,,,,,,,106.15954759996384,106.56207520002499,106.54382189991884,106.64486730005592,107.0443641000893,None,right,1,0.7098779999651015,107.0443641000893,None,106.54382189991884,106.64486730005592,106.64486730005592,None,107.77877509989776,None,,,,,,,11030,001,2024_Jan_11_0822,ANT,2021.2.3,60.09265078494192,
1,14,center,down,C,R,,,,,,Block.xlsx,"你已经完成了第一个实验区组

请稍作休息


点击空格键进入下一个区组。",0,50,-1.5,right,RRRRR.png,,,,,0,0,0,0,0,19,19,13,,,,,,,,,,,,,,,,,,,,,,,,,,,,,,,,,,,,,,,,,,,,,,,,,,,,,,,,,,,,,,,,108.17935630003922,108.58086999994703,108.56339389993809,108.66380729991943,109.06388629996218,None,right,1,0.38633869984187186,109.06388629996218,None,108.56339389993809,108.66380729991943,108.66380729991943,None,109.48094830010086,None,,,,,,,11030,001,2024_Jan_11_0822,ANT,2021.2.3,60.09265078494192,
1,20,spatial,up,IC,R,,,,,,Block.xlsx,"你已经完成了第一个实验区组

请稍作休息


点击空格键进入下一个区组。",1.5,0,1.5,right,LLRLL.png,,,,,0,0,0,0,0,20,20,19,,,,,,,,,,,,,,,,,,,,,,,,,,,,,,,,,,,,,,,,,,,,,,,,,,,,,,,,,,,,,,,,109.88261860003695,110.2825227000285,110.26597320009023,110.36807280010544,110.76704469998367,None,right,1,0.44313200004398823,110.76704469998367,None,110.26597320009023,110.36807280010544,110.36807280010544,None,111.23424070002511,None,,,,,,,11030,001,2024_Jan_11_0822,ANT,2021.2.3,60.09265078494192,
1,13,center,down,C,L,,,,,,Block.xlsx,"你已经完成了第一个实验区组

请稍作休息


点击空格键进入下一个区组。",0,50,-1.5,left,LLLLL.png,,,,,0,0,0,0,0,21,21,12,,,,,,,,,,,,,,,,,,,,,,,,,,,,,,,,,,,,,,,,,,,,,,,,,,,,,,,,,,,,,,,,111.63518600002863,112.03623370011337,112.01816380000673,112.11918799998239,112.51978609990329,None,left,1,0.45055269985459745,112.51978609990329,None,112.01816380000673,112.11918799998239,112.11918799998239,None,112.98647299990989,None,,,,,,,11030,001,2024_Jan_11_0822,ANT,2021.2.3,60.09265078494192,
1,20,spatial,up,IC,R,,,,,,Block.xlsx,"你已经完成了第一个实验区组

请稍作休息


点击空格键进入下一个区组。",1.5,0,1.5,right,LLRLL.png,,,,,0,0,0,0,0,22,22,19,,,,,,,,,,,,,,,,,,,,,,,,,,,,,,,,,,,,,,,,,,,,,,,,,,,,,,,,,,,,,,,,113.38779859989882,113.78912599990144,113.7710663001053,113.87199399992824,114.27192210010253,None,right,1,0.3543453000020236,114.27192210010253,None,113.7710663001053,113.87199399992824,113.87199399992824,None,114.65572250005789,None,,,,,,,11030,001,2024_Jan_11_0822,ANT,2021.2.3,60.09265078494192,
1,3,no,up,IC,L,,,,,,Block.xlsx,"你已经完成了第一个实验区组

请稍作休息


点击空格键进入下一个区组。",50,0,1.5,left,RRLRR.png,,,,,0,0,0,0,0,23,23,2,,,,,,,,,,,,,,,,,,,,,,,,,,,,,,,,,,,,,,,,,,,,,,,,,,,,,,,,,,,,,,,,115.05658699991181,115.45770419994369,115.4427620000206,115.54091059998609,115.94281250005588,None,right,0,0.42785530001856387,115.94281250005588,None,115.4427620000206,115.54091059998609,115.54091059998609,None,116.39148280001245,None,,,,,,,11030,001,2024_Jan_11_0822,ANT,2021.2.3,60.09265078494192,
1,11,center,up,IC,L,,,,,,Block.xlsx,"你已经完成了第一个实验区组

请稍作休息


点击空格键进入下一个区组。",0,50,1.5,left,RRLRR.png,,,,,0,0,0,0,1,0,24,10,,,,,,,,,,,,,,,,,,,,,,,,,,,,,,,,,,,,,,,,,,,,,,,,,,,,,,,,,,,,,,,,116.79373120004311,117.21106239990331,117.17580619989894,117.27614440000616,117.67677469993941,None,left,1,0.5985750001855195,117.67677469993941,None,117.17580619989894,117.27614440000616,117.27614440000616,None,118.29561619996093,None,,,,,,,11030,001,2024_Jan_11_0822,ANT,2021.2.3,60.09265078494192,
1,7,no,down,IC,L,,,,,,Block.xlsx,"你已经完成了第一个实验区组

请稍作休息


点击空格键进入下一个区组。",50,0,-1.5,left,RRLRR.png,,,,,0,0,0,0,1,1,25,6,,,,,,,,,,,,,,,,,,,,,,,,,,,,,,,,,,,,,,,,,,,,,,,,,,,,,,,,,,,,,,,,118.69556130003184,119.09759999997914,119.07951460010372,119.18028669990599,119.58092279988341,None,left,1,0.7094507999718189,119.58092279988341,None,119.07951460010372,119.18028669990599,119.18028669990599,None,120.3139424000401,None,,,,,,,11030,001,2024_Jan_11_0822,ANT,2021.2.3,60.09265078494192,
1,20,spatial,up,IC,R,,,,,,Block.xlsx,"你已经完成了第一个实验区组

请稍作休息


点击空格键进入下一个区组。",1.5,0,1.5,right,LLRLL.png,,,,,0,0,0,0,1,2,26,19,,,,,,,,,,,,,,,,,,,,,,,,,,,,,,,,,,,,,,,,,,,,,,,,,,,,,,,,,,,,,,,,120.7151677000802,121.11565320007503,121.09907060000114,121.20034900004975,121.59972850000486,None,right,1,0.4841883999761194,121.59972850000486,None,121.09907060000114,121.20034900004975,121.20034900004975,None,122.09976810007356,None,,,,,,,11030,001,2024_Jan_11_0822,ANT,2021.2.3,60.09265078494192,
1,7,no,down,IC,L,,,,,,Block.xlsx,"你已经完成了第一个实验区组

请稍作休息


点击空格键进入下一个区组。",50,0,-1.5,left,RRLRR.png,,,,,0,0,0,0,1,3,27,6,,,,,,,,,,,,,,,,,,,,,,,,,,,,,,,,,,,,,,,,,,,,,,,,,,,,,,,,,,,,,,,,122.50125210010447,122.90133960009553,122.88568890001625,122.9853600000497,123.38650780008174,None,left,1,0.6243335001636297,123.38650780008174,None,122.88568890001625,122.9853600000497,122.9853600000497,None,124.03646870004013,None,,,,,,,11030,001,2024_Jan_11_0822,ANT,2021.2.3,60.09265078494192,
1,21,spatial,down,C,L,,,,,,Block.xlsx,"你已经完成了第一个实验区组

请稍作休息


点击空格键进入下一个区组。",-1.5,0,-1.5,left,LLLLL.png,,,,,0,0,0,0,1,4,28,20,,,,,,,,,,,,,,,,,,,,,,,,,,,,,,,,,,,,,,,,,,,,,,,,,,,,,,,,,,,,,,,,124.43763620010577,124.83843160001561,124.82073760009371,124.92118770000525,125.32110280008055,None,left,1,0.4412106000818312,125.32110280008055,None,124.82073760009371,124.92118770000525,124.92118770000525,None,125.78871129988693,None,,,,,,,11030,001,2024_Jan_11_0822,ANT,2021.2.3,60.09265078494192,
1,5,no,down,C,L,,,,,,Block.xlsx,"你已经完成了第一个实验区组

请稍作休息


点击空格键进入下一个区组。",50,0,-1.5,left,LLLLL.png,,,,,0,0,0,0,1,5,29,4,,,,,,,,,,,,,,,,,,,,,,,,,,,,,,,,,,,,,,,,,,,,,,,,,,,,,,,,,,,,,,,,126.18927110009827,126.59003060008399,126.57391989999451,126.67456689989194,127.07408479996957,None,left,1,0.5364481001161039,127.07408479996957,None,126.57391989999451,126.67456689989194,126.67456689989194,None,127.6246263999492,None,,,,,,,11030,001,2024_Jan_11_0822,ANT,2021.2.3,60.09265078494192,
1,7,no,down,IC,L,,,,,,Block.xlsx,"你已经完成了第一个实验区组

请稍作休息


点击空格键进入下一个区组。",50,0,-1.5,left,RRLRR.png,,,,,0,0,0,0,1,6,30,6,,,,,,,,,,,,,,,,,,,,,,,,,,,,,,,,,,,,,,,,,,,,,,,,,,,,,,,,,,,,,,,,128.0255483998917,128.42617210000753,128.41022419999354,128.51086149993353,128.910181599902,None,left,1,0.6281686001457274,128.910181599902,None,128.41022419999354,128.51086149993353,128.51086149993353,None,129.56098770000972,None,,,,,,,11030,001,2024_Jan_11_0822,ANT,2021.2.3,60.09265078494192,
1,10,center,up,C,R,,,,,,Block.xlsx,"你已经完成了第一个实验区组

请稍作休息


点击空格键进入下一个区组。",0,50,1.5,right,RRRRR.png,,,,,0,0,0,0,1,7,31,9,,,,,,,,,,,,,,,,,,,,,,,,,,,,,,,,,,,,,,,,,,,,,,,,,,,,,,,,,,,,,,,,129.9616634999402,130.36348449997604,130.34535650000907,130.44602539995685,130.8484892998822,None,right,1,0.48190779983997345,130.8484892998822,None,130.34535650000907,130.44602539995685,130.44602539995685,None,131.34716519992799,None,,,,,,,11030,001,2024_Jan_11_0822,ANT,2021.2.3,60.09265078494192,
1,18,spatial,up,C,R,,,,,,Block.xlsx,"你已经完成了第一个实验区组

请稍作休息


点击空格键进入下一个区组。",1.5,0,1.5,right,RRRRR.png,,,,,0,0,0,0,1,8,32,17,,,,,,,,,,,,,,,,,,,,,,,,,,,,,,,,,,,,,,,,,,,,,,,,,,,,,,,,,,,,,,,,131.74799759988673,132.14881510008126,132.132441499969,132.2317810000386,132.6321622999385,None,right,1,0.5222863000817597,132.6321622999385,None,132.132441499969,132.2317810000386,132.2317810000386,None,133.1828715999145,None,,,,,,,11030,001,2024_Jan_11_0822,ANT,2021.2.3,60.09265078494192,
1,9,center,up,C,L,,,,,,Block.xlsx,"你已经完成了第一个实验区组

请稍作休息


点击空格键进入下一个区组。",0,50,1.5,left,LLLLL.png,,,,,0,0,0,0,1,9,33,8,,,,,,,,,,,,,,,,,,,,,,,,,,,,,,,,,,,,,,,,,,,,,,,,,,,,,,,,,,,,,,,,133.5836893999949,133.98530029994436,133.96947330003604,134.08512099995278,134.46816949988715,None,left,1,0.4859480999875814,134.46816949988715,None,133.96947330003604,134.08512099995278,134.06758160004392,None,134.98583870008588,None,,,,,,,11030,001,2024_Jan_11_0822,ANT,2021.2.3,60.09265078494192,
1,13,center,down,C,L,,,,,,Block.xlsx,"你已经完成了第一个实验区组

请稍作休息


点击空格键进入下一个区组。",0,50,-1.5,left,LLLLL.png,,,,,0,0,0,0,1,10,34,12,,,,,,,,,,,,,,,,,,,,,,,,,,,,,,,,,,,,,,,,,,,,,,,,,,,,,,,,,,,,,,,,135.38741629989818,135.78772619995289,135.77020650007762,135.87023209990002,136.2708236000035,None,left,1,0.4280199999921024,136.2708236000035,None,135.77020650007762,135.87023209990002,135.87023209990002,None,136.7216775000561,None,,,,,,,11030,001,2024_Jan_11_0822,ANT,2021.2.3,60.09265078494192,
1,24,spatial,down,IC,R,,,,,,Block.xlsx,"你已经完成了第一个实验区组

请稍作休息


点击空格键进入下一个区组。",-1.5,0,-1.5,right,LLRLL.png,,,,,0,0,0,0,1,11,35,23,,,,,,,,,,,,,,,,,,,,,,,,,,,,,,,,,,,,,,,,,,,,,,,,,,,,,,,,,,,,,,,,137.12221050006337,137.5240251000505,137.50691229989752,137.60671410011128,138.00731009989977,None,right,1,0.7071230998262763,138.00731009989977,None,137.50691229989752,137.60671410011128,137.60671410011128,None,138.741258099908,None,,,,,,,11030,001,2024_Jan_11_0822,ANT,2021.2.3,60.09265078494192,
1,16,center,down,IC,R,,,,,,Block.xlsx,"你已经完成了第一个实验区组

请稍作休息


点击空格键进入下一个区组。",0,50,-1.5,right,LLRLL.png,,,,,0,0,0,0,1,12,36,15,,,,,,,,,,,,,,,,,,,,,,,,,,,,,,,,,,,,,,,,,,,,,,,,,,,,,,,,,,,,,,,,139.14194020000286,139.54306830000132,139.52679769997485,139.62765450007282,140.0272959000431,None,left,0,0.43118719989433885,140.0272959000431,None,139.52679769997485,139.62765450007282,139.62765450007282,None,140.4771708000917,None,,,,,,,11030,001,2024_Jan_11_0822,ANT,2021.2.3,60.09265078494192,
1,14,center,down,C,R,,,,,,Block.xlsx,"你已经完成了第一个实验区组

请稍作休息


点击空格键进入下一个区组。",0,50,-1.5,right,RRRRR.png,,,,,0,0,0,0,1,13,37,13,,,,,,,,,,,,,,,,,,,,,,,,,,,,,,,,,,,,,,,,,,,,,,,,,,,,,,,,,,,,,,,,140.87784840003587,141.27907839999534,141.26364700007252,141.3622566999402,141.7630225000903,None,right,1,0.41568089998327196,141.7630225000903,None,141.26364700007252,141.3622566999402,141.3622566999402,None,142.19638419989496,None,,,,,,,11030,001,2024_Jan_11_0822,ANT,2021.2.3,60.09265078494192,
1,22,spatial,down,C,R,,,,,,Block.xlsx,"你已经完成了第一个实验区组

请稍作休息


点击空格键进入下一个区组。",-1.5,0,-1.5,right,RRRRR.png,,,,,0,0,0,0,1,14,38,21,,,,,,,,,,,,,,,,,,,,,,,,,,,,,,,,,,,,,,,,,,,,,,,,,,,,,,,,,,,,,,,,142.59749060007744,142.99889989988878,142.9810629999265,143.0815026999917,143.48370860004798,None,right,1,0.35059749986976385,143.48370860004798,None,142.9810629999265,143.0815026999917,143.0815026999917,None,143.86558660003357,None,,,,,,,11030,001,2024_Jan_11_0822,ANT,2021.2.3,60.09265078494192,
1,1,no,up,C,L,,,,,,Block.xlsx,"你已经完成了第一个实验区组

请稍作休息


点击空格键进入下一个区组。",50,0,1.5,left,LLLLL.png,,,,,0,0,0,0,1,15,39,0,,,,,,,,,,,,,,,,,,,,,,,,,,,,,,,,,,,,,,,,,,,,,,,,,,,,,,,,,,,,,,,,144.26612740010023,144.66839189990424,144.65049690008163,144.75177709991112,145.15138490009122,None,left,1,0.4513105999212712,145.15138490009122,None,144.65049690008163,144.75177709991112,144.75177709991112,None,145.61809029988945,None,,,,,,,11030,001,2024_Jan_11_0822,ANT,2021.2.3,60.09265078494192,
1,7,no,down,IC,L,,,,,,Block.xlsx,"你已经完成了第一个实验区组

请稍作休息


点击空格键进入下一个区组。",50,0,-1.5,left,RRLRR.png,,,,,0,0,0,0,1,16,40,6,,,,,,,,,,,,,,,,,,,,,,,,,,,,,,,,,,,,,,,,,,,,,,,,,,,,,,,,,,,,,,,,146.01864139991812,146.4213878000155,146.40269619994797,146.5027177000884,146.90393420006149,None,right,0,0.4424948999658227,146.90393420006149,None,146.40269619994797,146.5027177000884,146.5027177000884,None,147.370844299905,None,,,,,,,11030,001,2024_Jan_11_0822,ANT,2021.2.3,60.09265078494192,
1,5,no,down,C,L,,,,,,Block.xlsx,"你已经完成了第一个实验区组

请稍作休息


点击空格键进入下一个区组。",50,0,-1.5,left,LLLLL.png,,,,,0,0,0,0,1,17,41,4,,,,,,,,,,,,,,,,,,,,,,,,,,,,,,,,,,,,,,,,,,,,,,,,,,,,,,,,,,,,,,,,147.77133170003071,148.17306219995953,148.15541759994812,148.25677819992416,148.65671269991435,None,left,1,0.4336969000287354,148.65671269991435,None,148.15541759994812,148.25677819992416,148.25677819992416,None,149.10664639994502,None,,,,,,,11030,001,2024_Jan_11_0822,ANT,2021.2.3,60.09265078494192,
1,2,no,up,C,R,,,,,,Block.xlsx,"你已经完成了第一个实验区组

请稍作休息


点击空格键进入下一个区组。",50,0,1.5,right,RRRRR.png,,,,,0,0,0,0,1,18,42,1,,,,,,,,,,,,,,,,,,,,,,,,,,,,,,,,,,,,,,,,,,,,,,,,,,,,,,,,,,,,,,,,149.50719840009697,149.90997010003775,149.8915659999475,149.99180960003287,150.39198380010203,None,right,1,0.4665995999239385,150.39198380010203,None,149.8915659999475,149.99180960003287,149.99180960003287,None,150.87599329999648,None,,,,,,,11030,001,2024_Jan_11_0822,ANT,2021.2.3,60.09265078494192,
1,19,spatial,up,IC,L,,,,,,Block.xlsx,"你已经完成了第一个实验区组

请稍作休息


点击空格键进入下一个区组。",1.5,0,1.5,left,RRLRR.png,,,,,0,0,0,0,1,19,43,18,,,,,,,,,,,,,,,,,,,,,,,,,,,,,,,,,,,,,,,,,,,,,,,,,,,,,,,,,,,,,,,,151.2762655999977,151.67902859998867,151.66092989989556,151.761555199977,152.16115739988163,None,left,1,0.5131701999343932,152.16115739988163,None,151.66092989989556,151.761555199977,151.761555199977,None,152.69674909999594,None,,,,,,,11030,001,2024_Jan_11_0822,ANT,2021.2.3,60.09265078494192,
1,6,no,down,C,R,,,,,,Block.xlsx,"你已经完成了第一个实验区组

请稍作休息


点击空格键进入下一个区组。",50,0,-1.5,right,RRRRR.png,,,,,0,0,0,0,1,20,44,5,,,,,,,,,,,,,,,,,,,,,,,,,,,,,,,,,,,,,,,,,,,,,,,,,,,,,,,,,,,,,,,,153.09547140006907,153.49681259994395,153.48085039993748,153.57988459989429,153.98058809991926,None,right,1,0.46222490002401173,153.98058809991926,None,153.48085039993748,153.57988459989429,153.57988459989429,None,154.4644812999759,None,,,,,,,11030,001,2024_Jan_11_0822,ANT,2021.2.3,60.09265078494192,
1,3,no,up,IC,L,,,,,,Block.xlsx,"你已经完成了第一个实验区组

请稍作休息


点击空格键进入下一个区组。",50,0,1.5,left,RRLRR.png,,,,,0,0,0,0,1,21,45,2,,,,,,,,,,,,,,,,,,,,,,,,,,,,,,,,,,,,,,,,,,,,,,,,,,,,,,,,,,,,,,,,154.8657486999873,155.26601410005242,155.2498798999004,155.3498756000772,155.75121439993382,None,left,1,0.5870340999681503,155.75121439993382,None,155.2498798999004,155.3498756000772,155.3498756000772,None,156.3674681999255,None,,,,,,,11030,001,2024_Jan_11_0822,ANT,2021.2.3,60.09265078494192,
1,9,center,up,C,L,,,,,,Block.xlsx,"你已经完成了第一个实验区组

请稍作休息


点击空格键进入下一个区组。",0,50,1.5,left,LLLLL.png,,,,,0,0,0,0,1,22,46,8,,,,,,,,,,,,,,,,,,,,,,,,,,,,,,,,,,,,,,,,,,,,,,,,,,,,,,,,,,,,,,,,156.76803819998167,157.16964349988848,157.1517616000492,157.25204690010287,157.65353509993292,None,left,1,0.4287489000707865,157.65353509993292,None,157.1517616000492,157.25204690010287,157.25204690010287,None,158.10318419989198,None,,,,,,,11030,001,2024_Jan_11_0822,ANT,2021.2.3,60.09265078494192,
1,9,center,up,C,L,,,,,,Block.xlsx,"你已经完成了第一个实验区组

请稍作休息


点击空格键进入下一个区组。",0,50,1.5,left,LLLLL.png,,,,,0,0,0,0,1,23,47,8,,,,,,,,,,,,,,,,,,,,,,,,,,,,,,,,,,,,,,,,,,,,,,,,,,,,,,,,,,,,,,,,158.50382019998506,158.90549980010837,158.88815169990994,158.98886670009233,159.38874599989504,None,left,1,0.5180156000424176,159.38874599989504,None,158.88815169990994,158.98886670009233,158.98886670009233,None,159.92291769990698,None,,,,,,,11030,001,2024_Jan_11_0822,ANT,2021.2.3,60.09265078494192,
1,16,center,down,IC,R,,,,,,Block.xlsx,"你已经完成了第一个实验区组

请稍作休息


点击空格键进入下一个区组。",0,50,-1.5,right,LLRLL.png,,,,,0,0,0,0,2,0,48,15,,,,,,,,,,,,,,,,,,,,,,,,,,,,,,,,,,,,,,,,,,,,,,,,,,,,,,,,,,,,,,,,160.32309879991226,160.72577970009297,160.70758050004952,160.80732830008492,161.208188300021,None,right,1,0.6420591999776661,161.208188300021,None,160.70758050004952,160.80732830008492,160.80732830008492,None,161.87559069995768,None,,,,,,,11030,001,2024_Jan_11_0822,ANT,2021.2.3,60.09265078494192,
1,18,spatial,up,C,R,,,,,,Block.xlsx,"你已经完成了第一个实验区组

请稍作休息


点击空格键进入下一个区组。",1.5,0,1.5,right,RRRRR.png,,,,,0,0,0,0,2,1,49,17,,,,,,,,,,,,,,,,,,,,,,,,,,,,,,,,,,,,,,,,,,,,,,,,,,,,,,,,,,,,,,,,162.27602019999176,162.677504299907,162.6598626000341,162.7606951999478,163.16130089992657,None,right,1,0.3849603000562638,163.16130089992657,None,162.6598626000341,162.7606951999478,162.7606951999478,None,163.57810769998468,None,,,,,,,11030,001,2024_Jan_11_0822,ANT,2021.2.3,60.09265078494192,
1,15,center,down,IC,L,,,,,,Block.xlsx,"你已经完成了第一个实验区组

请稍作休息


点击空格键进入下一个区组。",0,50,-1.5,left,RRLRR.png,,,,,0,0,0,0,2,2,50,14,,,,,,,,,,,,,,,,,,,,,,,,,,,,,,,,,,,,,,,,,,,,,,,,,,,,,,,,,,,,,,,,163.97853780002333,164.37944460008293,164.36473509995267,164.4800116000697,164.8643934999127,None,left,1,0.6418147999793291,164.8643934999127,None,164.36473509995267,164.4800116000697,164.4627948999405,None,165.53104069991969,None,,,,,,,11030,001,2024_Jan_11_0822,ANT,2021.2.3,60.09265078494192,
1,3,no,up,IC,L,,,,,,Block.xlsx,"你已经完成了第一个实验区组

请稍作休息


点击空格键进入下一个区组。",50,0,1.5,left,RRLRR.png,,,,,0,0,0,0,2,3,51,2,,,,,,,,,,,,,,,,,,,,,,,,,,,,,,,,,,,,,,,,,,,,,,,,,,,,,,,,,,,,,,,,165.93166609993204,166.33214409998618,166.31676910002716,166.41682230005972,166.81638389988802,None,right,0,0.44196829991415143,166.81638389988802,None,166.31676910002716,166.41682230005972,166.41682230005972,None,167.28352979989722,None,,,,,,,11030,001,2024_Jan_11_0822,ANT,2021.2.3,60.09265078494192,
1,6,no,down,C,R,,,,,,Block.xlsx,"你已经完成了第一个实验区组

请稍作休息


点击空格键进入下一个区组。",50,0,-1.5,right,RRRRR.png,,,,,0,0,0,0,2,4,52,5,,,,,,,,,,,,,,,,,,,,,,,,,,,,,,,,,,,,,,,,,,,,,,,,,,,,,,,,,,,,,,,,167.6841416999232,168.08488980005495,168.0683307000436,168.16812769998796,168.56896400009282,None,right,1,0.473261300008744,168.56896400009282,None,168.0683307000436,168.16812769998796,168.16812769998796,None,169.06931759999134,None,,,,,,,11030,001,2024_Jan_11_0822,ANT,2021.2.3,60.09265078494192,
1,11,center,up,IC,L,,,,,,Block.xlsx,"你已经完成了第一个实验区组

请稍作休息


点击空格键进入下一个区组。",0,50,1.5,left,RRLRR.png,,,,,0,0,0,0,2,5,53,10,,,,,,,,,,,,,,,,,,,,,,,,,,,,,,,,,,,,,,,,,,,,,,,,,,,,,,,,,,,,,,,,169.47057079989463,169.8710934999399,169.85489169997163,169.95556259993464,170.35509219998494,None,left,1,0.5673541000578552,170.35509219998494,None,169.85489169997163,169.95556259993464,169.95556259993464,None,170.93884580000304,None,,,,,,,11030,001,2024_Jan_11_0822,ANT,2021.2.3,60.09265078494192,
1,2,no,up,C,R,,,,,,Block.xlsx,"你已经完成了第一个实验区组

请稍作休息


点击空格键进入下一个区组。",50,0,1.5,right,RRRRR.png,,,,,0,0,0,0,2,6,54,1,,,,,,,,,,,,,,,,,,,,,,,,,,,,,,,,,,,,,,,,,,,,,,,,,,,,,,,,,,,,,,,,171.33953440003097,171.7410538000986,171.72403719997965,171.82510040001944,172.22443150007166,None,right,1,0.5219534002244473,172.22443150007166,None,171.72403719997965,171.82510040001944,171.82510040001944,None,172.7750341000501,None,,,,,,,11030,001,2024_Jan_11_0822,ANT,2021.2.3,60.09265078494192,
1,21,spatial,down,C,L,,,,,,Block.xlsx,"你已经完成了第一个实验区组

请稍作休息


点击空格键进入下一个区组。",-1.5,0,-1.5,left,LLLLL.png,,,,,0,0,0,0,2,7,55,20,,,,,,,,,,,,,,,,,,,,,,,,,,,,,,,,,,,,,,,,,,,,,,,,,,,,,,,,,,,,,,,,173.17564029991627,173.5763050999958,173.55976479989477,173.6606010000687,174.06120179989375,None,left,1,0.4056001999415457,174.06120179989375,None,173.55976479989477,173.6606010000687,173.6606010000687,None,174.49433410004713,None,,,,,,,11030,001,2024_Jan_11_0822,ANT,2021.2.3,60.09265078494192,
1,17,spatial,up,C,L,,,,,,Block.xlsx,"你已经完成了第一个实验区组

请稍作休息


点击空格键进入下一个区组。",1.5,0,1.5,left,LLLLL.png,,,,,0,0,0,0,2,8,56,16,,,,,,,,,,,,,,,,,,,,,,,,,,,,,,,,,,,,,,,,,,,,,,,,,,,,,,,,,,,,,,,,174.89575279993005,175.29643710004166,175.2789282000158,175.3796484998893,175.78138260007836,None,left,1,0.41378009994514287,175.78138260007836,None,175.2789282000158,175.3796484998893,175.3796484998893,None,176.21316040004604,None,,,,,,,11030,001,2024_Jan_11_0822,ANT,2021.2.3,60.09265078494192,
1,4,no,up,IC,R,,,,,,Block.xlsx,"你已经完成了第一个实验区组

请稍作休息


点击空格键进入下一个区组。",50,0,1.5,right,LLRLL.png,,,,,0,0,0,0,2,9,57,3,,,,,,,,,,,,,,,,,,,,,,,,,,,,,,,,,,,,,,,,,,,,,,,,,,,,,,,,,,,,,,,,176.6141675999388,177.01506759994663,176.99931100010872,177.11542980000377,177.4988277000375,None,right,1,0.5276070002000779,177.4988277000375,None,176.99931100010872,177.11542980000377,177.09922580001876,None,178.0493888000492,None,,,,,,,11030,001,2024_Jan_11_0822,ANT,2021.2.3,60.09265078494192,
1,10,center,up,C,R,,,,,,Block.xlsx,"你已经完成了第一个实验区组

请稍作休息


点击空格键进入下一个区组。",0,50,1.5,right,RRRRR.png,,,,,0,0,0,0,2,10,58,9,,,,,,,,,,,,,,,,,,,,,,,,,,,,,,,,,,,,,,,,,,,,,,,,,,,,,,,,,,,,,,,,178.4500347999856,178.85124129988253,178.83449400006793,178.9344160000328,179.33453659992665,None,right,1,0.4917876999825239,179.33453659992665,None,178.83449400006793,178.9344160000328,178.9344160000328,None,179.85250329994597,None,,,,,,,11030,001,2024_Jan_11_0822,ANT,2021.2.3,60.09265078494192,
1,5,no,down,C,L,,,,,,Block.xlsx,"你已经完成了第一个实验区组

请稍作休息


点击空格键进入下一个区组。",50,0,-1.5,left,LLLLL.png,,,,,0,0,0,0,2,11,59,4,,,,,,,,,,,,,,,,,,,,,,,,,,,,,,,,,,,,,,,,,,,,,,,,,,,,,,,,,,,,,,,,180.25300960009918,180.6539996000938,180.63826219993643,180.7369562999811,181.13761279988103,None,left,1,0.48869549995288253,181.13761279988103,None,180.63826219993643,180.7369562999811,180.7369562999811,None,181.65528810000978,None,,,,,,,11030,001,2024_Jan_11_0822,ANT,2021.2.3,60.09265078494192,
1,14,center,down,C,R,,,,,,Block.xlsx,"你已经完成了第一个实验区组

请稍作休息


点击空格键进入下一个区组。",0,50,-1.5,right,RRRRR.png,,,,,0,0,0,0,2,12,60,13,,,,,,,,,,,,,,,,,,,,,,,,,,,,,,,,,,,,,,,,,,,,,,,,,,,,,,,,,,,,,,,,182.05541280005127,182.45598850003444,182.43963210005313,182.5405665000435,182.94253630004823,None,right,1,0.3962150001898408,182.94253630004823,None,182.43963210005313,182.5405665000435,182.5405665000435,None,183.3572501000017,None,,,,,,,11030,001,2024_Jan_11_0822,ANT,2021.2.3,60.09265078494192,
1,8,no,down,IC,R,,,,,,Block.xlsx,"你已经完成了第一个实验区组

请稍作休息


点击空格键进入下一个区组。",50,0,-1.5,right,LLRLL.png,,,,,0,0,0,0,2,13,61,7,,,,,,,,,,,,,,,,,,,,,,,,,,,,,,,,,,,,,,,,,,,,,,,,,,,,,,,,,,,,,,,,183.75804369989783,184.15908359992318,184.14293120009825,184.24345960002393,184.6434847000055,None,right,1,0.534908400150016,184.6434847000055,None,184.14293120009825,184.24345960002393,184.24345960002393,None,185.19345079991035,None,,,,,,,11030,001,2024_Jan_11_0822,ANT,2021.2.3,60.09265078494192,
1,23,spatial,down,IC,L,,,,,,Block.xlsx,"你已经完成了第一个实验区组

请稍作休息


点击空格键进入下一个区组。",-1.5,0,-1.5,left,RRLRR.png,,,,,0,0,0,0,2,14,62,22,,,,,,,,,,,,,,,,,,,,,,,,,,,,,,,,,,,,,,,,,,,,,,,,,,,,,,,,,,,,,,,,185.5940443999134,185.99529749993235,185.98000440001488,186.09508719993755,186.47859339998104,None,left,1,0.46921450016088784,186.47859339998104,None,185.98000440001488,186.09508719993755,186.07821370009333,None,186.9628041998949,None,,,,,,,11030,001,2024_Jan_11_0822,ANT,2021.2.3,60.09265078494192,
1,16,center,down,IC,R,,,,,,Block.xlsx,"你已经完成了第一个实验区组

请稍作休息


点击空格键进入下一个区组。",0,50,-1.5,right,LLRLL.png,,,,,0,0,0,0,2,15,63,15,,,,,,,,,,,,,,,,,,,,,,,,,,,,,,,,,,,,,,,,,,,,,,,,,,,,,,,,,,,,,,,,187.36397790000774,187.7643565000035,187.74781049997546,187.84758269996382,188.24790570000187,None,right,1,0.5703680999577045,188.24790570000187,None,187.74781049997546,187.84758269996382,187.84758269996382,None,188.84887290000916,None,,,,,,,11030,001,2024_Jan_11_0822,ANT,2021.2.3,60.09265078494192,
1,12,center,up,IC,R,,,,,,Block.xlsx,"你已经完成了第一个实验区组

请稍作休息


点击空格键进入下一个区组。",0,50,1.5,right,LLRLL.png,,,,,0,0,0,0,2,16,64,11,,,,,,,,,,,,,,,,,,,,,,,,,,,,,,,,,,,,,,,,,,,,,,,,,,,,,,,,,,,,,,,,189.25007670000196,189.65185049991123,189.63332209992222,189.73352920007892,190.1349955999758,None,right,1,0.6112160000484437,190.1349955999758,None,189.63332209992222,189.73352920007892,189.73352920007892,None,190.76829229993746,None,,,,,,,11030,001,2024_Jan_11_0822,ANT,2021.2.3,60.09265078494192,
1,23,spatial,down,IC,L,,,,,,Block.xlsx,"你已经完成了第一个实验区组

请稍作休息


点击空格键进入下一个区组。",-1.5,0,-1.5,left,RRLRR.png,,,,,0,0,0,0,2,17,65,22,,,,,,,,,,,,,,,,,,,,,,,,,,,,,,,,,,,,,,,,,,,,,,,,,,,,,,,,,,,,,,,,191.16893960000016,191.5696169999428,191.55335499998182,191.65311229997315,192.05365219991654,None,left,1,0.6287714999634773,192.05365219991654,None,191.55335499998182,191.65311229997315,191.65311229997315,None,192.70447600004263,None,,,,,,,11030,001,2024_Jan_11_0822,ANT,2021.2.3,60.09265078494192,
1,24,spatial,down,IC,R,,,,,,Block.xlsx,"你已经完成了第一个实验区组

请稍作休息


点击空格键进入下一个区组。",-1.5,0,-1.5,right,LLRLL.png,,,,,0,0,0,0,2,18,66,23,,,,,,,,,,,,,,,,,,,,,,,,,,,,,,,,,,,,,,,,,,,,,,,,,,,,,,,,,,,,,,,,193.1051376000978,193.5062140999362,193.48904870008118,193.59009719989263,193.99048359994777,None,right,1,0.38055880018509924,193.99048359994777,None,193.48904870008118,193.59009719989263,193.59009719989263,None,194.390180000104,None,,,,,,,11030,001,2024_Jan_11_0822,ANT,2021.2.3,60.09265078494192,
1,3,no,up,IC,L,,,,,,Block.xlsx,"你已经完成了第一个实验区组

请稍作休息


点击空格键进入下一个区组。",50,0,1.5,left,RRLRR.png,,,,,0,0,0,0,2,19,67,2,,,,,,,,,,,,,,,,,,,,,,,,,,,,,,,,,,,,,,,,,,,,,,,,,,,,,,,,,,,,,,,,194.7908693999052,195.1923642999027,195.1748911999166,195.276276800083,195.6756525998935,None,left,1,0.5831152000464499,195.6756525998935,None,195.1748911999166,195.276276800083,195.276276800083,None,196.2764109999407,None,,,,,,,11030,001,2024_Jan_11_0822,ANT,2021.2.3,60.09265078494192,
1,13,center,down,C,L,,,,,,Block.xlsx,"你已经完成了第一个实验区组

请稍作休息


点击空格键进入下一个区组。",0,50,-1.5,left,LLLLL.png,,,,,0,0,0,0,2,20,68,12,,,,,,,,,,,,,,,,,,,,,,,,,,,,,,,,,,,,,,,,,,,,,,,,,,,,,,,,,,,,,,,,196.6775265999604,197.07811419991776,197.06161829992197,197.1610067000147,197.56332399998792,None,left,1,0.4791623998899013,197.56332399998792,None,197.06161829992197,197.1610067000147,197.1610067000147,None,198.06226620008238,None,,,,,,,11030,001,2024_Jan_11_0822,ANT,2021.2.3,60.09265078494192,
1,23,spatial,down,IC,L,,,,,,Block.xlsx,"你已经完成了第一个实验区组

请稍作休息


点击空格键进入下一个区组。",-1.5,0,-1.5,left,RRLRR.png,,,,,0,0,0,0,2,21,69,22,,,,,,,,,,,,,,,,,,,,,,,,,,,,,,,,,,,,,,,,,,,,,,,,,,,,,,,,,,,,,,,,198.46387490001507,198.8643193000462,198.8468547000084,198.94940929999575,199.34860930009745,None,left,1,0.4857997000217438,199.34860930009745,None,198.8468547000084,198.94940929999575,198.94940929999575,None,199.86513780010864,None,,,,,,,11030,001,2024_Jan_11_0822,ANT,2021.2.3,60.09265078494192,
1,18,spatial,up,C,R,,,,,,Block.xlsx,"你已经完成了第一个实验区组

请稍作休息


点击空格键进入下一个区组。",1.5,0,1.5,right,RRRRR.png,,,,,0,0,0,0,2,22,70,17,,,,,,,,,,,,,,,,,,,,,,,,,,,,,,,,,,,,,,,,,,,,,,,,,,,,,,,,,,,,,,,,200.26584380003624,200.6684906000737,200.64946580003016,200.7518432000652,201.15196670009755,None,right,1,0.37887170002795756,201.15196670009755,None,200.64946580003016,200.7518432000652,200.7518432000652,None,201.55086189997382,None,,,,,,,11030,001,2024_Jan_11_0822,ANT,2021.2.3,60.09265078494192,
1,19,spatial,up,IC,L,,,,,,Block.xlsx,"你已经完成了第一个实验区组

请稍作休息


点击空格键进入下一个区组。",1.5,0,1.5,left,RRLRR.png,,,,,0,0,0,0,2,23,71,18,,,,,,,,,,,,,,,,,,,,,,,,,,,,,,,,,,,,,,,,,,,,,,,,,,,,,,,,,,,,,,,,201.951638400089,202.35407610004768,202.3354277999606,202.43700710008852,202.8370467000641,None,left,1,0.38934999983757734,202.8370467000641,None,202.3354277999606,202.43700710008852,202.43700710008852,None,203.25363270007074,None,,,,,,,11030,001,2024_Jan_11_0822,ANT,2021.2.3,60.09265078494192,
1,11,center,up,IC,L,,,,,,Block.xlsx,"你已经完成了第一个实验区组

请稍作休息


点击空格键进入下一个区组。",0,50,1.5,left,RRLRR.png,,,,,0,0,0,0,3,0,72,10,,,,,,,,,,,,,,,,,,,,,,,,,,,,,,,,,,,,,,,,,,,,,,,,,,,,,,,,,,,,,,,,203.654187399894,204.0566281999927,204.0386965998914,204.1400192999281,204.53948100004345,None,left,1,0.5189783999230713,204.53948100004345,None,204.0386965998914,204.1400192999281,204.1400192999281,None,205.0728833999019,None,,,,,,,11030,001,2024_Jan_11_0822,ANT,2021.2.3,60.09265078494192,
1,22,spatial,down,C,R,,,,,,Block.xlsx,"你已经完成了第一个实验区组

请稍作休息


点击空格键进入下一个区组。",-1.5,0,-1.5,right,RRRRR.png,,,,,0,0,0,0,3,1,73,21,,,,,,,,,,,,,,,,,,,,,,,,,,,,,,,,,,,,,,,,,,,,,,,,,,,,,,,,,,,,,,,,205.4734833999537,205.87406660011038,205.85833339998499,205.95798720000312,206.35836150008254,None,right,1,0.35613329987972975,206.35836150008254,None,205.85833339998499,205.95798720000312,205.95798720000312,None,206.74203129997477,None,,,,,,,11030,001,2024_Jan_11_0822,ANT,2021.2.3,60.09265078494192,
1,18,spatial,up,C,R,,,,,,Block.xlsx,"你已经完成了第一个实验区组

请稍作休息


点击空格键进入下一个区组。",1.5,0,1.5,right,RRRRR.png,,,,,0,0,0,0,3,2,74,17,,,,,,,,,,,,,,,,,,,,,,,,,,,,,,,,,,,,,,,,,,,,,,,,,,,,,,,,,,,,,,,,207.14341740007512,207.5435132998973,207.52732519991696,207.62669329997152,208.02751550008543,None,right,1,0.3587864001747221,208.02751550008543,None,207.52732519991696,207.62669329997152,207.62669329997152,None,208.41178680001758,None,,,,,,,11030,001,2024_Jan_11_0822,ANT,2021.2.3,60.09265078494192,
1,6,no,down,C,R,,,,,,Block.xlsx,"你已经完成了第一个实验区组

请稍作休息


点击空格键进入下一个区组。",50,0,-1.5,right,RRRRR.png,,,,,0,0,0,0,3,3,75,5,,,,,,,,,,,,,,,,,,,,,,,,,,,,,,,,,,,,,,,,,,,,,,,,,,,,,,,,,,,,,,,,208.81216769991443,209.2133857998997,209.1957394001074,209.2970006999094,209.69797559990548,None,right,1,0.3924671998247504,209.69797559990548,None,209.1957394001074,209.2970006999094,209.2970006999094,None,210.114626100054,None,,,,,,,11030,001,2024_Jan_11_0822,ANT,2021.2.3,60.09265078494192,
1,6,no,down,C,R,,,,,,Block.xlsx,"你已经完成了第一个实验区组

请稍作休息


点击空格键进入下一个区组。",50,0,-1.5,right,RRRRR.png,,,,,0,0,0,0,3,4,76,5,,,,,,,,,,,,,,,,,,,,,,,,,,,,,,,,,,,,,,,,,,,,,,,,,,,,,,,,,,,,,,,,210.51607690006495,210.91665060003288,210.8995833999943,210.9996529999189,211.39946980006061,None,right,1,0.40312390006147325,211.39946980006061,None,210.8995833999943,210.9996529999189,210.9996529999189,None,211.8332998000551,None,,,,,,,11030,001,2024_Jan_11_0822,ANT,2021.2.3,60.09265078494192,
1,15,center,down,IC,L,,,,,,Block.xlsx,"你已经完成了第一个实验区组

请稍作休息


点击空格键进入下一个区组。",0,50,-1.5,left,RRLRR.png,,,,,0,0,0,0,3,5,77,14,,,,,,,,,,,,,,,,,,,,,,,,,,,,,,,,,,,,,,,,,,,,,,,,,,,,,,,,,,,,,,,,212.23387919995002,212.63402789994143,212.61789439991117,212.7174239999149,213.11915710009634,None,left,1,0.6272827000357211,213.11915710009634,None,212.61789439991117,212.7174239999149,212.7174239999149,None,213.7694240999408,None,,,,,,,11030,001,2024_Jan_11_0822,ANT,2021.2.3,60.09265078494192,
1,14,center,down,C,R,,,,,,Block.xlsx,"你已经完成了第一个实验区组

请稍作休息


点击空格键进入下一个区组。",0,50,-1.5,right,RRRRR.png,,,,,0,0,0,0,3,6,78,13,,,,,,,,,,,,,,,,,,,,,,,,,,,,,,,,,,,,,,,,,,,,,,,,,,,,,,,,,,,,,,,,214.169629199896,214.57143180002458,214.55406820005737,214.65401430008933,215.0558229999151,None,right,1,0.44264669995754957,215.0558229999151,None,214.55406820005737,214.65401430008933,214.65401430008933,None,215.5220168000087,None,,,,,,,11030,001,2024_Jan_11_0822,ANT,2021.2.3,60.09265078494192,
1,23,spatial,down,IC,L,,,,,,Block.xlsx,"你已经完成了第一个实验区组

请稍作休息


点击空格键进入下一个区组。",-1.5,0,-1.5,left,RRLRR.png,,,,,0,0,0,0,3,7,79,22,,,,,,,,,,,,,,,,,,,,,,,,,,,,,,,,,,,,,,,,,,,,,,,,,,,,,,,,,,,,,,,,215.92229950008914,216.32371750008315,216.307889000047,216.42453250009567,216.80886780004948,None,left,1,0.49780309991911054,216.80886780004948,None,216.307889000047,216.42453250009567,216.40751840011217,None,217.3243855999317,None,,,,,,,11030,001,2024_Jan_11_0822,ANT,2021.2.3,60.09265078494192,
1,19,spatial,up,IC,L,,,,,,Block.xlsx,"你已经完成了第一个实验区组

请稍作休息


点击空格键进入下一个区组。",1.5,0,1.5,left,RRLRR.png,,,,,0,0,0,0,3,8,80,18,,,,,,,,,,,,,,,,,,,,,,,,,,,,,,,,,,,,,,,,,,,,,,,,,,,,,,,,,,,,,,,,217.72566089988686,218.12719979998656,218.10898000001907,218.20899490010925,218.61125120008364,None,left,1,0.47149559995159507,218.61125120008364,None,218.10898000001907,218.20899490010925,218.20899490010925,None,219.11028430005535,None,,,,,,,11030,001,2024_Jan_11_0822,ANT,2021.2.3,60.09265078494192,
1,19,spatial,up,IC,L,,,,,,Block.xlsx,"你已经完成了第一个实验区组

请稍作休息


点击空格键进入下一个区组。",1.5,0,1.5,left,RRLRR.png,,,,,0,0,0,0,3,9,81,18,,,,,,,,,,,,,,,,,,,,,,,,,,,,,,,,,,,,,,,,,,,,,,,,,,,,,,,,,,,,,,,,219.5121724999044,219.913338100072,219.8948174000252,219.99681259994395,220.39659020002,None,left,1,0.373781600035727,220.39659020002,None,219.8948174000252,219.99681259994395,219.99681259994395,None,220.79602160002105,None,,,,,,,11030,001,2024_Jan_11_0822,ANT,2021.2.3,60.09265078494192,
1,22,spatial,down,C,R,,,,,,Block.xlsx,"你已经完成了第一个实验区组

请稍作休息


点击空格键进入下一个区组。",-1.5,0,-1.5,right,RRRRR.png,,,,,0,0,0,0,3,10,82,21,,,,,,,,,,,,,,,,,,,,,,,,,,,,,,,,,,,,,,,,,,,,,,,,,,,,,,,,,,,,,,,,221.19673840003088,221.59841390000656,221.5806744999718,221.6807730998844,222.08237580000423,None,right,1,0.34404179989360273,222.08237580000423,None,221.5806744999718,221.6807730998844,221.6807730998844,None,222.44851789996028,None,,,,,,,11030,001,2024_Jan_11_0822,ANT,2021.2.3,60.09265078494192,
1,17,spatial,up,C,L,,,,,,Block.xlsx,"你已经完成了第一个实验区组

请稍作休息


点击空格键进入下一个区组。",1.5,0,1.5,left,LLLLL.png,,,,,0,0,0,0,3,11,83,16,,,,,,,,,,,,,,,,,,,,,,,,,,,,,,,,,,,,,,,,,,,,,,,,,,,,,,,,,,,,,,,,222.84954579989426,223.25001069996506,223.23447640007362,223.33471699990332,223.73390610003844,None,left,1,0.32452280004508793,223.73390610003844,None,223.23447640007362,223.33471699990332,223.33471699990332,None,224.0843889999669,None,,,,,,,11030,001,2024_Jan_11_0822,ANT,2021.2.3,60.09265078494192,
1,1,no,up,C,L,,,,,,Block.xlsx,"你已经完成了第一个实验区组

请稍作休息


点击空格键进入下一个区组。",50,0,1.5,left,LLLLL.png,,,,,0,0,0,0,3,12,84,0,,,,,,,,,,,,,,,,,,,,,,,,,,,,,,,,,,,,,,,,,,,,,,,,,,,,,,,,,,,,,,,,224.48608889989555,224.8863484999165,224.86869170004502,224.97092129988596,225.37152200005949,None,left,1,0.4951094000134617,225.37152200005949,None,224.86869170004502,224.97092129988596,224.97092129988596,None,225.88706180010922,None,,,,,,,11030,001,2024_Jan_11_0822,ANT,2021.2.3,60.09265078494192,
1,13,center,down,C,L,,,,,,Block.xlsx,"你已经完成了第一个实验区组

请稍作休息


点击空格键进入下一个区组。",0,50,-1.5,left,LLLLL.png,,,,,0,0,0,0,3,13,85,12,,,,,,,,,,,,,,,,,,,,,,,,,,,,,,,,,,,,,,,,,,,,,,,,,,,,,,,,,,,,,,,,226.2876210999675,226.68949909997173,226.67139960010536,226.7724391000811,227.172357799951,None,left,1,0.4939563001971692,227.172357799951,None,226.67139960010536,226.7724391000811,226.7724391000811,None,227.68974629999138,None,,,,,,,11030,001,2024_Jan_11_0822,ANT,2021.2.3,60.09265078494192,
1,24,spatial,down,IC,R,,,,,,Block.xlsx,"你已经完成了第一个实验区组

请稍作休息


点击空格键进入下一个区组。",-1.5,0,-1.5,right,LLRLL.png,,,,,0,0,0,0,3,14,86,23,,,,,,,,,,,,,,,,,,,,,,,,,,,,,,,,,,,,,,,,,,,,,,,,,,,,,,,,,,,,,,,,228.090176000027,228.49079099996015,228.47446470009163,228.57593309995718,228.97593580000103,None,right,1,0.586398100014776,228.97593580000103,None,228.47446470009163,228.57593309995718,228.57593309995718,None,229.59254579991102,None,,,,,,,11030,001,2024_Jan_11_0822,ANT,2021.2.3,60.09265078494192,
1,2,no,up,C,R,,,,,,Block.xlsx,"你已经完成了第一个实验区组

请稍作休息


点击空格键进入下一个区组。",50,0,1.5,right,RRRRR.png,,,,,0,0,0,0,3,15,87,1,,,,,,,,,,,,,,,,,,,,,,,,,,,,,,,,,,,,,,,,,,,,,,,,,,,,,,,,,,,,,,,,229.99317390006036,230.3948196999263,230.37704350007698,230.4772787000984,230.87749690003693,None,right,1,0.4927455000579357,230.87749690003693,None,230.37704350007698,230.4772787000984,230.4772787000984,None,231.39526430005208,None,,,,,,,11030,001,2024_Jan_11_0822,ANT,2021.2.3,60.09265078494192,
1,15,center,down,IC,L,,,,,,Block.xlsx,"你已经完成了第一个实验区组

请稍作休息


点击空格键进入下一个区组。",0,50,-1.5,left,RRLRR.png,,,,,0,0,0,0,3,16,88,14,,,,,,,,,,,,,,,,,,,,,,,,,,,,,,,,,,,,,,,,,,,,,,,,,,,,,,,,,,,,,,,,231.79653739999048,232.1968966999557,232.17957830009982,232.28167610010132,232.68225489999168,None,left,1,0.5921277001034468,232.68225489999168,None,232.17957830009982,232.28167610010132,232.28167610010132,None,233.29798300005496,None,,,,,,,11030,001,2024_Jan_11_0822,ANT,2021.2.3,60.09265078494192,
1,12,center,up,IC,R,,,,,,Block.xlsx,"你已经完成了第一个实验区组

请稍作休息


点击空格键进入下一个区组。",0,50,1.5,right,LLRLL.png,,,,,0,0,0,0,3,17,89,11,,,,,,,,,,,,,,,,,,,,,,,,,,,,,,,,,,,,,,,,,,,,,,,,,,,,,,,,,,,,,,,,233.69871779996902,234.09987569996156,234.08260630001314,234.1835656000767,234.58316879998893,None,left,0,0.3870866000652313,234.58316879998893,None,234.08260630001314,234.1835656000767,234.1835656000767,None,235.00046109990217,None,,,,,,,11030,001,2024_Jan_11_0822,ANT,2021.2.3,60.09265078494192,
1,15,center,down,IC,L,,,,,,Block.xlsx,"你已经完成了第一个实验区组

请稍作休息


点击空格键进入下一个区组。",0,50,-1.5,left,RRLRR.png,,,,,0,0,0,0,3,18,90,14,,,,,,,,,,,,,,,,,,,,,,,,,,,,,,,,,,,,,,,,,,,,,,,,,,,,,,,,,,,,,,,,235.40125210001133,235.8017424000427,235.78611449990422,235.8866898000706,236.2858939000871,None,left,1,0.6444979999214411,236.2858939000871,None,235.78611449990422,235.8866898000706,235.8866898000706,None,236.95363510004245,None,,,,,,,11030,001,2024_Jan_11_0822,ANT,2021.2.3,60.09265078494192,
1,8,no,down,IC,R,,,,,,Block.xlsx,"你已经完成了第一个实验区组

请稍作休息


点击空格键进入下一个区组。",50,0,-1.5,right,LLRLL.png,,,,,0,0,0,0,3,19,91,7,,,,,,,,,,,,,,,,,,,,,,,,,,,,,,,,,,,,,,,,,,,,,,,,,,,,,,,,,,,,,,,,237.35400209994987,237.75477240001783,237.7395287998952,237.8380628998857,238.23846059991047,None,right,1,0.6285051999147981,238.23846059991047,None,237.7395287998952,237.8380628998857,237.8380628998857,None,238.8896999999415,None,,,,,,,11030,001,2024_Jan_11_0822,ANT,2021.2.3,60.09265078494192,
1,10,center,up,C,R,,,,,,Block.xlsx,"你已经完成了第一个实验区组

请稍作休息


点击空格键进入下一个区组。",0,50,1.5,right,RRRRR.png,,,,,0,0,0,0,3,20,92,9,,,,,,,,,,,,,,,,,,,,,,,,,,,,,,,,,,,,,,,,,,,,,,,,,,,,,,,,,,,,,,,,239.29018709994853,239.69247730006464,239.67417140002362,239.77525630011223,240.1755818000529,None,right,1,0.44295810000039637,240.1755818000529,None,239.67417140002362,239.77525630011223,239.77525630011223,None,240.64228349993937,None,,,,,,,11030,001,2024_Jan_11_0822,ANT,2021.2.3,60.09265078494192,
1,4,no,up,IC,R,,,,,,Block.xlsx,"你已经完成了第一个实验区组

请稍作休息


点击空格键进入下一个区组。",50,0,1.5,right,LLRLL.png,,,,,0,0,0,0,3,21,93,3,,,,,,,,,,,,,,,,,,,,,,,,,,,,,,,,,,,,,,,,,,,,,,,,,,,,,,,,,,,,,,,,241.04436179995537,241.44454970001243,241.42675859993324,241.52693399996497,241.92811709991656,None,right,1,0.6341326001565903,241.92811709991656,None,241.42675859993324,241.52693399996497,241.52693399996497,None,242.57846300001256,None,,,,,,,11030,001,2024_Jan_11_0822,ANT,2021.2.3,60.09265078494192,
1,4,no,up,IC,R,,,,,,Block.xlsx,"你已经完成了第一个实验区组

请稍作休息


点击空格键进入下一个区组。",50,0,1.5,right,LLRLL.png,,,,,0,0,0,0,3,22,94,3,,,,,,,,,,,,,,,,,,,,,,,,,,,,,,,,,,,,,,,,,,,,,,,,,,,,,,,,,,,,,,,,242.97883590008132,243.38064859993756,243.36375369993038,243.4638545999769,243.8643284998834,None,right,1,0.5541787999682128,243.8643284998834,None,243.36375369993038,243.4638545999769,243.4638545999769,None,244.44786960002966,None,,,,,,,11030,001,2024_Jan_11_0822,ANT,2021.2.3,60.09265078494192,
1,17,spatial,up,C,L,,,,,,Block.xlsx,"你已经完成了第一个实验区组

请稍作休息


点击空格键进入下一个区组。",1.5,0,1.5,left,LLLLL.png,,,,,0,0,0,0,3,23,95,16,,,,,,,,,,,,,,,,,,,,,,,,,,,,,,,,,,,,,,,,,,,,,,,,,,,,,,,,,,,,,,,,244.8484622000251,245.2501137999352,245.23307380010374,245.33340059989132,245.73522530007176,None,left,1,0.41907640011049807,245.73522530007176,None,245.23307380010374,245.33340059989132,245.33340059989132,None,246.18400890007615,None,,,,,,,11030,001,2024_Jan_11_0822,ANT,2021.2.3,60.09265078494192,
,,,,,,,,,,,Block.xlsx,"你已经完成了第一个实验区组

请稍作休息


点击空格键进入下一个区组。",,,,,,,,,,0,0,0,0,,,,,,,,,,,,,,,,,,,,,,,,,,,,,,,,,,,,,,,,,,,,,,,,,,,,,,,,,,,,,,,,,,,,,,,,,,,,,,,,,,,,,space,2.017026500077918,246.60134189995006,None,246.60134189995006,None,11030,001,2024_Jan_11_0822,ANT,2021.2.3,60.09265078494192,
1,7,no,down,IC,L,,,,,,Block.xlsx,"你已经完成了整个实验（三个区组）。

请报告实验者已完成实验

非常感谢，再见！",50,0,-1.5,left,RRLRR.png,,,,,0,1,1,1,0,0,0,6,,,,,,,,,,,,,,,,,,,,,,,,,,,,,,,,,,,,,,,,,,,,,,,,,,,,,,,,,,,,,,,,248.65364139992744,249.0548992000986,249.0548992000986,249.15597900003195,249.55619650008157,None,left,1,0.5421458999626338,249.55619650008157,None,249.0548992000986,249.15597900003195,249.15597900003195,None,250.1233669000212,None,,,,,,,11030,001,2024_Jan_11_0822,ANT,2021.2.3,60.09265078494192,
1,20,spatial,up,IC,R,,,,,,Block.xlsx,"你已经完成了整个实验（三个区组）。

请报告实验者已完成实验

非常感谢，再见！",1.5,0,1.5,right,LLRLL.png,,,,,0,1,1,1,0,1,1,19,,,,,,,,,,,,,,,,,,,,,,,,,,,,,,,,,,,,,,,,,,,,,,,,,,,,,,,,,,,,,,,,250.52462769998237,250.92575250007212,250.90775349992327,251.00944319996051,251.40905730007216,None,right,1,0.4254222000017762,251.40905730007216,None,250.90775349992327,251.00944319996051,251.00944319996051,None,251.8592566999141,None,,,,,,,11030,001,2024_Jan_11_0822,ANT,2021.2.3,60.09265078494192,
1,8,no,down,IC,R,,,,,,Block.xlsx,"你已经完成了整个实验（三个区组）。

请报告实验者已完成实验

非常感谢，再见！",50,0,-1.5,right,LLRLL.png,,,,,0,1,1,1,0,2,2,7,,,,,,,,,,,,,,,,,,,,,,,,,,,,,,,,,,,,,,,,,,,,,,,,,,,,,,,,,,,,,,,,252.25940080010332,252.6601841999218,252.64542940002866,252.74357719998807,253.1456871998962,None,left,0,0.46510110003873706,253.1456871998962,None,252.64542940002866,252.74357719998807,252.74357719998807,None,253.62804100010544,None,,,,,,,11030,001,2024_Jan_11_0822,ANT,2021.2.3,60.09265078494192,
1,17,spatial,up,C,L,,,,,,Block.xlsx,"你已经完成了整个实验（三个区组）。

请报告实验者已完成实验

非常感谢，再见！",1.5,0,1.5,left,LLLLL.png,,,,,0,1,1,1,0,3,3,16,,,,,,,,,,,,,,,,,,,,,,,,,,,,,,,,,,,,,,,,,,,,,,,,,,,,,,,,,,,,,,,,254.0285807000473,254.4300130000338,254.41432179999538,254.51313870004378,254.91497320006602,None,left,1,0.3835154001135379,254.91497320006602,None,254.41432179999538,254.51313870004378,254.51313870004378,None,255.31387159996666,None,,,,,,,11030,001,2024_Jan_11_0822,ANT,2021.2.3,60.09265078494192,
1,2,no,up,C,R,,,,,,Block.xlsx,"你已经完成了整个实验（三个区组）。

请报告实验者已完成实验

非常感谢，再见！",50,0,1.5,right,RRRRR.png,,,,,0,1,1,1,0,4,4,1,,,,,,,,,,,,,,,,,,,,,,,,,,,,,,,,,,,,,,,,,,,,,,,,,,,,,,,,,,,,,,,,255.71490469994023,256.1159035998862,256.0985487001017,256.1994294000324,256.6008611000143,None,right,1,0.5855266000144184,256.6008611000143,None,256.0985487001017,256.1994294000324,256.1994294000324,None,257.21682520001195,None,,,,,,,11030,001,2024_Jan_11_0822,ANT,2021.2.3,60.09265078494192,
1,17,spatial,up,C,L,,,,,,Block.xlsx,"你已经完成了整个实验（三个区组）。

请报告实验者已完成实验

非常感谢，再见！",1.5,0,1.5,left,LLLLL.png,,,,,0,1,1,1,0,5,5,16,,,,,,,,,,,,,,,,,,,,,,,,,,,,,,,,,,,,,,,,,,,,,,,,,,,,,,,,,,,,,,,,257.61752599989995,258.0193700999953,258.0020041000098,258.1028952000197,258.50254029990174,None,left,1,0.41204699990339577,258.50254029990174,None,258.0020041000098,258.1028952000197,258.1028952000197,None,258.9379622999113,None,,,,,,,11030,001,2024_Jan_11_0822,ANT,2021.2.3,60.09265078494192,
1,8,no,down,IC,R,,,,,,Block.xlsx,"你已经完成了整个实验（三个区组）。

请报告实验者已完成实验

非常感谢，再见！",50,0,-1.5,right,LLRLL.png,,,,,0,1,1,1,0,6,6,7,,,,,,,,,,,,,,,,,,,,,,,,,,,,,,,,,,,,,,,,,,,,,,,,,,,,,,,,,,,,,,,,259.33666520006955,259.73776879999787,259.7204436000902,259.8207944999449,260.22109450004064,None,left,0,0.45349729992449284,260.22109450004064,None,259.7204436000902,259.8207944999449,259.8207944999449,None,260.70610690000467,None,,,,,,,11030,001,2024_Jan_11_0822,ANT,2021.2.3,60.09265078494192,
1,23,spatial,down,IC,L,,,,,,Block.xlsx,"你已经完成了整个实验（三个区组）。

请报告实验者已完成实验

非常感谢，再见！",-1.5,0,-1.5,left,RRLRR.png,,,,,0,1,1,1,0,7,7,22,,,,,,,,,,,,,,,,,,,,,,,,,,,,,,,,,,,,,,,,,,,,,,,,,,,,,,,,,,,,,,,,261.1063031000085,261.50768280006014,261.48978769988753,261.5898843999021,261.9907281000633,None,left,1,0.49205220001749694,261.9907281000633,None,261.48978769988753,261.5898843999021,261.5898843999021,None,262.50855230004527,None,,,,,,,11030,001,2024_Jan_11_0822,ANT,2021.2.3,60.09265078494192,
1,24,spatial,down,IC,R,,,,,,Block.xlsx,"你已经完成了整个实验（三个区组）。

请报告实验者已完成实验

非常感谢，再见！",-1.5,0,-1.5,right,LLRLL.png,,,,,0,1,1,1,0,8,8,23,,,,,,,,,,,,,,,,,,,,,,,,,,,,,,,,,,,,,,,,,,,,,,,,,,,,,,,,,,,,,,,,262.90903920005076,263.30942979990505,263.29447229998186,263.3926051000599,263.79444819991477,None,right,1,0.42398349987342954,263.79444819991477,None,263.29447229998186,263.3926051000599,263.3926051000599,None,264.2439079999458,None,,,,,,,11030,001,2024_Jan_11_0822,ANT,2021.2.3,60.09265078494192,
1,12,center,up,IC,R,,,,,,Block.xlsx,"你已经完成了整个实验（三个区组）。

请报告实验者已完成实验

非常感谢，再见！",0,50,1.5,right,LLRLL.png,,,,,0,1,1,1,0,9,9,11,,,,,,,,,,,,,,,,,,,,,,,,,,,,,,,,,,,,,,,,,,,,,,,,,,,,,,,,,,,,,,,,264.6443753000349,265.0465140999295,265.02950679999776,265.1292781000957,265.52957849996164,None,right,1,0.5769827999174595,265.52957849996164,None,265.02950679999776,265.1292781000957,265.1292781000957,None,266.1312029999681,None,,,,,,,11030,001,2024_Jan_11_0822,ANT,2021.2.3,60.09265078494192,
1,3,no,up,IC,L,,,,,,Block.xlsx,"你已经完成了整个实验（三个区组）。

请报告实验者已完成实验

非常感谢，再见！",50,0,1.5,left,RRLRR.png,,,,,0,1,1,1,0,10,10,2,,,,,,,,,,,,,,,,,,,,,,,,,,,,,,,,,,,,,,,,,,,,,,,,,,,,,,,,,,,,,,,,266.53064929996617,266.93265570001677,266.9144290999975,267.0156968999654,267.4155482999049,None,left,1,0.5636128999758512,267.4155482999049,None,266.9144290999975,267.0156968999654,267.0156968999654,None,267.9994395999238,None,,,,,,,11030,001,2024_Jan_11_0822,ANT,2021.2.3,60.09265078494192,
1,18,spatial,up,C,R,,,,,,Block.xlsx,"你已经完成了整个实验（三个区组）。

请报告实验者已完成实验

非常感谢，再见！",1.5,0,1.5,right,RRRRR.png,,,,,0,1,1,1,0,11,11,17,,,,,,,,,,,,,,,,,,,,,,,,,,,,,,,,,,,,,,,,,,,,,,,,,,,,,,,,,,,,,,,,268.40046110004187,268.8013842999935,268.7845592000522,268.88653240003623,269.28617420000955,None,right,1,0.5168101999443024,269.28617420000955,None,268.7845592000522,268.88653240003623,268.88653240003623,None,269.81884360010736,None,,,,,,,11030,001,2024_Jan_11_0822,ANT,2021.2.3,60.09265078494192,
1,19,spatial,up,IC,L,,,,,,Block.xlsx,"你已经完成了整个实验（三个区组）。

请报告实验者已完成实验

非常感谢，再见！",1.5,0,1.5,left,RRLRR.png,,,,,0,1,1,1,0,12,12,18,,,,,,,,,,,,,,,,,,,,,,,,,,,,,,,,,,,,,,,,,,,,,,,,,,,,,,,,,,,,,,,,270.22005670005456,270.62010010005906,270.60368940001354,270.70413389988244,271.1041206000373,None,left,1,0.38628190010786057,271.1041206000373,None,270.60368940001354,270.70413389988244,270.70413389988244,None,271.52234610007145,None,,,,,,,11030,001,2024_Jan_11_0822,ANT,2021.2.3,60.09265078494192,
1,9,center,up,C,L,,,,,,Block.xlsx,"你已经完成了整个实验（三个区组）。

请报告实验者已完成实验

非常感谢，再见！",0,50,1.5,left,LLLLL.png,,,,,0,1,1,1,0,13,13,8,,,,,,,,,,,,,,,,,,,,,,,,,,,,,,,,,,,,,,,,,,,,,,,,,,,,,,,,,,,,,,,,271.92230640002526,272.3229626000393,272.3062565000728,272.40635409997776,272.8074091000017,None,left,1,0.37896110001020133,272.8074091000017,None,272.3062565000728,272.40635409997776,272.40635409997776,None,273.20721770008095,None,,,,,,,11030,001,2024_Jan_11_0822,ANT,2021.2.3,60.09265078494192,
1,10,center,up,C,R,,,,,,Block.xlsx,"你已经完成了整个实验（三个区组）。

请报告实验者已完成实验

非常感谢，再见！",0,50,1.5,right,RRRRR.png,,,,,0,1,1,1,0,14,14,9,,,,,,,,,,,,,,,,,,,,,,,,,,,,,,,,,,,,,,,,,,,,,,,,,,,,,,,,,,,,,,,,273.60772420000285,274.0095240001101,273.99159900005907,274.09259589994326,274.4926269000862,None,right,1,0.3818943998776376,274.4926269000862,None,273.99159900005907,274.09259589994326,274.09259589994326,None,274.89279609988444,None,,,,,,,11030,001,2024_Jan_11_0822,ANT,2021.2.3,60.09265078494192,
1,24,spatial,down,IC,R,,,,,,Block.xlsx,"你已经完成了整个实验（三个区组）。

请报告实验者已完成实验

非常感谢，再见！",-1.5,0,-1.5,right,LLRLL.png,,,,,0,1,1,1,0,15,15,23,,,,,,,,,,,,,,,,,,,,,,,,,,,,,,,,,,,,,,,,,,,,,,,,,,,,,,,,,,,,,,,,275.29367160005495,275.69490949995816,275.67830160004087,275.7786451999564,276.1782732999418,None,right,1,0.5041099998634309,276.1782732999418,None,275.67830160004087,275.7786451999564,275.7786451999564,None,276.71334900008515,None,,,,,,,11030,001,2024_Jan_11_0822,ANT,2021.2.3,60.09265078494192,
1,2,no,up,C,R,,,,,,Block.xlsx,"你已经完成了整个实验（三个区组）。

请报告实验者已完成实验

非常感谢，再见！",50,0,1.5,right,RRRRR.png,,,,,0,1,1,1,0,16,16,1,,,,,,,,,,,,,,,,,,,,,,,,,,,,,,,,,,,,,,,,,,,,,,,,,,,,,,,,,,,,,,,,277.11290649999864,277.5143158000428,277.49677770002745,277.599012499908,277.9997209000867,None,right,1,0.45888859988190234,277.9997209000867,None,277.49677770002745,277.599012499908,277.599012499908,None,278.48173230001703,None,,,,,,,11030,001,2024_Jan_11_0822,ANT,2021.2.3,60.09265078494192,
1,13,center,down,C,L,,,,,,Block.xlsx,"你已经完成了整个实验（三个区组）。

请报告实验者已完成实验

非常感谢，再见！",0,50,-1.5,left,LLLLL.png,,,,,0,1,1,1,0,17,17,12,,,,,,,,,,,,,,,,,,,,,,,,,,,,,,,,,,,,,,,,,,,,,,,,,,,,,,,,,,,,,,,,278.88269759994,279.28293180000037,279.2674527000636,279.36707919999026,279.7670092000626,None,left,1,0.42815069993957877,279.7670092000626,None,279.2674527000636,279.36707919999026,279.36707919999026,None,280.21742079989053,None,,,,,,,11030,001,2024_Jan_11_0822,ANT,2021.2.3,60.09265078494192,
1,23,spatial,down,IC,L,,,,,,Block.xlsx,"你已经完成了整个实验（三个区组）。

请报告实验者已完成实验

非常感谢，再见！",-1.5,0,-1.5,left,RRLRR.png,,,,,0,1,1,1,0,18,18,22,,,,,,,,,,,,,,,,,,,,,,,,,,,,,,,,,,,,,,,,,,,,,,,,,,,,,,,,,,,,,,,,280.6181826000102,281.0193618000485,281.0032355999574,281.1039950000122,281.5030704000965,None,left,1,0.499355899868533,281.5030704000965,None,281.0032355999574,281.1039950000122,281.1039950000122,None,282.0203265999444,None,,,,,,,11030,001,2024_Jan_11_0822,ANT,2021.2.3,60.09265078494192,
1,14,center,down,C,R,,,,,,Block.xlsx,"你已经完成了整个实验（三个区组）。

请报告实验者已完成实验

非常感谢，再见！",0,50,-1.5,right,RRRRR.png,,,,,0,1,1,1,0,19,19,13,,,,,,,,,,,,,,,,,,,,,,,,,,,,,,,,,,,,,,,,,,,,,,,,,,,,,,,,,,,,,,,,282.42064119991846,282.82164369989187,282.80716539989226,282.9227412000764,283.3060941998847,None,right,1,0.4565630001015961,283.3060941998847,None,282.80716539989226,282.9227412000764,282.90489990008064,None,283.78961610002443,None,,,,,,,11030,001,2024_Jan_11_0822,ANT,2021.2.3,60.09265078494192,
1,9,center,up,C,L,,,,,,Block.xlsx,"你已经完成了整个实验（三个区组）。

请报告实验者已完成实验

非常感谢，再见！",0,50,1.5,left,LLLLL.png,,,,,0,1,1,1,0,20,20,8,,,,,,,,,,,,,,,,,,,,,,,,,,,,,,,,,,,,,,,,,,,,,,,,,,,,,,,,,,,,,,,,284.19024359993637,284.5913182001095,284.574552499922,284.67526499996893,285.07553449994884,None,left,1,0.43958990019746125,285.07553449994884,None,284.574552499922,284.67526499996893,284.67526499996893,None,285.5420814999379,None,,,,,,,11030,001,2024_Jan_11_0822,ANT,2021.2.3,60.09265078494192,
1,18,spatial,up,C,R,,,,,,Block.xlsx,"你已经完成了整个实验（三个区组）。

请报告实验者已完成实验

非常感谢，再见！",1.5,0,1.5,right,RRRRR.png,,,,,0,1,1,1,0,21,21,17,,,,,,,,,,,,,,,,,,,,,,,,,,,,,,,,,,,,,,,,,,,,,,,,,,,,,,,,,,,,,,,,285.9430263999384,286.34388749999925,286.3267995000351,286.4272459000349,286.82904249988496,None,right,1,0.39736109995283186,286.82904249988496,None,286.3267995000351,286.4272459000349,286.4272459000349,None,287.2446051000152,None,,,,,,,11030,001,2024_Jan_11_0822,ANT,2021.2.3,60.09265078494192,
1,23,spatial,down,IC,L,,,,,,Block.xlsx,"你已经完成了整个实验（三个区组）。

请报告实验者已完成实验

非常感谢，再见！",-1.5,0,-1.5,left,RRLRR.png,,,,,0,1,1,1,0,22,22,22,,,,,,,,,,,,,,,,,,,,,,,,,,,,,,,,,,,,,,,,,,,,,,,,,,,,,,,,,,,,,,,,287.64522779989056,288.046466199914,288.0302836999763,288.1302203000523,288.53063119994476,None,left,1,0.5679303999058902,288.53063119994476,None,288.0302836999763,288.1302203000523,288.1302203000523,None,289.11409609997645,None,,,,,,,11030,001,2024_Jan_11_0822,ANT,2021.2.3,60.09265078494192,
1,10,center,up,C,R,,,,,,Block.xlsx,"你已经完成了整个实验（三个区组）。

请报告实验者已完成实验

非常感谢，再见！",0,50,1.5,right,RRRRR.png,,,,,0,1,1,1,0,23,23,9,,,,,,,,,,,,,,,,,,,,,,,,,,,,,,,,,,,,,,,,,,,,,,,,,,,,,,,,,,,,,,,,289.5147456000559,289.91558049991727,289.89920370001346,289.9991746000014,290.39962669997476,None,right,1,0.37100789998658,290.39962669997476,None,289.89920370001346,289.9991746000014,289.9991746000014,None,290.8009591998998,None,,,,,,,11030,001,2024_Jan_11_0822,ANT,2021.2.3,60.09265078494192,
1,18,spatial,up,C,R,,,,,,Block.xlsx,"你已经完成了整个实验（三个区组）。

请报告实验者已完成实验

非常感谢，再见！",1.5,0,1.5,right,RRRRR.png,,,,,0,1,1,1,1,0,24,17,,,,,,,,,,,,,,,,,,,,,,,,,,,,,,,,,,,,,,,,,,,,,,,,,,,,,,,,,,,,,,,,291.2012491999194,291.60262909997255,291.58428100007586,291.68542620004155,292.08607450011186,None,right,1,0.3243712999392301,292.08607450011186,None,291.58428100007586,291.68542620004155,291.68542620004155,None,292.43617959995754,None,,,,,,,11030,001,2024_Jan_11_0822,ANT,2021.2.3,60.09265078494192,
1,15,center,down,IC,L,,,,,,Block.xlsx,"你已经完成了整个实验（三个区组）。

请报告实验者已完成实验

非常感谢，再见！",0,50,-1.5,left,RRLRR.png,,,,,0,1,1,1,1,1,25,14,,,,,,,,,,,,,,,,,,,,,,,,,,,,,,,,,,,,,,,,,,,,,,,,,,,,,,,,,,,,,,,,292.8367677000351,293.238228000002,293.2208378999494,293.32030149991624,293.7225224999711,None,left,1,0.5600719000212848,293.7225224999711,None,293.2208378999494,293.32030149991624,293.32030149991624,None,294.3052131999284,None,,,,,,,11030,001,2024_Jan_11_0822,ANT,2021.2.3,60.09265078494192,
1,16,center,down,IC,R,,,,,,Block.xlsx,"你已经完成了整个实验（三个区组）。

请报告实验者已完成实验

非常感谢，再见！",0,50,-1.5,right,LLRLL.png,,,,,0,1,1,1,1,2,26,15,,,,,,,,,,,,,,,,,,,,,,,,,,,,,,,,,,,,,,,,,,,,,,,,,,,,,,,,,,,,,,,,294.70668750000186,295.1077366999816,295.0893939000089,295.1906737999525,295.5913323001005,None,left,0,0.4273841001559049,295.5913323001005,None,295.0893939000089,295.1906737999525,295.1906737999525,None,296.04123559989966,None,,,,,,,11030,001,2024_Jan_11_0822,ANT,2021.2.3,60.09265078494192,
1,13,center,down,C,L,,,,,,Block.xlsx,"你已经完成了整个实验（三个区组）。

请报告实验者已完成实验

非常感谢，再见！",0,50,-1.5,left,LLLLL.png,,,,,0,1,1,1,1,3,27,12,,,,,,,,,,,,,,,,,,,,,,,,,,,,,,,,,,,,,,,,,,,,,,,,,,,,,,,,,,,,,,,,296.44197900011204,296.84453479992226,296.82592409988865,296.92621399997734,297.32779189990833,None,left,1,0.5227844000328332,297.32779189990833,None,296.82592409988865,296.92621399997734,296.92621399997734,None,297.8770043000113,None,,,,,,,11030,001,2024_Jan_11_0822,ANT,2021.2.3,60.09265078494192,
1,24,spatial,down,IC,R,,,,,,Block.xlsx,"你已经完成了整个实验（三个区组）。

请报告实验者已完成实验

非常感谢，再见！",-1.5,0,-1.5,right,LLRLL.png,,,,,0,1,1,1,1,4,28,23,,,,,,,,,,,,,,,,,,,,,,,,,,,,,,,,,,,,,,,,,,,,,,,,,,,,,,,,,,,,,,,,298.27763890009373,298.6806308000814,298.6630625000689,298.76155099994503,299.16279540001415,None,right,1,0.4638640999328345,299.16279540001415,None,298.6630625000689,298.76155099994503,298.76155099994503,None,299.6463510999456,None,,,,,,,11030,001,2024_Jan_11_0822,ANT,2021.2.3,60.09265078494192,
1,12,center,up,IC,R,,,,,,Block.xlsx,"你已经完成了整个实验（三个区组）。

请报告实验者已完成实验

非常感谢，再见！",0,50,1.5,right,LLRLL.png,,,,,0,1,1,1,1,5,29,11,,,,,,,,,,,,,,,,,,,,,,,,,,,,,,,,,,,,,,,,,,,,,,,,,,,,,,,,,,,,,,,,300.0471820998937,300.44931640010327,300.43189119989984,300.5312012000941,300.93299699993804,None,right,1,0.6935612000524998,300.93299699993804,None,300.43189119989984,300.5312012000941,300.5312012000941,None,301.64963339990936,None,,,,,,,11030,001,2024_Jan_11_0822,ANT,2021.2.3,60.09265078494192,
1,11,center,up,IC,L,,,,,,Block.xlsx,"你已经完成了整个实验（三个区组）。

请报告实验者已完成实验

非常感谢，再见！",0,50,1.5,left,RRLRR.png,,,,,0,1,1,1,1,6,30,10,,,,,,,,,,,,,,,,,,,,,,,,,,,,,,,,,,,,,,,,,,,,,,,,,,,,,,,,,,,,,,,,302.05003129993565,302.45147729991004,302.4337311000563,302.53591679991223,302.93570969998837,None,left,1,0.48317739996127784,302.93570969998837,None,302.4337311000563,302.53591679991223,302.53591679991223,None,303.4352591999341,None,,,,,,,11030,001,2024_Jan_11_0822,ANT,2021.2.3,60.09265078494192,
1,2,no,up,C,R,,,,,,Block.xlsx,"你已经完成了整个实验（三个区组）。

请报告实验者已完成实验

非常感谢，再见！",50,0,1.5,right,RRRRR.png,,,,,0,1,1,1,1,7,31,1,,,,,,,,,,,,,,,,,,,,,,,,,,,,,,,,,,,,,,,,,,,,,,,,,,,,,,,,,,,,,,,,303.8358128000982,304.23898070002906,304.22095580003224,304.3200272999238,304.7208418000955,None,right,1,0.4256577000487596,304.7208418000955,None,304.22095580003224,304.3200272999238,304.3200272999238,None,305.17146859993227,None,,,,,,,11030,001,2024_Jan_11_0822,ANT,2021.2.3,60.09265078494192,
1,21,spatial,down,C,L,,,,,,Block.xlsx,"你已经完成了整个实验（三个区组）。

请报告实验者已完成实验

非常感谢，再见！",-1.5,0,-1.5,left,LLLLL.png,,,,,0,1,1,1,1,8,32,20,,,,,,,,,,,,,,,,,,,,,,,,,,,,,,,,,,,,,,,,,,,,,,,,,,,,,,,,,,,,,,,,305.5719788998831,305.9740532999858,305.95583370001987,306.05642600008287,306.4587886000518,None,left,1,0.3757628998719156,306.4587886000518,None,305.95583370001987,306.05642600008287,306.05642600008287,None,306.85695239994675,None,,,,,,,11030,001,2024_Jan_11_0822,ANT,2021.2.3,60.09265078494192,
1,22,spatial,down,C,R,,,,,,Block.xlsx,"你已经完成了整个实验（三个区组）。

请报告实验者已完成实验

非常感谢，再见！",-1.5,0,-1.5,right,RRRRR.png,,,,,0,1,1,1,1,9,33,21,,,,,,,,,,,,,,,,,,,,,,,,,,,,,,,,,,,,,,,,,,,,,,,,,,,,,,,,,,,,,,,,307.2579290000722,307.6592021000106,307.64213220006786,307.7421442999039,308.1423466000706,None,right,1,0.34893810003995895,308.1423466000706,None,307.64213220006786,307.7421442999039,307.7421442999039,None,308.5093394999858,None,,,,,,,11030,001,2024_Jan_11_0822,ANT,2021.2.3,60.09265078494192,
1,12,center,up,IC,R,,,,,,Block.xlsx,"你已经完成了整个实验（三个区组）。

请报告实验者已完成实验

非常感谢，再见！",0,50,1.5,right,LLRLL.png,,,,,0,1,1,1,1,10,34,11,,,,,,,,,,,,,,,,,,,,,,,,,,,,,,,,,,,,,,,,,,,,,,,,,,,,,,,,,,,,,,,,308.91016800003126,309.31071699992754,309.2954587000422,309.39471139991656,309.79472399991937,None,right,1,0.6397567000240088,309.79472399991937,None,309.2954587000422,309.39471139991656,309.39471139991656,None,310.46230969997123,None,,,,,,,11030,001,2024_Jan_11_0822,ANT,2021.2.3,60.09265078494192,
1,10,center,up,C,R,,,,,,Block.xlsx,"你已经完成了整个实验（三个区组）。

请报告实验者已完成实验

非常感谢，再见！",0,50,1.5,right,RRRRR.png,,,,,0,1,1,1,1,11,35,9,,,,,,,,,,,,,,,,,,,,,,,,,,,,,,,,,,,,,,,,,,,,,,,,,,,,,,,,,,,,,,,,310.86283900006674,311.2642330999952,311.2479352999944,311.3471321000252,311.7481372000184,None,right,1,0.4463522001169622,311.7481372000184,None,311.2479352999944,311.3471321000252,311.3471321000252,None,312.21550650009885,None,,,,,,,11030,001,2024_Jan_11_0822,ANT,2021.2.3,60.09265078494192,
1,4,no,up,IC,R,,,,,,Block.xlsx,"你已经完成了整个实验（三个区组）。

请报告实验者已完成实验

非常感谢，再见！",50,0,1.5,right,LLRLL.png,,,,,0,1,1,1,1,12,36,3,,,,,,,,,,,,,,,,,,,,,,,,,,,,,,,,,,,,,,,,,,,,,,,,,,,,,,,,,,,,,,,,312.6164192999713,313.0162420999259,313.0006309999153,313.1007823999971,313.5024514000397,None,left,0,0.452288799919188,313.5024514000397,None,313.0006309999153,313.1007823999971,313.1007823999971,None,313.98416089988314,None,,,,,,,11030,001,2024_Jan_11_0822,ANT,2021.2.3,60.09265078494192,
1,11,center,up,IC,L,,,,,,Block.xlsx,"你已经完成了整个实验（三个区组）。

请报告实验者已完成实验

非常感谢，再见！",0,50,1.5,left,RRLRR.png,,,,,0,1,1,1,1,13,37,10,,,,,,,,,,,,,,,,,,,,,,,,,,,,,,,,,,,,,,,,,,,,,,,,,,,,,,,,,,,,,,,,314.38506720005535,314.785943799885,314.76946570002474,314.8711180998944,315.2708622000646,None,left,1,0.5558786001056433,315.2708622000646,None,314.76946570002474,314.8711180998944,314.8711180998944,None,315.85380530008115,None,,,,,,,11030,001,2024_Jan_11_0822,ANT,2021.2.3,60.09265078494192,
1,5,no,down,C,L,,,,,,Block.xlsx,"你已经完成了整个实验（三个区组）。

请报告实验者已完成实验

非常感谢，再见！",50,0,-1.5,left,LLLLL.png,,,,,0,1,1,1,1,14,38,4,,,,,,,,,,,,,,,,,,,,,,,,,,,,,,,,,,,,,,,,,,,,,,,,,,,,,,,,,,,,,,,,316.25462849996984,316.6561455000192,316.6383249000646,316.7386445000302,317.1389512999449,None,left,1,0.6075508000794798,317.1389512999449,None,316.6383249000646,316.7386445000302,316.7386445000302,None,317.773104300024,None,,,,,,,11030,001,2024_Jan_11_0822,ANT,2021.2.3,60.09265078494192,
1,7,no,down,IC,L,,,,,,Block.xlsx,"你已经完成了整个实验（三个区组）。

请报告实验者已完成实验

非常感谢，再见！",50,0,-1.5,left,RRLRR.png,,,,,0,1,1,1,1,15,39,6,,,,,,,,,,,,,,,,,,,,,,,,,,,,,,,,,,,,,,,,,,,,,,,,,,,,,,,,,,,,,,,,318.1749007999897,318.57468349998817,318.5581577999983,318.659149199957,319.0590254999697,None,left,1,0.6957594000268728,319.0590254999697,None,318.5581577999983,318.659149199957,318.659149199957,None,319.7761711999774,None,,,,,,,11030,001,2024_Jan_11_0822,ANT,2021.2.3,60.09265078494192,
1,17,spatial,up,C,L,,,,,,Block.xlsx,"你已经完成了整个实验（三个区组）。

请报告实验者已完成实验

非常感谢，再见！",1.5,0,1.5,left,LLLLL.png,,,,,0,1,1,1,1,16,40,16,,,,,,,,,,,,,,,,,,,,,,,,,,,,,,,,,,,,,,,,,,,,,,,,,,,,,,,,,,,,,,,,320.1771740000695,320.57717330008745,320.5611248998903,320.66276529990137,321.0620120000094,None,left,1,0.39698640001006424,321.0620120000094,None,320.5611248998903,320.66276529990137,320.66276529990137,None,321.47943349997513,None,,,,,,,11030,001,2024_Jan_11_0822,ANT,2021.2.3,60.09265078494192,
1,21,spatial,down,C,L,,,,,,Block.xlsx,"你已经完成了整个实验（三个区组）。

请报告实验者已完成实验

非常感谢，再见！",-1.5,0,-1.5,left,LLLLL.png,,,,,0,1,1,1,1,17,41,20,,,,,,,,,,,,,,,,,,,,,,,,,,,,,,,,,,,,,,,,,,,,,,,,,,,,,,,,,,,,,,,,321.87922360002995,322.280730499886,322.2635254000779,322.3638367999811,322.7637759000063,None,left,1,0.38360119983553886,322.7637759000063,None,322.2635254000779,322.3638367999811,322.3638367999811,None,323.1645283999387,None,,,,,,,11030,001,2024_Jan_11_0822,ANT,2021.2.3,60.09265078494192,
1,17,spatial,up,C,L,,,,,,Block.xlsx,"你已经完成了整个实验（三个区组）。

请报告实验者已完成实验

非常感谢，再见！",1.5,0,1.5,left,LLLLL.png,,,,,0,1,1,1,1,18,42,16,,,,,,,,,,,,,,,,,,,,,,,,,,,,,,,,,,,,,,,,,,,,,,,,,,,,,,,,,,,,,,,,323.56540019996464,323.9657312000636,323.9508680999279,324.06680510006845,324.45043849991634,None,left,1,0.4166507001500577,324.45043849991634,None,323.9508680999279,324.06680510006845,324.0496265999973,None,324.8851815999951,None,,,,,,,11030,001,2024_Jan_11_0822,ANT,2021.2.3,60.09265078494192,
1,6,no,down,C,R,,,,,,Block.xlsx,"你已经完成了整个实验（三个区组）。

请报告实验者已完成实验

非常感谢，再见！",50,0,-1.5,right,RRRRR.png,,,,,0,1,1,1,1,19,43,5,,,,,,,,,,,,,,,,,,,,,,,,,,,,,,,,,,,,,,,,,,,,,,,,,,,,,,,,,,,,,,,,325.28458329988644,325.6861139999237,325.6684105999302,325.7684806000907,326.1690922998823,None,right,1,0.4573822000529617,326.1690922998823,None,325.6684105999302,325.7684806000907,325.7684806000907,None,326.6529365000315,None,,,,,,,11030,001,2024_Jan_11_0822,ANT,2021.2.3,60.09265078494192,
1,7,no,down,IC,L,,,,,,Block.xlsx,"你已经完成了整个实验（三个区组）。

请报告实验者已完成实验

非常感谢，再见！",50,0,-1.5,left,RRLRR.png,,,,,0,1,1,1,1,20,44,6,,,,,,,,,,,,,,,,,,,,,,,,,,,,,,,,,,,,,,,,,,,,,,,,,,,,,,,,,,,,,,,,327.05371639993973,327.4560346000362,327.43814509990625,327.5390924999956,327.9381726998836,None,left,1,0.6168889000546187,327.9381726998836,None,327.43814509990625,327.5390924999956,327.5390924999956,None,328.5726745999418,None,,,,,,,11030,001,2024_Jan_11_0822,ANT,2021.2.3,60.09265078494192,
1,16,center,down,IC,R,,,,,,Block.xlsx,"你已经完成了整个实验（三个区组）。

请报告实验者已完成实验

非常感谢，再见！",0,50,-1.5,right,LLRLL.png,,,,,0,1,1,1,1,21,45,15,,,,,,,,,,,,,,,,,,,,,,,,,,,,,,,,,,,,,,,,,,,,,,,,,,,,,,,,,,,,,,,,328.9739479999989,329.37499190005474,329.35725690005347,329.4581090998836,329.8579706000164,None,left,0,0.4085299998987466,329.8579706000164,None,329.35725690005347,329.4581090998836,329.4581090998836,None,330.29328739992343,None,,,,,,,11030,001,2024_Jan_11_0822,ANT,2021.2.3,60.09265078494192,
1,4,no,up,IC,R,,,,,,Block.xlsx,"你已经完成了整个实验（三个区组）。

请报告实验者已完成实验

非常感谢，再见！",50,0,1.5,right,LLRLL.png,,,,,0,1,1,1,1,22,46,3,,,,,,,,,,,,,,,,,,,,,,,,,,,,,,,,,,,,,,,,,,,,,,,,,,,,,,,,,,,,,,,,330.7089348998852,331.11011540004984,331.0943392000627,331.21055110008456,331.5958873999771,None,right,1,0.5905844999942929,331.5958873999771,None,331.0943392000627,331.21055110008456,331.19514940003864,None,332.2113101000432,None,,,,,,,11030,001,2024_Jan_11_0822,ANT,2021.2.3,60.09265078494192,
1,9,center,up,C,L,,,,,,Block.xlsx,"你已经完成了整个实验（三个区组）。

请报告实验者已完成实验

非常感谢，再见！",0,50,1.5,left,LLLLL.png,,,,,0,1,1,1,1,23,47,8,,,,,,,,,,,,,,,,,,,,,,,,,,,,,,,,,,,,,,,,,,,,,,,,,,,,,,,,,,,,,,,,332.6119997999631,333.01344410004094,332.9957799001131,333.0966276000254,333.4973957000766,None,left,1,0.46523669990710914,333.4973957000766,None,332.9957799001131,333.0966276000254,333.0966276000254,None,333.98055789992213,None,,,,,,,11030,001,2024_Jan_11_0822,ANT,2021.2.3,60.09265078494192,
1,3,no,up,IC,L,,,,,,Block.xlsx,"你已经完成了整个实验（三个区组）。

请报告实验者已完成实验

非常感谢，再见！",50,0,1.5,left,RRLRR.png,,,,,0,1,1,1,2,0,48,2,,,,,,,,,,,,,,,,,,,,,,,,,,,,,,,,,,,,,,,,,,,,,,,,,,,,,,,,,,,,,,,,334.3813787999097,334.7817806999665,334.7657884999644,334.86529069999233,335.26695109996945,None,left,1,0.591535700019449,335.26695109996945,None,334.7657884999644,334.86529069999233,334.86529069999233,None,335.88404619996436,None,,,,,,,11030,001,2024_Jan_11_0822,ANT,2021.2.3,60.09265078494192,
1,11,center,up,IC,L,,,,,,Block.xlsx,"你已经完成了整个实验（三个区组）。

请报告实验者已完成实验

非常感谢，再见！",0,50,1.5,left,RRLRR.png,,,,,0,1,1,1,2,1,49,10,,,,,,,,,,,,,,,,,,,,,,,,,,,,,,,,,,,,,,,,,,,,,,,,,,,,,,,,,,,,,,,,336.2845226000063,336.68599050003104,336.6679418000858,336.76848670002073,337.17006919998676,None,left,1,0.5447368000168353,337.17006919998676,None,336.6679418000858,336.76848670002073,336.76848670002073,None,337.73602940002456,None,,,,,,,11030,001,2024_Jan_11_0822,ANT,2021.2.3,60.09265078494192,
1,20,spatial,up,IC,R,,,,,,Block.xlsx,"你已经完成了整个实验（三个区组）。

请报告实验者已完成实验

非常感谢，再见！",1.5,0,1.5,right,LLRLL.png,,,,,0,1,1,1,2,2,50,19,,,,,,,,,,,,,,,,,,,,,,,,,,,,,,,,,,,,,,,,,,,,,,,,,,,,,,,,,,,,,,,,338.13697259989567,338.5373217999004,338.52128560002893,338.6215868999716,339.02233500010334,None,right,1,0.45219270000234246,339.02233500010334,None,338.52128560002893,338.6215868999716,338.6215868999716,None,339.50553230009973,None,,,,,,,11030,001,2024_Jan_11_0822,ANT,2021.2.3,60.09265078494192,
1,16,center,down,IC,R,,,,,,Block.xlsx,"你已经完成了整个实验（三个区组）。

请报告实验者已完成实验

非常感谢，再见！",0,50,-1.5,right,LLRLL.png,,,,,0,1,1,1,2,3,51,15,,,,,,,,,,,,,,,,,,,,,,,,,,,,,,,,,,,,,,,,,,,,,,,,,,,,,,,,,,,,,,,,339.9059083000757,340.30666349991225,340.2907167999074,340.39166390011087,340.7915469999425,None,right,1,0.7549972999840975,340.7915469999425,None,340.2907167999074,340.39166390011087,340.39166390011087,None,341.5752809001133,None,,,,,,,11030,001,2024_Jan_11_0822,ANT,2021.2.3,60.09265078494192,
1,6,no,down,C,R,,,,,,Block.xlsx,"你已经完成了整个实验（三个区组）。

请报告实验者已完成实验

非常感谢，再见！",50,0,-1.5,right,RRRRR.png,,,,,0,1,1,1,2,4,52,5,,,,,,,,,,,,,,,,,,,,,,,,,,,,,,,,,,,,,,,,,,,,,,,,,,,,,,,,,,,,,,,,341.97592279990204,342.3767043000553,342.3601623000577,342.4607009999454,342.86181990010664,None,right,1,0.4610464000143111,342.86181990010664,None,342.3601623000577,342.4607009999454,342.4607009999454,None,343.3445876999758,None,,,,,,,11030,001,2024_Jan_11_0822,ANT,2021.2.3,60.09265078494192,
1,3,no,up,IC,L,,,,,,Block.xlsx,"你已经完成了整个实验（三个区组）。

请报告实验者已完成实验

非常感谢，再见！",50,0,1.5,left,RRLRR.png,,,,,0,1,1,1,2,5,53,2,,,,,,,,,,,,,,,,,,,,,,,,,,,,,,,,,,,,,,,,,,,,,,,,,,,,,,,,,,,,,,,,343.7450423000846,344.1476491999347,344.1294412999414,344.2303647000808,344.630979700014,None,left,1,0.5641988001298159,344.630979700014,None,344.1294412999414,344.2303647000808,344.2303647000808,None,345.2138644999359,None,,,,,,,11030,001,2024_Jan_11_0822,ANT,2021.2.3,60.09265078494192,
1,22,spatial,down,C,R,,,,,,Block.xlsx,"你已经完成了整个实验（三个区组）。

请报告实验者已完成实验

非常感谢，再见！",-1.5,0,-1.5,right,RRRRR.png,,,,,0,1,1,1,2,6,54,21,,,,,,,,,,,,,,,,,,,,,,,,,,,,,,,,,,,,,,,,,,,,,,,,,,,,,,,,,,,,,,,,345.61446349998005,346.01577699999325,345.99972640001215,346.09847530000843,346.4990660001058,None,right,1,0.4633782000746578,346.4990660001058,None,345.99972640001215,346.09847530000843,346.09847530000843,None,346.98321569990367,None,,,,,,,11030,001,2024_Jan_11_0822,ANT,2021.2.3,60.09265078494192,
1,14,center,down,C,R,,,,,,Block.xlsx,"你已经完成了整个实验（三个区组）。

请报告实验者已完成实验

非常感谢，再见！",0,50,-1.5,right,RRRRR.png,,,,,0,1,1,1,2,7,55,13,,,,,,,,,,,,,,,,,,,,,,,,,,,,,,,,,,,,,,,,,,,,,,,,,,,,,,,,,,,,,,,,347.3842066999059,347.78579459991306,347.76756560010836,347.86912450008094,348.2702208000701,None,right,1,0.6203421000391245,348.2702208000701,None,347.76756560010836,347.86912450008094,347.86912450008094,None,348.9202139999252,None,,,,,,,11030,001,2024_Jan_11_0822,ANT,2021.2.3,60.09265078494192,
1,5,no,down,C,L,,,,,,Block.xlsx,"你已经完成了整个实验（三个区组）。

请报告实验者已完成实验

非常感谢，再见！",50,0,-1.5,left,LLLLL.png,,,,,0,1,1,1,2,8,56,4,,,,,,,,,,,,,,,,,,,,,,,,,,,,,,,,,,,,,,,,,,,,,,,,,,,,,,,,,,,,,,,,349.3204528000206,349.72260640002787,349.7049589001108,349.80442090006545,350.2046024000738,None,left,1,0.5669593000784516,350.2046024000738,None,349.7049589001108,349.80442090006545,349.80442090006545,None,350.788903699955,None,,,,,,,11030,001,2024_Jan_11_0822,ANT,2021.2.3,60.09265078494192,
1,23,spatial,down,IC,L,,,,,,Block.xlsx,"你已经完成了整个实验（三个区组）。

请报告实验者已完成实验

非常感谢，再见！",-1.5,0,-1.5,left,RRLRR.png,,,,,0,1,1,1,2,9,57,22,,,,,,,,,,,,,,,,,,,,,,,,,,,,,,,,,,,,,,,,,,,,,,,,,,,,,,,,,,,,,,,,351.1908307999838,351.59014560002834,351.57411639997736,351.67411049990915,352.07431280007586,None,left,1,0.6965234000235796,352.07431280007586,None,351.57411639997736,351.67411049990915,351.67411049990915,None,352.7918914000038,None,,,,,,,11030,001,2024_Jan_11_0822,ANT,2021.2.3,60.09265078494192,
1,21,spatial,down,C,L,,,,,,Block.xlsx,"你已经完成了整个实验（三个区组）。

请报告实验者已完成实验

非常感谢，再见！",-1.5,0,-1.5,left,LLLLL.png,,,,,0,1,1,1,2,10,58,20,,,,,,,,,,,,,,,,,,,,,,,,,,,,,,,,,,,,,,,,,,,,,,,,,,,,,,,,,,,,,,,,353.19248270010576,353.5944109999109,353.5768828999717,353.676436400041,354.0787424999289,None,left,1,0.41182029992341995,354.0787424999289,None,353.5768828999717,353.676436400041,353.676436400041,None,354.5108197000809,None,,,,,,,11030,001,2024_Jan_11_0822,ANT,2021.2.3,60.09265078494192,
1,21,spatial,down,C,L,,,,,,Block.xlsx,"你已经完成了整个实验（三个区组）。

请报告实验者已完成实验

非常感谢，再见！",-1.5,0,-1.5,left,LLLLL.png,,,,,0,1,1,1,2,11,59,20,,,,,,,,,,,,,,,,,,,,,,,,,,,,,,,,,,,,,,,,,,,,,,,,,,,,,,,,,,,,,,,,354.9117789999582,355.313410700066,355.2956125999335,355.3956053000875,355.7976029999554,None,left,1,0.4289766000583768,355.7976029999554,None,355.2956125999335,355.3956053000875,355.3956053000875,None,356.2468973000068,None,,,,,,,11030,001,2024_Jan_11_0822,ANT,2021.2.3,60.09265078494192,
1,10,center,up,C,R,,,,,,Block.xlsx,"你已经完成了整个实验（三个区组）。

请报告实验者已完成实验

非常感谢，再见！",0,50,1.5,right,RRRRR.png,,,,,0,1,1,1,2,12,60,9,,,,,,,,,,,,,,,,,,,,,,,,,,,,,,,,,,,,,,,,,,,,,,,,,,,,,,,,,,,,,,,,356.64775120001286,357.0483019000385,357.03217449993826,357.1322880999651,357.5329237000551,None,right,1,0.41471819998696446,357.5329237000551,None,357.03217449993826,357.1322880999651,357.1322880999651,None,357.96618980006315,None,,,,,,,11030,001,2024_Jan_11_0822,ANT,2021.2.3,60.09265078494192,
1,18,spatial,up,C,R,,,,,,Block.xlsx,"你已经完成了整个实验（三个区组）。

请报告实验者已完成实验

非常感谢，再见！",1.5,0,1.5,right,RRRRR.png,,,,,0,1,1,1,2,13,61,17,,,,,,,,,,,,,,,,,,,,,,,,,,,,,,,,,,,,,,,,,,,,,,,,,,,,,,,,,,,,,,,,358.3665831000544,358.76818110002205,358.75180219998583,358.8515381999314,359.25280370004475,None,right,1,0.3899385998956859,359.25280370004475,None,358.75180219998583,358.8515381999314,358.8515381999314,None,359.6685981999617,None,,,,,,,11030,001,2024_Jan_11_0822,ANT,2021.2.3,60.09265078494192,
1,1,no,up,C,L,,,,,,Block.xlsx,"你已经完成了整个实验（三个区组）。

请报告实验者已完成实验

非常感谢，再见！",50,0,1.5,left,LLLLL.png,,,,,0,1,1,1,2,14,62,0,,,,,,,,,,,,,,,,,,,,,,,,,,,,,,,,,,,,,,,,,,,,,,,,,,,,,,,,,,,,,,,,360.0692396000959,360.46987350005656,360.4548086000141,360.55391660006717,360.95418770005926,None,left,1,0.45670849992893636,360.95418770005926,None,360.4548086000141,360.55391660006717,360.55391660006717,None,361.4382505000103,None,,,,,,,11030,001,2024_Jan_11_0822,ANT,2021.2.3,60.09265078494192,
1,15,center,down,IC,L,,,,,,Block.xlsx,"你已经完成了整个实验（三个区组）。

请报告实验者已完成实验

非常感谢，再见！",0,50,-1.5,left,RRLRR.png,,,,,0,1,1,1,2,15,63,14,,,,,,,,,,,,,,,,,,,,,,,,,,,,,,,,,,,,,,,,,,,,,,,,,,,,,,,,,,,,,,,,361.8383561000228,362.2407613999676,362.2224568000529,362.3225936999079,362.72412810008973,None,left,1,0.6472727998625487,362.72412810008973,None,362.2224568000529,362.3225936999079,362.3225936999079,None,363.39075969997793,None,,,,,,,11030,001,2024_Jan_11_0822,ANT,2021.2.3,60.09265078494192,
1,20,spatial,up,IC,R,,,,,,Block.xlsx,"你已经完成了整个实验（三个区组）。

请报告实验者已完成实验

非常感谢，再见！",1.5,0,1.5,right,LLRLL.png,,,,,0,1,1,1,2,16,64,19,,,,,,,,,,,,,,,,,,,,,,,,,,,,,,,,,,,,,,,,,,,,,,,,,,,,,,,,,,,,,,,,363.79218370001763,364.19278750009835,364.1761725000106,364.27708719996735,364.67671180004254,None,right,1,0.5099498999770731,364.67671180004254,None,364.1761725000106,364.27708719996735,364.27708719996735,None,365.2108875999693,None,,,,,,,11030,001,2024_Jan_11_0822,ANT,2021.2.3,60.09265078494192,
1,1,no,up,C,L,,,,,,Block.xlsx,"你已经完成了整个实验（三个区组）。

请报告实验者已完成实验

非常感谢，再见！",50,0,1.5,left,LLLLL.png,,,,,0,1,1,1,2,17,65,0,,,,,,,,,,,,,,,,,,,,,,,,,,,,,,,,,,,,,,,,,,,,,,,,,,,,,,,,,,,,,,,,365.610793299973,366.011303300038,365.99592810007744,366.11240019998513,366.49613060010597,None,left,1,0.522681400179863,366.49613060010597,None,365.99592810007744,366.11240019998513,366.09619019995444,None,367.0464820000343,None,,,,,,,11030,001,2024_Jan_11_0822,ANT,2021.2.3,60.09265078494192,
1,1,no,up,C,L,,,,,,Block.xlsx,"你已经完成了整个实验（三个区组）。

请报告实验者已完成实验

非常感谢，再见！",50,0,1.5,left,LLLLL.png,,,,,0,1,1,1,2,18,66,0,,,,,,,,,,,,,,,,,,,,,,,,,,,,,,,,,,,,,,,,,,,,,,,,,,,,,,,,,,,,,,,,367.44768689991906,367.84863650007173,367.8308562000748,367.9329347999301,368.3315465000924,None,left,1,0.3991674000862986,368.3315465000924,None,367.8308562000748,367.9329347999301,367.9329347999301,None,368.74882879992947,None,,,,,,,11030,001,2024_Jan_11_0822,ANT,2021.2.3,60.09265078494192,
1,7,no,down,IC,L,,,,,,Block.xlsx,"你已经完成了整个实验（三个区组）。

请报告实验者已完成实验

非常感谢，再见！",50,0,-1.5,left,RRLRR.png,,,,,0,1,1,1,2,19,67,6,,,,,,,,,,,,,,,,,,,,,,,,,,,,,,,,,,,,,,,,,,,,,,,,,,,,,,,,,,,,,,,,369.14946840004995,369.5505808999296,369.5343299000524,369.6351775000803,370.03569460008293,None,left,1,0.6227888001594692,370.03569460008293,None,369.5343299000524,369.6351775000803,369.6351775000803,None,370.6849346999079,None,,,,,,,11030,001,2024_Jan_11_0822,ANT,2021.2.3,60.09265078494192,
1,24,spatial,down,IC,R,,,,,,Block.xlsx,"你已经完成了整个实验（三个区组）。

请报告实验者已完成实验

非常感谢，再见！",-1.5,0,-1.5,right,LLRLL.png,,,,,0,1,1,1,2,20,68,23,,,,,,,,,,,,,,,,,,,,,,,,,,,,,,,,,,,,,,,,,,,,,,,,,,,,,,,,,,,,,,,,371.08575570001267,371.4870140000712,371.4713995999191,371.58687289990485,371.9715283000842,None,right,1,0.471174499951303,371.9715283000842,None,371.4713995999191,371.58687289990485,371.5707787000574,None,372.47091930010356,None,,,,,,,11030,001,2024_Jan_11_0822,ANT,2021.2.3,60.09265078494192,
1,15,center,down,IC,L,,,,,,Block.xlsx,"你已经完成了整个实验（三个区组）。

请报告实验者已完成实验

非常感谢，再见！",0,50,-1.5,left,RRLRR.png,,,,,0,1,1,1,2,21,69,14,,,,,,,,,,,,,,,,,,,,,,,,,,,,,,,,,,,,,,,,,,,,,,,,,,,,,,,,,,,,,,,,372.8716931999661,373.2724285000004,373.25578829995357,373.35564889991656,373.75732229999267,None,left,1,0.5499819999095052,373.75732229999267,None,373.25578829995357,373.35564889991656,373.35564889991656,None,374.3238931999076,None,,,,,,,11030,001,2024_Jan_11_0822,ANT,2021.2.3,60.09265078494192,
1,3,no,up,IC,L,,,,,,Block.xlsx,"你已经完成了整个实验（三个区组）。

请报告实验者已完成实验

非常感谢，再见！",50,0,1.5,left,RRLRR.png,,,,,0,1,1,1,2,22,70,2,,,,,,,,,,,,,,,,,,,,,,,,,,,,,,,,,,,,,,,,,,,,,,,,,,,,,,,,,,,,,,,,374.7248619000893,375.1250664999243,375.10878530004993,375.2105719000101,375.61096110008657,None,left,1,0.5195358002092689,375.61096110008657,None,375.10878530004993,375.2105719000101,375.2105719000101,None,376.1599163999781,None,,,,,,,11030,001,2024_Jan_11_0822,ANT,2021.2.3,60.09265078494192,
1,2,no,up,C,R,,,,,,Block.xlsx,"你已经完成了整个实验（三个区组）。

请报告实验者已完成实验

非常感谢，再见！",50,0,1.5,right,RRRRR.png,,,,,0,1,1,1,2,23,71,1,,,,,,,,,,,,,,,,,,,,,,,,,,,,,,,,,,,,,,,,,,,,,,,,,,,,,,,,,,,,,,,,376.56047770008445,376.96243710001,376.9448458000552,377.04529709997587,377.44535559997894,None,right,1,0.4295457999687642,377.44535559997894,None,376.9448458000552,377.04529709997587,377.04529709997587,None,377.895577999996,None,,,,,,,11030,001,2024_Jan_11_0822,ANT,2021.2.3,60.09265078494192,
1,22,spatial,down,C,R,,,,,,Block.xlsx,"你已经完成了整个实验（三个区组）。

请报告实验者已完成实验

非常感谢，再见！",-1.5,0,-1.5,right,RRRRR.png,,,,,0,1,1,1,3,0,72,21,,,,,,,,,,,,,,,,,,,,,,,,,,,,,,,,,,,,,,,,,,,,,,,,,,,,,,,,,,,,,,,,378.2968864000868,378.6986599001102,378.6807341000531,378.78130790009163,379.1817218998913,None,right,1,0.34085989999584854,379.1817218998913,None,378.6807341000531,378.78130790009163,378.78130790009163,None,379.5481227999553,None,,,,,,,11030,001,2024_Jan_11_0822,ANT,2021.2.3,60.09265078494192,
1,1,no,up,C,L,,,,,,Block.xlsx,"你已经完成了整个实验（三个区组）。

请报告实验者已完成实验

非常感谢，再见！",50,0,1.5,left,LLLLL.png,,,,,0,1,1,1,3,1,73,0,,,,,,,,,,,,,,,,,,,,,,,,,,,,,,,,,,,,,,,,,,,,,,,,,,,,,,,,,,,,,,,,379.9497716999613,380.3503437000327,380.33257450000383,380.4332262999378,380.8340231999755,None,left,1,0.4006893001496792,380.8340231999755,None,380.33257450000383,380.4332262999378,380.4332262999378,None,381.25211229990236,None,,,,,,,11030,001,2024_Jan_11_0822,ANT,2021.2.3,60.09265078494192,
1,12,center,up,IC,R,,,,,,Block.xlsx,"你已经完成了整个实验（三个区组）。

请报告实验者已完成实验

非常感谢，再见！",0,50,1.5,right,LLRLL.png,,,,,0,1,1,1,3,2,74,11,,,,,,,,,,,,,,,,,,,,,,,,,,,,,,,,,,,,,,,,,,,,,,,,,,,,,,,,,,,,,,,,381.6514890999533,382.05199609999545,382.03648029989563,382.1359647999052,382.5355869999621,None,left,0,0.41908220015466213,382.5355869999621,None,382.03648029989563,382.1359647999052,382.1359647999052,None,382.9699824999552,None,,,,,,,11030,001,2024_Jan_11_0822,ANT,2021.2.3,60.09265078494192,
1,8,no,down,IC,R,,,,,,Block.xlsx,"你已经完成了整个实验（三个区组）。

请报告实验者已完成实验

非常感谢，再见！",50,0,-1.5,right,LLRLL.png,,,,,0,1,1,1,3,3,75,7,,,,,,,,,,,,,,,,,,,,,,,,,,,,,,,,,,,,,,,,,,,,,,,,,,,,,,,,,,,,,,,,383.37038289988413,383.7718011001125,383.75500390003435,383.8545377999544,384.25576819991693,None,right,1,0.5798575000371784,384.25576819991693,None,383.75500390003435,383.8545377999544,383.8545377999544,None,384.8559816000052,None,,,,,,,11030,001,2024_Jan_11_0822,ANT,2021.2.3,60.09265078494192,
1,6,no,down,C,R,,,,,,Block.xlsx,"你已经完成了整个实验（三个区组）。

请报告实验者已完成实验

非常感谢，再见！",50,0,-1.5,right,RRRRR.png,,,,,0,1,1,1,3,4,76,5,,,,,,,,,,,,,,,,,,,,,,,,,,,,,,,,,,,,,,,,,,,,,,,,,,,,,,,,,,,,,,,,385.25737509992905,385.65915039996617,385.64049370004795,385.7412882000208,386.1429288999643,None,right,1,0.4998538000509143,386.1429288999643,None,385.64049370004795,385.7412882000208,385.7412882000208,None,386.658854899928,None,,,,,,,11030,001,2024_Jan_11_0822,ANT,2021.2.3,60.09265078494192,
1,13,center,down,C,L,,,,,,Block.xlsx,"你已经完成了整个实验（三个区组）。

请报告实验者已完成实验

非常感谢，再见！",0,50,-1.5,left,LLLLL.png,,,,,0,1,1,1,3,5,77,12,,,,,,,,,,,,,,,,,,,,,,,,,,,,,,,,,,,,,,,,,,,,,,,,,,,,,,,,,,,,,,,,387.05967610003427,387.46063990006223,387.4435564999003,387.5439810999669,387.9446662000846,None,left,1,0.4739487001206726,387.9446662000846,None,387.4435564999003,387.5439810999669,387.5439810999669,None,388.4451884001028,None,,,,,,,11030,001,2024_Jan_11_0822,ANT,2021.2.3,60.09265078494192,
1,14,center,down,C,R,,,,,,Block.xlsx,"你已经完成了整个实验（三个区组）。

请报告实验者已完成实验

非常感谢，再见！",0,50,-1.5,right,RRRRR.png,,,,,0,1,1,1,3,6,78,13,,,,,,,,,,,,,,,,,,,,,,,,,,,,,,,,,,,,,,,,,,,,,,,,,,,,,,,,,,,,,,,,388.8453216999769,389.2453473000787,389.2290342000779,389.3294893000275,389.7304797999095,None,right,1,0.6640552999451756,389.7304797999095,None,389.2290342000779,389.3294893000275,389.3294893000275,None,390.41456230008043,None,,,,,,,11030,001,2024_Jan_11_0822,ANT,2021.2.3,60.09265078494192,
1,5,no,down,C,L,,,,,,Block.xlsx,"你已经完成了整个实验（三个区组）。

请报告实验者已完成实验

非常感谢，再见！",50,0,-1.5,left,LLLLL.png,,,,,0,1,1,1,3,7,79,4,,,,,,,,,,,,,,,,,,,,,,,,,,,,,,,,,,,,,,,,,,,,,,,,,,,,,,,,,,,,,,,,390.814411399886,391.21665519988164,391.1993100999389,391.2989501999691,391.6997885000892,None,left,1,0.5991593000944704,391.6997885000892,None,391.1993100999389,391.2989501999691,391.2989501999691,None,392.31723170005716,None,,,,,,,11030,001,2024_Jan_11_0822,ANT,2021.2.3,60.09265078494192,
1,16,center,down,IC,R,,,,,,Block.xlsx,"你已经完成了整个实验（三个区组）。

请报告实验者已完成实验

非常感谢，再见！",0,50,-1.5,right,LLRLL.png,,,,,0,1,1,1,3,8,80,15,,,,,,,,,,,,,,,,,,,,,,,,,,,,,,,,,,,,,,,,,,,,,,,,,,,,,,,,,,,,,,,,392.7176747000776,393.12020080001093,393.1030025999062,393.2201545999851,393.6023540000897,None,right,1,0.5524059999734163,393.6023540000897,None,393.1030025999062,393.2201545999851,393.2019344000146,None,394.16979909990914,None,,,,,,,11030,001,2024_Jan_11_0822,ANT,2021.2.3,60.09265078494192,
1,22,spatial,down,C,R,,,,,,Block.xlsx,"你已经完成了整个实验（三个区组）。

请报告实验者已完成实验

非常感谢，再见！",-1.5,0,-1.5,right,RRRRR.png,,,,,0,1,1,1,3,9,81,21,,,,,,,,,,,,,,,,,,,,,,,,,,,,,,,,,,,,,,,,,,,,,,,,,,,,,,,,,,,,,,,,394.5708469999954,394.97256839997135,394.9544041999616,395.05512310005724,395.4552712000441,None,right,1,0.39606399997137487,395.4552712000441,None,394.9544041999616,395.05512310005724,395.05512310005724,None,395.8723033000715,None,,,,,,,11030,001,2024_Jan_11_0822,ANT,2021.2.3,60.09265078494192,
1,13,center,down,C,L,,,,,,Block.xlsx,"你已经完成了整个实验（三个区组）。

请报告实验者已完成实验

非常感谢，再见！",0,50,-1.5,left,LLLLL.png,,,,,0,1,1,1,3,10,82,12,,,,,,,,,,,,,,,,,,,,,,,,,,,,,,,,,,,,,,,,,,,,,,,,,,,,,,,,,,,,,,,,396.2735152998939,396.6736447000876,396.65935329999775,396.77521270001307,397.1600782999303,None,left,1,0.3789281998760998,397.1600782999303,None,396.65935329999775,396.77521270001307,396.7574245999567,None,397.5587309000548,None,,,,,,,11030,001,2024_Jan_11_0822,ANT,2021.2.3,60.09265078494192,
1,8,no,down,IC,R,,,,,,Block.xlsx,"你已经完成了整个实验（三个区组）。

请报告实验者已完成实验

非常感谢，再见！",50,0,-1.5,right,LLRLL.png,,,,,0,1,1,1,3,11,83,7,,,,,,,,,,,,,,,,,,,,,,,,,,,,,,,,,,,,,,,,,,,,,,,,,,,,,,,,,,,,,,,,397.95869649993256,398.3595193999354,398.34288550005294,398.4438567000907,398.8444447000511,None,right,1,0.566969599807635,398.8444447000511,None,398.34288550005294,398.4438567000907,398.4438567000907,None,399.4289402998984,None,,,,,,,11030,001,2024_Jan_11_0822,ANT,2021.2.3,60.09265078494192,
1,15,center,down,IC,L,,,,,,Block.xlsx,"你已经完成了整个实验（三个区组）。

请报告实验者已完成实验

非常感谢，再见！",0,50,-1.5,left,RRLRR.png,,,,,0,1,1,1,3,12,84,14,,,,,,,,,,,,,,,,,,,,,,,,,,,,,,,,,,,,,,,,,,,,,,,,,,,,,,,,,,,,,,,,399.82821050006896,400.2285313999746,400.21202869992703,400.31228559999727,400.71281710010953,None,left,1,0.5462923001032323,400.71281710010953,None,400.21202869992703,400.31228559999727,400.31228559999727,None,401.2804992001038,None,,,,,,,11030,001,2024_Jan_11_0822,ANT,2021.2.3,60.09265078494192,
1,5,no,down,C,L,,,,,,Block.xlsx,"你已经完成了整个实验（三个区组）。

请报告实验者已完成实验

非常感谢，再见！",50,0,-1.5,left,LLLLL.png,,,,,0,1,1,1,3,13,85,4,,,,,,,,,,,,,,,,,,,,,,,,,,,,,,,,,,,,,,,,,,,,,,,,,,,,,,,,,,,,,,,,401.680884399917,402.0836698000785,402.0647829999216,402.1663063999731,402.56549769989215,None,left,1,0.5570753000210971,402.56549769989215,None,402.0647829999216,402.1663063999731,402.1663063999731,None,403.1499270000495,None,,,,,,,11030,001,2024_Jan_11_0822,ANT,2021.2.3,60.09265078494192,
1,4,no,up,IC,R,,,,,,Block.xlsx,"你已经完成了整个实验（三个区组）。

请报告实验者已完成实验

非常感谢，再见！",50,0,1.5,right,LLRLL.png,,,,,0,1,1,1,3,14,86,3,,,,,,,,,,,,,,,,,,,,,,,,,,,,,,,,,,,,,,,,,,,,,,,,,,,,,,,,,,,,,,,,403.5504628000781,403.9521308999974,403.9343848999124,404.03623219998553,404.436887399992,None,right,1,0.6060587000101805,404.436887399992,None,403.9343848999124,404.03623219998553,404.03623219998553,None,405.0692435998935,None,,,,,,,11030,001,2024_Jan_11_0822,ANT,2021.2.3,60.09265078494192,
1,6,no,down,C,R,,,,,,Block.xlsx,"你已经完成了整个实验（三个区组）。

请报告实验者已完成实验

非常感谢，再见！",50,0,-1.5,right,RRRRR.png,,,,,0,1,1,1,3,15,87,5,,,,,,,,,,,,,,,,,,,,,,,,,,,,,,,,,,,,,,,,,,,,,,,,,,,,,,,,,,,,,,,,405.46986029995605,405.87096789991483,405.85535419988446,405.95383460004814,406.3548908000812,None,right,1,0.6718011000193655,406.3548908000812,None,405.85535419988446,405.95383460004814,405.95383460004814,None,407.055868800031,None,,,,,,,11030,001,2024_Jan_11_0822,ANT,2021.2.3,60.09265078494192,
1,11,center,up,IC,L,,,,,,Block.xlsx,"你已经完成了整个实验（三个区组）。

请报告实验者已完成实验

非常感谢，再见！",0,50,1.5,left,RRLRR.png,,,,,0,1,1,1,3,16,88,10,,,,,,,,,,,,,,,,,,,,,,,,,,,,,,,,,,,,,,,,,,,,,,,,,,,,,,,,,,,,,,,,407.4568898000289,407.85758140007965,407.84060380002484,407.94014919991605,408.3426604999695,None,left,1,0.5559489000588655,408.3426604999695,None,407.84060380002484,407.94014919991605,407.94014919991605,None,408.9253873000853,None,,,,,,,11030,001,2024_Jan_11_0822,ANT,2021.2.3,60.09265078494192,
1,19,spatial,up,IC,L,,,,,,Block.xlsx,"你已经完成了整个实验（三个区组）。

请报告实验者已完成实验

非常感谢，再见！",1.5,0,1.5,left,RRLRR.png,,,,,0,1,1,1,3,17,89,18,,,,,,,,,,,,,,,,,,,,,,,,,,,,,,,,,,,,,,,,,,,,,,,,,,,,,,,,,,,,,,,,409.32590480009094,409.72715670010075,409.71026160009205,409.80964839993976,410.21027430007234,None,left,1,0.48829220002517104,410.21027430007234,None,409.71026160009205,409.80964839993976,409.80964839993976,None,410.7275072999764,None,,,,,,,11030,001,2024_Jan_11_0822,ANT,2021.2.3,60.09265078494192,
1,14,center,down,C,R,,,,,,Block.xlsx,"你已经完成了整个实验（三个区组）。

请报告实验者已完成实验

非常感谢，再见！",0,50,-1.5,right,RRRRR.png,,,,,0,1,1,1,3,18,90,13,,,,,,,,,,,,,,,,,,,,,,,,,,,,,,,,,,,,,,,,,,,,,,,,,,,,,,,,,,,,,,,,411.1283040000126,411.52948180004023,411.51290030009113,411.6125370999798,412.0134225001093,None,right,1,0.5010639000684023,412.0134225001093,None,411.51290030009113,411.6125370999798,411.6125370999798,None,412.5304628999438,None,,,,,,,11030,001,2024_Jan_11_0822,ANT,2021.2.3,60.09265078494192,
1,20,spatial,up,IC,R,,,,,,Block.xlsx,"你已经完成了整个实验（三个区组）。

请报告实验者已完成实验

非常感谢，再见！",1.5,0,1.5,right,LLRLL.png,,,,,0,1,1,1,3,19,91,19,,,,,,,,,,,,,,,,,,,,,,,,,,,,,,,,,,,,,,,,,,,,,,,,,,,,,,,,,,,,,,,,412.9309014000464,413.33278400008567,413.31486440007575,413.4149086000398,413.81740629998967,None,right,1,0.4171378000173718,413.81740629998967,None,413.31486440007575,413.4149086000398,413.4149086000398,None,414.2495486999396,None,,,,,,,11030,001,2024_Jan_11_0822,ANT,2021.2.3,60.09265078494192,
1,4,no,up,IC,R,,,,,,Block.xlsx,"你已经完成了整个实验（三个区组）。

请报告实验者已完成实验

