TrialType,TrialNumber,WarningType,TargetType,FlankerType,TargetDirection,W,f,Y,corr,imageFile,condition,endtext,Yw,Yf,Yt,Corr,imagefile,trials_3.thisRepN,trials_3.thisTrialN,trials_3.thisN,trials_3.thisIndex,trials_2.thisRepN,trials_2.thisTrialN,trials_2.thisN,trials_2.thisIndex,trials.thisRepN,trials.thisTrialN,trials.thisN,trials.thisIndex,instr.started,instr.stopped,key_resp.keys,key_resp.rt,key_resp.started,key_resp.stopped,image.started,image.stopped,key_resp_6.keys,key_resp_6.rt,key_resp_6.started,key_resp_6.stopped,EX_L.started,EX_L.stopped,AL.started,AL.stopped,key_resp_7.keys,key_resp_7.rt,key_resp_7.started,key_resp_7.stopped,EX_R.started,EX_R.stopped,RR.started,RR.stopped,key_resp_8.keys,key_resp_8.rt,key_resp_8.started,key_resp_8.stopped,image_2.started,image_2.stopped,key_resp_9.keys,key_resp_9.rt,key_resp_9.started,key_resp_9.stopped,image_3.started,image_3.stopped,key_resp_10.keys,key_resp_10.rt,key_resp_10.started,key_resp_10.stopped,fix.started,fix.stopped,war.started,war.stopped,tar.started,tar.stopped,key_resp_4.keys,key_resp_4.corr,key_resp_4.rt,key_resp_4.started,key_resp_4.stopped,fix2.started,fix2.stopped,fix_2.started,fix_2.stopped,Feedback.started,Feedback.stopped,key_resp_2.keys,key_resp_2.rt,key_resp_2.started,key_resp_2.stopped,text_5.started,text_5.stopped,fix2_1.started,fix2_1.stopped,Warn.started,Warn.stopped,Tar.started,Tar.stopped,key_resp_5.keys,key_resp_5.corr,key_resp_5.rt,key_resp_5.started,key_resp_5.stopped,Fix_2.started,Fix_2.stopped,fix2_2.started,fix2_2.stopped,text_4.started,text_4.stopped,key_resp_3.keys,key_resp_3.rt,key_resp_3.started,key_resp_3.stopped,text_3.started,text_3.stopped,participant,session,date,expName,psychopyVersion,frameRate,
,,,,,,,,,,,,,,,,,,,,,,,,,,,,,,10.317633499857038,None,space,3.122581300092861,10.317633499857038,None,,,,,,,,,,,,,,,,,,,,,,,,,,,,,,,,,,,,,,,,,,,,,,,,,,,,,,,,,,,,,,,,,,,,,,,,,,,,,,,,,11038,001,2024_Mar_11_1619,ANT,2021.2.3,59.95577656166032,
,,,,,,,,,,,,,,,,,,,,,,,,,,,,,,,,,,,,13.471107800025493,None,space,3.4015754000283778,13.471107800025493,None,,,,,,,,,,,,,,,,,,,,,,,,,,,,,,,,,,,,,,,,,,,,,,,,,,,,,,,,,,,,,,,,,,,,,,,,,,,11038,001,2024_Mar_11_1619,ANT,2021.2.3,59.95577656166032,
,,,,,,,,,,,,,,,,,,,,,,,,,,,,,,,,,,,,,,,,,,16.893072800012305,None,16.893072800012305,None,left,1.403332400135696,16.893072800012305,None,,,,,,,,,,,,,,,,,,,,,,,,,,,,,,,,,,,,,,,,,,,,,,,,,,,,,,,,,,,,,,,,,,,11038,001,2024_Mar_11_1619,ANT,2021.2.3,59.95577656166032,
,,,,,,,,,,,,,,,,,,,,,,,,,,,,,,,,,,,,,,,,,,,,,,,,,,18.31147599988617,None,18.31147599988617,None,right,0.8808397999964654,18.31147599988617,None,,,,,,,,,,,,,,,,,,,,,,,,,,,,,,,,,,,,,,,,,,,,,,,,,,,,,,,,,,,11038,001,2024_Mar_11_1619,ANT,2021.2.3,59.95577656166032,
,,,,,,,,,,,,,,,,,,,,,,,,,,,,,,,,,,,,,,,,,,,,,,,,,,,,,,,,,,19.21294380002655,None,space,2.6115987000521272,19.21294380002655,None,,,,,,,,,,,,,,,,,,,,,,,,,,,,,,,,,,,,,,,,,,,,,,,,,,,,,11038,001,2024_Mar_11_1619,ANT,2021.2.3,59.95577656166032,
,,,,,,,,,,,,,,,,,,,,,,,,,,,,,,,,,,,,,,,,,,,,,,,,,,,,,,,,,,,,,,,,21.85048140003346,None,space,4.50996210006997,21.85048140003346,None,,,,,,,,,,,,,,,,,,,,,,,,,,,,,,,,,,,,,,,,,,,,,,,11038,001,2024_Mar_11_1619,ANT,2021.2.3,59.95577656166032,
0,6,center,up,IC,R,0,50,1.5,right,LLRLL.png,,,,,,,,0,0,0,5,,,,,,,,,,,,,,,,,,,,,,,,,,,,,,,,,,,,,,,,,,,,,,,,,26.456959899980575,26.858330599963665,26.843269200064242,26.959659399930388,27.34428029996343,None,right,1,0.680402799975127,27.34428029996343,None,26.843269200064242,26.959659399930388,26.94218929996714,None,28.060165399918333,None,,,,,,,,,,,,,,,,,,,,,,,,,,,,,,11038,001,2024_Mar_11_1619,ANT,2021.2.3,59.95577656166032,
0,7,center,down,C,R,0,50,-1.5,right,RRRRR.png,,,,,,,,0,1,1,6,,,,,,,,,,,,,,,,,,,,,,,,,,,,,,,,,,,,,,,,,,,,,,,,,30.063362600049004,30.464281199965626,30.448463700013235,30.564559399848804,30.948315300047398,None,right,1,0.6129758001770824,30.948315300047398,None,30.448463700013235,30.564559399848804,30.54684149986133,None,31.581446300027892,None,,,,,,,,,,,,,,,,,,,,,,,,,,,,,,11038,001,2024_Mar_11_1619,ANT,2021.2.3,59.95577656166032,
0,8,center,down,IC,L,0,50,-1.5,left,RRLRR.png,,,,,,,,0,2,2,7,,,,,,,,,,,,,,,,,,,,,,,,,,,,,,,,,,,,,,,,,,,,,,,,,33.584583499934524,33.98676889995113,33.96855190000497,34.06880429992452,34.47029269998893,None,left,1,0.5307201999239624,34.47029269998893,None,33.96855190000497,34.06880429992452,34.06880429992452,None,35.02024780004285,None,,,,,,,,,,,,,,,,,,,,,,,,,,,,,,11038,001,2024_Mar_11_1619,ANT,2021.2.3,59.95577656166032,
0,10,spatial,up,IC,L,1.5,0,1.5,left,RRLRR.png,,,,,,,,0,3,3,9,,,,,,,,,,,,,,,,,,,,,,,,,,,,,,,,,,,,,,,,,,,,,,,,,37.02304630004801,37.42368169990368,37.40845189988613,37.508136899909005,37.908506399951875,None,left,1,0.4603516000788659,37.908506399951875,None,37.40845189988613,37.508136899909005,37.508136899909005,None,38.39173380006105,None,,,,,,,,,,,,,,,,,,,,,,,,,,,,,,11038,001,2024_Mar_11_1619,ANT,2021.2.3,59.95577656166032,
0,2,no,up,IC,R,50,0,1.5,right,LLRLL.png,,,,,,,,0,4,4,1,,,,,,,,,,,,,,,,,,,,,,,,,,,,,,,,,,,,,,,,,,,,,,,,,40.396313400007784,40.796270000049844,40.778757999883965,40.87920610001311,41.280504500027746,None,right,1,0.6008757997769862,41.280504500027746,None,40.778757999883965,40.87920610001311,40.87920610001311,None,41.89753519999795,None,,,,,,,,,,,,,,,,,,,,,,,,,,,,,,11038,001,2024_Mar_11_1619,ANT,2021.2.3,59.95577656166032,
0,11,spatial,down,C,L,-1.5,0,-1.5,left,LLLLL.png,,,,,,,,0,5,5,10,,,,,,,,,,,,,,,,,,,,,,,,,,,,,,,,,,,,,,,,,,,,,,,,,43.90016149985604,44.3018696999643,44.28475059987977,44.38583849999122,44.78642660006881,None,left,1,0.35073629999533296,44.78642660006881,None,44.28475059987977,44.38583849999122,44.38583849999122,None,45.16889169998467,None,,,,,,,,,,,,,,,,,,,,,,,,,,,,,,11038,001,2024_Mar_11_1619,ANT,2021.2.3,59.95577656166032,
0,4,no,down,IC,L,50,0,-1.5,left,RRLRR.png,,,,,,,,0,6,6,3,,,,,,,,,,,,,,,,,,,,,,,,,,,,,,,,,,,,,,,,,,,,,,,,,47.17179429996759,47.57434559985995,47.5558633999899,47.657051800051704,48.05856440006755,None,left,1,0.647379299858585,48.05856440006755,None,47.5558633999899,47.657051800051704,47.657051800051704,None,48.724140000063926,None,,,,,,,,,,,,,,,,,,,,,,,,,,,,,,11038,001,2024_Mar_11_1619,ANT,2021.2.3,59.95577656166032,
0,12,spatial,down,IC,R,-1.5,0,-1.5,right,LLRLL.png,,,,,,,,0,7,7,11,,,,,,,,,,,,,,,,,,,,,,,,,,,,,,,,,,,,,,,,,,,,,,,,,50.72794219991192,51.127642299979925,51.11155779985711,51.21212480007671,51.61394599988125,None,right,1,0.43561739986762404,51.61394599988125,None,51.11155779985711,51.21212480007671,51.21212480007671,None,52.07930710003711,None,,,,,,,,,,,,,,,,,,,,,,,,,,,,,,11038,001,2024_Mar_11_1619,ANT,2021.2.3,59.95577656166032,
0,1,no,up,C,L,50,0,1.5,left,LLLLL.png,,,,,,,,0,8,8,0,,,,,,,,,,,,,,,,,,,,,,,,,,,,,,,,,,,,,,,,,,,,,,,,,54.08335949992761,54.48278800002299,54.468669899972156,54.58416919992305,54.966920600039884,None,left,1,0.5075572000350803,54.966920600039884,None,54.468669899972156,54.58416919992305,54.567451499868184,None,55.51918140007183,None,,,,,,,,,,,,,,,,,,,,,,,,,,,,,,11038,001,2024_Mar_11_1619,ANT,2021.2.3,59.95577656166032,
0,3,no,down,C,R,50,0,-1.5,right,RRRRR.png,,,,,,,,0,9,9,2,,,,,,,,,,,,,,,,,,,,,,,,,,,,,,,,,,,,,,,,,,,,,,,,,57.521647799992934,57.92136129993014,57.9055764998775,58.004727999912575,58.40616529993713,None,right,1,0.4116050999145955,58.40616529993713,None,57.9055764998775,58.004727999912575,58.004727999912575,None,58.83916569990106,None,,,,,,,,,,,,,,,,,,,,,,,,,,,,,,11038,001,2024_Mar_11_1619,ANT,2021.2.3,59.95577656166032,
0,9,spatial,up,C,R,1.5,0,1.5,right,RRRRR.png,,,,,,,,0,10,10,8,,,,,,,,,,,,,,,,,,,,,,,,,,,,,,,,,,,,,,,,,,,,,,,,,60.84224239992909,61.2447925999295,61.22699310001917,61.32885179994628,61.72732129995711,None,right,1,0.40267069987021387,61.72732129995711,None,61.22699310001917,61.32885179994628,61.32885179994628,None,62.144180099945515,None,,,,,,,,,,,,,,,,,,,,,,,,,,,,,,11038,001,2024_Mar_11_1619,ANT,2021.2.3,59.95577656166032,
0,5,center,up,C,L,0,50,1.5,left,LLLLL.png,,,,,,,,0,11,11,4,,,,,,,,,,,,,,,,,,,,,,,,,,,,,,,,,,,,,,,,,,,,,,,,,64.14735789992847,64.54961339989677,64.53121370007284,64.63265559985302,65.03262349986471,None,left,1,0.4567752000875771,65.03262349986471,None,64.53121370007284,64.63265559985302,64.63265559985302,None,65.51604339992628,None,,,,,,,,,,,,,,,,,,,,,,,,,,,,,,11038,001,2024_Mar_11_1619,ANT,2021.2.3,59.95577656166032,
,,,,,,,,,,,,,,,,,,,,,,,,,,,,,,,,,,,,,,,,,,,,,,,,,,,,,,,,,,,,,,,,,,,,,,,,,,,,,,,,,,,,,,,space,8.153476199833676,67.5203616998624,None,,,,,,,,,,,,,,,,,,,,,,,,,,11038,001,2024_Mar_11_1619,ANT,2021.2.3,59.95577656166032,
1,21,spatial,down,C,L,,,,,,Block.xlsx,"你已经完成了第一个实验区组

请稍作休息


点击空格键进入下一个区组。",-1.5,0,-1.5,left,LLLLL.png,,,,,0,0,0,0,0,0,0,20,,,,,,,,,,,,,,,,,,,,,,,,,,,,,,,,,,,,,,,,,,,,,,,,,,,,,,,,,,,,,,67.5203616998624,None,75.73284239997156,76.13321210001595,76.11644489993341,76.21671699988656,76.61622019996867,None,left,1,0.3296828998718411,76.61622019996867,None,76.11644489993341,76.21671699988656,76.21671699988656,None,76.96677040006034,None,,,,,,,11038,001,2024_Mar_11_1619,ANT,2021.2.3,59.95577656166032,
1,8,no,down,IC,R,,,,,,Block.xlsx,"你已经完成了第一个实验区组

请稍作休息


点击空格键进入下一个区组。",50,0,-1.5,right,LLRLL.png,,,,,0,0,0,0,0,1,1,7,,,,,,,,,,,,,,,,,,,,,,,,,,,,,,,,,,,,,,,,,,,,,,,,,,,,,,,,,,,,,,,,77.36820909986272,77.76885710004717,77.7521085999906,77.85201899986714,78.25407739984803,None,right,1,0.5167193000670522,78.25407739984803,None,77.7521085999906,77.85201899986714,77.85201899986714,None,78.78618519986048,None,,,,,,,11038,001,2024_Mar_11_1619,ANT,2021.2.3,59.95577656166032,
1,11,center,up,IC,L,,,,,,Block.xlsx,"你已经完成了第一个实验区组

请稍作休息


点击空格键进入下一个区组。",0,50,1.5,left,RRLRR.png,,,,,0,0,0,0,0,2,2,10,,,,,,,,,,,,,,,,,,,,,,,,,,,,,,,,,,,,,,,,,,,,,,,,,,,,,,,,,,,,,,,,79.18691159994341,79.58736889995635,79.57143180002458,79.67148300004192,80.07259300001897,None,left,1,0.5064862999133766,80.07259300001897,None,79.57143180002458,79.67148300004192,79.67148300004192,None,80.60560079989955,None,,,,,,,11038,001,2024_Mar_11_1619,ANT,2021.2.3,59.95577656166032,
1,22,spatial,down,C,R,,,,,,Block.xlsx,"你已经完成了第一个实验区组

请稍作休息


点击空格键进入下一个区组。",-1.5,0,-1.5,right,RRRRR.png,,,,,0,0,0,0,0,3,3,21,,,,,,,,,,,,,,,,,,,,,,,,,,,,,,,,,,,,,,,,,,,,,,,,,,,,,,,,,,,,,,,,81.00725249992684,81.40665360004641,81.39203720004298,81.50702530005947,81.89201990002766,None,right,1,0.3512413001153618,81.89201990002766,None,81.39203720004298,81.50702530005947,81.4921822999604,None,82.2580631999299,None,,,,,,,11038,001,2024_Mar_11_1619,ANT,2021.2.3,59.95577656166032,
1,22,spatial,down,C,R,,,,,,Block.xlsx,"你已经完成了第一个实验区组

请稍作休息


点击空格键进入下一个区组。",-1.5,0,-1.5,right,RRRRR.png,,,,,0,0,0,0,0,4,4,21,,,,,,,,,,,,,,,,,,,,,,,,,,,,,,,,,,,,,,,,,,,,,,,,,,,,,,,,,,,,,,,,82.65930190007202,83.05926320003346,83.04343870002776,83.14369129994884,83.5433409998659,None,right,1,0.371359100099653,83.5433409998659,None,83.04343870002776,83.14369129994884,83.14369129994884,None,83.94406999996863,None,,,,,,,11038,001,2024_Mar_11_1619,ANT,2021.2.3,59.95577656166032,
1,10,center,up,C,R,,,,,,Block.xlsx,"你已经完成了第一个实验区组

请稍作休息


点击空格键进入下一个区组。",0,50,1.5,right,RRRRR.png,,,,,0,0,0,0,0,5,5,9,,,,,,,,,,,,,,,,,,,,,,,,,,,,,,,,,,,,,,,,,,,,,,,,,,,,,,,,,,,,,,,,84.34580029989593,84.74632959999144,84.72923389985226,84.82968359999359,85.22939880006015,None,right,1,0.412928800098598,85.22939880006015,None,84.72923389985226,84.82968359999359,84.82968359999359,None,85.66326850000769,None,,,,,,,11038,001,2024_Mar_11_1619,ANT,2021.2.3,59.95577656166032,
1,13,center,down,C,L,,,,,,Block.xlsx,"你已经完成了第一个实验区组

请稍作休息


点击空格键进入下一个区组。",0,50,-1.5,left,LLLLL.png,,,,,0,0,0,0,0,6,6,12,,,,,,,,,,,,,,,,,,,,,,,,,,,,,,,,,,,,,,,,,,,,,,,,,,,,,,,,,,,,,,,,86.06405839999206,86.46446619997732,86.44990339991637,86.56542410003021,86.95004200004041,None,left,1,0.3966123000718653,86.95004200004041,None,86.44990339991637,86.56542410003021,86.55002279998735,None,87.36568240006454,None,,,,,,,11038,001,2024_Mar_11_1619,ANT,2021.2.3,59.95577656166032,
1,23,spatial,down,IC,L,,,,,,Block.xlsx,"你已经完成了第一个实验区组

请稍作休息


点击空格键进入下一个区组。",-1.5,0,-1.5,left,RRLRR.png,,,,,0,0,0,0,0,7,7,22,,,,,,,,,,,,,,,,,,,,,,,,,,,,,,,,,,,,,,,,,,,,,,,,,,,,,,,,,,,,,,,,87.76700059999712,88.16787800006568,88.15246369992383,88.26761929993518,88.6530114999041,None,left,1,0.36642919993028045,88.6530114999041,None,88.15246369992383,88.26761929993518,88.25246159988455,None,89.05216089985333,None,,,,,,,11038,001,2024_Mar_11_1619,ANT,2021.2.3,59.95577656166032,
1,12,center,up,IC,R,,,,,,Block.xlsx,"你已经完成了第一个实验区组

请稍作休息


点击空格键进入下一个区组。",0,50,1.5,right,LLRLL.png,,,,,0,0,0,0,0,8,8,11,,,,,,,,,,,,,,,,,,,,,,,,,,,,,,,,,,,,,,,,,,,,,,,,,,,,,,,,,,,,,,,,89.45276129990816,89.85273039992899,89.83644860005006,89.93708469998091,90.33760929992422,None,right,1,0.45719220000319183,90.33760929992422,None,89.83644860005006,89.93708469998091,89.93708469998091,None,90.82088400004432,None,,,,,,,11038,001,2024_Mar_11_1619,ANT,2021.2.3,59.95577656166032,
1,21,spatial,down,C,L,,,,,,Block.xlsx,"你已经完成了第一个实验区组

请稍作休息


点击空格键进入下一个区组。",-1.5,0,-1.5,left,LLLLL.png,,,,,0,0,0,0,0,9,9,20,,,,,,,,,,,,,,,,,,,,,,,,,,,,,,,,,,,,,,,,,,,,,,,,,,,,,,,,,,,,,,,,91.22152879997157,91.62294159992598,91.60645699989982,91.70695189991966,92.10755379986949,None,left,1,0.33469370007514954,92.10755379986949,None,91.60645699989982,91.70695189991966,91.70695189991966,None,92.4733569000382,None,,,,,,,11038,001,2024_Mar_11_1619,ANT,2021.2.3,59.95577656166032,
1,2,no,up,C,R,,,,,,Block.xlsx,"你已经完成了第一个实验区组

请稍作休息


点击空格键进入下一个区组。",50,0,1.5,right,RRRRR.png,,,,,0,0,0,0,0,10,10,1,,,,,,,,,,,,,,,,,,,,,,,,,,,,,,,,,,,,,,,,,,,,,,,,,,,,,,,,,,,,,,,,92.87402849993668,93.27477149991319,93.25868860003538,93.35916039999574,93.75893340003677,None,right,1,0.40341709996573627,93.75893340003677,None,93.25868860003538,93.35916039999574,93.35916039999574,None,94.19275039993227,None,,,,,,,11038,001,2024_Mar_11_1619,ANT,2021.2.3,59.95577656166032,
1,24,spatial,down,IC,R,,,,,,Block.xlsx,"你已经完成了第一个实验区组

请稍作休息


点击空格键进入下一个区组。",-1.5,0,-1.5,right,LLRLL.png,,,,,0,0,0,0,0,11,11,23,,,,,,,,,,,,,,,,,,,,,,,,,,,,,,,,,,,,,,,,,,,,,,,,,,,,,,,,,,,,,,,,94.59383839997463,94.99535829992965,94.97757410001941,95.07734670001082,95.47801540000364,None,right,1,0.4606366001535207,95.47801540000364,None,94.97757410001941,95.07734670001082,95.07734670001082,None,95.96200870000757,None,,,,,,,11038,001,2024_Mar_11_1619,ANT,2021.2.3,59.95577656166032,
1,20,spatial,up,IC,R,,,,,,Block.xlsx,"你已经完成了第一个实验区组

请稍作休息


点击空格键进入下一个区组。",1.5,0,1.5,right,LLRLL.png,,,,,0,0,0,0,0,12,12,19,,,,,,,,,,,,,,,,,,,,,,,,,,,,,,,,,,,,,,,,,,,,,,,,,,,,,,,,,,,,,,,,96.36350960005075,96.76368650002405,96.74695729999803,96.8484711998608,97.24852299992926,None,right,1,0.4180159999523312,97.24852299992926,None,96.74695729999803,96.8484711998608,96.8484711998608,None,97.68139149993658,None,,,,,,,11038,001,2024_Mar_11_1619,ANT,2021.2.3,59.95577656166032,
1,20,spatial,up,IC,R,,,,,,Block.xlsx,"你已经完成了第一个实验区组

请稍作休息


点击空格键进入下一个区组。",1.5,0,1.5,right,LLRLL.png,,,,,0,0,0,0,0,13,13,19,,,,,,,,,,,,,,,,,,,,,,,,,,,,,,,,,,,,,,,,,,,,,,,,,,,,,,,,,,,,,,,,98.08249090006575,98.48482710006647,98.46576479985379,98.56605069991201,98.96660719998181,None,right,1,0.40421349997632205,98.96660719998181,None,98.46576479985379,98.56605069991201,98.56605069991201,None,99.40060749999247,None,,,,,,,11038,001,2024_Mar_11_1619,ANT,2021.2.3,59.95577656166032,
1,18,spatial,up,C,R,,,,,,Block.xlsx,"你已经完成了第一个实验区组

请稍作休息


点击空格键进入下一个区组。",1.5,0,1.5,right,RRRRR.png,,,,,0,0,0,0,0,14,14,17,,,,,,,,,,,,,,,,,,,,,,,,,,,,,,,,,,,,,,,,,,,,,,,,,,,,,,,,,,,,,,,,99.80116580007598,100.20233229990117,100.18701780005358,100.28587429993786,100.68593679997139,None,right,1,0.3488829000853002,100.68593679997139,None,100.18701780005358,100.28587429993786,100.28587429993786,None,101.0532988999039,None,,,,,,,11038,001,2024_Mar_11_1619,ANT,2021.2.3,59.95577656166032,
1,19,spatial,up,IC,L,,,,,,Block.xlsx,"你已经完成了第一个实验区组

请稍作休息


点击空格键进入下一个区组。",1.5,0,1.5,left,RRLRR.png,,,,,0,0,0,0,0,15,15,18,,,,,,,,,,,,,,,,,,,,,,,,,,,,,,,,,,,,,,,,,,,,,,,,,,,,,,,,,,,,,,,,101.45366339990869,101.85474810004234,101.83797960006632,101.93828350002877,102.33912250003777,None,left,1,0.3996221001725644,102.33912250003777,None,101.83797960006632,101.93828350002877,101.93828350002877,None,102.75577419996262,None,,,,,,,11038,001,2024_Mar_11_1619,ANT,2021.2.3,59.95577656166032,
1,18,spatial,up,C,R,,,,,,Block.xlsx,"你已经完成了第一个实验区组

请稍作休息


点击空格键进入下一个区组。",1.5,0,1.5,right,RRRRR.png,,,,,0,0,0,0,0,16,16,17,,,,,,,,,,,,,,,,,,,,,,,,,,,,,,,,,,,,,,,,,,,,,,,,,,,,,,,,,,,,,,,,103.15684409998357,103.55766509985551,103.5410517998971,103.64170349994674,104.04218719992787,None,right,1,0.35282679996453226,104.04218719992787,None,103.5410517998971,103.64170349994674,103.64170349994674,None,104.4247588000726,None,,,,,,,11038,001,2024_Mar_11_1619,ANT,2021.2.3,59.95577656166032,
1,10,center,up,C,R,,,,,,Block.xlsx,"你已经完成了第一个实验区组

请稍作休息


点击空格键进入下一个区组。",0,50,1.5,right,RRRRR.png,,,,,0,0,0,0,0,17,17,9,,,,,,,,,,,,,,,,,,,,,,,,,,,,,,,,,,,,,,,,,,,,,,,,,,,,,,,,,,,,,,,,104.82554450002499,105.22705310001038,105.2093470999971,105.31133019994013,105.71005399990827,None,right,1,0.43667849991470575,105.71005399990827,None,105.2093470999971,105.31133019994013,105.31133019994013,None,106.17745259986259,None,,,,,,,11038,001,2024_Mar_11_1619,ANT,2021.2.3,59.95577656166032,
1,12,center,up,IC,R,,,,,,Block.xlsx,"你已经完成了第一个实验区组

请稍作休息


点击空格键进入下一个区组。",0,50,1.5,right,LLRLL.png,,,,,0,0,0,0,0,18,18,11,,,,,,,,,,,,,,,,,,,,,,,,,,,,,,,,,,,,,,,,,,,,,,,,,,,,,,,,,,,,,,,,106.57916029985063,106.97865050006658,106.96342199994251,107.08024189993739,107.46274710004218,None,right,1,0.40440869983285666,107.46274710004218,None,106.96342199994251,107.08024189993739,107.06221950007603,None,107.89682759996504,None,,,,,,,11038,001,2024_Mar_11_1619,ANT,2021.2.3,59.95577656166032,
1,4,no,up,IC,R,,,,,,Block.xlsx,"你已经完成了第一个实验区组

请稍作休息


点击空格键进入下一个区组。",50,0,1.5,right,LLRLL.png,,,,,0,0,0,0,0,19,19,3,,,,,,,,,,,,,,,,,,,,,,,,,,,,,,,,,,,,,,,,,,,,,,,,,,,,,,,,,,,,,,,,108.29734629997984,108.6989185998682,108.68215689994395,108.78146460000426,109.18217350007035,None,right,1,0.46877850010059774,109.18217350007035,None,108.68215689994395,108.78146460000426,108.78146460000426,None,109.66587859997526,None,,,,,,,11038,001,2024_Mar_11_1619,ANT,2021.2.3,59.95577656166032,
1,16,center,down,IC,R,,,,,,Block.xlsx,"你已经完成了第一个实验区组

请稍作休息


点击空格键进入下一个区组。",0,50,-1.5,right,LLRLL.png,,,,,0,0,0,0,0,20,20,15,,,,,,,,,,,,,,,,,,,,,,,,,,,,,,,,,,,,,,,,,,,,,,,,,,,,,,,,,,,,,,,,110.0667584000621,110.46812779991888,110.45181229989976,110.55104839988053,110.95209849998355,None,right,1,0.6909473999403417,110.95209849998355,None,110.45181229989976,110.55104839988053,110.55104839988053,None,111.66894060000777,None,,,,,,,11038,001,2024_Mar_11_1619,ANT,2021.2.3,59.95577656166032,
1,24,spatial,down,IC,R,,,,,,Block.xlsx,"你已经完成了第一个实验区组

请稍作休息


点击空格键进入下一个区组。",-1.5,0,-1.5,right,LLRLL.png,,,,,0,0,0,0,0,21,21,23,,,,,,,,,,,,,,,,,,,,,,,,,,,,,,,,,,,,,,,,,,,,,,,,,,,,,,,,,,,,,,,,112.07034539990127,112.47165299998596,112.4547617000062,112.55438430001959,112.95427590003237,None,right,1,0.5928440000861883,112.95427590003237,None,112.4547617000062,112.55438430001959,112.55438430001959,None,113.57205149997026,None,,,,,,,11038,001,2024_Mar_11_1619,ANT,2021.2.3,59.95577656166032,
1,19,spatial,up,IC,L,,,,,,Block.xlsx,"你已经完成了第一个实验区组

请稍作休息


点击空格键进入下一个区组。",1.5,0,1.5,left,RRLRR.png,,,,,0,0,0,0,0,22,22,18,,,,,,,,,,,,,,,,,,,,,,,,,,,,,,,,,,,,,,,,,,,,,,,,,,,,,,,,,,,,,,,,113.97266720002517,114.37496559997089,114.35691639990546,114.45705119986087,114.85902029997669,None,left,1,0.40829139994457364,114.85902029997669,None,114.35691639990546,114.45705119986087,114.45705119986087,None,115.29129659989849,None,,,,,,,11038,001,2024_Mar_11_1619,ANT,2021.2.3,59.95577656166032,
1,11,center,up,IC,L,,,,,,Block.xlsx,"你已经完成了第一个实验区组

请稍作休息


点击空格键进入下一个区组。",0,50,1.5,left,RRLRR.png,,,,,0,0,0,0,0,23,23,10,,,,,,,,,,,,,,,,,,,,,,,,,,,,,,,,,,,,,,,,,,,,,,,,,,,,,,,,,,,,,,,,115.69241979997605,116.09324630000629,116.07661979994737,116.17656409996562,116.57764140004292,None,left,1,0.5055507998913527,116.57764140004292,None,116.07661979994737,116.17656409996562,116.17656409996562,None,117.11120019992813,None,,,,,,,11038,001,2024_Mar_11_1619,ANT,2021.2.3,59.95577656166032,
1,24,spatial,down,IC,R,,,,,,Block.xlsx,"你已经完成了第一个实验区组

请稍作休息


点击空格键进入下一个区组。",-1.5,0,-1.5,right,LLRLL.png,,,,,0,0,0,0,1,0,24,23,,,,,,,,,,,,,,,,,,,,,,,,,,,,,,,,,,,,,,,,,,,,,,,,,,,,,,,,,,,,,,,,117.5114585000556,117.91206849995069,117.89583930000663,117.99717170000076,118.39644509996288,None,right,1,0.4228525999933481,118.39644509996288,None,117.89583930000663,117.99717170000076,117.99717170000076,None,118.84672129992396,None,,,,,,,11038,001,2024_Mar_11_1619,ANT,2021.2.3,59.95577656166032,
1,12,center,up,IC,R,,,,,,Block.xlsx,"你已经完成了第一个实验区组

请稍作休息


点击空格键进入下一个区组。",0,50,1.5,right,LLRLL.png,,,,,0,0,0,0,1,1,25,11,,,,,,,,,,,,,,,,,,,,,,,,,,,,,,,,,,,,,,,,,,,,,,,,,,,,,,,,,,,,,,,,119.2471499000676,119.6500875998754,119.63177149998955,119.73136450001039,120.13291629985906,None,right,1,0.3904818999581039,120.13291629985906,None,119.63177149998955,119.73136450001039,119.73136450001039,None,120.54921249998733,None,,,,,,,11038,001,2024_Mar_11_1619,ANT,2021.2.3,59.95577656166032,
1,18,spatial,up,C,R,,,,,,Block.xlsx,"你已经完成了第一个实验区组

请稍作休息


点击空格键进入下一个区组。",1.5,0,1.5,right,RRRRR.png,,,,,0,0,0,0,1,2,26,17,,,,,,,,,,,,,,,,,,,,,,,,,,,,,,,,,,,,,,,,,,,,,,,,,,,,,,,,,,,,,,,,120.95073090004735,121.35248910007067,121.33406909997575,121.43395909992978,121.83529899991117,None,right,1,0.3358328000176698,121.83529899991117,None,121.33406909997575,121.43395909992978,121.43395909992978,None,122.20275769988075,None,,,,,,,11038,001,2024_Mar_11_1619,ANT,2021.2.3,59.95577656166032,
1,1,no,up,C,L,,,,,,Block.xlsx,"你已经完成了第一个实验区组

请稍作休息


点击空格键进入下一个区组。",50,0,1.5,left,LLLLL.png,,,,,0,0,0,0,1,3,27,0,,,,,,,,,,,,,,,,,,,,,,,,,,,,,,,,,,,,,,,,,,,,,,,,,,,,,,,,,,,,,,,,122.6024088000413,123.00410300004296,122.98618629993871,123.08768250001594,123.4878378000576,None,left,1,0.38724970002658665,123.4878378000576,None,122.98618629993871,123.08768250001594,123.08768250001594,None,123.9044323998969,None,,,,,,,11038,001,2024_Mar_11_1619,ANT,2021.2.3,59.95577656166032,
1,4,no,up,IC,R,,,,,,Block.xlsx,"你已经完成了第一个实验区组

请稍作休息


点击空格键进入下一个区组。",50,0,1.5,right,LLRLL.png,,,,,0,0,0,0,1,4,28,3,,,,,,,,,,,,,,,,,,,,,,,,,,,,,,,,,,,,,,,,,,,,,,,,,,,,,,,,,,,,,,,,124.30570290004835,124.7061574999243,124.6896134999115,124.78966969996691,125.19123880006373,None,right,1,0.4841636000201106,125.19123880006373,None,124.6896134999115,124.78966969996691,124.78966969996691,None,125.70697079994716,None,,,,,,,11038,001,2024_Mar_11_1619,ANT,2021.2.3,59.95577656166032,
1,9,center,up,C,L,,,,,,Block.xlsx,"你已经完成了第一个实验区组

请稍作休息


点击空格键进入下一个区组。",0,50,1.5,left,LLLLL.png,,,,,0,0,0,0,1,5,29,8,,,,,,,,,,,,,,,,,,,,,,,,,,,,,,,,,,,,,,,,,,,,,,,,,,,,,,,,,,,,,,,,126.10769059997983,126.50937890005298,126.49156220001169,126.59329769993201,126.99437649990432,None,left,1,0.3774992998223752,126.99437649990432,None,126.49156220001169,126.59329769993201,126.59329769993201,None,127.39336350001395,None,,,,,,,11038,001,2024_Mar_11_1619,ANT,2021.2.3,59.95577656166032,
1,20,spatial,up,IC,R,,,,,,Block.xlsx,"你已经完成了第一个实验区组

请稍作休息


点击空格键进入下一个区组。",1.5,0,1.5,right,LLRLL.png,,,,,0,0,0,0,1,6,30,19,,,,,,,,,,,,,,,,,,,,,,,,,,,,,,,,,,,,,,,,,,,,,,,,,,,,,,,,,,,,,,,,127.79493029997684,128.19478939985856,128.17792909988202,128.27913759998046,128.6788522999268,None,right,1,0.3811190000269562,128.6788522999268,None,128.17792909988202,128.27913759998046,128.27913759998046,None,129.08015739987604,None,,,,,,,11038,001,2024_Mar_11_1619,ANT,2021.2.3,59.95577656166032,
1,23,spatial,down,IC,L,,,,,,Block.xlsx,"你已经完成了第一个实验区组

请稍作休息


点击空格键进入下一个区组。",-1.5,0,-1.5,left,RRLRR.png,,,,,0,0,0,0,1,7,31,22,,,,,,,,,,,,,,,,,,,,,,,,,,,,,,,,,,,,,,,,,,,,,,,,,,,,,,,,,,,,,,,,129.48019209993072,129.88002669997513,129.86464280006476,129.9801610999275,130.3647688999772,None,left,1,0.4389241000171751,130.3647688999772,None,129.86464280006476,129.9801610999275,129.96450440003537,None,130.8313273000531,None,,,,,,,11038,001,2024_Mar_11_1619,ANT,2021.2.3,59.95577656166032,
1,10,center,up,C,R,,,,,,Block.xlsx,"你已经完成了第一个实验区组

请稍作休息


点击空格键进入下一个区组。",0,50,1.5,right,RRRRR.png,,,,,0,0,0,0,1,8,32,9,,,,,,,,,,,,,,,,,,,,,,,,,,,,,,,,,,,,,,,,,,,,,,,,,,,,,,,,,,,,,,,,131.23243679990992,131.6342565000523,131.61625469988212,131.7174046,132.11657810001634,None,right,1,0.3518320999573916,132.11657810001634,None,131.61625469988212,131.7174046,131.7174046,None,132.48377280007116,None,,,,,,,11038,001,2024_Mar_11_1619,ANT,2021.2.3,59.95577656166032,
1,9,center,up,C,L,,,,,,Block.xlsx,"你已经完成了第一个实验区组

请稍作休息


点击空格键进入下一个区组。",0,50,1.5,left,LLLLL.png,,,,,0,0,0,0,1,9,33,8,,,,,,,,,,,,,,,,,,,,,,,,,,,,,,,,,,,,,,,,,,,,,,,,,,,,,,,,,,,,,,,,132.88478209986351,133.28563109994866,133.2694385999348,133.36863979999907,133.76912919990718,None,left,1,0.4104777001775801,133.76912919990718,None,133.2694385999348,133.36863979999907,133.36863979999907,None,134.2032721999567,None,,,,,,,11038,001,2024_Mar_11_1619,ANT,2021.2.3,59.95577656166032,
1,14,center,down,C,R,,,,,,Block.xlsx,"你已经完成了第一个实验区组

请稍作休息


点击空格键进入下一个区组。",0,50,-1.5,right,RRRRR.png,,,,,0,0,0,0,1,10,34,13,,,,,,,,,,,,,,,,,,,,,,,,,,,,,,,,,,,,,,,,,,,,,,,,,,,,,,,,,,,,,,,,134.60498040006496,135.0066821000073,134.98803190002218,135.09012389997952,135.48910699994303,None,right,1,0.39519419986754656,135.48910699994303,None,134.98803190002218,135.09012389997952,135.09012389997952,None,135.90584710007533,None,,,,,,,11038,001,2024_Mar_11_1619,ANT,2021.2.3,59.95577656166032,
1,6,no,down,C,R,,,,,,Block.xlsx,"你已经完成了第一个实验区组

请稍作休息


点击空格键进入下一个区组。",50,0,-1.5,right,RRRRR.png,,,,,0,0,0,0,1,11,35,5,,,,,,,,,,,,,,,,,,,,,,,,,,,,,,,,,,,,,,,,,,,,,,,,,,,,,,,,,,,,,,,,136.30638069985434,136.7085831000004,136.69041749997996,136.7911560998764,137.19203069992363,None,right,1,0.38789910008199513,137.19203069992363,None,136.69041749997996,136.7911560998764,136.7911560998764,None,137.6081105999183,None,,,,,,,11038,001,2024_Mar_11_1619,ANT,2021.2.3,59.95577656166032,
1,12,center,up,IC,R,,,,,,Block.xlsx,"你已经完成了第一个实验区组

请稍作休息


点击空格键进入下一个区组。",0,50,1.5,right,LLRLL.png,,,,,0,0,0,0,1,12,36,11,,,,,,,,,,,,,,,,,,,,,,,,,,,,,,,,,,,,,,,,,,,,,,,,,,,,,,,,,,,,,,,,138.00886929989792,138.41181199997663,138.3935688000638,138.4930745998863,138.8938742999453,None,right,1,0.4462083999533206,138.8938742999453,None,138.3935688000638,138.4930745998863,138.4930745998863,None,139.3608446000144,None,,,,,,,11038,001,2024_Mar_11_1619,ANT,2021.2.3,59.95577656166032,
1,11,center,up,IC,L,,,,,,Block.xlsx,"你已经完成了第一个实验区组

请稍作休息


点击空格键进入下一个区组。",0,50,1.5,left,RRLRR.png,,,,,0,0,0,0,1,13,37,10,,,,,,,,,,,,,,,,,,,,,,,,,,,,,,,,,,,,,,,,,,,,,,,,,,,,,,,,,,,,,,,,139.76168629992753,140.16365440003574,140.1455087000504,140.24550269986503,140.64679539995268,None,left,1,0.38989860005676746,140.64679539995268,None,140.1455087000504,140.24550269986503,140.24550269986503,None,141.06368399993517,None,,,,,,,11038,001,2024_Mar_11_1619,ANT,2021.2.3,59.95577656166032,
1,24,spatial,down,IC,R,,,,,,Block.xlsx,"你已经完成了第一个实验区组

请稍作休息


点击空格键进入下一个区组。",-1.5,0,-1.5,right,LLRLL.png,,,,,0,0,0,0,1,14,38,23,,,,,,,,,,,,,,,,,,,,,,,,,,,,,,,,,,,,,,,,,,,,,,,,,,,,,,,,,,,,,,,,141.46477389987558,141.86538269999437,141.84864589991048,141.95020329998806,142.34940709988587,None,right,1,0.43868459993973374,142.34940709988587,None,141.84864589991048,141.95020329998806,141.95020329998806,None,142.81607679999433,None,,,,,,,11038,001,2024_Mar_11_1619,ANT,2021.2.3,59.95577656166032,
1,7,no,down,IC,L,,,,,,Block.xlsx,"你已经完成了第一个实验区组

请稍作休息


点击空格键进入下一个区组。",50,0,-1.5,left,RRLRR.png,,,,,0,0,0,0,1,15,39,6,,,,,,,,,,,,,,,,,,,,,,,,,,,,,,,,,,,,,,,,,,,,,,,,,,,,,,,,,,,,,,,,143.21663159993477,143.61849060002714,143.60152360005304,143.70071480004117,144.1020982998889,None,left,1,0.5099651000928134,144.1020982998889,None,143.60152360005304,143.70071480004117,143.70071480004117,None,144.63555860007182,None,,,,,,,11038,001,2024_Mar_11_1619,ANT,2021.2.3,59.95577656166032,
1,10,center,up,C,R,,,,,,Block.xlsx,"你已经完成了第一个实验区组

请稍作休息


点击空格键进入下一个区组。",0,50,1.5,right,RRRRR.png,,,,,0,0,0,0,1,16,40,9,,,,,,,,,,,,,,,,,,,,,,,,,,,,,,,,,,,,,,,,,,,,,,,,,,,,,,,,,,,,,,,,145.0370799000375,145.43857449991629,145.42026669997722,145.5207608998753,145.92165829986334,None,right,1,0.36262440006248653,145.92165829986334,None,145.42026669997722,145.5207608998753,145.5207608998753,None,146.30496610002592,None,,,,,,,11038,001,2024_Mar_11_1619,ANT,2021.2.3,59.95577656166032,
1,1,no,up,C,L,,,,,,Block.xlsx,"你已经完成了第一个实验区组

请稍作休息


点击空格键进入下一个区组。",50,0,1.5,left,LLLLL.png,,,,,0,0,0,0,1,17,41,0,,,,,,,,,,,,,,,,,,,,,,,,,,,,,,,,,,,,,,,,,,,,,,,,,,,,,,,,,,,,,,,,146.7063499998767,147.1059633998666,147.09100040001795,147.20661409990862,147.59004669985734,None,left,1,0.4466951999347657,147.59004669985734,None,147.09100040001795,147.20661409990862,147.19110319996253,None,148.05797229986638,None,,,,,,,11038,001,2024_Mar_11_1619,ANT,2021.2.3,59.95577656166032,
1,20,spatial,up,IC,R,,,,,,Block.xlsx,"你已经完成了第一个实验区组

请稍作休息


点击空格键进入下一个区组。",1.5,0,1.5,right,LLRLL.png,,,,,0,0,0,0,1,18,42,19,,,,,,,,,,,,,,,,,,,,,,,,,,,,,,,,,,,,,,,,,,,,,,,,,,,,,,,,,,,,,,,,148.45876049995422,148.86093660001643,148.84222620003857,148.9425554999616,149.34378529991955,None,right,1,0.35636069998145103,149.34378529991955,None,148.84222620003857,148.9425554999616,148.9425554999616,None,149.72643869998865,None,,,,,,,11038,001,2024_Mar_11_1619,ANT,2021.2.3,59.95577656166032,
1,16,center,down,IC,R,,,,,,Block.xlsx,"你已经完成了第一个实验区组

请稍作休息


点击空格键进入下一个区组。",0,50,-1.5,right,LLRLL.png,,,,,0,0,0,0,1,19,43,15,,,,,,,,,,,,,,,,,,,,,,,,,,,,,,,,,,,,,,,,,,,,,,,,,,,,,,,,,,,,,,,,150.127157199895,150.5286468998529,150.5116886999458,150.61239430005662,151.01180549990386,None,right,1,0.47235210007056594,151.01180549990386,None,150.5116886999458,150.61239430005662,150.61239430005662,None,151.51364349992946,None,,,,,,,11038,001,2024_Mar_11_1619,ANT,2021.2.3,59.95577656166032,
1,13,center,down,C,L,,,,,,Block.xlsx,"你已经完成了第一个实验区组

请稍作休息


点击空格键进入下一个区组。",0,50,-1.5,left,LLLLL.png,,,,,0,0,0,0,1,20,44,12,,,,,,,,,,,,,,,,,,,,,,,,,,,,,,,,,,,,,,,,,,,,,,,,,,,,,,,,,,,,,,,,151.91301009990275,152.31446060002781,152.29703120002523,152.39956049993634,152.79801369993947,None,left,1,0.4155025000218302,152.79801369993947,None,152.29703120002523,152.39956049993634,152.39956049993634,None,153.23129029991105,None,,,,,,,11038,001,2024_Mar_11_1619,ANT,2021.2.3,59.95577656166032,
1,15,center,down,IC,L,,,,,,Block.xlsx,"你已经完成了第一个实验区组

请稍作休息


点击空格键进入下一个区组。",0,50,-1.5,left,RRLRR.png,,,,,0,0,0,0,1,21,45,14,,,,,,,,,,,,,,,,,,,,,,,,,,,,,,,,,,,,,,,,,,,,,,,,,,,,,,,,,,,,,,,,153.6324173999019,154.03385160001926,154.0172824000474,154.11806589993648,154.51813829992898,None,left,1,0.4306428001727909,154.51813829992898,None,154.0172824000474,154.11806589993648,154.11806589993648,None,154.9675825999584,None,,,,,,,11038,001,2024_Mar_11_1619,ANT,2021.2.3,59.95577656166032,
1,5,no,down,C,L,,,,,,Block.xlsx,"你已经完成了第一个实验区组

请稍作休息


点击空格键进入下一个区组。",50,0,-1.5,left,LLLLL.png,,,,,0,0,0,0,1,22,46,4,,,,,,,,,,,,,,,,,,,,,,,,,,,,,,,,,,,,,,,,,,,,,,,,,,,,,,,,,,,,,,,,155.36854099994525,155.76886019995436,155.75232460000552,155.8532899999991,156.25369749986567,None,left,1,0.40673129982315004,156.25369749986567,None,155.75232460000552,155.8532899999991,155.8532899999991,None,156.68699539988302,None,,,,,,,11038,001,2024_Mar_11_1619,ANT,2021.2.3,59.95577656166032,
1,14,center,down,C,R,,,,,,Block.xlsx,"你已经完成了第一个实验区组

请稍作休息


点击空格键进入下一个区组。",0,50,-1.5,right,RRRRR.png,,,,,0,0,0,0,1,23,47,13,,,,,,,,,,,,,,,,,,,,,,,,,,,,,,,,,,,,,,,,,,,,,,,,,,,,,,,,,,,,,,,,157.08850179985166,157.4897326999344,157.47163400007412,157.57304549985565,157.97277699992992,None,right,1,0.3676288998685777,157.97277699992992,None,157.47163400007412,157.57304549985565,157.57304549985565,None,158.35657779988833,None,,,,,,,11038,001,2024_Mar_11_1619,ANT,2021.2.3,59.95577656166032,
1,21,spatial,down,C,L,,,,,,Block.xlsx,"你已经完成了第一个实验区组

请稍作休息


点击空格键进入下一个区组。",-1.5,0,-1.5,left,LLLLL.png,,,,,0,0,0,0,2,0,48,20,,,,,,,,,,,,,,,,,,,,,,,,,,,,,,,,,,,,,,,,,,,,,,,,,,,,,,,,,,,,,,,,158.7568705000449,159.15749030001462,159.1410632999614,159.24079269985668,159.64138989988714,None,left,1,0.37887160014361143,159.64138989988714,None,159.1410632999614,159.24079269985668,159.24079269985668,None,160.0421694999095,None,,,,,,,11038,001,2024_Mar_11_1619,ANT,2021.2.3,59.95577656166032,
1,5,no,down,C,L,,,,,,Block.xlsx,"你已经完成了第一个实验区组

请稍作休息


点击空格键进入下一个区组。",50,0,-1.5,left,LLLLL.png,,,,,0,0,0,0,2,1,49,4,,,,,,,,,,,,,,,,,,,,,,,,,,,,,,,,,,,,,,,,,,,,,,,,,,,,,,,,,,,,,,,,160.44337860005908,160.84465439990163,160.82659809989855,160.92886310000904,161.32796710007824,None,left,1,0.3890194999985397,161.32796710007824,None,160.82659809989855,160.92886310000904,160.92886310000904,None,161.7444636998698,None,,,,,,,11038,001,2024_Mar_11_1619,ANT,2021.2.3,59.95577656166032,
1,6,no,down,C,R,,,,,,Block.xlsx,"你已经完成了第一个实验区组

请稍作休息


点击空格键进入下一个区组。",50,0,-1.5,right,RRRRR.png,,,,,0,0,0,0,2,2,50,5,,,,,,,,,,,,,,,,,,,,,,,,,,,,,,,,,,,,,,,,,,,,,,,,,,,,,,,,,,,,,,,,162.1461891999934,162.54754389985465,162.52939659985714,162.6300714998506,163.03061260003597,None,right,1,0.37438769987784326,163.03061260003597,None,162.52939659985714,162.6300714998506,162.6300714998506,None,163.43058980000205,None,,,,,,,11038,001,2024_Mar_11_1619,ANT,2021.2.3,59.95577656166032,
1,3,no,up,IC,L,,,,,,Block.xlsx,"你已经完成了第一个实验区组

请稍作休息


点击空格键进入下一个区组。",50,0,1.5,left,RRLRR.png,,,,,0,0,0,0,2,3,51,2,,,,,,,,,,,,,,,,,,,,,,,,,,,,,,,,,,,,,,,,,,,,,,,,,,,,,,,,,,,,,,,,163.83195959986188,164.23246419988573,164.21693310001865,164.31509030004963,164.71579549997114,None,left,1,0.6178494000341743,164.71579549997114,None,164.21693310001865,164.31509030004963,164.31509030004963,None,165.35015779989772,None,,,,,,,11038,001,2024_Mar_11_1619,ANT,2021.2.3,59.95577656166032,
1,11,center,up,IC,L,,,,,,Block.xlsx,"你已经完成了第一个实验区组

请稍作休息


点击空格键进入下一个区组。",0,50,1.5,left,RRLRR.png,,,,,0,0,0,0,2,4,52,10,,,,,,,,,,,,,,,,,,,,,,,,,,,,,,,,,,,,,,,,,,,,,,,,,,,,,,,,,,,,,,,,165.7507682000287,166.15204679989256,166.13541279989295,166.23563329991885,166.63535470003262,None,left,1,0.5859230000060052,166.63535470003262,None,166.13541279989295,166.23563329991885,166.23563329991885,None,167.23632030002773,None,,,,,,,11038,001,2024_Mar_11_1619,ANT,2021.2.3,59.95577656166032,
1,22,spatial,down,C,R,,,,,,Block.xlsx,"你已经完成了第一个实验区组

请稍作休息


点击空格键进入下一个区组。",-1.5,0,-1.5,right,RRRRR.png,,,,,0,0,0,0,2,5,53,21,,,,,,,,,,,,,,,,,,,,,,,,,,,,,,,,,,,,,,,,,,,,,,,,,,,,,,,,,,,,,,,,167.6369107000064,168.0383737999946,168.02080200007185,168.12171739991754,168.52163739991374,None,right,1,0.37144019990228117,168.52163739991374,None,168.02080200007185,168.12171739991754,168.12171739991754,None,168.92299250001088,None,,,,,,,11038,001,2024_Mar_11_1619,ANT,2021.2.3,59.95577656166032,
1,14,center,down,C,R,,,,,,Block.xlsx,"你已经完成了第一个实验区组

请稍作休息


点击空格键进入下一个区组。",0,50,-1.5,right,RRRRR.png,,,,,0,0,0,0,2,6,54,13,,,,,,,,,,,,,,,,,,,,,,,,,,,,,,,,,,,,,,,,,,,,,,,,,,,,,,,,,,,,,,,,169.32327399984933,169.72400030004792,169.708180999849,169.82368919998407,170.20835289987735,None,right,1,0.3971824999898672,170.20835289987735,None,169.708180999849,169.82368919998407,169.80864449986257,None,170.62483009998687,None,,,,,,,11038,001,2024_Mar_11_1619,ANT,2021.2.3,59.95577656166032,
1,22,spatial,down,C,R,,,,,,Block.xlsx,"你已经完成了第一个实验区组

请稍作休息


点击空格键进入下一个区组。",-1.5,0,-1.5,right,RRRRR.png,,,,,0,0,0,0,2,7,55,21,,,,,,,,,,,,,,,,,,,,,,,,,,,,,,,,,,,,,,,,,,,,,,,,,,,,,,,,,,,,,,,,171.02694899984635,171.44504459993914,171.40920919994824,171.50954120000824,171.91050229989924,None,right,1,0.3904122000094503,171.91050229989924,None,171.40920919994824,171.50954120000824,171.50954120000824,None,172.3278228000272,None,,,,,,,11038,001,2024_Mar_11_1619,ANT,2021.2.3,59.95577656166032,
1,9,center,up,C,L,,,,,,Block.xlsx,"你已经完成了第一个实验区组

请稍作休息


点击空格键进入下一个区组。",0,50,1.5,left,LLLLL.png,,,,,0,0,0,0,2,8,56,8,,,,,,,,,,,,,,,,,,,,,,,,,,,,,,,,,,,,,,,,,,,,,,,,,,,,,,,,,,,,,,,,172.7291496999096,173.1284191000741,173.1125576000195,173.2127932999283,173.61344280000776,None,left,1,0.471344199962914,173.61344280000776,None,173.1125576000195,173.2127932999283,173.2127932999283,None,174.11328839999624,None,,,,,,,11038,001,2024_Mar_11_1619,ANT,2021.2.3,59.95577656166032,
1,23,spatial,down,IC,L,,,,,,Block.xlsx,"你已经完成了第一个实验区组

请稍作休息


点击空格键进入下一个区组。",-1.5,0,-1.5,left,RRLRR.png,,,,,0,0,0,0,2,9,57,22,,,,,,,,,,,,,,,,,,,,,,,,,,,,,,,,,,,,,,,,,,,,,,,,,,,,,,,,,,,,,,,,174.51424239994958,174.9168384000659,174.89832629985176,174.99914969992824,175.39889219985344,None,left,1,0.4299113000743091,175.39889219985344,None,174.89832629985176,174.99914969992824,174.99914969992824,None,175.84943349985406,None,,,,,,,11038,001,2024_Mar_11_1619,ANT,2021.2.3,59.95577656166032,
1,7,no,down,IC,L,,,,,,Block.xlsx,"你已经完成了第一个实验区组

请稍作休息


点击空格键进入下一个区组。",50,0,-1.5,left,RRLRR.png,,,,,0,0,0,0,2,10,58,6,,,,,,,,,,,,,,,,,,,,,,,,,,,,,,,,,,,,,,,,,,,,,,,,,,,,,,,,,,,,,,,,176.25076339999214,176.65150739997625,176.6337514000479,176.734620800009,177.13524069986306,None,left,1,0.3900261998642236,177.13524069986306,None,176.6337514000479,176.734620800009,176.734620800009,None,177.55169470002875,None,,,,,,,11038,001,2024_Mar_11_1619,ANT,2021.2.3,59.95577656166032,
1,7,no,down,IC,L,,,,,,Block.xlsx,"你已经完成了第一个实验区组

请稍作休息


点击空格键进入下一个区组。",50,0,-1.5,left,RRLRR.png,,,,,0,0,0,0,2,11,59,6,,,,,,,,,,,,,,,,,,,,,,,,,,,,,,,,,,,,,,,,,,,,,,,,,,,,,,,,,,,,,,,,177.9537295999471,178.35299329995178,178.33824760001153,178.43658489990048,178.83808339992538,None,left,1,0.44740650011226535,178.83808339992538,None,178.33824760001153,178.43658489990048,178.43658489990048,None,179.30454769986682,None,,,,,,,11038,001,2024_Mar_11_1619,ANT,2021.2.3,59.95577656166032,
1,9,center,up,C,L,,,,,,Block.xlsx,"你已经完成了第一个实验区组

请稍作休息


点击空格键进入下一个区组。",0,50,1.5,left,LLLLL.png,,,,,0,0,0,0,2,12,60,8,,,,,,,,,,,,,,,,,,,,,,,,,,,,,,,,,,,,,,,,,,,,,,,,,,,,,,,,,,,,,,,,179.70491289999336,180.10737619991414,180.0889083999209,180.19150829990394,180.59076449996792,None,left,1,0.5099722999148071,180.59076449996792,None,180.0889083999209,180.19150829990394,180.19150829990394,None,181.12466889992356,None,,,,,,,11038,001,2024_Mar_11_1619,ANT,2021.2.3,59.95577656166032,
1,2,no,up,C,R,,,,,,Block.xlsx,"你已经完成了第一个实验区组

请稍作休息


点击空格键进入下一个区组。",50,0,1.5,right,RRRRR.png,,,,,0,0,0,0,2,13,61,1,,,,,,,,,,,,,,,,,,,,,,,,,,,,,,,,,,,,,,,,,,,,,,,,,,,,,,,,,,,,,,,,181.52561870007776,181.9250747000333,181.90962229995057,182.00845349999145,182.40921269985847,None,right,1,0.46791860018856823,182.40921269985847,None,181.90962229995057,182.00845349999145,182.00845349999145,None,182.89339350000955,None,,,,,,,11038,001,2024_Mar_11_1619,ANT,2021.2.3,59.95577656166032,
1,17,spatial,up,C,L,,,,,,Block.xlsx,"你已经完成了第一个实验区组

请稍作休息


点击空格键进入下一个区组。",1.5,0,1.5,left,LLLLL.png,,,,,0,0,0,0,2,14,62,16,,,,,,,,,,,,,,,,,,,,,,,,,,,,,,,,,,,,,,,,,,,,,,,,,,,,,,,,,,,,,,,,183.2937105000019,183.69572940003127,183.67773259989917,183.7799935999792,184.17945709987544,None,left,1,0.3294174000620842,184.17945709987544,None,183.67773259989917,183.7799935999792,183.7799935999792,None,184.52914089988917,None,,,,,,,11038,001,2024_Mar_11_1619,ANT,2021.2.3,59.95577656166032,
1,15,center,down,IC,L,,,,,,Block.xlsx,"你已经完成了第一个实验区组

请稍作休息


点击空格键进入下一个区组。",0,50,-1.5,left,RRLRR.png,,,,,0,0,0,0,2,15,63,14,,,,,,,,,,,,,,,,,,,,,,,,,,,,,,,,,,,,,,,,,,,,,,,,,,,,,,,,,,,,,,,,184.93102180003189,185.3323100998532,185.3133982999716,185.41390990000218,185.81605640007183,None,left,1,0.6449209998827428,185.81605640007183,None,185.3133982999716,185.41390990000218,185.41390990000218,None,186.48221909999847,None,,,,,,,11038,001,2024_Mar_11_1619,ANT,2021.2.3,59.95577656166032,
1,1,no,up,C,L,,,,,,Block.xlsx,"你已经完成了第一个实验区组

请稍作休息


点击空格键进入下一个区组。",50,0,1.5,left,LLLLL.png,,,,,0,0,0,0,2,16,64,0,,,,,,,,,,,,,,,,,,,,,,,,,,,,,,,,,,,,,,,,,,,,,,,,,,,,,,,,,,,,,,,,186.8823716000188,187.28408830007538,187.26863910001703,187.38493769988418,187.7680635000579,None,left,1,0.5178680999670178,187.7680635000579,None,187.26863910001703,187.38493769988418,187.36693939985707,None,188.30133980000392,None,,,,,,,11038,001,2024_Mar_11_1619,ANT,2021.2.3,59.95577656166032,
1,4,no,up,IC,R,,,,,,Block.xlsx,"你已经完成了第一个实验区组

请稍作休息


点击空格键进入下一个区组。",50,0,1.5,right,LLRLL.png,,,,,0,0,0,0,2,17,65,3,,,,,,,,,,,,,,,,,,,,,,,,,,,,,,,,,,,,,,,,,,,,,,,,,,,,,,,,,,,,,,,,188.70262690004893,189.1025455999188,189.08670999994501,189.18663619994186,189.5866354999598,None,right,1,0.5148613001219928,189.5866354999598,None,189.08670999994501,189.18663619994186,189.18663619994186,None,190.12075989996083,None,,,,,,,11038,001,2024_Mar_11_1619,ANT,2021.2.3,59.95577656166032,
1,17,spatial,up,C,L,,,,,,Block.xlsx,"你已经完成了第一个实验区组

请稍作休息


点击空格键进入下一个区组。",1.5,0,1.5,left,LLLLL.png,,,,,0,0,0,0,2,18,66,16,,,,,,,,,,,,,,,,,,,,,,,,,,,,,,,,,,,,,,,,,,,,,,,,,,,,,,,,,,,,,,,,190.52228170004673,190.92279469990171,190.90598309994675,191.00549159990624,191.4061409998685,None,left,1,0.37515849992632866,191.4061409998685,None,190.90598309994675,191.00549159990624,191.00549159990624,None,191.80668070004322,None,,,,,,,11038,001,2024_Mar_11_1619,ANT,2021.2.3,59.95577656166032,
1,5,no,down,C,L,,,,,,Block.xlsx,"你已经完成了第一个实验区组

请稍作休息


点击空格键进入下一个区组。",50,0,-1.5,left,LLLLL.png,,,,,0,0,0,0,2,19,67,4,,,,,,,,,,,,,,,,,,,,,,,,,,,,,,,,,,,,,,,,,,,,,,,,,,,,,,,,,,,,,,,,192.20709219994023,192.60965609992854,192.59140349994414,192.69204359990545,193.09232699987479,None,left,1,0.5616150998976082,193.09232699987479,None,192.59140349994414,192.69204359990545,192.69204359990545,None,193.675940599991,None,,,,,,,11038,001,2024_Mar_11_1619,ANT,2021.2.3,59.95577656166032,
1,19,spatial,up,IC,L,,,,,,Block.xlsx,"你已经完成了第一个实验区组

请稍作休息


点击空格键进入下一个区组。",1.5,0,1.5,left,RRLRR.png,,,,,0,0,0,0,2,20,68,18,,,,,,,,,,,,,,,,,,,,,,,,,,,,,,,,,,,,,,,,,,,,,,,,,,,,,,,,,,,,,,,,194.07670350000262,194.47803110000677,194.4621460000053,194.56250380002894,194.9611305000726,None,left,1,0.4284320999868214,194.9611305000726,None,194.4621460000053,194.56250380002894,194.56250380002894,None,195.41197049990296,None,,,,,,,11038,001,2024_Mar_11_1619,ANT,2021.2.3,59.95577656166032,
1,16,center,down,IC,R,,,,,,Block.xlsx,"你已经完成了第一个实验区组

请稍作休息


点击空格键进入下一个区组。",0,50,-1.5,right,LLRLL.png,,,,,0,0,0,0,2,21,69,15,,,,,,,,,,,,,,,,,,,,,,,,,,,,,,,,,,,,,,,,,,,,,,,,,,,,,,,,,,,,,,,,195.81283700000495,196.21441460005008,196.19753280002624,196.29826659988612,196.6978968998883,None,right,1,0.595503699965775,196.6978968998883,None,196.19753280002624,196.29826659988612,196.29826659988612,None,197.3152804998681,None,,,,,,,11038,001,2024_Mar_11_1619,ANT,2021.2.3,59.95577656166032,
1,3,no,up,IC,L,,,,,,Block.xlsx,"你已经完成了第一个实验区组

请稍作休息


点击空格键进入下一个区组。",50,0,1.5,left,RRLRR.png,,,,,0,0,0,0,2,22,70,2,,,,,,,,,,,,,,,,,,,,,,,,,,,,,,,,,,,,,,,,,,,,,,,,,,,,,,,,,,,,,,,,197.7153968999628,198.11607220000587,198.10119790001772,198.21685669990256,198.60155919985846,None,left,1,0.4197245000395924,198.60155919985846,None,198.10119790001772,198.21685669990256,198.2007742000278,None,199.05133459996432,None,,,,,,,11038,001,2024_Mar_11_1619,ANT,2021.2.3,59.95577656166032,
1,15,center,down,IC,L,,,,,,Block.xlsx,"你已经完成了第一个实验区组

请稍作休息


点击空格键进入下一个区组。",0,50,-1.5,left,RRLRR.png,,,,,0,0,0,0,2,23,71,14,,,,,,,,,,,,,,,,,,,,,,,,,,,,,,,,,,,,,,,,,,,,,,,,,,,,,,,,,,,,,,,,199.45203160005622,199.85217839991674,199.83541319984943,199.93673349986784,200.3374377998989,None,left,1,0.49229740002192557,200.3374377998989,None,199.83541319984943,199.93673349986784,199.93673349986784,None,200.8536419000011,None,,,,,,,11038,001,2024_Mar_11_1619,ANT,2021.2.3,59.95577656166032,
1,13,center,down,C,L,,,,,,Block.xlsx,"你已经完成了第一个实验区组

请稍作休息


点击空格键进入下一个区组。",0,50,-1.5,left,LLLLL.png,,,,,0,0,0,0,3,0,72,12,,,,,,,,,,,,,,,,,,,,,,,,,,,,,,,,,,,,,,,,,,,,,,,,,,,,,,,,,,,,,,,,201.25477409991436,201.65580839989707,201.6401025999803,201.7391045000404,202.13905110000633,None,left,1,0.4421987000387162,202.13905110000633,None,201.6401025999803,201.7391045000404,201.7391045000404,None,202.60677329986356,None,,,,,,,11038,001,2024_Mar_11_1619,ANT,2021.2.3,59.95577656166032,
1,3,no,up,IC,L,,,,,,Block.xlsx,"你已经完成了第一个实验区组

请稍作休息


点击空格键进入下一个区组。",50,0,1.5,left,RRLRR.png,,,,,0,0,0,0,3,1,73,2,,,,,,,,,,,,,,,,,,,,,,,,,,,,,,,,,,,,,,,,,,,,,,,,,,,,,,,,,,,,,,,,203.0067485999316,203.40734250005335,203.39271499984898,203.508019000059,203.89218529989012,None,left,1,0.5220557998400182,203.89218529989012,None,203.39271499984898,203.508019000059,203.49117859988473,None,204.44274950004183,None,,,,,,,11038,001,2024_Mar_11_1619,ANT,2021.2.3,59.95577656166032,
1,15,center,down,IC,L,,,,,,Block.xlsx,"你已经完成了第一个实验区组

请稍作休息


点击空格键进入下一个区组。",0,50,-1.5,left,RRLRR.png,,,,,0,0,0,0,3,2,74,14,,,,,,,,,,,,,,,,,,,,,,,,,,,,,,,,,,,,,,,,,,,,,,,,,,,,,,,,,,,,,,,,204.84299249993637,205.2454313999042,205.22759600006975,205.3282540999353,205.72794710006565,None,left,1,0.4774672999046743,205.72794710006565,None,205.22759600006975,205.3282540999353,205.3282540999353,None,206.2285277999472,None,,,,,,,11038,001,2024_Mar_11_1619,ANT,2021.2.3,59.95577656166032,
1,2,no,up,C,R,,,,,,Block.xlsx,"你已经完成了第一个实验区组

请稍作休息


点击空格键进入下一个区组。",50,0,1.5,right,RRRRR.png,,,,,0,0,0,0,3,3,75,1,,,,,,,,,,,,,,,,,,,,,,,,,,,,,,,,,,,,,,,,,,,,,,,,,,,,,,,,,,,,,,,,206.6289255998563,207.0317712998949,207.01305499998853,207.11360629997216,207.5142085000407,None,right,1,0.4277003000024706,207.5142085000407,None,207.01305499998853,207.11360629997216,207.11360629997216,None,207.96486639999785,None,,,,,,,11038,001,2024_Mar_11_1619,ANT,2021.2.3,59.95577656166032,
1,3,no,up,IC,L,,,,,,Block.xlsx,"你已经完成了第一个实验区组

请稍作休息


点击空格键进入下一个区组。",50,0,1.5,left,RRLRR.png,,,,,0,0,0,0,3,4,76,2,,,,,,,,,,,,,,,,,,,,,,,,,,,,,,,,,,,,,,,,,,,,,,,,,,,,,,,,,,,,,,,,208.3664698000066,208.7656590999104,208.7494423999451,208.8491513999179,209.25032410002314,None,left,1,0.4274367999751121,209.25032410002314,None,208.7494423999451,208.8491513999179,208.8491513999179,None,209.70057099987753,None,,,,,,,11038,001,2024_Mar_11_1619,ANT,2021.2.3,59.95577656166032,
1,8,no,down,IC,R,,,,,,Block.xlsx,"你已经完成了第一个实验区组

请稍作休息


点击空格键进入下一个区组。",50,0,-1.5,right,LLRLL.png,,,,,0,0,0,0,3,5,77,7,,,,,,,,,,,,,,,,,,,,,,,,,,,,,,,,,,,,,,,,,,,,,,,,,,,,,,,,,,,,,,,,210.10086219990626,210.501783200074,210.48493879986927,210.58539230003953,210.98588709998876,None,right,1,0.6281629002187401,210.98588709998876,None,210.48493879986927,210.58539230003953,210.58539230003953,None,211.63635040004738,None,,,,,,,11038,001,2024_Mar_11_1619,ANT,2021.2.3,59.95577656166032,
1,2,no,up,C,R,,,,,,Block.xlsx,"你已经完成了第一个实验区组

请稍作休息


点击空格键进入下一个区组。",50,0,1.5,right,RRRRR.png,,,,,0,0,0,0,3,6,78,1,,,,,,,,,,,,,,,,,,,,,,,,,,,,,,,,,,,,,,,,,,,,,,,,,,,,,,,,,,,,,,,,212.03806909988634,212.43842660007067,212.42135059996508,212.52207349985838,212.92185990000144,None,right,1,0.46004460006952286,212.92185990000144,None,212.42135059996508,212.52207349985838,212.52207349985838,None,213.40593179990537,None,,,,,,,11038,001,2024_Mar_11_1619,ANT,2021.2.3,59.95577656166032,
1,17,spatial,up,C,L,,,,,,Block.xlsx,"你已经完成了第一个实验区组

请稍作休息


点击空格键进入下一个区组。",1.5,0,1.5,left,LLLLL.png,,,,,0,0,0,0,3,7,79,16,,,,,,,,,,,,,,,,,,,,,,,,,,,,,,,,,,,,,,,,,,,,,,,,,,,,,,,,,,,,,,,,213.80669869994745,214.20906709996052,214.1904104000423,214.2909961999394,214.6913202998694,None,left,1,0.43534069997258484,214.6913202998694,None,214.1904104000423,214.2909961999394,214.2909961999394,None,215.1416104999371,None,,,,,,,11038,001,2024_Mar_11_1619,ANT,2021.2.3,59.95577656166032,
1,14,center,down,C,R,,,,,,Block.xlsx,"你已经完成了第一个实验区组

请稍作休息


点击空格键进入下一个区组。",0,50,-1.5,right,RRRRR.png,,,,,0,0,0,0,3,8,80,13,,,,,,,,,,,,,,,,,,,,,,,,,,,,,,,,,,,,,,,,,,,,,,,,,,,,,,,,,,,,,,,,215.54235440003686,215.9430267000571,215.9272578000091,216.0263922000304,216.4278732999228,None,right,1,0.6019566000904888,216.4278732999228,None,215.9272578000091,216.0263922000304,216.0263922000304,None,217.04491969989613,None,,,,,,,11038,001,2024_Mar_11_1619,ANT,2021.2.3,59.95577656166032,
1,7,no,down,IC,L,,,,,,Block.xlsx,"你已经完成了第一个实验区组

请稍作休息


点击空格键进入下一个区组。",50,0,-1.5,left,RRLRR.png,,,,,0,0,0,0,3,9,81,6,,,,,,,,,,,,,,,,,,,,,,,,,,,,,,,,,,,,,,,,,,,,,,,,,,,,,,,,,,,,,,,,217.44540630001575,217.8465801998973,217.83081700000912,217.93049369985238,218.33123190002516,None,left,1,0.4354660001117736,218.33123190002516,None,217.83081700000912,217.93049369985238,217.93049369985238,None,218.78071790002286,None,,,,,,,11038,001,2024_Mar_11_1619,ANT,2021.2.3,59.95577656166032,
1,8,no,down,IC,R,,,,,,Block.xlsx,"你已经完成了第一个实验区组

请稍作休息


点击空格键进入下一个区组。",50,0,-1.5,right,LLRLL.png,,,,,0,0,0,0,3,10,82,7,,,,,,,,,,,,,,,,,,,,,,,,,,,,,,,,,,,,,,,,,,,,,,,,,,,,,,,,,,,,,,,,219.18221689993516,219.5830904999748,219.56663300003856,219.66704480000772,220.06637750007212,None,right,1,0.3635303000919521,220.06637750007212,None,219.56663300003856,219.66704480000772,219.66704480000772,None,220.45027669984847,None,,,,,,,11038,001,2024_Mar_11_1619,ANT,2021.2.3,59.95577656166032,
1,6,no,down,C,R,,,,,,Block.xlsx,"你已经完成了第一个实验区组

请稍作休息


点击空格键进入下一个区组。",50,0,-1.5,right,RRRRR.png,,,,,0,0,0,0,3,11,83,5,,,,,,,,,,,,,,,,,,,,,,,,,,,,,,,,,,,,,,,,,,,,,,,,,,,,,,,,,,,,,,,,220.85163529985584,221.25204350007698,221.23562869988382,221.3361877000425,221.73662919993512,None,right,1,0.34975569997914135,221.73662919993512,None,221.23562869988382,221.3361877000425,221.3361877000425,None,222.10273099993356,None,,,,,,,11038,001,2024_Mar_11_1619,ANT,2021.2.3,59.95577656166032,
1,8,no,down,IC,R,,,,,,Block.xlsx,"你已经完成了第一个实验区组

请稍作休息


点击空格键进入下一个区组。",50,0,-1.5,right,LLRLL.png,,,,,0,0,0,0,3,12,84,7,,,,,,,,,,,,,,,,,,,,,,,,,,,,,,,,,,,,,,,,,,,,,,,,,,,,,,,,,,,,,,,,222.50295970006846,222.90417120000347,222.88707459997386,222.9870605999604,223.38803449994884,None,right,1,0.4177604999858886,223.38803449994884,None,222.88707459997386,222.9870605999604,222.9870605999604,None,223.8214640999213,None,,,,,,,11038,001,2024_Mar_11_1619,ANT,2021.2.3,59.95577656166032,
1,5,no,down,C,L,,,,,,Block.xlsx,"你已经完成了第一个实验区组

请稍作休息


点击空格键进入下一个区组。",50,0,-1.5,left,LLLLL.png,,,,,0,0,0,0,3,13,85,4,,,,,,,,,,,,,,,,,,,,,,,,,,,,,,,,,,,,,,,,,,,,,,,,,,,,,,,,,,,,,,,,224.22274090000428,224.62397040007636,224.60705069988035,224.70802600006573,225.10869199992158,None,left,1,0.45759049989283085,225.10869199992158,None,224.60705069988035,224.70802600006573,224.70802600006573,None,225.59109240002,None,,,,,,,11038,001,2024_Mar_11_1619,ANT,2021.2.3,59.95577656166032,
1,18,spatial,up,C,R,,,,,,Block.xlsx,"你已经完成了第一个实验区组

请稍作休息


点击空格键进入下一个区组。",1.5,0,1.5,right,RRRRR.png,,,,,0,0,0,0,3,14,86,17,,,,,,,,,,,,,,,,,,,,,,,,,,,,,,,,,,,,,,,,,,,,,,,,,,,,,,,,,,,,,,,,225.99174249987118,226.39270169986412,226.37676250003278,226.47579609998502,226.87644859985448,None,right,1,0.48973509995266795,226.87644859985448,None,226.37676250003278,226.47579609998502,226.47579609998502,None,227.3949001999572,None,,,,,,,11038,001,2024_Mar_11_1619,ANT,2021.2.3,59.95577656166032,
1,6,no,down,C,R,,,,,,Block.xlsx,"你已经完成了第一个实验区组

请稍作休息


点击空格键进入下一个区组。",50,0,-1.5,right,RRRRR.png,,,,,0,0,0,0,3,15,87,5,,,,,,,,,,,,,,,,,,,,,,,,,,,,,,,,,,,,,,,,,,,,,,,,,,,,,,,,,,,,,,,,227.79406409990042,228.19483449985273,228.17865869984962,228.2794908999931,228.6797378999181,None,right,1,0.5183572000823915,228.6797378999181,None,228.17865869984962,228.2794908999931,228.2794908999931,None,229.22981299995445,None,,,,,,,11038,001,2024_Mar_11_1619,ANT,2021.2.3,59.95577656166032,
1,4,no,up,IC,R,,,,,,Block.xlsx,"你已经完成了第一个实验区组

请稍作休息


点击空格键进入下一个区组。",50,0,1.5,right,LLRLL.png,,,,,0,0,0,0,3,16,88,3,,,,,,,,,,,,,,,,,,,,,,,,,,,,,,,,,,,,,,,,,,,,,,,,,,,,,,,,,,,,,,,,229.63032240001485,230.03233409998938,230.01436139992438,230.11516129993834,230.51498709991574,None,right,1,0.5714519999455661,230.51498709991574,None,230.01436139992438,230.11516129993834,230.11516129993834,None,231.11681869998574,None,,,,,,,11038,001,2024_Mar_11_1619,ANT,2021.2.3,59.95577656166032,
1,21,spatial,down,C,L,,,,,,Block.xlsx,"你已经完成了第一个实验区组

请稍作休息


点击空格键进入下一个区组。",-1.5,0,-1.5,left,LLLLL.png,,,,,0,0,0,0,3,17,89,20,,,,,,,,,,,,,,,,,,,,,,,,,,,,,,,,,,,,,,,,,,,,,,,,,,,,,,,,,,,,,,,,231.51656999997795,231.91812569997273,231.90059569990262,232.00055069988593,232.4017169000581,None,left,1,0.35647250013425946,232.4017169000581,None,231.90059569990262,232.00055069988593,232.00055069988593,None,232.78523599985056,None,,,,,,,11038,001,2024_Mar_11_1619,ANT,2021.2.3,59.95577656166032,
1,23,spatial,down,IC,L,,,,,,Block.xlsx,"你已经完成了第一个实验区组

请稍作休息


点击空格键进入下一个区组。",-1.5,0,-1.5,left,RRLRR.png,,,,,0,0,0,0,3,18,90,22,,,,,,,,,,,,,,,,,,,,,,,,,,,,,,,,,,,,,,,,,,,,,,,,,,,,,,,,,,,,,,,,233.18612920003943,233.58702949993312,233.57011500000954,233.6698234998621,234.0711059998721,None,left,1,0.3839769000187516,234.0711059998721,None,233.57011500000954,233.6698234998621,233.6698234998621,None,234.47092449991032,None,,,,,,,11038,001,2024_Mar_11_1619,ANT,2021.2.3,59.95577656166032,
1,19,spatial,up,IC,L,,,,,,Block.xlsx,"你已经完成了第一个实验区组

请稍作休息


点击空格键进入下一个区组。",1.5,0,1.5,left,RRLRR.png,,,,,0,0,0,0,3,19,91,18,,,,,,,,,,,,,,,,,,,,,,,,,,,,,,,,,,,,,,,,,,,,,,,,,,,,,,,,,,,,,,,,234.87230859999545,235.2743309000507,235.25565869989805,235.35673479991965,235.75707300007343,None,left,1,0.45002939994446933,235.75707300007343,None,235.25565869989805,235.35673479991965,235.35673479991965,None,236.22380129992962,None,,,,,,,11038,001,2024_Mar_11_1619,ANT,2021.2.3,59.95577656166032,
1,13,center,down,C,L,,,,,,Block.xlsx,"你已经完成了第一个实验区组

请稍作休息


点击空格键进入下一个区组。",0,50,-1.5,left,LLLLL.png,,,,,0,0,0,0,3,20,92,12,,,,,,,,,,,,,,,,,,,,,,,,,,,,,,,,,,,,,,,,,,,,,,,,,,,,,,,,,,,,,,,,236.62509269989096,237.02473969990388,237.00799630000256,237.10838430002332,237.51127699995413,None,left,1,0.455381799954921,237.51127699995413,None,237.00799630000256,237.10838430002332,237.10838430002332,None,237.99355029989965,None,,,,,,,11038,001,2024_Mar_11_1619,ANT,2021.2.3,59.95577656166032,
1,16,center,down,IC,R,,,,,,Block.xlsx,"你已经完成了第一个实验区组

请稍作休息


点击空格键进入下一个区组。",0,50,-1.5,right,LLRLL.png,,,,,0,0,0,0,3,21,93,15,,,,,,,,,,,,,,,,,,,,,,,,,,,,,,,,,,,,,,,,,,,,,,,,,,,,,,,,,,,,,,,,238.39415910001844,238.795867000008,238.77746500005014,238.8795568998903,239.27902999985963,None,right,1,0.5594538000877947,239.27902999985963,None,238.77746500005014,238.8795568998903,238.8795568998903,None,239.86258039996028,None,,,,,,,11038,001,2024_Mar_11_1619,ANT,2021.2.3,59.95577656166032,
1,17,spatial,up,C,L,,,,,,Block.xlsx,"你已经完成了第一个实验区组

请稍作休息


点击空格键进入下一个区组。",1.5,0,1.5,left,LLLLL.png,,,,,0,0,0,0,3,22,94,16,,,,,,,,,,,,,,,,,,,,,,,,,,,,,,,,,,,,,,,,,,,,,,,,,,,,,,,,,,,,,,,,240.26302849990316,240.66378890001215,240.64943940006196,240.76388149987906,241.14912820002064,None,left,1,0.4011750998906791,241.14912820002064,None,240.64943940006196,240.76388149987906,240.74779940000735,None,241.58190459990874,None,,,,,,,11038,001,2024_Mar_11_1619,ANT,2021.2.3,59.95577656166032,
1,1,no,up,C,L,,,,,,Block.xlsx,"你已经完成了第一个实验区组

请稍作休息


点击空格键进入下一个区组。",50,0,1.5,left,LLLLL.png,,,,,0,0,0,0,3,23,95,0,,,,,,,,,,,,,,,,,,,,,,,,,,,,,,,,,,,,,,,,,,,,,,,,,,,,,,,,,,,,,,,,241.98220409988426,242.38337090006098,242.36700189998373,242.46616049995646,242.86825209995732,None,left,1,0.5145282000303268,242.86825209995732,None,242.36700189998373,242.46616049995646,242.46616049995646,None,243.40125779993832,None,,,,,,,11038,001,2024_Mar_11_1619,ANT,2021.2.3,59.95577656166032,
,,,,,,,,,,,Block.xlsx,"你已经完成了第一个实验区组

请稍作休息


点击空格键进入下一个区组。",,,,,,,,,,0,0,0,0,,,,,,,,,,,,,,,,,,,,,,,,,,,,,,,,,,,,,,,,,,,,,,,,,,,,,,,,,,,,,,,,,,,,,,,,,,,,,,,,,,,,,space,13.931972700171173,243.81933819991536,None,243.81933819991536,None,11038,001,2024_Mar_11_1619,ANT,2021.2.3,59.95577656166032,
1,11,center,up,IC,L,,,,,,Block.xlsx,"你已经完成了整个实验（三个区组）。

请报告实验者已完成实验

非常感谢，再见！",0,50,1.5,left,RRLRR.png,,,,,0,1,1,1,0,0,0,10,,,,,,,,,,,,,,,,,,,,,,,,,,,,,,,,,,,,,,,,,,,,,,,,,,,,,,,,,,,,,,,,257.7889024000615,258.19067390006967,258.17449859995395,258.27374029997736,258.6742610000074,None,left,1,0.7010192000307143,258.6742610000074,None,258.17449859995395,258.27374029997736,258.27374029997736,None,259.39190070005134,None,,,,,,,11038,001,2024_Mar_11_1619,ANT,2021.2.3,59.95577656166032,
1,9,center,up,C,L,,,,,,Block.xlsx,"你已经完成了整个实验（三个区组）。

请报告实验者已完成实验

非常感谢，再见！",0,50,1.5,left,LLLLL.png,,,,,0,1,1,1,0,1,1,8,,,,,,,,,,,,,,,,,,,,,,,,,,,,,,,,,,,,,,,,,,,,,,,,,,,,,,,,,,,,,,,,259.79319890006445,260.1951251998544,260.1764116999693,260.27777340007015,260.6771823000163,None,left,1,0.41037530009634793,260.6771823000163,None,260.1764116999693,260.27777340007015,260.27777340007015,None,261.1112238999922,None,,,,,,,11038,001,2024_Mar_11_1619,ANT,2021.2.3,59.95577656166032,
1,3,no,up,IC,L,,,,,,Block.xlsx,"你已经完成了整个实验（三个区组）。

请报告实验者已完成实验

非常感谢，再见！",50,0,1.5,left,RRLRR.png,,,,,0,1,1,1,0,2,2,2,,,,,,,,,,,,,,,,,,,,,,,,,,,,,,,,,,,,,,,,,,,,,,,,,,,,,,,,,,,,,,,,261.5117758999113,261.9132838998921,261.8968936998863,261.9978250998538,262.3969741000328,None,left,1,0.44230029988102615,262.3969741000328,None,261.8968936998863,261.9978250998538,261.9978250998538,None,262.86378929996863,None,,,,,,,11038,001,2024_Mar_11_1619,ANT,2021.2.3,59.95577656166032,
1,10,center,up,C,R,,,,,,Block.xlsx,"你已经完成了整个实验（三个区组）。

请报告实验者已完成实验

非常感谢，再见！",0,50,1.5,right,RRRRR.png,,,,,0,1,1,1,0,3,3,9,,,,,,,,,,,,,,,,,,,,,,,,,,,,,,,,,,,,,,,,,,,,,,,,,,,,,,,,,,,,,,,,263.26441100006923,263.6669463000726,263.64905470004305,263.7497185000684,264.149102000054,None,right,1,0.38617210020311177,264.149102000054,None,263.64905470004305,263.7497185000684,263.7497185000684,None,264.56639419985004,None,,,,,,,11038,001,2024_Mar_11_1619,ANT,2021.2.3,59.95577656166032,
1,7,no,down,IC,L,,,,,,Block.xlsx,"你已经完成了整个实验（三个区组）。

请报告实验者已完成实验

非常感谢，再见！",50,0,-1.5,left,RRLRR.png,,,,,0,1,1,1,0,4,4,6,,,,,,,,,,,,,,,,,,,,,,,,,,,,,,,,,,,,,,,,,,,,,,,,,,,,,,,,,,,,,,,,264.96752989990637,265.3684729000088,265.35181379993446,265.45128579996526,265.8533936999738,None,right,0,0.44965119985863566,265.8533936999738,None,265.35181379993446,265.45128579996526,265.45128579996526,None,266.3190190999303,None,,,,,,,11038,001,2024_Mar_11_1619,ANT,2021.2.3,59.95577656166032,
1,1,no,up,C,L,,,,,,Block.xlsx,"你已经完成了整个实验（三个区组）。

请报告实验者已完成实验

非常感谢，再见！",50,0,1.5,left,LLLLL.png,,,,,0,1,1,1,0,5,5,0,,,,,,,,,,,,,,,,,,,,,,,,,,,,,,,,,,,,,,,,,,,,,,,,,,,,,,,,,,,,,,,,266.72064089984633,267.12078049988486,267.10406990000047,267.2051277998835,267.6044516998809,None,left,1,0.4111825998406857,267.6044516998809,None,267.10406990000047,267.2051277998835,267.2051277998835,None,268.0385650000535,None,,,,,,,11038,001,2024_Mar_11_1619,ANT,2021.2.3,59.95577656166032,
1,9,center,up,C,L,,,,,,Block.xlsx,"你已经完成了整个实验（三个区组）。

请报告实验者已完成实验

非常感谢，再见！",0,50,1.5,left,LLLLL.png,,,,,0,1,1,1,0,6,6,8,,,,,,,,,,,,,,,,,,,,,,,,,,,,,,,,,,,,,,,,,,,,,,,,,,,,,,,,,,,,,,,,268.4388085999526,268.8402933999896,268.82381740002893,268.92491910001263,269.3239177998621,None,left,1,0.41199570009484887,269.3239177998621,None,268.82381740002893,268.92491910001263,268.92491910001263,None,269.7576232999563,None,,,,,,,11038,001,2024_Mar_11_1619,ANT,2021.2.3,59.95577656166032,
1,18,spatial,up,C,R,,,,,,Block.xlsx,"你已经完成了整个实验（三个区组）。

请报告实验者已完成实验

非常感谢，再见！",1.5,0,1.5,right,RRRRR.png,,,,,0,1,1,1,0,7,7,17,,,,,,,,,,,,,,,,,,,,,,,,,,,,,,,,,,,,,,,,,,,,,,,,,,,,,,,,,,,,,,,,270.15804550005123,270.5602454999462,270.542063199915,270.64236219995655,271.04416599986143,None,right,1,0.3791350999381393,271.04416599986143,None,270.542063199915,270.64236219995655,270.64236219995655,None,271.4434604998678,None,,,,,,,11038,001,2024_Mar_11_1619,ANT,2021.2.3,59.95577656166032,
1,7,no,down,IC,L,,,,,,Block.xlsx,"你已经完成了整个实验（三个区组）。

请报告实验者已完成实验

非常感谢，再见！",50,0,-1.5,left,RRLRR.png,,,,,0,1,1,1,0,8,8,6,,,,,,,,,,,,,,,,,,,,,,,,,,,,,,,,,,,,,,,,,,,,,,,,,,,,,,,,,,,,,,,,271.84399119997397,272.2462464000564,272.2279566999059,272.3286955000367,272.72876979992725,None,left,1,0.6469542998820543,272.72876979992725,None,272.2279566999059,272.3286955000367,272.3286955000367,None,273.3967768999282,None,,,,,,,11038,001,2024_Mar_11_1619,ANT,2021.2.3,59.95577656166032,
1,11,center,up,IC,L,,,,,,Block.xlsx,"你已经完成了整个实验（三个区组）。

请报告实验者已完成实验

非常感谢，再见！",0,50,1.5,left,RRLRR.png,,,,,0,1,1,1,0,9,9,10,,,,,,,,,,,,,,,,,,,,,,,,,,,,,,,,,,,,,,,,,,,,,,,,,,,,,,,,,,,,,,,,273.7969414999243,274.19873120007105,274.18144780001603,274.28325079986826,274.6822959999554,None,left,1,0.5253863998223096,274.6822959999554,None,274.18144780001603,274.28325079986826,274.28325079986826,None,275.23285460006446,None,,,,,,,11038,001,2024_Mar_11_1619,ANT,2021.2.3,59.95577656166032,
1,2,no,up,C,R,,,,,,Block.xlsx,"你已经完成了整个实验（三个区组）。

请报告实验者已完成实验

非常感谢，再见！",50,0,1.5,right,RRRRR.png,,,,,0,1,1,1,0,10,10,1,,,,,,,,,,,,,,,,,,,,,,,,,,,,,,,,,,,,,,,,,,,,,,,,,,,,,,,,,,,,,,,,275.63310400000773,276.0335144000128,276.01924240007065,276.1177367998753,276.5182133000344,None,right,1,0.45755340019240975,276.5182133000344,None,276.01924240007065,276.1177367998753,276.1177367998753,None,277.00184499984607,None,,,,,,,11038,001,2024_Mar_11_1619,ANT,2021.2.3,59.95577656166032,
1,12,center,up,IC,R,,,,,,Block.xlsx,"你已经完成了整个实验（三个区组）。

请报告实验者已完成实验

非常感谢，再见！",0,50,1.5,right,LLRLL.png,,,,,0,1,1,1,0,11,11,11,,,,,,,,,,,,,,,,,,,,,,,,,,,,,,,,,,,,,,,,,,,,,,,,,,,,,,,,,,,,,,,,277.4025137000717,277.8037147000432,277.78725739987567,277.886989899911,278.2869744999334,None,right,1,0.52092200005427,278.2869744999334,None,277.78725739987567,277.886989899911,277.886989899911,None,278.8377648999449,None,,,,,,,11038,001,2024_Mar_11_1619,ANT,2021.2.3,59.95577656166032,
1,22,spatial,down,C,R,,,,,,Block.xlsx,"你已经完成了整个实验（三个区组）。

请报告实验者已完成实验

非常感谢，再见！",-1.5,0,-1.5,right,RRRRR.png,,,,,0,1,1,1,0,12,12,21,,,,,,,,,,,,,,,,,,,,,,,,,,,,,,,,,,,,,,,,,,,,,,,,,,,,,,,,,,,,,,,,279.23942569992505,279.6396993000526,279.6232946999371,279.72292390000075,280.1232274000067,None,right,1,0.4847870001103729,280.1232274000067,None,279.6232946999371,279.72292390000075,279.72292390000075,None,280.6242458000779,None,,,,,,,11038,001,2024_Mar_11_1619,ANT,2021.2.3,59.95577656166032,
1,18,spatial,up,C,R,,,,,,Block.xlsx,"你已经完成了整个实验（三个区组）。

请报告实验者已完成实验

非常感谢，再见！",1.5,0,1.5,right,RRRRR.png,,,,,0,1,1,1,0,13,13,17,,,,,,,,,,,,,,,,,,,,,,,,,,,,,,,,,,,,,,,,,,,,,,,,,,,,,,,,,,,,,,,,281.0250371999573,281.4258492998779,281.4091729000211,281.5094655000139,281.91005719988607,None,right,1,0.42558589996770024,281.91005719988607,None,281.4091729000211,281.5094655000139,281.5094655000139,None,282.3601293999236,None,,,,,,,11038,001,2024_Mar_11_1619,ANT,2021.2.3,59.95577656166032,
1,21,spatial,down,C,L,,,,,,Block.xlsx,"你已经完成了整个实验（三个区组）。

请报告实验者已完成实验

非常感谢，再见！",-1.5,0,-1.5,left,LLLLL.png,,,,,0,1,1,1,0,14,14,20,,,,,,,,,,,,,,,,,,,,,,,,,,,,,,,,,,,,,,,,,,,,,,,,,,,,,,,,,,,,,,,,282.7606295000296,283.1610484998673,283.1453889000695,283.2445159999188,283.6452579998877,None,left,1,0.4425641999114305,283.6452579998877,None,283.1453889000695,283.2445159999188,283.2445159999188,None,284.1125131000299,None,,,,,,,11038,001,2024_Mar_11_1619,ANT,2021.2.3,59.95577656166032,
1,10,center,up,C,R,,,,,,Block.xlsx,"你已经完成了整个实验（三个区组）。

请报告实验者已完成实验

非常感谢，再见！",0,50,1.5,right,RRRRR.png,,,,,0,1,1,1,0,15,15,9,,,,,,,,,,,,,,,,,,,,,,,,,,,,,,,,,,,,,,,,,,,,,,,,,,,,,,,,,,,,,,,,284.5131727999542,284.91479089995846,284.8970456998795,284.9987073999364,285.3992291998584,None,right,1,0.5443488000892103,285.3992291998584,None,284.8970456998795,284.9987073999364,284.9987073999364,None,285.965168699855,None,,,,,,,11038,001,2024_Mar_11_1619,ANT,2021.2.3,59.95577656166032,
1,23,spatial,down,IC,L,,,,,,Block.xlsx,"你已经完成了整个实验（三个区组）。

请报告实验者已完成实验

非常感谢，再见！",-1.5,0,-1.5,left,RRLRR.png,,,,,0,1,1,1,0,16,16,22,,,,,,,,,,,,,,,,,,,,,,,,,,,,,,,,,,,,,,,,,,,,,,,,,,,,,,,,,,,,,,,,286.36659249989316,286.7665850999765,286.749741199892,286.8509092000313,287.25275789992884,None,left,1,0.4511965001001954,287.25275789992884,None,286.749741199892,286.8509092000313,286.8509092000313,None,287.73530449997634,None,,,,,,,11038,001,2024_Mar_11_1619,ANT,2021.2.3,59.95577656166032,
1,5,no,down,C,L,,,,,,Block.xlsx,"你已经完成了整个实验（三个区组）。

请报告实验者已完成实验

非常感谢，再见！",50,0,-1.5,left,LLLLL.png,,,,,0,1,1,1,0,17,17,4,,,,,,,,,,,,,,,,,,,,,,,,,,,,,,,,,,,,,,,,,,,,,,,,,,,,,,,,,,,,,,,,288.13510199985467,288.5366050999146,288.5208868999034,288.6378907999024,289.0199200999923,None,left,1,0.48439119989052415,289.0199200999923,None,288.5208868999034,288.6378907999024,288.61930579994805,None,289.52119309990667,None,,,,,,,11038,001,2024_Mar_11_1619,ANT,2021.2.3,59.95577656166032,
1,20,spatial,up,IC,R,,,,,,Block.xlsx,"你已经完成了整个实验（三个区组）。

请报告实验者已完成实验

非常感谢，再见！",1.5,0,1.5,right,LLRLL.png,,,,,0,1,1,1,0,18,18,19,,,,,,,,,,,,,,,,,,,,,,,,,,,,,,,,,,,,,,,,,,,,,,,,,,,,,,,,,,,,,,,,289.9223875000607,290.3221253999509,290.30530110001564,290.4059933000244,290.8059975998476,None,right,1,0.48295900016091764,290.8059975998476,None,290.30530110001564,290.4059933000244,290.4059933000244,None,291.3079848999623,None,,,,,,,11038,001,2024_Mar_11_1619,ANT,2021.2.3,59.95577656166032,
1,18,spatial,up,C,R,,,,,,Block.xlsx,"你已经完成了整个实验（三个区组）。

请报告实验者已完成实验

非常感谢，再见！",1.5,0,1.5,right,RRRRR.png,,,,,0,1,1,1,0,19,19,17,,,,,,,,,,,,,,,,,,,,,,,,,,,,,,,,,,,,,,,,,,,,,,,,,,,,,,,,,,,,,,,,291.70804659998976,292.1087612998672,292.092984699877,292.2090373998508,292.59252709988505,None,right,1,0.4235133999027312,292.59252709988505,None,292.092984699877,292.2090373998508,292.191415600013,None,293.04296189988963,None,,,,,,,11038,001,2024_Mar_11_1619,ANT,2021.2.3,59.95577656166032,
1,21,spatial,down,C,L,,,,,,Block.xlsx,"你已经完成了整个实验（三个区组）。

请报告实验者已完成实验

非常感谢，再见！",-1.5,0,-1.5,left,LLLLL.png,,,,,0,1,1,1,0,20,20,20,,,,,,,,,,,,,,,,,,,,,,,,,,,,,,,,,,,,,,,,,,,,,,,,,,,,,,,,,,,,,,,,293.4431517000776,293.84581790002994,293.82789670000784,293.92819530004635,294.32903170003556,None,left,1,0.41591079998761415,294.32903170003556,None,293.82789670000784,293.92819530004635,293.92819530004635,None,294.76185599993914,None,,,,,,,11038,001,2024_Mar_11_1619,ANT,2021.2.3,59.95577656166032,
1,24,spatial,down,IC,R,,,,,,Block.xlsx,"你已经完成了整个实验（三个区组）。

请报告实验者已完成实验

非常感谢，再见！",-1.5,0,-1.5,right,LLRLL.png,,,,,0,1,1,1,0,21,21,23,,,,,,,,,,,,,,,,,,,,,,,,,,,,,,,,,,,,,,,,,,,,,,,,,,,,,,,,,,,,,,,,295.1637221998535,295.56474919989705,295.5464856000617,295.64836620003916,296.04724949994124,None,right,1,0.44891969999298453,296.04724949994124,None,295.5464856000617,295.64836620003916,295.64836620003916,None,296.51447559986264,None,,,,,,,11038,001,2024_Mar_11_1619,ANT,2021.2.3,59.95577656166032,
1,13,center,down,C,L,,,,,,Block.xlsx,"你已经完成了整个实验（三个区组）。

请报告实验者已完成实验

非常感谢，再见！",0,50,-1.5,left,LLLLL.png,,,,,0,1,1,1,0,22,22,12,,,,,,,,,,,,,,,,,,,,,,,,,,,,,,,,,,,,,,,,,,,,,,,,,,,,,,,,,,,,,,,,296.91523470007814,297.31555880000815,297.29922799998894,297.4010590000544,297.80056219990365,None,left,1,0.5035197001416236,297.80056219990365,None,297.29922799998894,297.4010590000544,297.4010590000544,None,298.33399869990535,None,,,,,,,11038,001,2024_Mar_11_1619,ANT,2021.2.3,59.95577656166032,
1,15,center,down,IC,L,,,,,,Block.xlsx,"你已经完成了整个实验（三个区组）。

请报告实验者已完成实验

非常感谢，再见！",0,50,-1.5,left,RRLRR.png,,,,,0,1,1,1,0,23,23,14,,,,,,,,,,,,,,,,,,,,,,,,,,,,,,,,,,,,,,,,,,,,,,,,,,,,,,,,,,,,,,,,298.7345312999096,299.1360420000274,299.1199818998575,299.2196859999094,299.6200107000768,None,left,1,0.44426409993320704,299.6200107000768,None,299.1199818998575,299.2196859999094,299.2196859999094,None,300.08653189986944,None,,,,,,,11038,001,2024_Mar_11_1619,ANT,2021.2.3,59.95577656166032,
1,6,no,down,C,R,,,,,,Block.xlsx,"你已经完成了整个实验（三个区组）。

请报告实验者已完成实验

非常感谢，再见！",50,0,-1.5,right,RRRRR.png,,,,,0,1,1,1,1,0,24,5,,,,,,,,,,,,,,,,,,,,,,,,,,,,,,,,,,,,,,,,,,,,,,,,,,,,,,,,,,,,,,,,300.487342499895,300.8887906000018,300.8728314000182,300.9712423000019,301.3722254000604,None,right,1,0.4520665998570621,301.3722254000604,None,300.8728314000182,300.9712423000019,300.9712423000019,None,301.8391988000367,None,,,,,,,11038,001,2024_Mar_11_1619,ANT,2021.2.3,59.95577656166032,
1,8,no,down,IC,R,,,,,,Block.xlsx,"你已经完成了整个实验（三个区组）。

请报告实验者已完成实验

非常感谢，再见！",50,0,-1.5,right,LLRLL.png,,,,,0,1,1,1,1,1,25,7,,,,,,,,,,,,,,,,,,,,,,,,,,,,,,,,,,,,,,,,,,,,,,,,,,,,,,,,,,,,,,,,302.24057439994067,302.64044740004465,302.6246066999156,302.72459289990366,303.12556650000624,None,right,1,0.4909105999395251,303.12556650000624,None,302.6246066999156,302.72459289990366,302.72459289990366,None,303.64195259986445,None,,,,,,,11038,001,2024_Mar_11_1619,ANT,2021.2.3,59.95577656166032,
1,24,spatial,down,IC,R,,,,,,Block.xlsx,"你已经完成了整个实验（三个区组）。

请报告实验者已完成实验

非常感谢，再见！",-1.5,0,-1.5,right,LLRLL.png,,,,,0,1,1,1,1,2,26,23,,,,,,,,,,,,,,,,,,,,,,,,,,,,,,,,,,,,,,,,,,,,,,,,,,,,,,,,,,,,,,,,304.04272049991414,304.44402229995467,304.4274798000697,304.5266771998722,304.9278223000001,None,right,1,0.4566912997979671,304.9278223000001,None,304.4274798000697,304.5266771998722,304.5266771998722,None,305.4115422000177,None,,,,,,,11038,001,2024_Mar_11_1619,ANT,2021.2.3,59.95577656166032,
1,12,center,up,IC,R,,,,,,Block.xlsx,"你已经完成了整个实验（三个区组）。

请报告实验者已完成实验

非常感谢，再见！",0,50,1.5,right,LLRLL.png,,,,,0,1,1,1,1,3,27,11,,,,,,,,,,,,,,,,,,,,,,,,,,,,,,,,,,,,,,,,,,,,,,,,,,,,,,,,,,,,,,,,305.8125994000584,306.2138879999984,306.19573849998415,306.2961007000413,306.6972582000308,None,right,1,0.7593004999216646,306.6972582000308,None,306.19573849998415,306.2961007000413,306.2961007000413,None,307.48094279994257,None,,,,,,,11038,001,2024_Mar_11_1619,ANT,2021.2.3,59.95577656166032,
1,16,center,down,IC,R,,,,,,Block.xlsx,"你已经完成了整个实验（三个区组）。

请报告实验者已完成实验

非常感谢，再见！",0,50,-1.5,right,LLRLL.png,,,,,0,1,1,1,1,4,28,15,,,,,,,,,,,,,,,,,,,,,,,,,,,,,,,,,,,,,,,,,,,,,,,,,,,,,,,,,,,,,,,,307.88270829990506,308.28295279992744,308.2667169999331,308.3663643000182,308.76702709984966,None,right,1,0.5772685001138598,308.76702709984966,None,308.2667169999331,308.3663643000182,308.3663643000182,None,309.3671869998798,None,,,,,,,11038,001,2024_Mar_11_1619,ANT,2021.2.3,59.95577656166032,
1,2,no,up,C,R,,,,,,Block.xlsx,"你已经完成了整个实验（三个区组）。

请报告实验者已完成实验

非常感谢，再见！",50,0,1.5,right,RRRRR.png,,,,,0,1,1,1,1,5,29,1,,,,,,,,,,,,,,,,,,,,,,,,,,,,,,,,,,,,,,,,,,,,,,,,,,,,,,,,,,,,,,,,309.7680883000139,310.16856290004216,310.15271329996176,310.25198629987426,310.65430220006965,None,right,1,0.4341357999946922,310.65430220006965,None,310.15271329996176,310.25198629987426,310.25198629987426,None,311.11991050001234,None,,,,,,,11038,001,2024_Mar_11_1619,ANT,2021.2.3,59.95577656166032,
1,22,spatial,down,C,R,,,,,,Block.xlsx,"你已经完成了整个实验（三个区组）。

请报告实验者已完成实验

非常感谢，再见！",-1.5,0,-1.5,right,RRRRR.png,,,,,0,1,1,1,1,6,30,21,,,,,,,,,,,,,,,,,,,,,,,,,,,,,,,,,,,,,,,,,,,,,,,,,,,,,,,,,,,,,,,,311.5210732000414,311.9220441998914,311.9053172999993,312.00541269988753,312.40605710004456,None,right,1,0.3704126998782158,312.40605710004456,None,311.9053172999993,312.00541269988753,312.00541269988753,None,312.80572489998303,None,,,,,,,11038,001,2024_Mar_11_1619,ANT,2021.2.3,59.95577656166032,
1,6,no,down,C,R,,,,,,Block.xlsx,"你已经完成了整个实验（三个区组）。

请报告实验者已完成实验

非常感谢，再见！",50,0,-1.5,right,RRRRR.png,,,,,0,1,1,1,1,7,31,5,,,,,,,,,,,,,,,,,,,,,,,,,,,,,,,,,,,,,,,,,,,,,,,,,,,,,,,,,,,,,,,,313.20712839998305,313.6078425999731,313.5925372999627,313.6905104999896,314.0910978000611,None,right,1,0.38949429988861084,314.0910978000611,None,313.5925372999627,313.6905104999896,313.6905104999896,None,314.50844580004923,None,,,,,,,11038,001,2024_Mar_11_1619,ANT,2021.2.3,59.95577656166032,
1,24,spatial,down,IC,R,,,,,,Block.xlsx,"你已经完成了整个实验（三个区组）。

请报告实验者已完成实验

非常感谢，再见！",-1.5,0,-1.5,right,LLRLL.png,,,,,0,1,1,1,1,8,32,23,,,,,,,,,,,,,,,,,,,,,,,,,,,,,,,,,,,,,,,,,,,,,,,,,,,,,,,,,,,,,,,,314.9091520998627,315.3108890999574,315.29489069990814,315.40978069999255,315.79450099985115,None,right,1,0.3826677999459207,315.79450099985115,None,315.29489069990814,315.40978069999255,315.3945007000584,None,316.1939741000533,None,,,,,,,11038,001,2024_Mar_11_1619,ANT,2021.2.3,59.95577656166032,
1,3,no,up,IC,L,,,,,,Block.xlsx,"你已经完成了整个实验（三个区组）。

请报告实验者已完成实验

非常感谢，再见！",50,0,1.5,left,RRLRR.png,,,,,0,1,1,1,1,9,33,2,,,,,,,,,,,,,,,,,,,,,,,,,,,,,,,,,,,,,,,,,,,,,,,,,,,,,,,,,,,,,,,,316.5957998998929,316.9967666999437,316.97972840000875,317.079306300031,317.4808930999134,None,left,1,0.5758515000343323,317.4808930999134,None,316.97972840000875,317.079306300031,317.079306300031,None,318.0805281000212,None,,,,,,,11038,001,2024_Mar_11_1619,ANT,2021.2.3,59.95577656166032,
1,3,no,up,IC,L,,,,,,Block.xlsx,"你已经完成了整个实验（三个区组）。

请报告实验者已完成实验

非常感谢，再见！",50,0,1.5,left,RRLRR.png,,,,,0,1,1,1,1,10,34,2,,,,,,,,,,,,,,,,,,,,,,,,,,,,,,,,,,,,,,,,,,,,,,,,,,,,,,,,,,,,,,,,318.4819167999085,318.882170900004,318.8670598999597,318.9818450999446,319.36750609986484,None,left,1,0.39382019988261163,319.36750609986484,None,318.8670598999597,318.9818450999446,318.96599960001186,None,319.7828865000047,None,,,,,,,11038,001,2024_Mar_11_1619,ANT,2021.2.3,59.95577656166032,
1,22,spatial,down,C,R,,,,,,Block.xlsx,"你已经完成了整个实验（三个区组）。

请报告实验者已完成实验

非常感谢，再见！",-1.5,0,-1.5,right,RRRRR.png,,,,,0,1,1,1,1,11,35,21,,,,,,,,,,,,,,,,,,,,,,,,,,,,,,,,,,,,,,,,,,,,,,,,,,,,,,,,,,,,,,,,320.1836057000328,320.5849037000444,320.5683742000256,320.6678714998998,321.0699249000754,None,right,1,0.4029294999781996,321.0699249000754,None,320.5683742000256,320.6678714998998,320.6678714998998,None,321.5020622999873,None,,,,,,,11038,001,2024_Mar_11_1619,ANT,2021.2.3,59.95577656166032,
1,23,spatial,down,IC,L,,,,,,Block.xlsx,"你已经完成了整个实验（三个区组）。

请报告实验者已完成实验

非常感谢，再见！",-1.5,0,-1.5,left,RRLRR.png,,,,,0,1,1,1,1,12,36,22,,,,,,,,,,,,,,,,,,,,,,,,,,,,,,,,,,,,,,,,,,,,,,,,,,,,,,,,,,,,,,,,321.90282720001414,322.3042411999777,322.28778739995323,322.388323900057,322.7887247998733,None,left,1,0.41195460013113916,322.7887247998733,None,322.28778739995323,322.388323900057,322.388323900057,None,323.22166489996016,None,,,,,,,11038,001,2024_Mar_11_1619,ANT,2021.2.3,59.95577656166032,
1,23,spatial,down,IC,L,,,,,,Block.xlsx,"你已经完成了整个实验（三个区组）。

请报告实验者已完成实验

非常感谢，再见！",-1.5,0,-1.5,left,RRLRR.png,,,,,0,1,1,1,1,13,37,22,,,,,,,,,,,,,,,,,,,,,,,,,,,,,,,,,,,,,,,,,,,,,,,,,,,,,,,,,,,,,,,,323.62229819991626,324.0228488999419,324.0080635000486,324.106823900016,324.5074871999677,None,left,1,0.3976770001463592,324.5074871999677,None,324.0080635000486,324.106823900016,324.106823900016,None,324.9245366998948,None,,,,,,,11038,001,2024_Mar_11_1619,ANT,2021.2.3,59.95577656166032,
1,14,center,down,C,R,,,,,,Block.xlsx,"你已经完成了整个实验（三个区组）。

请报告实验者已完成实验

非常感谢，再见！",0,50,-1.5,right,RRRRR.png,,,,,0,1,1,1,1,14,38,13,,,,,,,,,,,,,,,,,,,,,,,,,,,,,,,,,,,,,,,,,,,,,,,,,,,,,,,,,,,,,,,,325.32544220006093,325.72521719988436,325.7091612999793,325.81007819995284,326.210272999946,None,right,1,0.4547178999055177,326.210272999946,None,325.7091612999793,325.81007819995284,325.81007819995284,None,326.6934576998465,None,,,,,,,11038,001,2024_Mar_11_1619,ANT,2021.2.3,59.95577656166032,
1,18,spatial,up,C,R,,,,,,Block.xlsx,"你已经完成了整个实验（三个区组）。

请报告实验者已完成实验

非常感谢，再见！",1.5,0,1.5,right,RRRRR.png,,,,,0,1,1,1,1,15,39,17,,,,,,,,,,,,,,,,,,,,,,,,,,,,,,,,,,,,,,,,,,,,,,,,,,,,,,,,,,,,,,,,327.09428359987214,327.49565170006827,327.47870410000905,327.5793057999108,327.979750999948,None,right,1,0.47797989984974265,327.979750999948,None,327.47870410000905,327.5793057999108,327.5793057999108,None,328.47936329990625,None,,,,,,,11038,001,2024_Mar_11_1619,ANT,2021.2.3,59.95577656166032,
1,9,center,up,C,L,,,,,,Block.xlsx,"你已经完成了整个实验（三个区组）。

请报告实验者已完成实验

非常感谢，再见！",0,50,1.5,left,LLLLL.png,,,,,0,1,1,1,1,16,40,8,,,,,,,,,,,,,,,,,,,,,,,,,,,,,,,,,,,,,,,,,,,,,,,,,,,,,,,,,,,,,,,,328.88005899987184,329.28229609993286,329.2640531999059,329.36507950001396,329.7656888999045,None,left,1,0.5474412001203746,329.7656888999045,None,329.2640531999059,329.36507950001396,329.36507950001396,None,330.332008499885,None,,,,,,,11038,001,2024_Mar_11_1619,ANT,2021.2.3,59.95577656166032,
1,9,center,up,C,L,,,,,,Block.xlsx,"你已经完成了整个实验（三个区组）。

请报告实验者已完成实验

非常感谢，再见！",0,50,1.5,left,LLLLL.png,,,,,0,1,1,1,1,17,41,8,,,,,,,,,,,,,,,,,,,,,,,,,,,,,,,,,,,,,,,,,,,,,,,,,,,,,,,,,,,,,,,,330.73292859992944,331.13592869997956,331.11687739985064,331.217676299857,331.61878519994207,None,left,1,0.39886329998262227,331.61878519994207,None,331.11687739985064,331.217676299857,331.217676299857,None,332.0347718000412,None,,,,,,,11038,001,2024_Mar_11_1619,ANT,2021.2.3,59.95577656166032,
1,10,center,up,C,R,,,,,,Block.xlsx,"你已经完成了整个实验（三个区组）。

请报告实验者已完成实验

非常感谢，再见！",0,50,1.5,right,RRRRR.png,,,,,0,1,1,1,1,18,42,9,,,,,,,,,,,,,,,,,,,,,,,,,,,,,,,,,,,,,,,,,,,,,,,,,,,,,,,,,,,,,,,,332.4353132999968,332.8365281999577,332.8208912999835,332.9359206999652,333.32010949985124,None,right,1,0.40167029993608594,333.32010949985124,None,332.8208912999835,332.9359206999652,332.91953910002485,None,333.73731240001507,None,,,,,,,11038,001,2024_Mar_11_1619,ANT,2021.2.3,59.95577656166032,
1,20,spatial,up,IC,R,,,,,,Block.xlsx,"你已经完成了整个实验（三个区组）。

请报告实验者已完成实验

非常感谢，再见！",1.5,0,1.5,right,LLRLL.png,,,,,0,1,1,1,1,19,43,19,,,,,,,,,,,,,,,,,,,,,,,,,,,,,,,,,,,,,,,,,,,,,,,,,,,,,,,,,,,,,,,,334.13802149984986,334.5396880998742,334.52192169986665,334.62346969987266,335.0239073999692,None,right,1,0.4816126001533121,335.0239073999692,None,334.52192169986665,334.62346969987266,334.62346969987266,None,335.5232993999962,None,,,,,,,11038,001,2024_Mar_11_1619,ANT,2021.2.3,59.95577656166032,
1,13,center,down,C,L,,,,,,Block.xlsx,"你已经完成了整个实验（三个区组）。

请报告实验者已完成实验

非常感谢，再见！",0,50,-1.5,left,LLLLL.png,,,,,0,1,1,1,1,20,44,12,,,,,,,,,,,,,,,,,,,,,,,,,,,,,,,,,,,,,,,,,,,,,,,,,,,,,,,,,,,,,,,,335.92394550004974,336.32503780000843,336.3079563998617,336.4094115998596,336.80857090000063,None,left,1,0.4567623999901116,336.80857090000063,None,336.3079563998617,336.4094115998596,336.4094115998596,None,337.29245790001005,None,,,,,,,11038,001,2024_Mar_11_1619,ANT,2021.2.3,59.95577656166032,
1,4,no,up,IC,R,,,,,,Block.xlsx,"你已经完成了整个实验（三个区组）。

请报告实验者已完成实验

非常感谢，再见！",50,0,1.5,right,LLRLL.png,,,,,0,1,1,1,1,21,45,3,,,,,,,,,,,,,,,,,,,,,,,,,,,,,,,,,,,,,,,,,,,,,,,,,,,,,,,,,,,,,,,,337.69334560004063,338.0953591999132,338.0772472000681,338.17927129985765,338.57889529992826,None,right,1,0.5745157999917865,338.57889529992826,None,338.0772472000681,338.17927129985765,338.17927129985765,None,339.17964240000583,None,,,,,,,11038,001,2024_Mar_11_1619,ANT,2021.2.3,59.95577656166032,
1,24,spatial,down,IC,R,,,,,,Block.xlsx,"你已经完成了整个实验（三个区组）。

请报告实验者已完成实验

非常感谢，再见！",-1.5,0,-1.5,right,LLRLL.png,,,,,0,1,1,1,1,22,46,23,,,,,,,,,,,,,,,,,,,,,,,,,,,,,,,,,,,,,,,,,,,,,,,,,,,,,,,,,,,,,,,,339.58019099989906,339.98014650004916,339.96427830005996,340.0650939999614,340.46420200006105,None,right,1,0.3931451002135873,340.46420200006105,None,339.96427830005996,340.0650939999614,340.0650939999614,None,340.8818733000662,None,,,,,,,11038,001,2024_Mar_11_1619,ANT,2021.2.3,59.95577656166032,
1,17,spatial,up,C,L,,,,,,Block.xlsx,"你已经完成了整个实验（三个区组）。

请报告实验者已完成实验

非常感谢，再见！",1.5,0,1.5,left,LLLLL.png,,,,,0,1,1,1,1,23,47,16,,,,,,,,,,,,,,,,,,,,,,,,,,,,,,,,,,,,,,,,,,,,,,,,,,,,,,,,,,,,,,,,341.2826990999747,341.6825918999966,341.66660310002044,341.7677748000715,342.16668089991435,None,left,1,0.39481949992477894,342.16668089991435,None,341.66660310002044,341.7677748000715,341.7677748000715,None,342.584094800055,None,,,,,,,11038,001,2024_Mar_11_1619,ANT,2021.2.3,59.95577656166032,
1,15,center,down,IC,L,,,,,,Block.xlsx,"你已经完成了整个实验（三个区组）。

请报告实验者已完成实验

非常感谢，再见！",0,50,-1.5,left,RRLRR.png,,,,,0,1,1,1,2,0,48,14,,,,,,,,,,,,,,,,,,,,,,,,,,,,,,,,,,,,,,,,,,,,,,,,,,,,,,,,,,,,,,,,342.9844396999106,343.38541719992645,343.36954750004224,343.4703404000029,343.8693804999348,None,left,1,0.48396080010570586,343.8693804999348,None,343.36954750004224,343.4703404000029,343.4703404000029,None,344.36999189993367,None,,,,,,,11038,001,2024_Mar_11_1619,ANT,2021.2.3,59.95577656166032,
1,5,no,down,C,L,,,,,,Block.xlsx,"你已经完成了整个实验（三个区组）。

请报告实验者已完成实验

非常感谢，再见！",50,0,-1.5,left,LLLLL.png,,,,,0,1,1,1,2,1,49,4,,,,,,,,,,,,,,,,,,,,,,,,,,,,,,,,,,,,,,,,,,,,,,,,,,,,,,,,,,,,,,,,344.771033299854,345.1726466000546,345.15525069995783,345.25545609998517,345.655487800017,None,left,1,0.4586366000585258,345.655487800017,None,345.15525069995783,345.25545609998517,345.25545609998517,None,346.1394326000009,None,,,,,,,11038,001,2024_Mar_11_1619,ANT,2021.2.3,59.95577656166032,
1,11,center,up,IC,L,,,,,,Block.xlsx,"你已经完成了整个实验（三个区组）。

请报告实验者已完成实验

非常感谢，再见！",0,50,1.5,left,RRLRR.png,,,,,0,1,1,1,2,2,50,10,,,,,,,,,,,,,,,,,,,,,,,,,,,,,,,,,,,,,,,,,,,,,,,,,,,,,,,,,,,,,,,,346.53992859995924,346.9406317998655,346.92616839986295,347.02397600002587,347.42487480002455,None,left,1,0.4968571998178959,347.42487480002455,None,346.92616839986295,347.02397600002587,347.02397600002587,None,347.9420403998811,None,,,,,,,11038,001,2024_Mar_11_1619,ANT,2021.2.3,59.95577656166032,
1,17,spatial,up,C,L,,,,,,Block.xlsx,"你已经完成了整个实验（三个区组）。

请报告实验者已完成实验

非常感谢，再见！",1.5,0,1.5,left,LLLLL.png,,,,,0,1,1,1,2,3,51,16,,,,,,,,,,,,,,,,,,,,,,,,,,,,,,,,,,,,,,,,,,,,,,,,,,,,,,,,,,,,,,,,348.34390380000696,348.7452962999232,348.7270386000164,348.8276622998528,349.22823640005663,None,left,1,0.35737490002065897,349.22823640005663,None,348.7270386000164,348.8276622998528,348.8276622998528,None,349.6111502998974,None,,,,,,,11038,001,2024_Mar_11_1619,ANT,2021.2.3,59.95577656166032,
1,20,spatial,up,IC,R,,,,,,Block.xlsx,"你已经完成了整个实验（三个区组）。

请报告实验者已完成实验

非常感谢，再见！",1.5,0,1.5,right,LLRLL.png,,,,,0,1,1,1,2,4,52,19,,,,,,,,,,,,,,,,,,,,,,,,,,,,,,,,,,,,,,,,,,,,,,,,,,,,,,,,,,,,,,,,350.01184559985995,350.4141213998664,350.39580149995163,350.49579219985753,350.8989554999862,None,right,1,0.37456490006297827,350.8989554999862,None,350.39580149995163,350.49579219985753,350.49579219985753,None,351.2972059000749,None,,,,,,,11038,001,2024_Mar_11_1619,ANT,2021.2.3,59.95577656166032,
1,16,center,down,IC,R,,,,,,Block.xlsx,"你已经完成了整个实验（三个区组）。

请报告实验者已完成实验

非常感谢，再见！",0,50,-1.5,right,LLRLL.png,,,,,0,1,1,1,2,5,53,15,,,,,,,,,,,,,,,,,,,,,,,,,,,,,,,,,,,,,,,,,,,,,,,,,,,,,,,,,,,,,,,,351.6980544999242,352.09847029997036,352.082474200055,352.18260920001194,352.58361890004016,None,right,1,0.5942581000272185,352.58361890004016,None,352.082474200055,352.18260920001194,352.18260920001194,None,353.200073099928,None,,,,,,,11038,001,2024_Mar_11_1619,ANT,2021.2.3,59.95577656166032,
1,13,center,down,C,L,,,,,,Block.xlsx,"你已经完成了整个实验（三个区组）。

请报告实验者已完成实验

非常感谢，再见！",0,50,-1.5,left,LLLLL.png,,,,,0,1,1,1,2,6,54,12,,,,,,,,,,,,,,,,,,,,,,,,,,,,,,,,,,,,,,,,,,,,,,,,,,,,,,,,,,,,,,,,353.60058470000513,354.0011308998801,353.9869541998487,354.08472290006466,354.4858303000219,None,left,1,0.5315817999653518,354.4858303000219,None,353.9869541998487,354.08472290006466,354.08472290006466,None,355.03618020005524,None,,,,,,,11038,001,2024_Mar_11_1619,ANT,2021.2.3,59.95577656166032,
1,6,no,down,C,R,,,,,,Block.xlsx,"你已经完成了整个实验（三个区组）。

请报告实验者已完成实验

非常感谢，再见！",50,0,-1.5,right,RRRRR.png,,,,,0,1,1,1,2,7,55,5,,,,,,,,,,,,,,,,,,,,,,,,,,,,,,,,,,,,,,,,,,,,,,,,,,,,,,,,,,,,,,,,355.4366067000665,355.8372847000137,355.8214066999499,355.92202130006626,356.3235201998614,None,right,1,0.4624529001303017,356.3235201998614,None,355.8214066999499,355.92202130006626,355.92202130006626,None,356.8053784999065,None,,,,,,,11038,001,2024_Mar_11_1619,ANT,2021.2.3,59.95577656166032,
1,4,no,up,IC,R,,,,,,Block.xlsx,"你已经完成了整个实验（三个区组）。

请报告实验者已完成实验

非常感谢，再见！",50,0,1.5,right,LLRLL.png,,,,,0,1,1,1,2,8,56,3,,,,,,,,,,,,,,,,,,,,,,,,,,,,,,,,,,,,,,,,,,,,,,,,,,,,,,,,,,,,,,,,357.20694649987854,357.60776189994067,357.59009329997934,357.69102889997885,358.0913468999788,None,right,1,0.6064242001157254,358.0913468999788,None,357.59009329997934,357.69102889997885,357.69102889997885,None,358.7243449999951,None,,,,,,,11038,001,2024_Mar_11_1619,ANT,2021.2.3,59.95577656166032,
1,1,no,up,C,L,,,,,,Block.xlsx,"你已经完成了整个实验（三个区组）。

请报告实验者已完成实验

非常感谢，再见！",50,0,1.5,left,LLLLL.png,,,,,0,1,1,1,2,9,57,0,,,,,,,,,,,,,,,,,,,,,,,,,,,,,,,,,,,,,,,,,,,,,,,,,,,,,,,,,,,,,,,,359.1267776999157,359.52662590006366,359.51063559995964,359.6105003999546,360.0106510000769,None,left,1,0.39930819999426603,360.0106510000769,None,359.51063559995964,359.6105003999546,359.6105003999546,None,360.42760069994256,None,,,,,,,11038,001,2024_Mar_11_1619,ANT,2021.2.3,59.95577656166032,
1,16,center,down,IC,R,,,,,,Block.xlsx,"你已经完成了整个实验（三个区组）。

请报告实验者已完成实验

非常感谢，再见！",0,50,-1.5,right,LLRLL.png,,,,,0,1,1,1,2,10,58,15,,,,,,,,,,,,,,,,,,,,,,,,,,,,,,,,,,,,,,,,,,,,,,,,,,,,,,,,,,,,,,,,360.82824929989874,361.2289668000303,361.2121635999065,361.31215939996764,361.71396650001407,None,right,1,0.5441354000940919,361.71396650001407,None,361.2121635999065,361.31215939996764,361.31215939996764,None,362.2804268000182,None,,,,,,,11038,001,2024_Mar_11_1619,ANT,2021.2.3,59.95577656166032,
1,14,center,down,C,R,,,,,,Block.xlsx,"你已经完成了整个实验（三个区组）。

请报告实验者已完成实验

非常感谢，再见！",0,50,-1.5,right,RRRRR.png,,,,,0,1,1,1,2,11,59,13,,,,,,,,,,,,,,,,,,,,,,,,,,,,,,,,,,,,,,,,,,,,,,,,,,,,,,,,,,,,,,,,362.6821713000536,363.0826699999161,363.06548159988597,363.16483470005915,363.56709200004116,None,right,1,0.4512798001524061,363.56709200004116,None,363.06548159988597,363.16483470005915,363.16483470005915,None,364.0331137999892,None,,,,,,,11038,001,2024_Mar_11_1619,ANT,2021.2.3,59.95577656166032,
1,17,spatial,up,C,L,,,,,,Block.xlsx,"你已经完成了整个实验（三个区组）。

请报告实验者已完成实验

非常感谢，再见！",1.5,0,1.5,left,LLLLL.png,,,,,0,1,1,1,2,12,60,16,,,,,,,,,,,,,,,,,,,,,,,,,,,,,,,,,,,,,,,,,,,,,,,,,,,,,,,,,,,,,,,,364.4340880999807,364.8341578000691,364.8181362999603,364.91933030006476,365.31835659989156,None,left,1,0.3395263999700546,365.31835659989156,None,364.8181362999603,364.91933030006476,364.91933030006476,None,365.68607709999196,None,,,,,,,11038,001,2024_Mar_11_1619,ANT,2021.2.3,59.95577656166032,
1,3,no,up,IC,L,,,,,,Block.xlsx,"你已经完成了整个实验（三个区组）。

请报告实验者已完成实验

非常感谢，再见！",50,0,1.5,left,RRLRR.png,,,,,0,1,1,1,2,13,61,2,,,,,,,,,,,,,,,,,,,,,,,,,,,,,,,,,,,,,,,,,,,,,,,,,,,,,,,,,,,,,,,,366.08632469992153,366.4878996000625,366.4705153000541,366.57030460005626,366.9728162998799,None,left,1,0.49339629989117384,366.9728162998799,None,366.4705153000541,366.57030460005626,366.57030460005626,None,367.4883405000437,None,,,,,,,11038,001,2024_Mar_11_1619,ANT,2021.2.3,59.95577656166032,
1,11,center,up,IC,L,,,,,,Block.xlsx,"你已经完成了整个实验（三个区组）。

请报告实验者已完成实验

非常感谢，再见！",0,50,1.5,left,RRLRR.png,,,,,0,1,1,1,2,14,62,10,,,,,,,,,,,,,,,,,,,,,,,,,,,,,,,,,,,,,,,,,,,,,,,,,,,,,,,,,,,,,,,,367.88912549987435,368.29122349992394,368.27341819996946,368.37452349998057,368.77286839997396,None,left,1,0.4129506000317633,368.77286839997396,None,368.27341819996946,368.37452349998057,368.37452349998057,None,369.207273399923,None,,,,,,,11038,001,2024_Mar_11_1619,ANT,2021.2.3,59.95577656166032,
1,19,spatial,up,IC,L,,,,,,Block.xlsx,"你已经完成了整个实验（三个区组）。

请报告实验者已完成实验

非常感谢，再见！",1.5,0,1.5,left,RRLRR.png,,,,,0,1,1,1,2,15,63,18,,,,,,,,,,,,,,,,,,,,,,,,,,,,,,,,,,,,,,,,,,,,,,,,,,,,,,,,,,,,,,,,369.60796989989467,370.0086298000533,369.99183960002847,370.0929038999602,370.4925112000201,None,left,1,0.36635929998010397,370.4925112000201,None,369.99183960002847,370.0929038999602,370.0929038999602,None,370.87649399996735,None,,,,,,,11038,001,2024_Mar_11_1619,ANT,2021.2.3,59.95577656166032,
1,14,center,down,C,R,,,,,,Block.xlsx,"你已经完成了整个实验（三个区组）。

请报告实验者已完成实验

非常感谢，再见！",0,50,-1.5,right,RRRRR.png,,,,,0,1,1,1,2,16,64,13,,,,,,,,,,,,,,,,,,,,,,,,,,,,,,,,,,,,,,,,,,,,,,,,,,,,,,,,,,,,,,,,371.2771272000391,371.67881880002096,371.6611031999346,371.76146189984865,372.1628775000572,None,right,1,0.43962779990397394,372.1628775000572,None,371.6611031999346,371.76146189984865,371.76146189984865,None,372.62937860004604,None,,,,,,,11038,001,2024_Mar_11_1619,ANT,2021.2.3,59.95577656166032,
1,15,center,down,IC,L,,,,,,Block.xlsx,"你已经完成了整个实验（三个区组）。

请报告实验者已完成实验

非常感谢，再见！",0,50,-1.5,left,RRLRR.png,,,,,0,1,1,1,2,17,65,14,,,,,,,,,,,,,,,,,,,,,,,,,,,,,,,,,,,,,,,,,,,,,,,,,,,,,,,,,,,,,,,,373.030161799863,373.4303001998924,373.4139596000314,373.5145866998937,373.9150805999525,None,left,1,0.5677821000572294,373.9150805999525,None,373.4139596000314,373.5145866998937,373.5145866998937,None,374.500097299926,None,,,,,,,11038,001,2024_Mar_11_1619,ANT,2021.2.3,59.95577656166032,
1,1,no,up,C,L,,,,,,Block.xlsx,"你已经完成了整个实验（三个区组）。

请报告实验者已完成实验

非常感谢，再见！",50,0,1.5,left,LLLLL.png,,,,,0,1,1,1,2,18,66,0,,,,,,,,,,,,,,,,,,,,,,,,,,,,,,,,,,,,,,,,,,,,,,,,,,,,,,,,,,,,,,,,374.89943449990824,375.2999755998608,375.2859004000202,375.38416610006243,375.7849987000227,None,left,1,0.4411472000647336,375.7849987000227,None,375.2859004000202,375.38416610006243,375.38416610006243,None,376.2515773999039,None,,,,,,,11038,001,2024_Mar_11_1619,ANT,2021.2.3,59.95577656166032,
1,22,spatial,down,C,R,,,,,,Block.xlsx,"你已经完成了整个实验（三个区组）。

请报告实验者已完成实验

非常感谢，再见！",-1.5,0,-1.5,right,RRRRR.png,,,,,0,1,1,1,2,19,67,21,,,,,,,,,,,,,,,,,,,,,,,,,,,,,,,,,,,,,,,,,,,,,,,,,,,,,,,,,,,,,,,,376.6528445999138,377.05306750000454,377.0378500998486,377.1370073999278,377.5369849000126,None,right,1,0.5131573001854122,377.5369849000126,None,377.0378500998486,377.1370073999278,377.1370073999278,None,378.07085080002435,None,,,,,,,11038,001,2024_Mar_11_1619,ANT,2021.2.3,59.95577656166032,
1,14,center,down,C,R,,,,,,Block.xlsx,"你已经完成了整个实验（三个区组）。

请报告实验者已完成实验

非常感谢，再见！",0,50,-1.5,right,RRRRR.png,,,,,0,1,1,1,2,20,68,13,,,,,,,,,,,,,,,,,,,,,,,,,,,,,,,,,,,,,,,,,,,,,,,,,,,,,,,,,,,,,,,,378.47147380001843,378.8731201000046,378.8554157000035,378.9555356998462,379.3573896999005,None,right,1,0.3899371998850256,379.3573896999005,None,378.8554157000035,378.9555356998462,378.9555356998462,None,379.77389939990826,None,,,,,,,11038,001,2024_Mar_11_1619,ANT,2021.2.3,59.95577656166032,
1,8,no,down,IC,R,,,,,,Block.xlsx,"你已经完成了整个实验（三个区组）。

请报告实验者已完成实验

非常感谢，再见！",50,0,-1.5,right,LLRLL.png,,,,,0,1,1,1,2,21,69,7,,,,,,,,,,,,,,,,,,,,,,,,,,,,,,,,,,,,,,,,,,,,,,,,,,,,,,,,,,,,,,,,380.17413509986363,380.5755290999077,380.55791569990106,380.6589424998965,381.0586941000074,None,right,1,0.4561113999225199,381.0586941000074,None,380.55791569990106,380.6589424998965,380.6589424998965,None,381.5427069000434,None,,,,,,,11038,001,2024_Mar_11_1619,ANT,2021.2.3,59.95577656166032,
1,1,no,up,C,L,,,,,,Block.xlsx,"你已经完成了整个实验（三个区组）。

请报告实验者已完成实验

非常感谢，再见！",50,0,1.5,left,LLLLL.png,,,,,0,1,1,1,2,22,70,0,,,,,,,,,,,,,,,,,,,,,,,,,,,,,,,,,,,,,,,,,,,,,,,,,,,,,,,,,,,,,,,,381.9440583998803,382.3440234998707,382.328158600023,382.4274452999234,382.8280370000284,None,left,1,0.4786686999723315,382.8280370000284,None,382.328158600023,382.4274452999234,382.4274452999234,None,383.32865469995886,None,,,,,,,11038,001,2024_Mar_11_1619,ANT,2021.2.3,59.95577656166032,
1,23,spatial,down,IC,L,,,,,,Block.xlsx,"你已经完成了整个实验（三个区组）。

请报告实验者已完成实验

非常感谢，再见！",-1.5,0,-1.5,left,RRLRR.png,,,,,0,1,1,1,2,23,71,22,,,,,,,,,,,,,,,,,,,,,,,,,,,,,,,,,,,,,,,,,,,,,,,,,,,,,,,,,,,,,,,,383.73001329996623,384.1311051999219,384.11449579987675,384.21556929987855,384.6148043998983,None,left,1,0.603687500115484,384.6148043998983,None,384.11449579987675,384.21556929987855,384.21556929987855,None,385.24919390003197,None,,,,,,,11038,001,2024_Mar_11_1619,ANT,2021.2.3,59.95577656166032,
1,2,no,up,C,R,,,,,,Block.xlsx,"你已经完成了整个实验（三个区组）。

请报告实验者已完成实验

非常感谢，再见！",50,0,1.5,right,RRRRR.png,,,,,0,1,1,1,3,0,72,1,,,,,,,,,,,,,,,,,,,,,,,,,,,,,,,,,,,,,,,,,,,,,,,,,,,,,,,,,,,,,,,,385.64934600004926,386.05016559991054,386.0337934999261,386.133824700024,386.53365179989487,None,right,1,0.3972828001715243,386.53365179989487,None,386.0337934999261,386.133824700024,386.133824700024,None,386.9509399998933,None,,,,,,,11038,001,2024_Mar_11_1619,ANT,2021.2.3,59.95577656166032,
1,7,no,down,IC,L,,,,,,Block.xlsx,"你已经完成了整个实验（三个区组）。

请报告实验者已完成实验

非常感谢，再见！",50,0,-1.5,left,RRLRR.png,,,,,0,1,1,1,3,1,73,6,,,,,,,,,,,,,,,,,,,,,,,,,,,,,,,,,,,,,,,,,,,,,,,,,,,,,,,,,,,,,,,,387.3514254000038,387.75319269998,387.73526409990154,387.8375041000545,388.2362951000687,None,right,0,0.43824089993722737,388.2362951000687,None,387.73526409990154,387.8375041000545,387.8375041000545,None,388.70481000002474,None,,,,,,,11038,001,2024_Mar_11_1619,ANT,2021.2.3,59.95577656166032,
1,7,no,down,IC,L,,,,,,Block.xlsx,"你已经完成了整个实验（三个区组）。

请报告实验者已完成实验

非常感谢，再见！",50,0,-1.5,left,RRLRR.png,,,,,0,1,1,1,3,2,74,6,,,,,,,,,,,,,,,,,,,,,,,,,,,,,,,,,,,,,,,,,,,,,,,,,,,,,,,,,,,,,,,,389.1041584999766,389.5055452999659,389.4887343000155,389.5883253000211,389.989071900025,None,left,1,0.5741826000157744,389.989071900025,None,389.4887343000155,389.5883253000211,389.5883253000211,None,390.5898154999595,None,,,,,,,11038,001,2024_Mar_11_1619,ANT,2021.2.3,59.95577656166032,
1,16,center,down,IC,R,,,,,,Block.xlsx,"你已经完成了整个实验（三个区组）。

请报告实验者已完成实验

非常感谢，再见！",0,50,-1.5,right,LLRLL.png,,,,,0,1,1,1,3,3,75,15,,,,,,,,,,,,,,,,,,,,,,,,,,,,,,,,,,,,,,,,,,,,,,,,,,,,,,,,,,,,,,,,390.99097290006466,391.3917439999059,391.37538379989564,391.47505889995955,391.87614910001867,None,right,1,0.5023994999937713,391.87614910001867,None,391.37538379989564,391.47505889995955,391.47505889995955,None,392.40944020007737,None,,,,,,,11038,001,2024_Mar_11_1619,ANT,2021.2.3,59.95577656166032,
1,12,center,up,IC,R,,,,,,Block.xlsx,"你已经完成了整个实验（三个区组）。

请报告实验者已完成实验

非常感谢，再见！",0,50,1.5,right,LLRLL.png,,,,,0,1,1,1,3,4,76,11,,,,,,,,,,,,,,,,,,,,,,,,,,,,,,,,,,,,,,,,,,,,,,,,,,,,,,,,,,,,,,,,392.81047559995204,393.21044469997287,393.19505500001833,393.31112219998613,393.69596299994737,None,right,1,0.6917185999918729,393.69596299994737,None,393.19505500001833,393.31112219998613,393.2956964999903,None,394.4120968999341,None,,,,,,,11038,001,2024_Mar_11_1619,ANT,2021.2.3,59.95577656166032,
1,19,spatial,up,IC,L,,,,,,Block.xlsx,"你已经完成了整个实验（三个区组）。

请报告实验者已完成实验

非常感谢，再见！",1.5,0,1.5,left,RRLRR.png,,,,,0,1,1,1,3,5,77,18,,,,,,,,,,,,,,,,,,,,,,,,,,,,,,,,,,,,,,,,,,,,,,,,,,,,,,,,,,,,,,,,394.8138760998845,395.2144573999103,395.19795920001343,395.29795859986916,395.69744709995575,None,left,1,0.458135399967432,395.69744709995575,None,395.19795920001343,395.29795859986916,395.29795859986916,None,396.18142389995046,None,,,,,,,11038,001,2024_Mar_11_1619,ANT,2021.2.3,59.95577656166032,
1,21,spatial,down,C,L,,,,,,Block.xlsx,"你已经完成了整个实验（三个区组）。

请报告实验者已完成实验

非常感谢，再见！",-1.5,0,-1.5,left,LLLLL.png,,,,,0,1,1,1,3,6,78,20,,,,,,,,,,,,,,,,,,,,,,,,,,,,,,,,,,,,,,,,,,,,,,,,,,,,,,,,,,,,,,,,396.58335920004174,396.98263680003583,396.9671414999757,397.06709440005943,397.46678659995086,None,left,1,0.48900029994547367,397.46678659995086,None,396.9671414999757,397.06709440005943,397.06709440005943,None,397.98436450003646,None,,,,,,,11038,001,2024_Mar_11_1619,ANT,2021.2.3,59.95577656166032,
1,2,no,up,C,R,,,,,,Block.xlsx,"你已经完成了整个实验（三个区组）。

请报告实验者已完成实验

非常感谢，再见！",50,0,1.5,right,RRRRR.png,,,,,0,1,1,1,3,7,79,1,,,,,,,,,,,,,,,,,,,,,,,,,,,,,,,,,,,,,,,,,,,,,,,,,,,,,,,,,,,,,,,,398.3849140999373,398.7868991999421,398.7688231000211,398.8700890999753,399.2706243998837,None,right,1,0.588475099997595,399.2706243998837,None,398.7688231000211,398.8700890999753,398.8700890999753,None,399.8872606998775,None,,,,,,,11038,001,2024_Mar_11_1619,ANT,2021.2.3,59.95577656166032,
1,6,no,down,C,R,,,,,,Block.xlsx,"你已经完成了整个实验（三个区组）。

请报告实验者已完成实验

非常感谢，再见！",50,0,-1.5,right,RRRRR.png,,,,,0,1,1,1,3,8,80,5,,,,,,,,,,,,,,,,,,,,,,,,,,,,,,,,,,,,,,,,,,,,,,,,,,,,,,,,,,,,,,,,400.2886564999353,400.68868979997933,400.6721975998953,400.7736990998965,401.1723126999568,None,right,1,0.5507826001849025,401.1723126999568,None,400.6721975998953,400.7736990998965,400.7736990998965,None,401.73980630002916,None,,,,,,,11038,001,2024_Mar_11_1619,ANT,2021.2.3,59.95577656166032,
1,4,no,up,IC,R,,,,,,Block.xlsx,"你已经完成了整个实验（三个区组）。

请报告实验者已完成实验

非常感谢，再见！",50,0,1.5,right,LLRLL.png,,,,,0,1,1,1,3,9,81,3,,,,,,,,,,,,,,,,,,,,,,,,,,,,,,,,,,,,,,,,,,,,,,,,,,,,,,,,,,,,,,,,402.1404633000493,402.54196469997987,402.52522780001163,402.62513260007836,403.0250923000276,None,right,1,0.7942250000778586,403.0250923000276,None,402.52522780001163,402.62513260007836,402.62513260007836,None,403.8438428998925,None,,,,,,,11038,001,2024_Mar_11_1619,ANT,2021.2.3,59.95577656166032,
1,10,center,up,C,R,,,,,,Block.xlsx,"你已经完成了整个实验（三个区组）。

请报告实验者已完成实验

非常感谢，再见！",0,50,1.5,right,RRRRR.png,,,,,0,1,1,1,3,10,82,9,,,,,,,,,,,,,,,,,,,,,,,,,,,,,,,,,,,,,,,,,,,,,,,,,,,,,,,,,,,,,,,,404.2445910999086,404.6461225999519,404.62754260003567,404.7285460999701,405.12853670003824,None,right,1,0.49098250013776124,405.12853670003824,None,404.62754260003567,404.7285460999701,404.7285460999701,None,405.64581929985434,None,,,,,,,11038,001,2024_Mar_11_1619,ANT,2021.2.3,59.95577656166032,
1,12,center,up,IC,R,,,,,,Block.xlsx,"你已经完成了整个实验（三个区组）。

请报告实验者已完成实验

非常感谢，再见！",0,50,1.5,right,LLRLL.png,,,,,0,1,1,1,3,11,83,11,,,,,,,,,,,,,,,,,,,,,,,,,,,,,,,,,,,,,,,,,,,,,,,,,,,,,,,,,,,,,,,,406.04647949989885,406.4486692000646,406.43023689999245,406.5310778999701,406.93347479985096,None,right,1,0.5986754999030381,406.93347479985096,None,406.43023689999245,406.5310778999701,406.5310778999701,None,407.5486808998976,None,,,,,,,11038,001,2024_Mar_11_1619,ANT,2021.2.3,59.95577656166032,
1,5,no,down,C,L,,,,,,Block.xlsx,"你已经完成了整个实验（三个区组）。

请报告实验者已完成实验

非常感谢，再见！",50,0,-1.5,left,LLLLL.png,,,,,0,1,1,1,3,12,84,4,,,,,,,,,,,,,,,,,,,,,,,,,,,,,,,,,,,,,,,,,,,,,,,,,,,,,,,,,,,,,,,,407.9493799000047,408.3505565999076,408.33431639987975,408.433956899913,408.8347527999431,None,left,1,0.4965156998950988,408.8347527999431,None,408.33431639987975,408.433956899913,408.433956899913,None,409.3515262999572,None,,,,,,,11038,001,2024_Mar_11_1619,ANT,2021.2.3,59.95577656166032,
1,21,spatial,down,C,L,,,,,,Block.xlsx,"你已经完成了整个实验（三个区组）。

请报告实验者已完成实验

非常感谢，再见！",-1.5,0,-1.5,left,LLLLL.png,,,,,0,1,1,1,3,13,85,20,,,,,,,,,,,,,,,,,,,,,,,,,,,,,,,,,,,,,,,,,,,,,,,,,,,,,,,,,,,,,,,,409.7519501000643,410.1525685999077,410.1366335998755,410.236121899914,410.6370993000455,None,left,1,0.42203629994764924,410.6370993000455,None,410.1366335998755,410.236121899914,410.236121899914,None,411.0873586998787,None,,,,,,,11038,001,2024_Mar_11_1619,ANT,2021.2.3,59.95577656166032,
1,19,spatial,up,IC,L,,,,,,Block.xlsx,"你已经完成了整个实验（三个区组）。

请报告实验者已完成实验

非常感谢，再见！",1.5,0,1.5,left,RRLRR.png,,,,,0,1,1,1,3,14,86,18,,,,,,,,,,,,,,,,,,,,,,,,,,,,,,,,,,,,,,,,,,,,,,,,,,,,,,,,,,,,,,,,411.48879859992303,411.8886102999095,411.8723844999913,411.97355880006216,412.3728970999364,None,left,1,0.48625069996342063,412.3728970999364,None,411.8723844999913,411.97355880006216,411.97355880006216,None,412.89020729996264,None,,,,,,,11038,001,2024_Mar_11_1619,ANT,2021.2.3,59.95577656166032,
1,17,spatial,up,C,L,,,,,,Block.xlsx,"你已经完成了整个实验（三个区组）。

请报告实验者已完成实验

非常感谢，再见！",1.5,0,1.5,left,LLLLL.png,,,,,0,1,1,1,3,15,87,16,,,,,,,,,,,,,,,,,,,,,,,,,,,,,,,,,,,,,,,,,,,,,,,,,,,,,,,,,,,,,,,,413.291501800064,413.6919859999325,413.67536789993756,413.7766374000348,414.1753213000484,None,left,1,0.3879386999178678,414.1753213000484,None,413.67536789993756,413.7766374000348,413.7766374000348,None,414.59253260004334,None,,,,,,,11038,001,2024_Mar_11_1619,ANT,2021.2.3,59.95577656166032,
1,8,no,down,IC,R,,,,,,Block.xlsx,"你已经完成了整个实验（三个区组）。

请报告实验者已完成实验

非常感谢，再见！",50,0,-1.5,right,LLRLL.png,,,,,0,1,1,1,3,16,88,7,,,,,,,,,,,,,,,,,,,,,,,,,,,,,,,,,,,,,,,,,,,,,,,,,,,,,,,,,,,,,,,,414.99376189988106,415.39425499993376,415.3795522998553,415.4773641999345,415.8782841998618,None,right,1,0.58927319990471,415.8782841998618,None,415.3795522998553,415.4773641999345,415.4773641999345,None,416.49559639999643,None,,,,,,,11038,001,2024_Mar_11_1619,ANT,2021.2.3,59.95577656166032,
1,20,spatial,up,IC,R,,,,,,Block.xlsx,"你已经完成了整个实验（三个区组）。

请报告实验者已完成实验

非常感谢，再见！",1.5,0,1.5,right,LLRLL.png,,,,,0,1,1,1,3,17,89,19,,,,,,,,,,,,,,,,,,,,,,,,,,,,,,,,,,,,,,,,,,,,,,,,,,,,,,,,,,,,,,,,416.8969727999065,417.29796590004116,417.2810392000247,417.38219919987023,417.78085789992474,None,right,1,0.4147802998777479,417.78085789992474,None,417.2810392000247,417.38219919987023,417.38219919987023,None,418.21455310005695,None,,,,,,,11038,001,2024_Mar_11_1619,ANT,2021.2.3,59.95577656166032,
1,13,center,down,C,L,,,,,,Block.xlsx,"你已经完成了整个实验（三个区组）。

请报告实验者已完成实验

非常感谢，再见！",0,50,-1.5,left,LLLLL.png,,,,,0,1,1,1,3,18,90,12,,,,,,,,,,,,,,,,,,,,,,,,,,,,,,,,,,,,,,,,,,,,,,,,,,,,,,,,,,,,,,,,418.61675220006146,419.0167954999488,419.00004719989374,419.1001635999419,419.5011203000322,None,left,1,0.4307339999359101,419.5011203000322,None,419.00004719989374,419.1001635999419,419.1001635999419,None,419.9512930000201,None,,,,,,,11038,001,2024_Mar_11_1619,ANT,2021.2.3,59.95577656166032,
1,15,center,down,IC,L,,,,,,Block.xlsx,"你已经完成了整个实验（三个区组）。

请报告实验者已完成实验

非常感谢，再见！",0,50,-1.5,left,RRLRR.png,,,,,0,1,1,1,3,19,91,14,,,,,,,,,,,,,,,,,,,,,,,,,,,,,,,,,,,,,,,,,,,,,,,,,,,,,,,,,,,,,,,,420.35215279995464,420.75283929985017,420.7360161000397,420.83691839990206,421.2368788998574,None,left,1,0.46319179981946945,421.2368788998574,None,420.7360161000397,420.83691839990206,420.83691839990206,None,421.719965999946,None,,,,,,,11038,001,2024_Mar_11_1619,ANT,2021.2.3,59.95577656166032,
1,4,no,up,IC,R,,,,,,Block.xlsx,"你已经完成了整个实验（三个区组）。

请报告实验者已完成实验

