TrialType,TrialNumber,WarningType,TargetType,FlankerType,TargetDirection,W,f,Y,corr,imageFile,condition,endtext,Yw,Yf,Yt,Corr,imagefile,trials_3.thisRepN,trials_3.thisTrialN,trials_3.thisN,trials_3.thisIndex,trials_2.thisRepN,trials_2.thisTrialN,trials_2.thisN,trials_2.thisIndex,trials.thisRepN,trials.thisTrialN,trials.thisN,trials.thisIndex,instr.started,instr.stopped,key_resp.keys,key_resp.rt,key_resp.started,key_resp.stopped,image.started,image.stopped,key_resp_6.keys,key_resp_6.rt,key_resp_6.started,key_resp_6.stopped,EX_L.started,EX_L.stopped,AL.started,AL.stopped,key_resp_7.keys,key_resp_7.rt,key_resp_7.started,key_resp_7.stopped,EX_R.started,EX_R.stopped,RR.started,RR.stopped,key_resp_8.keys,key_resp_8.rt,key_resp_8.started,key_resp_8.stopped,image_2.started,image_2.stopped,key_resp_9.keys,key_resp_9.rt,key_resp_9.started,key_resp_9.stopped,image_3.started,image_3.stopped,key_resp_10.keys,key_resp_10.rt,key_resp_10.started,key_resp_10.stopped,fix.started,fix.stopped,war.started,war.stopped,tar.started,tar.stopped,key_resp_4.keys,key_resp_4.corr,key_resp_4.rt,key_resp_4.started,key_resp_4.stopped,fix2.started,fix2.stopped,fix_2.started,fix_2.stopped,Feedback.started,Feedback.stopped,key_resp_2.keys,key_resp_2.rt,key_resp_2.started,key_resp_2.stopped,text_5.started,text_5.stopped,fix2_1.started,fix2_1.stopped,Warn.started,Warn.stopped,Tar.started,Tar.stopped,key_resp_5.keys,key_resp_5.corr,key_resp_5.rt,key_resp_5.started,key_resp_5.stopped,Fix_2.started,Fix_2.stopped,fix2_2.started,fix2_2.stopped,text_4.started,text_4.stopped,key_resp_3.keys,key_resp_3.rt,key_resp_3.started,key_resp_3.stopped,text_3.started,text_3.stopped,participant,session,date,expName,psychopyVersion,frameRate,
,,,,,,,,,,,,,,,,,,,,,,,,,,,,,,8.991165499901399,None,space,5.108535900013521,8.991165499901399,None,,,,,,,,,,,,,,,,,,,,,,,,,,,,,,,,,,,,,,,,,,,,,,,,,,,,,,,,,,,,,,,,,,,,,,,,,,,,,,,,,11036,001,2024_Mar_10_1449,ANT,2021.2.3,59.83505866124753,
,,,,,,,,,,,,,,,,,,,,,,,,,,,,,,,,,,,,14.114586299983785,None,space,0.9129111999645829,14.114586299983785,None,,,,,,,,,,,,,,,,,,,,,,,,,,,,,,,,,,,,,,,,,,,,,,,,,,,,,,,,,,,,,,,,,,,,,,,,,,,11036,001,2024_Mar_10_1449,ANT,2021.2.3,59.83505866124753,
,,,,,,,,,,,,,,,,,,,,,,,,,,,,,,,,,,,,,,,,,,15.049335299991071,None,15.049335299991071,None,left,3.3782999999821186,15.049335299991071,None,,,,,,,,,,,,,,,,,,,,,,,,,,,,,,,,,,,,,,,,,,,,,,,,,,,,,,,,,,,,,,,,,,,11036,001,2024_Mar_10_1449,ANT,2021.2.3,59.83505866124753,
,,,,,,,,,,,,,,,,,,,,,,,,,,,,,,,,,,,,,,,,,,,,,,,,,,18.45432319981046,None,18.45432319981046,None,right,2.029516600072384,18.45432319981046,None,,,,,,,,,,,,,,,,,,,,,,,,,,,,,,,,,,,,,,,,,,,,,,,,,,,,,,,,,,,11036,001,2024_Mar_10_1449,ANT,2021.2.3,59.83505866124753,
,,,,,,,,,,,,,,,,,,,,,,,,,,,,,,,,,,,,,,,,,,,,,,,,,,,,,,,,,,20.507409499958158,None,space,6.71240929979831,20.507409499958158,None,,,,,,,,,,,,,,,,,,,,,,,,,,,,,,,,,,,,,,,,,,,,,,,,,,,,,11036,001,2024_Mar_10_1449,ANT,2021.2.3,59.83505866124753,
,,,,,,,,,,,,,,,,,,,,,,,,,,,,,,,,,,,,,,,,,,,,,,,,,,,,,,,,,,,,,,,,27.23434769990854,None,space,1.9933303999714553,27.23434769990854,None,,,,,,,,,,,,,,,,,,,,,,,,,,,,,,,,,,,,,,,,,,,,,,,11036,001,2024_Mar_10_1449,ANT,2021.2.3,59.83505866124753,
0,1,no,up,C,L,50,0,1.5,left,LLLLL.png,,,,,,,,0,0,0,0,,,,,,,,,,,,,,,,,,,,,,,,,,,,,,,,,,,,,,,,,,,,,,,,,29.32052839989774,29.72215069993399,29.706683399854228,29.821567999897525,30.206574599957094,None,left,1,0.9895197998266667,30.206574599957094,None,29.706683399854228,29.821567999897525,29.80728269997053,None,31.24039029981941,None,,,,,,,,,,,,,,,,,,,,,,,,,,,,,,11036,001,2024_Mar_10_1449,ANT,2021.2.3,59.83505866124753,
0,5,center,up,C,L,0,50,1.5,left,LLLLL.png,,,,,,,,0,1,1,4,,,,,,,,,,,,,,,,,,,,,,,,,,,,,,,,,,,,,,,,,,,,,,,,,33.243233299814165,33.64395279996097,33.62810919992626,33.72833750001155,34.128571399953216,None,left,1,0.7874069001991302,34.128571399953216,None,33.62810919992626,33.72833750001155,33.72833750001155,None,34.94578369986266,None,,,,,,,,,,,,,,,,,,,,,,,,,,,,,,11036,001,2024_Mar_10_1449,ANT,2021.2.3,59.83505866124753,
0,4,no,down,IC,L,50,0,-1.5,left,RRLRR.png,,,,,,,,0,2,2,3,,,,,,,,,,,,,,,,,,,,,,,,,,,,,,,,,,,,,,,,,,,,,,,,,36.94904819992371,37.35087649989873,37.33403849997558,37.435608400031924,37.83522459981032,None,left,1,0.9928427000995725,37.83522459981032,None,37.33403849997558,37.435608400031924,37.435608400031924,None,38.85170369991101,None,,,,,,,,,,,,,,,,,,,,,,,,,,,,,,11036,001,2024_Mar_10_1449,ANT,2021.2.3,59.83505866124753,
0,7,center,down,C,R,0,50,-1.5,right,RRRRR.png,,,,,,,,0,3,3,6,,,,,,,,,,,,,,,,,,,,,,,,,,,,,,,,,,,,,,,,,,,,,,,,,40.85574239981361,41.2578354999423,41.23932329984382,41.339490099810064,41.740430099889636,None,right,1,0.6074045998975635,41.740430099889636,None,41.23932329984382,41.339490099810064,41.339490099810064,None,42.37390249990858,None,,,,,,,,,,,,,,,,,,,,,,,,,,,,,,11036,001,2024_Mar_10_1449,ANT,2021.2.3,59.83505866124753,
0,3,no,down,C,R,50,0,-1.5,right,RRRRR.png,,,,,,,,0,4,4,2,,,,,,,,,,,,,,,,,,,,,,,,,,,,,,,,,,,,,,,,,,,,,,,,,44.377395999850705,44.77748509985395,44.76104639982805,44.86088479985483,45.26259459997527,None,right,1,0.5258581000380218,45.26259459997527,None,44.76104639982805,44.86088479985483,44.86088479985483,None,45.8121630998794,None,,,,,,,,,,,,,,,,,,,,,,,,,,,,,,11036,001,2024_Mar_10_1449,ANT,2021.2.3,59.83505866124753,
0,11,spatial,down,C,L,-1.5,0,-1.5,left,LLLLL.png,,,,,,,,0,5,5,10,,,,,,,,,,,,,,,,,,,,,,,,,,,,,,,,,,,,,,,,,,,,,,,,,47.81528309988789,48.21740319998935,48.199264799943194,48.300325099844486,48.69995949999429,None,left,1,0.45641040010377765,48.69995949999429,None,48.199264799943194,48.300325099844486,48.300325099844486,None,49.18405289994553,None,,,,,,,,,,,,,,,,,,,,,,,,,,,,,,11036,001,2024_Mar_10_1449,ANT,2021.2.3,59.83505866124753,
0,6,center,up,IC,R,0,50,1.5,right,LLRLL.png,,,,,,,,0,6,6,5,,,,,,,,,,,,,,,,,,,,,,,,,,,,,,,,,,,,,,,,,,,,,,,,,51.187915599904954,51.587551899952814,51.57192399981432,51.67194629996084,52.072630799841136,None,right,1,0.64350809995085,52.072630799841136,None,51.57192399981432,51.67194629996084,51.67194629996084,None,52.73924479982816,None,,,,,,,,,,,,,,,,,,,,,,,,,,,,,,11036,001,2024_Mar_10_1449,ANT,2021.2.3,59.83505866124753,
0,8,center,down,IC,L,0,50,-1.5,left,RRLRR.png,,,,,,,,0,7,7,7,,,,,,,,,,,,,,,,,,,,,,,,,,,,,,,,,,,,,,,,,,,,,,,,,54.74348169984296,55.144972399808466,55.12651679990813,55.22739559994079,55.62690319982357,None,left,1,0.5217226000968367,55.62690319982357,None,55.12651679990813,55.22739559994079,55.22739559994079,None,56.177829399937764,None,,,,,,,,,,,,,,,,,,,,,,,,,,,,,,11036,001,2024_Mar_10_1449,ANT,2021.2.3,59.83505866124753,
0,10,spatial,up,IC,L,1.5,0,1.5,left,RRLRR.png,,,,,,,,0,8,8,9,,,,,,,,,,,,,,,,,,,,,,,,,,,,,,,,,,,,,,,,,,,,,,,,,58.180924699874595,58.583650999935344,58.56469739996828,58.666101599810645,59.06709299981594,None,left,1,0.5220684998203069,59.06709299981594,None,58.56469739996828,58.666101599810645,58.666101599810645,None,59.617206800030544,None,,,,,,,,,,,,,,,,,,,,,,,,,,,,,,11036,001,2024_Mar_10_1449,ANT,2021.2.3,59.83505866124753,
0,12,spatial,down,IC,R,-1.5,0,-1.5,right,LLRLL.png,,,,,,,,0,9,9,11,,,,,,,,,,,,,,,,,,,,,,,,,,,,,,,,,,,,,,,,,,,,,,,,,61.620228899875656,62.01996269985102,62.004661299986765,62.10485349991359,62.504159699892625,None,right,1,0.452478300081566,62.504159699892625,None,62.004661299986765,62.10485349991359,62.10485349991359,None,62.97133229998872,None,,,,,,,,,,,,,,,,,,,,,,,,,,,,,,11036,001,2024_Mar_10_1449,ANT,2021.2.3,59.83505866124753,
0,2,no,up,IC,R,50,0,1.5,right,LLRLL.png,,,,,,,,0,10,10,1,,,,,,,,,,,,,,,,,,,,,,,,,,,,,,,,,,,,,,,,,,,,,,,,,64.9745694999583,65.37620389997028,65.3584015998058,65.45948980003595,65.85933219990693,None,right,1,0.9138962000142783,65.85933219990693,None,65.3584015998058,65.45948980003595,65.45948980003595,None,66.79391919984482,None,,,,,,,,,,,,,,,,,,,,,,,,,,,,,,11036,001,2024_Mar_10_1449,ANT,2021.2.3,59.83505866124753,
0,9,spatial,up,C,R,1.5,0,1.5,right,RRRRR.png,,,,,,,,0,11,11,8,,,,,,,,,,,,,,,,,,,,,,,,,,,,,,,,,,,,,,,,,,,,,,,,,68.79708019993268,69.19839839986525,69.18172929994762,69.28245449997485,69.68240569997579,None,right,1,0.43482920015230775,69.68240569997579,None,69.18172929994762,69.28245449997485,69.28245449997485,None,70.13225329993293,None,,,,,,,,,,,,,,,,,,,,,,,,,,,,,,11036,001,2024_Mar_10_1449,ANT,2021.2.3,59.83505866124753,
,,,,,,,,,,,,,,,,,,,,,,,,,,,,,,,,,,,,,,,,,,,,,,,,,,,,,,,,,,,,,,,,,,,,,,,,,,,,,,,,,,,,,,,space,4.8693014001473784,72.13638979988173,None,,,,,,,,,,,,,,,,,,,,,,,,,,11036,001,2024_Mar_10_1449,ANT,2021.2.3,59.83505866124753,
1,21,spatial,down,C,L,,,,,,Block.xlsx,"你已经完成了第一个实验区组

请稍作休息


点击空格键进入下一个区组。",-1.5,0,-1.5,left,LLLLL.png,,,,,0,0,0,0,0,0,0,20,,,,,,,,,,,,,,,,,,,,,,,,,,,,,,,,,,,,,,,,,,,,,,,,,,,,,,,,,,,,,,72.13638979988173,None,77.06063059996814,77.46087690000422,77.4442648999393,77.54468649998307,77.94638319988735,None,left,1,0.33051050011999905,77.94638319988735,None,77.4442648999393,77.54468649998307,77.54468649998307,None,78.2950785998255,None,,,,,,,11036,001,2024_Mar_10_1449,ANT,2021.2.3,59.83505866124753,
1,14,center,down,C,R,,,,,,Block.xlsx,"你已经完成了第一个实验区组

请稍作休息


点击空格键进入下一个区组。",0,50,-1.5,right,RRRRR.png,,,,,0,0,0,0,0,1,1,13,,,,,,,,,,,,,,,,,,,,,,,,,,,,,,,,,,,,,,,,,,,,,,,,,,,,,,,,,,,,,,,,78.69528729980811,79.09694089996628,79.07918070000596,79.17954559996724,79.58077499992214,None,right,1,0.45625229994766414,79.58077499992214,None,79.07918070000596,79.17954559996724,79.17954559996724,None,80.06403320003301,None,,,,,,,11036,001,2024_Mar_10_1449,ANT,2021.2.3,59.83505866124753,
1,10,center,up,C,R,,,,,,Block.xlsx,"你已经完成了第一个实验区组

请稍作休息


点击空格键进入下一个区组。",0,50,1.5,right,RRRRR.png,,,,,0,0,0,0,0,2,2,9,,,,,,,,,,,,,,,,,,,,,,,,,,,,,,,,,,,,,,,,,,,,,,,,,,,,,,,,,,,,,,,,80.46452949987724,80.86704709986225,80.84855160000734,80.94869659980759,81.35019339993596,None,right,1,0.4390975998248905,81.35019339993596,None,80.84855160000734,80.94869659980759,80.94869659980759,None,81.81662409985438,None,,,,,,,11036,001,2024_Mar_10_1449,ANT,2021.2.3,59.83505866124753,
1,9,center,up,C,L,,,,,,Block.xlsx,"你已经完成了第一个实验区组

请稍作休息


点击空格键进入下一个区组。",0,50,1.5,left,LLLLL.png,,,,,0,0,0,0,0,3,3,8,,,,,,,,,,,,,,,,,,,,,,,,,,,,,,,,,,,,,,,,,,,,,,,,,,,,,,,,,,,,,,,,82.21698789997026,82.61917910003103,82.60199130000547,82.70226489985362,83.10392119991593,None,left,1,0.4933986000251025,83.10392119991593,None,82.60199130000547,82.70226489985362,82.70226489985362,None,83.61939350003377,None,,,,,,,11036,001,2024_Mar_10_1449,ANT,2021.2.3,59.83505866124753,
1,15,center,down,IC,L,,,,,,Block.xlsx,"你已经完成了第一个实验区组

请稍作休息


点击空格键进入下一个区组。",0,50,-1.5,left,RRLRR.png,,,,,0,0,0,0,0,4,4,14,,,,,,,,,,,,,,,,,,,,,,,,,,,,,,,,,,,,,,,,,,,,,,,,,,,,,,,,,,,,,,,,84.01994519983418,84.42101329984143,84.40382829983719,84.50468609994277,84.90653579984792,None,right,0,0.43465769989416003,84.90653579984792,None,84.40382829983719,84.50468609994277,84.50468609994277,None,85.37199929985218,None,,,,,,,11036,001,2024_Mar_10_1449,ANT,2021.2.3,59.83505866124753,
1,21,spatial,down,C,L,,,,,,Block.xlsx,"你已经完成了第一个实验区组

请稍作休息


点击空格键进入下一个区组。",-1.5,0,-1.5,left,LLLLL.png,,,,,0,0,0,0,0,5,5,20,,,,,,,,,,,,,,,,,,,,,,,,,,,,,,,,,,,,,,,,,,,,,,,,,,,,,,,,,,,,,,,,85.77314860001206,86.17318169982173,86.1564139998518,86.25731509993784,86.65719529986382,None,left,1,0.3961906998883933,86.65719529986382,None,86.1564139998518,86.25731509993784,86.25731509993784,None,87.07480770000257,None,,,,,,,11036,001,2024_Mar_10_1449,ANT,2021.2.3,59.83505866124753,
1,3,no,up,IC,L,,,,,,Block.xlsx,"你已经完成了第一个实验区组

请稍作休息


点击空格键进入下一个区组。",50,0,1.5,left,RRLRR.png,,,,,0,0,0,0,0,6,6,2,,,,,,,,,,,,,,,,,,,,,,,,,,,,,,,,,,,,,,,,,,,,,,,,,,,,,,,,,,,,,,,,87.47505809995346,87.87587539991364,87.86018830002286,87.96047299983911,88.35973729984835,None,left,1,0.6296093000564724,88.35973729984835,None,87.86018830002286,87.96047299983911,87.96047299983911,None,89.01099450001493,None,,,,,,,11036,001,2024_Mar_10_1449,ANT,2021.2.3,59.83505866124753,
1,3,no,up,IC,L,,,,,,Block.xlsx,"你已经完成了第一个实验区组

请稍作休息


点击空格键进入下一个区组。",50,0,1.5,left,RRLRR.png,,,,,0,0,0,0,0,7,7,2,,,,,,,,,,,,,,,,,,,,,,,,,,,,,,,,,,,,,,,,,,,,,,,,,,,,,,,,,,,,,,,,89.41150589985773,89.81395189999603,89.79544399981387,89.89554299996234,90.29744629980996,None,left,1,0.5237906998954713,90.29744629980996,None,89.79544399981387,89.89554299996234,89.89554299996234,None,90.84679139987566,None,,,,,,,11036,001,2024_Mar_10_1449,ANT,2021.2.3,59.83505866124753,
1,14,center,down,C,R,,,,,,Block.xlsx,"你已经完成了第一个实验区组

请稍作休息


点击空格键进入下一个区组。",0,50,-1.5,right,RRRRR.png,,,,,0,0,0,0,0,8,8,13,,,,,,,,,,,,,,,,,,,,,,,,,,,,,,,,,,,,,,,,,,,,,,,,,,,,,,,,,,,,,,,,91.24860890000127,91.64793859981,91.63141619996168,91.73212990001775,92.1341081999708,None,right,1,0.4153791998978704,92.1341081999708,None,91.63141619996168,91.73212990001775,91.73212990001775,None,92.56611180002801,None,,,,,,,11036,001,2024_Mar_10_1449,ANT,2021.2.3,59.83505866124753,
1,24,spatial,down,IC,R,,,,,,Block.xlsx,"你已经完成了第一个实验区组

请稍作休息


点击空格键进入下一个区组。",-1.5,0,-1.5,right,LLRLL.png,,,,,0,0,0,0,0,9,9,23,,,,,,,,,,,,,,,,,,,,,,,,,,,,,,,,,,,,,,,,,,,,,,,,,,,,,,,,,,,,,,,,92.96687879995443,93.3681202000007,93.35182159999385,93.45192689984106,93.85147219989449,None,right,1,0.41010749991983175,93.85147219989449,None,93.35182159999385,93.45192689984106,93.45192689984106,None,94.28544459980913,None,,,,,,,11036,001,2024_Mar_10_1449,ANT,2021.2.3,59.83505866124753,
1,13,center,down,C,L,,,,,,Block.xlsx,"你已经完成了第一个实验区组

请稍作休息


点击空格键进入下一个区组。",0,50,-1.5,left,LLLLL.png,,,,,0,0,0,0,0,10,10,12,,,,,,,,,,,,,,,,,,,,,,,,,,,,,,,,,,,,,,,,,,,,,,,,,,,,,,,,,,,,,,,,94.68605959997512,95.08691349998116,95.07090249983594,95.17175740003586,95.57138869981281,None,left,1,0.4261608000379056,95.57138869981281,None,95.07090249983594,95.17175740003586,95.17175740003586,None,96.02140549989417,None,,,,,,,11036,001,2024_Mar_10_1449,ANT,2021.2.3,59.83505866124753,
1,9,center,up,C,L,,,,,,Block.xlsx,"你已经完成了第一个实验区组

请稍作休息


点击空格键进入下一个区组。",0,50,1.5,left,LLLLL.png,,,,,0,0,0,0,0,11,11,8,,,,,,,,,,,,,,,,,,,,,,,,,,,,,,,,,,,,,,,,,,,,,,,,,,,,,,,,,,,,,,,,96.42189399991184,96.823298699921,96.80590959987603,96.90626559988596,97.30790849984623,None,left,1,0.5226388999726623,97.30790849984623,None,96.80590959987603,96.90626559988596,96.90626559988596,None,97.85740719991736,None,,,,,,,11036,001,2024_Mar_10_1449,ANT,2021.2.3,59.83505866124753,
1,2,no,up,C,R,,,,,,Block.xlsx,"你已经完成了第一个实验区组

请稍作休息


点击空格键进入下一个区组。",50,0,1.5,right,RRRRR.png,,,,,0,0,0,0,0,12,12,1,,,,,,,,,,,,,,,,,,,,,,,,,,,,,,,,,,,,,,,,,,,,,,,,,,,,,,,,,,,,,,,,98.25804489990696,98.65866929991171,98.64257389982231,98.74199899984524,99.14323339983821,None,right,1,0.5185803999193013,99.14323339983821,None,98.64257389982231,98.74199899984524,98.74199899984524,None,99.67681699991226,None,,,,,,,11036,001,2024_Mar_10_1449,ANT,2021.2.3,59.83505866124753,
1,15,center,down,IC,L,,,,,,Block.xlsx,"你已经完成了第一个实验区组

请稍作休息


点击空格键进入下一个区组。",0,50,-1.5,left,RRLRR.png,,,,,0,0,0,0,0,13,13,14,,,,,,,,,,,,,,,,,,,,,,,,,,,,,,,,,,,,,,,,,,,,,,,,,,,,,,,,,,,,,,,,100.07809319999069,100.47913339990191,100.46224619983695,100.56318589998409,100.96405189996585,None,left,1,0.6095988000743091,100.96405189996585,None,100.46224619983695,100.56318589998409,100.56318589998409,None,101.59696989995427,None,,,,,,,11036,001,2024_Mar_10_1449,ANT,2021.2.3,59.83505866124753,
1,13,center,down,C,L,,,,,,Block.xlsx,"你已经完成了第一个实验区组

请稍作休息


点击空格键进入下一个区组。",0,50,-1.5,left,LLLLL.png,,,,,0,0,0,0,0,14,14,12,,,,,,,,,,,,,,,,,,,,,,,,,,,,,,,,,,,,,,,,,,,,,,,,,,,,,,,,,,,,,,,,101.99811669997871,102.39749789983034,102.38099729991518,102.48191550001502,102.88260479993187,None,left,1,0.4349828998092562,102.88260479993187,None,102.38099729991518,102.48191550001502,102.48191550001502,None,103.34918429981917,None,,,,,,,11036,001,2024_Mar_10_1449,ANT,2021.2.3,59.83505866124753,
1,15,center,down,IC,L,,,,,,Block.xlsx,"你已经完成了第一个实验区组

请稍作休息


点击空格键进入下一个区组。",0,50,-1.5,left,RRLRR.png,,,,,0,0,0,0,0,15,15,14,,,,,,,,,,,,,,,,,,,,,,,,,,,,,,,,,,,,,,,,,,,,,,,,,,,,,,,,,,,,,,,,103.75030869990587,104.15166239999235,104.13376559992321,104.23404149990529,104.63566209981218,None,left,1,0.5063287001103163,104.63566209981218,None,104.13376559992321,104.23404149990529,104.23404149990529,None,105.1684514998924,None,,,,,,,11036,001,2024_Mar_10_1449,ANT,2021.2.3,59.83505866124753,
1,13,center,down,C,L,,,,,,Block.xlsx,"你已经完成了第一个实验区组

请稍作休息


点击空格键进入下一个区组。",0,50,-1.5,left,LLLLL.png,,,,,0,0,0,0,0,16,16,12,,,,,,,,,,,,,,,,,,,,,,,,,,,,,,,,,,,,,,,,,,,,,,,,,,,,,,,,,,,,,,,,105.56931249983609,105.97073449986055,105.95369739993475,106.0556806998793,106.45469419984147,None,left,1,0.3593905000016093,106.45469419984147,None,105.95369739993475,106.0556806998793,106.0556806998793,None,106.83778239996172,None,,,,,,,11036,001,2024_Mar_10_1449,ANT,2021.2.3,59.83505866124753,
1,12,center,up,IC,R,,,,,,Block.xlsx,"你已经完成了第一个实验区组

请稍作休息


点击空格键进入下一个区组。",0,50,1.5,right,LLRLL.png,,,,,0,0,0,0,0,17,17,11,,,,,,,,,,,,,,,,,,,,,,,,,,,,,,,,,,,,,,,,,,,,,,,,,,,,,,,,,,,,,,,,107.23846599995159,107.63878429983743,107.62300659995526,107.72310569998808,108.12396229989827,None,right,1,0.5779770999215543,108.12396229989827,None,107.62300659995526,107.72310569998808,107.72310569998808,None,108.72392289992422,None,,,,,,,11036,001,2024_Mar_10_1449,ANT,2021.2.3,59.83505866124753,
1,5,no,down,C,L,,,,,,Block.xlsx,"你已经完成了第一个实验区组

请稍作休息


点击空格键进入下一个区组。",50,0,-1.5,left,LLLLL.png,,,,,0,0,0,0,0,18,18,4,,,,,,,,,,,,,,,,,,,,,,,,,,,,,,,,,,,,,,,,,,,,,,,,,,,,,,,,,,,,,,,,109.12457099999301,109.52548990002833,109.50915589998476,109.61027939990163,110.01124739996158,None,left,1,0.6113170001190156,110.01124739996158,None,109.50915589998476,109.61027939990163,109.61027939990163,None,110.6432115000207,None,,,,,,,11036,001,2024_Mar_10_1449,ANT,2021.2.3,59.83505866124753,
1,7,no,down,IC,L,,,,,,Block.xlsx,"你已经完成了第一个实验区组

请稍作休息


点击空格键进入下一个区组。",50,0,-1.5,left,RRLRR.png,,,,,0,0,0,0,0,19,19,6,,,,,,,,,,,,,,,,,,,,,,,,,,,,,,,,,,,,,,,,,,,,,,,,,,,,,,,,,,,,,,,,111.04406109987758,111.44588569994085,111.42821990000084,111.52989210002124,111.92962349997833,None,left,1,0.43612720002420247,111.92962349997833,None,111.42821990000084,111.52989210002124,111.52989210002124,None,112.37925500003621,None,,,,,,,11036,001,2024_Mar_10_1449,ANT,2021.2.3,59.83505866124753,
1,12,center,up,IC,R,,,,,,Block.xlsx,"你已经完成了第一个实验区组

请稍作休息


点击空格键进入下一个区组。",0,50,1.5,right,LLRLL.png,,,,,0,0,0,0,0,20,20,11,,,,,,,,,,,,,,,,,,,,,,,,,,,,,,,,,,,,,,,,,,,,,,,,,,,,,,,,,,,,,,,,112.78008629987016,113.18256749981083,113.16446150001138,113.26597489998676,113.66575639997609,None,right,1,0.5646899999119341,113.66575639997609,None,113.16446150001138,113.26597489998676,113.26597489998676,None,114.24883039994165,None,,,,,,,11036,001,2024_Mar_10_1449,ANT,2021.2.3,59.83505866124753,
1,1,no,up,C,L,,,,,,Block.xlsx,"你已经完成了第一个实验区组

请稍作休息


点击空格键进入下一个区组。",50,0,1.5,left,LLLLL.png,,,,,0,0,0,0,0,21,21,0,,,,,,,,,,,,,,,,,,,,,,,,,,,,,,,,,,,,,,,,,,,,,,,,,,,,,,,,,,,,,,,,114.6497649999801,115.05088460003026,115.0333612000104,115.13413329981267,115.53649029997177,None,left,1,0.43771680002100766,115.53649029997177,None,115.0333612000104,115.13413329981267,115.13413329981267,None,116.00176979997195,None,,,,,,,11036,001,2024_Mar_10_1449,ANT,2021.2.3,59.83505866124753,
1,20,spatial,up,IC,R,,,,,,Block.xlsx,"你已经完成了第一个实验区组

请稍作休息


点击空格键进入下一个区组。",1.5,0,1.5,right,LLRLL.png,,,,,0,0,0,0,0,22,22,19,,,,,,,,,,,,,,,,,,,,,,,,,,,,,,,,,,,,,,,,,,,,,,,,,,,,,,,,,,,,,,,,116.40210479986854,116.80353789986111,116.78641439997591,116.88636319991201,117.2868549998384,None,right,1,0.3995258000213653,117.2868549998384,None,116.78641439997591,116.88636319991201,116.88636319991201,None,117.70391409983858,None,,,,,,,11036,001,2024_Mar_10_1449,ANT,2021.2.3,59.83505866124753,
1,18,spatial,up,C,R,,,,,,Block.xlsx,"你已经完成了第一个实验区组

请稍作休息


点击空格键进入下一个区组。",1.5,0,1.5,right,RRRRR.png,,,,,0,0,0,0,0,23,23,17,,,,,,,,,,,,,,,,,,,,,,,,,,,,,,,,,,,,,,,,,,,,,,,,,,,,,,,,,,,,,,,,118.10570059996098,118.50667509995401,118.4910464999266,118.60696989996359,118.98927399981767,None,right,1,0.3930147001519799,118.98927399981767,None,118.4910464999266,118.60696989996359,118.59048789995722,None,119.40676879999228,None,,,,,,,11036,001,2024_Mar_10_1449,ANT,2021.2.3,59.83505866124753,
1,11,center,up,IC,L,,,,,,Block.xlsx,"你已经完成了第一个实验区组

请稍作休息


点击空格键进入下一个区组。",0,50,1.5,left,RRLRR.png,,,,,0,0,0,0,1,0,24,10,,,,,,,,,,,,,,,,,,,,,,,,,,,,,,,,,,,,,,,,,,,,,,,,,,,,,,,,,,,,,,,,119.80729070003144,120.20785979996435,120.1919756999705,120.29223789996468,120.69266829988919,None,left,1,0.42553979996591806,120.69266829988919,None,120.1919756999705,120.29223789996468,120.29223789996468,None,121.14285019994713,None,,,,,,,11036,001,2024_Mar_10_1449,ANT,2021.2.3,59.83505866124753,
1,22,spatial,down,C,R,,,,,,Block.xlsx,"你已经完成了第一个实验区组

请稍作休息


点击空格键进入下一个区组。",-1.5,0,-1.5,right,RRRRR.png,,,,,0,0,0,0,1,1,25,21,,,,,,,,,,,,,,,,,,,,,,,,,,,,,,,,,,,,,,,,,,,,,,,,,,,,,,,,,,,,,,,,121.54320099996403,121.94391629984602,121.92771940003149,122.028125599958,122.42765399999917,None,right,1,0.4106885998044163,122.42765399999917,None,121.92771940003149,122.028125599958,122.028125599958,None,122.86177329998463,None,,,,,,,11036,001,2024_Mar_10_1449,ANT,2021.2.3,59.83505866124753,
1,8,no,down,IC,R,,,,,,Block.xlsx,"你已经完成了第一个实验区组

请稍作休息


点击空格键进入下一个区组。",50,0,-1.5,right,LLRLL.png,,,,,0,0,0,0,1,2,26,7,,,,,,,,,,,,,,,,,,,,,,,,,,,,,,,,,,,,,,,,,,,,,,,,,,,,,,,,,,,,,,,,123.26294439984486,123.66380209987983,123.64709410001524,123.74716929998249,124.14917919994332,None,right,1,0.46641080011613667,124.14917919994332,None,123.64709410001524,123.74716929998249,123.74716929998249,None,124.63122819992714,None,,,,,,,11036,001,2024_Mar_10_1449,ANT,2021.2.3,59.83505866124753,
1,2,no,up,C,R,,,,,,Block.xlsx,"你已经完成了第一个实验区组

请稍作休息


点击空格键进入下一个区组。",50,0,1.5,right,RRRRR.png,,,,,0,0,0,0,1,3,27,1,,,,,,,,,,,,,,,,,,,,,,,,,,,,,,,,,,,,,,,,,,,,,,,,,,,,,,,,,,,,,,,,125.03225399996154,125.4334733998403,125.41582369990647,125.51670499984175,125.91800770000555,None,right,1,0.4245773998554796,125.91800770000555,None,125.41582369990647,125.51670499984175,125.51670499984175,None,126.36774299992248,None,,,,,,,11036,001,2024_Mar_10_1449,ANT,2021.2.3,59.83505866124753,
1,16,center,down,IC,R,,,,,,Block.xlsx,"你已经完成了第一个实验区组

请稍作休息


点击空格键进入下一个区组。",0,50,-1.5,right,LLRLL.png,,,,,0,0,0,0,1,4,28,15,,,,,,,,,,,,,,,,,,,,,,,,,,,,,,,,,,,,,,,,,,,,,,,,,,,,,,,,,,,,,,,,126.76801369991153,127.16930720000528,127.152569900034,127.25210089981556,127.65448849997483,None,left,0,0.4400438000448048,127.65448849997483,None,127.152569900034,127.25210089981556,127.25210089981556,None,128.1207412998192,None,,,,,,,11036,001,2024_Mar_10_1449,ANT,2021.2.3,59.83505866124753,
1,8,no,down,IC,R,,,,,,Block.xlsx,"你已经完成了第一个实验区组

请稍作休息


点击空格键进入下一个区组。",50,0,-1.5,right,LLRLL.png,,,,,0,0,0,0,1,5,29,7,,,,,,,,,,,,,,,,,,,,,,,,,,,,,,,,,,,,,,,,,,,,,,,,,,,,,,,,,,,,,,,,128.52037199982442,128.9232904999517,128.90446259989403,129.00444869999774,129.4058385998942,None,right,1,0.45676159998402,129.4058385998942,None,128.90446259989403,129.00444869999774,129.00444869999774,None,129.88926359987818,None,,,,,,,11036,001,2024_Mar_10_1449,ANT,2021.2.3,59.83505866124753,
1,3,no,up,IC,L,,,,,,Block.xlsx,"你已经完成了第一个实验区组

请稍作休息


点击空格键进入下一个区组。",50,0,1.5,left,RRLRR.png,,,,,0,0,0,0,1,6,30,2,,,,,,,,,,,,,,,,,,,,,,,,,,,,,,,,,,,,,,,,,,,,,,,,,,,,,,,,,,,,,,,,130.29088380001485,130.69078569998965,130.67452809982933,130.77391260000877,131.17431339994073,None,left,1,0.5205684998072684,131.17431339994073,None,130.67452809982933,130.77391260000877,130.77391260000877,None,131.7252823000308,None,,,,,,,11036,001,2024_Mar_10_1449,ANT,2021.2.3,59.83505866124753,
1,6,no,down,C,R,,,,,,Block.xlsx,"你已经完成了第一个实验区组

请稍作休息


点击空格键进入下一个区组。",50,0,-1.5,right,RRRRR.png,,,,,0,0,0,0,1,7,31,5,,,,,,,,,,,,,,,,,,,,,,,,,,,,,,,,,,,,,,,,,,,,,,,,,,,,,,,,,,,,,,,,132.12589259981178,132.5274163999129,132.51070249988697,132.61160869989544,133.01150359981693,None,right,1,0.40328750014305115,133.01150359981693,None,132.51070249988697,132.61160869989544,132.61160869989544,None,133.44493819982745,None,,,,,,,11036,001,2024_Mar_10_1449,ANT,2021.2.3,59.83505866124753,
1,4,no,up,IC,R,,,,,,Block.xlsx,"你已经完成了第一个实验区组

请稍作休息


点击空格键进入下一个区组。",50,0,1.5,right,LLRLL.png,,,,,0,0,0,0,1,8,32,3,,,,,,,,,,,,,,,,,,,,,,,,,,,,,,,,,,,,,,,,,,,,,,,,,,,,,,,,,,,,,,,,133.84532349999063,134.24657540000044,134.2300153998658,134.3304785999935,134.7308639998082,None,right,1,0.5720713001210243,134.7308639998082,None,134.2300153998658,134.3304785999935,134.3304785999935,None,135.33069680002518,None,,,,,,,11036,001,2024_Mar_10_1449,ANT,2021.2.3,59.83505866124753,
1,19,spatial,up,IC,L,,,,,,Block.xlsx,"你已经完成了第一个实验区组

请稍作休息


点击空格键进入下一个区组。",1.5,0,1.5,left,RRLRR.png,,,,,0,0,0,0,1,9,33,18,,,,,,,,,,,,,,,,,,,,,,,,,,,,,,,,,,,,,,,,,,,,,,,,,,,,,,,,,,,,,,,,135.73158159991726,136.13434479990974,136.11575490003452,136.21554429992102,136.6162068999838,None,left,1,0.47096930001862347,136.6162068999838,None,136.11575490003452,136.21554429992102,136.21554429992102,None,137.1167845998425,None,,,,,,,11036,001,2024_Mar_10_1449,ANT,2021.2.3,59.83505866124753,
1,19,spatial,up,IC,L,,,,,,Block.xlsx,"你已经完成了第一个实验区组

请稍作休息


点击空格键进入下一个区组。",1.5,0,1.5,left,RRLRR.png,,,,,0,0,0,0,1,10,34,18,,,,,,,,,,,,,,,,,,,,,,,,,,,,,,,,,,,,,,,,,,,,,,,,,,,,,,,,,,,,,,,,137.5173154999502,137.91862959996797,137.90207039983943,138.00260419980623,138.4020523999352,None,left,1,0.5568062998354435,138.4020523999352,None,137.90207039983943,138.00260419980623,138.00260419980623,None,138.98635849985294,None,,,,,,,11036,001,2024_Mar_10_1449,ANT,2021.2.3,59.83505866124753,
1,11,center,up,IC,L,,,,,,Block.xlsx,"你已经完成了第一个实验区组

请稍作休息


点击空格键进入下一个区组。",0,50,1.5,left,RRLRR.png,,,,,0,0,0,0,1,11,35,10,,,,,,,,,,,,,,,,,,,,,,,,,,,,,,,,,,,,,,,,,,,,,,,,,,,,,,,,,,,,,,,,139.38758639991283,139.78870369982906,139.77224169997498,139.87200889992528,140.27285319985822,None,left,1,0.40608840016648173,140.27285319985822,None,139.77224169997498,139.87200889992528,139.87200889992528,None,140.705686399946,None,,,,,,,11036,001,2024_Mar_10_1449,ANT,2021.2.3,59.83505866124753,
1,20,spatial,up,IC,R,,,,,,Block.xlsx,"你已经完成了第一个实验区组

请稍作休息


点击空格键进入下一个区组。",1.5,0,1.5,right,LLRLL.png,,,,,0,0,0,0,1,12,36,19,,,,,,,,,,,,,,,,,,,,,,,,,,,,,,,,,,,,,,,,,,,,,,,,,,,,,,,,,,,,,,,,141.10731459991075,141.506805999903,141.49093329999596,141.59088259981945,141.9907432999462,None,right,1,0.4485090000089258,141.9907432999462,None,141.49093329999596,141.59088259981945,141.59088259981945,None,142.4583762998227,None,,,,,,,11036,001,2024_Mar_10_1449,ANT,2021.2.3,59.83505866124753,
1,7,no,down,IC,L,,,,,,Block.xlsx,"你已经完成了第一个实验区组

请稍作休息


点击空格键进入下一个区组。",50,0,-1.5,left,RRLRR.png,,,,,0,0,0,0,1,13,37,6,,,,,,,,,,,,,,,,,,,,,,,,,,,,,,,,,,,,,,,,,,,,,,,,,,,,,,,,,,,,,,,,142.85978439985774,143.2602382998448,143.24274210003205,143.3426204000134,143.7439484000206,None,left,1,0.6712279000785202,143.7439484000206,None,143.24274210003205,143.3426204000134,143.3426204000134,None,144.44457359984517,None,,,,,,,11036,001,2024_Mar_10_1449,ANT,2021.2.3,59.83505866124753,
1,13,center,down,C,L,,,,,,Block.xlsx,"你已经完成了第一个实验区组

请稍作休息


点击空格键进入下一个区组。",0,50,-1.5,left,LLLLL.png,,,,,0,0,0,0,1,14,38,12,,,,,,,,,,,,,,,,,,,,,,,,,,,,,,,,,,,,,,,,,,,,,,,,,,,,,,,,,,,,,,,,144.84578129998408,145.247767199995,145.22895819996484,145.3315230999142,145.72962519992143,None,left,1,0.4692124999128282,145.72962519992143,None,145.22895819996484,145.3315230999142,145.3315230999142,None,146.21379840001464,None,,,,,,,11036,001,2024_Mar_10_1449,ANT,2021.2.3,59.83505866124753,
1,16,center,down,IC,R,,,,,,Block.xlsx,"你已经完成了第一个实验区组

请稍作休息


点击空格键进入下一个区组。",0,50,-1.5,right,LLRLL.png,,,,,0,0,0,0,1,15,39,15,,,,,,,,,,,,,,,,,,,,,,,,,,,,,,,,,,,,,,,,,,,,,,,,,,,,,,,,,,,,,,,,146.6143022000324,147.01510469987988,146.99935509986244,147.09947439981624,147.4995899000205,None,right,1,0.5311459000222385,147.4995899000205,None,146.99935509986244,147.09947439981624,147.09947439981624,None,148.05094069987535,None,,,,,,,11036,001,2024_Mar_10_1449,ANT,2021.2.3,59.83505866124753,
1,5,no,down,C,L,,,,,,Block.xlsx,"你已经完成了第一个实验区组

请稍作休息


点击空格键进入下一个区组。",50,0,-1.5,left,LLLLL.png,,,,,0,0,0,0,1,16,40,4,,,,,,,,,,,,,,,,,,,,,,,,,,,,,,,,,,,,,,,,,,,,,,,,,,,,,,,,,,,,,,,,148.45047729997896,148.85243640001863,148.83441699994728,148.9346292000264,149.33585989987478,None,left,1,0.3677890000399202,149.33585989987478,None,148.83441699994728,148.9346292000264,148.9346292000264,None,149.71934699988924,None,,,,,,,11036,001,2024_Mar_10_1449,ANT,2021.2.3,59.83505866124753,
1,18,spatial,up,C,R,,,,,,Block.xlsx,"你已经完成了第一个实验区组

请稍作休息


点击空格键进入下一个区组。",1.5,0,1.5,right,RRRRR.png,,,,,0,0,0,0,1,17,41,17,,,,,,,,,,,,,,,,,,,,,,,,,,,,,,,,,,,,,,,,,,,,,,,,,,,,,,,,,,,,,,,,150.12063719984144,150.52095219981857,150.5044901999645,150.6042223998811,151.00530739990063,None,right,1,0.36226000008173287,151.00530739990063,None,150.5044901999645,150.6042223998811,150.6042223998811,None,151.38805019995198,None,,,,,,,11036,001,2024_Mar_10_1449,ANT,2021.2.3,59.83505866124753,
1,24,spatial,down,IC,R,,,,,,Block.xlsx,"你已经完成了第一个实验区组

请稍作休息


点击空格键进入下一个区组。",-1.5,0,-1.5,right,LLRLL.png,,,,,0,0,0,0,1,18,42,23,,,,,,,,,,,,,,,,,,,,,,,,,,,,,,,,,,,,,,,,,,,,,,,,,,,,,,,,,,,,,,,,151.78899369994178,152.19026299985126,152.17334049986675,152.27330209990032,152.674445200013,None,right,1,0.38125120010226965,152.674445200013,None,152.17334049986675,152.27330209990032,152.27330209990032,None,153.07425970002078,None,,,,,,,11036,001,2024_Mar_10_1449,ANT,2021.2.3,59.83505866124753,
1,1,no,up,C,L,,,,,,Block.xlsx,"你已经完成了第一个实验区组

请稍作休息


点击空格键进入下一个区组。",50,0,1.5,left,LLLLL.png,,,,,0,0,0,0,1,19,43,0,,,,,,,,,,,,,,,,,,,,,,,,,,,,,,,,,,,,,,,,,,,,,,,,,,,,,,,,,,,,,,,,153.4750673000235,153.8755279998295,153.85937669989653,153.95925379986875,154.35978859988973,None,left,1,0.5525308998767287,154.35978859988973,None,153.85937669989653,153.95925379986875,153.95925379986875,None,154.9270138000138,None,,,,,,,11036,001,2024_Mar_10_1449,ANT,2021.2.3,59.83505866124753,
1,24,spatial,down,IC,R,,,,,,Block.xlsx,"你已经完成了第一个实验区组

请稍作休息


点击空格键进入下一个区组。",-1.5,0,-1.5,right,LLRLL.png,,,,,0,0,0,0,1,20,44,23,,,,,,,,,,,,,,,,,,,,,,,,,,,,,,,,,,,,,,,,,,,,,,,,,,,,,,,,,,,,,,,,155.327608600026,155.72829029988497,155.71214540000074,155.81300550000742,156.2139554999303,None,right,1,0.4172163000330329,156.2139554999303,None,155.71214540000074,155.81300550000742,155.81300550000742,None,156.6641285000369,None,,,,,,,11036,001,2024_Mar_10_1449,ANT,2021.2.3,59.83505866124753,
1,7,no,down,IC,L,,,,,,Block.xlsx,"你已经完成了第一个实验区组

请稍作休息


点击空格键进入下一个区组。",50,0,-1.5,left,RRLRR.png,,,,,0,0,0,0,1,21,45,6,,,,,,,,,,,,,,,,,,,,,,,,,,,,,,,,,,,,,,,,,,,,,,,,,,,,,,,,,,,,,,,,157.0633922999259,157.46452619996853,157.44832039996982,157.54869659990072,157.94974279985763,None,left,1,0.4737680999096483,157.94974279985763,None,157.44832039996982,157.54869659990072,157.54869659990072,None,158.44903309992515,None,,,,,,,11036,001,2024_Mar_10_1449,ANT,2021.2.3,59.83505866124753,
1,16,center,down,IC,R,,,,,,Block.xlsx,"你已经完成了第一个实验区组

请稍作休息


点击空格键进入下一个区组。",0,50,-1.5,right,LLRLL.png,,,,,0,0,0,0,1,22,46,15,,,,,,,,,,,,,,,,,,,,,,,,,,,,,,,,,,,,,,,,,,,,,,,,,,,,,,,,,,,,,,,,158.84946749988012,159.25066689983942,159.23527619987726,159.35099679999985,159.7346494998783,None,right,1,0.4971114001236856,159.7346494998783,None,159.23527619987726,159.35099679999985,159.3354310998693,None,160.25264349998906,None,,,,,,,11036,001,2024_Mar_10_1449,ANT,2021.2.3,59.83505866124753,
1,18,spatial,up,C,R,,,,,,Block.xlsx,"你已经完成了第一个实验区组

请稍作休息


点击空格键进入下一个区组。",1.5,0,1.5,right,RRRRR.png,,,,,0,0,0,0,1,23,47,17,,,,,,,,,,,,,,,,,,,,,,,,,,,,,,,,,,,,,,,,,,,,,,,,,,,,,,,,,,,,,,,,160.65300819999538,161.053209599806,161.03681989992037,161.13737489981577,161.53698790003546,None,right,1,0.39961379999294877,161.53698790003546,None,161.03681989992037,161.13737489981577,161.13737489981577,None,161.9541774999816,None,,,,,,,11036,001,2024_Mar_10_1449,ANT,2021.2.3,59.83505866124753,
1,24,spatial,down,IC,R,,,,,,Block.xlsx,"你已经完成了第一个实验区组

请稍作休息


点击空格键进入下一个区组。",-1.5,0,-1.5,right,LLRLL.png,,,,,0,0,0,0,2,0,48,23,,,,,,,,,,,,,,,,,,,,,,,,,,,,,,,,,,,,,,,,,,,,,,,,,,,,,,,,,,,,,,,,162.3554446999915,162.75628149998374,162.7407139998395,162.85762130003422,163.2400834998116,None,right,1,0.4237620998173952,163.2400834998116,None,162.7407139998395,162.85762130003422,162.83925629989244,None,163.69023979990743,None,,,,,,,11036,001,2024_Mar_10_1449,ANT,2021.2.3,59.83505866124753,
1,19,spatial,up,IC,L,,,,,,Block.xlsx,"你已经完成了第一个实验区组

请稍作休息


点击空格键进入下一个区组。",1.5,0,1.5,left,RRLRR.png,,,,,0,0,0,0,2,1,49,18,,,,,,,,,,,,,,,,,,,,,,,,,,,,,,,,,,,,,,,,,,,,,,,,,,,,,,,,,,,,,,,,164.09153899992816,164.49202919984236,164.47557579982094,164.57717179995961,164.97535860002972,None,left,1,0.4014399000443518,164.97535860002972,None,164.47557579982094,164.57717179995961,164.57717179995961,None,165.39264729991555,None,,,,,,,11036,001,2024_Mar_10_1449,ANT,2021.2.3,59.83505866124753,
1,18,spatial,up,C,R,,,,,,Block.xlsx,"你已经完成了第一个实验区组

请稍作休息


点击空格键进入下一个区组。",1.5,0,1.5,right,RRRRR.png,,,,,0,0,0,0,2,2,50,17,,,,,,,,,,,,,,,,,,,,,,,,,,,,,,,,,,,,,,,,,,,,,,,,,,,,,,,,,,,,,,,,165.79424680001102,166.19446599995717,166.17915240000002,166.29418640001677,166.68005249998532,None,right,1,0.28756590001285076,166.68005249998532,None,166.17915240000002,166.29418640001677,166.27868300001137,None,166.9952010998968,None,,,,,,,11036,001,2024_Mar_10_1449,ANT,2021.2.3,59.83505866124753,
1,10,center,up,C,R,,,,,,Block.xlsx,"你已经完成了第一个实验区组

请稍作休息


点击空格键进入下一个区组。",0,50,1.5,right,RRRRR.png,,,,,0,0,0,0,2,3,51,9,,,,,,,,,,,,,,,,,,,,,,,,,,,,,,,,,,,,,,,,,,,,,,,,,,,,,,,,,,,,,,,,167.3957352999132,167.79715429991484,167.77952619991265,167.88095519994386,168.28036480001174,None,right,1,0.38426090008579195,168.28036480001174,None,167.77952619991265,167.88095519994386,167.88095519994386,None,168.68095629988238,None,,,,,,,11036,001,2024_Mar_10_1449,ANT,2021.2.3,59.83505866124753,
1,8,no,down,IC,R,,,,,,Block.xlsx,"你已经完成了第一个实验区组

请稍作休息


点击空格键进入下一个区组。",50,0,-1.5,right,LLRLL.png,,,,,0,0,0,0,2,4,52,7,,,,,,,,,,,,,,,,,,,,,,,,,,,,,,,,,,,,,,,,,,,,,,,,,,,,,,,,,,,,,,,,169.08151319995522,169.48280179989524,169.4663803000003,169.5672291999217,169.9663610998541,None,right,1,0.6894061001949012,169.9663610998541,None,169.4663803000003,169.5672291999217,169.5672291999217,None,170.68428699998185,None,,,,,,,11036,001,2024_Mar_10_1449,ANT,2021.2.3,59.83505866124753,
1,6,no,down,C,R,,,,,,Block.xlsx,"你已经完成了第一个实验区组

请稍作休息


点击空格键进入下一个区组。",50,0,-1.5,right,RRRRR.png,,,,,0,0,0,0,2,5,53,5,,,,,,,,,,,,,,,,,,,,,,,,,,,,,,,,,,,,,,,,,,,,,,,,,,,,,,,,,,,,,,,,171.08462639991194,171.48527199984528,171.46918249991722,171.5687005999498,171.9695721999742,None,right,1,0.406603500014171,171.9695721999742,None,171.46918249991722,171.5687005999498,171.5687005999498,None,172.4032968999818,None,,,,,,,11036,001,2024_Mar_10_1449,ANT,2021.2.3,59.83505866124753,
1,2,no,up,C,R,,,,,,Block.xlsx,"你已经完成了第一个实验区组

请稍作休息


点击空格键进入下一个区组。",50,0,1.5,right,RRRRR.png,,,,,0,0,0,0,2,6,54,1,,,,,,,,,,,,,,,,,,,,,,,,,,,,,,,,,,,,,,,,,,,,,,,,,,,,,,,,,,,,,,,,172.80396789987572,173.20555239985697,173.1887055998668,173.28811479988508,173.6894561999943,None,right,1,0.5343148000538349,173.6894561999943,None,173.1887055998668,173.28811479988508,173.28811479988508,None,174.23942440003157,None,,,,,,,11036,001,2024_Mar_10_1449,ANT,2021.2.3,59.83505866124753,
1,9,center,up,C,L,,,,,,Block.xlsx,"你已经完成了第一个实验区组

请稍作休息


点击空格键进入下一个区组。",0,50,1.5,left,LLLLL.png,,,,,0,0,0,0,2,7,55,8,,,,,,,,,,,,,,,,,,,,,,,,,,,,,,,,,,,,,,,,,,,,,,,,,,,,,,,,,,,,,,,,174.64068259997293,175.04055879986845,175.0253584999591,175.12396929995157,175.52527399989776,None,left,1,0.5149390001315624,175.52527399989776,None,175.0253584999591,175.12396929995157,175.12396929995157,None,176.05913339997642,None,,,,,,,11036,001,2024_Mar_10_1449,ANT,2021.2.3,59.83505866124753,
1,17,spatial,up,C,L,,,,,,Block.xlsx,"你已经完成了第一个实验区组

请稍作休息


点击空格键进入下一个区组。",1.5,0,1.5,left,LLLLL.png,,,,,0,0,0,0,2,8,56,16,,,,,,,,,,,,,,,,,,,,,,,,,,,,,,,,,,,,,,,,,,,,,,,,,,,,,,,,,,,,,,,,176.4603418998886,176.85999179980718,176.84489259985276,176.9609997998923,177.34461709996685,None,left,1,0.39989160001277924,177.34461709996685,None,176.84489259985276,176.9609997998923,176.9455450999085,None,177.76174400001764,None,,,,,,,11036,001,2024_Mar_10_1449,ANT,2021.2.3,59.83505866124753,
1,1,no,up,C,L,,,,,,Block.xlsx,"你已经完成了第一个实验区组

请稍作休息


点击空格键进入下一个区组。",50,0,1.5,left,LLLLL.png,,,,,0,0,0,0,2,9,57,0,,,,,,,,,,,,,,,,,,,,,,,,,,,,,,,,,,,,,,,,,,,,,,,,,,,,,,,,,,,,,,,,178.16192959994078,178.56273909984156,178.5470900000073,178.646504299948,179.04719630000181,None,left,1,0.43346069986000657,179.04719630000181,None,178.5470900000073,178.646504299948,178.646504299948,None,179.4973271000199,None,,,,,,,11036,001,2024_Mar_10_1449,ANT,2021.2.3,59.83505866124753,
1,5,no,down,C,L,,,,,,Block.xlsx,"你已经完成了第一个实验区组

请稍作休息


点击空格键进入下一个区组。",50,0,-1.5,left,LLLLL.png,,,,,0,0,0,0,2,10,58,4,,,,,,,,,,,,,,,,,,,,,,,,,,,,,,,,,,,,,,,,,,,,,,,,,,,,,,,,,,,,,,,,179.89852039981633,180.29914389993064,180.28191789984703,180.3837233998347,180.78323809988797,None,left,1,0.7367028000298887,180.78323809988797,None,180.28191789984703,180.3837233998347,180.3837233998347,None,181.55042179999873,None,,,,,,,11036,001,2024_Mar_10_1449,ANT,2021.2.3,59.83505866124753,
1,12,center,up,IC,R,,,,,,Block.xlsx,"你已经完成了第一个实验区组

请稍作休息


点击空格键进入下一个区组。",0,50,1.5,right,LLRLL.png,,,,,0,0,0,0,2,11,59,11,,,,,,,,,,,,,,,,,,,,,,,,,,,,,,,,,,,,,,,,,,,,,,,,,,,,,,,,,,,,,,,,181.9513321998529,182.35248139989562,182.33561849989928,182.43537750001997,182.83622399996966,None,right,1,0.5075868000276387,182.83622399996966,None,182.33561849989928,182.43537750001997,182.43537750001997,None,183.36981019983068,None,,,,,,,11036,001,2024_Mar_10_1449,ANT,2021.2.3,59.83505866124753,
1,4,no,up,IC,R,,,,,,Block.xlsx,"你已经完成了第一个实验区组

请稍作休息


点击空格键进入下一个区组。",50,0,1.5,right,LLRLL.png,,,,,0,0,0,0,2,12,60,3,,,,,,,,,,,,,,,,,,,,,,,,,,,,,,,,,,,,,,,,,,,,,,,,,,,,,,,,,,,,,,,,183.77085649990477,184.17172640003264,184.1563707999885,184.25654800003394,184.65560259995982,None,right,1,0.38509780005551875,184.65560259995982,None,184.1563707999885,184.25654800003394,184.25654800003394,None,185.05615099985152,None,,,,,,,11036,001,2024_Mar_10_1449,ANT,2021.2.3,59.83505866124753,
1,23,spatial,down,IC,L,,,,,,Block.xlsx,"你已经完成了第一个实验区组

请稍作休息


点击空格键进入下一个区组。",-1.5,0,-1.5,left,RRLRR.png,,,,,0,0,0,0,2,13,61,22,,,,,,,,,,,,,,,,,,,,,,,,,,,,,,,,,,,,,,,,,,,,,,,,,,,,,,,,,,,,,,,,185.45641350001097,185.8580948000308,185.8402467998676,185.94091079989448,186.34287919988856,None,left,1,0.5215213000774384,186.34287919988856,None,185.8402467998676,185.94091079989448,185.94091079989448,None,186.89268509997055,None,,,,,,,11036,001,2024_Mar_10_1449,ANT,2021.2.3,59.83505866124753,
1,20,spatial,up,IC,R,,,,,,Block.xlsx,"你已经完成了第一个实验区组

请稍作休息


点击空格键进入下一个区组。",1.5,0,1.5,right,LLRLL.png,,,,,0,0,0,0,2,14,62,19,,,,,,,,,,,,,,,,,,,,,,,,,,,,,,,,,,,,,,,,,,,,,,,,,,,,,,,,,,,,,,,,187.29294409998693,187.69297319999896,187.67642279993743,187.77743879985064,188.17754379985854,None,right,1,0.3676273999735713,188.17754379985854,None,187.67642279993743,187.77743879985064,187.77743879985064,None,188.56104339985177,None,,,,,,,11036,001,2024_Mar_10_1449,ANT,2021.2.3,59.83505866124753,
1,17,spatial,up,C,L,,,,,,Block.xlsx,"你已经完成了第一个实验区组

请稍作休息


点击空格键进入下一个区组。",1.5,0,1.5,left,LLLLL.png,,,,,0,0,0,0,2,15,63,16,,,,,,,,,,,,,,,,,,,,,,,,,,,,,,,,,,,,,,,,,,,,,,,,,,,,,,,,,,,,,,,,188.96223589987494,189.36373879993334,189.34542529983446,189.44776099990122,189.84710819995962,None,left,1,0.44083509990014136,189.84710819995962,None,189.34542529983446,189.44776099990122,189.44776099990122,None,190.31348459981382,None,,,,,,,11036,001,2024_Mar_10_1449,ANT,2021.2.3,59.83505866124753,
1,23,spatial,down,IC,L,,,,,,Block.xlsx,"你已经完成了第一个实验区组

请稍作休息


点击空格键进入下一个区组。",-1.5,0,-1.5,left,RRLRR.png,,,,,0,0,0,0,2,16,64,22,,,,,,,,,,,,,,,,,,,,,,,,,,,,,,,,,,,,,,,,,,,,,,,,,,,,,,,,,,,,,,,,190.71413929993287,191.11550870002247,191.09979579993524,191.19924640003592,191.59902369999327,None,left,1,0.5292628998868167,191.59902369999327,None,191.09979579993524,191.19924640003592,191.19924640003592,None,192.15056869992986,None,,,,,,,11036,001,2024_Mar_10_1449,ANT,2021.2.3,59.83505866124753,
1,6,no,down,C,R,,,,,,Block.xlsx,"你已经完成了第一个实验区组

请稍作休息


点击空格键进入下一个区组。",50,0,-1.5,right,RRRRR.png,,,,,0,0,0,0,2,17,65,5,,,,,,,,,,,,,,,,,,,,,,,,,,,,,,,,,,,,,,,,,,,,,,,,,,,,,,,,,,,,,,,,192.55123869981617,192.95134589984082,192.93521419982426,193.03648519981652,193.43569209985435,None,right,1,0.46079630008898675,193.43569209985435,None,192.93521419982426,193.03648519981652,193.03648519981652,None,193.9201719998382,None,,,,,,,11036,001,2024_Mar_10_1449,ANT,2021.2.3,59.83505866124753,
1,17,spatial,up,C,L,,,,,,Block.xlsx,"你已经完成了第一个实验区组

请稍作休息


点击空格键进入下一个区组。",1.5,0,1.5,left,LLLLL.png,,,,,0,0,0,0,2,18,66,16,,,,,,,,,,,,,,,,,,,,,,,,,,,,,,,,,,,,,,,,,,,,,,,,,,,,,,,,,,,,,,,,194.31967410002835,194.72022260003723,194.70359419984743,194.80624910001643,195.20488350000232,None,left,1,0.40346359997056425,195.20488350000232,None,194.70359419984743,194.80624910001643,194.80624910001643,None,195.63916379981674,None,,,,,,,11036,001,2024_Mar_10_1449,ANT,2021.2.3,59.83505866124753,
1,23,spatial,down,IC,L,,,,,,Block.xlsx,"你已经完成了第一个实验区组

请稍作休息


点击空格键进入下一个区组。",-1.5,0,-1.5,left,RRLRR.png,,,,,0,0,0,0,2,19,67,22,,,,,,,,,,,,,,,,,,,,,,,,,,,,,,,,,,,,,,,,,,,,,,,,,,,,,,,,,,,,,,,,196.0398269998841,196.43968509999104,196.42575940000825,196.54098930000328,196.92390199983492,None,left,1,0.5087823001667857,196.92390199983492,None,196.42575940000825,196.54098930000328,196.52401589998044,None,197.45773739996366,None,,,,,,,11036,001,2024_Mar_10_1449,ANT,2021.2.3,59.83505866124753,
1,17,spatial,up,C,L,,,,,,Block.xlsx,"你已经完成了第一个实验区组

请稍作休息


点击空格键进入下一个区组。",1.5,0,1.5,left,LLLLL.png,,,,,0,0,0,0,2,20,68,16,,,,,,,,,,,,,,,,,,,,,,,,,,,,,,,,,,,,,,,,,,,,,,,,,,,,,,,,,,,,,,,,197.85837049991824,198.25947079993784,198.24290249985643,198.34227579995058,198.74415619997308,None,left,1,0.40838939999230206,198.74415619997308,None,198.24290249985643,198.34227579995058,198.34227579995058,None,199.1770835998468,None,,,,,,,11036,001,2024_Mar_10_1449,ANT,2021.2.3,59.83505866124753,
1,3,no,up,IC,L,,,,,,Block.xlsx,"你已经完成了第一个实验区组

请稍作休息


点击空格键进入下一个区组。",50,0,1.5,left,RRLRR.png,,,,,0,0,0,0,2,21,69,2,,,,,,,,,,,,,,,,,,,,,,,,,,,,,,,,,,,,,,,,,,,,,,,,,,,,,,,,,,,,,,,,199.57788129989058,199.98021069983952,199.96245889994316,200.0617110999301,200.46303929993883,None,left,1,0.6336455999407917,200.46303929993883,None,199.96245889994316,200.0617110999301,200.0617110999301,None,201.113170000026,None,,,,,,,11036,001,2024_Mar_10_1449,ANT,2021.2.3,59.83505866124753,
1,4,no,up,IC,R,,,,,,Block.xlsx,"你已经完成了第一个实验区组

请稍作休息


点击空格键进入下一个区组。",50,0,1.5,right,LLRLL.png,,,,,0,0,0,0,2,22,70,3,,,,,,,,,,,,,,,,,,,,,,,,,,,,,,,,,,,,,,,,,,,,,,,,,,,,,,,,,,,,,,,,201.51397620001808,201.9149384999182,201.89845389989205,201.99986909981817,202.39966430002823,None,right,1,0.46539330016821623,202.39966430002823,None,201.89845389989205,201.99986909981817,201.99986909981817,None,202.88288349984214,None,,,,,,,11036,001,2024_Mar_10_1449,ANT,2021.2.3,59.83505866124753,
1,22,spatial,down,C,R,,,,,,Block.xlsx,"你已经完成了第一个实验区组

请稍作休息


点击空格键进入下一个区组。",-1.5,0,-1.5,right,RRRRR.png,,,,,0,0,0,0,2,23,71,21,,,,,,,,,,,,,,,,,,,,,,,,,,,,,,,,,,,,,,,,,,,,,,,,,,,,,,,,,,,,,,,,203.28308600001037,203.684830899816,203.66795709985308,203.7678085998632,204.16864769998938,None,right,1,0.4482897000852972,204.16864769998938,None,203.66795709985308,203.7678085998632,203.7678085998632,None,204.6354012999218,None,,,,,,,11036,001,2024_Mar_10_1449,ANT,2021.2.3,59.83505866124753,
1,4,no,up,IC,R,,,,,,Block.xlsx,"你已经完成了第一个实验区组

请稍作休息


点击空格键进入下一个区组。",50,0,1.5,right,LLRLL.png,,,,,0,0,0,0,3,0,72,3,,,,,,,,,,,,,,,,,,,,,,,,,,,,,,,,,,,,,,,,,,,,,,,,,,,,,,,,,,,,,,,,205.03623749990948,205.43747919984162,205.4201926998794,205.52129529998638,205.9203470000066,None,right,1,0.5925489999353886,205.9203470000066,None,205.4201926998794,205.52129529998638,205.52129529998638,None,206.5382298999466,None,,,,,,,11036,001,2024_Mar_10_1449,ANT,2021.2.3,59.83505866124753,
1,9,center,up,C,L,,,,,,Block.xlsx,"你已经完成了第一个实验区组

请稍作休息


点击空格键进入下一个区组。",0,50,1.5,left,LLLLL.png,,,,,0,0,0,0,3,1,73,8,,,,,,,,,,,,,,,,,,,,,,,,,,,,,,,,,,,,,,,,,,,,,,,,,,,,,,,,,,,,,,,,206.93859389983118,207.3400413999334,207.3234621998854,207.42288429988548,207.82418229989707,None,left,1,0.6004015998914838,207.82418229989707,None,207.3234621998854,207.42288429988548,207.42288429988548,None,208.44096959987655,None,,,,,,,11036,001,2024_Mar_10_1449,ANT,2021.2.3,59.83505866124753,
1,11,center,up,IC,L,,,,,,Block.xlsx,"你已经完成了第一个实验区组

请稍作休息


点击空格键进入下一个区组。",0,50,1.5,left,RRLRR.png,,,,,0,0,0,0,3,2,74,10,,,,,,,,,,,,,,,,,,,,,,,,,,,,,,,,,,,,,,,,,,,,,,,,,,,,,,,,,,,,,,,,208.84174679988064,209.2421677999664,209.22555849980563,209.32565839984454,209.72609769995324,None,left,1,0.5150259998627007,209.72609769995324,None,209.22555849980563,209.32565839984454,209.32565839984454,None,210.26034079981036,None,,,,,,,11036,001,2024_Mar_10_1449,ANT,2021.2.3,59.83505866124753,
1,5,no,down,C,L,,,,,,Block.xlsx,"你已经完成了第一个实验区组

请稍作休息


点击空格键进入下一个区组。",50,0,-1.5,left,LLLLL.png,,,,,0,0,0,0,3,3,75,4,,,,,,,,,,,,,,,,,,,,,,,,,,,,,,,,,,,,,,,,,,,,,,,,,,,,,,,,,,,,,,,,210.66236479999498,211.06201859982684,211.04563859989867,211.14525399985723,211.5464776000008,None,left,1,0.6065871000755578,211.5464776000008,None,211.04563859989867,211.14525399985723,211.14525399985723,None,212.18023529998027,None,,,,,,,11036,001,2024_Mar_10_1449,ANT,2021.2.3,59.83505866124753,
1,22,spatial,down,C,R,,,,,,Block.xlsx,"你已经完成了第一个实验区组

请稍作休息


点击空格键进入下一个区组。",-1.5,0,-1.5,right,RRRRR.png,,,,,0,0,0,0,3,4,76,21,,,,,,,,,,,,,,,,,,,,,,,,,,,,,,,,,,,,,,,,,,,,,,,,,,,,,,,,,,,,,,,,212.58142849989235,212.98093089996837,212.96523169986904,213.06465149996802,213.46533799986355,None,right,1,0.3913914000149816,213.46533799986355,None,212.96523169986904,213.06465149996802,213.06465149996802,None,213.88257989985868,None,,,,,,,11036,001,2024_Mar_10_1449,ANT,2021.2.3,59.83505866124753,
1,19,spatial,up,IC,L,,,,,,Block.xlsx,"你已经完成了第一个实验区组

请稍作休息


点击空格键进入下一个区组。",1.5,0,1.5,left,RRLRR.png,,,,,0,0,0,0,3,5,77,18,,,,,,,,,,,,,,,,,,,,,,,,,,,,,,,,,,,,,,,,,,,,,,,,,,,,,,,,,,,,,,,,214.28298299992457,214.68510909983888,214.66700299992226,214.76872809999622,215.16891160001978,None,left,1,0.3678877998609096,215.16891160001978,None,214.66700299992226,214.76872809999622,214.76872809999622,None,215.56924250000156,None,,,,,,,11036,001,2024_Mar_10_1449,ANT,2021.2.3,59.83505866124753,
1,14,center,down,C,R,,,,,,Block.xlsx,"你已经完成了第一个实验区组

请稍作休息


点击空格键进入下一个区组。",0,50,-1.5,right,RRRRR.png,,,,,0,0,0,0,3,6,78,13,,,,,,,,,,,,,,,,,,,,,,,,,,,,,,,,,,,,,,,,,,,,,,,,,,,,,,,,,,,,,,,,215.96884360001422,216.37068940000609,216.3541437999811,216.47057039989159,216.8541675999295,None,right,1,0.43521619983948767,216.8541675999295,None,216.3541437999811,216.47057039989159,216.4544640998356,None,217.30462089995854,None,,,,,,,11036,001,2024_Mar_10_1449,ANT,2021.2.3,59.83505866124753,
1,21,spatial,down,C,L,,,,,,Block.xlsx,"你已经完成了第一个实验区组

请稍作休息


点击空格键进入下一个区组。",-1.5,0,-1.5,left,LLLLL.png,,,,,0,0,0,0,3,7,79,20,,,,,,,,,,,,,,,,,,,,,,,,,,,,,,,,,,,,,,,,,,,,,,,,,,,,,,,,,,,,,,,,217.70489679998718,218.10628159996122,218.08956109988503,218.19035169994459,218.58959819981828,None,left,1,0.4274969999678433,218.58959819981828,None,218.08956109988503,218.19035169994459,218.19035169994459,None,219.0403596998658,None,,,,,,,11036,001,2024_Mar_10_1449,ANT,2021.2.3,59.83505866124753,
1,10,center,up,C,R,,,,,,Block.xlsx,"你已经完成了第一个实验区组

请稍作休息


点击空格键进入下一个区组。",0,50,1.5,right,RRRRR.png,,,,,0,0,0,0,3,8,80,9,,,,,,,,,,,,,,,,,,,,,,,,,,,,,,,,,,,,,,,,,,,,,,,,,,,,,,,,,,,,,,,,219.44181929994375,219.84172269981354,219.8249041000381,219.92690839990973,220.32722089998424,None,right,1,0.5057479001116008,220.32722089998424,None,219.8249041000381,219.92690839990973,219.92690839990973,None,220.86037629982457,None,,,,,,,11036,001,2024_Mar_10_1449,ANT,2021.2.3,59.83505866124753,
1,22,spatial,down,C,R,,,,,,Block.xlsx,"你已经完成了第一个实验区组

请稍作休息


点击空格键进入下一个区组。",-1.5,0,-1.5,right,RRRRR.png,,,,,0,0,0,0,3,9,81,21,,,,,,,,,,,,,,,,,,,,,,,,,,,,,,,,,,,,,,,,,,,,,,,,,,,,,,,,,,,,,,,,221.26131389988586,221.66104759997688,221.6446940000169,221.74515909980983,222.14501999993809,None,right,1,0.3205940001644194,222.14501999993809,None,221.6446940000169,221.74515909980983,221.74515909980983,None,222.49637649999931,None,,,,,,,11036,001,2024_Mar_10_1449,ANT,2021.2.3,59.83505866124753,
1,1,no,up,C,L,,,,,,Block.xlsx,"你已经完成了第一个实验区组

请稍作休息


点击空格键进入下一个区组。",50,0,1.5,left,LLLLL.png,,,,,0,0,0,0,3,10,82,0,,,,,,,,,,,,,,,,,,,,,,,,,,,,,,,,,,,,,,,,,,,,,,,,,,,,,,,,,,,,,,,,222.89687719987705,223.29729469981976,223.28003049991094,223.3815182999242,223.78091840003617,None,left,1,0.4204189998563379,223.78091840003617,None,223.28003049991094,223.3815182999242,223.3815182999242,None,224.2316305998247,None,,,,,,,11036,001,2024_Mar_10_1449,ANT,2021.2.3,59.83505866124753,
1,23,spatial,down,IC,L,,,,,,Block.xlsx,"你已经完成了第一个实验区组

请稍作休息


点击空格键进入下一个区组。",-1.5,0,-1.5,left,RRLRR.png,,,,,0,0,0,0,3,11,83,22,,,,,,,,,,,,,,,,,,,,,,,,,,,,,,,,,,,,,,,,,,,,,,,,,,,,,,,,,,,,,,,,224.63203119998798,225.03377239988185,225.01644389983267,225.1174528999254,225.51713659986854,None,left,1,0.45269310008734465,225.51713659986854,None,225.01644389983267,225.1174528999254,225.1174528999254,None,225.98407229990698,None,,,,,,,11036,001,2024_Mar_10_1449,ANT,2021.2.3,59.83505866124753,
1,8,no,down,IC,R,,,,,,Block.xlsx,"你已经完成了第一个实验区组

请稍作休息


点击空格键进入下一个区组。",50,0,-1.5,right,LLRLL.png,,,,,0,0,0,0,3,12,84,7,,,,,,,,,,,,,,,,,,,,,,,,,,,,,,,,,,,,,,,,,,,,,,,,,,,,,,,,,,,,,,,,226.3845228999853,226.7863095998764,226.76901139994152,226.87041309988126,227.27130519994535,None,right,1,0.5141759999096394,227.27130519994535,None,226.76901139994152,226.87041309988126,226.87041309988126,None,227.803656199947,None,,,,,,,11036,001,2024_Mar_10_1449,ANT,2021.2.3,59.83505866124753,
1,7,no,down,IC,L,,,,,,Block.xlsx,"你已经完成了第一个实验区组

请稍作休息


点击空格键进入下一个区组。",50,0,-1.5,left,RRLRR.png,,,,,0,0,0,0,3,13,85,6,,,,,,,,,,,,,,,,,,,,,,,,,,,,,,,,,,,,,,,,,,,,,,,,,,,,,,,,,,,,,,,,228.20494690001942,228.60474670003168,228.58944049989805,228.6882181998808,229.09069189988077,None,left,1,0.4705601001624018,229.09069189988077,None,228.58944049989805,228.6882181998808,228.6882181998808,None,229.5896046999842,None,,,,,,,11036,001,2024_Mar_10_1449,ANT,2021.2.3,59.83505866124753,
1,16,center,down,IC,R,,,,,,Block.xlsx,"你已经完成了第一个实验区组

请稍作休息


点击空格键进入下一个区组。",0,50,-1.5,right,LLRLL.png,,,,,0,0,0,0,3,14,86,15,,,,,,,,,,,,,,,,,,,,,,,,,,,,,,,,,,,,,,,,,,,,,,,,,,,,,,,,,,,,,,,,229.99085780000314,230.3915374998469,230.37480859993957,230.47649499983527,230.87483199988492,None,right,1,0.5024164998903871,230.87483199988492,None,230.37480859993957,230.47649499983527,230.47649499983527,None,231.39248739997856,None,,,,,,,11036,001,2024_Mar_10_1449,ANT,2021.2.3,59.83505866124753,
1,21,spatial,down,C,L,,,,,,Block.xlsx,"你已经完成了第一个实验区组

请稍作休息


点击空格键进入下一个区组。",-1.5,0,-1.5,left,LLLLL.png,,,,,0,0,0,0,3,15,87,20,,,,,,,,,,,,,,,,,,,,,,,,,,,,,,,,,,,,,,,,,,,,,,,,,,,,,,,,,,,,,,,,231.79286889987998,232.19345050002448,232.17678179987706,232.27690469985828,232.67878469987772,None,right,0,0.35492499987594783,232.67878469987772,None,232.17678179987706,232.27690469985828,232.27690469985828,None,233.0615884999279,None,,,,,,,11036,001,2024_Mar_10_1449,ANT,2021.2.3,59.83505866124753,
1,12,center,up,IC,R,,,,,,Block.xlsx,"你已经完成了第一个实验区组

请稍作休息


点击空格键进入下一个区组。",0,50,1.5,right,LLRLL.png,,,,,0,0,0,0,3,16,88,11,,,,,,,,,,,,,,,,,,,,,,,,,,,,,,,,,,,,,,,,,,,,,,,,,,,,,,,,,,,,,,,,233.46275169984438,233.86334349983372,233.8475327999331,233.9461351998616,234.3478869998362,None,right,1,0.6531968999188393,234.3478869998362,None,233.8475327999331,233.9461351998616,233.9461351998616,None,235.03101309994236,None,,,,,,,11036,001,2024_Mar_10_1449,ANT,2021.2.3,59.83505866124753,
1,14,center,down,C,R,,,,,,Block.xlsx,"你已经完成了第一个实验区组

请稍作休息


点击空格键进入下一个区组。",0,50,-1.5,right,RRRRR.png,,,,,0,0,0,0,3,17,89,13,,,,,,,,,,,,,,,,,,,,,,,,,,,,,,,,,,,,,,,,,,,,,,,,,,,,,,,,,,,,,,,,235.43241769983433,235.8337707000319,235.81542190001346,235.91563789988868,236.31641159998253,None,right,1,0.5575653999112546,236.31641159998253,None,235.81542190001346,235.91563789988868,235.91563789988868,None,236.90060319984332,None,,,,,,,11036,001,2024_Mar_10_1449,ANT,2021.2.3,59.83505866124753,
1,6,no,down,C,R,,,,,,Block.xlsx,"你已经完成了第一个实验区组

请稍作休息


点击空格键进入下一个区组。",50,0,-1.5,right,RRRRR.png,,,,,0,0,0,0,3,18,90,5,,,,,,,,,,,,,,,,,,,,,,,,,,,,,,,,,,,,,,,,,,,,,,,,,,,,,,,,,,,,,,,,237.30111279990524,237.70367649989203,237.6855276999995,237.78604759997688,238.18723379983567,None,right,1,0.4945064999628812,238.18723379983567,None,237.6855276999995,237.78604759997688,237.78604759997688,None,238.70327499997802,None,,,,,,,11036,001,2024_Mar_10_1449,ANT,2021.2.3,59.83505866124753,
1,11,center,up,IC,L,,,,,,Block.xlsx,"你已经完成了第一个实验区组

请稍作休息


点击空格键进入下一个区组。",0,50,1.5,left,RRLRR.png,,,,,0,0,0,0,3,19,91,10,,,,,,,,,,,,,,,,,,,,,,,,,,,,,,,,,,,,,,,,,,,,,,,,,,,,,,,,,,,,,,,,239.10372939985245,239.50534189981408,239.4890081998892,239.58962340001017,239.98835169989616,None,left,1,0.5733986999839544,239.98835169989616,None,239.4890081998892,239.58962340001017,239.58962340001017,None,240.58986409986392,None,,,,,,,11036,001,2024_Mar_10_1449,ANT,2021.2.3,59.83505866124753,
1,10,center,up,C,R,,,,,,Block.xlsx,"你已经完成了第一个实验区组

请稍作休息


点击空格键进入下一个区组。",0,50,1.5,right,RRRRR.png,,,,,0,0,0,0,3,20,92,9,,,,,,,,,,,,,,,,,,,,,,,,,,,,,,,,,,,,,,,,,,,,,,,,,,,,,,,,,,,,,,,,240.99060469982214,241.39144259993918,241.3749520999845,241.47478829999454,241.87617859989405,None,right,1,0.43797349999658763,241.87617859989405,None,241.3749520999845,241.47478829999454,241.47478829999454,None,242.34189809998497,None,,,,,,,11036,001,2024_Mar_10_1449,ANT,2021.2.3,59.83505866124753,
1,2,no,up,C,R,,,,,,Block.xlsx,"你已经完成了第一个实验区组

请稍作休息


点击空格键进入下一个区组。",50,0,1.5,right,RRRRR.png,,,,,0,0,0,0,3,21,93,1,,,,,,,,,,,,,,,,,,,,,,,,,,,,,,,,,,,,,,,,,,,,,,,,,,,,,,,,,,,,,,,,242.74355859984644,243.14323249994777,243.12799920001999,243.2268558999058,243.62805960001424,None,right,1,0.38979120017029345,243.62805960001424,None,243.12799920001999,243.2268558999058,243.2268558999058,None,244.04579729982652,None,,,,,,,11036,001,2024_Mar_10_1449,ANT,2021.2.3,59.83505866124753,
1,15,center,down,IC,L,,,,,,Block.xlsx,"你已经完成了第一个实验区组

请稍作休息


点击空格键进入下一个区组。",0,50,-1.5,left,RRLRR.png,,,,,0,0,0,0,3,22,94,14,,,,,,,,,,,,,,,,,,,,,,,,,,,,,,,,,,,,,,,,,,,,,,,,,,,,,,,,,,,,,,,,244.44526079995558,244.84644039999694,244.82983719999902,244.92969929985702,245.32995329983532,None,left,1,0.6159970001317561,245.32995329983532,None,244.82983719999902,244.92969929985702,244.92969929985702,None,245.96432839985937,None,,,,,,,11036,001,2024_Mar_10_1449,ANT,2021.2.3,59.83505866124753,
1,20,spatial,up,IC,R,,,,,,Block.xlsx,"你已经完成了第一个实验区组

请稍作休息


点击空格键进入下一个区组。",1.5,0,1.5,right,LLRLL.png,,,,,0,0,0,0,3,23,95,19,,,,,,,,,,,,,,,,,,,,,,,,,,,,,,,,,,,,,,,,,,,,,,,,,,,,,,,,,,,,,,,,246.36502899997868,246.76706280000508,246.74866589996964,246.84885789989494,247.25037140003406,None,right,1,0.3840856000315398,247.25037140003406,None,246.74866589996964,246.84885789989494,246.84885789989494,None,247.65008599986322,None,,,,,,,11036,001,2024_Mar_10_1449,ANT,2021.2.3,59.83505866124753,
,,,,,,,,,,,Block.xlsx,"你已经完成了第一个实验区组

请稍作休息


点击空格键进入下一个区组。",,,,,,,,,,0,0,0,0,,,,,,,,,,,,,,,,,,,,,,,,,,,,,,,,,,,,,,,,,,,,,,,,,,,,,,,,,,,,,,,,,,,,,,,,,,,,,,,,,,,,,space,5.309618100058287,248.06862359982915,None,248.06862359982915,None,11036,001,2024_Mar_10_1449,ANT,2021.2.3,59.83505866124753,
1,6,no,down,C,R,,,,,,Block.xlsx,"你已经完成了整个实验（三个区组）。

请报告实验者已完成实验

非常感谢，再见！",50,0,-1.5,right,RRRRR.png,,,,,0,1,1,1,0,0,0,5,,,,,,,,,,,,,,,,,,,,,,,,,,,,,,,,,,,,,,,,,,,,,,,,,,,,,,,,,,,,,,,,253.4252616998274,253.82609470002353,253.8115564000327,253.92701139999554,254.31132430001162,None,right,1,0.49077549995854497,254.31132430001162,None,253.8115564000327,253.92701139999554,253.91026259982027,None,254.82743799989112,None,,,,,,,11036,001,2024_Mar_10_1449,ANT,2021.2.3,59.83505866124753,
1,11,center,up,IC,L,,,,,,Block.xlsx,"你已经完成了整个实验（三个区组）。

请报告实验者已完成实验

非常感谢，再见！",0,50,1.5,left,RRLRR.png,,,,,0,1,1,1,0,1,1,10,,,,,,,,,,,,,,,,,,,,,,,,,,,,,,,,,,,,,,,,,,,,,,,,,,,,,,,,,,,,,,,,255.22910819994286,255.62903800001368,255.6126146998722,255.7121476000175,256.1127976998687,None,left,1,0.6412879000417888,256.1127976998687,None,255.6126146998722,255.7121476000175,255.7121476000175,None,256.78057099995203,None,,,,,,,11036,001,2024_Mar_10_1449,ANT,2021.2.3,59.83505866124753,
1,6,no,down,C,R,,,,,,Block.xlsx,"你已经完成了整个实验（三个区组）。

请报告实验者已完成实验

非常感谢，再见！",50,0,-1.5,right,RRRRR.png,,,,,0,1,1,1,0,2,2,5,,,,,,,,,,,,,,,,,,,,,,,,,,,,,,,,,,,,,,,,,,,,,,,,,,,,,,,,,,,,,,,,257.18189119989984,257.58149609994143,257.56740659987554,257.68256570002995,258.0663621998392,None,right,1,0.4397976999171078,258.0663621998392,None,257.56740659987554,257.68256570002995,257.66513710003346,None,258.5331698998343,None,,,,,,,11036,001,2024_Mar_10_1449,ANT,2021.2.3,59.83505866124753,
1,19,spatial,up,IC,L,,,,,,Block.xlsx,"你已经完成了整个实验（三个区组）。

请报告实验者已完成实验

非常感谢，再见！",1.5,0,1.5,left,RRLRR.png,,,,,0,1,1,1,0,3,3,18,,,,,,,,,,,,,,,,,,,,,,,,,,,,,,,,,,,,,,,,,,,,,,,,,,,,,,,,,,,,,,,,258.9336454998702,259.33510120003484,259.3196032999549,259.4176530998666,259.81953019998036,None,left,1,0.3988135999534279,259.81953019998036,None,259.3196032999549,259.4176530998666,259.4176530998666,None,260.2357093000319,None,,,,,,,11036,001,2024_Mar_10_1449,ANT,2021.2.3,59.83505866124753,
1,5,no,down,C,L,,,,,,Block.xlsx,"你已经完成了整个实验（三个区组）。

请报告实验者已完成实验

非常感谢，再见！",50,0,-1.5,left,LLLLL.png,,,,,0,1,1,1,0,4,4,4,,,,,,,,,,,,,,,,,,,,,,,,,,,,,,,,,,,,,,,,,,,,,,,,,,,,,,,,,,,,,,,,260.63754179980606,261.0380192999728,261.0203366999049,261.1215678998269,261.5221865000203,None,left,1,0.6319383999798447,261.5221865000203,None,261.0203366999049,261.1215678998269,261.1215678998269,None,262.1717515999917,None,,,,,,,11036,001,2024_Mar_10_1449,ANT,2021.2.3,59.83505866124753,
1,16,center,down,IC,R,,,,,,Block.xlsx,"你已经完成了整个实验（三个区组）。

请报告实验者已完成实验

非常感谢，再见！",0,50,-1.5,right,LLRLL.png,,,,,0,1,1,1,0,5,5,15,,,,,,,,,,,,,,,,,,,,,,,,,,,,,,,,,,,,,,,,,,,,,,,,,,,,,,,,,,,,,,,,262.5736324999016,262.9741940998938,262.9572888999246,263.056656899862,263.4582239999436,None,right,1,0.5441749999299645,263.4582239999436,None,262.9572888999246,263.056656899862,263.056656899862,None,264.02485069981776,None,,,,,,,11036,001,2024_Mar_10_1449,ANT,2021.2.3,59.83505866124753,
1,3,no,up,IC,L,,,,,,Block.xlsx,"你已经完成了整个实验（三个区组）。

请报告实验者已完成实验

非常感谢，再见！",50,0,1.5,left,RRLRR.png,,,,,0,1,1,1,0,6,6,2,,,,,,,,,,,,,,,,,,,,,,,,,,,,,,,,,,,,,,,,,,,,,,,,,,,,,,,,,,,,,,,,264.42538759997115,264.82696829992346,264.8099087998271,264.9113809999544,265.31094929995015,None,left,1,0.5795568998437375,265.31094929995015,None,264.8099087998271,264.9113809999544,264.9113809999544,None,265.9109713998623,None,,,,,,,11036,001,2024_Mar_10_1449,ANT,2021.2.3,59.83505866124753,
1,13,center,down,C,L,,,,,,Block.xlsx,"你已经完成了整个实验（三个区组）。

请报告实验者已完成实验

非常感谢，再见！",0,50,-1.5,left,LLLLL.png,,,,,0,1,1,1,0,7,7,12,,,,,,,,,,,,,,,,,,,,,,,,,,,,,,,,,,,,,,,,,,,,,,,,,,,,,,,,,,,,,,,,266.31224090000615,266.7136384998448,266.6958567998372,266.7969926998485,267.19711979990825,None,left,1,0.5731250999961048,267.19711979990825,None,266.6958567998372,266.7969926998485,266.7969926998485,None,267.79724039998837,None,,,,,,,11036,001,2024_Mar_10_1449,ANT,2021.2.3,59.83505866124753,
1,17,spatial,up,C,L,,,,,,Block.xlsx,"你已经完成了整个实验（三个区组）。

请报告实验者已完成实验

非常感谢，再见！",1.5,0,1.5,left,LLLLL.png,,,,,0,1,1,1,0,8,8,16,,,,,,,,,,,,,,,,,,,,,,,,,,,,,,,,,,,,,,,,,,,,,,,,,,,,,,,,,,,,,,,,268.19856089982204,268.5995006999001,268.58145769988187,268.68258949997835,269.0829260000028,None,left,1,0.4232213001232594,269.0829260000028,None,268.58145769988187,268.68258949997835,268.68258949997835,None,269.5331015998963,None,,,,,,,11036,001,2024_Mar_10_1449,ANT,2021.2.3,59.83505866124753,
1,3,no,up,IC,L,,,,,,Block.xlsx,"你已经完成了整个实验（三个区组）。

请报告实验者已完成实验

非常感谢，再见！",50,0,1.5,left,RRLRR.png,,,,,0,1,1,1,0,9,9,2,,,,,,,,,,,,,,,,,,,,,,,,,,,,,,,,,,,,,,,,,,,,,,,,,,,,,,,,,,,,,,,,269.9342212998308,270.3345232999418,270.31968849990517,270.43533280002885,270.8189771999605,None,left,1,0.5763409999199212,270.8189771999605,None,270.31968849990517,270.43533280002885,270.4188941998873,None,271.41928369994275,None,,,,,,,11036,001,2024_Mar_10_1449,ANT,2021.2.3,59.83505866124753,
1,6,no,down,C,R,,,,,,Block.xlsx,"你已经完成了整个实验（三个区组）。

请报告实验者已完成实验

非常感谢，再见！",50,0,-1.5,right,RRRRR.png,,,,,0,1,1,1,0,10,10,5,,,,,,,,,,,,,,,,,,,,,,,,,,,,,,,,,,,,,,,,,,,,,,,,,,,,,,,,,,,,,,,,271.82067039981484,272.2204948000144,272.20491319987923,272.305739399977,272.7053751000203,None,right,1,0.5215504998341203,272.7053751000203,None,272.20491319987923,272.305739399977,272.305739399977,None,273.25643930002116,None,,,,,,,11036,001,2024_Mar_10_1449,ANT,2021.2.3,59.83505866124753,
1,13,center,down,C,L,,,,,,Block.xlsx,"你已经完成了整个实验（三个区组）。

请报告实验者已完成实验

非常感谢，再见！",0,50,-1.5,left,LLLLL.png,,,,,0,1,1,1,0,11,11,12,,,,,,,,,,,,,,,,,,,,,,,,,,,,,,,,,,,,,,,,,,,,,,,,,,,,,,,,,,,,,,,,273.6560662998818,274.05732969986275,274.04087939998135,274.1411128998734,274.5406320998445,None,left,1,0.4217796998564154,274.5406320998445,None,274.04087939998135,274.1411128998734,274.1411128998734,None,274.9910327999387,None,,,,,,,11036,001,2024_Mar_10_1449,ANT,2021.2.3,59.83505866124753,
1,1,no,up,C,L,,,,,,Block.xlsx,"你已经完成了整个实验（三个区组）。

请报告实验者已完成实验

非常感谢，再见！",50,0,1.5,left,LLLLL.png,,,,,0,1,1,1,0,12,12,0,,,,,,,,,,,,,,,,,,,,,,,,,,,,,,,,,,,,,,,,,,,,,,,,,,,,,,,,,,,,,,,,275.39179969998077,275.7932581999339,275.7768698998261,275.87667189980857,276.2776057999581,None,left,1,0.46897429996170104,276.2776057999581,None,275.7768698998261,275.87667189980857,275.87667189980857,None,276.77776629989967,None,,,,,,,11036,001,2024_Mar_10_1449,ANT,2021.2.3,59.83505866124753,
1,18,spatial,up,C,R,,,,,,Block.xlsx,"你已经完成了整个实验（三个区组）。

请报告实验者已完成实验

非常感谢，再见！",1.5,0,1.5,right,RRRRR.png,,,,,0,1,1,1,0,13,13,17,,,,,,,,,,,,,,,,,,,,,,,,,,,,,,,,,,,,,,,,,,,,,,,,,,,,,,,,,,,,,,,,277.1780236000195,277.579199800035,277.56241989997216,277.66191669995897,278.0630973998923,None,right,1,0.4436289998702705,278.0630973998923,None,277.56241989997216,277.66191669995897,277.66191669995897,None,278.5299352000002,None,,,,,,,11036,001,2024_Mar_10_1449,ANT,2021.2.3,59.83505866124753,
1,5,no,down,C,L,,,,,,Block.xlsx,"你已经完成了整个实验（三个区组）。

请报告实验者已完成实验

非常感谢，再见！",50,0,-1.5,left,LLLLL.png,,,,,0,1,1,1,0,14,14,4,,,,,,,,,,,,,,,,,,,,,,,,,,,,,,,,,,,,,,,,,,,,,,,,,,,,,,,,,,,,,,,,278.93108419980854,279.33189579984173,279.3153573998716,279.41731789987534,279.815323199844,None,left,1,0.5554917000699788,279.815323199844,None,279.3153573998716,279.41731789987534,279.41731789987534,None,280.4003625998739,None,,,,,,,11036,001,2024_Mar_10_1449,ANT,2021.2.3,59.83505866124753,
1,18,spatial,up,C,R,,,,,,Block.xlsx,"你已经完成了整个实验（三个区组）。

请报告实验者已完成实验

非常感谢，再见！",1.5,0,1.5,right,RRRRR.png,,,,,0,1,1,1,0,15,15,17,,,,,,,,,,,,,,,,,,,,,,,,,,,,,,,,,,,,,,,,,,,,,,,,,,,,,,,,,,,,,,,,280.8001329000108,281.20164339989424,281.1849540998228,281.28597259987146,281.6849785000086,None,right,1,0.31826070020906627,281.6849785000086,None,281.1849540998228,281.28597259987146,281.28597259987146,None,282.01866119983606,None,,,,,,,11036,001,2024_Mar_10_1449,ANT,2021.2.3,59.83505866124753,
1,13,center,down,C,L,,,,,,Block.xlsx,"你已经完成了整个实验（三个区组）。

请报告实验者已完成实验

非常感谢，再见！",0,50,-1.5,left,LLLLL.png,,,,,0,1,1,1,0,16,16,12,,,,,,,,,,,,,,,,,,,,,,,,,,,,,,,,,,,,,,,,,,,,,,,,,,,,,,,,,,,,,,,,282.41984470002353,282.81974239996634,282.8036592998542,282.90320489997976,283.30600239988416,None,left,1,0.40884940000250936,283.30600239988416,None,282.8036592998542,282.90320489997976,282.90320489997976,None,283.7378363998141,None,,,,,,,11036,001,2024_Mar_10_1449,ANT,2021.2.3,59.83505866124753,
1,15,center,down,IC,L,,,,,,Block.xlsx,"你已经完成了整个实验（三个区组）。

请报告实验者已完成实验

非常感谢，再见！",0,50,-1.5,left,RRLRR.png,,,,,0,1,1,1,0,17,17,14,,,,,,,,,,,,,,,,,,,,,,,,,,,,,,,,,,,,,,,,,,,,,,,,,,,,,,,,,,,,,,,,284.13909059995785,284.53967919992283,284.52342569991015,284.62304489989765,285.0240735998377,None,left,1,0.4028282999061048,285.0240735998377,None,284.52342569991015,284.62304489989765,284.62304489989765,None,285.4580890999641,None,,,,,,,11036,001,2024_Mar_10_1449,ANT,2021.2.3,59.83505866124753,
1,8,no,down,IC,R,,,,,,Block.xlsx,"你已经完成了整个实验（三个区组）。

请报告实验者已完成实验

非常感谢，再见！",50,0,-1.5,right,LLRLL.png,,,,,0,1,1,1,0,18,18,7,,,,,,,,,,,,,,,,,,,,,,,,,,,,,,,,,,,,,,,,,,,,,,,,,,,,,,,,,,,,,,,,285.8576769998763,286.2582135000266,286.2424951000139,286.343066399917,286.7441644000355,None,right,1,0.5390820999164134,286.7441644000355,None,286.2424951000139,286.343066399917,286.343066399917,None,287.3097516000271,None,,,,,,,11036,001,2024_Mar_10_1449,ANT,2021.2.3,59.83505866124753,
1,11,center,up,IC,L,,,,,,Block.xlsx,"你已经完成了整个实验（三个区组）。

请报告实验者已完成实验

非常感谢，再见！",0,50,1.5,left,RRLRR.png,,,,,0,1,1,1,0,19,19,10,,,,,,,,,,,,,,,,,,,,,,,,,,,,,,,,,,,,,,,,,,,,,,,,,,,,,,,,,,,,,,,,287.71077479980886,288.1116243998986,288.0942740999162,288.19454990001395,288.59531360003166,None,left,1,0.600584200117737,288.59531360003166,None,288.0942740999162,288.19454990001395,288.19454990001395,None,289.2126511000097,None,,,,,,,11036,001,2024_Mar_10_1449,ANT,2021.2.3,59.83505866124753,
1,14,center,down,C,R,,,,,,Block.xlsx,"你已经完成了整个实验（三个区组）。

请报告实验者已完成实验

非常感谢，再见！",0,50,-1.5,right,RRRRR.png,,,,,0,1,1,1,0,20,20,13,,,,,,,,,,,,,,,,,,,,,,,,,,,,,,,,,,,,,,,,,,,,,,,,,,,,,,,,,,,,,,,,289.61344869993627,290.01396429981105,289.99813339998946,290.0983963999897,290.4979983000085,None,right,1,0.38528749998658895,290.4979983000085,None,289.99813339998946,290.0983963999897,290.0983963999897,None,290.8987365998328,None,,,,,,,11036,001,2024_Mar_10_1449,ANT,2021.2.3,59.83505866124753,
1,15,center,down,IC,L,,,,,,Block.xlsx,"你已经完成了整个实验（三个区组）。

请报告实验者已完成实验

非常感谢，再见！",0,50,-1.5,left,RRLRR.png,,,,,0,1,1,1,0,21,21,14,,,,,,,,,,,,,,,,,,,,,,,,,,,,,,,,,,,,,,,,,,,,,,,,,,,,,,,,,,,,,,,,291.2991573000327,291.7008753998671,291.68394259992056,291.78379929997027,292.1839305998292,None,left,1,0.4994200000073761,292.1839305998292,None,291.68394259992056,291.78379929997027,291.78379929997027,None,292.70135099999607,None,,,,,,,11036,001,2024_Mar_10_1449,ANT,2021.2.3,59.83505866124753,
1,8,no,down,IC,R,,,,,,Block.xlsx,"你已经完成了整个实验（三个区组）。

请报告实验者已完成实验

非常感谢，再见！",50,0,-1.5,right,LLRLL.png,,,,,0,1,1,1,0,22,22,7,,,,,,,,,,,,,,,,,,,,,,,,,,,,,,,,,,,,,,,,,,,,,,,,,,,,,,,,,,,,,,,,293.10284639988095,293.50255350000225,293.4872057000175,293.58723900001496,293.9867626999039,None,right,1,0.47242169990204275,293.9867626999039,None,293.4872057000175,293.58723900001496,293.58723900001496,None,294.48728629993275,None,,,,,,,11036,001,2024_Mar_10_1449,ANT,2021.2.3,59.83505866124753,
1,7,no,down,IC,L,,,,,,Block.xlsx,"你已经完成了整个实验（三个区组）。

请报告实验者已完成实验

非常感谢，再见！",50,0,-1.5,left,RRLRR.png,,,,,0,1,1,1,0,23,23,6,,,,,,,,,,,,,,,,,,,,,,,,,,,,,,,,,,,,,,,,,,,,,,,,,,,,,,,,,,,,,,,,294.8879082000349,295.289353299886,295.2728969999589,295.37339359987527,295.7732286998071,None,left,1,0.5017362998332828,295.7732286998071,None,295.2728969999589,295.37339359987527,295.37339359987527,None,296.29011689987965,None,,,,,,,11036,001,2024_Mar_10_1449,ANT,2021.2.3,59.83505866124753,
1,12,center,up,IC,R,,,,,,Block.xlsx,"你已经完成了整个实验（三个区组）。

请报告实验者已完成实验

非常感谢，再见！",0,50,1.5,right,LLRLL.png,,,,,0,1,1,1,1,0,24,11,,,,,,,,,,,,,,,,,,,,,,,,,,,,,,,,,,,,,,,,,,,,,,,,,,,,,,,,,,,,,,,,296.6906542999204,297.0917525999248,297.0758817999158,297.17507510003634,297.5753315000329,None,right,1,0.5238848999142647,297.5753315000329,None,297.0758817999158,297.17507510003634,297.17507510003634,None,298.1261424999684,None,,,,,,,11036,001,2024_Mar_10_1449,ANT,2021.2.3,59.83505866124753,
1,9,center,up,C,L,,,,,,Block.xlsx,"你已经完成了整个实验（三个区组）。

请报告实验者已完成实验

非常感谢，再见！",0,50,1.5,left,LLLLL.png,,,,,0,1,1,1,1,1,25,8,,,,,,,,,,,,,,,,,,,,,,,,,,,,,,,,,,,,,,,,,,,,,,,,,,,,,,,,,,,,,,,,298.52747089997865,298.9283340999391,298.9107732998673,299.0123349998612,299.413274299819,None,left,1,0.5505665000528097,299.413274299819,None,298.9107732998673,299.0123349998612,299.0123349998612,None,299.97910719993524,None,,,,,,,11036,001,2024_Mar_10_1449,ANT,2021.2.3,59.83505866124753,
1,18,spatial,up,C,R,,,,,,Block.xlsx,"你已经完成了整个实验（三个区组）。

请报告实验者已完成实验

非常感谢，再见！",1.5,0,1.5,right,RRRRR.png,,,,,0,1,1,1,1,2,26,17,,,,,,,,,,,,,,,,,,,,,,,,,,,,,,,,,,,,,,,,,,,,,,,,,,,,,,,,,,,,,,,,300.37974069989286,300.7807585999835,300.7656431000214,300.88177869981155,301.2640982000157,None,right,1,0.3314028000459075,301.2640982000157,None,300.7656431000214,300.88177869981155,300.86358230002224,None,301.614714599913,None,,,,,,,11036,001,2024_Mar_10_1449,ANT,2021.2.3,59.83505866124753,
1,24,spatial,down,IC,R,,,,,,Block.xlsx,"你已经完成了整个实验（三个区组）。

请报告实验者已完成实验

非常感谢，再见！",-1.5,0,-1.5,right,LLRLL.png,,,,,0,1,1,1,1,3,27,23,,,,,,,,,,,,,,,,,,,,,,,,,,,,,,,,,,,,,,,,,,,,,,,,,,,,,,,,,,,,,,,,302.0153431999497,302.41612680000253,302.4011731999926,302.5165048998315,302.9015905999113,None,right,1,0.4864325998350978,302.9015905999113,None,302.4011731999926,302.5165048998315,302.4994154998567,None,303.4174885000102,None,,,,,,,11036,001,2024_Mar_10_1449,ANT,2021.2.3,59.83505866124753,
1,2,no,up,C,R,,,,,,Block.xlsx,"你已经完成了整个实验（三个区组）。

请报告实验者已完成实验

非常感谢，再见！",50,0,1.5,right,RRRRR.png,,,,,0,1,1,1,1,4,28,1,,,,,,,,,,,,,,,,,,,,,,,,,,,,,,,,,,,,,,,,,,,,,,,,,,,,,,,,,,,,,,,,303.8184997998178,304.2189542998094,304.2033561998978,304.3189089000225,304.7047462000046,None,right,1,0.5152544998563826,304.7047462000046,None,304.2033561998978,304.3189089000225,304.30291839991696,None,305.2368138998281,None,,,,,,,11036,001,2024_Mar_10_1449,ANT,2021.2.3,59.83505866124753,
1,14,center,down,C,R,,,,,,Block.xlsx,"你已经完成了整个实验（三个区组）。

请报告实验者已完成实验

非常感谢，再见！",0,50,-1.5,right,RRRRR.png,,,,,0,1,1,1,1,5,29,13,,,,,,,,,,,,,,,,,,,,,,,,,,,,,,,,,,,,,,,,,,,,,,,,,,,,,,,,,,,,,,,,305.6374258999713,306.03985349996947,306.02159309992567,306.12409089994617,306.5231888999697,None,right,1,0.4168493999168277,306.5231888999697,None,306.02159309992567,306.12409089994617,306.12409089994617,None,306.95625229994766,None,,,,,,,11036,001,2024_Mar_10_1449,ANT,2021.2.3,59.83505866124753,
1,24,spatial,down,IC,R,,,,,,Block.xlsx,"你已经完成了整个实验（三个区组）。

请报告实验者已完成实验

非常感谢，再见！",-1.5,0,-1.5,right,LLRLL.png,,,,,0,1,1,1,1,6,30,23,,,,,,,,,,,,,,,,,,,,,,,,,,,,,,,,,,,,,,,,,,,,,,,,,,,,,,,,,,,,,,,,307.3576098999474,307.7581624998711,307.7406744000036,307.84178119990975,308.2415887999814,None,left,0,0.40970740001648664,308.2415887999814,None,307.7406744000036,307.84178119990975,307.84178119990975,None,308.6761912999209,None,,,,,,,11036,001,2024_Mar_10_1449,ANT,2021.2.3,59.83505866124753,
1,24,spatial,down,IC,R,,,,,,Block.xlsx,"你已经完成了整个实验（三个区组）。

请报告实验者已完成实验

非常感谢，再见！",-1.5,0,-1.5,right,LLRLL.png,,,,,0,1,1,1,1,7,31,23,,,,,,,,,,,,,,,,,,,,,,,,,,,,,,,,,,,,,,,,,,,,,,,,,,,,,,,,,,,,,,,,309.0767945998814,309.47920780000277,309.46012179995887,309.56095419987105,309.96145299985074,None,right,1,0.40222079982049763,309.96145299985074,None,309.46012179995887,309.56095419987105,309.56095419987105,None,310.3780163999181,None,,,,,,,11036,001,2024_Mar_10_1449,ANT,2021.2.3,59.83505866124753,
1,7,no,down,IC,L,,,,,,Block.xlsx,"你已经完成了整个实验（三个区组）。

请报告实验者已完成实验

非常感谢，再见！",50,0,-1.5,left,RRLRR.png,,,,,0,1,1,1,1,8,32,6,,,,,,,,,,,,,,,,,,,,,,,,,,,,,,,,,,,,,,,,,,,,,,,,,,,,,,,,,,,,,,,,310.77900330000557,311.1794598000124,311.16400279989466,311.2627512998879,311.6648883000016,None,left,1,0.6108059999532998,311.6648883000016,None,311.16400279989466,311.2627512998879,311.2627512998879,None,312.2975210000295,None,,,,,,,11036,001,2024_Mar_10_1449,ANT,2021.2.3,59.83505866124753,
1,22,spatial,down,C,R,,,,,,Block.xlsx,"你已经完成了整个实验（三个区组）。

请报告实验者已完成实验

非常感谢，再见！",-1.5,0,-1.5,right,RRRRR.png,,,,,0,1,1,1,1,9,33,21,,,,,,,,,,,,,,,,,,,,,,,,,,,,,,,,,,,,,,,,,,,,,,,,,,,,,,,,,,,,,,,,312.69870449998416,313.09878310002387,313.08251439989544,313.1824562000111,313.5840213999618,None,right,1,0.33210899983532727,313.5840213999618,None,313.08251439989544,313.1824562000111,313.1824562000111,None,313.93324869987555,None,,,,,,,11036,001,2024_Mar_10_1449,ANT,2021.2.3,59.83505866124753,
1,14,center,down,C,R,,,,,,Block.xlsx,"你已经完成了整个实验（三个区组）。

请报告实验者已完成实验

非常感谢，再见！",0,50,-1.5,right,RRRRR.png,,,,,0,1,1,1,1,10,34,13,,,,,,,,,,,,,,,,,,,,,,,,,,,,,,,,,,,,,,,,,,,,,,,,,,,,,,,,,,,,,,,,314.3339988999069,314.7356993998401,314.71786809992045,314.8179644998163,315.2201302999165,None,right,1,0.4795724998693913,315.2201302999165,None,314.71786809992045,314.8179644998163,314.8179644998163,None,315.71921679982916,None,,,,,,,11036,001,2024_Mar_10_1449,ANT,2021.2.3,59.83505866124753,
1,3,no,up,IC,L,,,,,,Block.xlsx,"你已经完成了整个实验（三个区组）。

请报告实验者已完成实验

非常感谢，再见！",50,0,1.5,left,RRLRR.png,,,,,0,1,1,1,1,11,35,2,,,,,,,,,,,,,,,,,,,,,,,,,,,,,,,,,,,,,,,,,,,,,,,,,,,,,,,,,,,,,,,,316.11987289995886,316.52177369990386,316.5050578999799,316.60511099989526,317.00546569982544,None,left,1,0.5673362000379711,317.00546569982544,None,316.5050578999799,316.60511099989526,316.60511099989526,None,317.58895149989985,None,,,,,,,11036,001,2024_Mar_10_1449,ANT,2021.2.3,59.83505866124753,
1,16,center,down,IC,R,,,,,,Block.xlsx,"你已经完成了整个实验（三个区组）。

请报告实验者已完成实验

非常感谢，再见！",0,50,-1.5,right,LLRLL.png,,,,,0,1,1,1,1,12,36,15,,,,,,,,,,,,,,,,,,,,,,,,,,,,,,,,,,,,,,,,,,,,,,,,,,,,,,,,,,,,,,,,317.99009869992733,318.39079219987616,318.373795399908,318.47429249994457,318.87422290001996,None,right,1,0.40191509993746877,318.87422290001996,None,318.373795399908,318.47429249994457,318.47429249994457,None,319.29138049995527,None,,,,,,,11036,001,2024_Mar_10_1449,ANT,2021.2.3,59.83505866124753,
1,12,center,up,IC,R,,,,,,Block.xlsx,"你已经完成了整个实验（三个区组）。

请报告实验者已完成实验

非常感谢，再见！",0,50,1.5,right,LLRLL.png,,,,,0,1,1,1,1,13,37,11,,,,,,,,,,,,,,,,,,,,,,,,,,,,,,,,,,,,,,,,,,,,,,,,,,,,,,,,,,,,,,,,319.6921774998773,320.09318319987506,320.07811170001514,320.1764240998309,320.5777167000342,None,right,1,0.5859464998356998,320.5777167000342,None,320.07811170001514,320.1764240998309,320.1764240998309,None,321.1950542998966,None,,,,,,,11036,001,2024_Mar_10_1449,ANT,2021.2.3,59.83505866124753,
1,8,no,down,IC,R,,,,,,Block.xlsx,"你已经完成了整个实验（三个区组）。

请报告实验者已完成实验

非常感谢，再见！",50,0,-1.5,right,LLRLL.png,,,,,0,1,1,1,1,14,38,7,,,,,,,,,,,,,,,,,,,,,,,,,,,,,,,,,,,,,,,,,,,,,,,,,,,,,,,,,,,,,,,,321.5948381999042,321.9968343998771,321.9799579998944,322.08079379983246,322.4802057999186,None,right,1,0.5557064998429269,322.4802057999186,None,321.9799579998944,322.08079379983246,322.08079379983246,None,323.0635761998128,None,,,,,,,11036,001,2024_Mar_10_1449,ANT,2021.2.3,59.83505866124753,
1,2,no,up,C,R,,,,,,Block.xlsx,"你已经完成了整个实验（三个区组）。

请报告实验者已完成实验

非常感谢，再见！",50,0,1.5,right,RRRRR.png,,,,,0,1,1,1,1,15,39,1,,,,,,,,,,,,,,,,,,,,,,,,,,,,,,,,,,,,,,,,,,,,,,,,,,,,,,,,,,,,,,,,323.4645140999928,323.8664471998345,323.8490820999723,323.949056699872,324.3490959999617,None,right,1,0.3748790000099689,324.3490959999617,None,323.8490820999723,323.949056699872,323.949056699872,None,324.74954140000045,None,,,,,,,11036,001,2024_Mar_10_1449,ANT,2021.2.3,59.83505866124753,
1,5,no,down,C,L,,,,,,Block.xlsx,"你已经完成了整个实验（三个区组）。

请报告实验者已完成实验

非常感谢，再见！",50,0,-1.5,left,LLLLL.png,,,,,0,1,1,1,1,16,40,4,,,,,,,,,,,,,,,,,,,,,,,,,,,,,,,,,,,,,,,,,,,,,,,,,,,,,,,,,,,,,,,,325.15020079980604,325.55259300000034,325.5341973998584,325.6351526998915,326.03622290003113,None,left,1,0.448421600041911,326.03622290003113,None,325.5341973998584,325.6351526998915,325.6351526998915,None,326.5023639998399,None,,,,,,,11036,001,2024_Mar_10_1449,ANT,2021.2.3,59.83505866124753,
1,2,no,up,C,R,,,,,,Block.xlsx,"你已经完成了整个实验（三个区组）。

请报告实验者已完成实验

非常感谢，再见！",50,0,1.5,right,RRRRR.png,,,,,0,1,1,1,1,17,41,1,,,,,,,,,,,,,,,,,,,,,,,,,,,,,,,,,,,,,,,,,,,,,,,,,,,,,,,,,,,,,,,,326.90378179983236,327.3048119000159,327.28684299997985,327.3869796998333,327.788512500003,None,right,1,0.36830740002915263,327.788512500003,None,327.28684299997985,327.3869796998333,327.3869796998333,None,328.17155739990994,None,,,,,,,11036,001,2024_Mar_10_1449,ANT,2021.2.3,59.83505866124753,
1,6,no,down,C,R,,,,,,Block.xlsx,"你已经完成了整个实验（三个区组）。

请报告实验者已完成实验

非常感谢，再见！",50,0,-1.5,right,RRRRR.png,,,,,0,1,1,1,1,18,42,5,,,,,,,,,,,,,,,,,,,,,,,,,,,,,,,,,,,,,,,,,,,,,,,,,,,,,,,,,,,,,,,,328.57280860003084,328.9743122998625,328.9560334999114,329.0569139998406,329.4568332999479,None,right,1,0.5072588999755681,329.4568332999479,None,328.9560334999114,329.0569139998406,329.0569139998406,None,329.9910573998932,None,,,,,,,11036,001,2024_Mar_10_1449,ANT,2021.2.3,59.83505866124753,
1,1,no,up,C,L,,,,,,Block.xlsx,"你已经完成了整个实验（三个区组）。

请报告实验者已完成实验

非常感谢，再见！",50,0,1.5,left,LLLLL.png,,,,,0,1,1,1,1,19,43,0,,,,,,,,,,,,,,,,,,,,,,,,,,,,,,,,,,,,,,,,,,,,,,,,,,,,,,,,,,,,,,,,330.3912499998696,330.7938271998428,330.77536199986935,330.8767279998865,331.27675969991833,None,right,0,0.44774869992397726,331.27675969991833,None,330.77536199986935,330.8767279998865,330.8767279998865,None,331.743675599806,None,,,,,,,11036,001,2024_Mar_10_1449,ANT,2021.2.3,59.83505866124753,
1,23,spatial,down,IC,L,,,,,,Block.xlsx,"你已经完成了整个实验（三个区组）。

请报告实验者已完成实验

非常感谢，再见！",-1.5,0,-1.5,left,RRLRR.png,,,,,0,1,1,1,1,20,44,22,,,,,,,,,,,,,,,,,,,,,,,,,,,,,,,,,,,,,,,,,,,,,,,,,,,,,,,,,,,,,,,,332.1448947999161,332.54592459998094,332.52931330003776,332.64504309999757,333.03020739997737,None,left,1,0.5421879000496119,333.03020739997737,None,332.52931330003776,332.64504309999757,332.6301925999578,None,333.5963655000087,None,,,,,,,11036,001,2024_Mar_10_1449,ANT,2021.2.3,59.83505866124753,
1,21,spatial,down,C,L,,,,,,Block.xlsx,"你已经完成了整个实验（三个区组）。

请报告实验者已完成实验

非常感谢，再见！",-1.5,0,-1.5,left,LLLLL.png,,,,,0,1,1,1,1,21,45,20,,,,,,,,,,,,,,,,,,,,,,,,,,,,,,,,,,,,,,,,,,,,,,,,,,,,,,,,,,,,,,,,333.99757989984937,334.39818819984794,334.38187759998254,334.48152369982563,334.8827451998368,None,left,1,0.3694054000079632,334.8827451998368,None,334.38187759998254,334.48152369982563,334.48152369982563,None,335.28229000000283,None,,,,,,,11036,001,2024_Mar_10_1449,ANT,2021.2.3,59.83505866124753,
1,10,center,up,C,R,,,,,,Block.xlsx,"你已经完成了整个实验（三个区组）。

请报告实验者已完成实验

非常感谢，再见！",0,50,1.5,right,RRRRR.png,,,,,0,1,1,1,1,22,46,9,,,,,,,,,,,,,,,,,,,,,,,,,,,,,,,,,,,,,,,,,,,,,,,,,,,,,,,,,,,,,,,,335.68411060003564,336.08362799999304,336.06742829992436,336.167815499939,336.56760299997404,None,right,1,0.5410136000718921,336.56760299997404,None,336.06742829992436,336.167815499939,336.167815499939,None,337.1350648999214,None,,,,,,,11036,001,2024_Mar_10_1449,ANT,2021.2.3,59.83505866124753,
1,7,no,down,IC,L,,,,,,Block.xlsx,"你已经完成了整个实验（三个区组）。

请报告实验者已完成实验

非常感谢，再见！",50,0,-1.5,left,RRLRR.png,,,,,0,1,1,1,1,23,47,6,,,,,,,,,,,,,,,,,,,,,,,,,,,,,,,,,,,,,,,,,,,,,,,,,,,,,,,,,,,,,,,,337.537058299873,337.9360652999021,337.9206614999566,338.0209778000135,338.42034969991073,None,left,1,0.5687826001085341,338.42034969991073,None,337.9206614999566,338.0209778000135,338.0209778000135,None,339.0043195998296,None,,,,,,,11036,001,2024_Mar_10_1449,ANT,2021.2.3,59.83505866124753,
1,15,center,down,IC,L,,,,,,Block.xlsx,"你已经完成了整个实验（三个区组）。

请报告实验者已完成实验

非常感谢，再见！",0,50,-1.5,left,RRLRR.png,,,,,0,1,1,1,2,0,48,14,,,,,,,,,,,,,,,,,,,,,,,,,,,,,,,,,,,,,,,,,,,,,,,,,,,,,,,,,,,,,,,,339.40505189984106,339.80641589988954,339.7890725999605,339.89034519996494,340.2905397999566,None,left,1,0.49850929994136095,340.2905397999566,None,339.7890725999605,339.89034519996494,339.89034519996494,None,340.80734709999524,None,,,,,,,11036,001,2024_Mar_10_1449,ANT,2021.2.3,59.83505866124753,
1,16,center,down,IC,R,,,,,,Block.xlsx,"你已经完成了整个实验（三个区组）。

请报告实验者已完成实验

非常感谢，再见！",0,50,-1.5,right,LLRLL.png,,,,,0,1,1,1,2,1,49,15,,,,,,,,,,,,,,,,,,,,,,,,,,,,,,,,,,,,,,,,,,,,,,,,,,,,,,,,,,,,,,,,341.2076812000014,341.610313099809,341.59156379988417,341.6935091998894,342.0946592998225,None,right,1,0.5177178999874741,342.0946592998225,None,341.59156379988417,341.6935091998894,341.6935091998894,None,342.6434122999199,None,,,,,,,11036,001,2024_Mar_10_1449,ANT,2021.2.3,59.83505866124753,
1,23,spatial,down,IC,L,,,,,,Block.xlsx,"你已经完成了整个实验（三个区组）。

请报告实验者已完成实验

非常感谢，再见！",-1.5,0,-1.5,left,RRLRR.png,,,,,0,1,1,1,2,2,50,22,,,,,,,,,,,,,,,,,,,,,,,,,,,,,,,,,,,,,,,,,,,,,,,,,,,,,,,,,,,,,,,,343.0438349999022,343.4459374998696,343.4277446998749,343.52926649991423,343.9286913999822,None,left,1,0.36399410013109446,343.9286913999822,None,343.4277446998749,343.52926649991423,343.52926649991423,None,344.31379219982773,None,,,,,,,11036,001,2024_Mar_10_1449,ANT,2021.2.3,59.83505866124753,
1,11,center,up,IC,L,,,,,,Block.xlsx,"你已经完成了整个实验（三个区组）。

请报告实验者已完成实验

非常感谢，再见！",0,50,1.5,left,RRLRR.png,,,,,0,1,1,1,2,3,51,10,,,,,,,,,,,,,,,,,,,,,,,,,,,,,,,,,,,,,,,,,,,,,,,,,,,,,,,,,,,,,,,,344.713085899828,345.11458950000815,345.09792390000075,345.1980834000278,345.59960249997675,None,left,1,0.6769771000836045,345.59960249997675,None,345.09792390000075,345.1980834000278,345.1980834000278,None,346.29889189987443,None,,,,,,,11036,001,2024_Mar_10_1449,ANT,2021.2.3,59.83505866124753,
1,21,spatial,down,C,L,,,,,,Block.xlsx,"你已经完成了整个实验（三个区组）。

请报告实验者已完成实验

非常感谢，再见！",-1.5,0,-1.5,left,LLLLL.png,,,,,0,1,1,1,2,4,52,20,,,,,,,,,,,,,,,,,,,,,,,,,,,,,,,,,,,,,,,,,,,,,,,,,,,,,,,,,,,,,,,,346.69942740001716,347.10008839983493,347.08337279991247,347.1834735998418,347.5841720998287,None,left,1,0.5813260001596063,347.5841720998287,None,347.08337279991247,347.1834735998418,347.1834735998418,None,348.1855470999144,None,,,,,,,11036,001,2024_Mar_10_1449,ANT,2021.2.3,59.83505866124753,
1,24,spatial,down,IC,R,,,,,,Block.xlsx,"你已经完成了整个实验（三个区组）。

请报告实验者已完成实验

非常感谢，再见！",-1.5,0,-1.5,right,LLRLL.png,,,,,0,1,1,1,2,5,53,23,,,,,,,,,,,,,,,,,,,,,,,,,,,,,,,,,,,,,,,,,,,,,,,,,,,,,,,,,,,,,,,,348.5857257999014,348.9873647999484,348.97067589988,349.06975399982184,349.47154589998536,None,right,1,0.43697540019638836,349.47154589998536,None,348.97067589988,349.06975399982184,349.06975399982184,None,349.9384150998667,None,,,,,,,11036,001,2024_Mar_10_1449,ANT,2021.2.3,59.83505866124753,
1,4,no,up,IC,R,,,,,,Block.xlsx,"你已经完成了整个实验（三个区组）。

请报告实验者已完成实验

非常感谢，再见！",50,0,1.5,right,LLRLL.png,,,,,0,1,1,1,2,6,54,3,,,,,,,,,,,,,,,,,,,,,,,,,,,,,,,,,,,,,,,,,,,,,,,,,,,,,,,,,,,,,,,,350.3391376999207,350.7395659999456,350.7231312999502,350.8228189998772,351.22296549985185,None,right,1,0.7019149002153426,351.22296549985185,None,350.7231312999502,350.8228189998772,350.8228189998772,None,351.9406214999035,None,,,,,,,11036,001,2024_Mar_10_1449,ANT,2021.2.3,59.83505866124753,
1,1,no,up,C,L,,,,,,Block.xlsx,"你已经完成了整个实验（三个区组）。

请报告实验者已完成实验

非常感谢，再见！",50,0,1.5,left,LLLLL.png,,,,,0,1,1,1,2,7,55,0,,,,,,,,,,,,,,,,,,,,,,,,,,,,,,,,,,,,,,,,,,,,,,,,,,,,,,,,,,,,,,,,352.3412849998567,352.7419626999181,352.726049099816,352.826562799979,353.2268019998446,None,left,1,0.5622273997869343,353.2268019998446,None,352.726049099816,352.826562799979,352.826562799979,None,353.81027419981547,None,,,,,,,11036,001,2024_Mar_10_1449,ANT,2021.2.3,59.83505866124753,
1,10,center,up,C,R,,,,,,Block.xlsx,"你已经完成了整个实验（三个区组）。

请报告实验者已完成实验

非常感谢，再见！",0,50,1.5,right,RRRRR.png,,,,,0,1,1,1,2,8,56,9,,,,,,,,,,,,,,,,,,,,,,,,,,,,,,,,,,,,,,,,,,,,,,,,,,,,,,,,,,,,,,,,354.21147869993,354.6135072999168,354.59456510003656,354.6952402999159,355.09760409989394,None,right,1,0.37934510014019907,355.09760409989394,None,354.59456510003656,354.6952402999159,354.6952402999159,None,355.49611720000394,None,,,,,,,11036,001,2024_Mar_10_1449,ANT,2021.2.3,59.83505866124753,
1,23,spatial,down,IC,L,,,,,,Block.xlsx,"你已经完成了整个实验（三个区组）。

请报告实验者已完成实验

非常感谢，再见！",-1.5,0,-1.5,left,RRLRR.png,,,,,0,1,1,1,2,9,57,22,,,,,,,,,,,,,,,,,,,,,,,,,,,,,,,,,,,,,,,,,,,,,,,,,,,,,,,,,,,,,,,,355.8966855998151,356.29737939988263,356.2830897998065,356.3815766000189,356.78201849991456,None,left,1,0.5270207000430673,356.78201849991456,None,356.2830897998065,356.3815766000189,356.3815766000189,None,357.33218839997426,None,,,,,,,11036,001,2024_Mar_10_1449,ANT,2021.2.3,59.83505866124753,
1,22,spatial,down,C,R,,,,,,Block.xlsx,"你已经完成了整个实验（三个区组）。

请报告实验者已完成实验

非常感谢，再见！",-1.5,0,-1.5,right,RRRRR.png,,,,,0,1,1,1,2,10,58,21,,,,,,,,,,,,,,,,,,,,,,,,,,,,,,,,,,,,,,,,,,,,,,,,,,,,,,,,,,,,,,,,357.73272729991004,358.13386529986747,358.1179449998308,358.2177520999685,358.61829159990884,None,right,1,0.42638660012744367,358.61829159990884,None,358.1179449998308,358.2177520999685,358.2177520999685,None,359.06795509997755,None,,,,,,,11036,001,2024_Mar_10_1449,ANT,2021.2.3,59.83505866124753,
1,8,no,down,IC,R,,,,,,Block.xlsx,"你已经完成了整个实验（三个区组）。

请报告实验者已完成实验

非常感谢，再见！",50,0,-1.5,right,LLRLL.png,,,,,0,1,1,1,2,11,59,7,,,,,,,,,,,,,,,,,,,,,,,,,,,,,,,,,,,,,,,,,,,,,,,,,,,,,,,,,,,,,,,,359.4686296998989,359.8711231998168,359.85259799985215,359.9536313000135,360.3535132999532,None,right,1,0.45962830004282296,360.3535132999532,None,359.85259799985215,359.9536313000135,359.9536313000135,None,360.83726379997097,None,,,,,,,11036,001,2024_Mar_10_1449,ANT,2021.2.3,59.83505866124753,
1,9,center,up,C,L,,,,,,Block.xlsx,"你已经完成了整个实验（三个区组）。

请报告实验者已完成实验

非常感谢，再见！",0,50,1.5,left,LLLLL.png,,,,,0,1,1,1,2,12,60,8,,,,,,,,,,,,,,,,,,,,,,,,,,,,,,,,,,,,,,,,,,,,,,,,,,,,,,,,,,,,,,,,361.23808389995247,361.63861219980754,361.6230731999967,361.7233771998435,362.12262109993026,None,left,1,0.45839909999631345,362.12262109993026,None,361.6230731999967,361.7233771998435,361.7233771998435,None,362.6067943999078,None,,,,,,,11036,001,2024_Mar_10_1449,ANT,2021.2.3,59.83505866124753,
1,7,no,down,IC,L,,,,,,Block.xlsx,"你已经完成了整个实验（三个区组）。

请报告实验者已完成实验

非常感谢，再见！",50,0,-1.5,left,RRLRR.png,,,,,0,1,1,1,2,13,61,6,,,,,,,,,,,,,,,,,,,,,,,,,,,,,,,,,,,,,,,,,,,,,,,,,,,,,,,,,,,,,,,,363.0081396999303,363.4078100998886,363.3916603999678,363.4927319998387,363.89208050002344,None,left,1,0.6334555998910218,363.89208050002344,None,363.3916603999678,363.4927319998387,363.4927319998387,None,364.5429497999139,None,,,,,,,11036,001,2024_Mar_10_1449,ANT,2021.2.3,59.83505866124753,
1,20,spatial,up,IC,R,,,,,,Block.xlsx,"你已经完成了整个实验（三个区组）。

请报告实验者已完成实验

非常感谢，再见！",1.5,0,1.5,right,LLRLL.png,,,,,0,1,1,1,2,14,62,19,,,,,,,,,,,,,,,,,,,,,,,,,,,,,,,,,,,,,,,,,,,,,,,,,,,,,,,,,,,,,,,,364.9437074000016,365.34414519998245,365.3285548000131,365.4284202000126,365.8284055998083,None,right,1,0.40897030010819435,365.8284055998083,None,365.3285548000131,365.4284202000126,365.4284202000126,None,366.26231739996,None,,,,,,,11036,001,2024_Mar_10_1449,ANT,2021.2.3,59.83505866124753,
1,17,spatial,up,C,L,,,,,,Block.xlsx,"你已经完成了整个实验（三个区组）。

请报告实验者已完成实验

非常感谢，再见！",1.5,0,1.5,left,LLLLL.png,,,,,0,1,1,1,2,15,63,16,,,,,,,,,,,,,,,,,,,,,,,,,,,,,,,,,,,,,,,,,,,,,,,,,,,,,,,,,,,,,,,,366.66287070000544,367.06473159999587,367.0476616998203,367.147824899992,367.54807969997637,None,left,1,0.4488245998509228,367.54807969997637,None,367.0476616998203,367.147824899992,367.147824899992,None,368.0150166999083,None,,,,,,,11036,001,2024_Mar_10_1449,ANT,2021.2.3,59.83505866124753,
1,10,center,up,C,R,,,,,,Block.xlsx,"你已经完成了整个实验（三个区组）。

请报告实验者已完成实验

非常感谢，再见！",0,50,1.5,right,RRRRR.png,,,,,0,1,1,1,2,16,64,9,,,,,,,,,,,,,,,,,,,,,,,,,,,,,,,,,,,,,,,,,,,,,,,,,,,,,,,,,,,,,,,,368.41553759993985,368.817057200009,368.7997931998689,368.9000607000198,369.30106159998104,None,right,1,0.3844071999192238,369.30106159998104,None,368.7997931998689,368.9000607000198,368.9000607000198,None,369.70081439986825,None,,,,,,,11036,001,2024_Mar_10_1449,ANT,2021.2.3,59.83505866124753,
1,2,no,up,C,R,,,,,,Block.xlsx,"你已经完成了整个实验（三个区组）。

请报告实验者已完成实验

非常感谢，再见！",50,0,1.5,right,RRRRR.png,,,,,0,1,1,1,2,17,65,1,,,,,,,,,,,,,,,,,,,,,,,,,,,,,,,,,,,,,,,,,,,,,,,,,,,,,,,,,,,,,,,,370.1019571998622,370.5019713998772,370.4870080000255,370.58639699989,370.9871525999624,None,right,1,0.44204590003937483,370.9871525999624,None,370.4870080000255,370.58639699989,370.58639699989,None,371.4535181999672,None,,,,,,,11036,001,2024_Mar_10_1449,ANT,2021.2.3,59.83505866124753,
1,10,center,up,C,R,,,,,,Block.xlsx,"你已经完成了整个实验（三个区组）。

请报告实验者已完成实验

非常感谢，再见！",0,50,1.5,right,RRRRR.png,,,,,0,1,1,1,2,18,66,9,,,,,,,,,,,,,,,,,,,,,,,,,,,,,,,,,,,,,,,,,,,,,,,,,,,,,,,,,,,,,,,,371.8547596000135,372.25461479998194,372.23805239982903,372.33943109982647,372.7394836000167,None,right,1,0.3939048000611365,372.7394836000167,None,372.23805239982903,372.33943109982647,372.33943109982647,None,373.15624329983257,None,,,,,,,11036,001,2024_Mar_10_1449,ANT,2021.2.3,59.83505866124753,
1,12,center,up,IC,R,,,,,,Block.xlsx,"你已经完成了整个实验（三个区组）。

请报告实验者已完成实验

非常感谢，再见！",0,50,1.5,right,LLRLL.png,,,,,0,1,1,1,2,19,67,11,,,,,,,,,,,,,,,,,,,,,,,,,,,,,,,,,,,,,,,,,,,,,,,,,,,,,,,,,,,,,,,,373.556530199945,373.9572590999305,373.94178520003334,374.04062659991905,374.44221249991097,None,right,1,0.5001912999432534,374.44221249991097,None,373.94178520003334,374.04062659991905,374.04062659991905,None,374.95858790003695,None,,,,,,,11036,001,2024_Mar_10_1449,ANT,2021.2.3,59.83505866124753,
1,20,spatial,up,IC,R,,,,,,Block.xlsx,"你已经完成了整个实验（三个区组）。

请报告实验者已完成实验

非常感谢，再见！",1.5,0,1.5,right,LLRLL.png,,,,,0,1,1,1,2,20,68,19,,,,,,,,,,,,,,,,,,,,,,,,,,,,,,,,,,,,,,,,,,,,,,,,,,,,,,,,,,,,,,,,375.3593484000303,375.7614503998775,375.7433896998409,375.84378599980846,376.2449793999549,None,right,1,0.7204044000245631,376.2449793999549,None,375.7433896998409,375.84378599980846,375.84378599980846,None,376.9951324998401,None,,,,,,,11036,001,2024_Mar_10_1449,ANT,2021.2.3,59.83505866124753,
1,20,spatial,up,IC,R,,,,,,Block.xlsx,"你已经完成了整个实验（三个区组）。

请报告实验者已完成实验

非常感谢，再见！",1.5,0,1.5,right,LLRLL.png,,,,,0,1,1,1,2,21,69,19,,,,,,,,,,,,,,,,,,,,,,,,,,,,,,,,,,,,,,,,,,,,,,,,,,,,,,,,,,,,,,,,377.39616649993695,377.7969094000291,377.78097279998474,377.8819985999726,378.2823383999057,None,right,1,0.5232259000185877,378.2823383999057,None,377.78097279998474,377.8819985999726,377.8819985999726,None,378.83107279986143,None,,,,,,,11036,001,2024_Mar_10_1449,ANT,2021.2.3,59.83505866124753,
1,5,no,down,C,L,,,,,,Block.xlsx,"你已经完成了整个实验（三个区组）。

请报告实验者已完成实验

非常感谢，再见！",50,0,-1.5,left,LLLLL.png,,,,,0,1,1,1,2,22,70,4,,,,,,,,,,,,,,,,,,,,,,,,,,,,,,,,,,,,,,,,,,,,,,,,,,,,,,,,,,,,,,,,379.2327969998587,379.6330085999798,379.6165894998703,379.71777859982103,380.11731719993986,None,left,1,0.5601222000550479,380.11731719993986,None,379.6165894998703,379.71777859982103,379.71777859982103,None,380.7008662999142,None,,,,,,,11036,001,2024_Mar_10_1449,ANT,2021.2.3,59.83505866124753,
1,19,spatial,up,IC,L,,,,,,Block.xlsx,"你已经完成了整个实验（三个区组）。

请报告实验者已完成实验

非常感谢，再见！",1.5,0,1.5,left,RRLRR.png,,,,,0,1,1,1,2,23,71,18,,,,,,,,,,,,,,,,,,,,,,,,,,,,,,,,,,,,,,,,,,,,,,,,,,,,,,,,,,,,,,,,381.1012630998157,381.50306649995036,381.4852497000247,381.5873658999335,381.9867290998809,None,left,1,0.5788736001122743,381.9867290998809,None,381.4852497000247,381.5873658999335,381.5873658999335,None,382.58763720002025,None,,,,,,,11036,001,2024_Mar_10_1449,ANT,2021.2.3,59.83505866124753,
1,17,spatial,up,C,L,,,,,,Block.xlsx,"你已经完成了整个实验（三个区组）。

请报告实验者已完成实验

非常感谢，再见！",1.5,0,1.5,left,LLLLL.png,,,,,0,1,1,1,3,0,72,16,,,,,,,,,,,,,,,,,,,,,,,,,,,,,,,,,,,,,,,,,,,,,,,,,,,,,,,,,,,,,,,,382.9875707998872,383.38946879981086,383.3714447999373,383.472101100022,383.8727847998962,None,left,1,0.45261420006863773,383.8727847998962,None,383.3714447999373,383.472101100022,383.472101100022,None,384.35613039997406,None,,,,,,,11036,001,2024_Mar_10_1449,ANT,2021.2.3,59.83505866124753,
1,21,spatial,down,C,L,,,,,,Block.xlsx,"你已经完成了整个实验（三个区组）。

请报告实验者已完成实验

非常感谢，再见！",-1.5,0,-1.5,left,LLLLL.png,,,,,0,1,1,1,3,1,73,20,,,,,,,,,,,,,,,,,,,,,,,,,,,,,,,,,,,,,,,,,,,,,,,,,,,,,,,,,,,,,,,,384.7568921998609,385.15832169982605,385.14135599997826,385.2431319998577,385.6424250998534,None,left,1,0.5399571999441832,385.6424250998534,None,385.14135599997826,385.2431319998577,385.2431319998577,None,386.20888069993816,None,,,,,,,11036,001,2024_Mar_10_1449,ANT,2021.2.3,59.83505866124753,
1,22,spatial,down,C,R,,,,,,Block.xlsx,"你已经完成了整个实验（三个区组）。

请报告实验者已完成实验

非常感谢，再见！",-1.5,0,-1.5,right,RRRRR.png,,,,,0,1,1,1,3,2,74,21,,,,,,,,,,,,,,,,,,,,,,,,,,,,,,,,,,,,,,,,,,,,,,,,,,,,,,,,,,,,,,,,386.6101257998962,387.0108847999945,386.9953536998946,387.0945066998247,387.4944056000095,None,right,1,0.359209300018847,387.4944056000095,None,386.9953536998946,387.0945066998247,387.0945066998247,None,387.878259900026,None,,,,,,,11036,001,2024_Mar_10_1449,ANT,2021.2.3,59.83505866124753,
1,1,no,up,C,L,,,,,,Block.xlsx,"你已经完成了整个实验（三个区组）。

请报告实验者已完成实验

非常感谢，再见！",50,0,1.5,left,LLLLL.png,,,,,0,1,1,1,3,3,75,0,,,,,,,,,,,,,,,,,,,,,,,,,,,,,,,,,,,,,,,,,,,,,,,,,,,,,,,,,,,,,,,,388.2788678999059,388.681424099952,388.6633675999474,388.76416169991717,389.16340589988977,None,left,1,0.5861176999751478,389.16340589988977,None,388.6633675999474,388.76416169991717,388.76416169991717,None,389.76444999990053,None,,,,,,,11036,001,2024_Mar_10_1449,ANT,2021.2.3,59.83505866124753,
1,12,center,up,IC,R,,,,,,Block.xlsx,"你已经完成了整个实验（三个区组）。

请报告实验者已完成实验

非常感谢，再见！",0,50,1.5,right,LLRLL.png,,,,,0,1,1,1,3,4,76,11,,,,,,,,,,,,,,,,,,,,,,,,,,,,,,,,,,,,,,,,,,,,,,,,,,,,,,,,,,,,,,,,390.1656376000028,390.56749999988824,390.5488016998861,390.64899279992096,391.05026519997045,None,right,1,0.5163124999962747,391.05026519997045,None,390.5488016998861,390.64899279992096,390.64899279992096,None,391.58380519994535,None,,,,,,,11036,001,2024_Mar_10_1449,ANT,2021.2.3,59.83505866124753,
1,22,spatial,down,C,R,,,,,,Block.xlsx,"你已经完成了整个实验（三个区组）。

请报告实验者已完成实验

非常感谢，再见！",-1.5,0,-1.5,right,RRRRR.png,,,,,0,1,1,1,3,5,77,21,,,,,,,,,,,,,,,,,,,,,,,,,,,,,,,,,,,,,,,,,,,,,,,,,,,,,,,,,,,,,,,,391.9851849998813,392.3857587999664,392.36965069989674,392.4689778999891,392.8690422999207,None,right,1,0.5606619999743998,392.8690422999207,None,392.36965069989674,392.4689778999891,392.4689778999891,None,393.45330419996753,None,,,,,,,11036,001,2024_Mar_10_1449,ANT,2021.2.3,59.83505866124753,
1,16,center,down,IC,R,,,,,,Block.xlsx,"你已经完成了整个实验（三个区组）。

请报告实验者已完成实验

非常感谢，再见！",0,50,-1.5,right,LLRLL.png,,,,,0,1,1,1,3,6,78,15,,,,,,,,,,,,,,,,,,,,,,,,,,,,,,,,,,,,,,,,,,,,,,,,,,,,,,,,,,,,,,,,393.85390099999495,394.25453319982626,394.23902979982086,394.3399231999647,394.74010589998215,None,right,1,0.618506700033322,394.74010589998215,None,394.23902979982086,394.3399231999647,394.3399231999647,None,395.372671399964,None,,,,,,,11036,001,2024_Mar_10_1449,ANT,2021.2.3,59.83505866124753,
1,9,center,up,C,L,,,,,,Block.xlsx,"你已经完成了整个实验（三个区组）。

请报告实验者已完成实验

非常感谢，再见！",0,50,1.5,left,LLLLL.png,,,,,0,1,1,1,3,7,79,8,,,,,,,,,,,,,,,,,,,,,,,,,,,,,,,,,,,,,,,,,,,,,,,,,,,,,,,,,,,,,,,,395.77349499985576,396.1747601998504,396.157928599976,396.257397999987,396.65944119985215,None,left,1,0.4745036999229342,396.65944119985215,None,396.157928599976,396.257397999987,396.257397999987,None,397.15877909981646,None,,,,,,,11036,001,2024_Mar_10_1449,ANT,2021.2.3,59.83505866124753,
1,3,no,up,IC,L,,,,,,Block.xlsx,"你已经完成了整个实验（三个区组）。

请报告实验者已完成实验

非常感谢，再见！",50,0,1.5,left,RRLRR.png,,,,,0,1,1,1,3,8,80,2,,,,,,,,,,,,,,,,,,,,,,,,,,,,,,,,,,,,,,,,,,,,,,,,,,,,,,,,,,,,,,,,397.56050689984113,397.96047319984064,397.9434844998177,398.0444896998815,398.44504789984785,None,left,1,0.5132271000184119,398.44504789984785,None,397.9434844998177,398.0444896998815,398.0444896998815,None,398.9795988998376,None,,,,,,,11036,001,2024_Mar_10_1449,ANT,2021.2.3,59.83505866124753,
1,17,spatial,up,C,L,,,,,,Block.xlsx,"你已经完成了整个实验（三个区组）。

请报告实验者已完成实验

非常感谢，再见！",1.5,0,1.5,left,LLLLL.png,,,,,0,1,1,1,3,9,81,16,,,,,,,,,,,,,,,,,,,,,,,,,,,,,,,,,,,,,,,,,,,,,,,,,,,,,,,,,,,,,,,,399.3789695999585,399.7799823000096,399.76402179989964,399.8639648000244,400.26437489991076,None,left,1,0.49411970004439354,400.26437489991076,None,399.76402179989964,399.8639648000244,399.8639648000244,None,400.78098719986156,None,,,,,,,11036,001,2024_Mar_10_1449,ANT,2021.2.3,59.83505866124753,
1,15,center,down,IC,L,,,,,,Block.xlsx,"你已经完成了整个实验（三个区组）。

请报告实验者已完成实验

非常感谢，再见！",0,50,-1.5,left,RRLRR.png,,,,,0,1,1,1,3,10,82,14,,,,,,,,,,,,,,,,,,,,,,,,,,,,,,,,,,,,,,,,,,,,,,,,,,,,,,,,,,,,,,,,401.18207879993133,401.5822177999653,401.5664116998669,401.66744569991715,402.0662603999954,None,right,0,0.43589560012333095,402.0662603999954,None,401.5664116998669,401.66744569991715,401.66744569991715,None,402.51696199993603,None,,,,,,,11036,001,2024_Mar_10_1449,ANT,2021.2.3,59.83505866124753,
1,19,spatial,up,IC,L,,,,,,Block.xlsx,"你已经完成了整个实验（三个区组）。

请报告实验者已完成实验

非常感谢，再见！",1.5,0,1.5,left,RRLRR.png,,,,,0,1,1,1,3,11,83,18,,,,,,,,,,,,,,,,,,,,,,,,,,,,,,,,,,,,,,,,,,,,,,,,,,,,,,,,,,,,,,,,402.917611700017,403.3189105000347,403.3022346999496,403.4027527999133,403.8029827999417,None,left,1,0.5232758999336511,403.8029827999417,None,403.3022346999496,403.4027527999133,403.4027527999133,None,404.3531140999403,None,,,,,,,11036,001,2024_Mar_10_1449,ANT,2021.2.3,59.83505866124753,
1,14,center,down,C,R,,,,,,Block.xlsx,"你已经完成了整个实验（三个区组）。

请报告实验者已完成实验

非常感谢，再见！",0,50,-1.5,right,RRRRR.png,,,,,0,1,1,1,3,12,84,13,,,,,,,,,,,,,,,,,,,,,,,,,,,,,,,,,,,,,,,,,,,,,,,,,,,,,,,,,,,,,,,,404.7536823998671,405.15541829983704,405.1375372998882,405.2384556999896,405.64013949991204,None,right,1,0.46243979991413653,405.64013949991204,None,405.1375372998882,405.2384556999896,405.2384556999896,None,406.1223818999715,None,,,,,,,11036,001,2024_Mar_10_1449,ANT,2021.2.3,59.83505866124753,
1,21,spatial,down,C,L,,,,,,Block.xlsx,"你已经完成了整个实验（三个区组）。

请报告实验者已完成实验

非常感谢，再见！",-1.5,0,-1.5,left,LLLLL.png,,,,,0,1,1,1,3,13,85,20,,,,,,,,,,,,,,,,,,,,,,,,,,,,,,,,,,,,,,,,,,,,,,,,,,,,,,,,,,,,,,,,406.5230262998957,406.92372870002873,406.90787340002134,407.0088152999524,407.40836619981565,None,left,1,0.44604800012893975,407.40836619981565,None,406.90787340002134,407.0088152999524,407.0088152999524,None,407.87541969981976,None,,,,,,,11036,001,2024_Mar_10_1449,ANT,2021.2.3,59.83505866124753,
1,11,center,up,IC,L,,,,,,Block.xlsx,"你已经完成了整个实验（三个区组）。

请报告实验者已完成实验

非常感谢，再见！",0,50,1.5,left,RRLRR.png,,,,,0,1,1,1,3,14,86,10,,,,,,,,,,,,,,,,,,,,,,,,,,,,,,,,,,,,,,,,,,,,,,,,,,,,,,,,,,,,,,,,408.2764808998909,408.67761030001566,408.6595373998862,408.76100289984606,409.1603651000187,None,left,1,0.5580744000617415,409.1603651000187,None,408.6595373998862,408.76100289984606,408.76100289984606,None,409.7446590999607,None,,,,,,,11036,001,2024_Mar_10_1449,ANT,2021.2.3,59.83505866124753,
1,20,spatial,up,IC,R,,,,,,Block.xlsx,"你已经完成了整个实验（三个区组）。

请报告实验者已完成实验

非常感谢，再见！",1.5,0,1.5,right,LLRLL.png,,,,,0,1,1,1,3,15,87,19,,,,,,,,,,,,,,,,,,,,,,,,,,,,,,,,,,,,,,,,,,,,,,,,,,,,,,,,,,,,,,,,410.14598899986595,410.5466689998284,410.52955470001325,410.6295969998464,411.03052649996243,None,right,1,0.439964999910444,411.03052649996243,None,410.52955470001325,410.6295969998464,410.6295969998464,None,411.4980631999206,None,,,,,,,11036,001,2024_Mar_10_1449,ANT,2021.2.3,59.83505866124753,
1,9,center,up,C,L,,,,,,Block.xlsx,"你已经完成了整个实验（三个区组）。

请报告实验者已完成实验

非常感谢，再见！",0,50,1.5,left,LLLLL.png,,,,,0,1,1,1,3,16,88,8,,,,,,,,,,,,,,,,,,,,,,,,,,,,,,,,,,,,,,,,,,,,,,,,,,,,,,,,,,,,,,,,411.89893050002865,412.2989467999432,412.282170600025,412.38246540003456,412.78251809999347,None,left,1,0.37592270015738904,412.78251809999347,None,412.282170600025,412.38246540003456,412.38246540003456,None,413.1840089999605,None,,,,,,,11036,001,2024_Mar_10_1449,ANT,2021.2.3,59.83505866124753,
1,18,spatial,up,C,R,,,,,,Block.xlsx,"你已经完成了整个实验（三个区组）。

请报告实验者已完成实验

非常感谢，再见！",1.5,0,1.5,right,RRRRR.png,,,,,0,1,1,1,3,17,89,17,,,,,,,,,,,,,,,,,,,,,,,,,,,,,,,,,,,,,,,,,,,,,,,,,,,,,,,,,,,,,,,,413.5838190999348,413.98511949996464,413.96808049990796,414.0686842999421,414.46928750001825,None,right,1,0.3930919000413269,414.46928750001825,None,413.96808049990796,414.0686842999421,414.0686842999421,None,414.88740919996053,None,,,,,,,11036,001,2024_Mar_10_1449,ANT,2021.2.3,59.83505866124753,
1,23,spatial,down,IC,L,,,,,,Block.xlsx,"你已经完成了整个实验（三个区组）。

请报告实验者已完成实验

非常感谢，再见！",-1.5,0,-1.5,left,RRLRR.png,,,,,0,1,1,1,3,18,90,22,,,,,,,,,,,,,,,,,,,,,,,,,,,,,,,,,,,,,,,,,,,,,,,,,,,,,,,,,,,,,,,,415.28653539996594,415.6870786999352,415.67117369989865,415.7703688000329,416.1710059000179,None,left,1,0.41929570003412664,416.1710059000179,None,415.67117369989865,415.7703688000329,415.7703688000329,None,416.62191480002366,None,,,,,,,11036,001,2024_Mar_10_1449,ANT,2021.2.3,59.83505866124753,
1,4,no,up,IC,R,,,,,,Block.xlsx,"你已经完成了整个实验（三个区组）。

请报告实验者已完成实验

非常感谢，再见！",50,0,1.5,right,LLRLL.png,,,,,0,1,1,1,3,19,91,3,,,,,,,,,,,,,,,,,,,,,,,,,,,,,,,,,,,,,,,,,,,,,,,,,,,,,,,,,,,,,,,,417.0220623000059,417.42333919997327,417.40596469980665,417.50610839994624,417.90855849999934,None,right,1,0.6585075000766665,417.90855849999934,None,417.40596469980665,417.50610839994624,417.50610839994624,None,418.59137969999574,None,,,,,,,11036,001,2024_Mar_10_1449,ANT,2021.2.3,59.83505866124753,
1,4,no,up,IC,R,,,,,,Block.xlsx,"你已经完成了整个实验（三个区组）。

请报告实验者已完成实验

