TrialType,TrialNumber,WarningType,TargetType,FlankerType,TargetDirection,W,f,Y,corr,imageFile,condition,endtext,Yw,Yf,Yt,Corr,imagefile,trials_3.thisRepN,trials_3.thisTrialN,trials_3.thisN,trials_3.thisIndex,trials_2.thisRepN,trials_2.thisTrialN,trials_2.thisN,trials_2.thisIndex,trials.thisRepN,trials.thisTrialN,trials.thisN,trials.thisIndex,instr.started,instr.stopped,key_resp.keys,key_resp.rt,key_resp.started,key_resp.stopped,image.started,image.stopped,key_resp_6.keys,key_resp_6.rt,key_resp_6.started,key_resp_6.stopped,EX_L.started,EX_L.stopped,AL.started,AL.stopped,key_resp_7.keys,key_resp_7.rt,key_resp_7.started,key_resp_7.stopped,EX_R.started,EX_R.stopped,RR.started,RR.stopped,key_resp_8.keys,key_resp_8.rt,key_resp_8.started,key_resp_8.stopped,image_2.started,image_2.stopped,key_resp_9.keys,key_resp_9.rt,key_resp_9.started,key_resp_9.stopped,image_3.started,image_3.stopped,key_resp_10.keys,key_resp_10.rt,key_resp_10.started,key_resp_10.stopped,fix.started,fix.stopped,war.started,war.stopped,tar.started,tar.stopped,key_resp_4.keys,key_resp_4.corr,key_resp_4.started,key_resp_4.stopped,fix2.started,fix2.stopped,fix_2.started,fix_2.stopped,Feedback.started,Feedback.stopped,key_resp_4.rt,key_resp_2.keys,key_resp_2.rt,key_resp_2.started,key_resp_2.stopped,text_5.started,text_5.stopped,fix2_1.started,fix2_1.stopped,Warn.started,Warn.stopped,Tar.started,Tar.stopped,key_resp_5.keys,key_resp_5.corr,key_resp_5.rt,key_resp_5.started,key_resp_5.stopped,Fix_2.started,Fix_2.stopped,fix2_2.started,fix2_2.stopped,text_4.started,text_4.stopped,key_resp_3.keys,key_resp_3.rt,key_resp_3.started,key_resp_3.stopped,text_3.started,text_3.stopped,participant,session,date,expName,psychopyVersion,frameRate,
,,,,,,,,,,,,,,,,,,,,,,,,,,,,,,16.001945999916643,None,space,3.262842600001022,16.001945999916643,None,,,,,,,,,,,,,,,,,,,,,,,,,,,,,,,,,,,,,,,,,,,,,,,,,,,,,,,,,,,,,,,,,,,,,,,,,,,,,,,,,11032,001,2024_Jan_11_1554,ANT,2021.2.3,59.911379110676386,
,,,,,,,,,,,,,,,,,,,,,,,,,,,,,,,,,,,,19.28991589997895,None,space,14.303197300061584,19.28991589997895,None,,,,,,,,,,,,,,,,,,,,,,,,,,,,,,,,,,,,,,,,,,,,,,,,,,,,,,,,,,,,,,,,,,,,,,,,,,,11032,001,2024_Jan_11_1554,ANT,2021.2.3,59.911379110676386,
,,,,,,,,,,,,,,,,,,,,,,,,,,,,,,,,,,,,,,,,,,33.611183599801734,None,33.611183599801734,None,left,3.6618071999400854,33.611183599801734,None,,,,,,,,,,,,,,,,,,,,,,,,,,,,,,,,,,,,,,,,,,,,,,,,,,,,,,,,,,,,,,,,,,,11032,001,2024_Jan_11_1554,ANT,2021.2.3,59.911379110676386,
,,,,,,,,,,,,,,,,,,,,,,,,,,,,,,,,,,,,,,,,,,,,,,,,,,37.301340399775654,None,37.301340399775654,None,right,1.771394999930635,37.301340399775654,None,,,,,,,,,,,,,,,,,,,,,,,,,,,,,,,,,,,,,,,,,,,,,,,,,,,,,,,,,,,11032,001,2024_Jan_11_1554,ANT,2021.2.3,59.911379110676386,
,,,,,,,,,,,,,,,,,,,,,,,,,,,,,,,,,,,,,,,,,,,,,,,,,,,,,,,,,,39.10259359981865,None,space,20.330867799930274,39.10259359981865,None,,,,,,,,,,,,,,,,,,,,,,,,,,,,,,,,,,,,,,,,,,,,,,,,,,,,,11032,001,2024_Jan_11_1554,ANT,2021.2.3,59.911379110676386,
,,,,,,,,,,,,,,,,,,,,,,,,,,,,,,,,,,,,,,,,,,,,,,,,,,,,,,,,,,,,,,,,59.45077449991368,None,space,13.310330200009048,59.45077449991368,None,,,,,,,,,,,,,,,,,,,,,,,,,,,,,,,,,,,,,,,,,,,,,,,11032,001,2024_Jan_11_1554,ANT,2021.2.3,59.911379110676386,
0,5,center,up,C,L,0,50,1.5,left,LLLLL.png,,,,,,,,0,0,0,4,,,,,,,,,,,,,,,,,,,,,,,,,,,,,,,,,,,,,,,,,,,,,,,,,72.85214179987088,73.25541569991037,73.23733399994671,73.3376064999029,73.73785049980506,None,None,0,73.73785049980506,None,73.23733399994671,73.3376064999029,73.3376064999029,None,75.39004359999672,None,,,,,,,,,,,,,,,,,,,,,,,,,,,,,,,11032,001,2024_Jan_11_1554,ANT,2021.2.3,59.911379110676386,
0,11,spatial,down,C,L,-1.5,0,-1.5,left,LLLLL.png,,,,,,,,0,1,1,10,,,,,,,,,,,,,,,,,,,,,,,,,,,,,,,,,,,,,,,,,,,,,,,,,77.39359049987979,77.7959000999108,77.77719379984774,77.87764059985057,78.27883549989201,None,left,1,78.27883549989201,None,77.77719379984774,77.87764059985057,77.87764059985057,None,78.99588919989765,None,0.6741019999608397,,,,,,,,,,,,,,,,,,,,,,,,,,,,,,11032,001,2024_Jan_11_1554,ANT,2021.2.3,59.911379110676386,
0,8,center,down,IC,L,0,50,-1.5,left,RRLRR.png,,,,,,,,0,2,2,7,,,,,,,,,,,,,,,,,,,,,,,,,,,,,,,,,,,,,,,,,,,,,,,,,80.99851619987749,81.40055009978823,81.38262499985285,81.48320889985189,81.88495579990558,None,left,1,81.88495579990558,None,81.38262499985285,81.48320889985189,81.48320889985189,None,82.60044499998912,None,0.6999844000674784,,,,,,,,,,,,,,,,,,,,,,,,,,,,,,11032,001,2024_Jan_11_1554,ANT,2021.2.3,59.911379110676386,
0,9,spatial,up,C,R,1.5,0,1.5,right,RRRRR.png,,,,,,,,0,3,3,8,,,,,,,,,,,,,,,,,,,,,,,,,,,,,,,,,,,,,,,,,,,,,,,,,84.60379859991372,85.00592359993607,84.98789579980075,85.08846159977838,85.48929729987867,None,right,1,85.48929729987867,None,84.98789579980075,85.08846159977838,85.08846159977838,None,86.0223023998551,None,0.5037475000135601,,,,,,,,,,,,,,,,,,,,,,,,,,,,,,11032,001,2024_Jan_11_1554,ANT,2021.2.3,59.911379110676386,
0,10,spatial,up,IC,L,1.5,0,1.5,left,RRLRR.png,,,,,,,,0,4,4,9,,,,,,,,,,,,,,,,,,,,,,,,,,,,,,,,,,,,,,,,,,,,,,,,,88.02625169977546,88.42645939998329,88.41004049987532,88.50930859986693,88.91164559987374,None,left,1,88.91164559987374,None,88.41004049987532,88.50930859986693,88.50930859986693,None,89.52734909998253,None,0.5852072001434863,,,,,,,,,,,,,,,,,,,,,,,,,,,,,,11032,001,2024_Jan_11_1554,ANT,2021.2.3,59.911379110676386,
0,3,no,down,C,R,50,0,-1.5,right,RRRRR.png,,,,,,,,0,5,5,2,,,,,,,,,,,,,,,,,,,,,,,,,,,,,,,,,,,,,,,,,,,,,,,,,91.53187119984068,91.9326710999012,91.9145744999405,92.01506279991008,92.41590069979429,None,right,1,92.41590069979429,None,91.9145744999405,92.01506279991008,92.01506279991008,None,93.08307689987123,None,0.6498870998620987,,,,,,,,,,,,,,,,,,,,,,,,,,,,,,11032,001,2024_Jan_11_1554,ANT,2021.2.3,59.911379110676386,
0,12,spatial,down,IC,R,-1.5,0,-1.5,right,LLRLL.png,,,,,,,,0,6,6,11,,,,,,,,,,,,,,,,,,,,,,,,,,,,,,,,,,,,,,,,,,,,,,,,,95.08607479999773,95.48757229978219,95.46974529977888,95.57051439979114,95.9704549999442,None,right,1,95.9704549999442,None,95.46974529977888,95.57051439979114,95.57051439979114,None,96.57124429987743,None,0.5830546000506729,,,,,,,,,,,,,,,,,,,,,,,,,,,,,,11032,001,2024_Jan_11_1554,ANT,2021.2.3,59.911379110676386,
0,4,no,down,IC,L,50,0,-1.5,left,RRLRR.png,,,,,,,,0,7,7,3,,,,,,,,,,,,,,,,,,,,,,,,,,,,,,,,,,,,,,,,,,,,,,,,,98.57555179996416,98.97556829988025,98.95944229979068,99.05904559977353,99.4599785997998,None,left,1,99.4599785997998,None,98.95944229979068,99.05904559977353,99.05904559977353,None,100.14341849996708,None,0.6534655999857932,,,,,,,,,,,,,,,,,,,,,,,,,,,,,,11032,001,2024_Jan_11_1554,ANT,2021.2.3,59.911379110676386,
0,2,no,up,IC,R,50,0,1.5,right,LLRLL.png,,,,,,,,0,8,8,1,,,,,,,,,,,,,,,,,,,,,,,,,,,,,,,,,,,,,,,,,,,,,,,,,102.14694759994745,102.54700319981202,102.5309753997717,102.63023719983175,103.03139609983191,None,right,1,103.03139609983191,None,102.5309753997717,102.63023719983175,102.63023719983175,None,103.81541049992666,None,0.7618080999236554,,,,,,,,,,,,,,,,,,,,,,,,,,,,,,11032,001,2024_Jan_11_1554,ANT,2021.2.3,59.911379110676386,
0,1,no,up,C,L,50,0,1.5,left,LLLLL.png,,,,,,,,0,9,9,0,,,,,,,,,,,,,,,,,,,,,,,,,,,,,,,,,,,,,,,,,,,,,,,,,105.8189675998874,106.22008689981885,106.20480599999428,106.30304709984921,106.70509839989245,None,left,1,106.70509839989245,None,106.20480599999428,106.30304709984921,106.30304709984921,None,107.27096599992365,None,0.5359380999580026,,,,,,,,,,,,,,,,,,,,,,,,,,,,,,11032,001,2024_Jan_11_1554,ANT,2021.2.3,59.911379110676386,
0,7,center,down,C,R,0,50,-1.5,right,RRRRR.png,,,,,,,,0,10,10,6,,,,,,,,,,,,,,,,,,,,,,,,,,,,,,,,,,,,,,,,,,,,,,,,,109.27350169979036,109.67393719987012,109.65924709988758,109.75938499998301,110.15809929999523,None,right,1,110.15809929999523,None,109.65924709988758,109.75938499998301,109.75938499998301,None,110.65923049999401,None,0.4834722999949008,,,,,,,,,,,,,,,,,,,,,,,,,,,,,,11032,001,2024_Jan_11_1554,ANT,2021.2.3,59.911379110676386,
0,6,center,up,IC,R,0,50,1.5,right,LLRLL.png,,,,,,,,0,11,11,5,,,,,,,,,,,,,,,,,,,,,,,,,,,,,,,,,,,,,,,,,,,,,,,,,112.66165199992247,113.06276419991627,113.04637829982676,113.1473724998068,113.54645519983023,None,right,1,113.54645519983023,None,113.04637829982676,113.1473724998068,113.1473724998068,None,114.231150199892,None,0.6546296000014991,,,,,,,,,,,,,,,,,,,,,,,,,,,,,,11032,001,2024_Jan_11_1554,ANT,2021.2.3,59.911379110676386,
,,,,,,,,,,,,,,,,,,,,,,,,,,,,,,,,,,,,,,,,,,,,,,,,,,,,,,,,,,,,,,,,,,,,,,,,,,,,,,,,,,,,,,,space,3.5514424999710172,116.23447209992446,None,,,,,,,,,,,,,,,,,,,,,,,,,,11032,001,2024_Jan_11_1554,ANT,2021.2.3,59.911379110676386,
1,11,center,up,IC,L,,,,,,Block.xlsx,"你已经完成了第一个实验区组

请稍作休息


点击空格键进入下一个区组。",0,50,1.5,left,RRLRR.png,,,,,0,0,0,0,0,0,0,10,,,,,,,,,,,,,,,,,,,,,,,,,,,,,,,,,,,,,,,,,,,,,,,,,,,,,,,,,,,,,,116.23447209992446,None,119.84051239979453,120.23986109998077,120.22429639985785,120.3240771999117,120.72381529980339,None,left,1,0.5813414000440389,120.72381529980339,None,120.22429639985785,120.3240771999117,120.3240771999117,None,121.32467959984206,None,,,,,,,11032,001,2024_Jan_11_1554,ANT,2021.2.3,59.911379110676386,
1,17,spatial,up,C,L,,,,,,Block.xlsx,"你已经完成了第一个实验区组

请稍作休息


点击空格键进入下一个区组。",1.5,0,1.5,left,LLLLL.png,,,,,0,0,0,0,0,1,1,16,,,,,,,,,,,,,,,,,,,,,,,,,,,,,,,,,,,,,,,,,,,,,,,,,,,,,,,,,,,,,,,,121.72541620000266,122.12648439989425,122.1097397999838,122.21052229986526,122.61105219996534,None,left,1,0.478063500020653,122.61105219996534,None,122.1097397999838,122.21052229986526,122.21052229986526,None,123.11050679977052,None,,,,,,,11032,001,2024_Jan_11_1554,ANT,2021.2.3,59.911379110676386,
1,20,spatial,up,IC,R,,,,,,Block.xlsx,"你已经完成了第一个实验区组

请稍作休息


点击空格键进入下一个区组。",1.5,0,1.5,right,LLRLL.png,,,,,0,0,0,0,0,2,2,19,,,,,,,,,,,,,,,,,,,,,,,,,,,,,,,,,,,,,,,,,,,,,,,,,,,,,,,,,,,,,,,,123.51128619979136,123.91256379988045,123.89706039987504,123.99624009989202,124.39587559993379,None,right,1,0.4133382001891732,124.39587559993379,None,123.89706039987504,123.99624009989202,123.99624009989202,None,124.83088359981775,None,,,,,,,11032,001,2024_Jan_11_1554,ANT,2021.2.3,59.911379110676386,
1,24,spatial,down,IC,R,,,,,,Block.xlsx,"你已经完成了第一个实验区组

请稍作休息


点击空格键进入下一个区组。",-1.5,0,-1.5,right,LLRLL.png,,,,,0,0,0,0,0,3,3,23,,,,,,,,,,,,,,,,,,,,,,,,,,,,,,,,,,,,,,,,,,,,,,,,,,,,,,,,,,,,,,,,125.23042639996856,125.63191199977882,125.61613489990123,125.73157789977267,126.11533259996213,None,right,1,0.5015861000865698,126.11533259996213,None,125.61613489990123,125.73157789977267,125.71431309985928,None,126.63236319995485,None,,,,,,,11032,001,2024_Jan_11_1554,ANT,2021.2.3,59.911379110676386,
1,23,spatial,down,IC,L,,,,,,Block.xlsx,"你已经完成了第一个实验区组

请稍作休息


点击空格键进入下一个区组。",-1.5,0,-1.5,left,RRLRR.png,,,,,0,0,0,0,0,4,4,22,,,,,,,,,,,,,,,,,,,,,,,,,,,,,,,,,,,,,,,,,,,,,,,,,,,,,,,,,,,,,,,,127.033360599773,127.43433689977974,127.41781959985383,127.51771509996615,127.92021139990538,None,left,1,0.45673369988799095,127.92021139990538,None,127.41781959985383,127.51771509996615,127.51771509996615,None,128.40175499999896,None,,,,,,,11032,001,2024_Jan_11_1554,ANT,2021.2.3,59.911379110676386,
1,7,no,down,IC,L,,,,,,Block.xlsx,"你已经完成了第一个实验区组

请稍作休息


点击空格键进入下一个区组。",50,0,-1.5,left,RRLRR.png,,,,,0,0,0,0,0,5,5,6,,,,,,,,,,,,,,,,,,,,,,,,,,,,,,,,,,,,,,,,,,,,,,,,,,,,,,,,,,,,,,,,128.80293789994903,129.20473909983411,129.18720639985986,129.2882329998538,129.68783689988777,None,left,1,0.537054399959743,129.68783689988777,None,129.18720639985986,129.2882329998538,129.2882329998538,None,130.2547959999647,None,,,,,,,11032,001,2024_Jan_11_1554,ANT,2021.2.3,59.911379110676386,
1,12,center,up,IC,R,,,,,,Block.xlsx,"你已经完成了第一个实验区组

请稍作休息


点击空格键进入下一个区组。",0,50,1.5,right,LLRLL.png,,,,,0,0,0,0,0,6,6,11,,,,,,,,,,,,,,,,,,,,,,,,,,,,,,,,,,,,,,,,,,,,,,,,,,,,,,,,,,,,,,,,130.656120599946,131.05658049997874,131.03987609990872,131.1397822999861,131.54198779980652,None,right,1,0.6590199999045581,131.54198779980652,None,131.03987609990872,131.1397822999861,131.1397822999861,None,132.22425679978915,None,,,,,,,11032,001,2024_Jan_11_1554,ANT,2021.2.3,59.911379110676386,
1,1,no,up,C,L,,,,,,Block.xlsx,"你已经完成了第一个实验区组

请稍作休息


点击空格键进入下一个区组。",50,0,1.5,left,LLLLL.png,,,,,0,0,0,0,0,7,7,0,,,,,,,,,,,,,,,,,,,,,,,,,,,,,,,,,,,,,,,,,,,,,,,,,,,,,,,,,,,,,,,,132.6248495997861,133.02594259986654,133.00911339977756,133.10876649990678,133.51081879995763,None,left,1,0.522821000078693,133.51081879995763,None,133.00911339977756,133.10876649990678,133.10876649990678,None,134.06037119985558,None,,,,,,,11032,001,2024_Jan_11_1554,ANT,2021.2.3,59.911379110676386,
1,24,spatial,down,IC,R,,,,,,Block.xlsx,"你已经完成了第一个实验区组

请稍作休息


点击空格键进入下一个区组。",-1.5,0,-1.5,right,LLRLL.png,,,,,0,0,0,0,0,8,8,23,,,,,,,,,,,,,,,,,,,,,,,,,,,,,,,,,,,,,,,,,,,,,,,,,,,,,,,,,,,,,,,,134.46089339978062,134.86283519980498,134.84542019991204,134.94654879998416,135.3469919997733,None,right,1,0.4062135999556631,135.3469919997733,None,134.84542019991204,134.94654879998416,134.94654879998416,None,135.7791821998544,None,,,,,,,11032,001,2024_Jan_11_1554,ANT,2021.2.3,59.911379110676386,
1,14,center,down,C,R,,,,,,Block.xlsx,"你已经完成了第一个实验区组

请稍作休息


点击空格键进入下一个区组。",0,50,-1.5,right,RRRRR.png,,,,,0,0,0,0,0,9,9,13,,,,,,,,,,,,,,,,,,,,,,,,,,,,,,,,,,,,,,,,,,,,,,,,,,,,,,,,,,,,,,,,136.18002209998667,136.58108519995585,136.5650424999185,136.66421909979545,137.06636569998227,None,right,1,0.454666200093925,137.06636569998227,None,136.5650424999185,136.66421909979545,136.66421909979545,None,137.5493799999822,None,,,,,,,11032,001,2024_Jan_11_1554,ANT,2021.2.3,59.911379110676386,
1,11,center,up,IC,L,,,,,,Block.xlsx,"你已经完成了第一个实验区组

请稍作休息


点击空格键进入下一个区组。",0,50,1.5,left,RRLRR.png,,,,,0,0,0,0,0,10,10,10,,,,,,,,,,,,,,,,,,,,,,,,,,,,,,,,,,,,,,,,,,,,,,,,,,,,,,,,,,,,,,,,137.94935179990716,138.35085349995643,138.33393249986693,138.4341962998733,138.83521059993654,None,left,1,0.5176951999310404,138.83521059993654,None,138.33393249986693,138.4341962998733,138.4341962998733,None,139.3680223999545,None,,,,,,,11032,001,2024_Jan_11_1554,ANT,2021.2.3,59.911379110676386,
1,23,spatial,down,IC,L,,,,,,Block.xlsx,"你已经完成了第一个实验区组

请稍作休息


点击空格键进入下一个区组。",-1.5,0,-1.5,left,RRLRR.png,,,,,0,0,0,0,0,11,11,22,,,,,,,,,,,,,,,,,,,,,,,,,,,,,,,,,,,,,,,,,,,,,,,,,,,,,,,,,,,,,,,,139.76913959998637,140.17048669978976,140.15299279987812,140.2528448998928,140.6540975999087,None,left,1,0.5310280998237431,140.6540975999087,None,140.15299279987812,140.2528448998928,140.2528448998928,None,141.20448279986158,None,,,,,,,11032,001,2024_Jan_11_1554,ANT,2021.2.3,59.911379110676386,
1,20,spatial,up,IC,R,,,,,,Block.xlsx,"你已经完成了第一个实验区组

请稍作休息


点击空格键进入下一个区组。",1.5,0,1.5,right,LLRLL.png,,,,,0,0,0,0,0,12,12,19,,,,,,,,,,,,,,,,,,,,,,,,,,,,,,,,,,,,,,,,,,,,,,,,,,,,,,,,,,,,,,,,141.60482029989362,142.00675799977034,141.9892009999603,142.089648099849,142.49134929990396,None,right,1,0.40589119982905686,142.49134929990396,None,141.9892009999603,142.089648099849,142.089648099849,None,142.92329079983756,None,,,,,,,11032,001,2024_Jan_11_1554,ANT,2021.2.3,59.911379110676386,
1,2,no,up,C,R,,,,,,Block.xlsx,"你已经完成了第一个实验区组

请稍作休息


点击空格键进入下一个区组。",50,0,1.5,right,RRRRR.png,,,,,0,0,0,0,0,13,13,1,,,,,,,,,,,,,,,,,,,,,,,,,,,,,,,,,,,,,,,,,,,,,,,,,,,,,,,,,,,,,,,,143.3241643998772,143.72455119993538,143.70836009993218,143.80945739988238,144.21001339983195,None,None,0,,144.21001339983195,None,143.70836009993218,143.80945739988238,143.80945739988238,None,145.91170819988474,None,,,,,,,11032,001,2024_Jan_11_1554,ANT,2021.2.3,59.911379110676386,
1,5,no,down,C,L,,,,,,Block.xlsx,"你已经完成了第一个实验区组

请稍作休息


点击空格键进入下一个区组。",50,0,-1.5,left,LLLLL.png,,,,,0,0,0,0,0,14,14,4,,,,,,,,,,,,,,,,,,,,,,,,,,,,,,,,,,,,,,,,,,,,,,,,,,,,,,,,,,,,,,,,146.31176509987563,146.71311399992555,146.69612219999544,146.79630879987963,147.19728529988788,None,left,1,0.5642597998958081,147.19728529988788,None,146.69612219999544,146.79630879987963,146.79630879987963,None,147.78053069999442,None,,,,,,,11032,001,2024_Jan_11_1554,ANT,2021.2.3,59.911379110676386,
1,15,center,down,IC,L,,,,,,Block.xlsx,"你已经完成了第一个实验区组

请稍作休息


点击空格键进入下一个区组。",0,50,-1.5,left,RRLRR.png,,,,,0,0,0,0,0,15,15,14,,,,,,,,,,,,,,,,,,,,,,,,,,,,,,,,,,,,,,,,,,,,,,,,,,,,,,,,,,,,,,,,148.18128779996186,148.5829146998003,148.56596529996023,148.66531979991123,149.0662610998843,None,left,1,0.5187455001287162,149.0662610998843,None,148.56596529996023,148.66531979991123,148.66531979991123,None,149.59989609988406,None,,,,,,,11032,001,2024_Jan_11_1554,ANT,2021.2.3,59.911379110676386,
1,2,no,up,C,R,,,,,,Block.xlsx,"你已经完成了第一个实验区组

请稍作休息


点击空格键进入下一个区组。",50,0,1.5,right,RRRRR.png,,,,,0,0,0,0,0,16,16,1,,,,,,,,,,,,,,,,,,,,,,,,,,,,,,,,,,,,,,,,,,,,,,,,,,,,,,,,,,,,,,,,150.0009690998122,150.4020872998517,150.38511109980755,150.4860082999803,150.88747099996544,None,right,1,0.5622664000838995,150.88747099996544,None,150.38511109980755,150.4860082999803,150.4860082999803,None,151.4699110998772,None,,,,,,,11032,001,2024_Jan_11_1554,ANT,2021.2.3,59.911379110676386,
1,2,no,up,C,R,,,,,,Block.xlsx,"你已经完成了第一个实验区组

请稍作休息


点击空格键进入下一个区组。",50,0,1.5,right,RRRRR.png,,,,,0,0,0,0,0,17,17,1,,,,,,,,,,,,,,,,,,,,,,,,,,,,,,,,,,,,,,,,,,,,,,,,,,,,,,,,,,,,,,,,151.86990659986623,152.27180679980665,152.25410609995015,152.35465149977244,152.75676419981755,None,right,1,0.36559269996359944,152.75676419981755,None,152.25410609995015,152.35465149977244,152.35465149977244,None,153.13843609998003,None,,,,,,,11032,001,2024_Jan_11_1554,ANT,2021.2.3,59.911379110676386,
1,7,no,down,IC,L,,,,,,Block.xlsx,"你已经完成了第一个实验区组

请稍作休息


点击空格键进入下一个区组。",50,0,-1.5,left,RRLRR.png,,,,,0,0,0,0,0,18,18,6,,,,,,,,,,,,,,,,,,,,,,,,,,,,,,,,,,,,,,,,,,,,,,,,,,,,,,,,,,,,,,,,153.53902719984762,153.9402504998725,153.9243255998008,154.0232881999109,154.42468009982258,None,left,1,0.6169823999516666,154.42468009982258,None,153.9243255998008,154.0232881999109,154.0232881999109,None,155.05898289987817,None,,,,,,,11032,001,2024_Jan_11_1554,ANT,2021.2.3,59.911379110676386,
1,10,center,up,C,R,,,,,,Block.xlsx,"你已经完成了第一个实验区组

请稍作休息


点击空格键进入下一个区组。",0,50,1.5,right,RRRRR.png,,,,,0,0,0,0,0,19,19,9,,,,,,,,,,,,,,,,,,,,,,,,,,,,,,,,,,,,,,,,,,,,,,,,,,,,,,,,,,,,,,,,155.45861709979363,155.8598895999603,155.84326879982837,155.944420899963,156.34531029989012,None,right,1,0.39174049999564886,156.34531029989012,None,155.84326879982837,155.944420899963,155.944420899963,None,156.76114589977078,None,,,,,,,11032,001,2024_Jan_11_1554,ANT,2021.2.3,59.911379110676386,
1,10,center,up,C,R,,,,,,Block.xlsx,"你已经完成了第一个实验区组

请稍作休息


点击空格键进入下一个区组。",0,50,1.5,right,RRRRR.png,,,,,0,0,0,0,0,20,20,9,,,,,,,,,,,,,,,,,,,,,,,,,,,,,,,,,,,,,,,,,,,,,,,,,,,,,,,,,,,,,,,,157.16123889992014,157.56376529997215,157.54582759994082,157.6454390999861,158.04660579981282,None,right,1,0.4263651000801474,158.04660579981282,None,157.54582759994082,157.6454390999861,157.6454390999861,None,158.49630679981783,None,,,,,,,11032,001,2024_Jan_11_1554,ANT,2021.2.3,59.911379110676386,
1,13,center,down,C,L,,,,,,Block.xlsx,"你已经完成了第一个实验区组

请稍作休息


点击空格键进入下一个区组。",0,50,-1.5,left,LLLLL.png,,,,,0,0,0,0,0,21,21,12,,,,,,,,,,,,,,,,,,,,,,,,,,,,,,,,,,,,,,,,,,,,,,,,,,,,,,,,,,,,,,,,158.89720469992608,159.29928379994817,159.282196899876,159.38178069982678,159.78278099978343,None,left,1,0.4263247000053525,159.78278099978343,None,159.282196899876,159.38178069982678,159.38178069982678,None,160.232312399894,None,,,,,,,11032,001,2024_Jan_11_1554,ANT,2021.2.3,59.911379110676386,
1,17,spatial,up,C,L,,,,,,Block.xlsx,"你已经完成了第一个实验区组

请稍作休息


点击空格键进入下一个区组。",1.5,0,1.5,left,LLLLL.png,,,,,0,0,0,0,0,22,22,16,,,,,,,,,,,,,,,,,,,,,,,,,,,,,,,,,,,,,,,,,,,,,,,,,,,,,,,,,,,,,,,,160.63294879999012,161.03540489985608,161.01742629986256,161.1182155997958,161.51925709983334,None,left,1,0.4822391998022795,161.51925709983334,None,161.01742629986256,161.1182155997958,161.1182155997958,None,162.0181674999185,None,,,,,,,11032,001,2024_Jan_11_1554,ANT,2021.2.3,59.911379110676386,
1,18,spatial,up,C,R,,,,,,Block.xlsx,"你已经完成了第一个实验区组

请稍作休息


点击空格键进入下一个区组。",1.5,0,1.5,right,RRRRR.png,,,,,0,0,0,0,0,23,23,17,,,,,,,,,,,,,,,,,,,,,,,,,,,,,,,,,,,,,,,,,,,,,,,,,,,,,,,,,,,,,,,,162.41967579978518,162.82009619986638,162.80321679986082,162.90451019979082,163.30348659981973,None,right,1,0.44957089982926846,163.30348659981973,None,162.80321679986082,162.90451019979082,162.90451019979082,None,163.77087569981813,None,,,,,,,11032,001,2024_Jan_11_1554,ANT,2021.2.3,59.911379110676386,
1,18,spatial,up,C,R,,,,,,Block.xlsx,"你已经完成了第一个实验区组

请稍作休息


点击空格键进入下一个区组。",1.5,0,1.5,right,RRRRR.png,,,,,0,0,0,0,1,0,24,17,,,,,,,,,,,,,,,,,,,,,,,,,,,,,,,,,,,,,,,,,,,,,,,,,,,,,,,,,,,,,,,,164.17128579993732,164.5730073999148,164.55626099999063,164.65658229985274,165.0565566997975,None,right,1,0.40112249995581806,165.0565566997975,None,164.55626099999063,164.65658229985274,164.65658229985274,None,165.47383219981566,None,,,,,,,11032,001,2024_Jan_11_1554,ANT,2021.2.3,59.911379110676386,
1,6,no,down,C,R,,,,,,Block.xlsx,"你已经完成了第一个实验区组

请稍作休息


点击空格键进入下一个区组。",50,0,-1.5,right,RRRRR.png,,,,,0,0,0,0,1,1,25,5,,,,,,,,,,,,,,,,,,,,,,,,,,,,,,,,,,,,,,,,,,,,,,,,,,,,,,,,,,,,,,,,165.87385239987634,166.27491799998097,166.2587019999046,166.35870709992014,166.75948809995316,None,right,1,0.5543172999750823,166.75948809995316,None,166.2587019999046,166.35870709992014,166.35870709992014,None,167.3428500997834,None,,,,,,,11032,001,2024_Jan_11_1554,ANT,2021.2.3,59.911379110676386,
1,5,no,down,C,L,,,,,,Block.xlsx,"你已经完成了第一个实验区组

请稍作休息


点击空格键进入下一个区组。",50,0,-1.5,left,LLLLL.png,,,,,0,0,0,0,1,2,26,4,,,,,,,,,,,,,,,,,,,,,,,,,,,,,,,,,,,,,,,,,,,,,,,,,,,,,,,,,,,,,,,,167.74355979985557,168.14462159993127,168.12804839992896,168.22922009998,168.62880519987084,None,left,1,0.5082014000508934,168.62880519987084,None,168.12804839992896,168.22922009998,168.22922009998,None,169.16210939991288,None,,,,,,,11032,001,2024_Jan_11_1554,ANT,2021.2.3,59.911379110676386,
1,23,spatial,down,IC,L,,,,,,Block.xlsx,"你已经完成了第一个实验区组

请稍作休息


点击空格键进入下一个区组。",-1.5,0,-1.5,left,RRLRR.png,,,,,0,0,0,0,1,3,27,22,,,,,,,,,,,,,,,,,,,,,,,,,,,,,,,,,,,,,,,,,,,,,,,,,,,,,,,,,,,,,,,,169.56420069979504,169.9634796997998,169.9483927998226,170.0469253999181,170.44776609982364,None,left,1,0.466097499942407,170.44776609982364,None,169.9483927998226,170.0469253999181,170.0469253999181,None,170.9315233998932,None,,,,,,,11032,001,2024_Jan_11_1554,ANT,2021.2.3,59.911379110676386,
1,6,no,down,C,R,,,,,,Block.xlsx,"你已经完成了第一个实验区组

请稍作休息


点击空格键进入下一个区组。",50,0,-1.5,right,RRRRR.png,,,,,0,0,0,0,1,4,28,5,,,,,,,,,,,,,,,,,,,,,,,,,,,,,,,,,,,,,,,,,,,,,,,,,,,,,,,,,,,,,,,,171.3319941998925,171.7333410999272,171.7165882999543,171.81700429995544,172.21733179991134,None,right,1,0.43969269981607795,172.21733179991134,None,171.7165882999543,171.81700429995544,171.81700429995544,None,172.68398919980973,None,,,,,,,11032,001,2024_Jan_11_1554,ANT,2021.2.3,59.911379110676386,
1,14,center,down,C,R,,,,,,Block.xlsx,"你已经完成了第一个实验区组

请稍作休息


点击空格键进入下一个区组。",0,50,-1.5,right,RRRRR.png,,,,,0,0,0,0,1,5,29,13,,,,,,,,,,,,,,,,,,,,,,,,,,,,,,,,,,,,,,,,,,,,,,,,,,,,,,,,,,,,,,,,173.08516709995456,173.48616209998727,173.4708559999708,173.56863289978355,173.97071149991825,None,right,1,0.43826070008799434,173.97071149991825,None,173.4708559999708,173.56863289978355,173.56863289978355,None,174.43674509995617,None,,,,,,,11032,001,2024_Jan_11_1554,ANT,2021.2.3,59.911379110676386,
1,6,no,down,C,R,,,,,,Block.xlsx,"你已经完成了第一个实验区组

请稍作休息


点击空格键进入下一个区组。",50,0,-1.5,right,RRRRR.png,,,,,0,0,0,0,1,6,30,5,,,,,,,,,,,,,,,,,,,,,,,,,,,,,,,,,,,,,,,,,,,,,,,,,,,,,,,,,,,,,,,,174.8370998997707,175.24026889982633,175.22208449989557,175.3215804998763,175.7224709999282,None,right,1,0.3908473998308182,175.7224709999282,None,175.22208449989557,175.3215804998763,175.3215804998763,None,176.13909729989246,None,,,,,,,11032,001,2024_Jan_11_1554,ANT,2021.2.3,59.911379110676386,
1,24,spatial,down,IC,R,,,,,,Block.xlsx,"你已经完成了第一个实验区组

请稍作休息


点击空格键进入下一个区组。",-1.5,0,-1.5,right,LLRLL.png,,,,,0,0,0,0,1,7,31,23,,,,,,,,,,,,,,,,,,,,,,,,,,,,,,,,,,,,,,,,,,,,,,,,,,,,,,,,,,,,,,,,176.54042109986767,176.94046089984477,176.92445129994303,177.02380079985596,177.42636119993404,None,right,1,0.5589766998309642,177.42636119993404,None,176.92445129994303,177.02380079985596,177.02380079985596,None,178.00855259993114,None,,,,,,,11032,001,2024_Jan_11_1554,ANT,2021.2.3,59.911379110676386,
1,7,no,down,IC,L,,,,,,Block.xlsx,"你已经完成了第一个实验区组

请稍作休息


点击空格键进入下一个区组。",50,0,-1.5,left,RRLRR.png,,,,,0,0,0,0,1,8,32,6,,,,,,,,,,,,,,,,,,,,,,,,,,,,,,,,,,,,,,,,,,,,,,,,,,,,,,,,,,,,,,,,178.40984659991227,178.81001419993117,178.79488549986854,178.89505029981956,179.29450779990293,None,left,1,0.5387408998794854,179.29450779990293,None,178.79488549986854,178.89505029981956,178.89505029981956,None,179.86127299978398,None,,,,,,,11032,001,2024_Jan_11_1554,ANT,2021.2.3,59.911379110676386,
1,10,center,up,C,R,,,,,,Block.xlsx,"你已经完成了第一个实验区组

请稍作休息


点击空格键进入下一个区组。",0,50,1.5,right,RRRRR.png,,,,,0,0,0,0,1,9,33,9,,,,,,,,,,,,,,,,,,,,,,,,,,,,,,,,,,,,,,,,,,,,,,,,,,,,,,,,,,,,,,,,180.2619605998043,180.66364749986678,180.6464415998198,180.74792299978435,181.1482803998515,None,right,1,0.4208620998542756,181.1482803998515,None,180.6464415998198,180.74792299978435,180.74792299978435,None,181.59773069992661,None,,,,,,,11032,001,2024_Jan_11_1554,ANT,2021.2.3,59.911379110676386,
1,3,no,up,IC,L,,,,,,Block.xlsx,"你已经完成了第一个实验区组

请稍作休息


点击空格键进入下一个区组。",50,0,1.5,left,RRLRR.png,,,,,0,0,0,0,1,10,34,2,,,,,,,,,,,,,,,,,,,,,,,,,,,,,,,,,,,,,,,,,,,,,,,,,,,,,,,,,,,,,,,,181.99855719995685,182.3997095997911,182.38185869995505,182.48230869998224,182.88351899990812,None,left,1,0.5024889998603612,182.88351899990812,None,182.38185869995505,182.48230869998224,182.48230869998224,None,183.41761769982986,None,,,,,,,11032,001,2024_Jan_11_1554,ANT,2021.2.3,59.911379110676386,
1,21,spatial,down,C,L,,,,,,Block.xlsx,"你已经完成了第一个实验区组

请稍作休息


点击空格键进入下一个区组。",-1.5,0,-1.5,left,LLLLL.png,,,,,0,0,0,0,1,11,35,20,,,,,,,,,,,,,,,,,,,,,,,,,,,,,,,,,,,,,,,,,,,,,,,,,,,,,,,,,,,,,,,,183.8170721998904,184.2193964999169,184.20186509983614,184.30343089997768,184.70265779993497,None,left,1,0.42747530015185475,184.70265779993497,None,184.20186509983614,184.30343089997768,184.30343089997768,None,185.1525025998708,None,,,,,,,11032,001,2024_Jan_11_1554,ANT,2021.2.3,59.911379110676386,
1,21,spatial,down,C,L,,,,,,Block.xlsx,"你已经完成了第一个实验区组

请稍作休息


点击空格键进入下一个区组。",-1.5,0,-1.5,left,LLLLL.png,,,,,0,0,0,0,1,12,36,20,,,,,,,,,,,,,,,,,,,,,,,,,,,,,,,,,,,,,,,,,,,,,,,,,,,,,,,,,,,,,,,,185.55316909984685,185.9536009998992,185.93763719988056,186.03804689995013,186.43898469978012,None,left,1,0.4021424001548439,186.43898469978012,None,185.93763719988056,186.03804689995013,186.03804689995013,None,186.87187849986367,None,,,,,,,11032,001,2024_Jan_11_1554,ANT,2021.2.3,59.911379110676386,
1,14,center,down,C,R,,,,,,Block.xlsx,"你已经完成了第一个实验区组

请稍作休息


点击空格键进入下一个区组。",0,50,-1.5,right,RRRRR.png,,,,,0,0,0,0,1,13,37,13,,,,,,,,,,,,,,,,,,,,,,,,,,,,,,,,,,,,,,,,,,,,,,,,,,,,,,,,,,,,,,,,187.27244349988177,187.67404469987378,187.65737629984505,187.75654919981025,188.15917579992674,None,right,1,0.45000489987432957,188.15917579992674,None,187.65737629984505,187.75654919981025,187.75654919981025,None,188.64126589987427,None,,,,,,,11032,001,2024_Jan_11_1554,ANT,2021.2.3,59.911379110676386,
1,11,center,up,IC,L,,,,,,Block.xlsx,"你已经完成了第一个实验区组

请稍作休息


点击空格键进入下一个区组。",0,50,1.5,left,RRLRR.png,,,,,0,0,0,0,1,14,38,10,,,,,,,,,,,,,,,,,,,,,,,,,,,,,,,,,,,,,,,,,,,,,,,,,,,,,,,,,,,,,,,,189.04183349991217,189.44388939999044,189.4256595999468,189.52750729979016,189.92789919977076,None,left,1,0.529595899861306,189.92789919977076,None,189.4256595999468,189.52750729979016,189.52750729979016,None,190.47760759992525,None,,,,,,,11032,001,2024_Jan_11_1554,ANT,2021.2.3,59.911379110676386,
1,11,center,up,IC,L,,,,,,Block.xlsx,"你已经完成了第一个实验区组

请稍作休息


点击空格键进入下一个区组。",0,50,1.5,left,RRLRR.png,,,,,0,0,0,0,1,15,39,10,,,,,,,,,,,,,,,,,,,,,,,,,,,,,,,,,,,,,,,,,,,,,,,,,,,,,,,,,,,,,,,,190.8787379998248,191.27931739995256,191.2616635998711,191.36298509989865,191.7626870998647,None,left,1,0.4546658000908792,191.7626870998647,None,191.2616635998711,191.36298509989865,191.36298509989865,None,192.2465412998572,None,,,,,,,11032,001,2024_Jan_11_1554,ANT,2021.2.3,59.911379110676386,
1,22,spatial,down,C,R,,,,,,Block.xlsx,"你已经完成了第一个实验区组

请稍作休息


点击空格键进入下一个区组。",-1.5,0,-1.5,right,RRRRR.png,,,,,0,0,0,0,1,16,40,21,,,,,,,,,,,,,,,,,,,,,,,,,,,,,,,,,,,,,,,,,,,,,,,,,,,,,,,,,,,,,,,,192.6469735999126,193.04925279994495,193.03222049982287,193.13120199996047,193.53190679987893,None,right,1,0.36515319999307394,193.53190679987893,None,193.03222049982287,193.13120199996047,193.13120199996047,None,193.9153519999236,None,,,,,,,11032,001,2024_Jan_11_1554,ANT,2021.2.3,59.911379110676386,
1,24,spatial,down,IC,R,,,,,,Block.xlsx,"你已经完成了第一个实验区组

请稍作休息


点击空格键进入下一个区组。",-1.5,0,-1.5,right,LLRLL.png,,,,,0,0,0,0,1,17,41,23,,,,,,,,,,,,,,,,,,,,,,,,,,,,,,,,,,,,,,,,,,,,,,,,,,,,,,,,,,,,,,,,194.31623459979892,194.71733639994636,194.70169789995998,194.8171083999332,195.2018074998632,None,right,1,0.4799812000710517,195.2018074998632,None,194.70169789995998,194.8171083999332,194.80208659986965,None,195.70156299998052,None,,,,,,,11032,001,2024_Jan_11_1554,ANT,2021.2.3,59.911379110676386,
1,8,no,down,IC,R,,,,,,Block.xlsx,"你已经完成了第一个实验区组

请稍作休息


点击空格键进入下一个区组。",50,0,-1.5,right,LLRLL.png,,,,,0,0,0,0,1,18,42,7,,,,,,,,,,,,,,,,,,,,,,,,,,,,,,,,,,,,,,,,,,,,,,,,,,,,,,,,,,,,,,,,196.10282959998585,196.50394719978794,196.48767279996537,196.5867730998434,196.98903810000047,None,right,1,0.4200933000538498,196.98903810000047,None,196.48767279996537,196.5867730998434,196.5867730998434,None,197.43753879982978,None,,,,,,,11032,001,2024_Jan_11_1554,ANT,2021.2.3,59.911379110676386,
1,15,center,down,IC,L,,,,,,Block.xlsx,"你已经完成了第一个实验区组

请稍作休息


点击空格键进入下一个区组。",0,50,-1.5,left,RRLRR.png,,,,,0,0,0,0,1,19,43,14,,,,,,,,,,,,,,,,,,,,,,,,,,,,,,,,,,,,,,,,,,,,,,,,,,,,,,,,,,,,,,,,197.8388635998126,198.24038999993354,198.22207159991376,198.32292129984125,198.72394439997151,None,left,1,0.5891710000578314,198.72394439997151,None,198.22207159991376,198.32292129984125,198.32292129984125,None,199.3403044999577,None,,,,,,,11032,001,2024_Jan_11_1554,ANT,2021.2.3,59.911379110676386,
1,9,center,up,C,L,,,,,,Block.xlsx,"你已经完成了第一个实验区组

请稍作休息


点击空格键进入下一个区组。",0,50,1.5,left,LLLLL.png,,,,,0,0,0,0,1,20,44,8,,,,,,,,,,,,,,,,,,,,,,,,,,,,,,,,,,,,,,,,,,,,,,,,,,,,,,,,,,,,,,,,199.7409227997996,200.14127089991234,200.12554389983416,200.22701689996757,200.62620169995353,None,left,1,0.45497489999979734,200.62620169995353,None,200.12554389983416,200.22701689996757,200.22701689996757,None,201.10972699988633,None,,,,,,,11032,001,2024_Jan_11_1554,ANT,2021.2.3,59.911379110676386,
1,9,center,up,C,L,,,,,,Block.xlsx,"你已经完成了第一个实验区组

请稍作休息


点击空格键进入下一个区组。",0,50,1.5,left,LLLLL.png,,,,,0,0,0,0,1,21,45,8,,,,,,,,,,,,,,,,,,,,,,,,,,,,,,,,,,,,,,,,,,,,,,,,,,,,,,,,,,,,,,,,201.51010569999926,201.911714799935,201.8946131998673,201.99626449984498,202.39605679991655,None,left,1,0.3811351000331342,202.39605679991655,None,201.8946131998673,201.99626449984498,201.99626449984498,None,202.79534959979355,None,,,,,,,11032,001,2024_Jan_11_1554,ANT,2021.2.3,59.911379110676386,
1,16,center,down,IC,R,,,,,,Block.xlsx,"你已经完成了第一个实验区组

请稍作休息


点击空格键进入下一个区组。",0,50,-1.5,right,LLRLL.png,,,,,0,0,0,0,1,22,46,15,,,,,,,,,,,,,,,,,,,,,,,,,,,,,,,,,,,,,,,,,,,,,,,,,,,,,,,,,,,,,,,,203.19695679983124,203.59745409991592,203.58082559984177,203.6800449998118,204.08101729978807,None,right,1,0.6161094000563025,204.08101729978807,None,203.58082559984177,203.6800449998118,203.6800449998118,None,204.71499929996207,None,,,,,,,11032,001,2024_Jan_11_1554,ANT,2021.2.3,59.911379110676386,
1,6,no,down,C,R,,,,,,Block.xlsx,"你已经完成了第一个实验区组

请稍作休息


点击空格键进入下一个区组。",50,0,-1.5,right,RRRRR.png,,,,,0,0,0,0,1,23,47,5,,,,,,,,,,,,,,,,,,,,,,,,,,,,,,,,,,,,,,,,,,,,,,,,,,,,,,,,,,,,,,,,205.11560499994084,205.51760099991225,205.5005331998691,205.6000328999944,206.00038629979827,None,right,1,0.45682659978047013,206.00038629979827,None,205.5005331998691,205.6000328999944,205.6000328999944,None,206.4842152998317,None,,,,,,,11032,001,2024_Jan_11_1554,ANT,2021.2.3,59.911379110676386,
1,4,no,up,IC,R,,,,,,Block.xlsx,"你已经完成了第一个实验区组

请稍作休息


点击空格键进入下一个区组。",50,0,1.5,right,LLRLL.png,,,,,0,0,0,0,2,0,48,3,,,,,,,,,,,,,,,,,,,,,,,,,,,,,,,,,,,,,,,,,,,,,,,,,,,,,,,,,,,,,,,,206.88485689996742,207.28569859988056,207.2692506997846,207.37058979994617,207.77004729979672,None,right,1,0.6551682001445442,207.77004729979672,None,207.2692506997846,207.37058979994617,207.37058979994617,None,208.45375059987418,None,,,,,,,11032,001,2024_Jan_11_1554,ANT,2021.2.3,59.911379110676386,
1,22,spatial,down,C,R,,,,,,Block.xlsx,"你已经完成了第一个实验区组

请稍作休息


点击空格键进入下一个区组。",-1.5,0,-1.5,right,RRRRR.png,,,,,0,0,0,0,2,1,49,21,,,,,,,,,,,,,,,,,,,,,,,,,,,,,,,,,,,,,,,,,,,,,,,,,,,,,,,,,,,,,,,,208.85442539979704,209.25582459988073,209.23893839982338,209.33828989998437,209.74037629994564,None,right,1,0.3975062998943031,209.74037629994564,None,209.23893839982338,209.33828989998437,209.33828989998437,None,210.15642299992032,None,,,,,,,11032,001,2024_Jan_11_1554,ANT,2021.2.3,59.911379110676386,
1,22,spatial,down,C,R,,,,,,Block.xlsx,"你已经完成了第一个实验区组

请稍作休息


点击空格键进入下一个区组。",-1.5,0,-1.5,right,RRRRR.png,,,,,0,0,0,0,2,2,50,21,,,,,,,,,,,,,,,,,,,,,,,,,,,,,,,,,,,,,,,,,,,,,,,,,,,,,,,,,,,,,,,,210.55777009995654,210.9580833998043,210.9419675997924,211.0421761998441,211.44198509980924,None,right,1,0.4392256001010537,211.44198509980924,None,210.9419675997924,211.0421761998441,211.0421761998441,None,211.90959639986977,None,,,,,,,11032,001,2024_Jan_11_1554,ANT,2021.2.3,59.911379110676386,
1,10,center,up,C,R,,,,,,Block.xlsx,"你已经完成了第一个实验区组

请稍作休息


点击空格键进入下一个区组。",0,50,1.5,right,RRRRR.png,,,,,0,0,0,0,2,3,51,9,,,,,,,,,,,,,,,,,,,,,,,,,,,,,,,,,,,,,,,,,,,,,,,,,,,,,,,,,,,,,,,,212.31015649996698,212.71181639982387,212.69379489985295,212.79338379995897,213.19480959977955,None,right,1,0.4383021998219192,213.19480959977955,None,212.69379489985295,212.79338379995897,212.79338379995897,None,213.66188549995422,None,,,,,,,11032,001,2024_Jan_11_1554,ANT,2021.2.3,59.911379110676386,
1,4,no,up,IC,R,,,,,,Block.xlsx,"你已经完成了第一个实验区组

请稍作休息


点击空格键进入下一个区组。",50,0,1.5,right,LLRLL.png,,,,,0,0,0,0,2,4,52,3,,,,,,,,,,,,,,,,,,,,,,,,,,,,,,,,,,,,,,,,,,,,,,,,,,,,,,,,,,,,,,,,214.06289509986527,214.46347019984387,214.4471312998794,214.5462728999555,214.947514699772,None,right,1,0.7015520001295954,214.947514699772,None,214.4471312998794,214.5462728999555,214.5462728999555,None,215.664508999791,None,,,,,,,11032,001,2024_Jan_11_1554,ANT,2021.2.3,59.911379110676386,
1,16,center,down,IC,R,,,,,,Block.xlsx,"你已经完成了第一个实验区组

请稍作休息


点击空格键进入下一个区组。",0,50,-1.5,right,LLRLL.png,,,,,0,0,0,0,2,5,53,15,,,,,,,,,,,,,,,,,,,,,,,,,,,,,,,,,,,,,,,,,,,,,,,,,,,,,,,,,,,,,,,,216.06590209994465,216.46545789996162,216.44926069979556,216.55085429991595,216.95047339983284,None,right,1,0.47459369990974665,216.95047339983284,None,216.44926069979556,216.55085429991595,216.55085429991595,None,217.45045239990577,None,,,,,,,11032,001,2024_Jan_11_1554,ANT,2021.2.3,59.911379110676386,
1,15,center,down,IC,L,,,,,,Block.xlsx,"你已经完成了第一个实验区组

请稍作休息


点击空格键进入下一个区组。",0,50,-1.5,left,RRLRR.png,,,,,0,0,0,0,2,6,54,14,,,,,,,,,,,,,,,,,,,,,,,,,,,,,,,,,,,,,,,,,,,,,,,,,,,,,,,,,,,,,,,,217.85149119980633,218.25253019994125,218.2356173999142,218.33609009999782,218.73631299985573,None,left,1,0.6409324000123888,218.73631299985573,None,218.2356173999142,218.33609009999782,218.33609009999782,None,219.40322449989617,None,,,,,,,11032,001,2024_Jan_11_1554,ANT,2021.2.3,59.911379110676386,
1,19,spatial,up,IC,L,,,,,,Block.xlsx,"你已经完成了第一个实验区组

请稍作休息


点击空格键进入下一个区组。",1.5,0,1.5,left,RRLRR.png,,,,,0,0,0,0,2,7,55,18,,,,,,,,,,,,,,,,,,,,,,,,,,,,,,,,,,,,,,,,,,,,,,,,,,,,,,,,,,,,,,,,219.8040131998714,220.20461619994603,220.1885813998524,220.28910729987547,220.6897205999121,None,left,1,0.43976849992759526,220.6897205999121,None,220.1885813998524,220.28910729987547,220.28910729987547,None,221.15623279986903,None,,,,,,,11032,001,2024_Jan_11_1554,ANT,2021.2.3,59.911379110676386,
1,5,no,down,C,L,,,,,,Block.xlsx,"你已经完成了第一个实验区组

请稍作休息


点击空格键进入下一个区组。",50,0,-1.5,left,LLLLL.png,,,,,0,0,0,0,2,8,56,4,,,,,,,,,,,,,,,,,,,,,,,,,,,,,,,,,,,,,,,,,,,,,,,,,,,,,,,,,,,,,,,,221.5566011997871,221.95815909979865,221.94079889985733,222.0407076999545,222.44146379991435,None,left,1,0.5597292000893503,222.44146379991435,None,221.94079889985733,222.0407076999545,222.0407076999545,None,223.02547579980455,None,,,,,,,11032,001,2024_Jan_11_1554,ANT,2021.2.3,59.911379110676386,
1,8,no,down,IC,R,,,,,,Block.xlsx,"你已经完成了第一个实验区组

请稍作休息


点击空格键进入下一个区组。",50,0,-1.5,right,LLRLL.png,,,,,0,0,0,0,2,9,57,7,,,,,,,,,,,,,,,,,,,,,,,,,,,,,,,,,,,,,,,,,,,,,,,,,,,,,,,,,,,,,,,,223.42698049987666,223.82646179990843,223.81073269993067,223.90997989987954,224.3116311999038,None,right,1,0.5947954000439495,224.3116311999038,None,223.81073269993067,223.90997989987954,223.90997989987954,None,224.928101999918,None,,,,,,,11032,001,2024_Jan_11_1554,ANT,2021.2.3,59.911379110676386,
1,18,spatial,up,C,R,,,,,,Block.xlsx,"你已经完成了第一个实验区组

请稍作休息


点击空格键进入下一个区组。",1.5,0,1.5,right,RRRRR.png,,,,,0,0,0,0,2,10,58,17,,,,,,,,,,,,,,,,,,,,,,,,,,,,,,,,,,,,,,,,,,,,,,,,,,,,,,,,,,,,,,,,225.32882049982436,225.7300712999422,225.7127844998613,225.81459669978358,226.21477139997296,None,right,1,0.4024026000406593,226.21477139997296,None,225.7127844998613,225.81459669978358,225.81459669978358,None,226.64765409985557,None,,,,,,,11032,001,2024_Jan_11_1554,ANT,2021.2.3,59.911379110676386,
1,7,no,down,IC,L,,,,,,Block.xlsx,"你已经完成了第一个实验区组

请稍作休息


点击空格键进入下一个区组。",50,0,-1.5,left,RRLRR.png,,,,,0,0,0,0,2,11,59,6,,,,,,,,,,,,,,,,,,,,,,,,,,,,,,,,,,,,,,,,,,,,,,,,,,,,,,,,,,,,,,,,227.04811869980767,227.4504429998342,227.4320860998705,227.5336451998446,227.93282949994318,None,left,1,0.5327741000801325,227.93282949994318,None,227.4320860998705,227.5336451998446,227.5336451998446,None,228.4834155999124,None,,,,,,,11032,001,2024_Jan_11_1554,ANT,2021.2.3,59.911379110676386,
1,9,center,up,C,L,,,,,,Block.xlsx,"你已经完成了第一个实验区组

请稍作休息


点击空格键进入下一个区组。",0,50,1.5,left,LLLLL.png,,,,,0,0,0,0,2,12,60,8,,,,,,,,,,,,,,,,,,,,,,,,,,,,,,,,,,,,,,,,,,,,,,,,,,,,,,,,,,,,,,,,228.88421809999272,229.2855507999193,229.2701787999831,229.38500329991803,229.76935069984756,None,left,1,0.45574879995547235,229.76935069984756,None,229.2701787999831,229.38500329991803,229.36959529994056,None,230.25280319992453,None,,,,,,,11032,001,2024_Jan_11_1554,ANT,2021.2.3,59.911379110676386,
1,12,center,up,IC,R,,,,,,Block.xlsx,"你已经完成了第一个实验区组

请稍作休息


点击空格键进入下一个区组。",0,50,1.5,right,LLRLL.png,,,,,0,0,0,0,2,13,61,11,,,,,,,,,,,,,,,,,,,,,,,,,,,,,,,,,,,,,,,,,,,,,,,,,,,,,,,,,,,,,,,,230.65360919991508,231.05543149984442,231.03793049999513,231.13759589986876,231.53934589982964,None,right,1,0.5176676001865417,231.53934589982964,None,231.03793049999513,231.13759589986876,231.13759589986876,None,232.0888258998748,None,,,,,,,11032,001,2024_Jan_11_1554,ANT,2021.2.3,59.911379110676386,
1,1,no,up,C,L,,,,,,Block.xlsx,"你已经完成了第一个实验区组

请稍作休息


点击空格键进入下一个区组。",50,0,1.5,left,LLLLL.png,,,,,0,0,0,0,2,14,62,0,,,,,,,,,,,,,,,,,,,,,,,,,,,,,,,,,,,,,,,,,,,,,,,,,,,,,,,,,,,,,,,,232.48942259978503,232.89025849988684,232.87437819992192,232.97345609986223,233.37554319994524,None,left,1,0.409674399998039,233.37554319994524,None,232.87437819992192,232.97345609986223,232.97345609986223,None,233.8080702999141,None,,,,,,,11032,001,2024_Jan_11_1554,ANT,2021.2.3,59.911379110676386,
1,9,center,up,C,L,,,,,,Block.xlsx,"你已经完成了第一个实验区组

请稍作休息


点击空格键进入下一个区组。",0,50,1.5,left,LLLLL.png,,,,,0,0,0,0,2,15,63,8,,,,,,,,,,,,,,,,,,,,,,,,,,,,,,,,,,,,,,,,,,,,,,,,,,,,,,,,,,,,,,,,234.20866599981673,234.61012979992665,234.593620599946,234.69359299982898,235.09508189978078,None,left,1,0.354142899857834,235.09508189978078,None,234.593620599946,234.69359299982898,234.69359299982898,None,235.4775551999919,None,,,,,,,11032,001,2024_Jan_11_1554,ANT,2021.2.3,59.911379110676386,
1,1,no,up,C,L,,,,,,Block.xlsx,"你已经完成了第一个实验区组

请稍作休息


点击空格键进入下一个区组。",50,0,1.5,left,LLLLL.png,,,,,0,0,0,0,2,16,64,0,,,,,,,,,,,,,,,,,,,,,,,,,,,,,,,,,,,,,,,,,,,,,,,,,,,,,,,,,,,,,,,,235.87842279998586,236.2792786997743,236.26263519981876,236.3638821998611,236.76360319997184,None,left,1,0.4857922999653965,236.76360319997184,None,236.26263519981876,236.3638821998611,236.3638821998611,None,237.2630648999475,None,,,,,,,11032,001,2024_Jan_11_1554,ANT,2021.2.3,59.911379110676386,
1,13,center,down,C,L,,,,,,Block.xlsx,"你已经完成了第一个实验区组

请稍作休息


点击空格键进入下一个区组。",0,50,-1.5,left,LLLLL.png,,,,,0,0,0,0,2,17,65,12,,,,,,,,,,,,,,,,,,,,,,,,,,,,,,,,,,,,,,,,,,,,,,,,,,,,,,,,,,,,,,,,237.66425639996305,238.0649808999151,238.04830539994873,238.1489186999388,238.54885089979507,None,left,1,0.4845071998424828,238.54885089979507,None,238.04830539994873,238.1489186999388,238.1489186999388,None,239.04902019980364,None,,,,,,,11032,001,2024_Jan_11_1554,ANT,2021.2.3,59.911379110676386,
1,3,no,up,IC,L,,,,,,Block.xlsx,"你已经完成了第一个实验区组

请稍作休息


点击空格键进入下一个区组。",50,0,1.5,left,RRLRR.png,,,,,0,0,0,0,2,18,66,2,,,,,,,,,,,,,,,,,,,,,,,,,,,,,,,,,,,,,,,,,,,,,,,,,,,,,,,,,,,,,,,,239.44962529977784,239.8512115997728,239.83444499992765,239.93517489987426,240.33605599985458,None,left,1,0.5532427998259664,240.33605599985458,None,239.83444499992765,239.93517489987426,239.93517489987426,None,240.920266199857,None,,,,,,,11032,001,2024_Jan_11_1554,ANT,2021.2.3,59.911379110676386,
1,14,center,down,C,R,,,,,,Block.xlsx,"你已经完成了第一个实验区组

请稍作休息


点击空格键进入下一个区组。",0,50,-1.5,right,RRRRR.png,,,,,0,0,0,0,2,19,67,13,,,,,,,,,,,,,,,,,,,,,,,,,,,,,,,,,,,,,,,,,,,,,,,,,,,,,,,,,,,,,,,,241.3191721998155,241.72166209993884,241.70313539984636,241.8047086999286,242.2043476998806,None,right,1,0.4287156001664698,242.2043476998806,None,241.70313539984636,241.8047086999286,241.8047086999286,None,242.65459339995869,None,,,,,,,11032,001,2024_Jan_11_1554,ANT,2021.2.3,59.911379110676386,
1,8,no,down,IC,R,,,,,,Block.xlsx,"你已经完成了第一个实验区组

请稍作休息


点击空格键进入下一个区组。",50,0,-1.5,right,LLRLL.png,,,,,0,0,0,0,2,20,68,7,,,,,,,,,,,,,,,,,,,,,,,,,,,,,,,,,,,,,,,,,,,,,,,,,,,,,,,,,,,,,,,,243.05732209980488,243.45626489981078,243.43988119997084,243.53921799990349,243.9407003999222,None,right,1,0.44441590015776455,243.9407003999222,None,243.43988119997084,243.53921799990349,243.53921799990349,None,244.40738079999574,None,,,,,,,11032,001,2024_Jan_11_1554,ANT,2021.2.3,59.911379110676386,
1,17,spatial,up,C,L,,,,,,Block.xlsx,"你已经完成了第一个实验区组

请稍作休息


点击空格键进入下一个区组。",1.5,0,1.5,left,LLLLL.png,,,,,0,0,0,0,2,21,69,16,,,,,,,,,,,,,,,,,,,,,,,,,,,,,,,,,,,,,,,,,,,,,,,,,,,,,,,,,,,,,,,,244.80769709986635,245.20895069977269,245.19231139984913,245.29173239995725,245.69306239997968,None,left,1,0.40406349999830127,245.69306239997968,None,245.19231139984913,245.29173239995725,245.29173239995725,None,246.12641509994864,None,,,,,,,11032,001,2024_Jan_11_1554,ANT,2021.2.3,59.911379110676386,
1,3,no,up,IC,L,,,,,,Block.xlsx,"你已经完成了第一个实验区组

请稍作休息


点击空格键进入下一个区组。",50,0,1.5,left,RRLRR.png,,,,,0,0,0,0,2,22,70,2,,,,,,,,,,,,,,,,,,,,,,,,,,,,,,,,,,,,,,,,,,,,,,,,,,,,,,,,,,,,,,,,246.5274875999894,246.9288395999465,246.91056999983266,247.01281859981827,247.41225539986044,None,left,1,0.5173734000418335,247.41225539986044,None,246.91056999983266,247.01281859981827,247.01281859981827,None,247.94570349995047,None,,,,,,,11032,001,2024_Jan_11_1554,ANT,2021.2.3,59.911379110676386,
1,16,center,down,IC,R,,,,,,Block.xlsx,"你已经完成了第一个实验区组

请稍作休息


点击空格键进入下一个区组。",0,50,-1.5,right,LLRLL.png,,,,,0,0,0,0,2,23,71,15,,,,,,,,,,,,,,,,,,,,,,,,,,,,,,,,,,,,,,,,,,,,,,,,,,,,,,,,,,,,,,,,248.3467765999958,248.74784099985845,248.73098429990932,248.83165069995448,249.23175029992126,None,right,1,0.6020889999344945,249.23175029992126,None,248.73098429990932,248.83165069995448,248.83165069995448,None,249.84897659998387,None,,,,,,,11032,001,2024_Jan_11_1554,ANT,2021.2.3,59.911379110676386,
1,8,no,down,IC,R,,,,,,Block.xlsx,"你已经完成了第一个实验区组

请稍作休息


点击空格键进入下一个区组。",50,0,-1.5,right,LLRLL.png,,,,,0,0,0,0,3,0,72,7,,,,,,,,,,,,,,,,,,,,,,,,,,,,,,,,,,,,,,,,,,,,,,,,,,,,,,,,,,,,,,,,250.24908199999481,250.6509224998299,250.63281939993612,250.73392769997008,251.13326999987476,None,right,1,0.452324700076133,251.13326999987476,None,250.63281939993612,250.73392769997008,250.73392769997008,None,251.60107119986787,None,,,,,,,11032,001,2024_Jan_11_1554,ANT,2021.2.3,59.911379110676386,
1,1,no,up,C,L,,,,,,Block.xlsx,"你已经完成了第一个实验区组

请稍作休息


点击空格键进入下一个区组。",50,0,1.5,left,LLLLL.png,,,,,0,0,0,0,3,1,73,0,,,,,,,,,,,,,,,,,,,,,,,,,,,,,,,,,,,,,,,,,,,,,,,,,,,,,,,,,,,,,,,,252.00243749981746,252.40261529991403,252.3860736999195,252.48720979993232,252.88624299992807,None,left,1,0.5158100000116974,252.88624299992807,None,252.3860736999195,252.48720979993232,252.48720979993232,None,253.42053639981896,None,,,,,,,11032,001,2024_Jan_11_1554,ANT,2021.2.3,59.911379110676386,
1,21,spatial,down,C,L,,,,,,Block.xlsx,"你已经完成了第一个实验区组

请稍作休息


点击空格键进入下一个区组。",-1.5,0,-1.5,left,LLLLL.png,,,,,0,0,0,0,3,2,74,20,,,,,,,,,,,,,,,,,,,,,,,,,,,,,,,,,,,,,,,,,,,,,,,,,,,,,,,,,,,,,,,,253.82100619981065,254.22186099993996,254.2056226998102,254.30599619983695,254.70752139994875,None,left,1,0.5257565001957119,254.70752139994875,None,254.2056226998102,254.30599619983695,254.30599619983695,None,255.2565534999594,None,,,,,,,11032,001,2024_Jan_11_1554,ANT,2021.2.3,59.911379110676386,
1,19,spatial,up,IC,L,,,,,,Block.xlsx,"你已经完成了第一个实验区组

请稍作休息


点击空格键进入下一个区组。",1.5,0,1.5,left,RRLRR.png,,,,,0,0,0,0,3,3,75,18,,,,,,,,,,,,,,,,,,,,,,,,,,,,,,,,,,,,,,,,,,,,,,,,,,,,,,,,,,,,,,,,255.6578951999545,256.058821399929,256.04205659986474,256.141801699996,256.5435179998167,None,left,1,0.4736709001008421,256.5435179998167,None,256.04205659986474,256.141801699996,256.141801699996,None,257.0424455998,None,,,,,,,11032,001,2024_Jan_11_1554,ANT,2021.2.3,59.911379110676386,
1,18,spatial,up,C,R,,,,,,Block.xlsx,"你已经完成了第一个实验区组

请稍作休息


点击空格键进入下一个区组。",1.5,0,1.5,right,RRRRR.png,,,,,0,0,0,0,3,4,76,17,,,,,,,,,,,,,,,,,,,,,,,,,,,,,,,,,,,,,,,,,,,,,,,,,,,,,,,,,,,,,,,,257.4437140999362,257.8449082998559,257.82695429981686,257.92927500000224,258.32912349980325,None,right,1,0.4081095000728965,258.32912349980325,None,257.82695429981686,257.92927500000224,257.92927500000224,None,258.761680399999,None,,,,,,,11032,001,2024_Jan_11_1554,ANT,2021.2.3,59.911379110676386,
1,17,spatial,up,C,L,,,,,,Block.xlsx,"你已经完成了第一个实验区组

请稍作休息


点击空格键进入下一个区组。",1.5,0,1.5,left,LLLLL.png,,,,,0,0,0,0,3,5,77,16,,,,,,,,,,,,,,,,,,,,,,,,,,,,,,,,,,,,,,,,,,,,,,,,,,,,,,,,,,,,,,,,259.1626272997819,259.56369929993525,259.5482709999196,259.64678639988415,260.04771129996516,None,left,1,0.33025890006683767,260.04771129996516,None,259.5482709999196,259.64678639988415,259.64678639988415,None,260.39778119977564,None,,,,,,,11032,001,2024_Jan_11_1554,ANT,2021.2.3,59.911379110676386,
1,13,center,down,C,L,,,,,,Block.xlsx,"你已经完成了第一个实验区组

请稍作休息


点击空格键进入下一个区组。",0,50,-1.5,left,LLLLL.png,,,,,0,0,0,0,3,6,78,12,,,,,,,,,,,,,,,,,,,,,,,,,,,,,,,,,,,,,,,,,,,,,,,,,,,,,,,,,,,,,,,,260.79859769996256,261.1994150998071,261.1842630999163,261.28378659999,261.6843613998499,None,left,1,0.429056900087744,261.6843613998499,None,261.1842630999163,261.28378659999,261.28378659999,None,262.13304959982634,None,,,,,,,11032,001,2024_Jan_11_1554,ANT,2021.2.3,59.911379110676386,
1,5,no,down,C,L,,,,,,Block.xlsx,"你已经完成了第一个实验区组

请稍作休息


点击空格键进入下一个区组。",50,0,-1.5,left,LLLLL.png,,,,,0,0,0,0,3,7,79,4,,,,,,,,,,,,,,,,,,,,,,,,,,,,,,,,,,,,,,,,,,,,,,,,,,,,,,,,,,,,,,,,262.5340073998086,262.93508999980986,262.91776569979265,263.0181495998986,263.41878639999777,None,left,1,0.5583631000481546,263.41878639999777,None,262.91776569979265,263.0181495998986,263.0181495998986,None,264.0026402999647,None,,,,,,,11032,001,2024_Jan_11_1554,ANT,2021.2.3,59.911379110676386,
1,4,no,up,IC,R,,,,,,Block.xlsx,"你已经完成了第一个实验区组

请稍作休息


点击空格键进入下一个区组。",50,0,1.5,right,LLRLL.png,,,,,0,0,0,0,3,8,80,3,,,,,,,,,,,,,,,,,,,,,,,,,,,,,,,,,,,,,,,,,,,,,,,,,,,,,,,,,,,,,,,,264.4032996997703,264.8060504999012,264.7876737997867,264.88826549984515,265.28850419982336,None,right,1,0.59261509985663,265.28850419982336,None,264.7876737997867,264.88826549984515,264.88826549984515,None,265.906247299863,None,,,,,,,11032,001,2024_Jan_11_1554,ANT,2021.2.3,59.911379110676386,
1,3,no,up,IC,L,,,,,,Block.xlsx,"你已经完成了第一个实验区组

请稍作休息


点击空格键进入下一个区组。",50,0,1.5,left,RRLRR.png,,,,,0,0,0,0,3,9,81,2,,,,,,,,,,,,,,,,,,,,,,,,,,,,,,,,,,,,,,,,,,,,,,,,,,,,,,,,,,,,,,,,266.30630439985543,266.7075017997995,266.6910915998742,266.79047909984365,267.19173979992047,None,left,1,0.44141769991256297,267.19173979992047,None,266.6910915998742,266.79047909984365,266.79047909984365,None,267.65839959983714,None,,,,,,,11032,001,2024_Jan_11_1554,ANT,2021.2.3,59.911379110676386,
1,22,spatial,down,C,R,,,,,,Block.xlsx,"你已经完成了第一个实验区组

请稍作休息


点击空格键进入下一个区组。",-1.5,0,-1.5,right,RRRRR.png,,,,,0,0,0,0,3,10,82,21,,,,,,,,,,,,,,,,,,,,,,,,,,,,,,,,,,,,,,,,,,,,,,,,,,,,,,,,,,,,,,,,268.06007969984785,268.4616944999434,268.4430138999596,268.54515609983355,268.94448029994965,None,right,1,0.35287490021437407,268.94448029994965,None,268.4430138999596,268.54515609983355,268.54515609983355,None,269.32722829980776,None,,,,,,,11032,001,2024_Jan_11_1554,ANT,2021.2.3,59.911379110676386,
1,20,spatial,up,IC,R,,,,,,Block.xlsx,"你已经完成了第一个实验区组

请稍作休息


点击空格键进入下一个区组。",1.5,0,1.5,right,LLRLL.png,,,,,0,0,0,0,3,11,83,19,,,,,,,,,,,,,,,,,,,,,,,,,,,,,,,,,,,,,,,,,,,,,,,,,,,,,,,,,,,,,,,,269.72824889980257,270.12846009992063,270.11296849977225,270.2119997998234,270.6125792998355,None,right,1,0.3966878999490291,270.6125792998355,None,270.11296849977225,270.2119997998234,270.2119997998234,None,271.02978539979085,None,,,,,,,11032,001,2024_Jan_11_1554,ANT,2021.2.3,59.911379110676386,
1,21,spatial,down,C,L,,,,,,Block.xlsx,"你已经完成了第一个实验区组

请稍作休息


点击空格键进入下一个区组。",-1.5,0,-1.5,left,LLLLL.png,,,,,0,0,0,0,3,12,84,20,,,,,,,,,,,,,,,,,,,,,,,,,,,,,,,,,,,,,,,,,,,,,,,,,,,,,,,,,,,,,,,,271.43126529990695,271.8317959997803,271.81627389998175,271.93153309985064,272.3156192000024,None,left,1,0.42170189996249974,272.3156192000024,None,271.81627389998175,271.93153309985064,271.91612739977427,None,272.7657128998544,None,,,,,,,11032,001,2024_Jan_11_1554,ANT,2021.2.3,59.911379110676386,
1,19,spatial,up,IC,L,,,,,,Block.xlsx,"你已经完成了第一个实验区组

请稍作休息


点击空格键进入下一个区组。",1.5,0,1.5,left,RRLRR.png,,,,,0,0,0,0,3,13,85,18,,,,,,,,,,,,,,,,,,,,,,,,,,,,,,,,,,,,,,,,,,,,,,,,,,,,,,,,,,,,,,,,273.16655899980105,273.56854649982415,273.5512740998529,273.6509017997887,274.0509932998102,None,left,1,0.3907424001954496,274.0509932998102,None,273.5512740998529,273.6509017997887,273.6509017997887,None,274.4682585999835,None,,,,,,,11032,001,2024_Jan_11_1554,ANT,2021.2.3,59.911379110676386,
1,12,center,up,IC,R,,,,,,Block.xlsx,"你已经完成了第一个实验区组

请稍作休息


点击空格键进入下一个区组。",0,50,1.5,right,LLRLL.png,,,,,0,0,0,0,3,14,86,11,,,,,,,,,,,,,,,,,,,,,,,,,,,,,,,,,,,,,,,,,,,,,,,,,,,,,,,,,,,,,,,,274.8690968998708,275.2694377999287,275.25378289981745,275.3539471998811,275.7543041999452,None,right,1,0.5428379001095891,275.7543041999452,None,275.25378289981745,275.3539471998811,275.3539471998811,None,276.3209031999577,None,,,,,,,11032,001,2024_Jan_11_1554,ANT,2021.2.3,59.911379110676386,
1,19,spatial,up,IC,L,,,,,,Block.xlsx,"你已经完成了第一个实验区组

请稍作休息


点击空格键进入下一个区组。",1.5,0,1.5,left,RRLRR.png,,,,,0,0,0,0,3,15,87,18,,,,,,,,,,,,,,,,,,,,,,,,,,,,,,,,,,,,,,,,,,,,,,,,,,,,,,,,,,,,,,,,276.72171739977784,277.123059499776,277.1061866998207,277.2063548997976,277.60640669986606,None,left,1,0.3631957999896258,277.60640669986606,None,277.1061866998207,277.2063548997976,277.2063548997976,None,277.9901678999886,None,,,,,,,11032,001,2024_Jan_11_1554,ANT,2021.2.3,59.911379110676386,
1,4,no,up,IC,R,,,,,,Block.xlsx,"你已经完成了第一个实验区组

请稍作休息


点击空格键进入下一个区组。",50,0,1.5,right,LLRLL.png,,,,,0,0,0,0,3,16,88,3,,,,,,,,,,,,,,,,,,,,,,,,,,,,,,,,,,,,,,,,,,,,,,,,,,,,,,,,,,,,,,,,278.3907804999035,278.7920913998969,278.77472059987485,278.87483449978754,279.2754647999536,None,right,1,0.4856780001427978,279.2754647999536,None,278.77472059987485,278.87483449978754,278.87483449978754,None,279.7760561998002,None,,,,,,,11032,001,2024_Jan_11_1554,ANT,2021.2.3,59.911379110676386,
1,20,spatial,up,IC,R,,,,,,Block.xlsx,"你已经完成了第一个实验区组

请稍作休息


点击空格键进入下一个区组。",1.5,0,1.5,right,LLRLL.png,,,,,0,0,0,0,3,17,89,19,,,,,,,,,,,,,,,,,,,,,,,,,,,,,,,,,,,,,,,,,,,,,,,,,,,,,,,,,,,,,,,,280.176772599807,280.57845239993185,280.56070869998075,280.6608983997721,281.0613775998354,None,right,1,0.49980410002171993,281.0613775998354,None,280.56070869998075,280.6608983997721,280.6608983997721,None,281.5785649998579,None,,,,,,,11032,001,2024_Jan_11_1554,ANT,2021.2.3,59.911379110676386,
1,13,center,down,C,L,,,,,,Block.xlsx,"你已经完成了第一个实验区组

请稍作休息


点击空格键进入下一个区组。",0,50,-1.5,left,LLLLL.png,,,,,0,0,0,0,3,18,90,12,,,,,,,,,,,,,,,,,,,,,,,,,,,,,,,,,,,,,,,,,,,,,,,,,,,,,,,,,,,,,,,,281.97946779988706,282.38063639984466,282.3644583998248,282.464404999977,282.8656507998239,None,left,1,0.5677249000873417,282.8656507998239,None,282.3644583998248,282.464404999977,282.464404999977,None,283.4484142998699,None,,,,,,,11032,001,2024_Jan_11_1554,ANT,2021.2.3,59.911379110676386,
1,2,no,up,C,R,,,,,,Block.xlsx,"你已经完成了第一个实验区组

请稍作休息


点击空格键进入下一个区组。",50,0,1.5,right,RRRRR.png,,,,,0,0,0,0,3,19,91,1,,,,,,,,,,,,,,,,,,,,,,,,,,,,,,,,,,,,,,,,,,,,,,,,,,,,,,,,,,,,,,,,283.8492075998802,284.2497239999939,284.2329227000009,284.33369189989753,284.734498599777,None,right,1,0.6273468001745641,284.734498599777,None,284.2329227000009,284.33369189989753,284.33369189989753,None,285.38490339997225,None,,,,,,,11032,001,2024_Jan_11_1554,ANT,2021.2.3,59.911379110676386,
1,16,center,down,IC,R,,,,,,Block.xlsx,"你已经完成了第一个实验区组

请稍作休息


点击空格键进入下一个区组。",0,50,-1.5,right,LLRLL.png,,,,,0,0,0,0,3,20,92,15,,,,,,,,,,,,,,,,,,,,,,,,,,,,,,,,,,,,,,,,,,,,,,,,,,,,,,,,,,,,,,,,285.78516249987297,286.1873775999993,286.1687510998454,286.26982519985177,286.6702697998844,None,left,0,0.4995922001544386,286.6702697998844,None,286.1687510998454,286.26982519985177,286.26982519985177,None,287.1878523998894,None,,,,,,,11032,001,2024_Jan_11_1554,ANT,2021.2.3,59.911379110676386,
1,12,center,up,IC,R,,,,,,Block.xlsx,"你已经完成了第一个实验区组

请稍作休息


点击空格键进入下一个区组。",0,50,1.5,right,LLRLL.png,,,,,0,0,0,0,3,21,93,11,,,,,,,,,,,,,,,,,,,,,,,,,,,,,,,,,,,,,,,,,,,,,,,,,,,,,,,,,,,,,,,,287.5885138998274,287.9893241999671,287.9722364998888,288.0720264997799,288.47286589979194,None,right,1,0.480641899863258,288.47286589979194,None,287.9722364998888,288.0720264997799,288.0720264997799,None,288.97401489992626,None,,,,,,,11032,001,2024_Jan_11_1554,ANT,2021.2.3,59.911379110676386,
1,15,center,down,IC,L,,,,,,Block.xlsx,"你已经完成了第一个实验区组

请稍作休息


点击空格键进入下一个区组。",0,50,-1.5,left,RRLRR.png,,,,,0,0,0,0,3,22,94,14,,,,,,,,,,,,,,,,,,,,,,,,,,,,,,,,,,,,,,,,,,,,,,,,,,,,,,,,,,,,,,,,289.3736772998236,289.77439899998717,289.7575899998192,289.85822329996154,290.2584056998603,None,left,1,0.622979300096631,290.2584056998603,None,289.7575899998192,289.85822329996154,289.85822329996154,None,290.9094766997732,None,,,,,,,11032,001,2024_Jan_11_1554,ANT,2021.2.3,59.911379110676386,
1,23,spatial,down,IC,L,,,,,,Block.xlsx,"你已经完成了第一个实验区组

请稍作休息


点击空格键进入下一个区组。",-1.5,0,-1.5,left,RRLRR.png,,,,,0,0,0,0,3,23,95,22,,,,,,,,,,,,,,,,,,,,,,,,,,,,,,,,,,,,,,,,,,,,,,,,,,,,,,,,,,,,,,,,291.3099155998789,291.711455399869,291.69451519986615,291.79471239983104,292.1968101998791,None,left,1,0.5164072001352906,292.1968101998791,None,291.69451519986615,291.79471239983104,291.79471239983104,None,292.7286928999238,None,,,,,,,11032,001,2024_Jan_11_1554,ANT,2021.2.3,59.911379110676386,
,,,,,,,,,,,Block.xlsx,"你已经完成了第一个实验区组

请稍作休息


点击空格键进入下一个区组。",,,,,,,,,,0,0,0,0,,,,,,,,,,,,,,,,,,,,,,,,,,,,,,,,,,,,,,,,,,,,,,,,,,,,,,,,,,,,,,,,,,,,,,,,,,,,,,,,,,,,,space,4.296545499935746,293.1289359999355,None,293.1289359999355,None,11032,001,2024_Jan_11_1554,ANT,2021.2.3,59.911379110676386,
1,1,no,up,C,L,,,,,,Block.xlsx,"你已经完成了整个实验（三个区组）。

请报告实验者已完成实验

非常感谢，再见！",50,0,1.5,left,LLLLL.png,,,,,0,1,1,1,0,0,0,0,,,,,,,,,,,,,,,,,,,,,,,,,,,,,,,,,,,,,,,,,,,,,,,,,,,,,,,,,,,,,,,,297.46883939998224,297.870575199835,297.870575199835,297.9705345998518,298.3543025997933,None,left,1,0.5196175999008119,298.3543025997933,None,297.870575199835,297.9705345998518,297.9705345998518,None,298.887584899785,None,,,,,,,11032,001,2024_Jan_11_1554,ANT,2021.2.3,59.911379110676386,
1,9,center,up,C,L,,,,,,Block.xlsx,"你已经完成了整个实验（三个区组）。

请报告实验者已完成实验

非常感谢，再见！",0,50,1.5,left,LLLLL.png,,,,,0,1,1,1,0,1,1,8,,,,,,,,,,,,,,,,,,,,,,,,,,,,,,,,,,,,,,,,,,,,,,,,,,,,,,,,,,,,,,,,299.2886477999855,299.6889836997725,299.6747335998807,299.7903335997835,300.17396229994483,None,left,1,0.47532420000061393,300.17396229994483,None,299.6747335998807,299.7903335997835,299.7734508998692,None,300.67399329994805,None,,,,,,,11032,001,2024_Jan_11_1554,ANT,2021.2.3,59.911379110676386,
1,19,spatial,up,IC,L,,,,,,Block.xlsx,"你已经完成了整个实验（三个区组）。

请报告实验者已完成实验

非常感谢，再见！",1.5,0,1.5,left,RRLRR.png,,,,,0,1,1,1,0,2,2,18,,,,,,,,,,,,,,,,,,,,,,,,,,,,,,,,,,,,,,,,,,,,,,,,,,,,,,,,,,,,,,,,301.0750457998365,301.4757930999622,301.45892749982886,301.55974079994485,301.9596882998012,None,left,1,0.38567350013181567,301.9596882998012,None,301.45892749982886,301.55974079994485,301.55974079994485,None,302.3762646999676,None,,,,,,,11032,001,2024_Jan_11_1554,ANT,2021.2.3,59.911379110676386,
1,24,spatial,down,IC,R,,,,,,Block.xlsx,"你已经完成了整个实验（三个区组）。

请报告实验者已完成实验

非常感谢，再见！",-1.5,0,-1.5,right,LLRLL.png,,,,,0,1,1,1,0,3,3,23,,,,,,,,,,,,,,,,,,,,,,,,,,,,,,,,,,,,,,,,,,,,,,,,,,,,,,,,,,,,,,,,302.77731589996256,303.1781842999626,303.1608726999257,303.2609204999171,303.66211339994334,None,right,1,0.4995194000657648,303.66211339994334,None,303.1608726999257,303.2609204999171,303.2609204999171,None,304.1789187998511,None,,,,,,,11032,001,2024_Jan_11_1554,ANT,2021.2.3,59.911379110676386,
1,20,spatial,up,IC,R,,,,,,Block.xlsx,"你已经完成了整个实验（三个区组）。

请报告实验者已完成实验

非常感谢，再见！",1.5,0,1.5,right,LLRLL.png,,,,,0,1,1,1,0,4,4,19,,,,,,,,,,,,,,,,,,,,,,,,,,,,,,,,,,,,,,,,,,,,,,,,,,,,,,,,,,,,,,,,304.58036749996245,304.9808683998417,304.9636566999834,305.0635288998019,305.46496989997104,None,right,1,0.4328024999704212,305.46496989997104,None,304.9636566999834,305.0635288998019,305.0635288998019,None,305.914894499816,None,,,,,,,11032,001,2024_Jan_11_1554,ANT,2021.2.3,59.911379110676386,
1,11,center,up,IC,L,,,,,,Block.xlsx,"你已经完成了整个实验（三个区组）。

请报告实验者已完成实验

非常感谢，再见！",0,50,1.5,left,RRLRR.png,,,,,0,1,1,1,0,5,5,10,,,,,,,,,,,,,,,,,,,,,,,,,,,,,,,,,,,,,,,,,,,,,,,,,,,,,,,,,,,,,,,,306.31574009987526,306.71826729993336,306.7000481998548,306.80024839984253,307.2018995999824,None,left,1,0.5277239000424743,307.2018995999824,None,306.7000481998548,306.80024839984253,306.80024839984253,None,307.75144479982555,None,,,,,,,11032,001,2024_Jan_11_1554,ANT,2021.2.3,59.911379110676386,
1,10,center,up,C,R,,,,,,Block.xlsx,"你已经完成了整个实验（三个区组）。

请报告实验者已完成实验

非常感谢，再见！",0,50,1.5,right,RRRRR.png,,,,,0,1,1,1,0,6,6,9,,,,,,,,,,,,,,,,,,,,,,,,,,,,,,,,,,,,,,,,,,,,,,,,,,,,,,,,,,,,,,,,308.15172699978575,308.5538716998417,308.5360272999387,308.6361932998989,309.0385364999529,None,right,1,0.39461880014277995,309.0385364999529,None,308.5360272999387,308.6361932998989,308.6361932998989,None,309.45352329988964,None,,,,,,,11032,001,2024_Jan_11_1554,ANT,2021.2.3,59.911379110676386,
1,14,center,down,C,R,,,,,,Block.xlsx,"你已经完成了整个实验（三个区组）。

请报告实验者已完成实验

非常感谢，再见！",0,50,-1.5,right,RRRRR.png,,,,,0,1,1,1,0,7,7,13,,,,,,,,,,,,,,,,,,,,,,,,,,,,,,,,,,,,,,,,,,,,,,,,,,,,,,,,,,,,,,,,309.8550352999009,310.25501029985026,310.23786939983256,310.33894919999875,310.7400925999973,None,right,1,0.5495130000635982,310.7400925999973,None,310.23786939983256,310.33894919999875,310.33894919999875,None,311.30603739991784,None,,,,,,,11032,001,2024_Jan_11_1554,ANT,2021.2.3,59.911379110676386,
1,18,spatial,up,C,R,,,,,,Block.xlsx,"你已经完成了整个实验（三个区组）。

请报告实验者已完成实验

非常感谢，再见！",1.5,0,1.5,right,RRRRR.png,,,,,0,1,1,1,0,8,8,17,,,,,,,,,,,,,,,,,,,,,,,,,,,,,,,,,,,,,,,,,,,,,,,,,,,,,,,,,,,,,,,,311.708025299944,312.10744319995865,312.0911727999337,312.191860999912,312.59241069993004,None,right,1,0.3209200999699533,312.59241069993004,None,312.0911727999337,312.191860999912,312.191860999912,None,312.9418669999577,None,,,,,,,11032,001,2024_Jan_11_1554,ANT,2021.2.3,59.911379110676386,
1,15,center,down,IC,L,,,,,,Block.xlsx,"你已经完成了整个实验（三个区组）。

请报告实验者已完成实验

非常感谢，再见！",0,50,-1.5,left,RRLRR.png,,,,,0,1,1,1,0,9,9,14,,,,,,,,,,,,,,,,,,,,,,,,,,,,,,,,,,,,,,,,,,,,,,,,,,,,,,,,,,,,,,,,313.34276099991985,313.7447622998152,313.7277338998392,313.82750669983216,314.22755969990976,None,left,1,0.6219315999187529,314.22755969990976,None,313.7277338998392,313.82750669983216,313.82750669983216,None,314.8784790998325,None,,,,,,,11032,001,2024_Jan_11_1554,ANT,2021.2.3,59.911379110676386,
1,2,no,up,C,R,,,,,,Block.xlsx,"你已经完成了整个实验（三个区组）。

请报告实验者已完成实验

非常感谢，再见！",50,0,1.5,right,RRRRR.png,,,,,0,1,1,1,0,10,10,1,,,,,,,,,,,,,,,,,,,,,,,,,,,,,,,,,,,,,,,,,,,,,,,,,,,,,,,,,,,,,,,,315.2788465998601,315.68102649995126,315.6627706999425,315.76346629997715,316.1639551999979,None,right,1,0.5252755000256002,316.1639551999979,None,315.6627706999425,315.76346629997715,315.76346629997715,None,316.7141859999392,None,,,,,,,11032,001,2024_Jan_11_1554,ANT,2021.2.3,59.911379110676386,
1,19,spatial,up,IC,L,,,,,,Block.xlsx,"你已经完成了整个实验（三个区组）。

请报告实验者已完成实验

非常感谢，再见！",1.5,0,1.5,left,RRLRR.png,,,,,0,1,1,1,0,11,11,18,,,,,,,,,,,,,,,,,,,,,,,,,,,,,,,,,,,,,,,,,,,,,,,,,,,,,,,,,,,,,,,,317.1150291999802,317.5156124997884,317.5002982998267,317.59911909978837,317.9995062998496,None,left,1,0.48252309998497367,317.9995062998496,None,317.5002982998267,317.59911909978837,317.59911909978837,None,318.5003194999881,None,,,,,,,11032,001,2024_Jan_11_1554,ANT,2021.2.3,59.911379110676386,
1,23,spatial,down,IC,L,,,,,,Block.xlsx,"你已经完成了整个实验（三个区组）。

请报告实验者已完成实验

非常感谢，再见！",-1.5,0,-1.5,left,RRLRR.png,,,,,0,1,1,1,0,12,12,22,,,,,,,,,,,,,,,,,,,,,,,,,,,,,,,,,,,,,,,,,,,,,,,,,,,,,,,,,,,,,,,,318.9012411998119,319.30186069989577,319.2853701999411,319.3849077997729,319.7859618999064,None,left,1,0.5033618998713791,319.7859618999064,None,319.2853701999411,319.3849077997729,319.3849077997729,None,320.3196390999947,None,,,,,,,11032,001,2024_Jan_11_1554,ANT,2021.2.3,59.911379110676386,
1,18,spatial,up,C,R,,,,,,Block.xlsx,"你已经完成了整个实验（三个区组）。

请报告实验者已完成实验

非常感谢，再见！",1.5,0,1.5,right,RRRRR.png,,,,,0,1,1,1,0,13,13,17,,,,,,,,,,,,,,,,,,,,,,,,,,,,,,,,,,,,,,,,,,,,,,,,,,,,,,,,,,,,,,,,320.72038549999706,321.12088889977895,321.1044187999796,321.2067825999111,321.6052327998914,None,right,1,0.34021579986438155,321.6052327998914,None,321.1044187999796,321.2067825999111,321.2067825999111,None,321.97203359985724,None,,,,,,,11032,001,2024_Jan_11_1554,ANT,2021.2.3,59.911379110676386,
1,15,center,down,IC,L,,,,,,Block.xlsx,"你已经完成了整个实验（三个区组）。

请报告实验者已完成实验

非常感谢，再见！",0,50,-1.5,left,RRLRR.png,,,,,0,1,1,1,0,14,14,14,,,,,,,,,,,,,,,,,,,,,,,,,,,,,,,,,,,,,,,,,,,,,,,,,,,,,,,,,,,,,,,,322.37278279988095,322.773771799868,322.7571842998732,322.8579198999796,323.257780399872,None,left,1,0.6075617999304086,323.257780399872,None,322.7571842998732,322.8579198999796,322.8579198999796,None,323.8914940999821,None,,,,,,,11032,001,2024_Jan_11_1554,ANT,2021.2.3,59.911379110676386,
1,4,no,up,IC,R,,,,,,Block.xlsx,"你已经完成了整个实验（三个区组）。

请报告实验者已完成实验

非常感谢，再见！",50,0,1.5,right,LLRLL.png,,,,,0,1,1,1,0,15,15,3,,,,,,,,,,,,,,,,,,,,,,,,,,,,,,,,,,,,,,,,,,,,,,,,,,,,,,,,,,,,,,,,324.2921197998803,324.6925047999248,324.6771394999232,324.77671179990284,325.17784049990587,None,right,1,0.5432651999872178,325.17784049990587,None,324.6771394999232,324.77671179990284,324.77671179990284,None,325.7443333999254,None,,,,,,,11032,001,2024_Jan_11_1554,ANT,2021.2.3,59.911379110676386,
1,4,no,up,IC,R,,,,,,Block.xlsx,"你已经完成了整个实验（三个区组）。

请报告实验者已完成实验

非常感谢，再见！",50,0,1.5,right,LLRLL.png,,,,,0,1,1,1,0,16,16,3,,,,,,,,,,,,,,,,,,,,,,,,,,,,,,,,,,,,,,,,,,,,,,,,,,,,,,,,,,,,,,,,326.1456662998535,326.54641939979047,326.5296054999344,326.62954279989935,327.030407999875,None,right,1,0.41101460019126534,327.030407999875,None,326.5296054999344,326.62954279989935,326.62954279989935,None,327.4633711997885,None,,,,,,,11032,001,2024_Jan_11_1554,ANT,2021.2.3,59.911379110676386,
1,3,no,up,IC,L,,,,,,Block.xlsx,"你已经完成了整个实验（三个区组）。

请报告实验者已完成实验

非常感谢，再见！",50,0,1.5,left,RRLRR.png,,,,,0,1,1,1,0,17,17,2,,,,,,,,,,,,,,,,,,,,,,,,,,,,,,,,,,,,,,,,,,,,,,,,,,,,,,,,,,,,,,,,327.8654795999173,328.2647252997849,328.2480845998507,328.34970749984495,328.7492716999259,None,left,1,0.46819150005467236,328.7492716999259,None,328.2480845998507,328.34970749984495,328.34970749984495,None,329.23306749993935,None,,,,,,,11032,001,2024_Jan_11_1554,ANT,2021.2.3,59.911379110676386,
1,12,center,up,IC,R,,,,,,Block.xlsx,"你已经完成了整个实验（三个区组）。

请报告实验者已完成实验

非常感谢，再见！",0,50,1.5,right,LLRLL.png,,,,,0,1,1,1,0,18,18,11,,,,,,,,,,,,,,,,,,,,,,,,,,,,,,,,,,,,,,,,,,,,,,,,,,,,,,,,,,,,,,,,329.6331272998359,330.0360873998143,330.01830839994363,330.11792419990525,330.5198558999691,None,right,1,0.4573677000589669,330.5198558999691,None,330.01830839994363,330.11792419990525,330.11792419990525,None,331.00203839992173,None,,,,,,,11032,001,2024_Jan_11_1554,ANT,2021.2.3,59.911379110676386,
1,10,center,up,C,R,,,,,,Block.xlsx,"你已经完成了整个实验（三个区组）。

请报告实验者已完成实验

非常感谢，再见！",0,50,1.5,right,RRRRR.png,,,,,0,1,1,1,0,19,19,9,,,,,,,,,,,,,,,,,,,,,,,,,,,,,,,,,,,,,,,,,,,,,,,,,,,,,,,,,,,,,,,,331.4034409997985,331.80514249997213,331.7870502998121,331.88785539986566,332.2879638997838,None,right,1,0.36134560010395944,332.2879638997838,None,331.7870502998121,331.88785539986566,331.88785539986566,None,332.6711887998972,None,,,,,,,11032,001,2024_Jan_11_1554,ANT,2021.2.3,59.911379110676386,
1,4,no,up,IC,R,,,,,,Block.xlsx,"你已经完成了整个实验（三个区组）。

请报告实验者已完成实验

非常感谢，再见！",50,0,1.5,right,LLRLL.png,,,,,0,1,1,1,0,20,20,3,,,,,,,,,,,,,,,,,,,,,,,,,,,,,,,,,,,,,,,,,,,,,,,,,,,,,,,,,,,,,,,,333.0718230998609,333.4738848998677,333.4565714998171,333.55602649995126,333.9571550998371,None,right,1,0.5081770000979304,333.9571550998371,None,333.4565714998171,333.55602649995126,333.55602649995126,None,334.4904516998213,None,,,,,,,11032,001,2024_Jan_11_1554,ANT,2021.2.3,59.911379110676386,
1,12,center,up,IC,R,,,,,,Block.xlsx,"你已经完成了整个实验（三个区组）。

请报告实验者已完成实验

非常感谢，再见！",0,50,1.5,right,LLRLL.png,,,,,0,1,1,1,0,21,21,11,,,,,,,,,,,,,,,,,,,,,,,,,,,,,,,,,,,,,,,,,,,,,,,,,,,,,,,,,,,,,,,,334.8912254997995,335.29295689985156,335.2758693997748,335.3771020998247,335.7766225999221,None,right,1,0.4490503000561148,335.7766225999221,None,335.2758693997748,335.3771020998247,335.3771020998247,None,336.2430479999166,None,,,,,,,11032,001,2024_Jan_11_1554,ANT,2021.2.3,59.911379110676386,
1,22,spatial,down,C,R,,,,,,Block.xlsx,"你已经完成了整个实验（三个区组）。

请报告实验者已完成实验

非常感谢，再见！",-1.5,0,-1.5,right,RRRRR.png,,,,,0,1,1,1,0,22,22,21,,,,,,,,,,,,,,,,,,,,,,,,,,,,,,,,,,,,,,,,,,,,,,,,,,,,,,,,,,,,,,,,336.6448222999461,337.0451926998794,337.02757779997773,337.13009179988876,337.52916479995474,None,right,1,0.4566309000365436,337.52916479995474,None,337.02757779997773,337.13009179988876,337.13009179988876,None,338.01262679998763,None,,,,,,,11032,001,2024_Jan_11_1554,ANT,2021.2.3,59.911379110676386,
1,7,no,down,IC,L,,,,,,Block.xlsx,"你已经完成了整个实验（三个区组）。

请报告实验者已完成实验

非常感谢，再见！",50,0,-1.5,left,RRLRR.png,,,,,0,1,1,1,0,23,23,6,,,,,,,,,,,,,,,,,,,,,,,,,,,,,,,,,,,,,,,,,,,,,,,,,,,,,,,,,,,,,,,,338.4131573999766,338.8138470998965,338.7990769997705,338.9157998999581,339.2981915997807,None,left,1,0.5590262000914663,339.2981915997807,None,338.7990769997705,338.9157998999581,338.89809919986874,None,339.88200179999694,None,,,,,,,11032,001,2024_Jan_11_1554,ANT,2021.2.3,59.911379110676386,
1,17,spatial,up,C,L,,,,,,Block.xlsx,"你已经完成了整个实验（三个区组）。

请报告实验者已完成实验

非常感谢，再见！",1.5,0,1.5,left,LLLLL.png,,,,,0,1,1,1,1,0,24,16,,,,,,,,,,,,,,,,,,,,,,,,,,,,,,,,,,,,,,,,,,,,,,,,,,,,,,,,,,,,,,,,340.28231009980664,340.6853082999587,340.66664289985783,340.76816709991544,341.16746169980615,None,left,1,0.4180287001654506,341.16746169980615,None,340.66664289985783,340.76816709991544,340.76816709991544,None,341.6009953999892,None,,,,,,,11032,001,2024_Jan_11_1554,ANT,2021.2.3,59.911379110676386,
1,24,spatial,down,IC,R,,,,,,Block.xlsx,"你已经完成了整个实验（三个区组）。

请报告实验者已完成实验

非常感谢，再见！",-1.5,0,-1.5,right,LLRLL.png,,,,,0,1,1,1,1,1,25,23,,,,,,,,,,,,,,,,,,,,,,,,,,,,,,,,,,,,,,,,,,,,,,,,,,,,,,,,,,,,,,,,342.00169449998066,342.4032297998201,342.38643609988503,342.48706919979304,342.8868539999239,None,right,1,0.49059459986165166,342.8868539999239,None,342.38643609988503,342.48706919979304,342.48706919979304,None,343.4037734998856,None,,,,,,,11032,001,2024_Jan_11_1554,ANT,2021.2.3,59.911379110676386,
1,5,no,down,C,L,,,,,,Block.xlsx,"你已经完成了整个实验（三个区组）。

请报告实验者已完成实验

非常感谢，再见！",50,0,-1.5,left,LLLLL.png,,,,,0,1,1,1,1,2,26,4,,,,,,,,,,,,,,,,,,,,,,,,,,,,,,,,,,,,,,,,,,,,,,,,,,,,,,,,,,,,,,,,343.8051010998897,344.20690769981593,344.1889541998971,344.2891376998741,344.6892872999888,None,left,1,0.4963463000021875,344.6892872999888,None,344.1889541998971,344.2891376998741,344.2891376998741,None,345.207110399846,None,,,,,,,11032,001,2024_Jan_11_1554,ANT,2021.2.3,59.911379110676386,
1,2,no,up,C,R,,,,,,Block.xlsx,"你已经完成了整个实验（三个区组）。

请报告实验者已完成实验

非常感谢，再见！",50,0,1.5,right,RRRRR.png,,,,,0,1,1,1,1,3,27,1,,,,,,,,,,,,,,,,,,,,,,,,,,,,,,,,,,,,,,,,,,,,,,,,,,,,,,,,,,,,,,,,345.6069332999177,346.00772639992647,345.9925077999942,346.0912549998611,346.49162179999985,None,right,1,0.3980963001959026,346.49162179999985,None,345.9925077999942,346.0912549998611,346.0912549998611,None,346.90889479988255,None,,,,,,,11032,001,2024_Jan_11_1554,ANT,2021.2.3,59.911379110676386,
1,12,center,up,IC,R,,,,,,Block.xlsx,"你已经完成了整个实验（三个区组）。

请报告实验者已完成实验

非常感谢，再见！",0,50,1.5,right,LLRLL.png,,,,,0,1,1,1,1,4,28,11,,,,,,,,,,,,,,,,,,,,,,,,,,,,,,,,,,,,,,,,,,,,,,,,,,,,,,,,,,,,,,,,347.309833599953,347.7110029999167,347.693702199962,347.794749799883,348.19538039993495,None,right,1,0.5019594000186771,348.19538039993495,None,347.693702199962,347.794749799883,347.794749799883,None,348.7285405998118,None,,,,,,,11032,001,2024_Jan_11_1554,ANT,2021.2.3,59.911379110676386,
1,21,spatial,down,C,L,,,,,,Block.xlsx,"你已经完成了整个实验（三个区组）。

请报告实验者已完成实验

非常感谢，再见！",-1.5,0,-1.5,left,LLLLL.png,,,,,0,1,1,1,1,5,29,20,,,,,,,,,,,,,,,,,,,,,,,,,,,,,,,,,,,,,,,,,,,,,,,,,,,,,,,,,,,,,,,,349.1290921999607,349.5300815999508,349.51340679987334,349.61358189978637,350.0144671997987,None,left,1,0.4115191998425871,350.0144671997987,None,349.51340679987334,349.61358189978637,349.61358189978637,None,350.44749979977496,None,,,,,,,11032,001,2024_Jan_11_1554,ANT,2021.2.3,59.911379110676386,
1,22,spatial,down,C,R,,,,,,Block.xlsx,"你已经完成了整个实验（三个区组）。

请报告实验者已完成实验

非常感谢，再见！",-1.5,0,-1.5,right,RRRRR.png,,,,,0,1,1,1,1,6,30,21,,,,,,,,,,,,,,,,,,,,,,,,,,,,,,,,,,,,,,,,,,,,,,,,,,,,,,,,,,,,,,,,350.84819759987295,351.2502609998919,351.23217999981716,351.33369289990515,351.73334539984353,None,right,1,0.4679125000257045,351.73334539984353,None,351.23217999981716,351.33369289990515,351.33369289990515,None,352.2334950999357,None,,,,,,,11032,001,2024_Jan_11_1554,ANT,2021.2.3,59.911379110676386,
1,1,no,up,C,L,,,,,,Block.xlsx,"你已经完成了整个实验（三个区组）。

请报告实验者已完成实验

非常感谢，再见！",50,0,1.5,left,LLLLL.png,,,,,0,1,1,1,1,7,31,0,,,,,,,,,,,,,,,,,,,,,,,,,,,,,,,,,,,,,,,,,,,,,,,,,,,,,,,,,,,,,,,,352.63413929985836,353.0355172997806,353.0180592997931,353.1187203999143,353.5198124998715,None,left,1,0.5458978998940438,353.5198124998715,None,353.0180592997931,353.1187203999143,353.1187203999143,None,354.08627159986645,None,,,,,,,11032,001,2024_Jan_11_1554,ANT,2021.2.3,59.911379110676386,
1,10,center,up,C,R,,,,,,Block.xlsx,"你已经完成了整个实验（三个区组）。

请报告实验者已完成实验

非常感谢，再见！",0,50,1.5,right,RRRRR.png,,,,,0,1,1,1,1,8,32,9,,,,,,,,,,,,,,,,,,,,,,,,,,,,,,,,,,,,,,,,,,,,,,,,,,,,,,,,,,,,,,,,354.4867999998387,354.8881308999844,354.87149749998935,354.9712957998272,355.3731848997995,None,right,1,0.38870789995417,355.3731848997995,None,354.87149749998935,354.9712957998272,354.9712957998272,None,355.7888233999256,None,,,,,,,11032,001,2024_Jan_11_1554,ANT,2021.2.3,59.911379110676386,
1,3,no,up,IC,L,,,,,,Block.xlsx,"你已经完成了整个实验（三个区组）。

请报告实验者已完成实验

非常感谢，再见！",50,0,1.5,left,RRLRR.png,,,,,0,1,1,1,1,9,33,2,,,,,,,,,,,,,,,,,,,,,,,,,,,,,,,,,,,,,,,,,,,,,,,,,,,,,,,,,,,,,,,,356.1894978999626,356.589899599785,356.573265499901,356.67513319989666,357.0747948999051,None,left,1,0.3585494998842478,357.0747948999051,None,356.573265499901,356.67513319989666,356.67513319989666,None,357.4579491999466,None,,,,,,,11032,001,2024_Jan_11_1554,ANT,2021.2.3,59.911379110676386,
1,23,spatial,down,IC,L,,,,,,Block.xlsx,"你已经完成了整个实验（三个区组）。

请报告实验者已完成实验

非常感谢，再见！",-1.5,0,-1.5,left,RRLRR.png,,,,,0,1,1,1,1,10,34,22,,,,,,,,,,,,,,,,,,,,,,,,,,,,,,,,,,,,,,,,,,,,,,,,,,,,,,,,,,,,,,,,357.85848019993864,358.2604659998324,358.24313409999013,358.343515599845,358.74318289989606,None,left,1,0.538417800096795,358.74318289989606,None,358.24313409999013,358.343515599845,358.343515599845,None,359.3108619998675,None,,,,,,,11032,001,2024_Jan_11_1554,ANT,2021.2.3,59.911379110676386,
1,18,spatial,up,C,R,,,,,,Block.xlsx,"你已经完成了整个实验（三个区组）。

请报告实验者已完成实验

非常感谢，再见！",1.5,0,1.5,right,RRRRR.png,,,,,0,1,1,1,1,11,35,17,,,,,,,,,,,,,,,,,,,,,,,,,,,,,,,,,,,,,,,,,,,,,,,,,,,,,,,,,,,,,,,,359.71131559996866,360.112926799804,360.0961187998764,360.1959954998456,360.59679889981635,None,right,1,0.36436379980295897,360.59679889981635,None,360.0961187998764,360.1959954998456,360.1959954998456,None,360.9798246999271,None,,,,,,,11032,001,2024_Jan_11_1554,ANT,2021.2.3,59.911379110676386,
1,23,spatial,down,IC,L,,,,,,Block.xlsx,"你已经完成了整个实验（三个区组）。

请报告实验者已完成实验

非常感谢，再见！",-1.5,0,-1.5,left,RRLRR.png,,,,,0,1,1,1,1,12,36,22,,,,,,,,,,,,,,,,,,,,,,,,,,,,,,,,,,,,,,,,,,,,,,,,,,,,,,,,,,,,,,,,361.3802205999382,361.7815963998437,361.76501139998436,361.86634829989634,362.2657812999096,None,left,1,0.48765229992568493,362.2657812999096,None,361.76501139998436,361.86634829989634,361.86634829989634,None,362.7832791998517,None,,,,,,,11032,001,2024_Jan_11_1554,ANT,2021.2.3,59.911379110676386,
1,22,spatial,down,C,R,,,,,,Block.xlsx,"你已经完成了整个实验（三个区组）。

请报告实验者已完成实验

非常感谢，再见！",-1.5,0,-1.5,right,RRRRR.png,,,,,0,1,1,1,1,13,37,21,,,,,,,,,,,,,,,,,,,,,,,,,,,,,,,,,,,,,,,,,,,,,,,,,,,,,,,,,,,,,,,,363.1831993998494,363.5836913997773,363.56790749984793,363.66830699983984,364.06775459996425,None,right,1,0.4375270998571068,364.06775459996425,None,363.56790749984793,363.66830699983984,363.66830699983984,None,364.53543859999627,None,,,,,,,11032,001,2024_Jan_11_1554,ANT,2021.2.3,59.911379110676386,
1,9,center,up,C,L,,,,,,Block.xlsx,"你已经完成了整个实验（三个区组）。

请报告实验者已完成实验

非常感谢，再见！",0,50,1.5,left,LLLLL.png,,,,,0,1,1,1,1,14,38,8,,,,,,,,,,,,,,,,,,,,,,,,,,,,,,,,,,,,,,,,,,,,,,,,,,,,,,,,,,,,,,,,364.9357620999217,365.3383135998156,365.3201810999308,365.41967149986885,365.8211806998588,None,left,1,0.532428199891001,365.8211806998588,None,365.3201810999308,365.41967149986885,365.41967149986885,None,366.3714405999053,None,,,,,,,11032,001,2024_Jan_11_1554,ANT,2021.2.3,59.911379110676386,
1,24,spatial,down,IC,R,,,,,,Block.xlsx,"你已经完成了整个实验（三个区组）。

请报告实验者已完成实验

非常感谢，再见！",-1.5,0,-1.5,right,LLRLL.png,,,,,0,1,1,1,1,15,39,23,,,,,,,,,,,,,,,,,,,,,,,,,,,,,,,,,,,,,,,,,,,,,,,,,,,,,,,,,,,,,,,,366.7721127998084,367.1743182998616,367.1558899998199,367.2580154999159,367.6575833999086,None,right,1,0.5843433998525143,367.6575833999086,None,367.1558899998199,367.2580154999159,367.2580154999159,None,368.2572517998051,None,,,,,,,11032,001,2024_Jan_11_1554,ANT,2021.2.3,59.911379110676386,
1,19,spatial,up,IC,L,,,,,,Block.xlsx,"你已经完成了整个实验（三个区组）。

请报告实验者已完成实验

非常感谢，再见！",1.5,0,1.5,left,RRLRR.png,,,,,0,1,1,1,1,16,40,18,,,,,,,,,,,,,,,,,,,,,,,,,,,,,,,,,,,,,,,,,,,,,,,,,,,,,,,,,,,,,,,,368.6595818998758,369.05893229995854,369.0428039999679,369.14355339994654,369.54345089988783,None,left,1,0.41879140003584325,369.54345089988783,None,369.0428039999679,369.14355339994654,369.14355339994654,None,369.97637269995175,None,,,,,,,11032,001,2024_Jan_11_1554,ANT,2021.2.3,59.911379110676386,
1,5,no,down,C,L,,,,,,Block.xlsx,"你已经完成了整个实验（三个区组）。

请报告实验者已完成实验

非常感谢，再见！",50,0,-1.5,left,LLLLL.png,,,,,0,1,1,1,1,17,41,4,,,,,,,,,,,,,,,,,,,,,,,,,,,,,,,,,,,,,,,,,,,,,,,,,,,,,,,,,,,,,,,,370.37762079993263,370.7791272997856,370.7608718997799,370.86343759996817,371.2626290998887,None,left,1,0.618647700175643,371.2626290998887,None,370.7608718997799,370.86343759996817,370.86343759996817,None,371.912911699852,None,,,,,,,11032,001,2024_Jan_11_1554,ANT,2021.2.3,59.911379110676386,
1,16,center,down,IC,R,,,,,,Block.xlsx,"你已经完成了整个实验（三个区组）。

请报告实验者已完成实验

非常感谢，再见！",0,50,-1.5,right,LLRLL.png,,,,,0,1,1,1,1,18,42,15,,,,,,,,,,,,,,,,,,,,,,,,,,,,,,,,,,,,,,,,,,,,,,,,,,,,,,,,,,,,,,,,372.3139868997969,372.71500139986165,372.69816559995525,372.7981662999373,373.1982751998585,None,right,1,0.5550989001058042,373.1982751998585,None,372.69816559995525,372.7981662999373,372.7981662999373,None,373.7827809997834,None,,,,,,,11032,001,2024_Jan_11_1554,ANT,2021.2.3,59.911379110676386,
1,13,center,down,C,L,,,,,,Block.xlsx,"你已经完成了整个实验（三个区组）。

请报告实验者已完成实验

非常感谢，再见！",0,50,-1.5,left,LLLLL.png,,,,,0,1,1,1,1,19,43,12,,,,,,,,,,,,,,,,,,,,,,,,,,,,,,,,,,,,,,,,,,,,,,,,,,,,,,,,,,,,,,,,374.18273639981635,374.5839355997741,374.56760189984925,374.668190700002,375.0676659999881,None,left,1,0.43062980007380247,375.0676659999881,None,374.56760189984925,374.668190700002,374.668190700002,None,375.5179497997742,None,,,,,,,11032,001,2024_Jan_11_1554,ANT,2021.2.3,59.911379110676386,
1,9,center,up,C,L,,,,,,Block.xlsx,"你已经完成了整个实验（三个区组）。

请报告实验者已完成实验

非常感谢，再见！",0,50,1.5,left,LLLLL.png,,,,,0,1,1,1,1,20,44,8,,,,,,,,,,,,,,,,,,,,,,,,,,,,,,,,,,,,,,,,,,,,,,,,,,,,,,,,,,,,,,,,375.919556299923,376.3192893997766,376.3029922998976,376.40261779981665,376.8045913998503,None,left,1,0.4847305999137461,376.8045913998503,None,376.3029922998976,376.40261779981665,376.40261779981665,None,377.304019899806,None,,,,,,,11032,001,2024_Jan_11_1554,ANT,2021.2.3,59.911379110676386,
1,7,no,down,IC,L,,,,,,Block.xlsx,"你已经完成了整个实验（三个区组）。

请报告实验者已完成实验

非常感谢，再见！",50,0,-1.5,left,RRLRR.png,,,,,0,1,1,1,1,21,45,6,,,,,,,,,,,,,,,,,,,,,,,,,,,,,,,,,,,,,,,,,,,,,,,,,,,,,,,,,,,,,,,,377.7052213998977,378.10670239990577,378.0895566998515,378.18993079988286,378.58964749984443,None,left,1,0.6278671999461949,378.58964749984443,None,378.0895566998515,378.18993079988286,378.18993079988286,None,379.2405227997806,None,,,,,,,11032,001,2024_Jan_11_1554,ANT,2021.2.3,59.911379110676386,
1,1,no,up,C,L,,,,,,Block.xlsx,"你已经完成了整个实验（三个区组）。

请报告实验者已完成实验

非常感谢，再见！",50,0,1.5,left,LLLLL.png,,,,,0,1,1,1,1,22,46,0,,,,,,,,,,,,,,,,,,,,,,,,,,,,,,,,,,,,,,,,,,,,,,,,,,,,,,,,,,,,,,,,379.64091309998184,380.0413524999749,380.0253418998327,380.1273097998928,380.526883599814,None,left,1,0.49916970008052886,380.526883599814,None,380.0253418998327,380.1273097998928,380.1273097998928,None,381.04278119979426,None,,,,,,,11032,001,2024_Jan_11_1554,ANT,2021.2.3,59.911379110676386,
1,6,no,down,C,R,,,,,,Block.xlsx,"你已经完成了整个实验（三个区组）。

请报告实验者已完成实验

非常感谢，再见！",50,0,-1.5,right,RRRRR.png,,,,,0,1,1,1,1,23,47,5,,,,,,,,,,,,,,,,,,,,,,,,,,,,,,,,,,,,,,,,,,,,,,,,,,,,,,,,,,,,,,,,381.44355449988507,381.8463720998261,381.8280371997971,381.92939369985834,382.3297437999863,None,right,1,0.6003195000812411,382.3297437999863,None,381.8280371997971,381.92939369985834,381.92939369985834,None,382.9457584999036,None,,,,,,,11032,001,2024_Jan_11_1554,ANT,2021.2.3,59.911379110676386,
1,11,center,up,IC,L,,,,,,Block.xlsx,"你已经完成了整个实验（三个区组）。

请报告实验者已完成实验

非常感谢，再见！",0,50,1.5,left,RRLRR.png,,,,,0,1,1,1,2,0,48,10,,,,,,,,,,,,,,,,,,,,,,,,,,,,,,,,,,,,,,,,,,,,,,,,,,,,,,,,,,,,,,,,383.3463850999251,383.7479950999841,383.7302551998291,383.8309553998988,384.2313105999492,None,left,1,0.5460795001126826,384.2313105999492,None,383.7302551998291,383.8309553998988,383.8309553998988,None,384.798617699882,None,,,,,,,11032,001,2024_Jan_11_1554,ANT,2021.2.3,59.911379110676386,
1,21,spatial,down,C,L,,,,,,Block.xlsx,"你已经完成了整个实验（三个区组）。

请报告实验者已完成实验

非常感谢，再见！",-1.5,0,-1.5,left,LLLLL.png,,,,,0,1,1,1,2,1,49,20,,,,,,,,,,,,,,,,,,,,,,,,,,,,,,,,,,,,,,,,,,,,,,,,,,,,,,,,,,,,,,,,385.1999068998266,385.60061959992163,385.5834911998827,385.68398429988883,386.0864915999118,None,left,1,0.42713039997033775,386.0864915999118,None,385.5834911998827,385.68398429988883,385.68398429988883,None,386.53483169991523,None,,,,,,,11032,001,2024_Jan_11_1554,ANT,2021.2.3,59.911379110676386,
1,7,no,down,IC,L,,,,,,Block.xlsx,"你已经完成了整个实验（三个区组）。

请报告实验者已完成实验

非常感谢，再见！",50,0,-1.5,left,RRLRR.png,,,,,0,1,1,1,2,2,50,6,,,,,,,,,,,,,,,,,,,,,,,,,,,,,,,,,,,,,,,,,,,,,,,,,,,,,,,,,,,,,,,,386.9348345999606,387.3355172998272,387.32009079982527,387.43652539979666,387.82071599992923,None,left,1,0.48471560003235936,387.82071599992923,None,387.32009079982527,387.43652539979666,387.4205525999423,None,388.3211783999577,None,,,,,,,11032,001,2024_Jan_11_1554,ANT,2021.2.3,59.911379110676386,
1,20,spatial,up,IC,R,,,,,,Block.xlsx,"你已经完成了整个实验（三个区组）。

请报告实验者已完成实验

非常感谢，再见！",1.5,0,1.5,right,LLRLL.png,,,,,0,1,1,1,2,3,51,19,,,,,,,,,,,,,,,,,,,,,,,,,,,,,,,,,,,,,,,,,,,,,,,,,,,,,,,,,,,,,,,,388.72175909997895,389.1229024999775,389.1048117999453,389.2053918999154,389.60663649998605,None,right,1,0.48368940013460815,389.60663649998605,None,389.1048117999453,389.2053918999154,389.2053918999154,None,390.1064618998207,None,,,,,,,11032,001,2024_Jan_11_1554,ANT,2021.2.3,59.911379110676386,
1,15,center,down,IC,L,,,,,,Block.xlsx,"你已经完成了整个实验（三个区组）。

请报告实验者已完成实验

非常感谢，再见！",0,50,-1.5,left,RRLRR.png,,,,,0,1,1,1,2,4,52,14,,,,,,,,,,,,,,,,,,,,,,,,,,,,,,,,,,,,,,,,,,,,,,,,,,,,,,,,,,,,,,,,390.50794399995357,390.9084270999301,390.8918595998548,390.9922171998769,391.3936413999181,None,left,1,0.6158759000245482,391.3936413999181,None,390.8918595998548,390.9922171998769,390.9922171998769,None,392.0257636997849,None,,,,,,,11032,001,2024_Jan_11_1554,ANT,2021.2.3,59.911379110676386,
1,17,spatial,up,C,L,,,,,,Block.xlsx,"你已经完成了整个实验（三个区组）。

请报告实验者已完成实验

非常感谢，再见！",1.5,0,1.5,left,LLLLL.png,,,,,0,1,1,1,2,5,53,16,,,,,,,,,,,,,,,,,,,,,,,,,,,,,,,,,,,,,,,,,,,,,,,,,,,,,,,,,,,,,,,,392.42655719979666,392.8282120998483,392.8103910998907,392.9108208999969,393.31173189985566,None,left,1,0.41756569989956915,393.31173189985566,None,392.8103910998907,392.9108208999969,392.9108208999969,None,393.7452302998863,None,,,,,,,11032,001,2024_Jan_11_1554,ANT,2021.2.3,59.911379110676386,
1,3,no,up,IC,L,,,,,,Block.xlsx,"你已经完成了整个实验（三个区组）。

请报告实验者已完成实验

非常感谢，再见！",50,0,1.5,left,RRLRR.png,,,,,0,1,1,1,2,6,54,2,,,,,,,,,,,,,,,,,,,,,,,,,,,,,,,,,,,,,,,,,,,,,,,,,,,,,,,,,,,,,,,,394.1460309999529,394.5474671998527,394.52962759998627,394.6309007999953,395.0320708998479,None,left,1,0.4572656999807805,395.0320708998479,None,394.52962759998627,394.6309007999953,394.6309007999953,None,395.51417209999636,None,,,,,,,11032,001,2024_Jan_11_1554,ANT,2021.2.3,59.911379110676386,
1,16,center,down,IC,R,,,,,,Block.xlsx,"你已经完成了整个实验（三个区组）。

请报告实验者已完成实验

非常感谢，再见！",0,50,-1.5,right,LLRLL.png,,,,,0,1,1,1,2,7,55,15,,,,,,,,,,,,,,,,,,,,,,,,,,,,,,,,,,,,,,,,,,,,,,,,,,,,,,,,,,,,,,,,395.9151566999499,396.31782289990224,396.29907379997894,396.39917549979873,396.8005056998227,None,right,1,0.6340403999201953,396.8005056998227,None,396.29907379997894,396.39917549979873,396.39917549979873,None,397.4512696999591,None,,,,,,,11032,001,2024_Jan_11_1554,ANT,2021.2.3,59.911379110676386,
1,14,center,down,C,R,,,,,,Block.xlsx,"你已经完成了整个实验（三个区组）。

请报告实验者已完成实验

非常感谢，再见！",0,50,-1.5,right,RRRRR.png,,,,,0,1,1,1,2,8,56,13,,,,,,,,,,,,,,,,,,,,,,,,,,,,,,,,,,,,,,,,,,,,,,,,,,,,,,,,,,,,,,,,397.85108909988776,398.2520063999109,398.235918499995,398.33721569995396,398.7366033999715,None,right,1,0.5451315001118928,398.7366033999715,None,398.235918499995,398.33721569995396,398.33721569995396,None,399.3035231998656,None,,,,,,,11032,001,2024_Jan_11_1554,ANT,2021.2.3,59.911379110676386,
1,6,no,down,C,R,,,,,,Block.xlsx,"你已经完成了整个实验（三个区组）。

请报告实验者已完成实验

非常感谢，再见！",50,0,-1.5,right,RRRRR.png,,,,,0,1,1,1,2,9,57,5,,,,,,,,,,,,,,,,,,,,,,,,,,,,,,,,,,,,,,,,,,,,,,,,,,,,,,,,,,,,,,,,399.70470719994046,400.10625640000217,400.08798949979246,400.1896691999864,400.58951249998063,None,right,1,0.484168800059706,400.58951249998063,None,400.08798949979246,400.1896691999864,400.1896691999864,None,401.08925939979963,None,,,,,,,11032,001,2024_Jan_11_1554,ANT,2021.2.3,59.911379110676386,
1,2,no,up,C,R,,,,,,Block.xlsx,"你已经完成了整个实验（三个区组）。

请报告实验者已完成实验

非常感谢，再见！",50,0,1.5,right,RRRRR.png,,,,,0,1,1,1,2,10,58,1,,,,,,,,,,,,,,,,,,,,,,,,,,,,,,,,,,,,,,,,,,,,,,,,,,,,,,,,,,,,,,,,401.490606599953,401.89068749989383,401.87415249994956,401.9746545997914,402.3744050997775,None,right,1,0.5799470997881144,402.3744050997775,None,401.87415249994956,401.9746545997914,401.9746545997914,None,402.97546529979445,None,,,,,,,11032,001,2024_Jan_11_1554,ANT,2021.2.3,59.911379110676386,
1,6,no,down,C,R,,,,,,Block.xlsx,"你已经完成了整个实验（三个区组）。

请报告实验者已完成实验

非常感谢，再见！",50,0,-1.5,right,RRRRR.png,,,,,0,1,1,1,2,11,59,5,,,,,,,,,,,,,,,,,,,,,,,,,,,,,,,,,,,,,,,,,,,,,,,,,,,,,,,,,,,,,,,,403.3758873997722,403.7778264998924,403.7600747998804,403.8618532998953,404.2610687999986,None,right,1,0.5178473999258131,404.2610687999986,None,403.7600747998804,403.8618532998953,403.8618532998953,None,404.794879199937,None,,,,,,,11032,001,2024_Jan_11_1554,ANT,2021.2.3,59.911379110676386,
1,16,center,down,IC,R,,,,,,Block.xlsx,"你已经完成了整个实验（三个区组）。

请报告实验者已完成实验

非常感谢，再见！",0,50,-1.5,right,LLRLL.png,,,,,0,1,1,1,2,12,60,15,,,,,,,,,,,,,,,,,,,,,,,,,,,,,,,,,,,,,,,,,,,,,,,,,,,,,,,,,,,,,,,,405.19630219996907,405.5959426998161,405.5801970998291,405.67932509980164,406.08170169987716,None,right,1,0.5517261000350118,406.08170169987716,None,405.5801970998291,405.67932509980164,405.67932509980164,None,406.6642395998351,None,,,,,,,11032,001,2024_Jan_11_1554,ANT,2021.2.3,59.911379110676386,
1,9,center,up,C,L,,,,,,Block.xlsx,"你已经完成了整个实验（三个区组）。

请报告实验者已完成实验

非常感谢，再见！",0,50,1.5,left,LLLLL.png,,,,,0,1,1,1,2,13,61,8,,,,,,,,,,,,,,,,,,,,,,,,,,,,,,,,,,,,,,,,,,,,,,,,,,,,,,,,,,,,,,,,407.0649621998891,407.46605159994215,407.4498802998569,407.54897179990076,407.95089919981547,None,left,1,0.4506521997973323,407.95089919981547,None,407.4498802998569,407.54897179990076,407.54897179990076,None,408.4167162999511,None,,,,,,,11032,001,2024_Jan_11_1554,ANT,2021.2.3,59.911379110676386,
1,5,no,down,C,L,,,,,,Block.xlsx,"你已经完成了整个实验（三个区组）。

请报告实验者已完成实验

非常感谢，再见！",50,0,-1.5,left,LLLLL.png,,,,,0,1,1,1,2,14,62,4,,,,,,,,,,,,,,,,,,,,,,,,,,,,,,,,,,,,,,,,,,,,,,,,,,,,,,,,,,,,,,,,408.81798169994727,409.21896359999664,409.20202529989183,409.3015731999185,409.70249919989146,None,left,1,0.4908366999588907,409.70249919989146,None,409.20202529989183,409.3015731999185,409.3015731999185,None,410.21933969995007,None,,,,,,,11032,001,2024_Jan_11_1554,ANT,2021.2.3,59.911379110676386,
1,18,spatial,up,C,R,,,,,,Block.xlsx,"你已经完成了整个实验（三个区组）。

请报告实验者已完成实验

非常感谢，再见！",1.5,0,1.5,right,RRRRR.png,,,,,0,1,1,1,2,15,63,17,,,,,,,,,,,,,,,,,,,,,,,,,,,,,,,,,,,,,,,,,,,,,,,,,,,,,,,,,,,,,,,,410.6209505998995,411.0227678997908,411.00401599984616,411.1062931998167,411.5054465997964,None,right,1,0.38428370002657175,411.5054465997964,None,411.00401599984616,411.1062931998167,411.1062931998167,None,411.90578229981475,None,,,,,,,11032,001,2024_Jan_11_1554,ANT,2021.2.3,59.911379110676386,
1,19,spatial,up,IC,L,,,,,,Block.xlsx,"你已经完成了整个实验（三个区组）。

请报告实验者已完成实验

非常感谢，再见！",1.5,0,1.5,left,RRLRR.png,,,,,0,1,1,1,2,16,64,18,,,,,,,,,,,,,,,,,,,,,,,,,,,,,,,,,,,,,,,,,,,,,,,,,,,,,,,,,,,,,,,,412.3067458998412,412.70643679983914,412.6909634999465,412.7912302999757,413.19169589993544,None,left,1,0.4507007000502199,413.19169589993544,None,412.6909634999465,412.7912302999757,412.7912302999757,None,413.65776029997505,None,,,,,,,11032,001,2024_Jan_11_1554,ANT,2021.2.3,59.911379110676386,
1,14,center,down,C,R,,,,,,Block.xlsx,"你已经完成了整个实验（三个区组）。

请报告实验者已完成实验

非常感谢，再见！",0,50,-1.5,right,RRRRR.png,,,,,0,1,1,1,2,17,65,13,,,,,,,,,,,,,,,,,,,,,,,,,,,,,,,,,,,,,,,,,,,,,,,,,,,,,,,,,,,,,,,,414.0585830998607,414.45989129994996,414.44491029996425,414.5601437999867,414.94323919992894,None,right,1,0.4580914000980556,414.94323919992894,None,414.44491029996425,414.5601437999867,414.5445031998679,None,415.42720999987796,None,,,,,,,11032,001,2024_Jan_11_1554,ANT,2021.2.3,59.911379110676386,
1,11,center,up,IC,L,,,,,,Block.xlsx,"你已经完成了整个实验（三个区组）。

请报告实验者已完成实验

非常感谢，再见！",0,50,1.5,left,RRLRR.png,,,,,0,1,1,1,2,18,66,10,,,,,,,,,,,,,,,,,,,,,,,,,,,,,,,,,,,,,,,,,,,,,,,,,,,,,,,,,,,,,,,,415.82845049980097,416.2284229998477,416.212480599992,416.3122135999147,416.713139699772,None,left,1,0.4885982000268996,416.713139699772,None,416.212480599992,416.3122135999147,416.3122135999147,None,417.22987689985894,None,,,,,,,11032,001,2024_Jan_11_1554,ANT,2021.2.3,59.911379110676386,
1,11,center,up,IC,L,,,,,,Block.xlsx,"你已经完成了整个实验（三个区组）。

请报告实验者已完成实验

非常感谢，再见！",0,50,1.5,left,RRLRR.png,,,,,0,1,1,1,2,19,67,10,,,,,,,,,,,,,,,,,,,,,,,,,,,,,,,,,,,,,,,,,,,,,,,,,,,,,,,,,,,,,,,,417.63051479985006,418.0319647998549,418.0166918998584,418.13184389984235,418.5151876998134,None,left,1,0.5101498998701572,418.5151876998134,None,418.0166918998584,418.13184389984235,418.1165879999753,None,419.049504699884,None,,,,,,,11032,001,2024_Jan_11_1554,ANT,2021.2.3,59.911379110676386,
1,8,no,down,IC,R,,,,,,Block.xlsx,"你已经完成了整个实验（三个区组）。

请报告实验者已完成实验

非常感谢，再见！",50,0,-1.5,right,LLRLL.png,,,,,0,1,1,1,2,20,68,7,,,,,,,,,,,,,,,,,,,,,,,,,,,,,,,,,,,,,,,,,,,,,,,,,,,,,,,,,,,,,,,,419.45115979993716,419.85085259983316,419.8338606997859,419.9349944998976,420.33514979993924,None,right,1,0.706567799905315,420.33514979993924,None,419.8338606997859,419.9349944998976,419.9349944998976,None,421.06895889993757,None,,,,,,,11032,001,2024_Jan_11_1554,ANT,2021.2.3,59.911379110676386,
1,5,no,down,C,L,,,,,,Block.xlsx,"你已经完成了整个实验（三个区组）。

请报告实验者已完成实验

非常感谢，再见！",50,0,-1.5,left,LLLLL.png,,,,,0,1,1,1,2,21,69,4,,,,,,,,,,,,,,,,,,,,,,,,,,,,,,,,,,,,,,,,,,,,,,,,,,,,,,,,,,,,,,,,421.4700676999055,421.8706895997748,421.85417129984125,421.95480709988624,422.35470819985494,None,left,1,0.42286440008319914,422.35470819985494,None,421.85417129984125,421.95480709988624,421.95480709988624,None,422.804848899832,None,,,,,,,11032,001,2024_Jan_11_1554,ANT,2021.2.3,59.911379110676386,
1,1,no,up,C,L,,,,,,Block.xlsx,"你已经完成了整个实验（三个区组）。

请报告实验者已完成实验

非常感谢，再见！",50,0,1.5,left,LLLLL.png,,,,,0,1,1,1,2,22,70,0,,,,,,,,,,,,,,,,,,,,,,,,,,,,,,,,,,,,,,,,,,,,,,,,,,,,,,,,,,,,,,,,423.20518789999187,423.6066068999935,423.59031569981016,423.6896473998204,424.0911499999929,None,left,1,0.526375399902463,424.0911499999929,None,423.59031569981016,423.6896473998204,423.6896473998204,None,424.6412944998592,None,,,,,,,11032,001,2024_Jan_11_1554,ANT,2021.2.3,59.911379110676386,
1,8,no,down,IC,R,,,,,,Block.xlsx,"你已经完成了整个实验（三个区组）。

请报告实验者已完成实验

非常感谢，再见！",50,0,-1.5,right,LLRLL.png,,,,,0,1,1,1,2,23,71,7,,,,,,,,,,,,,,,,,,,,,,,,,,,,,,,,,,,,,,,,,,,,,,,,,,,,,,,,,,,,,,,,425.04134479979984,425.4434576998465,425.42675669980235,425.5255560998339,425.92646279977635,None,right,1,0.6676979998592287,425.92646279977635,None,425.42675669980235,425.5255560998339,425.5255560998339,None,426.6105404999107,None,,,,,,,11032,001,2024_Jan_11_1554,ANT,2021.2.3,59.911379110676386,
1,13,center,down,C,L,,,,,,Block.xlsx,"你已经完成了整个实验（三个区组）。

请报告实验者已完成实验

非常感谢，再见！",0,50,-1.5,left,LLLLL.png,,,,,0,1,1,1,3,0,72,12,,,,,,,,,,,,,,,,,,,,,,,,,,,,,,,,,,,,,,,,,,,,,,,,,,,,,,,,,,,,,,,,427.0122674999293,427.41343699977733,427.39515719981864,427.49593159998767,427.89591759978794,None,left,1,0.6498147998936474,427.89591759978794,None,427.39515719981864,427.49593159998767,427.49593159998767,None,428.56350809987634,None,,,,,,,11032,001,2024_Jan_11_1554,ANT,2021.2.3,59.911379110676386,
1,24,spatial,down,IC,R,,,,,,Block.xlsx,"你已经完成了整个实验（三个区组）。

请报告实验者已完成实验

非常感谢，再见！",-1.5,0,-1.5,right,LLRLL.png,,,,,0,1,1,1,3,1,73,23,,,,,,,,,,,,,,,,,,,,,,,,,,,,,,,,,,,,,,,,,,,,,,,,,,,,,,,,,,,,,,,,428.9638414999936,429.3656410998665,429.34793159994297,429.44978389982134,429.84924159990624,None,right,1,0.448698400054127,429.84924159990624,None,429.34793159994297,429.44978389982134,429.44978389982134,None,430.3159505999647,None,,,,,,,11032,001,2024_Jan_11_1554,ANT,2021.2.3,59.911379110676386,
1,6,no,down,C,R,,,,,,Block.xlsx,"你已经完成了整个实验（三个区组）。

请报告实验者已完成实验

非常感谢，再见！",50,0,-1.5,right,RRRRR.png,,,,,0,1,1,1,3,2,74,5,,,,,,,,,,,,,,,,,,,,,,,,,,,,,,,,,,,,,,,,,,,,,,,,,,,,,,,,,,,,,,,,430.7171778997872,431.11832779995166,431.1029062999878,431.2010767997708,431.6028550998308,None,right,1,0.4310974001418799,431.6028550998308,None,431.1029062999878,431.2010767997708,431.2010767997708,None,432.0522532998584,None,,,,,,,11032,001,2024_Jan_11_1554,ANT,2021.2.3,59.911379110676386,
1,17,spatial,up,C,L,,,,,,Block.xlsx,"你已经完成了整个实验（三个区组）。

请报告实验者已完成实验

非常感谢，再见！",1.5,0,1.5,left,LLLLL.png,,,,,0,1,1,1,3,3,75,16,,,,,,,,,,,,,,,,,,,,,,,,,,,,,,,,,,,,,,,,,,,,,,,,,,,,,,,,,,,,,,,,432.4531469999347,432.8537072998006,432.83703149994835,432.93800879991613,433.33715409995057,None,left,1,0.36896690004505217,433.33715409995057,None,432.83703149994835,432.93800879991613,432.93800879991613,None,433.72143149981275,None,,,,,,,11032,001,2024_Jan_11_1554,ANT,2021.2.3,59.911379110676386,
1,7,no,down,IC,L,,,,,,Block.xlsx,"你已经完成了整个实验（三个区组）。

请报告实验者已完成实验

非常感谢，再见！",50,0,-1.5,left,RRLRR.png,,,,,0,1,1,1,3,4,76,6,,,,,,,,,,,,,,,,,,,,,,,,,,,,,,,,,,,,,,,,,,,,,,,,,,,,,,,,,,,,,,,,434.1219600997865,434.5231512999162,434.5059526998084,434.606587999966,435.00667549995705,None,left,1,0.5866512001957744,435.00667549995705,None,434.5059526998084,434.606587999966,434.606587999966,None,435.6238821998704,None,,,,,,,11032,001,2024_Jan_11_1554,ANT,2021.2.3,59.911379110676386,
1,21,spatial,down,C,L,,,,,,Block.xlsx,"你已经完成了整个实验（三个区组）。

请报告实验者已完成实验

非常感谢，再见！",-1.5,0,-1.5,left,LLLLL.png,,,,,0,1,1,1,3,5,77,20,,,,,,,,,,,,,,,,,,,,,,,,,,,,,,,,,,,,,,,,,,,,,,,,,,,,,,,,,,,,,,,,436.02545469999313,436.4263708998915,436.4082932998426,436.509384999983,436.9097550997976,None,left,1,0.3555678999982774,436.9097550997976,None,436.4082932998426,436.509384999983,436.509384999983,None,437.2930123999249,None,,,,,,,11032,001,2024_Jan_11_1554,ANT,2021.2.3,59.911379110676386,
1,14,center,down,C,R,,,,,,Block.xlsx,"你已经完成了整个实验（三个区组）。

请报告实验者已完成实验

非常感谢，再见！",0,50,-1.5,right,RRRRR.png,,,,,0,1,1,1,3,6,78,13,,,,,,,,,,,,,,,,,,,,,,,,,,,,,,,,,,,,,,,,,,,,,,,,,,,,,,,,,,,,,,,,437.6933204999659,438.09481759998016,438.07839049980976,438.17828219989315,438.57894109981135,None,right,1,0.49455840000882745,438.57894109981135,None,438.07839049980976,438.17828219989315,438.17828219989315,None,439.096125499811,None,,,,,,,11032,001,2024_Jan_11_1554,ANT,2021.2.3,59.911379110676386,
1,20,spatial,up,IC,R,,,,,,Block.xlsx,"你已经完成了整个实验（三个区组）。

请报告实验者已完成实验

非常感谢，再见！",1.5,0,1.5,right,LLRLL.png,,,,,0,1,1,1,3,7,79,19,,,,,,,,,,,,,,,,,,,,,,,,,,,,,,,,,,,,,,,,,,,,,,,,,,,,,,,,,,,,,,,,439.4962947999593,439.8972092999611,439.88075289991684,439.9833343999926,440.3805607999675,None,right,1,0.5183111999649554,440.3805607999675,None,439.88075289991684,439.9833343999926,439.9833343999926,None,440.91586649999954,None,,,,,,,11032,001,2024_Jan_11_1554,ANT,2021.2.3,59.911379110676386,
1,10,center,up,C,R,,,,,,Block.xlsx,"你已经完成了整个实验（三个区组）。

请报告实验者已完成实验

非常感谢，再见！",0,50,1.5,right,RRRRR.png,,,,,0,1,1,1,3,8,80,9,,,,,,,,,,,,,,,,,,,,,,,,,,,,,,,,,,,,,,,,,,,,,,,,,,,,,,,,,,,,,,,,441.3165195998736,441.7172972999979,441.70055680000223,441.80043029994704,442.201255899854,None,right,1,0.32905919989570975,442.201255899854,None,441.70055680000223,441.80043029994704,441.80043029994704,None,442.55066359997727,None,,,,,,,11032,001,2024_Jan_11_1554,ANT,2021.2.3,59.911379110676386,
1,20,spatial,up,IC,R,,,,,,Block.xlsx,"你已经完成了整个实验（三个区组）。

请报告实验者已完成实验

非常感谢，再见！",1.5,0,1.5,right,LLRLL.png,,,,,0,1,1,1,3,9,81,19,,,,,,,,,,,,,,,,,,,,,,,,,,,,,,,,,,,,,,,,,,,,,,,,,,,,,,,,,,,,,,,,442.952143299859,443.35294369980693,443.33635099977255,443.43562869983725,443.836699699983,None,right,1,0.4608132999856025,443.836699699983,None,443.33635099977255,443.43562869983725,443.43562869983725,None,444.319905199809,None,,,,,,,11032,001,2024_Jan_11_1554,ANT,2021.2.3,59.911379110676386,
1,3,no,up,IC,L,,,,,,Block.xlsx,"你已经完成了整个实验（三个区组）。

请报告实验者已完成实验

非常感谢，再见！",50,0,1.5,left,RRLRR.png,,,,,0,1,1,1,3,10,82,2,,,,,,,,,,,,,,,,,,,,,,,,,,,,,,,,,,,,,,,,,,,,,,,,,,,,,,,,,,,,,,,,444.72138159978203,445.1213063998148,445.10536879999563,445.2058125999756,445.606503599789,None,left,1,0.458927100058645,445.606503599789,None,445.10536879999563,445.2058125999756,445.2058125999756,None,446.08932949998416,None,,,,,,,11032,001,2024_Jan_11_1554,ANT,2021.2.3,59.911379110676386,
1,12,center,up,IC,R,,,,,,Block.xlsx,"你已经完成了整个实验（三个区组）。

请报告实验者已完成实验

非常感谢，再见！",0,50,1.5,right,LLRLL.png,,,,,0,1,1,1,3,11,83,11,,,,,,,,,,,,,,,,,,,,,,,,,,,,,,,,,,,,,,,,,,,,,,,,,,,,,,,,,,,,,,,,446.4909858999308,446.89226699993014,446.87379849981517,446.97593979979865,447.3754774997942,None,right,1,0.5221765998285264,447.3754774997942,None,446.87379849981517,446.97593979979865,446.97593979979865,None,447.925377599895,None,,,,,,,11032,001,2024_Jan_11_1554,ANT,2021.2.3,59.911379110676386,
1,8,no,down,IC,R,,,,,,Block.xlsx,"你已经完成了整个实验（三个区组）。

请报告实验者已完成实验

非常感谢，再见！",50,0,-1.5,right,LLRLL.png,,,,,0,1,1,1,3,12,84,7,,,,,,,,,,,,,,,,,,,,,,,,,,,,,,,,,,,,,,,,,,,,,,,,,,,,,,,,,,,,,,,,448.32590029994026,448.7290342999622,448.7108386999462,448.81218679994345,449.2116403998807,None,right,1,0.7346826000139117,449.2116403998807,None,448.7108386999462,448.81218679994345,448.81218679994345,None,449.961526399944,None,,,,,,,11032,001,2024_Jan_11_1554,ANT,2021.2.3,59.911379110676386,
1,4,no,up,IC,R,,,,,,Block.xlsx,"你已经完成了整个实验（三个区组）。

请报告实验者已完成实验

非常感谢，再见！",50,0,1.5,right,LLRLL.png,,,,,0,1,1,1,3,13,85,3,,,,,,,,,,,,,,,,,,,,,,,,,,,,,,,,,,,,,,,,,,,,,,,,,,,,,,,,,,,,,,,,450.362704699859,450.76349969999865,450.7473245000001,450.8484100999776,451.2481103998143,None,right,1,0.5539859998971224,451.2481103998143,None,450.7473245000001,450.8484100999776,450.8484100999776,None,451.8311186998617,None,,,,,,,11032,001,2024_Jan_11_1554,ANT,2021.2.3,59.911379110676386,
1,16,center,down,IC,R,,,,,,Block.xlsx,"你已经完成了整个实验（三个区组）。

请报告实验者已完成实验

非常感谢，再见！",0,50,-1.5,right,LLRLL.png,,,,,0,1,1,1,3,14,86,15,,,,,,,,,,,,,,,,,,,,,,,,,,,,,,,,,,,,,,,,,,,,,,,,,,,,,,,,,,,,,,,,452.23196249990724,452.63414529990405,452.61614779988304,452.71559469983913,453.11661529983394,None,right,1,0.565888499841094,453.11661529983394,None,452.61614779988304,452.71559469983913,452.71559469983913,None,453.7004731998313,None,,,,,,,11032,001,2024_Jan_11_1554,ANT,2021.2.3,59.911379110676386,
1,15,center,down,IC,L,,,,,,Block.xlsx,"你已经完成了整个实验（三个区组）。

请报告实验者已完成实验

非常感谢，再见！",0,50,-1.5,left,RRLRR.png,,,,,0,1,1,1,3,15,87,14,,,,,,,,,,,,,,,,,,,,,,,,,,,,,,,,,,,,,,,,,,,,,,,,,,,,,,,,,,,,,,,,454.10120709985495,454.503983899951,454.4857145999558,454.58531489991583,454.9865104998462,None,left,1,0.6233284999616444,454.9865104998462,None,454.4857145999558,454.58531489991583,454.58531489991583,None,455.6367404998746,None,,,,,,,11032,001,2024_Jan_11_1554,ANT,2021.2.3,59.911379110676386,
1,22,spatial,down,C,R,,,,,,Block.xlsx,"你已经完成了整个实验（三个区组）。

请报告实验者已完成实验

非常感谢，再见！",-1.5,0,-1.5,right,RRRRR.png,,,,,0,1,1,1,3,16,88,21,,,,,,,,,,,,,,,,,,,,,,,,,,,,,,,,,,,,,,,,,,,,,,,,,,,,,,,,,,,,,,,,456.0376236999873,456.43980229995213,456.4222992998548,456.52239459985867,456.9226155998185,None,right,1,0.39926839992403984,456.9226155998185,None,456.4222992998548,456.52239459985867,456.52239459985867,None,457.33928369986825,None,,,,,,,11032,001,2024_Jan_11_1554,ANT,2021.2.3,59.911379110676386,
1,21,spatial,down,C,L,,,,,,Block.xlsx,"你已经完成了整个实验（三个区组）。

请报告实验者已完成实验

非常感谢，再见！",-1.5,0,-1.5,left,LLLLL.png,,,,,0,1,1,1,3,17,89,20,,,,,,,,,,,,,,,,,,,,,,,,,,,,,,,,,,,,,,,,,,,,,,,,,,,,,,,,,,,,,,,,457.739873399958,458.1412645999808,458.1254560998641,458.22486149985343,458.6263467997778,None,left,1,0.4793300998862833,458.6263467997778,None,458.1254560998641,458.22486149985343,458.22486149985343,None,459.12535479990765,None,,,,,,,11032,001,2024_Jan_11_1554,ANT,2021.2.3,59.911379110676386,
1,13,center,down,C,L,,,,,,Block.xlsx,"你已经完成了整个实验（三个区组）。

请报告实验者已完成实验

非常感谢，再见！",0,50,-1.5,left,LLLLL.png,,,,,0,1,1,1,3,18,90,12,,,,,,,,,,,,,,,,,,,,,,,,,,,,,,,,,,,,,,,,,,,,,,,,,,,,,,,,,,,,,,,,459.52586569986306,459.92777379998006,459.91002309997566,460.0108589997981,460.4115333999507,None,left,1,0.4303452998865396,460.4115333999507,None,459.91002309997566,460.0108589997981,460.0108589997981,None,460.8613730999641,None,,,,,,,11032,001,2024_Jan_11_1554,ANT,2021.2.3,59.911379110676386,
1,17,spatial,up,C,L,,,,,,Block.xlsx,"你已经完成了整个实验（三个区组）。

请报告实验者已完成实验

非常感谢，再见！",1.5,0,1.5,left,LLLLL.png,,,,,0,1,1,1,3,19,91,16,,,,,,,,,,,,,,,,,,,,,,,,,,,,,,,,,,,,,,,,,,,,,,,,,,,,,,,,,,,,,,,,461.26209319988266,461.6641472999472,461.64638299983926,461.74718069983646,462.1484495999757,None,left,1,0.4210633998736739,462.1484495999757,None,461.64638299983926,461.74718069983646,461.74718069983646,None,462.59715629997663,None,,,,,,,11032,001,2024_Jan_11_1554,ANT,2021.2.3,59.911379110676386,
1,2,no,up,C,R,,,,,,Block.xlsx,"你已经完成了整个实验（三个区组）。

请报告实验者已完成实验

