TrialType,TrialNumber,WarningType,TargetType,FlankerType,TargetDirection,W,f,Y,corr,imageFile,condition,endtext,Yw,Yf,Yt,Corr,imagefile,trials_3.thisRepN,trials_3.thisTrialN,trials_3.thisN,trials_3.thisIndex,trials_2.thisRepN,trials_2.thisTrialN,trials_2.thisN,trials_2.thisIndex,trials.thisRepN,trials.thisTrialN,trials.thisN,trials.thisIndex,instr.started,instr.stopped,key_resp.keys,key_resp.rt,key_resp.started,key_resp.stopped,image.started,image.stopped,key_resp_6.keys,key_resp_6.rt,key_resp_6.started,key_resp_6.stopped,EX_L.started,EX_L.stopped,AL.started,AL.stopped,key_resp_7.keys,key_resp_7.rt,key_resp_7.started,key_resp_7.stopped,EX_R.started,EX_R.stopped,RR.started,RR.stopped,key_resp_8.keys,key_resp_8.rt,key_resp_8.started,key_resp_8.stopped,image_2.started,image_2.stopped,key_resp_9.keys,key_resp_9.rt,key_resp_9.started,key_resp_9.stopped,image_3.started,image_3.stopped,key_resp_10.keys,key_resp_10.rt,key_resp_10.started,key_resp_10.stopped,fix.started,fix.stopped,war.started,war.stopped,tar.started,tar.stopped,key_resp_4.keys,key_resp_4.corr,key_resp_4.rt,key_resp_4.started,key_resp_4.stopped,fix2.started,fix2.stopped,fix_2.started,fix_2.stopped,Feedback.started,Feedback.stopped,key_resp_2.keys,key_resp_2.rt,key_resp_2.started,key_resp_2.stopped,text_5.started,text_5.stopped,fix2_1.started,fix2_1.stopped,Warn.started,Warn.stopped,Tar.started,Tar.stopped,key_resp_5.keys,key_resp_5.corr,key_resp_5.rt,key_resp_5.started,key_resp_5.stopped,Fix_2.started,Fix_2.stopped,fix2_2.started,fix2_2.stopped,text_4.started,text_4.stopped,key_resp_3.keys,key_resp_3.rt,key_resp_3.started,key_resp_3.stopped,text_3.started,text_3.stopped,participant,session,date,expName,psychopyVersion,frameRate,
,,,,,,,,,,,,,,,,,,,,,,,,,,,,,,8.904770099790767,None,space,2.8243535000365227,8.904770099790767,None,,,,,,,,,,,,,,,,,,,,,,,,,,,,,,,,,,,,,,,,,,,,,,,,,,,,,,,,,,,,,,,,,,,,,,,,,,,,,,,,,11035,001,2024_Mar_10_1358,ANT,2021.2.3,59.624959011866835,
,,,,,,,,,,,,,,,,,,,,,,,,,,,,,,,,,,,,11.759412699844688,None,space,12.050035299966112,11.759412699844688,None,,,,,,,,,,,,,,,,,,,,,,,,,,,,,,,,,,,,,,,,,,,,,,,,,,,,,,,,,,,,,,,,,,,,,,,,,,,11035,001,2024_Mar_10_1358,ANT,2021.2.3,59.624959011866835,
,,,,,,,,,,,,,,,,,,,,,,,,,,,,,,,,,,,,,,,,,,23.827725499868393,None,23.827725499868393,None,left,1.4776852999348193,23.827725499868393,None,,,,,,,,,,,,,,,,,,,,,,,,,,,,,,,,,,,,,,,,,,,,,,,,,,,,,,,,,,,,,,,,,,,11035,001,2024_Mar_10_1358,ANT,2021.2.3,59.624959011866835,
,,,,,,,,,,,,,,,,,,,,,,,,,,,,,,,,,,,,,,,,,,,,,,,,,,25.329789699986577,None,25.329789699986577,None,right,0.8158136000856757,25.329789699986577,None,,,,,,,,,,,,,,,,,,,,,,,,,,,,,,,,,,,,,,,,,,,,,,,,,,,,,,,,,,,11035,001,2024_Mar_10_1358,ANT,2021.2.3,59.624959011866835,
,,,,,,,,,,,,,,,,,,,,,,,,,,,,,,,,,,,,,,,,,,,,,,,,,,,,,,,,,,26.1641677999869,None,space,21.726246000034735,26.1641677999869,None,,,,,,,,,,,,,,,,,,,,,,,,,,,,,,,,,,,,,,,,,,,,,,,,,,,,,11035,001,2024_Mar_10_1358,ANT,2021.2.3,59.624959011866835,
,,,,,,,,,,,,,,,,,,,,,,,,,,,,,,,,,,,,,,,,,,,,,,,,,,,,,,,,,,,,,,,,47.91371289989911,None,space,2.2721861000172794,47.91371289989911,None,,,,,,,,,,,,,,,,,,,,,,,,,,,,,,,,,,,,,,,,,,,,,,,11035,001,2024_Mar_10_1358,ANT,2021.2.3,59.624959011866835,
0,8,center,down,IC,L,0,50,-1.5,left,RRLRR.png,,,,,,,,0,0,0,7,,,,,,,,,,,,,,,,,,,,,,,,,,,,,,,,,,,,,,,,,,,,,,,,,50.28481819992885,50.685318199917674,50.65136199980043,50.75223269988783,51.15281609981321,None,left,1,0.8015793999657035,51.15281609981321,None,50.65136199980043,50.75223269988783,50.75223269988783,None,51.987799499882385,None,,,,,,,,,,,,,,,,,,,,,,,,,,,,,,11035,001,2024_Mar_10_1358,ANT,2021.2.3,59.624959011866835,
0,4,no,down,IC,L,50,0,-1.5,left,RRLRR.png,,,,,,,,0,1,1,3,,,,,,,,,,,,,,,,,,,,,,,,,,,,,,,,,,,,,,,,,,,,,,,,,53.98956449981779,54.39122729981318,54.3740201999899,54.47423189994879,54.87416789983399,None,left,1,0.696629700018093,54.87416789983399,None,54.3740201999899,54.47423189994879,54.47423189994879,None,55.59182339999825,None,,,,,,,,,,,,,,,,,,,,,,,,,,,,,,11035,001,2024_Mar_10_1358,ANT,2021.2.3,59.624959011866835,
0,5,center,up,C,L,0,50,1.5,left,LLLLL.png,,,,,,,,0,2,2,4,,,,,,,,,,,,,,,,,,,,,,,,,,,,,,,,,,,,,,,,,,,,,,,,,57.59513599984348,57.99567659990862,57.97949599986896,58.08020989992656,58.47974049998447,None,left,1,0.41963150002993643,58.47974049998447,None,57.97949599986896,58.08020989992656,58.08020989992656,None,58.91355049982667,None,,,,,,,,,,,,,,,,,,,,,,,,,,,,,,11035,001,2024_Mar_10_1358,ANT,2021.2.3,59.624959011866835,
0,10,spatial,up,IC,L,1.5,0,1.5,left,RRLRR.png,,,,,,,,0,3,3,9,,,,,,,,,,,,,,,,,,,,,,,,,,,,,,,,,,,,,,,,,,,,,,,,,60.91779009997845,61.31724669993855,61.30191729986109,61.40125359990634,61.80224539991468,None,left,1,0.5128710998687893,61.80224539991468,None,61.30191729986109,61.40125359990634,61.40125359990634,None,62.33515719999559,None,,,,,,,,,,,,,,,,,,,,,,,,,,,,,,11035,001,2024_Mar_10_1358,ANT,2021.2.3,59.624959011866835,
0,12,spatial,down,IC,R,-1.5,0,-1.5,right,LLRLL.png,,,,,,,,0,4,4,11,,,,,,,,,,,,,,,,,,,,,,,,,,,,,,,,,,,,,,,,,,,,,,,,,64.33855209988542,64.74126359983347,64.72248379979283,64.82254449999891,65.2238325998187,None,right,1,0.5390864000655711,65.2238325998187,None,64.72248379979283,64.82254449999891,64.82254449999891,None,65.79074379988015,None,,,,,,,,,,,,,,,,,,,,,,,,,,,,,,11035,001,2024_Mar_10_1358,ANT,2021.2.3,59.624959011866835,
0,1,no,up,C,L,50,0,1.5,left,LLLLL.png,,,,,,,,0,5,5,0,,,,,,,,,,,,,,,,,,,,,,,,,,,,,,,,,,,,,,,,,,,,,,,,,67.79401879990473,68.19491579988971,68.17894379980862,68.27773429988883,68.67933329986408,None,left,1,0.6842314000241458,68.67933329986408,None,68.17894379980862,68.27773429988883,68.27773429988883,None,69.37924859998748,None,,,,,,,,,,,,,,,,,,,,,,,,,,,,,,11035,001,2024_Mar_10_1358,ANT,2021.2.3,59.624959011866835,
0,3,no,down,C,R,50,0,-1.5,right,RRRRR.png,,,,,,,,0,6,6,2,,,,,,,,,,,,,,,,,,,,,,,,,,,,,,,,,,,,,,,,,,,,,,,,,71.3825640999712,71.78308469988406,71.76648399978876,71.8672849999275,72.26799459988251,None,right,1,0.6309174001216888,72.26799459988251,None,71.76648399978876,71.8672849999275,71.8672849999275,None,72.9180788998492,None,,,,,,,,,,,,,,,,,,,,,,,,,,,,,,11035,001,2024_Mar_10_1358,ANT,2021.2.3,59.624959011866835,
0,9,spatial,up,C,R,1.5,0,1.5,right,RRRRR.png,,,,,,,,0,7,7,8,,,,,,,,,,,,,,,,,,,,,,,,,,,,,,,,,,,,,,,,,,,,,,,,,74.92198909982108,75.32339989999309,75.30510160000995,75.40526449983008,75.80604149983265,None,right,1,0.4135529000777751,75.80604149983265,None,75.30510160000995,75.40526449983008,75.40526449983008,None,76.23985439981334,None,,,,,,,,,,,,,,,,,,,,,,,,,,,,,,11035,001,2024_Mar_10_1358,ANT,2021.2.3,59.624959011866835,
0,7,center,down,C,R,0,50,-1.5,right,RRRRR.png,,,,,,,,0,8,8,6,,,,,,,,,,,,,,,,,,,,,,,,,,,,,,,,,,,,,,,,,,,,,,,,,78.24286879994906,78.64336849981919,78.62868129997514,78.74442419991829,79.12738189985976,None,right,1,0.43545790016651154,79.12738189985976,None,78.62868129997514,78.74442419991829,78.72892539994791,None,79.59492499986663,None,,,,,,,,,,,,,,,,,,,,,,,,,,,,,,11035,001,2024_Mar_10_1358,ANT,2021.2.3,59.624959011866835,
0,2,no,up,IC,R,50,0,1.5,right,LLRLL.png,,,,,,,,0,9,9,1,,,,,,,,,,,,,,,,,,,,,,,,,,,,,,,,,,,,,,,,,,,,,,,,,81.59792039985768,82.00022199982777,81.98178609996103,82.08347469987348,82.4828153999988,None,left,0,0.3601870001293719,82.4828153999988,None,81.98178609996103,82.08347469987348,82.08347469987348,None,82.86642929981463,None,,,,,,,,,,,,,,,,,,,,,,,,,,,,,,11035,001,2024_Mar_10_1358,ANT,2021.2.3,59.624959011866835,
0,11,spatial,down,C,L,-1.5,0,-1.5,left,LLLLL.png,,,,,,,,0,10,10,10,,,,,,,,,,,,,,,,,,,,,,,,,,,,,,,,,,,,,,,,,,,,,,,,,84.86959319980815,85.2718705998268,85.25333309988491,85.35526490001939,85.7541757998988,None,left,1,0.48132559983059764,85.7541757998988,None,85.25333309988491,85.35526490001939,85.35526490001939,None,86.25487609999254,None,,,,,,,,,,,,,,,,,,,,,,,,,,,,,,11035,001,2024_Mar_10_1358,ANT,2021.2.3,59.624959011866835,
0,6,center,up,IC,R,0,50,1.5,right,LLRLL.png,,,,,,,,0,11,11,5,,,,,,,,,,,,,,,,,,,,,,,,,,,,,,,,,,,,,,,,,,,,,,,,,88.25824179989286,88.66000339994207,88.64169399999082,88.74305129982531,89.14363349997438,None,right,1,0.5481283999979496,89.14363349997438,None,88.64169399999082,88.74305129982531,88.74305129982531,None,89.71009279997088,None,,,,,,,,,,,,,,,,,,,,,,,,,,,,,,11035,001,2024_Mar_10_1358,ANT,2021.2.3,59.624959011866835,
,,,,,,,,,,,,,,,,,,,,,,,,,,,,,,,,,,,,,,,,,,,,,,,,,,,,,,,,,,,,,,,,,,,,,,,,,,,,,,,,,,,,,,,space,9.37029409990646,91.71364049986005,None,,,,,,,,,,,,,,,,,,,,,,,,,,11035,001,2024_Mar_10_1358,ANT,2021.2.3,59.624959011866835,
1,14,center,down,C,R,,,,,,Block.xlsx,"你已经完成了第一个实验区组

请稍作休息


点击空格键进入下一个区组。",0,50,-1.5,right,RRRRR.png,,,,,0,0,0,0,0,0,0,13,,,,,,,,,,,,,,,,,,,,,,,,,,,,,,,,,,,,,,,,,,,,,,,,,,,,,,,,,,,,,,91.71364049986005,None,101.14550169999711,101.54612099984661,101.52803599997424,101.62816089997068,102.02906309999526,None,right,1,0.4864183000754565,102.02906309999526,None,101.52803599997424,101.62816089997068,101.62816089997068,None,102.54617029987276,None,,,,,,,11035,001,2024_Mar_10_1358,ANT,2021.2.3,59.624959011866835,
1,24,spatial,down,IC,R,,,,,,Block.xlsx,"你已经完成了第一个实验区组

请稍作休息


点击空格键进入下一个区组。",-1.5,0,-1.5,right,LLRLL.png,,,,,0,0,0,0,0,1,1,23,,,,,,,,,,,,,,,,,,,,,,,,,,,,,,,,,,,,,,,,,,,,,,,,,,,,,,,,,,,,,,,,102.94675619993359,103.34730859985575,103.3310174997896,103.43085629981942,103.83319019991904,None,right,1,0.49934399989433587,103.83319019991904,None,103.3310174997896,103.43085629981942,103.43085629981942,None,104.34879549988545,None,,,,,,,11035,001,2024_Mar_10_1358,ANT,2021.2.3,59.624959011866835,
1,20,spatial,up,IC,R,,,,,,Block.xlsx,"你已经完成了第一个实验区组

请稍作休息


点击空格键进入下一个区组。",1.5,0,1.5,right,LLRLL.png,,,,,0,0,0,0,0,2,2,19,,,,,,,,,,,,,,,,,,,,,,,,,,,,,,,,,,,,,,,,,,,,,,,,,,,,,,,,,,,,,,,,104.74938639998436,105.15077720000409,105.1341355999466,105.23527689999901,105.63484359998256,None,right,1,0.6179084000177681,105.63484359998256,None,105.1341355999466,105.23527689999901,105.23527689999901,None,106.26827399991453,None,,,,,,,11035,001,2024_Mar_10_1358,ANT,2021.2.3,59.624959011866835,
1,2,no,up,C,R,,,,,,Block.xlsx,"你已经完成了第一个实验区组

请稍作休息


点击空格键进入下一个区组。",50,0,1.5,right,RRRRR.png,,,,,0,0,0,0,0,3,3,1,,,,,,,,,,,,,,,,,,,,,,,,,,,,,,,,,,,,,,,,,,,,,,,,,,,,,,,,,,,,,,,,106.66915049985982,107.07037939992733,107.05408659996465,107.15414909995161,107.5544157999102,None,right,1,0.5052217000629753,107.5544157999102,None,107.05408659996465,107.15414909995161,107.15414909995161,None,108.0877477999311,None,,,,,,,11035,001,2024_Mar_10_1358,ANT,2021.2.3,59.624959011866835,
1,6,no,down,C,R,,,,,,Block.xlsx,"你已经完成了第一个实验区组

请稍作休息


点击空格键进入下一个区组。",50,0,-1.5,right,RRRRR.png,,,,,0,0,0,0,0,4,4,5,,,,,,,,,,,,,,,,,,,,,,,,,,,,,,,,,,,,,,,,,,,,,,,,,,,,,,,,,,,,,,,,108.48847919981927,108.89108239999041,108.87235019984655,108.97339049982838,109.37302910001017,None,right,1,0.5187059000600129,109.37302910001017,None,108.87235019984655,108.97339049982838,108.97339049982838,None,109.90728129982017,None,,,,,,,11035,001,2024_Mar_10_1358,ANT,2021.2.3,59.624959011866835,
1,1,no,up,C,L,,,,,,Block.xlsx,"你已经完成了第一个实验区组

请稍作休息


点击空格键进入下一个区组。",50,0,1.5,left,LLLLL.png,,,,,0,0,0,0,0,5,5,0,,,,,,,,,,,,,,,,,,,,,,,,,,,,,,,,,,,,,,,,,,,,,,,,,,,,,,,,,,,,,,,,110.30911159981042,110.70848799985833,110.69217449985445,110.7926752998028,111.1936565998476,None,left,1,0.5860617000143975,111.1936565998476,None,110.69217449985445,110.7926752998028,110.7926752998028,None,111.81026399997063,None,,,,,,,11035,001,2024_Mar_10_1358,ANT,2021.2.3,59.624959011866835,
1,3,no,up,IC,L,,,,,,Block.xlsx,"你已经完成了第一个实验区组

请稍作休息


点击空格键进入下一个区组。",50,0,1.5,left,RRLRR.png,,,,,0,0,0,0,0,6,6,2,,,,,,,,,,,,,,,,,,,,,,,,,,,,,,,,,,,,,,,,,,,,,,,,,,,,,,,,,,,,,,,,112.21073920000345,112.6126021000091,112.59470479981974,112.69471229985356,113.0973348999396,None,left,1,0.44271550001576543,113.0973348999396,None,112.59470479981974,112.69471229985356,112.69471229985356,None,113.56280129984953,None,,,,,,,11035,001,2024_Mar_10_1358,ANT,2021.2.3,59.624959011866835,
1,19,spatial,up,IC,L,,,,,,Block.xlsx,"你已经完成了第一个实验区组

请稍作休息


点击空格键进入下一个区组。",1.5,0,1.5,left,RRLRR.png,,,,,0,0,0,0,0,7,7,18,,,,,,,,,,,,,,,,,,,,,,,,,,,,,,,,,,,,,,,,,,,,,,,,,,,,,,,,,,,,,,,,113.96345189982094,114.36500629992224,114.34862919989973,114.44816719996743,114.84912659996189,None,left,1,0.47526099998503923,114.84912659996189,None,114.34862919989973,114.44816719996743,114.44816719996743,None,115.34883679985069,None,,,,,,,11035,001,2024_Mar_10_1358,ANT,2021.2.3,59.624959011866835,
1,3,no,up,IC,L,,,,,,Block.xlsx,"你已经完成了第一个实验区组

请稍作休息


点击空格键进入下一个区组。",50,0,1.5,left,RRLRR.png,,,,,0,0,0,0,0,8,8,2,,,,,,,,,,,,,,,,,,,,,,,,,,,,,,,,,,,,,,,,,,,,,,,,,,,,,,,,,,,,,,,,115.7504011997953,116.15070759993978,116.13535329978913,116.2508045998402,116.63583319983445,None,left,1,0.45633379998616874,116.63583319983445,None,116.13535329978913,116.2508045998402,116.2341800997965,None,117.11908570001833,None,,,,,,,11035,001,2024_Mar_10_1358,ANT,2021.2.3,59.624959011866835,
1,5,no,down,C,L,,,,,,Block.xlsx,"你已经完成了第一个实验区组

请稍作休息


点击空格键进入下一个区组。",50,0,-1.5,left,LLLLL.png,,,,,0,0,0,0,0,9,9,4,,,,,,,,,,,,,,,,,,,,,,,,,,,,,,,,,,,,,,,,,,,,,,,,,,,,,,,,,,,,,,,,117.5196395998355,117.91941599990241,117.90273139998317,118.00415880000219,118.40434759994969,None,left,1,0.535809800028801,118.40434759994969,None,117.90273139998317,118.00415880000219,118.00415880000219,None,118.95450879982673,None,,,,,,,11035,001,2024_Mar_10_1358,ANT,2021.2.3,59.624959011866835,
1,18,spatial,up,C,R,,,,,,Block.xlsx,"你已经完成了第一个实验区组

请稍作休息


点击空格键进入下一个区组。",1.5,0,1.5,right,RRRRR.png,,,,,0,0,0,0,0,10,10,17,,,,,,,,,,,,,,,,,,,,,,,,,,,,,,,,,,,,,,,,,,,,,,,,,,,,,,,,,,,,,,,,119.3561170999892,119.75613629980944,119.73892069980502,119.84088149992749,120.24053239985369,None,right,1,0.38781050010584295,120.24053239985369,None,119.73892069980502,119.84088149992749,119.84088149992749,None,120.6569140998181,None,,,,,,,11035,001,2024_Mar_10_1358,ANT,2021.2.3,59.624959011866835,
1,17,spatial,up,C,L,,,,,,Block.xlsx,"你已经完成了第一个实验区组

请稍作休息


点击空格键进入下一个区组。",1.5,0,1.5,left,LLLLL.png,,,,,0,0,0,0,0,11,11,16,,,,,,,,,,,,,,,,,,,,,,,,,,,,,,,,,,,,,,,,,,,,,,,,,,,,,,,,,,,,,,,,121.05735289980657,121.45863199979067,121.44189449981786,121.54135259985924,121.94297079998069,None,left,1,0.42927270010113716,121.94297079998069,None,121.44189449981786,121.54135259985924,121.54135259985924,None,122.39277399983257,None,,,,,,,11035,001,2024_Mar_10_1358,ANT,2021.2.3,59.624959011866835,
1,24,spatial,down,IC,R,,,,,,Block.xlsx,"你已经完成了第一个实验区组

请稍作休息


点击空格键进入下一个区组。",-1.5,0,-1.5,right,LLRLL.png,,,,,0,0,0,0,0,12,12,23,,,,,,,,,,,,,,,,,,,,,,,,,,,,,,,,,,,,,,,,,,,,,,,,,,,,,,,,,,,,,,,,122.7935355999507,123.19390599988401,123.179163799854,123.29480009991676,123.6786803000141,None,right,1,0.6299694001208991,123.6786803000141,None,123.179163799854,123.29480009991676,123.27910849987529,None,124.32924999995157,None,,,,,,,11035,001,2024_Mar_10_1358,ANT,2021.2.3,59.624959011866835,
1,23,spatial,down,IC,L,,,,,,Block.xlsx,"你已经完成了第一个实验区组

请稍作休息


点击空格键进入下一个区组。",-1.5,0,-1.5,left,RRLRR.png,,,,,0,0,0,0,0,13,13,22,,,,,,,,,,,,,,,,,,,,,,,,,,,,,,,,,,,,,,,,,,,,,,,,,,,,,,,,,,,,,,,,124.72970309993252,125.13176449993625,125.11465010000393,125.21372669981793,125.61504989978857,None,left,1,0.41371010011062026,125.61504989978857,None,125.11465010000393,125.21372669981793,125.21372669981793,None,126.04887899989262,None,,,,,,,11035,001,2024_Mar_10_1358,ANT,2021.2.3,59.624959011866835,
1,6,no,down,C,R,,,,,,Block.xlsx,"你已经完成了第一个实验区组

请稍作休息


点击空格键进入下一个区组。",50,0,-1.5,right,RRRRR.png,,,,,0,0,0,0,0,14,14,5,,,,,,,,,,,,,,,,,,,,,,,,,,,,,,,,,,,,,,,,,,,,,,,,,,,,,,,,,,,,,,,,126.44892949983478,126.85095529980026,126.83282259991392,126.93388349981979,127.33544009993784,None,right,1,0.5489089000038803,127.33544009993784,None,126.83282259991392,126.93388349981979,126.93388349981979,None,127.90112809999846,None,,,,,,,11035,001,2024_Mar_10_1358,ANT,2021.2.3,59.624959011866835,
1,17,spatial,up,C,L,,,,,,Block.xlsx,"你已经完成了第一个实验区组

请稍作休息


点击空格键进入下一个区组。",1.5,0,1.5,left,LLLLL.png,,,,,0,0,0,0,0,15,15,16,,,,,,,,,,,,,,,,,,,,,,,,,,,,,,,,,,,,,,,,,,,,,,,,,,,,,,,,,,,,,,,,128.30144909978844,128.70227189990692,128.68557440000586,128.78668979997747,129.1860316998791,None,left,1,0.506557899992913,129.1860316998791,None,128.68557440000586,128.78668979997747,128.78668979997747,None,129.72106869984418,None,,,,,,,11035,001,2024_Mar_10_1358,ANT,2021.2.3,59.624959011866835,
1,11,center,up,IC,L,,,,,,Block.xlsx,"你已经完成了第一个实验区组

请稍作休息


点击空格键进入下一个区组。",0,50,1.5,left,RRLRR.png,,,,,0,0,0,0,0,16,16,10,,,,,,,,,,,,,,,,,,,,,,,,,,,,,,,,,,,,,,,,,,,,,,,,,,,,,,,,,,,,,,,,130.12179359979928,130.52162209991366,130.5055425998289,130.60704789985903,131.0065335999243,None,left,1,0.5341646999586374,131.0065335999243,None,130.5055425998289,130.60704789985903,130.60704789985903,None,131.5565732999239,None,,,,,,,11035,001,2024_Mar_10_1358,ANT,2021.2.3,59.624959011866835,
1,13,center,down,C,L,,,,,,Block.xlsx,"你已经完成了第一个实验区组

请稍作休息


点击空格键进入下一个区组。",0,50,-1.5,left,LLLLL.png,,,,,0,0,0,0,0,17,17,12,,,,,,,,,,,,,,,,,,,,,,,,,,,,,,,,,,,,,,,,,,,,,,,,,,,,,,,,,,,,,,,,131.95803859992884,132.35793019994162,132.34092719992623,132.4424038999714,132.84223730000667,None,left,1,0.49844080000184476,132.84223730000667,None,132.34092719992623,132.4424038999714,132.4424038999714,None,133.3593472999055,None,,,,,,,11035,001,2024_Mar_10_1358,ANT,2021.2.3,59.624959011866835,
1,12,center,up,IC,R,,,,,,Block.xlsx,"你已经完成了第一个实验区组

请稍作休息


点击空格键进入下一个区组。",0,50,1.5,right,LLRLL.png,,,,,0,0,0,0,0,18,18,11,,,,,,,,,,,,,,,,,,,,,,,,,,,,,,,,,,,,,,,,,,,,,,,,,,,,,,,,,,,,,,,,133.76078969985247,134.161463299999,134.14456809987314,134.24365209997632,134.6446501999162,None,right,1,0.5685217999853194,134.6446501999162,None,134.14456809987314,134.24365209997632,134.24365209997632,None,135.2291390998289,None,,,,,,,11035,001,2024_Mar_10_1358,ANT,2021.2.3,59.624959011866835,
1,22,spatial,down,C,R,,,,,,Block.xlsx,"你已经完成了第一个实验区组

请稍作休息


点击空格键进入下一个区组。",-1.5,0,-1.5,right,RRRRR.png,,,,,0,0,0,0,0,19,19,21,,,,,,,,,,,,,,,,,,,,,,,,,,,,,,,,,,,,,,,,,,,,,,,,,,,,,,,,,,,,,,,,135.62975779990666,136.0300406999886,136.01406660000794,136.11437499988824,136.5160991998855,None,right,1,0.46487769996747375,136.5160991998855,None,136.01406660000794,136.11437499988824,136.11437499988824,None,136.99838549993,None,,,,,,,11035,001,2024_Mar_10_1358,ANT,2021.2.3,59.624959011866835,
1,11,center,up,IC,L,,,,,,Block.xlsx,"你已经完成了第一个实验区组

请稍作休息


点击空格键进入下一个区组。",0,50,1.5,left,RRLRR.png,,,,,0,0,0,0,0,20,20,10,,,,,,,,,,,,,,,,,,,,,,,,,,,,,,,,,,,,,,,,,,,,,,,,,,,,,,,,,,,,,,,,137.3994944000151,137.8000743999146,137.78348569991067,137.88343539997004,138.28390459995717,None,left,1,0.49731050012633204,138.28390459995717,None,137.78348569991067,137.88343539997004,137.88343539997004,None,138.80100729991682,None,,,,,,,11035,001,2024_Mar_10_1358,ANT,2021.2.3,59.624959011866835,
1,18,spatial,up,C,R,,,,,,Block.xlsx,"你已经完成了第一个实验区组

请稍作休息


点击空格键进入下一个区组。",1.5,0,1.5,right,RRRRR.png,,,,,0,0,0,0,0,21,21,17,,,,,,,,,,,,,,,,,,,,,,,,,,,,,,,,,,,,,,,,,,,,,,,,,,,,,,,,,,,,,,,,139.20158819993958,139.60369559982792,139.5854230998084,139.68713329988532,140.08808649983257,None,right,1,0.4608777998946607,140.08808649983257,None,139.5854230998084,139.68713329988532,139.68713329988532,None,140.57062419992872,None,,,,,,,11035,001,2024_Mar_10_1358,ANT,2021.2.3,59.624959011866835,
1,18,spatial,up,C,R,,,,,,Block.xlsx,"你已经完成了第一个实验区组

请稍作休息


点击空格键进入下一个区组。",1.5,0,1.5,right,RRRRR.png,,,,,0,0,0,0,0,22,22,17,,,,,,,,,,,,,,,,,,,,,,,,,,,,,,,,,,,,,,,,,,,,,,,,,,,,,,,,,,,,,,,,140.97171709989198,141.37222159979865,141.35549829993397,141.45631049992517,141.8569537999574,None,right,1,0.4199700001627207,141.8569537999574,None,141.35549829993397,141.45631049992517,141.45631049992517,None,142.30654839985073,None,,,,,,,11035,001,2024_Mar_10_1358,ANT,2021.2.3,59.624959011866835,
1,14,center,down,C,R,,,,,,Block.xlsx,"你已经完成了第一个实验区组

请稍作休息


点击空格键进入下一个区组。",0,50,-1.5,right,RRRRR.png,,,,,0,0,0,0,0,23,23,13,,,,,,,,,,,,,,,,,,,,,,,,,,,,,,,,,,,,,,,,,,,,,,,,,,,,,,,,,,,,,,,,142.70686989999376,143.10775709990412,143.090785499895,143.19243199983612,143.5922819999978,None,right,1,0.4526107001584023,143.5922819999978,None,143.090785499895,143.19243199983612,143.19243199983612,None,144.07567029981874,None,,,,,,,11035,001,2024_Mar_10_1358,ANT,2021.2.3,59.624959011866835,
1,15,center,down,IC,L,,,,,,Block.xlsx,"你已经完成了第一个实验区组

请稍作休息


点击空格键进入下一个区组。",0,50,-1.5,left,RRLRR.png,,,,,0,0,0,0,1,0,24,14,,,,,,,,,,,,,,,,,,,,,,,,,,,,,,,,,,,,,,,,,,,,,,,,,,,,,,,,,,,,,,,,144.4774402999319,144.87835939996876,144.86025999998674,144.9609575998038,145.36167779983953,None,left,1,0.5476146000437438,145.36167779983953,None,144.86025999998674,144.9609575998038,144.9609575998038,None,145.92838829988614,None,,,,,,,11035,001,2024_Mar_10_1358,ANT,2021.2.3,59.624959011866835,
1,4,no,up,IC,R,,,,,,Block.xlsx,"你已经完成了第一个实验区组

请稍作休息


点击空格键进入下一个区组。",50,0,1.5,right,LLRLL.png,,,,,0,0,0,0,1,1,25,3,,,,,,,,,,,,,,,,,,,,,,,,,,,,,,,,,,,,,,,,,,,,,,,,,,,,,,,,,,,,,,,,146.32899259985425,146.72958679986186,146.712982499972,146.81377219990827,147.2152315999847,None,right,1,0.5656479999888688,147.2152315999847,None,146.712982499972,146.81377219990827,146.81377219990827,None,147.79771119984798,None,,,,,,,11035,001,2024_Mar_10_1358,ANT,2021.2.3,59.624959011866835,
1,1,no,up,C,L,,,,,,Block.xlsx,"你已经完成了第一个实验区组

请稍作休息


点击空格键进入下一个区组。",50,0,1.5,left,LLLLL.png,,,,,0,0,0,0,1,2,26,0,,,,,,,,,,,,,,,,,,,,,,,,,,,,,,,,,,,,,,,,,,,,,,,,,,,,,,,,,,,,,,,,148.19837749982253,148.60002399981022,148.5823196999263,148.68315719999373,149.0842722998932,None,left,1,0.4170834000688046,149.0842722998932,None,148.5823196999263,148.68315719999373,148.68315719999373,None,149.51693209982477,None,,,,,,,11035,001,2024_Mar_10_1358,ANT,2021.2.3,59.624959011866835,
1,13,center,down,C,L,,,,,,Block.xlsx,"你已经完成了第一个实验区组

请稍作休息


点击空格键进入下一个区组。",0,50,-1.5,left,LLLLL.png,,,,,0,0,0,0,1,3,27,12,,,,,,,,,,,,,,,,,,,,,,,,,,,,,,,,,,,,,,,,,,,,,,,,,,,,,,,,,,,,,,,,149.91763949999586,150.319243399892,150.30241459980607,150.40348479989916,150.80296309990808,None,left,1,0.4988821998704225,150.80296309990808,None,150.30241459980607,150.40348479989916,150.40348479989916,None,151.31981579982676,None,,,,,,,11035,001,2024_Mar_10_1358,ANT,2021.2.3,59.624959011866835,
1,8,no,down,IC,R,,,,,,Block.xlsx,"你已经完成了第一个实验区组

请稍作休息


点击空格键进入下一个区组。",50,0,-1.5,right,LLRLL.png,,,,,0,0,0,0,1,4,28,7,,,,,,,,,,,,,,,,,,,,,,,,,,,,,,,,,,,,,,,,,,,,,,,,,,,,,,,,,,,,,,,,151.72039169981144,152.1213769998867,152.10539949988015,152.20479179988615,152.60712959989905,None,right,1,0.6059725999366492,152.60712959989905,None,152.10539949988015,152.20479179988615,152.20479179988615,None,153.23929529986344,None,,,,,,,11035,001,2024_Mar_10_1358,ANT,2021.2.3,59.624959011866835,
1,4,no,up,IC,R,,,,,,Block.xlsx,"你已经完成了第一个实验区组

请稍作休息


点击空格键进入下一个区组。",50,0,1.5,right,LLRLL.png,,,,,0,0,0,0,1,5,29,3,,,,,,,,,,,,,,,,,,,,,,,,,,,,,,,,,,,,,,,,,,,,,,,,,,,,,,,,,,,,,,,,153.64110639994033,154.04133499995805,154.02451589982957,154.12519779987633,154.52674699993804,None,right,1,0.5906908998731524,154.52674699993804,None,154.02451589982957,154.12519779987633,154.12519779987633,None,155.14239609986544,None,,,,,,,11035,001,2024_Mar_10_1358,ANT,2021.2.3,59.624959011866835,
1,10,center,up,C,R,,,,,,Block.xlsx,"你已经完成了第一个实验区组

请稍作休息


点击空格键进入下一个区组。",0,50,1.5,right,RRRRR.png,,,,,0,0,0,0,1,6,30,9,,,,,,,,,,,,,,,,,,,,,,,,,,,,,,,,,,,,,,,,,,,,,,,,,,,,,,,,,,,,,,,,155.54287049989216,155.94507719995454,155.92666569980793,156.02677019988187,156.42795779998414,None,right,1,0.40175489988178015,156.42795779998414,None,155.92666569980793,156.02677019988187,156.02677019988187,None,156.84484029980376,None,,,,,,,11035,001,2024_Mar_10_1358,ANT,2021.2.3,59.624959011866835,
1,17,spatial,up,C,L,,,,,,Block.xlsx,"你已经完成了第一个实验区组

请稍作休息


点击空格键进入下一个区组。",1.5,0,1.5,left,LLLLL.png,,,,,0,0,0,0,1,7,31,16,,,,,,,,,,,,,,,,,,,,,,,,,,,,,,,,,,,,,,,,,,,,,,,,,,,,,,,,,,,,,,,,157.24547439999878,157.64725699997507,157.6292409999296,157.73110440000892,158.13109629997052,None,left,1,0.43455460015684366,158.13109629997052,None,157.6292409999296,157.73110440000892,157.73110440000892,None,158.59720640000887,None,,,,,,,11035,001,2024_Mar_10_1358,ANT,2021.2.3,59.624959011866835,
1,23,spatial,down,IC,L,,,,,,Block.xlsx,"你已经完成了第一个实验区组

请稍作休息


点击空格键进入下一个区组。",-1.5,0,-1.5,left,RRLRR.png,,,,,0,0,0,0,1,8,32,22,,,,,,,,,,,,,,,,,,,,,,,,,,,,,,,,,,,,,,,,,,,,,,,,,,,,,,,,,,,,,,,,158.9993479999248,159.39899149979465,159.3825032999739,159.48320599994622,159.88336189999245,None,left,1,0.6502728001214564,159.88336189999245,None,159.3825032999739,159.48320599994622,159.48320599994622,None,160.55033739982173,None,,,,,,,11035,001,2024_Mar_10_1358,ANT,2021.2.3,59.624959011866835,
1,20,spatial,up,IC,R,,,,,,Block.xlsx,"你已经完成了第一个实验区组

请稍作休息


点击空格键进入下一个区组。",1.5,0,1.5,right,LLRLL.png,,,,,0,0,0,0,1,9,33,19,,,,,,,,,,,,,,,,,,,,,,,,,,,,,,,,,,,,,,,,,,,,,,,,,,,,,,,,,,,,,,,,160.95138659980148,161.3529504998587,161.33497929992154,161.4363485998474,161.83599349996075,None,right,1,0.4572527001146227,161.83599349996075,None,161.33497929992154,161.4363485998474,161.4363485998474,None,162.31969579984434,None,,,,,,,11035,001,2024_Mar_10_1358,ANT,2021.2.3,59.624959011866835,
1,10,center,up,C,R,,,,,,Block.xlsx,"你已经完成了第一个实验区组

请稍作休息


点击空格键进入下一个区组。",0,50,1.5,right,RRRRR.png,,,,,0,0,0,0,1,10,34,9,,,,,,,,,,,,,,,,,,,,,,,,,,,,,,,,,,,,,,,,,,,,,,,,,,,,,,,,,,,,,,,,162.72129329992458,163.12230940000154,163.10405929991975,163.2045662999153,163.6059537997935,None,right,1,0.447647999972105,163.6059537997935,None,163.10405929991975,163.2045662999153,163.2045662999153,None,164.07302759983577,None,,,,,,,11035,001,2024_Mar_10_1358,ANT,2021.2.3,59.624959011866835,
1,17,spatial,up,C,L,,,,,,Block.xlsx,"你已经完成了第一个实验区组

请稍作休息


点击空格键进入下一个区组。",1.5,0,1.5,left,LLLLL.png,,,,,0,0,0,0,1,11,35,16,,,,,,,,,,,,,,,,,,,,,,,,,,,,,,,,,,,,,,,,,,,,,,,,,,,,,,,,,,,,,,,,164.47300069988705,164.87345419987105,164.85788229992613,164.95782219991088,165.35838170000352,None,left,1,0.47087459987960756,165.35838170000352,None,164.85788229992613,164.95782219991088,164.95782219991088,None,165.85897849989124,None,,,,,,,11035,001,2024_Mar_10_1358,ANT,2021.2.3,59.624959011866835,
1,4,no,up,IC,R,,,,,,Block.xlsx,"你已经完成了第一个实验区组

请稍作休息


点击空格键进入下一个区组。",50,0,1.5,right,LLRLL.png,,,,,0,0,0,0,1,12,36,3,,,,,,,,,,,,,,,,,,,,,,,,,,,,,,,,,,,,,,,,,,,,,,,,,,,,,,,,,,,,,,,,166.259736899985,166.6610520000104,166.64300849987194,166.7436593999155,167.14410449983552,None,right,1,0.5095677000936121,167.14410449983552,None,166.64300849987194,166.7436593999155,166.7436593999155,None,167.67779709980823,None,,,,,,,11035,001,2024_Mar_10_1358,ANT,2021.2.3,59.624959011866835,
1,16,center,down,IC,R,,,,,,Block.xlsx,"你已经完成了第一个实验区组

请稍作休息


点击空格键进入下一个区组。",0,50,-1.5,right,LLRLL.png,,,,,0,0,0,0,1,13,37,15,,,,,,,,,,,,,,,,,,,,,,,,,,,,,,,,,,,,,,,,,,,,,,,,,,,,,,,,,,,,,,,,168.07812079996802,168.48066939995624,168.46231719991192,168.5626973998733,168.9650220000185,None,right,1,0.6402447000145912,168.9650220000185,None,168.46231719991192,168.5626973998733,168.5626973998733,None,169.63141129980795,None,,,,,,,11035,001,2024_Mar_10_1358,ANT,2021.2.3,59.624959011866835,
1,1,no,up,C,L,,,,,,Block.xlsx,"你已经完成了第一个实验区组

请稍作休息


点击空格键进入下一个区组。",50,0,1.5,left,LLLLL.png,,,,,0,0,0,0,1,14,38,0,,,,,,,,,,,,,,,,,,,,,,,,,,,,,,,,,,,,,,,,,,,,,,,,,,,,,,,,,,,,,,,,170.03194139990956,170.43243649997748,170.41709050000645,170.51590689993463,170.91667179996148,None,left,1,0.425020300084725,170.91667179996148,None,170.41709050000645,170.51590689993463,170.51590689993463,None,171.3677120998036,None,,,,,,,11035,001,2024_Mar_10_1358,ANT,2021.2.3,59.624959011866835,
1,10,center,up,C,R,,,,,,Block.xlsx,"你已经完成了第一个实验区组

请稍作休息


点击空格键进入下一个区组。",0,50,1.5,right,RRRRR.png,,,,,0,0,0,0,1,15,39,9,,,,,,,,,,,,,,,,,,,,,,,,,,,,,,,,,,,,,,,,,,,,,,,,,,,,,,,,,,,,,,,,171.76787209999748,172.1689518999774,172.15293069998734,172.26879909983836,172.65276189986616,None,right,1,0.4173226000275463,172.65276189986616,None,172.15293069998734,172.26879909983836,172.2520438998472,None,173.0860132998787,None,,,,,,,11035,001,2024_Mar_10_1358,ANT,2021.2.3,59.624959011866835,
1,6,no,down,C,R,,,,,,Block.xlsx,"你已经完成了第一个实验区组

请稍作休息


点击空格键进入下一个区组。",50,0,-1.5,right,RRRRR.png,,,,,0,0,0,0,1,16,40,5,,,,,,,,,,,,,,,,,,,,,,,,,,,,,,,,,,,,,,,,,,,,,,,,,,,,,,,,,,,,,,,,173.4864662999753,173.88831289997324,173.8710771999322,173.97147249989212,174.37222219980322,None,right,1,0.5454965999815613,174.37222219980322,None,173.8710771999322,173.97147249989212,173.97147249989212,None,174.93889699992724,None,,,,,,,11035,001,2024_Mar_10_1358,ANT,2021.2.3,59.624959011866835,
1,14,center,down,C,R,,,,,,Block.xlsx,"你已经完成了第一个实验区组

请稍作休息


点击空格键进入下一个区组。",0,50,-1.5,right,RRRRR.png,,,,,0,0,0,0,1,17,41,13,,,,,,,,,,,,,,,,,,,,,,,,,,,,,,,,,,,,,,,,,,,,,,,,,,,,,,,,,,,,,,,,175.34020139998756,175.74007970001549,175.72400329983793,175.8252033998724,176.2251099999994,None,right,1,0.4924696001689881,176.2251099999994,None,175.72400329983793,175.8252033998724,175.8252033998724,None,176.7416143999435,None,,,,,,,11035,001,2024_Mar_10_1358,ANT,2021.2.3,59.624959011866835,
1,7,no,down,IC,L,,,,,,Block.xlsx,"你已经完成了第一个实验区组

请稍作休息


点击空格键进入下一个区组。",50,0,-1.5,left,RRLRR.png,,,,,0,0,0,0,1,18,42,6,,,,,,,,,,,,,,,,,,,,,,,,,,,,,,,,,,,,,,,,,,,,,,,,,,,,,,,,,,,,,,,,177.14267309987918,177.54347909986973,177.52642100001685,177.6275494999718,178.0265522999689,None,left,1,0.6514310999773443,178.0265522999689,None,177.52642100001685,177.6275494999718,177.6275494999718,None,178.69428029982373,None,,,,,,,11035,001,2024_Mar_10_1358,ANT,2021.2.3,59.624959011866835,
1,23,spatial,down,IC,L,,,,,,Block.xlsx,"你已经完成了第一个实验区组

请稍作休息


点击空格键进入下一个区组。",-1.5,0,-1.5,left,RRLRR.png,,,,,0,0,0,0,1,19,43,22,,,,,,,,,,,,,,,,,,,,,,,,,,,,,,,,,,,,,,,,,,,,,,,,,,,,,,,,,,,,,,,,179.09580249991268,179.49654189986177,179.47995349997655,179.57947819982655,179.98024469986558,None,left,1,0.4095983998849988,179.98024469986558,None,179.47995349997655,179.57947819982655,179.57947819982655,None,180.4137132000178,None,,,,,,,11035,001,2024_Mar_10_1358,ANT,2021.2.3,59.624959011866835,
1,20,spatial,up,IC,R,,,,,,Block.xlsx,"你已经完成了第一个实验区组

请稍作休息


点击空格键进入下一个区组。",1.5,0,1.5,right,LLRLL.png,,,,,0,0,0,0,1,20,44,19,,,,,,,,,,,,,,,,,,,,,,,,,,,,,,,,,,,,,,,,,,,,,,,,,,,,,,,,,,,,,,,,180.8150649999734,181.21689339983277,181.19833249994554,181.29916669987142,181.6989426999353,None,right,1,0.42683080001734197,181.6989426999353,None,181.19833249994554,181.29916669987142,181.29916669987142,None,182.14970729989,None,,,,,,,11035,001,2024_Mar_10_1358,ANT,2021.2.3,59.624959011866835,
1,16,center,down,IC,R,,,,,,Block.xlsx,"你已经完成了第一个实验区组

请稍作休息


点击空格键进入下一个区组。",0,50,-1.5,right,LLRLL.png,,,,,0,0,0,0,1,21,45,15,,,,,,,,,,,,,,,,,,,,,,,,,,,,,,,,,,,,,,,,,,,,,,,,,,,,,,,,,,,,,,,,182.5501625998877,182.9516962999478,182.93481789994985,183.03501479979604,183.43549349997193,None,right,1,0.586204299936071,183.43549349997193,None,182.93481789994985,183.03501479979604,183.03501479979604,None,184.0525218998082,None,,,,,,,11035,001,2024_Mar_10_1358,ANT,2021.2.3,59.624959011866835,
1,21,spatial,down,C,L,,,,,,Block.xlsx,"你已经完成了第一个实验区组

请稍作休息


点击空格键进入下一个区组。",-1.5,0,-1.5,left,LLLLL.png,,,,,0,0,0,0,1,22,46,20,,,,,,,,,,,,,,,,,,,,,,,,,,,,,,,,,,,,,,,,,,,,,,,,,,,,,,,,,,,,,,,,184.45417139981873,184.85447529982775,184.83760540001094,184.93820520001464,185.3387070999015,None,left,1,0.44339730008505285,185.3387070999015,None,184.83760540001094,184.93820520001464,184.93820520001464,None,185.8053760000039,None,,,,,,,11035,001,2024_Mar_10_1358,ANT,2021.2.3,59.624959011866835,
1,7,no,down,IC,L,,,,,,Block.xlsx,"你已经完成了第一个实验区组

请稍作休息


点击空格键进入下一个区组。",50,0,-1.5,left,RRLRR.png,,,,,0,0,0,0,1,23,47,6,,,,,,,,,,,,,,,,,,,,,,,,,,,,,,,,,,,,,,,,,,,,,,,,,,,,,,,,,,,,,,,,186.20648389984854,186.6071933999192,186.59087879979052,186.7084533998277,187.09189149993472,None,left,1,0.6346953001338989,187.09189149993472,None,186.59087879979052,186.7084533998277,186.6905549999792,None,187.7413129999768,None,,,,,,,11035,001,2024_Mar_10_1358,ANT,2021.2.3,59.624959011866835,
1,19,spatial,up,IC,L,,,,,,Block.xlsx,"你已经完成了第一个实验区组

请稍作休息


点击空格键进入下一个区组。",1.5,0,1.5,left,RRLRR.png,,,,,0,0,0,0,2,0,48,18,,,,,,,,,,,,,,,,,,,,,,,,,,,,,,,,,,,,,,,,,,,,,,,,,,,,,,,,,,,,,,,,188.14187389984727,188.54304949985817,188.52652650000528,188.62835969985463,189.02758519980125,None,left,1,0.44281650008633733,189.02758519980125,None,188.52652650000528,188.62835969985463,188.62835969985463,None,189.49473809986375,None,,,,,,,11035,001,2024_Mar_10_1358,ANT,2021.2.3,59.624959011866835,
1,15,center,down,IC,L,,,,,,Block.xlsx,"你已经完成了第一个实验区组

请稍作休息


点击空格键进入下一个区组。",0,50,-1.5,left,RRLRR.png,,,,,0,0,0,0,2,1,49,14,,,,,,,,,,,,,,,,,,,,,,,,,,,,,,,,,,,,,,,,,,,,,,,,,,,,,,,,,,,,,,,,189.89540049992502,190.29575479985215,190.27842479990795,190.37938689999282,190.78016089997254,None,left,1,0.5461502000689507,190.78016089997254,None,190.27842479990795,190.37938689999282,190.37938689999282,None,191.3481790998485,None,,,,,,,11035,001,2024_Mar_10_1358,ANT,2021.2.3,59.624959011866835,
1,1,no,up,C,L,,,,,,Block.xlsx,"你已经完成了第一个实验区组

请稍作休息


点击空格键进入下一个区组。",50,0,1.5,left,LLLLL.png,,,,,0,0,0,0,2,2,50,0,,,,,,,,,,,,,,,,,,,,,,,,,,,,,,,,,,,,,,,,,,,,,,,,,,,,,,,,,,,,,,,,191.74756749998778,192.14875039993785,192.1321401000023,192.23216209979728,192.6328336999286,None,left,1,0.7659364000428468,192.6328336999286,None,192.1321401000023,192.23216209979728,192.23216209979728,None,193.41732329991646,None,,,,,,,11035,001,2024_Mar_10_1358,ANT,2021.2.3,59.624959011866835,
1,9,center,up,C,L,,,,,,Block.xlsx,"你已经完成了第一个实验区组

请稍作休息


点击空格键进入下一个区组。",0,50,1.5,left,LLLLL.png,,,,,0,0,0,0,2,3,51,8,,,,,,,,,,,,,,,,,,,,,,,,,,,,,,,,,,,,,,,,,,,,,,,,,,,,,,,,,,,,,,,,193.81846699980088,194.21770489984192,194.20264289993793,194.3020654998254,194.7018822999671,None,left,1,0.5129551999270916,194.7018822999671,None,194.20264289993793,194.3020654998254,194.3020654998254,None,195.23590189986862,None,,,,,,,11035,001,2024_Mar_10_1358,ANT,2021.2.3,59.624959011866835,
1,6,no,down,C,R,,,,,,Block.xlsx,"你已经完成了第一个实验区组

请稍作休息


点击空格键进入下一个区组。",50,0,-1.5,right,RRRRR.png,,,,,0,0,0,0,2,4,52,5,,,,,,,,,,,,,,,,,,,,,,,,,,,,,,,,,,,,,,,,,,,,,,,,,,,,,,,,,,,,,,,,195.6376689998433,196.0370640999172,196.02071850001812,196.12151059997268,196.52207129984163,None,right,1,0.6042144000530243,196.52207129984163,None,196.02071850001812,196.12151059997268,196.12151059997268,None,197.15607709996402,None,,,,,,,11035,001,2024_Mar_10_1358,ANT,2021.2.3,59.624959011866835,
1,2,no,up,C,R,,,,,,Block.xlsx,"你已经完成了第一个实验区组

请稍作休息


点击空格键进入下一个区组。",50,0,1.5,right,RRRRR.png,,,,,0,0,0,0,2,5,53,1,,,,,,,,,,,,,,,,,,,,,,,,,,,,,,,,,,,,,,,,,,,,,,,,,,,,,,,,,,,,,,,,197.5568159997929,197.95863459981047,197.94017529999837,198.0411148997955,198.44169579981826,None,right,1,0.4446064999792725,198.44169579981826,None,197.94017529999837,198.0411148997955,198.0411148997955,None,198.90817829989828,None,,,,,,,11035,001,2024_Mar_10_1358,ANT,2021.2.3,59.624959011866835,
1,4,no,up,IC,R,,,,,,Block.xlsx,"你已经完成了第一个实验区组

请稍作休息


点击空格键进入下一个区组。",50,0,1.5,right,LLRLL.png,,,,,0,0,0,0,2,6,54,3,,,,,,,,,,,,,,,,,,,,,,,,,,,,,,,,,,,,,,,,,,,,,,,,,,,,,,,,,,,,,,,,199.30967009998858,199.7099611000158,199.69311879994348,199.79376409994438,200.19381459988654,None,right,1,0.6204387999605387,200.19381459988654,None,199.69311879994348,199.79376409994438,199.79376409994438,None,200.84496659995057,None,,,,,,,11035,001,2024_Mar_10_1358,ANT,2021.2.3,59.624959011866835,
1,19,spatial,up,IC,L,,,,,,Block.xlsx,"你已经完成了第一个实验区组

请稍作休息


点击空格键进入下一个区组。",1.5,0,1.5,left,RRLRR.png,,,,,0,0,0,0,2,7,55,18,,,,,,,,,,,,,,,,,,,,,,,,,,,,,,,,,,,,,,,,,,,,,,,,,,,,,,,,,,,,,,,,201.24510239996016,201.64567149989307,201.62982379994355,201.73117799987085,202.13047549990006,None,left,1,0.44412480015307665,202.13047549990006,None,201.62982379994355,201.73117799987085,201.73117799987085,None,202.59719639993273,None,,,,,,,11035,001,2024_Mar_10_1358,ANT,2021.2.3,59.624959011866835,
1,23,spatial,down,IC,L,,,,,,Block.xlsx,"你已经完成了第一个实验区组

请稍作休息


点击空格键进入下一个区组。",-1.5,0,-1.5,left,RRLRR.png,,,,,0,0,0,0,2,8,56,22,,,,,,,,,,,,,,,,,,,,,,,,,,,,,,,,,,,,,,,,,,,,,,,,,,,,,,,,,,,,,,,,202.99899519979954,203.39908549981192,203.38240089989267,203.4826166999992,203.88246200000867,None,left,1,0.42825350002385676,203.88246200000867,None,203.38240089989267,203.4826166999992,203.4826166999992,None,204.33307289984077,None,,,,,,,11035,001,2024_Mar_10_1358,ANT,2021.2.3,59.624959011866835,
1,21,spatial,down,C,L,,,,,,Block.xlsx,"你已经完成了第一个实验区组

请稍作休息


点击空格键进入下一个区组。",-1.5,0,-1.5,left,LLLLL.png,,,,,0,0,0,0,2,9,57,20,,,,,,,,,,,,,,,,,,,,,,,,,,,,,,,,,,,,,,,,,,,,,,,,,,,,,,,,,,,,,,,,204.7336057999637,205.13424329995178,205.11837909999304,205.21774969995022,205.61927049979568,None,left,1,0.39553930005058646,205.61927049979568,None,205.11837909999304,205.21774969995022,205.21774969995022,None,206.03565159998834,None,,,,,,,11035,001,2024_Mar_10_1358,ANT,2021.2.3,59.624959011866835,
1,12,center,up,IC,R,,,,,,Block.xlsx,"你已经完成了第一个实验区组

请稍作休息


点击空格键进入下一个区组。",0,50,1.5,right,LLRLL.png,,,,,0,0,0,0,2,10,58,11,,,,,,,,,,,,,,,,,,,,,,,,,,,,,,,,,,,,,,,,,,,,,,,,,,,,,,,,,,,,,,,,206.43657359993085,206.83725679991767,206.82077879994176,206.92105259979144,207.32138929981738,None,right,1,0.5973756001330912,207.32138929981738,None,206.82077879994176,206.92105259979144,206.92105259979144,None,207.938701499952,None,,,,,,,11035,001,2024_Mar_10_1358,ANT,2021.2.3,59.624959011866835,
1,22,spatial,down,C,R,,,,,,Block.xlsx,"你已经完成了第一个实验区组

请稍作休息


点击空格键进入下一个区组。",-1.5,0,-1.5,right,RRRRR.png,,,,,0,0,0,0,2,11,59,21,,,,,,,,,,,,,,,,,,,,,,,,,,,,,,,,,,,,,,,,,,,,,,,,,,,,,,,,,,,,,,,,208.33894629986025,208.74061919981614,208.72329439991154,208.82356099993922,209.2238336999435,None,right,1,0.4550048999954015,209.2238336999435,None,208.72329439991154,208.82356099993922,208.82356099993922,None,209.70767949987203,None,,,,,,,11035,001,2024_Mar_10_1358,ANT,2021.2.3,59.624959011866835,
1,16,center,down,IC,R,,,,,,Block.xlsx,"你已经完成了第一个实验区组

请稍作休息


点击空格键进入下一个区组。",0,50,-1.5,right,LLRLL.png,,,,,0,0,0,0,2,12,60,15,,,,,,,,,,,,,,,,,,,,,,,,,,,,,,,,,,,,,,,,,,,,,,,,,,,,,,,,,,,,,,,,210.10926719987765,210.50898429984227,210.49299319996499,210.5934634997975,210.99374770000577,None,right,1,0.5572172000538558,210.99374770000577,None,210.49299319996499,210.5934634997975,210.5934634997975,None,211.57735219993629,None,,,,,,,11035,001,2024_Mar_10_1358,ANT,2021.2.3,59.624959011866835,
1,7,no,down,IC,L,,,,,,Block.xlsx,"你已经完成了第一个实验区组

请稍作休息


点击空格键进入下一个区组。",50,0,-1.5,left,RRLRR.png,,,,,0,0,0,0,2,13,61,6,,,,,,,,,,,,,,,,,,,,,,,,,,,,,,,,,,,,,,,,,,,,,,,,,,,,,,,,,,,,,,,,211.97766189998947,212.37874299986288,212.36164359981194,212.46297180000693,212.86247469997033,None,left,1,0.5445010999683291,212.86247469997033,None,212.36164359981194,212.46297180000693,212.46297180000693,None,213.43017149996012,None,,,,,,,11035,001,2024_Mar_10_1358,ANT,2021.2.3,59.624959011866835,
1,9,center,up,C,L,,,,,,Block.xlsx,"你已经完成了第一个实验区组

请稍作休息


点击空格键进入下一个区组。",0,50,1.5,left,LLLLL.png,,,,,0,0,0,0,2,14,62,8,,,,,,,,,,,,,,,,,,,,,,,,,,,,,,,,,,,,,,,,,,,,,,,,,,,,,,,,,,,,,,,,213.83061589999124,214.2321237998549,214.21493489993736,214.3155761999078,214.71669349982403,None,left,1,0.5219338000752032,214.71669349982403,None,214.21493489993736,214.3155761999078,214.3155761999078,None,215.2673444999382,None,,,,,,,11035,001,2024_Mar_10_1358,ANT,2021.2.3,59.624959011866835,
1,22,spatial,down,C,R,,,,,,Block.xlsx,"你已经完成了第一个实验区组

请稍作休息


点击空格键进入下一个区组。",-1.5,0,-1.5,right,RRRRR.png,,,,,0,0,0,0,2,15,63,21,,,,,,,,,,,,,,,,,,,,,,,,,,,,,,,,,,,,,,,,,,,,,,,,,,,,,,,,,,,,,,,,215.666709800018,216.06736999982968,216.0516028997954,216.15176639985293,216.55136139993556,None,right,1,0.39194370014593005,216.55136139993556,None,216.0516028997954,216.15176639985293,216.15176639985293,None,216.96915319981053,None,,,,,,,11035,001,2024_Mar_10_1358,ANT,2021.2.3,59.624959011866835,
1,21,spatial,down,C,L,,,,,,Block.xlsx,"你已经完成了第一个实验区组

请稍作休息


点击空格键进入下一个区组。",-1.5,0,-1.5,left,LLLLL.png,,,,,0,0,0,0,2,16,64,20,,,,,,,,,,,,,,,,,,,,,,,,,,,,,,,,,,,,,,,,,,,,,,,,,,,,,,,,,,,,,,,,217.37046719994396,217.7712620999664,217.75341719994321,217.85466209985316,218.25447499984875,None,left,1,0.4323737001977861,218.25447499984875,None,217.75341719994321,217.85466209985316,217.85466209985316,None,218.70458839996718,None,,,,,,,11035,001,2024_Mar_10_1358,ANT,2021.2.3,59.624959011866835,
1,5,no,down,C,L,,,,,,Block.xlsx,"你已经完成了第一个实验区组

请稍作休息


点击空格键进入下一个区组。",50,0,-1.5,left,LLLLL.png,,,,,0,0,0,0,2,17,65,4,,,,,,,,,,,,,,,,,,,,,,,,,,,,,,,,,,,,,,,,,,,,,,,,,,,,,,,,,,,,,,,,219.10591049981304,219.50620069983415,219.4901879997924,219.59019939997233,219.98998679989018,None,left,1,0.46573060005903244,219.98998679989018,None,219.4901879997924,219.59019939997233,219.59019939997233,None,220.47404389991425,None,,,,,,,11035,001,2024_Mar_10_1358,ANT,2021.2.3,59.624959011866835,
1,11,center,up,IC,L,,,,,,Block.xlsx,"你已经完成了第一个实验区组

请稍作休息


点击空格键进入下一个区组。",0,50,1.5,left,RRLRR.png,,,,,0,0,0,0,2,18,66,10,,,,,,,,,,,,,,,,,,,,,,,,,,,,,,,,,,,,,,,,,,,,,,,,,,,,,,,,,,,,,,,,220.87466039997526,221.27597879990935,221.2591579,221.35878939996473,221.7600252998527,None,left,1,0.5512817001435906,221.7600252998527,None,221.2591579,221.35878939996473,221.35878939996473,None,222.32700169994496,None,,,,,,,11035,001,2024_Mar_10_1358,ANT,2021.2.3,59.624959011866835,
1,9,center,up,C,L,,,,,,Block.xlsx,"你已经完成了第一个实验区组

请稍作休息


点击空格键进入下一个区组。",0,50,1.5,left,LLLLL.png,,,,,0,0,0,0,2,19,67,8,,,,,,,,,,,,,,,,,,,,,,,,,,,,,,,,,,,,,,,,,,,,,,,,,,,,,,,,,,,,,,,,222.72736719995737,223.12891839980148,223.11213699984364,223.21142559987493,223.61415499984287,None,left,1,0.38518480001948774,223.61415499984287,None,223.11213699984364,223.21142559987493,223.21142559987493,None,224.02944479999132,None,,,,,,,11035,001,2024_Mar_10_1358,ANT,2021.2.3,59.624959011866835,
1,3,no,up,IC,L,,,,,,Block.xlsx,"你已经完成了第一个实验区组

请稍作休息


点击空格键进入下一个区组。",50,0,1.5,left,RRLRR.png,,,,,0,0,0,0,2,20,68,2,,,,,,,,,,,,,,,,,,,,,,,,,,,,,,,,,,,,,,,,,,,,,,,,,,,,,,,,,,,,,,,,224.43087909999304,224.83129119989462,224.8144723000005,224.91478409990668,225.3165052998811,None,left,1,0.5150456000119448,225.3165052998811,None,224.8144723000005,224.91478409990668,224.91478409990668,None,225.8485878999345,None,,,,,,,11035,001,2024_Mar_10_1358,ANT,2021.2.3,59.624959011866835,
1,10,center,up,C,R,,,,,,Block.xlsx,"你已经完成了第一个实验区组

请稍作休息


点击空格键进入下一个区组。",0,50,1.5,right,RRRRR.png,,,,,0,0,0,0,2,21,69,9,,,,,,,,,,,,,,,,,,,,,,,,,,,,,,,,,,,,,,,,,,,,,,,,,,,,,,,,,,,,,,,,226.24944069981575,226.65008669998497,226.634389200015,226.73512650001794,227.13498779991642,None,right,1,0.4564308999106288,227.13498779991642,None,226.634389200015,226.73512650001794,226.73512650001794,None,227.6180939998012,None,,,,,,,11035,001,2024_Mar_10_1358,ANT,2021.2.3,59.624959011866835,
1,16,center,down,IC,R,,,,,,Block.xlsx,"你已经完成了第一个实验区组

请稍作休息


点击空格键进入下一个区组。",0,50,-1.5,right,LLRLL.png,,,,,0,0,0,0,2,22,70,15,,,,,,,,,,,,,,,,,,,,,,,,,,,,,,,,,,,,,,,,,,,,,,,,,,,,,,,,,,,,,,,,228.01855749986134,228.420251699863,228.40333170001395,228.5036598998122,228.9048001000192,None,right,1,0.5748238998930901,228.9048001000192,None,228.40333170001395,228.5036598998122,228.5036598998122,None,229.50433269981295,None,,,,,,,11035,001,2024_Mar_10_1358,ANT,2021.2.3,59.624959011866835,
1,22,spatial,down,C,R,,,,,,Block.xlsx,"你已经完成了第一个实验区组

请稍作休息


点击空格键进入下一个区组。",-1.5,0,-1.5,right,RRRRR.png,,,,,0,0,0,0,2,23,71,21,,,,,,,,,,,,,,,,,,,,,,,,,,,,,,,,,,,,,,,,,,,,,,,,,,,,,,,,,,,,,,,,229.9056315999478,230.3068959999364,230.288794899825,230.38982609985396,230.79044129978865,None,right,1,0.4172400999814272,230.79044129978865,None,230.288794899825,230.38982609985396,230.38982609985396,None,231.22336239996366,None,,,,,,,11035,001,2024_Mar_10_1358,ANT,2021.2.3,59.624959011866835,
1,12,center,up,IC,R,,,,,,Block.xlsx,"你已经完成了第一个实验区组

请稍作休息


点击空格键进入下一个区组。",0,50,1.5,right,LLRLL.png,,,,,0,0,0,0,3,0,72,11,,,,,,,,,,,,,,,,,,,,,,,,,,,,,,,,,,,,,,,,,,,,,,,,,,,,,,,,,,,,,,,,231.6242185998708,232.0248389998451,232.00999489985406,232.10909799998626,232.5101727999281,None,right,1,0.5702527000103146,232.5101727999281,None,232.00999489985406,232.10909799998626,232.10909799998626,None,233.11048869998194,None,,,,,,,11035,001,2024_Mar_10_1358,ANT,2021.2.3,59.624959011866835,
1,5,no,down,C,L,,,,,,Block.xlsx,"你已经完成了第一个实验区组

请稍作休息


点击空格键进入下一个区组。",50,0,-1.5,left,LLLLL.png,,,,,0,0,0,0,3,1,73,4,,,,,,,,,,,,,,,,,,,,,,,,,,,,,,,,,,,,,,,,,,,,,,,,,,,,,,,,,,,,,,,,233.5110467998311,233.91156329982914,233.89558749995194,233.99514389992692,234.39560899999924,None,left,1,0.44377560005523264,234.39560899999924,None,233.89558749995194,233.99514389992692,233.99514389992692,None,234.8624371998012,None,,,,,,,11035,001,2024_Mar_10_1358,ANT,2021.2.3,59.624959011866835,
1,20,spatial,up,IC,R,,,,,,Block.xlsx,"你已经完成了第一个实验区组

请稍作休息


点击空格键进入下一个区组。",1.5,0,1.5,right,LLRLL.png,,,,,0,0,0,0,3,2,74,19,,,,,,,,,,,,,,,,,,,,,,,,,,,,,,,,,,,,,,,,,,,,,,,,,,,,,,,,,,,,,,,,235.26404159981757,235.6655061999336,235.64730650000274,235.74856669991277,236.14866609987803,None,right,1,0.4107606001198292,236.14866609987803,None,235.64730650000274,235.74856669991277,235.74856669991277,None,236.5816416000016,None,,,,,,,11035,001,2024_Mar_10_1358,ANT,2021.2.3,59.624959011866835,
1,13,center,down,C,L,,,,,,Block.xlsx,"你已经完成了第一个实验区组

请稍作休息


点击空格键进入下一个区组。",0,50,-1.5,left,LLLLL.png,,,,,0,0,0,0,3,3,75,12,,,,,,,,,,,,,,,,,,,,,,,,,,,,,,,,,,,,,,,,,,,,,,,,,,,,,,,,,,,,,,,,236.98215579986572,237.38316680002026,237.3670280999504,237.46632709982805,237.86775599978864,None,left,1,0.4685007999651134,237.86775599978864,None,237.3670280999504,237.46632709982805,237.46632709982805,None,238.3508641999215,None,,,,,,,11035,001,2024_Mar_10_1358,ANT,2021.2.3,59.624959011866835,
1,15,center,down,IC,L,,,,,,Block.xlsx,"你已经完成了第一个实验区组

请稍作休息


点击空格键进入下一个区组。",0,50,-1.5,left,RRLRR.png,,,,,0,0,0,0,3,4,76,14,,,,,,,,,,,,,,,,,,,,,,,,,,,,,,,,,,,,,,,,,,,,,,,,,,,,,,,,,,,,,,,,238.75210109981708,239.15221019997261,239.1372658999171,239.25307539990172,239.63717629993334,None,left,1,0.5305143999867141,239.63717629993334,None,239.1372658999171,239.25307539990172,239.2375660999678,None,240.1869749999605,None,,,,,,,11035,001,2024_Mar_10_1358,ANT,2021.2.3,59.624959011866835,
1,3,no,up,IC,L,,,,,,Block.xlsx,"你已经完成了第一个实验区组

请稍作休息


点击空格键进入下一个区组。",50,0,1.5,left,RRLRR.png,,,,,0,0,0,0,3,5,77,2,,,,,,,,,,,,,,,,,,,,,,,,,,,,,,,,,,,,,,,,,,,,,,,,,,,,,,,,,,,,,,,,240.58863659994677,240.98831049981527,240.97203750000335,241.07325629983097,241.47237550001591,None,left,1,0.6071690001990646,241.47237550001591,None,240.97203750000335,241.07325629983097,241.07325629983097,None,242.10676999995485,None,,,,,,,11035,001,2024_Mar_10_1358,ANT,2021.2.3,59.624959011866835,
1,8,no,down,IC,R,,,,,,Block.xlsx,"你已经完成了第一个实验区组

请稍作休息


点击空格键进入下一个区组。",50,0,-1.5,right,LLRLL.png,,,,,0,0,0,0,3,6,78,7,,,,,,,,,,,,,,,,,,,,,,,,,,,,,,,,,,,,,,,,,,,,,,,,,,,,,,,,,,,,,,,,242.50791639997624,242.90853749983944,242.89148929994553,242.9928003998939,243.39186370000243,None,right,1,0.5439319000579417,243.39186370000243,None,242.89148929994553,242.9928003998939,242.9928003998939,None,243.96036909986287,None,,,,,,,11035,001,2024_Mar_10_1358,ANT,2021.2.3,59.624959011866835,
1,24,spatial,down,IC,R,,,,,,Block.xlsx,"你已经完成了第一个实验区组

请稍作休息


点击空格键进入下一个区组。",-1.5,0,-1.5,right,LLRLL.png,,,,,0,0,0,0,3,7,79,23,,,,,,,,,,,,,,,,,,,,,,,,,,,,,,,,,,,,,,,,,,,,,,,,,,,,,,,,,,,,,,,,244.3613650999032,244.7614811998792,244.74464299995452,244.84483570000157,245.24477069987915,None,right,1,0.4355036001652479,245.24477069987915,None,244.74464299995452,244.84483570000157,244.84483570000157,None,245.69523889990523,None,,,,,,,11035,001,2024_Mar_10_1358,ANT,2021.2.3,59.624959011866835,
1,8,no,down,IC,R,,,,,,Block.xlsx,"你已经完成了第一个实验区组

请稍作休息


点击空格键进入下一个区组。",50,0,-1.5,right,LLRLL.png,,,,,0,0,0,0,3,8,80,7,,,,,,,,,,,,,,,,,,,,,,,,,,,,,,,,,,,,,,,,,,,,,,,,,,,,,,,,,,,,,,,,246.0964357999619,246.49735459988005,246.48074259981513,246.58088909997605,246.98270509997383,None,right,1,0.4328299001790583,246.98270509997383,None,246.48074259981513,246.58088909997605,246.58088909997605,None,247.4312389998231,None,,,,,,,11035,001,2024_Mar_10_1358,ANT,2021.2.3,59.624959011866835,
1,2,no,up,C,R,,,,,,Block.xlsx,"你已经完成了第一个实验区组

请稍作休息


点击空格键进入下一个区组。",50,0,1.5,right,RRRRR.png,,,,,0,0,0,0,3,9,81,1,,,,,,,,,,,,,,,,,,,,,,,,,,,,,,,,,,,,,,,,,,,,,,,,,,,,,,,,,,,,,,,,247.8319297998678,248.2325751997996,248.2164919998031,248.31634729984216,248.71671779989265,None,right,1,0.5867935998830944,248.71671779989265,None,248.2164919998031,248.31634729984216,248.31634729984216,None,249.33410330000333,None,,,,,,,11035,001,2024_Mar_10_1358,ANT,2021.2.3,59.624959011866835,
1,2,no,up,C,R,,,,,,Block.xlsx,"你已经完成了第一个实验区组

请稍作休息


点击空格键进入下一个区组。",50,0,1.5,right,RRRRR.png,,,,,0,0,0,0,3,10,82,1,,,,,,,,,,,,,,,,,,,,,,,,,,,,,,,,,,,,,,,,,,,,,,,,,,,,,,,,,,,,,,,,249.7348566998262,250.13556899991818,250.11981399985962,250.21967609995045,250.62040919996798,None,right,1,0.4673685000743717,250.62040919996798,None,250.11981399985962,250.21967609995045,250.21967609995045,None,251.10415659984574,None,,,,,,,11035,001,2024_Mar_10_1358,ANT,2021.2.3,59.624959011866835,
1,14,center,down,C,R,,,,,,Block.xlsx,"你已经完成了第一个实验区组

请稍作休息


点击空格键进入下一个区组。",0,50,-1.5,right,RRRRR.png,,,,,0,0,0,0,3,11,83,13,,,,,,,,,,,,,,,,,,,,,,,,,,,,,,,,,,,,,,,,,,,,,,,,,,,,,,,,,,,,,,,,251.5046988998074,251.90469669993035,251.8878832999617,251.9899305999279,252.3896578999702,None,right,1,0.5467995998915285,252.3896578999702,None,251.8878832999617,251.9899305999279,251.9899305999279,None,252.95698469993658,None,,,,,,,11035,001,2024_Mar_10_1358,ANT,2021.2.3,59.624959011866835,
1,21,spatial,down,C,L,,,,,,Block.xlsx,"你已经完成了第一个实验区组

请稍作休息


点击空格键进入下一个区组。",-1.5,0,-1.5,left,LLLLL.png,,,,,0,0,0,0,3,12,84,20,,,,,,,,,,,,,,,,,,,,,,,,,,,,,,,,,,,,,,,,,,,,,,,,,,,,,,,,,,,,,,,,253.35685589979403,253.75877589988522,253.74086289992556,253.84170280001126,254.24172059982084,None,left,1,0.45438909996300936,254.24172059982084,None,253.74086289992556,253.84170280001126,253.84170280001126,None,254.7258095999714,None,,,,,,,11035,001,2024_Mar_10_1358,ANT,2021.2.3,59.624959011866835,
1,15,center,down,IC,L,,,,,,Block.xlsx,"你已经完成了第一个实验区组

请稍作休息


点击空格键进入下一个区组。",0,50,-1.5,left,RRLRR.png,,,,,0,0,0,0,3,13,85,14,,,,,,,,,,,,,,,,,,,,,,,,,,,,,,,,,,,,,,,,,,,,,,,,,,,,,,,,,,,,,,,,255.1263445999939,255.52693089982495,255.51035429979675,255.61197460000403,256.01144799985923,None,left,1,0.5725845999550074,256.01144799985923,None,255.51035429979675,255.61197460000403,255.61197460000403,None,256.61182549991645,None,,,,,,,11035,001,2024_Mar_10_1358,ANT,2021.2.3,59.624959011866835,
1,11,center,up,IC,L,,,,,,Block.xlsx,"你已经完成了第一个实验区组

请稍作休息


点击空格键进入下一个区组。",0,50,1.5,left,RRLRR.png,,,,,0,0,0,0,3,14,86,10,,,,,,,,,,,,,,,,,,,,,,,,,,,,,,,,,,,,,,,,,,,,,,,,,,,,,,,,,,,,,,,,257.01307529979385,257.41474119992927,257.39642209978774,257.4971512998454,257.89715639990754,None,left,1,0.4388753001112491,257.89715639990754,None,257.39642209978774,257.4971512998454,257.4971512998454,None,258.3655085999053,None,,,,,,,11035,001,2024_Mar_10_1358,ANT,2021.2.3,59.624959011866835,
1,9,center,up,C,L,,,,,,Block.xlsx,"你已经完成了第一个实验区组

请稍作休息


点击空格键进入下一个区组。",0,50,1.5,left,LLLLL.png,,,,,0,0,0,0,3,15,87,8,,,,,,,,,,,,,,,,,,,,,,,,,,,,,,,,,,,,,,,,,,,,,,,,,,,,,,,,,,,,,,,,258.7657592999749,259.1663831998594,259.1508712999057,259.2501818998717,259.65075259981677,None,left,1,0.39724069996736944,259.65075259981677,None,259.1508712999057,259.2501818998717,259.2501818998717,None,260.067134300014,None,,,,,,,11035,001,2024_Mar_10_1358,ANT,2021.2.3,59.624959011866835,
1,13,center,down,C,L,,,,,,Block.xlsx,"你已经完成了第一个实验区组

请稍作休息


点击空格键进入下一个区组。",0,50,-1.5,left,LLLLL.png,,,,,0,0,0,0,3,16,88,12,,,,,,,,,,,,,,,,,,,,,,,,,,,,,,,,,,,,,,,,,,,,,,,,,,,,,,,,,,,,,,,,260.4688021999318,260.8689900999889,260.85247119981796,260.9529565998819,261.3530870999675,None,left,1,0.486777399899438,261.3530870999675,None,260.85247119981796,260.9529565998819,260.9529565998819,None,261.86997899995185,None,,,,,,,11035,001,2024_Mar_10_1358,ANT,2021.2.3,59.624959011866835,
1,19,spatial,up,IC,L,,,,,,Block.xlsx,"你已经完成了第一个实验区组

请稍作休息


点击空格键进入下一个区组。",1.5,0,1.5,left,RRLRR.png,,,,,0,0,0,0,3,17,89,18,,,,,,,,,,,,,,,,,,,,,,,,,,,,,,,,,,,,,,,,,,,,,,,,,,,,,,,,,,,,,,,,262.2703096999321,262.6710839997977,262.6551580999512,262.75532469991595,263.15576499979943,None,left,1,0.41243009991012514,263.15576499979943,None,262.6551580999512,262.75532469991595,262.75532469991595,None,263.5889800998848,None,,,,,,,11035,001,2024_Mar_10_1358,ANT,2021.2.3,59.624959011866835,
1,5,no,down,C,L,,,,,,Block.xlsx,"你已经完成了第一个实验区组

请稍作休息


点击空格键进入下一个区组。",50,0,-1.5,left,LLLLL.png,,,,,0,0,0,0,3,18,90,4,,,,,,,,,,,,,,,,,,,,,,,,,,,,,,,,,,,,,,,,,,,,,,,,,,,,,,,,,,,,,,,,263.9903600998223,264.39023279980756,264.3744689999148,264.4747991999611,264.87434239988215,None,left,1,0.48655420006252825,264.87434239988215,None,264.3744689999148,264.4747991999611,264.4747991999611,None,265.37505029980093,None,,,,,,,11035,001,2024_Mar_10_1358,ANT,2021.2.3,59.624959011866835,
1,18,spatial,up,C,R,,,,,,Block.xlsx,"你已经完成了第一个实验区组

请稍作休息


点击空格键进入下一个区组。",1.5,0,1.5,right,RRRRR.png,,,,,0,0,0,0,3,19,91,17,,,,,,,,,,,,,,,,,,,,,,,,,,,,,,,,,,,,,,,,,,,,,,,,,,,,,,,,,,,,,,,,265.77608260000125,266.17758769984357,266.1602291997988,266.2607676999178,266.6617486998439,None,right,1,0.4183217000681907,266.6617486998439,None,266.1602291997988,266.2607676999178,266.2607676999178,None,267.11160629987717,None,,,,,,,11035,001,2024_Mar_10_1358,ANT,2021.2.3,59.624959011866835,
1,24,spatial,down,IC,R,,,,,,Block.xlsx,"你已经完成了第一个实验区组

请稍作休息


点击空格键进入下一个区组。",-1.5,0,-1.5,right,LLRLL.png,,,,,0,0,0,0,3,20,92,23,,,,,,,,,,,,,,,,,,,,,,,,,,,,,,,,,,,,,,,,,,,,,,,,,,,,,,,,,,,,,,,,267.51237779995427,267.912428899901,267.8955749999732,267.9957349000033,268.39624429983087,None,right,1,0.4839796000160277,268.39624429983087,None,267.8955749999732,267.9957349000033,267.9957349000033,None,268.8971191998571,None,,,,,,,11035,001,2024_Mar_10_1358,ANT,2021.2.3,59.624959011866835,
1,12,center,up,IC,R,,,,,,Block.xlsx,"你已经完成了第一个实验区组

请稍作休息


点击空格键进入下一个区组。",0,50,1.5,right,LLRLL.png,,,,,0,0,0,0,3,21,93,11,,,,,,,,,,,,,,,,,,,,,,,,,,,,,,,,,,,,,,,,,,,,,,,,,,,,,,,,,,,,,,,,269.2983677999582,269.69810729986057,269.68210919993,269.7817593999207,270.1831590998918,None,right,1,0.5689467000775039,270.1831590998918,None,269.68210919993,269.7817593999207,269.7817593999207,None,270.76657360000536,None,,,,,,,11035,001,2024_Mar_10_1358,ANT,2021.2.3,59.624959011866835,
1,8,no,down,IC,R,,,,,,Block.xlsx,"你已经完成了第一个实验区组

请稍作休息


点击空格键进入下一个区组。",50,0,-1.5,right,LLRLL.png,,,,,0,0,0,0,3,22,94,7,,,,,,,,,,,,,,,,,,,,,,,,,,,,,,,,,,,,,,,,,,,,,,,,,,,,,,,,,,,,,,,,271.1668914000038,271.5678830000106,271.551974499831,271.6512477998622,272.0522531999741,None,right,1,0.5641546999104321,272.0522531999741,None,271.551974499831,271.6512477998622,271.6512477998622,None,272.63593429978937,None,,,,,,,11035,001,2024_Mar_10_1358,ANT,2021.2.3,59.624959011866835,
1,7,no,down,IC,L,,,,,,Block.xlsx,"你已经完成了第一个实验区组

请稍作休息


点击空格键进入下一个区组。",50,0,-1.5,left,RRLRR.png,,,,,0,0,0,0,3,23,95,6,,,,,,,,,,,,,,,,,,,,,,,,,,,,,,,,,,,,,,,,,,,,,,,,,,,,,,,,,,,,,,,,273.0366375998128,273.43794219987467,273.4205155998934,273.5209797997959,273.9211439997889,None,left,1,0.5839740000665188,273.9211439997889,None,273.4205155998934,273.5209797997959,273.5209797997959,None,274.5221464999486,None,,,,,,,11035,001,2024_Mar_10_1358,ANT,2021.2.3,59.624959011866835,
,,,,,,,,,,,Block.xlsx,"你已经完成了第一个实验区组

请稍作休息


点击空格键进入下一个区组。",,,,,,,,,,0,0,0,0,,,,,,,,,,,,,,,,,,,,,,,,,,,,,,,,,,,,,,,,,,,,,,,,,,,,,,,,,,,,,,,,,,,,,,,,,,,,,,,,,,,,,space,2.9651590001303703,274.93959499988705,None,274.93959499988705,None,11035,001,2024_Mar_10_1358,ANT,2021.2.3,59.624959011866835,
1,6,no,down,C,R,,,,,,Block.xlsx,"你已经完成了整个实验（三个区组）。

请报告实验者已完成实验

非常感谢，再见！",50,0,-1.5,right,RRRRR.png,,,,,0,1,1,1,0,0,0,5,,,,,,,,,,,,,,,,,,,,,,,,,,,,,,,,,,,,,,,,,,,,,,,,,,,,,,,,,,,,,,,,277.9437020998448,278.3455840998795,278.32875999994576,278.4288468998857,278.8287277999334,None,right,1,0.4199123999569565,278.8287277999334,None,278.32875999994576,278.4288468998857,278.4288468998857,None,279.27924179984257,None,,,,,,,11035,001,2024_Mar_10_1358,ANT,2021.2.3,59.624959011866835,
1,8,no,down,IC,R,,,,,,Block.xlsx,"你已经完成了整个实验（三个区组）。

请报告实验者已完成实验

非常感谢，再见！",50,0,-1.5,right,LLRLL.png,,,,,0,1,1,1,0,1,1,7,,,,,,,,,,,,,,,,,,,,,,,,,,,,,,,,,,,,,,,,,,,,,,,,,,,,,,,,,,,,,,,,279.68039779993705,280.0812615000177,280.06500539998524,280.1660776999779,280.5663251997903,None,right,1,0.538343699881807,280.5663251997903,None,280.06500539998524,280.1660776999779,280.1660776999779,None,281.1321228998713,None,,,,,,,11035,001,2024_Mar_10_1358,ANT,2021.2.3,59.624959011866835,
1,10,center,up,C,R,,,,,,Block.xlsx,"你已经完成了整个实验（三个区组）。

请报告实验者已完成实验

非常感谢，再见！",0,50,1.5,right,RRRRR.png,,,,,0,1,1,1,0,2,2,9,,,,,,,,,,,,,,,,,,,,,,,,,,,,,,,,,,,,,,,,,,,,,,,,,,,,,,,,,,,,,,,,281.53288759989664,281.9334668999072,281.91738439979963,282.0177143998444,282.41821389994584,None,right,1,0.4306487999856472,282.41821389994584,None,281.91738439979963,282.0177143998444,282.0177143998444,None,282.86836789990775,None,,,,,,,11035,001,2024_Mar_10_1358,ANT,2021.2.3,59.624959011866835,
1,3,no,up,IC,L,,,,,,Block.xlsx,"你已经完成了整个实验（三个区组）。

请报告实验者已完成实验

非常感谢，再见！",50,0,1.5,left,RRLRR.png,,,,,0,1,1,1,0,3,3,2,,,,,,,,,,,,,,,,,,,,,,,,,,,,,,,,,,,,,,,,,,,,,,,,,,,,,,,,,,,,,,,,283.26953599997796,283.6693658998702,283.65310039999895,283.75380750000477,284.1534773998428,None,left,1,0.5756810000166297,284.1534773998428,None,283.65310039999895,283.75380750000477,283.75380750000477,None,284.7542497999966,None,,,,,,,11035,001,2024_Mar_10_1358,ANT,2021.2.3,59.624959011866835,
1,3,no,up,IC,L,,,,,,Block.xlsx,"你已经完成了整个实验（三个区组）。

请报告实验者已完成实验

非常感谢，再见！",50,0,1.5,left,RRLRR.png,,,,,0,1,1,1,0,4,4,2,,,,,,,,,,,,,,,,,,,,,,,,,,,,,,,,,,,,,,,,,,,,,,,,,,,,,,,,,,,,,,,,285.15508449985646,285.55549069982953,285.5400561999995,285.6395812998526,286.04052719986066,None,left,1,0.624042300041765,286.04052719986066,None,285.5400561999995,285.6395812998526,285.6395812998526,None,286.6905429000035,None,,,,,,,11035,001,2024_Mar_10_1358,ANT,2021.2.3,59.624959011866835,
1,18,spatial,up,C,R,,,,,,Block.xlsx,"你已经完成了整个实验（三个区组）。

请报告实验者已完成实验

非常感谢，再见！",1.5,0,1.5,right,RRRRR.png,,,,,0,1,1,1,0,5,5,17,,,,,,,,,,,,,,,,,,,,,,,,,,,,,,,,,,,,,,,,,,,,,,,,,,,,,,,,,,,,,,,,287.09199849981815,287.4939738998655,287.4749978999607,287.5760519998148,287.9765510999132,None,right,1,0.40007949993014336,287.9765510999132,None,287.4749978999607,287.5760519998148,287.5760519998148,None,288.3930910998024,None,,,,,,,11035,001,2024_Mar_10_1358,ANT,2021.2.3,59.624959011866835,
1,15,center,down,IC,L,,,,,,Block.xlsx,"你已经完成了整个实验（三个区组）。

请报告实验者已完成实验

非常感谢，再见！",0,50,-1.5,left,RRLRR.png,,,,,0,1,1,1,0,6,6,14,,,,,,,,,,,,,,,,,,,,,,,,,,,,,,,,,,,,,,,,,,,,,,,,,,,,,,,,,,,,,,,,288.79362110001966,289.1950156998355,289.1786332000047,289.29533979995176,289.6783485999331,None,left,1,0.6190330998506397,289.6783485999331,None,289.1786332000047,289.29533979995176,289.2795035999734,None,290.31253759982064,None,,,,,,,11035,001,2024_Mar_10_1358,ANT,2021.2.3,59.624959011866835,
1,5,no,down,C,L,,,,,,Block.xlsx,"你已经完成了整个实验（三个区组）。

请报告实验者已完成实验

非常感谢，再见！",50,0,-1.5,left,LLLLL.png,,,,,0,1,1,1,0,7,7,4,,,,,,,,,,,,,,,,,,,,,,,,,,,,,,,,,,,,,,,,,,,,,,,,,,,,,,,,,,,,,,,,290.71388059994206,291.1146635999903,291.09729909989983,291.1975354999304,291.59862269996665,None,left,1,0.4671723002102226,291.59862269996665,None,291.09729909989983,291.1975354999304,291.1975354999304,None,292.08201139979064,None,,,,,,,11035,001,2024_Mar_10_1358,ANT,2021.2.3,59.624959011866835,
1,5,no,down,C,L,,,,,,Block.xlsx,"你已经完成了整个实验（三个区组）。

请报告实验者已完成实验

非常感谢，再见！",50,0,-1.5,left,LLLLL.png,,,,,0,1,1,1,0,8,8,4,,,,,,,,,,,,,,,,,,,,,,,,,,,,,,,,,,,,,,,,,,,,,,,,,,,,,,,,,,,,,,,,292.4826319999993,292.88346949988045,292.86682689981535,292.9667204997968,293.36715629999526,None,left,1,0.4346432997845113,293.36715629999526,None,292.86682689981535,292.9667204997968,292.9667204997968,None,293.81789589999244,None,,,,,,,11035,001,2024_Mar_10_1358,ANT,2021.2.3,59.624959011866835,
1,8,no,down,IC,R,,,,,,Block.xlsx,"你已经完成了整个实验（三个区组）。

请报告实验者已完成实验

非常感谢，再见！",50,0,-1.5,right,LLRLL.png,,,,,0,1,1,1,0,9,9,7,,,,,,,,,,,,,,,,,,,,,,,,,,,,,,,,,,,,,,,,,,,,,,,,,,,,,,,,,,,,,,,,294.2186922999099,294.619040499907,294.6030989999417,294.7035308999475,295.10382409999147,None,right,1,0.5371631998568773,295.10382409999147,None,294.6030989999417,294.7035308999475,294.7035308999475,None,295.6708164999727,None,,,,,,,11035,001,2024_Mar_10_1358,ANT,2021.2.3,59.624959011866835,
1,12,center,up,IC,R,,,,,,Block.xlsx,"你已经完成了整个实验（三个区组）。

请报告实验者已完成实验

非常感谢，再见！",0,50,1.5,right,LLRLL.png,,,,,0,1,1,1,0,10,10,11,,,,,,,,,,,,,,,,,,,,,,,,,,,,,,,,,,,,,,,,,,,,,,,,,,,,,,,,,,,,,,,,296.07143439981155,296.47386489994824,296.4558896999806,296.55535399983637,296.9581895999145,None,right,1,0.555053599877283,296.9581895999145,None,296.4558896999806,296.55535399983637,296.55535399983637,None,297.5403668999206,None,,,,,,,11035,001,2024_Mar_10_1358,ANT,2021.2.3,59.624959011866835,
1,20,spatial,up,IC,R,,,,,,Block.xlsx,"你已经完成了整个实验（三个区组）。

请报告实验者已完成实验

非常感谢，再见！",1.5,0,1.5,right,LLRLL.png,,,,,0,1,1,1,0,11,11,19,,,,,,,,,,,,,,,,,,,,,,,,,,,,,,,,,,,,,,,,,,,,,,,,,,,,,,,,,,,,,,,,297.94086789991707,298.3424127998296,298.3252840000205,298.4255485998001,298.8276545999106,None,right,1,0.38935640011914074,298.8276545999106,None,298.3252840000205,298.4255485998001,298.4255485998001,None,299.2430652999319,None,,,,,,,11035,001,2024_Mar_10_1358,ANT,2021.2.3,59.624959011866835,
1,23,spatial,down,IC,L,,,,,,Block.xlsx,"你已经完成了整个实验（三个区组）。

请报告实验者已完成实验

非常感谢，再见！",-1.5,0,-1.5,left,RRLRR.png,,,,,0,1,1,1,0,12,12,22,,,,,,,,,,,,,,,,,,,,,,,,,,,,,,,,,,,,,,,,,,,,,,,,,,,,,,,,,,,,,,,,299.64354489999823,300.0440624000039,300.0286298999563,300.127321699867,300.52914180001244,None,left,1,0.42406159988604486,300.52914180001244,None,300.0286298999563,300.127321699867,300.127321699867,None,300.97904139989987,None,,,,,,,11035,001,2024_Mar_10_1358,ANT,2021.2.3,59.624959011866835,
1,24,spatial,down,IC,R,,,,,,Block.xlsx,"你已经完成了整个实验（三个区组）。

请报告实验者已完成实验

非常感谢，再见！",-1.5,0,-1.5,right,LLRLL.png,,,,,0,1,1,1,0,13,13,23,,,,,,,,,,,,,,,,,,,,,,,,,,,,,,,,,,,,,,,,,,,,,,,,,,,,,,,,,,,,,,,,301.3802978999447,301.78122259979136,301.7642782998737,301.86495919991285,302.2649931998458,None,right,1,0.4966365001164377,302.2649931998458,None,301.7642782998737,301.86495919991285,301.86495919991285,None,302.78150989999995,None,,,,,,,11035,001,2024_Mar_10_1358,ANT,2021.2.3,59.624959011866835,
1,5,no,down,C,L,,,,,,Block.xlsx,"你已经完成了整个实验（三个区组）。

请报告实验者已完成实验

非常感谢，再见！",50,0,-1.5,left,LLLLL.png,,,,,0,1,1,1,0,14,14,4,,,,,,,,,,,,,,,,,,,,,,,,,,,,,,,,,,,,,,,,,,,,,,,,,,,,,,,,,,,,,,,,303.18279309989884,303.58274029986933,303.5668657999486,303.66704909992404,304.0674666999839,None,left,1,0.4220596000086516,304.0674666999839,None,303.5668657999486,303.66704909992404,303.66704909992404,None,304.51759009994566,None,,,,,,,11035,001,2024_Mar_10_1358,ANT,2021.2.3,59.624959011866835,
1,19,spatial,up,IC,L,,,,,,Block.xlsx,"你已经完成了整个实验（三个区组）。

请报告实验者已完成实验

非常感谢，再见！",1.5,0,1.5,left,RRLRR.png,,,,,0,1,1,1,0,15,15,18,,,,,,,,,,,,,,,,,,,,,,,,,,,,,,,,,,,,,,,,,,,,,,,,,,,,,,,,,,,,,,,,304.9191456998233,305.31872039986774,305.3028545000125,305.4027958998922,305.80343590001576,None,left,1,0.430154399946332,305.80343590001576,None,305.3028545000125,305.4027958998922,305.4027958998922,None,306.2534037998412,None,,,,,,,11035,001,2024_Mar_10_1358,ANT,2021.2.3,59.624959011866835,
1,11,center,up,IC,L,,,,,,Block.xlsx,"你已经完成了整个实验（三个区组）。

请报告实验者已完成实验

非常感谢，再见！",0,50,1.5,left,RRLRR.png,,,,,0,1,1,1,0,16,16,10,,,,,,,,,,,,,,,,,,,,,,,,,,,,,,,,,,,,,,,,,,,,,,,,,,,,,,,,,,,,,,,,306.65398289985023,307.05545599991456,307.037930799881,307.13917669979855,307.53978729993105,None,left,1,0.45374919986352324,307.53978729993105,None,307.037930799881,307.13917669979855,307.13917669979855,None,308.0235049999319,None,,,,,,,11035,001,2024_Mar_10_1358,ANT,2021.2.3,59.624959011866835,
1,6,no,down,C,R,,,,,,Block.xlsx,"你已经完成了整个实验（三个区组）。

请报告实验者已完成实验

非常感谢，再见！",50,0,-1.5,right,RRRRR.png,,,,,0,1,1,1,0,17,17,5,,,,,,,,,,,,,,,,,,,,,,,,,,,,,,,,,,,,,,,,,,,,,,,,,,,,,,,,,,,,,,,,308.42418679990806,308.8252537997905,308.8073380999267,308.90801279991865,309.30890479986556,None,right,1,0.6287920998875052,309.30890479986556,None,308.8073380999267,308.90801279991865,308.90801279991865,None,309.9590836998541,None,,,,,,,11035,001,2024_Mar_10_1358,ANT,2021.2.3,59.624959011866835,
1,20,spatial,up,IC,R,,,,,,Block.xlsx,"你已经完成了整个实验（三个区组）。

请报告实验者已完成实验

非常感谢，再见！",1.5,0,1.5,right,LLRLL.png,,,,,0,1,1,1,0,18,18,19,,,,,,,,,,,,,,,,,,,,,,,,,,,,,,,,,,,,,,,,,,,,,,,,,,,,,,,,,,,,,,,,310.3600118998438,310.7610941999592,310.74439399992116,310.8448983000126,311.24490259983577,None,right,1,0.4607075999956578,311.24490259983577,None,310.74439399992116,310.8448983000126,310.8448983000126,None,311.728396799881,None,,,,,,,11035,001,2024_Mar_10_1358,ANT,2021.2.3,59.624959011866835,
1,24,spatial,down,IC,R,,,,,,Block.xlsx,"你已经完成了整个实验（三个区组）。

请报告实验者已完成实验

非常感谢，再见！",-1.5,0,-1.5,right,LLRLL.png,,,,,0,1,1,1,0,19,19,23,,,,,,,,,,,,,,,,,,,,,,,,,,,,,,,,,,,,,,,,,,,,,,,,,,,,,,,,,,,,,,,,312.12879689992405,312.5305484998971,312.5136788999662,312.615114599932,313.01550089986995,None,right,1,0.44225799990817904,313.01550089986995,None,312.5136788999662,312.615114599932,312.615114599932,None,313.4809325998649,None,,,,,,,11035,001,2024_Mar_10_1358,ANT,2021.2.3,59.624959011866835,
1,17,spatial,up,C,L,,,,,,Block.xlsx,"你已经完成了整个实验（三个区组）。

请报告实验者已完成实验

非常感谢，再见！",1.5,0,1.5,left,LLLLL.png,,,,,0,1,1,1,0,20,20,16,,,,,,,,,,,,,,,,,,,,,,,,,,,,,,,,,,,,,,,,,,,,,,,,,,,,,,,,,,,,,,,,313.8815563998651,314.2823787999805,314.2665229998529,314.36724739987403,314.7674532998353,None,left,1,0.36209760000929236,314.7674532998353,None,314.2665229998529,314.36724739987403,314.36724739987403,None,315.15044759982266,None,,,,,,,11035,001,2024_Mar_10_1358,ANT,2021.2.3,59.624959011866835,
1,16,center,down,IC,R,,,,,,Block.xlsx,"你已经完成了整个实验（三个区组）。

请报告实验者已完成实验

非常感谢，再见！",0,50,-1.5,right,LLRLL.png,,,,,0,1,1,1,0,21,21,15,,,,,,,,,,,,,,,,,,,,,,,,,,,,,,,,,,,,,,,,,,,,,,,,,,,,,,,,,,,,,,,,315.5506864998024,315.9524416998029,315.93585249991156,316.03546159993857,316.4366787998006,None,right,1,0.5651734001003206,316.4366787998006,None,315.93585249991156,316.03546159993857,316.03546159993857,None,317.0194788000081,None,,,,,,,11035,001,2024_Mar_10_1358,ANT,2021.2.3,59.624959011866835,
1,6,no,down,C,R,,,,,,Block.xlsx,"你已经完成了整个实验（三个区组）。

请报告实验者已完成实验

非常感谢，再见！",50,0,-1.5,right,RRRRR.png,,,,,0,1,1,1,0,22,22,5,,,,,,,,,,,,,,,,,,,,,,,,,,,,,,,,,,,,,,,,,,,,,,,,,,,,,,,,,,,,,,,,317.4203794999048,317.82250040001236,317.80399109981954,317.90512829995714,318.3060685999226,None,right,1,0.4473387999460101,318.3060685999226,None,317.80399109981954,317.90512829995714,317.90512829995714,None,318.7722656999249,None,,,,,,,11035,001,2024_Mar_10_1358,ANT,2021.2.3,59.624959011866835,
1,20,spatial,up,IC,R,,,,,,Block.xlsx,"你已经完成了整个实验（三个区组）。

请报告实验者已完成实验

非常感谢，再见！",1.5,0,1.5,right,LLRLL.png,,,,,0,1,1,1,0,23,23,19,,,,,,,,,,,,,,,,,,,,,,,,,,,,,,,,,,,,,,,,,,,,,,,,,,,,,,,,,,,,,,,,319.1733854999766,319.5745909998659,319.5568324998021,319.65846089995466,320.0576423997991,None,right,1,0.5122570998501033,320.0576423997991,None,319.5568324998021,319.65846089995466,319.65846089995466,None,320.5916374998633,None,,,,,,,11035,001,2024_Mar_10_1358,ANT,2021.2.3,59.624959011866835,
1,23,spatial,down,IC,L,,,,,,Block.xlsx,"你已经完成了整个实验（三个区组）。

请报告实验者已完成实验

非常感谢，再见！",-1.5,0,-1.5,left,RRLRR.png,,,,,0,1,1,1,1,0,24,22,,,,,,,,,,,,,,,,,,,,,,,,,,,,,,,,,,,,,,,,,,,,,,,,,,,,,,,,,,,,,,,,320.992751999991,321.3943005998153,321.37714240001515,321.47797629982233,321.87777389981784,None,left,1,0.5087063999380916,321.87777389981784,None,321.37714240001515,321.47797629982233,321.47797629982233,None,322.4112120999489,None,,,,,,,11035,001,2024_Mar_10_1358,ANT,2021.2.3,59.624959011866835,
1,21,spatial,down,C,L,,,,,,Block.xlsx,"你已经完成了整个实验（三个区组）。

请报告实验者已完成实验

非常感谢，再见！",-1.5,0,-1.5,left,LLLLL.png,,,,,0,1,1,1,1,1,25,20,,,,,,,,,,,,,,,,,,,,,,,,,,,,,,,,,,,,,,,,,,,,,,,,,,,,,,,,,,,,,,,,322.8117674998939,323.2135477999691,323.19563569989987,323.29683059989475,323.6964663998224,None,left,1,0.42520779999904335,323.6964663998224,None,323.19563569989987,323.29683059989475,323.29683059989475,None,324.1471580998041,None,,,,,,,11035,001,2024_Mar_10_1358,ANT,2021.2.3,59.624959011866835,
1,15,center,down,IC,L,,,,,,Block.xlsx,"你已经完成了整个实验（三个区组）。

请报告实验者已完成实验

非常感谢，再见！",0,50,-1.5,left,RRLRR.png,,,,,0,1,1,1,1,2,26,14,,,,,,,,,,,,,,,,,,,,,,,,,,,,,,,,,,,,,,,,,,,,,,,,,,,,,,,,,,,,,,,,324.5475907998625,324.9496360998601,324.932524099946,325.0336884998251,325.43310309993103,None,left,1,0.5770052000880241,325.43310309993103,None,324.932524099946,325.0336884998251,325.0336884998251,None,326.033383899834,None,,,,,,,11035,001,2024_Mar_10_1358,ANT,2021.2.3,59.624959011866835,
1,4,no,up,IC,R,,,,,,Block.xlsx,"你已经完成了整个实验（三个区组）。

请报告实验者已完成实验

非常感谢，再见！",50,0,1.5,right,LLRLL.png,,,,,0,1,1,1,1,3,27,3,,,,,,,,,,,,,,,,,,,,,,,,,,,,,,,,,,,,,,,,,,,,,,,,,,,,,,,,,,,,,,,,326.43512289994396,326.8352051998954,326.8195661997888,326.9352981999982,327.31963809998706,None,right,1,0.5789624000899494,327.31963809998706,None,326.8195661997888,326.9352981999982,326.91902839997783,None,327.91974029992707,None,,,,,,,11035,001,2024_Mar_10_1358,ANT,2021.2.3,59.624959011866835,
1,10,center,up,C,R,,,,,,Block.xlsx,"你已经完成了整个实验（三个区组）。

请报告实验者已完成实验

非常感谢，再见！",0,50,1.5,right,RRRRR.png,,,,,0,1,1,1,1,4,28,9,,,,,,,,,,,,,,,,,,,,,,,,,,,,,,,,,,,,,,,,,,,,,,,,,,,,,,,,,,,,,,,,328.32093119993806,328.7206207998097,328.70564850000665,328.805461099837,329.2046699000057,None,right,1,0.39730149996466935,329.2046699000057,None,328.70564850000665,328.805461099837,328.805461099837,None,329.6219513998367,None,,,,,,,11035,001,2024_Mar_10_1358,ANT,2021.2.3,59.624959011866835,
1,19,spatial,up,IC,L,,,,,,Block.xlsx,"你已经完成了整个实验（三个区组）。

请报告实验者已完成实验

非常感谢，再见！",1.5,0,1.5,left,RRLRR.png,,,,,0,1,1,1,1,5,29,18,,,,,,,,,,,,,,,,,,,,,,,,,,,,,,,,,,,,,,,,,,,,,,,,,,,,,,,,,,,,,,,,330.0226061998401,330.42509289993905,330.40638099983335,330.5066240997985,330.9080430998001,None,left,1,0.40724999993108213,330.9080430998001,None,330.40638099983335,330.5066240997985,330.5066240997985,None,331.3421364999376,None,,,,,,,11035,001,2024_Mar_10_1358,ANT,2021.2.3,59.624959011866835,
1,10,center,up,C,R,,,,,,Block.xlsx,"你已经完成了整个实验（三个区组）。

请报告实验者已完成实验

非常感谢，再见！",0,50,1.5,right,RRRRR.png,,,,,0,1,1,1,1,6,30,9,,,,,,,,,,,,,,,,,,,,,,,,,,,,,,,,,,,,,,,,,,,,,,,,,,,,,,,,,,,,,,,,331.7416709999088,332.1437733999919,332.1257666000165,332.2267054999247,332.62697649979964,None,right,1,0.39173940010368824,332.62697649979964,None,332.1257666000165,332.2267054999247,332.2267054999247,None,333.04370469995774,None,,,,,,,11035,001,2024_Mar_10_1358,ANT,2021.2.3,59.624959011866835,
1,1,no,up,C,L,,,,,,Block.xlsx,"你已经完成了整个实验（三个区组）。

请报告实验者已完成实验

非常感谢，再见！",50,0,1.5,left,LLLLL.png,,,,,0,1,1,1,1,7,31,0,,,,,,,,,,,,,,,,,,,,,,,,,,,,,,,,,,,,,,,,,,,,,,,,,,,,,,,,,,,,,,,,333.44512679986656,333.84561239997856,333.82902259984985,333.92983059980907,334.32919799978845,None,left,1,0.497199600096792,334.32919799978845,None,333.82902259984985,333.92983059980907,333.92983059980907,None,334.84644859982654,None,,,,,,,11035,001,2024_Mar_10_1358,ANT,2021.2.3,59.624959011866835,
1,24,spatial,down,IC,R,,,,,,Block.xlsx,"你已经完成了整个实验（三个区组）。

请报告实验者已完成实验

非常感谢，再见！",-1.5,0,-1.5,right,LLRLL.png,,,,,0,1,1,1,1,8,32,23,,,,,,,,,,,,,,,,,,,,,,,,,,,,,,,,,,,,,,,,,,,,,,,,,,,,,,,,,,,,,,,,335.24860009993427,335.64854979980737,335.6320566998329,335.7335133999586,336.13301389990374,None,right,1,0.5338026999961585,336.13301389990374,None,335.6320566998329,335.7335133999586,335.7335133999586,None,336.68243839987554,None,,,,,,,11035,001,2024_Mar_10_1358,ANT,2021.2.3,59.624959011866835,
1,16,center,down,IC,R,,,,,,Block.xlsx,"你已经完成了整个实验（三个区组）。

请报告实验者已完成实验

非常感谢，再见！",0,50,-1.5,right,LLRLL.png,,,,,0,1,1,1,1,9,33,15,,,,,,,,,,,,,,,,,,,,,,,,,,,,,,,,,,,,,,,,,,,,,,,,,,,,,,,,,,,,,,,,337.0831921999343,337.48376059997827,337.4678397998214,337.5680390999187,337.96889919997193,None,right,1,0.5774446001742035,337.96889919997193,None,337.4678397998214,337.5680390999187,337.5680390999187,None,338.5686576999724,None,,,,,,,11035,001,2024_Mar_10_1358,ANT,2021.2.3,59.624959011866835,
1,14,center,down,C,R,,,,,,Block.xlsx,"你已经完成了整个实验（三个区组）。

请报告实验者已完成实验

非常感谢，再见！",0,50,-1.5,right,RRRRR.png,,,,,0,1,1,1,1,10,34,13,,,,,,,,,,,,,,,,,,,,,,,,,,,,,,,,,,,,,,,,,,,,,,,,,,,,,,,,,,,,,,,,338.96949189994484,339.3717616999056,339.3544067000039,339.45352589990944,339.8549426998943,None,right,1,0.5155806001275778,339.8549426998943,None,339.3544067000039,339.45352589990944,339.45352589990944,None,340.3894828998018,None,,,,,,,11035,001,2024_Mar_10_1358,ANT,2021.2.3,59.624959011866835,
1,11,center,up,IC,L,,,,,,Block.xlsx,"你已经完成了整个实验（三个区组）。

请报告实验者已完成实验

非常感谢，再见！",0,50,1.5,left,RRLRR.png,,,,,0,1,1,1,1,11,35,10,,,,,,,,,,,,,,,,,,,,,,,,,,,,,,,,,,,,,,,,,,,,,,,,,,,,,,,,,,,,,,,,340.7898130000103,341.1895394998137,341.1748536999803,341.27399619994685,341.6739843999967,None,left,1,0.5848813001066446,341.6739843999967,None,341.1748536999803,341.27399619994685,341.27399619994685,None,342.27434989996254,None,,,,,,,11035,001,2024_Mar_10_1358,ANT,2021.2.3,59.624959011866835,
1,13,center,down,C,L,,,,,,Block.xlsx,"你已经完成了整个实验（三个区组）。

请报告实验者已完成实验

非常感谢，再见！",0,50,-1.5,left,LLLLL.png,,,,,0,1,1,1,1,12,36,12,,,,,,,,,,,,,,,,,,,,,,,,,,,,,,,,,,,,,,,,,,,,,,,,,,,,,,,,,,,,,,,,342.6757483999245,343.0768883000128,343.05970039987005,343.1600167998113,343.5596710999962,None,left,1,0.490704899886623,343.5596710999962,None,343.05970039987005,343.1600167998113,343.1600167998113,None,344.0770773999393,None,,,,,,,11035,001,2024_Mar_10_1358,ANT,2021.2.3,59.624959011866835,
1,2,no,up,C,R,,,,,,Block.xlsx,"你已经完成了整个实验（三个区组）。

请报告实验者已完成实验

非常感谢，再见！",50,0,1.5,right,RRRRR.png,,,,,0,1,1,1,1,13,37,1,,,,,,,,,,,,,,,,,,,,,,,,,,,,,,,,,,,,,,,,,,,,,,,,,,,,,,,,,,,,,,,,344.47774699982256,344.88103489996865,344.86175279994495,344.9630584998522,345.3624587999657,None,right,1,0.4318482999224216,345.3624587999657,None,344.86175279994495,344.9630584998522,344.9630584998522,None,345.812946499791,None,,,,,,,11035,001,2024_Mar_10_1358,ANT,2021.2.3,59.624959011866835,
1,8,no,down,IC,R,,,,,,Block.xlsx,"你已经完成了整个实验（三个区组）。

请报告实验者已完成实验

非常感谢，再见！",50,0,-1.5,right,LLRLL.png,,,,,0,1,1,1,1,14,38,7,,,,,,,,,,,,,,,,,,,,,,,,,,,,,,,,,,,,,,,,,,,,,,,,,,,,,,,,,,,,,,,,346.21463850000873,346.61544670001604,346.59894269984215,346.6985105997883,347.0981528998818,None,right,1,0.6000386001542211,347.0981528998818,None,346.59894269984215,346.6985105997883,346.6985105997883,None,347.7158787997905,None,,,,,,,11035,001,2024_Mar_10_1358,ANT,2021.2.3,59.624959011866835,
1,17,spatial,up,C,L,,,,,,Block.xlsx,"你已经完成了整个实验（三个区组）。

请报告实验者已完成实验

非常感谢，再见！",1.5,0,1.5,left,LLLLL.png,,,,,0,1,1,1,1,15,39,16,,,,,,,,,,,,,,,,,,,,,,,,,,,,,,,,,,,,,,,,,,,,,,,,,,,,,,,,,,,,,,,,348.1169040999375,348.5172759999987,348.50038979994133,348.60066559980623,349.00312369992025,None,left,1,0.3833400998264551,349.00312369992025,None,348.50038979994133,348.60066559980623,348.60066559980623,None,349.40187920001335,None,,,,,,,11035,001,2024_Mar_10_1358,ANT,2021.2.3,59.624959011866835,
1,7,no,down,IC,L,,,,,,Block.xlsx,"你已经完成了整个实验（三个区组）。

请报告实验者已完成实验

非常感谢，再见！",50,0,-1.5,left,RRLRR.png,,,,,0,1,1,1,1,16,40,6,,,,,,,,,,,,,,,,,,,,,,,,,,,,,,,,,,,,,,,,,,,,,,,,,,,,,,,,,,,,,,,,349.80314480001107,350.20533049991354,350.1869610999711,350.28865180001594,350.68763539986685,None,left,1,0.6747334999963641,350.68763539986685,None,350.1869610999711,350.28865180001594,350.28865180001594,None,351.38823369983584,None,,,,,,,11035,001,2024_Mar_10_1358,ANT,2021.2.3,59.624959011866835,
1,7,no,down,IC,L,,,,,,Block.xlsx,"你已经完成了整个实验（三个区组）。

请报告实验者已完成实验

非常感谢，再见！",50,0,-1.5,left,RRLRR.png,,,,,0,1,1,1,1,17,41,6,,,,,,,,,,,,,,,,,,,,,,,,,,,,,,,,,,,,,,,,,,,,,,,,,,,,,,,,,,,,,,,,351.789207899943,352.1899353999179,352.1740047999192,352.2728275998961,352.67410509986803,None,left,1,0.6251167000737041,352.67410509986803,None,352.1740047999192,352.2728275998961,352.2728275998961,None,353.32435169979,None,,,,,,,11035,001,2024_Mar_10_1358,ANT,2021.2.3,59.624959011866835,
1,13,center,down,C,L,,,,,,Block.xlsx,"你已经完成了整个实验（三个区组）。

请报告实验者已完成实验

非常感谢，再见！",0,50,-1.5,left,LLLLL.png,,,,,0,1,1,1,1,18,42,12,,,,,,,,,,,,,,,,,,,,,,,,,,,,,,,,,,,,,,,,,,,,,,,,,,,,,,,,,,,,,,,,353.7248226997908,354.12719169980846,354.10894689988345,354.2091649998911,354.60968689993024,None,left,1,0.44090230017900467,354.60968689993024,None,354.10894689988345,354.2091649998911,354.2091649998911,None,355.076853599865,None,,,,,,,11035,001,2024_Mar_10_1358,ANT,2021.2.3,59.624959011866835,
1,15,center,down,IC,L,,,,,,Block.xlsx,"你已经完成了整个实验（三个区组）。

请报告实验者已完成实验

非常感谢，再见！",0,50,-1.5,left,RRLRR.png,,,,,0,1,1,1,1,19,43,14,,,,,,,,,,,,,,,,,,,,,,,,,,,,,,,,,,,,,,,,,,,,,,,,,,,,,,,,,,,,,,,,355.47802229993977,355.8797408998944,355.8616349999793,355.962216099957,356.3622183999978,None,left,1,0.3924318999052048,356.3622183999978,None,355.8616349999793,355.962216099957,355.962216099957,None,356.7796386999544,None,,,,,,,11035,001,2024_Mar_10_1358,ANT,2021.2.3,59.624959011866835,
1,8,no,down,IC,R,,,,,,Block.xlsx,"你已经完成了整个实验（三个区组）。

请报告实验者已完成实验

非常感谢，再见！",50,0,-1.5,right,LLRLL.png,,,,,0,1,1,1,1,20,44,7,,,,,,,,,,,,,,,,,,,,,,,,,,,,,,,,,,,,,,,,,,,,,,,,,,,,,,,,,,,,,,,,357.18012279993854,357.58163389982656,357.5647984999232,357.6651174998842,358.064996099798,None,right,1,0.6256256999913603,358.064996099798,None,357.5647984999232,357.6651174998842,357.6651174998842,None,358.7156278998591,None,,,,,,,11035,001,2024_Mar_10_1358,ANT,2021.2.3,59.624959011866835,
1,9,center,up,C,L,,,,,,Block.xlsx,"你已经完成了整个实验（三个区组）。

请报告实验者已完成实验

非常感谢，再见！",0,50,1.5,left,LLLLL.png,,,,,0,1,1,1,1,21,45,8,,,,,,,,,,,,,,,,,,,,,,,,,,,,,,,,,,,,,,,,,,,,,,,,,,,,,,,,,,,,,,,,359.1163550999481,359.5181083998177,359.50098149990663,359.60244199982844,360.0023271997925,None,left,1,0.43346129986457527,360.0023271997925,None,359.50098149990663,359.60244199982844,359.60244199982844,None,360.45188269997016,None,,,,,,,11035,001,2024_Mar_10_1358,ANT,2021.2.3,59.624959011866835,
1,11,center,up,IC,L,,,,,,Block.xlsx,"你已经完成了整个实验（三个区组）。

请报告实验者已完成实验

非常感谢，再见！",0,50,1.5,left,RRLRR.png,,,,,0,1,1,1,1,22,46,10,,,,,,,,,,,,,,,,,,,,,,,,,,,,,,,,,,,,,,,,,,,,,,,,,,,,,,,,,,,,,,,,360.85222899983637,361.2530476998072,361.23633369989693,361.3370429999195,361.73917649989016,None,left,1,0.43239239999093115,361.73917649989016,None,361.23633369989693,361.3370429999195,361.3370429999195,None,362.18773919995874,None,,,,,,,11035,001,2024_Mar_10_1358,ANT,2021.2.3,59.624959011866835,
1,22,spatial,down,C,R,,,,,,Block.xlsx,"你已经完成了整个实验（三个区组）。

请报告实验者已完成实验

非常感谢，再见！",-1.5,0,-1.5,right,RRRRR.png,,,,,0,1,1,1,1,23,47,21,,,,,,,,,,,,,,,,,,,,,,,,,,,,,,,,,,,,,,,,,,,,,,,,,,,,,,,,,,,,,,,,362.5889528999105,362.9889196997974,362.9722447998356,363.07220359984785,363.47433029999956,None,right,1,0.42460409994237125,363.47433029999956,None,362.9722447998356,363.07220359984785,363.07220359984785,None,363.9237532999832,None,,,,,,,11035,001,2024_Mar_10_1358,ANT,2021.2.3,59.624959011866835,
1,19,spatial,up,IC,L,,,,,,Block.xlsx,"你已经完成了整个实验（三个区组）。

请报告实验者已完成实验

非常感谢，再见！",1.5,0,1.5,left,RRLRR.png,,,,,0,1,1,1,2,0,48,18,,,,,,,,,,,,,,,,,,,,,,,,,,,,,,,,,,,,,,,,,,,,,,,,,,,,,,,,,,,,,,,,364.32489199982956,364.7254985999316,364.71033839997835,364.82559009990655,365.2097508998122,None,left,1,0.41803830000571907,365.2097508998122,None,364.71033839997835,364.82559009990655,364.8091607999522,None,365.6426963999402,None,,,,,,,11035,001,2024_Mar_10_1358,ANT,2021.2.3,59.624959011866835,
1,18,spatial,up,C,R,,,,,,Block.xlsx,"你已经完成了整个实验（三个区组）。

请报告实验者已完成实验

非常感谢，再见！",1.5,0,1.5,right,RRRRR.png,,,,,0,1,1,1,2,1,49,17,,,,,,,,,,,,,,,,,,,,,,,,,,,,,,,,,,,,,,,,,,,,,,,,,,,,,,,,,,,,,,,,366.0435683999676,366.4449075998273,366.4287642999552,366.5450187998358,366.9291505999863,None,right,1,0.3857364000286907,366.9291505999863,None,366.4287642999552,366.5450187998358,366.5295881999191,None,367.3289359998889,None,,,,,,,11035,001,2024_Mar_10_1358,ANT,2021.2.3,59.624959011866835,
1,13,center,down,C,L,,,,,,Block.xlsx,"你已经完成了整个实验（三个区组）。

请报告实验者已完成实验

非常感谢，再见！",0,50,-1.5,left,LLLLL.png,,,,,0,1,1,1,2,2,50,12,,,,,,,,,,,,,,,,,,,,,,,,,,,,,,,,,,,,,,,,,,,,,,,,,,,,,,,,,,,,,,,,367.72936979983933,368.1311381999403,368.11350329988636,368.215258799959,368.6141848999541,None,left,1,0.5088462000712752,368.6141848999541,None,368.11350329988636,368.215258799959,368.215258799959,None,369.1484691000078,None,,,,,,,11035,001,2024_Mar_10_1358,ANT,2021.2.3,59.624959011866835,
1,3,no,up,IC,L,,,,,,Block.xlsx,"你已经完成了整个实验（三个区组）。

请报告实验者已完成实验

非常感谢，再见！",50,0,1.5,left,RRLRR.png,,,,,0,1,1,1,2,3,51,2,,,,,,,,,,,,,,,,,,,,,,,,,,,,,,,,,,,,,,,,,,,,,,,,,,,,,,,,,,,,,,,,369.54880899982527,369.9497126999777,369.9332847998012,370.033999199979,370.4351408998482,None,left,1,0.48818839993327856,370.4351408998482,None,369.9332847998012,370.033999199979,370.033999199979,None,370.95087549998425,None,,,,,,,11035,001,2024_Mar_10_1358,ANT,2021.2.3,59.624959011866835,
1,4,no,up,IC,R,,,,,,Block.xlsx,"你已经完成了整个实验（三个区组）。

请报告实验者已完成实验

非常感谢，再见！",50,0,1.5,right,LLRLL.png,,,,,0,1,1,1,2,4,52,3,,,,,,,,,,,,,,,,,,,,,,,,,,,,,,,,,,,,,,,,,,,,,,,,,,,,,,,,,,,,,,,,371.35143939987756,371.7523222998716,371.73670539981686,371.8365162999835,372.2368892999366,None,right,1,0.5905275999102741,372.2368892999366,None,371.73670539981686,371.8365162999835,371.8365162999835,None,372.8539049997926,None,,,,,,,11035,001,2024_Mar_10_1358,ANT,2021.2.3,59.624959011866835,
1,21,spatial,down,C,L,,,,,,Block.xlsx,"你已经完成了整个实验（三个区组）。

请报告实验者已完成实验

非常感谢，再见！",-1.5,0,-1.5,left,LLLLL.png,,,,,0,1,1,1,2,5,53,20,,,,,,,,,,,,,,,,,,,,,,,,,,,,,,,,,,,,,,,,,,,,,,,,,,,,,,,,,,,,,,,,373.25514129991643,373.65510339988396,373.63895249995403,373.7397375998553,374.1405526997987,None,left,1,0.3515757001005113,374.1405526997987,None,373.63895249995403,373.7397375998553,373.7397375998553,None,374.50648069987074,None,,,,,,,11035,001,2024_Mar_10_1358,ANT,2021.2.3,59.624959011866835,
1,4,no,up,IC,R,,,,,,Block.xlsx,"你已经完成了整个实验（三个区组）。

请报告实验者已完成实验

非常感谢，再见！",50,0,1.5,right,LLRLL.png,,,,,0,1,1,1,2,6,54,3,,,,,,,,,,,,,,,,,,,,,,,,,,,,,,,,,,,,,,,,,,,,,,,,,,,,,,,,,,,,,,,,374.9078975999728,375.3086172998883,375.29198929993436,375.3934072998818,375.7921322998591,None,right,1,0.707102800020948,375.7921322998591,None,375.29198929993436,375.3934072998818,375.3934072998818,None,376.5267506998498,None,,,,,,,11035,001,2024_Mar_10_1358,ANT,2021.2.3,59.624959011866835,
1,5,no,down,C,L,,,,,,Block.xlsx,"你已经完成了整个实验（三个区组）。

请报告实验者已完成实验

非常感谢，再见！",50,0,-1.5,left,LLLLL.png,,,,,0,1,1,1,2,7,55,4,,,,,,,,,,,,,,,,,,,,,,,,,,,,,,,,,,,,,,,,,,,,,,,,,,,,,,,,,,,,,,,,376.92759480001405,377.3273856998421,377.3105213998351,377.41068129986525,377.81144169997424,None,left,1,0.384255199925974,377.81144169997424,None,377.3105213998351,377.41068129986525,377.41068129986525,None,378.2119014998898,None,,,,,,,11035,001,2024_Mar_10_1358,ANT,2021.2.3,59.624959011866835,
1,9,center,up,C,L,,,,,,Block.xlsx,"你已经完成了整个实验（三个区组）。

请报告实验者已完成实验

非常感谢，再见！",0,50,1.5,left,LLLLL.png,,,,,0,1,1,1,2,8,56,8,,,,,,,,,,,,,,,,,,,,,,,,,,,,,,,,,,,,,,,,,,,,,,,,,,,,,,,,,,,,,,,,378.612630299991,379.01405669981614,378.99747179984115,379.0974061000161,379.4980009999126,None,left,1,0.4010044999886304,379.4980009999126,None,378.99747179984115,379.0974061000161,379.0974061000161,None,379.91447809990495,None,,,,,,,11035,001,2024_Mar_10_1358,ANT,2021.2.3,59.624959011866835,
1,7,no,down,IC,L,,,,,,Block.xlsx,"你已经完成了整个实验（三个区组）。

请报告实验者已完成实验

非常感谢，再见！",50,0,-1.5,left,RRLRR.png,,,,,0,1,1,1,2,9,57,6,,,,,,,,,,,,,,,,,,,,,,,,,,,,,,,,,,,,,,,,,,,,,,,,,,,,,,,,,,,,,,,,380.3157037999481,380.71732870000415,380.70058780000545,380.7992129998747,381.1999353999272,None,left,1,0.5721837999299169,381.1999353999272,None,380.70058780000545,380.7992129998747,380.7992129998747,None,381.80068129999563,None,,,,,,,11035,001,2024_Mar_10_1358,ANT,2021.2.3,59.624959011866835,
1,14,center,down,C,R,,,,,,Block.xlsx,"你已经完成了整个实验（三个区组）。

请报告实验者已完成实验

非常感谢，再见！",0,50,-1.5,right,RRRRR.png,,,,,0,1,1,1,2,10,58,13,,,,,,,,,,,,,,,,,,,,,,,,,,,,,,,,,,,,,,,,,,,,,,,,,,,,,,,,,,,,,,,,382.2013071998954,382.6018980999943,382.58506519999355,382.6862458998803,383.0871303998865,None,right,1,0.4604209999088198,383.0871303998865,None,382.58506519999355,382.6862458998803,382.6862458998803,None,383.57010199991055,None,,,,,,,11035,001,2024_Mar_10_1358,ANT,2021.2.3,59.624959011866835,
1,13,center,down,C,L,,,,,,Block.xlsx,"你已经完成了整个实验（三个区组）。

请报告实验者已完成实验

非常感谢，再见！",0,50,-1.5,left,LLLLL.png,,,,,0,1,1,1,2,11,59,12,,,,,,,,,,,,,,,,,,,,,,,,,,,,,,,,,,,,,,,,,,,,,,,,,,,,,,,,,,,,,,,,383.97042709984817,384.37293929979205,384.3545083999634,384.4562414998654,384.8562484998256,None,left,1,0.45097389980219305,384.8562484998256,None,384.3545083999634,384.4562414998654,384.4562414998654,None,385.3392501999624,None,,,,,,,11035,001,2024_Mar_10_1358,ANT,2021.2.3,59.624959011866835,
1,7,no,down,IC,L,,,,,,Block.xlsx,"你已经完成了整个实验（三个区组）。

请报告实验者已完成实验

非常感谢，再见！",50,0,-1.5,left,RRLRR.png,,,,,0,1,1,1,2,12,60,6,,,,,,,,,,,,,,,,,,,,,,,,,,,,,,,,,,,,,,,,,,,,,,,,,,,,,,,,,,,,,,,,385.74017729982734,386.1424639998004,386.1239437998738,386.22402829979546,386.6254255999811,None,left,1,0.47473570005968213,386.6254255999811,None,386.1239437998738,386.22402829979546,386.22402829979546,None,387.12540079979226,None,,,,,,,11035,001,2024_Mar_10_1358,ANT,2021.2.3,59.624959011866835,
1,16,center,down,IC,R,,,,,,Block.xlsx,"你已经完成了整个实验（三个区组）。

请报告实验者已完成实验

非常感谢，再见！",0,50,-1.5,right,LLRLL.png,,,,,0,1,1,1,2,13,61,15,,,,,,,,,,,,,,,,,,,,,,,,,,,,,,,,,,,,,,,,,,,,,,,,,,,,,,,,,,,,,,,,387.52667429996654,387.92716119997203,387.9100705999881,388.0112125999294,388.4115883000195,None,right,1,0.48873230000026524,388.4115883000195,None,387.9100705999881,388.0112125999294,388.0112125999294,None,388.9279547999613,None,,,,,,,11035,001,2024_Mar_10_1358,ANT,2021.2.3,59.624959011866835,
1,1,no,up,C,L,,,,,,Block.xlsx,"你已经完成了整个实验（三个区组）。

请报告实验者已完成实验

非常感谢，再见！",50,0,1.5,left,LLLLL.png,,,,,0,1,1,1,2,14,62,0,,,,,,,,,,,,,,,,,,,,,,,,,,,,,,,,,,,,,,,,,,,,,,,,,,,,,,,,,,,,,,,,389.32963159983046,389.729350999929,389.71369199990295,389.81361189996824,390.21424210001715,None,left,1,0.4614430000074208,390.21424210001715,None,389.71369199990295,389.81361189996824,389.81361189996824,None,390.69739259989,None,,,,,,,11035,001,2024_Mar_10_1358,ANT,2021.2.3,59.624959011866835,
1,2,no,up,C,R,,,,,,Block.xlsx,"你已经完成了整个实验（三个区组）。

请报告实验者已完成实验

非常感谢，再见！",50,0,1.5,right,RRRRR.png,,,,,0,1,1,1,2,15,63,1,,,,,,,,,,,,,,,,,,,,,,,,,,,,,,,,,,,,,,,,,,,,,,,,,,,,,,,,,,,,,,,,391.09802369982935,391.49950829986483,391.4826377998106,391.58207609993406,391.9827752998099,None,right,1,0.5089815000537783,391.9827752998099,None,391.4826377998106,391.58207609993406,391.58207609993406,None,392.5167547999881,None,,,,,,,11035,001,2024_Mar_10_1358,ANT,2021.2.3,59.624959011866835,
1,2,no,up,C,R,,,,,,Block.xlsx,"你已经完成了整个实验（三个区组）。

请报告实验者已完成实验

非常感谢，再见！",50,0,1.5,right,RRRRR.png,,,,,0,1,1,1,2,16,64,1,,,,,,,,,,,,,,,,,,,,,,,,,,,,,,,,,,,,,,,,,,,,,,,,,,,,,,,,,,,,,,,,392.9175016998779,393.31877009989694,393.3022486998234,393.40143599989824,393.80382079980336,None,right,1,0.4482154999859631,393.80382079980336,None,393.3022486998234,393.40143599989824,393.40143599989824,None,394.2693564998917,None,,,,,,,11035,001,2024_Mar_10_1358,ANT,2021.2.3,59.624959011866835,
1,21,spatial,down,C,L,,,,,,Block.xlsx,"你已经完成了整个实验（三个区组）。

请报告实验者已完成实验

非常感谢，再见！",-1.5,0,-1.5,left,LLLLL.png,,,,,0,1,1,1,2,17,65,20,,,,,,,,,,,,,,,,,,,,,,,,,,,,,,,,,,,,,,,,,,,,,,,,,,,,,,,,,,,,,,,,394.67082669981755,395.0706608998589,395.05393989989534,395.15456119994633,395.5562783998903,None,left,1,0.34346510004252195,395.5562783998903,None,395.05393989989534,395.15456119994633,395.15456119994633,None,395.92193880002014,None,,,,,,,11035,001,2024_Mar_10_1358,ANT,2021.2.3,59.624959011866835,
1,23,spatial,down,IC,L,,,,,,Block.xlsx,"你已经完成了整个实验（三个区组）。

请报告实验者已完成实验

非常感谢，再见！",-1.5,0,-1.5,left,RRLRR.png,,,,,0,1,1,1,2,18,66,22,,,,,,,,,,,,,,,,,,,,,,,,,,,,,,,,,,,,,,,,,,,,,,,,,,,,,,,,,,,,,,,,396.3224865999073,396.7239123999607,396.7073093999643,396.8074687998742,397.2072308999486,None,left,1,0.4286387001629919,397.2072308999486,None,396.7073093999643,396.8074687998742,396.8074687998742,None,397.6582812999841,None,,,,,,,11035,001,2024_Mar_10_1358,ANT,2021.2.3,59.624959011866835,
1,17,spatial,up,C,L,,,,,,Block.xlsx,"你已经完成了整个实验（三个区组）。

请报告实验者已完成实验

非常感谢，再见！",1.5,0,1.5,left,LLLLL.png,,,,,0,1,1,1,2,19,67,16,,,,,,,,,,,,,,,,,,,,,,,,,,,,,,,,,,,,,,,,,,,,,,,,,,,,,,,,,,,,,,,,398.0594940998126,398.45970629993826,398.443278899882,398.54375949990936,398.9444898997899,None,left,1,0.39573019999079406,398.9444898997899,None,398.443278899882,398.54375949990936,398.54375949990936,None,399.36043199989945,None,,,,,,,11035,001,2024_Mar_10_1358,ANT,2021.2.3,59.624959011866835,
1,15,center,down,IC,L,,,,,,Block.xlsx,"你已经完成了整个实验（三个区组）。

请报告实验者已完成实验

非常感谢，再见！",0,50,-1.5,left,RRLRR.png,,,,,0,1,1,1,2,20,68,14,,,,,,,,,,,,,,,,,,,,,,,,,,,,,,,,,,,,,,,,,,,,,,,,,,,,,,,,,,,,,,,,399.761744099902,400.16178889991716,400.14612409984693,400.24619989981875,400.64790749992244,None,left,1,0.5886895000003278,400.64790749992244,None,400.14612409984693,400.24619989981875,400.24619989981875,None,401.26345079997554,None,,,,,,,11035,001,2024_Mar_10_1358,ANT,2021.2.3,59.624959011866835,
1,4,no,up,IC,R,,,,,,Block.xlsx,"你已经完成了整个实验（三个区组）。

请报告实验者已完成实验

非常感谢，再见！",50,0,1.5,right,LLRLL.png,,,,,0,1,1,1,2,21,69,3,,,,,,,,,,,,,,,,,,,,,,,,,,,,,,,,,,,,,,,,,,,,,,,,,,,,,,,,,,,,,,,,401.6638473998755,402.0645847998094,402.0498935999349,402.16574659990147,402.54974049981683,None,right,1,0.5824606998357922,402.54974049981683,None,402.0498935999349,402.16574659990147,402.1493354998529,None,403.1494301999919,None,,,,,,,11035,001,2024_Mar_10_1358,ANT,2021.2.3,59.624959011866835,
1,14,center,down,C,R,,,,,,Block.xlsx,"你已经完成了整个实验（三个区组）。

请报告实验者已完成实验

非常感谢，再见！",0,50,-1.5,right,RRRRR.png,,,,,0,1,1,1,2,22,70,13,,,,,,,,,,,,,,,,,,,,,,,,,,,,,,,,,,,,,,,,,,,,,,,,,,,,,,,,,,,,,,,,403.5508693999145,403.9514633999206,403.93482069997117,404.0345310999546,404.43513999995776,None,right,1,0.5367383998818696,404.43513999995776,None,403.93482069997117,404.0345310999546,404.0345310999546,None,405.00234859995544,None,,,,,,,11035,001,2024_Mar_10_1358,ANT,2021.2.3,59.624959011866835,
1,2,no,up,C,R,,,,,,Block.xlsx,"你已经完成了整个实验（三个区组）。

请报告实验者已完成实验

非常感谢，再见！",50,0,1.5,right,RRRRR.png,,,,,0,1,1,1,2,23,71,1,,,,,,,,,,,,,,,,,,,,,,,,,,,,,,,,,,,,,,,,,,,,,,,,,,,,,,,,,,,,,,,,405.4035320999101,405.8034380997997,405.78746859985404,405.8878981999587,406.2881560998503,None,right,1,0.4840814000926912,406.2881560998503,None,405.78746859985404,405.8878981999587,405.8878981999587,None,406.7885089998599,None,,,,,,,11035,001,2024_Mar_10_1358,ANT,2021.2.3,59.624959011866835,
1,24,spatial,down,IC,R,,,,,,Block.xlsx,"你已经完成了整个实验（三个区组）。

请报告实验者已完成实验

非常感谢，再见！",-1.5,0,-1.5,right,LLRLL.png,,,,,0,1,1,1,3,0,72,23,,,,,,,,,,,,,,,,,,,,,,,,,,,,,,,,,,,,,,,,,,,,,,,,,,,,,,,,,,,,,,,,407.1889889999293,407.5907458998263,407.5737941998523,407.67478519980796,408.075025399914,None,right,1,0.5692086999770254,408.075025399914,None,407.5737941998523,407.67478519980796,407.67478519980796,None,408.6745765998494,None,,,,,,,11035,001,2024_Mar_10_1358,ANT,2021.2.3,59.624959011866835,
1,9,center,up,C,L,,,,,,Block.xlsx,"你已经完成了整个实验（三个区组）。

请报告实验者已完成实验

非常感谢，再见！",0,50,1.5,left,LLLLL.png,,,,,0,1,1,1,3,1,73,8,,,,,,,,,,,,,,,,,,,,,,,,,,,,,,,,,,,,,,,,,,,,,,,,,,,,,,,,,,,,,,,,409.075774599798,409.47639979980886,409.4597074999474,409.5601990998257,409.96066869981587,None,left,1,0.4035998999606818,409.96066869981587,None,409.4597074999474,409.5601990998257,409.5601990998257,None,410.39365779981017,None,,,,,,,11035,001,2024_Mar_10_1358,ANT,2021.2.3,59.624959011866835,
1,17,spatial,up,C,L,,,,,,Block.xlsx,"你已经完成了整个实验（三个区组）。

请报告实验者已完成实验

非常感谢，再见！",1.5,0,1.5,left,LLLLL.png,,,,,0,1,1,1,3,2,74,16,,,,,,,,,,,,,,,,,,,,,,,,,,,,,,,,,,,,,,,,,,,,,,,,,,,,,,,,,,,,,,,,410.7955078999512,411.1948725997936,411.1785565998871,411.2791156999301,411.6799536999315,None,left,1,0.4363521998748183,411.6799536999315,None,411.1785565998871,411.2791156999301,411.2791156999301,None,412.14723949995823,None,,,,,,,11035,001,2024_Mar_10_1358,ANT,2021.2.3,59.624959011866835,
1,18,spatial,up,C,R,,,,,,Block.xlsx,"你已经完成了整个实验（三个区组）。

请报告实验者已完成实验

非常感谢，再见！",1.5,0,1.5,right,RRRRR.png,,,,,0,1,1,1,3,3,75,17,,,,,,,,,,,,,,,,,,,,,,,,,,,,,,,,,,,,,,,,,,,,,,,,,,,,,,,,,,,,,,,,412.54758319980465,412.94988529989496,412.9312938998919,413.0316685999278,413.4325610999949,None,right,1,0.35620520007796586,413.4325610999949,None,412.9312938998919,413.0316685999278,413.0316685999278,None,413.8157360998448,None,,,,,,,11035,001,2024_Mar_10_1358,ANT,2021.2.3,59.624959011866835,
1,18,spatial,up,C,R,,,,,,Block.xlsx,"你已经完成了整个实验（三个区组）。

请报告实验者已完成实验

非常感谢，再见！",1.5,0,1.5,right,RRRRR.png,,,,,0,1,1,1,3,4,76,17,,,,,,,,,,,,,,,,,,,,,,,,,,,,,,,,,,,,,,,,,,,,,,,,,,,,,,,,,,,,,,,,414.2160480997991,414.61859559989534,414.5999958999455,414.7022708998993,415.1014064999763,None,right,1,0.4071560001466423,415.1014064999763,None,414.5999958999455,414.7022708998993,414.7022708998993,None,415.5358663999941,None,,,,,,,11035,001,2024_Mar_10_1358,ANT,2021.2.3,59.624959011866835,
1,19,spatial,up,IC,L,,,,,,Block.xlsx,"你已经完成了整个实验（三个区组）。

请报告实验者已完成实验

非常感谢，再见！",1.5,0,1.5,left,RRLRR.png,,,,,0,1,1,1,3,5,77,18,,,,,,,,,,,,,,,,,,,,,,,,,,,,,,,,,,,,,,,,,,,,,,,,,,,,,,,,,,,,,,,,415.9370497998316,416.33599599986337,416.3205775998067,416.4205248998478,416.82116849999875,None,left,1,0.41509529994800687,416.82116849999875,None,416.3205775998067,416.4205248998478,416.4205248998478,None,417.2540696999058,None,,,,,,,11035,001,2024_Mar_10_1358,ANT,2021.2.3,59.624959011866835,
1,1,no,up,C,L,,,,,,Block.xlsx,"你已经完成了整个实验（三个区组）。

请报告实验者已完成实验

非常感谢，再见！",50,0,1.5,left,LLLLL.png,,,,,0,1,1,1,3,6,78,0,,,,,,,,,,,,,,,,,,,,,,,,,,,,,,,,,,,,,,,,,,,,,,,,,,,,,,,,,,,,,,,,417.6548559998628,418.05756719992496,418.03894799994305,418.13912419998087,418.539935000008,None,left,1,0.424389700172469,418.539935000008,None,418.03894799994305,418.13912419998087,418.13912419998087,None,418.99014259991236,None,,,,,,,11035,001,2024_Mar_10_1358,ANT,2021.2.3,59.624959011866835,
1,21,spatial,down,C,L,,,,,,Block.xlsx,"你已经完成了整个实验（三个区组）。

请报告实验者已完成实验

非常感谢，再见！",-1.5,0,-1.5,left,LLLLL.png,,,,,0,1,1,1,3,7,79,20,,,,,,,,,,,,,,,,,,,,,,,,,,,,,,,,,,,,,,,,,,,,,,,,,,,,,,,,,,,,,,,,419.3907410998363,419.7918928998988,419.7755079998169,419.875701099867,420.2757196999155,None,left,1,0.41666170000098646,420.2757196999155,None,419.7755079998169,419.875701099867,419.875701099867,None,420.70928149996325,None,,,,,,,11035,001,2024_Mar_10_1358,ANT,2021.2.3,59.624959011866835,
1,9,center,up,C,L,,,,,,Block.xlsx,"你已经完成了整个实验（三个区组）。

请报告实验者已完成实验

非常感谢，再见！",0,50,1.5,left,LLLLL.png,,,,,0,1,1,1,3,8,80,8,,,,,,,,,,,,,,,,,,,,,,,,,,,,,,,,,,,,,,,,,,,,,,,,,,,,,,,,,,,,,,,,421.1105462999549,421.51126499986276,421.49473999999464,421.59487579995766,421.9959009999875,None,left,1,0.4247004999779165,421.9959009999875,None,421.49473999999464,421.59487579995766,421.59487579995766,None,422.44579979986884,None,,,,,,,11035,001,2024_Mar_10_1358,ANT,2021.2.3,59.624959011866835,
1,3,no,up,IC,L,,,,,,Block.xlsx,"你已经完成了整个实验（三个区组）。

请报告实验者已完成实验

非常感谢，再见！",50,0,1.5,left,RRLRR.png,,,,,0,1,1,1,3,9,81,2,,,,,,,,,,,,,,,,,,,,,,,,,,,,,,,,,,,,,,,,,,,,,,,,,,,,,,,,,,,,,,,,422.84590690000914,423.24745219992474,423.2304860998411,423.33192089991644,423.73117909999564,None,left,1,0.6411514999344945,423.73117909999564,None,423.2304860998411,423.33192089991644,423.33192089991644,None,424.3981037000194,None,,,,,,,11035,001,2024_Mar_10_1358,ANT,2021.2.3,59.624959011866835,
1,22,spatial,down,C,R,,,,,,Block.xlsx,"你已经完成了整个实验（三个区组）。

请报告实验者已完成实验

非常感谢，再见！",-1.5,0,-1.5,right,RRRRR.png,,,,,0,1,1,1,3,10,82,21,,,,,,,,,,,,,,,,,,,,,,,,,,,,,,,,,,,,,,,,,,,,,,,,,,,,,,,,,,,,,,,,424.7999944000039,425.20011510001495,425.1834935999941,425.28308779979125,425.68442569999024,None,right,1,0.48839480010792613,425.68442569999024,None,425.1834935999941,425.28308779979125,425.28308779979125,None,426.20122319995426,None,,,,,,,11035,001,2024_Mar_10_1358,ANT,2021.2.3,59.624959011866835,
1,11,center,up,IC,L,,,,,,Block.xlsx,"你已经完成了整个实验（三个区组）。

请报告实验者已完成实验

非常感谢，再见！",0,50,1.5,left,RRLRR.png,,,,,0,1,1,1,3,11,83,10,,,,,,,,,,,,,,,,,,,,,,,,,,,,,,,,,,,,,,,,,,,,,,,,,,,,,,,,,,,,,,,,426.601654099999,427.0040970998816,426.9862170999404,427.08704679994844,427.4872508000117,None,left,1,0.4693130999803543,427.4872508000117,None,426.9862170999404,427.08704679994844,427.08704679994844,None,427.9877776999492,None,,,,,,,11035,001,2024_Mar_10_1358,ANT,2021.2.3,59.624959011866835,
1,12,center,up,IC,R,,,,,,Block.xlsx,"你已经完成了整个实验（三个区组）。

请报告实验者已完成实验

非常感谢，再见！",0,50,1.5,right,LLRLL.png,,,,,0,1,1,1,3,12,84,11,,,,,,,,,,,,,,,,,,,,,,,,,,,,,,,,,,,,,,,,,,,,,,,,,,,,,,,,,,,,,,,,428.38794339983724,428.7884303999599,428.7725484999828,428.87180590000935,429.2729298998602,None,right,1,0.5316296999808401,429.2729298998602,None,428.7725484999828,428.87180590000935,428.87180590000935,None,429.82302100001834,None,,,,,,,11035,001,2024_Mar_10_1358,ANT,2021.2.3,59.624959011866835,
1,16,center,down,IC,R,,,,,,Block.xlsx,"你已经完成了整个实验（三个区组）。

请报告实验者已完成实验

非常感谢，再见！",0,50,-1.5,right,LLRLL.png,,,,,0,1,1,1,3,13,85,15,,,,,,,,,,,,,,,,,,,,,,,,,,,,,,,,,,,,,,,,,,,,,,,,,,,,,,,,,,,,,,,,430.22359319985844,430.62515939981677,430.60794569994323,430.70874959998764,431.109086799901,None,right,1,0.671872999984771,431.109086799901,None,430.60794569994323,430.70874959998764,430.70874959998764,None,431.8102406999096,None,,,,,,,11035,001,2024_Mar_10_1358,ANT,2021.2.3,59.624959011866835,
1,10,center,up,C,R,,,,,,Block.xlsx,"你已经完成了整个实验（三个区组）。

请报告实验者已完成实验

非常感谢，再见！",0,50,1.5,right,RRRRR.png,,,,,0,1,1,1,3,14,86,9,,,,,,,,,,,,,,,,,,,,,,,,,,,,,,,,,,,,,,,,,,,,,,,,,,,,,,,,,,,,,,,,432.2112628999166,432.6115877998527,432.5947225999553,432.6951338998042,433.09530789987184,None,right,1,0.5974466998595744,433.09530789987184,None,432.5947225999553,432.6951338998042,432.6951338998042,None,433.71255279984325,None,,,,,,,11035,001,2024_Mar_10_1358,ANT,2021.2.3,59.624959011866835,
1,6,no,down,C,R,,,,,,Block.xlsx,"你已经完成了整个实验（三个区组）。

请报告实验者已完成实验

非常感谢，再见！",50,0,-1.5,right,RRRRR.png,,,,,0,1,1,1,3,15,87,5,,,,,,,,,,,,,,,,,,,,,,,,,,,,,,,,,,,,,,,,,,,,,,,,,,,,,,,,,,,,,,,,434.11292589991353,434.51416659983806,434.497356900014,434.59764179983176,434.99983450002037,None,right,1,0.6048930999822915,434.99983450002037,None,434.497356900014,434.59764179983176,434.59764179983176,None,435.63196319993585,None,,,,,,,11035,001,2024_Mar_10_1358,ANT,2021.2.3,59.624959011866835,
1,1,no,up,C,L,,,,,,Block.xlsx,"你已经完成了整个实验（三个区组）。

请报告实验者已完成实验

非常感谢，再见！",50,0,1.5,left,LLLLL.png,,,,,0,1,1,1,3,16,88,0,,,,,,,,,,,,,,,,,,,,,,,,,,,,,,,,,,,,,,,,,,,,,,,,,,,,,,,,,,,,,,,,436.03363139997236,436.4345470999833,436.4162555998191,436.5175436998252,436.9179489999078,None,left,1,0.5032554999925196,436.9179489999078,None,436.4162555998191,436.5175436998252,436.5175436998252,None,437.4515335999895,None,,,,,,,11035,001,2024_Mar_10_1358,ANT,2021.2.3,59.624959011866835,
1,12,center,up,IC,R,,,,,,Block.xlsx,"你已经完成了整个实验（三个区组）。

请报告实验者已完成实验

非常感谢，再见！",0,50,1.5,right,LLRLL.png,,,,,0,1,1,1,3,17,89,11,,,,,,,,,,,,,,,,,,,,,,,,,,,,,,,,,,,,,,,,,,,,,,,,,,,,,,,,,,,,,,,,437.8527579999063,438.25242569996044,438.23636109987274,438.3361933999695,438.7374734999612,None,right,1,0.5165001000277698,438.7374734999612,None,438.23636109987274,438.3361933999695,438.3361933999695,None,439.27092019980773,None,,,,,,,11035,001,2024_Mar_10_1358,ANT,2021.2.3,59.624959011866835,
1,12,center,up,IC,R,,,,,,Block.xlsx,"你已经完成了整个实验（三个区组）。

请报告实验者已完成实验

非常感谢，再见！",0,50,1.5,right,LLRLL.png,,,,,0,1,1,1,3,18,90,11,,,,,,,,,,,,,,,,,,,,,,,,,,,,,,,,,,,,,,,,,,,,,,,,,,,,,,,,,,,,,,,,439.67203889996745,440.07271919981577,440.0556747999508,440.15785029996186,440.55629189987667,None,right,1,0.520512199960649,440.55629189987667,None,440.0556747999508,440.15785029996186,440.15785029996186,None,441.10674620000646,None,,,,,,,11035,001,2024_Mar_10_1358,ANT,2021.2.3,59.624959011866835,
1,22,spatial,down,C,R,,,,,,Block.xlsx,"你已经完成了整个实验（三个区组）。

请报告实验者已完成实验

非常感谢，再见！",-1.5,0,-1.5,right,RRRRR.png,,,,,0,1,1,1,3,19,91,21,,,,,,,,,,,,,,,,,,,,,,,,,,,,,,,,,,,,,,,,,,,,,,,,,,,,,,,,,,,,,,,,441.50751009979285,441.90864099981263,441.89177310001105,441.9929312998429,442.3929671999067,None,right,1,0.5563554000109434,442.3929671999067,None,441.89177310001105,441.9929312998429,441.9929312998429,None,442.97630440001376,None,,,,,,,11035,001,2024_Mar_10_1358,ANT,2021.2.3,59.624959011866835,
1,20,spatial,up,IC,R,,,,,,Block.xlsx,"你已经完成了整个实验（三个区组）。

请报告实验者已完成实验

