TrialType,TrialNumber,WarningType,TargetType,FlankerType,TargetDirection,W,f,Y,corr,imageFile,condition,endtext,Yw,Yf,Yt,Corr,imagefile,trials_3.thisRepN,trials_3.thisTrialN,trials_3.thisN,trials_3.thisIndex,trials_2.thisRepN,trials_2.thisTrialN,trials_2.thisN,trials_2.thisIndex,trials.thisRepN,trials.thisTrialN,trials.thisN,trials.thisIndex,instr.started,instr.stopped,key_resp.keys,key_resp.rt,key_resp.started,key_resp.stopped,image.started,image.stopped,key_resp_6.keys,key_resp_6.rt,key_resp_6.started,key_resp_6.stopped,EX_L.started,EX_L.stopped,AL.started,AL.stopped,key_resp_7.keys,key_resp_7.rt,key_resp_7.started,key_resp_7.stopped,EX_R.started,EX_R.stopped,RR.started,RR.stopped,key_resp_8.keys,key_resp_8.rt,key_resp_8.started,key_resp_8.stopped,image_2.started,image_2.stopped,key_resp_9.keys,key_resp_9.rt,key_resp_9.started,key_resp_9.stopped,image_3.started,image_3.stopped,key_resp_10.keys,key_resp_10.rt,key_resp_10.started,key_resp_10.stopped,fix.started,fix.stopped,war.started,war.stopped,tar.started,tar.stopped,key_resp_4.keys,key_resp_4.corr,key_resp_4.rt,key_resp_4.started,key_resp_4.stopped,fix2.started,fix2.stopped,fix_2.started,fix_2.stopped,Feedback.started,Feedback.stopped,key_resp_2.keys,key_resp_2.rt,key_resp_2.started,key_resp_2.stopped,text_5.started,text_5.stopped,fix2_1.started,fix2_1.stopped,Warn.started,Warn.stopped,Tar.started,Tar.stopped,key_resp_5.keys,key_resp_5.corr,key_resp_5.rt,key_resp_5.started,key_resp_5.stopped,Fix_2.started,Fix_2.stopped,fix2_2.started,fix2_2.stopped,text_4.started,text_4.stopped,key_resp_3.keys,key_resp_3.rt,key_resp_3.started,key_resp_3.stopped,text_3.started,text_3.stopped,participant,session,date,expName,psychopyVersion,frameRate,
,,,,,,,,,,,,,,,,,,,,,,,,,,,,,,19.591512699989835,None,space,6.778622800018638,19.591512699989835,None,,,,,,,,,,,,,,,,,,,,,,,,,,,,,,,,,,,,,,,,,,,,,,,,,,,,,,,,,,,,,,,,,,,,,,,,,,,,,,,,,11034,001,2024_Jan_16_1045,ANT,2021.2.3,59.221813532887346,
,,,,,,,,,,,,,,,,,,,,,,,,,,,,,,,,,,,,26.402321999979904,None,space,11.1124659999914,26.402321999979904,None,,,,,,,,,,,,,,,,,,,,,,,,,,,,,,,,,,,,,,,,,,,,,,,,,,,,,,,,,,,,,,,,,,,,,,,,,,,11034,001,2024_Jan_16_1045,ANT,2021.2.3,59.221813532887346,
,,,,,,,,,,,,,,,,,,,,,,,,,,,,,,,,,,,,,,,,,,37.53493179997895,None,37.53493179997895,None,left,2.627808000019286,37.53493179997895,None,,,,,,,,,,,,,,,,,,,,,,,,,,,,,,,,,,,,,,,,,,,,,,,,,,,,,,,,,,,,,,,,,,,11034,001,2024_Jan_16_1045,ANT,2021.2.3,59.221813532887346,
,,,,,,,,,,,,,,,,,,,,,,,,,,,,,,,,,,,,,,,,,,,,,,,,,,40.189117600006284,None,40.189117600006284,None,right,1.397776800004067,40.189117600006284,None,,,,,,,,,,,,,,,,,,,,,,,,,,,,,,,,,,,,,,,,,,,,,,,,,,,,,,,,,,,11034,001,2024_Jan_16_1045,ANT,2021.2.3,59.221813532887346,
,,,,,,,,,,,,,,,,,,,,,,,,,,,,,,,,,,,,,,,,,,,,,,,,,,,,,,,,,,41.60774370000581,None,space,9.451113699993584,41.60774370000581,None,,,,,,,,,,,,,,,,,,,,,,,,,,,,,,,,,,,,,,,,,,,,,,,,,,,,,11034,001,2024_Jan_16_1045,ANT,2021.2.3,59.221813532887346,
,,,,,,,,,,,,,,,,,,,,,,,,,,,,,,,,,,,,,,,,,,,,,,,,,,,,,,,,,,,,,,,,51.08866439998383,None,space,4.61040169998887,51.08866439998383,None,,,,,,,,,,,,,,,,,,,,,,,,,,,,,,,,,,,,,,,,,,,,,,,11034,001,2024_Jan_16_1045,ANT,2021.2.3,59.221813532887346,
0,3,no,down,C,R,50,0,-1.5,right,RRRRR.png,,,,,,,,0,0,0,2,,,,,,,,,,,,,,,,,,,,,,,,,,,,,,,,,,,,,,,,,,,,,,,,,55.795547199988505,56.197419699979946,56.18087439998635,56.28034589998424,56.68131379998522,None,right,1,0.66602909998619,56.68131379998522,None,56.18087439998635,56.28034589998424,56.28034589998424,None,57.38256899997941,None,,,,,,,,,,,,,,,,,,,,,,,,,,,,,,11034,001,2024_Jan_16_1045,ANT,2021.2.3,59.221813532887346,
0,9,spatial,up,C,R,1.5,0,1.5,right,RRRRR.png,,,,,,,,0,1,1,8,,,,,,,,,,,,,,,,,,,,,,,,,,,,,,,,,,,,,,,,,,,,,,,,,59.38448479998624,59.78550379999797,59.76936320000095,59.86959590000333,60.27032499999041,None,right,1,0.5567737000237685,60.27032499999041,None,59.76936320000095,59.86959590000333,59.86959590000333,None,60.85332999998354,None,,,,,,,,,,,,,,,,,,,,,,,,,,,,,,11034,001,2024_Jan_16_1045,ANT,2021.2.3,59.221813532887346,
0,8,center,down,IC,L,0,50,-1.5,left,RRLRR.png,,,,,,,,0,2,2,7,,,,,,,,,,,,,,,,,,,,,,,,,,,,,,,,,,,,,,,,,,,,,,,,,62.856511399993906,63.25904879998416,63.240520099992864,63.340641399991,63.74299569998402,None,left,1,0.5330308999982662,63.74299569998402,None,63.240520099992864,63.340641399991,63.340641399991,None,64.29168870000285,None,,,,,,,,,,,,,,,,,,,,,,,,,,,,,,11034,001,2024_Jan_16_1045,ANT,2021.2.3,59.221813532887346,
0,11,spatial,down,C,L,-1.5,0,-1.5,left,LLLLL.png,,,,,,,,0,3,3,10,,,,,,,,,,,,,,,,,,,,,,,,,,,,,,,,,,,,,,,,,,,,,,,,,66.2955021999951,66.69735790000414,66.67888779999339,66.779275399982,67.18064629999571,None,left,1,0.4227919999975711,67.18064629999571,None,66.67888779999339,66.779275399982,66.779275399982,None,67.63005659999908,None,,,,,,,,,,,,,,,,,,,,,,,,,,,,,,11034,001,2024_Jan_16_1045,ANT,2021.2.3,59.221813532887346,
0,5,center,up,C,L,0,50,1.5,left,LLLLL.png,,,,,,,,0,4,4,4,,,,,,,,,,,,,,,,,,,,,,,,,,,,,,,,,,,,,,,,,,,,,,,,,69.63432439998724,70.03529739999794,70.01742009998998,70.11839950000285,70.51830739999423,None,left,1,0.47740579998935573,70.51830739999423,None,70.01742009998998,70.11839950000285,70.11839950000285,None,71.01897780000581,None,,,,,,,,,,,,,,,,,,,,,,,,,,,,,,11034,001,2024_Jan_16_1045,ANT,2021.2.3,59.221813532887346,
0,10,spatial,up,IC,L,1.5,0,1.5,left,RRLRR.png,,,,,,,,0,5,5,9,,,,,,,,,,,,,,,,,,,,,,,,,,,,,,,,,,,,,,,,,,,,,,,,,73.02207720000297,73.42329159998917,73.40644880000036,73.50619729998289,73.9076046999835,None,left,1,0.5121330000110902,73.9076046999835,None,73.40644880000036,73.50619729998289,73.50619729998289,None,74.4407821999921,None,,,,,,,,,,,,,,,,,,,,,,,,,,,,,,11034,001,2024_Jan_16_1045,ANT,2021.2.3,59.221813532887346,
0,6,center,up,IC,R,0,50,1.5,right,LLRLL.png,,,,,,,,0,6,6,5,,,,,,,,,,,,,,,,,,,,,,,,,,,,,,,,,,,,,,,,,,,,,,,,,76.4439446000033,76.84447819998604,76.82785109998076,76.92793589999201,77.3282139999792,None,left,0,0.3558236999961082,77.3282139999792,None,76.82785109998076,76.92793589999201,76.92793589999201,None,77.71159219997935,None,,,,,,,,,,,,,,,,,,,,,,,,,,,,,,11034,001,2024_Jan_16_1045,ANT,2021.2.3,59.221813532887346,
0,4,no,down,IC,L,50,0,-1.5,left,RRLRR.png,,,,,,,,0,7,7,3,,,,,,,,,,,,,,,,,,,,,,,,,,,,,,,,,,,,,,,,,,,,,,,,,79.71629939999548,80.11644789998536,80.09996659998433,80.2000410000037,80.59993539997959,None,left,1,0.5402602999820374,80.59993539997959,None,80.09996659998433,80.2000410000037,80.2000410000037,None,81.16741589998128,None,,,,,,,,,,,,,,,,,,,,,,,,,,,,,,11034,001,2024_Jan_16_1045,ANT,2021.2.3,59.221813532887346,
0,1,no,up,C,L,50,0,1.5,left,LLLLL.png,,,,,,,,0,8,8,0,,,,,,,,,,,,,,,,,,,,,,,,,,,,,,,,,,,,,,,,,,,,,,,,,83.17052889999468,83.5722143999883,83.55549269999028,83.65543290000642,84.05729219998466,None,left,1,0.49920719998772256,84.05729219998466,None,83.55549269999028,83.65543290000642,83.65543290000642,None,84.57267419999698,None,,,,,,,,,,,,,,,,,,,,,,,,,,,,,,11034,001,2024_Jan_16_1045,ANT,2021.2.3,59.221813532887346,
0,7,center,down,C,R,0,50,-1.5,right,RRRRR.png,,,,,,,,0,9,9,6,,,,,,,,,,,,,,,,,,,,,,,,,,,,,,,,,,,,,,,,,,,,,,,,,86.57581899999059,86.97659829998156,86.96019869999145,87.0611937000067,87.46046199998818,None,right,1,0.4637858000060078,87.46046199998818,None,86.96019869999145,87.0611937000067,87.0611937000067,None,87.94434919999912,None,,,,,,,,,,,,,,,,,,,,,,,,,,,,,,11034,001,2024_Jan_16_1045,ANT,2021.2.3,59.221813532887346,
0,12,spatial,down,IC,R,-1.5,0,-1.5,right,LLRLL.png,,,,,,,,0,10,10,11,,,,,,,,,,,,,,,,,,,,,,,,,,,,,,,,,,,,,,,,,,,,,,,,,89.94747590000043,90.34871449999628,90.33316320000449,90.4502622,90.83387000000221,None,right,1,0.44232250002096407,90.83387000000221,None,90.33316320000449,90.4502622,90.43157809998957,None,91.29977049998706,None,,,,,,,,,,,,,,,,,,,,,,,,,,,,,,11034,001,2024_Jan_16_1045,ANT,2021.2.3,59.221813532887346,
0,2,no,up,IC,R,50,0,1.5,right,LLRLL.png,,,,,,,,0,11,11,1,,,,,,,,,,,,,,,,,,,,,,,,,,,,,,,,,,,,,,,,,,,,,,,,,93.30354969998007,93.70315519999713,93.6867307999928,93.78669369997806,94.18814479999128,None,right,1,0.5280125999997836,94.18814479999128,None,93.6867307999928,93.78669369997806,93.78669369997806,None,94.73794550000457,None,,,,,,,,,,,,,,,,,,,,,,,,,,,,,,11034,001,2024_Jan_16_1045,ANT,2021.2.3,59.221813532887346,
,,,,,,,,,,,,,,,,,,,,,,,,,,,,,,,,,,,,,,,,,,,,,,,,,,,,,,,,,,,,,,,,,,,,,,,,,,,,,,,,,,,,,,,space,13.776178200001596,96.74107749998802,None,,,,,,,,,,,,,,,,,,,,,,,,,,11034,001,2024_Jan_16_1045,ANT,2021.2.3,59.221813532887346,
1,18,spatial,up,C,R,,,,,,Block.xlsx,"你已经完成了第一个实验区组

请稍作休息


点击空格键进入下一个区组。",1.5,0,1.5,right,RRRRR.png,,,,,0,0,0,0,0,0,0,17,,,,,,,,,,,,,,,,,,,,,,,,,,,,,,,,,,,,,,,,,,,,,,,,,,,,,,,,,,,,,,96.74107749998802,None,110.58016339997994,110.98035699999309,110.96263669998734,111.06367339999997,111.46391759999096,None,right,1,0.3571611999941524,111.46391759999096,None,110.96263669998734,111.06367339999997,111.06367339999997,None,111.84729059998062,None,,,,,,,11034,001,2024_Jan_16_1045,ANT,2021.2.3,59.221813532887346,
1,22,spatial,down,C,R,,,,,,Block.xlsx,"你已经完成了第一个实验区组

请稍作休息


点击空格键进入下一个区组。",-1.5,0,-1.5,right,RRRRR.png,,,,,0,0,0,0,0,1,1,21,,,,,,,,,,,,,,,,,,,,,,,,,,,,,,,,,,,,,,,,,,,,,,,,,,,,,,,,,,,,,,,,112.24810709999292,112.6495763999992,112.63364059999003,112.75060729999677,113.13267709998763,None,right,1,0.5122525000188034,113.13267709998763,None,112.63364059999003,112.75060729999677,112.73202669998864,None,113.6667591999867,None,,,,,,,11034,001,2024_Jan_16_1045,ANT,2021.2.3,59.221813532887346,
1,21,spatial,down,C,L,,,,,,Block.xlsx,"你已经完成了第一个实验区组

请稍作休息


点击空格键进入下一个区组。",-1.5,0,-1.5,left,LLLLL.png,,,,,0,0,0,0,0,2,2,20,,,,,,,,,,,,,,,,,,,,,,,,,,,,,,,,,,,,,,,,,,,,,,,,,,,,,,,,,,,,,,,,114.06745959998807,114.46794079997926,114.45194689999335,114.55117120000068,114.95300589999533,None,left,1,0.331916099996306,114.95300589999533,None,114.45194689999335,114.55117120000068,114.55117120000068,None,115.30258049999247,None,,,,,,,11034,001,2024_Jan_16_1045,ANT,2021.2.3,59.221813532887346,
1,12,center,up,IC,R,,,,,,Block.xlsx,"你已经完成了第一个实验区组

请稍作休息


点击空格键进入下一个区组。",0,50,1.5,right,LLRLL.png,,,,,0,0,0,0,0,3,3,11,,,,,,,,,,,,,,,,,,,,,,,,,,,,,,,,,,,,,,,,,,,,,,,,,,,,,,,,,,,,,,,,115.70323049998842,116.10471719998168,116.0879570999823,116.18788799998583,116.58878599997843,None,right,1,0.4561777999915648,116.58878599997843,None,116.0879570999823,116.18788799998583,116.18788799998583,None,117.07191169998259,None,,,,,,,11034,001,2024_Jan_16_1045,ANT,2021.2.3,59.221813532887346,
1,1,no,up,C,L,,,,,,Block.xlsx,"你已经完成了第一个实验区组

请稍作休息


点击空格键进入下一个区组。",50,0,1.5,left,LLLLL.png,,,,,0,0,0,0,0,4,4,0,,,,,,,,,,,,,,,,,,,,,,,,,,,,,,,,,,,,,,,,,,,,,,,,,,,,,,,,,,,,,,,,117.47326249998878,117.87277309998171,117.85662149998825,117.9573975999956,118.35717599999043,None,left,1,0.4239376000186894,118.35717599999043,None,117.85662149998825,117.9573975999956,117.9573975999956,None,118.80788340000436,None,,,,,,,11034,001,2024_Jan_16_1045,ANT,2021.2.3,59.221813532887346,
1,12,center,up,IC,R,,,,,,Block.xlsx,"你已经完成了第一个实验区组

请稍作休息


点击空格键进入下一个区组。",0,50,1.5,right,LLRLL.png,,,,,0,0,0,0,0,5,5,11,,,,,,,,,,,,,,,,,,,,,,,,,,,,,,,,,,,,,,,,,,,,,,,,,,,,,,,,,,,,,,,,119.20829629999935,119.60995680000633,119.59317680000095,119.69339639999089,120.09317700000247,None,right,1,0.43981469998834655,120.09317700000247,None,119.59317680000095,119.69339639999089,119.69339639999089,None,120.56053620000603,None,,,,,,,11034,001,2024_Jan_16_1045,ANT,2021.2.3,59.221813532887346,
1,15,center,down,IC,L,,,,,,Block.xlsx,"你已经完成了第一个实验区组

请稍作休息


点击空格键进入下一个区组。",0,50,-1.5,left,RRLRR.png,,,,,0,0,0,0,0,6,6,14,,,,,,,,,,,,,,,,,,,,,,,,,,,,,,,,,,,,,,,,,,,,,,,,,,,,,,,,,,,,,,,,120.96106879998115,121.36160589999054,121.34535309998319,121.44555629999377,121.84621519999928,None,right,0,0.35921210001106374,121.84621519999928,None,121.34535309998319,121.44555629999377,121.44555629999377,None,122.22981560000335,None,,,,,,,11034,001,2024_Jan_16_1045,ANT,2021.2.3,59.221813532887346,
1,8,no,down,IC,R,,,,,,Block.xlsx,"你已经完成了第一个实验区组

请稍作休息


点击空格键进入下一个区组。",50,0,-1.5,right,LLRLL.png,,,,,0,0,0,0,0,7,7,7,,,,,,,,,,,,,,,,,,,,,,,,,,,,,,,,,,,,,,,,,,,,,,,,,,,,,,,,,,,,,,,,122.63010169999325,123.03241869999329,123.0148777999857,123.11560489999829,123.51618109998526,None,right,1,0.6172493000049144,123.51618109998526,None,123.0148777999857,123.11560489999829,123.11560489999829,None,124.14911989998654,None,,,,,,,11034,001,2024_Jan_16_1045,ANT,2021.2.3,59.221813532887346,
1,5,no,down,C,L,,,,,,Block.xlsx,"你已经完成了第一个实验区组

请稍作休息


点击空格键进入下一个区组。",50,0,-1.5,left,LLLLL.png,,,,,0,0,0,0,0,8,8,4,,,,,,,,,,,,,,,,,,,,,,,,,,,,,,,,,,,,,,,,,,,,,,,,,,,,,,,,,,,,,,,,124.54981729999417,124.951345199981,124.9340736999875,125.03394520000438,125.43478690000484,None,left,1,0.43469500000355765,125.43478690000484,None,124.9340736999875,125.03394520000438,125.03394520000438,None,125.90168300000369,None,,,,,,,11034,001,2024_Jan_16_1045,ANT,2021.2.3,59.221813532887346,
1,19,spatial,up,IC,L,,,,,,Block.xlsx,"你已经完成了第一个实验区组

请稍作休息


点击空格键进入下一个区组。",1.5,0,1.5,left,RRLRR.png,,,,,0,0,0,0,0,9,9,18,,,,,,,,,,,,,,,,,,,,,,,,,,,,,,,,,,,,,,,,,,,,,,,,,,,,,,,,,,,,,,,,126.30268940000678,126.70466889999807,126.68635879998328,126.78779079997912,127.18698119997862,None,left,1,0.49871069999062456,127.18698119997862,None,126.68635879998328,126.78779079997912,126.78779079997912,None,127.70453249997809,None,,,,,,,11034,001,2024_Jan_16_1045,ANT,2021.2.3,59.221813532887346,
1,12,center,up,IC,R,,,,,,Block.xlsx,"你已经完成了第一个实验区组

请稍作休息


点击空格键进入下一个区组。",0,50,1.5,right,LLRLL.png,,,,,0,0,0,0,0,10,10,11,,,,,,,,,,,,,,,,,,,,,,,,,,,,,,,,,,,,,,,,,,,,,,,,,,,,,,,,,,,,,,,,128.10603339999216,128.5067255999893,128.4898190999811,128.589121099998,128.99179070000537,None,right,1,0.5415162999997847,128.99179070000537,None,128.4898190999811,128.589121099998,128.589121099998,None,129.5574173000059,None,,,,,,,11034,001,2024_Jan_16_1045,ANT,2021.2.3,59.221813532887346,
1,22,spatial,down,C,R,,,,,,Block.xlsx,"你已经完成了第一个实验区组

请稍作休息


点击空格键进入下一个区组。",-1.5,0,-1.5,right,RRRRR.png,,,,,0,0,0,0,0,11,11,21,,,,,,,,,,,,,,,,,,,,,,,,,,,,,,,,,,,,,,,,,,,,,,,,,,,,,,,,,,,,,,,,129.95791470000404,130.35952309999266,130.34183609997854,130.44273670000257,130.84274049999658,None,right,1,0.40241060001426376,130.84274049999658,None,130.34183609997854,130.44273670000257,130.44273670000257,None,131.27650710000307,None,,,,,,,11034,001,2024_Jan_16_1045,ANT,2021.2.3,59.221813532887346,
1,9,center,up,C,L,,,,,,Block.xlsx,"你已经完成了第一个实验区组

请稍作休息


点击空格键进入下一个区组。",0,50,1.5,left,LLLLL.png,,,,,0,0,0,0,0,12,12,8,,,,,,,,,,,,,,,,,,,,,,,,,,,,,,,,,,,,,,,,,,,,,,,,,,,,,,,,,,,,,,,,131.6770784999826,132.07849709998118,132.06109740000102,132.1640400000033,132.56185840000398,None,left,1,0.4033493000024464,132.56185840000398,None,132.06109740000102,132.1640400000033,132.1640400000033,None,132.9959336000029,None,,,,,,,11034,001,2024_Jan_16_1045,ANT,2021.2.3,59.221813532887346,
1,3,no,up,IC,L,,,,,,Block.xlsx,"你已经完成了第一个实验区组

请稍作休息


点击空格键进入下一个区组。",50,0,1.5,left,RRLRR.png,,,,,0,0,0,0,0,13,13,2,,,,,,,,,,,,,,,,,,,,,,,,,,,,,,,,,,,,,,,,,,,,,,,,,,,,,,,,,,,,,,,,133.39756469998974,133.79698889999418,133.78038650000235,133.8805553999846,134.2818284999812,None,left,1,0.5799104000034276,134.2818284999812,None,133.78038650000235,133.8805553999846,133.8805553999846,None,134.88235770000028,None,,,,,,,11034,001,2024_Jan_16_1045,ANT,2021.2.3,59.221813532887346,
1,2,no,up,C,R,,,,,,Block.xlsx,"你已经完成了第一个实验区组

请稍作休息


点击空格键进入下一个区组。",50,0,1.5,right,RRRRR.png,,,,,0,0,0,0,0,14,14,1,,,,,,,,,,,,,,,,,,,,,,,,,,,,,,,,,,,,,,,,,,,,,,,,,,,,,,,,,,,,,,,,135.28264619997935,135.68359239998972,135.6677441999782,135.76748399998178,136.16993649999495,None,right,1,0.4674961999990046,136.16993649999495,None,135.6677441999782,135.76748399998178,135.76748399998178,None,136.6680168999883,None,,,,,,,11034,001,2024_Jan_16_1045,ANT,2021.2.3,59.221813532887346,
1,13,center,down,C,L,,,,,,Block.xlsx,"你已经完成了第一个实验区组

请稍作休息


点击空格键进入下一个区组。",0,50,-1.5,left,LLLLL.png,,,,,0,0,0,0,0,15,15,12,,,,,,,,,,,,,,,,,,,,,,,,,,,,,,,,,,,,,,,,,,,,,,,,,,,,,,,,,,,,,,,,137.06869949999964,137.46918469999218,137.4532760999864,137.5530114999856,137.9544212000037,None,left,1,0.48309759999392554,137.9544212000037,None,137.4532760999864,137.5530114999856,137.5530114999856,None,138.4543456999818,None,,,,,,,11034,001,2024_Jan_16_1045,ANT,2021.2.3,59.221813532887346,
1,6,no,down,C,R,,,,,,Block.xlsx,"你已经完成了第一个实验区组

请稍作休息


点击空格键进入下一个区组。",50,0,-1.5,right,RRRRR.png,,,,,0,0,0,0,0,16,16,5,,,,,,,,,,,,,,,,,,,,,,,,,,,,,,,,,,,,,,,,,,,,,,,,,,,,,,,,,,,,,,,,138.85475119997864,139.25650679998216,139.23857689998113,139.33943759999238,139.73930909999763,None,right,1,0.7222227999882307,139.73930909999763,None,139.23857689998113,139.33943759999238,139.33943759999238,None,140.49042809999082,None,,,,,,,11034,001,2024_Jan_16_1045,ANT,2021.2.3,59.221813532887346,
1,24,spatial,down,IC,R,,,,,,Block.xlsx,"你已经完成了第一个实验区组

请稍作休息


点击空格键进入下一个区组。",-1.5,0,-1.5,right,LLRLL.png,,,,,0,0,0,0,0,17,17,23,,,,,,,,,,,,,,,,,,,,,,,,,,,,,,,,,,,,,,,,,,,,,,,,,,,,,,,,,,,,,,,,140.89107739998144,141.29288409999572,141.27660260000266,141.3765526000061,141.77716100000544,None,right,1,0.47670719999587163,141.77716100000544,None,141.27660260000266,141.3765526000061,141.3765526000061,None,142.2767685999861,None,,,,,,,11034,001,2024_Jan_16_1045,ANT,2021.2.3,59.221813532887346,
1,19,spatial,up,IC,L,,,,,,Block.xlsx,"你已经完成了第一个实验区组

请稍作休息


点击空格键进入下一个区组。",1.5,0,1.5,left,RRLRR.png,,,,,0,0,0,0,0,18,18,18,,,,,,,,,,,,,,,,,,,,,,,,,,,,,,,,,,,,,,,,,,,,,,,,,,,,,,,,,,,,,,,,142.67877519998,143.07866969998577,143.06103719997918,143.16192709997995,143.56302639999194,None,left,1,0.5946557999996003,143.56302639999194,None,143.06103719997918,143.16192709997995,143.16192709997995,None,144.17996599999606,None,,,,,,,11034,001,2024_Jan_16_1045,ANT,2021.2.3,59.221813532887346,
1,10,center,up,C,R,,,,,,Block.xlsx,"你已经完成了第一个实验区组

请稍作休息


点击空格键进入下一个区组。",0,50,1.5,right,RRRRR.png,,,,,0,0,0,0,0,19,19,9,,,,,,,,,,,,,,,,,,,,,,,,,,,,,,,,,,,,,,,,,,,,,,,,,,,,,,,,,,,,,,,,144.5812656999915,144.9811003000068,144.96500480000395,145.06545150000602,145.46576229998027,None,right,1,0.6197956000105478,145.46576229998027,None,144.96500480000395,145.06545150000602,145.06545150000602,None,146.1155815999955,None,,,,,,,11034,001,2024_Jan_16_1045,ANT,2021.2.3,59.221813532887346,
1,21,spatial,down,C,L,,,,,,Block.xlsx,"你已经完成了第一个实验区组

请稍作休息


点击空格键进入下一个区组。",-1.5,0,-1.5,left,LLLLL.png,,,,,0,0,0,0,0,20,20,20,,,,,,,,,,,,,,,,,,,,,,,,,,,,,,,,,,,,,,,,,,,,,,,,,,,,,,,,,,,,,,,,146.51636769998004,146.91895960000693,146.9003406999982,147.00125010000193,147.4015840999782,None,left,1,0.4609424999798648,147.4015840999782,None,146.9003406999982,147.00125010000193,147.00125010000193,None,147.88499389999197,None,,,,,,,11034,001,2024_Jan_16_1045,ANT,2021.2.3,59.221813532887346,
1,13,center,down,C,L,,,,,,Block.xlsx,"你已经完成了第一个实验区组

请稍作休息


点击空格键进入下一个区组。",0,50,-1.5,left,LLLLL.png,,,,,0,0,0,0,0,21,21,12,,,,,,,,,,,,,,,,,,,,,,,,,,,,,,,,,,,,,,,,,,,,,,,,,,,,,,,,,,,,,,,,148.28546509999433,148.68715089999023,148.67038399999728,148.76972129999194,149.17032449998078,None,left,1,0.44372380001004785,149.17032449998078,None,148.67038399999728,148.76972129999194,148.76972129999194,None,149.63758320000488,None,,,,,,,11034,001,2024_Jan_16_1045,ANT,2021.2.3,59.221813532887346,
1,1,no,up,C,L,,,,,,Block.xlsx,"你已经完成了第一个实验区组

请稍作休息


点击空格键进入下一个区组。",50,0,1.5,left,LLLLL.png,,,,,0,0,0,0,0,22,22,0,,,,,,,,,,,,,,,,,,,,,,,,,,,,,,,,,,,,,,,,,,,,,,,,,,,,,,,,,,,,,,,,150.0381977999932,150.44049389997963,150.42231029999675,150.52276829999755,150.92417179999757,None,left,1,0.5617118000227492,150.92417179999757,None,150.42231029999675,150.52276829999755,150.52276829999755,None,151.50707009999314,None,,,,,,,11034,001,2024_Jan_16_1045,ANT,2021.2.3,59.221813532887346,
1,21,spatial,down,C,L,,,,,,Block.xlsx,"你已经完成了第一个实验区组

请稍作休息


点击空格键进入下一个区组。",-1.5,0,-1.5,left,LLLLL.png,,,,,0,0,0,0,0,23,23,20,,,,,,,,,,,,,,,,,,,,,,,,,,,,,,,,,,,,,,,,,,,,,,,,,,,,,,,,,,,,,,,,151.9082638999971,152.3092560999794,152.2935179999913,152.40873759999522,152.79453709998052,None,left,1,0.48387900000670925,152.79453709998052,None,152.2935179999913,152.40873759999522,152.39221910000197,None,153.2931755000027,None,,,,,,,11034,001,2024_Jan_16_1045,ANT,2021.2.3,59.221813532887346,
1,18,spatial,up,C,R,,,,,,Block.xlsx,"你已经完成了第一个实验区组

请稍作休息


点击空格键进入下一个区组。",1.5,0,1.5,right,RRRRR.png,,,,,0,0,0,0,1,0,24,17,,,,,,,,,,,,,,,,,,,,,,,,,,,,,,,,,,,,,,,,,,,,,,,,,,,,,,,,,,,,,,,,153.69383559998823,154.09540900000138,154.07775179998134,154.1794116999954,154.57961279997835,None,right,1,0.6024703999864869,154.57961279997835,None,154.07775179998134,154.1794116999954,154.1794116999954,None,155.1960068999906,None,,,,,,,11034,001,2024_Jan_16_1045,ANT,2021.2.3,59.221813532887346,
1,4,no,up,IC,R,,,,,,Block.xlsx,"你已经完成了第一个实验区组

请稍作休息


点击空格键进入下一个区组。",50,0,1.5,right,LLRLL.png,,,,,0,0,0,0,1,1,25,3,,,,,,,,,,,,,,,,,,,,,,,,,,,,,,,,,,,,,,,,,,,,,,,,,,,,,,,,,,,,,,,,155.5976163999876,155.99904769999557,155.98062570000184,156.08171229998698,156.48135859999456,None,right,1,0.7972501999756787,156.48135859999456,None,155.98062570000184,156.08171229998698,156.08171229998698,None,157.2996738999791,None,,,,,,,11034,001,2024_Jan_16_1045,ANT,2021.2.3,59.221813532887346,
1,20,spatial,up,IC,R,,,,,,Block.xlsx,"你已经完成了第一个实验区组

请稍作休息


点击空格键进入下一个区组。",1.5,0,1.5,right,LLRLL.png,,,,,0,0,0,0,1,2,26,19,,,,,,,,,,,,,,,,,,,,,,,,,,,,,,,,,,,,,,,,,,,,,,,,,,,,,,,,,,,,,,,,157.70097489998443,158.10175539998454,158.08361820000573,158.18489609999233,158.5863449999888,None,right,1,0.500036799989175,158.5863449999888,None,158.08361820000573,158.18489609999233,158.18489609999233,None,159.10183040000265,None,,,,,,,11034,001,2024_Jan_16_1045,ANT,2021.2.3,59.221813532887346,
1,13,center,down,C,L,,,,,,Block.xlsx,"你已经完成了第一个实验区组

请稍作休息


点击空格键进入下一个区组。",0,50,-1.5,left,LLLLL.png,,,,,0,0,0,0,1,3,27,12,,,,,,,,,,,,,,,,,,,,,,,,,,,,,,,,,,,,,,,,,,,,,,,,,,,,,,,,,,,,,,,,159.5024684999953,159.90307089997805,159.88644830000703,159.9874338999798,160.3871373999864,None,left,1,0.515040800004499,160.3871373999864,None,159.88644830000703,159.9874338999798,159.9874338999798,None,160.92125959999976,None,,,,,,,11034,001,2024_Jan_16_1045,ANT,2021.2.3,59.221813532887346,
1,4,no,up,IC,R,,,,,,Block.xlsx,"你已经完成了第一个实验区组

请稍作休息


点击空格键进入下一个区组。",50,0,1.5,right,LLRLL.png,,,,,0,0,0,0,1,4,28,3,,,,,,,,,,,,,,,,,,,,,,,,,,,,,,,,,,,,,,,,,,,,,,,,,,,,,,,,,,,,,,,,161.3217897999857,161.72378759999992,161.70587869998417,161.80605759998434,162.20667260000482,None,right,1,0.6237119000288658,162.20667260000482,None,161.70587869998417,161.80605759998434,161.80605759998434,None,162.8578324999835,None,,,,,,,11034,001,2024_Jan_16_1045,ANT,2021.2.3,59.221813532887346,
1,4,no,up,IC,R,,,,,,Block.xlsx,"你已经完成了第一个实验区组

请稍作休息


点击空格键进入下一个区组。",50,0,1.5,right,LLRLL.png,,,,,0,0,0,0,1,5,29,3,,,,,,,,,,,,,,,,,,,,,,,,,,,,,,,,,,,,,,,,,,,,,,,,,,,,,,,,,,,,,,,,163.2583178000059,163.6594899999909,163.64328190000379,163.74394549999852,164.14366999999038,None,right,1,0.4870673999830615,164.14366999999038,None,163.64328190000379,163.74394549999852,163.74394549999852,None,164.6603869999817,None,,,,,,,11034,001,2024_Jan_16_1045,ANT,2021.2.3,59.221813532887346,
1,21,spatial,down,C,L,,,,,,Block.xlsx,"你已经完成了第一个实验区组

请稍作休息


点击空格键进入下一个区组。",-1.5,0,-1.5,left,LLLLL.png,,,,,0,0,0,0,1,6,30,20,,,,,,,,,,,,,,,,,,,,,,,,,,,,,,,,,,,,,,,,,,,,,,,,,,,,,,,,,,,,,,,,165.0609637000016,165.46183929999825,165.44605289999163,165.54592790000606,165.945590599993,None,left,1,0.4367975000059232,165.945590599993,None,165.44605289999163,165.54592790000606,165.54592790000606,None,166.41312479999033,None,,,,,,,11034,001,2024_Jan_16_1045,ANT,2021.2.3,59.221813532887346,
1,7,no,down,IC,L,,,,,,Block.xlsx,"你已经完成了第一个实验区组

请稍作休息


点击空格键进入下一个区组。",50,0,-1.5,left,RRLRR.png,,,,,0,0,0,0,1,7,31,6,,,,,,,,,,,,,,,,,,,,,,,,,,,,,,,,,,,,,,,,,,,,,,,,,,,,,,,,,,,,,,,,166.81354539998574,167.2151040000026,167.19824120000703,167.29773219997878,167.69832450000104,None,left,1,0.6360434999805875,167.69832450000104,None,167.19824120000703,167.29773219997878,167.29773219997878,None,168.3659740999865,None,,,,,,,11034,001,2024_Jan_16_1045,ANT,2021.2.3,59.221813532887346,
1,11,center,up,IC,L,,,,,,Block.xlsx,"你已经完成了第一个实验区组

请稍作休息


点击空格键进入下一个区组。",0,50,1.5,left,RRLRR.png,,,,,0,0,0,0,1,8,32,10,,,,,,,,,,,,,,,,,,,,,,,,,,,,,,,,,,,,,,,,,,,,,,,,,,,,,,,,,,,,,,,,168.7673219999997,169.1694518000004,169.15099349999218,169.25188389999676,169.65206389999366,None,left,1,0.5944172999879811,169.65206389999366,None,169.15099349999218,169.25188389999676,169.25188389999676,None,170.268871999986,None,,,,,,,11034,001,2024_Jan_16_1045,ANT,2021.2.3,59.221813532887346,
1,10,center,up,C,R,,,,,,Block.xlsx,"你已经完成了第一个实验区组

请稍作休息


点击空格键进入下一个区组。",0,50,1.5,right,RRRRR.png,,,,,0,0,0,0,1,9,33,9,,,,,,,,,,,,,,,,,,,,,,,,,,,,,,,,,,,,,,,,,,,,,,,,,,,,,,,,,,,,,,,,170.67033679998713,171.07009160000598,171.0531667000032,171.153637099982,171.55551029997878,None,right,1,0.5873471999948379,171.55551029997878,None,171.0531667000032,171.153637099982,171.153637099982,None,172.17171599998255,None,,,,,,,11034,001,2024_Jan_16_1045,ANT,2021.2.3,59.221813532887346,
1,10,center,up,C,R,,,,,,Block.xlsx,"你已经完成了第一个实验区组

请稍作休息


点击空格键进入下一个区组。",0,50,1.5,right,RRRRR.png,,,,,0,0,0,0,1,10,34,9,,,,,,,,,,,,,,,,,,,,,,,,,,,,,,,,,,,,,,,,,,,,,,,,,,,,,,,,,,,,,,,,172.57228359999135,172.9733071999799,172.95781229998101,173.05622989998665,173.45815459999721,None,right,1,0.436228900012793,173.45815459999721,None,172.95781229998101,173.05622989998665,173.05622989998665,None,173.9242830000003,None,,,,,,,11034,001,2024_Jan_16_1045,ANT,2021.2.3,59.221813532887346,
1,24,spatial,down,IC,R,,,,,,Block.xlsx,"你已经完成了第一个实验区组

请稍作休息


点击空格键进入下一个区组。",-1.5,0,-1.5,right,LLRLL.png,,,,,0,0,0,0,1,11,35,23,,,,,,,,,,,,,,,,,,,,,,,,,,,,,,,,,,,,,,,,,,,,,,,,,,,,,,,,,,,,,,,,174.3248171999876,174.7276498999854,174.70886399998562,174.80949829999008,175.21146859999862,None,right,1,0.6434921000036411,175.21146859999862,None,174.70886399998562,174.80949829999008,174.80949829999008,None,175.87733639997896,None,,,,,,,11034,001,2024_Jan_16_1045,ANT,2021.2.3,59.221813532887346,
1,17,spatial,up,C,L,,,,,,Block.xlsx,"你已经完成了第一个实验区组

请稍作休息


点击空格键进入下一个区组。",1.5,0,1.5,left,LLLLL.png,,,,,0,0,0,0,1,12,36,16,,,,,,,,,,,,,,,,,,,,,,,,,,,,,,,,,,,,,,,,,,,,,,,,,,,,,,,,,,,,,,,,176.27836149997893,176.67939909998677,176.66177909998805,176.7640767999983,177.16298910000478,None,left,1,0.4438738999888301,177.16298910000478,None,176.66177909998805,176.7640767999983,176.7640767999983,None,177.62978610000573,None,,,,,,,11034,001,2024_Jan_16_1045,ANT,2021.2.3,59.221813532887346,
1,2,no,up,C,R,,,,,,Block.xlsx,"你已经完成了第一个实验区组

请稍作休息


点击空格键进入下一个区组。",50,0,1.5,right,RRRRR.png,,,,,0,0,0,0,1,13,37,1,,,,,,,,,,,,,,,,,,,,,,,,,,,,,,,,,,,,,,,,,,,,,,,,,,,,,,,,,,,,,,,,178.03049360000296,178.4322828000004,178.4145939000009,178.51619749999372,178.9151615999872,None,right,1,0.5317231999943033,178.9151615999872,None,178.4145939000009,178.51619749999372,178.51619749999372,None,179.4658832999994,None,,,,,,,11034,001,2024_Jan_16_1045,ANT,2021.2.3,59.221813532887346,
1,14,center,down,C,R,,,,,,Block.xlsx,"你已经完成了第一个实验区组

请稍作休息


点击空格键进入下一个区组。",0,50,-1.5,right,RRRRR.png,,,,,0,0,0,0,1,14,38,13,,,,,,,,,,,,,,,,,,,,,,,,,,,,,,,,,,,,,,,,,,,,,,,,,,,,,,,,,,,,,,,,179.8675248999789,180.2672254999925,180.2506149999972,180.35077540000202,180.75121269997908,None,right,1,0.4399515999830328,180.75121269997908,None,180.2506149999972,180.35077540000202,180.35077540000202,None,181.21866610000143,None,,,,,,,11034,001,2024_Jan_16_1045,ANT,2021.2.3,59.221813532887346,
1,2,no,up,C,R,,,,,,Block.xlsx,"你已经完成了第一个实验区组

请稍作休息


点击空格键进入下一个区组。",50,0,1.5,right,RRRRR.png,,,,,0,0,0,0,1,15,39,1,,,,,,,,,,,,,,,,,,,,,,,,,,,,,,,,,,,,,,,,,,,,,,,,,,,,,,,,,,,,,,,,181.61985789999017,182.02010259998497,182.00404919998255,182.10326889998396,182.50452960000257,None,right,1,0.3743687999958638,182.50452960000257,None,182.00404919998255,182.10326889998396,182.10326889998396,None,182.9046080999833,None,,,,,,,11034,001,2024_Jan_16_1045,ANT,2021.2.3,59.221813532887346,
1,18,spatial,up,C,R,,,,,,Block.xlsx,"你已经完成了第一个实验区组

请稍作休息


点击空格键进入下一个区组。",1.5,0,1.5,right,RRRRR.png,,,,,0,0,0,0,1,16,40,17,,,,,,,,,,,,,,,,,,,,,,,,,,,,,,,,,,,,,,,,,,,,,,,,,,,,,,,,,,,,,,,,183.30593519998365,183.70679070000187,183.6890129999956,183.78917800000636,184.18989749997854,None,right,1,0.37716759997420013,184.18989749997854,None,183.6890129999956,183.78917800000636,183.78917800000636,None,184.59036830000696,None,,,,,,,11034,001,2024_Jan_16_1045,ANT,2021.2.3,59.221813532887346,
1,19,spatial,up,IC,L,,,,,,Block.xlsx,"你已经完成了第一个实验区组

请稍作休息


点击空格键进入下一个区组。",1.5,0,1.5,left,RRLRR.png,,,,,0,0,0,0,1,17,41,18,,,,,,,,,,,,,,,,,,,,,,,,,,,,,,,,,,,,,,,,,,,,,,,,,,,,,,,,,,,,,,,,184.99104629998328,185.3932841999922,185.37513679999392,185.47611610000604,185.87654219998512,None,left,1,0.39522109998506494,185.87654219998512,None,185.37513679999392,185.47611610000604,185.47611610000604,None,186.29300320000038,None,,,,,,,11034,001,2024_Jan_16_1045,ANT,2021.2.3,59.221813532887346,
1,1,no,up,C,L,,,,,,Block.xlsx,"你已经完成了第一个实验区组

请稍作休息


点击空格键进入下一个区组。",50,0,1.5,left,LLLLL.png,,,,,0,0,0,0,1,18,42,0,,,,,,,,,,,,,,,,,,,,,,,,,,,,,,,,,,,,,,,,,,,,,,,,,,,,,,,,,,,,,,,,186.69431319998694,187.09432519998518,187.0784277000057,187.1779749999987,187.57954659999814,None,left,1,0.4196873000182677,187.57954659999814,None,187.0784277000057,187.1779749999987,187.1779749999987,None,188.02889289997984,None,,,,,,,11034,001,2024_Jan_16_1045,ANT,2021.2.3,59.221813532887346,
1,6,no,down,C,R,,,,,,Block.xlsx,"你已经完成了第一个实验区组

请稍作休息


点击空格键进入下一个区组。",50,0,-1.5,right,RRRRR.png,,,,,0,0,0,0,1,19,43,5,,,,,,,,,,,,,,,,,,,,,,,,,,,,,,,,,,,,,,,,,,,,,,,,,,,,,,,,,,,,,,,,188.4299761999864,188.83014559998992,188.81489330000477,188.9143419000029,189.3142960999976,None,right,1,0.49294080000254326,189.3142960999976,None,188.81489330000477,188.9143419000029,188.9143419000029,None,189.83238199999323,None,,,,,,,11034,001,2024_Jan_16_1045,ANT,2021.2.3,59.221813532887346,
1,15,center,down,IC,L,,,,,,Block.xlsx,"你已经完成了第一个实验区组

请稍作休息


点击空格键进入下一个区组。",0,50,-1.5,left,RRLRR.png,,,,,0,0,0,0,1,20,44,14,,,,,,,,,,,,,,,,,,,,,,,,,,,,,,,,,,,,,,,,,,,,,,,,,,,,,,,,,,,,,,,,190.23232169999392,190.6339253000042,190.61710410000524,190.71763430000283,191.11685669998406,None,left,1,0.5869319000048563,191.11685669998406,None,190.61710410000524,190.71763430000283,190.71763430000283,None,191.7179150999873,None,,,,,,,11034,001,2024_Jan_16_1045,ANT,2021.2.3,59.221813532887346,
1,3,no,up,IC,L,,,,,,Block.xlsx,"你已经完成了第一个实验区组

请稍作休息


点击空格键进入下一个区组。",50,0,1.5,left,RRLRR.png,,,,,0,0,0,0,1,21,45,2,,,,,,,,,,,,,,,,,,,,,,,,,,,,,,,,,,,,,,,,,,,,,,,,,,,,,,,,,,,,,,,,192.1192166999972,192.51975289999973,192.50324709998677,192.6025718000019,193.00324679998448,None,left,1,0.5079560999874957,193.00324679998448,None,192.50324709998677,192.6025718000019,192.6025718000019,None,193.53732949998812,None,,,,,,,11034,001,2024_Jan_16_1045,ANT,2021.2.3,59.221813532887346,
1,19,spatial,up,IC,L,,,,,,Block.xlsx,"你已经完成了第一个实验区组

请稍作休息


点击空格键进入下一个区组。",1.5,0,1.5,left,RRLRR.png,,,,,0,0,0,0,1,22,46,18,,,,,,,,,,,,,,,,,,,,,,,,,,,,,,,,,,,,,,,,,,,,,,,,,,,,,,,,,,,,,,,,193.9378339999821,194.3400377999933,194.3217134999868,194.42270719999215,194.82474149999325,None,left,1,0.4308413000253495,194.82474149999325,None,194.3217134999868,194.42270719999215,194.42270719999215,None,195.2731507999997,None,,,,,,,11034,001,2024_Jan_16_1045,ANT,2021.2.3,59.221813532887346,
1,5,no,down,C,L,,,,,,Block.xlsx,"你已经完成了第一个实验区组

请稍作休息


点击空格键进入下一个区组。",50,0,-1.5,left,LLLLL.png,,,,,0,0,0,0,1,23,47,4,,,,,,,,,,,,,,,,,,,,,,,,,,,,,,,,,,,,,,,,,,,,,,,,,,,,,,,,,,,,,,,,195.67387529998086,196.07501699999557,196.05841100000544,196.15777560000424,196.56005770000047,None,left,1,0.5115333000139799,196.56005770000047,None,196.05841100000544,196.15777560000424,196.15777560000424,None,197.09246970000095,None,,,,,,,11034,001,2024_Jan_16_1045,ANT,2021.2.3,59.221813532887346,
1,20,spatial,up,IC,R,,,,,,Block.xlsx,"你已经完成了第一个实验区组

请稍作休息


点击空格键进入下一个区组。",1.5,0,1.5,right,LLRLL.png,,,,,0,0,0,0,2,0,48,19,,,,,,,,,,,,,,,,,,,,,,,,,,,,,,,,,,,,,,,,,,,,,,,,,,,,,,,,,,,,,,,,197.49432789999992,197.89566539999214,197.87715769998613,197.97742089998792,198.37981290000607,None,right,1,0.5879894999961834,198.37981290000607,None,197.87715769998613,197.97742089998792,197.97742089998792,None,198.99562400000286,None,,,,,,,11034,001,2024_Jan_16_1045,ANT,2021.2.3,59.221813532887346,
1,9,center,up,C,L,,,,,,Block.xlsx,"你已经完成了第一个实验区组

请稍作休息


点击空格键进入下一个区组。",0,50,1.5,left,LLLLL.png,,,,,0,0,0,0,2,1,49,8,,,,,,,,,,,,,,,,,,,,,,,,,,,,,,,,,,,,,,,,,,,,,,,,,,,,,,,,,,,,,,,,199.39665260000038,199.79675969999516,199.780780400004,199.88240519998362,200.28135829998064,None,left,1,0.4381883000023663,200.28135829998064,None,199.780780400004,199.88240519998362,199.88240519998362,None,200.74814320000587,None,,,,,,,11034,001,2024_Jan_16_1045,ANT,2021.2.3,59.221813532887346,
1,16,center,down,IC,R,,,,,,Block.xlsx,"你已经完成了第一个实验区组

请稍作休息


点击空格键进入下一个区组。",0,50,-1.5,right,LLRLL.png,,,,,0,0,0,0,2,2,50,15,,,,,,,,,,,,,,,,,,,,,,,,,,,,,,,,,,,,,,,,,,,,,,,,,,,,,,,,,,,,,,,,201.14871350000612,201.5493323999981,201.53285059999325,201.63297579999198,202.0340628999984,None,right,1,0.5816151000035461,202.0340628999984,None,201.53285059999325,201.63297579999198,201.63297579999198,None,202.63430969999172,None,,,,,,,11034,001,2024_Jan_16_1045,ANT,2021.2.3,59.221813532887346,
1,24,spatial,down,IC,R,,,,,,Block.xlsx,"你已经完成了第一个实验区组

请稍作休息


点击空格键进入下一个区组。",-1.5,0,-1.5,right,LLRLL.png,,,,,0,0,0,0,2,3,51,23,,,,,,,,,,,,,,,,,,,,,,,,,,,,,,,,,,,,,,,,,,,,,,,,,,,,,,,,,,,,,,,,203.03485289998935,203.4356548000069,203.41984099999536,203.5215898999886,203.91969479998806,None,right,1,0.5197726000042167,203.91969479998806,None,203.41984099999536,203.5215898999886,203.5215898999886,None,204.47046270000283,None,,,,,,,11034,001,2024_Jan_16_1045,ANT,2021.2.3,59.221813532887346,
1,11,center,up,IC,L,,,,,,Block.xlsx,"你已经完成了第一个实验区组

请稍作休息


点击空格键进入下一个区组。",0,50,1.5,left,RRLRR.png,,,,,0,0,0,0,2,4,52,10,,,,,,,,,,,,,,,,,,,,,,,,,,,,,,,,,,,,,,,,,,,,,,,,,,,,,,,,,,,,,,,,204.87092719998327,205.27208510000492,205.25688489997992,205.3553236000007,205.7574725000013,None,left,1,0.5464399000047706,205.7574725000013,None,205.25688489997992,205.3553236000007,205.3553236000007,None,206.32327449999866,None,,,,,,,11034,001,2024_Jan_16_1045,ANT,2021.2.3,59.221813532887346,
1,6,no,down,C,R,,,,,,Block.xlsx,"你已经完成了第一个实验区组

请稍作休息


点击空格键进入下一个区组。",50,0,-1.5,right,RRRRR.png,,,,,0,0,0,0,2,5,53,5,,,,,,,,,,,,,,,,,,,,,,,,,,,,,,,,,,,,,,,,,,,,,,,,,,,,,,,,,,,,,,,,206.72454510000534,207.12659800000256,207.1079894999857,207.2079931999906,207.60851960000582,None,right,1,0.5680742999829818,207.60851960000582,None,207.1079894999857,207.2079931999906,207.2079931999906,None,208.19279669999378,None,,,,,,,11034,001,2024_Jan_16_1045,ANT,2021.2.3,59.221813532887346,
1,17,spatial,up,C,L,,,,,,Block.xlsx,"你已经完成了第一个实验区组

请稍作休息


点击空格键进入下一个区组。",1.5,0,1.5,left,LLLLL.png,,,,,0,0,0,0,2,6,54,16,,,,,,,,,,,,,,,,,,,,,,,,,,,,,,,,,,,,,,,,,,,,,,,,,,,,,,,,,,,,,,,,208.59339389999514,208.9939069999964,208.9779036999971,209.0784840999986,209.47884609998437,None,left,1,0.37690020000445656,209.47884609998437,None,208.9779036999971,209.0784840999986,209.0784840999986,None,209.8786043,None,,,,,,,11034,001,2024_Jan_16_1045,ANT,2021.2.3,59.221813532887346,
1,15,center,down,IC,L,,,,,,Block.xlsx,"你已经完成了第一个实验区组

请稍作休息


点击空格键进入下一个区组。",0,50,-1.5,left,RRLRR.png,,,,,0,0,0,0,2,7,55,14,,,,,,,,,,,,,,,,,,,,,,,,,,,,,,,,,,,,,,,,,,,,,,,,,,,,,,,,,,,,,,,,210.27910319998045,210.68082439998398,210.6640722999873,210.7635401999869,211.1646136000054,None,left,1,0.6030595999909565,211.1646136000054,None,210.6640722999873,210.7635401999869,210.7635401999869,None,211.79898819999653,None,,,,,,,11034,001,2024_Jan_16_1045,ANT,2021.2.3,59.221813532887346,
1,14,center,down,C,R,,,,,,Block.xlsx,"你已经完成了第一个实验区组

请稍作休息


点击空格键进入下一个区组。",0,50,-1.5,right,RRRRR.png,,,,,0,0,0,0,2,8,56,13,,,,,,,,,,,,,,,,,,,,,,,,,,,,,,,,,,,,,,,,,,,,,,,,,,,,,,,,,,,,,,,,212.198685499985,212.60134530000505,212.58286500000395,212.684053999983,213.08336709998548,None,right,1,0.42022719999658875,213.08336709998548,None,212.58286500000395,212.684053999983,212.684053999983,None,213.53476199999568,None,,,,,,,11034,001,2024_Jan_16_1045,ANT,2021.2.3,59.221813532887346,
1,8,no,down,IC,R,,,,,,Block.xlsx,"你已经完成了第一个实验区组

请稍作休息


点击空格键进入下一个区组。",50,0,-1.5,right,LLRLL.png,,,,,0,0,0,0,2,9,57,7,,,,,,,,,,,,,,,,,,,,,,,,,,,,,,,,,,,,,,,,,,,,,,,,,,,,,,,,,,,,,,,,213.93550629998208,214.3352950999979,214.3195326999994,214.42097579999245,214.8199701999838,None,right,1,0.8117828000104055,214.8199701999838,None,214.3195326999994,214.42097579999245,214.42097579999245,None,215.65419460000703,None,,,,,,,11034,001,2024_Jan_16_1045,ANT,2021.2.3,59.221813532887346,
1,5,no,down,C,L,,,,,,Block.xlsx,"你已经完成了第一个实验区组

请稍作休息


点击空格键进入下一个区组。",50,0,-1.5,left,LLLLL.png,,,,,0,0,0,0,2,10,58,4,,,,,,,,,,,,,,,,,,,,,,,,,,,,,,,,,,,,,,,,,,,,,,,,,,,,,,,,,,,,,,,,216.05463559998316,216.45706079999218,216.43859999999404,216.53877230000217,216.9408359999943,None,left,1,0.5390174000058323,216.9408359999943,None,216.43859999999404,216.53877230000217,216.53877230000217,None,217.5066678999865,None,,,,,,,11034,001,2024_Jan_16_1045,ANT,2021.2.3,59.221813532887346,
1,8,no,down,IC,R,,,,,,Block.xlsx,"你已经完成了第一个实验区组

请稍作休息


点击空格键进入下一个区组。",50,0,-1.5,right,LLRLL.png,,,,,0,0,0,0,2,11,59,7,,,,,,,,,,,,,,,,,,,,,,,,,,,,,,,,,,,,,,,,,,,,,,,,,,,,,,,,,,,,,,,,217.90752330000396,218.30880249998881,218.29243869998027,218.39213540000492,218.79250799998408,None,right,1,0.5436918000050355,218.79250799998408,None,218.29243869998027,218.39213540000492,218.39213540000492,None,219.35956159999478,None,,,,,,,11034,001,2024_Jan_16_1045,ANT,2021.2.3,59.221813532887346,
1,22,spatial,down,C,R,,,,,,Block.xlsx,"你已经完成了第一个实验区组

请稍作休息


点击空格键进入下一个区组。",-1.5,0,-1.5,right,RRRRR.png,,,,,0,0,0,0,2,12,60,21,,,,,,,,,,,,,,,,,,,,,,,,,,,,,,,,,,,,,,,,,,,,,,,,,,,,,,,,,,,,,,,,219.76014949998353,220.16138770000543,220.14482789998874,220.2455048999982,220.6468537999899,None,right,1,0.3856378000054974,220.6468537999899,None,220.14482789998874,220.2455048999982,220.2455048999982,None,221.0622792999784,None,,,,,,,11034,001,2024_Jan_16_1045,ANT,2021.2.3,59.221813532887346,
1,16,center,down,IC,R,,,,,,Block.xlsx,"你已经完成了第一个实验区组

请稍作休息


点击空格键进入下一个区组。",0,50,-1.5,right,LLRLL.png,,,,,0,0,0,0,2,13,61,15,,,,,,,,,,,,,,,,,,,,,,,,,,,,,,,,,,,,,,,,,,,,,,,,,,,,,,,,,,,,,,,,221.4631234999979,221.8640250999888,221.8476274999848,221.9468532000028,222.34829900000477,None,right,1,0.5557030999916606,222.34829900000477,None,221.8476274999848,221.9468532000028,221.9468532000028,None,222.93161959998542,None,,,,,,,11034,001,2024_Jan_16_1045,ANT,2021.2.3,59.221813532887346,
1,9,center,up,C,L,,,,,,Block.xlsx,"你已经完成了第一个实验区组

请稍作休息


点击空格键进入下一个区组。",0,50,1.5,left,LLLLL.png,,,,,0,0,0,0,2,14,62,8,,,,,,,,,,,,,,,,,,,,,,,,,,,,,,,,,,,,,,,,,,,,,,,,,,,,,,,,,,,,,,,,223.3323090999911,223.733521999995,223.71629039998516,223.81671299997834,224.21888149998267,None,left,1,0.46923719998449087,224.21888149998267,None,223.71629039998516,223.81671299997834,223.81671299997834,None,224.71772279997822,None,,,,,,,11034,001,2024_Jan_16_1045,ANT,2021.2.3,59.221813532887346,
1,9,center,up,C,L,,,,,,Block.xlsx,"你已经完成了第一个实验区组

请稍作休息


点击空格键进入下一个区组。",0,50,1.5,left,LLLLL.png,,,,,0,0,0,0,2,15,63,8,,,,,,,,,,,,,,,,,,,,,,,,,,,,,,,,,,,,,,,,,,,,,,,,,,,,,,,,,,,,,,,,225.11829680000665,225.51885120000225,225.50380229999428,225.602318499994,226.0048228999949,None,left,1,0.5162568000087049,226.0048228999949,None,225.50380229999428,225.602318499994,225.602318499994,None,226.53715839999495,None,,,,,,,11034,001,2024_Jan_16_1045,ANT,2021.2.3,59.221813532887346,
1,16,center,down,IC,R,,,,,,Block.xlsx,"你已经完成了第一个实验区组

请稍作休息


点击空格键进入下一个区组。",0,50,-1.5,right,LLRLL.png,,,,,0,0,0,0,2,16,64,15,,,,,,,,,,,,,,,,,,,,,,,,,,,,,,,,,,,,,,,,,,,,,,,,,,,,,,,,,,,,,,,,226.93779579998227,227.34005369999795,227.32174019998638,227.42182940000203,227.82359590000124,None,right,1,0.5928033000091091,227.82359590000124,None,227.32174019998638,227.42182940000203,227.42182940000203,None,228.43986309997854,None,,,,,,,11034,001,2024_Jan_16_1045,ANT,2021.2.3,59.221813532887346,
1,14,center,down,C,R,,,,,,Block.xlsx,"你已经完成了第一个实验区组

请稍作休息


点击空格键进入下一个区组。",0,50,-1.5,right,RRRRR.png,,,,,0,0,0,0,2,17,65,13,,,,,,,,,,,,,,,,,,,,,,,,,,,,,,,,,,,,,,,,,,,,,,,,,,,,,,,,,,,,,,,,228.84049499998218,229.24254639999708,229.22443919998477,229.32521179999458,229.72631139997975,None,right,1,0.4422472000005655,229.72631139997975,None,229.22443919998477,229.32521179999458,229.32521179999458,None,230.1926409000007,None,,,,,,,11034,001,2024_Jan_16_1045,ANT,2021.2.3,59.221813532887346,
1,6,no,down,C,R,,,,,,Block.xlsx,"你已经完成了第一个实验区组

请稍作休息


点击空格键进入下一个区组。",50,0,-1.5,right,RRRRR.png,,,,,0,0,0,0,2,18,66,5,,,,,,,,,,,,,,,,,,,,,,,,,,,,,,,,,,,,,,,,,,,,,,,,,,,,,,,,,,,,,,,,230.59328589998768,230.99514169999748,230.97780399999465,231.07780899998033,231.47912249999354,None,right,1,0.48970390000613406,231.47912249999354,None,230.97780399999465,231.07780899998033,231.07780899998033,None,231.99532019998878,None,,,,,,,11034,001,2024_Jan_16_1045,ANT,2021.2.3,59.221813532887346,
1,3,no,up,IC,L,,,,,,Block.xlsx,"你已经完成了第一个实验区组

请稍作休息


点击空格键进入下一个区组。",50,0,1.5,left,RRLRR.png,,,,,0,0,0,0,2,19,67,2,,,,,,,,,,,,,,,,,,,,,,,,,,,,,,,,,,,,,,,,,,,,,,,,,,,,,,,,,,,,,,,,232.3963823999802,232.79836260000593,232.779913699982,232.88165639998624,233.28056220000144,None,left,1,0.5362711999914609,233.28056220000144,None,232.779913699982,232.88165639998624,232.88165639998624,None,233.84814170000027,None,,,,,,,11034,001,2024_Jan_16_1045,ANT,2021.2.3,59.221813532887346,
1,8,no,down,IC,R,,,,,,Block.xlsx,"你已经完成了第一个实验区组

请稍作休息


点击空格键进入下一个区组。",50,0,-1.5,right,LLRLL.png,,,,,0,0,0,0,2,20,68,7,,,,,,,,,,,,,,,,,,,,,,,,,,,,,,,,,,,,,,,,,,,,,,,,,,,,,,,,,,,,,,,,234.2488390999788,234.6503905999998,234.63285840000026,234.73290069997893,235.13387799999327,None,right,1,1.2265796000137925,235.13387799999327,None,234.63285840000026,234.73290069997893,234.73290069997893,None,236.38526459998684,None,,,,,,,11034,001,2024_Jan_16_1045,ANT,2021.2.3,59.221813532887346,
1,18,spatial,up,C,R,,,,,,Block.xlsx,"你已经完成了第一个实验区组

请稍作休息


点击空格键进入下一个区组。",1.5,0,1.5,right,RRRRR.png,,,,,0,0,0,0,2,21,69,17,,,,,,,,,,,,,,,,,,,,,,,,,,,,,,,,,,,,,,,,,,,,,,,,,,,,,,,,,,,,,,,,236.7859119999921,237.1882970999868,237.17072920000646,237.27011769998353,237.67204509998555,None,right,1,0.39256949999253266,237.67204509998555,None,237.17072920000646,237.27011769998353,237.27011769998353,None,238.08901019999757,None,,,,,,,11034,001,2024_Jan_16_1045,ANT,2021.2.3,59.221813532887346,
1,23,spatial,down,IC,L,,,,,,Block.xlsx,"你已经完成了第一个实验区组

请稍作休息


点击空格键进入下一个区组。",-1.5,0,-1.5,left,RRLRR.png,,,,,0,0,0,0,2,22,70,22,,,,,,,,,,,,,,,,,,,,,,,,,,,,,,,,,,,,,,,,,,,,,,,,,,,,,,,,,,,,,,,,238.48951359998318,238.89001400000416,238.8726967999828,238.97351099998923,239.37433940000483,None,right,0,0.38597619999200106,239.37433940000483,None,238.8726967999828,238.97351099998923,238.97351099998923,None,239.79053689999273,None,,,,,,,11034,001,2024_Jan_16_1045,ANT,2021.2.3,59.221813532887346,
1,14,center,down,C,R,,,,,,Block.xlsx,"你已经完成了第一个实验区组

请稍作休息


点击空格键进入下一个区组。",0,50,-1.5,right,RRRRR.png,,,,,0,0,0,0,2,23,71,13,,,,,,,,,,,,,,,,,,,,,,,,,,,,,,,,,,,,,,,,,,,,,,,,,,,,,,,,,,,,,,,,240.1918849000067,240.59212019998813,240.57563559999107,240.6759017999866,241.07573759998195,None,right,1,0.5811018000240438,241.07573759998195,None,240.57563559999107,240.6759017999866,240.6759017999866,None,241.6778665999882,None,,,,,,,11034,001,2024_Jan_16_1045,ANT,2021.2.3,59.221813532887346,
1,5,no,down,C,L,,,,,,Block.xlsx,"你已经完成了第一个实验区组

请稍作休息


点击空格键进入下一个区组。",50,0,-1.5,left,LLLLL.png,,,,,0,0,0,0,3,0,72,4,,,,,,,,,,,,,,,,,,,,,,,,,,,,,,,,,,,,,,,,,,,,,,,,,,,,,,,,,,,,,,,,242.07783179997932,242.47805079998216,242.46180509999976,242.56322189999628,242.96236159998807,None,left,1,0.5105255999951623,242.96236159998807,None,242.46180509999976,242.56322189999628,242.56322189999628,None,243.49605119999615,None,,,,,,,11034,001,2024_Jan_16_1045,ANT,2021.2.3,59.221813532887346,
1,7,no,down,IC,L,,,,,,Block.xlsx,"你已经完成了第一个实验区组

请稍作休息


点击空格键进入下一个区组。",50,0,-1.5,left,RRLRR.png,,,,,0,0,0,0,3,1,73,6,,,,,,,,,,,,,,,,,,,,,,,,,,,,,,,,,,,,,,,,,,,,,,,,,,,,,,,,,,,,,,,,243.89656659998582,244.29809219998424,244.28190609999,244.38075729997945,244.78241019998677,None,left,1,0.5223945000034291,244.78241019998677,None,244.28190609999,244.38075729997945,244.38075729997945,None,245.33318459999282,None,,,,,,,11034,001,2024_Jan_16_1045,ANT,2021.2.3,59.221813532887346,
1,1,no,up,C,L,,,,,,Block.xlsx,"你已经完成了第一个实验区组

请稍作休息


点击空格键进入下一个区组。",50,0,1.5,left,LLLLL.png,,,,,0,0,0,0,3,2,74,0,,,,,,,,,,,,,,,,,,,,,,,,,,,,,,,,,,,,,,,,,,,,,,,,,,,,,,,,,,,,,,,,245.73280509997858,246.13427569999476,246.11813479999546,246.21835109998938,246.61747199998354,None,left,1,0.5271867999981623,246.61747199998354,None,246.11813479999546,246.21835109998938,246.21835109998938,None,247.16813599999296,None,,,,,,,11034,001,2024_Jan_16_1045,ANT,2021.2.3,59.221813532887346,
1,23,spatial,down,IC,L,,,,,,Block.xlsx,"你已经完成了第一个实验区组

请稍作休息


点击空格键进入下一个区组。",-1.5,0,-1.5,left,RRLRR.png,,,,,0,0,0,0,3,3,75,22,,,,,,,,,,,,,,,,,,,,,,,,,,,,,,,,,,,,,,,,,,,,,,,,,,,,,,,,,,,,,,,,247.56867589999456,247.97097209998174,247.9527438999794,248.053545999981,248.45357149999472,None,left,1,0.46776599998702295,248.45357149999472,None,247.9527438999794,248.053545999981,248.053545999981,None,248.93769150000298,None,,,,,,,11034,001,2024_Jan_16_1045,ANT,2021.2.3,59.221813532887346,
1,10,center,up,C,R,,,,,,Block.xlsx,"你已经完成了第一个实验区组

请稍作休息


点击空格键进入下一个区组。",0,50,1.5,right,RRRRR.png,,,,,0,0,0,0,3,4,76,9,,,,,,,,,,,,,,,,,,,,,,,,,,,,,,,,,,,,,,,,,,,,,,,,,,,,,,,,,,,,,,,,249.33980970000266,249.73891339998227,249.72285049999482,249.82226419998915,250.22301549999975,None,right,1,0.6821064999967348,250.22301549999975,None,249.72285049999482,249.82226419998915,249.82226419998915,None,250.9239893000049,None,,,,,,,11034,001,2024_Jan_16_1045,ANT,2021.2.3,59.221813532887346,
1,3,no,up,IC,L,,,,,,Block.xlsx,"你已经完成了第一个实验区组

请稍作休息


点击空格键进入下一个区组。",50,0,1.5,left,RRLRR.png,,,,,0,0,0,0,3,5,77,2,,,,,,,,,,,,,,,,,,,,,,,,,,,,,,,,,,,,,,,,,,,,,,,,,,,,,,,,,,,,,,,,251.32459679999738,251.72574709999026,251.70970320000197,251.81010089998017,252.20999449997908,None,left,1,0.5028983000083826,252.20999449997908,None,251.70970320000197,251.81010089998017,251.81010089998017,None,252.72663180000382,None,,,,,,,11034,001,2024_Jan_16_1045,ANT,2021.2.3,59.221813532887346,
1,17,spatial,up,C,L,,,,,,Block.xlsx,"你已经完成了第一个实验区组

请稍作休息


点击空格键进入下一个区组。",1.5,0,1.5,left,LLLLL.png,,,,,0,0,0,0,3,6,78,16,,,,,,,,,,,,,,,,,,,,,,,,,,,,,,,,,,,,,,,,,,,,,,,,,,,,,,,,,,,,,,,,253.1274384999997,253.53028549999,253.51152869997895,253.6135263000033,254.01332899997942,None,left,1,0.4354414999834262,254.01332899997942,None,253.51152869997895,253.6135263000033,253.6135263000033,None,254.47914049998508,None,,,,,,,11034,001,2024_Jan_16_1045,ANT,2021.2.3,59.221813532887346,
1,11,center,up,IC,L,,,,,,Block.xlsx,"你已经完成了第一个实验区组

请稍作休息


点击空格键进入下一个区组。",0,50,1.5,left,RRLRR.png,,,,,0,0,0,0,3,7,79,10,,,,,,,,,,,,,,,,,,,,,,,,,,,,,,,,,,,,,,,,,,,,,,,,,,,,,,,,,,,,,,,,254.87999039998977,255.2823226999899,255.2639525999839,255.3650917999912,255.76535139998305,None,left,1,0.6686056999897119,255.76535139998305,None,255.2639525999839,255.3650917999912,255.3650917999912,None,256.4489353999961,None,,,,,,,11034,001,2024_Jan_16_1045,ANT,2021.2.3,59.221813532887346,
1,11,center,up,IC,L,,,,,,Block.xlsx,"你已经完成了第一个实验区组

请稍作休息


点击空格键进入下一个区组。",0,50,1.5,left,RRLRR.png,,,,,0,0,0,0,3,8,80,10,,,,,,,,,,,,,,,,,,,,,,,,,,,,,,,,,,,,,,,,,,,,,,,,,,,,,,,,,,,,,,,,256.8494895999902,257.2518624999793,257.2333537999948,257.3353553999914,257.734839199984,None,left,1,0.5142310000082944,257.734839199984,None,257.2333537999948,257.3353553999914,257.3353553999914,None,258.268405299983,None,,,,,,,11034,001,2024_Jan_16_1045,ANT,2021.2.3,59.221813532887346,
1,12,center,up,IC,R,,,,,,Block.xlsx,"你已经完成了第一个实验区组

请稍作休息


点击空格键进入下一个区组。",0,50,1.5,right,LLRLL.png,,,,,0,0,0,0,3,9,81,11,,,,,,,,,,,,,,,,,,,,,,,,,,,,,,,,,,,,,,,,,,,,,,,,,,,,,,,,,,,,,,,,258.66991269998834,259.0695369000023,259.05366750000394,259.15447519999,259.555119800003,None,right,1,0.48599169999943115,259.555119800003,None,259.05366750000394,259.15447519999,259.15447519999,None,260.0711657999782,None,,,,,,,11034,001,2024_Jan_16_1045,ANT,2021.2.3,59.221813532887346,
1,4,no,up,IC,R,,,,,,Block.xlsx,"你已经完成了第一个实验区组

请稍作休息


点击空格键进入下一个区组。",50,0,1.5,right,LLRLL.png,,,,,0,0,0,0,3,10,82,3,,,,,,,,,,,,,,,,,,,,,,,,,,,,,,,,,,,,,,,,,,,,,,,,,,,,,,,,,,,,,,,,260.47164010000415,260.87327879999066,260.85540909998235,260.95579730000463,261.35758239999996,None,right,1,0.4594789999828208,261.35758239999996,None,260.85540909998235,260.95579730000463,260.95579730000463,None,261.84134789998643,None,,,,,,,11034,001,2024_Jan_16_1045,ANT,2021.2.3,59.221813532887346,
1,22,spatial,down,C,R,,,,,,Block.xlsx,"你已经完成了第一个实验区组

请稍作休息


点击空格键进入下一个区组。",-1.5,0,-1.5,right,RRRRR.png,,,,,0,0,0,0,3,11,83,21,,,,,,,,,,,,,,,,,,,,,,,,,,,,,,,,,,,,,,,,,,,,,,,,,,,,,,,,,,,,,,,,262.2409841000044,262.64160289999563,262.62688749999506,262.7259520999796,263.1256015999825,None,right,1,0.5965180000057444,263.1256015999825,None,262.62688749999506,262.7259520999796,262.7259520999796,None,263.74328359999345,None,,,,,,,11034,001,2024_Jan_16_1045,ANT,2021.2.3,59.221813532887346,
1,15,center,down,IC,L,,,,,,Block.xlsx,"你已经完成了第一个实验区组

请稍作休息


点击空格键进入下一个区组。",0,50,-1.5,left,RRLRR.png,,,,,0,0,0,0,3,12,84,14,,,,,,,,,,,,,,,,,,,,,,,,,,,,,,,,,,,,,,,,,,,,,,,,,,,,,,,,,,,,,,,,264.14385870000115,264.5453886000032,264.5289364999917,264.63012519999756,265.0292305999901,None,right,0,0.35592410000390373,265.0292305999901,None,264.5289364999917,264.63012519999756,264.63012519999756,None,265.4124749999901,None,,,,,,,11034,001,2024_Jan_16_1045,ANT,2021.2.3,59.221813532887346,
1,17,spatial,up,C,L,,,,,,Block.xlsx,"你已经完成了第一个实验区组

请稍作休息


点击空格键进入下一个区组。",1.5,0,1.5,left,LLLLL.png,,,,,0,0,0,0,3,13,85,16,,,,,,,,,,,,,,,,,,,,,,,,,,,,,,,,,,,,,,,,,,,,,,,,,,,,,,,,,,,,,,,,265.81409909998183,266.2144687999971,266.198183600005,266.29778459999943,266.6978009000013,None,left,1,0.5756219999748282,266.6978009000013,None,266.198183600005,266.29778459999943,266.29778459999943,None,267.29885259998264,None,,,,,,,11034,001,2024_Jan_16_1045,ANT,2021.2.3,59.221813532887346,
1,13,center,down,C,L,,,,,,Block.xlsx,"你已经完成了第一个实验区组

请稍作休息


点击空格键进入下一个区组。",0,50,-1.5,left,LLLLL.png,,,,,0,0,0,0,3,14,86,12,,,,,,,,,,,,,,,,,,,,,,,,,,,,,,,,,,,,,,,,,,,,,,,,,,,,,,,,,,,,,,,,267.7007242999971,268.10119009998743,268.0829873000039,268.18334809999214,268.58419460000005,None,left,1,0.5614803000062238,268.58419460000005,None,268.0829873000039,268.18334809999214,268.18334809999214,None,269.16934890000266,None,,,,,,,11034,001,2024_Jan_16_1045,ANT,2021.2.3,59.221813532887346,
1,23,spatial,down,IC,L,,,,,,Block.xlsx,"你已经完成了第一个实验区组

请稍作休息


点击空格键进入下一个区组。",-1.5,0,-1.5,left,RRLRR.png,,,,,0,0,0,0,3,15,87,22,,,,,,,,,,,,,,,,,,,,,,,,,,,,,,,,,,,,,,,,,,,,,,,,,,,,,,,,,,,,,,,,269.5688184000028,269.9698616999958,269.95287419998203,270.05502109997906,270.4542630999931,None,left,1,0.5794925999944098,270.4542630999931,None,269.95287419998203,270.05502109997906,270.05502109997906,None,271.05428579999716,None,,,,,,,11034,001,2024_Jan_16_1045,ANT,2021.2.3,59.221813532887346,
1,16,center,down,IC,R,,,,,,Block.xlsx,"你已经完成了第一个实验区组

请稍作休息


点击空格键进入下一个区组。",0,50,-1.5,right,LLRLL.png,,,,,0,0,0,0,3,16,88,15,,,,,,,,,,,,,,,,,,,,,,,,,,,,,,,,,,,,,,,,,,,,,,,,,,,,,,,,,,,,,,,,271.45535539998673,271.856437999988,271.83895959999063,271.9399708999845,272.3394568999938,None,right,1,0.7020490000140853,272.3394568999938,None,271.83895959999063,271.9399708999845,271.9399708999845,None,273.05727590000606,None,,,,,,,11034,001,2024_Jan_16_1045,ANT,2021.2.3,59.221813532887346,
1,23,spatial,down,IC,L,,,,,,Block.xlsx,"你已经完成了第一个实验区组

请稍作休息


点击空格键进入下一个区组。",-1.5,0,-1.5,left,RRLRR.png,,,,,0,0,0,0,3,17,89,22,,,,,,,,,,,,,,,,,,,,,,,,,,,,,,,,,,,,,,,,,,,,,,,,,,,,,,,,,,,,,,,,273.4580506999919,273.85931639999035,273.84264039999107,273.9431268000044,274.34272069999133,None,left,1,0.5070707999984734,274.34272069999133,None,273.84264039999107,273.9431268000044,273.9431268000044,None,274.8768757999933,None,,,,,,,11034,001,2024_Jan_16_1045,ANT,2021.2.3,59.221813532887346,
1,2,no,up,C,R,,,,,,Block.xlsx,"你已经完成了第一个实验区组

请稍作休息


点击空格键进入下一个区组。",50,0,1.5,right,RRRRR.png,,,,,0,0,0,0,3,18,90,1,,,,,,,,,,,,,,,,,,,,,,,,,,,,,,,,,,,,,,,,,,,,,,,,,,,,,,,,,,,,,,,,275.27746759998263,275.68014939999557,275.6622093000042,275.7621696999995,276.16385509999236,None,right,1,0.6376942000060808,276.16385509999236,None,275.6622093000042,275.7621696999995,275.7621696999995,None,276.83042179999757,None,,,,,,,11034,001,2024_Jan_16_1045,ANT,2021.2.3,59.221813532887346,
1,7,no,down,IC,L,,,,,,Block.xlsx,"你已经完成了第一个实验区组

请稍作休息


点击空格键进入下一个区组。",50,0,-1.5,left,RRLRR.png,,,,,0,0,0,0,3,19,91,6,,,,,,,,,,,,,,,,,,,,,,,,,,,,,,,,,,,,,,,,,,,,,,,,,,,,,,,,,,,,,,,,277.2303088000044,277.6320551999961,277.6164547999797,277.7311964999826,278.11539439999615,None,left,1,0.7023135999916121,278.11539439999615,None,277.6164547999797,277.7311964999826,277.7154387999908,None,278.83275629999116,None,,,,,,,11034,001,2024_Jan_16_1045,ANT,2021.2.3,59.221813532887346,
1,20,spatial,up,IC,R,,,,,,Block.xlsx,"你已经完成了第一个实验区组

请稍作休息


点击空格键进入下一个区组。",1.5,0,1.5,right,LLRLL.png,,,,,0,0,0,0,3,20,92,19,,,,,,,,,,,,,,,,,,,,,,,,,,,,,,,,,,,,,,,,,,,,,,,,,,,,,,,,,,,,,,,,279.2335680999968,279.63556189998053,279.6170974999841,279.71940209998866,280.1185768999858,None,right,1,0.7714640000194777,280.1185768999858,None,279.6170974999841,279.71940209998866,279.71940209998866,None,280.919127000001,None,,,,,,,11034,001,2024_Jan_16_1045,ANT,2021.2.3,59.221813532887346,
1,7,no,down,IC,L,,,,,,Block.xlsx,"你已经完成了第一个实验区组

请稍作休息


点击空格键进入下一个区组。",50,0,-1.5,left,RRLRR.png,,,,,0,0,0,0,3,21,93,6,,,,,,,,,,,,,,,,,,,,,,,,,,,,,,,,,,,,,,,,,,,,,,,,,,,,,,,,,,,,,,,,281.31973149999976,281.7204616999952,281.7052352000028,281.8040175999922,282.20446949999314,None,left,1,0.7896371000097133,282.20446949999314,None,281.7052352000028,281.8040175999922,281.8040175999922,None,283.02241879998473,None,,,,,,,11034,001,2024_Jan_16_1045,ANT,2021.2.3,59.221813532887346,
1,20,spatial,up,IC,R,,,,,,Block.xlsx,"你已经完成了第一个实验区组

请稍作休息


点击空格键进入下一个区组。",1.5,0,1.5,right,LLRLL.png,,,,,0,0,0,0,3,22,94,19,,,,,,,,,,,,,,,,,,,,,,,,,,,,,,,,,,,,,,,,,,,,,,,,,,,,,,,,,,,,,,,,283.4239897999796,283.8235180999909,283.80798479999066,283.9085896000033,284.3097215000016,None,right,1,0.9163926999899559,284.3097215000016,None,283.80798479999066,283.9085896000033,283.9085896000033,None,285.242482200003,None,,,,,,,11034,001,2024_Jan_16_1045,ANT,2021.2.3,59.221813532887346,
1,24,spatial,down,IC,R,,,,,,Block.xlsx,"你已经完成了第一个实验区组

请稍作休息


点击空格键进入下一个区组。",-1.5,0,-1.5,right,LLRLL.png,,,,,0,0,0,0,3,23,95,23,,,,,,,,,,,,,,,,,,,,,,,,,,,,,,,,,,,,,,,,,,,,,,,,,,,,,,,,,,,,,,,,285.64399479998974,286.04359580000164,286.0270058999886,286.1280423999997,286.52772729998105,None,right,1,0.7779372000077274,286.52772729998105,None,286.0270058999886,286.1280423999997,286.1280423999997,None,287.32893419999164,None,,,,,,,11034,001,2024_Jan_16_1045,ANT,2021.2.3,59.221813532887346,
,,,,,,,,,,,Block.xlsx,"你已经完成了第一个实验区组

请稍作休息


点击空格键进入下一个区组。",,,,,,,,,,0,0,0,0,,,,,,,,,,,,,,,,,,,,,,,,,,,,,,,,,,,,,,,,,,,,,,,,,,,,,,,,,,,,,,,,,,,,,,,,,,,,,,,,,,,,,space,61.4263264000183,287.7465564000013,None,287.7465564000013,None,11034,001,2024_Jan_16_1045,ANT,2021.2.3,59.221813532887346,
1,21,spatial,down,C,L,,,,,,Block.xlsx,"你已经完成了整个实验（三个区组）。

请报告实验者已完成实验

非常感谢，再见！",-1.5,0,-1.5,left,LLLLL.png,,,,,0,1,1,1,0,0,0,20,,,,,,,,,,,,,,,,,,,,,,,,,,,,,,,,,,,,,,,,,,,,,,,,,,,,,,,,,,,,,,,,349.22403119999217,349.6230250999797,349.58969069999876,349.6904871999868,350.0912861999823,None,left,1,0.6169183000165503,350.0912861999823,None,349.58969069999876,349.6904871999868,349.6904871999868,None,350.72472309999284,None,,,,,,,11034,001,2024_Jan_16_1045,ANT,2021.2.3,59.221813532887346,
1,11,center,up,IC,L,,,,,,Block.xlsx,"你已经完成了整个实验（三个区组）。

请报告实验者已完成实验

非常感谢，再见！",0,50,1.5,left,RRLRR.png,,,,,0,1,1,1,0,1,1,10,,,,,,,,,,,,,,,,,,,,,,,,,,,,,,,,,,,,,,,,,,,,,,,,,,,,,,,,,,,,,,,,351.12525909999385,351.527016499982,351.5089806999895,351.6094924999925,352.01050049997866,None,left,1,0.5614823999931104,352.01050049997866,None,351.5089806999895,351.6094924999925,351.6094924999925,None,352.59429089998594,None,,,,,,,11034,001,2024_Jan_16_1045,ANT,2021.2.3,59.221813532887346,
1,20,spatial,up,IC,R,,,,,,Block.xlsx,"你已经完成了整个实验（三个区组）。

请报告实验者已完成实验

非常感谢，再见！",1.5,0,1.5,right,LLRLL.png,,,,,0,1,1,1,0,2,2,19,,,,,,,,,,,,,,,,,,,,,,,,,,,,,,,,,,,,,,,,,,,,,,,,,,,,,,,,,,,,,,,,352.9947809999867,353.3961979000014,353.3802629999991,353.4805189000035,353.88007059998927,None,right,1,0.41971690001082607,353.88007059998927,None,353.3802629999991,353.4805189000035,353.4805189000035,None,354.3135193999915,None,,,,,,,11034,001,2024_Jan_16_1045,ANT,2021.2.3,59.221813532887346,
1,4,no,up,IC,R,,,,,,Block.xlsx,"你已经完成了整个实验（三个区组）。

请报告实验者已完成实验

非常感谢，再见！",50,0,1.5,right,LLRLL.png,,,,,0,1,1,1,0,3,3,3,,,,,,,,,,,,,,,,,,,,,,,,,,,,,,,,,,,,,,,,,,,,,,,,,,,,,,,,,,,,,,,,354.7152731999813,355.1146785999881,355.0996981000062,355.21563459999743,355.5988020999939,None,right,1,0.45368469998356886,355.5988020999939,None,355.0996981000062,355.21563459999743,355.1992702999851,None,356.0660633999796,None,,,,,,,11034,001,2024_Jan_16_1045,ANT,2021.2.3,59.221813532887346,
1,15,center,down,IC,L,,,,,,Block.xlsx,"你已经完成了整个实验（三个区组）。

请报告实验者已完成实验

非常感谢，再见！",0,50,-1.5,left,RRLRR.png,,,,,0,1,1,1,0,4,4,14,,,,,,,,,,,,,,,,,,,,,,,,,,,,,,,,,,,,,,,,,,,,,,,,,,,,,,,,,,,,,,,,356.4666283999977,356.86824320000596,356.851645799994,356.95226229997934,357.35199500000454,None,left,1,0.71665159999975,357.35199500000454,None,356.851645799994,356.95226229997934,356.95226229997934,None,358.0857928000041,None,,,,,,,11034,001,2024_Jan_16_1045,ANT,2021.2.3,59.221813532887346,
1,14,center,down,C,R,,,,,,Block.xlsx,"你已经完成了整个实验（三个区组）。

请报告实验者已完成实验

非常感谢，再见！",0,50,-1.5,right,RRRRR.png,,,,,0,1,1,1,0,5,5,13,,,,,,,,,,,,,,,,,,,,,,,,,,,,,,,,,,,,,,,,,,,,,,,,,,,,,,,,,,,,,,,,358.48631740000565,358.88718279998284,358.8719032999943,358.9721935999987,359.37115799999447,None,right,1,0.4571412999939639,359.37115799999447,None,358.8719032999943,358.9721935999987,358.9721935999987,None,359.85508649999974,None,,,,,,,11034,001,2024_Jan_16_1045,ANT,2021.2.3,59.221813532887346,
1,2,no,up,C,R,,,,,,Block.xlsx,"你已经完成了整个实验（三个区组）。

请报告实验者已完成实验

非常感谢，再见！",50,0,1.5,right,RRRRR.png,,,,,0,1,1,1,0,6,6,1,,,,,,,,,,,,,,,,,,,,,,,,,,,,,,,,,,,,,,,,,,,,,,,,,,,,,,,,,,,,,,,,360.25560649999534,360.6573631000065,360.63968079999904,360.7397229000053,361.1409962000034,None,right,1,0.44765640000696294,361.1409962000034,None,360.63968079999904,360.7397229000053,360.7397229000053,None,361.6080971999909,None,,,,,,,11034,001,2024_Jan_16_1045,ANT,2021.2.3,59.221813532887346,
1,17,spatial,up,C,L,,,,,,Block.xlsx,"你已经完成了整个实验（三个区组）。

请报告实验者已完成实验

非常感谢，再见！",1.5,0,1.5,left,LLLLL.png,,,,,0,1,1,1,0,7,7,16,,,,,,,,,,,,,,,,,,,,,,,,,,,,,,,,,,,,,,,,,,,,,,,,,,,,,,,,,,,,,,,,362.0083834999823,362.4104801999929,362.39234389999183,362.49247510000714,362.8943462999887,None,left,1,0.4619171000085771,362.8943462999887,None,362.39234389999183,362.49247510000714,362.49247510000714,None,363.37715509999543,None,,,,,,,11034,001,2024_Jan_16_1045,ANT,2021.2.3,59.221813532887346,
1,8,no,down,IC,R,,,,,,Block.xlsx,"你已经完成了整个实验（三个区组）。

请报告实验者已完成实验

非常感谢，再见！",50,0,-1.5,right,LLRLL.png,,,,,0,1,1,1,0,8,8,7,,,,,,,,,,,,,,,,,,,,,,,,,,,,,,,,,,,,,,,,,,,,,,,,,,,,,,,,,,,,,,,,363.7778497999825,364.1790067999973,364.163095099997,364.2623623999825,364.6624177999911,None,right,1,0.5741017999825999,364.6624177999911,None,364.163095099997,364.2623623999825,364.2623623999825,None,365.2632946999802,None,,,,,,,11034,001,2024_Jan_16_1045,ANT,2021.2.3,59.221813532887346,
1,7,no,down,IC,L,,,,,,Block.xlsx,"你已经完成了整个实验（三个区组）。

请报告实验者已完成实验

非常感谢，再见！",50,0,-1.5,left,RRLRR.png,,,,,0,1,1,1,0,9,9,6,,,,,,,,,,,,,,,,,,,,,,,,,,,,,,,,,,,,,,,,,,,,,,,,,,,,,,,,,,,,,,,,365.6637763000035,366.06527389999246,366.0487336999795,366.1479652999842,366.55077050000546,None,left,1,0.6137838999857195,366.55077050000546,None,366.0487336999795,366.1479652999842,366.1479652999842,None,367.183037699986,None,,,,,,,11034,001,2024_Jan_16_1045,ANT,2021.2.3,59.221813532887346,
1,12,center,up,IC,R,,,,,,Block.xlsx,"你已经完成了整个实验（三个区组）。

请报告实验者已完成实验

非常感谢，再见！",0,50,1.5,right,LLRLL.png,,,,,0,1,1,1,0,10,10,11,,,,,,,,,,,,,,,,,,,,,,,,,,,,,,,,,,,,,,,,,,,,,,,,,,,,,,,,,,,,,,,,367.58402330000536,367.98414019998745,367.96770099998685,368.06848809999065,368.46958400000585,None,right,1,0.670793400000548,368.46958400000585,None,367.96770099998685,368.06848809999065,368.06848809999065,None,369.1691635999887,None,,,,,,,11034,001,2024_Jan_16_1045,ANT,2021.2.3,59.221813532887346,
1,21,spatial,down,C,L,,,,,,Block.xlsx,"你已经完成了整个实验（三个区组）。

请报告实验者已完成实验

非常感谢，再见！",-1.5,0,-1.5,left,LLLLL.png,,,,,0,1,1,1,0,11,11,20,,,,,,,,,,,,,,,,,,,,,,,,,,,,,,,,,,,,,,,,,,,,,,,,,,,,,,,,,,,,,,,,369.5697361000057,369.97205149999354,369.9537943000032,370.0536496999848,370.454719500005,None,left,1,0.4377875999780372,370.454719500005,None,369.9537943000032,370.0536496999848,370.0536496999848,None,370.9219002999889,None,,,,,,,11034,001,2024_Jan_16_1045,ANT,2021.2.3,59.221813532887346,
1,1,no,up,C,L,,,,,,Block.xlsx,"你已经完成了整个实验（三个区组）。

请报告实验者已完成实验

非常感谢，再见！",50,0,1.5,left,LLLLL.png,,,,,0,1,1,1,0,12,12,0,,,,,,,,,,,,,,,,,,,,,,,,,,,,,,,,,,,,,,,,,,,,,,,,,,,,,,,,,,,,,,,,371.32239200000186,371.7229441999807,371.7069513000024,371.80723629999557,372.2072055999888,None,left,1,0.46955539999180473,372.2072055999888,None,371.7069513000024,371.80723629999557,371.80723629999557,None,372.6910545999999,None,,,,,,,11034,001,2024_Jan_16_1045,ANT,2021.2.3,59.221813532887346,
1,3,no,up,IC,L,,,,,,Block.xlsx,"你已经完成了整个实验（三个区组）。

请报告实验者已完成实验

非常感谢，再见！",50,0,1.5,left,RRLRR.png,,,,,0,1,1,1,0,13,13,2,,,,,,,,,,,,,,,,,,,,,,,,,,,,,,,,,,,,,,,,,,,,,,,,,,,,,,,,,,,,,,,,373.0921496999799,373.4932117999997,373.4764703999972,373.5773446999956,373.9763963999867,None,left,1,0.49224429999594577,373.9763963999867,None,373.4764703999972,373.5773446999956,373.5773446999956,None,374.4940265000041,None,,,,,,,11034,001,2024_Jan_16_1045,ANT,2021.2.3,59.221813532887346,
1,18,spatial,up,C,R,,,,,,Block.xlsx,"你已经完成了整个实验（三个区组）。

请报告实验者已完成实验

非常感谢，再见！",1.5,0,1.5,right,RRRRR.png,,,,,0,1,1,1,0,14,14,17,,,,,,,,,,,,,,,,,,,,,,,,,,,,,,,,,,,,,,,,,,,,,,,,,,,,,,,,,,,,,,,,374.8945805999974,375.2969452999823,375.27923409998766,375.37843729997985,375.78050779999467,None,right,1,0.43272420001449063,375.78050779999467,None,375.27923409998766,375.37843729997985,375.37843729997985,None,376.230238499993,None,,,,,,,11034,001,2024_Jan_16_1045,ANT,2021.2.3,59.221813532887346,
1,15,center,down,IC,L,,,,,,Block.xlsx,"你已经完成了整个实验（三个区组）。

请报告实验者已完成实验

非常感谢，再见！",0,50,-1.5,left,RRLRR.png,,,,,0,1,1,1,0,15,15,14,,,,,,,,,,,,,,,,,,,,,,,,,,,,,,,,,,,,,,,,,,,,,,,,,,,,,,,,,,,,,,,,376.63107219999074,377.03111839998746,377.01518529999885,377.1160808999848,377.5160776999837,None,left,1,0.5606649999972433,377.5160776999837,None,377.01518529999885,377.1160808999848,377.1160808999848,None,378.0993511999841,None,,,,,,,11034,001,2024_Jan_16_1045,ANT,2021.2.3,59.221813532887346,
1,6,no,down,C,R,,,,,,Block.xlsx,"你已经完成了整个实验（三个区组）。

请报告实验者已完成实验

非常感谢，再见！",50,0,-1.5,right,RRRRR.png,,,,,0,1,1,1,0,16,16,5,,,,,,,,,,,,,,,,,,,,,,,,,,,,,,,,,,,,,,,,,,,,,,,,,,,,,,,,,,,,,,,,378.5018705999828,378.9003582999867,378.88485040000523,378.98592259999714,379.38467639999,None,right,1,0.5320522999973036,379.38467639999,None,378.88485040000523,378.98592259999714,378.98592259999714,None,379.935478600004,None,,,,,,,11034,001,2024_Jan_16_1045,ANT,2021.2.3,59.221813532887346,
1,10,center,up,C,R,,,,,,Block.xlsx,"你已经完成了整个实验（三个区组）。

请报告实验者已完成实验

非常感谢，再见！",0,50,1.5,right,RRRRR.png,,,,,0,1,1,1,0,17,17,9,,,,,,,,,,,,,,,,,,,,,,,,,,,,,,,,,,,,,,,,,,,,,,,,,,,,,,,,,,,,,,,,380.3359891999862,380.73851369999466,380.7206389000057,380.8218917000049,381.22090970000136,None,right,1,0.6324983999948017,381.22090970000136,None,380.7206389000057,380.8218917000049,380.8218917000049,None,381.8717580999946,None,,,,,,,11034,001,2024_Jan_16_1045,ANT,2021.2.3,59.221813532887346,
1,12,center,up,IC,R,,,,,,Block.xlsx,"你已经完成了整个实验（三个区组）。

请报告实验者已完成实验

非常感谢，再见！",0,50,1.5,right,LLRLL.png,,,,,0,1,1,1,0,18,18,11,,,,,,,,,,,,,,,,,,,,,,,,,,,,,,,,,,,,,,,,,,,,,,,,,,,,,,,,,,,,,,,,382.2732151999953,382.6753087999823,382.6562365999853,382.7575051999884,383.15766539998003,None,right,1,0.5751457999867853,383.15766539998003,None,382.6562365999853,382.7575051999884,382.7575051999884,None,383.75895359998685,None,,,,,,,11034,001,2024_Jan_16_1045,ANT,2021.2.3,59.221813532887346,
1,3,no,up,IC,L,,,,,,Block.xlsx,"你已经完成了整个实验（三个区组）。

请报告实验者已完成实验

非常感谢，再见！",50,0,1.5,left,RRLRR.png,,,,,0,1,1,1,0,19,19,2,,,,,,,,,,,,,,,,,,,,,,,,,,,,,,,,,,,,,,,,,,,,,,,,,,,,,,,,,,,,,,,,384.15916670000297,384.5599020999798,384.5430972999893,384.64344519999577,385.0432017999992,None,left,1,0.9303314999851864,385.0432017999992,None,384.5430972999893,384.64344519999577,384.64344519999577,None,385.99546589999227,None,,,,,,,11034,001,2024_Jan_16_1045,ANT,2021.2.3,59.221813532887346,
1,1,no,up,C,L,,,,,,Block.xlsx,"你已经完成了整个实验（三个区组）。

请报告实验者已完成实验

非常感谢，再见！",50,0,1.5,left,LLLLL.png,,,,,0,1,1,1,0,20,20,0,,,,,,,,,,,,,,,,,,,,,,,,,,,,,,,,,,,,,,,,,,,,,,,,,,,,,,,,,,,,,,,,386.3951570999925,386.7967454000027,386.77927159998217,386.88119919999735,387.2801152000029,None,left,1,0.5652245999954175,387.2801152000029,None,386.77927159998217,386.88119919999735,386.88119919999735,None,387.86413410000387,None,,,,,,,11034,001,2024_Jan_16_1045,ANT,2021.2.3,59.221813532887346,
1,6,no,down,C,R,,,,,,Block.xlsx,"你已经完成了整个实验（三个区组）。

请报告实验者已完成实验

非常感谢，再见！",50,0,-1.5,right,RRRRR.png,,,,,0,1,1,1,0,21,21,5,,,,,,,,,,,,,,,,,,,,,,,,,,,,,,,,,,,,,,,,,,,,,,,,,,,,,,,,,,,,,,,,388.2651317999989,388.6671037999913,388.6486876999843,388.749847900006,389.149471599987,None,right,1,0.6482703999790829,389.149471599987,None,388.6486876999843,388.749847900006,388.749847900006,None,389.81718949999777,None,,,,,,,11034,001,2024_Jan_16_1045,ANT,2021.2.3,59.221813532887346,
1,13,center,down,C,L,,,,,,Block.xlsx,"你已经完成了整个实验（三个区组）。

请报告实验者已完成实验

非常感谢，再见！",0,50,-1.5,left,LLLLL.png,,,,,0,1,1,1,0,22,22,12,,,,,,,,,,,,,,,,,,,,,,,,,,,,,,,,,,,,,,,,,,,,,,,,,,,,,,,,,,,,,,,,390.2176236999803,390.6183524999942,390.60209119998035,390.7027666999784,391.10254480000003,None,left,1,0.5264967999828514,391.10254480000003,None,390.60209119998035,390.7027666999784,390.7027666999784,None,391.6531765999971,None,,,,,,,11034,001,2024_Jan_16_1045,ANT,2021.2.3,59.221813532887346,
1,18,spatial,up,C,R,,,,,,Block.xlsx,"你已经完成了整个实验（三个区组）。

请报告实验者已完成实验

非常感谢，再见！",1.5,0,1.5,right,RRRRR.png,,,,,0,1,1,1,0,23,23,17,,,,,,,,,,,,,,,,,,,,,,,,,,,,,,,,,,,,,,,,,,,,,,,,,,,,,,,,,,,,,,,,392.0536921999883,392.45580939998035,392.43757959999493,392.5381248999911,392.9384350999899,None,right,1,0.49918959999922663,392.9384350999899,None,392.43757959999493,392.5381248999911,392.5381248999911,None,393.4558873999922,None,,,,,,,11034,001,2024_Jan_16_1045,ANT,2021.2.3,59.221813532887346,
1,5,no,down,C,L,,,,,,Block.xlsx,"你已经完成了整个实验（三个区组）。

请报告实验者已完成实验

非常感谢，再见！",50,0,-1.5,left,LLLLL.png,,,,,0,1,1,1,1,0,24,4,,,,,,,,,,,,,,,,,,,,,,,,,,,,,,,,,,,,,,,,,,,,,,,,,,,,,,,,,,,,,,,,393.8573614000052,394.25741369999014,394.2405039999867,394.341932499985,394.7417351999902,None,left,1,0.5360037999926135,394.7417351999902,None,394.2405039999867,394.341932499985,394.341932499985,None,395.309024599992,None,,,,,,,11034,001,2024_Jan_16_1045,ANT,2021.2.3,59.221813532887346,
1,8,no,down,IC,R,,,,,,Block.xlsx,"你已经完成了整个实验（三个区组）。

请报告实验者已完成实验

非常感谢，再见！",50,0,-1.5,right,LLRLL.png,,,,,0,1,1,1,1,1,25,7,,,,,,,,,,,,,,,,,,,,,,,,,,,,,,,,,,,,,,,,,,,,,,,,,,,,,,,,,,,,,,,,395.70965049997903,396.11096679998445,396.09307559998706,396.1935171999794,396.5957881999784,None,right,1,1.218049399991287,396.5957881999784,None,396.09307559998706,396.1935171999794,396.1935171999794,None,397.8293552999967,None,,,,,,,11034,001,2024_Jan_16_1045,ANT,2021.2.3,59.221813532887346,
1,7,no,down,IC,L,,,,,,Block.xlsx,"你已经完成了整个实验（三个区组）。

请报告实验者已完成实验

非常感谢，再见！",50,0,-1.5,left,RRLRR.png,,,,,0,1,1,1,1,2,26,6,,,,,,,,,,,,,,,,,,,,,,,,,,,,,,,,,,,,,,,,,,,,,,,,,,,,,,,,,,,,,,,,398.22987069998635,398.6304994999955,398.6160374000028,398.73046089999843,399.1149974,None,left,1,0.554969799995888,399.1149974,None,398.6160374000028,398.73046089999843,398.71480529999826,None,399.698628299986,None,,,,,,,11034,001,2024_Jan_16_1045,ANT,2021.2.3,59.221813532887346,
1,6,no,down,C,R,,,,,,Block.xlsx,"你已经完成了整个实验（三个区组）。

请报告实验者已完成实验

非常感谢，再见！",50,0,-1.5,right,RRRRR.png,,,,,0,1,1,1,1,3,27,5,,,,,,,,,,,,,,,,,,,,,,,,,,,,,,,,,,,,,,,,,,,,,,,,,,,,,,,,,,,,,,,,400.09937119999086,400.5000313000055,400.48370759998215,400.58390999998664,400.98485219999566,None,right,1,0.8129679999838118,400.98485219999566,None,400.48370759998215,400.58390999998664,400.58390999998664,None,401.81855820000055,None,,,,,,,11034,001,2024_Jan_16_1045,ANT,2021.2.3,59.221813532887346,
1,24,spatial,down,IC,R,,,,,,Block.xlsx,"你已经完成了整个实验（三个区组）。

请报告实验者已完成实验

非常感谢，再见！",-1.5,0,-1.5,right,LLRLL.png,,,,,0,1,1,1,1,4,28,23,,,,,,,,,,,,,,,,,,,,,,,,,,,,,,,,,,,,,,,,,,,,,,,,,,,,,,,,,,,,,,,,402.2190345999843,402.6203151999798,402.6032532999816,402.7043452000071,403.1035624000069,None,right,1,0.5505986000061966,403.1035624000069,None,402.6032532999816,402.7043452000071,402.7043452000071,None,403.67155219998676,None,,,,,,,11034,001,2024_Jan_16_1045,ANT,2021.2.3,59.221813532887346,
1,23,spatial,down,IC,L,,,,,,Block.xlsx,"你已经完成了整个实验（三个区组）。

请报告实验者已完成实验

非常感谢，再见！",-1.5,0,-1.5,left,RRLRR.png,,,,,0,1,1,1,1,5,29,22,,,,,,,,,,,,,,,,,,,,,,,,,,,,,,,,,,,,,,,,,,,,,,,,,,,,,,,,,,,,,,,,404.07199689999106,404.47325819998514,404.4557261999871,404.55706560000544,404.9566423999786,None,left,1,0.44128769999952056,404.9566423999786,None,404.4557261999871,404.55706560000544,404.55706560000544,None,405.42408649998833,None,,,,,,,11034,001,2024_Jan_16_1045,ANT,2021.2.3,59.221813532887346,
1,21,spatial,down,C,L,,,,,,Block.xlsx,"你已经完成了整个实验（三个区组）。

请报告实验者已完成实验

非常感谢，再见！",-1.5,0,-1.5,left,LLLLL.png,,,,,0,1,1,1,1,6,30,20,,,,,,,,,,,,,,,,,,,,,,,,,,,,,,,,,,,,,,,,,,,,,,,,,,,,,,,,,,,,,,,,405.82462139998097,406.226144699991,406.2109148000018,406.3253022999852,406.70939350000117,None,left,1,0.3521393999981228,406.70939350000117,None,406.2109148000018,406.3253022999852,406.30888289998984,None,407.0765754999884,None,,,,,,,11034,001,2024_Jan_16_1045,ANT,2021.2.3,59.221813532887346,
1,7,no,down,IC,L,,,,,,Block.xlsx,"你已经完成了整个实验（三个区组）。

请报告实验者已完成实验

非常感谢，再见！",50,0,-1.5,left,RRLRR.png,,,,,0,1,1,1,1,7,31,6,,,,,,,,,,,,,,,,,,,,,,,,,,,,,,,,,,,,,,,,,,,,,,,,,,,,,,,,,,,,,,,,407.4770421999856,407.87877029998344,407.86265209998237,407.9779428000038,408.3618297999783,None,left,1,0.596007100015413,408.3618297999783,None,407.86265209998237,407.9779428000038,407.96203049999895,None,408.9793600999983,None,,,,,,,11034,001,2024_Jan_16_1045,ANT,2021.2.3,59.221813532887346,
1,20,spatial,up,IC,R,,,,,,Block.xlsx,"你已经完成了整个实验（三个区组）。

请报告实验者已完成实验

非常感谢，再见！",1.5,0,1.5,right,LLRLL.png,,,,,0,1,1,1,1,8,32,19,,,,,,,,,,,,,,,,,,,,,,,,,,,,,,,,,,,,,,,,,,,,,,,,,,,,,,,,,,,,,,,,409.3801824999973,409.78163069998845,409.76367539999774,409.86572229999,410.2652492999914,None,right,1,0.556761199986795,410.2652492999914,None,409.76367539999774,409.86572229999,409.86572229999,None,410.84907599998405,None,,,,,,,11034,001,2024_Jan_16_1045,ANT,2021.2.3,59.221813532887346,
1,22,spatial,down,C,R,,,,,,Block.xlsx,"你已经完成了整个实验（三个区组）。

请报告实验者已完成实验

非常感谢，再见！",-1.5,0,-1.5,right,RRRRR.png,,,,,0,1,1,1,1,9,33,21,,,,,,,,,,,,,,,,,,,,,,,,,,,,,,,,,,,,,,,,,,,,,,,,,,,,,,,,,,,,,,,,411.24932489998173,411.6505191999895,411.6334468999994,411.7346606999927,412.13534559999243,None,right,1,0.510357599996496,412.13534559999243,None,411.6334468999994,411.7346606999927,411.7346606999927,None,412.6681375000044,None,,,,,,,11034,001,2024_Jan_16_1045,ANT,2021.2.3,59.221813532887346,
1,14,center,down,C,R,,,,,,Block.xlsx,"你已经完成了整个实验（三个区组）。

请报告实验者已完成实验

非常感谢，再见！",0,50,-1.5,right,RRRRR.png,,,,,0,1,1,1,1,10,34,13,,,,,,,,,,,,,,,,,,,,,,,,,,,,,,,,,,,,,,,,,,,,,,,,,,,,,,,,,,,,,,,,413.06884019999416,413.46999429998687,413.45456779998494,413.5698783999833,413.9535564999969,None,right,1,0.5325493999989703,413.9535564999969,None,413.45456779998494,413.5698783999833,413.55310809999355,None,414.50474569998914,None,,,,,,,11034,001,2024_Jan_16_1045,ANT,2021.2.3,59.221813532887346,
1,13,center,down,C,L,,,,,,Block.xlsx,"你已经完成了整个实验（三个区组）。

请报告实验者已完成实验

非常感谢，再见！",0,50,-1.5,left,LLLLL.png,,,,,0,1,1,1,1,11,35,12,,,,,,,,,,,,,,,,,,,,,,,,,,,,,,,,,,,,,,,,,,,,,,,,,,,,,,,,,,,,,,,,414.9056861999852,415.3063567999925,415.2904895999818,415.3902500999975,415.789587199979,None,left,1,0.424176600005012,415.789587199979,None,415.2904895999818,415.3902500999975,415.3902500999975,None,416.2414804,None,,,,,,,11034,001,2024_Jan_16_1045,ANT,2021.2.3,59.221813532887346,
1,1,no,up,C,L,,,,,,Block.xlsx,"你已经完成了整个实验（三个区组）。

请报告实验者已完成实验

非常感谢，再见！",50,0,1.5,left,LLLLL.png,,,,,0,1,1,1,1,12,36,0,,,,,,,,,,,,,,,,,,,,,,,,,,,,,,,,,,,,,,,,,,,,,,,,,,,,,,,,,,,,,,,,416.6412367000012,417.0431125999894,417.0250187999918,417.12743860000046,417.5258501000062,None,left,1,0.5439647000166588,417.5258501000062,None,417.0250187999918,417.12743860000046,417.12743860000046,None,418.09426990000065,None,,,,,,,11034,001,2024_Jan_16_1045,ANT,2021.2.3,59.221813532887346,
1,18,spatial,up,C,R,,,,,,Block.xlsx,"你已经完成了整个实验（三个区组）。

请报告实验者已完成实验

非常感谢，再见！",1.5,0,1.5,right,RRRRR.png,,,,,0,1,1,1,1,13,37,17,,,,,,,,,,,,,,,,,,,,,,,,,,,,,,,,,,,,,,,,,,,,,,,,,,,,,,,,,,,,,,,,418.49446230000467,418.8962406000064,418.8777199999895,418.97876929998165,419.37834779999685,None,right,1,0.5394275000144262,419.37834779999685,None,418.8777199999895,418.97876929998165,418.97876929998165,None,419.9455908999953,None,,,,,,,11034,001,2024_Jan_16_1045,ANT,2021.2.3,59.221813532887346,
1,14,center,down,C,R,,,,,,Block.xlsx,"你已经完成了整个实验（三个区组）。

请报告实验者已完成实验

非常感谢，再见！",0,50,-1.5,right,RRRRR.png,,,,,0,1,1,1,1,14,38,13,,,,,,,,,,,,,,,,,,,,,,,,,,,,,,,,,,,,,,,,,,,,,,,,,,,,,,,,,,,,,,,,420.34661730000516,420.7480794999865,420.73058869998204,420.8311647999799,421.2328477999836,None,right,1,0.5013452999992296,421.2328477999836,None,420.73058869998204,420.8311647999799,420.8311647999799,None,421.76525359999505,None,,,,,,,11034,001,2024_Jan_16_1045,ANT,2021.2.3,59.221813532887346,
1,11,center,up,IC,L,,,,,,Block.xlsx,"你已经完成了整个实验（三个区组）。

请报告实验者已完成实验

非常感谢，再见！",0,50,1.5,left,RRLRR.png,,,,,0,1,1,1,1,15,39,10,,,,,,,,,,,,,,,,,,,,,,,,,,,,,,,,,,,,,,,,,,,,,,,,,,,,,,,,,,,,,,,,422.1668837000034,422.5666602999845,422.5506713000068,422.6514707999886,423.0516376000014,None,left,1,0.5948183000145946,423.0516376000014,None,422.5506713000068,422.6514707999886,422.6514707999886,None,423.6681600000011,None,,,,,,,11034,001,2024_Jan_16_1045,ANT,2021.2.3,59.221813532887346,
1,23,spatial,down,IC,L,,,,,,Block.xlsx,"你已经完成了整个实验（三个区组）。

请报告实验者已完成实验

非常感谢，再见！",-1.5,0,-1.5,left,RRLRR.png,,,,,0,1,1,1,1,16,40,22,,,,,,,,,,,,,,,,,,,,,,,,,,,,,,,,,,,,,,,,,,,,,,,,,,,,,,,,,,,,,,,,424.069590900006,424.4699015999795,424.4532939000055,424.55459369998425,424.9535057999892,None,left,1,0.4447865000111051,424.9535057999892,None,424.4532939000055,424.55459369998425,424.55459369998425,None,425.42084179999074,None,,,,,,,11034,001,2024_Jan_16_1045,ANT,2021.2.3,59.221813532887346,
1,16,center,down,IC,R,,,,,,Block.xlsx,"你已经完成了整个实验（三个区组）。

请报告实验者已完成实验

非常感谢，再见！",0,50,-1.5,right,LLRLL.png,,,,,0,1,1,1,1,17,41,15,,,,,,,,,,,,,,,,,,,,,,,,,,,,,,,,,,,,,,,,,,,,,,,,,,,,,,,,,,,,,,,,425.82126159998006,426.2233588999952,426.206082699995,426.30545610000263,426.70694730000105,None,right,1,0.5398726999992505,426.70694730000105,None,426.206082699995,426.30545610000263,426.30545610000263,None,427.2736792000069,None,,,,,,,11034,001,2024_Jan_16_1045,ANT,2021.2.3,59.221813532887346,
1,12,center,up,IC,R,,,,,,Block.xlsx,"你已经完成了整个实验（三个区组）。

请报告实验者已完成实验

非常感谢，再见！",0,50,1.5,right,LLRLL.png,,,,,0,1,1,1,1,18,42,11,,,,,,,,,,,,,,,,,,,,,,,,,,,,,,,,,,,,,,,,,,,,,,,,,,,,,,,,,,,,,,,,427.6754091999901,428.0748578000057,428.0589131999877,428.15914760000305,428.5595917000028,None,right,1,0.5511588999943342,428.5595917000028,None,428.0589131999877,428.15914760000305,428.15914760000305,None,429.1263818999869,None,,,,,,,11034,001,2024_Jan_16_1045,ANT,2021.2.3,59.221813532887346,
1,4,no,up,IC,R,,,,,,Block.xlsx,"你已经完成了整个实验（三个区组）。

请报告实验者已完成实验

非常感谢，再见！",50,0,1.5,right,LLRLL.png,,,,,0,1,1,1,1,19,43,3,,,,,,,,,,,,,,,,,,,,,,,,,,,,,,,,,,,,,,,,,,,,,,,,,,,,,,,,,,,,,,,,429.5267193999898,429.92759350000415,429.9115543999942,430.0121707999788,430.4125136999937,None,right,1,0.5538166000042111,430.4125136999937,None,429.9115543999942,430.0121707999788,430.0121707999788,None,430.99709719998646,None,,,,,,,11034,001,2024_Jan_16_1045,ANT,2021.2.3,59.221813532887346,
1,14,center,down,C,R,,,,,,Block.xlsx,"你已经完成了整个实验（三个区组）。

请报告实验者已完成实验

非常感谢，再见！",0,50,-1.5,right,RRRRR.png,,,,,0,1,1,1,1,20,44,13,,,,,,,,,,,,,,,,,,,,,,,,,,,,,,,,,,,,,,,,,,,,,,,,,,,,,,,,,,,,,,,,431.39657509999233,431.7994810999953,431.7804999999935,431.8806246999884,432.2817021999799,None,right,1,0.5888405000150669,432.2817021999799,None,431.7804999999935,431.8806246999884,431.8806246999884,None,432.8987758999865,None,,,,,,,11034,001,2024_Jan_16_1045,ANT,2021.2.3,59.221813532887346,
1,15,center,down,IC,L,,,,,,Block.xlsx,"你已经完成了整个实验（三个区组）。

请报告实验者已完成实验

非常感谢，再见！",0,50,-1.5,left,RRLRR.png,,,,,0,1,1,1,1,21,45,14,,,,,,,,,,,,,,,,,,,,,,,,,,,,,,,,,,,,,,,,,,,,,,,,,,,,,,,,,,,,,,,,433.2995357000036,433.7002999999968,433.68398229999,433.7839971999929,434.185899300006,None,left,1,0.517266999988351,434.185899300006,None,433.68398229999,433.7839971999929,433.7839971999929,None,434.7183021999954,None,,,,,,,11034,001,2024_Jan_16_1045,ANT,2021.2.3,59.221813532887346,
1,4,no,up,IC,R,,,,,,Block.xlsx,"你已经完成了整个实验（三个区组）。

请报告实验者已完成实验

非常感谢，再见！",50,0,1.5,right,LLRLL.png,,,,,0,1,1,1,1,22,46,3,,,,,,,,,,,,,,,,,,,,,,,,,,,,,,,,,,,,,,,,,,,,,,,,,,,,,,,,,,,,,,,,435.1188235000009,435.520863999991,435.50275479999254,435.6038628999959,436.00368130000425,None,right,1,0.5866728000110015,436.00368130000425,None,435.50275479999254,435.6038628999959,435.6038628999959,None,436.62092699998175,None,,,,,,,11034,001,2024_Jan_16_1045,ANT,2021.2.3,59.221813532887346,
1,23,spatial,down,IC,L,,,,,,Block.xlsx,"你已经完成了整个实验（三个区组）。

请报告实验者已完成实验

非常感谢，再见！",-1.5,0,-1.5,left,RRLRR.png,,,,,0,1,1,1,1,23,47,22,,,,,,,,,,,,,,,,,,,,,,,,,,,,,,,,,,,,,,,,,,,,,,,,,,,,,,,,,,,,,,,,437.0214313000033,437.4221717999899,437.4062653000001,437.50712439999916,437.9065223999787,None,left,1,0.42006830000900663,437.9065223999787,None,437.4062653000001,437.50712439999916,437.50712439999916,None,438.3569649999845,None,,,,,,,11034,001,2024_Jan_16_1045,ANT,2021.2.3,59.221813532887346,
1,1,no,up,C,L,,,,,,Block.xlsx,"你已经完成了整个实验（三个区组）。

请报告实验者已完成实验

非常感谢，再见！",50,0,1.5,left,LLLLL.png,,,,,0,1,1,1,2,0,48,0,,,,,,,,,,,,,,,,,,,,,,,,,,,,,,,,,,,,,,,,,,,,,,,,,,,,,,,,,,,,,,,,438.75788739998825,439.15921129999333,439.14241939998465,439.2424922999926,439.64310839999234,None,left,1,0.4914699000073597,439.64310839999234,None,439.14241939998465,439.2424922999926,439.2424922999926,None,440.15984249999747,None,,,,,,,11034,001,2024_Jan_16_1045,ANT,2021.2.3,59.221813532887346,
1,8,no,down,IC,R,,,,,,Block.xlsx,"你已经完成了整个实验（三个区组）。

请报告实验者已完成实验

非常感谢，再见！",50,0,-1.5,right,LLRLL.png,,,,,0,1,1,1,2,1,49,7,,,,,,,,,,,,,,,,,,,,,,,,,,,,,,,,,,,,,,,,,,,,,,,,,,,,,,,,,,,,,,,,440.56048049998935,440.96094869999797,440.94467070000246,441.04486870000255,441.44486220000545,None,right,1,0.625697500014212,441.44486220000545,None,440.94467070000246,441.04486870000255,441.04486870000255,None,442.0967091000057,None,,,,,,,11034,001,2024_Jan_16_1045,ANT,2021.2.3,59.221813532887346,
1,8,no,down,IC,R,,,,,,Block.xlsx,"你已经完成了整个实验（三个区组）。

请报告实验者已完成实验

非常感谢，再见！",50,0,-1.5,right,LLRLL.png,,,,,0,1,1,1,2,2,50,7,,,,,,,,,,,,,,,,,,,,,,,,,,,,,,,,,,,,,,,,,,,,,,,,,,,,,,,,,,,,,,,,442.49654019999434,442.8973888999899,442.88113500000327,442.9806841999816,443.38321159998304,None,right,1,0.4954200999927707,443.38321159998304,None,442.88113500000327,442.9806841999816,442.9806841999816,None,443.89868319997913,None,,,,,,,11034,001,2024_Jan_16_1045,ANT,2021.2.3,59.221813532887346,
1,10,center,up,C,R,,,,,,Block.xlsx,"你已经完成了整个实验（三个区组）。

请报告实验者已完成实验

非常感谢，再见！",0,50,1.5,right,RRRRR.png,,,,,0,1,1,1,2,3,51,9,,,,,,,,,,,,,,,,,,,,,,,,,,,,,,,,,,,,,,,,,,,,,,,,,,,,,,,,,,,,,,,,444.30023749999236,444.7006950999785,444.68397889999324,444.7840869999782,445.18479229998775,None,right,1,0.5178059000172652,445.18479229998775,None,444.68397889999324,444.7840869999782,444.7840869999782,None,445.71805749999476,None,,,,,,,11034,001,2024_Jan_16_1045,ANT,2021.2.3,59.221813532887346,
1,2,no,up,C,R,,,,,,Block.xlsx,"你已经完成了整个实验（三个区组）。

请报告实验者已完成实验

非常感谢，再见！",50,0,1.5,right,RRRRR.png,,,,,0,1,1,1,2,4,52,1,,,,,,,,,,,,,,,,,,,,,,,,,,,,,,,,,,,,,,,,,,,,,,,,,,,,,,,,,,,,,,,,446.1196840000048,446.5201648999937,446.50354390000575,446.60333179999725,447.0040402000013,None,right,1,0.5149519999977201,447.0040402000013,None,446.50354390000575,446.60333179999725,446.60333179999725,None,447.5377501999901,None,,,,,,,11034,001,2024_Jan_16_1045,ANT,2021.2.3,59.221813532887346,
1,3,no,up,IC,L,,,,,,Block.xlsx,"你已经完成了整个实验（三个区组）。

请报告实验者已完成实验

非常感谢，再见！",50,0,1.5,left,RRLRR.png,,,,,0,1,1,1,2,5,53,2,,,,,,,,,,,,,,,,,,,,,,,,,,,,,,,,,,,,,,,,,,,,,,,,,,,,,,,,,,,,,,,,447.9381985999935,448.33912819999387,448.3224194999784,448.42337079998106,448.82305049998104,None,left,1,0.6158829999912996,448.82305049998104,None,448.3224194999784,448.42337079998106,448.42337079998106,None,449.4571214999887,None,,,,,,,11034,001,2024_Jan_16_1045,ANT,2021.2.3,59.221813532887346,
1,11,center,up,IC,L,,,,,,Block.xlsx,"你已经完成了整个实验（三个区组）。

请报告实验者已完成实验

非常感谢，再见！",0,50,1.5,left,RRLRR.png,,,,,0,1,1,1,2,6,54,10,,,,,,,,,,,,,,,,,,,,,,,,,,,,,,,,,,,,,,,,,,,,,,,,,,,,,,,,,,,,,,,,449.8585369999928,450.25841209999635,450.24210509998375,450.34267049998743,450.7424598999787,None,left,1,0.46416110001155175,450.7424598999787,None,450.24210509998375,450.34267049998743,450.34267049998743,None,451.2263516999956,None,,,,,,,11034,001,2024_Jan_16_1045,ANT,2021.2.3,59.221813532887346,
1,21,spatial,down,C,L,,,,,,Block.xlsx,"你已经完成了整个实验（三个区组）。

请报告实验者已完成实验

非常感谢，再见！",-1.5,0,-1.5,left,LLLLL.png,,,,,0,1,1,1,2,7,55,20,,,,,,,,,,,,,,,,,,,,,,,,,,,,,,,,,,,,,,,,,,,,,,,,,,,,,,,,,,,,,,,,451.62712249998003,452.0274518999795,452.01301669998793,452.11096109999926,452.51224719997845,None,left,1,0.5027219999756198,452.51224719997845,None,452.01301669998793,452.11096109999926,452.11096109999926,None,453.0458328999812,None,,,,,,,11034,001,2024_Jan_16_1045,ANT,2021.2.3,59.221813532887346,
1,7,no,down,IC,L,,,,,,Block.xlsx,"你已经完成了整个实验（三个区组）。

请报告实验者已完成实验

非常感谢，再见！",50,0,-1.5,left,RRLRR.png,,,,,0,1,1,1,2,8,56,6,,,,,,,,,,,,,,,,,,,,,,,,,,,,,,,,,,,,,,,,,,,,,,,,,,,,,,,,,,,,,,,,453.4468464999809,453.84743829999934,453.8323388999852,453.93071349998354,454.3310464999813,None,left,1,0.6440125000081025,454.3310464999813,None,453.8323388999852,453.93071349998354,453.93071349998354,None,454.99875389999943,None,,,,,,,11034,001,2024_Jan_16_1045,ANT,2021.2.3,59.221813532887346,
1,2,no,up,C,R,,,,,,Block.xlsx,"你已经完成了整个实验（三个区组）。

请报告实验者已完成实验

非常感谢，再见！",50,0,1.5,right,RRRRR.png,,,,,0,1,1,1,2,9,57,1,,,,,,,,,,,,,,,,,,,,,,,,,,,,,,,,,,,,,,,,,,,,,,,,,,,,,,,,,,,,,,,,455.3998064000043,455.80033149998053,455.783348500001,455.88343899999745,456.28399679998984,None,right,1,0.6754307000082918,456.28399679998984,None,455.783348500001,455.88343899999745,455.88343899999745,None,456.9851800999895,None,,,,,,,11034,001,2024_Jan_16_1045,ANT,2021.2.3,59.221813532887346,
1,11,center,up,IC,L,,,,,,Block.xlsx,"你已经完成了整个实验（三个区组）。

请报告实验者已完成实验

非常感谢，再见！",0,50,1.5,left,RRLRR.png,,,,,0,1,1,1,2,10,58,10,,,,,,,,,,,,,,,,,,,,,,,,,,,,,,,,,,,,,,,,,,,,,,,,,,,,,,,,,,,,,,,,457.3858234999934,457.78630489998613,457.7705723999825,457.87051979999524,458.27140279999,None,left,1,0.5278930999920703,458.27140279999,None,457.7705723999825,457.87051979999524,457.87051979999524,None,458.82134359999327,None,,,,,,,11034,001,2024_Jan_16_1045,ANT,2021.2.3,59.221813532887346,
1,5,no,down,C,L,,,,,,Block.xlsx,"你已经完成了整个实验（三个区组）。

请报告实验者已完成实验

非常感谢，再见！",50,0,-1.5,left,LLLLL.png,,,,,0,1,1,1,2,11,59,4,,,,,,,,,,,,,,,,,,,,,,,,,,,,,,,,,,,,,,,,,,,,,,,,,,,,,,,,,,,,,,,,459.22240519998013,459.6236485999834,459.60710140000447,459.72432829998434,460.1071273999987,None,left,1,0.5009386999881826,460.1071273999987,None,459.60710140000447,459.72432829998434,459.7060280999867,None,460.6239454000024,None,,,,,,,11034,001,2024_Jan_16_1045,ANT,2021.2.3,59.221813532887346,
1,13,center,down,C,L,,,,,,Block.xlsx,"你已经完成了整个实验（三个区组）。

请报告实验者已完成实验

非常感谢，再见！",0,50,-1.5,left,LLLLL.png,,,,,0,1,1,1,2,12,60,12,,,,,,,,,,,,,,,,,,,,,,,,,,,,,,,,,,,,,,,,,,,,,,,,,,,,,,,,,,,,,,,,461.02583729999606,461.42515599998296,461.40848240000196,461.5095526999794,461.90975409999373,None,left,1,0.47343670000554994,461.90975409999373,None,461.40848240000196,461.5095526999794,461.5095526999794,None,462.41010539999115,None,,,,,,,11034,001,2024_Jan_16_1045,ANT,2021.2.3,59.221813532887346,
1,22,spatial,down,C,R,,,,,,Block.xlsx,"你已经完成了整个实验（三个区组）。

请报告实验者已完成实验

非常感谢，再见！",-1.5,0,-1.5,right,RRRRR.png,,,,,0,1,1,1,2,13,61,21,,,,,,,,,,,,,,,,,,,,,,,,,,,,,,,,,,,,,,,,,,,,,,,,,,,,,,,,,,,,,,,,462.81055609998293,463.2119650999957,463.1957044999872,463.29588709998643,463.69583579999744,None,right,1,0.4636287000030279,463.69583579999744,None,463.1957044999872,463.29588709998643,463.29588709998643,None,464.1794807999977,None,,,,,,,11034,001,2024_Jan_16_1045,ANT,2021.2.3,59.221813532887346,
1,9,center,up,C,L,,,,,,Block.xlsx,"你已经完成了整个实验（三个区组）。

请报告实验者已完成实验

非常感谢，再见！",0,50,1.5,left,LLLLL.png,,,,,0,1,1,1,2,14,62,8,,,,,,,,,,,,,,,,,,,,,,,,,,,,,,,,,,,,,,,,,,,,,,,,,,,,,,,,,,,,,,,,464.5807804999931,464.9804984999937,464.9649655999965,465.0648028999858,465.46486670000013,None,left,1,0.559344700013753,465.46486670000013,None,464.9649655999965,465.0648028999858,465.0648028999858,None,466.0489128000045,None,,,,,,,11034,001,2024_Jan_16_1045,ANT,2021.2.3,59.221813532887346,
1,24,spatial,down,IC,R,,,,,,Block.xlsx,"你已经完成了整个实验（三个区组）。

请报告实验者已完成实验

非常感谢，再见！",-1.5,0,-1.5,right,LLRLL.png,,,,,0,1,1,1,2,15,63,23,,,,,,,,,,,,,,,,,,,,,,,,,,,,,,,,,,,,,,,,,,,,,,,,,,,,,,,,,,,,,,,,466.45025920000626,466.85017150000203,466.83404299998074,466.93469269998604,467.33611559998826,None,right,1,0.5352209000266157,467.33611559998826,None,466.83404299998074,466.93469269998604,466.93469269998604,None,467.9015442999953,None,,,,,,,11034,001,2024_Jan_16_1045,ANT,2021.2.3,59.221813532887346,
1,17,spatial,up,C,L,,,,,,Block.xlsx,"你已经完成了整个实验（三个区组）。

请报告实验者已完成实验

非常感谢，再见！",1.5,0,1.5,left,LLLLL.png,,,,,0,1,1,1,2,16,64,16,,,,,,,,,,,,,,,,,,,,,,,,,,,,,,,,,,,,,,,,,,,,,,,,,,,,,,,,,,,,,,,,468.3030388999905,468.7038874999853,468.68806049998966,468.78651419997914,469.1877188999788,None,left,1,0.4674558999831788,469.1877188999788,None,468.68806049998966,468.78651419997914,468.78651419997914,None,469.6709639999899,None,,,,,,,11034,001,2024_Jan_16_1045,ANT,2021.2.3,59.221813532887346,
1,23,spatial,down,IC,L,,,,,,Block.xlsx,"你已经完成了整个实验（三个区组）。

请报告实验者已完成实验

非常感谢，再见！",-1.5,0,-1.5,left,RRLRR.png,,,,,0,1,1,1,2,17,65,22,,,,,,,,,,,,,,,,,,,,,,,,,,,,,,,,,,,,,,,,,,,,,,,,,,,,,,,,,,,,,,,,470.07229809998535,470.4726901999966,470.4553318999824,470.5565023999952,470.9581530999858,None,left,1,0.4494678000046406,470.9581530999858,None,470.4553318999824,470.5565023999952,470.5565023999952,None,471.4243183999788,None,,,,,,,11034,001,2024_Jan_16_1045,ANT,2021.2.3,59.221813532887346,
1,16,center,down,IC,R,,,,,,Block.xlsx,"你已经完成了整个实验（三个区组）。

请报告实验者已完成实验

非常感谢，再见！",0,50,-1.5,right,LLRLL.png,,,,,0,1,1,1,2,18,66,15,,,,,,,,,,,,,,,,,,,,,,,,,,,,,,,,,,,,,,,,,,,,,,,,,,,,,,,,,,,,,,,,471.8242671999906,472.22473079999327,472.20840309999767,472.30851319999783,472.70894569999655,None,right,1,0.5313346000039019,472.70894569999655,None,472.20840309999767,472.30851319999783,472.30851319999783,None,473.2598224999965,None,,,,,,,11034,001,2024_Jan_16_1045,ANT,2021.2.3,59.221813532887346,
1,2,no,up,C,R,,,,,,Block.xlsx,"你已经完成了整个实验（三个区组）。

请报告实验者已完成实验

非常感谢，再见！",50,0,1.5,right,RRRRR.png,,,,,0,1,1,1,2,19,67,1,,,,,,,,,,,,,,,,,,,,,,,,,,,,,,,,,,,,,,,,,,,,,,,,,,,,,,,,,,,,,,,,473.66039669999736,474.0607696999796,474.0443140999996,474.14453140000114,474.54694989998825,None,right,1,0.47657109997817315,474.54694989998825,None,474.0443140999996,474.14453140000114,474.14453140000114,None,475.04576849998557,None,,,,,,,11034,001,2024_Jan_16_1045,ANT,2021.2.3,59.221813532887346,
1,24,spatial,down,IC,R,,,,,,Block.xlsx,"你已经完成了整个实验（三个区组）。

请报告实验者已完成实验

非常感谢，再见！",-1.5,0,-1.5,right,LLRLL.png,,,,,0,1,1,1,2,20,68,23,,,,,,,,,,,,,,,,,,,,,,,,,,,,,,,,,,,,,,,,,,,,,,,,,,,,,,,,,,,,,,,,475.44658069999423,475.8474800999975,475.83070570000564,475.9303707999934,476.33099289998063,None,right,1,0.7086135999998078,476.33099289998063,None,475.83070570000564,475.9303707999934,475.9303707999934,None,477.0654477000062,None,,,,,,,11034,001,2024_Jan_16_1045,ANT,2021.2.3,59.221813532887346,
1,24,spatial,down,IC,R,,,,,,Block.xlsx,"你已经完成了整个实验（三个区组）。

请报告实验者已完成实验

非常感谢，再见！",-1.5,0,-1.5,right,LLRLL.png,,,,,0,1,1,1,2,21,69,23,,,,,,,,,,,,,,,,,,,,,,,,,,,,,,,,,,,,,,,,,,,,,,,,,,,,,,,,,,,,,,,,477.46636849999777,477.86881919999723,477.8499055999855,477.9504215999914,478.3508132999996,None,right,1,0.42497569997794926,478.3508132999996,None,477.8499055999855,477.9504215999914,477.9504215999914,None,478.8017206999939,None,,,,,,,11034,001,2024_Jan_16_1045,ANT,2021.2.3,59.221813532887346,
1,16,center,down,IC,R,,,,,,Block.xlsx,"你已经完成了整个实验（三个区组）。

请报告实验者已完成实验

非常感谢，再见！",0,50,-1.5,right,LLRLL.png,,,,,0,1,1,1,2,22,70,15,,,,,,,,,,,,,,,,,,,,,,,,,,,,,,,,,,,,,,,,,,,,,,,,,,,,,,,,,,,,,,,,479.2019886999915,479.6030852999829,479.5883440999896,479.70357630000217,480.0875285999791,None,right,1,0.672237299993867,480.0875285999791,None,479.5883440999896,479.70357630000217,479.68624889999046,None,480.78873119998025,None,,,,,,,11034,001,2024_Jan_16_1045,ANT,2021.2.3,59.221813532887346,
1,12,center,up,IC,R,,,,,,Block.xlsx,"你已经完成了整个实验（三个区组）。

请报告实验者已完成实验

非常感谢，再见！",0,50,1.5,right,LLRLL.png,,,,,0,1,1,1,2,23,71,11,,,,,,,,,,,,,,,,,,,,,,,,,,,,,,,,,,,,,,,,,,,,,,,,,,,,,,,,,,,,,,,,481.1884473999962,481.591001599998,481.57218190000276,481.67348539998056,482.07307819998823,None,right,1,0.6311228999984451,482.07307819998823,None,481.57218190000276,481.67348539998056,481.67348539998056,None,482.72416399998474,None,,,,,,,11034,001,2024_Jan_16_1045,ANT,2021.2.3,59.221813532887346,
1,3,no,up,IC,L,,,,,,Block.xlsx,"你已经完成了整个实验（三个区组）。

请报告实验者已完成实验

非常感谢，再见！",50,0,1.5,left,RRLRR.png,,,,,0,1,1,1,3,0,72,2,,,,,,,,,,,,,,,,,,,,,,,,,,,,,,,,,,,,,,,,,,,,,,,,,,,,,,,,,,,,,,,,483.1246631999966,483.5259026999993,483.50893320000614,483.6101301999879,484.0092528999958,None,left,1,0.5669389000104275,484.0092528999958,None,483.50893320000614,483.6101301999879,483.6101301999879,None,484.5934891999932,None,,,,,,,11034,001,2024_Jan_16_1045,ANT,2021.2.3,59.221813532887346,
1,20,spatial,up,IC,R,,,,,,Block.xlsx,"你已经完成了整个实验（三个区组）。

请报告实验者已完成实验

非常感谢，再见！",1.5,0,1.5,right,LLRLL.png,,,,,0,1,1,1,3,1,73,19,,,,,,,,,,,,,,,,,,,,,,,,,,,,,,,,,,,,,,,,,,,,,,,,,,,,,,,,,,,,,,,,484.99406669999007,485.396851700003,485.378987300006,485.47875330000534,485.8794865999953,None,right,1,0.48088669998105615,485.8794865999953,None,485.378987300006,485.47875330000534,485.47875330000534,None,486.37948509998387,None,,,,,,,11034,001,2024_Jan_16_1045,ANT,2021.2.3,59.221813532887346,
1,6,no,down,C,R,,,,,,Block.xlsx,"你已经完成了整个实验（三个区组）。

请报告实验者已完成实验

非常感谢，再见！",50,0,-1.5,right,RRRRR.png,,,,,0,1,1,1,3,2,74,5,,,,,,,,,,,,,,,,,,,,,,,,,,,,,,,,,,,,,,,,,,,,,,,,,,,,,,,,,,,,,,,,486.7802934999927,487.1807208999817,487.1653234999976,487.2648893999867,487.6663478999981,None,right,1,0.5414854999980889,487.6663478999981,None,487.1653234999976,487.2648893999867,487.2648893999867,None,488.2323545999825,None,,,,,,,11034,001,2024_Jan_16_1045,ANT,2021.2.3,59.221813532887346,
1,20,spatial,up,IC,R,,,,,,Block.xlsx,"你已经完成了整个实验（三个区组）。

请报告实验者已完成实验

非常感谢，再见！",1.5,0,1.5,right,LLRLL.png,,,,,0,1,1,1,3,3,75,19,,,,,,,,,,,,,,,,,,,,,,,,,,,,,,,,,,,,,,,,,,,,,,,,,,,,,,,,,,,,,,,,488.6329598999873,489.03417989998707,489.0172077000025,489.1191373000038,489.5194915999891,None,right,1,0.49713319999864325,489.5194915999891,None,489.0172077000025,489.1191373000038,489.1191373000038,None,490.0350625999854,None,,,,,,,11034,001,2024_Jan_16_1045,ANT,2021.2.3,59.221813532887346,
1,9,center,up,C,L,,,,,,Block.xlsx,"你已经完成了整个实验（三个区组）。

请报告实验者已完成实验

非常感谢，再见！",0,50,1.5,left,LLLLL.png,,,,,0,1,1,1,3,4,76,8,,,,,,,,,,,,,,,,,,,,,,,,,,,,,,,,,,,,,,,,,,,,,,,,,,,,,,,,,,,,,,,,490.43631409999216,490.836997699982,490.82112109998707,490.9196636999841,491.3227305999899,None,left,1,0.4692839999916032,491.3227305999899,None,490.82112109998707,490.9196636999841,490.9196636999841,None,491.8219722000067,None,,,,,,,11034,001,2024_Jan_16_1045,ANT,2021.2.3,59.221813532887346,
1,5,no,down,C,L,,,,,,Block.xlsx,"你已经完成了整个实验（三个区组）。

请报告实验者已完成实验

非常感谢，再见！",50,0,-1.5,left,LLLLL.png,,,,,0,1,1,1,3,5,77,4,,,,,,,,,,,,,,,,,,,,,,,,,,,,,,,,,,,,,,,,,,,,,,,,,,,,,,,,,,,,,,,,492.22246210000594,492.62378150000586,492.6056493000069,492.70755299998564,493.10825200000545,None,left,1,0.6678197000001092,493.10825200000545,None,492.6056493000069,492.70755299998564,492.70755299998564,None,493.80789009999717,None,,,,,,,11034,001,2024_Jan_16_1045,ANT,2021.2.3,59.221813532887346,
1,9,center,up,C,L,,,,,,Block.xlsx,"你已经完成了整个实验（三个区组）。

请报告实验者已完成实验

非常感谢，再见！",0,50,1.5,left,LLLLL.png,,,,,0,1,1,1,3,6,78,8,,,,,,,,,,,,,,,,,,,,,,,,,,,,,,,,,,,,,,,,,,,,,,,,,,,,,,,,,,,,,,,,494.208607699984,494.60933219999424,494.5928545999923,494.6925502999802,495.09271890000673,None,left,1,0.6998036000004504,495.09271890000673,None,494.5928545999923,494.6925502999802,494.6925502999802,None,495.8103829000029,None,,,,,,,11034,001,2024_Jan_16_1045,ANT,2021.2.3,59.221813532887346,
1,5,no,down,C,L,,,,,,Block.xlsx,"你已经完成了整个实验（三个区组）。

请报告实验者已完成实验

非常感谢，再见！",50,0,-1.5,left,LLLLL.png,,,,,0,1,1,1,3,7,79,4,,,,,,,,,,,,,,,,,,,,,,,,,,,,,,,,,,,,,,,,,,,,,,,,,,,,,,,,,,,,,,,,496.2111187999835,496.6132554000069,496.59494049998466,496.69565730000613,497.0967273999995,None,left,1,0.8560590000124648,497.0967273999995,None,496.59494049998466,496.69565730000613,496.69565730000613,None,497.98049549999996,None,,,,,,,11034,001,2024_Jan_16_1045,ANT,2021.2.3,59.221813532887346,
1,17,spatial,up,C,L,,,,,,Block.xlsx,"你已经完成了整个实验（三个区组）。

请报告实验者已完成实验

非常感谢，再见！",1.5,0,1.5,left,LLLLL.png,,,,,0,1,1,1,3,8,80,16,,,,,,,,,,,,,,,,,,,,,,,,,,,,,,,,,,,,,,,,,,,,,,,,,,,,,,,,,,,,,,,,498.3809892999998,498.7818694000016,498.7651985999837,498.86635500000557,499.26560309997876,None,left,1,0.527073700010078,499.26560309997876,None,498.7651985999837,498.86635500000557,498.86635500000557,None,499.816473999992,None,,,,,,,11034,001,2024_Jan_16_1045,ANT,2021.2.3,59.221813532887346,
1,15,center,down,IC,L,,,,,,Block.xlsx,"你已经完成了整个实验（三个区组）。

请报告实验者已完成实验

非常感谢，再见！",0,50,-1.5,left,RRLRR.png,,,,,0,1,1,1,3,9,81,14,,,,,,,,,,,,,,,,,,,,,,,,,,,,,,,,,,,,,,,,,,,,,,,,,,,,,,,,,,,,,,,,500.2183171999932,500.6177758999984,500.60230909998063,500.70101729998714,501.10181490000105,None,left,1,0.7942480999918189,501.10181490000105,None,500.60230909998063,500.70101729998714,500.70101729998714,None,501.9208255999838,None,,,,,,,11034,001,2024_Jan_16_1045,ANT,2021.2.3,59.221813532887346,
1,19,spatial,up,IC,L,,,,,,Block.xlsx,"你已经完成了整个实验（三个区组）。

请报告实验者已完成实验

非常感谢，再见！",1.5,0,1.5,left,RRLRR.png,,,,,0,1,1,1,3,10,82,18,,,,,,,,,,,,,,,,,,,,,,,,,,,,,,,,,,,,,,,,,,,,,,,,,,,,,,,,,,,,,,,,502.32140809998964,502.72195649999776,502.70531859999755,502.80449819998466,503.20683029998327,None,left,1,0.5217728999850806,503.20683029998327,None,502.70531859999755,502.80449819998466,502.80449819998466,None,503.7562140999944,None,,,,,,,11034,001,2024_Jan_16_1045,ANT,2021.2.3,59.221813532887346,
1,18,spatial,up,C,R,,,,,,Block.xlsx,"你已经完成了整个实验（三个区组）。

请报告实验者已完成实验

非常感谢，再见！",1.5,0,1.5,right,RRRRR.png,,,,,0,1,1,1,3,11,83,17,,,,,,,,,,,,,,,,,,,,,,,,,,,,,,,,,,,,,,,,,,,,,,,,,,,,,,,,,,,,,,,,504.15638440000475,504.55783059998066,504.5412324999925,504.64149569999427,505.04200459999265,None,right,1,0.7744219999876805,505.04200459999265,None,504.5412324999925,504.64149569999427,504.64149569999427,None,505.8428452999797,None,,,,,,,11034,001,2024_Jan_16_1045,ANT,2021.2.3,59.221813532887346,
1,16,center,down,IC,R,,,,,,Block.xlsx,"你已经完成了整个实验（三个区组）。

请报告实验者已完成实验

非常感谢，再见！",0,50,-1.5,right,LLRLL.png,,,,,0,1,1,1,3,12,84,15,,,,,,,,,,,,,,,,,,,,,,,,,,,,,,,,,,,,,,,,,,,,,,,,,,,,,,,,,,,,,,,,506.2429341999814,506.6441893999872,506.62677079997957,506.7277717999823,507.129179999989,None,right,1,0.6715549000073224,507.129179999989,None,506.62677079997957,506.7277717999823,506.7277717999823,None,507.8285935999884,None,,,,,,,11034,001,2024_Jan_16_1045,ANT,2021.2.3,59.221813532887346,
1,17,spatial,up,C,L,,,,,,Block.xlsx,"你已经完成了整个实验（三个区组）。

请报告实验者已完成实验

非常感谢，再见！",1.5,0,1.5,left,LLLLL.png,,,,,0,1,1,1,3,13,85,16,,,,,,,,,,,,,,,,,,,,,,,,,,,,,,,,,,,,,,,,,,,,,,,,,,,,,,,,,,,,,,,,508.2291278000048,508.63088640000205,508.613157099986,508.7132532999967,509.1138549000025,None,left,1,0.5265809999837074,509.1138549000025,None,508.613157099986,508.7132532999967,508.7132532999967,None,509.66472729999805,None,,,,,,,11034,001,2024_Jan_16_1045,ANT,2021.2.3,59.221813532887346,
1,22,spatial,down,C,R,,,,,,Block.xlsx,"你已经完成了整个实验（三个区组）。

请报告实验者已完成实验

非常感谢，再见！",-1.5,0,-1.5,right,RRRRR.png,,,,,0,1,1,1,3,14,86,21,,,,,,,,,,,,,,,,,,,,,,,,,,,,,,,,,,,,,,,,,,,,,,,,,,,,,,,,,,,,,,,,510.0651266000059,510.4677621999872,510.449145999999,510.5500049999973,510.9509545000037,None,right,1,0.5143132000230253,510.9509545000037,None,510.449145999999,510.5500049999973,510.5500049999973,None,511.4838329000049,None,,,,,,,11034,001,2024_Jan_16_1045,ANT,2021.2.3,59.221813532887346,
1,19,spatial,up,IC,L,,,,,,Block.xlsx,"你已经完成了整个实验（三个区组）。

请报告实验者已完成实验

非常感谢，再见！",1.5,0,1.5,left,RRLRR.png,,,,,0,1,1,1,3,15,87,18,,,,,,,,,,,,,,,,,,,,,,,,,,,,,,,,,,,,,,,,,,,,,,,,,,,,,,,,,,,,,,,,511.8853820999793,512.285787700006,512.2697739999858,512.3698685999843,512.7703001000045,None,left,1,0.4862024000030942,512.7703001000045,None,512.2697739999858,512.3698685999843,512.3698685999843,None,513.2883334000071,None,,,,,,,11034,001,2024_Jan_16_1045,ANT,2021.2.3,59.221813532887346,
1,22,spatial,down,C,R,,,,,,Block.xlsx,"你已经完成了整个实验（三个区组）。

请报告实验者已完成实验

非常感谢，再见！",-1.5,0,-1.5,right,RRRRR.png,,,,,0,1,1,1,3,16,88,21,,,,,,,,,,,,,,,,,,,,,,,,,,,,,,,,,,,,,,,,,,,,,,,,,,,,,,,,,,,,,,,,513.687283599982,514.0890199999849,514.0723387000035,514.1728296999936,514.5729105999926,None,right,1,0.5482697000261396,514.5729105999926,None,514.0723387000035,514.1728296999936,514.1728296999936,None,515.139340099995,None,,,,,,,11034,001,2024_Jan_16_1045,ANT,2021.2.3,59.221813532887346,
1,10,center,up,C,R,,,,,,Block.xlsx,"你已经完成了整个实验（三个区组）。

请报告实验者已完成实验

非常感谢，再见！",0,50,1.5,right,RRRRR.png,,,,,0,1,1,1,3,17,89,9,,,,,,,,,,,,,,,,,,,,,,,,,,,,,,,,,,,,,,,,,,,,,,,,,,,,,,,,,,,,,,,,515.541485099995,515.9407507999858,515.9253388999787,516.0243369999807,516.4255270999856,None,right,1,0.44700499999453314,516.4255270999856,None,515.9253388999787,516.0243369999807,516.0243369999807,None,516.8922505999799,None,,,,,,,11034,001,2024_Jan_16_1045,ANT,2021.2.3,59.221813532887346,
1,9,center,up,C,L,,,,,,Block.xlsx,"你已经完成了整个实验（三个区组）。

请报告实验者已完成实验

非常感谢，再见！",0,50,1.5,left,LLLLL.png,,,,,0,1,1,1,3,18,90,8,,,,,,,,,,,,,,,,,,,,,,,,,,,,,,,,,,,,,,,,,,,,,,,,,,,,,,,,,,,,,,,,517.2930525999982,517.6943206999858,517.6773285999952,517.7770928999817,518.1778393999848,None,left,1,0.4150114000076428,518.1778393999848,None,517.6773285999952,517.7770928999817,517.7770928999817,None,518.6131732999929,None,,,,,,,11034,001,2024_Jan_16_1045,ANT,2021.2.3,59.221813532887346,
1,4,no,up,IC,R,,,,,,Block.xlsx,"你已经完成了整个实验（三个区组）。

请报告实验者已完成实验

非常感谢，再见！",50,0,1.5,right,LLRLL.png,,,,,0,1,1,1,3,19,91,3,,,,,,,,,,,,,,,,,,,,,,,,,,,,,,,,,,,,,,,,,,,,,,,,,,,,,,,,,,,,,,,,519.0119923999882,519.4129211999825,519.3971024999919,519.4963210999849,519.8967611999833,None,right,1,0.6013573000091128,519.8967611999833,None,519.3971024999919,519.4963210999849,519.4963210999849,None,520.5142341000028,None,,,,,,,11034,001,2024_Jan_16_1045,ANT,2021.2.3,59.221813532887346,
1,13,center,down,C,L,,,,,,Block.xlsx,"你已经完成了整个实验（三个区组）。

请报告实验者已完成实验

