TrialType,TrialNumber,WarningType,TargetType,FlankerType,TargetDirection,W,f,Y,corr,imageFile,condition,endtext,Yw,Yf,Yt,Corr,imagefile,trials_3.thisRepN,trials_3.thisTrialN,trials_3.thisN,trials_3.thisIndex,trials_2.thisRepN,trials_2.thisTrialN,trials_2.thisN,trials_2.thisIndex,trials.thisRepN,trials.thisTrialN,trials.thisN,trials.thisIndex,instr.started,instr.stopped,key_resp.keys,key_resp.rt,key_resp.started,key_resp.stopped,image.started,image.stopped,key_resp_6.keys,key_resp_6.rt,key_resp_6.started,key_resp_6.stopped,EX_L.started,EX_L.stopped,AL.started,AL.stopped,key_resp_7.keys,key_resp_7.rt,key_resp_7.started,key_resp_7.stopped,EX_R.started,EX_R.stopped,RR.started,RR.stopped,key_resp_8.keys,key_resp_8.rt,key_resp_8.started,key_resp_8.stopped,image_2.started,image_2.stopped,key_resp_9.keys,key_resp_9.rt,key_resp_9.started,key_resp_9.stopped,image_3.started,image_3.stopped,key_resp_10.keys,key_resp_10.rt,key_resp_10.started,key_resp_10.stopped,fix.started,fix.stopped,war.started,war.stopped,tar.started,tar.stopped,key_resp_4.keys,key_resp_4.corr,key_resp_4.rt,key_resp_4.started,key_resp_4.stopped,fix2.started,fix2.stopped,fix_2.started,fix_2.stopped,Feedback.started,Feedback.stopped,key_resp_2.keys,key_resp_2.rt,key_resp_2.started,key_resp_2.stopped,text_5.started,text_5.stopped,fix2_1.started,fix2_1.stopped,Warn.started,Warn.stopped,Tar.started,Tar.stopped,key_resp_5.keys,key_resp_5.corr,key_resp_5.rt,key_resp_5.started,key_resp_5.stopped,Fix_2.started,Fix_2.stopped,fix2_2.started,fix2_2.stopped,text_4.started,text_4.stopped,key_resp_3.keys,key_resp_3.rt,key_resp_3.started,key_resp_3.stopped,text_3.started,text_3.stopped,participant,session,date,expName,psychopyVersion,frameRate,
,,,,,,,,,,,,,,,,,,,,,,,,,,,,,,8.180860199965537,None,space,3.5341939001809806,8.180860199965537,None,,,,,,,,,,,,,,,,,,,,,,,,,,,,,,,,,,,,,,,,,,,,,,,,,,,,,,,,,,,,,,,,,,,,,,,,,,,,,,,,,11031,001,2024_Jan_11_1050,ANT,2021.2.3,59.88049051326032,
,,,,,,,,,,,,,,,,,,,,,,,,,,,,,,,,,,,,11.736218499951065,None,space,1.2102930000983179,11.736218499951065,None,,,,,,,,,,,,,,,,,,,,,,,,,,,,,,,,,,,,,,,,,,,,,,,,,,,,,,,,,,,,,,,,,,,,,,,,,,,11031,001,2024_Jan_11_1050,ANT,2021.2.3,59.88049051326032,
,,,,,,,,,,,,,,,,,,,,,,,,,,,,,,,,,,,,,,,,,,12.971345900092274,None,12.971345900092274,None,left,2.4719786001369357,12.971345900092274,None,,,,,,,,,,,,,,,,,,,,,,,,,,,,,,,,,,,,,,,,,,,,,,,,,,,,,,,,,,,,,,,,,,,11031,001,2024_Jan_11_1050,ANT,2021.2.3,59.88049051326032,
,,,,,,,,,,,,,,,,,,,,,,,,,,,,,,,,,,,,,,,,,,,,,,,,,,15.458275699988008,None,15.458275699988008,None,right,1.0726365998852998,15.458275699988008,None,,,,,,,,,,,,,,,,,,,,,,,,,,,,,,,,,,,,,,,,,,,,,,,,,,,,,,,,,,,11031,001,2024_Jan_11_1050,ANT,2021.2.3,59.88049051326032,
,,,,,,,,,,,,,,,,,,,,,,,,,,,,,,,,,,,,,,,,,,,,,,,,,,,,,,,,,,16.560405700001866,None,space,1.298525799997151,16.560405700001866,None,,,,,,,,,,,,,,,,,,,,,,,,,,,,,,,,,,,,,,,,,,,,,,,,,,,,,11031,001,2024_Jan_11_1050,ANT,2021.2.3,59.88049051326032,
,,,,,,,,,,,,,,,,,,,,,,,,,,,,,,,,,,,,,,,,,,,,,,,,,,,,,,,,,,,,,,,,17.878646000055596,None,space,3.700442099943757,17.878646000055596,None,,,,,,,,,,,,,,,,,,,,,,,,,,,,,,,,,,,,,,,,,,,,,,,11031,001,2024_Jan_11_1050,ANT,2021.2.3,59.88049051326032,
0,7,center,down,C,R,0,50,-1.5,right,RRRRR.png,,,,,,,,0,0,0,6,,,,,,,,,,,,,,,,,,,,,,,,,,,,,,,,,,,,,,,,,,,,,,,,,21.667583799920976,22.068785100011155,22.053544600028545,22.151742600137368,22.552303300006315,None,right,1,0.810388500103727,22.552303300006315,None,22.053544600028545,22.151742600137368,22.151742600137368,None,23.40392510010861,None,,,,,,,,,,,,,,,,,,,,,,,,,,,,,,11031,001,2024_Jan_11_1050,ANT,2021.2.3,59.88049051326032,
0,1,no,up,C,L,50,0,1.5,left,LLLLL.png,,,,,,,,0,1,1,0,,,,,,,,,,,,,,,,,,,,,,,,,,,,,,,,,,,,,,,,,,,,,,,,,25.406487500062212,25.80777160008438,25.791787000140175,25.89100300008431,26.291419200133532,None,left,1,0.719115799991414,26.291419200133532,None,25.791787000140175,25.89100300008431,25.89100300008431,None,27.02488759998232,None,,,,,,,,,,,,,,,,,,,,,,,,,,,,,,11031,001,2024_Jan_11_1050,ANT,2021.2.3,59.88049051326032,
0,5,center,up,C,L,0,50,1.5,left,LLLLL.png,,,,,,,,0,2,2,4,,,,,,,,,,,,,,,,,,,,,,,,,,,,,,,,,,,,,,,,,,,,,,,,,29.028610199922696,29.431057800073177,29.412274500122294,29.513811900047585,29.91332760010846,None,left,1,0.5772401997819543,29.91332760010846,None,29.412274500122294,29.513811900047585,29.513811900047585,None,30.513814700068906,None,,,,,,,,,,,,,,,,,,,,,,,,,,,,,,11031,001,2024_Jan_11_1050,ANT,2021.2.3,59.88049051326032,
0,9,spatial,up,C,R,1.5,0,1.5,right,RRRRR.png,,,,,,,,0,3,3,8,,,,,,,,,,,,,,,,,,,,,,,,,,,,,,,,,,,,,,,,,,,,,,,,,32.51712190010585,32.91873400006443,32.90078240004368,33.00165440002456,33.403624300146475,None,right,1,0.5113200999330729,33.403624300146475,None,32.90078240004368,33.00165440002456,33.00165440002456,None,33.93652410013601,None,,,,,,,,,,,,,,,,,,,,,,,,,,,,,,11031,001,2024_Jan_11_1050,ANT,2021.2.3,59.88049051326032,
0,2,no,up,IC,R,50,0,1.5,right,LLRLL.png,,,,,,,,0,4,4,1,,,,,,,,,,,,,,,,,,,,,,,,,,,,,,,,,,,,,,,,,,,,,,,,,35.93958660005592,36.340094099985436,36.32263220008463,36.422782900044695,36.82451730011962,None,right,1,0.6180229999590665,36.82451730011962,None,36.32263220008463,36.422782900044695,36.422782900044695,None,37.474421499995515,None,,,,,,,,,,,,,,,,,,,,,,,,,,,,,,11031,001,2024_Jan_11_1050,ANT,2021.2.3,59.88049051326032,
0,6,center,up,IC,R,0,50,1.5,right,LLRLL.png,,,,,,,,0,5,5,5,,,,,,,,,,,,,,,,,,,,,,,,,,,,,,,,,,,,,,,,,,,,,,,,,39.47761259996332,39.87878039991483,39.862257400061935,39.962562599917874,40.36224339995533,None,right,1,0.528294499963522,40.36224339995533,None,39.862257400061935,39.962562599917874,39.962562599917874,None,40.9127364999149,None,,,,,,,,,,,,,,,,,,,,,,,,,,,,,,11031,001,2024_Jan_11_1050,ANT,2021.2.3,59.88049051326032,
0,10,spatial,up,IC,L,1.5,0,1.5,left,RRLRR.png,,,,,,,,0,6,6,9,,,,,,,,,,,,,,,,,,,,,,,,,,,,,,,,,,,,,,,,,,,,,,,,,42.91583020007238,43.316480400040746,43.300892499974,43.40135210007429,43.80100090010092,None,left,1,0.561956400051713,43.80100090010092,None,43.300892499974,43.40135210007429,43.40135210007429,None,44.38455950003117,None,,,,,,,,,,,,,,,,,,,,,,,,,,,,,,11031,001,2024_Jan_11_1050,ANT,2021.2.3,59.88049051326032,
0,12,spatial,down,IC,R,-1.5,0,-1.5,right,LLRLL.png,,,,,,,,0,7,7,11,,,,,,,,,,,,,,,,,,,,,,,,,,,,,,,,,,,,,,,,,,,,,,,,,46.387562199961394,46.788263000082225,46.77365500014275,46.872712099924684,47.27336200000718,None,right,1,0.7612456001807004,47.27336200000718,None,46.77365500014275,46.872712099924684,46.872712099924684,None,48.05741470004432,None,,,,,,,,,,,,,,,,,,,,,,,,,,,,,,11031,001,2024_Jan_11_1050,ANT,2021.2.3,59.88049051326032,
0,3,no,down,C,R,50,0,-1.5,right,RRRRR.png,,,,,,,,0,8,8,2,,,,,,,,,,,,,,,,,,,,,,,,,,,,,,,,,,,,,,,,,,,,,,,,,50.0596595001407,50.46098190010525,50.44436950003728,50.54370289994404,50.94653670000844,None,right,1,0.5844149000477046,50.94653670000844,None,50.44436950003728,50.54370289994404,50.54370289994404,None,51.54492280003615,None,,,,,,,,,,,,,,,,,,,,,,,,,,,,,,11031,001,2024_Jan_11_1050,ANT,2021.2.3,59.88049051326032,
0,8,center,down,IC,L,0,50,-1.5,left,RRLRR.png,,,,,,,,0,9,9,7,,,,,,,,,,,,,,,,,,,,,,,,,,,,,,,,,,,,,,,,,,,,,,,,,53.54821490007453,53.94894340005703,53.932691799942404,54.03237090003677,54.43458770005964,None,left,1,0.504533699946478,54.43458770005964,None,53.932691799942404,54.03237090003677,54.03237090003677,None,54.96726109995507,None,,,,,,,,,,,,,,,,,,,,,,,,,,,,,,11031,001,2024_Jan_11_1050,ANT,2021.2.3,59.88049051326032,
0,4,no,down,IC,L,50,0,-1.5,left,RRLRR.png,,,,,,,,0,10,10,3,,,,,,,,,,,,,,,,,,,,,,,,,,,,,,,,,,,,,,,,,,,,,,,,,56.971257800003514,57.37175359996036,57.353872700128704,57.45464810007252,57.85440910002217,None,left,1,0.5083893998526037,57.85440910002217,None,57.353872700128704,57.45464810007252,57.45464810007252,None,58.3886401001364,None,,,,,,,,,,,,,,,,,,,,,,,,,,,,,,11031,001,2024_Jan_11_1050,ANT,2021.2.3,59.88049051326032,
0,11,spatial,down,C,L,-1.5,0,-1.5,left,LLLLL.png,,,,,,,,0,11,11,10,,,,,,,,,,,,,,,,,,,,,,,,,,,,,,,,,,,,,,,,,,,,,,,,,60.39297299995087,60.793200300075114,60.775681799976155,60.8764309999533,61.276411399943754,None,left,1,0.42238979996182024,61.276411399943754,None,60.775681799976155,60.8764309999533,60.8764309999533,None,61.72687259991653,None,,,,,,,,,,,,,,,,,,,,,,,,,,,,,,11031,001,2024_Jan_11_1050,ANT,2021.2.3,59.88049051326032,
,,,,,,,,,,,,,,,,,,,,,,,,,,,,,,,,,,,,,,,,,,,,,,,,,,,,,,,,,,,,,,,,,,,,,,,,,,,,,,,,,,,,,,,space,21.17661129985936,63.73020270001143,None,,,,,,,,,,,,,,,,,,,,,,,,,,11031,001,2024_Jan_11_1050,ANT,2021.2.3,59.88049051326032,
1,16,center,down,IC,R,,,,,,Block.xlsx,"你已经完成了第一个实验区组

请稍作休息


点击空格键进入下一个区组。",0,50,-1.5,right,LLRLL.png,,,,,0,0,0,0,0,0,0,15,,,,,,,,,,,,,,,,,,,,,,,,,,,,,,,,,,,,,,,,,,,,,,,,,,,,,,,,,,,,,,63.73020270001143,None,84.9625393000897,85.36369449994527,85.34578739991412,85.44545660004951,85.84688570001163,None,right,1,0.7078591000754386,85.84688570001163,None,85.34578739991412,85.44545660004951,85.44545660004951,None,86.58086190000176,None,,,,,,,11031,001,2024_Jan_11_1050,ANT,2021.2.3,59.88049051326032,
1,6,no,down,C,R,,,,,,Block.xlsx,"你已经完成了第一个实验区组

请稍作休息


点击空格键进入下一个区组。",50,0,-1.5,right,RRRRR.png,,,,,0,0,0,0,0,1,1,5,,,,,,,,,,,,,,,,,,,,,,,,,,,,,,,,,,,,,,,,,,,,,,,,,,,,,,,,,,,,,,,,86.98114809999242,87.38163680001162,87.36610290012322,87.46606160001829,87.86733000003733,None,right,1,0.7353922999463975,87.86733000003733,None,87.36610290012322,87.46606160001829,87.46606160001829,None,88.63362550013699,None,,,,,,,11031,001,2024_Jan_11_1050,ANT,2021.2.3,59.88049051326032,
1,5,no,down,C,L,,,,,,Block.xlsx,"你已经完成了第一个实验区组

请稍作休息


点击空格键进入下一个区组。",50,0,-1.5,left,LLLLL.png,,,,,0,0,0,0,0,2,2,4,,,,,,,,,,,,,,,,,,,,,,,,,,,,,,,,,,,,,,,,,,,,,,,,,,,,,,,,,,,,,,,,89.03390530007891,89.43624790012836,89.4189055999741,89.51942220004275,89.91943849995732,None,left,1,0.5315517000854015,89.91943849995732,None,89.4189055999741,89.51942220004275,89.51942220004275,None,90.46996299992315,None,,,,,,,11031,001,2024_Jan_11_1050,ANT,2021.2.3,59.88049051326032,
1,12,center,up,IC,R,,,,,,Block.xlsx,"你已经完成了第一个实验区组

请稍作休息


点击空格键进入下一个区组。",0,50,1.5,right,LLRLL.png,,,,,0,0,0,0,0,3,3,11,,,,,,,,,,,,,,,,,,,,,,,,,,,,,,,,,,,,,,,,,,,,,,,,,,,,,,,,,,,,,,,,90.8699674999807,91.27127999998629,91.25408410001546,91.35472499998286,91.75488190003671,None,right,1,0.9118513998109847,91.75488190003671,None,91.25408410001546,91.35472499998286,91.35472499998286,None,92.68969119992107,None,,,,,,,11031,001,2024_Jan_11_1050,ANT,2021.2.3,59.88049051326032,
1,21,spatial,down,C,L,,,,,,Block.xlsx,"你已经完成了第一个实验区组

请稍作休息


点击空格键进入下一个区组。",-1.5,0,-1.5,left,LLLLL.png,,,,,0,0,0,0,0,4,4,20,,,,,,,,,,,,,,,,,,,,,,,,,,,,,,,,,,,,,,,,,,,,,,,,,,,,,,,,,,,,,,,,93.09020370012149,93.49160740012303,93.47589730005711,93.57477569999173,93.97456720005721,None,left,1,0.651991399936378,93.97456720005721,None,93.47589730005711,93.57477569999173,93.57477569999173,None,94.64240050013177,None,,,,,,,11031,001,2024_Jan_11_1050,ANT,2021.2.3,59.88049051326032,
1,8,no,down,IC,R,,,,,,Block.xlsx,"你已经完成了第一个实验区组

请稍作休息


点击空格键进入下一个区组。",50,0,-1.5,right,LLRLL.png,,,,,0,0,0,0,0,5,5,7,,,,,,,,,,,,,,,,,,,,,,,,,,,,,,,,,,,,,,,,,,,,,,,,,,,,,,,,,,,,,,,,95.04313810006715,95.44461010000668,95.4269797001034,95.528009200003,95.92848449992016,None,right,1,0.6340506998822093,95.92848449992016,None,95.4269797001034,95.528009200003,95.528009200003,None,96.57844860013574,None,,,,,,,11031,001,2024_Jan_11_1050,ANT,2021.2.3,59.88049051326032,
1,4,no,up,IC,R,,,,,,Block.xlsx,"你已经完成了第一个实验区组

请稍作休息


点击空格键进入下一个区组。",50,0,1.5,right,LLRLL.png,,,,,0,0,0,0,0,6,6,3,,,,,,,,,,,,,,,,,,,,,,,,,,,,,,,,,,,,,,,,,,,,,,,,,,,,,,,,,,,,,,,,96.9792569000274,97.38219829997979,97.36305949999951,97.46424590004608,97.86453010002151,None,right,1,0.6262664999812841,97.86453010002151,None,97.36305949999951,97.46424590004608,97.46424590004608,None,98.51486110012047,None,,,,,,,11031,001,2024_Jan_11_1050,ANT,2021.2.3,59.88049051326032,
1,20,spatial,up,IC,R,,,,,,Block.xlsx,"你已经完成了第一个实验区组

请稍作休息


点击空格键进入下一个区组。",1.5,0,1.5,right,LLRLL.png,,,,,0,0,0,0,0,7,7,19,,,,,,,,,,,,,,,,,,,,,,,,,,,,,,,,,,,,,,,,,,,,,,,,,,,,,,,,,,,,,,,,98.91538910008967,99.3170223000925,99.30042669991963,99.4000063999556,99.80053839995526,None,right,1,0.4582251999527216,99.80053839995526,None,99.30042669991963,99.4000063999556,99.4000063999556,None,100.28466810006648,None,,,,,,,11031,001,2024_Jan_11_1050,ANT,2021.2.3,59.88049051326032,
1,22,spatial,down,C,R,,,,,,Block.xlsx,"你已经完成了第一个实验区组

请稍作休息


点击空格键进入下一个区组。",-1.5,0,-1.5,right,RRRRR.png,,,,,0,0,0,0,0,8,8,21,,,,,,,,,,,,,,,,,,,,,,,,,,,,,,,,,,,,,,,,,,,,,,,,,,,,,,,,,,,,,,,,100.68557310011238,101.08542430005036,101.0707618999295,101.18619429995306,101.569627400022,None,right,1,0.5690772999078035,101.569627400022,None,101.0707618999295,101.18619429995306,101.17026509996504,None,102.15349539997987,None,,,,,,,11031,001,2024_Jan_11_1050,ANT,2021.2.3,59.88049051326032,
1,17,spatial,up,C,L,,,,,,Block.xlsx,"你已经完成了第一个实验区组

请稍作休息


点击空格键进入下一个区组。",1.5,0,1.5,left,LLLLL.png,,,,,0,0,0,0,0,9,9,16,,,,,,,,,,,,,,,,,,,,,,,,,,,,,,,,,,,,,,,,,,,,,,,,,,,,,,,,,,,,,,,,102.55422340007499,102.95535870012827,102.93855320010334,103.0383896001149,103.44035469996743,None,left,1,0.47436629980802536,103.44035469996743,None,102.93855320010334,103.0383896001149,103.0383896001149,None,103.93944350001402,None,,,,,,,11031,001,2024_Jan_11_1050,ANT,2021.2.3,59.88049051326032,
1,1,no,up,C,L,,,,,,Block.xlsx,"你已经完成了第一个实验区组

请稍作休息


点击空格键进入下一个区组。",50,0,1.5,left,LLLLL.png,,,,,0,0,0,0,0,10,10,0,,,,,,,,,,,,,,,,,,,,,,,,,,,,,,,,,,,,,,,,,,,,,,,,,,,,,,,,,,,,,,,,104.34011150011793,104.74096000008285,104.72461179993115,104.82498229993507,105.22481369995512,None,left,1,0.4659954998642206,105.22481369995512,None,104.72461179993115,104.82498229993507,104.82498229993507,None,105.70881320000626,None,,,,,,,11031,001,2024_Jan_11_1050,ANT,2021.2.3,59.88049051326032,
1,7,no,down,IC,L,,,,,,Block.xlsx,"你已经完成了第一个实验区组

请稍作休息


点击空格键进入下一个区组。",50,0,-1.5,left,RRLRR.png,,,,,0,0,0,0,0,11,11,6,,,,,,,,,,,,,,,,,,,,,,,,,,,,,,,,,,,,,,,,,,,,,,,,,,,,,,,,,,,,,,,,106.10961990011856,106.51076660002582,106.49511429993436,106.61156650003977,106.99481260008179,None,left,1,0.7358240999747068,106.99481260008179,None,106.49511429993436,106.61156650003977,106.59366229991429,None,107.744974500034,None,,,,,,,11031,001,2024_Jan_11_1050,ANT,2021.2.3,59.88049051326032,
1,1,no,up,C,L,,,,,,Block.xlsx,"你已经完成了第一个实验区组

请稍作休息


点击空格键进入下一个区组。",50,0,1.5,left,LLLLL.png,,,,,0,0,0,0,0,12,12,0,,,,,,,,,,,,,,,,,,,,,,,,,,,,,,,,,,,,,,,,,,,,,,,,,,,,,,,,,,,,,,,,108.14583829999901,108.5467437999323,108.5303939001169,108.63094529998489,109.03055129991844,None,left,1,0.5492312998976558,109.03055129991844,None,108.5303939001169,108.63094529998489,108.63094529998489,None,109.59770380007103,None,,,,,,,11031,001,2024_Jan_11_1050,ANT,2021.2.3,59.88049051326032,
1,23,spatial,down,IC,L,,,,,,Block.xlsx,"你已经完成了第一个实验区组

请稍作休息


点击空格键进入下一个区组。",-1.5,0,-1.5,left,RRLRR.png,,,,,0,0,0,0,0,13,13,22,,,,,,,,,,,,,,,,,,,,,,,,,,,,,,,,,,,,,,,,,,,,,,,,,,,,,,,,,,,,,,,,109.99861230002716,110.39996329997666,110.38371710013598,110.4992919000797,110.88327220012434,None,left,1,0.5517608998343349,110.88327220012434,None,110.38371710013598,110.4992919000797,110.48386389994994,None,111.45131670008413,None,,,,,,,11031,001,2024_Jan_11_1050,ANT,2021.2.3,59.88049051326032,
1,23,spatial,down,IC,L,,,,,,Block.xlsx,"你已经完成了第一个实验区组

请稍作休息


点击空格键进入下一个区组。",-1.5,0,-1.5,left,RRLRR.png,,,,,0,0,0,0,0,14,14,22,,,,,,,,,,,,,,,,,,,,,,,,,,,,,,,,,,,,,,,,,,,,,,,,,,,,,,,,,,,,,,,,111.85181070002727,112.2542962001171,112.2354860000778,112.33668980002403,112.73665879992768,None,left,1,0.6179997001308948,112.73665879992768,None,112.2354860000778,112.33668980002403,112.33668980002403,None,113.37051569996402,None,,,,,,,11031,001,2024_Jan_11_1050,ANT,2021.2.3,59.88049051326032,
1,11,center,up,IC,L,,,,,,Block.xlsx,"你已经完成了第一个实验区组

请稍作休息


点击空格键进入下一个区组。",0,50,1.5,left,RRLRR.png,,,,,0,0,0,0,0,15,15,10,,,,,,,,,,,,,,,,,,,,,,,,,,,,,,,,,,,,,,,,,,,,,,,,,,,,,,,,,,,,,,,,113.77074400009587,114.17133060004562,114.1550922000315,114.25574980000965,114.6578117001336,None,left,1,0.5533205000683665,114.6578117001336,None,114.1550922000315,114.25574980000965,114.25574980000965,None,115.23997150012292,None,,,,,,,11031,001,2024_Jan_11_1050,ANT,2021.2.3,59.88049051326032,
1,9,center,up,C,L,,,,,,Block.xlsx,"你已经完成了第一个实验区组

请稍作休息


点击空格键进入下一个区组。",0,50,1.5,left,LLLLL.png,,,,,0,0,0,0,0,16,16,8,,,,,,,,,,,,,,,,,,,,,,,,,,,,,,,,,,,,,,,,,,,,,,,,,,,,,,,,,,,,,,,,115.64008180005476,116.04190340009518,116.0253508000169,116.12642899993807,116.52571179997176,None,left,1,0.4931853001471609,116.52571179997176,None,116.0253508000169,116.12642899993807,116.12642899993807,None,117.0423340999987,None,,,,,,,11031,001,2024_Jan_11_1050,ANT,2021.2.3,59.88049051326032,
1,17,spatial,up,C,L,,,,,,Block.xlsx,"你已经完成了第一个实验区组

请稍作休息


点击空格键进入下一个区组。",1.5,0,1.5,left,LLLLL.png,,,,,0,0,0,0,0,17,17,16,,,,,,,,,,,,,,,,,,,,,,,,,,,,,,,,,,,,,,,,,,,,,,,,,,,,,,,,,,,,,,,,117.44377320003696,117.84492529998533,117.82729610009119,117.92694790009409,118.32833450008184,None,left,1,0.4342479999177158,118.32833450008184,None,117.82729610009119,117.92694790009409,117.92694790009409,None,118.77809030003846,None,,,,,,,11031,001,2024_Jan_11_1050,ANT,2021.2.3,59.88049051326032,
1,7,no,down,IC,L,,,,,,Block.xlsx,"你已经完成了第一个实验区组

请稍作休息


点击空格键进入下一个区组。",50,0,-1.5,left,RRLRR.png,,,,,0,0,0,0,0,18,18,6,,,,,,,,,,,,,,,,,,,,,,,,,,,,,,,,,,,,,,,,,,,,,,,,,,,,,,,,,,,,,,,,119.17862550006248,119.58098109997809,119.5631476000417,119.66302149998955,120.0635824999772,None,left,1,0.6432022000662982,120.0635824999772,None,119.5631476000417,119.66302149998955,119.66302149998955,None,120.73118499992415,None,,,,,,,11031,001,2024_Jan_11_1050,ANT,2021.2.3,59.88049051326032,
1,20,spatial,up,IC,R,,,,,,Block.xlsx,"你已经完成了第一个实验区组

请稍作休息


点击空格键进入下一个区组。",1.5,0,1.5,right,LLRLL.png,,,,,0,0,0,0,0,19,19,19,,,,,,,,,,,,,,,,,,,,,,,,,,,,,,,,,,,,,,,,,,,,,,,,,,,,,,,,,,,,,,,,121.13149589998648,121.53222900000401,121.5172506000381,121.61651710001752,122.01648640003987,None,right,1,0.5785842000041157,122.01648640003987,None,121.5172506000381,121.61651710001752,121.61651710001752,None,122.61710670008324,None,,,,,,,11031,001,2024_Jan_11_1050,ANT,2021.2.3,59.88049051326032,
1,4,no,up,IC,R,,,,,,Block.xlsx,"你已经完成了第一个实验区组

请稍作休息


点击空格键进入下一个区组。",50,0,1.5,right,LLRLL.png,,,,,0,0,0,0,0,20,20,3,,,,,,,,,,,,,,,,,,,,,,,,,,,,,,,,,,,,,,,,,,,,,,,,,,,,,,,,,,,,,,,,123.0177591999527,123.41922840010375,123.40174939995632,123.50205540005118,123.90381970000453,None,right,1,0.4996110999491066,123.90381970000453,None,123.40174939995632,123.50205540005118,123.50205540005118,None,124.41969910007901,None,,,,,,,11031,001,2024_Jan_11_1050,ANT,2021.2.3,59.88049051326032,
1,9,center,up,C,L,,,,,,Block.xlsx,"你已经完成了第一个实验区组

请稍作休息


点击空格键进入下一个区组。",0,50,1.5,left,LLLLL.png,,,,,0,0,0,0,0,21,21,8,,,,,,,,,,,,,,,,,,,,,,,,,,,,,,,,,,,,,,,,,,,,,,,,,,,,,,,,,,,,,,,,124.82043209997937,125.22171700000763,125.20455310004763,125.3061458999291,125.7051131001208,None,left,1,0.5299521000124514,125.7051131001208,None,125.20455310004763,125.3061458999291,125.3061458999291,None,126.25574559997767,None,,,,,,,11031,001,2024_Jan_11_1050,ANT,2021.2.3,59.88049051326032,
1,8,no,down,IC,R,,,,,,Block.xlsx,"你已经完成了第一个实验区组

请稍作休息


点击空格键进入下一个区组。",50,0,-1.5,right,LLRLL.png,,,,,0,0,0,0,0,22,22,7,,,,,,,,,,,,,,,,,,,,,,,,,,,,,,,,,,,,,,,,,,,,,,,,,,,,,,,,,,,,,,,,126.65669899992645,127.05771240009926,127.04292419995181,127.15841190004721,127.54151639994234,None,right,1,0.6373625998385251,127.54151639994234,None,127.04292419995181,127.15841190004721,127.14141699997708,None,128.20878840005025,None,,,,,,,11031,001,2024_Jan_11_1050,ANT,2021.2.3,59.88049051326032,
1,11,center,up,IC,L,,,,,,Block.xlsx,"你已经完成了第一个实验区组

请稍作休息


点击空格键进入下一个区组。",0,50,1.5,left,RRLRR.png,,,,,0,0,0,0,0,23,23,10,,,,,,,,,,,,,,,,,,,,,,,,,,,,,,,,,,,,,,,,,,,,,,,,,,,,,,,,,,,,,,,,128.60960690001957,129.01055849995464,128.99418399995193,129.0949800000526,129.4959766000975,None,left,1,0.5228007000405341,129.4959766000975,None,128.99418399995193,129.0949800000526,129.0949800000526,None,130.04549299995415,None,,,,,,,11031,001,2024_Jan_11_1050,ANT,2021.2.3,59.88049051326032,
1,1,no,up,C,L,,,,,,Block.xlsx,"你已经完成了第一个实验区组

请稍作休息


点击空格键进入下一个区组。",50,0,1.5,left,LLLLL.png,,,,,0,0,0,0,1,0,24,0,,,,,,,,,,,,,,,,,,,,,,,,,,,,,,,,,,,,,,,,,,,,,,,,,,,,,,,,,,,,,,,,130.44559919997118,130.84633490000851,130.83030409994535,130.9318413999863,131.3304983000271,None,left,1,0.41745819989591837,131.3304983000271,None,130.83030409994535,130.9318413999863,130.9318413999863,None,131.76395429996774,None,,,,,,,11031,001,2024_Jan_11_1050,ANT,2021.2.3,59.88049051326032,
1,21,spatial,down,C,L,,,,,,Block.xlsx,"你已经完成了第一个实验区组

请稍作休息


点击空格键进入下一个区组。",-1.5,0,-1.5,left,LLLLL.png,,,,,0,0,0,0,1,1,25,20,,,,,,,,,,,,,,,,,,,,,,,,,,,,,,,,,,,,,,,,,,,,,,,,,,,,,,,,,,,,,,,,132.16481290012598,132.56524750008248,132.54983930010349,132.64979670010507,133.04972250014544,None,left,1,0.3770691000390798,133.04972250014544,None,132.54983930010349,132.64979670010507,132.64979670010507,None,133.45034390012734,None,,,,,,,11031,001,2024_Jan_11_1050,ANT,2021.2.3,59.88049051326032,
1,15,center,down,IC,L,,,,,,Block.xlsx,"你已经完成了第一个实验区组

请稍作休息


点击空格键进入下一个区组。",0,50,-1.5,left,RRLRR.png,,,,,0,0,0,0,1,2,26,14,,,,,,,,,,,,,,,,,,,,,,,,,,,,,,,,,,,,,,,,,,,,,,,,,,,,,,,,,,,,,,,,133.8505085001234,134.25242960010655,134.23513550008647,134.33448470011353,134.73519990011118,None,left,1,0.5644066999666393,134.73519990011118,None,134.23513550008647,134.33448470011353,134.33448470011353,None,135.31936919991858,None,,,,,,,11031,001,2024_Jan_11_1050,ANT,2021.2.3,59.88049051326032,
1,11,center,up,IC,L,,,,,,Block.xlsx,"你已经完成了第一个实验区组

请稍作休息


点击空格键进入下一个区组。",0,50,1.5,left,RRLRR.png,,,,,0,0,0,0,1,3,27,10,,,,,,,,,,,,,,,,,,,,,,,,,,,,,,,,,,,,,,,,,,,,,,,,,,,,,,,,,,,,,,,,135.72072380012833,136.12178810010664,136.10393590014428,136.20469809998758,136.605436099926,None,left,1,0.5338653000071645,136.605436099926,None,136.10393590014428,136.20469809998758,136.20469809998758,None,137.1555196000263,None,,,,,,,11031,001,2024_Jan_11_1050,ANT,2021.2.3,59.88049051326032,
1,4,no,up,IC,R,,,,,,Block.xlsx,"你已经完成了第一个实验区组

请稍作休息


点击空格键进入下一个区组。",50,0,1.5,right,LLRLL.png,,,,,0,0,0,0,1,4,28,3,,,,,,,,,,,,,,,,,,,,,,,,,,,,,,,,,,,,,,,,,,,,,,,,,,,,,,,,,,,,,,,,137.55612169997767,137.95677369995974,137.94027499994263,138.04066390008666,138.44069520011544,None,right,1,0.5940270000137389,138.44069520011544,None,137.94027499994263,138.04066390008666,138.04066390008666,None,139.05831589992158,None,,,,,,,11031,001,2024_Jan_11_1050,ANT,2021.2.3,59.88049051326032,
1,2,no,up,C,R,,,,,,Block.xlsx,"你已经完成了第一个实验区组

请稍作休息


点击空格键进入下一个区组。",50,0,1.5,right,RRRRR.png,,,,,0,0,0,0,1,5,29,1,,,,,,,,,,,,,,,,,,,,,,,,,,,,,,,,,,,,,,,,,,,,,,,,,,,,,,,,,,,,,,,,139.45884050009772,139.86041319998913,139.8442905000411,139.94405940012075,140.3448209001217,None,right,1,0.6500784000381827,140.3448209001217,None,139.8442905000411,139.94405940012075,139.94405940012075,None,141.01119480002671,None,,,,,,,11031,001,2024_Jan_11_1050,ANT,2021.2.3,59.88049051326032,
1,19,spatial,up,IC,L,,,,,,Block.xlsx,"你已经完成了第一个实验区组

请稍作休息


点击空格键进入下一个区组。",1.5,0,1.5,left,RRLRR.png,,,,,0,0,0,0,1,6,30,18,,,,,,,,,,,,,,,,,,,,,,,,,,,,,,,,,,,,,,,,,,,,,,,,,,,,,,,,,,,,,,,,141.41206400003284,141.8130390001461,141.7958863999229,141.8957676999271,142.29652000009082,None,left,1,0.5225147001910955,142.29652000009082,None,141.7958863999229,141.8957676999271,141.8957676999271,None,142.84712580009364,None,,,,,,,11031,001,2024_Jan_11_1050,ANT,2021.2.3,59.88049051326032,
1,12,center,up,IC,R,,,,,,Block.xlsx,"你已经完成了第一个实验区组

请稍作休息


点击空格键进入下一个区组。",0,50,1.5,right,LLRLL.png,,,,,0,0,0,0,1,7,31,11,,,,,,,,,,,,,,,,,,,,,,,,,,,,,,,,,,,,,,,,,,,,,,,,,,,,,,,,,,,,,,,,143.24839269998483,143.65039750002325,143.63266150001436,143.73338040011004,144.1329892000649,None,right,1,0.5018120999448001,144.1329892000649,None,143.63266150001436,143.73338040011004,143.73338040011004,None,144.64974629995413,None,,,,,,,11031,001,2024_Jan_11_1050,ANT,2021.2.3,59.88049051326032,
1,4,no,up,IC,R,,,,,,Block.xlsx,"你已经完成了第一个实验区组

请稍作休息


点击空格键进入下一个区组。",50,0,1.5,right,LLRLL.png,,,,,0,0,0,0,1,8,32,3,,,,,,,,,,,,,,,,,,,,,,,,,,,,,,,,,,,,,,,,,,,,,,,,,,,,,,,,,,,,,,,,145.05100079998374,145.4518125001341,145.4350058999844,145.5363491999451,145.9364652999211,None,right,1,0.6422345000319183,145.9364652999211,None,145.4350058999844,145.5363491999451,145.5363491999451,None,146.60264490009286,None,,,,,,,11031,001,2024_Jan_11_1050,ANT,2021.2.3,59.88049051326032,
1,14,center,down,C,R,,,,,,Block.xlsx,"你已经完成了第一个实验区组

请稍作休息


点击空格键进入下一个区组。",0,50,-1.5,right,RRRRR.png,,,,,0,0,0,0,1,9,33,13,,,,,,,,,,,,,,,,,,,,,,,,,,,,,,,,,,,,,,,,,,,,,,,,,,,,,,,,,,,,,,,,147.00335479993373,147.4043586999178,147.38934420002624,147.50428190012462,147.88803629996255,None,right,1,0.6747427999507636,147.88803629996255,None,147.38934420002624,147.50428190012462,147.48822810011916,None,148.58913250011392,None,,,,,,,11031,001,2024_Jan_11_1050,ANT,2021.2.3,59.88049051326032,
1,16,center,down,IC,R,,,,,,Block.xlsx,"你已经完成了第一个实验区组

请稍作休息


点击空格键进入下一个区组。",0,50,-1.5,right,LLRLL.png,,,,,0,0,0,0,1,10,34,15,,,,,,,,,,,,,,,,,,,,,,,,,,,,,,,,,,,,,,,,,,,,,,,,,,,,,,,,,,,,,,,,148.9897473999299,149.39187010005116,149.37389559997246,149.47439350001514,149.87481599999592,None,right,1,0.6325286999344826,149.87481599999592,None,149.37389559997246,149.47439350001514,149.47439350001514,None,150.52519310009666,None,,,,,,,11031,001,2024_Jan_11_1050,ANT,2021.2.3,59.88049051326032,
1,15,center,down,IC,L,,,,,,Block.xlsx,"你已经完成了第一个实验区组

请稍作休息


点击空格键进入下一个区组。",0,50,-1.5,left,RRLRR.png,,,,,0,0,0,0,1,11,35,14,,,,,,,,,,,,,,,,,,,,,,,,,,,,,,,,,,,,,,,,,,,,,,,,,,,,,,,,,,,,,,,,150.92654279991984,151.32738799997605,151.30978040001355,151.41121380007826,151.8113860001322,None,left,1,0.6323009000625461,151.8113860001322,None,151.30978040001355,151.41121380007826,151.41121380007826,None,152.46139069995843,None,,,,,,,11031,001,2024_Jan_11_1050,ANT,2021.2.3,59.88049051326032,
1,3,no,up,IC,L,,,,,,Block.xlsx,"你已经完成了第一个实验区组

请稍作休息


点击空格键进入下一个区组。",50,0,1.5,left,RRLRR.png,,,,,0,0,0,0,1,12,36,2,,,,,,,,,,,,,,,,,,,,,,,,,,,,,,,,,,,,,,,,,,,,,,,,,,,,,,,,,,,,,,,,152.86237240000628,153.26284170011058,153.24730159994215,153.34780360013247,153.7486316000577,None,left,1,0.5663556999061257,153.7486316000577,None,153.24730159994215,153.34780360013247,153.34780360013247,None,154.33072099997662,None,,,,,,,11031,001,2024_Jan_11_1050,ANT,2021.2.3,59.88049051326032,
1,13,center,down,C,L,,,,,,Block.xlsx,"你已经完成了第一个实验区组

请稍作休息


点击空格键进入下一个区组。",0,50,-1.5,left,LLLLL.png,,,,,0,0,0,0,1,13,37,12,,,,,,,,,,,,,,,,,,,,,,,,,,,,,,,,,,,,,,,,,,,,,,,,,,,,,,,,,,,,,,,,154.73225330002606,155.13270770013332,155.11563839996234,155.21775580011308,155.6173743000254,None,left,1,0.593461100012064,155.6173743000254,None,155.11563839996234,155.21775580011308,155.21775580011308,None,156.23360179993324,None,,,,,,,11031,001,2024_Jan_11_1050,ANT,2021.2.3,59.88049051326032,
1,14,center,down,C,R,,,,,,Block.xlsx,"你已经完成了第一个实验区组

请稍作休息


点击空格键进入下一个区组。",0,50,-1.5,right,RRRRR.png,,,,,0,0,0,0,1,14,38,13,,,,,,,,,,,,,,,,,,,,,,,,,,,,,,,,,,,,,,,,,,,,,,,,,,,,,,,,,,,,,,,,156.63508699997328,157.03502440010197,157.01871989993379,157.11841029999778,157.52040189993568,None,right,1,0.5475306999869645,157.52040189993568,None,157.01871989993379,157.11841029999778,157.11841029999778,None,158.08634999999776,None,,,,,,,11031,001,2024_Jan_11_1050,ANT,2021.2.3,59.88049051326032,
1,18,spatial,up,C,R,,,,,,Block.xlsx,"你已经完成了第一个实验区组

请稍作休息


点击空格键进入下一个区组。",1.5,0,1.5,right,RRRRR.png,,,,,0,0,0,0,1,15,39,17,,,,,,,,,,,,,,,,,,,,,,,,,,,,,,,,,,,,,,,,,,,,,,,,,,,,,,,,,,,,,,,,158.48734940006398,158.8888332999777,158.87103749997914,158.97251280001365,159.37414789991453,None,right,1,0.4767824001610279,159.37414789991453,None,158.87103749997914,158.97251280001365,158.97251280001365,None,159.8722530999221,None,,,,,,,11031,001,2024_Jan_11_1050,ANT,2021.2.3,59.88049051326032,
1,6,no,down,C,R,,,,,,Block.xlsx,"你已经完成了第一个实验区组

请稍作休息


点击空格键进入下一个区组。",50,0,-1.5,right,RRRRR.png,,,,,0,0,0,0,1,16,40,5,,,,,,,,,,,,,,,,,,,,,,,,,,,,,,,,,,,,,,,,,,,,,,,,,,,,,,,,,,,,,,,,160.27311330009252,160.67423060000874,160.65722479997203,160.75921500008553,161.15781700005755,None,right,1,0.5570007001515478,161.15781700005755,None,160.65722479997203,160.75921500008553,160.75921500008553,None,161.74206570000388,None,,,,,,,11031,001,2024_Jan_11_1050,ANT,2021.2.3,59.88049051326032,
1,9,center,up,C,L,,,,,,Block.xlsx,"你已经完成了第一个实验区组

请稍作休息


点击空格键进入下一个区组。",0,50,1.5,left,LLLLL.png,,,,,0,0,0,0,1,17,41,8,,,,,,,,,,,,,,,,,,,,,,,,,,,,,,,,,,,,,,,,,,,,,,,,,,,,,,,,,,,,,,,,162.142501299968,162.54401690000668,162.52832440007478,162.62664479995146,163.0283206999302,None,left,1,0.4469547998160124,163.0283206999302,None,162.52832440007478,162.62664479995146,162.62664479995146,None,163.49429840012453,None,,,,,,,11031,001,2024_Jan_11_1050,ANT,2021.2.3,59.88049051326032,
1,5,no,down,C,L,,,,,,Block.xlsx,"你已经完成了第一个实验区组

请稍作休息


点击空格键进入下一个区组。",50,0,-1.5,left,LLLLL.png,,,,,0,0,0,0,1,18,42,4,,,,,,,,,,,,,,,,,,,,,,,,,,,,,,,,,,,,,,,,,,,,,,,,,,,,,,,,,,,,,,,,163.89499350008555,164.29715760005638,164.27953930012882,164.37990329996683,164.78031529998407,None,left,1,0.6707582001108676,164.78031529998407,None,164.27953930012882,164.37990329996683,164.37990329996683,None,165.4807712000329,None,,,,,,,11031,001,2024_Jan_11_1050,ANT,2021.2.3,59.88049051326032,
1,14,center,down,C,R,,,,,,Block.xlsx,"你已经完成了第一个实验区组

请稍作休息


点击空格键进入下一个区组。",0,50,-1.5,right,RRRRR.png,,,,,0,0,0,0,1,19,43,13,,,,,,,,,,,,,,,,,,,,,,,,,,,,,,,,,,,,,,,,,,,,,,,,,,,,,,,,,,,,,,,,165.88128650002182,166.28364380006678,166.26613280014135,166.3654328000266,166.7659541000612,None,right,1,1.0128430998884141,166.7659541000612,None,166.26613280014135,166.3654328000266,166.3654328000266,None,167.80081739998423,None,,,,,,,11031,001,2024_Jan_11_1050,ANT,2021.2.3,59.88049051326032,
1,20,spatial,up,IC,R,,,,,,Block.xlsx,"你已经完成了第一个实验区组

请稍作休息


点击空格键进入下一个区组。",1.5,0,1.5,right,LLRLL.png,,,,,0,0,0,0,1,20,44,19,,,,,,,,,,,,,,,,,,,,,,,,,,,,,,,,,,,,,,,,,,,,,,,,,,,,,,,,,,,,,,,,168.20189359993674,168.6018968001008,168.58699760003947,168.68660040013492,169.08614769997075,None,right,1,0.6925905998796225,169.08614769997075,None,168.58699760003947,168.68660040013492,168.68660040013492,None,169.80407440010458,None,,,,,,,11031,001,2024_Jan_11_1050,ANT,2021.2.3,59.88049051326032,
1,24,spatial,down,IC,R,,,,,,Block.xlsx,"你已经完成了第一个实验区组

请稍作休息


点击空格键进入下一个区组。",-1.5,0,-1.5,right,LLRLL.png,,,,,0,0,0,0,1,21,45,23,,,,,,,,,,,,,,,,,,,,,,,,,,,,,,,,,,,,,,,,,,,,,,,,,,,,,,,,,,,,,,,,170.20439520012587,170.60518660000525,170.5891209000256,170.6896441001445,171.08964259992354,None,right,1,0.5052442001178861,171.08964259992354,None,170.5891209000256,170.6896441001445,170.6896441001445,None,171.62341010011733,None,,,,,,,11031,001,2024_Jan_11_1050,ANT,2021.2.3,59.88049051326032,
1,3,no,up,IC,L,,,,,,Block.xlsx,"你已经完成了第一个实验区组

请稍作休息


点击空格键进入下一个区组。",50,0,1.5,left,RRLRR.png,,,,,0,0,0,0,1,22,46,2,,,,,,,,,,,,,,,,,,,,,,,,,,,,,,,,,,,,,,,,,,,,,,,,,,,,,,,,,,,,,,,,172.02395770000294,172.42438090010546,172.40847550006583,172.50864879996516,172.91083860001527,None,left,1,0.6759182000532746,172.91083860001527,None,172.40847550006583,172.50864879996516,172.50864879996516,None,173.60961010004394,None,,,,,,,11031,001,2024_Jan_11_1050,ANT,2021.2.3,59.88049051326032,
1,7,no,down,IC,L,,,,,,Block.xlsx,"你已经完成了第一个实验区组

请稍作休息


点击空格键进入下一个区组。",50,0,-1.5,left,RRLRR.png,,,,,0,0,0,0,1,23,47,6,,,,,,,,,,,,,,,,,,,,,,,,,,,,,,,,,,,,,,,,,,,,,,,,,,,,,,,,,,,,,,,,174.01005079993047,174.41092039993964,174.39477799995802,174.49550730013289,174.8952941999305,None,left,1,0.6194787998683751,174.8952941999305,None,174.39477799995802,174.49550730013289,174.49550730013289,None,175.54573100013658,None,,,,,,,11031,001,2024_Jan_11_1050,ANT,2021.2.3,59.88049051326032,
1,5,no,down,C,L,,,,,,Block.xlsx,"你已经完成了第一个实验区组

请稍作休息


点击空格键进入下一个区组。",50,0,-1.5,left,LLLLL.png,,,,,0,0,0,0,2,0,48,4,,,,,,,,,,,,,,,,,,,,,,,,,,,,,,,,,,,,,,,,,,,,,,,,,,,,,,,,,,,,,,,,175.9470258001238,176.348199600121,176.3303336999379,176.43072970001958,176.83102830010466,None,left,1,0.6529713000636548,176.83102830010466,None,176.3303336999379,176.43072970001958,176.43072970001958,None,177.49849770008586,None,,,,,,,11031,001,2024_Jan_11_1050,ANT,2021.2.3,59.88049051326032,
1,2,no,up,C,R,,,,,,Block.xlsx,"你已经完成了第一个实验区组

请稍作休息


点击空格键进入下一个区组。",50,0,1.5,right,RRRRR.png,,,,,0,0,0,0,2,1,49,1,,,,,,,,,,,,,,,,,,,,,,,,,,,,,,,,,,,,,,,,,,,,,,,,,,,,,,,,,,,,,,,,177.89916749997064,178.30044020013884,178.2846820000559,178.400139400037,178.78560289996676,None,right,1,0.62542669987306,178.78560289996676,None,178.2846820000559,178.400139400037,178.3847521999851,None,179.4347276999615,None,,,,,,,11031,001,2024_Jan_11_1050,ANT,2021.2.3,59.88049051326032,
1,17,spatial,up,C,L,,,,,,Block.xlsx,"你已经完成了第一个实验区组

请稍作休息


点击空格键进入下一个区组。",1.5,0,1.5,left,LLLLL.png,,,,,0,0,0,0,2,2,50,16,,,,,,,,,,,,,,,,,,,,,,,,,,,,,,,,,,,,,,,,,,,,,,,,,,,,,,,,,,,,,,,,179.83513040002435,180.2366156000644,180.22158539993688,180.3199547000695,180.7212167000398,None,left,1,0.4978458001278341,180.7212167000398,None,180.22158539993688,180.3199547000695,180.3199547000695,None,181.2369103000965,None,,,,,,,11031,001,2024_Jan_11_1050,ANT,2021.2.3,59.88049051326032,
1,2,no,up,C,R,,,,,,Block.xlsx,"你已经完成了第一个实验区组

请稍作休息


点击空格键进入下一个区组。",50,0,1.5,right,RRRRR.png,,,,,0,0,0,0,2,3,51,1,,,,,,,,,,,,,,,,,,,,,,,,,,,,,,,,,,,,,,,,,,,,,,,,,,,,,,,,,,,,,,,,181.63848720001988,182.0392483000178,182.0219827000983,182.1226884999778,182.5245842000004,None,right,1,0.7262559998780489,182.5245842000004,None,182.0219827000983,182.1226884999778,182.1226884999778,None,183.27377390000038,None,,,,,,,11031,001,2024_Jan_11_1050,ANT,2021.2.3,59.88049051326032,
1,3,no,up,IC,L,,,,,,Block.xlsx,"你已经完成了第一个实验区组

请稍作休息


点击空格键进入下一个区组。",50,0,1.5,left,RRLRR.png,,,,,0,0,0,0,2,4,52,2,,,,,,,,,,,,,,,,,,,,,,,,,,,,,,,,,,,,,,,,,,,,,,,,,,,,,,,,,,,,,,,,183.67489030002616,184.07578129996546,184.05827310006134,184.15962569997646,184.55985069996677,None,left,1,0.547361999982968,184.55985069996677,None,184.05827310006134,184.15962569997646,184.15962569997646,None,185.1266032999847,None,,,,,,,11031,001,2024_Jan_11_1050,ANT,2021.2.3,59.88049051326032,
1,6,no,down,C,R,,,,,,Block.xlsx,"你已经完成了第一个实验区组

请稍作休息


点击空格键进入下一个区组。",50,0,-1.5,right,RRRRR.png,,,,,0,0,0,0,2,5,53,5,,,,,,,,,,,,,,,,,,,,,,,,,,,,,,,,,,,,,,,,,,,,,,,,,,,,,,,,,,,,,,,,185.52705110004172,185.92840799991973,185.91231289994903,186.01123990002088,186.41231329995207,None,right,1,0.6947902000974864,186.41231329995207,None,185.91231289994903,186.01123990002088,186.01123990002088,None,187.12952350010164,None,,,,,,,11031,001,2024_Jan_11_1050,ANT,2021.2.3,59.88049051326032,
1,10,center,up,C,R,,,,,,Block.xlsx,"你已经完成了第一个实验区组

请稍作休息


点击空格键进入下一个区组。",0,50,1.5,right,RRRRR.png,,,,,0,0,0,0,2,6,54,9,,,,,,,,,,,,,,,,,,,,,,,,,,,,,,,,,,,,,,,,,,,,,,,,,,,,,,,,,,,,,,,,187.52996139996685,187.9316096000839,187.9139875001274,188.01492190011777,188.41491340007633,None,right,1,0.7165689999237657,188.41491340007633,None,187.9139875001274,188.01492190011777,188.01492190011777,None,189.14921570010483,None,,,,,,,11031,001,2024_Jan_11_1050,ANT,2021.2.3,59.88049051326032,
1,19,spatial,up,IC,L,,,,,,Block.xlsx,"你已经完成了第一个实验区组

请稍作休息


点击空格键进入下一个区组。",1.5,0,1.5,left,RRLRR.png,,,,,0,0,0,0,2,7,55,18,,,,,,,,,,,,,,,,,,,,,,,,,,,,,,,,,,,,,,,,,,,,,,,,,,,,,,,,,,,,,,,,189.54976069997065,189.95142729999498,189.93451629998162,190.03458520001732,190.4344649000559,None,left,1,0.5363720001187176,190.4344649000559,None,189.93451629998162,190.03458520001732,190.03458520001732,None,191.00164210004732,None,,,,,,,11031,001,2024_Jan_11_1050,ANT,2021.2.3,59.88049051326032,
1,19,spatial,up,IC,L,,,,,,Block.xlsx,"你已经完成了第一个实验区组

请稍作休息


点击空格键进入下一个区组。",1.5,0,1.5,left,RRLRR.png,,,,,0,0,0,0,2,8,56,18,,,,,,,,,,,,,,,,,,,,,,,,,,,,,,,,,,,,,,,,,,,,,,,,,,,,,,,,,,,,,,,,191.4035704000853,191.80312060005963,191.78764250013046,191.8879679001402,192.28844369994476,None,left,1,0.47431339998729527,192.28844369994476,None,191.78764250013046,191.8879679001402,191.8879679001402,None,192.78833490004763,None,,,,,,,11031,001,2024_Jan_11_1050,ANT,2021.2.3,59.88049051326032,
1,13,center,down,C,L,,,,,,Block.xlsx,"你已经完成了第一个实验区组

请稍作休息


点击空格键进入下一个区组。",0,50,-1.5,left,LLLLL.png,,,,,0,0,0,0,2,9,57,12,,,,,,,,,,,,,,,,,,,,,,,,,,,,,,,,,,,,,,,,,,,,,,,,,,,,,,,,,,,,,,,,193.1884695000481,193.58895649993792,193.5745008001104,193.6893498999998,194.07313450006768,None,left,1,0.6026399000547826,194.07313450006768,None,193.5745008001104,193.6893498999998,193.67484580003656,None,194.6908597999718,None,,,,,,,11031,001,2024_Jan_11_1050,ANT,2021.2.3,59.88049051326032,
1,7,no,down,IC,L,,,,,,Block.xlsx,"你已经完成了第一个实验区组

请稍作休息


点击空格键进入下一个区组。",50,0,-1.5,left,RRLRR.png,,,,,0,0,0,0,2,10,58,6,,,,,,,,,,,,,,,,,,,,,,,,,,,,,,,,,,,,,,,,,,,,,,,,,,,,,,,,,,,,,,,,195.09132639993913,195.49219819996506,195.4772986001335,195.57566999993287,195.97682219999842,None,left,1,0.6742018000222743,195.97682219999842,None,195.4772986001335,195.57566999993287,195.57566999993287,None,196.67702740011737,None,,,,,,,11031,001,2024_Jan_11_1050,ANT,2021.2.3,59.88049051326032,
1,20,spatial,up,IC,R,,,,,,Block.xlsx,"你已经完成了第一个实验区组

请稍作休息


点击空格键进入下一个区组。",1.5,0,1.5,right,LLRLL.png,,,,,0,0,0,0,2,11,59,19,,,,,,,,,,,,,,,,,,,,,,,,,,,,,,,,,,,,,,,,,,,,,,,,,,,,,,,,,,,,,,,,197.0775526999496,197.4798380001448,197.4618458999321,197.562363400124,197.96216140012257,None,right,1,0.5525365001522005,197.96216140012257,None,197.4618458999321,197.562363400124,197.562363400124,None,198.52951789996587,None,,,,,,,11031,001,2024_Jan_11_1050,ANT,2021.2.3,59.88049051326032,
1,15,center,down,IC,L,,,,,,Block.xlsx,"你已经完成了第一个实验区组

请稍作休息


点击空格键进入下一个区组。",0,50,-1.5,left,RRLRR.png,,,,,0,0,0,0,2,12,60,14,,,,,,,,,,,,,,,,,,,,,,,,,,,,,,,,,,,,,,,,,,,,,,,,,,,,,,,,,,,,,,,,198.9301094999537,199.3314587001223,199.31587300007232,199.43136400007643,199.81600009999238,None,left,1,1.5950396000407636,199.81600009999238,None,199.31587300007232,199.43136400007643,199.4144898999948,None,201.43404250009917,None,,,,,,,11031,001,2024_Jan_11_1050,ANT,2021.2.3,59.88049051326032,
1,21,spatial,down,C,L,,,,,,Block.xlsx,"你已经完成了第一个实验区组

请稍作休息


点击空格键进入下一个区组。",-1.5,0,-1.5,left,LLLLL.png,,,,,0,0,0,0,2,13,61,20,,,,,,,,,,,,,,,,,,,,,,,,,,,,,,,,,,,,,,,,,,,,,,,,,,,,,,,,,,,,,,,,201.83444730006158,202.23566829995252,202.21910280012526,202.3204212000128,202.72074800007977,None,left,1,0.6349155001807958,202.72074800007977,None,202.21910280012526,202.3204212000128,202.3204212000128,None,203.37017509993166,None,,,,,,,11031,001,2024_Jan_11_1050,ANT,2021.2.3,59.88049051326032,
1,15,center,down,IC,L,,,,,,Block.xlsx,"你已经完成了第一个实验区组

请稍作休息


点击空格键进入下一个区组。",0,50,-1.5,left,RRLRR.png,,,,,0,0,0,0,2,14,62,14,,,,,,,,,,,,,,,,,,,,,,,,,,,,,,,,,,,,,,,,,,,,,,,,,,,,,,,,,,,,,,,,203.77090790006332,204.1721874999348,204.15512829995714,204.25528990011662,204.65587719995528,None,left,1,0.4993741000071168,204.65587719995528,None,204.15512829995714,204.25528990011662,204.25528990011662,None,205.17302810004912,None,,,,,,,11031,001,2024_Jan_11_1050,ANT,2021.2.3,59.88049051326032,
1,13,center,down,C,L,,,,,,Block.xlsx,"你已经完成了第一个实验区组

请稍作休息


点击空格键进入下一个区组。",0,50,-1.5,left,LLLLL.png,,,,,0,0,0,0,2,15,63,12,,,,,,,,,,,,,,,,,,,,,,,,,,,,,,,,,,,,,,,,,,,,,,,,,,,,,,,,,,,,,,,,205.57417330006137,205.97406390006654,205.95832610013895,206.0579149001278,206.45813050004654,None,left,1,0.4086835999041796,206.45813050004654,None,205.95832610013895,206.0579149001278,206.0579149001278,None,206.89204500010237,None,,,,,,,11031,001,2024_Jan_11_1050,ANT,2021.2.3,59.88049051326032,
1,10,center,up,C,R,,,,,,Block.xlsx,"你已经完成了第一个实验区组

请稍作休息


点击空格键进入下一个区组。",0,50,1.5,right,RRRRR.png,,,,,0,0,0,0,2,16,64,9,,,,,,,,,,,,,,,,,,,,,,,,,,,,,,,,,,,,,,,,,,,,,,,,,,,,,,,,,,,,,,,,207.2927862999495,207.69357519992627,207.6779473000206,207.79382070014253,208.17746110004373,None,right,1,0.5133708000648767,208.17746110004373,None,207.6779473000206,207.79382070014253,207.7766338000074,None,208.7122068000026,None,,,,,,,11031,001,2024_Jan_11_1050,ANT,2021.2.3,59.88049051326032,
1,16,center,down,IC,R,,,,,,Block.xlsx,"你已经完成了第一个实验区组

请稍作休息


点击空格键进入下一个区组。",0,50,-1.5,right,LLRLL.png,,,,,0,0,0,0,2,17,65,15,,,,,,,,,,,,,,,,,,,,,,,,,,,,,,,,,,,,,,,,,,,,,,,,,,,,,,,,,,,,,,,,209.11208460014313,209.51301559992135,209.49622380011715,209.59771539992653,209.9967217000667,None,right,1,0.6142846001312137,209.9967217000667,None,209.49622380011715,209.59771539992653,209.59771539992653,None,210.63100029993802,None,,,,,,,11031,001,2024_Jan_11_1050,ANT,2021.2.3,59.88049051326032,
1,8,no,down,IC,R,,,,,,Block.xlsx,"你已经完成了第一个实验区组

请稍作休息


点击空格键进入下一个区组。",50,0,-1.5,right,LLRLL.png,,,,,0,0,0,0,2,18,66,7,,,,,,,,,,,,,,,,,,,,,,,,,,,,,,,,,,,,,,,,,,,,,,,,,,,,,,,,,,,,,,,,211.03272130014375,211.43256210000254,211.41726460005157,211.51660700002685,211.91747929994017,None,right,1,0.4773243998643011,211.91747929994017,None,211.41726460005157,211.51660700002685,211.51660700002685,None,212.4177693000529,None,,,,,,,11031,001,2024_Jan_11_1050,ANT,2021.2.3,59.88049051326032,
1,18,spatial,up,C,R,,,,,,Block.xlsx,"你已经完成了第一个实验区组

请稍作休息


点击空格键进入下一个区组。",1.5,0,1.5,right,RRRRR.png,,,,,0,0,0,0,2,19,67,17,,,,,,,,,,,,,,,,,,,,,,,,,,,,,,,,,,,,,,,,,,,,,,,,,,,,,,,,,,,,,,,,212.81824880000204,213.218726699939,213.20258309994824,213.30235170014203,213.70244270004332,None,right,1,0.7084035000298172,213.70244270004332,None,213.20258309994824,213.30235170014203,213.30235170014203,None,214.43791590002365,None,,,,,,,11031,001,2024_Jan_11_1050,ANT,2021.2.3,59.88049051326032,
1,19,spatial,up,IC,L,,,,,,Block.xlsx,"你已经完成了第一个实验区组

请稍作休息


点击空格键进入下一个区组。",1.5,0,1.5,left,RRLRR.png,,,,,0,0,0,0,2,20,68,18,,,,,,,,,,,,,,,,,,,,,,,,,,,,,,,,,,,,,,,,,,,,,,,,,,,,,,,,,,,,,,,,214.8372881000396,215.23752179997973,215.22099540010095,215.3236390000675,215.7226053001359,None,left,1,0.5044128000736237,215.7226053001359,None,215.22099540010095,215.3236390000675,215.3236390000675,None,216.25606909999624,None,,,,,,,11031,001,2024_Jan_11_1050,ANT,2021.2.3,59.88049051326032,
1,22,spatial,down,C,R,,,,,,Block.xlsx,"你已经完成了第一个实验区组

请稍作休息


点击空格键进入下一个区组。",-1.5,0,-1.5,right,RRRRR.png,,,,,0,0,0,0,2,21,69,21,,,,,,,,,,,,,,,,,,,,,,,,,,,,,,,,,,,,,,,,,,,,,,,,,,,,,,,,,,,,,,,,216.6575796001125,217.05915000010282,217.0405260999687,217.14135579997674,217.54203020012937,None,right,1,0.4130377001129091,217.54203020012937,None,217.0405260999687,217.14135579997674,217.14135579997674,None,217.9749944000505,None,,,,,,,11031,001,2024_Jan_11_1050,ANT,2021.2.3,59.88049051326032,
1,6,no,down,C,R,,,,,,Block.xlsx,"你已经完成了第一个实验区组

请稍作休息


点击空格键进入下一个区组。",50,0,-1.5,right,RRRRR.png,,,,,0,0,0,0,2,22,70,5,,,,,,,,,,,,,,,,,,,,,,,,,,,,,,,,,,,,,,,,,,,,,,,,,,,,,,,,,,,,,,,,218.37608049996197,218.7771857001353,218.75979189993814,218.8618073000107,219.26092920009978,None,right,1,0.41441930015571415,219.26092920009978,None,218.75979189993814,218.8618073000107,218.8618073000107,None,219.6944556001108,None,,,,,,,11031,001,2024_Jan_11_1050,ANT,2021.2.3,59.88049051326032,
1,22,spatial,down,C,R,,,,,,Block.xlsx,"你已经完成了第一个实验区组

请稍作休息


点击空格键进入下一个区组。",-1.5,0,-1.5,right,RRRRR.png,,,,,0,0,0,0,2,23,71,21,,,,,,,,,,,,,,,,,,,,,,,,,,,,,,,,,,,,,,,,,,,,,,,,,,,,,,,,,,,,,,,,220.09499879996292,220.4964344999753,220.4797499999404,220.57952690008096,220.97980060009286,None,right,1,0.4475916000083089,220.97980060009286,None,220.4797499999404,220.57952690008096,220.57952690008096,None,221.4470941000618,None,,,,,,,11031,001,2024_Jan_11_1050,ANT,2021.2.3,59.88049051326032,
1,22,spatial,down,C,R,,,,,,Block.xlsx,"你已经完成了第一个实验区组

请稍作休息


点击空格键进入下一个区组。",-1.5,0,-1.5,right,RRRRR.png,,,,,0,0,0,0,3,0,72,21,,,,,,,,,,,,,,,,,,,,,,,,,,,,,,,,,,,,,,,,,,,,,,,,,,,,,,,,,,,,,,,,221.84762659994885,222.2484303000383,222.23387759993784,222.34965949994512,222.7329647000879,None,right,1,0.3739346000365913,222.7329647000879,None,222.23387759993784,222.34965949994512,222.3318829999771,None,223.13305369997397,None,,,,,,,11031,001,2024_Jan_11_1050,ANT,2021.2.3,59.88049051326032,
1,18,spatial,up,C,R,,,,,,Block.xlsx,"你已经完成了第一个实验区组

请稍作休息


点击空格键进入下一个区组。",1.5,0,1.5,right,RRRRR.png,,,,,0,0,0,0,3,1,73,17,,,,,,,,,,,,,,,,,,,,,,,,,,,,,,,,,,,,,,,,,,,,,,,,,,,,,,,,,,,,,,,,223.53351590014063,223.93478220002726,223.9179116000887,224.01742619997822,224.41907620010898,None,right,1,0.520279300166294,224.41907620010898,None,223.9179116000887,224.01742619997822,224.01742619997822,None,224.968787800055,None,,,,,,,11031,001,2024_Jan_11_1050,ANT,2021.2.3,59.88049051326032,
1,10,center,up,C,R,,,,,,Block.xlsx,"你已经完成了第一个实验区组

请稍作休息


点击空格键进入下一个区组。",0,50,1.5,right,RRRRR.png,,,,,0,0,0,0,3,2,74,9,,,,,,,,,,,,,,,,,,,,,,,,,,,,,,,,,,,,,,,,,,,,,,,,,,,,,,,,,,,,,,,,225.36957460013218,225.77094830013812,225.75364809995517,225.85410539992154,226.25533710001037,None,right,1,0.3957706999499351,226.25533710001037,None,225.75364809995517,225.85410539992154,225.85410539992154,None,226.67130769998766,None,,,,,,,11031,001,2024_Jan_11_1050,ANT,2021.2.3,59.88049051326032,
1,24,spatial,down,IC,R,,,,,,Block.xlsx,"你已经完成了第一个实验区组

请稍作休息


点击空格键进入下一个区组。",-1.5,0,-1.5,right,LLRLL.png,,,,,0,0,0,0,3,3,75,23,,,,,,,,,,,,,,,,,,,,,,,,,,,,,,,,,,,,,,,,,,,,,,,,,,,,,,,,,,,,,,,,227.07271130010486,227.47412590007298,227.45604229997844,227.5586544999387,227.95782040013,None,right,1,0.6781484999228269,227.95782040013,None,227.45604229997844,227.5586544999387,227.5586544999387,None,228.65764979994856,None,,,,,,,11031,001,2024_Jan_11_1050,ANT,2021.2.3,59.88049051326032,
1,23,spatial,down,IC,L,,,,,,Block.xlsx,"你已经完成了第一个实验区组

请稍作休息


点击空格键进入下一个区组。",-1.5,0,-1.5,left,RRLRR.png,,,,,0,0,0,0,3,4,76,22,,,,,,,,,,,,,,,,,,,,,,,,,,,,,,,,,,,,,,,,,,,,,,,,,,,,,,,,,,,,,,,,229.05821759998798,229.46070850011893,229.44279520004056,229.5429160001222,229.94319629995152,None,left,1,0.5645530999172479,229.94319629995152,None,229.44279520004056,229.5429160001222,229.5429160001222,None,230.52716309996322,None,,,,,,,11031,001,2024_Jan_11_1050,ANT,2021.2.3,59.88049051326032,
1,14,center,down,C,R,,,,,,Block.xlsx,"你已经完成了第一个实验区组

请稍作休息


点击空格键进入下一个区组。",0,50,-1.5,right,RRRRR.png,,,,,0,0,0,0,3,5,77,13,,,,,,,,,,,,,,,,,,,,,,,,,,,,,,,,,,,,,,,,,,,,,,,,,,,,,,,,,,,,,,,,230.92778229992837,231.32995510008186,231.3126219001133,231.41211050003767,231.8129803999327,None,right,1,0.622187800006941,231.8129803999327,None,231.3126219001133,231.41211050003767,231.41211050003767,None,232.46332129999064,None,,,,,,,11031,001,2024_Jan_11_1050,ANT,2021.2.3,59.88049051326032,
1,12,center,up,IC,R,,,,,,Block.xlsx,"你已经完成了第一个实验区组

请稍作休息


点击空格键进入下一个区组。",0,50,1.5,right,LLRLL.png,,,,,0,0,0,0,3,6,78,11,,,,,,,,,,,,,,,,,,,,,,,,,,,,,,,,,,,,,,,,,,,,,,,,,,,,,,,,,,,,,,,,232.86450750008225,233.26542600011453,233.24768400005996,233.34802559996024,233.74952870002016,None,right,1,0.6852263000328094,233.74952870002016,None,233.24768400005996,233.34802559996024,233.34802559996024,None,234.4667066000402,None,,,,,,,11031,001,2024_Jan_11_1050,ANT,2021.2.3,59.88049051326032,
1,13,center,down,C,L,,,,,,Block.xlsx,"你已经完成了第一个实验区组

请稍作休息


点击空格键进入下一个区组。",0,50,-1.5,left,LLLLL.png,,,,,0,0,0,0,3,7,79,12,,,,,,,,,,,,,,,,,,,,,,,,,,,,,,,,,,,,,,,,,,,,,,,,,,,,,,,,,,,,,,,,234.866900900146,235.2685163000133,235.25078899995424,235.35213860007934,235.753653800115,None,left,1,0.8573616000358015,235.753653800115,None,235.25078899995424,235.35213860007934,235.35213860007934,None,236.6363294001203,None,,,,,,,11031,001,2024_Jan_11_1050,ANT,2021.2.3,59.88049051326032,
1,1,no,up,C,L,,,,,,Block.xlsx,"你已经完成了第一个实验区组

请稍作休息


点击空格键进入下一个区组。",50,0,1.5,left,LLLLL.png,,,,,0,0,0,0,3,8,80,0,,,,,,,,,,,,,,,,,,,,,,,,,,,,,,,,,,,,,,,,,,,,,,,,,,,,,,,,,,,,,,,,237.03666649991646,237.43833649996668,237.4221578000579,237.52148839994334,237.92204830003902,None,left,1,0.6010360000655055,237.92204830003902,None,237.4221578000579,237.52148839994334,237.52148839994334,None,238.5388861000538,None,,,,,,,11031,001,2024_Jan_11_1050,ANT,2021.2.3,59.88049051326032,
1,3,no,up,IC,L,,,,,,Block.xlsx,"你已经完成了第一个实验区组

请稍作休息


点击空格键进入下一个区组。",50,0,1.5,left,RRLRR.png,,,,,0,0,0,0,3,9,81,2,,,,,,,,,,,,,,,,,,,,,,,,,,,,,,,,,,,,,,,,,,,,,,,,,,,,,,,,,,,,,,,,238.9394058000762,239.34043520013802,239.3235391001217,239.42448780010454,239.82425589999184,None,left,1,0.5946451001800597,239.82425589999184,None,239.3235391001217,239.42448780010454,239.42448780010454,None,240.44178270013072,None,,,,,,,11031,001,2024_Jan_11_1050,ANT,2021.2.3,59.88049051326032,
1,18,spatial,up,C,R,,,,,,Block.xlsx,"你已经完成了第一个实验区组

请稍作休息


点击空格键进入下一个区组。",1.5,0,1.5,right,RRRRR.png,,,,,0,0,0,0,3,10,82,17,,,,,,,,,,,,,,,,,,,,,,,,,,,,,,,,,,,,,,,,,,,,,,,,,,,,,,,,,,,,,,,,240.84248899994418,241.2437827999238,241.22725160000846,241.32781719998457,241.72717100009322,None,right,1,0.5878766998648643,241.72717100009322,None,241.22725160000846,241.32781719998457,241.32781719998457,None,242.34530899999663,None,,,,,,,11031,001,2024_Jan_11_1050,ANT,2021.2.3,59.88049051326032,
1,10,center,up,C,R,,,,,,Block.xlsx,"你已经完成了第一个实验区组

请稍作休息


点击空格键进入下一个区组。",0,50,1.5,right,RRRRR.png,,,,,0,0,0,0,3,11,83,9,,,,,,,,,,,,,,,,,,,,,,,,,,,,,,,,,,,,,,,,,,,,,,,,,,,,,,,,,,,,,,,,242.7454695000779,243.14603820000775,243.13228030013852,243.2467561000958,243.6299565001391,None,right,1,0.7410188999492675,243.6299565001391,None,243.13228030013852,243.2467561000958,243.2306518999394,None,244.39751169993542,None,,,,,,,11031,001,2024_Jan_11_1050,ANT,2021.2.3,59.88049051326032,
1,11,center,up,IC,L,,,,,,Block.xlsx,"你已经完成了第一个实验区组

请稍作休息


点击空格键进入下一个区组。",0,50,1.5,left,RRLRR.png,,,,,0,0,0,0,3,12,84,10,,,,,,,,,,,,,,,,,,,,,,,,,,,,,,,,,,,,,,,,,,,,,,,,,,,,,,,,,,,,,,,,244.79828440002166,245.20057659992017,245.18275499995798,245.28391820006073,245.68303079996258,None,left,1,0.544287099968642,245.68303079996258,None,245.18275499995798,245.28391820006073,245.28391820006073,None,246.25066150003113,None,,,,,,,11031,001,2024_Jan_11_1050,ANT,2021.2.3,59.88049051326032,
1,9,center,up,C,L,,,,,,Block.xlsx,"你已经完成了第一个实验区组

请稍作休息


点击空格键进入下一个区组。",0,50,1.5,left,LLLLL.png,,,,,0,0,0,0,3,13,85,8,,,,,,,,,,,,,,,,,,,,,,,,,,,,,,,,,,,,,,,,,,,,,,,,,,,,,,,,,,,,,,,,246.65090380003676,247.05245009995997,247.03665080014616,247.1517117000185,247.53669580002315,None,left,1,0.4668660000897944,247.53669580002315,None,247.03665080014616,247.1517117000185,247.13623180007562,None,248.0197706001345,None,,,,,,,11031,001,2024_Jan_11_1050,ANT,2021.2.3,59.88049051326032,
1,21,spatial,down,C,L,,,,,,Block.xlsx,"你已经完成了第一个实验区组

请稍作休息


点击空格键进入下一个区组。",-1.5,0,-1.5,left,LLLLL.png,,,,,0,0,0,0,3,14,86,20,,,,,,,,,,,,,,,,,,,,,,,,,,,,,,,,,,,,,,,,,,,,,,,,,,,,,,,,,,,,,,,,248.4202374999877,248.82119389995933,248.80527359992266,248.9049869000446,249.30509039992467,None,left,1,0.657904300140217,249.30509039992467,None,248.80527359992266,248.9049869000446,248.9049869000446,None,249.9892080000136,None,,,,,,,11031,001,2024_Jan_11_1050,ANT,2021.2.3,59.88049051326032,
1,17,spatial,up,C,L,,,,,,Block.xlsx,"你已经完成了第一个实验区组

请稍作休息


点击空格键进入下一个区组。",1.5,0,1.5,left,LLLLL.png,,,,,0,0,0,0,3,15,87,16,,,,,,,,,,,,,,,,,,,,,,,,,,,,,,,,,,,,,,,,,,,,,,,,,,,,,,,,,,,,,,,,250.38995119999163,250.79115090006962,250.7750997999683,250.8756045999471,251.2752274000086,None,left,1,0.5687993001192808,251.2752274000086,None,250.7750997999683,250.8756045999471,250.8756045999471,None,251.8587952000089,None,,,,,,,11031,001,2024_Jan_11_1050,ANT,2021.2.3,59.88049051326032,
1,5,no,down,C,L,,,,,,Block.xlsx,"你已经完成了第一个实验区组

请稍作休息


点击空格键进入下一个区组。",50,0,-1.5,left,LLLLL.png,,,,,0,0,0,0,3,16,88,4,,,,,,,,,,,,,,,,,,,,,,,,,,,,,,,,,,,,,,,,,,,,,,,,,,,,,,,,,,,,,,,,252.25980750005692,252.66124049993232,252.64406160009094,252.7434910000302,253.14530340000056,None,left,1,0.5935313000809401,253.14530340000056,None,252.64406160009094,252.7434910000302,252.7434910000302,None,253.7615589001216,None,,,,,,,11031,001,2024_Jan_11_1050,ANT,2021.2.3,59.88049051326032,
1,23,spatial,down,IC,L,,,,,,Block.xlsx,"你已经完成了第一个实验区组

请稍作休息


点击空格键进入下一个区组。",-1.5,0,-1.5,left,RRLRR.png,,,,,0,0,0,0,3,17,89,22,,,,,,,,,,,,,,,,,,,,,,,,,,,,,,,,,,,,,,,,,,,,,,,,,,,,,,,,,,,,,,,,254.16202450008132,254.56414319993928,254.54651449993253,254.64630959997885,255.04869300010614,None,left,1,0.5701799001544714,255.04869300010614,None,254.54651449993253,254.64630959997885,254.64630959997885,None,255.64804919995368,None,,,,,,,11031,001,2024_Jan_11_1050,ANT,2021.2.3,59.88049051326032,
1,24,spatial,down,IC,R,,,,,,Block.xlsx,"你已经完成了第一个实验区组

请稍作休息


点击空格键进入下一个区组。",-1.5,0,-1.5,right,LLRLL.png,,,,,0,0,0,0,3,18,90,23,,,,,,,,,,,,,,,,,,,,,,,,,,,,,,,,,,,,,,,,,,,,,,,,,,,,,,,,,,,,,,,,256.04838640009984,256.4513656999916,256.43304380006157,256.5330225001089,256.9330136999488,None,right,1,0.5186427999287844,256.9330136999488,None,256.43304380006157,256.5330225001089,256.5330225001089,None,257.4673820999451,None,,,,,,,11031,001,2024_Jan_11_1050,ANT,2021.2.3,59.88049051326032,
1,12,center,up,IC,R,,,,,,Block.xlsx,"你已经完成了第一个实验区组

请稍作休息


点击空格键进入下一个区组。",0,50,1.5,right,LLRLL.png,,,,,0,0,0,0,3,19,91,11,,,,,,,,,,,,,,,,,,,,,,,,,,,,,,,,,,,,,,,,,,,,,,,,,,,,,,,,,,,,,,,,257.86761169997044,258.26819299999624,258.2532214000821,258.36900050006807,258.7521313999314,None,right,1,0.6353732999414206,258.7521313999314,None,258.2532214000821,258.36900050006807,258.3514930999372,None,259.4032807000913,None,,,,,,,11031,001,2024_Jan_11_1050,ANT,2021.2.3,59.88049051326032,
1,2,no,up,C,R,,,,,,Block.xlsx,"你已经完成了第一个实验区组

请稍作休息


点击空格键进入下一个区组。",50,0,1.5,right,RRRRR.png,,,,,0,0,0,0,3,20,92,1,,,,,,,,,,,,,,,,,,,,,,,,,,,,,,,,,,,,,,,,,,,,,,,,,,,,,,,,,,,,,,,,259.80365530005656,260.2042676000856,260.18761779996566,260.2887500000652,260.6896011000499,None,right,1,0.5293368001002818,260.6896011000499,None,260.18761779996566,260.2887500000652,260.2887500000652,None,261.2392464999575,None,,,,,,,11031,001,2024_Jan_11_1050,ANT,2021.2.3,59.88049051326032,
1,8,no,down,IC,R,,,,,,Block.xlsx,"你已经完成了第一个实验区组

请稍作休息


点击空格键进入下一个区组。",50,0,-1.5,right,LLRLL.png,,,,,0,0,0,0,3,21,93,7,,,,,,,,,,,,,,,,,,,,,,,,,,,,,,,,,,,,,,,,,,,,,,,,,,,,,,,,,,,,,,,,261.6403537001461,262.04094410012476,262.0256850000005,262.1407260999549,262.5249576000497,None,right,1,0.7342171999625862,262.5249576000497,None,262.0256850000005,262.1407260999549,262.12492839992046,None,263.2754220000934,None,,,,,,,11031,001,2024_Jan_11_1050,ANT,2021.2.3,59.88049051326032,
1,24,spatial,down,IC,R,,,,,,Block.xlsx,"你已经完成了第一个实验区组

请稍作休息


点击空格键进入下一个区组。",-1.5,0,-1.5,right,LLRLL.png,,,,,0,0,0,0,3,22,94,23,,,,,,,,,,,,,,,,,,,,,,,,,,,,,,,,,,,,,,,,,,,,,,,,,,,,,,,,,,,,,,,,263.67614539992064,264.0786459001247,264.0603281999938,264.16129239997827,264.56219279998913,None,right,1,0.8086645998992026,264.56219279998913,None,264.0603281999938,264.16129239997827,264.16129239997827,None,265.3954797000624,None,,,,,,,11031,001,2024_Jan_11_1050,ANT,2021.2.3,59.88049051326032,
1,16,center,down,IC,R,,,,,,Block.xlsx,"你已经完成了第一个实验区组

请稍作休息


点击空格键进入下一个区组。",0,50,-1.5,right,LLRLL.png,,,,,0,0,0,0,3,23,95,15,,,,,,,,,,,,,,,,,,,,,,,,,,,,,,,,,,,,,,,,,,,,,,,,,,,,,,,,,,,,,,,,265.7961176999379,266.1975110000931,266.17988479998894,266.28161259996705,266.6808384999167,None,right,1,0.730427399976179,266.6808384999167,None,266.17988479998894,266.28161259996705,266.28161259996705,None,267.4318767001387,None,,,,,,,11031,001,2024_Jan_11_1050,ANT,2021.2.3,59.88049051326032,
,,,,,,,,,,,Block.xlsx,"你已经完成了第一个实验区组

请稍作休息


点击空格键进入下一个区组。",,,,,,,,,,0,0,0,0,,,,,,,,,,,,,,,,,,,,,,,,,,,,,,,,,,,,,,,,,,,,,,,,,,,,,,,,,,,,,,,,,,,,,,,,,,,,,,,,,,,,,space,24.938821100164205,267.83211500011384,None,267.83211500011384,None,11031,001,2024_Jan_11_1050,ANT,2021.2.3,59.88049051326032,
1,4,no,up,IC,R,,,,,,Block.xlsx,"你已经完成了整个实验（三个区组）。

请报告实验者已完成实验

非常感谢，再见！",50,0,1.5,right,LLRLL.png,,,,,0,1,1,1,0,0,0,3,,,,,,,,,,,,,,,,,,,,,,,,,,,,,,,,,,,,,,,,,,,,,,,,,,,,,,,,,,,,,,,,292.80227790004574,293.20396129996516,293.18663439992815,293.2875564000569,293.6881590001285,None,right,1,0.5867807001341134,293.6881590001285,None,293.18663439992815,293.2875564000569,293.2875564000569,None,294.305048200069,None,,,,,,,11031,001,2024_Jan_11_1050,ANT,2021.2.3,59.88049051326032,
1,11,center,up,IC,L,,,,,,Block.xlsx,"你已经完成了整个实验（三个区组）。

请报告实验者已完成实验

非常感谢，再见！",0,50,1.5,left,RRLRR.png,,,,,0,1,1,1,0,1,1,10,,,,,,,,,,,,,,,,,,,,,,,,,,,,,,,,,,,,,,,,,,,,,,,,,,,,,,,,,,,,,,,,294.7057891001459,295.10624090000056,295.0903662999626,295.1916988999583,295.5902168001048,None,left,1,1.1415216999594122,295.5902168001048,None,295.0903662999626,295.1916988999583,295.1916988999583,None,296.7586529001128,None,,,,,,,11031,001,2024_Jan_11_1050,ANT,2021.2.3,59.88049051326032,
1,20,spatial,up,IC,R,,,,,,Block.xlsx,"你已经完成了整个实验（三个区组）。

请报告实验者已完成实验

非常感谢，再见！",1.5,0,1.5,right,LLRLL.png,,,,,0,1,1,1,0,2,2,19,,,,,,,,,,,,,,,,,,,,,,,,,,,,,,,,,,,,,,,,,,,,,,,,,,,,,,,,,,,,,,,,297.159687000094,297.560860699974,297.5432273000479,297.6433323000092,298.0443561000284,None,right,1,0.9189786000642926,298.0443561000284,None,297.5432273000479,297.6433323000092,297.6433323000092,None,298.9786300000269,None,,,,,,,11031,001,2024_Jan_11_1050,ANT,2021.2.3,59.88049051326032,
1,9,center,up,C,L,,,,,,Block.xlsx,"你已经完成了整个实验（三个区组）。

请报告实验者已完成实验

非常感谢，再见！",0,50,1.5,left,LLLLL.png,,,,,0,1,1,1,0,3,3,8,,,,,,,,,,,,,,,,,,,,,,,,,,,,,,,,,,,,,,,,,,,,,,,,,,,,,,,,,,,,,,,,299.3795046999585,299.7798411999829,299.76392870000564,299.8637630001176,300.2643707001116,None,left,1,0.8507194998674095,300.2643707001116,None,299.76392870000564,299.8637630001176,299.8637630001176,None,301.13168770004995,None,,,,,,,11031,001,2024_Jan_11_1050,ANT,2021.2.3,59.88049051326032,
1,15,center,down,IC,L,,,,,,Block.xlsx,"你已经完成了整个实验（三个区组）。

请报告实验者已完成实验

非常感谢，再见！",0,50,-1.5,left,RRLRR.png,,,,,0,1,1,1,0,4,4,14,,,,,,,,,,,,,,,,,,,,,,,,,,,,,,,,,,,,,,,,,,,,,,,,,,,,,,,,,,,,,,,,301.53235390014015,301.9344059000723,301.9163403001148,302.01630920008756,302.41904049995355,None,left,1,0.8719788000453264,302.41904049995355,None,301.9163403001148,302.01630920008756,302.01630920008756,None,303.3184045001399,None,,,,,,,11031,001,2024_Jan_11_1050,ANT,2021.2.3,59.88049051326032,
1,18,spatial,up,C,R,,,,,,Block.xlsx,"你已经完成了整个实验（三个区组）。

请报告实验者已完成实验

非常感谢，再见！",1.5,0,1.5,right,RRRRR.png,,,,,0,1,1,1,0,5,5,17,,,,,,,,,,,,,,,,,,,,,,,,,,,,,,,,,,,,,,,,,,,,,,,,,,,,,,,,,,,,,,,,303.7189448000863,304.12074510008097,304.1029193000868,304.20282709994353,304.6037322001066,None,right,1,0.6471476999577135,304.6037322001066,None,304.1029193000868,304.20282709994353,304.20282709994353,None,305.2709409999661,None,,,,,,,11031,001,2024_Jan_11_1050,ANT,2021.2.3,59.88049051326032,
1,24,spatial,down,IC,R,,,,,,Block.xlsx,"你已经完成了整个实验（三个区组）。

请报告实验者已完成实验

非常感谢，再见！",-1.5,0,-1.5,right,LLRLL.png,,,,,0,1,1,1,0,6,6,23,,,,,,,,,,,,,,,,,,,,,,,,,,,,,,,,,,,,,,,,,,,,,,,,,,,,,,,,,,,,,,,,305.6716639001388,306.07242069998756,306.056408500066,306.15680740005337,306.558840499958,None,right,1,0.9167923999484628,306.558840499958,None,306.056408500066,306.15680740005337,306.15680740005337,None,307.49098330014385,None,,,,,,,11031,001,2024_Jan_11_1050,ANT,2021.2.3,59.88049051326032,
1,12,center,up,IC,R,,,,,,Block.xlsx,"你已经完成了整个实验（三个区组）。

请报告实验者已完成实验

非常感谢，再见！",0,50,1.5,right,LLRLL.png,,,,,0,1,1,1,0,7,7,11,,,,,,,,,,,,,,,,,,,,,,,,,,,,,,,,,,,,,,,,,,,,,,,,,,,,,,,,,,,,,,,,307.8918928001076,308.29302240000106,308.27576590003446,308.3776668999344,308.7785837999545,None,right,1,0.7926556998863816,308.7785837999545,None,308.27576590003446,308.3776668999344,308.3776668999344,None,309.5947642000392,None,,,,,,,11031,001,2024_Jan_11_1050,ANT,2021.2.3,59.88049051326032,
1,2,no,up,C,R,,,,,,Block.xlsx,"你已经完成了整个实验（三个区组）。

请报告实验者已完成实验

非常感谢，再见！",50,0,1.5,right,RRRRR.png,,,,,0,1,1,1,0,8,8,1,,,,,,,,,,,,,,,,,,,,,,,,,,,,,,,,,,,,,,,,,,,,,,,,,,,,,,,,,,,,,,,,309.99494899995625,310.3974123999942,310.379374000011,310.47892590006813,310.87968440004624,None,right,1,0.7234688000753522,310.87968440004624,None,310.379374000011,310.47892590006813,310.47892590006813,None,311.6319021000527,None,,,,,,,11031,001,2024_Jan_11_1050,ANT,2021.2.3,59.88049051326032,
1,2,no,up,C,R,,,,,,Block.xlsx,"你已经完成了整个实验（三个区组）。

请报告实验者已完成实验

非常感谢，再见！",50,0,1.5,right,RRRRR.png,,,,,0,1,1,1,0,9,9,1,,,,,,,,,,,,,,,,,,,,,,,,,,,,,,,,,,,,,,,,,,,,,,,,,,,,,,,,,,,,,,,,312.032035500044,312.4331626999192,312.415204500081,312.5158947999589,312.915918600047,None,right,1,0.543056899914518,312.915918600047,None,312.415204500081,312.5158947999589,312.5158947999589,None,313.48350370000117,None,,,,,,,11031,001,2024_Jan_11_1050,ANT,2021.2.3,59.88049051326032,
1,10,center,up,C,R,,,,,,Block.xlsx,"你已经完成了整个实验（三个区组）。

请报告实验者已完成实验

非常感谢，再见！",0,50,1.5,right,RRRRR.png,,,,,0,1,1,1,0,10,10,9,,,,,,,,,,,,,,,,,,,,,,,,,,,,,,,,,,,,,,,,,,,,,,,,,,,,,,,,,,,,,,,,313.8840425000526,314.286620200146,314.2679576999508,314.3691458001267,314.77059029997326,None,right,1,0.4163221998605877,314.77059029997326,None,314.2679576999508,314.3691458001267,314.3691458001267,None,315.20255540008657,None,,,,,,,11031,001,2024_Jan_11_1050,ANT,2021.2.3,59.88049051326032,
1,24,spatial,down,IC,R,,,,,,Block.xlsx,"你已经完成了整个实验（三个区组）。

请报告实验者已完成实验

非常感谢，再见！",-1.5,0,-1.5,right,LLRLL.png,,,,,0,1,1,1,0,11,11,23,,,,,,,,,,,,,,,,,,,,,,,,,,,,,,,,,,,,,,,,,,,,,,,,,,,,,,,,,,,,,,,,315.60333069995977,316.00547660002485,315.9877015000675,316.0879532000981,316.4883509001229,None,right,1,0.7551012998446822,316.4883509001229,None,315.9877015000675,316.0879532000981,316.0879532000981,None,317.2723173999693,None,,,,,,,11031,001,2024_Jan_11_1050,ANT,2021.2.3,59.88049051326032,
1,17,spatial,up,C,L,,,,,,Block.xlsx,"你已经完成了整个实验（三个区组）。

请报告实验者已完成实验

非常感谢，再见！",1.5,0,1.5,left,LLLLL.png,,,,,0,1,1,1,0,12,12,16,,,,,,,,,,,,,,,,,,,,,,,,,,,,,,,,,,,,,,,,,,,,,,,,,,,,,,,,,,,,,,,,317.6728994001169,318.074372000061,318.05768910003826,318.1584777000826,318.5575518999249,None,left,1,0.5341842998750508,318.5575518999249,None,318.05768910003826,318.1584777000826,318.1584777000826,None,319.10866390005685,None,,,,,,,11031,001,2024_Jan_11_1050,ANT,2021.2.3,59.88049051326032,
1,4,no,up,IC,R,,,,,,Block.xlsx,"你已经完成了整个实验（三个区组）。

请报告实验者已完成实验

非常感谢，再见！",50,0,1.5,right,LLRLL.png,,,,,0,1,1,1,0,13,13,3,,,,,,,,,,,,,,,,,,,,,,,,,,,,,,,,,,,,,,,,,,,,,,,,,,,,,,,,,,,,,,,,319.50898210005835,319.9115158999339,319.89349980000407,319.9938258000184,320.3936656001024,None,right,1,0.5292221999261528,320.3936656001024,None,319.89349980000407,319.9938258000184,319.9938258000184,None,320.94435769994743,None,,,,,,,11031,001,2024_Jan_11_1050,ANT,2021.2.3,59.88049051326032,
1,3,no,up,IC,L,,,,,,Block.xlsx,"你已经完成了整个实验（三个区组）。

请报告实验者已完成实验

非常感谢，再见！",50,0,1.5,left,RRLRR.png,,,,,0,1,1,1,0,14,14,2,,,,,,,,,,,,,,,,,,,,,,,,,,,,,,,,,,,,,,,,,,,,,,,,,,,,,,,,,,,,,,,,321.3450478001032,321.74638470006175,321.7297469000332,321.8298099001404,322.22952980012633,None,left,1,0.5415447999257594,322.22952980012633,None,321.7297469000332,321.8298099001404,321.8298099001404,None,322.79743729997426,None,,,,,,,11031,001,2024_Jan_11_1050,ANT,2021.2.3,59.88049051326032,
1,3,no,up,IC,L,,,,,,Block.xlsx,"你已经完成了整个实验（三个区组）。

请报告实验者已完成实验

非常感谢，再见！",50,0,1.5,left,RRLRR.png,,,,,0,1,1,1,0,15,15,2,,,,,,,,,,,,,,,,,,,,,,,,,,,,,,,,,,,,,,,,,,,,,,,,,,,,,,,,,,,,,,,,323.19807499996386,323.59917770000175,323.58253960008733,323.6825769999996,324.0840225999709,None,left,1,0.5031121999491006,324.0840225999709,None,323.58253960008733,323.6825769999996,323.6825769999996,None,324.61725080013275,None,,,,,,,11031,001,2024_Jan_11_1050,ANT,2021.2.3,59.88049051326032,
1,15,center,down,IC,L,,,,,,Block.xlsx,"你已经完成了整个实验（三个区组）。

请报告实验者已完成实验

非常感谢，再见！",0,50,-1.5,left,RRLRR.png,,,,,0,1,1,1,0,16,16,14,,,,,,,,,,,,,,,,,,,,,,,,,,,,,,,,,,,,,,,,,,,,,,,,,,,,,,,,,,,,,,,,325.017245199997,325.41829330008477,325.40169520000927,325.5012473000679,325.902348899981,None,left,1,0.676713899942115,325.902348899981,None,325.40169520000927,325.5012473000679,325.5012473000679,None,326.6028966999147,None,,,,,,,11031,001,2024_Jan_11_1050,ANT,2021.2.3,59.88049051326032,
1,6,no,down,C,R,,,,,,Block.xlsx,"你已经完成了整个实验（三个区组）。

请报告实验者已完成实验

非常感谢，再见！",50,0,-1.5,right,RRRRR.png,,,,,0,1,1,1,0,17,17,5,,,,,,,,,,,,,,,,,,,,,,,,,,,,,,,,,,,,,,,,,,,,,,,,,,,,,,,,,,,,,,,,327.00337289995514,327.40576920006424,327.3878442000132,327.4875163999386,327.88817170006223,None,right,1,0.5948650999926031,327.88817170006223,None,327.3878442000132,327.4875163999386,327.4875163999386,None,328.50607659993693,None,,,,,,,11031,001,2024_Jan_11_1050,ANT,2021.2.3,59.88049051326032,
1,6,no,down,C,R,,,,,,Block.xlsx,"你已经完成了整个实验（三个区组）。

请报告实验者已完成实验

非常感谢，再见！",50,0,-1.5,right,RRRRR.png,,,,,0,1,1,1,0,18,18,5,,,,,,,,,,,,,,,,,,,,,,,,,,,,,,,,,,,,,,,,,,,,,,,,,,,,,,,,,,,,,,,,328.9062819001265,329.30874160001986,329.2908366001211,329.39186990004964,329.79151490004733,None,right,1,0.44345059990882874,329.79151490004733,None,329.2908366001211,329.39186990004964,329.39186990004964,None,330.2582104001194,None,,,,,,,11031,001,2024_Jan_11_1050,ANT,2021.2.3,59.88049051326032,
1,13,center,down,C,L,,,,,,Block.xlsx,"你已经完成了整个实验（三个区组）。

请报告实验者已完成实验

非常感谢，再见！",0,50,-1.5,left,LLLLL.png,,,,,0,1,1,1,0,19,19,12,,,,,,,,,,,,,,,,,,,,,,,,,,,,,,,,,,,,,,,,,,,,,,,,,,,,,,,,,,,,,,,,330.6588872000575,331.0608651000075,331.04279990005307,331.14508250006475,331.5439450000413,None,left,1,0.5550312998238951,331.5439450000413,None,331.04279990005307,331.14508250006475,331.14508250006475,None,332.12757140002213,None,,,,,,,11031,001,2024_Jan_11_1050,ANT,2021.2.3,59.88049051326032,
1,5,no,down,C,L,,,,,,Block.xlsx,"你已经完成了整个实验（三个区组）。

请报告实验者已完成实验

非常感谢，再见！",50,0,-1.5,left,LLLLL.png,,,,,0,1,1,1,0,20,20,4,,,,,,,,,,,,,,,,,,,,,,,,,,,,,,,,,,,,,,,,,,,,,,,,,,,,,,,,,,,,,,,,332.52899740007706,332.92962029995397,332.9129379000515,333.0128443001304,333.41465490008704,None,left,1,0.48447289993055165,333.41465490008704,None,332.9129379000515,333.0128443001304,333.0128443001304,None,333.91383190010674,None,,,,,,,11031,001,2024_Jan_11_1050,ANT,2021.2.3,59.88049051326032,
1,23,spatial,down,IC,L,,,,,,Block.xlsx,"你已经完成了整个实验（三个区组）。

请报告实验者已完成实验

非常感谢，再见！",-1.5,0,-1.5,left,RRLRR.png,,,,,0,1,1,1,0,21,21,22,,,,,,,,,,,,,,,,,,,,,,,,,,,,,,,,,,,,,,,,,,,,,,,,,,,,,,,,,,,,,,,,334.3147837999277,334.7165532000363,334.6987670001108,334.7988925999962,335.2003697999753,None,left,1,0.5225921999663115,335.2003697999753,None,334.6987670001108,334.7988925999962,334.7988925999962,None,335.74956619995646,None,,,,,,,11031,001,2024_Jan_11_1050,ANT,2021.2.3,59.88049051326032,
1,2,no,up,C,R,,,,,,Block.xlsx,"你已经完成了整个实验（三个区组）。

请报告实验者已完成实验

非常感谢，再见！",50,0,1.5,right,RRRRR.png,,,,,0,1,1,1,0,22,22,1,,,,,,,,,,,,,,,,,,,,,,,,,,,,,,,,,,,,,,,,,,,,,,,,,,,,,,,,,,,,,,,,336.1510348999873,336.55162269994617,336.53547120001167,336.63515280000865,337.03492980008014,None,right,1,0.7120826998725533,337.03492980008014,None,336.53547120001167,336.63515280000865,336.63515280000865,None,337.76949899992906,None,,,,,,,11031,001,2024_Jan_11_1050,ANT,2021.2.3,59.88049051326032,
1,8,no,down,IC,R,,,,,,Block.xlsx,"你已经完成了整个实验（三个区组）。

请报告实验者已完成实验

非常感谢，再见！",50,0,-1.5,right,LLRLL.png,,,,,0,1,1,1,0,23,23,7,,,,,,,,,,,,,,,,,,,,,,,,,,,,,,,,,,,,,,,,,,,,,,,,,,,,,,,,,,,,,,,,338.1702475999482,338.5708804000169,338.5564085999504,338.65412550000474,339.0556223001331,None,right,1,0.819425699999556,339.0556223001331,None,338.5564085999504,338.65412550000474,338.65412550000474,None,339.90658860001713,None,,,,,,,11031,001,2024_Jan_11_1050,ANT,2021.2.3,59.88049051326032,
1,20,spatial,up,IC,R,,,,,,Block.xlsx,"你已经完成了整个实验（三个区组）。

请报告实验者已完成实验

非常感谢，再见！",1.5,0,1.5,right,LLRLL.png,,,,,0,1,1,1,1,0,24,19,,,,,,,,,,,,,,,,,,,,,,,,,,,,,,,,,,,,,,,,,,,,,,,,,,,,,,,,,,,,,,,,340.3063858000096,340.70710869994946,340.69138310011476,340.79146050009876,341.19262009998783,None,right,1,0.5785912000574172,341.19262009998783,None,340.69138310011476,340.79146050009876,340.79146050009876,None,341.79184289998375,None,,,,,,,11031,001,2024_Jan_11_1050,ANT,2021.2.3,59.88049051326032,
1,21,spatial,down,C,L,,,,,,Block.xlsx,"你已经完成了整个实验（三个区组）。

请报告实验者已完成实验

非常感谢，再见！",-1.5,0,-1.5,left,LLLLL.png,,,,,0,1,1,1,1,1,25,20,,,,,,,,,,,,,,,,,,,,,,,,,,,,,,,,,,,,,,,,,,,,,,,,,,,,,,,,,,,,,,,,342.1925375999417,342.5947644999251,342.5768570001237,342.67660639993846,343.07885940000415,None,left,1,0.44410810014232993,343.07885940000415,None,342.5768570001237,342.67660639993846,342.67660639993846,None,343.54461260000244,None,,,,,,,11031,001,2024_Jan_11_1050,ANT,2021.2.3,59.88049051326032,
1,23,spatial,down,IC,L,,,,,,Block.xlsx,"你已经完成了整个实验（三个区组）。

请报告实验者已完成实验

非常感谢，再见！",-1.5,0,-1.5,left,RRLRR.png,,,,,0,1,1,1,1,2,26,22,,,,,,,,,,,,,,,,,,,,,,,,,,,,,,,,,,,,,,,,,,,,,,,,,,,,,,,,,,,,,,,,343.94668940012343,344.3466054999735,344.32966800010763,344.42999859992415,344.82983430009335,None,left,1,0.6060937000438571,344.82983430009335,None,344.32966800010763,344.42999859992415,344.42999859992415,None,345.46400299994275,None,,,,,,,11031,001,2024_Jan_11_1050,ANT,2021.2.3,59.88049051326032,
1,10,center,up,C,R,,,,,,Block.xlsx,"你已经完成了整个实验（三个区组）。

请报告实验者已完成实验

非常感谢，再见！",0,50,1.5,right,RRRRR.png,,,,,0,1,1,1,1,3,27,9,,,,,,,,,,,,,,,,,,,,,,,,,,,,,,,,,,,,,,,,,,,,,,,,,,,,,,,,,,,,,,,,345.8659179001115,346.26619080011733,346.24869020003825,346.34900050004944,346.7511728000827,None,right,1,0.5398312998004258,346.7511728000827,None,346.24869020003825,346.34900050004944,346.34900050004944,None,347.3169569999445,None,,,,,,,11031,001,2024_Jan_11_1050,ANT,2021.2.3,59.88049051326032,
1,8,no,down,IC,R,,,,,,Block.xlsx,"你已经完成了整个实验（三个区组）。

请报告实验者已完成实验

非常感谢，再见！",50,0,-1.5,right,LLRLL.png,,,,,0,1,1,1,1,4,28,7,,,,,,,,,,,,,,,,,,,,,,,,,,,,,,,,,,,,,,,,,,,,,,,,,,,,,,,,,,,,,,,,347.7174712000415,348.1180483000353,348.10207860008813,348.20236809994094,348.6023548999801,None,right,1,0.7529563000425696,348.6023548999801,None,348.10207860008813,348.20236809994094,348.20236809994094,None,349.37006440013647,None,,,,,,,11031,001,2024_Jan_11_1050,ANT,2021.2.3,59.88049051326032,
1,1,no,up,C,L,,,,,,Block.xlsx,"你已经完成了整个实验（三个区组）。

请报告实验者已完成实验

非常感谢，再见！",50,0,1.5,left,LLLLL.png,,,,,0,1,1,1,1,5,29,0,,,,,,,,,,,,,,,,,,,,,,,,,,,,,,,,,,,,,,,,,,,,,,,,,,,,,,,,,,,,,,,,349.7705280999653,350.1714455001056,350.1562616000883,350.2724685999565,350.6563039999455,None,left,1,0.563167099840939,350.6563039999455,None,350.1562616000883,350.2724685999565,350.2566033999901,None,351.2393149000127,None,,,,,,,11031,001,2024_Jan_11_1050,ANT,2021.2.3,59.88049051326032,
1,2,no,up,C,R,,,,,,Block.xlsx,"你已经完成了整个实验（三个区组）。

请报告实验者已完成实验

非常感谢，再见！",50,0,1.5,right,RRRRR.png,,,,,0,1,1,1,1,6,30,1,,,,,,,,,,,,,,,,,,,,,,,,,,,,,,,,,,,,,,,,,,,,,,,,,,,,,,,,,,,,,,,,351.6399751000572,352.0406871000305,352.025885600131,352.1411260999739,352.52539100009017,None,right,1,0.6777652001474053,352.52539100009017,None,352.025885600131,352.1411260999739,352.125490100123,None,353.2258522999473,None,,,,,,,11031,001,2024_Jan_11_1050,ANT,2021.2.3,59.88049051326032,
1,5,no,down,C,L,,,,,,Block.xlsx,"你已经完成了整个实验（三个区组）。

请报告实验者已完成实验

非常感谢，再见！",50,0,-1.5,left,LLLLL.png,,,,,0,1,1,1,1,7,31,4,,,,,,,,,,,,,,,,,,,,,,,,,,,,,,,,,,,,,,,,,,,,,,,,,,,,,,,,,,,,,,,,353.6272778001148,354.0274789999239,354.01013569999486,354.1113420999609,354.5128734000027,None,left,1,0.5060912000481039,354.5128734000027,None,354.01013569999486,354.1113420999609,354.1113420999609,None,355.04499650001526,None,,,,,,,11031,001,2024_Jan_11_1050,ANT,2021.2.3,59.88049051326032,
1,10,center,up,C,R,,,,,,Block.xlsx,"你已经完成了整个实验（三个区组）。

请报告实验者已完成实验

非常感谢，再见！",0,50,1.5,right,RRRRR.png,,,,,0,1,1,1,1,8,32,9,,,,,,,,,,,,,,,,,,,,,,,,,,,,,,,,,,,,,,,,,,,,,,,,,,,,,,,,,,,,,,,,355.44582489994355,355.8479001999367,355.8296642000787,355.9305770001374,356.331630700035,None,right,1,0.5193793999496847,356.331630700035,None,355.8296642000787,355.9305770001374,355.9305770001374,None,356.88162659993395,None,,,,,,,11031,001,2024_Jan_11_1050,ANT,2021.2.3,59.88049051326032,
1,4,no,up,IC,R,,,,,,Block.xlsx,"你已经完成了整个实验（三个区组）。

请报告实验者已完成实验

非常感谢，再见！",50,0,1.5,right,LLRLL.png,,,,,0,1,1,1,1,9,33,3,,,,,,,,,,,,,,,,,,,,,,,,,,,,,,,,,,,,,,,,,,,,,,,,,,,,,,,,,,,,,,,,357.281639700057,357.6845875000581,357.66616820008494,357.7672783001326,358.1667436999269,None,right,1,0.717279399977997,358.1667436999269,None,357.66616820008494,357.7672783001326,357.7672783001326,None,358.9007691000588,None,,,,,,,11031,001,2024_Jan_11_1050,ANT,2021.2.3,59.88049051326032,
1,23,spatial,down,IC,L,,,,,,Block.xlsx,"你已经完成了整个实验（三个区组）。

请报告实验者已完成实验

非常感谢，再见！",-1.5,0,-1.5,left,RRLRR.png,,,,,0,1,1,1,1,10,34,22,,,,,,,,,,,,,,,,,,,,,,,,,,,,,,,,,,,,,,,,,,,,,,,,,,,,,,,,,,,,,,,,359.3013174000662,359.70274950005114,359.6854811999947,359.7857319000177,360.18723320006393,None,left,1,0.8877814000006765,360.18723320006393,None,359.6854811999947,359.7857319000177,359.7857319000177,None,361.1038693001028,None,,,,,,,11031,001,2024_Jan_11_1050,ANT,2021.2.3,59.88049051326032,
1,6,no,down,C,R,,,,,,Block.xlsx,"你已经完成了整个实验（三个区组）。

请报告实验者已完成实验

非常感谢，再见！",50,0,-1.5,right,RRRRR.png,,,,,0,1,1,1,1,11,35,5,,,,,,,,,,,,,,,,,,,,,,,,,,,,,,,,,,,,,,,,,,,,,,,,,,,,,,,,,,,,,,,,361.50451390002854,361.90626720013097,361.88847979996353,361.9896134000737,362.3897713001352,None,right,1,0.6053583000320941,362.3897713001352,None,361.88847979996353,361.9896134000737,361.9896134000737,None,363.0236555999145,None,,,,,,,11031,001,2024_Jan_11_1050,ANT,2021.2.3,59.88049051326032,
1,23,spatial,down,IC,L,,,,,,Block.xlsx,"你已经完成了整个实验（三个区组）。

请报告实验者已完成实验

非常感谢，再见！",-1.5,0,-1.5,left,RRLRR.png,,,,,0,1,1,1,1,12,36,22,,,,,,,,,,,,,,,,,,,,,,,,,,,,,,,,,,,,,,,,,,,,,,,,,,,,,,,,,,,,,,,,363.42518629995175,363.82601499999873,363.80800840002485,363.90815929998644,364.30895510013215,None,left,1,0.5512900999747217,364.30895510013215,None,363.80800840002485,363.90815929998644,363.90815929998644,None,364.8761909001041,None,,,,,,,11031,001,2024_Jan_11_1050,ANT,2021.2.3,59.88049051326032,
1,9,center,up,C,L,,,,,,Block.xlsx,"你已经完成了整个实验（三个区组）。

请报告实验者已完成实验

非常感谢，再见！",0,50,1.5,left,LLLLL.png,,,,,0,1,1,1,1,13,37,8,,,,,,,,,,,,,,,,,,,,,,,,,,,,,,,,,,,,,,,,,,,,,,,,,,,,,,,,,,,,,,,,365.2767930000555,365.67752779996954,365.661732400069,365.76175620011054,366.16228229994886,None,left,1,0.5690703999716789,366.16228229994886,None,365.661732400069,365.76175620011054,365.76175620011054,None,366.7457191001158,None,,,,,,,11031,001,2024_Jan_11_1050,ANT,2021.2.3,59.88049051326032,
1,11,center,up,IC,L,,,,,,Block.xlsx,"你已经完成了整个实验（三个区组）。

请报告实验者已完成实验

非常感谢，再见！",0,50,1.5,left,RRLRR.png,,,,,0,1,1,1,1,14,38,10,,,,,,,,,,,,,,,,,,,,,,,,,,,,,,,,,,,,,,,,,,,,,,,,,,,,,,,,,,,,,,,,367.1463309000246,367.54783649998717,367.5302301000338,367.63100680010393,368.03085590014234,None,left,1,0.5961748999543488,368.03085590014234,None,367.5302301000338,367.63100680010393,367.63100680010393,None,368.6484435000457,None,,,,,,,11031,001,2024_Jan_11_1050,ANT,2021.2.3,59.88049051326032,
1,21,spatial,down,C,L,,,,,,Block.xlsx,"你已经完成了整个实验（三个区组）。

请报告实验者已完成实验

非常感谢，再见！",-1.5,0,-1.5,left,LLLLL.png,,,,,0,1,1,1,1,15,39,20,,,,,,,,,,,,,,,,,,,,,,,,,,,,,,,,,,,,,,,,,,,,,,,,,,,,,,,,,,,,,,,,369.0494546000846,369.44982380000874,369.4350062001031,369.53335910011083,369.9342968000565,None,left,1,0.5087287998758256,369.9342968000565,None,369.4350062001031,369.53335910011083,369.53335910011083,None,370.46794650005177,None,,,,,,,11031,001,2024_Jan_11_1050,ANT,2021.2.3,59.88049051326032,
1,11,center,up,IC,L,,,,,,Block.xlsx,"你已经完成了整个实验（三个区组）。

请报告实验者已完成实验

非常感谢，再见！",0,50,1.5,left,RRLRR.png,,,,,0,1,1,1,1,16,40,10,,,,,,,,,,,,,,,,,,,,,,,,,,,,,,,,,,,,,,,,,,,,,,,,,,,,,,,,,,,,,,,,370.8689433999825,371.2697686001193,371.25410529994406,371.3526367000304,371.7532371999696,None,left,1,0.43463710020296276,371.7532371999696,None,371.25410529994406,371.3526367000304,371.3526367000304,None,372.2037579000462,None,,,,,,,11031,001,2024_Jan_11_1050,ANT,2021.2.3,59.88049051326032,
1,9,center,up,C,L,,,,,,Block.xlsx,"你已经完成了整个实验（三个区组）。

请报告实验者已完成实验

非常感谢，再见！",0,50,1.5,left,LLLLL.png,,,,,0,1,1,1,1,17,41,8,,,,,,,,,,,,,,,,,,,,,,,,,,,,,,,,,,,,,,,,,,,,,,,,,,,,,,,,,,,,,,,,372.6043316000141,373.0060920000542,372.988183000125,373.08894530008547,373.4901244000066,None,left,1,0.47295240010134876,373.4901244000066,None,372.988183000125,373.08894530008547,373.08894530008547,None,373.9897326999344,None,,,,,,,11031,001,2024_Jan_11_1050,ANT,2021.2.3,59.88049051326032,
1,12,center,up,IC,R,,,,,,Block.xlsx,"你已经完成了整个实验（三个区组）。

请报告实验者已完成实验

非常感谢，再见！",0,50,1.5,right,LLRLL.png,,,,,0,1,1,1,1,18,42,11,,,,,,,,,,,,,,,,,,,,,,,,,,,,,,,,,,,,,,,,,,,,,,,,,,,,,,,,,,,,,,,,374.3909559000749,374.79162629996426,374.7749103999231,374.87650249991566,375.27688409993425,None,right,1,0.5742224999703467,375.27688409993425,None,374.7749103999231,374.87650249991566,374.87650249991566,None,375.87588159996085,None,,,,,,,11031,001,2024_Jan_11_1050,ANT,2021.2.3,59.88049051326032,
1,3,no,up,IC,L,,,,,,Block.xlsx,"你已经完成了整个实验（三个区组）。

请报告实验者已完成实验

非常感谢，再见！",50,0,1.5,left,RRLRR.png,,,,,0,1,1,1,1,19,43,2,,,,,,,,,,,,,,,,,,,,,,,,,,,,,,,,,,,,,,,,,,,,,,,,,,,,,,,,,,,,,,,,376.27633900009096,376.67729489994235,376.66109480010346,376.7613810999319,377.1615480000619,None,left,1,0.5855489000678062,377.1615480000619,None,376.66109480010346,376.7613810999319,376.7613810999319,None,377.77874849992804,None,,,,,,,11031,001,2024_Jan_11_1050,ANT,2021.2.3,59.88049051326032,
1,7,no,down,IC,L,,,,,,Block.xlsx,"你已经完成了整个实验（三个区组）。

请报告实验者已完成实验

非常感谢，再见！",50,0,-1.5,left,RRLRR.png,,,,,0,1,1,1,1,20,44,6,,,,,,,,,,,,,,,,,,,,,,,,,,,,,,,,,,,,,,,,,,,,,,,,,,,,,,,,,,,,,,,,378.179190200055,378.58022879995406,378.5645572000649,378.680925300112,379.06437800009735,None,left,1,0.7393454997800291,379.06437800009735,None,378.5645572000649,378.680925300112,378.6656943000853,None,379.8316450000275,None,,,,,,,11031,001,2024_Jan_11_1050,ANT,2021.2.3,59.88049051326032,
1,8,no,down,IC,R,,,,,,Block.xlsx,"你已经完成了整个实验（三个区组）。

请报告实验者已完成实验

非常感谢，再见！",50,0,-1.5,right,LLRLL.png,,,,,0,1,1,1,1,21,45,7,,,,,,,,,,,,,,,,,,,,,,,,,,,,,,,,,,,,,,,,,,,,,,,,,,,,,,,,,,,,,,,,380.2323710001074,380.6330015999265,380.61812549992464,380.7175316999201,381.11747820000164,None,right,1,0.6057850001379848,381.11747820000164,None,380.61812549992464,380.7175316999201,380.7175316999201,None,381.75180170009844,None,,,,,,,11031,001,2024_Jan_11_1050,ANT,2021.2.3,59.88049051326032,
1,13,center,down,C,L,,,,,,Block.xlsx,"你已经完成了整个实验（三个区组）。

请报告实验者已完成实验

非常感谢，再见！",0,50,-1.5,left,LLLLL.png,,,,,0,1,1,1,1,22,46,12,,,,,,,,,,,,,,,,,,,,,,,,,,,,,,,,,,,,,,,,,,,,,,,,,,,,,,,,,,,,,,,,382.1518312001135,382.554229500005,382.53609970002435,382.6366469000932,383.0374189000577,None,left,1,0.5576778999529779,383.0374189000577,None,382.53609970002435,382.6366469000932,382.6366469000932,None,383.620511099929,None,,,,,,,11031,001,2024_Jan_11_1050,ANT,2021.2.3,59.88049051326032,
1,7,no,down,IC,L,,,,,,Block.xlsx,"你已经完成了整个实验（三个区组）。

请报告实验者已完成实验

非常感谢，再见！",50,0,-1.5,left,RRLRR.png,,,,,0,1,1,1,1,23,47,6,,,,,,,,,,,,,,,,,,,,,,,,,,,,,,,,,,,,,,,,,,,,,,,,,,,,,,,,,,,,,,,,384.0210663001053,384.4221839001402,384.40644309995696,384.52314679999836,384.9069705000147,None,left,1,0.4725291000213474,384.9069705000147,None,384.40644309995696,384.52314679999836,384.5063827999402,None,385.4064857000485,None,,,,,,,11031,001,2024_Jan_11_1050,ANT,2021.2.3,59.88049051326032,
1,13,center,down,C,L,,,,,,Block.xlsx,"你已经完成了整个实验（三个区组）。

请报告实验者已完成实验

非常感谢，再见！",0,50,-1.5,left,LLLLL.png,,,,,0,1,1,1,2,0,48,12,,,,,,,,,,,,,,,,,,,,,,,,,,,,,,,,,,,,,,,,,,,,,,,,,,,,,,,,,,,,,,,,385.8070362000726,386.20901250001043,386.1918818000704,386.29173430008814,386.69197889999487,None,left,1,0.5356974001042545,386.69197889999487,None,386.1918818000704,386.29173430008814,386.29173430008814,None,387.24263320001774,None,,,,,,,11031,001,2024_Jan_11_1050,ANT,2021.2.3,59.88049051326032,
1,12,center,up,IC,R,,,,,,Block.xlsx,"你已经完成了整个实验（三个区组）。

请报告实验者已完成实验

非常感谢，再见！",0,50,1.5,right,LLRLL.png,,,,,0,1,1,1,2,1,49,11,,,,,,,,,,,,,,,,,,,,,,,,,,,,,,,,,,,,,,,,,,,,,,,,,,,,,,,,,,,,,,,,387.6430140999146,388.0439522000961,388.0285306000151,388.1287889999803,388.5280705001205,None,right,1,0.8915735001210123,388.5280705001205,None,388.0285306000151,388.1287889999803,388.1287889999803,None,389.4460589000955,None,,,,,,,11031,001,2024_Jan_11_1050,ANT,2021.2.3,59.88049051326032,
1,18,spatial,up,C,R,,,,,,Block.xlsx,"你已经完成了整个实验（三个区组）。

请报告实验者已完成实验

非常感谢，再见！",1.5,0,1.5,right,RRRRR.png,,,,,0,1,1,1,2,2,50,17,,,,,,,,,,,,,,,,,,,,,,,,,,,,,,,,,,,,,,,,,,,,,,,,,,,,,,,,,,,,,,,,389.84651600010693,390.2474118000828,390.23082119994797,390.3312987999525,390.7313735000789,None,right,1,0.5437950999476016,390.7313735000789,None,390.23082119994797,390.3312987999525,390.3312987999525,None,391.2991285000462,None,,,,,,,11031,001,2024_Jan_11_1050,ANT,2021.2.3,59.88049051326032,
1,13,center,down,C,L,,,,,,Block.xlsx,"你已经完成了整个实验（三个区组）。

请报告实验者已完成实验

非常感谢，再见！",0,50,-1.5,left,LLLLL.png,,,,,0,1,1,1,2,3,51,12,,,,,,,,,,,,,,,,,,,,,,,,,,,,,,,,,,,,,,,,,,,,,,,,,,,,,,,,,,,,,,,,391.69948770012707,392.10035670013167,392.0839172000997,392.1842378000729,392.5839639999904,None,left,1,0.5555191000457853,392.5839639999904,None,392.0839172000997,392.1842378000729,392.1842378000729,None,393.1680493999738,None,,,,,,,11031,001,2024_Jan_11_1050,ANT,2021.2.3,59.88049051326032,
1,9,center,up,C,L,,,,,,Block.xlsx,"你已经完成了整个实验（三个区组）。

请报告实验者已完成实验

非常感谢，再见！",0,50,1.5,left,LLLLL.png,,,,,0,1,1,1,2,4,52,8,,,,,,,,,,,,,,,,,,,,,,,,,,,,,,,,,,,,,,,,,,,,,,,,,,,,,,,,,,,,,,,,393.56883580004796,393.97044020006433,393.95270700007677,394.0541859001387,394.4544621000532,None,left,1,0.5330080999992788,394.4544621000532,None,393.95270700007677,394.0541859001387,394.0541859001387,None,395.0040017000865,None,,,,,,,11031,001,2024_Jan_11_1050,ANT,2021.2.3,59.88049051326032,
1,10,center,up,C,R,,,,,,Block.xlsx,"你已经完成了整个实验（三个区组）。

请报告实验者已完成实验

非常感谢，再见！",0,50,1.5,right,RRRRR.png,,,,,0,1,1,1,2,5,53,9,,,,,,,,,,,,,,,,,,,,,,,,,,,,,,,,,,,,,,,,,,,,,,,,,,,,,,,,,,,,,,,,395.40480619994923,395.8057727999985,395.79005330009386,395.906799599994,396.29053170001134,None,right,1,0.6337919998914003,396.29053170001134,None,395.79005330009386,395.906799599994,395.8896687000524,None,396.9408841000404,None,,,,,,,11031,001,2024_Jan_11_1050,ANT,2021.2.3,59.88049051326032,
1,19,spatial,up,IC,L,,,,,,Block.xlsx,"你已经完成了整个实验（三个区组）。

请报告实验者已完成实验

非常感谢，再见！",1.5,0,1.5,left,RRLRR.png,,,,,0,1,1,1,2,6,54,18,,,,,,,,,,,,,,,,,,,,,,,,,,,,,,,,,,,,,,,,,,,,,,,,,,,,,,,,,,,,,,,,397.3408331000246,397.74304040009156,397.7256398999598,397.82574789994396,398.22637089993805,None,left,1,0.5529517999384552,398.22637089993805,None,397.7256398999598,397.82574789994396,397.82574789994396,None,398.8097524999175,None,,,,,,,11031,001,2024_Jan_11_1050,ANT,2021.2.3,59.88049051326032,
1,8,no,down,IC,R,,,,,,Block.xlsx,"你已经完成了整个实验（三个区组）。

请报告实验者已完成实验

非常感谢，再见！",50,0,-1.5,right,LLRLL.png,,,,,0,1,1,1,2,7,55,7,,,,,,,,,,,,,,,,,,,,,,,,,,,,,,,,,,,,,,,,,,,,,,,,,,,,,,,,,,,,,,,,399.21036219992675,399.61274300003424,399.59442050009966,399.6951645000372,400.0951719000004,None,None,0,,400.0951719000004,None,399.59442050009966,399.6951645000372,399.6951645000372,None,401.79921530000865,None,,,,,,,11031,001,2024_Jan_11_1050,ANT,2021.2.3,59.88049051326032,
1,1,no,up,C,L,,,,,,Block.xlsx,"你已经完成了整个实验（三个区组）。

请报告实验者已完成实验

非常感谢，再见！",50,0,1.5,left,LLLLL.png,,,,,0,1,1,1,2,8,56,0,,,,,,,,,,,,,,,,,,,,,,,,,,,,,,,,,,,,,,,,,,,,,,,,,,,,,,,,,,,,,,,,402.1995574000757,402.60055930004455,402.58215999999084,402.683400799986,403.0841143000871,None,left,1,0.6709875999949872,403.0841143000871,None,402.58215999999084,402.683400799986,402.683400799986,None,403.78390779998153,None,,,,,,,11031,001,2024_Jan_11_1050,ANT,2021.2.3,59.88049051326032,
1,22,spatial,down,C,R,,,,,,Block.xlsx,"你已经完成了整个实验（三个区组）。

请报告实验者已完成实验

非常感谢，再见！",-1.5,0,-1.5,right,RRRRR.png,,,,,0,1,1,1,2,9,57,21,,,,,,,,,,,,,,,,,,,,,,,,,,,,,,,,,,,,,,,,,,,,,,,,,,,,,,,,,,,,,,,,404.1856929000933,404.58675500005484,404.5686391000636,404.6684415000491,405.06899830000475,None,right,1,0.5822349998634309,405.06899830000475,None,404.5686391000636,404.6684415000491,404.6684415000491,None,405.6700870001223,None,,,,,,,11031,001,2024_Jan_11_1050,ANT,2021.2.3,59.88049051326032,
1,19,spatial,up,IC,L,,,,,,Block.xlsx,"你已经完成了整个实验（三个区组）。

请报告实验者已完成实验

非常感谢，再见！",1.5,0,1.5,left,RRLRR.png,,,,,0,1,1,1,2,10,58,18,,,,,,,,,,,,,,,,,,,,,,,,,,,,,,,,,,,,,,,,,,,,,,,,,,,,,,,,,,,,,,,,406.0708413000684,406.4719531999435,406.4545420999639,406.55581000004895,406.9565562000498,None,left,1,0.5670852998737246,406.9565562000498,None,406.4545420999639,406.55581000004895,406.55581000004895,None,407.53944450011477,None,,,,,,,11031,001,2024_Jan_11_1050,ANT,2021.2.3,59.88049051326032,
1,17,spatial,up,C,L,,,,,,Block.xlsx,"你已经完成了整个实验（三个区组）。

请报告实验者已完成实验

非常感谢，再见！",1.5,0,1.5,left,LLLLL.png,,,,,0,1,1,1,2,11,59,16,,,,,,,,,,,,,,,,,,,,,,,,,,,,,,,,,,,,,,,,,,,,,,,,,,,,,,,,,,,,,,,,407.9407110000029,408.342571800109,408.32449829997495,408.4245583000593,408.8264786999207,None,left,1,0.6332337001804262,408.8264786999207,None,408.32449829997495,408.4245583000593,408.4245583000593,None,409.47550530009903,None,,,,,,,11031,001,2024_Jan_11_1050,ANT,2021.2.3,59.88049051326032,
1,6,no,down,C,R,,,,,,Block.xlsx,"你已经完成了整个实验（三个区组）。

请报告实验者已完成实验

非常感谢，再见！",50,0,-1.5,right,RRRRR.png,,,,,0,1,1,1,2,12,60,5,,,,,,,,,,,,,,,,,,,,,,,,,,,,,,,,,,,,,,,,,,,,,,,,,,,,,,,,,,,,,,,,409.87642400013283,410.2773053001147,410.26199760008603,410.3609291999601,410.76302210008726,None,right,1,0.6561398999765515,410.76302210008726,None,410.26199760008603,410.3609291999601,410.3609291999601,None,411.4459170999471,None,,,,,,,11031,001,2024_Jan_11_1050,ANT,2021.2.3,59.88049051326032,
1,22,spatial,down,C,R,,,,,,Block.xlsx,"你已经完成了整个实验（三个区组）。

请报告实验者已完成实验

非常感谢，再见！",-1.5,0,-1.5,right,RRRRR.png,,,,,0,1,1,1,2,13,61,21,,,,,,,,,,,,,,,,,,,,,,,,,,,,,,,,,,,,,,,,,,,,,,,,,,,,,,,,,,,,,,,,411.8457194000948,412.24844880006276,412.22963059996255,412.33066430012695,412.7311508001294,None,right,1,0.7200168999843299,412.7311508001294,None,412.22963059996255,412.33066430012695,412.33066430012695,None,413.48161450005136,None,,,,,,,11031,001,2024_Jan_11_1050,ANT,2021.2.3,59.88049051326032,
1,11,center,up,IC,L,,,,,,Block.xlsx,"你已经完成了整个实验（三个区组）。

请报告实验者已完成实验

非常感谢，再见！",0,50,1.5,left,RRLRR.png,,,,,0,1,1,1,2,14,62,10,,,,,,,,,,,,,,,,,,,,,,,,,,,,,,,,,,,,,,,,,,,,,,,,,,,,,,,,,,,,,,,,413.88216480007395,414.2830759000499,414.26721989992075,414.36676000012085,414.7683445001021,None,left,1,0.7067762999795377,414.7683445001021,None,414.26721989992075,414.36676000012085,414.36676000012085,None,415.50122749991715,None,,,,,,,11031,001,2024_Jan_11_1050,ANT,2021.2.3,59.88049051326032,
1,18,spatial,up,C,R,,,,,,Block.xlsx,"你已经完成了整个实验（三个区组）。

请报告实验者已完成实验

非常感谢，再见！",1.5,0,1.5,right,RRRRR.png,,,,,0,1,1,1,2,15,63,17,,,,,,,,,,,,,,,,,,,,,,,,,,,,,,,,,,,,,,,,,,,,,,,,,,,,,,,,,,,,,,,,415.9021246000193,416.3024184999522,416.2867268000264,416.3875321999658,416.786534300074,None,right,1,0.7046931001823395,416.786534300074,None,416.2867268000264,416.3875321999658,416.3875321999658,None,417.52113469992764,None,,,,,,,11031,001,2024_Jan_11_1050,ANT,2021.2.3,59.88049051326032,
1,14,center,down,C,R,,,,,,Block.xlsx,"你已经完成了整个实验（三个区组）。

请报告实验者已完成实验

非常感谢，再见！",0,50,-1.5,right,RRRRR.png,,,,,0,1,1,1,2,16,64,13,,,,,,,,,,,,,,,,,,,,,,,,,,,,,,,,,,,,,,,,,,,,,,,,,,,,,,,,,,,,,,,,417.92171090003103,418.32319250004366,418.30647339997813,418.40580249996856,418.80729739996605,None,right,1,0.5639463001862168,418.80729739996605,None,418.30647339997813,418.40580249996856,418.40580249996856,None,419.3901092999149,None,,,,,,,11031,001,2024_Jan_11_1050,ANT,2021.2.3,59.88049051326032,
1,15,center,down,IC,L,,,,,,Block.xlsx,"你已经完成了整个实验（三个区组）。

请报告实验者已完成实验

非常感谢，再见！",0,50,-1.5,left,RRLRR.png,,,,,0,1,1,1,2,17,65,14,,,,,,,,,,,,,,,,,,,,,,,,,,,,,,,,,,,,,,,,,,,,,,,,,,,,,,,,,,,,,,,,419.79078470007516,420.1932914000936,420.175283000106,420.27609629998915,420.67651130002923,None,left,1,0.6869207001291215,420.67651130002923,None,420.175283000106,420.27609629998915,420.27609629998915,None,421.3932099000085,None,,,,,,,11031,001,2024_Jan_11_1050,ANT,2021.2.3,59.88049051326032,
1,16,center,down,IC,R,,,,,,Block.xlsx,"你已经完成了整个实验（三个区组）。

请报告实验者已完成实验

非常感谢，再见！",0,50,-1.5,right,LLRLL.png,,,,,0,1,1,1,2,18,66,15,,,,,,,,,,,,,,,,,,,,,,,,,,,,,,,,,,,,,,,,,,,,,,,,,,,,,,,,,,,,,,,,421.7940680999309,422.1946249001194,422.17860019998625,422.27871960005723,422.679673000006,None,right,1,0.7476409999653697,422.679673000006,None,422.17860019998625,422.27871960005723,422.27871960005723,None,423.4462773001287,None,,,,,,,11031,001,2024_Jan_11_1050,ANT,2021.2.3,59.88049051326032,
1,7,no,down,IC,L,,,,,,Block.xlsx,"你已经完成了整个实验（三个区组）。

请报告实验者已完成实验

非常感谢，再见！",50,0,-1.5,left,RRLRR.png,,,,,0,1,1,1,2,19,67,6,,,,,,,,,,,,,,,,,,,,,,,,,,,,,,,,,,,,,,,,,,,,,,,,,,,,,,,,,,,,,,,,423.84696150012314,424.24828419997357,424.2308078999631,424.33219030010514,424.7327598000411,None,left,1,0.5743623999878764,424.7327598000411,None,424.2308078999631,424.33219030010514,424.33219030010514,None,425.3324041001033,None,,,,,,,11031,001,2024_Jan_11_1050,ANT,2021.2.3,59.88049051326032,
1,22,spatial,down,C,R,,,,,,Block.xlsx,"你已经完成了整个实验（三个区组）。

请报告实验者已完成实验

非常感谢，再见！",-1.5,0,-1.5,right,RRRRR.png,,,,,0,1,1,1,2,20,68,21,,,,,,,,,,,,,,,,,,,,,,,,,,,,,,,,,,,,,,,,,,,,,,,,,,,,,,,,,,,,,,,,425.7336027000565,426.1343386999797,426.11763370013796,426.21751480014063,426.61921139992774,None,right,1,0.4963829000480473,426.61921139992774,None,426.11763370013796,426.21751480014063,426.21751480014063,None,427.13512230012566,None,,,,,,,11031,001,2024_Jan_11_1050,ANT,2021.2.3,59.88049051326032,
1,16,center,down,IC,R,,,,,,Block.xlsx,"你已经完成了整个实验（三个区组）。

请报告实验者已完成实验

非常感谢，再见！",0,50,-1.5,right,LLRLL.png,,,,,0,1,1,1,2,21,69,15,,,,,,,,,,,,,,,,,,,,,,,,,,,,,,,,,,,,,,,,,,,,,,,,,,,,,,,,,,,,,,,,427.53638870012946,427.93721200013533,427.92031170008704,428.0212564000394,428.4217666001059,None,right,1,0.7413371000438929,428.4217666001059,None,427.92031170008704,428.0212564000394,428.0212564000394,None,429.188372500008,None,,,,,,,11031,001,2024_Jan_11_1050,ANT,2021.2.3,59.88049051326032,
1,18,spatial,up,C,R,,,,,,Block.xlsx,"你已经完成了整个实验（三个区组）。

请报告实验者已完成实验

非常感谢，再见！",1.5,0,1.5,right,RRRRR.png,,,,,0,1,1,1,2,22,70,17,,,,,,,,,,,,,,,,,,,,,,,,,,,,,,,,,,,,,,,,,,,,,,,,,,,,,,,,,,,,,,,,429.588894699933,429.990827600006,429.9727417000104,430.07338630012237,430.4735320000909,None,right,1,0.5295057999901474,430.4735320000909,None,429.9727417000104,430.07338630012237,430.07338630012237,None,431.0244949001353,None,,,,,,,11031,001,2024_Jan_11_1050,ANT,2021.2.3,59.88049051326032,
1,19,spatial,up,IC,L,,,,,,Block.xlsx,"你已经完成了整个实验（三个区组）。

请报告实验者已完成实验

非常感谢，再见！",1.5,0,1.5,left,RRLRR.png,,,,,0,1,1,1,2,23,71,18,,,,,,,,,,,,,,,,,,,,,,,,,,,,,,,,,,,,,,,,,,,,,,,,,,,,,,,,,,,,,,,,431.4258004000876,431.8266954999417,431.80887249996886,431.90969759994186,432.3094997999724,None,left,1,0.7416924999561161,432.3094997999724,None,431.80887249996886,431.90969759994186,431.90969759994186,None,433.0773251000792,None,,,,,,,11031,001,2024_Jan_11_1050,ANT,2021.2.3,59.88049051326032,
1,16,center,down,IC,R,,,,,,Block.xlsx,"你已经完成了整个实验（三个区组）。

请报告实验者已完成实验

非常感谢，再见！",0,50,-1.5,right,LLRLL.png,,,,,0,1,1,1,3,0,72,15,,,,,,,,,,,,,,,,,,,,,,,,,,,,,,,,,,,,,,,,,,,,,,,,,,,,,,,,,,,,,,,,433.4777291000355,433.87844950007275,433.86252650013193,433.96239070012234,434.3631617000792,None,right,1,0.7200744999572635,434.3631617000792,None,433.86252650013193,433.96239070012234,433.96239070012234,None,435.1135323001072,None,,,,,,,11031,001,2024_Jan_11_1050,ANT,2021.2.3,59.88049051326032,
1,7,no,down,IC,L,,,,,,Block.xlsx,"你已经完成了整个实验（三个区组）。

请报告实验者已完成实验

非常感谢，再见！",50,0,-1.5,left,RRLRR.png,,,,,0,1,1,1,3,1,73,6,,,,,,,,,,,,,,,,,,,,,,,,,,,,,,,,,,,,,,,,,,,,,,,,,,,,,,,,,,,,,,,,435.5158756999299,435.93262990005314,435.8981149001047,435.9982914000284,436.400279100053,None,left,1,0.587295199977234,436.400279100053,None,435.8981149001047,435.9982914000284,435.9982914000284,None,437.0170529000461,None,,,,,,,11031,001,2024_Jan_11_1050,ANT,2021.2.3,59.88049051326032,
1,5,no,down,C,L,,,,,,Block.xlsx,"你已经完成了整个实验（三个区组）。

请报告实验者已完成实验

非常感谢，再见！",50,0,-1.5,left,LLLLL.png,,,,,0,1,1,1,3,2,74,4,,,,,,,,,,,,,,,,,,,,,,,,,,,,,,,,,,,,,,,,,,,,,,,,,,,,,,,,,,,,,,,,437.41733550000936,437.8183800999541,437.80106620001607,437.90321290004067,438.30170760001056,None,left,1,0.7179449999239296,438.30170760001056,None,437.80106620001607,437.90321290004067,437.90321290004067,None,439.0360624000896,None,,,,,,,11031,001,2024_Jan_11_1050,ANT,2021.2.3,59.88049051326032,
1,5,no,down,C,L,,,,,,Block.xlsx,"你已经完成了整个实验（三个区组）。

请报告实验者已完成实验

非常感谢，再见！",50,0,-1.5,left,LLLLL.png,,,,,0,1,1,1,3,3,75,4,,,,,,,,,,,,,,,,,,,,,,,,,,,,,,,,,,,,,,,,,,,,,,,,,,,,,,,,,,,,,,,,439.43813450005837,439.83895980007946,439.8205983999651,439.92227880004793,440.321333500091,None,left,1,0.5219595001544803,440.321333500091,None,439.8205983999651,439.92227880004793,439.92227880004793,None,440.87223819992505,None,,,,,,,11031,001,2024_Jan_11_1050,ANT,2021.2.3,59.88049051326032,
1,14,center,down,C,R,,,,,,Block.xlsx,"你已经完成了整个实验（三个区组）。

请报告实验者已完成实验

非常感谢，再见！",0,50,-1.5,right,RRRRR.png,,,,,0,1,1,1,3,4,76,13,,,,,,,,,,,,,,,,,,,,,,,,,,,,,,,,,,,,,,,,,,,,,,,,,,,,,,,,,,,,,,,,441.2735067999456,441.6751969999168,441.6572052000556,441.7581305000931,442.15733480011113,None,right,1,0.6298579999711365,442.15733480011113,None,441.6572052000556,441.7581305000931,441.7581305000931,None,442.80843250011094,None,,,,,,,11031,001,2024_Jan_11_1050,ANT,2021.2.3,59.88049051326032,
1,22,spatial,down,C,R,,,,,,Block.xlsx,"你已经完成了整个实验（三个区组）。

请报告实验者已完成实验

非常感谢，再见！",-1.5,0,-1.5,right,RRRRR.png,,,,,0,1,1,1,3,5,77,21,,,,,,,,,,,,,,,,,,,,,,,,,,,,,,,,,,,,,,,,,,,,,,,,,,,,,,,,,,,,,,,,443.2088474999182,443.6102140999865,443.5936698000878,443.6933589000255,444.09447850007564,None,right,1,0.46865090006031096,444.09447850007564,None,443.5936698000878,443.6933589000255,443.6933589000255,None,444.5944668999873,None,,,,,,,11031,001,2024_Jan_11_1050,ANT,2021.2.3,59.88049051326032,
1,1,no,up,C,L,,,,,,Block.xlsx,"你已经完成了整个实验（三个区组）。

请报告实验者已完成实验

非常感谢，再见！",50,0,1.5,left,LLLLL.png,,,,,0,1,1,1,3,6,78,0,,,,,,,,,,,,,,,,,,,,,,,,,,,,,,,,,,,,,,,,,,,,,,,,,,,,,,,,,,,,,,,,444.994978700066,445.39619760005735,445.378967900062,445.47932270006277,445.881330100121,None,left,1,0.5458213000092655,445.881330100121,None,445.378967900062,445.47932270006277,445.47932270006277,None,446.4471124999691,None,,,,,,,11031,001,2024_Jan_11_1050,ANT,2021.2.3,59.88049051326032,
1,21,spatial,down,C,L,,,,,,Block.xlsx,"你已经完成了整个实验（三个区组）。

请报告实验者已完成实验

非常感谢，再见！",-1.5,0,-1.5,left,LLLLL.png,,,,,0,1,1,1,3,7,79,20,,,,,,,,,,,,,,,,,,,,,,,,,,,,,,,,,,,,,,,,,,,,,,,,,,,,,,,,,,,,,,,,446.8477926000487,447.2499043000862,447.2321753001306,447.3319042001385,447.73297249991447,None,left,1,0.5828211000189185,447.73297249991447,None,447.2321753001306,447.3319042001385,447.3319042001385,None,448.33327820012346,None,,,,,,,11031,001,2024_Jan_11_1050,ANT,2021.2.3,59.88049051326032,
1,12,center,up,IC,R,,,,,,Block.xlsx,"你已经完成了整个实验（三个区组）。

请报告实验者已完成实验

非常感谢，再见！",0,50,1.5,right,LLRLL.png,,,,,0,1,1,1,3,8,80,11,,,,,,,,,,,,,,,,,,,,,,,,,,,,,,,,,,,,,,,,,,,,,,,,,,,,,,,,,,,,,,,,448.7337615999859,449.1349035000894,449.1191503999289,449.2186171000358,449.6192044999916,None,right,1,0.649043699959293,449.6192044999916,None,449.1191503999289,449.2186171000358,449.2186171000358,None,450.28611290012486,None,,,,,,,11031,001,2024_Jan_11_1050,ANT,2021.2.3,59.88049051326032,
1,20,spatial,up,IC,R,,,,,,Block.xlsx,"你已经完成了整个实验（三个区组）。

请报告实验者已完成实验

非常感谢，再见！",1.5,0,1.5,right,LLRLL.png,,,,,0,1,1,1,3,9,81,19,,,,,,,,,,,,,,,,,,,,,,,,,,,,,,,,,,,,,,,,,,,,,,,,,,,,,,,,,,,,,,,,450.68674829998054,451.08772960002534,451.0714170001447,451.170846400084,451.57154990010895,None,right,1,0.5915948001202196,451.57154990010895,None,451.0714170001447,451.170846400084,451.170846400084,None,452.1889230001252,None,,,,,,,11031,001,2024_Jan_11_1050,ANT,2021.2.3,59.88049051326032,
1,24,spatial,down,IC,R,,,,,,Block.xlsx,"你已经完成了整个实验（三个区组）。

请报告实验者已完成实验

非常感谢，再见！",-1.5,0,-1.5,right,LLRLL.png,,,,,0,1,1,1,3,10,82,23,,,,,,,,,,,,,,,,,,,,,,,,,,,,,,,,,,,,,,,,,,,,,,,,,,,,,,,,,,,,,,,,452.5895233999472,452.99094059993513,452.9733062000014,453.0757230001036,453.4755804000888,None,right,1,0.5677493000403047,453.4755804000888,None,452.9733062000014,453.0757230001036,453.0757230001036,None,454.05824799998663,None,,,,,,,11031,001,2024_Jan_11_1050,ANT,2021.2.3,59.88049051326032,
1,21,spatial,down,C,L,,,,,,Block.xlsx,"你已经完成了整个实验（三个区组）。

请报告实验者已完成实验

非常感谢，再见！",-1.5,0,-1.5,left,LLLLL.png,,,,,0,1,1,1,3,11,83,20,,,,,,,,,,,,,,,,,,,,,,,,,,,,,,,,,,,,,,,,,,,,,,,,,,,,,,,,,,,,,,,,454.45913440012373,454.86025710008107,454.8436129000038,454.9431710001081,455.3448797001038,None,left,1,0.6424436001107097,455.3448797001038,None,454.8436129000038,454.9431710001081,454.9431710001081,None,456.0112473999616,None,,,,,,,11031,001,2024_Jan_11_1050,ANT,2021.2.3,59.88049051326032,
1,14,center,down,C,R,,,,,,Block.xlsx,"你已经完成了整个实验（三个区组）。

请报告实验者已完成实验

非常感谢，再见！",0,50,-1.5,right,RRRRR.png,,,,,0,1,1,1,3,12,84,13,,,,,,,,,,,,,,,,,,,,,,,,,,,,,,,,,,,,,,,,,,,,,,,,,,,,,,,,,,,,,,,,456.41263959999196,456.8134099000599,456.7976192999631,456.9126478000544,457.29731320007704,None,right,1,0.5472152000293136,457.29731320007704,None,456.7976192999631,456.9126478000544,456.89767620014027,None,457.8643708000891,None,,,,,,,11031,001,2024_Jan_11_1050,ANT,2021.2.3,59.88049051326032,
1,3,no,up,IC,L,,,,,,Block.xlsx,"你已经完成了整个实验（三个区组）。

请报告实验者已完成实验

非常感谢，再见！",50,0,1.5,left,RRLRR.png,,,,,0,1,1,1,3,13,85,2,,,,,,,,,,,,,,,,,,,,,,,,,,,,,,,,,,,,,,,,,,,,,,,,,,,,,,,,,,,,,,,,458.2650482999161,458.6652860001195,458.649778699968,458.74912329996005,459.1492401000578,None,left,1,0.5821103998459876,459.1492401000578,None,458.649778699968,458.74912329996005,458.74912329996005,None,459.7500166001264,None,,,,,,,11031,001,2024_Jan_11_1050,ANT,2021.2.3,59.88049051326032,
1,19,spatial,up,IC,L,,,,,,Block.xlsx,"你已经完成了整个实验（三个区组）。

请报告实验者已完成实验

非常感谢，再见！",1.5,0,1.5,left,RRLRR.png,,,,,0,1,1,1,3,14,86,18,,,,,,,,,,,,,,,,,,,,,,,,,,,,,,,,,,,,,,,,,,,,,,,,,,,,,,,,,,,,,,,,460.1508093001321,460.55302629992366,460.5354472999461,460.6354130001273,461.035247300053,None,left,1,0.5281142999883741,461.035247300053,None,460.5354472999461,460.6354130001273,460.6354130001273,None,461.5864685999695,None,,,,,,,11031,001,2024_Jan_11_1050,ANT,2021.2.3,59.88049051326032,
1,17,spatial,up,C,L,,,,,,Block.xlsx,"你已经完成了整个实验（三个区组）。

请报告实验者已完成实验

非常感谢，再见！",1.5,0,1.5,left,LLLLL.png,,,,,0,1,1,1,3,15,87,16,,,,,,,,,,,,,,,,,,,,,,,,,,,,,,,,,,,,,,,,,,,,,,,,,,,,,,,,,,,,,,,,461.98696439992636,462.38739389996044,462.3713656999171,462.472824400058,462.87293990002945,None,left,1,0.4829152000602335,462.87293990002945,None,462.3713656999171,462.472824400058,462.472824400058,None,463.37216029991396,None,,,,,,,11031,001,2024_Jan_11_1050,ANT,2021.2.3,59.88049051326032,
1,24,spatial,down,IC,R,,,,,,Block.xlsx,"你已经完成了整个实验（三个区组）。

请报告实验者已完成实验

非常感谢，再见！",-1.5,0,-1.5,right,LLRLL.png,,,,,0,1,1,1,3,16,88,23,,,,,,,,,,,,,,,,,,,,,,,,,,,,,,,,,,,,,,,,,,,,,,,,,,,,,,,,,,,,,,,,463.772992500104,464.17348310002126,464.15660819993354,464.25664969999343,464.6576642000582,None,right,1,0.5295160000678152,464.6576642000582,None,464.15660819993354,464.25664969999343,464.25664969999343,None,465.2082571000792,None,,,,,,,11031,001,2024_Jan_11_1050,ANT,2021.2.3,59.88049051326032,
1,15,center,down,IC,L,,,,,,Block.xlsx,"你已经完成了整个实验（三个区组）。

请报告实验者已完成实验

非常感谢，再见！",0,50,-1.5,left,RRLRR.png,,,,,0,1,1,1,3,17,89,14,,,,,,,,,,,,,,,,,,,,,,,,,,,,,,,,,,,,,,,,,,,,,,,,,,,,,,,,,,,,,,,,465.60933090001345,466.0092907000799,465.9951468000654,466.11072019999847,466.4956380999647,None,left,1,0.5234866999089718,466.4956380999647,None,465.9951468000654,466.11072019999847,466.0934073999524,None,467.04434070014395,None,,,,,,,11031,001,2024_Jan_11_1050,ANT,2021.2.3,59.88049051326032,
1,16,center,down,IC,R,,,,,,Block.xlsx,"你已经完成了整个实验（三个区组）。

请报告实验者已完成实验

非常感谢，再见！",0,50,-1.5,right,LLRLL.png,,,,,0,1,1,1,3,18,90,15,,,,,,,,,,,,,,,,,,,,,,,,,,,,,,,,,,,,,,,,,,,,,,,,,,,,,,,,,,,,,,,,467.44483630009927,467.84636300010607,467.8293811001349,467.92983509995975,468.33017500001006,None,right,1,0.5610382000450045,468.33017500001006,None,467.8293811001349,467.92983509995975,467.92983509995975,None,468.9147324000951,None,,,,,,,11031,001,2024_Jan_11_1050,ANT,2021.2.3,59.88049051326032,
1,14,center,down,C,R,,,,,,Block.xlsx,"你已经完成了整个实验（三个区组）。

请报告实验者已完成实验

非常感谢，再见！",0,50,-1.5,right,RRRRR.png,,,,,0,1,1,1,3,19,91,13,,,,,,,,,,,,,,,,,,,,,,,,,,,,,,,,,,,,,,,,,,,,,,,,,,,,,,,,,,,,,,,,469.31441060011275,469.71503100008704,469.69811669993214,469.79883720004,470.20017430000007,None,left,0,0.5069934001658112,470.20017430000007,None,469.69811669993214,469.79883720004,469.79883720004,None,470.733086100081,None,,,,,,,11031,001,2024_Jan_11_1050,ANT,2021.2.3,59.88049051326032,
1,20,spatial,up,IC,R,,,,,,Block.xlsx,"你已经完成了整个实验（三个区组）。

请报告实验者已完成实验

