TrialType,TrialNumber,WarningType,TargetType,FlankerType,TargetDirection,W,f,Y,corr,imageFile,condition,endtext,Yw,Yf,Yt,Corr,imagefile,trials_3.thisRepN,trials_3.thisTrialN,trials_3.thisN,trials_3.thisIndex,trials_2.thisRepN,trials_2.thisTrialN,trials_2.thisN,trials_2.thisIndex,trials.thisRepN,trials.thisTrialN,trials.thisN,trials.thisIndex,instr.started,instr.stopped,key_resp.keys,key_resp.rt,key_resp.started,key_resp.stopped,image.started,image.stopped,key_resp_6.keys,key_resp_6.rt,key_resp_6.started,key_resp_6.stopped,EX_L.started,EX_L.stopped,AL.started,AL.stopped,key_resp_7.keys,key_resp_7.rt,key_resp_7.started,key_resp_7.stopped,EX_R.started,EX_R.stopped,RR.started,RR.stopped,key_resp_8.keys,key_resp_8.rt,key_resp_8.started,key_resp_8.stopped,image_2.started,image_2.stopped,key_resp_9.keys,key_resp_9.rt,key_resp_9.started,key_resp_9.stopped,image_3.started,image_3.stopped,key_resp_10.keys,key_resp_10.rt,key_resp_10.started,key_resp_10.stopped,fix.started,fix.stopped,war.started,war.stopped,tar.started,tar.stopped,key_resp_4.keys,key_resp_4.corr,key_resp_4.rt,key_resp_4.started,key_resp_4.stopped,fix2.started,fix2.stopped,fix_2.started,fix_2.stopped,Feedback.started,Feedback.stopped,key_resp_2.keys,key_resp_2.rt,key_resp_2.started,key_resp_2.stopped,text_5.started,text_5.stopped,fix2_1.started,fix2_1.stopped,Warn.started,Warn.stopped,Tar.started,Tar.stopped,key_resp_5.keys,key_resp_5.corr,key_resp_5.rt,key_resp_5.started,key_resp_5.stopped,Fix_2.started,Fix_2.stopped,fix2_2.started,fix2_2.stopped,text_4.started,text_4.stopped,key_resp_3.keys,key_resp_3.rt,key_resp_3.started,key_resp_3.stopped,text_3.started,text_3.stopped,participant,session,date,expName,psychopyVersion,frameRate,
,,,,,,,,,,,,,,,,,,,,,,,,,,,,,,8.422901899990393,None,space,1.5970339000050444,8.422901899990393,None,,,,,,,,,,,,,,,,,,,,,,,,,,,,,,,,,,,,,,,,,,,,,,,,,,,,,,,,,,,,,,,,,,,,,,,,,,,,,,,,,11039,001,2024_Mar_13_1354,ANT,2021.2.3,60.20368109590457,
,,,,,,,,,,,,,,,,,,,,,,,,,,,,,,,,,,,,10.039788499998394,None,space,10.284469000005629,10.039788499998394,None,,,,,,,,,,,,,,,,,,,,,,,,,,,,,,,,,,,,,,,,,,,,,,,,,,,,,,,,,,,,,,,,,,,,,,,,,,,11039,001,2024_Mar_13_1354,ANT,2021.2.3,60.20368109590457,
,,,,,,,,,,,,,,,,,,,,,,,,,,,,,,,,,,,,,,,,,,20.35545319999801,None,20.35545319999801,None,left,1.1129292999976315,20.35545319999801,None,,,,,,,,,,,,,,,,,,,,,,,,,,,,,,,,,,,,,,,,,,,,,,,,,,,,,,,,,,,,,,,,,,,11039,001,2024_Mar_13_1354,ANT,2021.2.3,60.20368109590457,
,,,,,,,,,,,,,,,,,,,,,,,,,,,,,,,,,,,,,,,,,,,,,,,,,,21.490460099987104,None,21.490460099987104,None,right,0.5619688000006136,21.490460099987104,None,,,,,,,,,,,,,,,,,,,,,,,,,,,,,,,,,,,,,,,,,,,,,,,,,,,,,,,,,,,11039,001,2024_Mar_13_1354,ANT,2021.2.3,60.20368109590457,
,,,,,,,,,,,,,,,,,,,,,,,,,,,,,,,,,,,,,,,,,,,,,,,,,,,,,,,,,,22.07485469999665,None,space,9.521646400011377,22.07485469999665,None,,,,,,,,,,,,,,,,,,,,,,,,,,,,,,,,,,,,,,,,,,,,,,,,,,,,,11039,001,2024_Mar_13_1354,ANT,2021.2.3,60.20368109590457,
,,,,,,,,,,,,,,,,,,,,,,,,,,,,,,,,,,,,,,,,,,,,,,,,,,,,,,,,,,,,,,,,31.623193199993693,None,space,3.0291068999940762,31.623193199993693,None,,,,,,,,,,,,,,,,,,,,,,,,,,,,,,,,,,,,,,,,,,,,,,,11039,001,2024_Mar_13_1354,ANT,2021.2.3,60.20368109590457,
0,11,spatial,down,C,L,-1.5,0,-1.5,left,LLLLL.png,,,,,,,,0,0,0,10,,,,,,,,,,,,,,,,,,,,,,,,,,,,,,,,,,,,,,,,,,,,,,,,,34.743349599986686,35.14465199998813,35.14465199998813,35.244677700000466,35.645063199990545,None,left,1,0.5032752999977674,35.645063199990545,None,35.14465199998813,35.244677700000466,35.244677700000466,None,36.19604640000034,None,,,,,,,,,,,,,,,,,,,,,,,,,,,,,,11039,001,2024_Mar_13_1354,ANT,2021.2.3,60.20368109590457,
0,1,no,up,C,L,50,0,1.5,left,LLLLL.png,,,,,,,,0,1,1,0,,,,,,,,,,,,,,,,,,,,,,,,,,,,,,,,,,,,,,,,,,,,,,,,,38.19905719999224,38.601965299996664,38.5835425999976,38.683491199990385,39.083668999999645,None,left,1,0.43311840000387747,39.083668999999645,None,38.5835425999976,38.683491199990385,38.683491199990385,None,39.534096099989256,None,,,,,,,,,,,,,,,,,,,,,,,,,,,,,,11039,001,2024_Mar_13_1354,ANT,2021.2.3,60.20368109590457,
0,12,spatial,down,IC,R,-1.5,0,-1.5,right,LLRLL.png,,,,,,,,0,2,2,11,,,,,,,,,,,,,,,,,,,,,,,,,,,,,,,,,,,,,,,,,,,,,,,,,41.537347699995735,41.9399415999942,41.921336599989445,42.02155049999419,42.42214339999191,None,right,1,0.47865879999881145,42.42214339999191,None,41.921336599989445,42.02155049999419,42.02155049999419,None,42.922540999992634,None,,,,,,,,,,,,,,,,,,,,,,,,,,,,,,11039,001,2024_Mar_13_1354,ANT,2021.2.3,60.20368109590457,
0,2,no,up,IC,R,50,0,1.5,right,LLRLL.png,,,,,,,,0,3,3,1,,,,,,,,,,,,,,,,,,,,,,,,,,,,,,,,,,,,,,,,,,,,,,,,,44.92564589998801,45.32861579999735,45.30974579999747,45.40969409998797,45.81176059998688,None,right,1,0.6009021000063512,45.81176059998688,None,45.30974579999747,45.40969409998797,45.40969409998797,None,46.427775599993765,None,,,,,,,,,,,,,,,,,,,,,,,,,,,,,,11039,001,2024_Mar_13_1354,ANT,2021.2.3,60.20368109590457,
0,9,spatial,up,C,R,1.5,0,1.5,right,RRRRR.png,,,,,,,,0,4,4,8,,,,,,,,,,,,,,,,,,,,,,,,,,,,,,,,,,,,,,,,,,,,,,,,,48.43112159999146,48.831927099992754,48.81512999998813,48.91634250000061,49.31580609999946,None,right,1,0.34556219998921733,49.31580609999946,None,48.81512999998813,48.91634250000061,48.91634250000061,None,49.682808499987004,None,,,,,,,,,,,,,,,,,,,,,,,,,,,,,,11039,001,2024_Mar_13_1354,ANT,2021.2.3,60.20368109590457,
0,5,center,up,C,L,0,50,1.5,left,LLLLL.png,,,,,,,,0,5,5,4,,,,,,,,,,,,,,,,,,,,,,,,,,,,,,,,,,,,,,,,,,,,,,,,,51.68612449998909,52.08720129998983,52.07098459999543,52.1708748999954,52.57162179998704,None,left,1,0.4014690000039991,52.57162179998704,None,52.07098459999543,52.1708748999954,52.1708748999954,None,52.98819659999572,None,,,,,,,,,,,,,,,,,,,,,,,,,,,,,,11039,001,2024_Mar_13_1354,ANT,2021.2.3,60.20368109590457,
0,4,no,down,IC,L,50,0,-1.5,left,RRLRR.png,,,,,,,,0,6,6,3,,,,,,,,,,,,,,,,,,,,,,,,,,,,,,,,,,,,,,,,,,,,,,,,,54.99116029999277,55.39181079999253,55.37637259998883,55.47498029998678,55.875619300000835,None,left,1,0.6825646000070265,55.875619300000835,None,55.37637259998883,55.47498029998678,55.47498029998678,None,56.576027699993574,None,,,,,,,,,,,,,,,,,,,,,,,,,,,,,,11039,001,2024_Mar_13_1354,ANT,2021.2.3,60.20368109590457,
0,3,no,down,C,R,50,0,-1.5,right,RRRRR.png,,,,,,,,0,7,7,2,,,,,,,,,,,,,,,,,,,,,,,,,,,,,,,,,,,,,,,,,,,,,,,,,58.58031909998681,58.980896099994425,58.963384099988616,59.06400089999079,59.46451669999806,None,right,1,0.380788999987999,59.46451669999806,None,58.963384099988616,59.06400089999079,59.06400089999079,None,59.86503119999543,None,,,,,,,,,,,,,,,,,,,,,,,,,,,,,,11039,001,2024_Mar_13_1354,ANT,2021.2.3,60.20368109590457,
0,8,center,down,IC,L,0,50,-1.5,left,RRLRR.png,,,,,,,,0,8,8,7,,,,,,,,,,,,,,,,,,,,,,,,,,,,,,,,,,,,,,,,,,,,,,,,,61.86874279999756,62.269825999988825,62.25298739998834,62.352945299993735,62.75365959999908,None,right,0,0.4358512000035262,62.75365959999908,None,62.25298739998834,62.352945299993735,62.352945299993735,None,63.21997149998788,None,,,,,,,,,,,,,,,,,,,,,,,,,,,,,,11039,001,2024_Mar_13_1354,ANT,2021.2.3,60.20368109590457,
0,7,center,down,C,R,0,50,-1.5,right,RRRRR.png,,,,,,,,0,9,9,6,,,,,,,,,,,,,,,,,,,,,,,,,,,,,,,,,,,,,,,,,,,,,,,,,65.22290589999466,65.6253272999893,65.60686409998743,65.70774659999006,66.10784989999956,None,right,1,0.3938429999980144,66.10784989999956,None,65.60686409998743,65.70774659999006,65.70774659999006,None,66.5249172999902,None,,,,,,,,,,,,,,,,,,,,,,,,,,,,,,11039,001,2024_Mar_13_1354,ANT,2021.2.3,60.20368109590457,
0,6,center,up,IC,R,0,50,1.5,right,LLRLL.png,,,,,,,,0,10,10,5,,,,,,,,,,,,,,,,,,,,,,,,,,,,,,,,,,,,,,,,,,,,,,,,,68.52785679999215,68.92850009999529,68.91299559999607,69.01272059998882,69.4126760999934,None,left,0,0.36864040000364184,69.4126760999934,None,68.91299559999607,69.01272059998882,69.01272059998882,None,69.79641919999267,None,,,,,,,,,,,,,,,,,,,,,,,,,,,,,,11039,001,2024_Mar_13_1354,ANT,2021.2.3,60.20368109590457,
0,10,spatial,up,IC,L,1.5,0,1.5,left,RRLRR.png,,,,,,,,0,11,11,9,,,,,,,,,,,,,,,,,,,,,,,,,,,,,,,,,,,,,,,,,,,,,,,,,71.80003389999911,72.20158049999736,72.1834969999909,72.28457219999109,72.68446209999092,None,left,1,0.4971320000040578,72.68446209999092,None,72.1834969999909,72.28457219999109,72.28457219999109,None,73.20167169999331,None,,,,,,,,,,,,,,,,,,,,,,,,,,,,,,11039,001,2024_Mar_13_1354,ANT,2021.2.3,60.20368109590457,
,,,,,,,,,,,,,,,,,,,,,,,,,,,,,,,,,,,,,,,,,,,,,,,,,,,,,,,,,,,,,,,,,,,,,,,,,,,,,,,,,,,,,,,space,18.240709100005915,75.20543929999985,None,,,,,,,,,,,,,,,,,,,,,,,,,,11039,001,2024_Mar_13_1354,ANT,2021.2.3,60.20368109590457,
1,7,no,down,IC,L,,,,,,Block.xlsx,"你已经完成了第一个实验区组

请稍作休息


点击空格键进入下一个区组。",50,0,-1.5,left,RRLRR.png,,,,,0,0,0,0,0,0,0,6,,,,,,,,,,,,,,,,,,,,,,,,,,,,,,,,,,,,,,,,,,,,,,,,,,,,,,,,,,,,,,75.20543929999985,None,93.49937489999866,93.89953519999108,93.88411339999584,93.98502179999196,94.38474309998855,None,left,1,0.5493851000064751,94.38474309998855,None,93.88411339999584,93.98502179999196,93.98502179999196,None,94.95116179999604,None,,,,,,,11039,001,2024_Mar_13_1354,ANT,2021.2.3,60.20368109590457,
1,18,spatial,up,C,R,,,,,,Block.xlsx,"你已经完成了第一个实验区组

请稍作休息


点击空格键进入下一个区组。",1.5,0,1.5,right,RRRRR.png,,,,,0,0,0,0,0,1,1,17,,,,,,,,,,,,,,,,,,,,,,,,,,,,,,,,,,,,,,,,,,,,,,,,,,,,,,,,,,,,,,,,95.35177999999723,95.75343299999076,95.73573119999492,95.83717759999854,96.23800339999434,None,right,1,0.40827129999524914,96.23800339999434,None,95.73573119999492,95.83717759999854,95.83717759999854,None,96.67062319999968,None,,,,,,,11039,001,2024_Mar_13_1354,ANT,2021.2.3,60.20368109590457,
1,10,center,up,C,R,,,,,,Block.xlsx,"你已经完成了第一个实验区组

请稍作休息


点击空格键进入下一个区组。",0,50,1.5,right,RRRRR.png,,,,,0,0,0,0,0,2,2,9,,,,,,,,,,,,,,,,,,,,,,,,,,,,,,,,,,,,,,,,,,,,,,,,,,,,,,,,,,,,,,,,97.07104319999053,97.47269629999937,97.45554799999809,97.5553363999934,97.95755809999537,None,right,1,0.44910719999461435,97.95755809999537,None,97.45554799999809,97.5553363999934,97.5553363999934,None,98.42289389998768,None,,,,,,,11039,001,2024_Mar_13_1354,ANT,2021.2.3,60.20368109590457,
1,14,center,down,C,R,,,,,,Block.xlsx,"你已经完成了第一个实验区组

请稍作休息


点击空格键进入下一个区组。",0,50,-1.5,right,RRRRR.png,,,,,0,0,0,0,0,3,3,13,,,,,,,,,,,,,,,,,,,,,,,,,,,,,,,,,,,,,,,,,,,,,,,,,,,,,,,,,,,,,,,,98.82382809999399,99.22490629999083,99.20744079998985,99.307791299987,99.70819389999087,None,right,1,0.4826658999954816,99.70819389999087,None,99.20744079998985,99.307791299987,99.307791299987,None,100.20966019999469,None,,,,,,,11039,001,2024_Mar_13_1354,ANT,2021.2.3,60.20368109590457,
1,3,no,up,IC,L,,,,,,Block.xlsx,"你已经完成了第一个实验区组

请稍作休息


点击空格键进入下一个区组。",50,0,1.5,left,RRLRR.png,,,,,0,0,0,0,0,4,4,2,,,,,,,,,,,,,,,,,,,,,,,,,,,,,,,,,,,,,,,,,,,,,,,,,,,,,,,,,,,,,,,,100.60985909998999,101.01023419998819,100.99440219999815,101.0937799999956,101.49522849998903,None,left,1,0.5029039999935776,101.49522849998903,None,100.99440219999815,101.0937799999956,101.0937799999956,None,102.02848209999502,None,,,,,,,11039,001,2024_Mar_13_1354,ANT,2021.2.3,60.20368109590457,
1,10,center,up,C,R,,,,,,Block.xlsx,"你已经完成了第一个实验区组

请稍作休息


点击空格键进入下一个区组。",0,50,1.5,right,RRRRR.png,,,,,0,0,0,0,0,5,5,9,,,,,,,,,,,,,,,,,,,,,,,,,,,,,,,,,,,,,,,,,,,,,,,,,,,,,,,,,,,,,,,,102.42994409998937,102.83121439999377,102.81294530000014,102.9154356999934,103.31474449999223,None,right,1,0.4356495999963954,103.31474449999223,None,102.81294530000014,102.9154356999934,102.9154356999934,None,103.78117799999018,None,,,,,,,11039,001,2024_Mar_13_1354,ANT,2021.2.3,60.20368109590457,
1,14,center,down,C,R,,,,,,Block.xlsx,"你已经完成了第一个实验区组

请稍作休息


点击空格键进入下一个区组。",0,50,-1.5,right,RRRRR.png,,,,,0,0,0,0,0,6,6,13,,,,,,,,,,,,,,,,,,,,,,,,,,,,,,,,,,,,,,,,,,,,,,,,,,,,,,,,,,,,,,,,104.18179229999078,104.58231689999229,104.56634449999547,104.66648010000063,105.06641959999979,None,right,1,0.47584009999991395,105.06641959999979,None,104.56634449999547,104.66648010000063,104.66648010000063,None,105.56733130000066,None,,,,,,,11039,001,2024_Mar_13_1354,ANT,2021.2.3,60.20368109590457,
1,22,spatial,down,C,R,,,,,,Block.xlsx,"你已经完成了第一个实验区组

请稍作休息


点击空格键进入下一个区组。",-1.5,0,-1.5,right,RRRRR.png,,,,,0,0,0,0,0,7,7,21,,,,,,,,,,,,,,,,,,,,,,,,,,,,,,,,,,,,,,,,,,,,,,,,,,,,,,,,,,,,,,,,105.96780399999989,106.3694140999869,106.35180629999377,106.45195229999081,106.85338229998888,None,right,1,0.377535200008424,106.85338229998888,None,106.35180629999377,106.45195229999081,106.45195229999081,None,107.25322689999302,None,,,,,,,11039,001,2024_Mar_13_1354,ANT,2021.2.3,60.20368109590457,
1,24,spatial,down,IC,R,,,,,,Block.xlsx,"你已经完成了第一个实验区组

请稍作休息


点击空格键进入下一个区组。",-1.5,0,-1.5,right,LLRLL.png,,,,,0,0,0,0,0,8,8,23,,,,,,,,,,,,,,,,,,,,,,,,,,,,,,,,,,,,,,,,,,,,,,,,,,,,,,,,,,,,,,,,107.6536414000002,108.05473959998926,108.03825990000041,108.13961579999886,108.5383245999983,None,right,1,0.5081594999937806,108.5383245999983,None,108.03825990000041,108.13961579999886,108.13961579999886,None,109.07278779998887,None,,,,,,,11039,001,2024_Mar_13_1354,ANT,2021.2.3,60.20368109590457,
1,16,center,down,IC,R,,,,,,Block.xlsx,"你已经完成了第一个实验区组

请稍作休息


点击空格键进入下一个区组。",0,50,-1.5,right,LLRLL.png,,,,,0,0,0,0,0,9,9,15,,,,,,,,,,,,,,,,,,,,,,,,,,,,,,,,,,,,,,,,,,,,,,,,,,,,,,,,,,,,,,,,109.47289179998916,109.87366359999578,109.85747559998708,109.95809349999763,110.35767610000039,None,right,1,0.465041100003873,110.35767610000039,None,109.85747559998708,109.95809349999763,109.95809349999763,None,110.84185169999546,None,,,,,,,11039,001,2024_Mar_13_1354,ANT,2021.2.3,60.20368109590457,
1,2,no,up,C,R,,,,,,Block.xlsx,"你已经完成了第一个实验区组

请稍作休息


点击空格键进入下一个区组。",50,0,1.5,right,RRRRR.png,,,,,0,0,0,0,0,10,10,1,,,,,,,,,,,,,,,,,,,,,,,,,,,,,,,,,,,,,,,,,,,,,,,,,,,,,,,,,,,,,,,,111.2425887999998,111.64400859999296,111.6272917999886,111.72691959999793,112.12725749998935,None,right,1,0.4872532000008505,112.12725749998935,None,111.6272917999886,111.72691959999793,111.72691959999793,None,112.64510840000003,None,,,,,,,11039,001,2024_Mar_13_1354,ANT,2021.2.3,60.20368109590457,
1,15,center,down,IC,L,,,,,,Block.xlsx,"你已经完成了第一个实验区组

请稍作休息


点击空格键进入下一个区组。",0,50,-1.5,left,RRLRR.png,,,,,0,0,0,0,0,11,11,14,,,,,,,,,,,,,,,,,,,,,,,,,,,,,,,,,,,,,,,,,,,,,,,,,,,,,,,,,,,,,,,,113.04524919998948,113.44612959999358,113.43013259999861,113.52923979998741,113.92981119999604,None,left,1,0.47653870000794996,113.92981119999604,None,113.43013259999861,113.52923979998741,113.52923979998741,None,114.43088089999219,None,,,,,,,11039,001,2024_Mar_13_1354,ANT,2021.2.3,60.20368109590457,
1,15,center,down,IC,L,,,,,,Block.xlsx,"你已经完成了第一个实验区组

请稍作休息


点击空格键进入下一个区组。",0,50,-1.5,left,RRLRR.png,,,,,0,0,0,0,0,12,12,14,,,,,,,,,,,,,,,,,,,,,,,,,,,,,,,,,,,,,,,,,,,,,,,,,,,,,,,,,,,,,,,,114.83152519998839,115.23170809999283,115.21595719999459,115.31555780000053,115.71572079999896,None,left,1,0.4909419000032358,115.71572079999896,None,115.21595719999459,115.31555780000053,115.31555780000053,None,116.23321829999622,None,,,,,,,11039,001,2024_Mar_13_1354,ANT,2021.2.3,60.20368109590457,
1,6,no,down,C,R,,,,,,Block.xlsx,"你已经完成了第一个实验区组

请稍作休息


点击空格键进入下一个区组。",50,0,-1.5,right,RRRRR.png,,,,,0,0,0,0,0,13,13,5,,,,,,,,,,,,,,,,,,,,,,,,,,,,,,,,,,,,,,,,,,,,,,,,,,,,,,,,,,,,,,,,116.63396529998863,117.03528229999938,117.0188053999882,117.11983399999735,117.51857069999096,None,right,1,0.5925292000029003,117.51857069999096,None,117.0188053999882,117.11983399999735,117.11983399999735,None,118.13677279998956,None,,,,,,,11039,001,2024_Mar_13_1354,ANT,2021.2.3,60.20368109590457,
1,12,center,up,IC,R,,,,,,Block.xlsx,"你已经完成了第一个实验区组

请稍作休息


点击空格键进入下一个区组。",0,50,1.5,right,LLRLL.png,,,,,0,0,0,0,0,14,14,11,,,,,,,,,,,,,,,,,,,,,,,,,,,,,,,,,,,,,,,,,,,,,,,,,,,,,,,,,,,,,,,,118.5375808999961,118.9380788999988,118.92174949999026,119.0218113999872,119.42256029999407,None,right,1,0.6001935999956913,119.42256029999407,None,118.92174949999026,119.0218113999872,119.0218113999872,None,120.03906089998782,None,,,,,,,11039,001,2024_Mar_13_1354,ANT,2021.2.3,60.20368109590457,
1,19,spatial,up,IC,L,,,,,,Block.xlsx,"你已经完成了第一个实验区组

请稍作休息


点击空格键进入下一个区组。",1.5,0,1.5,left,RRLRR.png,,,,,0,0,0,0,0,15,15,18,,,,,,,,,,,,,,,,,,,,,,,,,,,,,,,,,,,,,,,,,,,,,,,,,,,,,,,,,,,,,,,,120.43937969999388,120.84103459998732,120.82347139999911,120.92369859998871,121.32428139999683,None,left,1,0.4265592000010656,121.32428139999683,None,120.82347139999911,120.92369859998871,120.92369859998871,None,121.77489179999975,None,,,,,,,11039,001,2024_Mar_13_1354,ANT,2021.2.3,60.20368109590457,
1,20,spatial,up,IC,R,,,,,,Block.xlsx,"你已经完成了第一个实验区组

请稍作休息


点击空格键进入下一个区组。",1.5,0,1.5,right,LLRLL.png,,,,,0,0,0,0,0,16,16,19,,,,,,,,,,,,,,,,,,,,,,,,,,,,,,,,,,,,,,,,,,,,,,,,,,,,,,,,,,,,,,,,122.17609039999661,122.57623039999453,122.55946509999922,122.66069859999698,123.06098359999305,None,right,1,0.3058694000064861,123.06098359999305,None,122.55946509999922,122.66069859999698,122.66069859999698,None,123.39438009999867,None,,,,,,,11039,001,2024_Mar_13_1354,ANT,2021.2.3,60.20368109590457,
1,5,no,down,C,L,,,,,,Block.xlsx,"你已经完成了第一个实验区组

请稍作休息


点击空格键进入下一个区组。",50,0,-1.5,left,LLLLL.png,,,,,0,0,0,0,0,17,17,4,,,,,,,,,,,,,,,,,,,,,,,,,,,,,,,,,,,,,,,,,,,,,,,,,,,,,,,,,,,,,,,,123.79477959999349,124.19538649999595,124.17876919999253,124.28107099999033,124.68093889999727,None,left,1,0.5017507000011392,124.68093889999727,None,124.17876919999253,124.28107099999033,124.28107099999033,None,125.21330479999597,None,,,,,,,11039,001,2024_Mar_13_1354,ANT,2021.2.3,60.20368109590457,
1,10,center,up,C,R,,,,,,Block.xlsx,"你已经完成了第一个实验区组

请稍作休息


点击空格键进入下一个区组。",0,50,1.5,right,RRRRR.png,,,,,0,0,0,0,0,18,18,9,,,,,,,,,,,,,,,,,,,,,,,,,,,,,,,,,,,,,,,,,,,,,,,,,,,,,,,,,,,,,,,,125.61408079999092,126.01544709999871,125.99870969999756,126.09809879999375,126.5014560999989,None,right,1,0.34553999999479856,126.5014560999989,None,125.99870969999756,126.09809879999375,126.09809879999375,None,126.86587389999477,None,,,,,,,11039,001,2024_Mar_13_1354,ANT,2021.2.3,60.20368109590457,
1,20,spatial,up,IC,R,,,,,,Block.xlsx,"你已经完成了第一个实验区组

请稍作休息


点击空格键进入下一个区组。",1.5,0,1.5,right,LLRLL.png,,,,,0,0,0,0,0,19,19,19,,,,,,,,,,,,,,,,,,,,,,,,,,,,,,,,,,,,,,,,,,,,,,,,,,,,,,,,,,,,,,,,127.26742109999759,127.6696826999978,127.65048879999085,127.750713299989,128.152468699991,None,right,1,0.4385878000030061,128.152468699991,None,127.65048879999085,127.750713299989,127.750713299989,None,128.61864109999442,None,,,,,,,11039,001,2024_Mar_13_1354,ANT,2021.2.3,60.20368109590457,
1,11,center,up,IC,L,,,,,,Block.xlsx,"你已经完成了第一个实验区组

请稍作休息


点击空格键进入下一个区组。",0,50,1.5,left,RRLRR.png,,,,,0,0,0,0,0,20,20,10,,,,,,,,,,,,,,,,,,,,,,,,,,,,,,,,,,,,,,,,,,,,,,,,,,,,,,,,,,,,,,,,129.0200041999924,129.41983279999113,129.40314059999946,129.50351929999306,129.9046043999988,None,left,1,0.46302799999830313,129.9046043999988,None,129.40314059999946,129.50351929999306,129.50351929999306,None,130.38780819998647,None,,,,,,,11039,001,2024_Mar_13_1354,ANT,2021.2.3,60.20368109590457,
1,9,center,up,C,L,,,,,,Block.xlsx,"你已经完成了第一个实验区组

请稍作休息


点击空格键进入下一个区组。",0,50,1.5,left,LLLLL.png,,,,,0,0,0,0,0,21,21,8,,,,,,,,,,,,,,,,,,,,,,,,,,,,,,,,,,,,,,,,,,,,,,,,,,,,,,,,,,,,,,,,130.78851649998978,131.19003909999446,131.17253169999458,131.27292489999672,131.6734209999995,None,left,1,0.4058789999980945,131.6734209999995,None,131.17253169999458,131.27292489999672,131.27292489999672,None,132.10767769999802,None,,,,,,,11039,001,2024_Mar_13_1354,ANT,2021.2.3,60.20368109590457,
1,3,no,up,IC,L,,,,,,Block.xlsx,"你已经完成了第一个实验区组

请稍作休息


点击空格键进入下一个区组。",50,0,1.5,left,RRLRR.png,,,,,0,0,0,0,0,22,22,2,,,,,,,,,,,,,,,,,,,,,,,,,,,,,,,,,,,,,,,,,,,,,,,,,,,,,,,,,,,,,,,,132.50878229999216,132.9094452999998,132.89152349998767,132.9917945999914,133.3940650000004,None,left,1,0.5811333000019658,133.3940650000004,None,132.89152349998767,132.9917945999914,132.9917945999914,None,133.9931213999953,None,,,,,,,11039,001,2024_Mar_13_1354,ANT,2021.2.3,60.20368109590457,
1,11,center,up,IC,L,,,,,,Block.xlsx,"你已经完成了第一个实验区组

请稍作休息


点击空格键进入下一个区组。",0,50,1.5,left,RRLRR.png,,,,,0,0,0,0,0,23,23,10,,,,,,,,,,,,,,,,,,,,,,,,,,,,,,,,,,,,,,,,,,,,,,,,,,,,,,,,,,,,,,,,134.39381649999996,134.7965550999943,134.7779046999931,134.87842949999322,135.27860949999013,None,left,1,0.44113300000026356,135.27860949999013,None,134.7779046999931,134.87842949999322,134.87842949999322,None,135.74625240000023,None,,,,,,,11039,001,2024_Mar_13_1354,ANT,2021.2.3,60.20368109590457,
1,20,spatial,up,IC,R,,,,,,Block.xlsx,"你已经完成了第一个实验区组

请稍作休息


点击空格键进入下一个区组。",1.5,0,1.5,right,LLRLL.png,,,,,0,0,0,0,1,0,24,19,,,,,,,,,,,,,,,,,,,,,,,,,,,,,,,,,,,,,,,,,,,,,,,,,,,,,,,,,,,,,,,,136.14664359999006,136.5476905999967,136.53127309998672,136.63093629998912,137.03293079999276,None,right,1,0.40675110000302084,137.03293079999276,None,136.53127309998672,136.63093629998912,136.63093629998912,None,137.46529399999417,None,,,,,,,11039,001,2024_Mar_13_1354,ANT,2021.2.3,60.20368109590457,
1,12,center,up,IC,R,,,,,,Block.xlsx,"你已经完成了第一个实验区组

请稍作休息


点击空格键进入下一个区组。",0,50,1.5,right,LLRLL.png,,,,,0,0,0,0,1,1,25,11,,,,,,,,,,,,,,,,,,,,,,,,,,,,,,,,,,,,,,,,,,,,,,,,,,,,,,,,,,,,,,,,137.86682669998845,138.2671890999918,138.25102399999741,138.35076139999728,138.75027269999555,None,right,1,0.5132144999952288,138.75027269999555,None,138.25102399999741,138.35076139999728,138.35076139999728,None,139.2846889999928,None,,,,,,,11039,001,2024_Mar_13_1354,ANT,2021.2.3,60.20368109590457,
1,18,spatial,up,C,R,,,,,,Block.xlsx,"你已经完成了第一个实验区组

请稍作休息


点击空格键进入下一个区组。",1.5,0,1.5,right,RRRRR.png,,,,,0,0,0,0,1,2,26,17,,,,,,,,,,,,,,,,,,,,,,,,,,,,,,,,,,,,,,,,,,,,,,,,,,,,,,,,,,,,,,,,139.68526699999347,140.08742329999222,140.06914269999834,140.17010879999725,140.57024929999898,None,right,1,0.36603970000578556,140.57024929999898,None,140.06914269999834,140.17010879999725,140.17010879999725,None,140.9537685999967,None,,,,,,,11039,001,2024_Mar_13_1354,ANT,2021.2.3,60.20368109590457,
1,5,no,down,C,L,,,,,,Block.xlsx,"你已经完成了第一个实验区组

请稍作休息


点击空格键进入下一个区组。",50,0,-1.5,left,LLLLL.png,,,,,0,0,0,0,1,3,27,4,,,,,,,,,,,,,,,,,,,,,,,,,,,,,,,,,,,,,,,,,,,,,,,,,,,,,,,,,,,,,,,,141.35549399998854,141.7561546999932,141.73911450000014,141.8404559999908,142.23927599999297,None,left,1,0.45639890000165906,142.23927599999297,None,141.73911450000014,141.8404559999908,141.8404559999908,None,142.72343299999193,None,,,,,,,11039,001,2024_Mar_13_1354,ANT,2021.2.3,60.20368109590457,
1,1,no,up,C,L,,,,,,Block.xlsx,"你已经完成了第一个实验区组

请稍作休息


点击空格键进入下一个区组。",50,0,1.5,left,LLLLL.png,,,,,0,0,0,0,1,4,28,0,,,,,,,,,,,,,,,,,,,,,,,,,,,,,,,,,,,,,,,,,,,,,,,,,,,,,,,,,,,,,,,,143.1239188999898,143.52510479999182,143.50780479999958,143.60845709999558,144.00934530000086,None,left,1,0.4298947999923257,144.00934530000086,None,143.50780479999958,143.60845709999558,143.60845709999558,None,144.45896789999097,None,,,,,,,11039,001,2024_Mar_13_1354,ANT,2021.2.3,60.20368109590457,
1,15,center,down,IC,L,,,,,,Block.xlsx,"你已经完成了第一个实验区组

请稍作休息


点击空格键进入下一个区组。",0,50,-1.5,left,RRLRR.png,,,,,0,0,0,0,1,5,29,14,,,,,,,,,,,,,,,,,,,,,,,,,,,,,,,,,,,,,,,,,,,,,,,,,,,,,,,,,,,,,,,,144.86158609999984,145.26179469999624,145.24407419998897,145.34411989999353,145.7449906999973,None,right,0,0.36710620000667404,145.7449906999973,None,145.24407419998897,145.34411989999353,145.34411989999353,None,146.12834669998847,None,,,,,,,11039,001,2024_Mar_13_1354,ANT,2021.2.3,60.20368109590457,
1,1,no,up,C,L,,,,,,Block.xlsx,"你已经完成了第一个实验区组

请稍作休息


点击空格键进入下一个区组。",50,0,1.5,left,LLLLL.png,,,,,0,0,0,0,1,6,30,0,,,,,,,,,,,,,,,,,,,,,,,,,,,,,,,,,,,,,,,,,,,,,,,,,,,,,,,,,,,,,,,,146.52966909999668,146.92966189999424,146.91356979998818,147.01307000000088,147.4148523999902,None,left,1,0.45697899999504443,147.4148523999902,None,146.91356979998818,147.01307000000088,147.01307000000088,None,147.89773309999146,None,,,,,,,11039,001,2024_Mar_13_1354,ANT,2021.2.3,60.20368109590457,
1,1,no,up,C,L,,,,,,Block.xlsx,"你已经完成了第一个实验区组

请稍作休息


点击空格键进入下一个区组。",50,0,1.5,left,LLLLL.png,,,,,0,0,0,0,1,7,31,0,,,,,,,,,,,,,,,,,,,,,,,,,,,,,,,,,,,,,,,,,,,,,,,,,,,,,,,,,,,,,,,,148.29839250000077,148.7002358999889,148.68368449999252,148.78298849999555,149.18331619999663,None,left,1,0.4171879000059562,149.18331619999663,None,148.68368449999252,148.78298849999555,148.78298849999555,None,149.6167262999952,None,,,,,,,11039,001,2024_Mar_13_1354,ANT,2021.2.3,60.20368109590457,
1,22,spatial,down,C,R,,,,,,Block.xlsx,"你已经完成了第一个实验区组

请稍作休息


点击空格键进入下一个区组。",-1.5,0,-1.5,right,RRRRR.png,,,,,0,0,0,0,1,8,32,21,,,,,,,,,,,,,,,,,,,,,,,,,,,,,,,,,,,,,,,,,,,,,,,,,,,,,,,,,,,,,,,,150.01752899998974,150.41892029999872,150.401627299987,150.50228969998716,150.90329749998637,None,right,1,0.4886133999971207,150.90329749998637,None,150.401627299987,150.50228969998716,150.50228969998716,None,151.41965289998916,None,,,,,,,11039,001,2024_Mar_13_1354,ANT,2021.2.3,60.20368109590457,
1,6,no,down,C,R,,,,,,Block.xlsx,"你已经完成了第一个实验区组

请稍作休息


点击空格键进入下一个区组。",50,0,-1.5,right,RRRRR.png,,,,,0,0,0,0,1,9,33,5,,,,,,,,,,,,,,,,,,,,,,,,,,,,,,,,,,,,,,,,,,,,,,,,,,,,,,,,,,,,,,,,151.82036559999688,152.22225869999966,152.20412129999022,152.30498269999225,152.70473359999596,None,right,1,0.42323319999559317,152.70473359999596,None,152.20412129999022,152.30498269999225,152.30498269999225,None,153.1555503999989,None,,,,,,,11039,001,2024_Mar_13_1354,ANT,2021.2.3,60.20368109590457,
1,8,no,down,IC,R,,,,,,Block.xlsx,"你已经完成了第一个实验区组

请稍作休息


点击空格键进入下一个区组。",50,0,-1.5,right,LLRLL.png,,,,,0,0,0,0,1,10,34,7,,,,,,,,,,,,,,,,,,,,,,,,,,,,,,,,,,,,,,,,,,,,,,,,,,,,,,,,,,,,,,,,153.55692999999155,153.95682599999418,153.94017979998898,154.04263039999933,154.44138419999217,None,right,1,0.7182699000113644,154.44138419999217,None,153.94017979998898,154.04263039999933,154.04263039999933,None,155.17526720000023,None,,,,,,,11039,001,2024_Mar_13_1354,ANT,2021.2.3,60.20368109590457,
1,8,no,down,IC,R,,,,,,Block.xlsx,"你已经完成了第一个实验区组

请稍作休息


点击空格键进入下一个区组。",50,0,-1.5,right,LLRLL.png,,,,,0,0,0,0,1,11,35,7,,,,,,,,,,,,,,,,,,,,,,,,,,,,,,,,,,,,,,,,,,,,,,,,,,,,,,,,,,,,,,,,155.57584789999237,155.97660759999417,155.95990699999675,156.059975199998,156.46053949999623,None,right,1,0.6273268000077223,156.46053949999623,None,155.95990699999675,156.059975199998,156.059975199998,None,157.11141379999754,None,,,,,,,11039,001,2024_Mar_13_1354,ANT,2021.2.3,60.20368109590457,
1,11,center,up,IC,L,,,,,,Block.xlsx,"你已经完成了第一个实验区组

请稍作休息


点击空格键进入下一个区组。",0,50,1.5,left,RRLRR.png,,,,,0,0,0,0,1,12,36,10,,,,,,,,,,,,,,,,,,,,,,,,,,,,,,,,,,,,,,,,,,,,,,,,,,,,,,,,,,,,,,,,157.51304269999673,157.9158216999931,157.89620499999728,157.9987931999931,158.39776749999146,None,left,1,0.46639449999202043,158.39776749999146,None,157.89620499999728,157.9987931999931,157.9987931999931,None,158.88086589999148,None,,,,,,,11039,001,2024_Mar_13_1354,ANT,2021.2.3,60.20368109590457,
1,8,no,down,IC,R,,,,,,Block.xlsx,"你已经完成了第一个实验区组

请稍作休息


点击空格键进入下一个区组。",50,0,-1.5,right,LLRLL.png,,,,,0,0,0,0,1,13,37,7,,,,,,,,,,,,,,,,,,,,,,,,,,,,,,,,,,,,,,,,,,,,,,,,,,,,,,,,,,,,,,,,159.28166919999057,159.68198619999748,159.66629850000027,159.7654984999972,160.1665309999953,None,right,1,0.44116180000128224,160.1665309999953,None,159.66629850000027,159.7654984999972,159.7654984999972,None,160.63335319999896,None,,,,,,,11039,001,2024_Mar_13_1354,ANT,2021.2.3,60.20368109590457,
1,2,no,up,C,R,,,,,,Block.xlsx,"你已经完成了第一个实验区组

请稍作休息


点击空格键进入下一个区组。",50,0,1.5,right,RRRRR.png,,,,,0,0,0,0,1,14,38,1,,,,,,,,,,,,,,,,,,,,,,,,,,,,,,,,,,,,,,,,,,,,,,,,,,,,,,,,,,,,,,,,161.03400789998705,161.43634519999614,161.41812429999118,161.51963409999735,161.91947799999616,None,right,1,0.3924552999960724,161.91947799999616,None,161.41812429999118,161.51963409999735,161.51963409999735,None,162.3361356999958,None,,,,,,,11039,001,2024_Mar_13_1354,ANT,2021.2.3,60.20368109590457,
1,15,center,down,IC,L,,,,,,Block.xlsx,"你已经完成了第一个实验区组

请稍作休息


点击空格键进入下一个区组。",0,50,-1.5,left,RRLRR.png,,,,,0,0,0,0,1,15,39,14,,,,,,,,,,,,,,,,,,,,,,,,,,,,,,,,,,,,,,,,,,,,,,,,,,,,,,,,,,,,,,,,162.73754029998963,163.13804289999825,163.12264459999278,163.23767229999066,163.62144059999264,None,left,1,0.418976200002362,163.62144059999264,None,163.12264459999278,163.23767229999066,163.2209092999983,None,164.05536699999357,None,,,,,,,11039,001,2024_Mar_13_1354,ANT,2021.2.3,60.20368109590457,
1,9,center,up,C,L,,,,,,Block.xlsx,"你已经完成了第一个实验区组

请稍作休息


点击空格键进入下一个区组。",0,50,1.5,left,LLLLL.png,,,,,0,0,0,0,1,16,40,8,,,,,,,,,,,,,,,,,,,,,,,,,,,,,,,,,,,,,,,,,,,,,,,,,,,,,,,,,,,,,,,,164.45653630000015,164.85733179999806,164.8397779999941,164.93998779999674,165.34059159999015,None,left,1,0.515787000011187,165.34059159999015,None,164.8397779999941,164.93998779999674,164.93998779999674,None,165.87484759998915,None,,,,,,,11039,001,2024_Mar_13_1354,ANT,2021.2.3,60.20368109590457,
1,13,center,down,C,L,,,,,,Block.xlsx,"你已经完成了第一个实验区组

请稍作休息


点击空格键进入下一个区组。",0,50,-1.5,left,LLLLL.png,,,,,0,0,0,0,1,17,41,12,,,,,,,,,,,,,,,,,,,,,,,,,,,,,,,,,,,,,,,,,,,,,,,,,,,,,,,,,,,,,,,,166.27530389999447,166.67598829999042,166.66013839999505,166.76013849998708,167.16011559999606,None,left,1,0.4319147999922279,167.16011559999606,None,166.66013839999505,166.76013849998708,166.76013849998708,None,167.61061759998847,None,,,,,,,11039,001,2024_Mar_13_1354,ANT,2021.2.3,60.20368109590457,
1,24,spatial,down,IC,R,,,,,,Block.xlsx,"你已经完成了第一个实验区组

请稍作休息


点击空格键进入下一个区组。",-1.5,0,-1.5,right,LLRLL.png,,,,,0,0,0,0,1,18,42,23,,,,,,,,,,,,,,,,,,,,,,,,,,,,,,,,,,,,,,,,,,,,,,,,,,,,,,,,,,,,,,,,168.01136359998782,168.41282610000053,168.39526649999607,168.49672159999318,168.8963226999913,None,right,1,0.3842632000014419,168.8963226999913,None,168.39526649999607,168.49672159999318,168.49672159999318,None,169.29648339998676,None,,,,,,,11039,001,2024_Mar_13_1354,ANT,2021.2.3,60.20368109590457,
1,8,no,down,IC,R,,,,,,Block.xlsx,"你已经完成了第一个实验区组

请稍作休息


点击空格键进入下一个区组。",50,0,-1.5,right,LLRLL.png,,,,,0,0,0,0,1,19,43,7,,,,,,,,,,,,,,,,,,,,,,,,,,,,,,,,,,,,,,,,,,,,,,,,,,,,,,,,,,,,,,,,169.697588799987,170.09784579998814,170.08112859999528,170.1820105999941,170.58203779999167,None,right,1,0.5064251000003424,170.58203779999167,None,170.08112859999528,170.1820105999941,170.1820105999941,None,171.11610039998777,None,,,,,,,11039,001,2024_Mar_13_1354,ANT,2021.2.3,60.20368109590457,
1,23,spatial,down,IC,L,,,,,,Block.xlsx,"你已经完成了第一个实验区组

请稍作休息


点击空格键进入下一个区组。",-1.5,0,-1.5,left,RRLRR.png,,,,,0,0,0,0,1,20,44,22,,,,,,,,,,,,,,,,,,,,,,,,,,,,,,,,,,,,,,,,,,,,,,,,,,,,,,,,,,,,,,,,171.516690199991,171.91794709999522,171.90050269999483,172.0013282,172.40139919999638,None,left,1,0.4476410999923246,172.40139919999638,None,171.90050269999483,172.0013282,172.0013282,None,172.8686069999967,None,,,,,,,11039,001,2024_Mar_13_1354,ANT,2021.2.3,60.20368109590457,
1,19,spatial,up,IC,L,,,,,,Block.xlsx,"你已经完成了第一个实验区组

请稍作休息


点击空格键进入下一个区组。",1.5,0,1.5,left,RRLRR.png,,,,,0,0,0,0,1,21,45,18,,,,,,,,,,,,,,,,,,,,,,,,,,,,,,,,,,,,,,,,,,,,,,,,,,,,,,,,,,,,,,,,173.2691313999967,173.6705815999885,173.65495069998724,173.77088349999394,174.15439759999572,None,left,1,0.373911999995471,174.15439759999572,None,173.65495069998724,173.77088349999394,173.75391869999294,None,174.5544407999987,None,,,,,,,11039,001,2024_Mar_13_1354,ANT,2021.2.3,60.20368109590457,
1,21,spatial,down,C,L,,,,,,Block.xlsx,"你已经完成了第一个实验区组

请稍作休息


点击空格键进入下一个区组。",-1.5,0,-1.5,left,LLLLL.png,,,,,0,0,0,0,1,22,46,20,,,,,,,,,,,,,,,,,,,,,,,,,,,,,,,,,,,,,,,,,,,,,,,,,,,,,,,,,,,,,,,,174.9551849999989,175.35631479999574,175.3416598999902,175.45575159999134,175.84070119999524,None,left,1,0.4157549000083236,175.84070119999524,None,175.3416598999902,175.45575159999134,175.43989989999682,None,176.27379399999336,None,,,,,,,11039,001,2024_Mar_13_1354,ANT,2021.2.3,60.20368109590457,
1,7,no,down,IC,L,,,,,,Block.xlsx,"你已经完成了第一个实验区组

请稍作休息


点击空格键进入下一个区组。",50,0,-1.5,left,RRLRR.png,,,,,0,0,0,0,1,23,47,6,,,,,,,,,,,,,,,,,,,,,,,,,,,,,,,,,,,,,,,,,,,,,,,,,,,,,,,,,,,,,,,,176.6747602999967,177.07598270000017,177.05836159999308,177.16005059999588,177.56014549999963,None,left,1,0.5923780000011902,177.56014549999963,None,177.05836159999308,177.16005059999588,177.16005059999588,None,178.17723869999463,None,,,,,,,11039,001,2024_Mar_13_1354,ANT,2021.2.3,60.20368109590457,
1,10,center,up,C,R,,,,,,Block.xlsx,"你已经完成了第一个实验区组

请稍作休息


点击空格键进入下一个区组。",0,50,1.5,right,RRRRR.png,,,,,0,0,0,0,2,0,48,9,,,,,,,,,,,,,,,,,,,,,,,,,,,,,,,,,,,,,,,,,,,,,,,,,,,,,,,,,,,,,,,,178.5771534999949,178.9788811999897,178.96097509999527,179.06185889999324,179.46245409999392,None,right,1,0.41000000000349246,179.46245409999392,None,178.96097509999527,179.06185889999324,179.06185889999324,None,179.89593129999412,None,,,,,,,11039,001,2024_Mar_13_1354,ANT,2021.2.3,60.20368109590457,
1,19,spatial,up,IC,L,,,,,,Block.xlsx,"你已经完成了第一个实验区组

请稍作休息


点击空格键进入下一个区组。",1.5,0,1.5,left,RRLRR.png,,,,,0,0,0,0,2,1,49,18,,,,,,,,,,,,,,,,,,,,,,,,,,,,,,,,,,,,,,,,,,,,,,,,,,,,,,,,,,,,,,,,180.29636109998683,180.69784819999768,180.6804936999979,180.78121389998705,181.1820282999979,None,left,1,0.4105990000098245,181.1820282999979,None,180.6804936999979,180.78121389998705,180.78121389998705,None,181.61512029998994,None,,,,,,,11039,001,2024_Mar_13_1354,ANT,2021.2.3,60.20368109590457,
1,19,spatial,up,IC,L,,,,,,Block.xlsx,"你已经完成了第一个实验区组

请稍作休息


点击空格键进入下一个区组。",1.5,0,1.5,left,RRLRR.png,,,,,0,0,0,0,2,2,50,18,,,,,,,,,,,,,,,,,,,,,,,,,,,,,,,,,,,,,,,,,,,,,,,,,,,,,,,,,,,,,,,,182.0164572999929,182.41637239999545,182.39991369999188,182.50049779999244,182.90200819999154,None,left,1,0.40235720000055153,182.90200819999154,None,182.39991369999188,182.50049779999244,182.50049779999244,None,183.33567459999176,None,,,,,,,11039,001,2024_Mar_13_1354,ANT,2021.2.3,60.20368109590457,
1,12,center,up,IC,R,,,,,,Block.xlsx,"你已经完成了第一个实验区组

请稍作休息


点击空格键进入下一个区组。",0,50,1.5,right,LLRLL.png,,,,,0,0,0,0,2,3,51,11,,,,,,,,,,,,,,,,,,,,,,,,,,,,,,,,,,,,,,,,,,,,,,,,,,,,,,,,,,,,,,,,183.7352535999962,184.13623749998806,184.12012909998884,184.22008559999813,184.61966359999496,None,right,1,0.4526398000016343,184.61966359999496,None,184.12012909998884,184.22008559999813,184.22008559999813,None,185.10382979999122,None,,,,,,,11039,001,2024_Mar_13_1354,ANT,2021.2.3,60.20368109590457,
1,2,no,up,C,R,,,,,,Block.xlsx,"你已经完成了第一个实验区组

请稍作休息


点击空格键进入下一个区组。",50,0,1.5,right,RRRRR.png,,,,,0,0,0,0,2,4,52,1,,,,,,,,,,,,,,,,,,,,,,,,,,,,,,,,,,,,,,,,,,,,,,,,,,,,,,,,,,,,,,,,185.50574409999535,185.9058878999931,185.88915609999094,185.9889637999877,186.39121389998763,None,right,1,0.45753299999341834,186.39121389998763,None,185.88915609999094,185.9889637999877,185.9889637999877,None,186.8743809000007,None,,,,,,,11039,001,2024_Mar_13_1354,ANT,2021.2.3,60.20368109590457,
1,24,spatial,down,IC,R,,,,,,Block.xlsx,"你已经完成了第一个实验区组

请稍作休息


点击空格键进入下一个区组。",-1.5,0,-1.5,right,LLRLL.png,,,,,0,0,0,0,2,5,53,23,,,,,,,,,,,,,,,,,,,,,,,,,,,,,,,,,,,,,,,,,,,,,,,,,,,,,,,,,,,,,,,,187.2737635999947,187.6749475999968,187.65869509999175,187.7586086999945,188.15872969999327,None,right,1,0.4822407000028761,188.15872969999327,None,187.65869509999175,187.7586086999945,187.7586086999945,None,188.65960979998636,None,,,,,,,11039,001,2024_Mar_13_1354,ANT,2021.2.3,60.20368109590457,
1,1,no,up,C,L,,,,,,Block.xlsx,"你已经完成了第一个实验区组

请稍作休息


点击空格键进入下一个区组。",50,0,1.5,left,LLLLL.png,,,,,0,0,0,0,2,6,54,0,,,,,,,,,,,,,,,,,,,,,,,,,,,,,,,,,,,,,,,,,,,,,,,,,,,,,,,,,,,,,,,,189.0597768999869,189.4621521999943,189.44378279999364,189.54454029999033,189.94548309998936,None,left,1,0.42333299999882,189.94548309998936,None,189.44378279999364,189.54454029999033,189.54454029999033,None,190.395113999999,None,,,,,,,11039,001,2024_Mar_13_1354,ANT,2021.2.3,60.20368109590457,
1,20,spatial,up,IC,R,,,,,,Block.xlsx,"你已经完成了第一个实验区组

请稍作休息


点击空格键进入下一个区组。",1.5,0,1.5,right,LLRLL.png,,,,,0,0,0,0,2,7,55,19,,,,,,,,,,,,,,,,,,,,,,,,,,,,,,,,,,,,,,,,,,,,,,,,,,,,,,,,,,,,,,,,190.79572789999656,191.19627169999876,191.1802151999873,191.28149729999132,191.6820069999958,None,right,1,0.46287950000260025,191.6820069999958,None,191.1802151999873,191.28149729999132,191.28149729999132,None,192.16430379998928,None,,,,,,,11039,001,2024_Mar_13_1354,ANT,2021.2.3,60.20368109590457,
1,3,no,up,IC,L,,,,,,Block.xlsx,"你已经完成了第一个实验区组

请稍作休息


点击空格键进入下一个区组。",50,0,1.5,left,RRLRR.png,,,,,0,0,0,0,2,8,56,2,,,,,,,,,,,,,,,,,,,,,,,,,,,,,,,,,,,,,,,,,,,,,,,,,,,,,,,,,,,,,,,,192.56504199998744,192.96560079998744,192.94874189999246,193.049139499999,193.45069289999083,None,left,1,0.40653500000189524,193.45069289999083,None,192.94874189999246,193.049139499999,193.049139499999,None,193.88368069998978,None,,,,,,,11039,001,2024_Mar_13_1354,ANT,2021.2.3,60.20368109590457,
1,23,spatial,down,IC,L,,,,,,Block.xlsx,"你已经完成了第一个实验区组

请稍作休息


点击空格键进入下一个区组。",-1.5,0,-1.5,left,RRLRR.png,,,,,0,0,0,0,2,9,57,22,,,,,,,,,,,,,,,,,,,,,,,,,,,,,,,,,,,,,,,,,,,,,,,,,,,,,,,,,,,,,,,,194.28436859999783,194.6862756999908,194.66947779999464,194.7696661999944,195.16946309999912,None,left,1,0.4795475999999326,195.16946309999912,None,194.66947779999464,194.7696661999944,194.7696661999944,None,195.66956849998678,None,,,,,,,11039,001,2024_Mar_13_1354,ANT,2021.2.3,60.20368109590457,
1,11,center,up,IC,L,,,,,,Block.xlsx,"你已经完成了第一个实验区组

请稍作休息


点击空格键进入下一个区组。",0,50,1.5,left,RRLRR.png,,,,,0,0,0,0,2,10,58,10,,,,,,,,,,,,,,,,,,,,,,,,,,,,,,,,,,,,,,,,,,,,,,,,,,,,,,,,,,,,,,,,196.07026829999813,196.47191999999632,196.45511609999812,196.55420319999394,196.95482549999724,None,left,1,0.5181443999899784,196.95482549999724,None,196.45511609999812,196.55420319999394,196.55420319999394,None,197.48898270000063,None,,,,,,,11039,001,2024_Mar_13_1354,ANT,2021.2.3,60.20368109590457,
1,3,no,up,IC,L,,,,,,Block.xlsx,"你已经完成了第一个实验区组

请稍作休息


点击空格键进入下一个区组。",50,0,1.5,left,RRLRR.png,,,,,0,0,0,0,2,11,59,2,,,,,,,,,,,,,,,,,,,,,,,,,,,,,,,,,,,,,,,,,,,,,,,,,,,,,,,,,,,,,,,,197.88989169998968,198.29191669999273,198.27377029998752,198.37462579998828,198.77431219999562,None,left,1,0.531088899995666,198.77431219999562,None,198.27377029998752,198.37462579998828,198.37462579998828,None,199.32540339999832,None,,,,,,,11039,001,2024_Mar_13_1354,ANT,2021.2.3,60.20368109590457,
1,12,center,up,IC,R,,,,,,Block.xlsx,"你已经完成了第一个实验区组

请稍作休息


点击空格键进入下一个区组。",0,50,1.5,right,LLRLL.png,,,,,0,0,0,0,2,12,60,11,,,,,,,,,,,,,,,,,,,,,,,,,,,,,,,,,,,,,,,,,,,,,,,,,,,,,,,,,,,,,,,,199.7258831999934,200.12748640000063,200.10964939999394,200.21039519998885,200.61051989998668,None,right,1,0.518264199999976,200.61051989998668,None,200.10964939999394,200.21039519998885,200.21039519998885,None,201.1612987999979,None,,,,,,,11039,001,2024_Mar_13_1354,ANT,2021.2.3,60.20368109590457,
1,9,center,up,C,L,,,,,,Block.xlsx,"你已经完成了第一个实验区组

请稍作休息


点击空格键进入下一个区组。",0,50,1.5,left,LLLLL.png,,,,,0,0,0,0,2,13,61,8,,,,,,,,,,,,,,,,,,,,,,,,,,,,,,,,,,,,,,,,,,,,,,,,,,,,,,,,,,,,,,,,201.56185109999205,201.96309159998782,201.94567089999327,202.04689859999053,202.44819159999315,None,left,1,0.47329339999123476,202.44819159999315,None,201.94567089999327,202.04689859999053,202.04689859999053,None,202.94722569998703,None,,,,,,,11039,001,2024_Mar_13_1354,ANT,2021.2.3,60.20368109590457,
1,22,spatial,down,C,R,,,,,,Block.xlsx,"你已经完成了第一个实验区组

请稍作休息


点击空格键进入下一个区组。",-1.5,0,-1.5,right,RRRRR.png,,,,,0,0,0,0,2,14,62,21,,,,,,,,,,,,,,,,,,,,,,,,,,,,,,,,,,,,,,,,,,,,,,,,,,,,,,,,,,,,,,,,203.34788139999728,203.7484245999949,203.73181119999208,203.83226869998907,204.2336190999922,None,right,1,0.359371700003976,204.2336190999922,None,203.73181119999208,203.83226869998907,203.83226869998907,None,204.61628199998813,None,,,,,,,11039,001,2024_Mar_13_1354,ANT,2021.2.3,60.20368109590457,
1,21,spatial,down,C,L,,,,,,Block.xlsx,"你已经完成了第一个实验区组

请稍作休息


点击空格键进入下一个区组。",-1.5,0,-1.5,left,LLLLL.png,,,,,0,0,0,0,2,15,63,20,,,,,,,,,,,,,,,,,,,,,,,,,,,,,,,,,,,,,,,,,,,,,,,,,,,,,,,,,,,,,,,,205.017305699992,205.4184210999956,205.40088449999166,205.501537499993,205.9016288999992,None,left,1,0.3796225000114646,205.9016288999992,None,205.40088449999166,205.501537499993,205.501537499993,None,206.30216379999183,None,,,,,,,11039,001,2024_Mar_13_1354,ANT,2021.2.3,60.20368109590457,
1,7,no,down,IC,L,,,,,,Block.xlsx,"你已经完成了第一个实验区组

请稍作休息


点击空格键进入下一个区组。",50,0,-1.5,left,RRLRR.png,,,,,0,0,0,0,2,16,64,6,,,,,,,,,,,,,,,,,,,,,,,,,,,,,,,,,,,,,,,,,,,,,,,,,,,,,,,,,,,,,,,,206.70327889999317,207.10505679999187,207.0869040999969,207.1868751999864,207.58900919998996,None,left,1,0.5645619999995688,207.58900919998996,None,207.0869040999969,207.1868751999864,207.1868751999864,None,208.1717753999983,None,,,,,,,11039,001,2024_Mar_13_1354,ANT,2021.2.3,60.20368109590457,
1,13,center,down,C,L,,,,,,Block.xlsx,"你已经完成了第一个实验区组

请稍作休息


点击空格键进入下一个区组。",0,50,-1.5,left,LLLLL.png,,,,,0,0,0,0,2,17,65,12,,,,,,,,,,,,,,,,,,,,,,,,,,,,,,,,,,,,,,,,,,,,,,,,,,,,,,,,,,,,,,,,208.57258779999393,208.97520209998765,208.95647089999693,209.05666829999245,209.45799309998984,None,left,1,0.4069545999955153,209.45799309998984,None,208.95647089999693,209.05666829999245,209.05666829999245,None,209.89194429999043,None,,,,,,,11039,001,2024_Mar_13_1354,ANT,2021.2.3,60.20368109590457,
1,5,no,down,C,L,,,,,,Block.xlsx,"你已经完成了第一个实验区组

请稍作休息


点击空格键进入下一个区组。",50,0,-1.5,left,LLLLL.png,,,,,0,0,0,0,2,18,66,4,,,,,,,,,,,,,,,,,,,,,,,,,,,,,,,,,,,,,,,,,,,,,,,,,,,,,,,,,,,,,,,,210.2916499999992,210.69222949999676,210.67647559999023,210.7760311999882,211.1765047999943,None,left,1,0.4170914999995148,211.1765047999943,None,210.67647559999023,210.7760311999882,210.7760311999882,None,211.61020649998682,None,,,,,,,11039,001,2024_Mar_13_1354,ANT,2021.2.3,60.20368109590457,
1,16,center,down,IC,R,,,,,,Block.xlsx,"你已经完成了第一个实验区组

请稍作休息


点击空格键进入下一个区组。",0,50,-1.5,right,LLRLL.png,,,,,0,0,0,0,2,19,67,15,,,,,,,,,,,,,,,,,,,,,,,,,,,,,,,,,,,,,,,,,,,,,,,,,,,,,,,,,,,,,,,,212.0107524999912,212.4116195999959,212.39679980000074,212.5126811999944,212.89663139999902,None,right,1,0.5130328999948688,212.89663139999902,None,212.39679980000074,212.5126811999944,212.49727729998995,None,213.4298099000007,None,,,,,,,11039,001,2024_Mar_13_1354,ANT,2021.2.3,60.20368109590457,
1,17,spatial,up,C,L,,,,,,Block.xlsx,"你已经完成了第一个实验区组

请稍作休息


点击空格键进入下一个区组。",1.5,0,1.5,left,LLLLL.png,,,,,0,0,0,0,2,20,68,16,,,,,,,,,,,,,,,,,,,,,,,,,,,,,,,,,,,,,,,,,,,,,,,,,,,,,,,,,,,,,,,,213.8304558999953,214.23283699998865,214.21442409999145,214.31480139998894,214.7163060999883,None,left,1,0.356886299996404,214.7163060999883,None,214.21442409999145,214.31480139998894,214.31480139998894,None,215.09876909999002,None,,,,,,,11039,001,2024_Mar_13_1354,ANT,2021.2.3,60.20368109590457,
1,5,no,down,C,L,,,,,,Block.xlsx,"你已经完成了第一个实验区组

请稍作休息


点击空格键进入下一个区组。",50,0,-1.5,left,LLLLL.png,,,,,0,0,0,0,2,21,69,4,,,,,,,,,,,,,,,,,,,,,,,,,,,,,,,,,,,,,,,,,,,,,,,,,,,,,,,,,,,,,,,,215.49950729998818,215.90020319999894,215.88372789999994,215.98482030000014,216.38522729999386,None,left,1,0.4159326999943005,216.38522729999386,None,215.88372789999994,215.98482030000014,215.98482030000014,None,216.818297299993,None,,,,,,,11039,001,2024_Mar_13_1354,ANT,2021.2.3,60.20368109590457,
1,6,no,down,C,R,,,,,,Block.xlsx,"你已经完成了第一个实验区组

请稍作休息


点击空格键进入下一个区组。",50,0,-1.5,right,RRRRR.png,,,,,0,0,0,0,2,22,70,5,,,,,,,,,,,,,,,,,,,,,,,,,,,,,,,,,,,,,,,,,,,,,,,,,,,,,,,,,,,,,,,,217.21884869999485,217.61997839999094,217.6035969999939,217.70478079999157,218.10503599999356,None,right,1,0.4331353999878047,218.10503599999356,None,217.6035969999939,217.70478079999157,217.70478079999157,None,218.554020999989,None,,,,,,,11039,001,2024_Mar_13_1354,ANT,2021.2.3,60.20368109590457,
1,9,center,up,C,L,,,,,,Block.xlsx,"你已经完成了第一个实验区组

请稍作休息


点击空格键进入下一个区组。",0,50,1.5,left,LLLLL.png,,,,,0,0,0,0,2,23,71,8,,,,,,,,,,,,,,,,,,,,,,,,,,,,,,,,,,,,,,,,,,,,,,,,,,,,,,,,,,,,,,,,218.9553700999968,219.35627499999828,219.33881419998943,219.43959379999433,219.83958379999967,None,left,1,0.3777544000040507,219.83958379999967,None,219.33881419998943,219.43959379999433,219.43959379999433,None,220.2398206999933,None,,,,,,,11039,001,2024_Mar_13_1354,ANT,2021.2.3,60.20368109590457,
1,7,no,down,IC,L,,,,,,Block.xlsx,"你已经完成了第一个实验区组

请稍作休息


点击空格键进入下一个区组。",50,0,-1.5,left,RRLRR.png,,,,,0,0,0,0,3,0,72,6,,,,,,,,,,,,,,,,,,,,,,,,,,,,,,,,,,,,,,,,,,,,,,,,,,,,,,,,,,,,,,,,220.64071129998774,221.04199369999697,221.02604079998855,221.12446009999258,221.5252887999959,None,left,1,0.5172973000007914,221.5252887999959,None,221.02604079998855,221.12446009999258,221.12446009999258,None,222.05935289998888,None,,,,,,,11039,001,2024_Mar_13_1354,ANT,2021.2.3,60.20368109590457,
1,2,no,up,C,R,,,,,,Block.xlsx,"你已经完成了第一个实验区组

请稍作休息


点击空格键进入下一个区组。",50,0,1.5,right,RRRRR.png,,,,,0,0,0,0,3,1,73,1,,,,,,,,,,,,,,,,,,,,,,,,,,,,,,,,,,,,,,,,,,,,,,,,,,,,,,,,,,,,,,,,222.46012899999914,222.86244339999394,222.84400879999157,222.94499150000047,223.34599589998834,None,right,1,0.33601259998977184,223.34599589998834,None,222.84400879999157,222.94499150000047,222.94499150000047,None,223.71187629998894,None,,,,,,,11039,001,2024_Mar_13_1354,ANT,2021.2.3,60.20368109590457,
1,17,spatial,up,C,L,,,,,,Block.xlsx,"你已经完成了第一个实验区组

请稍作休息


点击空格键进入下一个区组。",1.5,0,1.5,left,LLLLL.png,,,,,0,0,0,0,3,2,74,16,,,,,,,,,,,,,,,,,,,,,,,,,,,,,,,,,,,,,,,,,,,,,,,,,,,,,,,,,,,,,,,,224.113033799993,224.51315819998854,224.49684259999776,224.59832859999733,224.99712960000033,None,left,1,0.3488629000057699,224.99712960000033,None,224.49684259999776,224.59832859999733,224.59832859999733,None,225.3644867999974,None,,,,,,,11039,001,2024_Mar_13_1354,ANT,2021.2.3,60.20368109590457,
1,4,no,up,IC,R,,,,,,Block.xlsx,"你已经完成了第一个实验区组

请稍作休息


点击空格键进入下一个区组。",50,0,1.5,right,LLRLL.png,,,,,0,0,0,0,3,3,75,3,,,,,,,,,,,,,,,,,,,,,,,,,,,,,,,,,,,,,,,,,,,,,,,,,,,,,,,,,,,,,,,,225.76496439999028,226.1659146999882,226.14920399998664,226.24887269998726,226.65162829999463,None,right,1,0.6220054000004893,226.65162829999463,None,226.14920399998664,226.24887269998726,226.24887269998726,None,227.30063129999326,None,,,,,,,11039,001,2024_Mar_13_1354,ANT,2021.2.3,60.20368109590457,
1,14,center,down,C,R,,,,,,Block.xlsx,"你已经完成了第一个实验区组

请稍作休息


点击空格键进入下一个区组。",0,50,-1.5,right,RRRRR.png,,,,,0,0,0,0,3,4,76,13,,,,,,,,,,,,,,,,,,,,,,,,,,,,,,,,,,,,,,,,,,,,,,,,,,,,,,,,,,,,,,,,227.70144349998736,228.10180799999216,228.08546039999055,228.18705809999665,228.58683239998936,None,right,1,0.47908010000537615,228.58683239998936,None,228.08546039999055,228.18705809999665,228.18705809999665,None,229.08697229999234,None,,,,,,,11039,001,2024_Mar_13_1354,ANT,2021.2.3,60.20368109590457,
1,24,spatial,down,IC,R,,,,,,Block.xlsx,"你已经完成了第一个实验区组

请稍作休息


点击空格键进入下一个区组。",-1.5,0,-1.5,right,LLRLL.png,,,,,0,0,0,0,3,5,77,23,,,,,,,,,,,,,,,,,,,,,,,,,,,,,,,,,,,,,,,,,,,,,,,,,,,,,,,,,,,,,,,,229.48733869999705,229.8880235999968,229.87139449999086,229.97275609998906,230.37189819999912,None,right,1,0.3815184999984922,230.37189819999912,None,229.87139449999086,229.97275609998906,229.97275609998906,None,230.77260109999042,None,,,,,,,11039,001,2024_Mar_13_1354,ANT,2021.2.3,60.20368109590457,
1,13,center,down,C,L,,,,,,Block.xlsx,"你已经完成了第一个实验区组

请稍作休息


点击空格键进入下一个区组。",0,50,-1.5,left,LLLLL.png,,,,,0,0,0,0,3,6,78,12,,,,,,,,,,,,,,,,,,,,,,,,,,,,,,,,,,,,,,,,,,,,,,,,,,,,,,,,,,,,,,,,231.17316009999195,231.57359179999912,231.55797149999125,231.65732669999124,232.05795699999726,None,left,1,0.43992410000646487,232.05795699999726,None,231.55797149999125,231.65732669999124,231.65732669999124,None,232.5256667999929,None,,,,,,,11039,001,2024_Mar_13_1354,ANT,2021.2.3,60.20368109590457,
1,17,spatial,up,C,L,,,,,,Block.xlsx,"你已经完成了第一个实验区组

请稍作休息


点击空格键进入下一个区组。",1.5,0,1.5,left,LLLLL.png,,,,,0,0,0,0,3,7,79,16,,,,,,,,,,,,,,,,,,,,,,,,,,,,,,,,,,,,,,,,,,,,,,,,,,,,,,,,,,,,,,,,232.92590829999244,233.3263764000003,233.31068749999395,233.4099270000006,233.8106345999986,None,left,1,0.3193992000014987,233.8106345999986,None,233.31068749999395,233.4099270000006,233.4099270000006,None,234.1441799999884,None,,,,,,,11039,001,2024_Mar_13_1354,ANT,2021.2.3,60.20368109590457,
1,18,spatial,up,C,R,,,,,,Block.xlsx,"你已经完成了第一个实验区组

请稍作休息


点击空格键进入下一个区组。",1.5,0,1.5,right,RRRRR.png,,,,,0,0,0,0,3,8,80,17,,,,,,,,,,,,,,,,,,,,,,,,,,,,,,,,,,,,,,,,,,,,,,,,,,,,,,,,,,,,,,,,234.54473719999078,234.9457340999943,234.92882019998797,235.0290413999901,235.4295628999971,None,right,1,0.3242044999933569,235.4295628999971,None,234.92882019998797,235.0290413999901,235.0290413999901,None,235.78021539999463,None,,,,,,,11039,001,2024_Mar_13_1354,ANT,2021.2.3,60.20368109590457,
1,21,spatial,down,C,L,,,,,,Block.xlsx,"你已经完成了第一个实验区组

请稍作休息


点击空格键进入下一个区组。",-1.5,0,-1.5,left,LLLLL.png,,,,,0,0,0,0,3,9,81,20,,,,,,,,,,,,,,,,,,,,,,,,,,,,,,,,,,,,,,,,,,,,,,,,,,,,,,,,,,,,,,,,236.1807262999937,236.5831099999923,236.56462499999907,236.66541449999204,237.0677827999898,None,left,1,0.35012540000025183,237.0677827999898,None,236.56462499999907,236.66541449999204,236.66541449999204,None,237.43404100000043,None,,,,,,,11039,001,2024_Mar_13_1354,ANT,2021.2.3,60.20368109590457,
1,22,spatial,down,C,R,,,,,,Block.xlsx,"你已经完成了第一个实验区组

请稍作休息


点击空格键进入下一个区组。",-1.5,0,-1.5,right,RRRRR.png,,,,,0,0,0,0,3,10,82,21,,,,,,,,,,,,,,,,,,,,,,,,,,,,,,,,,,,,,,,,,,,,,,,,,,,,,,,,,,,,,,,,237.8338151999924,238.23388970000087,238.2171163999883,238.31729039999482,238.7189895999909,None,right,1,0.25887089999741875,238.7189895999909,None,238.2171163999883,238.31729039999482,238.31729039999482,None,239.0016004999925,None,,,,,,,11039,001,2024_Mar_13_1354,ANT,2021.2.3,60.20368109590457,
1,23,spatial,down,IC,L,,,,,,Block.xlsx,"你已经完成了第一个实验区组

请稍作休息


点击空格键进入下一个区组。",-1.5,0,-1.5,left,RRLRR.png,,,,,0,0,0,0,3,11,83,22,,,,,,,,,,,,,,,,,,,,,,,,,,,,,,,,,,,,,,,,,,,,,,,,,,,,,,,,,,,,,,,,239.4023094999866,239.80293769999116,239.7866185999883,239.88800599999377,240.28689109999686,None,left,1,0.4512405999994371,240.28689109999686,None,239.7866185999883,239.88800599999377,239.88800599999377,None,240.7545046999876,None,,,,,,,11039,001,2024_Mar_13_1354,ANT,2021.2.3,60.20368109590457,
1,14,center,down,C,R,,,,,,Block.xlsx,"你已经完成了第一个实验区组

请稍作休息


点击空格键进入下一个区组。",0,50,-1.5,right,RRRRR.png,,,,,0,0,0,0,3,12,84,13,,,,,,,,,,,,,,,,,,,,,,,,,,,,,,,,,,,,,,,,,,,,,,,,,,,,,,,,,,,,,,,,241.15491129999282,241.55543829999806,241.53946039998846,241.6389918999921,242.04012849999708,None,right,1,0.3860357999947155,242.04012849999708,None,241.53946039998846,241.6389918999921,241.6389918999921,None,242.4570199999871,None,,,,,,,11039,001,2024_Mar_13_1354,ANT,2021.2.3,60.20368109590457,
1,13,center,down,C,L,,,,,,Block.xlsx,"你已经完成了第一个实验区组

请稍作休息


点击空格键进入下一个区组。",0,50,-1.5,left,LLLLL.png,,,,,0,0,0,0,3,13,85,12,,,,,,,,,,,,,,,,,,,,,,,,,,,,,,,,,,,,,,,,,,,,,,,,,,,,,,,,,,,,,,,,242.8574915999925,243.2602396999864,243.2414129999961,243.34404129999166,243.74217990000034,None,left,1,0.3240844000101788,243.74217990000034,None,243.2414129999961,243.34404129999166,243.34404129999166,None,244.09283279998635,None,,,,,,,11039,001,2024_Mar_13_1354,ANT,2021.2.3,60.20368109590457,
1,4,no,up,IC,R,,,,,,Block.xlsx,"你已经完成了第一个实验区组

请稍作休息


点击空格键进入下一个区组。",50,0,1.5,right,LLRLL.png,,,,,0,0,0,0,3,14,86,3,,,,,,,,,,,,,,,,,,,,,,,,,,,,,,,,,,,,,,,,,,,,,,,,,,,,,,,,,,,,,,,,244.4931918999937,244.89403779999702,244.87894089998736,244.97725179999543,245.3794479999924,None,right,1,0.5667199000017717,245.3794479999924,None,244.87894089998736,244.97725179999543,244.97725179999543,None,245.96201799999108,None,,,,,,,11039,001,2024_Mar_13_1354,ANT,2021.2.3,60.20368109590457,
1,16,center,down,IC,R,,,,,,Block.xlsx,"你已经完成了第一个实验区组

请稍作休息


点击空格键进入下一个区组。",0,50,-1.5,right,LLRLL.png,,,,,0,0,0,0,3,15,87,15,,,,,,,,,,,,,,,,,,,,,,,,,,,,,,,,,,,,,,,,,,,,,,,,,,,,,,,,,,,,,,,,246.36276559998805,246.7634512999939,246.74739569998928,246.84839739999734,247.24848270000075,None,right,1,0.5776957999914885,247.24848270000075,None,246.74739569998928,246.84839739999734,246.84839739999734,None,247.84836150000046,None,,,,,,,11039,001,2024_Mar_13_1354,ANT,2021.2.3,60.20368109590457,
1,4,no,up,IC,R,,,,,,Block.xlsx,"你已经完成了第一个实验区组

请稍作休息


点击空格键进入下一个区组。",50,0,1.5,right,LLRLL.png,,,,,0,0,0,0,3,16,88,3,,,,,,,,,,,,,,,,,,,,,,,,,,,,,,,,,,,,,,,,,,,,,,,,,,,,,,,,,,,,,,,,248.24893919999886,248.64931529999012,248.6329934999958,248.73296359999222,249.1335747999983,None,left,0,0.41289740000502206,249.1335747999983,None,248.6329934999958,248.73296359999222,248.73296359999222,None,249.5675174999924,None,,,,,,,11039,001,2024_Mar_13_1354,ANT,2021.2.3,60.20368109590457,
1,21,spatial,down,C,L,,,,,,Block.xlsx,"你已经完成了第一个实验区组

请稍作休息


点击空格键进入下一个区组。",-1.5,0,-1.5,left,LLLLL.png,,,,,0,0,0,0,3,17,89,20,,,,,,,,,,,,,,,,,,,,,,,,,,,,,,,,,,,,,,,,,,,,,,,,,,,,,,,,,,,,,,,,249.96817499998724,250.369560799998,250.3527000999893,250.45370519999415,250.85265639999125,None,left,1,0.38953359999868553,250.85265639999125,None,250.3527000999893,250.45370519999415,250.45370519999415,None,251.27033699999447,None,,,,,,,11039,001,2024_Mar_13_1354,ANT,2021.2.3,60.20368109590457,
1,6,no,down,C,R,,,,,,Block.xlsx,"你已经完成了第一个实验区组

请稍作休息


点击空格键进入下一个区组。",50,0,-1.5,right,RRRRR.png,,,,,0,0,0,0,3,18,90,5,,,,,,,,,,,,,,,,,,,,,,,,,,,,,,,,,,,,,,,,,,,,,,,,,,,,,,,,,,,,,,,,251.67081519999192,252.07214889999887,252.05472519999603,252.15473289998772,252.55672619999677,None,right,1,0.47778899999684654,252.55672619999677,None,252.05472519999603,252.15473289998772,252.15473289998772,None,253.05614149999747,None,,,,,,,11039,001,2024_Mar_13_1354,ANT,2021.2.3,60.20368109590457,
1,17,spatial,up,C,L,,,,,,Block.xlsx,"你已经完成了第一个实验区组

请稍作休息


点击空格键进入下一个区组。",1.5,0,1.5,left,LLLLL.png,,,,,0,0,0,0,3,19,91,16,,,,,,,,,,,,,,,,,,,,,,,,,,,,,,,,,,,,,,,,,,,,,,,,,,,,,,,,,,,,,,,,253.45671089999087,253.85910379998677,253.8410523999919,253.94173579999187,254.34194299999217,None,left,1,0.39649009999993723,254.34194299999217,None,253.8410523999919,253.94173579999187,253.94173579999187,None,254.7587014999881,None,,,,,,,11039,001,2024_Mar_13_1354,ANT,2021.2.3,60.20368109590457,
1,18,spatial,up,C,R,,,,,,Block.xlsx,"你已经完成了第一个实验区组

请稍作休息


点击空格键进入下一个区组。",1.5,0,1.5,right,RRRRR.png,,,,,0,0,0,0,3,20,92,17,,,,,,,,,,,,,,,,,,,,,,,,,,,,,,,,,,,,,,,,,,,,,,,,,,,,,,,,,,,,,,,,255.15946499998972,255.5612398999947,255.54349949999596,255.64340349999839,256.0442686999886,None,right,1,0.37431840000499506,256.0442686999886,None,255.54349949999596,255.64340349999839,255.64340349999839,None,256.4446210999886,None,,,,,,,11039,001,2024_Mar_13_1354,ANT,2021.2.3,60.20368109590457,
1,23,spatial,down,IC,L,,,,,,Block.xlsx,"你已经完成了第一个实验区组

请稍作休息


点击空格键进入下一个区组。",-1.5,0,-1.5,left,RRLRR.png,,,,,0,0,0,0,3,21,93,22,,,,,,,,,,,,,,,,,,,,,,,,,,,,,,,,,,,,,,,,,,,,,,,,,,,,,,,,,,,,,,,,256.84526039999037,257.2464861999906,257.2300077999971,257.33081919999677,257.7306590999942,None,left,1,0.42385510000167415,257.7306590999942,None,257.2300077999971,257.33081919999677,257.33081919999677,None,258.1803932999901,None,,,,,,,11039,001,2024_Mar_13_1354,ANT,2021.2.3,60.20368109590457,
1,4,no,up,IC,R,,,,,,Block.xlsx,"你已经完成了第一个实验区组

请稍作休息


点击空格键进入下一个区组。",50,0,1.5,right,LLRLL.png,,,,,0,0,0,0,3,22,94,3,,,,,,,,,,,,,,,,,,,,,,,,,,,,,,,,,,,,,,,,,,,,,,,,,,,,,,,,,,,,,,,,258.58248739999544,258.9818263999914,258.96570259999135,259.06540499998664,259.4671090999909,None,right,1,0.5196084999915911,259.4671090999909,None,258.96570259999135,259.06540499998664,259.06540499998664,None,260.01664619999065,None,,,,,,,11039,001,2024_Mar_13_1354,ANT,2021.2.3,60.20368109590457,
1,16,center,down,IC,R,,,,,,Block.xlsx,"你已经完成了第一个实验区组

请稍作休息


点击空格键进入下一个区组。",0,50,-1.5,right,LLRLL.png,,,,,0,0,0,0,3,23,95,15,,,,,,,,,,,,,,,,,,,,,,,,,,,,,,,,,,,,,,,,,,,,,,,,,,,,,,,,,,,,,,,,260.4173153999873,260.81777979999606,260.80296429999,260.9014819999866,261.3019292999961,None,right,1,0.44460329999856185,261.3019292999961,None,260.80296429999,260.9014819999866,260.9014819999866,None,261.7692774999887,None,,,,,,,11039,001,2024_Mar_13_1354,ANT,2021.2.3,60.20368109590457,
,,,,,,,,,,,Block.xlsx,"你已经完成了第一个实验区组

请稍作休息


点击空格键进入下一个区组。",,,,,,,,,,0,0,0,0,,,,,,,,,,,,,,,,,,,,,,,,,,,,,,,,,,,,,,,,,,,,,,,,,,,,,,,,,,,,,,,,,,,,,,,,,,,,,,,,,,,,,space,6.782442700001411,262.18873429999803,None,262.18873429999803,None,11039,001,2024_Mar_13_1354,ANT,2021.2.3,60.20368109590457,
1,19,spatial,up,IC,L,,,,,,Block.xlsx,"你已经完成了整个实验（三个区组）。

请报告实验者已完成实验

非常感谢，再见！",1.5,0,1.5,left,RRLRR.png,,,,,0,1,1,1,0,0,0,18,,,,,,,,,,,,,,,,,,,,,,,,,,,,,,,,,,,,,,,,,,,,,,,,,,,,,,,,,,,,,,,,269.01355489999696,269.4154913999955,269.3983301999979,269.4982577999908,269.89809969998896,None,left,1,0.43264189999899827,269.89809969998896,None,269.3983301999979,269.4982577999908,269.4982577999908,None,270.34890019999875,None,,,,,,,11039,001,2024_Mar_13_1354,ANT,2021.2.3,60.20368109590457,
1,23,spatial,down,IC,L,,,,,,Block.xlsx,"你已经完成了整个实验（三个区组）。

请报告实验者已完成实验

非常感谢，再见！",-1.5,0,-1.5,left,RRLRR.png,,,,,0,1,1,1,0,1,1,22,,,,,,,,,,,,,,,,,,,,,,,,,,,,,,,,,,,,,,,,,,,,,,,,,,,,,,,,,,,,,,,,270.74944709999545,271.1506573999941,271.13440169999376,271.2513084999955,271.6339747999882,None,left,1,0.42498369999520946,271.6339747999882,None,271.13440169999376,271.2513084999955,271.23442239999713,None,272.08493729999464,None,,,,,,,11039,001,2024_Mar_13_1354,ANT,2021.2.3,60.20368109590457,
1,17,spatial,up,C,L,,,,,,Block.xlsx,"你已经完成了整个实验（三个区组）。

请报告实验者已完成实验

非常感谢，再见！",1.5,0,1.5,left,LLLLL.png,,,,,0,1,1,1,0,2,2,16,,,,,,,,,,,,,,,,,,,,,,,,,,,,,,,,,,,,,,,,,,,,,,,,,,,,,,,,,,,,,,,,272.48547449999023,272.8860035999969,272.86935609999637,272.97040439999546,273.3710774999927,None,left,1,0.3999387999938335,273.3710774999927,None,272.86935609999637,272.97040439999546,272.97040439999546,None,273.78722869999183,None,,,,,,,11039,001,2024_Mar_13_1354,ANT,2021.2.3,60.20368109590457,
1,16,center,down,IC,R,,,,,,Block.xlsx,"你已经完成了整个实验（三个区组）。

请报告实验者已完成实验

非常感谢，再见！",0,50,-1.5,right,LLRLL.png,,,,,0,1,1,1,0,3,3,15,,,,,,,,,,,,,,,,,,,,,,,,,,,,,,,,,,,,,,,,,,,,,,,,,,,,,,,,,,,,,,,,274.1899934999965,274.6061931000004,274.571970399993,274.67277869999816,275.0735425999883,None,right,1,0.41732880000199657,275.0735425999883,None,274.571970399993,274.67277869999816,274.67277869999816,None,275.5069494999916,None,,,,,,,11039,001,2024_Mar_13_1354,ANT,2021.2.3,60.20368109590457,
1,6,no,down,C,R,,,,,,Block.xlsx,"你已经完成了整个实验（三个区组）。

请报告实验者已完成实验

非常感谢，再见！",50,0,-1.5,right,RRRRR.png,,,,,0,1,1,1,0,4,4,5,,,,,,,,,,,,,,,,,,,,,,,,,,,,,,,,,,,,,,,,,,,,,,,,,,,,,,,,,,,,,,,,275.90726639999775,276.3085083999904,276.2911548999982,276.39330319999135,276.7919928999909,None,right,1,0.41906359999848064,276.7919928999909,None,276.2911548999982,276.39330319999135,276.39330319999135,None,277.2259105999983,None,,,,,,,11039,001,2024_Mar_13_1354,ANT,2021.2.3,60.20368109590457,
1,6,no,down,C,R,,,,,,Block.xlsx,"你已经完成了整个实验（三个区组）。

请报告实验者已完成实验

非常感谢，再见！",50,0,-1.5,right,RRRRR.png,,,,,0,1,1,1,0,5,5,5,,,,,,,,,,,,,,,,,,,,,,,,,,,,,,,,,,,,,,,,,,,,,,,,,,,,,,,,,,,,,,,,277.6274291999871,278.0279559999908,278.01050429999304,278.11147920000076,278.5114564999967,None,right,1,0.3720665000000736,278.5114564999967,None,278.01050429999304,278.11147920000076,278.11147920000076,None,278.91183649998857,None,,,,,,,11039,001,2024_Mar_13_1354,ANT,2021.2.3,60.20368109590457,
1,7,no,down,IC,L,,,,,,Block.xlsx,"你已经完成了整个实验（三个区组）。

请报告实验者已完成实验

非常感谢，再见！",50,0,-1.5,left,RRLRR.png,,,,,0,1,1,1,0,6,6,6,,,,,,,,,,,,,,,,,,,,,,,,,,,,,,,,,,,,,,,,,,,,,,,,,,,,,,,,,,,,,,,,279.31334799999604,279.71299679999356,279.69788889998745,279.8138300999999,280.1980612999905,None,left,1,0.43761199999426026,280.1980612999905,None,279.69788889998745,279.8138300999999,279.7965364999982,None,280.66453969999566,None,,,,,,,11039,001,2024_Mar_13_1354,ANT,2021.2.3,60.20368109590457,
1,12,center,up,IC,R,,,,,,Block.xlsx,"你已经完成了整个实验（三个区组）。

请报告实验者已完成实验

非常感谢，再见！",0,50,1.5,right,LLRLL.png,,,,,0,1,1,1,0,7,7,11,,,,,,,,,,,,,,,,,,,,,,,,,,,,,,,,,,,,,,,,,,,,,,,,,,,,,,,,,,,,,,,,281.0651179999986,281.4656715999881,281.4490419999929,281.5491326999909,281.94971599998826,None,right,1,0.48542869999073446,281.94971599998826,None,281.4490419999929,281.5491326999909,281.5491326999909,None,282.4507314999937,None,,,,,,,11039,001,2024_Mar_13_1354,ANT,2021.2.3,60.20368109590457,
1,2,no,up,C,R,,,,,,Block.xlsx,"你已经完成了整个实验（三个区组）。

请报告实验者已完成实验

非常感谢，再见！",50,0,1.5,right,RRRRR.png,,,,,0,1,1,1,0,8,8,1,,,,,,,,,,,,,,,,,,,,,,,,,,,,,,,,,,,,,,,,,,,,,,,,,,,,,,,,,,,,,,,,282.85178219999943,283.25179619999835,283.2351847999962,283.33688209998945,283.73584129998926,None,right,1,0.4352024999971036,283.73584129998926,None,283.2351847999962,283.33688209998945,283.33688209998945,None,284.18647649999184,None,,,,,,,11039,001,2024_Mar_13_1354,ANT,2021.2.3,60.20368109590457,
1,22,spatial,down,C,R,,,,,,Block.xlsx,"你已经完成了整个实验（三个区组）。

请报告实验者已完成实验

非常感谢，再见！",-1.5,0,-1.5,right,RRRRR.png,,,,,0,1,1,1,0,9,9,21,,,,,,,,,,,,,,,,,,,,,,,,,,,,,,,,,,,,,,,,,,,,,,,,,,,,,,,,,,,,,,,,284.5869183999894,284.98766309999337,284.9711673999991,285.07202579999284,285.4717657000001,None,right,1,0.3554448999930173,285.4717657000001,None,284.9711673999991,285.07202579999284,285.07202579999284,None,285.8555406999949,None,,,,,,,11039,001,2024_Mar_13_1354,ANT,2021.2.3,60.20368109590457,
1,18,spatial,up,C,R,,,,,,Block.xlsx,"你已经完成了整个实验（三个区组）。

请报告实验者已完成实验

非常感谢，再见！",1.5,0,1.5,right,RRRRR.png,,,,,0,1,1,1,0,10,10,17,,,,,,,,,,,,,,,,,,,,,,,,,,,,,,,,,,,,,,,,,,,,,,,,,,,,,,,,,,,,,,,,286.25613619999785,286.6567265999911,286.64008249998733,286.74045019999903,287.1429991999903,None,right,1,0.37229180001304485,287.1429991999903,None,286.64008249998733,286.74045019999903,286.74045019999903,None,287.5415298999869,None,,,,,,,11039,001,2024_Mar_13_1354,ANT,2021.2.3,60.20368109590457,
1,20,spatial,up,IC,R,,,,,,Block.xlsx,"你已经完成了整个实验（三个区组）。

请报告实验者已完成实验

非常感谢，再见！",1.5,0,1.5,right,LLRLL.png,,,,,0,1,1,1,0,11,11,19,,,,,,,,,,,,,,,,,,,,,,,,,,,,,,,,,,,,,,,,,,,,,,,,,,,,,,,,,,,,,,,,287.94233359998907,288.3445709999942,288.32661219999136,288.42791279999074,288.8277197999996,None,right,1,0.4161259999964386,288.8277197999996,None,288.32661219999136,288.42791279999074,288.42791279999074,None,289.26073929999257,None,,,,,,,11039,001,2024_Mar_13_1354,ANT,2021.2.3,60.20368109590457,
1,14,center,down,C,R,,,,,,Block.xlsx,"你已经完成了整个实验（三个区组）。

请报告实验者已完成实验

非常感谢，再见！",0,50,-1.5,right,RRRRR.png,,,,,0,1,1,1,0,12,12,13,,,,,,,,,,,,,,,,,,,,,,,,,,,,,,,,,,,,,,,,,,,,,,,,,,,,,,,,,,,,,,,,289.6618182999955,290.0620265999896,290.0455984,290.1454728999961,290.5459828999883,None,right,1,0.4181603999895742,290.5459828999883,None,290.0455984,290.1454728999961,290.1454728999961,None,290.9801141999924,None,,,,,,,11039,001,2024_Mar_13_1354,ANT,2021.2.3,60.20368109590457,
1,16,center,down,IC,R,,,,,,Block.xlsx,"你已经完成了整个实验（三个区组）。

请报告实验者已完成实验

非常感谢，再见！",0,50,-1.5,right,LLRLL.png,,,,,0,1,1,1,0,13,13,15,,,,,,,,,,,,,,,,,,,,,,,,,,,,,,,,,,,,,,,,,,,,,,,,,,,,,,,,,,,,,,,,291.38055789998907,291.7812294999894,291.76554889998806,291.86642419999407,292.26617740000074,None,right,1,0.450855799994315,292.26617740000074,None,291.76554889998806,291.86642419999407,291.86642419999407,None,292.73272919999727,None,,,,,,,11039,001,2024_Mar_13_1354,ANT,2021.2.3,60.20368109590457,
1,7,no,down,IC,L,,,,,,Block.xlsx,"你已经完成了整个实验（三个区组）。

请报告实验者已完成实验

非常感谢，再见！",50,0,-1.5,left,RRLRR.png,,,,,0,1,1,1,0,14,14,6,,,,,,,,,,,,,,,,,,,,,,,,,,,,,,,,,,,,,,,,,,,,,,,,,,,,,,,,,,,,,,,,293.1332631999976,293.5343026999908,293.5182298,293.6184169999906,294.017795199994,None,left,1,0.5854431000043405,294.017795199994,None,293.5182298,293.6184169999906,293.6184169999906,None,294.61885619998793,None,,,,,,,11039,001,2024_Mar_13_1354,ANT,2021.2.3,60.20368109590457,
1,1,no,up,C,L,,,,,,Block.xlsx,"你已经完成了整个实验（三个区组）。

请报告实验者已完成实验

非常感谢，再见！",50,0,1.5,left,LLLLL.png,,,,,0,1,1,1,0,15,15,0,,,,,,,,,,,,,,,,,,,,,,,,,,,,,,,,,,,,,,,,,,,,,,,,,,,,,,,,,,,,,,,,295.01946899999166,295.4204618999938,295.40327799999795,295.50384119999944,295.9046968999901,None,left,1,0.49887789999775123,295.9046968999901,None,295.40327799999795,295.50384119999944,295.50384119999944,None,296.42141809999885,None,,,,,,,11039,001,2024_Mar_13_1354,ANT,2021.2.3,60.20368109590457,
1,20,spatial,up,IC,R,,,,,,Block.xlsx,"你已经完成了整个实验（三个区组）。

请报告实验者已完成实验

非常感谢，再见！",1.5,0,1.5,right,LLRLL.png,,,,,0,1,1,1,0,16,16,19,,,,,,,,,,,,,,,,,,,,,,,,,,,,,,,,,,,,,,,,,,,,,,,,,,,,,,,,,,,,,,,,296.82288529998914,297.2233908999915,297.20614509998995,297.3064054999995,297.70757069998945,None,right,1,0.3840595000074245,297.70757069998945,None,297.20614509998995,297.3064054999995,297.3064054999995,None,298.1080144999869,None,,,,,,,11039,001,2024_Mar_13_1354,ANT,2021.2.3,60.20368109590457,
1,8,no,down,IC,R,,,,,,Block.xlsx,"你已经完成了整个实验（三个区组）。

请报告实验者已完成实验

非常感谢，再见！",50,0,-1.5,right,LLRLL.png,,,,,0,1,1,1,0,17,17,7,,,,,,,,,,,,,,,,,,,,,,,,,,,,,,,,,,,,,,,,,,,,,,,,,,,,,,,,,,,,,,,,298.5080342000001,298.90849909999815,298.8925950999983,298.992330699999,299.39492939999036,None,right,1,0.5049824000016088,299.39492939999036,None,298.8925950999983,298.992330699999,298.992330699999,None,299.9274068999948,None,,,,,,,11039,001,2024_Mar_13_1354,ANT,2021.2.3,60.20368109590457,
1,11,center,up,IC,L,,,,,,Block.xlsx,"你已经完成了整个实验（三个区组）。

请报告实验者已完成实验

非常感谢，再见！",0,50,1.5,left,RRLRR.png,,,,,0,1,1,1,0,18,18,10,,,,,,,,,,,,,,,,,,,,,,,,,,,,,,,,,,,,,,,,,,,,,,,,,,,,,,,,,,,,,,,,300.32747949998884,300.729276699989,300.71127010000055,300.8114910000004,301.2124721,None,left,1,0.47936870000557974,301.2124721,None,300.71127010000055,300.8114910000004,300.8114910000004,None,301.7129999999888,None,,,,,,,11039,001,2024_Mar_13_1354,ANT,2021.2.3,60.20368109590457,
1,8,no,down,IC,R,,,,,,Block.xlsx,"你已经完成了整个实验（三个区组）。

请报告实验者已完成实验

非常感谢，再见！",50,0,-1.5,right,LLRLL.png,,,,,0,1,1,1,0,19,19,7,,,,,,,,,,,,,,,,,,,,,,,,,,,,,,,,,,,,,,,,,,,,,,,,,,,,,,,,,,,,,,,,302.11345379998966,302.5141603999946,302.4980554999929,302.59850709998864,302.99824129999615,None,right,1,0.5346676999906776,302.99824129999615,None,302.4980554999929,302.59850709998864,302.59850709998864,None,303.5490665999969,None,,,,,,,11039,001,2024_Mar_13_1354,ANT,2021.2.3,60.20368109590457,
1,18,spatial,up,C,R,,,,,,Block.xlsx,"你已经完成了整个实验（三个区组）。

请报告实验者已完成实验

非常感谢，再见！",1.5,0,1.5,right,RRRRR.png,,,,,0,1,1,1,0,20,20,17,,,,,,,,,,,,,,,,,,,,,,,,,,,,,,,,,,,,,,,,,,,,,,,,,,,,,,,,,,,,,,,,303.94959419999213,304.3502726000006,304.3338512999908,304.4343571999925,304.8354499999987,None,right,1,0.36039630000595935,304.8354499999987,None,304.3338512999908,304.4343571999925,304.4343571999925,None,305.2179660999973,None,,,,,,,11039,001,2024_Mar_13_1354,ANT,2021.2.3,60.20368109590457,
1,10,center,up,C,R,,,,,,Block.xlsx,"你已经完成了整个实验（三个区组）。

请报告实验者已完成实验

非常感谢，再见！",0,50,1.5,right,RRRRR.png,,,,,0,1,1,1,0,21,21,9,,,,,,,,,,,,,,,,,,,,,,,,,,,,,,,,,,,,,,,,,,,,,,,,,,,,,,,,,,,,,,,,305.61877059999097,306.0196411999932,306.00333539998974,306.10424959998636,306.5032638999983,None,right,1,0.3566090999956941,306.5032638999983,None,306.00333539998974,306.10424959998636,306.10424959998636,None,306.8875610999967,None,,,,,,,11039,001,2024_Mar_13_1354,ANT,2021.2.3,60.20368109590457,
1,8,no,down,IC,R,,,,,,Block.xlsx,"你已经完成了整个实验（三个区组）。

请报告实验者已完成实验

非常感谢，再见！",50,0,-1.5,right,LLRLL.png,,,,,0,1,1,1,0,22,22,7,,,,,,,,,,,,,,,,,,,,,,,,,,,,,,,,,,,,,,,,,,,,,,,,,,,,,,,,,,,,,,,,307.28895909999846,307.6889139999985,307.67296449998685,307.7724896,308.17297659999167,None,right,1,0.6157916000083787,308.17297659999167,None,307.67296449998685,307.7724896,307.7724896,None,308.80764949999866,None,,,,,,,11039,001,2024_Mar_13_1354,ANT,2021.2.3,60.20368109590457,
1,8,no,down,IC,R,,,,,,Block.xlsx,"你已经完成了整个实验（三个区组）。

请报告实验者已完成实验

非常感谢，再见！",50,0,-1.5,right,LLRLL.png,,,,,0,1,1,1,0,23,23,7,,,,,,,,,,,,,,,,,,,,,,,,,,,,,,,,,,,,,,,,,,,,,,,,,,,,,,,,,,,,,,,,309.2075310999935,309.60934739999357,309.59184539999114,309.6925935999898,310.0929591999884,None,right,1,0.53480199999467,310.0929591999884,None,309.59184539999114,309.6925935999898,309.6925935999898,None,310.6427532999951,None,,,,,,,11039,001,2024_Mar_13_1354,ANT,2021.2.3,60.20368109590457,
1,15,center,down,IC,L,,,,,,Block.xlsx,"你已经完成了整个实验（三个区组）。

请报告实验者已完成实验

非常感谢，再见！",0,50,-1.5,left,RRLRR.png,,,,,0,1,1,1,1,0,24,14,,,,,,,,,,,,,,,,,,,,,,,,,,,,,,,,,,,,,,,,,,,,,,,,,,,,,,,,,,,,,,,,311.0437391999876,311.4451040999993,311.4273467999883,311.5283303999895,311.9291741999914,None,left,1,0.6427397000079509,311.9291741999914,None,311.4273467999883,311.5283303999895,311.5283303999895,None,312.5966689999914,None,,,,,,,11039,001,2024_Mar_13_1354,ANT,2021.2.3,60.20368109590457,
1,11,center,up,IC,L,,,,,,Block.xlsx,"你已经完成了整个实验（三个区组）。

请报告实验者已完成实验

非常感谢，再见！",0,50,1.5,left,RRLRR.png,,,,,0,1,1,1,1,1,25,10,,,,,,,,,,,,,,,,,,,,,,,,,,,,,,,,,,,,,,,,,,,,,,,,,,,,,,,,,,,,,,,,312.9967217999947,313.39782299999206,313.38034139999945,313.48213259999466,313.88112479999836,None,left,1,0.610972499998752,313.88112479999836,None,313.38034139999945,313.48213259999466,313.48213259999466,None,314.51560689999314,None,,,,,,,11039,001,2024_Mar_13_1354,ANT,2021.2.3,60.20368109590457,
1,9,center,up,C,L,,,,,,Block.xlsx,"你已经完成了整个实验（三个区组）。

请报告实验者已完成实验

非常感谢，再见！",0,50,1.5,left,LLLLL.png,,,,,0,1,1,1,1,2,26,8,,,,,,,,,,,,,,,,,,,,,,,,,,,,,,,,,,,,,,,,,,,,,,,,,,,,,,,,,,,,,,,,314.91609999998764,315.3180360999977,315.3000627000001,315.40008949999174,315.80247509999026,None,left,1,0.5133914000034565,315.80247509999026,None,315.3000627000001,315.40008949999174,315.40008949999174,None,316.3346489999967,None,,,,,,,11039,001,2024_Mar_13_1354,ANT,2021.2.3,60.20368109590457,
1,2,no,up,C,R,,,,,,Block.xlsx,"你已经完成了整个实验（三个区组）。

请报告实验者已完成实验

非常感谢，再见！",50,0,1.5,right,RRRRR.png,,,,,0,1,1,1,1,3,27,1,,,,,,,,,,,,,,,,,,,,,,,,,,,,,,,,,,,,,,,,,,,,,,,,,,,,,,,,,,,,,,,,316.7367850999872,317.1366233000008,317.12072120000084,317.22009559998696,317.6225778999942,None,right,1,0.4066049000102794,317.6225778999942,None,317.12072120000084,317.22009559998696,317.22009559998696,None,318.0550507000007,None,,,,,,,11039,001,2024_Mar_13_1354,ANT,2021.2.3,60.20368109590457,
1,5,no,down,C,L,,,,,,Block.xlsx,"你已经完成了整个实验（三个区组）。

请报告实验者已完成实验

非常感谢，再见！",50,0,-1.5,left,LLLLL.png,,,,,0,1,1,1,1,4,28,4,,,,,,,,,,,,,,,,,,,,,,,,,,,,,,,,,,,,,,,,,,,,,,,,,,,,,,,,,,,,,,,,318.455295199994,318.8562128999911,318.83961559999443,318.93991239999013,319.3393434999889,None,left,1,0.5207282000046689,319.3393434999889,None,318.83961559999443,318.93991239999013,318.93991239999013,None,319.8902061999979,None,,,,,,,11039,001,2024_Mar_13_1354,ANT,2021.2.3,60.20368109590457,
1,21,spatial,down,C,L,,,,,,Block.xlsx,"你已经完成了整个实验（三个区组）。

请报告实验者已完成实验

非常感谢，再见！",-1.5,0,-1.5,left,LLLLL.png,,,,,0,1,1,1,1,5,29,20,,,,,,,,,,,,,,,,,,,,,,,,,,,,,,,,,,,,,,,,,,,,,,,,,,,,,,,,,,,,,,,,320.29134599999816,320.6920657999872,320.6747994999896,320.7749655999942,321.17751119998866,None,left,1,0.42644530000688974,321.17751119998866,None,320.6747994999896,320.7749655999942,320.7749655999942,None,321.6261544000008,None,,,,,,,11039,001,2024_Mar_13_1354,ANT,2021.2.3,60.20368109590457,
1,24,spatial,down,IC,R,,,,,,Block.xlsx,"你已经完成了整个实验（三个区组）。

请报告实验者已完成实验

非常感谢，再见！",-1.5,0,-1.5,right,LLRLL.png,,,,,0,1,1,1,1,6,30,23,,,,,,,,,,,,,,,,,,,,,,,,,,,,,,,,,,,,,,,,,,,,,,,,,,,,,,,,,,,,,,,,322.0267184999975,322.42873359999794,322.41155309999886,322.51275719999103,322.9123804999981,None,right,1,0.539843300008215,322.9123804999981,None,322.41155309999886,322.51275719999103,322.51275719999103,None,323.4788816999935,None,,,,,,,11039,001,2024_Mar_13_1354,ANT,2021.2.3,60.20368109590457,
1,7,no,down,IC,L,,,,,,Block.xlsx,"你已经完成了整个实验（三个区组）。

请报告实验者已完成实验

非常感谢，再见！",50,0,-1.5,left,RRLRR.png,,,,,0,1,1,1,1,7,31,6,,,,,,,,,,,,,,,,,,,,,,,,,,,,,,,,,,,,,,,,,,,,,,,,,,,,,,,,,,,,,,,,323.8803018999897,324.28033139999025,324.2646475999936,324.3638071999885,324.7654573999898,None,left,1,0.5186677000019699,324.7654573999898,None,324.2646475999936,324.3638071999885,324.3638071999885,None,325.31480689998716,None,,,,,,,11039,001,2024_Mar_13_1354,ANT,2021.2.3,60.20368109590457,
1,12,center,up,IC,R,,,,,,Block.xlsx,"你已经完成了整个实验（三个区组）。

请报告实验者已完成实验

非常感谢，再见！",0,50,1.5,right,LLRLL.png,,,,,0,1,1,1,1,8,32,11,,,,,,,,,,,,,,,,,,,,,,,,,,,,,,,,,,,,,,,,,,,,,,,,,,,,,,,,,,,,,,,,325.71561199999996,326.11724159998994,326.1008199999924,326.21768989998964,326.6003146999865,None,right,1,0.5160394999984419,326.6003146999865,None,326.1008199999924,326.21768989998964,326.19956189999357,None,327.13441729999613,None,,,,,,,11039,001,2024_Mar_13_1354,ANT,2021.2.3,60.20368109590457,
1,3,no,up,IC,L,,,,,,Block.xlsx,"你已经完成了整个实验（三个区组）。

请报告实验者已完成实验

非常感谢，再见！",50,0,1.5,left,RRLRR.png,,,,,0,1,1,1,1,9,33,2,,,,,,,,,,,,,,,,,,,,,,,,,,,,,,,,,,,,,,,,,,,,,,,,,,,,,,,,,,,,,,,,327.5352522999892,327.93639429999166,327.9210257999948,328.0359252999915,328.4204521999927,None,right,0,0.41694000001007225,328.4204521999927,None,327.9210257999948,328.0359252999915,328.01927389999037,None,328.8539785999892,None,,,,,,,11039,001,2024_Mar_13_1354,ANT,2021.2.3,60.20368109590457,
1,1,no,up,C,L,,,,,,Block.xlsx,"你已经完成了整个实验（三个区组）。

请报告实验者已完成实验

非常感谢，再见！",50,0,1.5,left,LLLLL.png,,,,,0,1,1,1,1,10,34,0,,,,,,,,,,,,,,,,,,,,,,,,,,,,,,,,,,,,,,,,,,,,,,,,,,,,,,,,,,,,,,,,329.2546216999908,329.6555359999911,329.6402664999914,329.75764169999456,330.13888739999675,None,left,1,0.497783899991191,330.13888739999675,None,329.6402664999914,329.75764169999456,329.73924819999957,None,330.6565867999889,None,,,,,,,11039,001,2024_Mar_13_1354,ANT,2021.2.3,60.20368109590457,
1,17,spatial,up,C,L,,,,,,Block.xlsx,"你已经完成了整个实验（三个区组）。

请报告实验者已完成实验

非常感谢，再见！",1.5,0,1.5,left,LLLLL.png,,,,,0,1,1,1,1,11,35,16,,,,,,,,,,,,,,,,,,,,,,,,,,,,,,,,,,,,,,,,,,,,,,,,,,,,,,,,,,,,,,,,331.05706449999707,331.45842099998845,331.4418503999914,331.541229999988,331.94157929999346,None,left,1,0.40683049999643117,331.94157929999346,None,331.4418503999914,331.541229999988,331.541229999988,None,332.3759883999883,None,,,,,,,11039,001,2024_Mar_13_1354,ANT,2021.2.3,60.20368109590457,
1,21,spatial,down,C,L,,,,,,Block.xlsx,"你已经完成了整个实验（三个区组）。

请报告实验者已完成实验

非常感谢，再见！",-1.5,0,-1.5,left,LLLLL.png,,,,,0,1,1,1,1,12,36,20,,,,,,,,,,,,,,,,,,,,,,,,,,,,,,,,,,,,,,,,,,,,,,,,,,,,,,,,,,,,,,,,332.77634319999197,333.17704769999546,333.1608857999963,333.2605942999944,333.6615989999991,None,left,1,0.3989235000044573,333.6615989999991,None,333.1608857999963,333.2605942999944,333.2605942999944,None,334.07835549999436,None,,,,,,,11039,001,2024_Mar_13_1354,ANT,2021.2.3,60.20368109590457,
1,19,spatial,up,IC,L,,,,,,Block.xlsx,"你已经完成了整个实验（三个区组）。

请报告实验者已完成实验

非常感谢，再见！",1.5,0,1.5,left,RRLRR.png,,,,,0,1,1,1,1,13,37,18,,,,,,,,,,,,,,,,,,,,,,,,,,,,,,,,,,,,,,,,,,,,,,,,,,,,,,,,,,,,,,,,334.4798529999971,334.8795287999965,334.86420479998924,334.98009569999704,335.364579999994,None,left,1,0.432311500000651,335.364579999994,None,334.86420479998924,334.98009569999704,334.96291419999034,None,335.8140033999953,None,,,,,,,11039,001,2024_Mar_13_1354,ANT,2021.2.3,60.20368109590457,
1,10,center,up,C,R,,,,,,Block.xlsx,"你已经完成了整个实验（三个区组）。

请报告实验者已完成实验

非常感谢，再见！",0,50,1.5,right,RRRRR.png,,,,,0,1,1,1,1,14,38,9,,,,,,,,,,,,,,,,,,,,,,,,,,,,,,,,,,,,,,,,,,,,,,,,,,,,,,,,,,,,,,,,336.21483609999996,336.6153919999924,336.5994229999924,336.6995079999906,337.099556199988,None,right,1,0.47305909999704454,337.099556199988,None,336.5994229999924,336.6995079999906,336.6995079999906,None,337.60075230000075,None,,,,,,,11039,001,2024_Mar_13_1354,ANT,2021.2.3,60.20368109590457,
1,10,center,up,C,R,,,,,,Block.xlsx,"你已经完成了整个实验（三个区组）。

请报告实验者已完成实验

非常感谢，再见！",0,50,1.5,right,RRRRR.png,,,,,0,1,1,1,1,15,39,9,,,,,,,,,,,,,,,,,,,,,,,,,,,,,,,,,,,,,,,,,,,,,,,,,,,,,,,,,,,,,,,,338.0016315999965,338.4020935000008,338.3856367999979,338.4855714000005,338.88534629999776,None,right,1,0.4235317999991821,338.88534629999776,None,338.3856367999979,338.4855714000005,338.4855714000005,None,339.3361481999891,None,,,,,,,11039,001,2024_Mar_13_1354,ANT,2021.2.3,60.20368109590457,
1,1,no,up,C,L,,,,,,Block.xlsx,"你已经完成了整个实验（三个区组）。

请报告实验者已完成实验

非常感谢，再见！",50,0,1.5,left,LLLLL.png,,,,,0,1,1,1,1,16,40,0,,,,,,,,,,,,,,,,,,,,,,,,,,,,,,,,,,,,,,,,,,,,,,,,,,,,,,,,,,,,,,,,339.73690910000005,340.138524199996,340.1207046999916,340.2208772999875,340.6215816999902,None,left,1,0.3988408999866806,340.6215816999902,None,340.1207046999916,340.2208772999875,340.2208772999875,None,341.03873719999683,None,,,,,,,11039,001,2024_Mar_13_1354,ANT,2021.2.3,60.20368109590457,
1,4,no,up,IC,R,,,,,,Block.xlsx,"你已经完成了整个实验（三个区组）。

请报告实验者已完成实验

非常感谢，再见！",50,0,1.5,right,LLRLL.png,,,,,0,1,1,1,1,17,41,3,,,,,,,,,,,,,,,,,,,,,,,,,,,,,,,,,,,,,,,,,,,,,,,,,,,,,,,,,,,,,,,,341.43949999999313,341.8412676000007,341.82373419999203,341.9234746999864,342.32664219998696,None,right,1,0.630792099997052,342.32664219998696,None,341.82373419999203,341.9234746999864,341.9234746999864,None,342.97492229999625,None,,,,,,,11039,001,2024_Mar_13_1354,ANT,2021.2.3,60.20368109590457,
1,4,no,up,IC,R,,,,,,Block.xlsx,"你已经完成了整个实验（三个区组）。

请报告实验者已完成实验

非常感谢，再见！",50,0,1.5,right,LLRLL.png,,,,,0,1,1,1,1,18,42,3,,,,,,,,,,,,,,,,,,,,,,,,,,,,,,,,,,,,,,,,,,,,,,,,,,,,,,,,,,,,,,,,343.37560899999517,343.77741279998736,343.7596060999931,343.8621388999891,344.2609894999914,None,right,1,0.5043846000044141,344.2609894999914,None,343.7596060999931,343.8621388999891,343.8621388999891,None,344.79440039998735,None,,,,,,,11039,001,2024_Mar_13_1354,ANT,2021.2.3,60.20368109590457,
1,5,no,down,C,L,,,,,,Block.xlsx,"你已经完成了整个实验（三个区组）。

请报告实验者已完成实验

非常感谢，再见！",50,0,-1.5,left,LLLLL.png,,,,,0,1,1,1,1,19,43,4,,,,,,,,,,,,,,,,,,,,,,,,,,,,,,,,,,,,,,,,,,,,,,,,,,,,,,,,,,,,,,,,345.1952281999984,345.5958590999944,345.57962089999637,345.6792856999964,346.0806707999873,None,left,1,0.5239251000020886,346.0806707999873,None,345.57962089999637,345.6792856999964,345.6792856999964,None,346.63053659998695,None,,,,,,,11039,001,2024_Mar_13_1354,ANT,2021.2.3,60.20368109590457,
1,3,no,up,IC,L,,,,,,Block.xlsx,"你已经完成了整个实验（三个区组）。

请报告实验者已完成实验

非常感谢，再见！",50,0,1.5,left,RRLRR.png,,,,,0,1,1,1,1,20,44,2,,,,,,,,,,,,,,,,,,,,,,,,,,,,,,,,,,,,,,,,,,,,,,,,,,,,,,,,,,,,,,,,347.0313884999923,347.43184259999543,347.4156423999957,347.51596869999776,347.9165757999872,None,left,1,0.6005990999983624,347.9165757999872,None,347.4156423999957,347.51596869999776,347.51596869999776,None,348.5337964999926,None,,,,,,,11039,001,2024_Mar_13_1354,ANT,2021.2.3,60.20368109590457,
1,20,spatial,up,IC,R,,,,,,Block.xlsx,"你已经完成了整个实验（三个区组）。

请报告实验者已完成实验

非常感谢，再见！",1.5,0,1.5,right,LLRLL.png,,,,,0,1,1,1,1,21,45,19,,,,,,,,,,,,,,,,,,,,,,,,,,,,,,,,,,,,,,,,,,,,,,,,,,,,,,,,,,,,,,,,348.9341664999956,349.33476599999995,349.31826909999654,349.41830759998993,349.8196084999945,None,right,1,0.4095993999944767,349.8196084999945,None,349.31826909999654,349.41830759998993,349.41830759998993,None,350.25267319999693,None,,,,,,,11039,001,2024_Mar_13_1354,ANT,2021.2.3,60.20368109590457,
1,9,center,up,C,L,,,,,,Block.xlsx,"你已经完成了整个实验（三个区组）。

请报告实验者已完成实验

非常感谢，再见！",0,50,1.5,left,LLLLL.png,,,,,0,1,1,1,1,22,46,8,,,,,,,,,,,,,,,,,,,,,,,,,,,,,,,,,,,,,,,,,,,,,,,,,,,,,,,,,,,,,,,,350.65350209998724,351.0552284999867,351.03718059998937,351.1378124999901,351.5388610999944,None,left,1,0.41774550000263844,351.5388610999944,None,351.03718059998937,351.1378124999901,351.1378124999901,None,351.97177789999114,None,,,,,,,11039,001,2024_Mar_13_1354,ANT,2021.2.3,60.20368109590457,
1,14,center,down,C,R,,,,,,Block.xlsx,"你已经完成了整个实验（三个区组）。

请报告实验者已完成实验

非常感谢，再见！",0,50,-1.5,right,RRRRR.png,,,,,0,1,1,1,1,23,47,13,,,,,,,,,,,,,,,,,,,,,,,,,,,,,,,,,,,,,,,,,,,,,,,,,,,,,,,,,,,,,,,,352.37252589999116,352.77450829999,352.756498799994,352.8568380999932,353.2585260999913,None,right,1,0.42656500000157394,353.2585260999913,None,352.756498799994,352.8568380999932,352.8568380999932,None,353.70800739999686,None,,,,,,,11039,001,2024_Mar_13_1354,ANT,2021.2.3,60.20368109590457,
1,1,no,up,C,L,,,,,,Block.xlsx,"你已经完成了整个实验（三个区组）。

请报告实验者已完成实验

非常感谢，再见！",50,0,1.5,left,LLLLL.png,,,,,0,1,1,1,2,0,48,0,,,,,,,,,,,,,,,,,,,,,,,,,,,,,,,,,,,,,,,,,,,,,,,,,,,,,,,,,,,,,,,,354.10840919999464,354.5097023999988,354.4943263999885,354.61019529998885,354.9953577999986,None,left,1,0.4099839999980759,354.9953577999986,None,354.4943263999885,354.61019529998885,354.59384399998817,None,355.4269742999895,None,,,,,,,11039,001,2024_Mar_13_1354,ANT,2021.2.3,60.20368109590457,
1,23,spatial,down,IC,L,,,,,,Block.xlsx,"你已经完成了整个实验（三个区组）。

请报告实验者已完成实验

非常感谢，再见！",-1.5,0,-1.5,left,RRLRR.png,,,,,0,1,1,1,2,1,49,22,,,,,,,,,,,,,,,,,,,,,,,,,,,,,,,,,,,,,,,,,,,,,,,,,,,,,,,,,,,,,,,,355.8291523999942,356.22901559999445,356.212893399992,356.31316519998654,356.71343689999776,None,left,1,0.5961108000046806,356.71343689999776,None,356.212893399992,356.31316519998654,356.31316519998654,None,357.33059749999666,None,,,,,,,11039,001,2024_Mar_13_1354,ANT,2021.2.3,60.20368109590457,
1,11,center,up,IC,L,,,,,,Block.xlsx,"你已经完成了整个实验（三个区组）。

请报告实验者已完成实验

非常感谢，再见！",0,50,1.5,left,RRLRR.png,,,,,0,1,1,1,2,2,50,10,,,,,,,,,,,,,,,,,,,,,,,,,,,,,,,,,,,,,,,,,,,,,,,,,,,,,,,,,,,,,,,,357.7306603999896,358.1321117999905,358.11511689999315,358.214676699994,358.61607319999894,None,left,1,0.5013180000096327,358.61607319999894,None,358.11511689999315,358.214676699994,358.214676699994,None,359.1327096999885,None,,,,,,,11039,001,2024_Mar_13_1354,ANT,2021.2.3,60.20368109590457,
1,3,no,up,IC,L,,,,,,Block.xlsx,"你已经完成了整个实验（三个区组）。

请报告实验者已完成实验

非常感谢，再见！",50,0,1.5,left,RRLRR.png,,,,,0,1,1,1,2,3,51,2,,,,,,,,,,,,,,,,,,,,,,,,,,,,,,,,,,,,,,,,,,,,,,,,,,,,,,,,,,,,,,,,359.53417459999037,359.9347612999991,359.91720820000046,360.0171943999885,360.4183692999941,None,left,1,0.5390176999935647,360.4183692999941,None,359.91720820000046,360.0171943999885,360.0171943999885,None,360.98596339998767,None,,,,,,,11039,001,2024_Mar_13_1354,ANT,2021.2.3,60.20368109590457,
1,7,no,down,IC,L,,,,,,Block.xlsx,"你已经完成了整个实验（三个区组）。

请报告实验者已完成实验

非常感谢，再见！",50,0,-1.5,left,RRLRR.png,,,,,0,1,1,1,2,4,52,6,,,,,,,,,,,,,,,,,,,,,,,,,,,,,,,,,,,,,,,,,,,,,,,,,,,,,,,,,,,,,,,,361.38675979999243,361.78861929998675,361.77015719999326,361.8722422999999,362.2707926999865,None,left,1,0.6389364000060596,362.2707926999865,None,361.77015719999326,361.8722422999999,361.8722422999999,None,362.93825110000034,None,,,,,,,11039,001,2024_Mar_13_1354,ANT,2021.2.3,60.20368109590457,
1,12,center,up,IC,R,,,,,,Block.xlsx,"你已经完成了整个实验（三个区组）。

请报告实验者已完成实验

非常感谢，再见！",0,50,1.5,right,LLRLL.png,,,,,0,1,1,1,2,5,53,11,,,,,,,,,,,,,,,,,,,,,,,,,,,,,,,,,,,,,,,,,,,,,,,,,,,,,,,,,,,,,,,,363.33920959998795,363.740673399996,363.72491889999947,363.8414425999945,364.223848499998,None,right,1,0.49358520000532735,364.223848499998,None,363.72491889999947,363.8414425999945,363.823032699991,None,364.74115759998676,None,,,,,,,11039,001,2024_Mar_13_1354,ANT,2021.2.3,60.20368109590457,
1,14,center,down,C,R,,,,,,Block.xlsx,"你已经完成了整个实验（三个区组）。

请报告实验者已完成实验

非常感谢，再见！",0,50,-1.5,right,RRRRR.png,,,,,0,1,1,1,2,6,54,13,,,,,,,,,,,,,,,,,,,,,,,,,,,,,,,,,,,,,,,,,,,,,,,,,,,,,,,,,,,,,,,,365.14185949999955,365.54369769999175,365.5267157999915,365.6259857999976,366.0274891000008,None,right,1,0.41798949999792967,366.0274891000008,None,365.5267157999915,365.6259857999976,365.6259857999976,None,366.47719929998857,None,,,,,,,11039,001,2024_Mar_13_1354,ANT,2021.2.3,60.20368109590457,
1,13,center,down,C,L,,,,,,Block.xlsx,"你已经完成了整个实验（三个区组）。

请报告实验者已完成实验

非常感谢，再见！",0,50,-1.5,left,LLLLL.png,,,,,0,1,1,1,2,7,55,12,,,,,,,,,,,,,,,,,,,,,,,,,,,,,,,,,,,,,,,,,,,,,,,,,,,,,,,,,,,,,,,,366.87849969998933,367.27923349999764,367.2616563999909,367.3631716999953,367.763031999988,None,left,1,0.46669760000077076,367.763031999988,None,367.2616563999909,367.3631716999953,367.3631716999953,None,368.2462664999912,None,,,,,,,11039,001,2024_Mar_13_1354,ANT,2021.2.3,60.20368109590457,
1,20,spatial,up,IC,R,,,,,,Block.xlsx,"你已经完成了整个实验（三个区组）。

请报告实验者已完成实验

非常感谢，再见！",1.5,0,1.5,right,LLRLL.png,,,,,0,1,1,1,2,8,56,19,,,,,,,,,,,,,,,,,,,,,,,,,,,,,,,,,,,,,,,,,,,,,,,,,,,,,,,,,,,,,,,,368.64725049999834,369.0489055999933,369.03104459999304,369.13182830000005,369.5335905999964,None,right,1,0.4238298999989638,369.5335905999964,None,369.03104459999304,369.13182830000005,369.13182830000005,None,369.98278419999406,None,,,,,,,11039,001,2024_Mar_13_1354,ANT,2021.2.3,60.20368109590457,
1,4,no,up,IC,R,,,,,,Block.xlsx,"你已经完成了整个实验（三个区组）。

请报告实验者已完成实验

非常感谢，再见！",50,0,1.5,right,LLRLL.png,,,,,0,1,1,1,2,9,57,3,,,,,,,,,,,,,,,,,,,,,,,,,,,,,,,,,,,,,,,,,,,,,,,,,,,,,,,,,,,,,,,,370.3830382999877,370.78507289999106,370.76796159999503,370.8669874999905,371.26823219998914,None,right,1,0.4250812000100268,371.26823219998914,None,370.76796159999503,370.8669874999905,370.8669874999905,None,371.7183717000007,None,,,,,,,11039,001,2024_Mar_13_1354,ANT,2021.2.3,60.20368109590457,
1,13,center,down,C,L,,,,,,Block.xlsx,"你已经完成了整个实验（三个区组）。

请报告实验者已完成实验

非常感谢，再见！",0,50,-1.5,left,LLLLL.png,,,,,0,1,1,1,2,10,58,12,,,,,,,,,,,,,,,,,,,,,,,,,,,,,,,,,,,,,,,,,,,,,,,,,,,,,,,,,,,,,,,,372.1187857999903,372.5195551999932,372.5029077999934,372.60372819998884,373.00469929999963,None,left,1,0.3846552999893902,373.00469929999963,None,372.5029077999934,372.60372819998884,372.60372819998884,None,373.40417799999705,None,,,,,,,11039,001,2024_Mar_13_1354,ANT,2021.2.3,60.20368109590457,
1,23,spatial,down,IC,L,,,,,,Block.xlsx,"你已经完成了整个实验（三个区组）。

请报告实验者已完成实验

非常感谢，再见！",-1.5,0,-1.5,left,RRLRR.png,,,,,0,1,1,1,2,11,59,22,,,,,,,,,,,,,,,,,,,,,,,,,,,,,,,,,,,,,,,,,,,,,,,,,,,,,,,,,,,,,,,,373.8053535999934,374.20568279999134,374.1885872999992,374.28882679999515,374.69136479998997,None,left,1,0.5222024999966379,374.69136479998997,None,374.1885872999992,374.28882679999515,374.28882679999515,None,375.24011719999544,None,,,,,,,11039,001,2024_Mar_13_1354,ANT,2021.2.3,60.20368109590457,
1,17,spatial,up,C,L,,,,,,Block.xlsx,"你已经完成了整个实验（三个区组）。

请报告实验者已完成实验

非常感谢，再见！",1.5,0,1.5,left,LLLLL.png,,,,,0,1,1,1,2,12,60,16,,,,,,,,,,,,,,,,,,,,,,,,,,,,,,,,,,,,,,,,,,,,,,,,,,,,,,,,,,,,,,,,375.64084029999503,376.04313289999845,376.0251308000006,376.125014499994,376.5255638999952,None,left,1,0.37651159999950323,376.5255638999952,None,376.0251308000006,376.125014499994,376.125014499994,None,376.92633979998936,None,,,,,,,11039,001,2024_Mar_13_1354,ANT,2021.2.3,60.20368109590457,
1,2,no,up,C,R,,,,,,Block.xlsx,"你已经完成了整个实验（三个区组）。

请报告实验者已完成实验

非常感谢，再见！",50,0,1.5,right,RRRRR.png,,,,,0,1,1,1,2,13,61,1,,,,,,,,,,,,,,,,,,,,,,,,,,,,,,,,,,,,,,,,,,,,,,,,,,,,,,,,,,,,,,,,377.32709349998913,377.7274452999991,377.7108024999907,377.8128463999892,378.212136999995,None,right,1,0.450131199992029,378.212136999995,None,377.7108024999907,377.8128463999892,377.8128463999892,None,378.678846099996,None,,,,,,,11039,001,2024_Mar_13_1354,ANT,2021.2.3,60.20368109590457,
1,4,no,up,IC,R,,,,,,Block.xlsx,"你已经完成了整个实验（三个区组）。

请报告实验者已完成实验

非常感谢，再见！",50,0,1.5,right,LLRLL.png,,,,,0,1,1,1,2,14,62,3,,,,,,,,,,,,,,,,,,,,,,,,,,,,,,,,,,,,,,,,,,,,,,,,,,,,,,,,,,,,,,,,379.07927149999887,379.4811733999959,379.46450360000017,379.56407279999985,379.96482169999217,None,right,1,0.6491042999987258,379.96482169999217,None,379.46450360000017,379.56407279999985,379.56407279999985,None,380.6321234999923,None,,,,,,,11039,001,2024_Mar_13_1354,ANT,2021.2.3,60.20368109590457,
1,15,center,down,IC,L,,,,,,Block.xlsx,"你已经完成了整个实验（三个区组）。

请报告实验者已完成实验

非常感谢，再见！",0,50,-1.5,left,RRLRR.png,,,,,0,1,1,1,2,15,63,14,,,,,,,,,,,,,,,,,,,,,,,,,,,,,,,,,,,,,,,,,,,,,,,,,,,,,,,,,,,,,,,,381.0323731999961,381.43304179998813,381.41701159998775,381.516398199994,381.9182061999891,None,left,1,0.5435381999996025,381.9182061999891,None,381.41701159998775,381.516398199994,381.516398199994,None,382.4844708999881,None,,,,,,,11039,001,2024_Mar_13_1354,ANT,2021.2.3,60.20368109590457,
1,13,center,down,C,L,,,,,,Block.xlsx,"你已经完成了整个实验（三个区组）。

请报告实验者已完成实验

非常感谢，再见！",0,50,-1.5,left,LLLLL.png,,,,,0,1,1,1,2,16,64,12,,,,,,,,,,,,,,,,,,,,,,,,,,,,,,,,,,,,,,,,,,,,,,,,,,,,,,,,,,,,,,,,382.8851549999963,383.28629809999256,383.26880909998727,383.36930669999856,383.7705902999878,None,left,1,0.4351937000028556,383.7705902999878,None,383.26880909998727,383.36930669999856,383.36930669999856,None,384.2381643999979,None,,,,,,,11039,001,2024_Mar_13_1354,ANT,2021.2.3,60.20368109590457,
1,3,no,up,IC,L,,,,,,Block.xlsx,"你已经完成了整个实验（三个区组）。

请报告实验者已完成实验

非常感谢，再见！",50,0,1.5,left,RRLRR.png,,,,,0,1,1,1,2,17,65,2,,,,,,,,,,,,,,,,,,,,,,,,,,,,,,,,,,,,,,,,,,,,,,,,,,,,,,,,,,,,,,,,384.63827549999405,385.03912479999417,385.0217266999971,385.1218818999914,385.52363029999833,None,left,1,0.634057599992957,385.52363029999833,None,385.0217266999971,385.1218818999914,385.1218818999914,None,386.1735779999872,None,,,,,,,11039,001,2024_Mar_13_1354,ANT,2021.2.3,60.20368109590457,
1,9,center,up,C,L,,,,,,Block.xlsx,"你已经完成了整个实验（三个区组）。

请报告实验者已完成实验

非常感谢，再见！",0,50,1.5,left,LLLLL.png,,,,,0,1,1,1,2,18,66,8,,,,,,,,,,,,,,,,,,,,,,,,,,,,,,,,,,,,,,,,,,,,,,,,,,,,,,,,,,,,,,,,386.5741874999949,386.9756357999868,386.95879720000084,387.06026009999914,387.45954060000076,None,left,1,0.40257500000006985,387.45954060000076,None,386.95879720000084,387.06026009999914,387.06026009999914,None,387.8926793999999,None,,,,,,,11039,001,2024_Mar_13_1354,ANT,2021.2.3,60.20368109590457,
1,24,spatial,down,IC,R,,,,,,Block.xlsx,"你已经完成了整个实验（三个区组）。

请报告实验者已完成实验

非常感谢，再见！",-1.5,0,-1.5,right,LLRLL.png,,,,,0,1,1,1,2,19,67,23,,,,,,,,,,,,,,,,,,,,,,,,,,,,,,,,,,,,,,,,,,,,,,,,,,,,,,,,,,,,,,,,388.29337499999383,388.6940074999875,388.6787379999878,388.7774411999999,389.1792174000002,None,right,1,0.4427644999959739,389.1792174000002,None,388.6787379999878,388.7774411999999,388.7774411999999,None,389.6453709999914,None,,,,,,,11039,001,2024_Mar_13_1354,ANT,2021.2.3,60.20368109590457,
1,16,center,down,IC,R,,,,,,Block.xlsx,"你已经完成了整个实验（三个区组）。

请报告实验者已完成实验

非常感谢，再见！",0,50,-1.5,right,LLRLL.png,,,,,0,1,1,1,2,20,68,15,,,,,,,,,,,,,,,,,,,,,,,,,,,,,,,,,,,,,,,,,,,,,,,,,,,,,,,,,,,,,,,,390.0464465999976,390.4476132999989,390.4298326999997,390.53056970000034,390.93082989999675,None,right,1,0.5553303999913624,390.93082989999675,None,390.4298326999997,390.53056970000034,390.53056970000034,None,391.5147842000006,None,,,,,,,11039,001,2024_Mar_13_1354,ANT,2021.2.3,60.20368109590457,
1,24,spatial,down,IC,R,,,,,,Block.xlsx,"你已经完成了整个实验（三个区组）。

请报告实验者已完成实验

非常感谢，再见！",-1.5,0,-1.5,right,LLRLL.png,,,,,0,1,1,1,2,21,69,23,,,,,,,,,,,,,,,,,,,,,,,,,,,,,,,,,,,,,,,,,,,,,,,,,,,,,,,,,,,,,,,,391.91518859998905,392.31807229999686,392.29932809999445,392.4002754999965,392.80021750000014,None,right,1,0.4699010000040289,392.80021750000014,None,392.29932809999445,392.4002754999965,392.4002754999965,None,393.30101269998704,None,,,,,,,11039,001,2024_Mar_13_1354,ANT,2021.2.3,60.20368109590457,
1,14,center,down,C,R,,,,,,Block.xlsx,"你已经完成了整个实验（三个区组）。

请报告实验者已完成实验

非常感谢，再见！",0,50,-1.5,right,RRRRR.png,,,,,0,1,1,1,2,22,70,13,,,,,,,,,,,,,,,,,,,,,,,,,,,,,,,,,,,,,,,,,,,,,,,,,,,,,,,,,,,,,,,,393.7026696999965,394.1022690999962,394.0871607000008,394.18660419998923,394.58675499999663,None,right,1,0.41969670000253245,394.58675499999663,None,394.0871607000008,394.18660419998923,394.18660419998923,None,395.03703209999367,None,,,,,,,11039,001,2024_Mar_13_1354,ANT,2021.2.3,60.20368109590457,
1,12,center,up,IC,R,,,,,,Block.xlsx,"你已经完成了整个实验（三个区组）。

请报告实验者已完成实验

非常感谢，再见！",0,50,1.5,right,LLRLL.png,,,,,0,1,1,1,2,23,71,11,,,,,,,,,,,,,,,,,,,,,,,,,,,,,,,,,,,,,,,,,,,,,,,,,,,,,,,,,,,,,,,,395.4373274999962,395.83906079998997,395.82183339999756,395.9221808000002,396.32385409998824,None,right,1,0.5943479999987176,396.32385409998824,None,395.82183339999756,395.9221808000002,395.9221808000002,None,396.93990199999826,None,,,,,,,11039,001,2024_Mar_13_1354,ANT,2021.2.3,60.20368109590457,
1,21,spatial,down,C,L,,,,,,Block.xlsx,"你已经完成了整个实验（三个区组）。

请报告实验者已完成实验

非常感谢，再见！",-1.5,0,-1.5,left,LLLLL.png,,,,,0,1,1,1,3,0,72,20,,,,,,,,,,,,,,,,,,,,,,,,,,,,,,,,,,,,,,,,,,,,,,,,,,,,,,,,,,,,,,,,397.3402222000004,397.74098129999766,397.7250272999954,397.8263154999877,398.22523919999367,None,left,1,0.39730080000299495,398.22523919999367,None,397.7250272999954,397.8263154999877,397.8263154999877,None,398.64260359999025,None,,,,,,,11039,001,2024_Mar_13_1354,ANT,2021.2.3,60.20368109590457,
1,9,center,up,C,L,,,,,,Block.xlsx,"你已经完成了整个实验（三个区组）。

请报告实验者已完成实验

非常感谢，再见！",0,50,1.5,left,LLLLL.png,,,,,0,1,1,1,3,1,73,8,,,,,,,,,,,,,,,,,,,,,,,,,,,,,,,,,,,,,,,,,,,,,,,,,,,,,,,,,,,,,,,,399.0427396999876,399.4434026999952,399.4276203999907,399.5270538999903,399.9286563999922,None,left,1,0.41378989999066107,399.9286563999922,None,399.4276203999907,399.5270538999903,399.5270538999903,None,400.36140429999796,None,,,,,,,11039,001,2024_Mar_13_1354,ANT,2021.2.3,60.20368109590457,
1,23,spatial,down,IC,L,,,,,,Block.xlsx,"你已经完成了整个实验（三个区组）。

请报告实验者已完成实验

非常感谢，再见！",-1.5,0,-1.5,left,RRLRR.png,,,,,0,1,1,1,3,2,74,22,,,,,,,,,,,,,,,,,,,,,,,,,,,,,,,,,,,,,,,,,,,,,,,,,,,,,,,,,,,,,,,,400.76218189999054,401.1637714999961,401.14672049999353,401.2472912999947,401.6484557999938,None,left,1,0.46196169999893755,401.6484557999938,None,401.14672049999353,401.2472912999947,401.2472912999947,None,402.1312479999906,None,,,,,,,11039,001,2024_Mar_13_1354,ANT,2021.2.3,60.20368109590457,
1,6,no,down,C,R,,,,,,Block.xlsx,"你已经完成了整个实验（三个区组）。

请报告实验者已完成实验

非常感谢，再见！",50,0,-1.5,right,RRRRR.png,,,,,0,1,1,1,3,3,75,5,,,,,,,,,,,,,,,,,,,,,,,,,,,,,,,,,,,,,,,,,,,,,,,,,,,,,,,,,,,,,,,,402.53134339999815,402.93353399999614,402.9153151999926,403.0160259999975,403.4174911999871,None,right,1,0.46887209999840707,403.4174911999871,None,402.9153151999926,403.0160259999975,403.0160259999975,None,403.91698909999104,None,,,,,,,11039,001,2024_Mar_13_1354,ANT,2021.2.3,60.20368109590457,
1,2,no,up,C,R,,,,,,Block.xlsx,"你已经完成了整个实验（三个区组）。

请报告实验者已完成实验

非常感谢，再见！",50,0,1.5,right,RRRRR.png,,,,,0,1,1,1,3,4,76,1,,,,,,,,,,,,,,,,,,,,,,,,,,,,,,,,,,,,,,,,,,,,,,,,,,,,,,,,,,,,,,,,404.3184149000008,404.7182373999967,404.7014990999887,404.8020569999935,405.2027248999948,None,right,1,0.45139950000157114,405.2027248999948,None,404.7014990999887,404.8020569999935,404.8020569999935,None,405.68651339999633,None,,,,,,,11039,001,2024_Mar_13_1354,ANT,2021.2.3,60.20368109590457,
1,11,center,up,IC,L,,,,,,Block.xlsx,"你已经完成了整个实验（三个区组）。

请报告实验者已完成实验

非常感谢，再见！",0,50,1.5,left,RRLRR.png,,,,,0,1,1,1,3,5,77,10,,,,,,,,,,,,,,,,,,,,,,,,,,,,,,,,,,,,,,,,,,,,,,,,,,,,,,,,,,,,,,,,406.08680529998674,406.4875835999992,406.47130389999074,406.57157989998814,406.97140079998644,None,left,1,0.5073531999951228,406.97140079998644,None,406.47130389999074,406.57157989998814,406.57157989998814,None,407.5057175999973,None,,,,,,,11039,001,2024_Mar_13_1354,ANT,2021.2.3,60.20368109590457,
1,18,spatial,up,C,R,,,,,,Block.xlsx,"你已经完成了整个实验（三个区组）。

请报告实验者已完成实验

非常感谢，再见！",1.5,0,1.5,right,RRRRR.png,,,,,0,1,1,1,3,6,78,17,,,,,,,,,,,,,,,,,,,,,,,,,,,,,,,,,,,,,,,,,,,,,,,,,,,,,,,,,,,,,,,,407.9063230999891,408.3077953999891,408.2916695999884,408.3912791999901,408.7929836999974,None,right,1,0.5817016000073636,408.7929836999974,None,408.2916695999884,408.3912791999901,408.3912791999901,None,409.39208379999036,None,,,,,,,11039,001,2024_Mar_13_1354,ANT,2021.2.3,60.20368109590457,
1,22,spatial,down,C,R,,,,,,Block.xlsx,"你已经完成了整个实验（三个区组）。

请报告实验者已完成实验

非常感谢，再见！",-1.5,0,-1.5,right,RRRRR.png,,,,,0,1,1,1,3,7,79,21,,,,,,,,,,,,,,,,,,,,,,,,,,,,,,,,,,,,,,,,,,,,,,,,,,,,,,,,,,,,,,,,409.7923357999971,410.1952118999907,410.1767974999966,410.27688169998873,410.67714069999056,None,right,1,0.5136151999904541,410.67714069999056,None,410.1767974999966,410.27688169998873,410.27688169998873,None,411.2112073999888,None,,,,,,,11039,001,2024_Mar_13_1354,ANT,2021.2.3,60.20368109590457,
1,22,spatial,down,C,R,,,,,,Block.xlsx,"你已经完成了整个实验（三个区组）。

请报告实验者已完成实验

非常感谢，再见！",-1.5,0,-1.5,right,RRRRR.png,,,,,0,1,1,1,3,8,80,21,,,,,,,,,,,,,,,,,,,,,,,,,,,,,,,,,,,,,,,,,,,,,,,,,,,,,,,,,,,,,,,,411.61183779999556,412.0129390999937,411.99785529999644,412.11393609999504,412.4976338999986,None,right,1,0.34969570000248495,412.4976338999986,None,411.99785529999644,412.11393609999504,412.0960054999887,None,412.8637832999957,None,,,,,,,11039,001,2024_Mar_13_1354,ANT,2021.2.3,60.20368109590457,
1,13,center,down,C,L,,,,,,Block.xlsx,"你已经完成了整个实验（三个区组）。

请报告实验者已完成实验

非常感谢，再见！",0,50,-1.5,left,LLLLL.png,,,,,0,1,1,1,3,9,81,12,,,,,,,,,,,,,,,,,,,,,,,,,,,,,,,,,,,,,,,,,,,,,,,,,,,,,,,,,,,,,,,,413.26432869999553,413.665004999988,413.6483628999995,413.74864159998833,414.1490696999972,None,left,1,0.48138299999118317,414.1490696999972,None,413.6483628999995,413.74864159998833,413.74864159998833,None,414.6495842000004,None,,,,,,,11039,001,2024_Mar_13_1354,ANT,2021.2.3,60.20368109590457,
1,16,center,down,IC,R,,,,,,Block.xlsx,"你已经完成了整个实验（三个区组）。

请报告实验者已完成实验

非常感谢，再见！",0,50,-1.5,right,LLRLL.png,,,,,0,1,1,1,3,10,82,15,,,,,,,,,,,,,,,,,,,,,,,,,,,,,,,,,,,,,,,,,,,,,,,,,,,,,,,,,,,,,,,,415.0501249999943,415.45177319999493,415.4347989999951,415.5360717000003,415.9359478999977,None,None,0,,415.9359478999977,None,415.4347989999951,415.5360717000003,415.5360717000003,None,417.63775689998874,None,,,,,,,11039,001,2024_Mar_13_1354,ANT,2021.2.3,60.20368109590457,
1,15,center,down,IC,L,,,,,,Block.xlsx,"你已经完成了整个实验（三个区组）。

请报告实验者已完成实验

非常感谢，再见！",0,50,-1.5,left,RRLRR.png,,,,,0,1,1,1,3,11,83,14,,,,,,,,,,,,,,,,,,,,,,,,,,,,,,,,,,,,,,,,,,,,,,,,,,,,,,,,,,,,,,,,418.0382380999945,418.4395366999961,418.4240606999956,418.5222211999935,418.92475559999,None,left,1,0.5464265000045998,418.92475559999,None,418.4240606999956,418.5222211999935,418.5222211999935,None,419.4904496999952,None,,,,,,,11039,001,2024_Mar_13_1354,ANT,2021.2.3,60.20368109590457,
1,19,spatial,up,IC,L,,,,,,Block.xlsx,"你已经完成了整个实验（三个区组）。

请报告实验者已完成实验

非常感谢，再见！",1.5,0,1.5,left,RRLRR.png,,,,,0,1,1,1,3,12,84,18,,,,,,,,,,,,,,,,,,,,,,,,,,,,,,,,,,,,,,,,,,,,,,,,,,,,,,,,,,,,,,,,419.8913232999912,420.29314349999186,420.27485349999915,420.3754870999983,420.7778424999997,None,left,1,0.48503599999821745,420.7778424999997,None,420.27485349999915,420.3754870999983,420.3754870999983,None,421.29301559999294,None,,,,,,,11039,001,2024_Mar_13_1354,ANT,2021.2.3,60.20368109590457,
1,21,spatial,down,C,L,,,,,,Block.xlsx,"你已经完成了整个实验（三个区组）。

请报告实验者已完成实验

非常感谢，再见！",-1.5,0,-1.5,left,LLLLL.png,,,,,0,1,1,1,3,13,85,20,,,,,,,,,,,,,,,,,,,,,,,,,,,,,,,,,,,,,,,,,,,,,,,,,,,,,,,,,,,,,,,,421.69369399998686,422.09445369998866,422.0783520999976,422.1791295999865,422.5796674999874,None,left,1,0.3791993999911938,422.5796674999874,None,422.0783520999976,422.1791295999865,422.1791295999865,None,422.97902039998735,None,,,,,,,11039,001,2024_Mar_13_1354,ANT,2021.2.3,60.20368109590457,
1,18,spatial,up,C,R,,,,,,Block.xlsx,"你已经完成了整个实验（三个区组）。

请报告实验者已完成实验

非常感谢，再见！",1.5,0,1.5,right,RRRRR.png,,,,,0,1,1,1,3,14,86,17,,,,,,,,,,,,,,,,,,,,,,,,,,,,,,,,,,,,,,,,,,,,,,,,,,,,,,,,,,,,,,,,423.3795286999957,423.78041789999406,423.7636452999868,423.864851499995,424.26462699999684,None,right,1,0.34219199999643024,424.26462699999684,None,423.7636452999868,423.864851499995,423.864851499995,None,424.63211979999323,None,,,,,,,11039,001,2024_Mar_13_1354,ANT,2021.2.3,60.20368109590457,
1,17,spatial,up,C,L,,,,,,Block.xlsx,"你已经完成了整个实验（三个区组）。

请报告实验者已完成实验

非常感谢，再见！",1.5,0,1.5,left,LLLLL.png,,,,,0,1,1,1,3,15,87,16,,,,,,,,,,,,,,,,,,,,,,,,,,,,,,,,,,,,,,,,,,,,,,,,,,,,,,,,,,,,,,,,425.0321578000003,425.43332509999163,425.4179551999987,425.53283029999875,425.9175205999927,None,left,1,0.36171129999274854,425.9175205999927,None,425.4179551999987,425.53283029999875,425.51617389998864,None,426.300749099988,None,,,,,,,11039,001,2024_Mar_13_1354,ANT,2021.2.3,60.20368109590457,
1,6,no,down,C,R,,,,,,Block.xlsx,"你已经完成了整个实验（三个区组）。

请报告实验者已完成实验

非常感谢，再见！",50,0,-1.5,right,RRRRR.png,,,,,0,1,1,1,3,16,88,5,,,,,,,,,,,,,,,,,,,,,,,,,,,,,,,,,,,,,,,,,,,,,,,,,,,,,,,,,,,,,,,,426.7012426000001,427.10231469999417,427.08631799998693,427.2033717999875,427.5859785999928,None,right,1,0.45274209999479353,427.5859785999928,None,427.08631799998693,427.2033717999875,427.1852865999972,None,428.0700783999928,None,,,,,,,11039,001,2024_Mar_13_1354,ANT,2021.2.3,60.20368109590457,
1,15,center,down,IC,L,,,,,,Block.xlsx,"你已经完成了整个实验（三个区组）。

请报告实验者已完成实验

非常感谢，再见！",0,50,-1.5,left,RRLRR.png,,,,,0,1,1,1,3,17,89,14,,,,,,,,,,,,,,,,,,,,,,,,,,,,,,,,,,,,,,,,,,,,,,,,,,,,,,,,,,,,,,,,428.4705157999997,428.87278739998874,428.8546626999887,428.9557433999871,429.3554565999948,None,left,1,0.5236436999985017,429.3554565999948,None,428.8546626999887,428.9557433999871,428.9557433999871,None,429.9059863000002,None,,,,,,,11039,001,2024_Mar_13_1354,ANT,2021.2.3,60.20368109590457,
1,22,spatial,down,C,R,,,,,,Block.xlsx,"你已经完成了整个实验（三个区组）。

请报告实验者已完成实验

非常感谢，再见！",-1.5,0,-1.5,right,RRRRR.png,,,,,0,1,1,1,3,18,90,21,,,,,,,,,,,,,,,,,,,,,,,,,,,,,,,,,,,,,,,,,,,,,,,,,,,,,,,,,,,,,,,,430.3065726999921,430.7076461999968,430.69130629999563,430.79150559999107,431.1919679999992,None,right,1,0.343303300003754,431.1919679999992,None,430.69130629999563,430.79150559999107,430.79150559999107,None,431.55850559999817,None,,,,,,,11039,001,2024_Mar_13_1354,ANT,2021.2.3,60.20368109590457,
1,19,spatial,up,IC,L,,,,,,Block.xlsx,"你已经完成了整个实验（三个区组）。

请报告实验者已完成实验

非常感谢，再见！",1.5,0,1.5,left,RRLRR.png,,,,,0,1,1,1,3,19,91,18,,,,,,,,,,,,,,,,,,,,,,,,,,,,,,,,,,,,,,,,,,,,,,,,,,,,,,,,,,,,,,,,431.95905029999267,432.3606427999912,432.3440008999896,432.4439499,432.84512889999314,None,left,1,0.40193760000693146,432.84512889999314,None,432.3440008999896,432.4439499,432.4439499,None,433.27783989999443,None,,,,,,,11039,001,2024_Mar_13_1354,ANT,2021.2.3,60.20368109590457,
1,5,no,down,C,L,,,,,,Block.xlsx,"你已经完成了整个实验（三个区组）。

请报告实验者已完成实验

