TrialType,TrialNumber,WarningType,TargetType,FlankerType,TargetDirection,W,f,Y,corr,imageFile,condition,endtext,Yw,Yf,Yt,Corr,imagefile,trials_3.thisRepN,trials_3.thisTrialN,trials_3.thisN,trials_3.thisIndex,trials_2.thisRepN,trials_2.thisTrialN,trials_2.thisN,trials_2.thisIndex,trials.thisRepN,trials.thisTrialN,trials.thisN,trials.thisIndex,instr.started,instr.stopped,key_resp.keys,key_resp.rt,key_resp.started,key_resp.stopped,image.started,image.stopped,key_resp_6.keys,key_resp_6.rt,key_resp_6.started,key_resp_6.stopped,EX_L.started,EX_L.stopped,AL.started,AL.stopped,key_resp_7.keys,key_resp_7.rt,key_resp_7.started,key_resp_7.stopped,EX_R.started,EX_R.stopped,RR.started,RR.stopped,key_resp_8.keys,key_resp_8.rt,key_resp_8.started,key_resp_8.stopped,image_2.started,image_2.stopped,key_resp_9.keys,key_resp_9.rt,key_resp_9.started,key_resp_9.stopped,image_3.started,image_3.stopped,key_resp_10.keys,key_resp_10.rt,key_resp_10.started,key_resp_10.stopped,fix.started,fix.stopped,war.started,war.stopped,tar.started,tar.stopped,key_resp_4.keys,key_resp_4.corr,key_resp_4.rt,key_resp_4.started,key_resp_4.stopped,fix2.started,fix2.stopped,fix_2.started,fix_2.stopped,Feedback.started,Feedback.stopped,key_resp_2.keys,key_resp_2.rt,key_resp_2.started,key_resp_2.stopped,text_5.started,text_5.stopped,fix2_1.started,fix2_1.stopped,Warn.started,Warn.stopped,Tar.started,Tar.stopped,key_resp_5.keys,key_resp_5.corr,key_resp_5.rt,key_resp_5.started,key_resp_5.stopped,Fix_2.started,Fix_2.stopped,fix2_2.started,fix2_2.stopped,text_4.started,text_4.stopped,key_resp_3.keys,key_resp_3.rt,key_resp_3.started,key_resp_3.stopped,text_3.started,text_3.stopped,participant,session,date,expName,psychopyVersion,frameRate,
,,,,,,,,,,,,,,,,,,,,,,,,,,,,,,9.232610000064597,None,space,2.7545129999052733,9.232610000064597,None,,,,,,,,,,,,,,,,,,,,,,,,,,,,,,,,,,,,,,,,,,,,,,,,,,,,,,,,,,,,,,,,,,,,,,,,,,,,,,,,,11045,001,2024_Apr_13_1116,ANT,2021.2.3,59.76818309934589,
,,,,,,,,,,,,,,,,,,,,,,,,,,,,,,,,,,,,12.003511100076139,None,space,1.8641004001256078,12.003511100076139,None,,,,,,,,,,,,,,,,,,,,,,,,,,,,,,,,,,,,,,,,,,,,,,,,,,,,,,,,,,,,,,,,,,,,,,,,,,,11045,001,2024_Apr_13_1116,ANT,2021.2.3,59.76818309934589,
,,,,,,,,,,,,,,,,,,,,,,,,,,,,,,,,,,,,,,,,,,13.889607100049034,None,13.889607100049034,None,left,6.089535499922931,13.889607100049034,None,,,,,,,,,,,,,,,,,,,,,,,,,,,,,,,,,,,,,,,,,,,,,,,,,,,,,,,,,,,,,,,,,,,11045,001,2024_Apr_13_1116,ANT,2021.2.3,59.76818309934589,
,,,,,,,,,,,,,,,,,,,,,,,,,,,,,,,,,,,,,,,,,,,,,,,,,,19.99900920013897,None,19.99900920013897,None,right,1.3803139000665396,19.99900920013897,None,,,,,,,,,,,,,,,,,,,,,,,,,,,,,,,,,,,,,,,,,,,,,,,,,,,,,,,,,,,11045,001,2024_Apr_13_1116,ANT,2021.2.3,59.76818309934589,
,,,,,,,,,,,,,,,,,,,,,,,,,,,,,,,,,,,,,,,,,,,,,,,,,,,,,,,,,,21.40079370001331,None,space,5.226542599964887,21.40079370001331,None,,,,,,,,,,,,,,,,,,,,,,,,,,,,,,,,,,,,,,,,,,,,,,,,,,,,,11045,001,2024_Apr_13_1116,ANT,2021.2.3,59.76818309934589,
,,,,,,,,,,,,,,,,,,,,,,,,,,,,,,,,,,,,,,,,,,,,,,,,,,,,,,,,,,,,,,,,26.658959000138566,None,space,10.657633900176734,26.658959000138566,None,,,,,,,,,,,,,,,,,,,,,,,,,,,,,,,,,,,,,,,,,,,,,,,11045,001,2024_Apr_13_1116,ANT,2021.2.3,59.76818309934589,
0,3,no,down,C,R,50,0,-1.5,right,RRRRR.png,,,,,,,,0,0,0,2,,,,,,,,,,,,,,,,,,,,,,,,,,,,,,,,,,,,,,,,,,,,,,,,,37.40843540010974,37.80976500012912,37.792293100152165,37.89402480004355,38.29299320001155,None,right,1,0.7909013999160379,38.29299320001155,None,37.792293100152165,37.89402480004355,37.89402480004355,None,39.128152900142595,None,,,,,,,,,,,,,,,,,,,,,,,,,,,,,,11045,001,2024_Apr_13_1116,ANT,2021.2.3,59.76818309934589,
0,12,spatial,down,IC,R,-1.5,0,-1.5,right,LLRLL.png,,,,,,,,0,1,1,11,,,,,,,,,,,,,,,,,,,,,,,,,,,,,,,,,,,,,,,,,,,,,,,,,41.13079770002514,41.53224980016239,41.51514210016467,41.61628760001622,42.01559330010787,None,right,1,0.6848415001295507,42.01559330010787,None,41.51514210016467,41.61628760001622,41.61628760001622,None,42.71639920002781,None,,,,,,,,,,,,,,,,,,,,,,,,,,,,,,11045,001,2024_Apr_13_1116,ANT,2021.2.3,59.76818309934589,
0,6,center,up,IC,R,0,50,1.5,right,LLRLL.png,,,,,,,,0,2,2,5,,,,,,,,,,,,,,,,,,,,,,,,,,,,,,,,,,,,,,,,,,,,,,,,,44.71934690000489,45.120635100174695,45.10356880002655,45.20446540019475,45.60573530010879,None,right,1,0.7499804000835866,45.60573530010879,None,45.10356880002655,45.20446540019475,45.20446540019475,None,46.371951000066474,None,,,,,,,,,,,,,,,,,,,,,,,,,,,,,,11045,001,2024_Apr_13_1116,ANT,2021.2.3,59.76818309934589,
0,9,spatial,up,C,R,1.5,0,1.5,right,RRRRR.png,,,,,,,,0,3,3,8,,,,,,,,,,,,,,,,,,,,,,,,,,,,,,,,,,,,,,,,,,,,,,,,,48.375286400085315,48.77717230003327,48.75945380004123,48.86063860007562,49.260119000216946,None,right,1,0.4959984999150038,49.260119000216946,None,48.75945380004123,48.86063860007562,48.86063860007562,None,49.7771672999952,None,,,,,,,,,,,,,,,,,,,,,,,,,,,,,,11045,001,2024_Apr_13_1116,ANT,2021.2.3,59.76818309934589,
0,7,center,down,C,R,0,50,-1.5,right,RRRRR.png,,,,,,,,0,4,4,6,,,,,,,,,,,,,,,,,,,,,,,,,,,,,,,,,,,,,,,,,,,,,,,,,51.78014810010791,52.18089270009659,52.164669200079516,52.26440630014986,52.66481770016253,None,right,1,0.5316200000233948,52.66481770016253,None,52.164669200079516,52.26440630014986,52.26440630014986,None,53.215700700180605,None,,,,,,,,,,,,,,,,,,,,,,,,,,,,,,11045,001,2024_Apr_13_1116,ANT,2021.2.3,59.76818309934589,
0,10,spatial,up,IC,L,1.5,0,1.5,left,RRLRR.png,,,,,,,,0,5,5,9,,,,,,,,,,,,,,,,,,,,,,,,,,,,,,,,,,,,,,,,,,,,,,,,,55.218842200003564,55.61931620002724,55.603205900173634,55.70392080000602,56.104593000141904,None,left,1,0.6194776000920683,56.104593000141904,None,55.603205900173634,55.70392080000602,55.70392080000602,None,56.754762100055814,None,,,,,,,,,,,,,,,,,,,,,,,,,,,,,,11045,001,2024_Apr_13_1116,ANT,2021.2.3,59.76818309934589,
0,4,no,down,IC,L,50,0,-1.5,left,RRLRR.png,,,,,,,,0,6,6,3,,,,,,,,,,,,,,,,,,,,,,,,,,,,,,,,,,,,,,,,,,,,,,,,,58.75736610009335,59.158842800185084,59.14136500004679,59.241333700018004,59.643794500036165,None,right,0,0.49652879987843335,59.643794500036165,None,59.14136500004679,59.241333700018004,59.241333700018004,None,60.15951880021021,None,,,,,,,,,,,,,,,,,,,,,,,,,,,,,,11045,001,2024_Apr_13_1116,ANT,2021.2.3,59.76818309934589,
0,2,no,up,IC,R,50,0,1.5,right,LLRLL.png,,,,,,,,0,7,7,1,,,,,,,,,,,,,,,,,,,,,,,,,,,,,,,,,,,,,,,,,,,,,,,,,62.162601000163704,62.56473630014807,62.54697050014511,62.646683500148356,63.048331500031054,None,right,1,0.6278782999143004,63.048331500031054,None,62.54697050014511,62.646683500148356,62.646683500148356,None,63.69814940006472,None,,,,,,,,,,,,,,,,,,,,,,,,,,,,,,11045,001,2024_Apr_13_1116,ANT,2021.2.3,59.76818309934589,
0,5,center,up,C,L,0,50,1.5,left,LLLLL.png,,,,,,,,0,8,8,4,,,,,,,,,,,,,,,,,,,,,,,,,,,,,,,,,,,,,,,,,,,,,,,,,65.70116679999046,66.10259140003473,66.08516250015236,66.1856719001662,66.58747100015171,None,left,1,0.5051943000871688,66.58747100015171,None,66.08516250015236,66.1856719001662,66.1856719001662,None,67.12019819999114,None,,,,,,,,,,,,,,,,,,,,,,,,,,,,,,11045,001,2024_Apr_13_1116,ANT,2021.2.3,59.76818309934589,
0,1,no,up,C,L,50,0,1.5,left,LLLLL.png,,,,,,,,0,9,9,0,,,,,,,,,,,,,,,,,,,,,,,,,,,,,,,,,,,,,,,,,,,,,,,,,69.12305150018074,69.5246904999949,69.50693090003915,69.60718520008959,70.00786710018292,None,left,1,0.5805799001827836,70.00786710018292,None,69.50693090003915,69.60718520008959,69.60718520008959,None,70.6086294001434,None,,,,,,,,,,,,,,,,,,,,,,,,,,,,,,11045,001,2024_Apr_13_1116,ANT,2021.2.3,59.76818309934589,
0,11,spatial,down,C,L,-1.5,0,-1.5,left,LLLLL.png,,,,,,,,0,10,10,10,,,,,,,,,,,,,,,,,,,,,,,,,,,,,,,,,,,,,,,,,,,,,,,,,72.6115615000017,73.01217340002768,72.995828300016,73.09669920010492,73.49850030010566,None,left,1,0.43389969994314015,73.49850030010566,None,72.995828300016,73.09669920010492,73.09669920010492,None,73.9637015000917,None,,,,,,,,,,,,,,,,,,,,,,,,,,,,,,11045,001,2024_Apr_13_1116,ANT,2021.2.3,59.76818309934589,
0,8,center,down,IC,L,0,50,-1.5,left,RRLRR.png,,,,,,,,0,11,11,7,,,,,,,,,,,,,,,,,,,,,,,,,,,,,,,,,,,,,,,,,,,,,,,,,75.96677600010298,76.36736920010298,76.35057200002484,76.45396860013716,76.85127010010183,None,left,1,0.5053270999342203,76.85127010010183,None,76.35057200002484,76.45396860013716,76.45396860013716,None,77.38581390003674,None,,,,,,,,,,,,,,,,,,,,,,,,,,,,,,11045,001,2024_Apr_13_1116,ANT,2021.2.3,59.76818309934589,
,,,,,,,,,,,,,,,,,,,,,,,,,,,,,,,,,,,,,,,,,,,,,,,,,,,,,,,,,,,,,,,,,,,,,,,,,,,,,,,,,,,,,,,space,5.825169199844822,79.38853910006583,None,,,,,,,,,,,,,,,,,,,,,,,,,,11045,001,2024_Apr_13_1116,ANT,2021.2.3,59.76818309934589,
1,11,center,up,IC,L,,,,,,Block.xlsx,"你已经完成了第一个实验区组

请稍作休息


点击空格键进入下一个区组。",0,50,1.5,left,RRLRR.png,,,,,0,0,0,0,0,0,0,10,,,,,,,,,,,,,,,,,,,,,,,,,,,,,,,,,,,,,,,,,,,,,,,,,,,,,,,,,,,,,,79.38853910006583,None,85.26610070001334,85.68167010019533,85.64805430010892,85.7486001001671,86.14907849999145,None,left,1,0.6080720999743789,86.14907849999145,None,85.64805430010892,85.7486001001671,85.7486001001671,None,86.78312570019625,None,,,,,,,11045,001,2024_Apr_13_1116,ANT,2021.2.3,59.76818309934589,
1,6,no,down,C,R,,,,,,Block.xlsx,"你已经完成了第一个实验区组

请稍作休息


点击空格键进入下一个区组。",50,0,-1.5,right,RRRRR.png,,,,,0,0,0,0,0,1,1,5,,,,,,,,,,,,,,,,,,,,,,,,,,,,,,,,,,,,,,,,,,,,,,,,,,,,,,,,,,,,,,,,87.18377200001851,87.58494680002332,87.56766310008243,87.66862180014141,88.06972410017624,None,right,1,0.4794024999719113,88.06972410017624,None,87.56766310008243,87.66862180014141,87.66862180014141,None,88.56902520009317,None,,,,,,,11045,001,2024_Apr_13_1116,ANT,2021.2.3,59.76818309934589,
1,1,no,up,C,L,,,,,,Block.xlsx,"你已经完成了第一个实验区组

请稍作休息


点击空格键进入下一个区组。",50,0,1.5,left,LLLLL.png,,,,,0,0,0,0,0,2,2,0,,,,,,,,,,,,,,,,,,,,,,,,,,,,,,,,,,,,,,,,,,,,,,,,,,,,,,,,,,,,,,,,88.96965520014055,89.37076880014502,89.35535610001534,89.45508179999888,89.85439300001599,None,left,1,0.5027280999347568,89.85439300001599,None,89.35535610001534,89.45508179999888,89.45508179999888,None,90.37168890004978,None,,,,,,,11045,001,2024_Apr_13_1116,ANT,2021.2.3,59.76818309934589,
1,9,center,up,C,L,,,,,,Block.xlsx,"你已经完成了第一个实验区组

请稍作休息


点击空格键进入下一个区组。",0,50,1.5,left,LLLLL.png,,,,,0,0,0,0,0,3,3,8,,,,,,,,,,,,,,,,,,,,,,,,,,,,,,,,,,,,,,,,,,,,,,,,,,,,,,,,,,,,,,,,90.77242210018449,91.17354420013726,91.15682919998653,91.25678070005961,91.65795370005071,None,left,1,0.5713042002171278,91.65795370005071,None,91.15682919998653,91.25678070005961,91.25678070005961,None,92.25787630002014,None,,,,,,,11045,001,2024_Apr_13_1116,ANT,2021.2.3,59.76818309934589,
1,21,spatial,down,C,L,,,,,,Block.xlsx,"你已经完成了第一个实验区组

请稍作休息


点击空格键进入下一个区组。",-1.5,0,-1.5,left,LLLLL.png,,,,,0,0,0,0,0,4,4,20,,,,,,,,,,,,,,,,,,,,,,,,,,,,,,,,,,,,,,,,,,,,,,,,,,,,,,,,,,,,,,,,92.65887000015937,93.05926770018414,93.04382590018213,93.16000650008209,93.54516239999793,None,left,1,0.5564564999658614,93.54516239999793,None,93.04382590018213,93.16000650008209,93.1437145001255,None,94.12780800019391,None,,,,,,,11045,001,2024_Apr_13_1116,ANT,2021.2.3,59.76818309934589,
1,23,spatial,down,IC,L,,,,,,Block.xlsx,"你已经完成了第一个实验区组

请稍作休息


点击空格键进入下一个区组。",-1.5,0,-1.5,left,RRLRR.png,,,,,0,0,0,0,0,5,5,22,,,,,,,,,,,,,,,,,,,,,,,,,,,,,,,,,,,,,,,,,,,,,,,,,,,,,,,,,,,,,,,,94.52881400007755,94.9289561000187,94.91238970006816,95.01211000001058,95.41414160002023,None,left,1,0.5037347001489252,95.41414160002023,None,94.91238970006816,95.01211000001058,95.01211000001058,None,95.94692160002887,None,,,,,,,11045,001,2024_Apr_13_1116,ANT,2021.2.3,59.76818309934589,
1,12,center,up,IC,R,,,,,,Block.xlsx,"你已经完成了第一个实验区组

请稍作休息


点击空格键进入下一个区组。",0,50,1.5,right,LLRLL.png,,,,,0,0,0,0,0,6,6,11,,,,,,,,,,,,,,,,,,,,,,,,,,,,,,,,,,,,,,,,,,,,,,,,,,,,,,,,,,,,,,,,96.34811710007489,96.74831779999658,96.7314062002115,96.8321234001778,97.23238820000552,None,right,1,0.6127883000299335,97.23238820000552,None,96.7314062002115,96.8321234001778,96.8321234001778,None,97.86648010020144,None,,,,,,,11045,001,2024_Apr_13_1116,ANT,2021.2.3,59.76818309934589,
1,6,no,down,C,R,,,,,,Block.xlsx,"你已经完成了第一个实验区组

请稍作休息


点击空格键进入下一个区组。",50,0,-1.5,right,RRRRR.png,,,,,0,0,0,0,0,7,7,5,,,,,,,,,,,,,,,,,,,,,,,,,,,,,,,,,,,,,,,,,,,,,,,,,,,,,,,,,,,,,,,,98.26700840005651,98.66889430000447,98.65083130006678,98.75277630006894,99.1517417000141,None,right,1,0.49419539980590343,99.1517417000141,None,98.65083130006678,98.75277630006894,98.75277630006894,None,99.66915270010941,None,,,,,,,11045,001,2024_Apr_13_1116,ANT,2021.2.3,59.76818309934589,
1,6,no,down,C,R,,,,,,Block.xlsx,"你已经完成了第一个实验区组

请稍作休息


点击空格键进入下一个区组。",50,0,-1.5,right,RRRRR.png,,,,,0,0,0,0,0,8,8,5,,,,,,,,,,,,,,,,,,,,,,,,,,,,,,,,,,,,,,,,,,,,,,,,,,,,,,,,,,,,,,,,100.06978930020705,100.47080210014246,100.45357750006951,100.55389890004881,100.95503529999405,None,right,1,0.46689620008692145,100.95503529999405,None,100.45357750006951,100.55389890004881,100.55389890004881,None,101.43836230016313,None,,,,,,,11045,001,2024_Apr_13_1116,ANT,2021.2.3,59.76818309934589,
1,11,center,up,IC,L,,,,,,Block.xlsx,"你已经完成了第一个实验区组

请稍作休息


点击空格键进入下一个区组。",0,50,1.5,left,RRLRR.png,,,,,0,0,0,0,0,9,9,10,,,,,,,,,,,,,,,,,,,,,,,,,,,,,,,,,,,,,,,,,,,,,,,,,,,,,,,,,,,,,,,,101.83914050017484,102.2409154002089,102.22353740013205,102.32455740007572,102.72406660020351,None,left,1,0.5532243000343442,102.72406660020351,None,102.22353740013205,102.32455740007572,102.32455740007572,None,103.30803559999913,None,,,,,,,11045,001,2024_Apr_13_1116,ANT,2021.2.3,59.76818309934589,
1,15,center,down,IC,L,,,,,,Block.xlsx,"你已经完成了第一个实验区组

请稍作休息


点击空格键进入下一个区组。",0,50,-1.5,left,RRLRR.png,,,,,0,0,0,0,0,10,10,14,,,,,,,,,,,,,,,,,,,,,,,,,,,,,,,,,,,,,,,,,,,,,,,,,,,,,,,,,,,,,,,,103.70864100009203,104.1102450999897,104.09263980016112,104.19327020016499,104.59319750010036,None,left,1,0.7564333998598158,104.59319750010036,None,104.09263980016112,104.19327020016499,104.19327020016499,None,105.37819529999979,None,,,,,,,11045,001,2024_Apr_13_1116,ANT,2021.2.3,59.76818309934589,
1,13,center,down,C,L,,,,,,Block.xlsx,"你已经完成了第一个实验区组

请稍作休息


点击空格键进入下一个区组。",0,50,-1.5,left,LLLLL.png,,,,,0,0,0,0,0,11,11,12,,,,,,,,,,,,,,,,,,,,,,,,,,,,,,,,,,,,,,,,,,,,,,,,,,,,,,,,,,,,,,,,105.77849040017463,106.18017440009862,106.16351950005628,106.26312840008177,106.66411000001244,None,left,1,0.49366119992919266,106.66411000001244,None,106.16351950005628,106.26312840008177,106.26312840008177,None,107.18053760007024,None,,,,,,,11045,001,2024_Apr_13_1116,ANT,2021.2.3,59.76818309934589,
1,3,no,up,IC,L,,,,,,Block.xlsx,"你已经完成了第一个实验区组

请稍作休息


点击空格键进入下一个区组。",50,0,1.5,left,RRLRR.png,,,,,0,0,0,0,0,12,12,2,,,,,,,,,,,,,,,,,,,,,,,,,,,,,,,,,,,,,,,,,,,,,,,,,,,,,,,,,,,,,,,,107.58122320007533,107.98269630013965,107.96499380003661,108.06798570021056,108.46571640018374,None,left,1,0.6761078999843448,108.46571640018374,None,107.96499380003661,108.06798570021056,108.06798570021056,None,109.16699660010636,None,,,,,,,11045,001,2024_Apr_13_1116,ANT,2021.2.3,59.76818309934589,
1,8,no,down,IC,R,,,,,,Block.xlsx,"你已经完成了第一个实验区组

请稍作休息


点击空格键进入下一个区组。",50,0,-1.5,right,LLRLL.png,,,,,0,0,0,0,0,13,13,7,,,,,,,,,,,,,,,,,,,,,,,,,,,,,,,,,,,,,,,,,,,,,,,,,,,,,,,,,,,,,,,,109.5675139001105,109.96874230005778,109.95134590007365,110.0513950001914,110.45327890012413,None,right,1,0.5446949999313802,110.45327890012413,None,109.95134590007365,110.0513950001914,110.0513950001914,None,111.01964190020226,None,,,,,,,11045,001,2024_Apr_13_1116,ANT,2021.2.3,59.76818309934589,
1,5,no,down,C,L,,,,,,Block.xlsx,"你已经完成了第一个实验区组

请稍作休息


点击空格键进入下一个区组。",50,0,-1.5,left,LLLLL.png,,,,,0,0,0,0,0,14,14,4,,,,,,,,,,,,,,,,,,,,,,,,,,,,,,,,,,,,,,,,,,,,,,,,,,,,,,,,,,,,,,,,111.42021870007738,111.82099320017733,111.80419450020418,111.905972200213,112.3058459002059,None,left,1,0.5803275001235306,112.3058459002059,None,111.80419450020418,111.905972200213,111.905972200213,None,112.90591299999505,None,,,,,,,11045,001,2024_Apr_13_1116,ANT,2021.2.3,59.76818309934589,
1,1,no,up,C,L,,,,,,Block.xlsx,"你已经完成了第一个实验区组

请稍作休息


点击空格键进入下一个区组。",50,0,1.5,left,LLLLL.png,,,,,0,0,0,0,0,15,15,0,,,,,,,,,,,,,,,,,,,,,,,,,,,,,,,,,,,,,,,,,,,,,,,,,,,,,,,,,,,,,,,,113.30624680011533,113.70698510017246,113.69038320006803,113.79068310000002,114.19146990007721,None,left,1,0.5101631998550147,114.19146990007721,None,113.69038320006803,113.79068310000002,113.79068310000002,None,114.72531810007058,None,,,,,,,11045,001,2024_Apr_13_1116,ANT,2021.2.3,59.76818309934589,
1,16,center,down,IC,R,,,,,,Block.xlsx,"你已经完成了第一个实验区组

请稍作休息


点击空格键进入下一个区组。",0,50,-1.5,right,LLRLL.png,,,,,0,0,0,0,0,16,16,15,,,,,,,,,,,,,,,,,,,,,,,,,,,,,,,,,,,,,,,,,,,,,,,,,,,,,,,,,,,,,,,,115.12557460018434,115.527415700024,115.50969430012628,115.60992240021005,116.01047570002265,None,right,1,0.49156230012886226,116.01047570002265,None,115.50969430012628,115.60992240021005,115.60992240021005,None,116.52793029998429,None,,,,,,,11045,001,2024_Apr_13_1116,ANT,2021.2.3,59.76818309934589,
1,11,center,up,IC,L,,,,,,Block.xlsx,"你已经完成了第一个实验区组

请稍作休息


点击空格键进入下一个区组。",0,50,1.5,left,RRLRR.png,,,,,0,0,0,0,0,17,17,10,,,,,,,,,,,,,,,,,,,,,,,,,,,,,,,,,,,,,,,,,,,,,,,,,,,,,,,,,,,,,,,,116.9286123001948,117.33068430004641,117.31281790020876,117.41284200013615,117.8132977001369,None,left,1,0.5607688000891358,117.8132977001369,None,117.31281790020876,117.41284200013615,117.41284200013615,None,118.3975017000921,None,,,,,,,11045,001,2024_Apr_13_1116,ANT,2021.2.3,59.76818309934589,
1,19,spatial,up,IC,L,,,,,,Block.xlsx,"你已经完成了第一个实验区组

请稍作休息


点击空格键进入下一个区组。",1.5,0,1.5,left,RRLRR.png,,,,,0,0,0,0,0,18,18,18,,,,,,,,,,,,,,,,,,,,,,,,,,,,,,,,,,,,,,,,,,,,,,,,,,,,,,,,,,,,,,,,118.79867910011671,119.1997655001469,119.18189080012962,119.28209230001085,119.68272280017845,None,left,1,0.5632369001396,119.68272280017845,None,119.18189080012962,119.28209230001085,119.28209230001085,None,120.26703900005668,None,,,,,,,11045,001,2024_Apr_13_1116,ANT,2021.2.3,59.76818309934589,
1,12,center,up,IC,R,,,,,,Block.xlsx,"你已经完成了第一个实验区组

请稍作休息


点击空格键进入下一个区组。",0,50,1.5,right,LLRLL.png,,,,,0,0,0,0,0,19,19,11,,,,,,,,,,,,,,,,,,,,,,,,,,,,,,,,,,,,,,,,,,,,,,,,,,,,,,,,,,,,,,,,120.6674511001911,121.06806700001471,121.05163470003754,121.15201409999281,121.55241890018806,None,right,1,0.49423170019872487,121.55241890018806,None,121.05163470003754,121.15201409999281,121.15201409999281,None,122.06976840016432,None,,,,,,,11045,001,2024_Apr_13_1116,ANT,2021.2.3,59.76818309934589,
1,10,center,up,C,R,,,,,,Block.xlsx,"你已经完成了第一个实验区组

请稍作休息


点击空格键进入下一个区组。",0,50,1.5,right,RRRRR.png,,,,,0,0,0,0,0,20,20,9,,,,,,,,,,,,,,,,,,,,,,,,,,,,,,,,,,,,,,,,,,,,,,,,,,,,,,,,,,,,,,,,122.4703518000897,122.87289160001092,122.85402520000935,122.95473410002887,123.3549764000345,None,right,1,0.4273081000428647,123.3549764000345,None,122.85402520000935,122.95473410002887,122.95473410002887,None,123.80561150005087,None,,,,,,,11045,001,2024_Apr_13_1116,ANT,2021.2.3,59.76818309934589,
1,8,no,down,IC,R,,,,,,Block.xlsx,"你已经完成了第一个实验区组

请稍作休息


点击空格键进入下一个区组。",50,0,-1.5,right,LLRLL.png,,,,,0,0,0,0,0,21,21,7,,,,,,,,,,,,,,,,,,,,,,,,,,,,,,,,,,,,,,,,,,,,,,,,,,,,,,,,,,,,,,,,124.20669500017539,124.60759780020453,124.59025540016592,124.69138370011933,125.09106270014308,None,right,1,0.6112587000243366,125.09106270014308,None,124.59025540016592,124.69138370011933,124.69138370011933,None,125.72516890009865,None,,,,,,,11045,001,2024_Apr_13_1116,ANT,2021.2.3,59.76818309934589,
1,23,spatial,down,IC,L,,,,,,Block.xlsx,"你已经完成了第一个实验区组

请稍作休息


点击空格键进入下一个区组。",-1.5,0,-1.5,left,RRLRR.png,,,,,0,0,0,0,0,22,22,22,,,,,,,,,,,,,,,,,,,,,,,,,,,,,,,,,,,,,,,,,,,,,,,,,,,,,,,,,,,,,,,,126.12588190007955,126.52663430012763,126.51258149999194,126.62853940017521,127.01150590018369,None,left,1,0.4748818001244217,127.01150590018369,None,126.51258149999194,126.62853940017521,126.61065870011225,None,127.51115320017561,None,,,,,,,11045,001,2024_Apr_13_1116,ANT,2021.2.3,59.76818309934589,
1,4,no,up,IC,R,,,,,,Block.xlsx,"你已经完成了第一个实验区组

请稍作休息


点击空格键进入下一个区组。",50,0,1.5,right,LLRLL.png,,,,,0,0,0,0,0,23,23,3,,,,,,,,,,,,,,,,,,,,,,,,,,,,,,,,,,,,,,,,,,,,,,,,,,,,,,,,,,,,,,,,127.91204190021381,128.31359800021164,128.29571700002998,128.3970231001731,128.7977177000139,None,right,1,0.7124920000787824,128.7977177000139,None,128.29571700002998,128.3970231001731,128.3970231001731,None,129.53095849999227,None,,,,,,,11045,001,2024_Apr_13_1116,ANT,2021.2.3,59.76818309934589,
1,24,spatial,down,IC,R,,,,,,Block.xlsx,"你已经完成了第一个实验区组

请稍作休息


点击空格键进入下一个区组。",-1.5,0,-1.5,right,LLRLL.png,,,,,0,0,0,0,1,0,24,23,,,,,,,,,,,,,,,,,,,,,,,,,,,,,,,,,,,,,,,,,,,,,,,,,,,,,,,,,,,,,,,,129.93158860015683,130.33321040007286,130.31624540011398,130.41625720006414,130.8162777000107,None,right,1,0.5422066000755876,130.8162777000107,None,130.31624540011398,130.41625720006414,130.41625720006414,None,131.3843494001776,None,,,,,,,11045,001,2024_Apr_13_1116,ANT,2021.2.3,59.76818309934589,
1,21,spatial,down,C,L,,,,,,Block.xlsx,"你已经完成了第一个实验区组

请稍作休息


点击空格键进入下一个区组。",-1.5,0,-1.5,left,LLLLL.png,,,,,0,0,0,0,1,1,25,20,,,,,,,,,,,,,,,,,,,,,,,,,,,,,,,,,,,,,,,,,,,,,,,,,,,,,,,,,,,,,,,,131.78473190008663,132.1847899002023,132.16902130004019,132.26883620000444,132.67033080011606,None,left,1,0.44789090007543564,132.67033080011606,None,132.16902130004019,132.26883620000444,132.26883620000444,None,133.13638520007953,None,,,,,,,11045,001,2024_Apr_13_1116,ANT,2021.2.3,59.76818309934589,
1,14,center,down,C,R,,,,,,Block.xlsx,"你已经完成了第一个实验区组

请稍作休息


点击空格键进入下一个区组。",0,50,-1.5,right,RRRRR.png,,,,,0,0,0,0,1,2,26,13,,,,,,,,,,,,,,,,,,,,,,,,,,,,,,,,,,,,,,,,,,,,,,,,,,,,,,,,,,,,,,,,133.53704890003428,133.9375456001144,133.9225027000066,134.0389619001653,134.42159930011258,None,right,1,0.5294415999669582,134.42159930011258,None,133.9225027000066,134.0389619001653,134.02097150008194,None,134.97238060017116,None,,,,,,,11045,001,2024_Apr_13_1116,ANT,2021.2.3,59.76818309934589,
1,2,no,up,C,R,,,,,,Block.xlsx,"你已经完成了第一个实验区组

请稍作休息


点击空格键进入下一个区组。",50,0,1.5,right,RRRRR.png,,,,,0,0,0,0,1,3,27,1,,,,,,,,,,,,,,,,,,,,,,,,,,,,,,,,,,,,,,,,,,,,,,,,,,,,,,,,,,,,,,,,135.3733072001487,135.7743348001968,135.75808930001222,135.85829340014607,136.25787550001405,None,right,1,0.6044014000799507,136.25787550001405,None,135.75808930001222,135.85829340014607,135.85829340014607,None,136.89200570015237,None,,,,,,,11045,001,2024_Apr_13_1116,ANT,2021.2.3,59.76818309934589,
1,15,center,down,IC,L,,,,,,Block.xlsx,"你已经完成了第一个实验区组

请稍作休息


点击空格键进入下一个区组。",0,50,-1.5,left,RRLRR.png,,,,,0,0,0,0,1,4,28,14,,,,,,,,,,,,,,,,,,,,,,,,,,,,,,,,,,,,,,,,,,,,,,,,,,,,,,,,,,,,,,,,137.2926914000418,137.6945239000488,137.6766739001032,137.77824470004998,138.17836860008538,None,left,1,0.476316099986434,138.17836860008538,None,137.6766739001032,137.77824470004998,137.77824470004998,None,138.6780759000685,None,,,,,,,11045,001,2024_Apr_13_1116,ANT,2021.2.3,59.76818309934589,
1,12,center,up,IC,R,,,,,,Block.xlsx,"你已经完成了第一个实验区组

请稍作休息


点击空格键进入下一个区组。",0,50,1.5,right,LLRLL.png,,,,,0,0,0,0,1,5,29,11,,,,,,,,,,,,,,,,,,,,,,,,,,,,,,,,,,,,,,,,,,,,,,,,,,,,,,,,,,,,,,,,139.07871230016463,139.47931490000337,139.4630205000285,139.56479410012253,139.96337960008532,None,right,1,0.6994294000323862,139.96337960008532,None,139.4630205000285,139.56479410012253,139.56479410012253,None,140.68112329998985,None,,,,,,,11045,001,2024_Apr_13_1116,ANT,2021.2.3,59.76818309934589,
1,13,center,down,C,L,,,,,,Block.xlsx,"你已经完成了第一个实验区组

请稍作休息


点击空格键进入下一个区组。",0,50,-1.5,left,LLLLL.png,,,,,0,0,0,0,1,6,30,12,,,,,,,,,,,,,,,,,,,,,,,,,,,,,,,,,,,,,,,,,,,,,,,,,,,,,,,,,,,,,,,,141.08197970013134,141.4822645999957,141.46576430019923,141.56561799999326,141.96651579998434,None,left,1,0.48113099997863173,141.96651579998434,None,141.46576430019923,141.56561799999326,141.56561799999326,None,142.46700280020013,None,,,,,,,11045,001,2024_Apr_13_1116,ANT,2021.2.3,59.76818309934589,
1,18,spatial,up,C,R,,,,,,Block.xlsx,"你已经完成了第一个实验区组

请稍作休息


点击空格键进入下一个区组。",1.5,0,1.5,right,RRRRR.png,,,,,0,0,0,0,1,7,31,17,,,,,,,,,,,,,,,,,,,,,,,,,,,,,,,,,,,,,,,,,,,,,,,,,,,,,,,,,,,,,,,,142.86755560012534,143.2696431002114,143.25184000004083,143.35259870020673,143.75229500001296,None,right,1,0.47852680017240345,143.75229500001296,None,143.25184000004083,143.35259870020673,143.35259870020673,None,144.25351640000008,None,,,,,,,11045,001,2024_Apr_13_1116,ANT,2021.2.3,59.76818309934589,
1,17,spatial,up,C,L,,,,,,Block.xlsx,"你已经完成了第一个实验区组

请稍作休息


点击空格键进入下一个区组。",1.5,0,1.5,left,LLLLL.png,,,,,0,0,0,0,1,8,32,16,,,,,,,,,,,,,,,,,,,,,,,,,,,,,,,,,,,,,,,,,,,,,,,,,,,,,,,,,,,,,,,,144.6535945001524,145.05529789999127,145.03750750003383,145.13777990010567,145.53953490010463,None,left,1,0.475421599810943,145.53953490010463,None,145.03750750003383,145.13777990010567,145.13777990010567,None,146.03946550004184,None,,,,,,,11045,001,2024_Apr_13_1116,ANT,2021.2.3,59.76818309934589,
1,20,spatial,up,IC,R,,,,,,Block.xlsx,"你已经完成了第一个实验区组

请稍作休息


点击空格键进入下一个区组。",1.5,0,1.5,right,LLRLL.png,,,,,0,0,0,0,1,9,33,19,,,,,,,,,,,,,,,,,,,,,,,,,,,,,,,,,,,,,,,,,,,,,,,,,,,,,,,,,,,,,,,,146.43977830000222,146.84074940020218,146.82415970019065,146.9242709001992,147.32625870010816,None,right,1,0.6006485000252724,147.32625870010816,None,146.82415970019065,146.9242709001992,146.9242709001992,None,147.94180150004104,None,,,,,,,11045,001,2024_Apr_13_1116,ANT,2021.2.3,59.76818309934589,
1,19,spatial,up,IC,L,,,,,,Block.xlsx,"你已经完成了第一个实验区组

请稍作休息


点击空格键进入下一个区组。",1.5,0,1.5,left,RRLRR.png,,,,,0,0,0,0,1,10,34,18,,,,,,,,,,,,,,,,,,,,,,,,,,,,,,,,,,,,,,,,,,,,,,,,,,,,,,,,,,,,,,,,148.34247750020586,148.74351780000143,148.72867570002563,148.82738780020736,149.22838950017467,None,left,1,0.4349293000996113,149.22838950017467,None,148.72867570002563,148.82738780020736,148.82738780020736,None,149.67784330016002,None,,,,,,,11045,001,2024_Apr_13_1116,ANT,2021.2.3,59.76818309934589,
1,20,spatial,up,IC,R,,,,,,Block.xlsx,"你已经完成了第一个实验区组

请稍作休息


点击空格键进入下一个区组。",1.5,0,1.5,right,LLRLL.png,,,,,0,0,0,0,1,11,35,19,,,,,,,,,,,,,,,,,,,,,,,,,,,,,,,,,,,,,,,,,,,,,,,,,,,,,,,,,,,,,,,,150.07851790008135,150.4793273000978,150.4629697999917,150.56305380002595,150.9632555001881,None,right,1,0.4996046999003738,150.9632555001881,None,150.4629697999917,150.56305380002595,150.56305380002595,None,151.4806046001613,None,,,,,,,11045,001,2024_Apr_13_1116,ANT,2021.2.3,59.76818309934589,
1,7,no,down,IC,L,,,,,,Block.xlsx,"你已经完成了第一个实验区组

请稍作休息


点击空格键进入下一个区组。",50,0,-1.5,left,RRLRR.png,,,,,0,0,0,0,1,12,36,6,,,,,,,,,,,,,,,,,,,,,,,,,,,,,,,,,,,,,,,,,,,,,,,,,,,,,,,,,,,,,,,,151.88139670016244,152.2834078001324,152.26543680019677,152.3664701001253,152.7668612000998,None,left,1,0.6161300998646766,152.7668612000998,None,152.26543680019677,152.3664701001253,152.3664701001253,None,153.40030410001054,None,,,,,,,11045,001,2024_Apr_13_1116,ANT,2021.2.3,59.76818309934589,
1,14,center,down,C,R,,,,,,Block.xlsx,"你已经完成了第一个实验区组

请稍作休息


点击空格键进入下一个区组。",0,50,-1.5,right,RRRRR.png,,,,,0,0,0,0,1,13,37,13,,,,,,,,,,,,,,,,,,,,,,,,,,,,,,,,,,,,,,,,,,,,,,,,,,,,,,,,,,,,,,,,153.80090560019016,154.20256190001965,154.18484510015696,154.28491120017134,154.68620140012354,None,right,1,0.5366414999589324,154.68620140012354,None,154.18484510015696,154.28491120017134,154.28491120017134,None,155.2534439000301,None,,,,,,,11045,001,2024_Apr_13_1116,ANT,2021.2.3,59.76818309934589,
1,7,no,down,IC,L,,,,,,Block.xlsx,"你已经完成了第一个实验区组

请稍作休息


点击空格键进入下一个区组。",50,0,-1.5,left,RRLRR.png,,,,,0,0,0,0,1,14,38,6,,,,,,,,,,,,,,,,,,,,,,,,,,,,,,,,,,,,,,,,,,,,,,,,,,,,,,,,,,,,,,,,155.65377770015039,156.0541354001034,156.03765720012598,156.13814890012145,156.53844889998436,None,left,1,0.5244674999266863,156.53844889998436,None,156.03765720012598,156.13814890012145,156.13814890012145,None,157.08924050000496,None,,,,,,,11045,001,2024_Apr_13_1116,ANT,2021.2.3,59.76818309934589,
1,23,spatial,down,IC,L,,,,,,Block.xlsx,"你已经完成了第一个实验区组

请稍作休息


点击空格键进入下一个区组。",-1.5,0,-1.5,left,RRLRR.png,,,,,0,0,0,0,1,15,39,22,,,,,,,,,,,,,,,,,,,,,,,,,,,,,,,,,,,,,,,,,,,,,,,,,,,,,,,,,,,,,,,,157.4898564000614,157.89098380017094,157.87503270013258,157.97388920001686,158.37557770009153,None,left,1,0.5120465001091361,158.37557770009153,None,157.87503270013258,157.97388920001686,157.97388920001686,None,158.90860790014267,None,,,,,,,11045,001,2024_Apr_13_1116,ANT,2021.2.3,59.76818309934589,
1,13,center,down,C,L,,,,,,Block.xlsx,"你已经完成了第一个实验区组

请稍作休息


点击空格键进入下一个区组。",0,50,-1.5,left,LLLLL.png,,,,,0,0,0,0,1,16,40,12,,,,,,,,,,,,,,,,,,,,,,,,,,,,,,,,,,,,,,,,,,,,,,,,,,,,,,,,,,,,,,,,159.31004880019464,159.7095443001017,159.69394210004248,159.79360299999826,160.19386040000245,None,left,1,0.4300172000657767,160.19386040000245,None,159.69394210004248,159.79360299999826,159.79360299999826,None,160.64473550021648,None,,,,,,,11045,001,2024_Apr_13_1116,ANT,2021.2.3,59.76818309934589,
1,3,no,up,IC,L,,,,,,Block.xlsx,"你已经完成了第一个实验区组

请稍作休息


点击空格键进入下一个区组。",50,0,1.5,left,RRLRR.png,,,,,0,0,0,0,1,17,41,2,,,,,,,,,,,,,,,,,,,,,,,,,,,,,,,,,,,,,,,,,,,,,,,,,,,,,,,,,,,,,,,,161.0452044000849,161.44567390019074,161.43059530016035,161.54589680000208,161.92971440008841,None,left,1,0.7015438999515027,161.92971440008841,None,161.43059530016035,161.54589680000208,161.53008820000105,None,162.6474476000294,None,,,,,,,11045,001,2024_Apr_13_1116,ANT,2021.2.3,59.76818309934589,
1,17,spatial,up,C,L,,,,,,Block.xlsx,"你已经完成了第一个实验区组

请稍作休息


点击空格键进入下一个区组。",1.5,0,1.5,left,LLLLL.png,,,,,0,0,0,0,1,18,42,16,,,,,,,,,,,,,,,,,,,,,,,,,,,,,,,,,,,,,,,,,,,,,,,,,,,,,,,,,,,,,,,,163.0482158001978,163.44902460020967,163.43217540020123,163.53232050011866,163.93279940006323,None,left,1,0.6346814997959882,163.93279940006323,None,163.43217540020123,163.53232050011866,163.53232050011866,None,164.58432160015218,None,,,,,,,11045,001,2024_Apr_13_1116,ANT,2021.2.3,59.76818309934589,
1,2,no,up,C,R,,,,,,Block.xlsx,"你已经完成了第一个实验区组

请稍作休息


点击空格键进入下一个区组。",50,0,1.5,right,RRRRR.png,,,,,0,0,0,0,1,19,43,1,,,,,,,,,,,,,,,,,,,,,,,,,,,,,,,,,,,,,,,,,,,,,,,,,,,,,,,,,,,,,,,,164.98454309999943,165.3860417001415,165.36843960010447,165.46838239999488,165.86907250015065,None,right,1,0.6984274000860751,165.86907250015065,None,165.36843960010447,165.46838239999488,165.46838239999488,None,166.58726730011404,None,,,,,,,11045,001,2024_Apr_13_1116,ANT,2021.2.3,59.76818309934589,
1,14,center,down,C,R,,,,,,Block.xlsx,"你已经完成了第一个实验区组

请稍作休息


点击空格键进入下一个区组。",0,50,-1.5,right,RRRRR.png,,,,,0,0,0,0,1,20,44,13,,,,,,,,,,,,,,,,,,,,,,,,,,,,,,,,,,,,,,,,,,,,,,,,,,,,,,,,,,,,,,,,166.98786380002275,167.3878530000802,167.37337919999845,167.48820090014488,167.8737506000325,None,right,1,0.5337570998817682,167.8737506000325,None,167.37337919999845,167.48820090014488,167.47236940008588,None,168.4228763000574,None,,,,,,,11045,001,2024_Apr_13_1116,ANT,2021.2.3,59.76818309934589,
1,22,spatial,down,C,R,,,,,,Block.xlsx,"你已经完成了第一个实验区组

请稍作休息


点击空格键进入下一个区组。",-1.5,0,-1.5,right,RRRRR.png,,,,,0,0,0,0,1,21,45,21,,,,,,,,,,,,,,,,,,,,,,,,,,,,,,,,,,,,,,,,,,,,,,,,,,,,,,,,,,,,,,,,168.82355790003203,169.2253173000645,169.20848710020073,169.3089803000912,169.71072970004752,None,right,1,0.47247739997692406,169.71072970004752,None,169.20848710020073,169.3089803000912,169.3089803000912,None,170.20937520009466,None,,,,,,,11045,001,2024_Apr_13_1116,ANT,2021.2.3,59.76818309934589,
1,13,center,down,C,L,,,,,,Block.xlsx,"你已经完成了第一个实验区组

请稍作休息


点击空格键进入下一个区组。",0,50,-1.5,left,LLLLL.png,,,,,0,0,0,0,1,22,46,12,,,,,,,,,,,,,,,,,,,,,,,,,,,,,,,,,,,,,,,,,,,,,,,,,,,,,,,,,,,,,,,,170.60969469998963,171.01021500001661,170.99600100005046,171.11163260019384,171.495259599993,None,left,1,0.5040853000245988,171.495259599993,None,170.99600100005046,171.11163260019384,171.09357430017553,None,172.02843910013326,None,,,,,,,11045,001,2024_Apr_13_1116,ANT,2021.2.3,59.76818309934589,
1,21,spatial,down,C,L,,,,,,Block.xlsx,"你已经完成了第一个实验区组

请稍作休息


点击空格键进入下一个区组。",-1.5,0,-1.5,left,LLLLL.png,,,,,0,0,0,0,1,23,47,20,,,,,,,,,,,,,,,,,,,,,,,,,,,,,,,,,,,,,,,,,,,,,,,,,,,,,,,,,,,,,,,,172.42940080002882,172.83126820018515,172.8129619001411,172.91379240015522,173.31512100016698,None,left,1,0.4682373001705855,173.31512100016698,None,172.8129619001411,172.91379240015522,172.91379240015522,None,173.81452730018646,None,,,,,,,11045,001,2024_Apr_13_1116,ANT,2021.2.3,59.76818309934589,
1,15,center,down,IC,L,,,,,,Block.xlsx,"你已经完成了第一个实验区组

请稍作休息


点击空格键进入下一个区组。",0,50,-1.5,left,RRLRR.png,,,,,0,0,0,0,2,0,48,14,,,,,,,,,,,,,,,,,,,,,,,,,,,,,,,,,,,,,,,,,,,,,,,,,,,,,,,,,,,,,,,,174.21479350002483,174.61586510017514,174.59924160013907,174.6999904999975,175.09974380000494,None,left,1,0.8038335999008268,175.09974380000494,None,174.59924160013907,174.6999904999975,174.6999904999975,None,175.93421180010773,None,,,,,,,11045,001,2024_Apr_13_1116,ANT,2021.2.3,59.76818309934589,
1,20,spatial,up,IC,R,,,,,,Block.xlsx,"你已经完成了第一个实验区组

请稍作休息


点击空格键进入下一个区组。",1.5,0,1.5,right,LLRLL.png,,,,,0,0,0,0,2,1,49,19,,,,,,,,,,,,,,,,,,,,,,,,,,,,,,,,,,,,,,,,,,,,,,,,,,,,,,,,,,,,,,,,176.3356817001477,176.73556820000522,176.71931420010515,176.82042650016956,177.2211440000683,None,right,1,0.5067237999755889,177.2211440000683,None,176.71931420010515,176.82042650016956,176.82042650016956,None,177.75357940001413,None,,,,,,,11045,001,2024_Apr_13_1116,ANT,2021.2.3,59.76818309934589,
1,3,no,up,IC,L,,,,,,Block.xlsx,"你已经完成了第一个实验区组

请稍作休息


点击空格键进入下一个区组。",50,0,1.5,left,RRLRR.png,,,,,0,0,0,0,2,2,50,2,,,,,,,,,,,,,,,,,,,,,,,,,,,,,,,,,,,,,,,,,,,,,,,,,,,,,,,,,,,,,,,,178.15421780012548,178.55498290015385,178.5408089000266,178.6551189001184,179.04057820001617,None,left,1,0.5998903999570757,179.04057820001617,None,178.5408089000266,178.6551189001184,178.64028220018372,None,179.65692620002665,None,,,,,,,11045,001,2024_Apr_13_1116,ANT,2021.2.3,59.76818309934589,
1,10,center,up,C,R,,,,,,Block.xlsx,"你已经完成了第一个实验区组

请稍作休息


点击空格键进入下一个区组。",0,50,1.5,right,RRRRR.png,,,,,0,0,0,0,2,3,51,9,,,,,,,,,,,,,,,,,,,,,,,,,,,,,,,,,,,,,,,,,,,,,,,,,,,,,,,,,,,,,,,,180.05760579998605,180.45784960011952,180.44233210012317,180.55882939998992,180.94190360000357,None,right,1,0.45026600011624396,180.94190360000357,None,180.44233210012317,180.55882939998992,180.5426120001357,None,181.40904680010863,None,,,,,,,11045,001,2024_Apr_13_1116,ANT,2021.2.3,59.76818309934589,
1,24,spatial,down,IC,R,,,,,,Block.xlsx,"你已经完成了第一个实验区组

请稍作休息


点击空格键进入下一个区组。",-1.5,0,-1.5,right,LLRLL.png,,,,,0,0,0,0,2,4,52,23,,,,,,,,,,,,,,,,,,,,,,,,,,,,,,,,,,,,,,,,,,,,,,,,,,,,,,,,,,,,,,,,181.80982550000772,182.21139790001325,182.1960391001776,182.31236560014077,182.69453940005042,None,right,1,0.6895892999600619,182.69453940005042,None,182.1960391001776,182.31236560014077,182.2939699999988,None,183.41244490002282,None,,,,,,,11045,001,2024_Apr_13_1116,ANT,2021.2.3,59.76818309934589,
1,2,no,up,C,R,,,,,,Block.xlsx,"你已经完成了第一个实验区组

请稍作休息


点击空格键进入下一个区组。",50,0,1.5,right,RRRRR.png,,,,,0,0,0,0,2,5,53,1,,,,,,,,,,,,,,,,,,,,,,,,,,,,,,,,,,,,,,,,,,,,,,,,,,,,,,,,,,,,,,,,183.81292730011046,184.2134316000156,184.1991122001782,184.31469540018588,184.69888929999433,None,right,1,0.5728188001085073,184.69888929999433,None,184.1991122001782,184.31469540018588,184.29706450016238,None,185.29837530013174,None,,,,,,,11045,001,2024_Apr_13_1116,ANT,2021.2.3,59.76818309934589,
1,24,spatial,down,IC,R,,,,,,Block.xlsx,"你已经完成了第一个实验区组

请稍作休息


点击空格键进入下一个区组。",-1.5,0,-1.5,right,LLRLL.png,,,,,0,0,0,0,2,6,54,23,,,,,,,,,,,,,,,,,,,,,,,,,,,,,,,,,,,,,,,,,,,,,,,,,,,,,,,,,,,,,,,,185.69905540021136,186.09979090001434,186.08375590015203,186.18407000019215,186.58536900021136,None,right,1,0.5343268001452088,186.58536900021136,None,186.08375590015203,186.18407000019215,186.18407000019215,None,187.13452900014818,None,,,,,,,11045,001,2024_Apr_13_1116,ANT,2021.2.3,59.76818309934589,
1,19,spatial,up,IC,L,,,,,,Block.xlsx,"你已经完成了第一个实验区组

请稍作休息


点击空格键进入下一个区组。",1.5,0,1.5,left,RRLRR.png,,,,,0,0,0,0,2,7,55,18,,,,,,,,,,,,,,,,,,,,,,,,,,,,,,,,,,,,,,,,,,,,,,,,,,,,,,,,,,,,,,,,187.53562490013428,187.93588990019634,187.91915780003183,188.01984780002385,188.42177830007859,None,left,1,0.490324700018391,188.42177830007859,None,187.91915780003183,188.01984780002385,188.01984780002385,None,188.93765440001152,None,,,,,,,11045,001,2024_Apr_13_1116,ANT,2021.2.3,59.76818309934589,
1,16,center,down,IC,R,,,,,,Block.xlsx,"你已经完成了第一个实验区组

请稍作休息


点击空格键进入下一个区组。",0,50,-1.5,right,LLRLL.png,,,,,0,0,0,0,2,8,56,15,,,,,,,,,,,,,,,,,,,,,,,,,,,,,,,,,,,,,,,,,,,,,,,,,,,,,,,,,,,,,,,,189.33781340019777,189.73858200013638,189.7235730001703,189.8384126999881,190.22258070018142,None,right,1,0.5219910000450909,190.22258070018142,None,189.7235730001703,189.8384126999881,189.82282880018465,None,190.77351810014807,None,,,,,,,11045,001,2024_Apr_13_1116,ANT,2021.2.3,59.76818309934589,
1,12,center,up,IC,R,,,,,,Block.xlsx,"你已经完成了第一个实验区组

请稍作休息


点击空格键进入下一个区组。",0,50,1.5,right,LLRLL.png,,,,,0,0,0,0,2,9,57,11,,,,,,,,,,,,,,,,,,,,,,,,,,,,,,,,,,,,,,,,,,,,,,,,,,,,,,,,,,,,,,,,191.1739487000741,191.57536760019138,191.56036490015686,191.67667580000125,192.0600223999936,None,right,1,0.8127196999266744,192.0600223999936,None,191.56036490015686,191.67667580000125,191.65817640000023,None,192.89311620010994,None,,,,,,,11045,001,2024_Apr_13_1116,ANT,2021.2.3,59.76818309934589,
1,18,spatial,up,C,R,,,,,,Block.xlsx,"你已经完成了第一个实验区组

请稍作休息


点击空格键进入下一个区组。",1.5,0,1.5,right,RRRRR.png,,,,,0,0,0,0,2,10,58,17,,,,,,,,,,,,,,,,,,,,,,,,,,,,,,,,,,,,,,,,,,,,,,,,,,,,,,,,,,,,,,,,193.29384810011834,193.69438470015302,193.6787466001697,193.77860020007938,194.17887160019018,None,right,1,0.4372068999800831,194.17887160019018,None,193.6787466001697,193.77860020007938,193.77860020007938,None,194.6460870001465,None,,,,,,,11045,001,2024_Apr_13_1116,ANT,2021.2.3,59.76818309934589,
1,11,center,up,IC,L,,,,,,Block.xlsx,"你已经完成了第一个实验区组

请稍作休息


点击空格键进入下一个区组。",0,50,1.5,left,RRLRR.png,,,,,0,0,0,0,2,11,59,10,,,,,,,,,,,,,,,,,,,,,,,,,,,,,,,,,,,,,,,,,,,,,,,,,,,,,,,,,,,,,,,,195.04691909998655,195.44713730015792,195.4308541000355,195.53104450018145,195.9318104002159,None,left,1,0.4763899000827223,195.9318104002159,None,195.4308541000355,195.53104450018145,195.53104450018145,None,196.43208920001052,None,,,,,,,11045,001,2024_Apr_13_1116,ANT,2021.2.3,59.76818309934589,
1,1,no,up,C,L,,,,,,Block.xlsx,"你已经完成了第一个实验区组

请稍作休息


点击空格键进入下一个区组。",50,0,1.5,left,LLLLL.png,,,,,0,0,0,0,2,12,60,0,,,,,,,,,,,,,,,,,,,,,,,,,,,,,,,,,,,,,,,,,,,,,,,,,,,,,,,,,,,,,,,,196.83251060009934,197.23317150003277,197.21682310011238,197.31777120009065,197.71777240000665,None,left,1,0.427057099994272,197.71777240000665,None,197.21682310011238,197.31777120009065,197.31777120009065,None,198.16795490006916,None,,,,,,,11045,001,2024_Apr_13_1116,ANT,2021.2.3,59.76818309934589,
1,20,spatial,up,IC,R,,,,,,Block.xlsx,"你已经完成了第一个实验区组

请稍作休息


点击空格键进入下一个区组。",1.5,0,1.5,right,LLRLL.png,,,,,0,0,0,0,2,13,61,19,,,,,,,,,,,,,,,,,,,,,,,,,,,,,,,,,,,,,,,,,,,,,,,,,,,,,,,,,,,,,,,,198.56845690007322,198.97008100012317,198.95223600021563,199.05415980005637,199.45322810020298,None,right,1,0.46762949996627867,199.45322810020298,None,198.95223600021563,199.05415980005637,199.05415980005637,None,199.93744340003468,None,,,,,,,11045,001,2024_Apr_13_1116,ANT,2021.2.3,59.76818309934589,
1,19,spatial,up,IC,L,,,,,,Block.xlsx,"你已经完成了第一个实验区组

请稍作休息


点击空格键进入下一个区组。",1.5,0,1.5,left,RRLRR.png,,,,,0,0,0,0,2,14,62,18,,,,,,,,,,,,,,,,,,,,,,,,,,,,,,,,,,,,,,,,,,,,,,,,,,,,,,,,,,,,,,,,200.33823720016517,200.73940890002996,200.7217254000716,200.82231850014068,201.22345670009963,None,left,1,0.47314750007353723,201.22345670009963,None,200.7217254000716,200.82231850014068,200.82231850014068,None,201.72354999999516,None,,,,,,,11045,001,2024_Apr_13_1116,ANT,2021.2.3,59.76818309934589,
1,9,center,up,C,L,,,,,,Block.xlsx,"你已经完成了第一个实验区组

请稍作休息


点击空格键进入下一个区组。",0,50,1.5,left,LLLLL.png,,,,,0,0,0,0,2,15,63,8,,,,,,,,,,,,,,,,,,,,,,,,,,,,,,,,,,,,,,,,,,,,,,,,,,,,,,,,,,,,,,,,202.12376550002955,202.52507230010815,202.50775060011074,202.60798840015195,203.00865500001237,None,left,1,0.4480679000262171,203.00865500001237,None,202.50775060011074,202.60798840015195,202.60798840015195,None,203.47595570003614,None,,,,,,,11045,001,2024_Apr_13_1116,ANT,2021.2.3,59.76818309934589,
1,22,spatial,down,C,R,,,,,,Block.xlsx,"你已经完成了第一个实验区组

请稍作休息


点击空格键进入下一个区组。",-1.5,0,-1.5,right,RRRRR.png,,,,,0,0,0,0,2,16,64,21,,,,,,,,,,,,,,,,,,,,,,,,,,,,,,,,,,,,,,,,,,,,,,,,,,,,,,,,,,,,,,,,203.87629610020667,204.27719820011407,204.26071760011837,204.36192490020767,204.76255380013026,None,right,1,0.46208119997754693,204.76255380013026,None,204.26071760011837,204.36192490020767,204.36192490020767,None,205.24520780006424,None,,,,,,,11045,001,2024_Apr_13_1116,ANT,2021.2.3,59.76818309934589,
1,5,no,down,C,L,,,,,,Block.xlsx,"你已经完成了第一个实验区组

请稍作休息


点击空格键进入下一个区组。",50,0,-1.5,left,LLLLL.png,,,,,0,0,0,0,2,17,65,4,,,,,,,,,,,,,,,,,,,,,,,,,,,,,,,,,,,,,,,,,,,,,,,,,,,,,,,,,,,,,,,,205.64589860010892,206.04872510000132,206.0299877000507,206.13113220012747,206.53180430014618,None,left,1,0.5648644000757486,206.53180430014618,None,206.0299877000507,206.13113220012747,206.13113220012747,None,207.11501980014145,None,,,,,,,11045,001,2024_Apr_13_1116,ANT,2021.2.3,59.76818309934589,
1,4,no,up,IC,R,,,,,,Block.xlsx,"你已经完成了第一个实验区组

请稍作休息


点击空格键进入下一个区组。",50,0,1.5,right,LLRLL.png,,,,,0,0,0,0,2,18,66,3,,,,,,,,,,,,,,,,,,,,,,,,,,,,,,,,,,,,,,,,,,,,,,,,,,,,,,,,,,,,,,,,207.51536960015073,207.91612400021404,207.90000170003623,207.99943229998462,208.39995800005272,None,right,1,0.617032099980861,208.39995800005272,None,207.90000170003623,207.99943229998462,207.99943229998462,None,209.03422770020552,None,,,,,,,11045,001,2024_Apr_13_1116,ANT,2021.2.3,59.76818309934589,
1,1,no,up,C,L,,,,,,Block.xlsx,"你已经完成了第一个实验区组

请稍作休息


点击空格键进入下一个区组。",50,0,1.5,left,LLLLL.png,,,,,0,0,0,0,2,19,67,0,,,,,,,,,,,,,,,,,,,,,,,,,,,,,,,,,,,,,,,,,,,,,,,,,,,,,,,,,,,,,,,,209.43487700005062,209.83560960018076,209.81888130004518,209.91977900010534,210.32079780008644,None,left,1,0.584139599930495,210.32079780008644,None,209.81888130004518,209.91977900010534,209.91977900010534,None,210.92034770012833,None,,,,,,,11045,001,2024_Apr_13_1116,ANT,2021.2.3,59.76818309934589,
1,16,center,down,IC,R,,,,,,Block.xlsx,"你已经完成了第一个实验区组

请稍作休息


点击空格键进入下一个区组。",0,50,-1.5,right,LLRLL.png,,,,,0,0,0,0,2,20,68,15,,,,,,,,,,,,,,,,,,,,,,,,,,,,,,,,,,,,,,,,,,,,,,,,,,,,,,,,,,,,,,,,211.32091340003535,211.72175770020112,211.70507330005057,211.80733090010472,212.2072600000538,None,right,1,0.5775822000578046,212.2072600000538,None,211.70507330005057,211.80733090010472,211.80733090010472,None,212.80665919999592,None,,,,,,,11045,001,2024_Apr_13_1116,ANT,2021.2.3,59.76818309934589,
1,18,spatial,up,C,R,,,,,,Block.xlsx,"你已经完成了第一个实验区组

请稍作休息


点击空格键进入下一个区组。",1.5,0,1.5,right,RRRRR.png,,,,,0,0,0,0,2,21,69,17,,,,,,,,,,,,,,,,,,,,,,,,,,,,,,,,,,,,,,,,,,,,,,,,,,,,,,,,,,,,,,,,213.20730410004035,213.60794970020652,213.59204280003905,213.69170160009526,214.09208370000124,None,right,1,0.421656500082463,214.09208370000124,None,213.59204280003905,213.69170160009526,213.69170160009526,None,214.54257930000313,None,,,,,,,11045,001,2024_Apr_13_1116,ANT,2021.2.3,59.76818309934589,
1,14,center,down,C,R,,,,,,Block.xlsx,"你已经完成了第一个实验区组

请稍作休息


点击空格键进入下一个区组。",0,50,-1.5,right,RRRRR.png,,,,,0,0,0,0,2,22,70,13,,,,,,,,,,,,,,,,,,,,,,,,,,,,,,,,,,,,,,,,,,,,,,,,,,,,,,,,,,,,,,,,214.94333220017143,215.34397889999673,215.32896420010366,215.42734060017392,215.82788330013864,None,right,1,0.4931506998836994,215.82788330013864,None,215.32896420010366,215.42734060017392,215.42734060017392,None,216.3453840999864,None,,,,,,,11045,001,2024_Apr_13_1116,ANT,2021.2.3,59.76818309934589,
1,21,spatial,down,C,L,,,,,,Block.xlsx,"你已经完成了第一个实验区组

请稍作休息


点击空格键进入下一个区组。",-1.5,0,-1.5,left,LLLLL.png,,,,,0,0,0,0,2,23,71,20,,,,,,,,,,,,,,,,,,,,,,,,,,,,,,,,,,,,,,,,,,,,,,,,,,,,,,,,,,,,,,,,216.74599820002913,217.14695590012707,217.1296121000778,217.23142500012182,217.63082110020332,None,left,1,0.48221529996953905,217.63082110020332,None,217.1296121000778,217.23142500012182,217.23142500012182,None,218.13167530018836,None,,,,,,,11045,001,2024_Apr_13_1116,ANT,2021.2.3,59.76818309934589,
1,10,center,up,C,R,,,,,,Block.xlsx,"你已经完成了第一个实验区组

请稍作休息


点击空格键进入下一个区组。",0,50,1.5,right,RRRRR.png,,,,,0,0,0,0,3,0,72,9,,,,,,,,,,,,,,,,,,,,,,,,,,,,,,,,,,,,,,,,,,,,,,,,,,,,,,,,,,,,,,,,218.53261280013248,218.93255410017446,218.915933100041,219.01733559998684,219.41723480005749,None,right,1,0.48790600011125207,219.41723480005749,None,218.915933100041,219.01733559998684,219.01733559998684,None,219.93399780010805,None,,,,,,,11045,001,2024_Apr_13_1116,ANT,2021.2.3,59.76818309934589,
1,22,spatial,down,C,R,,,,,,Block.xlsx,"你已经完成了第一个实验区组

请稍作休息


点击空格键进入下一个区组。",-1.5,0,-1.5,right,RRRRR.png,,,,,0,0,0,0,3,1,73,21,,,,,,,,,,,,,,,,,,,,,,,,,,,,,,,,,,,,,,,,,,,,,,,,,,,,,,,,,,,,,,,,220.3346506000962,220.73565490008332,220.7185591000598,220.81889130012132,221.21942210011184,None,right,1,0.42965899989940226,221.21942210011184,None,220.7185591000598,220.81889130012132,220.81889130012132,None,221.6700280001387,None,,,,,,,11045,001,2024_Apr_13_1116,ANT,2021.2.3,59.76818309934589,
1,17,spatial,up,C,L,,,,,,Block.xlsx,"你已经完成了第一个实验区组

请稍作休息


点击空格键进入下一个区组。",1.5,0,1.5,left,LLLLL.png,,,,,0,0,0,0,3,2,74,16,,,,,,,,,,,,,,,,,,,,,,,,,,,,,,,,,,,,,,,,,,,,,,,,,,,,,,,,,,,,,,,,222.07039410015568,222.47148609999567,222.45637710019946,222.55462890001945,222.95537120010704,None,left,1,0.38193259993568063,222.95537120010704,None,222.45637710019946,222.55462890001945,222.55462890001945,None,223.35575089999475,None,,,,,,,11045,001,2024_Apr_13_1116,ANT,2021.2.3,59.76818309934589,
1,3,no,up,IC,L,,,,,,Block.xlsx,"你已经完成了第一个实验区组

请稍作休息


点击空格键进入下一个区组。",50,0,1.5,left,RRLRR.png,,,,,0,0,0,0,3,3,75,2,,,,,,,,,,,,,,,,,,,,,,,,,,,,,,,,,,,,,,,,,,,,,,,,,,,,,,,,,,,,,,,,223.75669960002415,224.1577224000357,224.14047980005853,224.24154880014248,224.64103450020775,None,left,1,0.6567324998322874,224.64103450020775,None,224.14047980005853,224.24154880014248,224.24154880014248,None,225.32597170001827,None,,,,,,,11045,001,2024_Apr_13_1116,ANT,2021.2.3,59.76818309934589,
1,9,center,up,C,L,,,,,,Block.xlsx,"你已经完成了第一个实验区组

请稍作休息


点击空格键进入下一个区组。",0,50,1.5,left,LLLLL.png,,,,,0,0,0,0,3,4,76,8,,,,,,,,,,,,,,,,,,,,,,,,,,,,,,,,,,,,,,,,,,,,,,,,,,,,,,,,,,,,,,,,225.72612460004166,226.1267498000525,226.10987590020522,226.21187820006162,226.61192110017873,None,left,1,0.5331596001051366,226.61192110017873,None,226.10987590020522,226.21187820006162,226.21187820006162,None,227.1617361002136,None,,,,,,,11045,001,2024_Apr_13_1116,ANT,2021.2.3,59.76818309934589,
1,2,no,up,C,R,,,,,,Block.xlsx,"你已经完成了第一个实验区组

请稍作休息


点击空格键进入下一个区组。",50,0,1.5,right,RRRRR.png,,,,,0,0,0,0,3,5,77,1,,,,,,,,,,,,,,,,,,,,,,,,,,,,,,,,,,,,,,,,,,,,,,,,,,,,,,,,,,,,,,,,227.5624822000973,227.96356220007874,227.94605030003004,228.04665320017375,228.447721300181,None,right,1,0.46552049997262657,228.447721300181,None,227.94605030003004,228.04665320017375,228.04665320017375,None,228.93212170014158,None,,,,,,,11045,001,2024_Apr_13_1116,ANT,2021.2.3,59.76818309934589,
1,24,spatial,down,IC,R,,,,,,Block.xlsx,"你已经完成了第一个实验区组

请稍作休息


点击空格键进入下一个区组。",-1.5,0,-1.5,right,LLRLL.png,,,,,0,0,0,0,3,6,78,23,,,,,,,,,,,,,,,,,,,,,,,,,,,,,,,,,,,,,,,,,,,,,,,,,,,,,,,,,,,,,,,,229.33192950021476,229.7318871000316,229.7154676001519,229.8156684001442,230.21619100007229,None,right,1,0.60914870002307,230.21619100007229,None,229.7154676001519,229.8156684001442,229.8156684001442,None,230.85057920007966,None,,,,,,,11045,001,2024_Apr_13_1116,ANT,2021.2.3,59.76818309934589,
1,18,spatial,up,C,R,,,,,,Block.xlsx,"你已经完成了第一个实验区组

请稍作休息


点击空格键进入下一个区组。",1.5,0,1.5,right,RRRRR.png,,,,,0,0,0,0,3,7,79,17,,,,,,,,,,,,,,,,,,,,,,,,,,,,,,,,,,,,,,,,,,,,,,,,,,,,,,,,,,,,,,,,231.25155180017464,231.65297650010325,231.63500800007023,231.73523750016466,232.13694820017554,None,right,1,0.45656559988856316,232.13694820017554,None,231.63500800007023,231.73523750016466,231.73523750016466,None,232.61984609998763,None,,,,,,,11045,001,2024_Apr_13_1116,ANT,2021.2.3,59.76818309934589,
1,4,no,up,IC,R,,,,,,Block.xlsx,"你已经完成了第一个实验区组

请稍作休息


点击空格键进入下一个区组。",50,0,1.5,right,LLRLL.png,,,,,0,0,0,0,3,8,80,3,,,,,,,,,,,,,,,,,,,,,,,,,,,,,,,,,,,,,,,,,,,,,,,,,,,,,,,,,,,,,,,,233.02045070007443,233.42108630016446,233.40499760000966,233.5056501000654,233.90507730003446,None,right,1,0.5284370000008494,233.90507730003446,None,233.40499760000966,233.5056501000654,233.5056501000654,None,234.45626550004818,None,,,,,,,11045,001,2024_Apr_13_1116,ANT,2021.2.3,59.76818309934589,
1,8,no,down,IC,R,,,,,,Block.xlsx,"你已经完成了第一个实验区组

请稍作休息


点击空格键进入下一个区组。",50,0,-1.5,right,LLRLL.png,,,,,0,0,0,0,3,9,81,7,,,,,,,,,,,,,,,,,,,,,,,,,,,,,,,,,,,,,,,,,,,,,,,,,,,,,,,,,,,,,,,,234.8566657002084,235.25699780019931,235.24089330015704,235.3407356000971,235.74256170005538,None,right,1,0.6990149999037385,235.74256170005538,None,235.24089330015704,235.3407356000971,235.3407356000971,None,236.4588915000204,None,,,,,,,11045,001,2024_Apr_13_1116,ANT,2021.2.3,59.76818309934589,
1,9,center,up,C,L,,,,,,Block.xlsx,"你已经完成了第一个实验区组

请稍作休息


点击空格键进入下一个区组。",0,50,1.5,left,LLLLL.png,,,,,0,0,0,0,3,10,82,8,,,,,,,,,,,,,,,,,,,,,,,,,,,,,,,,,,,,,,,,,,,,,,,,,,,,,,,,,,,,,,,,236.85957900015637,237.26030370010994,237.24397680000402,237.34390199999325,237.7447166000493,None,left,1,0.5288223999086767,237.7447166000493,None,237.24397680000402,237.34390199999325,237.34390199999325,None,238.29509800020605,None,,,,,,,11045,001,2024_Apr_13_1116,ANT,2021.2.3,59.76818309934589,
1,5,no,down,C,L,,,,,,Block.xlsx,"你已经完成了第一个实验区组

请稍作休息


点击空格键进入下一个区组。",50,0,-1.5,left,LLLLL.png,,,,,0,0,0,0,3,11,83,4,,,,,,,,,,,,,,,,,,,,,,,,,,,,,,,,,,,,,,,,,,,,,,,,,,,,,,,,,,,,,,,,238.69639630010352,239.09727190015838,239.08013240015134,239.1797491000034,239.58053580019623,None,left,1,0.6847884999588132,239.58053580019623,None,239.08013240015134,239.1797491000034,239.1797491000034,None,240.2813715999946,None,,,,,,,11045,001,2024_Apr_13_1116,ANT,2021.2.3,59.76818309934589,
1,22,spatial,down,C,R,,,,,,Block.xlsx,"你已经完成了第一个实验区组

请稍作休息


点击空格键进入下一个区组。",-1.5,0,-1.5,right,RRRRR.png,,,,,0,0,0,0,3,12,84,21,,,,,,,,,,,,,,,,,,,,,,,,,,,,,,,,,,,,,,,,,,,,,,,,,,,,,,,,,,,,,,,,240.68202030006796,241.08261790010147,241.0676206999924,241.18267910019495,241.56697880011052,None,right,1,0.4515349001158029,241.56697880011052,None,241.0676206999924,241.18267910019495,241.1672906000167,None,242.03416800010018,None,,,,,,,11045,001,2024_Apr_13_1116,ANT,2021.2.3,59.76818309934589,
1,16,center,down,IC,R,,,,,,Block.xlsx,"你已经完成了第一个实验区组

请稍作休息


点击空格键进入下一个区组。",0,50,-1.5,right,LLRLL.png,,,,,0,0,0,0,3,13,85,15,,,,,,,,,,,,,,,,,,,,,,,,,,,,,,,,,,,,,,,,,,,,,,,,,,,,,,,,,,,,,,,,242.43450820003636,242.8369146999903,242.81885450007394,242.91904360009357,243.31997190020047,None,right,1,0.5535517998505384,243.31997190020047,None,242.81885450007394,242.91904360009357,242.91904360009357,None,243.90335420006886,None,,,,,,,11045,001,2024_Apr_13_1116,ANT,2021.2.3,59.76818309934589,
1,23,spatial,down,IC,L,,,,,,Block.xlsx,"你已经完成了第一个实验区组

请稍作休息


点击空格键进入下一个区组。",-1.5,0,-1.5,left,RRLRR.png,,,,,0,0,0,0,3,14,86,22,,,,,,,,,,,,,,,,,,,,,,,,,,,,,,,,,,,,,,,,,,,,,,,,,,,,,,,,,,,,,,,,244.30415159999393,244.70583950006403,244.68816330004483,244.7882998001296,245.18898930004798,None,left,1,0.7012474001385272,245.18898930004798,None,244.68816330004483,244.7882998001296,244.7882998001296,None,245.90667120018043,None,,,,,,,11045,001,2024_Apr_13_1116,ANT,2021.2.3,59.76818309934589,
1,17,spatial,up,C,L,,,,,,Block.xlsx,"你已经完成了第一个实验区组

请稍作休息


点击空格键进入下一个区组。",1.5,0,1.5,left,LLLLL.png,,,,,0,0,0,0,3,15,87,16,,,,,,,,,,,,,,,,,,,,,,,,,,,,,,,,,,,,,,,,,,,,,,,,,,,,,,,,,,,,,,,,246.3075338001363,246.7081210000906,246.69133530021645,246.7924441001378,247.19195440015756,None,left,1,0.49791910010389984,247.19195440015756,None,246.69133530021645,246.7924441001378,246.7924441001378,None,247.70928990002722,None,,,,,,,11045,001,2024_Apr_13_1116,ANT,2021.2.3,59.76818309934589,
1,4,no,up,IC,R,,,,,,Block.xlsx,"你已经完成了第一个实验区组

请稍作休息


点击空格键进入下一个区组。",50,0,1.5,right,LLRLL.png,,,,,0,0,0,0,3,16,88,3,,,,,,,,,,,,,,,,,,,,,,,,,,,,,,,,,,,,,,,,,,,,,,,,,,,,,,,,,,,,,,,,248.1110958000645,248.51238250010647,248.4937462999951,248.5945777001325,248.99545210017823,None,right,1,0.47886390006169677,248.99545210017823,None,248.4937462999951,248.5945777001325,248.5945777001325,None,249.49581470014527,None,,,,,,,11045,001,2024_Apr_13_1116,ANT,2021.2.3,59.76818309934589,
1,7,no,down,IC,L,,,,,,Block.xlsx,"你已经完成了第一个实验区组

请稍作休息


点击空格键进入下一个区组。",50,0,-1.5,left,RRLRR.png,,,,,0,0,0,0,3,17,89,6,,,,,,,,,,,,,,,,,,,,,,,,,,,,,,,,,,,,,,,,,,,,,,,,,,,,,,,,,,,,,,,,249.8959343000315,250.29642350017093,250.28070080000907,250.38197750016116,250.78109190007672,None,left,1,0.7648700000718236,250.78109190007672,None,250.28070080000907,250.38197750016116,250.38197750016116,None,251.56519740005024,None,,,,,,,11045,001,2024_Apr_13_1116,ANT,2021.2.3,59.76818309934589,
1,15,center,down,IC,L,,,,,,Block.xlsx,"你已经完成了第一个实验区组

请稍作休息


点击空格键进入下一个区组。",0,50,-1.5,left,RRLRR.png,,,,,0,0,0,0,3,18,90,14,,,,,,,,,,,,,,,,,,,,,,,,,,,,,,,,,,,,,,,,,,,,,,,,,,,,,,,,,,,,,,,,251.96548040001653,252.367173000006,252.34995070006698,252.45038480008952,252.8504873001948,None,left,1,0.6552812999580055,252.8504873001948,None,252.34995070006698,252.45038480008952,252.45038480008952,None,253.53477490018122,None,,,,,,,11045,001,2024_Apr_13_1116,ANT,2021.2.3,59.76818309934589,
1,8,no,down,IC,R,,,,,,Block.xlsx,"你已经完成了第一个实验区组

请稍作休息


点击空格键进入下一个区组。",50,0,-1.5,right,LLRLL.png,,,,,0,0,0,0,3,19,91,7,,,,,,,,,,,,,,,,,,,,,,,,,,,,,,,,,,,,,,,,,,,,,,,,,,,,,,,,,,,,,,,,253.93549330020323,254.33626320003532,254.31992970011197,254.41933800000697,254.82100970018655,None,right,1,0.5656225001439452,254.82100970018655,None,254.31992970011197,254.41933800000697,254.41933800000697,None,255.4042974000331,None,,,,,,,11045,001,2024_Apr_13_1116,ANT,2021.2.3,59.76818309934589,
1,10,center,up,C,R,,,,,,Block.xlsx,"你已经完成了第一个实验区组

请稍作休息


点击空格键进入下一个区组。",0,50,1.5,right,RRRRR.png,,,,,0,0,0,0,3,20,92,9,,,,,,,,,,,,,,,,,,,,,,,,,,,,,,,,,,,,,,,,,,,,,,,,,,,,,,,,,,,,,,,,255.80484320013784,256.20696229999885,256.18871880020015,256.28946130000986,256.69121080008335,None,right,1,0.6320102999452502,256.69121080008335,None,256.18871880020015,256.28946130000986,256.28946130000986,None,257.34045140002854,None,,,,,,,11045,001,2024_Apr_13_1116,ANT,2021.2.3,59.76818309934589,
1,6,no,down,C,R,,,,,,Block.xlsx,"你已经完成了第一个实验区组

请稍作休息


点击空格键进入下一个区组。",50,0,-1.5,right,RRRRR.png,,,,,0,0,0,0,3,21,93,5,,,,,,,,,,,,,,,,,,,,,,,,,,,,,,,,,,,,,,,,,,,,,,,,,,,,,,,,,,,,,,,,257.74158999999054,258.14173560007475,258.124973700149,258.22514150012285,258.62589140003547,None,right,1,0.5199265999253839,258.62589140003547,None,258.124973700149,258.22514150012285,258.22514150012285,None,259.17698030010797,None,,,,,,,11045,001,2024_Apr_13_1116,ANT,2021.2.3,59.76818309934589,
1,7,no,down,IC,L,,,,,,Block.xlsx,"你已经完成了第一个实验区组

请稍作休息


点击空格键进入下一个区组。",50,0,-1.5,left,RRLRR.png,,,,,0,0,0,0,3,22,94,6,,,,,,,,,,,,,,,,,,,,,,,,,,,,,,,,,,,,,,,,,,,,,,,,,,,,,,,,,,,,,,,,259.57767989998683,259.9785387001466,259.9610835001804,260.0622343001887,260.4633784000762,None,left,1,0.4746948000974953,260.4633784000762,None,259.9610835001804,260.0622343001887,260.0622343001887,None,260.96266720001586,None,,,,,,,11045,001,2024_Apr_13_1116,ANT,2021.2.3,59.76818309934589,
1,5,no,down,C,L,,,,,,Block.xlsx,"你已经完成了第一个实验区组

请稍作休息


点击空格键进入下一个区组。",50,0,-1.5,left,LLLLL.png,,,,,0,0,0,0,3,23,95,4,,,,,,,,,,,,,,,,,,,,,,,,,,,,,,,,,,,,,,,,,,,,,,,,,,,,,,,,,,,,,,,,261.36350650014356,261.7651513000019,261.7470677001402,261.8483556001447,262.24778149998747,None,left,1,0.4990084997843951,262.24778149998747,None,261.7470677001402,261.8483556001447,261.8483556001447,None,262.76551240007393,None,,,,,,,11045,001,2024_Apr_13_1116,ANT,2021.2.3,59.76818309934589,
,,,,,,,,,,,Block.xlsx,"你已经完成了第一个实验区组

请稍作休息


点击空格键进入下一个区组。",,,,,,,,,,0,0,0,0,,,,,,,,,,,,,,,,,,,,,,,,,,,,,,,,,,,,,,,,,,,,,,,,,,,,,,,,,,,,,,,,,,,,,,,,,,,,,,,,,,,,,space,4.4292971000541,263.16567870019935,None,263.16567870019935,None,11045,001,2024_Apr_13_1116,ANT,2021.2.3,59.76818309934589,
1,19,spatial,up,IC,L,,,,,,Block.xlsx,"你已经完成了整个实验（三个区组）。

请报告实验者已完成实验

非常感谢，再见！",1.5,0,1.5,left,RRLRR.png,,,,,0,1,1,1,0,0,0,18,,,,,,,,,,,,,,,,,,,,,,,,,,,,,,,,,,,,,,,,,,,,,,,,,,,,,,,,,,,,,,,,267.6393068002071,268.040075100027,268.0247586001642,268.1239683001768,268.525302400114,None,left,1,0.5334433999378234,268.525302400114,None,268.0247586001642,268.1239683001768,268.1239683001768,None,269.0748252000194,None,,,,,,,11045,001,2024_Apr_13_1116,ANT,2021.2.3,59.76818309934589,
1,16,center,down,IC,R,,,,,,Block.xlsx,"你已经完成了整个实验（三个区组）。

请报告实验者已完成实验

非常感谢，再见！",0,50,-1.5,right,LLRLL.png,,,,,0,1,1,1,0,1,1,15,,,,,,,,,,,,,,,,,,,,,,,,,,,,,,,,,,,,,,,,,,,,,,,,,,,,,,,,,,,,,,,,269.47543880017474,269.87690290017053,269.85935500008054,269.9605316000525,270.36013300018385,None,right,1,0.6424721998628229,270.36013300018385,None,269.85935500008054,269.9605316000525,269.9605316000525,None,271.0279127000831,None,,,,,,,11045,001,2024_Apr_13_1116,ANT,2021.2.3,59.76818309934589,
1,17,spatial,up,C,L,,,,,,Block.xlsx,"你已经完成了整个实验（三个区组）。

请报告实验者已完成实验

非常感谢，再见！",1.5,0,1.5,left,LLLLL.png,,,,,0,1,1,1,0,2,2,16,,,,,,,,,,,,,,,,,,,,,,,,,,,,,,,,,,,,,,,,,,,,,,,,,,,,,,,,,,,,,,,,271.42890010005794,271.8304999000393,271.812401200179,271.91259690001607,272.3141465000808,None,left,1,0.44961289991624653,272.3141465000808,None,271.812401200179,271.91259690001607,271.91259690001607,None,272.78054490010254,None,,,,,,,11045,001,2024_Apr_13_1116,ANT,2021.2.3,59.76818309934589,
1,13,center,down,C,L,,,,,,Block.xlsx,"你已经完成了整个实验（三个区组）。

请报告实验者已完成实验

非常感谢，再见！",0,50,-1.5,left,LLLLL.png,,,,,0,1,1,1,0,3,3,12,,,,,,,,,,,,,,,,,,,,,,,,,,,,,,,,,,,,,,,,,,,,,,,,,,,,,,,,,,,,,,,,273.18157590017654,273.58168680011295,273.56581210019067,273.66551930014975,274.06680510006845,None,left,1,0.47989189997315407,274.06680510006845,None,273.56581210019067,273.66551930014975,273.66551930014975,None,274.5666549000889,None,,,,,,,11045,001,2024_Apr_13_1116,ANT,2021.2.3,59.76818309934589,
1,13,center,down,C,L,,,,,,Block.xlsx,"你已经完成了整个实验（三个区组）。

请报告实验者已完成实验

非常感谢，再见！",0,50,-1.5,left,LLLLL.png,,,,,0,1,1,1,0,4,4,12,,,,,,,,,,,,,,,,,,,,,,,,,,,,,,,,,,,,,,,,,,,,,,,,,,,,,,,,,,,,,,,,274.9671874002088,275.3683267000597,275.3509610001929,275.453213600209,275.8526877001859,None,left,1,0.5980974000412971,275.8526877001859,None,275.3509610001929,275.453213600209,275.453213600209,None,276.46940729999915,None,,,,,,,11045,001,2024_Apr_13_1116,ANT,2021.2.3,59.76818309934589,
1,20,spatial,up,IC,R,,,,,,Block.xlsx,"你已经完成了整个实验（三个区组）。

请报告实验者已完成实验

非常感谢，再见！",1.5,0,1.5,right,LLRLL.png,,,,,0,1,1,1,0,5,5,19,,,,,,,,,,,,,,,,,,,,,,,,,,,,,,,,,,,,,,,,,,,,,,,,,,,,,,,,,,,,,,,,276.8704498000443,277.2715356000699,277.2539924001321,277.35420860000886,277.75470510008745,None,right,1,0.5608742998447269,277.75470510008745,None,277.2539924001321,277.35420860000886,277.35420860000886,None,278.3396849001292,None,,,,,,,11045,001,2024_Apr_13_1116,ANT,2021.2.3,59.76818309934589,
1,18,spatial,up,C,R,,,,,,Block.xlsx,"你已经完成了整个实验（三个区组）。

请报告实验者已完成实验

非常感谢，再见！",1.5,0,1.5,right,RRRRR.png,,,,,0,1,1,1,0,6,6,17,,,,,,,,,,,,,,,,,,,,,,,,,,,,,,,,,,,,,,,,,,,,,,,,,,,,,,,,,,,,,,,,278.739557400113,279.1406636000611,279.1234125001356,279.2252050000243,279.62423690012656,None,right,1,0.42656080005690455,279.62423690012656,None,279.1234125001356,279.2252050000243,279.2252050000243,None,280.07518370007165,None,,,,,,,11045,001,2024_Apr_13_1116,ANT,2021.2.3,59.76818309934589,
1,24,spatial,down,IC,R,,,,,,Block.xlsx,"你已经完成了整个实验（三个区组）。

请报告实验者已完成实验

非常感谢，再见！",-1.5,0,-1.5,right,LLRLL.png,,,,,0,1,1,1,0,7,7,23,,,,,,,,,,,,,,,,,,,,,,,,,,,,,,,,,,,,,,,,,,,,,,,,,,,,,,,,,,,,,,,,280.4754718001932,280.8760712000076,280.86075100000016,280.9606147001032,281.3605982000008,None,right,1,0.46636770013719797,281.3605982000008,None,280.86075100000016,280.9606147001032,280.9606147001032,None,281.84426200017333,None,,,,,,,11045,001,2024_Apr_13_1116,ANT,2021.2.3,59.76818309934589,
1,20,spatial,up,IC,R,,,,,,Block.xlsx,"你已经完成了整个实验（三个区组）。

请报告实验者已完成实验

非常感谢，再见！",1.5,0,1.5,right,LLRLL.png,,,,,0,1,1,1,0,8,8,19,,,,,,,,,,,,,,,,,,,,,,,,,,,,,,,,,,,,,,,,,,,,,,,,,,,,,,,,,,,,,,,,282.2446826000232,282.6467274001334,282.62874990003183,282.72828290006146,283.1298384000547,None,right,1,0.49725100002251565,283.1298384000547,None,282.62874990003183,282.72828290006146,282.72828290006146,None,283.64692199998535,None,,,,,,,11045,001,2024_Apr_13_1116,ANT,2021.2.3,59.76818309934589,
1,7,no,down,IC,L,,,,,,Block.xlsx,"你已经完成了整个实验（三个区组）。

请报告实验者已完成实验

非常感谢，再见！",50,0,-1.5,left,RRLRR.png,,,,,0,1,1,1,0,9,9,6,,,,,,,,,,,,,,,,,,,,,,,,,,,,,,,,,,,,,,,,,,,,,,,,,,,,,,,,,,,,,,,,284.0478293001652,284.44898580014706,284.4312800001353,284.53156920010224,284.9325182000175,None,left,1,0.60635060002096,284.9325182000175,None,284.4312800001353,284.53156920010224,284.53156920010224,None,285.56654200004414,None,,,,,,,11045,001,2024_Apr_13_1116,ANT,2021.2.3,59.76818309934589,
1,8,no,down,IC,R,,,,,,Block.xlsx,"你已经完成了整个实验（三个区组）。

请报告实验者已完成实验

非常感谢，再见！",50,0,-1.5,right,LLRLL.png,,,,,0,1,1,1,0,10,10,7,,,,,,,,,,,,,,,,,,,,,,,,,,,,,,,,,,,,,,,,,,,,,,,,,,,,,,,,,,,,,,,,285.96696180012077,286.369370700093,286.35097380005755,286.45173630001955,286.8517573000863,None,right,1,0.5114644002169371,286.8517573000863,None,286.35097380005755,286.45173630001955,286.45173630001955,None,287.3857374000363,None,,,,,,,11045,001,2024_Apr_13_1116,ANT,2021.2.3,59.76818309934589,
1,10,center,up,C,R,,,,,,Block.xlsx,"你已经完成了整个实验（三个区组）。

请报告实验者已完成实验

非常感谢，再见！",0,50,1.5,right,RRRRR.png,,,,,0,1,1,1,0,11,11,9,,,,,,,,,,,,,,,,,,,,,,,,,,,,,,,,,,,,,,,,,,,,,,,,,,,,,,,,,,,,,,,,287.7867978999857,288.18915860005654,288.170430400176,288.27161390008405,288.67166560003534,None,right,1,0.5315523000899702,288.67166560003534,None,288.170430400176,288.27161390008405,288.27161390008405,None,289.22181190014817,None,,,,,,,11045,001,2024_Apr_13_1116,ANT,2021.2.3,59.76818309934589,
1,14,center,down,C,R,,,,,,Block.xlsx,"你已经完成了整个实验（三个区组）。

请报告实验者已完成实验

非常感谢，再见！",0,50,-1.5,right,RRRRR.png,,,,,0,1,1,1,0,12,12,13,,,,,,,,,,,,,,,,,,,,,,,,,,,,,,,,,,,,,,,,,,,,,,,,,,,,,,,,,,,,,,,,289.6224425002001,290.0245606000535,290.00683420011774,290.10648160008714,290.5070330000017,None,right,1,0.4000031999312341,290.5070330000017,None,290.00683420011774,290.10648160008714,290.10648160008714,None,290.9246134001296,None,,,,,,,11045,001,2024_Apr_13_1116,ANT,2021.2.3,59.76818309934589,
1,22,spatial,down,C,R,,,,,,Block.xlsx,"你已经完成了整个实验（三个区组）。

请报告实验者已完成实验

非常感谢，再见！",-1.5,0,-1.5,right,RRRRR.png,,,,,0,1,1,1,0,13,13,21,,,,,,,,,,,,,,,,,,,,,,,,,,,,,,,,,,,,,,,,,,,,,,,,,,,,,,,,,,,,,,,,291.3254420000594,291.7257996001281,291.70929470006377,291.8096569001209,292.20989060006104,None,right,1,0.3932022999506444,292.20989060006104,None,291.70929470006377,291.8096569001209,291.8096569001209,None,292.6275953000877,None,,,,,,,11045,001,2024_Apr_13_1116,ANT,2021.2.3,59.76818309934589,
1,7,no,down,IC,L,,,,,,Block.xlsx,"你已经完成了整个实验（三个区组）。

请报告实验者已完成实验

非常感谢，再见！",50,0,-1.5,left,RRLRR.png,,,,,0,1,1,1,0,14,14,6,,,,,,,,,,,,,,,,,,,,,,,,,,,,,,,,,,,,,,,,,,,,,,,,,,,,,,,,,,,,,,,,293.02778370003216,293.4295175001025,293.41200870019384,293.5119744001422,293.9123748000711,None,left,1,0.5787521000020206,293.9123748000711,None,293.41200870019384,293.5119744001422,293.5119744001422,None,294.51338900020346,None,,,,,,,11045,001,2024_Apr_13_1116,ANT,2021.2.3,59.76818309934589,
1,9,center,up,C,L,,,,,,Block.xlsx,"你已经完成了整个实验（三个区组）。

请报告实验者已完成实验

非常感谢，再见！",0,50,1.5,left,LLLLL.png,,,,,0,1,1,1,0,15,15,8,,,,,,,,,,,,,,,,,,,,,,,,,,,,,,,,,,,,,,,,,,,,,,,,,,,,,,,,,,,,,,,,294.91427480010316,295.31461610016413,295.29934490006417,295.4152765001636,295.8001526000444,None,left,1,0.5387914997991174,295.8001526000444,None,295.29934490006417,295.4152765001636,295.3980429000221,None,296.36633440013975,None,,,,,,,11045,001,2024_Apr_13_1116,ANT,2021.2.3,59.76818309934589,
1,23,spatial,down,IC,L,,,,,,Block.xlsx,"你已经完成了整个实验（三个区组）。

请报告实验者已完成实验

非常感谢，再见！",-1.5,0,-1.5,left,RRLRR.png,,,,,0,1,1,1,0,16,16,22,,,,,,,,,,,,,,,,,,,,,,,,,,,,,,,,,,,,,,,,,,,,,,,,,,,,,,,,,,,,,,,,296.766902100062,297.1672759000212,297.1507418002002,297.2512593001593,297.6512400000356,None,left,1,0.46449490007944405,297.6512400000356,None,297.1507418002002,297.2512593001593,297.2512593001593,None,298.13575620017946,None,,,,,,,11045,001,2024_Apr_13_1116,ANT,2021.2.3,59.76818309934589,
1,14,center,down,C,R,,,,,,Block.xlsx,"你已经完成了整个实验（三个区组）。

请报告实验者已完成实验

非常感谢，再见！",0,50,-1.5,right,RRRRR.png,,,,,0,1,1,1,0,17,17,13,,,,,,,,,,,,,,,,,,,,,,,,,,,,,,,,,,,,,,,,,,,,,,,,,,,,,,,,,,,,,,,,298.536066000117,298.9368610000238,298.92027910007164,299.0206432000268,299.42252150014974,None,right,1,0.5170265000779182,299.42252150014974,None,298.92027910007164,299.0206432000268,299.0206432000268,None,299.954927300103,None,,,,,,,11045,001,2024_Apr_13_1116,ANT,2021.2.3,59.76818309934589,
1,4,no,up,IC,R,,,,,,Block.xlsx,"你已经完成了整个实验（三个区组）。

请报告实验者已完成实验

非常感谢，再见！",50,0,1.5,right,LLRLL.png,,,,,0,1,1,1,0,18,18,3,,,,,,,,,,,,,,,,,,,,,,,,,,,,,,,,,,,,,,,,,,,,,,,,,,,,,,,,,,,,,,,,300.35587100009434,300.7561559001915,300.739476100076,300.8406797000207,301.2403907000553,None,right,1,0.6349243000149727,301.2403907000553,None,300.739476100076,300.8406797000207,300.8406797000207,None,301.8910336000845,None,,,,,,,11045,001,2024_Apr_13_1116,ANT,2021.2.3,59.76818309934589,
1,13,center,down,C,L,,,,,,Block.xlsx,"你已经完成了整个实验（三个区组）。

请报告实验者已完成实验

非常感谢，再见！",0,50,-1.5,left,LLLLL.png,,,,,0,1,1,1,0,19,19,12,,,,,,,,,,,,,,,,,,,,,,,,,,,,,,,,,,,,,,,,,,,,,,,,,,,,,,,,,,,,,,,,302.29199120006524,302.69283220008947,302.6768061001785,302.7757635000162,303.1780865001492,None,left,1,0.44199100020341575,303.1780865001492,None,302.6768061001785,302.7757635000162,302.7757635000162,None,303.64377900003456,None,,,,,,,11045,001,2024_Apr_13_1116,ANT,2021.2.3,59.76818309934589,
1,9,center,up,C,L,,,,,,Block.xlsx,"你已经完成了整个实验（三个区组）。

请报告实验者已完成实验

非常感谢，再见！",0,50,1.5,left,LLLLL.png,,,,,0,1,1,1,0,20,20,8,,,,,,,,,,,,,,,,,,,,,,,,,,,,,,,,,,,,,,,,,,,,,,,,,,,,,,,,,,,,,,,,304.0446860000957,304.44485680013895,304.4291832000017,304.5283433001023,304.9297605000902,None,left,1,0.5299376000184566,304.9297605000902,None,304.4291832000017,304.5283433001023,304.5283433001023,None,305.47988650016487,None,,,,,,,11045,001,2024_Apr_13_1116,ANT,2021.2.3,59.76818309934589,
1,21,spatial,down,C,L,,,,,,Block.xlsx,"你已经完成了整个实验（三个区组）。

请报告实验者已完成实验

非常感谢，再见！",-1.5,0,-1.5,left,LLLLL.png,,,,,0,1,1,1,0,21,21,20,,,,,,,,,,,,,,,,,,,,,,,,,,,,,,,,,,,,,,,,,,,,,,,,,,,,,,,,,,,,,,,,305.8802706000861,306.2812607001979,306.265801000176,306.3645467001479,306.7653775000945,None,left,1,0.48590740002691746,306.7653775000945,None,306.265801000176,306.3645467001479,306.3645467001479,None,307.26590040000156,None,,,,,,,11045,001,2024_Apr_13_1116,ANT,2021.2.3,59.76818309934589,
1,16,center,down,IC,R,,,,,,Block.xlsx,"你已经完成了整个实验（三个区组）。

请报告实验者已完成实验

非常感谢，再见！",0,50,-1.5,right,LLRLL.png,,,,,0,1,1,1,0,22,22,15,,,,,,,,,,,,,,,,,,,,,,,,,,,,,,,,,,,,,,,,,,,,,,,,,,,,,,,,,,,,,,,,307.66659640008584,308.0691842001397,308.0508778002113,308.1505244001746,308.55147250019945,None,right,1,0.6044330999720842,308.55147250019945,None,308.0508778002113,308.1505244001746,308.1505244001746,None,309.18590700021014,None,,,,,,,11045,001,2024_Apr_13_1116,ANT,2021.2.3,59.76818309934589,
1,19,spatial,up,IC,L,,,,,,Block.xlsx,"你已经完成了整个实验（三个区组）。

请报告实验者已完成实验

非常感谢，再见！",1.5,0,1.5,left,RRLRR.png,,,,,0,1,1,1,0,23,23,18,,,,,,,,,,,,,,,,,,,,,,,,,,,,,,,,,,,,,,,,,,,,,,,,,,,,,,,,,,,,,,,,309.5863300000783,309.98859240021557,309.9699381000828,310.0705492000561,310.47359960014,None,left,1,0.48215329996310174,310.47359960014,None,309.9699381000828,310.0705492000561,310.0705492000561,None,310.9718276001513,None,,,,,,,11045,001,2024_Apr_13_1116,ANT,2021.2.3,59.76818309934589,
1,2,no,up,C,R,,,,,,Block.xlsx,"你已经完成了整个实验（三个区组）。

请报告实验者已完成实验

非常感谢，再见！",50,0,1.5,right,RRRRR.png,,,,,0,1,1,1,1,0,24,1,,,,,,,,,,,,,,,,,,,,,,,,,,,,,,,,,,,,,,,,,,,,,,,,,,,,,,,,,,,,,,,,311.37223100010306,311.77371630002744,311.75637860014103,311.85640130005777,312.2574860001914,None,right,1,0.5382795000914484,312.2574860001914,None,311.75637860014103,311.85640130005777,311.85640130005777,None,312.82437360007316,None,,,,,,,11045,001,2024_Apr_13_1116,ANT,2021.2.3,59.76818309934589,
1,1,no,up,C,L,,,,,,Block.xlsx,"你已经完成了整个实验（三个区组）。

请报告实验者已完成实验

非常感谢，再见！",50,0,1.5,left,LLLLL.png,,,,,0,1,1,1,1,1,25,0,,,,,,,,,,,,,,,,,,,,,,,,,,,,,,,,,,,,,,,,,,,,,,,,,,,,,,,,,,,,,,,,313.22500620014034,313.6254571999889,313.60898890020326,313.70962200011127,314.11030530021526,None,left,1,0.70108040003106,314.11030530021526,None,313.60898890020326,313.70962200011127,313.70962200011127,None,314.8272764000576,None,,,,,,,11045,001,2024_Apr_13_1116,ANT,2021.2.3,59.76818309934589,
1,22,spatial,down,C,R,,,,,,Block.xlsx,"你已经完成了整个实验（三个区组）。

请报告实验者已完成实验

非常感谢，再见！",-1.5,0,-1.5,right,RRRRR.png,,,,,0,1,1,1,1,2,26,21,,,,,,,,,,,,,,,,,,,,,,,,,,,,,,,,,,,,,,,,,,,,,,,,,,,,,,,,,,,,,,,,315.22803170001134,315.631317100022,315.6126177001279,315.712579500163,316.11442090012133,None,right,1,0.5457053000573069,316.11442090012133,None,315.6126177001279,315.712579500163,315.712579500163,None,316.680509300204,None,,,,,,,11045,001,2024_Apr_13_1116,ANT,2021.2.3,59.76818309934589,
1,5,no,down,C,L,,,,,,Block.xlsx,"你已经完成了整个实验（三个区组）。

请报告实验者已完成实验

非常感谢，再见！",50,0,-1.5,left,LLLLL.png,,,,,0,1,1,1,1,3,27,4,,,,,,,,,,,,,,,,,,,,,,,,,,,,,,,,,,,,,,,,,,,,,,,,,,,,,,,,,,,,,,,,317.08078050008044,317.48239280004054,317.4646262000315,317.56479580001906,317.9657706001308,None,left,1,0.4619028000161052,317.9657706001308,None,317.4646262000315,317.56479580001906,317.56479580001906,None,318.44984710006975,None,,,,,,,11045,001,2024_Apr_13_1116,ANT,2021.2.3,59.76818309934589,
1,22,spatial,down,C,R,,,,,,Block.xlsx,"你已经完成了整个实验（三个区组）。

请报告实验者已完成实验

非常感谢，再见！",-1.5,0,-1.5,right,RRRRR.png,,,,,0,1,1,1,1,4,28,21,,,,,,,,,,,,,,,,,,,,,,,,,,,,,,,,,,,,,,,,,,,,,,,,,,,,,,,,,,,,,,,,318.85065870010294,319.2507222001441,319.2350536000449,319.33400610019453,319.7345691001974,None,right,1,0.4452508999966085,319.7345691001974,None,319.2350536000449,319.33400610019453,319.33400610019453,None,320.20220000017434,None,,,,,,,11045,001,2024_Apr_13_1116,ANT,2021.2.3,59.76818309934589,
1,4,no,up,IC,R,,,,,,Block.xlsx,"你已经完成了整个实验（三个区组）。

请报告实验者已完成实验

非常感谢，再见！",50,0,1.5,right,LLRLL.png,,,,,0,1,1,1,1,5,29,3,,,,,,,,,,,,,,,,,,,,,,,,,,,,,,,,,,,,,,,,,,,,,,,,,,,,,,,,,,,,,,,,320.60296420007944,321.0036590001546,320.9865641000215,321.08754820004106,321.48726349999197,None,right,1,0.7088196999393404,321.48726349999197,None,320.9865641000215,321.08754820004106,321.08754820004106,None,322.22198610007763,None,,,,,,,11045,001,2024_Apr_13_1116,ANT,2021.2.3,59.76818309934589,
1,1,no,up,C,L,,,,,,Block.xlsx,"你已经完成了整个实验（三个区组）。

请报告实验者已完成实验

非常感谢，再见！",50,0,1.5,left,LLLLL.png,,,,,0,1,1,1,1,6,30,0,,,,,,,,,,,,,,,,,,,,,,,,,,,,,,,,,,,,,,,,,,,,,,,,,,,,,,,,,,,,,,,,322.6225437000394,323.0238891001791,323.00647270004265,323.1076427001972,323.5074505000375,None,left,1,0.5046521001495421,323.5074505000375,None,323.00647270004265,323.1076427001972,323.1076427001972,None,324.041583100101,None,,,,,,,11045,001,2024_Apr_13_1116,ANT,2021.2.3,59.76818309934589,
1,21,spatial,down,C,L,,,,,,Block.xlsx,"你已经完成了整个实验（三个区组）。

请报告实验者已完成实验

非常感谢，再见！",-1.5,0,-1.5,left,LLLLL.png,,,,,0,1,1,1,1,7,31,20,,,,,,,,,,,,,,,,,,,,,,,,,,,,,,,,,,,,,,,,,,,,,,,,,,,,,,,,,,,,,,,,324.4424710001331,324.8425226002,324.82696430012584,324.92595360009,325.3268751001451,None,left,1,0.6529290000908077,325.3268751001451,None,324.82696430012584,324.92595360009,324.92595360009,None,326.01082200021483,None,,,,,,,11045,001,2024_Apr_13_1116,ANT,2021.2.3,59.76818309934589,
1,6,no,down,C,R,,,,,,Block.xlsx,"你已经完成了整个实验（三个区组）。

请报告实验者已完成实验

非常感谢，再见！",50,0,-1.5,right,RRRRR.png,,,,,0,1,1,1,1,8,32,5,,,,,,,,,,,,,,,,,,,,,,,,,,,,,,,,,,,,,,,,,,,,,,,,,,,,,,,,,,,,,,,,326.4116800001357,326.81250950018875,326.7960591001902,326.89624680019915,327.2961037000641,None,right,1,0.5238185999915004,327.2961037000641,None,326.7960591001902,326.89624680019915,326.89624680019915,None,327.8474314000923,None,,,,,,,11045,001,2024_Apr_13_1116,ANT,2021.2.3,59.76818309934589,
1,5,no,down,C,L,,,,,,Block.xlsx,"你已经完成了整个实验（三个区组）。

请报告实验者已完成实验

非常感谢，再见！",50,0,-1.5,left,LLLLL.png,,,,,0,1,1,1,1,9,33,4,,,,,,,,,,,,,,,,,,,,,,,,,,,,,,,,,,,,,,,,,,,,,,,,,,,,,,,,,,,,,,,,328.2478521000594,328.6482179001905,328.63265869999304,328.7323054000735,329.13284209999256,None,left,1,0.4559332998469472,329.13284209999256,None,328.63265869999304,328.7323054000735,328.7323054000735,None,329.61635480006225,None,,,,,,,11045,001,2024_Apr_13_1116,ANT,2021.2.3,59.76818309934589,
1,6,no,down,C,R,,,,,,Block.xlsx,"你已经完成了整个实验（三个区组）。

请报告实验者已完成实验

非常感谢，再见！",50,0,-1.5,right,RRRRR.png,,,,,0,1,1,1,1,10,34,5,,,,,,,,,,,,,,,,,,,,,,,,,,,,,,,,,,,,,,,,,,,,,,,,,,,,,,,,,,,,,,,,330.017098300159,330.41826230008155,330.4010348999873,330.50084490003064,330.90155400009826,None,right,1,0.4867775000166148,330.90155400009826,None,330.4010348999873,330.50084490003064,330.50084490003064,None,331.41900640004314,None,,,,,,,11045,001,2024_Apr_13_1116,ANT,2021.2.3,59.76818309934589,
1,16,center,down,IC,R,,,,,,Block.xlsx,"你已经完成了整个实验（三个区组）。

请报告实验者已完成实验

非常感谢，再见！",0,50,-1.5,right,LLRLL.png,,,,,0,1,1,1,1,11,35,15,,,,,,,,,,,,,,,,,,,,,,,,,,,,,,,,,,,,,,,,,,,,,,,,,,,,,,,,,,,,,,,,331.8195602002088,332.2203477001749,332.205659000203,332.3215378001332,332.70417330018245,None,right,1,0.6197901000268757,332.70417330018245,None,332.205659000203,332.3215378001332,332.3040485000238,None,333.3553640001919,None,,,,,,,11045,001,2024_Apr_13_1116,ANT,2021.2.3,59.76818309934589,
1,21,spatial,down,C,L,,,,,,Block.xlsx,"你已经完成了整个实验（三个区组）。

请报告实验者已完成实验

非常感谢，再见！",-1.5,0,-1.5,left,LLLLL.png,,,,,0,1,1,1,1,12,36,20,,,,,,,,,,,,,,,,,,,,,,,,,,,,,,,,,,,,,,,,,,,,,,,,,,,,,,,,,,,,,,,,333.75594280008227,334.1563552999869,334.13984540011734,334.24070640001446,334.6415234000888,None,left,1,0.47468880005180836,334.6415234000888,None,334.13984540011734,334.24070640001446,334.24070640001446,None,335.14122410002165,None,,,,,,,11045,001,2024_Apr_13_1116,ANT,2021.2.3,59.76818309934589,
1,3,no,up,IC,L,,,,,,Block.xlsx,"你已经完成了整个实验（三个区组）。

请报告实验者已完成实验

非常感谢，再见！",50,0,1.5,left,RRLRR.png,,,,,0,1,1,1,1,13,37,2,,,,,,,,,,,,,,,,,,,,,,,,,,,,,,,,,,,,,,,,,,,,,,,,,,,,,,,,,,,,,,,,335.5419813999906,335.943062200211,335.9259005000349,336.026045500068,336.42652110010386,None,left,1,0.8659882000647485,336.42652110010386,None,335.9259005000349,336.026045500068,336.026045500068,None,337.3112193001434,None,,,,,,,11045,001,2024_Apr_13_1116,ANT,2021.2.3,59.76818309934589,
1,1,no,up,C,L,,,,,,Block.xlsx,"你已经完成了整个实验（三个区组）。

请报告实验者已完成实验

非常感谢，再见！",50,0,1.5,left,LLLLL.png,,,,,0,1,1,1,1,14,38,0,,,,,,,,,,,,,,,,,,,,,,,,,,,,,,,,,,,,,,,,,,,,,,,,,,,,,,,,,,,,,,,,337.71209860011004,338.1125586000271,338.09672520007007,338.19612770015374,338.5965244001709,None,left,1,0.5196274998597801,338.5965244001709,None,338.09672520007007,338.19612770015374,338.19612770015374,None,339.1473698001355,None,,,,,,,11045,001,2024_Apr_13_1116,ANT,2021.2.3,59.76818309934589,
1,14,center,down,C,R,,,,,,Block.xlsx,"你已经完成了整个实验（三个区组）。

请报告实验者已完成实验

非常感谢，再见！",0,50,-1.5,right,RRRRR.png,,,,,0,1,1,1,1,15,39,13,,,,,,,,,,,,,,,,,,,,,,,,,,,,,,,,,,,,,,,,,,,,,,,,,,,,,,,,,,,,,,,,339.54807720007375,339.9485887000337,339.9329327000305,340.0332518001087,340.4325757001061,None,right,1,0.523851600009948,340.4325757001061,None,339.9329327000305,340.0332518001087,340.0332518001087,None,340.9834980000742,None,,,,,,,11045,001,2024_Apr_13_1116,ANT,2021.2.3,59.76818309934589,
1,8,no,down,IC,R,,,,,,Block.xlsx,"你已经完成了整个实验（三个区组）。

请报告实验者已完成实验

非常感谢，再见！",50,0,-1.5,right,LLRLL.png,,,,,0,1,1,1,1,16,40,7,,,,,,,,,,,,,,,,,,,,,,,,,,,,,,,,,,,,,,,,,,,,,,,,,,,,,,,,,,,,,,,,341.3841248000972,341.7852947001811,341.7704907001462,341.8859214000404,342.26892500021495,None,right,1,0.47938280017115176,342.26892500021495,None,341.7704907001462,341.8859214000404,341.86804460012354,None,342.76931720017456,None,,,,,,,11045,001,2024_Apr_13_1116,ANT,2021.2.3,59.76818309934589,
1,8,no,down,IC,R,,,,,,Block.xlsx,"你已经完成了整个实验（三个区组）。

请报告实验者已完成实验

非常感谢，再见！",50,0,-1.5,right,LLRLL.png,,,,,0,1,1,1,1,17,41,7,,,,,,,,,,,,,,,,,,,,,,,,,,,,,,,,,,,,,,,,,,,,,,,,,,,,,,,,,,,,,,,,343.1698789000511,343.57053340016864,343.55495280004106,343.65419880021363,344.05454620020464,None,right,1,0.5657951000612229,344.05454620020464,None,343.55495280004106,343.65419880021363,343.65419880021363,None,344.63887520018034,None,,,,,,,11045,001,2024_Apr_13_1116,ANT,2021.2.3,59.76818309934589,
1,18,spatial,up,C,R,,,,,,Block.xlsx,"你已经完成了整个实验（三个区组）。

请报告实验者已完成实验

非常感谢，再见！",1.5,0,1.5,right,RRRRR.png,,,,,0,1,1,1,1,18,42,17,,,,,,,,,,,,,,,,,,,,,,,,,,,,,,,,,,,,,,,,,,,,,,,,,,,,,,,,,,,,,,,,345.03951800009236,345.4401595001109,345.42393410019577,345.5241180001758,345.9244386001956,None,right,1,0.4723231000825763,345.9244386001956,None,345.42393410019577,345.5241180001758,345.5241180001758,None,346.42481400002725,None,,,,,,,11045,001,2024_Apr_13_1116,ANT,2021.2.3,59.76818309934589,
1,4,no,up,IC,R,,,,,,Block.xlsx,"你已经完成了整个实验（三个区组）。

请报告实验者已完成实验

非常感谢，再见！",50,0,1.5,right,LLRLL.png,,,,,0,1,1,1,1,19,43,3,,,,,,,,,,,,,,,,,,,,,,,,,,,,,,,,,,,,,,,,,,,,,,,,,,,,,,,,,,,,,,,,346.82571770017967,347.22623510006815,347.21076070005074,347.3100612000562,347.7102671000175,None,right,1,0.6541869998909533,347.7102671000175,None,347.21076070005074,347.3100612000562,347.3100612000562,None,348.3954700999893,None,,,,,,,11045,001,2024_Apr_13_1116,ANT,2021.2.3,59.76818309934589,
1,12,center,up,IC,R,,,,,,Block.xlsx,"你已经完成了整个实验（三个区组）。

请报告实验者已完成实验

非常感谢，再见！",0,50,1.5,right,LLRLL.png,,,,,0,1,1,1,1,20,44,11,,,,,,,,,,,,,,,,,,,,,,,,,,,,,,,,,,,,,,,,,,,,,,,,,,,,,,,,,,,,,,,,348.7960642001126,349.19698590016924,349.17912540002726,349.2795450000558,349.6799522000365,None,right,1,0.5648726001381874,349.6799522000365,None,349.17912540002726,349.2795450000558,349.2795450000558,None,350.264199500205,None,,,,,,,11045,001,2024_Apr_13_1116,ANT,2021.2.3,59.76818309934589,
1,6,no,down,C,R,,,,,,Block.xlsx,"你已经完成了整个实验（三个区组）。

请报告实验者已完成实验

非常感谢，再见！",50,0,-1.5,right,RRRRR.png,,,,,0,1,1,1,1,21,45,5,,,,,,,,,,,,,,,,,,,,,,,,,,,,,,,,,,,,,,,,,,,,,,,,,,,,,,,,,,,,,,,,350.66449190001003,351.0652889001649,351.04966940009035,351.1495041002054,351.54954210016876,None,right,1,0.4955933000892401,351.54954210016876,None,351.04966940009035,351.1495041002054,351.1495041002054,None,352.0669195000082,None,,,,,,,11045,001,2024_Apr_13_1116,ANT,2021.2.3,59.76818309934589,
1,11,center,up,IC,L,,,,,,Block.xlsx,"你已经完成了整个实验（三个区组）。

请报告实验者已完成实验

非常感谢，再见！",0,50,1.5,left,RRLRR.png,,,,,0,1,1,1,1,22,46,10,,,,,,,,,,,,,,,,,,,,,,,,,,,,,,,,,,,,,,,,,,,,,,,,,,,,,,,,,,,,,,,,352.46727700019255,352.86804450000636,352.85115800006315,352.9521713000722,353.3527271000203,None,left,1,0.7566116999369115,353.3527271000203,None,352.85115800006315,352.9521713000722,352.9521713000722,None,354.13668450014666,None,,,,,,,11045,001,2024_Apr_13_1116,ANT,2021.2.3,59.76818309934589,
1,13,center,down,C,L,,,,,,Block.xlsx,"你已经完成了整个实验（三个区组）。

请报告实验者已完成实验

非常感谢，再见！",0,50,-1.5,left,LLLLL.png,,,,,0,1,1,1,1,23,47,12,,,,,,,,,,,,,,,,,,,,,,,,,,,,,,,,,,,,,,,,,,,,,,,,,,,,,,,,,,,,,,,,354.5371948000975,354.938685500063,354.9223977001384,355.02307910006493,355.42234729998745,None,left,1,0.438734499970451,355.42234729998745,None,354.9223977001384,355.02307910006493,355.02307910006493,None,355.8892775999848,None,,,,,,,11045,001,2024_Apr_13_1116,ANT,2021.2.3,59.76818309934589,
1,19,spatial,up,IC,L,,,,,,Block.xlsx,"你已经完成了整个实验（三个区组）。

请报告实验者已完成实验

非常感谢，再见！",1.5,0,1.5,left,RRLRR.png,,,,,0,1,1,1,2,0,48,18,,,,,,,,,,,,,,,,,,,,,,,,,,,,,,,,,,,,,,,,,,,,,,,,,,,,,,,,,,,,,,,,356.28994470019825,356.6913701000158,356.67397920018993,356.77437370014377,357.1762406001799,None,left,1,0.4843140998855233,357.1762406001799,None,356.67397920018993,356.77437370014377,356.77437370014377,None,357.6752359000966,None,,,,,,,11045,001,2024_Apr_13_1116,ANT,2021.2.3,59.76818309934589,
1,12,center,up,IC,R,,,,,,Block.xlsx,"你已经完成了整个实验（三个区组）。

请报告实验者已完成实验

非常感谢，再见！",0,50,1.5,right,LLRLL.png,,,,,0,1,1,1,2,1,49,11,,,,,,,,,,,,,,,,,,,,,,,,,,,,,,,,,,,,,,,,,,,,,,,,,,,,,,,,,,,,,,,,358.0759890000336,358.47702420013957,358.45976770017296,358.5610230001621,358.96106000011787,None,right,1,0.6118708997964859,358.96106000011787,None,358.45976770017296,358.5610230001621,358.5610230001621,None,359.5950054000132,None,,,,,,,11045,001,2024_Apr_13_1116,ANT,2021.2.3,59.76818309934589,
1,2,no,up,C,R,,,,,,Block.xlsx,"你已经完成了整个实验（三个区组）。

请报告实验者已完成实验

非常感谢，再见！",50,0,1.5,right,RRRRR.png,,,,,0,1,1,1,2,2,50,1,,,,,,,,,,,,,,,,,,,,,,,,,,,,,,,,,,,,,,,,,,,,,,,,,,,,,,,,,,,,,,,,359.99537390004843,360.39619010011666,360.3791736999992,360.4800220001489,360.8801590001676,None,right,1,0.4848764000926167,360.8801590001676,None,360.3791736999992,360.4800220001489,360.4800220001489,None,361.38086550007574,None,,,,,,,11045,001,2024_Apr_13_1116,ANT,2021.2.3,59.76818309934589,
1,3,no,up,IC,L,,,,,,Block.xlsx,"你已经完成了整个实验（三个区组）。

请报告实验者已完成实验

非常感谢，再见！",50,0,1.5,left,RRLRR.png,,,,,0,1,1,1,2,3,51,2,,,,,,,,,,,,,,,,,,,,,,,,,,,,,,,,,,,,,,,,,,,,,,,,,,,,,,,,,,,,,,,,361.78158400021493,362.1831769000273,362.16542640002444,362.2656100001186,362.66612390009686,None,left,1,0.5313118998892605,362.66612390009686,None,362.16542640002444,362.2656100001186,362.2656100001186,None,363.2170055001043,None,,,,,,,11045,001,2024_Apr_13_1116,ANT,2021.2.3,59.76818309934589,
1,24,spatial,down,IC,R,,,,,,Block.xlsx,"你已经完成了整个实验（三个区组）。

请报告实验者已完成实验

非常感谢，再见！",-1.5,0,-1.5,right,LLRLL.png,,,,,0,1,1,1,2,4,52,23,,,,,,,,,,,,,,,,,,,,,,,,,,,,,,,,,,,,,,,,,,,,,,,,,,,,,,,,,,,,,,,,363.6177122001536,364.0200267001055,364.0019898000173,364.10164630017243,364.5025057999883,None,right,1,0.47083089989610016,364.5025057999883,None,364.0019898000173,364.10164630017243,364.10164630017243,None,365.00319850002415,None,,,,,,,11045,001,2024_Apr_13_1116,ANT,2021.2.3,59.76818309934589,
1,23,spatial,down,IC,L,,,,,,Block.xlsx,"你已经完成了整个实验（三个区组）。

请报告实验者已完成实验

非常感谢，再见！",-1.5,0,-1.5,left,RRLRR.png,,,,,0,1,1,1,2,5,53,22,,,,,,,,,,,,,,,,,,,,,,,,,,,,,,,,,,,,,,,,,,,,,,,,,,,,,,,,,,,,,,,,365.4036252000369,365.80558340018615,365.7876191001851,365.88895140006207,366.2893088001292,None,left,1,0.4998042001388967,366.2893088001292,None,365.7876191001851,365.88895140006207,365.88895140006207,None,366.80570470006205,None,,,,,,,11045,001,2024_Apr_13_1116,ANT,2021.2.3,59.76818309934589,
1,15,center,down,IC,L,,,,,,Block.xlsx,"你已经完成了整个实验（三个区组）。

请报告实验者已完成实验

非常感谢，再见！",0,50,-1.5,left,RRLRR.png,,,,,0,1,1,1,2,6,54,14,,,,,,,,,,,,,,,,,,,,,,,,,,,,,,,,,,,,,,,,,,,,,,,,,,,,,,,,,,,,,,,,367.20681820018217,367.6081670001149,367.59037120011635,367.69050860009156,368.0921309001278,None,left,1,0.6651306001003832,368.0921309001278,None,367.59037120011635,367.69050860009156,367.69050860009156,None,368.7759268002119,None,,,,,,,11045,001,2024_Apr_13_1116,ANT,2021.2.3,59.76818309934589,
1,20,spatial,up,IC,R,,,,,,Block.xlsx,"你已经完成了整个实验（三个区组）。

请报告实验者已完成实验

非常感谢，再见！",1.5,0,1.5,right,LLRLL.png,,,,,0,1,1,1,2,7,55,19,,,,,,,,,,,,,,,,,,,,,,,,,,,,,,,,,,,,,,,,,,,,,,,,,,,,,,,,,,,,,,,,369.1761176001746,369.57664550002664,369.55998640018515,369.6607361000497,370.0607712001074,None,right,1,0.5766827000770718,370.0607712001074,None,369.55998640018515,369.6607361000497,369.6607361000497,None,370.661403400125,None,,,,,,,11045,001,2024_Apr_13_1116,ANT,2021.2.3,59.76818309934589,
1,2,no,up,C,R,,,,,,Block.xlsx,"你已经完成了整个实验（三个区组）。

请报告实验者已完成实验

非常感谢，再见！",50,0,1.5,right,RRRRR.png,,,,,0,1,1,1,2,8,56,1,,,,,,,,,,,,,,,,,,,,,,,,,,,,,,,,,,,,,,,,,,,,,,,,,,,,,,,,,,,,,,,,371.0624480000697,371.4650907001924,371.4461857001297,371.5472887000069,371.9467891000677,None,right,1,0.5227945998776704,371.9467891000677,None,371.4461857001297,371.5472887000069,371.5472887000069,None,372.49761830014177,None,,,,,,,11045,001,2024_Apr_13_1116,ANT,2021.2.3,59.76818309934589,
1,7,no,down,IC,L,,,,,,Block.xlsx,"你已经完成了整个实验（三个区组）。

请报告实验者已完成实验

非常感谢，再见！",50,0,-1.5,left,RRLRR.png,,,,,0,1,1,1,2,9,57,6,,,,,,,,,,,,,,,,,,,,,,,,,,,,,,,,,,,,,,,,,,,,,,,,,,,,,,,,,,,,,,,,372.89839210011996,373.2988303001039,373.28409950016066,373.38343150005676,373.7837731000036,None,left,1,0.6938020999077708,373.7837731000036,None,373.28409950016066,373.38343150005676,373.38343150005676,None,374.50085860001855,None,,,,,,,11045,001,2024_Apr_13_1116,ANT,2021.2.3,59.76818309934589,
1,4,no,up,IC,R,,,,,,Block.xlsx,"你已经完成了整个实验（三个区组）。

请报告实验者已完成实验

非常感谢，再见！",50,0,1.5,right,LLRLL.png,,,,,0,1,1,1,2,10,58,3,,,,,,,,,,,,,,,,,,,,,,,,,,,,,,,,,,,,,,,,,,,,,,,,,,,,,,,,,,,,,,,,374.90116700017825,375.3020804000553,375.28651520004496,375.40212139999494,375.7860789000988,None,right,1,0.5952712998259813,375.7860789000988,None,375.28651520004496,375.40212139999494,375.3863318001386,None,376.40375350019895,None,,,,,,,11045,001,2024_Apr_13_1116,ANT,2021.2.3,59.76818309934589,
1,15,center,down,IC,L,,,,,,Block.xlsx,"你已经完成了整个实验（三个区组）。

请报告实验者已完成实验

非常感谢，再见！",0,50,-1.5,left,RRLRR.png,,,,,0,1,1,1,2,11,59,14,,,,,,,,,,,,,,,,,,,,,,,,,,,,,,,,,,,,,,,,,,,,,,,,,,,,,,,,,,,,,,,,376.8047859000508,377.2053667001892,377.1884597002063,377.2887123001274,377.68930530012585,None,left,1,0.5402999999932945,377.68930530012585,None,377.1884597002063,377.2887123001274,377.2887123001274,None,378.2566074000206,None,,,,,,,11045,001,2024_Apr_13_1116,ANT,2021.2.3,59.76818309934589,
1,18,spatial,up,C,R,,,,,,Block.xlsx,"你已经完成了整个实验（三个区组）。

请报告实验者已完成实验

非常感谢，再见！",1.5,0,1.5,right,RRRRR.png,,,,,0,1,1,1,2,12,60,17,,,,,,,,,,,,,,,,,,,,,,,,,,,,,,,,,,,,,,,,,,,,,,,,,,,,,,,,,,,,,,,,378.65698800003156,379.05894400016405,379.0420580999926,379.15887899999507,379.5416818000376,None,right,1,0.4557362000923604,379.5416818000376,None,379.0420580999926,379.15887899999507,379.14115070016123,None,380.0259635001421,None,,,,,,,11045,001,2024_Apr_13_1116,ANT,2021.2.3,59.76818309934589,
1,2,no,up,C,R,,,,,,Block.xlsx,"你已经完成了整个实验（三个区组）。

请报告实验者已完成实验

非常感谢，再见！",50,0,1.5,right,RRRRR.png,,,,,0,1,1,1,2,13,61,1,,,,,,,,,,,,,,,,,,,,,,,,,,,,,,,,,,,,,,,,,,,,,,,,,,,,,,,,,,,,,,,,380.4262161999941,380.82869260013103,380.8107207000721,380.91138230008073,381.31105310004205,None,right,1,0.4467031001113355,381.31105310004205,None,380.8107207000721,380.91138230008073,380.91138230008073,None,381.77903670002706,None,,,,,,,11045,001,2024_Apr_13_1116,ANT,2021.2.3,59.76818309934589,
1,17,spatial,up,C,L,,,,,,Block.xlsx,"你已经完成了整个实验（三个区组）。

请报告实验者已完成实验

非常感谢，再见！",1.5,0,1.5,left,LLLLL.png,,,,,0,1,1,1,2,14,62,16,,,,,,,,,,,,,,,,,,,,,,,,,,,,,,,,,,,,,,,,,,,,,,,,,,,,,,,,,,,,,,,,382.1791652000975,382.58151300018653,382.56294750003144,382.6645115001593,383.06368000013754,None,left,1,0.43018489982932806,383.06368000013754,None,382.56294750003144,382.6645115001593,382.6645115001593,None,383.5143066002056,None,,,,,,,11045,001,2024_Apr_13_1116,ANT,2021.2.3,59.76818309934589,
1,22,spatial,down,C,R,,,,,,Block.xlsx,"你已经完成了整个实验（三个区组）。

请报告实验者已完成实验

非常感谢，再见！",-1.5,0,-1.5,right,RRRRR.png,,,,,0,1,1,1,2,15,63,21,,,,,,,,,,,,,,,,,,,,,,,,,,,,,,,,,,,,,,,,,,,,,,,,,,,,,,,,,,,,,,,,383.91488460008986,384.316852300195,384.29875330021605,384.3993418000173,384.79979750001803,None,right,1,0.5581067001912743,384.79979750001803,None,384.29875330021605,384.3993418000173,384.3993418000173,None,385.38391200010665,None,,,,,,,11045,001,2024_Apr_13_1116,ANT,2021.2.3,59.76818309934589,
1,1,no,up,C,L,,,,,,Block.xlsx,"你已经完成了整个实验（三个区组）。

请报告实验者已完成实验

非常感谢，再见！",50,0,1.5,left,LLLLL.png,,,,,0,1,1,1,2,16,64,0,,,,,,,,,,,,,,,,,,,,,,,,,,,,,,,,,,,,,,,,,,,,,,,,,,,,,,,,,,,,,,,,385.7846588001121,386.1852836001199,386.1683380000759,386.2698973000515,386.6689639000688,None,left,1,0.48120330017991364,386.6689639000688,None,386.1683380000759,386.2698973000515,386.2698973000515,None,387.16976030007936,None,,,,,,,11045,001,2024_Apr_13_1116,ANT,2021.2.3,59.76818309934589,
1,18,spatial,up,C,R,,,,,,Block.xlsx,"你已经完成了整个实验（三个区组）。

请报告实验者已完成实验

非常感谢，再见！",1.5,0,1.5,right,RRRRR.png,,,,,0,1,1,1,2,17,65,17,,,,,,,,,,,,,,,,,,,,,,,,,,,,,,,,,,,,,,,,,,,,,,,,,,,,,,,,,,,,,,,,387.5703059001826,387.9716881001368,387.95430500013754,388.05483150016516,388.45493630017154,None,right,1,0.4631264000199735,388.45493630017154,None,387.95430500013754,388.05483150016516,388.05483150016516,None,388.9390134999994,None,,,,,,,11045,001,2024_Apr_13_1116,ANT,2021.2.3,59.76818309934589,
1,7,no,down,IC,L,,,,,,Block.xlsx,"你已经完成了整个实验（三个区组）。

请报告实验者已完成实验

非常感谢，再见！",50,0,-1.5,left,RRLRR.png,,,,,0,1,1,1,2,18,66,6,,,,,,,,,,,,,,,,,,,,,,,,,,,,,,,,,,,,,,,,,,,,,,,,,,,,,,,,,,,,,,,,389.3406080000568,389.74055410013534,389.72541810013354,389.840701200068,390.22670940007083,None,left,1,0.675359700107947,390.22670940007083,None,389.72541810013354,389.840701200068,389.8255507000722,None,390.92572350008413,None,,,,,,,11045,001,2024_Apr_13_1116,ANT,2021.2.3,59.76818309934589,
1,24,spatial,down,IC,R,,,,,,Block.xlsx,"你已经完成了整个实验（三个区组）。

请报告实验者已完成实验

非常感谢，再见！",-1.5,0,-1.5,right,LLRLL.png,,,,,0,1,1,1,2,19,67,23,,,,,,,,,,,,,,,,,,,,,,,,,,,,,,,,,,,,,,,,,,,,,,,,,,,,,,,,,,,,,,,,391.32618960016407,391.72785140015185,391.71239660005085,391.8271978001576,392.21076070005074,None,right,1,0.49919579993002117,392.21076070005074,None,391.71239660005085,391.8271978001576,391.81120630004443,None,392.7283426001668,None,,,,,,,11045,001,2024_Apr_13_1116,ANT,2021.2.3,59.76818309934589,
1,21,spatial,down,C,L,,,,,,Block.xlsx,"你已经完成了整个实验（三个区组）。

请报告实验者已完成实验

非常感谢，再见！",-1.5,0,-1.5,left,LLLLL.png,,,,,0,1,1,1,2,20,68,20,,,,,,,,,,,,,,,,,,,,,,,,,,,,,,,,,,,,,,,,,,,,,,,,,,,,,,,,,,,,,,,,393.1289247001987,393.5295034002047,393.51355560007505,393.6150898002088,394.01408290001564,None,left,1,0.4004444999154657,394.01408290001564,None,393.51355560007505,393.6150898002088,393.6150898002088,None,394.43084190017544,None,,,,,,,11045,001,2024_Apr_13_1116,ANT,2021.2.3,59.76818309934589,
1,3,no,up,IC,L,,,,,,Block.xlsx,"你已经完成了整个实验（三个区组）。

请报告实验者已完成实验

非常感谢，再见！",50,0,1.5,left,RRLRR.png,,,,,0,1,1,1,2,21,69,2,,,,,,,,,,,,,,,,,,,,,,,,,,,,,,,,,,,,,,,,,,,,,,,,,,,,,,,,,,,,,,,,394.832078400068,395.23317910009064,395.2154489001259,395.31561060016975,395.7165930001065,None,left,1,0.6573398998007178,395.7165930001065,None,395.2154489001259,395.31561060016975,395.31561060016975,None,396.40041670016944,None,,,,,,,11045,001,2024_Apr_13_1116,ANT,2021.2.3,59.76818309934589,
1,8,no,down,IC,R,,,,,,Block.xlsx,"你已经完成了整个实验（三个区组）。

请报告实验者已完成实验

非常感谢，再见！",50,0,-1.5,right,LLRLL.png,,,,,0,1,1,1,2,22,70,7,,,,,,,,,,,,,,,,,,,,,,,,,,,,,,,,,,,,,,,,,,,,,,,,,,,,,,,,,,,,,,,,396.8010651001241,397.2023770001251,397.1849917001091,397.2853817001451,397.68562570004724,None,right,1,0.6325063998810947,397.68562570004724,None,397.1849917001091,397.2853817001451,397.2853817001451,None,398.33674520021304,None,,,,,,,11045,001,2024_Apr_13_1116,ANT,2021.2.3,59.76818309934589,
1,15,center,down,IC,L,,,,,,Block.xlsx,"你已经完成了整个实验（三个区组）。

请报告实验者已完成实验

非常感谢，再见！",0,50,-1.5,left,RRLRR.png,,,,,0,1,1,1,2,23,71,14,,,,,,,,,,,,,,,,,,,,,,,,,,,,,,,,,,,,,,,,,,,,,,,,,,,,,,,,,,,,,,,,398.7374154001009,399.1379089001566,399.1214164001867,399.2232775001321,399.6247869001236,None,left,1,0.7894572999794036,399.6247869001236,None,399.1214164001867,399.2232775001321,399.2232775001321,None,400.44010690017603,None,,,,,,,11045,001,2024_Apr_13_1116,ANT,2021.2.3,59.76818309934589,
1,16,center,down,IC,R,,,,,,Block.xlsx,"你已经完成了整个实验（三个区组）。

请报告实验者已完成实验

非常感谢，再见！",0,50,-1.5,right,LLRLL.png,,,,,0,1,1,1,3,0,72,15,,,,,,,,,,,,,,,,,,,,,,,,,,,,,,,,,,,,,,,,,,,,,,,,,,,,,,,,,,,,,,,,400.84075740003027,401.2419443000108,401.2248273000587,401.32585180015303,401.7262520000804,None,right,1,0.5517778999637812,401.7262520000804,None,401.2248273000587,401.32585180015303,401.32585180015303,None,402.30936000007205,None,,,,,,,11045,001,2024_Apr_13_1116,ANT,2021.2.3,59.76818309934589,
1,11,center,up,IC,L,,,,,,Block.xlsx,"你已经完成了整个实验（三个区组）。

请报告实验者已完成实验

非常感谢，再见！",0,50,1.5,left,RRLRR.png,,,,,0,1,1,1,3,1,73,10,,,,,,,,,,,,,,,,,,,,,,,,,,,,,,,,,,,,,,,,,,,,,,,,,,,,,,,,,,,,,,,,402.71005440014414,403.1123230000958,403.09390410012566,403.1956166001037,403.59521360020153,None,left,1,0.6187598998658359,403.59521360020153,None,403.09390410012566,403.1956166001037,403.1956166001037,None,404.24543910007924,None,,,,,,,11045,001,2024_Apr_13_1116,ANT,2021.2.3,59.76818309934589,
1,20,spatial,up,IC,R,,,,,,Block.xlsx,"你已经完成了整个实验（三个区组）。

请报告实验者已完成实验

非常感谢，再见！",1.5,0,1.5,right,LLRLL.png,,,,,0,1,1,1,3,2,74,19,,,,,,,,,,,,,,,,,,,,,,,,,,,,,,,,,,,,,,,,,,,,,,,,,,,,,,,,,,,,,,,,404.64620120008476,405.0481345001608,405.0302566001192,405.1307290000841,405.5314303000923,None,right,1,0.49870720016770065,405.5314303000923,None,405.0302566001192,405.1307290000841,405.1307290000841,None,406.04815819999203,None,,,,,,,11045,001,2024_Apr_13_1116,ANT,2021.2.3,59.76818309934589,
1,24,spatial,down,IC,R,,,,,,Block.xlsx,"你已经完成了整个实验（三个区组）。

请报告实验者已完成实验

非常感谢，再见！",-1.5,0,-1.5,right,LLRLL.png,,,,,0,1,1,1,3,3,75,23,,,,,,,,,,,,,,,,,,,,,,,,,,,,,,,,,,,,,,,,,,,,,,,,,,,,,,,,,,,,,,,,406.449271599995,406.84984060004354,406.83286580001004,406.9357607001439,407.33474910003133,None,right,1,0.6078281002119184,407.33474910003133,None,406.83286580001004,406.9357607001439,406.9357607001439,None,407.96793470019475,None,,,,,,,11045,001,2024_Apr_13_1116,ANT,2021.2.3,59.76818309934589,
1,6,no,down,C,R,,,,,,Block.xlsx,"你已经完成了整个实验（三个区组）。

请报告实验者已完成实验

非常感谢，再见！",50,0,-1.5,right,RRRRR.png,,,,,0,1,1,1,3,4,76,5,,,,,,,,,,,,,,,,,,,,,,,,,,,,,,,,,,,,,,,,,,,,,,,,,,,,,,,,,,,,,,,,408.36854420020245,408.7697986001149,408.75246740016155,408.8526823001448,409.25325600011274,None,right,1,0.5773384000640363,409.25325600011274,None,408.75246740016155,408.8526823001448,408.8526823001448,None,409.8547896000091,None,,,,,,,11045,001,2024_Apr_13_1116,ANT,2021.2.3,59.76818309934589,
1,23,spatial,down,IC,L,,,,,,Block.xlsx,"你已经完成了整个实验（三个区组）。

请报告实验者已完成实验

非常感谢，再见！",-1.5,0,-1.5,left,RRLRR.png,,,,,0,1,1,1,3,5,77,22,,,,,,,,,,,,,,,,,,,,,,,,,,,,,,,,,,,,,,,,,,,,,,,,,,,,,,,,,,,,,,,,410.25508210016415,410.6552393999882,410.6390719001647,410.73924980009906,411.1399330000859,None,left,1,0.5309594999998808,411.1399330000859,None,410.6390719001647,410.73924980009906,410.73924980009906,None,411.6903043000493,None,,,,,,,11045,001,2024_Apr_13_1116,ANT,2021.2.3,59.76818309934589,
1,5,no,down,C,L,,,,,,Block.xlsx,"你已经完成了整个实验（三个区组）。

请报告实验者已完成实验

非常感谢，再见！",50,0,-1.5,left,LLLLL.png,,,,,0,1,1,1,3,6,78,4,,,,,,,,,,,,,,,,,,,,,,,,,,,,,,,,,,,,,,,,,,,,,,,,,,,,,,,,,,,,,,,,412.0912795001641,412.49142260011286,412.4749410999939,412.57665460021235,412.9775804001838,None,left,1,0.566162999952212,412.9775804001838,None,412.4749410999939,412.57665460021235,412.57665460021235,None,413.5597438002005,None,,,,,,,11045,001,2024_Apr_13_1116,ANT,2021.2.3,59.76818309934589,
1,12,center,up,IC,R,,,,,,Block.xlsx,"你已经完成了整个实验（三个区组）。

请报告实验者已完成实验

非常感谢，再见！",0,50,1.5,right,LLRLL.png,,,,,0,1,1,1,3,7,79,11,,,,,,,,,,,,,,,,,,,,,,,,,,,,,,,,,,,,,,,,,,,,,,,,,,,,,,,,,,,,,,,,413.9603569000028,414.3625023001805,414.34417220018804,414.44653930002823,414.8448861001525,None,right,1,0.721497599966824,414.8448861001525,None,414.34417220018804,414.44653930002823,414.44653930002823,None,415.59599870000966,None,,,,,,,11045,001,2024_Apr_13_1116,ANT,2021.2.3,59.76818309934589,
1,12,center,up,IC,R,,,,,,Block.xlsx,"你已经完成了整个实验（三个区组）。

请报告实验者已完成实验

非常感谢，再见！",0,50,1.5,right,LLRLL.png,,,,,0,1,1,1,3,8,80,11,,,,,,,,,,,,,,,,,,,,,,,,,,,,,,,,,,,,,,,,,,,,,,,,,,,,,,,,,,,,,,,,415.99673220003024,416.39785740012303,416.38053770014085,416.4819502001628,416.88134050020017,None,right,1,0.6214689000044018,416.88134050020017,None,416.38053770014085,416.4819502001628,416.4819502001628,None,417.53287340002134,None,,,,,,,11045,001,2024_Apr_13_1116,ANT,2021.2.3,59.76818309934589,
1,19,spatial,up,IC,L,,,,,,Block.xlsx,"你已经完成了整个实验（三个区组）。

请报告实验者已完成实验

非常感谢，再见！",1.5,0,1.5,left,RRLRR.png,,,,,0,1,1,1,3,9,81,18,,,,,,,,,,,,,,,,,,,,,,,,,,,,,,,,,,,,,,,,,,,,,,,,,,,,,,,,,,,,,,,,417.9329429999925,418.3336755000055,418.31701520015486,418.4169393000193,418.8179235002026,None,left,1,0.4063780999276787,418.8179235002026,None,418.31701520015486,418.4169393000193,418.4169393000193,None,419.25178800011054,None,,,,,,,11045,001,2024_Apr_13_1116,ANT,2021.2.3,59.76818309934589,
1,17,spatial,up,C,L,,,,,,Block.xlsx,"你已经完成了整个实验（三个区组）。

请报告实验者已完成实验

非常感谢，再见！",1.5,0,1.5,left,LLLLL.png,,,,,0,1,1,1,3,10,82,16,,,,,,,,,,,,,,,,,,,,,,,,,,,,,,,,,,,,,,,,,,,,,,,,,,,,,,,,,,,,,,,,419.6521171000786,420.0529833000619,420.03756280010566,420.1530152000487,420.53802750003524,None,left,1,0.37263110000640154,420.53802750003524,None,420.03756280010566,420.1530152000487,420.1375307000708,None,420.9375210001599,None,,,,,,,11045,001,2024_Apr_13_1116,ANT,2021.2.3,59.76818309934589,
1,9,center,up,C,L,,,,,,Block.xlsx,"你已经完成了整个实验（三个区组）。

请报告实验者已完成实验

非常感谢，再见！",0,50,1.5,left,LLLLL.png,,,,,0,1,1,1,3,11,83,8,,,,,,,,,,,,,,,,,,,,,,,,,,,,,,,,,,,,,,,,,,,,,,,,,,,,,,,,,,,,,,,,421.3380847000517,421.73864780017175,421.72310070018284,421.8224488000851,422.2240428000223,None,left,1,0.4946552999317646,422.2240428000223,None,421.72310070018284,421.8224488000851,421.8224488000851,None,422.74059130018577,None,,,,,,,11045,001,2024_Apr_13_1116,ANT,2021.2.3,59.76818309934589,
1,10,center,up,C,R,,,,,,Block.xlsx,"你已经完成了整个实验（三个区组）。

请报告实验者已完成实验

非常感谢，再见！",0,50,1.5,right,RRRRR.png,,,,,0,1,1,1,3,12,84,9,,,,,,,,,,,,,,,,,,,,,,,,,,,,,,,,,,,,,,,,,,,,,,,,,,,,,,,,,,,,,,,,423.1408383999951,423.5429416000843,423.5249777000863,423.6250285001006,424.0263446001336,None,right,1,0.42089590011164546,424.0263446001336,None,423.5249777000863,423.6250285001006,423.6250285001006,None,424.47647600015625,None,,,,,,,11045,001,2024_Apr_13_1116,ANT,2021.2.3,59.76818309934589,
1,15,center,down,IC,L,,,,,,Block.xlsx,"你已经完成了整个实验（三个区组）。

请报告实验者已完成实验

非常感谢，再见！",0,50,-1.5,left,RRLRR.png,,,,,0,1,1,1,3,13,85,14,,,,,,,,,,,,,,,,,,,,,,,,,,,,,,,,,,,,,,,,,,,,,,,,,,,,,,,,,,,,,,,,424.8769433000125,425.27783960010856,425.2614776000846,425.361369300168,425.76150990021415,None,left,1,0.7020767999347299,425.76150990021415,None,425.2614776000846,425.361369300168,425.361369300168,None,426.4791506000329,None,,,,,,,11045,001,2024_Apr_13_1116,ANT,2021.2.3,59.76818309934589,
1,10,center,up,C,R,,,,,,Block.xlsx,"你已经完成了整个实验（三个区组）。

请报告实验者已完成实验

非常感谢，再见！",0,50,1.5,right,RRRRR.png,,,,,0,1,1,1,3,14,86,9,,,,,,,,,,,,,,,,,,,,,,,,,,,,,,,,,,,,,,,,,,,,,,,,,,,,,,,,,,,,,,,,426.88029140001163,427.28070160001516,427.264070100151,427.3639279000927,427.764653300168,None,right,1,0.4023762000724673,427.764653300168,None,427.264070100151,427.3639279000927,427.3639279000927,None,428.19850920001045,None,,,,,,,11045,001,2024_Apr_13_1116,ANT,2021.2.3,59.76818309934589,
1,5,no,down,C,L,,,,,,Block.xlsx,"你已经完成了整个实验（三个区组）。

请报告实验者已完成实验

非常感谢，再见！",50,0,-1.5,left,LLLLL.png,,,,,0,1,1,1,3,15,87,4,,,,,,,,,,,,,,,,,,,,,,,,,,,,,,,,,,,,,,,,,,,,,,,,,,,,,,,,,,,,,,,,428.59891900001094,429.0006579000037,428.9828938001301,429.0840408001095,429.48564400011674,None,left,1,0.48133260011672974,429.48564400011674,None,428.9828938001301,429.0840408001095,429.0840408001095,None,429.9845085002016,None,,,,,,,11045,001,2024_Apr_13_1116,ANT,2021.2.3,59.76818309934589,
1,3,no,up,IC,L,,,,,,Block.xlsx,"你已经完成了整个实验（三个区组）。

请报告实验者已完成实验

非常感谢，再见！",50,0,1.5,left,RRLRR.png,,,,,0,1,1,1,3,16,88,2,,,,,,,,,,,,,,,,,,,,,,,,,,,,,,,,,,,,,,,,,,,,,,,,,,,,,,,,,,,,,,,,430.38643660000525,430.78613240015693,430.7696144001093,430.8697626001667,431.2711333001498,None,left,1,0.6236574999056756,431.2711333001498,None,430.7696144001093,430.8697626001667,430.8697626001667,None,431.92050830018707,None,,,,,,,11045,001,2024_Apr_13_1116,ANT,2021.2.3,59.76818309934589,
1,17,spatial,up,C,L,,,,,,Block.xlsx,"你已经完成了整个实验（三个区组）。

请报告实验者已完成实验

非常感谢，再见！",1.5,0,1.5,left,LLLLL.png,,,,,0,1,1,1,3,17,89,16,,,,,,,,,,,,,,,,,,,,,,,,,,,,,,,,,,,,,,,,,,,,,,,,,,,,,,,,,,,,,,,,432.3216939000413,432.72339739999734,432.7055240001064,432.80609850003384,433.2059791001957,None,left,1,0.4668900999240577,433.2059791001957,None,432.7055240001064,432.80609850003384,432.80609850003384,None,433.6901680000592,None,,,,,,,11045,001,2024_Apr_13_1116,ANT,2021.2.3,59.76818309934589,
1,11,center,up,IC,L,,,,,,Block.xlsx,"你已经完成了整个实验（三个区组）。

请报告实验者已完成实验

非常感谢，再见！",0,50,1.5,left,RRLRR.png,,,,,0,1,1,1,3,18,90,10,,,,,,,,,,,,,,,,,,,,,,,,,,,,,,,,,,,,,,,,,,,,,,,,,,,,,,,,,,,,,,,,434.09104750002734,434.49245550017804,434.47469930001535,434.5755482001696,434.9758329000324,None,left,1,0.43171520018950105,434.9758329000324,None,434.47469930001535,434.5755482001696,434.5755482001696,None,435.42594570014626,None,,,,,,,11045,001,2024_Apr_13_1116,ANT,2021.2.3,59.76818309934589,
1,10,center,up,C,R,,,,,,Block.xlsx,"你已经完成了整个实验（三个区组）。

请报告实验者已完成实验

非常感谢，再见！",0,50,1.5,right,RRRRR.png,,,,,0,1,1,1,3,19,91,9,,,,,,,,,,,,,,,,,,,,,,,,,,,,,,,,,,,,,,,,,,,,,,,,,,,,,,,,,,,,,,,,435.8267352001276,436.2291071000509,436.21115129999816,436.3107974000741,436.7114698002115,None,right,1,0.5120512000285089,436.7114698002115,None,436.21115129999816,436.3107974000741,436.3107974000741,None,437.2454910001252,None,,,,,,,11045,001,2024_Apr_13_1116,ANT,2021.2.3,59.76818309934589,
1,11,center,up,IC,L,,,,,,Block.xlsx,"你已经完成了整个实验（三个区组）。

请报告实验者已完成实验

