TrialType,TrialNumber,WarningType,TargetType,FlankerType,TargetDirection,W,f,Y,corr,imageFile,condition,endtext,Yw,Yf,Yt,Corr,imagefile,trials_3.thisRepN,trials_3.thisTrialN,trials_3.thisN,trials_3.thisIndex,trials_2.thisRepN,trials_2.thisTrialN,trials_2.thisN,trials_2.thisIndex,trials.thisRepN,trials.thisTrialN,trials.thisN,trials.thisIndex,instr.started,instr.stopped,key_resp.keys,key_resp.rt,key_resp.started,key_resp.stopped,image.started,image.stopped,key_resp_6.keys,key_resp_6.rt,key_resp_6.started,key_resp_6.stopped,EX_L.started,EX_L.stopped,AL.started,AL.stopped,key_resp_7.keys,key_resp_7.rt,key_resp_7.started,key_resp_7.stopped,EX_R.started,EX_R.stopped,RR.started,RR.stopped,key_resp_8.keys,key_resp_8.rt,key_resp_8.started,key_resp_8.stopped,image_2.started,image_2.stopped,key_resp_9.keys,key_resp_9.rt,key_resp_9.started,key_resp_9.stopped,image_3.started,image_3.stopped,key_resp_10.keys,key_resp_10.rt,key_resp_10.started,key_resp_10.stopped,fix.started,fix.stopped,war.started,war.stopped,tar.started,tar.stopped,key_resp_4.keys,key_resp_4.corr,key_resp_4.rt,key_resp_4.started,key_resp_4.stopped,fix2.started,fix2.stopped,fix_2.started,fix_2.stopped,Feedback.started,Feedback.stopped,key_resp_2.keys,key_resp_2.rt,key_resp_2.started,key_resp_2.stopped,text_5.started,text_5.stopped,fix2_1.started,fix2_1.stopped,Warn.started,Warn.stopped,Tar.started,Tar.stopped,key_resp_5.keys,key_resp_5.corr,key_resp_5.rt,key_resp_5.started,key_resp_5.stopped,Fix_2.started,Fix_2.stopped,fix2_2.started,fix2_2.stopped,text_4.started,text_4.stopped,key_resp_3.keys,key_resp_3.rt,key_resp_3.started,key_resp_3.stopped,text_3.started,text_3.stopped,participant,session,date,expName,psychopyVersion,frameRate,
,,,,,,,,,,,,,,,,,,,,,,,,,,,,,,17.913591799966525,None,space,3.1282890000147745,17.913591799966525,None,,,,,,,,,,,,,,,,,,,,,,,,,,,,,,,,,,,,,,,,,,,,,,,,,,,,,,,,,,,,,,,,,,,,,,,,,,,,,,,,,11042,001,2024_Mar_15_1607,ANT,2021.2.3,59.97792812894114,
,,,,,,,,,,,,,,,,,,,,,,,,,,,,,,,,,,,,21.06846989999758,None,space,8.741147099994123,21.06846989999758,None,,,,,,,,,,,,,,,,,,,,,,,,,,,,,,,,,,,,,,,,,,,,,,,,,,,,,,,,,,,,,,,,,,,,,,,,,,,11042,001,2024_Mar_15_1607,ANT,2021.2.3,59.97792812894114,
,,,,,,,,,,,,,,,,,,,,,,,,,,,,,,,,,,,,,,,,,,29.831554299977142,None,29.831554299977142,None,left,2.8819296000292525,29.831554299977142,None,,,,,,,,,,,,,,,,,,,,,,,,,,,,,,,,,,,,,,,,,,,,,,,,,,,,,,,,,,,,,,,,,,,11042,001,2024_Mar_15_1607,ANT,2021.2.3,59.97792812894114,
,,,,,,,,,,,,,,,,,,,,,,,,,,,,,,,,,,,,,,,,,,,,,,,,,,32.73603580001509,None,32.73603580001509,None,right,0.8256386999855749,32.73603580001509,None,,,,,,,,,,,,,,,,,,,,,,,,,,,,,,,,,,,,,,,,,,,,,,,,,,,,,,,,,,,11042,001,2024_Mar_15_1607,ANT,2021.2.3,59.97792812894114,
,,,,,,,,,,,,,,,,,,,,,,,,,,,,,,,,,,,,,,,,,,,,,,,,,,,,,,,,,,33.58707389998017,None,space,3.0712024999666028,33.58707389998017,None,,,,,,,,,,,,,,,,,,,,,,,,,,,,,,,,,,,,,,,,,,,,,,,,,,,,,11042,001,2024_Mar_15_1607,ANT,2021.2.3,59.97792812894114,
,,,,,,,,,,,,,,,,,,,,,,,,,,,,,,,,,,,,,,,,,,,,,,,,,,,,,,,,,,,,,,,,36.67522189998999,None,space,3.7507303000311367,36.67522189998999,None,,,,,,,,,,,,,,,,,,,,,,,,,,,,,,,,,,,,,,,,,,,,,,,11042,001,2024_Mar_15_1607,ANT,2021.2.3,59.97792812894114,
0,11,spatial,down,C,L,-1.5,0,-1.5,left,LLLLL.png,,,,,,,,0,0,0,10,,,,,,,,,,,,,,,,,,,,,,,,,,,,,,,,,,,,,,,,,,,,,,,,,40.53125379997073,40.93272420001449,40.91527689999202,41.01529379998101,41.41622219997225,None,left,1,0.5937392999767326,41.41622219997225,None,40.91527689999202,41.01529379998101,41.01529379998101,None,42.049908599990886,None,,,,,,,,,,,,,,,,,,,,,,,,,,,,,,11042,001,2024_Mar_15_1607,ANT,2021.2.3,59.97792812894114,
0,12,spatial,down,IC,R,-1.5,0,-1.5,right,LLRLL.png,,,,,,,,0,1,1,11,,,,,,,,,,,,,,,,,,,,,,,,,,,,,,,,,,,,,,,,,,,,,,,,,44.05302280001342,44.45361019996926,44.438224699988496,44.55391329998383,44.93766809999943,None,right,1,0.5443222000030801,44.93766809999943,None,44.438224699988496,44.55391329998383,44.53713630000129,None,45.50463719997788,None,,,,,,,,,,,,,,,,,,,,,,,,,,,,,,11042,001,2024_Mar_15_1607,ANT,2021.2.3,59.97792812894114,
0,1,no,up,C,L,50,0,1.5,left,LLLLL.png,,,,,,,,0,2,2,0,,,,,,,,,,,,,,,,,,,,,,,,,,,,,,,,,,,,,,,,,,,,,,,,,47.50824479997391,47.90864550002152,47.89314830000512,47.99376400001347,48.39304819999961,None,left,1,0.5290932999923825,48.39304819999961,None,47.89314830000512,47.99376400001347,47.99376400001347,None,48.94351999997161,None,,,,,,,,,,,,,,,,,,,,,,,,,,,,,,11042,001,2024_Mar_15_1607,ANT,2021.2.3,59.97792812894114,
0,7,center,down,C,R,0,50,-1.5,right,RRRRR.png,,,,,,,,0,3,3,6,,,,,,,,,,,,,,,,,,,,,,,,,,,,,,,,,,,,,,,,,,,,,,,,,50.94722739997087,51.34740069997497,51.330696500022896,51.4305637999787,51.83134209999116,None,right,1,0.6670280999969691,51.83134209999116,None,51.330696500022896,51.4305637999787,51.4305637999787,None,52.51559189998079,None,,,,,,,,,,,,,,,,,,,,,,,,,,,,,,11042,001,2024_Mar_15_1607,ANT,2021.2.3,59.97792812894114,
0,3,no,down,C,R,50,0,-1.5,right,RRRRR.png,,,,,,,,0,4,4,2,,,,,,,,,,,,,,,,,,,,,,,,,,,,,,,,,,,,,,,,,,,,,,,,,54.518541599973105,54.920588699984364,54.902648199989926,55.00287359999493,55.403817699989304,None,right,1,0.48651049996260554,55.403817699989304,None,54.902648199989926,55.00287359999493,55.00287359999493,None,55.92079950001789,None,,,,,,,,,,,,,,,,,,,,,,,,,,,,,,11042,001,2024_Mar_15_1607,ANT,2021.2.3,59.97792812894114,
0,5,center,up,C,L,0,50,1.5,left,LLLLL.png,,,,,,,,0,5,5,4,,,,,,,,,,,,,,,,,,,,,,,,,,,,,,,,,,,,,,,,,,,,,,,,,57.92398129997309,58.325660899979994,58.30792950000614,58.40956280002138,58.809869099990465,None,left,1,0.4726743000210263,58.809869099990465,None,58.30792950000614,58.40956280002138,58.40956280002138,None,59.30916160001652,None,,,,,,,,,,,,,,,,,,,,,,,,,,,,,,11042,001,2024_Mar_15_1607,ANT,2021.2.3,59.97792812894114,
0,10,spatial,up,IC,L,1.5,0,1.5,left,RRLRR.png,,,,,,,,0,6,6,9,,,,,,,,,,,,,,,,,,,,,,,,,,,,,,,,,,,,,,,,,,,,,,,,,61.31229259999236,61.71293340000557,61.696448599977884,61.797061200020835,62.19672519998858,None,left,1,0.5180470999912359,62.19672519998858,None,61.696448599977884,61.797061200020835,61.797061200020835,None,62.73104899999453,None,,,,,,,,,,,,,,,,,,,,,,,,,,,,,,11042,001,2024_Mar_15_1607,ANT,2021.2.3,59.97792812894114,
0,9,spatial,up,C,R,1.5,0,1.5,right,RRRRR.png,,,,,,,,0,7,7,8,,,,,,,,,,,,,,,,,,,,,,,,,,,,,,,,,,,,,,,,,,,,,,,,,64.73410790000344,65.13517630001297,65.11901510000462,65.21835159999318,65.61931659997208,None,left,0,0.2714235999737866,65.61931659997208,None,65.11901510000462,65.21835159999318,65.21835159999318,None,65.91910649999045,None,,,,,,,,,,,,,,,,,,,,,,,,,,,,,,11042,001,2024_Mar_15_1607,ANT,2021.2.3,59.97792812894114,
0,2,no,up,IC,R,50,0,1.5,right,LLRLL.png,,,,,,,,0,8,8,1,,,,,,,,,,,,,,,,,,,,,,,,,,,,,,,,,,,,,,,,,,,,,,,,,67.9223256999976,68.32295369997155,68.30736879998585,68.4068504999741,68.8079207999981,None,right,1,0.5867973000276834,68.8079207999981,None,68.30736879998585,68.4068504999741,68.4068504999741,None,69.42444859998068,None,,,,,,,,,,,,,,,,,,,,,,,,,,,,,,11042,001,2024_Mar_15_1607,ANT,2021.2.3,59.97792812894114,
0,6,center,up,IC,R,0,50,1.5,right,LLRLL.png,,,,,,,,0,9,9,5,,,,,,,,,,,,,,,,,,,,,,,,,,,,,,,,,,,,,,,,,,,,,,,,,71.42744349996792,71.82844209996983,71.81171679997351,71.91212649998488,72.3120211000205,None,right,1,0.5226364999543875,72.3120211000205,None,71.81171679997351,71.91212649998488,71.91212649998488,None,72.86290900001768,None,,,,,,,,,,,,,,,,,,,,,,,,,,,,,,11042,001,2024_Mar_15_1607,ANT,2021.2.3,59.97792812894114,
0,4,no,down,IC,L,50,0,-1.5,left,RRLRR.png,,,,,,,,0,10,10,3,,,,,,,,,,,,,,,,,,,,,,,,,,,,,,,,,,,,,,,,,,,,,,,,,74.86605309997685,75.26747500000056,75.24981219996698,75.35010520002106,75.75073689996498,None,left,1,0.5480627000215463,75.75073689996498,None,75.24981219996698,75.35010520002106,75.35010520002106,None,76.31809640000574,None,,,,,,,,,,,,,,,,,,,,,,,,,,,,,,11042,001,2024_Mar_15_1607,ANT,2021.2.3,59.97792812894114,
0,8,center,down,IC,L,0,50,-1.5,left,RRLRR.png,,,,,,,,0,11,11,7,,,,,,,,,,,,,,,,,,,,,,,,,,,,,,,,,,,,,,,,,,,,,,,,,78.32101850002073,78.72330860001966,78.70541379996575,78.80597719998332,79.20597999996971,None,left,1,0.5491473999572918,79.20597999996971,None,78.70541379996575,78.80597719998332,78.80597719998332,None,79.77361699996982,None,,,,,,,,,,,,,,,,,,,,,,,,,,,,,,11042,001,2024_Mar_15_1607,ANT,2021.2.3,59.97792812894114,
,,,,,,,,,,,,,,,,,,,,,,,,,,,,,,,,,,,,,,,,,,,,,,,,,,,,,,,,,,,,,,,,,,,,,,,,,,,,,,,,,,,,,,,space,12.61979180003982,81.77650400000857,None,,,,,,,,,,,,,,,,,,,,,,,,,,11042,001,2024_Mar_15_1607,ANT,2021.2.3,59.97792812894114,
1,6,no,down,C,R,,,,,,Block.xlsx,"你已经完成了第一个实验区组

请稍作休息


点击空格键进入下一个区组。",50,0,-1.5,right,RRRRR.png,,,,,0,0,0,0,0,0,0,5,,,,,,,,,,,,,,,,,,,,,,,,,,,,,,,,,,,,,,,,,,,,,,,,,,,,,,,,,,,,,,81.77650400000857,None,94.44686989998445,94.84745399997337,94.82981269998709,94.93038689997047,95.3305916999816,None,right,1,0.42465030000312254,95.3305916999816,None,94.82981269998709,94.93038689997047,94.93038689997047,None,95.7807182999677,None,,,,,,,11042,001,2024_Mar_15_1607,ANT,2021.2.3,59.97792812894114,
1,7,no,down,IC,L,,,,,,Block.xlsx,"你已经完成了第一个实验区组

请稍作休息


点击空格键进入下一个区组。",50,0,-1.5,left,RRLRR.png,,,,,0,0,0,0,0,1,1,6,,,,,,,,,,,,,,,,,,,,,,,,,,,,,,,,,,,,,,,,,,,,,,,,,,,,,,,,,,,,,,,,96.18210079998244,96.58201169996755,96.56533349998062,96.66659139998956,97.06738909997512,None,left,1,0.40014300000621006,97.06738909997512,None,96.56533349998062,96.66659139998956,96.66659139998956,None,97.48338659998262,None,,,,,,,11042,001,2024_Mar_15_1607,ANT,2021.2.3,59.97792812894114,
1,3,no,up,IC,L,,,,,,Block.xlsx,"你已经完成了第一个实验区组

请稍作休息


点击空格键进入下一个区组。",50,0,1.5,left,RRLRR.png,,,,,0,0,0,0,0,2,2,2,,,,,,,,,,,,,,,,,,,,,,,,,,,,,,,,,,,,,,,,,,,,,,,,,,,,,,,,,,,,,,,,97.88418609998189,98.28652969998075,98.26837730000261,98.3688493000227,98.76902810001047,None,left,1,0.5143403999973089,98.76902810001047,None,98.26837730000261,98.3688493000227,98.3688493000227,None,99.30278769996949,None,,,,,,,11042,001,2024_Mar_15_1607,ANT,2021.2.3,59.97792812894114,
1,7,no,down,IC,L,,,,,,Block.xlsx,"你已经完成了第一个实验区组

请稍作休息


点击空格键进入下一个区组。",50,0,-1.5,left,RRLRR.png,,,,,0,0,0,0,0,3,3,6,,,,,,,,,,,,,,,,,,,,,,,,,,,,,,,,,,,,,,,,,,,,,,,,,,,,,,,,,,,,,,,,99.70346849999623,100.10510950000025,100.0878613999812,100.18835239997134,100.5880755999824,None,left,1,0.4235987999709323,100.5880755999824,None,100.0878613999812,100.18835239997134,100.18835239997134,None,101.03890360001242,None,,,,,,,11042,001,2024_Mar_15_1607,ANT,2021.2.3,59.97792812894114,
1,18,spatial,up,C,R,,,,,,Block.xlsx,"你已经完成了第一个实验区组

请稍作休息


点击空格键进入下一个区组。",1.5,0,1.5,right,RRRRR.png,,,,,0,0,0,0,0,4,4,17,,,,,,,,,,,,,,,,,,,,,,,,,,,,,,,,,,,,,,,,,,,,,,,,,,,,,,,,,,,,,,,,101.43980469997041,101.84065319999354,101.82399130001431,101.92502540000714,102.32424029998947,None,right,1,0.407185300020501,102.32424029998947,None,101.82399130001431,101.92502540000714,101.92502540000714,None,102.75795689999359,None,,,,,,,11042,001,2024_Mar_15_1607,ANT,2021.2.3,59.97792812894114,
1,20,spatial,up,IC,R,,,,,,Block.xlsx,"你已经完成了第一个实验区组

请稍作休息


点击空格键进入下一个区组。",1.5,0,1.5,right,LLRLL.png,,,,,0,0,0,0,0,5,5,19,,,,,,,,,,,,,,,,,,,,,,,,,,,,,,,,,,,,,,,,,,,,,,,,,,,,,,,,,,,,,,,,103.15894459997071,103.55931899999268,103.54281070001889,103.64406219997909,104.04334719997132,None,right,1,0.4011333999806084,104.04334719997132,None,103.54281070001889,103.64406219997909,103.64406219997909,None,104.46065119997365,None,,,,,,,11042,001,2024_Mar_15_1607,ANT,2021.2.3,59.97792812894114,
1,14,center,down,C,R,,,,,,Block.xlsx,"你已经完成了第一个实验区组

请稍作休息


点击空格键进入下一个区组。",0,50,-1.5,right,RRRRR.png,,,,,0,0,0,0,0,6,6,13,,,,,,,,,,,,,,,,,,,,,,,,,,,,,,,,,,,,,,,,,,,,,,,,,,,,,,,,,,,,,,,,104.86127619998297,105.26191549998475,105.24568130000262,105.34595180000179,105.74628490000032,None,right,1,0.4732644999749027,105.74628490000032,None,105.24568130000262,105.34595180000179,105.34595180000179,None,106.24651939998148,None,,,,,,,11042,001,2024_Mar_15_1607,ANT,2021.2.3,59.97792812894114,
1,19,spatial,up,IC,L,,,,,,Block.xlsx,"你已经完成了第一个实验区组

请稍作休息


点击空格键进入下一个区组。",1.5,0,1.5,left,RRLRR.png,,,,,0,0,0,0,0,7,7,18,,,,,,,,,,,,,,,,,,,,,,,,,,,,,,,,,,,,,,,,,,,,,,,,,,,,,,,,,,,,,,,,106.64741619996494,107.04788450000342,107.03140939999139,107.13206590001937,107.53187519998755,None,left,1,0.42374719999497756,107.53187519998755,None,107.03140939999139,107.13206590001937,107.13206590001937,None,107.98267419997137,None,,,,,,,11042,001,2024_Mar_15_1607,ANT,2021.2.3,59.97792812894114,
1,12,center,up,IC,R,,,,,,Block.xlsx,"你已经完成了第一个实验区组

请稍作休息


点击空格键进入下一个区组。",0,50,1.5,right,LLRLL.png,,,,,0,0,0,0,0,8,8,11,,,,,,,,,,,,,,,,,,,,,,,,,,,,,,,,,,,,,,,,,,,,,,,,,,,,,,,,,,,,,,,,108.38330839999253,108.78526679996867,108.76759880001191,108.86829850001959,109.26792229997227,None,right,1,0.471850500034634,109.26792229997227,None,108.76759880001191,108.86829850001959,108.86829850001959,None,109.76857179997023,None,,,,,,,11042,001,2024_Mar_15_1607,ANT,2021.2.3,59.97792812894114,
1,13,center,down,C,L,,,,,,Block.xlsx,"你已经完成了第一个实验区组

请稍作休息


点击空格键进入下一个区组。",0,50,-1.5,left,LLLLL.png,,,,,0,0,0,0,0,9,9,12,,,,,,,,,,,,,,,,,,,,,,,,,,,,,,,,,,,,,,,,,,,,,,,,,,,,,,,,,,,,,,,,110.16928689996712,110.57069700001739,110.55320379999466,110.65456819999963,111.0552729999763,None,left,1,0.4203807999729179,111.0552729999763,None,110.55320379999466,110.65456819999963,110.65456819999963,None,111.50469219998922,None,,,,,,,11042,001,2024_Mar_15_1607,ANT,2021.2.3,59.97792812894114,
1,1,no,up,C,L,,,,,,Block.xlsx,"你已经完成了第一个实验区组

请稍作休息


点击空格键进入下一个区组。",50,0,1.5,left,LLLLL.png,,,,,0,0,0,0,0,10,10,0,,,,,,,,,,,,,,,,,,,,,,,,,,,,,,,,,,,,,,,,,,,,,,,,,,,,,,,,,,,,,,,,111.9051705999882,112.30693770002108,112.28912570001557,112.3909902999876,112.7902410000097,None,left,1,0.41347299999324605,112.7902410000097,None,112.28912570001557,112.3909902999876,112.3909902999876,None,113.2237296999665,None,,,,,,,11042,001,2024_Mar_15_1607,ANT,2021.2.3,59.97792812894114,
1,15,center,down,IC,L,,,,,,Block.xlsx,"你已经完成了第一个实验区组

请稍作休息


点击空格键进入下一个区组。",0,50,-1.5,left,RRLRR.png,,,,,0,0,0,0,0,11,11,14,,,,,,,,,,,,,,,,,,,,,,,,,,,,,,,,,,,,,,,,,,,,,,,,,,,,,,,,,,,,,,,,113.62481299997307,114.02557060000254,114.0094095999957,114.10951560002286,114.5093689999776,None,left,1,0.44651410001097247,114.5093689999776,None,114.0094095999957,114.10951560002286,114.10951560002286,None,114.97653549996903,None,,,,,,,11042,001,2024_Mar_15_1607,ANT,2021.2.3,59.97792812894114,
1,13,center,down,C,L,,,,,,Block.xlsx,"你已经完成了第一个实验区组

请稍作休息


点击空格键进入下一个区组。",0,50,-1.5,left,LLLLL.png,,,,,0,0,0,0,0,12,12,12,,,,,,,,,,,,,,,,,,,,,,,,,,,,,,,,,,,,,,,,,,,,,,,,,,,,,,,,,,,,,,,,115.37724299996626,115.77865569997812,115.76124389999313,115.86147289996734,116.26182449999033,None,left,1,0.3983318000100553,116.26182449999033,None,115.76124389999313,115.86147289996734,115.86147289996734,None,116.67895889998181,None,,,,,,,11042,001,2024_Mar_15_1607,ANT,2021.2.3,59.97792812894114,
1,12,center,up,IC,R,,,,,,Block.xlsx,"你已经完成了第一个实验区组

请稍作休息


点击空格键进入下一个区组。",0,50,1.5,right,LLRLL.png,,,,,0,0,0,0,0,13,13,11,,,,,,,,,,,,,,,,,,,,,,,,,,,,,,,,,,,,,,,,,,,,,,,,,,,,,,,,,,,,,,,,117.07959460001439,117.48155829997268,117.46370979998028,117.56522479996784,117.96416269999463,None,right,1,0.4717997999978252,117.96416269999463,None,117.46370979998028,117.56522479996784,117.56522479996784,None,118.46541820000857,None,,,,,,,11042,001,2024_Mar_15_1607,ANT,2021.2.3,59.97792812894114,
1,20,spatial,up,IC,R,,,,,,Block.xlsx,"你已经完成了第一个实验区组

请稍作休息


点击空格键进入下一个区组。",1.5,0,1.5,right,LLRLL.png,,,,,0,0,0,0,0,14,14,19,,,,,,,,,,,,,,,,,,,,,,,,,,,,,,,,,,,,,,,,,,,,,,,,,,,,,,,,,,,,,,,,118.86631080001825,119.26648749999003,119.25023090001196,119.35020049999002,119.75061559997266,None,right,1,0.33416250004665926,119.75061559997266,None,119.25023090001196,119.35020049999002,119.35020049999002,None,120.10093309998047,None,,,,,,,11042,001,2024_Mar_15_1607,ANT,2021.2.3,59.97792812894114,
1,7,no,down,IC,L,,,,,,Block.xlsx,"你已经完成了第一个实验区组

请稍作休息


点击空格键进入下一个区组。",50,0,-1.5,left,RRLRR.png,,,,,0,0,0,0,0,15,15,6,,,,,,,,,,,,,,,,,,,,,,,,,,,,,,,,,,,,,,,,,,,,,,,,,,,,,,,,,,,,,,,,120.50155099999392,120.90285939996829,120.88576480001211,120.98561809997773,121.38657299999613,None,left,1,0.47368990001268685,121.38657299999613,None,120.88576480001211,120.98561809997773,120.98561809997773,None,121.88690899999347,None,,,,,,,11042,001,2024_Mar_15_1607,ANT,2021.2.3,59.97792812894114,
1,13,center,down,C,L,,,,,,Block.xlsx,"你已经完成了第一个实验区组

请稍作休息


点击空格键进入下一个区组。",0,50,-1.5,left,LLLLL.png,,,,,0,0,0,0,0,16,16,12,,,,,,,,,,,,,,,,,,,,,,,,,,,,,,,,,,,,,,,,,,,,,,,,,,,,,,,,,,,,,,,,122.28756019996945,122.6888552000164,122.67219909996493,122.77194409997901,123.17239419999532,None,left,1,0.4237058999715373,123.17239419999532,None,122.67219909996493,122.77194409997901,122.77194409997901,None,123.62303989997599,None,,,,,,,11042,001,2024_Mar_15_1607,ANT,2021.2.3,59.97792812894114,
1,3,no,up,IC,L,,,,,,Block.xlsx,"你已经完成了第一个实验区组

请稍作休息


点击空格键进入下一个区组。",50,0,1.5,left,RRLRR.png,,,,,0,0,0,0,0,17,17,2,,,,,,,,,,,,,,,,,,,,,,,,,,,,,,,,,,,,,,,,,,,,,,,,,,,,,,,,,,,,,,,,124.02363969996804,124.42540259996895,124.40720389998751,124.5076451000059,124.90823419997469,None,left,1,0.46428680000826716,124.90823419997469,None,124.40720389998751,124.5076451000059,124.5076451000059,None,125.39224650000688,None,,,,,,,11042,001,2024_Mar_15_1607,ANT,2021.2.3,59.97792812894114,
1,18,spatial,up,C,R,,,,,,Block.xlsx,"你已经完成了第一个实验区组

请稍作休息


点击空格键进入下一个区组。",1.5,0,1.5,right,RRRRR.png,,,,,0,0,0,0,0,18,18,17,,,,,,,,,,,,,,,,,,,,,,,,,,,,,,,,,,,,,,,,,,,,,,,,,,,,,,,,,,,,,,,,125.7932774000219,126.19369539996842,126.17674819997046,126.27764859999297,126.67775849997997,None,right,1,0.3746660000178963,126.67775849997997,None,126.17674819997046,126.27764859999297,126.27764859999297,None,127.07811200001743,None,,,,,,,11042,001,2024_Mar_15_1607,ANT,2021.2.3,59.97792812894114,
1,9,center,up,C,L,,,,,,Block.xlsx,"你已经完成了第一个实验区组

请稍作休息


点击空格键进入下一个区组。",0,50,1.5,left,LLLLL.png,,,,,0,0,0,0,0,19,19,8,,,,,,,,,,,,,,,,,,,,,,,,,,,,,,,,,,,,,,,,,,,,,,,,,,,,,,,,,,,,,,,,127.47859209997114,127.88124289998086,127.8632351999986,127.9633165000123,128.36386889999267,None,left,1,0.5522712000529282,128.36386889999267,None,127.8632351999986,127.9633165000123,127.9633165000123,None,128.94770099996822,None,,,,,,,11042,001,2024_Mar_15_1607,ANT,2021.2.3,59.97792812894114,
1,10,center,up,C,R,,,,,,Block.xlsx,"你已经完成了第一个实验区组

请稍作休息


点击空格键进入下一个区组。",0,50,1.5,right,RRRRR.png,,,,,0,0,0,0,0,20,20,9,,,,,,,,,,,,,,,,,,,,,,,,,,,,,,,,,,,,,,,,,,,,,,,,,,,,,,,,,,,,,,,,129.34830110002076,129.74881419999292,129.73273499996867,129.8339760999661,130.23311969998758,None,right,1,0.371493200014811,130.23311969998758,None,129.73273499996867,129.8339760999661,129.8339760999661,None,130.6335275999736,None,,,,,,,11042,001,2024_Mar_15_1607,ANT,2021.2.3,59.97792812894114,
1,22,spatial,down,C,R,,,,,,Block.xlsx,"你已经完成了第一个实验区组

请稍作休息


点击空格键进入下一个区组。",-1.5,0,-1.5,right,RRRRR.png,,,,,0,0,0,0,0,21,21,21,,,,,,,,,,,,,,,,,,,,,,,,,,,,,,,,,,,,,,,,,,,,,,,,,,,,,,,,,,,,,,,,131.03407559997868,131.43500310002128,131.41954909998458,131.5192683999776,131.91945529996883,None,right,1,0.3809148000436835,131.91945529996883,None,131.41954909998458,131.5192683999776,131.5192683999776,None,132.31923650001409,None,,,,,,,11042,001,2024_Mar_15_1607,ANT,2021.2.3,59.97792812894114,
1,3,no,up,IC,L,,,,,,Block.xlsx,"你已经完成了第一个实验区组

请稍作休息


点击空格键进入下一个区组。",50,0,1.5,left,RRLRR.png,,,,,0,0,0,0,0,22,22,2,,,,,,,,,,,,,,,,,,,,,,,,,,,,,,,,,,,,,,,,,,,,,,,,,,,,,,,,,,,,,,,,132.71988439996494,133.12097920000087,133.10519669996575,133.2045242000022,133.60489289998077,None,left,1,0.4395321999909356,133.60489289998077,None,133.10519669996575,133.2045242000022,133.2045242000022,None,134.07193759997608,None,,,,,,,11042,001,2024_Mar_15_1607,ANT,2021.2.3,59.97792812894114,
1,5,no,down,C,L,,,,,,Block.xlsx,"你已经完成了第一个实验区组

请稍作休息


点击空格键进入下一个区组。",50,0,-1.5,left,LLLLL.png,,,,,0,0,0,0,0,23,23,4,,,,,,,,,,,,,,,,,,,,,,,,,,,,,,,,,,,,,,,,,,,,,,,,,,,,,,,,,,,,,,,,134.4727058999706,134.87463109998498,134.8569884999888,134.95833049999783,135.35786320001353,None,left,1,0.41483189997961745,135.35786320001353,None,134.8569884999888,134.95833049999783,134.95833049999783,None,135.79156139999395,None,,,,,,,11042,001,2024_Mar_15_1607,ANT,2021.2.3,59.97792812894114,
1,16,center,down,IC,R,,,,,,Block.xlsx,"你已经完成了第一个实验区组

请稍作休息


点击空格键进入下一个区组。",0,50,-1.5,right,LLRLL.png,,,,,0,0,0,0,1,0,24,15,,,,,,,,,,,,,,,,,,,,,,,,,,,,,,,,,,,,,,,,,,,,,,,,,,,,,,,,,,,,,,,,136.1918665000121,136.5924662000034,136.57609699998284,136.67578089999733,137.07650009996723,None,right,1,0.5199594000005163,137.07650009996723,None,136.57609699998284,136.67578089999733,136.67578089999733,None,137.62723300000653,None,,,,,,,11042,001,2024_Mar_15_1607,ANT,2021.2.3,59.97792812894114,
1,18,spatial,up,C,R,,,,,,Block.xlsx,"你已经完成了第一个实验区组

请稍作休息


点击空格键进入下一个区组。",1.5,0,1.5,right,RRRRR.png,,,,,0,0,0,0,1,1,25,17,,,,,,,,,,,,,,,,,,,,,,,,,,,,,,,,,,,,,,,,,,,,,,,,,,,,,,,,,,,,,,,,138.0278986999765,138.4295073999674,138.4123623999767,138.51281280000694,138.9125227999757,None,right,1,0.38009469996904954,138.9125227999757,None,138.4123623999767,138.51281280000694,138.51281280000694,None,139.31312940001953,None,,,,,,,11042,001,2024_Mar_15_1607,ANT,2021.2.3,59.97792812894114,
1,18,spatial,up,C,R,,,,,,Block.xlsx,"你已经完成了第一个实验区组

请稍作休息


点击空格键进入下一个区组。",1.5,0,1.5,right,RRRRR.png,,,,,0,0,0,0,1,2,26,17,,,,,,,,,,,,,,,,,,,,,,,,,,,,,,,,,,,,,,,,,,,,,,,,,,,,,,,,,,,,,,,,139.71426069998415,140.1154217000003,140.09773209999548,140.19775609998032,140.5984481999767,None,right,1,0.35083840001607314,140.5984481999767,None,140.09773209999548,140.19775609998032,140.19775609998032,None,140.96559849998448,None,,,,,,,11042,001,2024_Mar_15_1607,ANT,2021.2.3,59.97792812894114,
1,15,center,down,IC,L,,,,,,Block.xlsx,"你已经完成了第一个实验区组

请稍作休息


点击空格键进入下一个区组。",0,50,-1.5,left,RRLRR.png,,,,,0,0,0,0,1,3,27,14,,,,,,,,,,,,,,,,,,,,,,,,,,,,,,,,,,,,,,,,,,,,,,,,,,,,,,,,,,,,,,,,141.3668029999826,141.76706639997428,141.75024379999377,141.85023229999933,142.2515336999786,None,left,1,0.4733843000140041,142.2515336999786,None,141.75024379999377,141.85023229999933,141.85023229999933,None,142.75163790001534,None,,,,,,,11042,001,2024_Mar_15_1607,ANT,2021.2.3,59.97792812894114,
1,7,no,down,IC,L,,,,,,Block.xlsx,"你已经完成了第一个实验区组

请稍作休息


点击空格键进入下一个区组。",50,0,-1.5,left,RRLRR.png,,,,,0,0,0,0,1,4,28,6,,,,,,,,,,,,,,,,,,,,,,,,,,,,,,,,,,,,,,,,,,,,,,,,,,,,,,,,,,,,,,,,143.15253929997561,143.55302140000276,143.53795739996713,143.63658689998556,144.0372953999904,None,left,1,0.4872062000213191,144.0372953999904,None,143.53795739996713,143.63658689998556,143.63658689998556,None,144.554393599974,None,,,,,,,11042,001,2024_Mar_15_1607,ANT,2021.2.3,59.97792812894114,
1,19,spatial,up,IC,L,,,,,,Block.xlsx,"你已经完成了第一个实验区组

请稍作休息


点击空格键进入下一个区组。",1.5,0,1.5,left,RRLRR.png,,,,,0,0,0,0,1,5,29,18,,,,,,,,,,,,,,,,,,,,,,,,,,,,,,,,,,,,,,,,,,,,,,,,,,,,,,,,,,,,,,,,144.95503149996512,145.35559749999084,145.3389373999671,145.43977100000484,145.84028810000746,None,left,1,0.34886619995813817,145.84028810000746,None,145.3389373999671,145.43977100000484,145.43977100000484,None,146.2067075999803,None,,,,,,,11042,001,2024_Mar_15_1607,ANT,2021.2.3,59.97792812894114,
1,20,spatial,up,IC,R,,,,,,Block.xlsx,"你已经完成了第一个实验区组

请稍作休息


点击空格键进入下一个区组。",1.5,0,1.5,right,LLRLL.png,,,,,0,0,0,0,1,6,30,19,,,,,,,,,,,,,,,,,,,,,,,,,,,,,,,,,,,,,,,,,,,,,,,,,,,,,,,,,,,,,,,,146.6073978000204,147.0081542999833,146.99304370000027,147.10831979999784,147.4927900999901,None,right,1,0.3919317999971099,147.4927900999901,None,146.99304370000027,147.10831979999784,147.09351989999413,None,147.90928059996804,None,,,,,,,11042,001,2024_Mar_15_1607,ANT,2021.2.3,59.97792812894114,
1,6,no,down,C,R,,,,,,Block.xlsx,"你已经完成了第一个实验区组

请稍作休息


点击空格键进入下一个区组。",50,0,-1.5,right,RRRRR.png,,,,,0,0,0,0,1,7,31,5,,,,,,,,,,,,,,,,,,,,,,,,,,,,,,,,,,,,,,,,,,,,,,,,,,,,,,,,,,,,,,,,148.3100459999987,148.71134749997873,148.69546969997464,148.8117087999708,149.19649780000327,None,right,1,0.4240531999967061,149.19649780000327,None,148.69546969997464,148.8117087999708,148.79411379998783,None,149.64540879998822,None,,,,,,,11042,001,2024_Mar_15_1607,ANT,2021.2.3,59.97792812894114,
1,11,center,up,IC,L,,,,,,Block.xlsx,"你已经完成了第一个实验区组

请稍作休息


点击空格键进入下一个区组。",0,50,1.5,left,RRLRR.png,,,,,0,0,0,0,1,8,32,10,,,,,,,,,,,,,,,,,,,,,,,,,,,,,,,,,,,,,,,,,,,,,,,,,,,,,,,,,,,,,,,,150.04588499997044,150.4467355000088,150.43156729999464,150.54848439997295,150.9308743000147,None,right,0,0.39422910002758726,150.9308743000147,None,150.43156729999464,150.54848439997295,150.53054830001201,None,151.34812500001863,None,,,,,,,11042,001,2024_Mar_15_1607,ANT,2021.2.3,59.97792812894114,
1,11,center,up,IC,L,,,,,,Block.xlsx,"你已经完成了第一个实验区组

请稍作休息


点击空格键进入下一个区组。",0,50,1.5,left,RRLRR.png,,,,,0,0,0,0,1,9,33,10,,,,,,,,,,,,,,,,,,,,,,,,,,,,,,,,,,,,,,,,,,,,,,,,,,,,,,,,,,,,,,,,151.74877950001974,152.149549499969,152.1324715000228,152.23270549997687,152.6346620999975,None,left,1,0.49002420000033453,152.6346620999975,None,152.1324715000228,152.23270549997687,152.23270549997687,None,153.15066759998444,None,,,,,,,11042,001,2024_Mar_15_1607,ANT,2021.2.3,59.97792812894114,
1,11,center,up,IC,L,,,,,,Block.xlsx,"你已经完成了第一个实验区组

请稍作休息


点击空格键进入下一个区组。",0,50,1.5,left,RRLRR.png,,,,,0,0,0,0,1,10,34,10,,,,,,,,,,,,,,,,,,,,,,,,,,,,,,,,,,,,,,,,,,,,,,,,,,,,,,,,,,,,,,,,153.5513074999908,153.95209929998964,153.9358416000032,154.03547160001472,154.43624609999824,None,left,1,0.4487510999897495,154.43624609999824,None,153.9358416000032,154.03547160001472,154.03547160001472,None,154.90318939997815,None,,,,,,,11042,001,2024_Mar_15_1607,ANT,2021.2.3,59.97792812894114,
1,20,spatial,up,IC,R,,,,,,Block.xlsx,"你已经完成了第一个实验区组

请稍作休息


点击空格键进入下一个区组。",1.5,0,1.5,right,LLRLL.png,,,,,0,0,0,0,1,11,35,19,,,,,,,,,,,,,,,,,,,,,,,,,,,,,,,,,,,,,,,,,,,,,,,,,,,,,,,,,,,,,,,,155.30395380000118,155.70725619996665,155.68792940001003,155.78831590001937,156.18847649998497,None,right,1,0.5283166000153869,156.18847649998497,None,155.68792940001003,155.78831590001937,155.78831590001937,None,156.73933130002115,None,,,,,,,11042,001,2024_Mar_15_1607,ANT,2021.2.3,59.97792812894114,
1,24,spatial,down,IC,R,,,,,,Block.xlsx,"你已经完成了第一个实验区组

请稍作休息


点击空格键进入下一个区组。",-1.5,0,-1.5,right,LLRLL.png,,,,,0,0,0,0,1,12,36,23,,,,,,,,,,,,,,,,,,,,,,,,,,,,,,,,,,,,,,,,,,,,,,,,,,,,,,,,,,,,,,,,157.1401165999705,157.5423024999909,157.5240384999779,157.62399679998634,158.02478229999542,None,right,1,0.39643049996811897,158.02478229999542,None,157.5240384999779,157.62399679998634,157.62399679998634,None,158.4420047000167,None,,,,,,,11042,001,2024_Mar_15_1607,ANT,2021.2.3,59.97792812894114,
1,5,no,down,C,L,,,,,,Block.xlsx,"你已经完成了第一个实验区组

请稍作休息


点击空格键进入下一个区组。",50,0,-1.5,left,LLLLL.png,,,,,0,0,0,0,1,13,37,4,,,,,,,,,,,,,,,,,,,,,,,,,,,,,,,,,,,,,,,,,,,,,,,,,,,,,,,,,,,,,,,,158.84292670001741,159.24391349998768,159.2264985999791,159.32738249999238,159.72737839998445,None,left,1,0.3976177999866195,159.72737839998445,None,159.2264985999791,159.32738249999238,159.32738249999238,None,160.1444270000211,None,,,,,,,11042,001,2024_Mar_15_1607,ANT,2021.2.3,59.97792812894114,
1,24,spatial,down,IC,R,,,,,,Block.xlsx,"你已经完成了第一个实验区组

请稍作休息


点击空格键进入下一个区组。",-1.5,0,-1.5,right,LLRLL.png,,,,,0,0,0,0,1,14,38,23,,,,,,,,,,,,,,,,,,,,,,,,,,,,,,,,,,,,,,,,,,,,,,,,,,,,,,,,,,,,,,,,160.5450444999733,160.94667719997233,160.929000300006,161.0294477000134,161.42968319996726,None,right,1,0.3840277999988757,161.42968319996726,None,160.929000300006,161.0294477000134,161.0294477000134,None,161.83038020000095,None,,,,,,,11042,001,2024_Mar_15_1607,ANT,2021.2.3,59.97792812894114,
1,1,no,up,C,L,,,,,,Block.xlsx,"你已经完成了第一个实验区组

请稍作休息


点击空格键进入下一个区组。",50,0,1.5,left,LLLLL.png,,,,,0,0,0,0,1,15,39,0,,,,,,,,,,,,,,,,,,,,,,,,,,,,,,,,,,,,,,,,,,,,,,,,,,,,,,,,,,,,,,,,162.230984099966,162.6316321999766,162.61523009999655,162.71553719998337,163.11724140000297,None,left,1,0.4162596999667585,163.11724140000297,None,162.61523009999655,162.71553719998337,162.71553719998337,None,163.54966010001954,None,,,,,,,11042,001,2024_Mar_15_1607,ANT,2021.2.3,59.97792812894114,
1,11,center,up,IC,L,,,,,,Block.xlsx,"你已经完成了第一个实验区组

请稍作休息


点击空格键进入下一个区组。",0,50,1.5,left,RRLRR.png,,,,,0,0,0,0,1,16,40,10,,,,,,,,,,,,,,,,,,,,,,,,,,,,,,,,,,,,,,,,,,,,,,,,,,,,,,,,,,,,,,,,163.9502966,164.3510183999897,164.33433789998526,164.4343644999899,164.83507959998678,None,left,1,0.48222309997072443,164.83507959998678,None,164.33433789998526,164.4343644999899,164.4343644999899,None,165.33570250001503,None,,,,,,,11042,001,2024_Mar_15_1607,ANT,2021.2.3,59.97792812894114,
1,9,center,up,C,L,,,,,,Block.xlsx,"你已经完成了第一个实验区组

请稍作休息


点击空格键进入下一个区组。",0,50,1.5,left,LLLLL.png,,,,,0,0,0,0,1,17,41,8,,,,,,,,,,,,,,,,,,,,,,,,,,,,,,,,,,,,,,,,,,,,,,,,,,,,,,,,,,,,,,,,165.73659240000416,166.13767839997308,166.12027509999461,166.22029289999045,166.62096029997338,None,left,1,0.37614639999810606,166.62096029997338,None,166.12027509999461,166.22029289999045,166.22029289999045,None,167.02150849997997,None,,,,,,,11042,001,2024_Mar_15_1607,ANT,2021.2.3,59.97792812894114,
1,23,spatial,down,IC,L,,,,,,Block.xlsx,"你已经完成了第一个实验区组

请稍作休息


点击空格键进入下一个区组。",-1.5,0,-1.5,left,RRLRR.png,,,,,0,0,0,0,1,18,42,22,,,,,,,,,,,,,,,,,,,,,,,,,,,,,,,,,,,,,,,,,,,,,,,,,,,,,,,,,,,,,,,,167.42239049996715,167.82371829997282,167.80617200001143,167.90627259999746,168.30692449997878,None,left,1,0.34624410001561046,168.30692449997878,None,167.80617200001143,167.90627259999746,167.90627259999746,None,168.67425540002296,None,,,,,,,11042,001,2024_Mar_15_1607,ANT,2021.2.3,59.97792812894114,
1,2,no,up,C,R,,,,,,Block.xlsx,"你已经完成了第一个实验区组

请稍作休息


点击空格键进入下一个区组。",50,0,1.5,right,RRRRR.png,,,,,0,0,0,0,1,19,43,1,,,,,,,,,,,,,,,,,,,,,,,,,,,,,,,,,,,,,,,,,,,,,,,,,,,,,,,,,,,,,,,,169.07483980001416,169.47572170000058,169.4587703999714,169.5590819999925,169.96064030000707,None,right,1,0.388979300041683,169.96064030000707,None,169.4587703999714,169.5590819999925,169.5590819999925,None,170.37676289997762,None,,,,,,,11042,001,2024_Mar_15_1607,ANT,2021.2.3,59.97792812894114,
1,4,no,up,IC,R,,,,,,Block.xlsx,"你已经完成了第一个实验区组

请稍作休息


点击空格键进入下一个区组。",50,0,1.5,right,LLRLL.png,,,,,0,0,0,0,1,20,44,3,,,,,,,,,,,,,,,,,,,,,,,,,,,,,,,,,,,,,,,,,,,,,,,,,,,,,,,,,,,,,,,,170.7772087000194,171.17893160000676,171.1614697999903,171.2631508000195,171.66188859997783,None,right,1,0.5355374999926426,171.66188859997783,None,171.1614697999903,171.2631508000195,171.2631508000195,None,172.21282239997527,None,,,,,,,11042,001,2024_Mar_15_1607,ANT,2021.2.3,59.97792812894114,
1,10,center,up,C,R,,,,,,Block.xlsx,"你已经完成了第一个实验区组

请稍作休息


点击空格键进入下一个区组。",0,50,1.5,right,RRRRR.png,,,,,0,0,0,0,1,21,45,9,,,,,,,,,,,,,,,,,,,,,,,,,,,,,,,,,,,,,,,,,,,,,,,,,,,,,,,,,,,,,,,,172.61343269998906,173.01523469999665,172.99717769998824,173.0978660999681,173.49826409999514,None,right,1,0.4192691000062041,173.49826409999514,None,172.99717769998824,173.0978660999681,173.0978660999681,None,173.9488532000105,None,,,,,,,11042,001,2024_Mar_15_1607,ANT,2021.2.3,59.97792812894114,
1,24,spatial,down,IC,R,,,,,,Block.xlsx,"你已经完成了第一个实验区组

请稍作休息


点击空格键进入下一个区组。",-1.5,0,-1.5,right,LLRLL.png,,,,,0,0,0,0,1,22,46,23,,,,,,,,,,,,,,,,,,,,,,,,,,,,,,,,,,,,,,,,,,,,,,,,,,,,,,,,,,,,,,,,174.34940639999695,174.75036669999827,174.73487569997087,174.85070800001267,175.23402889998397,None,right,1,0.40351259999442846,175.23402889998397,None,174.73487569997087,174.85070800001267,174.83527270000195,None,175.6679746999871,None,,,,,,,11042,001,2024_Mar_15_1607,ANT,2021.2.3,59.97792812894114,
1,16,center,down,IC,R,,,,,,Block.xlsx,"你已经完成了第一个实验区组

请稍作休息


点击空格键进入下一个区组。",0,50,-1.5,right,LLRLL.png,,,,,0,0,0,0,1,23,47,15,,,,,,,,,,,,,,,,,,,,,,,,,,,,,,,,,,,,,,,,,,,,,,,,,,,,,,,,,,,,,,,,176.06864469998982,176.4703352000215,176.45247129997006,176.5530829000054,176.95386870001676,None,right,1,0.5011039999662898,176.95386870001676,None,176.45247129997006,176.5530829000054,176.5530829000054,None,177.47056180000072,None,,,,,,,11042,001,2024_Mar_15_1607,ANT,2021.2.3,59.97792812894114,
1,1,no,up,C,L,,,,,,Block.xlsx,"你已经完成了第一个实验区组

请稍作休息


点击空格键进入下一个区组。",50,0,1.5,left,LLLLL.png,,,,,0,0,0,0,2,0,48,0,,,,,,,,,,,,,,,,,,,,,,,,,,,,,,,,,,,,,,,,,,,,,,,,,,,,,,,,,,,,,,,,177.87133649998577,178.27316829998745,178.255256799981,178.35587969998596,178.75806949997786,None,left,1,0.4157942000310868,178.75806949997786,None,178.255256799981,178.35587969998596,178.35587969998596,None,179.18999420001637,None,,,,,,,11042,001,2024_Mar_15_1607,ANT,2021.2.3,59.97792812894114,
1,21,spatial,down,C,L,,,,,,Block.xlsx,"你已经完成了第一个实验区组

请稍作休息


点击空格键进入下一个区组。",-1.5,0,-1.5,left,LLLLL.png,,,,,0,0,0,0,2,1,49,20,,,,,,,,,,,,,,,,,,,,,,,,,,,,,,,,,,,,,,,,,,,,,,,,,,,,,,,,,,,,,,,,179.5905735999695,179.99238429998513,179.97446330002276,180.07643509999616,180.47530390002066,None,left,1,0.41819900000700727,180.47530390002066,None,179.97446330002276,180.07643509999616,180.07643509999616,None,180.9090439999709,None,,,,,,,11042,001,2024_Mar_15_1607,ANT,2021.2.3,59.97792812894114,
1,21,spatial,down,C,L,,,,,,Block.xlsx,"你已经完成了第一个实验区组

请稍作休息


点击空格键进入下一个区组。",-1.5,0,-1.5,left,LLLLL.png,,,,,0,0,0,0,2,2,50,20,,,,,,,,,,,,,,,,,,,,,,,,,,,,,,,,,,,,,,,,,,,,,,,,,,,,,,,,,,,,,,,,181.310348399973,181.7114513000124,181.69371259998297,181.79377119999845,182.19468889996642,None,left,1,0.39554419997148216,182.19468889996642,None,181.69371259998297,181.79377119999845,181.79377119999845,None,182.61182429996552,None,,,,,,,11042,001,2024_Mar_15_1607,ANT,2021.2.3,59.97792812894114,
1,8,no,down,IC,R,,,,,,Block.xlsx,"你已经完成了第一个实验区组

请稍作休息


点击空格键进入下一个区组。",50,0,-1.5,right,LLRLL.png,,,,,0,0,0,0,2,3,51,7,,,,,,,,,,,,,,,,,,,,,,,,,,,,,,,,,,,,,,,,,,,,,,,,,,,,,,,,,,,,,,,,183.01234700001078,183.41457199997967,183.3964377999655,183.49637710000388,183.8970251000137,None,right,1,0.4765760999871418,183.8970251000137,None,183.3964377999655,183.49637710000388,183.49637710000388,None,184.3977179999929,None,,,,,,,11042,001,2024_Mar_15_1607,ANT,2021.2.3,59.97792812894114,
1,16,center,down,IC,R,,,,,,Block.xlsx,"你已经完成了第一个实验区组

请稍作休息


点击空格键进入下一个区组。",0,50,-1.5,right,LLRLL.png,,,,,0,0,0,0,2,4,52,15,,,,,,,,,,,,,,,,,,,,,,,,,,,,,,,,,,,,,,,,,,,,,,,,,,,,,,,,,,,,,,,,184.79914730001474,185.20061709999572,185.1824701000005,185.2828814999666,185.68435809999937,None,right,1,0.4335747000295669,185.68435809999937,None,185.1824701000005,185.2828814999666,185.2828814999666,None,186.13377459999174,None,,,,,,,11042,001,2024_Mar_15_1607,ANT,2021.2.3,59.97792812894114,
1,23,spatial,down,IC,L,,,,,,Block.xlsx,"你已经完成了第一个实验区组

请稍作休息


点击空格键进入下一个区组。",-1.5,0,-1.5,left,RRLRR.png,,,,,0,0,0,0,2,5,53,22,,,,,,,,,,,,,,,,,,,,,,,,,,,,,,,,,,,,,,,,,,,,,,,,,,,,,,,,,,,,,,,,186.5344110999722,186.9348809000221,186.9204331000219,187.03654140001163,187.41987909999443,None,left,1,0.41778290004003793,187.41987909999443,None,186.9204331000219,187.03654140001163,187.01912050001556,None,187.8528299999889,None,,,,,,,11042,001,2024_Mar_15_1607,ANT,2021.2.3,59.97792812894114,
1,19,spatial,up,IC,L,,,,,,Block.xlsx,"你已经完成了第一个实验区组

请稍作休息


点击空格键进入下一个区组。",1.5,0,1.5,left,RRLRR.png,,,,,0,0,0,0,2,6,54,18,,,,,,,,,,,,,,,,,,,,,,,,,,,,,,,,,,,,,,,,,,,,,,,,,,,,,,,,,,,,,,,,188.25357000000076,188.655943699996,188.63739469996653,188.73866729997098,189.13946430000942,None,left,1,0.37897809996502474,189.13946430000942,None,188.63739469996653,188.73866729997098,188.73866729997098,None,189.53893139999127,None,,,,,,,11042,001,2024_Mar_15_1607,ANT,2021.2.3,59.97792812894114,
1,21,spatial,down,C,L,,,,,,Block.xlsx,"你已经完成了第一个实验区组

请稍作休息


点击空格键进入下一个区组。",-1.5,0,-1.5,left,LLLLL.png,,,,,0,0,0,0,2,7,55,20,,,,,,,,,,,,,,,,,,,,,,,,,,,,,,,,,,,,,,,,,,,,,,,,,,,,,,,,,,,,,,,,189.9394090999849,190.34089400002267,190.32351329998346,190.4247682999703,190.82442050002282,None,left,1,0.3504283999791369,190.82442050002282,None,190.32351329998346,190.4247682999703,190.4247682999703,None,191.19140359997982,None,,,,,,,11042,001,2024_Mar_15_1607,ANT,2021.2.3,59.97792812894114,
1,22,spatial,down,C,R,,,,,,Block.xlsx,"你已经完成了第一个实验区组

请稍作休息


点击空格键进入下一个区组。",-1.5,0,-1.5,right,RRRRR.png,,,,,0,0,0,0,2,8,56,21,,,,,,,,,,,,,,,,,,,,,,,,,,,,,,,,,,,,,,,,,,,,,,,,,,,,,,,,,,,,,,,,191.59187160001602,191.99337959999684,191.97590239997953,192.0760287999874,192.4768674999941,None,right,1,0.3774960999726318,192.4768674999941,None,191.97590239997953,192.0760287999874,192.0760287999874,None,192.87722550000763,None,,,,,,,11042,001,2024_Mar_15_1607,ANT,2021.2.3,59.97792812894114,
1,16,center,down,IC,R,,,,,,Block.xlsx,"你已经完成了第一个实验区组

请稍作休息


点击空格键进入下一个区组。",0,50,-1.5,right,LLRLL.png,,,,,0,0,0,0,2,9,57,15,,,,,,,,,,,,,,,,,,,,,,,,,,,,,,,,,,,,,,,,,,,,,,,,,,,,,,,,,,,,,,,,193.277932099998,193.67950939998263,193.66176049999194,193.76203270000406,194.16249700001208,None,right,1,0.484813499962911,194.16249700001208,None,193.66176049999194,193.76203270000406,193.76203270000406,None,194.6631043999805,None,,,,,,,11042,001,2024_Mar_15_1607,ANT,2021.2.3,59.97792812894114,
1,15,center,down,IC,L,,,,,,Block.xlsx,"你已经完成了第一个实验区组

请稍作休息


点击空格键进入下一个区组。",0,50,-1.5,left,RRLRR.png,,,,,0,0,0,0,2,10,58,14,,,,,,,,,,,,,,,,,,,,,,,,,,,,,,,,,,,,,,,,,,,,,,,,,,,,,,,,,,,,,,,,195.06375269999262,195.4654144999804,195.4477778999717,195.5477957999683,195.94929329998558,None,left,1,0.48105630005011335,195.94929329998558,None,195.4477778999717,195.5477957999683,195.5477957999683,None,196.44907089998014,None,,,,,,,11042,001,2024_Mar_15_1607,ANT,2021.2.3,59.97792812894114,
1,9,center,up,C,L,,,,,,Block.xlsx,"你已经完成了第一个实验区组

请稍作休息


点击空格键进入下一个区组。",0,50,1.5,left,LLLLL.png,,,,,0,0,0,0,2,11,59,8,,,,,,,,,,,,,,,,,,,,,,,,,,,,,,,,,,,,,,,,,,,,,,,,,,,,,,,,,,,,,,,,196.84980879997602,197.2504838000168,197.23514429997886,197.33490089996485,197.73572070000228,None,left,1,0.4305927000241354,197.73572070000228,None,197.23514429997886,197.33490089996485,197.33490089996485,None,198.18561009998666,None,,,,,,,11042,001,2024_Mar_15_1607,ANT,2021.2.3,59.97792812894114,
1,4,no,up,IC,R,,,,,,Block.xlsx,"你已经完成了第一个实验区组

请稍作休息


点击空格键进入下一个区组。",50,0,1.5,right,LLRLL.png,,,,,0,0,0,0,2,12,60,3,,,,,,,,,,,,,,,,,,,,,,,,,,,,,,,,,,,,,,,,,,,,,,,,,,,,,,,,,,,,,,,,198.58588099997723,198.98594679997768,198.96996179997222,199.06980369996745,199.47080229996936,None,right,1,0.527600200031884,199.47080229996936,None,198.96996179997222,199.06980369996745,199.06980369996745,None,200.02161639998667,None,,,,,,,11042,001,2024_Mar_15_1607,ANT,2021.2.3,59.97792812894114,
1,6,no,down,C,R,,,,,,Block.xlsx,"你已经完成了第一个实验区组

请稍作休息


点击空格键进入下一个区组。",50,0,-1.5,right,RRRRR.png,,,,,0,0,0,0,2,13,61,5,,,,,,,,,,,,,,,,,,,,,,,,,,,,,,,,,,,,,,,,,,,,,,,,,,,,,,,,,,,,,,,,200.42203810001956,200.82317059999332,200.80595219996758,200.9071042999858,201.30696989997523,None,right,1,0.4594492999603972,201.30696989997523,None,200.80595219996758,200.9071042999858,200.9071042999858,None,201.79046310001286,None,,,,,,,11042,001,2024_Mar_15_1607,ANT,2021.2.3,59.97792812894114,
1,6,no,down,C,R,,,,,,Block.xlsx,"你已经完成了第一个实验区组

请稍作休息


点击空格键进入下一个区组。",50,0,-1.5,right,RRRRR.png,,,,,0,0,0,0,2,14,62,5,,,,,,,,,,,,,,,,,,,,,,,,,,,,,,,,,,,,,,,,,,,,,,,,,,,,,,,,,,,,,,,,202.19190149998758,202.5922330999747,202.57513909996487,202.67637990001822,203.07667009998113,None,right,1,0.47355490003246814,203.07667009998113,None,202.57513909996487,202.67637990001822,202.67637990001822,None,203.57674629997928,None,,,,,,,11042,001,2024_Mar_15_1607,ANT,2021.2.3,59.97792812894114,
1,8,no,down,IC,R,,,,,,Block.xlsx,"你已经完成了第一个实验区组

请稍作休息


点击空格键进入下一个区组。",50,0,-1.5,right,LLRLL.png,,,,,0,0,0,0,2,15,63,7,,,,,,,,,,,,,,,,,,,,,,,,,,,,,,,,,,,,,,,,,,,,,,,,,,,,,,,,,,,,,,,,203.97747440001694,204.37980360002257,204.36104310001247,204.46224449999863,204.86207759997342,None,right,1,0.4722454000147991,204.86207759997342,None,204.36104310001247,204.46224449999863,204.46224449999863,None,205.3627183000208,None,,,,,,,11042,001,2024_Mar_15_1607,ANT,2021.2.3,59.97792812894114,
1,14,center,down,C,R,,,,,,Block.xlsx,"你已经完成了第一个实验区组

请稍作休息


点击空格键进入下一个区组。",0,50,-1.5,right,RRRRR.png,,,,,0,0,0,0,2,16,64,13,,,,,,,,,,,,,,,,,,,,,,,,,,,,,,,,,,,,,,,,,,,,,,,,,,,,,,,,,,,,,,,,205.76352019998012,206.16418389999308,206.1475885999971,206.24786900001345,206.64823160000378,None,right,1,0.3905788999982178,206.64823160000378,None,206.1475885999971,206.24786900001345,206.24786900001345,None,207.0653214000049,None,,,,,,,11042,001,2024_Mar_15_1607,ANT,2021.2.3,59.97792812894114,
1,10,center,up,C,R,,,,,,Block.xlsx,"你已经完成了第一个实验区组

请稍作休息


点击空格键进入下一个区组。",0,50,1.5,right,RRRRR.png,,,,,0,0,0,0,2,17,65,9,,,,,,,,,,,,,,,,,,,,,,,,,,,,,,,,,,,,,,,,,,,,,,,,,,,,,,,,,,,,,,,,207.46568650001427,207.8667879999848,207.85130189999472,207.9500274999882,208.35237330000382,None,right,1,0.41378960001748055,208.35237330000382,None,207.85130189999472,207.9500274999882,207.9500274999882,None,208.78464219998568,None,,,,,,,11042,001,2024_Mar_15_1607,ANT,2021.2.3,59.97792812894114,
1,8,no,down,IC,R,,,,,,Block.xlsx,"你已经完成了第一个实验区组

请稍作休息


点击空格键进入下一个区组。",50,0,-1.5,right,LLRLL.png,,,,,0,0,0,0,2,18,66,7,,,,,,,,,,,,,,,,,,,,,,,,,,,,,,,,,,,,,,,,,,,,,,,,,,,,,,,,,,,,,,,,209.18515480001224,209.5857644000207,209.5696920999908,209.66932230000384,210.06987589999335,None,right,1,0.4181821999954991,210.06987589999335,None,209.5696920999908,209.66932230000384,209.66932230000384,None,210.50376350001898,None,,,,,,,11042,001,2024_Mar_15_1607,ANT,2021.2.3,59.97792812894114,
1,8,no,down,IC,R,,,,,,Block.xlsx,"你已经完成了第一个实验区组

请稍作休息


点击空格键进入下一个区组。",50,0,-1.5,right,LLRLL.png,,,,,0,0,0,0,2,19,67,7,,,,,,,,,,,,,,,,,,,,,,,,,,,,,,,,,,,,,,,,,,,,,,,,,,,,,,,,,,,,,,,,210.9048044999945,211.3052026000223,211.28840159997344,211.38850559998536,211.7891496999655,None,right,1,0.47356589999981225,211.7891496999655,None,211.28840159997344,211.38850559998536,211.38850559998536,None,212.28982840001117,None,,,,,,,11042,001,2024_Mar_15_1607,ANT,2021.2.3,59.97792812894114,
1,22,spatial,down,C,R,,,,,,Block.xlsx,"你已经完成了第一个实验区组

请稍作休息


点击空格键进入下一个区组。",-1.5,0,-1.5,right,RRRRR.png,,,,,0,0,0,0,2,20,68,21,,,,,,,,,,,,,,,,,,,,,,,,,,,,,,,,,,,,,,,,,,,,,,,,,,,,,,,,,,,,,,,,212.69068319996586,213.09308939997572,213.07482589996653,213.1752716000192,213.5750261999783,None,right,1,0.39132439997047186,213.5750261999783,None,213.07482589996653,213.1752716000192,213.1752716000192,None,213.99241710000206,None,,,,,,,11042,001,2024_Mar_15_1607,ANT,2021.2.3,59.97792812894114,
1,24,spatial,down,IC,R,,,,,,Block.xlsx,"你已经完成了第一个实验区组

请稍作休息


点击空格键进入下一个区组。",-1.5,0,-1.5,right,LLRLL.png,,,,,0,0,0,0,2,21,69,23,,,,,,,,,,,,,,,,,,,,,,,,,,,,,,,,,,,,,,,,,,,,,,,,,,,,,,,,,,,,,,,,214.3930445999722,214.79381030000513,214.7769977999851,214.87743029999547,215.27826230000937,None,right,1,0.3926731999963522,215.27826230000937,None,214.7769977999851,214.87743029999547,214.87743029999547,None,215.69496679998701,None,,,,,,,11042,001,2024_Mar_15_1607,ANT,2021.2.3,59.97792812894114,
1,19,spatial,up,IC,L,,,,,,Block.xlsx,"你已经完成了第一个实验区组

请稍作休息


点击空格键进入下一个区组。",1.5,0,1.5,left,RRLRR.png,,,,,0,0,0,0,2,22,70,18,,,,,,,,,,,,,,,,,,,,,,,,,,,,,,,,,,,,,,,,,,,,,,,,,,,,,,,,,,,,,,,,216.096124099975,216.49682770000072,216.48006510001142,216.58013339998433,216.98079339996912,None,left,1,0.4178825000417419,216.98079339996912,None,216.48006510001142,216.58013339998433,216.58013339998433,None,217.41407499997877,None,,,,,,,11042,001,2024_Mar_15_1607,ANT,2021.2.3,59.97792812894114,
1,10,center,up,C,R,,,,,,Block.xlsx,"你已经完成了第一个实验区组

请稍作休息


点击空格键进入下一个区组。",0,50,1.5,right,RRRRR.png,,,,,0,0,0,0,2,23,71,9,,,,,,,,,,,,,,,,,,,,,,,,,,,,,,,,,,,,,,,,,,,,,,,,,,,,,,,,,,,,,,,,217.81484060001094,218.21664790000068,218.1987188999774,218.29880230000708,218.69949630001793,None,right,1,0.6352339000441134,218.69949630001793,None,218.1987188999774,218.29880230000708,218.29880230000708,None,219.3505795999663,None,,,,,,,11042,001,2024_Mar_15_1607,ANT,2021.2.3,59.97792812894114,
1,23,spatial,down,IC,L,,,,,,Block.xlsx,"你已经完成了第一个实验区组

请稍作休息


点击空格键进入下一个区组。",-1.5,0,-1.5,left,RRLRR.png,,,,,0,0,0,0,3,0,72,22,,,,,,,,,,,,,,,,,,,,,,,,,,,,,,,,,,,,,,,,,,,,,,,,,,,,,,,,,,,,,,,,219.75121969997417,220.1515558999963,220.1348769000033,220.23584729997674,220.63593749998836,None,left,1,0.4108352999901399,220.63593749998836,None,220.1348769000033,220.23584729997674,220.23584729997674,None,221.06956959998934,None,,,,,,,11042,001,2024_Mar_15_1607,ANT,2021.2.3,59.97792812894114,
1,4,no,up,IC,R,,,,,,Block.xlsx,"你已经完成了第一个实验区组

请稍作休息


点击空格键进入下一个区组。",50,0,1.5,right,LLRLL.png,,,,,0,0,0,0,3,1,73,3,,,,,,,,,,,,,,,,,,,,,,,,,,,,,,,,,,,,,,,,,,,,,,,,,,,,,,,,,,,,,,,,221.47026349999942,221.87129510001978,221.8556580999866,221.95443300000625,222.35609090002254,None,right,1,0.4350187000236474,222.35609090002254,None,221.8556580999866,221.95443300000625,221.95443300000625,None,222.80577069998253,None,,,,,,,11042,001,2024_Mar_15_1607,ANT,2021.2.3,59.97792812894114,
1,12,center,up,IC,R,,,,,,Block.xlsx,"你已经完成了第一个实验区组

请稍作休息


点击空格键进入下一个区组。",0,50,1.5,right,LLRLL.png,,,,,0,0,0,0,3,2,74,11,,,,,,,,,,,,,,,,,,,,,,,,,,,,,,,,,,,,,,,,,,,,,,,,,,,,,,,,,,,,,,,,223.2063869999838,223.60669029998826,223.5914191000047,223.69050089997472,224.0909789999714,None,right,1,0.4679242999991402,224.0909789999714,None,223.5914191000047,223.69050089997472,223.69050089997472,None,224.5754934999859,None,,,,,,,11042,001,2024_Mar_15_1607,ANT,2021.2.3,59.97792812894114,
1,2,no,up,C,R,,,,,,Block.xlsx,"你已经完成了第一个实验区组

请稍作休息


点击空格键进入下一个区组。",50,0,1.5,right,RRRRR.png,,,,,0,0,0,0,3,3,75,1,,,,,,,,,,,,,,,,,,,,,,,,,,,,,,,,,,,,,,,,,,,,,,,,,,,,,,,,,,,,,,,,224.97612379997736,225.3769372999668,225.35993079998298,225.45955959998537,225.86095359997125,None,right,1,0.36197840003296733,225.86095359997125,None,225.35993079998298,225.45955959998537,225.45955959998537,None,226.24497489997884,None,,,,,,,11042,001,2024_Mar_15_1607,ANT,2021.2.3,59.97792812894114,
1,5,no,down,C,L,,,,,,Block.xlsx,"你已经完成了第一个实验区组

请稍作休息


点击空格键进入下一个区组。",50,0,-1.5,left,LLLLL.png,,,,,0,0,0,0,3,4,76,4,,,,,,,,,,,,,,,,,,,,,,,,,,,,,,,,,,,,,,,,,,,,,,,,,,,,,,,,,,,,,,,,226.64506700000493,227.04696880001575,227.0292022000067,227.1302174999728,227.5308124999865,None,left,1,0.45183520001592115,227.5308124999865,None,227.0292022000067,227.1302174999728,227.1302174999728,None,228.01337469997816,None,,,,,,,11042,001,2024_Mar_15_1607,ANT,2021.2.3,59.97792812894114,
1,3,no,up,IC,L,,,,,,Block.xlsx,"你已经完成了第一个实验区组

请稍作休息


点击空格键进入下一个区组。",50,0,1.5,left,RRLRR.png,,,,,0,0,0,0,3,5,77,2,,,,,,,,,,,,,,,,,,,,,,,,,,,,,,,,,,,,,,,,,,,,,,,,,,,,,,,,,,,,,,,,228.414060399984,228.8147687999881,228.79808799998136,228.8991750999703,229.29884589998983,None,right,0,0.4042122000246309,229.29884589998983,None,228.79808799998136,228.8991750999703,228.8991750999703,None,229.73278259998187,None,,,,,,,11042,001,2024_Mar_15_1607,ANT,2021.2.3,59.97792812894114,
1,14,center,down,C,R,,,,,,Block.xlsx,"你已经完成了第一个实验区组

请稍作休息


点击空格键进入下一个区组。",0,50,-1.5,right,RRRRR.png,,,,,0,0,0,0,3,6,78,13,,,,,,,,,,,,,,,,,,,,,,,,,,,,,,,,,,,,,,,,,,,,,,,,,,,,,,,,,,,,,,,,230.13330220000353,230.53404990001582,230.51796590001322,230.6184263000032,231.01822729996638,None,right,1,0.4528273000032641,231.01822729996638,None,230.51796590001322,230.6184263000032,230.6184263000032,None,231.50202569999965,None,,,,,,,11042,001,2024_Mar_15_1607,ANT,2021.2.3,59.97792812894114,
1,1,no,up,C,L,,,,,,Block.xlsx,"你已经完成了第一个实验区组

请稍作休息


点击空格键进入下一个区组。",50,0,1.5,left,LLLLL.png,,,,,0,0,0,0,3,7,79,0,,,,,,,,,,,,,,,,,,,,,,,,,,,,,,,,,,,,,,,,,,,,,,,,,,,,,,,,,,,,,,,,231.90268960001413,232.3033830000204,232.287298500014,232.3880009999848,232.78726219997043,None,left,1,0.3964447999605909,232.78726219997043,None,232.287298500014,232.3880009999848,232.3880009999848,None,233.20491259999108,None,,,,,,,11042,001,2024_Mar_15_1607,ANT,2021.2.3,59.97792812894114,
1,2,no,up,C,R,,,,,,Block.xlsx,"你已经完成了第一个实验区组

请稍作休息


点击空格键进入下一个区组。",50,0,1.5,right,RRRRR.png,,,,,0,0,0,0,3,8,80,1,,,,,,,,,,,,,,,,,,,,,,,,,,,,,,,,,,,,,,,,,,,,,,,,,,,,,,,,,,,,,,,,233.60534189996542,234.0058621999924,233.989142299979,234.08937719999813,234.49128630000632,None,right,1,0.40383419999852777,234.49128630000632,None,233.989142299979,234.08937719999813,234.08937719999813,None,234.9239166000043,None,,,,,,,11042,001,2024_Mar_15_1607,ANT,2021.2.3,59.97792812894114,
1,4,no,up,IC,R,,,,,,Block.xlsx,"你已经完成了第一个实验区组

请稍作休息


点击空格键进入下一个区组。",50,0,1.5,right,LLRLL.png,,,,,0,0,0,0,3,9,81,3,,,,,,,,,,,,,,,,,,,,,,,,,,,,,,,,,,,,,,,,,,,,,,,,,,,,,,,,,,,,,,,,235.3249560999684,235.72631019999972,235.70838089997414,235.8087427999708,236.21001239999896,None,right,1,0.5012339999666438,236.21001239999896,None,235.70838089997414,235.8087427999708,235.8087427999708,None,236.72665799997048,None,,,,,,,11042,001,2024_Mar_15_1607,ANT,2021.2.3,59.97792812894114,
1,9,center,up,C,L,,,,,,Block.xlsx,"你已经完成了第一个实验区组

请稍作休息


点击空格键进入下一个区组。",0,50,1.5,left,LLLLL.png,,,,,0,0,0,0,3,10,82,8,,,,,,,,,,,,,,,,,,,,,,,,,,,,,,,,,,,,,,,,,,,,,,,,,,,,,,,,,,,,,,,,237.12728030001745,237.52827170002274,237.51127700001234,237.6124462999869,238.0119466999895,None,left,1,0.4592930999933742,238.0119466999895,None,237.51127700001234,237.6124462999869,237.6124462999869,None,238.4960080999881,None,,,,,,,11042,001,2024_Mar_15_1607,ANT,2021.2.3,59.97792812894114,
1,15,center,down,IC,L,,,,,,Block.xlsx,"你已经完成了第一个实验区组

请稍作休息


点击空格键进入下一个区组。",0,50,-1.5,left,RRLRR.png,,,,,0,0,0,0,3,11,83,14,,,,,,,,,,,,,,,,,,,,,,,,,,,,,,,,,,,,,,,,,,,,,,,,,,,,,,,,,,,,,,,,238.8965423000045,239.29786059999606,239.2804525999818,239.38075389998266,239.78187100001378,None,left,1,0.5533243999816477,239.78187100001378,None,239.2804525999818,239.38075389998266,239.38075389998266,None,240.36564009997528,None,,,,,,,11042,001,2024_Mar_15_1607,ANT,2021.2.3,59.97792812894114,
1,17,spatial,up,C,L,,,,,,Block.xlsx,"你已经完成了第一个实验区组

请稍作休息


点击空格键进入下一个区组。",1.5,0,1.5,left,LLLLL.png,,,,,0,0,0,0,3,12,84,16,,,,,,,,,,,,,,,,,,,,,,,,,,,,,,,,,,,,,,,,,,,,,,,,,,,,,,,,,,,,,,,,240.7665157999727,241.16679920000024,241.15038800000912,241.25087410002016,241.65081059996737,None,left,1,0.4765153999906033,241.65081059996737,None,241.15038800000912,241.25087410002016,241.25087410002016,None,242.15180409996537,None,,,,,,,11042,001,2024_Mar_15_1607,ANT,2021.2.3,59.97792812894114,
1,22,spatial,down,C,R,,,,,,Block.xlsx,"你已经完成了第一个实验区组

请稍作休息


点击空格键进入下一个区组。",-1.5,0,-1.5,right,RRRRR.png,,,,,0,0,0,0,3,13,85,21,,,,,,,,,,,,,,,,,,,,,,,,,,,,,,,,,,,,,,,,,,,,,,,,,,,,,,,,,,,,,,,,242.55291749996832,242.95326249999925,242.93602490000194,243.03612870001234,243.43678809999255,None,right,1,0.37904049997450784,243.43678809999255,None,242.93602490000194,243.03612870001234,243.03612870001234,None,243.83767659997102,None,,,,,,,11042,001,2024_Mar_15_1607,ANT,2021.2.3,59.97792812894114,
1,13,center,down,C,L,,,,,,Block.xlsx,"你已经完成了第一个实验区组

请稍作休息


点击空格键进入下一个区组。",0,50,-1.5,left,LLLLL.png,,,,,0,0,0,0,3,14,86,12,,,,,,,,,,,,,,,,,,,,,,,,,,,,,,,,,,,,,,,,,,,,,,,,,,,,,,,,,,,,,,,,244.23792589997174,244.63858709996566,244.62195519998204,244.7219982999959,245.1226491999696,None,left,1,0.6287732999771833,245.1226491999696,None,244.62195519998204,244.7219982999959,244.7219982999959,None,245.7736900000018,None,,,,,,,11042,001,2024_Mar_15_1607,ANT,2021.2.3,59.97792812894114,
1,2,no,up,C,R,,,,,,Block.xlsx,"你已经完成了第一个实验区组

请稍作休息


点击空格键进入下一个区组。",50,0,1.5,right,RRRRR.png,,,,,0,0,0,0,3,15,87,1,,,,,,,,,,,,,,,,,,,,,,,,,,,,,,,,,,,,,,,,,,,,,,,,,,,,,,,,,,,,,,,,246.17472740000812,246.57553600001847,246.55957109999144,246.65837249998003,247.05894790001912,None,right,1,0.4605462999898009,247.05894790001912,None,246.55957109999144,246.65837249998003,246.65837249998003,None,247.54295699996874,None,,,,,,,11042,001,2024_Mar_15_1607,ANT,2021.2.3,59.97792812894114,
1,17,spatial,up,C,L,,,,,,Block.xlsx,"你已经完成了第一个实验区组

请稍作休息


点击空格键进入下一个区组。",1.5,0,1.5,left,LLLLL.png,,,,,0,0,0,0,3,16,88,16,,,,,,,,,,,,,,,,,,,,,,,,,,,,,,,,,,,,,,,,,,,,,,,,,,,,,,,,,,,,,,,,247.94367209996562,248.34420400002273,248.32839109998895,248.42823479999788,248.8283545000013,None,left,1,0.4673270999919623,248.8283545000013,None,248.32839109998895,248.42823479999788,248.42823479999788,None,249.31221499998355,None,,,,,,,11042,001,2024_Mar_15_1607,ANT,2021.2.3,59.97792812894114,
1,17,spatial,up,C,L,,,,,,Block.xlsx,"你已经完成了第一个实验区组

请稍作休息


点击空格键进入下一个区组。",1.5,0,1.5,left,LLLLL.png,,,,,0,0,0,0,3,17,89,16,,,,,,,,,,,,,,,,,,,,,,,,,,,,,,,,,,,,,,,,,,,,,,,,,,,,,,,,,,,,,,,,249.71290139999473,250.1139933000086,250.09893269999884,250.21410629997263,250.59869299997808,None,left,1,0.4170181999797933,250.59869299997808,None,250.09893269999884,250.21410629997263,250.19829319999553,None,251.0316107000108,None,,,,,,,11042,001,2024_Mar_15_1607,ANT,2021.2.3,59.97792812894114,
1,23,spatial,down,IC,L,,,,,,Block.xlsx,"你已经完成了第一个实验区组

请稍作休息


点击空格键进入下一个区组。",-1.5,0,-1.5,left,RRLRR.png,,,,,0,0,0,0,3,18,90,22,,,,,,,,,,,,,,,,,,,,,,,,,,,,,,,,,,,,,,,,,,,,,,,,,,,,,,,,,,,,,,,,251.43219570000656,251.83383620000677,251.8165757000097,251.91769039997598,252.3174346999731,None,left,1,0.450821700040251,252.3174346999731,None,251.8165757000097,251.91769039997598,251.91769039997598,None,252.78405349998502,None,,,,,,,11042,001,2024_Mar_15_1607,ANT,2021.2.3,59.97792812894114,
1,21,spatial,down,C,L,,,,,,Block.xlsx,"你已经完成了第一个实验区组

请稍作休息


点击空格键进入下一个区组。",-1.5,0,-1.5,left,LLLLL.png,,,,,0,0,0,0,3,19,91,20,,,,,,,,,,,,,,,,,,,,,,,,,,,,,,,,,,,,,,,,,,,,,,,,,,,,,,,,,,,,,,,,253.1849407000118,253.5854193000123,253.56876940000802,253.66927149996627,254.06933690002188,None,left,1,0.49833330005640164,254.06933690002188,None,253.56876940000802,253.66927149996627,253.66927149996627,None,254.5869808999705,None,,,,,,,11042,001,2024_Mar_15_1607,ANT,2021.2.3,59.97792812894114,
1,12,center,up,IC,R,,,,,,Block.xlsx,"你已经完成了第一个实验区组

请稍作休息


点击空格键进入下一个区组。",0,50,1.5,right,LLRLL.png,,,,,0,0,0,0,3,20,92,11,,,,,,,,,,,,,,,,,,,,,,,,,,,,,,,,,,,,,,,,,,,,,,,,,,,,,,,,,,,,,,,,254.9874928999925,255.3881005999865,255.37148169998545,255.4716948000132,255.8722122000181,None,right,1,0.5112664999905974,255.8722122000181,None,255.37148169998545,255.4716948000132,255.4716948000132,None,256.40631579997716,None,,,,,,,11042,001,2024_Mar_15_1607,ANT,2021.2.3,59.97792812894114,
1,17,spatial,up,C,L,,,,,,Block.xlsx,"你已经完成了第一个实验区组

请稍作休息


点击空格键进入下一个区组。",1.5,0,1.5,left,LLLLL.png,,,,,0,0,0,0,3,21,93,16,,,,,,,,,,,,,,,,,,,,,,,,,,,,,,,,,,,,,,,,,,,,,,,,,,,,,,,,,,,,,,,,256.80687979998766,257.20771260000765,257.19171939999796,257.2919814999914,257.6915977000026,None,left,1,0.4285865999991074,257.6915977000026,None,257.19171939999796,257.2919814999914,257.2919814999914,None,258.1422363999882,None,,,,,,,11042,001,2024_Mar_15_1607,ANT,2021.2.3,59.97792812894114,
1,5,no,down,C,L,,,,,,Block.xlsx,"你已经完成了第一个实验区组

请稍作休息


点击空格键进入下一个区组。",50,0,-1.5,left,LLLLL.png,,,,,0,0,0,0,3,22,94,4,,,,,,,,,,,,,,,,,,,,,,,,,,,,,,,,,,,,,,,,,,,,,,,,,,,,,,,,,,,,,,,,258.5429063999909,258.9442703999812,258.92687029996887,259.0276991999708,259.42780569999013,None,left,1,0.46820619999198243,259.42780569999013,None,258.92687029996887,259.0276991999708,259.0276991999708,None,259.91166709997924,None,,,,,,,11042,001,2024_Mar_15_1607,ANT,2021.2.3,59.97792812894114,
1,14,center,down,C,R,,,,,,Block.xlsx,"你已经完成了第一个实验区组

请稍作休息


点击空格键进入下一个区组。",0,50,-1.5,right,RRRRR.png,,,,,0,0,0,0,3,23,95,13,,,,,,,,,,,,,,,,,,,,,,,,,,,,,,,,,,,,,,,,,,,,,,,,,,,,,,,,,,,,,,,,260.31252109998604,260.7129834999796,260.6960211999831,260.796893599967,261.19819089997327,None,right,1,0.49755550001282245,261.19819089997327,None,260.6960211999831,260.796893599967,260.796893599967,None,261.7143917999929,None,,,,,,,11042,001,2024_Mar_15_1607,ANT,2021.2.3,59.97792812894114,
,,,,,,,,,,,Block.xlsx,"你已经完成了第一个实验区组

请稍作休息


点击空格键进入下一个区组。",,,,,,,,,,0,0,0,0,,,,,,,,,,,,,,,,,,,,,,,,,,,,,,,,,,,,,,,,,,,,,,,,,,,,,,,,,,,,,,,,,,,,,,,,,,,,,,,,,,,,,space,7.005383200012147,262.11444769997615,None,262.11444769997615,None,11042,001,2024_Mar_15_1607,ANT,2021.2.3,59.97792812894114,
1,23,spatial,down,IC,L,,,,,,Block.xlsx,"你已经完成了整个实验（三个区组）。

请报告实验者已完成实验

非常感谢，再见！",-1.5,0,-1.5,left,RRLRR.png,,,,,0,1,1,1,0,0,0,22,,,,,,,,,,,,,,,,,,,,,,,,,,,,,,,,,,,,,,,,,,,,,,,,,,,,,,,,,,,,,,,,269.158899299975,269.5595074999728,269.5429880999727,269.6435832999996,270.04384310002206,None,left,1,0.4684127000509761,270.04384310002206,None,269.5429880999727,269.6435832999996,269.6435832999996,None,270.5276651000022,None,,,,,,,11042,001,2024_Mar_15_1607,ANT,2021.2.3,59.97792812894114,
1,10,center,up,C,R,,,,,,Block.xlsx,"你已经完成了整个实验（三个区组）。

请报告实验者已完成实验

非常感谢，再见！",0,50,1.5,right,RRRRR.png,,,,,0,1,1,1,0,1,1,9,,,,,,,,,,,,,,,,,,,,,,,,,,,,,,,,,,,,,,,,,,,,,,,,,,,,,,,,,,,,,,,,270.9284401999903,271.33024769998156,271.3127566999756,271.41235369996866,271.81478109996533,None,right,1,0.4412019000155851,271.81478109996533,None,271.3127566999756,271.41235369996866,271.41235369996866,None,272.2803060999722,None,,,,,,,11042,001,2024_Mar_15_1607,ANT,2021.2.3,59.97792812894114,
1,19,spatial,up,IC,L,,,,,,Block.xlsx,"你已经完成了整个实验（三个区组）。

请报告实验者已完成实验

非常感谢，再见！",1.5,0,1.5,left,RRLRR.png,,,,,0,1,1,1,0,2,2,18,,,,,,,,,,,,,,,,,,,,,,,,,,,,,,,,,,,,,,,,,,,,,,,,,,,,,,,,,,,,,,,,272.6810222999775,273.0815350000048,273.064918100019,273.16606849996606,273.5656438000151,None,left,1,0.4348529999842867,273.5656438000151,None,273.064918100019,273.16606849996606,273.16606849996606,None,274.0164899000083,None,,,,,,,11042,001,2024_Mar_15_1607,ANT,2021.2.3,59.97792812894114,
1,11,center,up,IC,L,,,,,,Block.xlsx,"你已经完成了整个实验（三个区组）。

请报告实验者已完成实验

非常感谢，再见！",0,50,1.5,left,RRLRR.png,,,,,0,1,1,1,0,3,3,10,,,,,,,,,,,,,,,,,,,,,,,,,,,,,,,,,,,,,,,,,,,,,,,,,,,,,,,,,,,,,,,,274.41680130001623,274.81821719999425,274.80147840001155,274.90128900000127,275.3016001000069,None,left,1,0.48265650001121685,275.3016001000069,None,274.80147840001155,274.90128900000127,274.90128900000127,None,275.802150500007,None,,,,,,,11042,001,2024_Mar_15_1607,ANT,2021.2.3,59.97792812894114,
1,24,spatial,down,IC,R,,,,,,Block.xlsx,"你已经完成了整个实验（三个区组）。

请报告实验者已完成实验

非常感谢，再见！",-1.5,0,-1.5,right,LLRLL.png,,,,,0,1,1,1,0,4,4,23,,,,,,,,,,,,,,,,,,,,,,,,,,,,,,,,,,,,,,,,,,,,,,,,,,,,,,,,,,,,,,,,276.2027798999916,276.6045196999912,276.5868147999863,276.68679170001997,277.08776730002137,None,right,1,0.5283387000090443,277.08776730002137,None,276.5868147999863,276.68679170001997,276.68679170001997,None,277.6383851999999,None,,,,,,,11042,001,2024_Mar_15_1607,ANT,2021.2.3,59.97792812894114,
1,13,center,down,C,L,,,,,,Block.xlsx,"你已经完成了整个实验（三个区组）。

请报告实验者已完成实验

非常感谢，再见！",0,50,-1.5,left,LLLLL.png,,,,,0,1,1,1,0,5,5,12,,,,,,,,,,,,,,,,,,,,,,,,,,,,,,,,,,,,,,,,,,,,,,,,,,,,,,,,,,,,,,,,278.03985409997404,278.4399798999657,278.42376979999244,278.54093690001173,278.923676699982,None,left,1,0.5964621999883093,278.923676699982,None,278.42376979999244,278.54093690001173,278.5235927000176,None,279.5412857999909,None,,,,,,,11042,001,2024_Mar_15_1607,ANT,2021.2.3,59.97792812894114,
1,14,center,down,C,R,,,,,,Block.xlsx,"你已经完成了整个实验（三个区组）。

请报告实验者已完成实验

非常感谢，再见！",0,50,-1.5,right,RRRRR.png,,,,,0,1,1,1,0,6,6,13,,,,,,,,,,,,,,,,,,,,,,,,,,,,,,,,,,,,,,,,,,,,,,,,,,,,,,,,,,,,,,,,279.94167490000837,280.3430880999658,280.3270705000032,280.44372739997925,280.82631689996924,None,right,1,0.47804570000153035,280.82631689996924,None,280.3270705000032,280.44372739997925,280.4267733999877,None,281.3272594999871,None,,,,,,,11042,001,2024_Mar_15_1607,ANT,2021.2.3,59.97792812894114,
1,14,center,down,C,R,,,,,,Block.xlsx,"你已经完成了整个实验（三个区组）。

请报告实验者已完成实验

非常感谢，再见！",0,50,-1.5,right,RRRRR.png,,,,,0,1,1,1,0,7,7,13,,,,,,,,,,,,,,,,,,,,,,,,,,,,,,,,,,,,,,,,,,,,,,,,,,,,,,,,,,,,,,,,281.72803709999425,282.1286728999694,282.1123411000008,282.21195650001755,282.6130008000182,None,right,1,0.4032676999922842,282.6130008000182,None,282.1123411000008,282.21195650001755,282.21195650001755,None,283.04641770001035,None,,,,,,,11042,001,2024_Mar_15_1607,ANT,2021.2.3,59.97792812894114,
1,6,no,down,C,R,,,,,,Block.xlsx,"你已经完成了整个实验（三个区组）。

请报告实验者已完成实验

非常感谢，再见！",50,0,-1.5,right,RRRRR.png,,,,,0,1,1,1,0,8,8,5,,,,,,,,,,,,,,,,,,,,,,,,,,,,,,,,,,,,,,,,,,,,,,,,,,,,,,,,,,,,,,,,283.44711649999954,283.84881830000086,283.8309999000048,283.9310170999961,284.3324452000088,None,right,1,0.4440421999897808,284.3324452000088,None,283.8309999000048,283.9310170999961,283.9310170999961,None,284.7995695999707,None,,,,,,,11042,001,2024_Mar_15_1607,ANT,2021.2.3,59.97792812894114,
1,5,no,down,C,L,,,,,,Block.xlsx,"你已经完成了整个实验（三个区组）。

请报告实验者已完成实验

非常感谢，再见！",50,0,-1.5,left,LLLLL.png,,,,,0,1,1,1,0,9,9,4,,,,,,,,,,,,,,,,,,,,,,,,,,,,,,,,,,,,,,,,,,,,,,,,,,,,,,,,,,,,,,,,285.19988540001214,285.6007934999652,285.58403799997177,285.6848558000056,286.0848424999858,None,left,1,0.459779399971012,286.0848424999858,None,285.58403799997177,285.6848558000056,285.6848558000056,None,286.5687550000148,None,,,,,,,11042,001,2024_Mar_15_1607,ANT,2021.2.3,59.97792812894114,
1,7,no,down,IC,L,,,,,,Block.xlsx,"你已经完成了整个实验（三个区组）。

请报告实验者已完成实验

非常感谢，再见！",50,0,-1.5,left,RRLRR.png,,,,,0,1,1,1,0,10,10,6,,,,,,,,,,,,,,,,,,,,,,,,,,,,,,,,,,,,,,,,,,,,,,,,,,,,,,,,,,,,,,,,286.9689923999831,287.3705017999746,287.35371699999087,287.4530313999858,287.85424329998204,None,right,0,0.41026309999870136,287.85424329998204,None,287.35371699999087,287.4530313999858,287.4530313999858,None,288.28808440000284,None,,,,,,,11042,001,2024_Mar_15_1607,ANT,2021.2.3,59.97792812894114,
1,12,center,up,IC,R,,,,,,Block.xlsx,"你已经完成了整个实验（三个区组）。

请报告实验者已完成实验

非常感谢，再见！",0,50,1.5,right,LLRLL.png,,,,,0,1,1,1,0,11,11,11,,,,,,,,,,,,,,,,,,,,,,,,,,,,,,,,,,,,,,,,,,,,,,,,,,,,,,,,,,,,,,,,288.68838760000654,289.08977319998667,289.0730383999762,289.17242359998636,289.573655300017,None,right,1,0.5475683000404388,289.573655300017,None,289.0730383999762,289.17242359998636,289.17242359998636,None,290.1405360000208,None,,,,,,,11042,001,2024_Mar_15_1607,ANT,2021.2.3,59.97792812894114,
1,2,no,up,C,R,,,,,,Block.xlsx,"你已经完成了整个实验（三个区组）。

请报告实验者已完成实验

非常感谢，再见！",50,0,1.5,right,RRRRR.png,,,,,0,1,1,1,0,12,12,1,,,,,,,,,,,,,,,,,,,,,,,,,,,,,,,,,,,,,,,,,,,,,,,,,,,,,,,,,,,,,,,,290.54116660001455,290.9416569999885,290.92603420000523,291.0252884000074,291.42648019996705,None,right,1,0.40670270001282915,291.42648019996705,None,290.92603420000523,291.0252884000074,291.0252884000074,None,291.8596226000227,None,,,,,,,11042,001,2024_Mar_15_1607,ANT,2021.2.3,59.97792812894114,
1,4,no,up,IC,R,,,,,,Block.xlsx,"你已经完成了整个实验（三个区组）。

请报告实验者已完成实验

非常感谢，再见！",50,0,1.5,right,LLRLL.png,,,,,0,1,1,1,0,13,13,3,,,,,,,,,,,,,,,,,,,,,,,,,,,,,,,,,,,,,,,,,,,,,,,,,,,,,,,,,,,,,,,,292.2606722000055,292.66217369999504,292.6445663999766,292.74476299999515,293.1461371000041,None,right,1,0.5262590000056662,293.1461371000041,None,292.6445663999766,292.74476299999515,292.74476299999515,None,293.69588750001276,None,,,,,,,11042,001,2024_Mar_15_1607,ANT,2021.2.3,59.97792812894114,
1,24,spatial,down,IC,R,,,,,,Block.xlsx,"你已经完成了整个实验（三个区组）。

请报告实验者已完成实验

非常感谢，再见！",-1.5,0,-1.5,right,LLRLL.png,,,,,0,1,1,1,0,14,14,23,,,,,,,,,,,,,,,,,,,,,,,,,,,,,,,,,,,,,,,,,,,,,,,,,,,,,,,,,,,,,,,,294.0964696999872,294.4971335000009,294.48118269996485,294.58064130001003,294.9830037999782,None,right,1,0.44178689998807386,294.9830037999782,None,294.48118269996485,294.58064130001003,294.58064130001003,None,295.4489766000188,None,,,,,,,11042,001,2024_Mar_15_1607,ANT,2021.2.3,59.97792812894114,
1,11,center,up,IC,L,,,,,,Block.xlsx,"你已经完成了整个实验（三个区组）。

请报告实验者已完成实验

非常感谢，再见！",0,50,1.5,left,RRLRR.png,,,,,0,1,1,1,0,15,15,10,,,,,,,,,,,,,,,,,,,,,,,,,,,,,,,,,,,,,,,,,,,,,,,,,,,,,,,,,,,,,,,,295.84941209998215,296.2511747999815,296.23318829998607,296.3338056000066,296.7354780000169,None,left,1,0.5455553999636322,296.7354780000169,None,296.23318829998607,296.3338056000066,296.3338056000066,None,297.3013195999665,None,,,,,,,11042,001,2024_Mar_15_1607,ANT,2021.2.3,59.97792812894114,
1,5,no,down,C,L,,,,,,Block.xlsx,"你已经完成了整个实验（三个区组）。

请报告实验者已完成实验

非常感谢，再见！",50,0,-1.5,left,LLLLL.png,,,,,0,1,1,1,0,16,16,4,,,,,,,,,,,,,,,,,,,,,,,,,,,,,,,,,,,,,,,,,,,,,,,,,,,,,,,,,,,,,,,,297.70165950001683,298.1033481999766,298.0856468999991,298.1858742000186,298.5870249000145,None,left,1,0.47777810000116006,298.5870249000145,None,298.0856468999991,298.1858742000186,298.1858742000186,None,299.08749669999816,None,,,,,,,11042,001,2024_Mar_15_1607,ANT,2021.2.3,59.97792812894114,
1,24,spatial,down,IC,R,,,,,,Block.xlsx,"你已经完成了整个实验（三个区组）。

请报告实验者已完成实验

非常感谢，再见！",-1.5,0,-1.5,right,LLRLL.png,,,,,0,1,1,1,0,17,17,23,,,,,,,,,,,,,,,,,,,,,,,,,,,,,,,,,,,,,,,,,,,,,,,,,,,,,,,,,,,,,,,,299.4880396000226,299.8895247000037,299.8720688999747,299.97208919998957,300.37327500001993,None,right,1,0.4437041000346653,300.37327500001993,None,299.8720688999747,299.97208919998957,299.97208919998957,None,300.83978849998675,None,,,,,,,11042,001,2024_Mar_15_1607,ANT,2021.2.3,59.97792812894114,
1,18,spatial,up,C,R,,,,,,Block.xlsx,"你已经完成了整个实验（三个区组）。

请报告实验者已完成实验

非常感谢，再见！",1.5,0,1.5,right,RRRRR.png,,,,,0,1,1,1,0,18,18,17,,,,,,,,,,,,,,,,,,,,,,,,,,,,,,,,,,,,,,,,,,,,,,,,,,,,,,,,,,,,,,,,301.240600500023,301.6421158000012,301.6245361000183,301.72469980001915,302.12508859997615,None,right,1,0.40361589996609837,302.12508859997615,None,301.6245361000183,301.72469980001915,301.72469980001915,None,302.55957619997207,None,,,,,,,11042,001,2024_Mar_15_1607,ANT,2021.2.3,59.97792812894114,
1,23,spatial,down,IC,L,,,,,,Block.xlsx,"你已经完成了整个实验（三个区组）。

请报告实验者已完成实验

非常感谢，再见！",-1.5,0,-1.5,left,RRLRR.png,,,,,0,1,1,1,0,19,19,22,,,,,,,,,,,,,,,,,,,,,,,,,,,,,,,,,,,,,,,,,,,,,,,,,,,,,,,,,,,,,,,,302.96029570000246,303.3604739999864,303.3462319999817,303.46200459997635,303.8459581999923,None,left,1,0.41133169998647645,303.8459581999923,None,303.3462319999817,303.46200459997635,303.4450938999653,None,304.27943539997796,None,,,,,,,11042,001,2024_Mar_15_1607,ANT,2021.2.3,59.97792812894114,
1,2,no,up,C,R,,,,,,Block.xlsx,"你已经完成了整个实验（三个区组）。

请报告实验者已完成实验

非常感谢，再见！",50,0,1.5,right,RRRRR.png,,,,,0,1,1,1,0,20,20,1,,,,,,,,,,,,,,,,,,,,,,,,,,,,,,,,,,,,,,,,,,,,,,,,,,,,,,,,,,,,,,,,304.6791687000077,305.08070180000504,305.06293139996706,305.16454829997383,305.56430239998735,None,right,1,0.4291363999946043,305.56430239998735,None,305.06293139996706,305.16454829997383,305.16454829997383,None,306.0146523999865,None,,,,,,,11042,001,2024_Mar_15_1607,ANT,2021.2.3,59.97792812894114,
1,5,no,down,C,L,,,,,,Block.xlsx,"你已经完成了整个实验（三个区组）。

请报告实验者已完成实验

非常感谢，再见！",50,0,-1.5,left,LLLLL.png,,,,,0,1,1,1,0,21,21,4,,,,,,,,,,,,,,,,,,,,,,,,,,,,,,,,,,,,,,,,,,,,,,,,,,,,,,,,,,,,,,,,306.4149130000151,306.8167353000026,306.7990325000137,306.89926919998834,307.3013002999942,None,left,1,0.46803290001116693,307.3013002999942,None,306.7990325000137,306.89926919998834,306.89926919998834,None,307.80021319998195,None,,,,,,,11042,001,2024_Mar_15_1607,ANT,2021.2.3,59.97792812894114,
1,20,spatial,up,IC,R,,,,,,Block.xlsx,"你已经完成了整个实验（三个区组）。

请报告实验者已完成实验

非常感谢，再见！",1.5,0,1.5,right,LLRLL.png,,,,,0,1,1,1,0,22,22,19,,,,,,,,,,,,,,,,,,,,,,,,,,,,,,,,,,,,,,,,,,,,,,,,,,,,,,,,,,,,,,,,308.2010849000071,308.60275379999075,308.58497600001283,308.68547430000035,309.08554509998066,None,right,1,0.41948179999599233,309.08554509998066,None,308.58497600001283,308.68547430000035,308.68547430000035,None,309.5199112999835,None,,,,,,,11042,001,2024_Mar_15_1607,ANT,2021.2.3,59.97792812894114,
1,10,center,up,C,R,,,,,,Block.xlsx,"你已经完成了整个实验（三个区组）。

请报告实验者已完成实验

非常感谢，再见！",0,50,1.5,right,RRRRR.png,,,,,0,1,1,1,0,23,23,9,,,,,,,,,,,,,,,,,,,,,,,,,,,,,,,,,,,,,,,,,,,,,,,,,,,,,,,,,,,,,,,,309.9202206999762,310.32204270001967,310.3048907999764,310.4043989999918,310.8051087000058,None,right,1,0.44407219998538494,310.8051087000058,None,310.3048907999764,310.4043989999918,310.4043989999918,None,311.27272800001083,None,,,,,,,11042,001,2024_Mar_15_1607,ANT,2021.2.3,59.97792812894114,
1,22,spatial,down,C,R,,,,,,Block.xlsx,"你已经完成了整个实验（三个区组）。

请报告实验者已完成实验

非常感谢，再见！",-1.5,0,-1.5,right,RRRRR.png,,,,,0,1,1,1,1,0,24,21,,,,,,,,,,,,,,,,,,,,,,,,,,,,,,,,,,,,,,,,,,,,,,,,,,,,,,,,,,,,,,,,311.673330599966,312.07472049997887,312.0569088999764,312.15768240002217,312.5576056999853,None,right,1,0.3715647999779321,312.5576056999853,None,312.0569088999764,312.15768240002217,312.15768240002217,None,312.95848339999793,None,,,,,,,11042,001,2024_Mar_15_1607,ANT,2021.2.3,59.97792812894114,
1,22,spatial,down,C,R,,,,,,Block.xlsx,"你已经完成了整个实验（三个区组）。

请报告实验者已完成实验

非常感谢，再见！",-1.5,0,-1.5,right,RRRRR.png,,,,,0,1,1,1,1,1,25,21,,,,,,,,,,,,,,,,,,,,,,,,,,,,,,,,,,,,,,,,,,,,,,,,,,,,,,,,,,,,,,,,313.3588590999716,313.7601928000222,313.74300030001905,313.84335069998633,314.2444046000019,None,right,1,0.3645925000309944,314.2444046000019,None,313.74300030001905,313.84335069998633,313.84335069998633,None,314.62737080000807,None,,,,,,,11042,001,2024_Mar_15_1607,ANT,2021.2.3,59.97792812894114,
1,9,center,up,C,L,,,,,,Block.xlsx,"你已经完成了整个实验（三个区组）。

请报告实验者已完成实验

非常感谢，再见！",0,50,1.5,left,LLLLL.png,,,,,0,1,1,1,1,2,26,8,,,,,,,,,,,,,,,,,,,,,,,,,,,,,,,,,,,,,,,,,,,,,,,,,,,,,,,,,,,,,,,,315.0282390000066,315.4287346000201,315.4133475999697,315.5132912999834,315.9140780000016,None,left,1,0.41648040001746267,315.9140780000016,None,315.4133475999697,315.5132912999834,315.5132912999834,None,316.3465829999768,None,,,,,,,11042,001,2024_Mar_15_1607,ANT,2021.2.3,59.97792812894114,
1,4,no,up,IC,R,,,,,,Block.xlsx,"你已经完成了整个实验（三个区组）。

请报告实验者已完成实验

非常感谢，再见！",50,0,1.5,right,LLRLL.png,,,,,0,1,1,1,1,3,27,3,,,,,,,,,,,,,,,,,,,,,,,,,,,,,,,,,,,,,,,,,,,,,,,,,,,,,,,,,,,,,,,,316.74734040000476,317.1492433999665,317.13140279997606,317.2313535999856,317.6329519000137,None,right,1,0.4563950000447221,317.6329519000137,None,317.13140279997606,317.2313535999856,317.2313535999856,None,318.11604529997567,None,,,,,,,11042,001,2024_Mar_15_1607,ANT,2021.2.3,59.97792812894114,
1,8,no,down,IC,R,,,,,,Block.xlsx,"你已经完成了整个实验（三个区组）。

请报告实验者已完成实验

非常感谢，再见！",50,0,-1.5,right,LLRLL.png,,,,,0,1,1,1,1,4,28,7,,,,,,,,,,,,,,,,,,,,,,,,,,,,,,,,,,,,,,,,,,,,,,,,,,,,,,,,,,,,,,,,318.51672369998414,318.91761289996793,318.9013103999896,319.0006735000061,319.4014899000176,None,right,1,0.5276676000212319,319.4014899000176,None,318.9013103999896,319.0006735000061,319.0006735000061,None,319.95215879997704,None,,,,,,,11042,001,2024_Mar_15_1607,ANT,2021.2.3,59.97792812894114,
1,17,spatial,up,C,L,,,,,,Block.xlsx,"你已经完成了整个实验（三个区组）。

请报告实验者已完成实验

非常感谢，再见！",1.5,0,1.5,left,LLLLL.png,,,,,0,1,1,1,1,5,29,16,,,,,,,,,,,,,,,,,,,,,,,,,,,,,,,,,,,,,,,,,,,,,,,,,,,,,,,,,,,,,,,,320.3526465999894,320.7537374999956,320.73663020000095,320.83755799999926,321.2387076999876,None,left,1,0.38672589999623597,321.2387076999876,None,320.73663020000095,320.83755799999926,320.83755799999926,None,321.65498829999706,None,,,,,,,11042,001,2024_Mar_15_1607,ANT,2021.2.3,59.97792812894114,
1,18,spatial,up,C,R,,,,,,Block.xlsx,"你已经完成了整个实验（三个区组）。

请报告实验者已完成实验

非常感谢，再见！",1.5,0,1.5,right,RRRRR.png,,,,,0,1,1,1,1,6,30,17,,,,,,,,,,,,,,,,,,,,,,,,,,,,,,,,,,,,,,,,,,,,,,,,,,,,,,,,,,,,,,,,322.05543529998977,322.45726559998,322.43937929999083,322.5401995999855,322.9405469999765,None,right,1,0.36601350002456456,322.9405469999765,None,322.43937929999083,322.5401995999855,322.5401995999855,None,323.3239191999892,None,,,,,,,11042,001,2024_Mar_15_1607,ANT,2021.2.3,59.97792812894114,
1,13,center,down,C,L,,,,,,Block.xlsx,"你已经完成了整个实验（三个区组）。

请报告实验者已完成实验

非常感谢，再见！",0,50,-1.5,left,LLLLL.png,,,,,0,1,1,1,1,7,31,12,,,,,,,,,,,,,,,,,,,,,,,,,,,,,,,,,,,,,,,,,,,,,,,,,,,,,,,,,,,,,,,,323.724487999978,324.12529970001196,324.10950479999883,324.2256191999768,324.6091056999867,None,left,1,0.44893360004061833,324.6091056999867,None,324.10950479999883,324.2256191999768,324.2100854999735,None,325.07673500000965,None,,,,,,,11042,001,2024_Mar_15_1607,ANT,2021.2.3,59.97792812894114,
1,22,spatial,down,C,R,,,,,,Block.xlsx,"你已经完成了整个实验（三个区组）。

请报告实验者已完成实验

非常感谢，再见！",-1.5,0,-1.5,right,RRRRR.png,,,,,0,1,1,1,1,8,32,21,,,,,,,,,,,,,,,,,,,,,,,,,,,,,,,,,,,,,,,,,,,,,,,,,,,,,,,,,,,,,,,,325.4770605000085,325.87946680001915,325.8614768999978,325.9613678000169,326.3620005999692,None,right,1,0.35964769998099655,326.3620005999692,None,325.8614768999978,325.9613678000169,325.9613678000169,None,326.7460938000004,None,,,,,,,11042,001,2024_Mar_15_1607,ANT,2021.2.3,59.97792812894114,
1,22,spatial,down,C,R,,,,,,Block.xlsx,"你已经完成了整个实验（三个区组）。

请报告实验者已完成实验

非常感谢，再见！",-1.5,0,-1.5,right,RRRRR.png,,,,,0,1,1,1,1,9,33,21,,,,,,,,,,,,,,,,,,,,,,,,,,,,,,,,,,,,,,,,,,,,,,,,,,,,,,,,,,,,,,,,327.14622110000346,327.54737699998077,327.53037900000345,327.63167919998523,328.03112770000007,None,right,1,0.3384624000173062,328.03112770000007,None,327.53037900000345,327.63167919998523,327.63167919998523,None,328.3981806000229,None,,,,,,,11042,001,2024_Mar_15_1607,ANT,2021.2.3,59.97792812894114,
1,20,spatial,up,IC,R,,,,,,Block.xlsx,"你已经完成了整个实验（三个区组）。

请报告实验者已完成实验

非常感谢，再见！",1.5,0,1.5,right,LLRLL.png,,,,,0,1,1,1,1,10,34,19,,,,,,,,,,,,,,,,,,,,,,,,,,,,,,,,,,,,,,,,,,,,,,,,,,,,,,,,,,,,,,,,328.79878189996816,329.2002952999901,329.18276569998125,329.2832186999731,329.68360089999624,None,right,1,0.3581329999724403,329.68360089999624,None,329.18276569998125,329.2832186999731,329.2832186999731,None,330.06740870000795,None,,,,,,,11042,001,2024_Mar_15_1607,ANT,2021.2.3,59.97792812894114,
1,14,center,down,C,R,,,,,,Block.xlsx,"你已经完成了整个实验（三个区组）。

请报告实验者已完成实验

非常感谢，再见！",0,50,-1.5,right,RRRRR.png,,,,,0,1,1,1,1,11,35,13,,,,,,,,,,,,,,,,,,,,,,,,,,,,,,,,,,,,,,,,,,,,,,,,,,,,,,,,,,,,,,,,330.46816230000695,330.8698370999773,330.85211089998484,330.95204810000723,331.3529180000187,None,right,1,0.38498159998562187,331.3529180000187,None,330.85211089998484,330.95204810000723,330.95204810000723,None,331.75338479998754,None,,,,,,,11042,001,2024_Mar_15_1607,ANT,2021.2.3,59.97792812894114,
1,19,spatial,up,IC,L,,,,,,Block.xlsx,"你已经完成了整个实验（三个区组）。

请报告实验者已完成实验

非常感谢，再见！",1.5,0,1.5,left,RRLRR.png,,,,,0,1,1,1,1,12,36,18,,,,,,,,,,,,,,,,,,,,,,,,,,,,,,,,,,,,,,,,,,,,,,,,,,,,,,,,,,,,,,,,332.15430270001525,332.554976799991,332.53811470000073,332.6390369000146,333.03855449997354,None,left,1,0.3870726000168361,333.03855449997354,None,332.53811470000073,332.6390369000146,332.6390369000146,None,333.4558273999719,None,,,,,,,11042,001,2024_Mar_15_1607,ANT,2021.2.3,59.97792812894114,
1,1,no,up,C,L,,,,,,Block.xlsx,"你已经完成了整个实验（三个区组）。

请报告实验者已完成实验

非常感谢，再见！",50,0,1.5,left,LLLLL.png,,,,,0,1,1,1,1,13,37,0,,,,,,,,,,,,,,,,,,,,,,,,,,,,,,,,,,,,,,,,,,,,,,,,,,,,,,,,,,,,,,,,333.85762899997644,334.25694280001335,334.2416710999678,334.357265300001,334.74138610000955,None,left,1,0.5404152999981306,334.74138610000955,None,334.2416710999678,334.357265300001,334.3410923000192,None,335.3086558000068,None,,,,,,,11042,001,2024_Mar_15_1607,ANT,2021.2.3,59.97792812894114,
1,10,center,up,C,R,,,,,,Block.xlsx,"你已经完成了整个实验（三个区组）。

请报告实验者已完成实验

非常感谢，再见！",0,50,1.5,right,RRRRR.png,,,,,0,1,1,1,1,14,38,9,,,,,,,,,,,,,,,,,,,,,,,,,,,,,,,,,,,,,,,,,,,,,,,,,,,,,,,,,,,,,,,,335.7091277000145,336.1097384999739,336.09317419998115,336.1949452999979,336.5951369999675,None,right,1,0.422430099977646,336.5951369999675,None,336.09317419998115,336.1949452999979,336.1949452999979,None,337.04459319997113,None,,,,,,,11042,001,2024_Mar_15_1607,ANT,2021.2.3,59.97792812894114,
1,24,spatial,down,IC,R,,,,,,Block.xlsx,"你已经完成了整个实验（三个区组）。

请报告实验者已完成实验

非常感谢，再见！",-1.5,0,-1.5,right,LLRLL.png,,,,,0,1,1,1,1,15,39,23,,,,,,,,,,,,,,,,,,,,,,,,,,,,,,,,,,,,,,,,,,,,,,,,,,,,,,,,,,,,,,,,337.4458277999656,337.8464185000048,337.8307450999855,337.9291763000074,338.33002029999625,None,right,1,0.44772850000299513,338.33002029999625,None,337.8307450999855,337.9291763000074,337.9291763000074,None,338.79693379998207,None,,,,,,,11042,001,2024_Mar_15_1607,ANT,2021.2.3,59.97792812894114,
1,15,center,down,IC,L,,,,,,Block.xlsx,"你已经完成了整个实验（三个区组）。

请报告实验者已完成实验

非常感谢，再见！",0,50,-1.5,left,RRLRR.png,,,,,0,1,1,1,1,16,40,14,,,,,,,,,,,,,,,,,,,,,,,,,,,,,,,,,,,,,,,,,,,,,,,,,,,,,,,,,,,,,,,,339.1977507999982,339.5984464000212,339.5815881000017,339.68186640000204,340.0826412999886,None,left,1,0.5679999000276439,340.0826412999886,None,339.5815881000017,339.68186640000204,339.68186640000204,None,340.6665270999656,None,,,,,,,11042,001,2024_Mar_15_1607,ANT,2021.2.3,59.97792812894114,
1,12,center,up,IC,R,,,,,,Block.xlsx,"你已经完成了整个实验（三个区组）。

请报告实验者已完成实验

非常感谢，再见！",0,50,1.5,right,LLRLL.png,,,,,0,1,1,1,1,17,41,11,,,,,,,,,,,,,,,,,,,,,,,,,,,,,,,,,,,,,,,,,,,,,,,,,,,,,,,,,,,,,,,,341.0672600999824,341.4695175999659,341.45131039997796,341.5516279999865,341.9524709999678,None,right,1,0.44167500000912696,341.9524709999678,None,341.45131039997796,341.5516279999865,341.5516279999865,None,342.41977869998664,None,,,,,,,11042,001,2024_Mar_15_1607,ANT,2021.2.3,59.97792812894114,
1,6,no,down,C,R,,,,,,Block.xlsx,"你已经完成了整个实验（三个区组）。

请报告实验者已完成实验

非常感谢，再见！",50,0,-1.5,right,RRRRR.png,,,,,0,1,1,1,1,18,42,5,,,,,,,,,,,,,,,,,,,,,,,,,,,,,,,,,,,,,,,,,,,,,,,,,,,,,,,,,,,,,,,,342.82026170002064,343.2209728999878,343.203651799995,343.30471330002183,343.7065176999895,None,right,1,0.42351809999672696,343.7065176999895,None,343.203651799995,343.30471330002183,343.30471330002183,None,344.1551177999936,None,,,,,,,11042,001,2024_Mar_15_1607,ANT,2021.2.3,59.97792812894114,
1,1,no,up,C,L,,,,,,Block.xlsx,"你已经完成了整个实验（三个区组）。

请报告实验者已完成实验

非常感谢，再见！",50,0,1.5,left,LLLLL.png,,,,,0,1,1,1,1,19,43,0,,,,,,,,,,,,,,,,,,,,,,,,,,,,,,,,,,,,,,,,,,,,,,,,,,,,,,,,,,,,,,,,344.5558355000103,344.9568596999743,344.9409366999753,345.0575753999874,345.4405319999787,None,left,1,0.4508395999437198,345.4405319999787,None,344.9409366999753,345.0575753999874,345.0400948000024,None,345.90873749996535,None,,,,,,,11042,001,2024_Mar_15_1607,ANT,2021.2.3,59.97792812894114,
1,13,center,down,C,L,,,,,,Block.xlsx,"你已经完成了整个实验（三个区组）。

请报告实验者已完成实验

非常感谢，再见！",0,50,-1.5,left,LLLLL.png,,,,,0,1,1,1,1,20,44,12,,,,,,,,,,,,,,,,,,,,,,,,,,,,,,,,,,,,,,,,,,,,,,,,,,,,,,,,,,,,,,,,346.30850799998734,346.7097161000129,346.6922770999954,346.793446799973,347.19394680002006,None,left,1,0.4483907000394538,347.19394680002006,None,346.6922770999954,346.793446799973,346.793446799973,None,347.6605220999918,None,,,,,,,11042,001,2024_Mar_15_1607,ANT,2021.2.3,59.97792812894114,
1,8,no,down,IC,R,,,,,,Block.xlsx,"你已经完成了整个实验（三个区组）。

请报告实验者已完成实验

非常感谢，再见！",50,0,-1.5,right,LLRLL.png,,,,,0,1,1,1,1,21,45,7,,,,,,,,,,,,,,,,,,,,,,,,,,,,,,,,,,,,,,,,,,,,,,,,,,,,,,,,,,,,,,,,348.0611570000183,348.4617960000178,348.4456687999773,348.54661510000005,348.9481949000037,None,right,1,0.470657299971208,348.9481949000037,None,348.4456687999773,348.54661510000005,348.54661510000005,None,349.4463409999735,None,,,,,,,11042,001,2024_Mar_15_1607,ANT,2021.2.3,59.97792812894114,
1,17,spatial,up,C,L,,,,,,Block.xlsx,"你已经完成了整个实验（三个区组）。

请报告实验者已完成实验

非常感谢，再见！",1.5,0,1.5,left,LLLLL.png,,,,,0,1,1,1,1,22,46,16,,,,,,,,,,,,,,,,,,,,,,,,,,,,,,,,,,,,,,,,,,,,,,,,,,,,,,,,,,,,,,,,349.8469696000102,350.2476557000191,350.2320752000087,350.3313778999727,350.73170639999444,None,left,1,0.31082950002746657,350.73170639999444,None,350.2320752000087,350.3313778999727,350.3313778999727,None,351.06618019996677,None,,,,,,,11042,001,2024_Mar_15_1607,ANT,2021.2.3,59.97792812894114,
1,16,center,down,IC,R,,,,,,Block.xlsx,"你已经完成了整个实验（三个区组）。

请报告实验者已完成实验

非常感谢，再见！",0,50,-1.5,right,LLRLL.png,,,,,0,1,1,1,1,23,47,15,,,,,,,,,,,,,,,,,,,,,,,,,,,,,,,,,,,,,,,,,,,,,,,,,,,,,,,,,,,,,,,,351.4661090999725,351.8666811999865,351.8510622999747,351.9507229999872,352.3521309000207,None,right,1,0.47416529996553436,352.3521309000207,None,351.8510622999747,351.9507229999872,351.9507229999872,None,352.8517332000192,None,,,,,,,11042,001,2024_Mar_15_1607,ANT,2021.2.3,59.97792812894114,
1,16,center,down,IC,R,,,,,,Block.xlsx,"你已经完成了整个实验（三个区组）。

请报告实验者已完成实验

非常感谢，再见！",0,50,-1.5,right,LLRLL.png,,,,,0,1,1,1,2,0,48,15,,,,,,,,,,,,,,,,,,,,,,,,,,,,,,,,,,,,,,,,,,,,,,,,,,,,,,,,,,,,,,,,353.25307969999267,353.6540085999877,353.6362949999748,353.73659529996803,354.13784919999307,None,right,1,0.49627360003069043,354.13784919999307,None,353.6362949999748,353.73659529996803,353.73659529996803,None,354.6546314000152,None,,,,,,,11042,001,2024_Mar_15_1607,ANT,2021.2.3,59.97792812894114,
1,11,center,up,IC,L,,,,,,Block.xlsx,"你已经完成了整个实验（三个区组）。

请报告实验者已完成实验

非常感谢，再见！",0,50,1.5,left,RRLRR.png,,,,,0,1,1,1,2,1,49,10,,,,,,,,,,,,,,,,,,,,,,,,,,,,,,,,,,,,,,,,,,,,,,,,,,,,,,,,,,,,,,,,355.054999999993,355.4557686999906,355.43958619999466,355.5389580000192,355.94044520001626,None,left,1,0.5258541000075638,355.94044520001626,None,355.43958619999466,355.5389580000192,355.5389580000192,None,356.4904280999908,None,,,,,,,11042,001,2024_Mar_15_1607,ANT,2021.2.3,59.97792812894114,
1,8,no,down,IC,R,,,,,,Block.xlsx,"你已经完成了整个实验（三个区组）。

请报告实验者已完成实验

非常感谢，再见！",50,0,-1.5,right,LLRLL.png,,,,,0,1,1,1,2,2,50,7,,,,,,,,,,,,,,,,,,,,,,,,,,,,,,,,,,,,,,,,,,,,,,,,,,,,,,,,,,,,,,,,356.8911734999856,357.2927352999686,357.2755136999767,357.37515380000696,357.7763796999934,None,right,1,0.4899806000175886,357.7763796999934,None,357.2755136999767,357.37515380000696,357.37515380000696,None,358.2933054000023,None,,,,,,,11042,001,2024_Mar_15_1607,ANT,2021.2.3,59.97792812894114,
1,3,no,up,IC,L,,,,,,Block.xlsx,"你已经完成了整个实验（三个区组）。

请报告实验者已完成实验

非常感谢，再见！",50,0,1.5,left,RRLRR.png,,,,,0,1,1,1,2,3,51,2,,,,,,,,,,,,,,,,,,,,,,,,,,,,,,,,,,,,,,,,,,,,,,,,,,,,,,,,,,,,,,,,358.69408450002084,359.0944706000155,359.0782404000056,359.177898199996,359.5802379999659,None,left,1,0.49391279998235404,359.5802379999659,None,359.0782404000056,359.177898199996,359.177898199996,None,360.0958062999998,None,,,,,,,11042,001,2024_Mar_15_1607,ANT,2021.2.3,59.97792812894114,
1,4,no,up,IC,R,,,,,,Block.xlsx,"你已经完成了整个实验（三个区组）。

请报告实验者已完成实验

非常感谢，再见！",50,0,1.5,right,LLRLL.png,,,,,0,1,1,1,2,4,52,3,,,,,,,,,,,,,,,,,,,,,,,,,,,,,,,,,,,,,,,,,,,,,,,,,,,,,,,,,,,,,,,,360.4973448999808,360.89723250002135,360.88182120001875,360.98169370001415,361.3810062999837,None,right,1,0.5177715999889188,361.3810062999837,None,360.88182120001875,360.98169370001415,360.98169370001415,None,361.915141400008,None,,,,,,,11042,001,2024_Mar_15_1607,ANT,2021.2.3,59.97792812894114,
1,17,spatial,up,C,L,,,,,,Block.xlsx,"你已经完成了整个实验（三个区组）。

请报告实验者已完成实验

非常感谢，再见！",1.5,0,1.5,left,LLLLL.png,,,,,0,1,1,1,2,5,53,16,,,,,,,,,,,,,,,,,,,,,,,,,,,,,,,,,,,,,,,,,,,,,,,,,,,,,,,,,,,,,,,,362.316205399984,362.71664409997175,362.70048379997024,362.800913700019,363.20133140002145,None,left,1,0.417249999998603,363.20133140002145,None,362.70048379997024,362.800913700019,362.800913700019,None,363.63458830001764,None,,,,,,,11042,001,2024_Mar_15_1607,ANT,2021.2.3,59.97792812894114,
1,2,no,up,C,R,,,,,,Block.xlsx,"你已经完成了整个实验（三个区组）。

请报告实验者已完成实验

非常感谢，再见！",50,0,1.5,right,RRRRR.png,,,,,0,1,1,1,2,6,54,1,,,,,,,,,,,,,,,,,,,,,,,,,,,,,,,,,,,,,,,,,,,,,,,,,,,,,,,,,,,,,,,,364.0352735000197,364.43589530000463,364.4213640000089,364.53621230000863,364.9212657000171,None,right,1,0.4495777999982238,364.9212657000171,None,364.4213640000089,364.53621230000863,364.5207914999919,None,365.38728829997126,None,,,,,,,11042,001,2024_Mar_15_1607,ANT,2021.2.3,59.97792812894114,
1,21,spatial,down,C,L,,,,,,Block.xlsx,"你已经完成了整个实验（三个区组）。

请报告实验者已完成实验

非常感谢，再见！",-1.5,0,-1.5,left,LLLLL.png,,,,,0,1,1,1,2,7,55,20,,,,,,,,,,,,,,,,,,,,,,,,,,,,,,,,,,,,,,,,,,,,,,,,,,,,,,,,,,,,,,,,365.78843469999265,366.18860019999556,366.17337259999476,366.2721746999887,366.67290459998185,None,left,1,0.42581990000326186,366.67290459998185,None,366.17337259999476,366.2721746999887,366.2721746999887,None,367.12354120000964,None,,,,,,,11042,001,2024_Mar_15_1607,ANT,2021.2.3,59.97792812894114,
1,19,spatial,up,IC,L,,,,,,Block.xlsx,"你已经完成了整个实验（三个区组）。

请报告实验者已完成实验

非常感谢，再见！",1.5,0,1.5,left,RRLRR.png,,,,,0,1,1,1,2,8,56,18,,,,,,,,,,,,,,,,,,,,,,,,,,,,,,,,,,,,,,,,,,,,,,,,,,,,,,,,,,,,,,,,367.5244471000042,367.9255333999754,367.9077694999869,368.0080136000179,368.40874270000495,None,left,1,0.4509368999861181,368.40874270000495,None,367.9077694999869,368.0080136000179,368.0080136000179,None,368.87620290002087,None,,,,,,,11042,001,2024_Mar_15_1607,ANT,2021.2.3,59.97792812894114,
1,1,no,up,C,L,,,,,,Block.xlsx,"你已经完成了整个实验（三个区组）。

请报告实验者已完成实验

非常感谢，再见！",50,0,1.5,left,LLLLL.png,,,,,0,1,1,1,2,9,57,0,,,,,,,,,,,,,,,,,,,,,,,,,,,,,,,,,,,,,,,,,,,,,,,,,,,,,,,,,,,,,,,,369.27681449998636,369.6784722000011,369.66041050001513,369.76132280001184,370.162089999998,None,left,1,0.4333661999553442,370.162089999998,None,369.66041050001513,369.76132280001184,369.76132280001184,None,370.61167929996736,None,,,,,,,11042,001,2024_Mar_15_1607,ANT,2021.2.3,59.97792812894114,
1,3,no,up,IC,L,,,,,,Block.xlsx,"你已经完成了整个实验（三个区组）。

请报告实验者已完成实验

非常感谢，再见！",50,0,1.5,left,RRLRR.png,,,,,0,1,1,1,2,10,58,2,,,,,,,,,,,,,,,,,,,,,,,,,,,,,,,,,,,,,,,,,,,,,,,,,,,,,,,,,,,,,,,,371.0123156000045,371.4155751999933,371.39692869997816,371.49765889998525,371.89833389996784,None,left,1,0.5122901999857277,371.89833389996784,None,371.39692869997816,371.49765889998525,371.49765889998525,None,372.43136960000265,None,,,,,,,11042,001,2024_Mar_15_1607,ANT,2021.2.3,59.97792812894114,
1,23,spatial,down,IC,L,,,,,,Block.xlsx,"你已经完成了整个实验（三个区组）。

请报告实验者已完成实验

非常感谢，再见！",-1.5,0,-1.5,left,RRLRR.png,,,,,0,1,1,1,2,11,59,22,,,,,,,,,,,,,,,,,,,,,,,,,,,,,,,,,,,,,,,,,,,,,,,,,,,,,,,,,,,,,,,,372.8321264999686,373.23392700002296,373.21608519996516,373.31580849998863,373.71769939997466,None,left,1,0.413058300036937,373.71769939997466,None,373.21608519996516,373.31580849998863,373.31580849998863,None,374.15058020001743,None,,,,,,,11042,001,2024_Mar_15_1607,ANT,2021.2.3,59.97792812894114,
1,4,no,up,IC,R,,,,,,Block.xlsx,"你已经完成了整个实验（三个区组）。

请报告实验者已完成实验

非常感谢，再见！",50,0,1.5,right,LLRLL.png,,,,,0,1,1,1,2,12,60,3,,,,,,,,,,,,,,,,,,,,,,,,,,,,,,,,,,,,,,,,,,,,,,,,,,,,,,,,,,,,,,,,374.55120440002065,374.95396760001313,374.9354663999984,375.0364726000116,375.43671769998036,None,right,1,0.5100154000101611,375.43671769998036,None,374.9354663999984,375.0364726000116,375.0364726000116,None,375.9702150999801,None,,,,,,,11042,001,2024_Mar_15_1607,ANT,2021.2.3,59.97792812894114,
1,12,center,up,IC,R,,,,,,Block.xlsx,"你已经完成了整个实验（三个区组）。

请报告实验者已完成实验

非常感谢，再见！",0,50,1.5,right,LLRLL.png,,,,,0,1,1,1,2,13,61,11,,,,,,,,,,,,,,,,,,,,,,,,,,,,,,,,,,,,,,,,,,,,,,,,,,,,,,,,,,,,,,,,376.3709256000002,376.77121619996615,376.75475630001165,376.8550627999939,377.2558351000189,None,right,1,0.44314280000980943,377.2558351000189,None,376.75475630001165,376.8550627999939,376.8550627999939,None,377.7228667999734,None,,,,,,,11042,001,2024_Mar_15_1607,ANT,2021.2.3,59.97792812894114,
1,2,no,up,C,R,,,,,,Block.xlsx,"你已经完成了整个实验（三个区组）。

请报告实验者已完成实验

非常感谢，再见！",50,0,1.5,right,RRRRR.png,,,,,0,1,1,1,2,14,62,1,,,,,,,,,,,,,,,,,,,,,,,,,,,,,,,,,,,,,,,,,,,,,,,,,,,,,,,,,,,,,,,,378.12324829999125,378.52498759998707,378.50698140001623,378.6082246999722,379.00888089998625,None,right,1,0.409971899993252,379.00888089998625,None,378.50698140001623,378.6082246999722,378.6082246999722,None,379.44180889998097,None,,,,,,,11042,001,2024_Mar_15_1607,ANT,2021.2.3,59.97792812894114,
1,3,no,up,IC,L,,,,,,Block.xlsx,"你已经完成了整个实验（三个区组）。

请报告实验者已完成实验

非常感谢，再见！",50,0,1.5,left,RRLRR.png,,,,,0,1,1,1,2,15,63,2,,,,,,,,,,,,,,,,,,,,,,,,,,,,,,,,,,,,,,,,,,,,,,,,,,,,,,,,,,,,,,,,379.84255920001306,380.2432239999762,380.22669719997793,380.3269043000182,380.7269865999697,None,left,1,0.47590319998562336,380.7269865999697,None,380.22669719997793,380.3269043000182,380.3269043000182,None,381.22778979997383,None,,,,,,,11042,001,2024_Mar_15_1607,ANT,2021.2.3,59.97792812894114,
1,18,spatial,up,C,R,,,,,,Block.xlsx,"你已经完成了整个实验（三个区组）。

请报告实验者已完成实验

非常感谢，再见！",1.5,0,1.5,right,RRRRR.png,,,,,0,1,1,1,2,16,64,17,,,,,,,,,,,,,,,,,,,,,,,,,,,,,,,,,,,,,,,,,,,,,,,,,,,,,,,,,,,,,,,,381.6283020999981,382.02998390002176,382.01280909997877,382.11381999996956,382.51316259999294,None,right,1,0.3856660000164993,382.51316259999294,None,382.01280909997877,382.11381999996956,382.11381999996956,None,382.91366730001755,None,,,,,,,11042,001,2024_Mar_15_1607,ANT,2021.2.3,59.97792812894114,
1,8,no,down,IC,R,,,,,,Block.xlsx,"你已经完成了整个实验（三个区组）。

请报告实验者已完成实验

非常感谢，再见！",50,0,-1.5,right,LLRLL.png,,,,,0,1,1,1,2,17,65,7,,,,,,,,,,,,,,,,,,,,,,,,,,,,,,,,,,,,,,,,,,,,,,,,,,,,,,,,,,,,,,,,383.3143118000007,383.7149005999672,383.6999977999949,383.8154173999792,384.19952439999906,None,right,1,0.5639044999843463,384.19952439999906,None,383.6999977999949,383.8154173999792,383.79977829998825,None,384.783120099979,None,,,,,,,11042,001,2024_Mar_15_1607,ANT,2021.2.3,59.97792812894114,
1,19,spatial,up,IC,L,,,,,,Block.xlsx,"你已经完成了整个实验（三个区组）。

请报告实验者已完成实验

非常感谢，再见！",1.5,0,1.5,left,RRLRR.png,,,,,0,1,1,1,2,18,66,18,,,,,,,,,,,,,,,,,,,,,,,,,,,,,,,,,,,,,,,,,,,,,,,,,,,,,,,,,,,,,,,,385.183809500013,385.58577259996673,385.56818359997123,385.66949180001393,386.06873850000557,None,left,1,0.4304118999862112,386.06873850000557,None,385.56818359997123,385.66949180001393,385.66949180001393,None,386.51907909999136,None,,,,,,,11042,001,2024_Mar_15_1607,ANT,2021.2.3,59.97792812894114,
1,1,no,up,C,L,,,,,,Block.xlsx,"你已经完成了整个实验（三个区组）。

请报告实验者已完成实验

非常感谢，再见！",50,0,1.5,left,LLLLL.png,,,,,0,1,1,1,2,19,67,0,,,,,,,,,,,,,,,,,,,,,,,,,,,,,,,,,,,,,,,,,,,,,,,,,,,,,,,,,,,,,,,,386.91965840000194,387.32227900001453,387.3042739999946,387.4049584000022,387.80495359998895,None,left,1,0.6145066000171937,387.80495359998895,None,387.3042739999946,387.4049584000022,387.4049584000022,None,388.43860639998456,None,,,,,,,11042,001,2024_Mar_15_1607,ANT,2021.2.3,59.97792812894114,
1,7,no,down,IC,L,,,,,,Block.xlsx,"你已经完成了整个实验（三个区组）。

请报告实验者已完成实验

非常感谢，再见！",50,0,-1.5,left,RRLRR.png,,,,,0,1,1,1,2,20,68,6,,,,,,,,,,,,,,,,,,,,,,,,,,,,,,,,,,,,,,,,,,,,,,,,,,,,,,,,,,,,,,,,388.8395047999802,389.2398108000052,389.2242163000046,389.34002010000404,389.7245310000144,None,left,1,0.5988072999753058,389.7245310000144,None,389.2242163000046,389.34002010000404,389.3245196000207,None,390.34179109998513,None,,,,,,,11042,001,2024_Mar_15_1607,ANT,2021.2.3,59.97792812894114,
1,23,spatial,down,IC,L,,,,,,Block.xlsx,"你已经完成了整个实验（三个区组）。

请报告实验者已完成实验

非常感谢，再见！",-1.5,0,-1.5,left,RRLRR.png,,,,,0,1,1,1,2,21,69,22,,,,,,,,,,,,,,,,,,,,,,,,,,,,,,,,,,,,,,,,,,,,,,,,,,,,,,,,,,,,,,,,390.74227479996625,391.14311479998287,391.12694699998247,391.22831450001104,391.6269200000097,None,left,1,0.5362743000150658,391.6269200000097,None,391.12694699998247,391.22831450001104,391.22831450001104,None,392.19428340002196,None,,,,,,,11042,001,2024_Mar_15_1607,ANT,2021.2.3,59.97792812894114,
1,16,center,down,IC,R,,,,,,Block.xlsx,"你已经完成了整个实验（三个区组）。

请报告实验者已完成实验

非常感谢，再见！",0,50,-1.5,right,LLRLL.png,,,,,0,1,1,1,2,22,70,15,,,,,,,,,,,,,,,,,,,,,,,,,,,,,,,,,,,,,,,,,,,,,,,,,,,,,,,,,,,,,,,,392.59512660000473,392.9955545999692,392.97899699996924,393.080018299981,393.47947149997344,None,right,1,0.5244970000348985,393.47947149997344,None,392.97899699996924,393.080018299981,393.080018299981,None,394.0303783999989,None,,,,,,,11042,001,2024_Mar_15_1607,ANT,2021.2.3,59.97792812894114,
1,20,spatial,up,IC,R,,,,,,Block.xlsx,"你已经完成了整个实验（三个区组）。

请报告实验者已完成实验

非常感谢，再见！",1.5,0,1.5,right,LLRLL.png,,,,,0,1,1,1,2,23,71,19,,,,,,,,,,,,,,,,,,,,,,,,,,,,,,,,,,,,,,,,,,,,,,,,,,,,,,,,,,,,,,,,394.43145530001493,394.83163660002174,394.81494740000926,394.9152464999934,395.3159123000223,None,right,1,0.4312733000260778,395.3159123000223,None,394.81494740000926,394.9152464999934,394.9152464999934,None,395.7664107999881,None,,,,,,,11042,001,2024_Mar_15_1607,ANT,2021.2.3,59.97792812894114,
1,10,center,up,C,R,,,,,,Block.xlsx,"你已经完成了整个实验（三个区组）。

请报告实验者已完成实验

非常感谢，再见！",0,50,1.5,right,RRRRR.png,,,,,0,1,1,1,3,0,72,9,,,,,,,,,,,,,,,,,,,,,,,,,,,,,,,,,,,,,,,,,,,,,,,,,,,,,,,,,,,,,,,,396.1670352999936,396.56842929997947,396.5509605999687,396.6510203999933,397.05180929997005,None,right,1,0.4313965999754146,397.05180929997005,None,396.5509605999687,396.6510203999933,396.6510203999933,None,397.5025196999777,None,,,,,,,11042,001,2024_Mar_15_1607,ANT,2021.2.3,59.97792812894114,
1,21,spatial,down,C,L,,,,,,Block.xlsx,"你已经完成了整个实验（三个区组）。

请报告实验者已完成实验

非常感谢，再见！",-1.5,0,-1.5,left,LLLLL.png,,,,,0,1,1,1,3,1,73,20,,,,,,,,,,,,,,,,,,,,,,,,,,,,,,,,,,,,,,,,,,,,,,,,,,,,,,,,,,,,,,,,397.902815199981,398.30367370002205,398.2866990999901,398.3871230999939,398.78773719997844,None,left,1,0.39163709996500984,398.78773719997844,None,398.2866990999901,398.3871230999939,398.3871230999939,None,399.2048015000182,None,,,,,,,11042,001,2024_Mar_15_1607,ANT,2021.2.3,59.97792812894114,
1,9,center,up,C,L,,,,,,Block.xlsx,"你已经完成了整个实验（三个区组）。

请报告实验者已完成实验

非常感谢，再见！",0,50,1.5,left,LLLLL.png,,,,,0,1,1,1,3,2,74,8,,,,,,,,,,,,,,,,,,,,,,,,,,,,,,,,,,,,,,,,,,,,,,,,,,,,,,,,,,,,,,,,399.6057981000049,400.00607090000995,399.9893934999709,400.08946099999594,400.4915153000038,None,left,1,0.4397552000009455,400.4915153000038,None,399.9893934999709,400.08946099999594,400.08946099999594,None,400.95754699996905,None,,,,,,,11042,001,2024_Mar_15_1607,ANT,2021.2.3,59.97792812894114,
1,12,center,up,IC,R,,,,,,Block.xlsx,"你已经完成了整个实验（三个区组）。

请报告实验者已完成实验

非常感谢，再见！",0,50,1.5,right,LLRLL.png,,,,,0,1,1,1,3,3,75,11,,,,,,,,,,,,,,,,,,,,,,,,,,,,,,,,,,,,,,,,,,,,,,,,,,,,,,,,,,,,,,,,401.3583750000107,401.7591881999979,401.7421773999813,401.8436726999935,402.2428853000165,None,right,1,0.5046185000101104,402.2428853000165,None,401.7421773999813,401.8436726999935,401.8436726999935,None,402.77708570001414,None,,,,,,,11042,001,2024_Mar_15_1607,ANT,2021.2.3,59.97792812894114,
1,21,spatial,down,C,L,,,,,,Block.xlsx,"你已经完成了整个实验（三个区组）。

请报告实验者已完成实验

非常感谢，再见！",-1.5,0,-1.5,left,LLLLL.png,,,,,0,1,1,1,3,4,76,20,,,,,,,,,,,,,,,,,,,,,,,,,,,,,,,,,,,,,,,,,,,,,,,,,,,,,,,,,,,,,,,,403.1776625000057,403.5792838999769,403.5612623000052,403.6616347999661,404.0638334999676,None,left,1,0.3555567000294104,404.0638334999676,None,403.5612623000052,403.6616347999661,403.6616347999661,None,404.44646599999396,None,,,,,,,11042,001,2024_Mar_15_1607,ANT,2021.2.3,59.97792812894114,
1,14,center,down,C,R,,,,,,Block.xlsx,"你已经完成了整个实验（三个区组）。

请报告实验者已完成实验

非常感谢，再见！",0,50,-1.5,right,RRRRR.png,,,,,0,1,1,1,3,5,77,13,,,,,,,,,,,,,,,,,,,,,,,,,,,,,,,,,,,,,,,,,,,,,,,,,,,,,,,,,,,,,,,,404.84682430000976,405.24752069998067,405.2309456000221,405.3308646000223,405.73152679996565,None,right,1,0.5119348999578506,405.73152679996565,None,405.2309456000221,405.3308646000223,405.3308646000223,None,406.2654766999767,None,,,,,,,11042,001,2024_Mar_15_1607,ANT,2021.2.3,59.97792812894114,
1,17,spatial,up,C,L,,,,,,Block.xlsx,"你已经完成了整个实验（三个区组）。

请报告实验者已完成实验

非常感谢，再见！",1.5,0,1.5,left,LLLLL.png,,,,,0,1,1,1,3,6,78,16,,,,,,,,,,,,,,,,,,,,,,,,,,,,,,,,,,,,,,,,,,,,,,,,,,,,,,,,,,,,,,,,406.6660589000094,407.0665965999942,407.04985150002176,407.1513904000167,407.551040499995,None,left,1,0.37262789998203516,407.551040499995,None,407.04985150002176,407.1513904000167,407.1513904000167,None,407.95182499999646,None,,,,,,,11042,001,2024_Mar_15_1607,ANT,2021.2.3,59.97792812894114,
1,18,spatial,up,C,R,,,,,,Block.xlsx,"你已经完成了整个实验（三个区组）。

请报告实验者已完成实验

非常感谢，再见！",1.5,0,1.5,right,RRRRR.png,,,,,0,1,1,1,3,7,79,17,,,,,,,,,,,,,,,,,,,,,,,,,,,,,,,,,,,,,,,,,,,,,,,,,,,,,,,,,,,,,,,,408.3522237999714,408.7525569999707,408.73614609998185,408.83676380000543,409.23675929999445,None,right,1,0.43123950000153854,409.23675929999445,None,408.73614609998185,408.83676380000543,408.83676380000543,None,409.6874783000094,None,,,,,,,11042,001,2024_Mar_15_1607,ANT,2021.2.3,59.97792812894114,
1,5,no,down,C,L,,,,,,Block.xlsx,"你已经完成了整个实验（三个区组）。

请报告实验者已完成实验

非常感谢，再见！",50,0,-1.5,left,LLLLL.png,,,,,0,1,1,1,3,8,80,4,,,,,,,,,,,,,,,,,,,,,,,,,,,,,,,,,,,,,,,,,,,,,,,,,,,,,,,,,,,,,,,,410.0880485000089,410.4894758000155,410.47196039999835,410.5725289999973,410.97446459997445,None,left,1,0.4775421000085771,410.97446459997445,None,410.47196039999835,410.5725289999973,410.5725289999973,None,411.47321029996965,None,,,,,,,11042,001,2024_Mar_15_1607,ANT,2021.2.3,59.97792812894114,
1,13,center,down,C,L,,,,,,Block.xlsx,"你已经完成了整个实验（三个区组）。

请报告实验者已完成实验

非常感谢，再见！",0,50,-1.5,left,LLLLL.png,,,,,0,1,1,1,3,9,81,12,,,,,,,,,,,,,,,,,,,,,,,,,,,,,,,,,,,,,,,,,,,,,,,,,,,,,,,,,,,,,,,,411.87437219999265,412.2746933000162,412.2579324999824,412.35943279997446,412.7598694000044,None,left,1,0.5010477000032552,412.7598694000044,None,412.2579324999824,412.35943279997446,412.35943279997446,None,413.2765374999726,None,,,,,,,11042,001,2024_Mar_15_1607,ANT,2021.2.3,59.97792812894114,
1,7,no,down,IC,L,,,,,,Block.xlsx,"你已经完成了整个实验（三个区组）。

请报告实验者已完成实验

非常感谢，再见！",50,0,-1.5,left,RRLRR.png,,,,,0,1,1,1,3,10,82,6,,,,,,,,,,,,,,,,,,,,,,,,,,,,,,,,,,,,,,,,,,,,,,,,,,,,,,,,,,,,,,,,413.6767268999829,414.0771781000076,414.06046010000864,414.16103239997756,414.5624660999747,None,left,1,0.6172350000124425,414.5624660999747,None,414.06046010000864,414.16103239997756,414.16103239997756,None,415.19564639998134,None,,,,,,,11042,001,2024_Mar_15_1607,ANT,2021.2.3,59.97792812894114,
1,3,no,up,IC,L,,,,,,Block.xlsx,"你已经完成了整个实验（三个区组）。

请报告实验者已完成实验

非常感谢，再见！",50,0,1.5,left,RRLRR.png,,,,,0,1,1,1,3,11,83,2,,,,,,,,,,,,,,,,,,,,,,,,,,,,,,,,,,,,,,,,,,,,,,,,,,,,,,,,,,,,,,,,415.5964691999834,415.99698310001986,415.98016460001236,416.0807728000218,416.4829241000116,None,left,1,0.5053749000071548,416.4829241000116,None,415.98016460001236,416.0807728000218,416.0807728000218,None,417.0154503000085,None,,,,,,,11042,001,2024_Mar_15_1607,ANT,2021.2.3,59.97792812894114,
1,15,center,down,IC,L,,,,,,Block.xlsx,"你已经完成了整个实验（三个区组）。

请报告实验者已完成实验

非常感谢，再见！",0,50,-1.5,left,RRLRR.png,,,,,0,1,1,1,3,12,84,14,,,,,,,,,,,,,,,,,,,,,,,,,,,,,,,,,,,,,,,,,,,,,,,,,,,,,,,,,,,,,,,,417.4161475999863,417.8181619999814,417.8000463999924,417.901143199997,418.30100699997274,None,left,1,0.5511627999949269,418.30100699997274,None,417.8000463999924,417.901143199997,417.901143199997,None,418.86784869997064,None,,,,,,,11042,001,2024_Mar_15_1607,ANT,2021.2.3,59.97792812894114,
1,15,center,down,IC,L,,,,,,Block.xlsx,"你已经完成了整个实验（三个区组）。

请报告实验者已完成实验

非常感谢，再见！",0,50,-1.5,left,RRLRR.png,,,,,0,1,1,1,3,13,85,14,,,,,,,,,,,,,,,,,,,,,,,,,,,,,,,,,,,,,,,,,,,,,,,,,,,,,,,,,,,,,,,,419.26851969998097,419.6694964999915,419.65415080002276,419.76914170000236,420.15435859997524,None,left,1,0.4665518999681808,420.15435859997524,None,419.65415080002276,419.76914170000236,419.7526731999824,None,420.6369663000223,None,,,,,,,11042,001,2024_Mar_15_1607,ANT,2021.2.3,59.97792812894114,
1,21,spatial,down,C,L,,,,,,Block.xlsx,"你已经完成了整个实验（三个区组）。

请报告实验者已完成实验

非常感谢，再见！",-1.5,0,-1.5,left,LLLLL.png,,,,,0,1,1,1,3,14,86,20,,,,,,,,,,,,,,,,,,,,,,,,,,,,,,,,,,,,,,,,,,,,,,,,,,,,,,,,,,,,,,,,421.0377407000051,421.43984259996796,421.4218255999731,421.52231139998185,421.92244819999905,None,left,1,0.3776497999788262,421.92244819999905,None,421.4218255999731,421.52231139998185,421.52231139998185,None,422.32327689998783,None,,,,,,,11042,001,2024_Mar_15_1607,ANT,2021.2.3,59.97792812894114,
1,7,no,down,IC,L,,,,,,Block.xlsx,"你已经完成了整个实验（三个区组）。

请报告实验者已完成实验

非常感谢，再见！",50,0,-1.5,left,RRLRR.png,,,,,0,1,1,1,3,15,87,6,,,,,,,,,,,,,,,,,,,,,,,,,,,,,,,,,,,,,,,,,,,,,,,,,,,,,,,,,,,,,,,,422.72361129999626,423.1248736999696,423.1093708999688,423.20783079997636,423.6090194999706,None,left,1,0.45095909998053685,423.6090194999706,None,423.1093708999688,423.20783079997636,423.20783079997636,None,424.0757361999713,None,,,,,,,11042,001,2024_Mar_15_1607,ANT,2021.2.3,59.97792812894114,
1,9,center,up,C,L,,,,,,Block.xlsx,"你已经完成了整个实验（三个区组）。

请报告实验者已完成实验

非常感谢，再见！",0,50,1.5,left,LLLLL.png,,,,,0,1,1,1,3,16,88,8,,,,,,,,,,,,,,,,,,,,,,,,,,,,,,,,,,,,,,,,,,,,,,,,,,,,,,,,,,,,,,,,424.4762420000043,424.87719199998537,424.86077919998206,424.9605034000124,425.3634486999945,None,left,1,0.4568227999843657,425.3634486999945,None,424.86077919998206,424.9605034000124,424.9605034000124,None,425.84532710001804,None,,,,,,,11042,001,2024_Mar_15_1607,ANT,2021.2.3,59.97792812894114,
1,15,center,down,IC,L,,,,,,Block.xlsx,"你已经完成了整个实验（三个区组）。

请报告实验者已完成实验

非常感谢，再见！",0,50,-1.5,left,RRLRR.png,,,,,0,1,1,1,3,17,89,14,,,,,,,,,,,,,,,,,,,,,,,,,,,,,,,,,,,,,,,,,,,,,,,,,,,,,,,,,,,,,,,,426.2458263000008,426.64624049997656,426.6298345999676,426.7308314999682,427.13035519997356,None,left,1,0.4658001999487169,427.13035519997356,None,426.6298345999676,426.7308314999682,426.7308314999682,None,427.61419860000024,None,,,,,,,11042,001,2024_Mar_15_1607,ANT,2021.2.3,59.97792812894114,
1,11,center,up,IC,L,,,,,,Block.xlsx,"你已经完成了整个实验（三个区组）。

请报告实验者已完成实验

非常感谢，再见！",0,50,1.5,left,RRLRR.png,,,,,0,1,1,1,3,18,90,10,,,,,,,,,,,,,,,,,,,,,,,,,,,,,,,,,,,,,,,,,,,,,,,,,,,,,,,,,,,,,,,,428.0150968999951,428.4161710999906,428.4007126999786,428.49889250000706,428.8997226000065,None,left,1,0.4489949999842793,428.8997226000065,None,428.4007126999786,428.49889250000706,428.49889250000706,None,429.3671087999828,None,,,,,,,11042,001,2024_Mar_15_1607,ANT,2021.2.3,59.97792812894114,
1,20,spatial,up,IC,R,,,,,,Block.xlsx,"你已经完成了整个实验（三个区组）。

请报告实验者已完成实验

非常感谢，再见！",1.5,0,1.5,right,LLRLL.png,,,,,0,1,1,1,3,19,91,19,,,,,,,,,,,,,,,,,,,,,,,,,,,,,,,,,,,,,,,,,,,,,,,,,,,,,,,,,,,,,,,,429.767714000016,430.16923589998623,430.15205259999493,430.25275430001784,430.6529674999765,None,right,1,0.46318910003174096,430.6529674999765,None,430.15205259999493,430.25275430001784,430.25275430001784,None,431.136271699972,None,,,,,,,11042,001,2024_Mar_15_1607,ANT,2021.2.3,59.97792812894114,
1,6,no,down,C,R,,,,,,Block.xlsx,"你已经完成了整个实验（三个区组）。

请报告实验者已完成实验

