TrialType,TrialNumber,WarningType,TargetType,FlankerType,TargetDirection,W,f,Y,corr,imageFile,condition,endtext,Yw,Yf,Yt,Corr,imagefile,trials_3.thisRepN,trials_3.thisTrialN,trials_3.thisN,trials_3.thisIndex,trials_2.thisRepN,trials_2.thisTrialN,trials_2.thisN,trials_2.thisIndex,trials.thisRepN,trials.thisTrialN,trials.thisN,trials.thisIndex,instr.started,instr.stopped,key_resp.keys,key_resp.rt,key_resp.started,key_resp.stopped,image.started,image.stopped,key_resp_6.keys,key_resp_6.rt,key_resp_6.started,key_resp_6.stopped,EX_L.started,EX_L.stopped,AL.started,AL.stopped,key_resp_7.keys,key_resp_7.rt,key_resp_7.started,key_resp_7.stopped,EX_R.started,EX_R.stopped,RR.started,RR.stopped,key_resp_8.keys,key_resp_8.rt,key_resp_8.started,key_resp_8.stopped,image_2.started,image_2.stopped,key_resp_9.keys,key_resp_9.rt,key_resp_9.started,key_resp_9.stopped,image_3.started,image_3.stopped,key_resp_10.keys,key_resp_10.rt,key_resp_10.started,key_resp_10.stopped,fix.started,fix.stopped,war.started,war.stopped,tar.started,tar.stopped,key_resp_4.keys,key_resp_4.corr,key_resp_4.rt,key_resp_4.started,key_resp_4.stopped,fix2.started,fix2.stopped,fix_2.started,fix_2.stopped,Feedback.started,Feedback.stopped,key_resp_2.keys,key_resp_2.rt,key_resp_2.started,key_resp_2.stopped,text_5.started,text_5.stopped,fix2_1.started,fix2_1.stopped,Warn.started,Warn.stopped,Tar.started,Tar.stopped,key_resp_5.keys,key_resp_5.corr,key_resp_5.rt,key_resp_5.started,key_resp_5.stopped,Fix_2.started,Fix_2.stopped,fix2_2.started,fix2_2.stopped,text_4.started,text_4.stopped,key_resp_3.keys,key_resp_3.rt,key_resp_3.started,key_resp_3.stopped,text_3.started,text_3.stopped,participant,session,date,expName,psychopyVersion,frameRate,
,,,,,,,,,,,,,,,,,,,,,,,,,,,,,,8.19216029997915,None,space,1.2863903001416475,8.19216029997915,None,,,,,,,,,,,,,,,,,,,,,,,,,,,,,,,,,,,,,,,,,,,,,,,,,,,,,,,,,,,,,,,,,,,,,,,,,,,,,,,,,11046,001,2024_Apr_15_1349,ANT,2021.2.3,59.867907474622314,
,,,,,,,,,,,,,,,,,,,,,,,,,,,,,,,,,,,,9.494119100039825,None,space,1.4163065999746323,9.494119100039825,None,,,,,,,,,,,,,,,,,,,,,,,,,,,,,,,,,,,,,,,,,,,,,,,,,,,,,,,,,,,,,,,,,,,,,,,,,,,11046,001,2024_Apr_15_1349,ANT,2021.2.3,59.867907474622314,
,,,,,,,,,,,,,,,,,,,,,,,,,,,,,,,,,,,,,,,,,,10.929621199844405,None,10.929621199844405,None,left,5.86089890007861,10.929621199844405,None,,,,,,,,,,,,,,,,,,,,,,,,,,,,,,,,,,,,,,,,,,,,,,,,,,,,,,,,,,,,,,,,,,,11046,001,2024_Apr_15_1349,ANT,2021.2.3,59.867907474622314,
,,,,,,,,,,,,,,,,,,,,,,,,,,,,,,,,,,,,,,,,,,,,,,,,,,16.821854599984363,None,16.821854599984363,None,right,1.3844697999302298,16.821854599984363,None,,,,,,,,,,,,,,,,,,,,,,,,,,,,,,,,,,,,,,,,,,,,,,,,,,,,,,,,,,,11046,001,2024_Apr_15_1349,ANT,2021.2.3,59.867907474622314,
,,,,,,,,,,,,,,,,,,,,,,,,,,,,,,,,,,,,,,,,,,,,,,,,,,,,,,,,,,18.224296299973503,None,space,4.078162899939343,18.224296299973503,None,,,,,,,,,,,,,,,,,,,,,,,,,,,,,,,,,,,,,,,,,,,,,,,,,,,,,11046,001,2024_Apr_15_1349,ANT,2021.2.3,59.867907474622314,
,,,,,,,,,,,,,,,,,,,,,,,,,,,,,,,,,,,,,,,,,,,,,,,,,,,,,,,,,,,,,,,,22.330433799885213,None,space,3.1643924999516457,22.330433799885213,None,,,,,,,,,,,,,,,,,,,,,,,,,,,,,,,,,,,,,,,,,,,,,,,11046,001,2024_Apr_15_1349,ANT,2021.2.3,59.867907474622314,
0,10,spatial,up,IC,L,1.5,0,1.5,left,RRLRR.png,,,,,,,,0,0,0,9,,,,,,,,,,,,,,,,,,,,,,,,,,,,,,,,,,,,,,,,,,,,,,,,,25.585068699903786,25.986511199967936,25.968951599905267,26.06906019989401,26.470084900036454,None,left,1,0.6968653001822531,26.470084900036454,None,25.968951599905267,26.06906019989401,26.06906019989401,None,27.2045114999637,None,,,,,,,,,,,,,,,,,,,,,,,,,,,,,,11046,001,2024_Apr_15_1349,ANT,2021.2.3,59.867907474622314,
0,12,spatial,down,IC,R,-1.5,0,-1.5,right,LLRLL.png,,,,,,,,0,1,1,11,,,,,,,,,,,,,,,,,,,,,,,,,,,,,,,,,,,,,,,,,,,,,,,,,29.20758969988674,29.60901129990816,29.591428299900144,29.691767199896276,30.09299559984356,None,right,1,0.8015268999151886,30.09299559984356,None,29.591428299900144,29.691767199896276,29.691767199896276,None,30.909810099983588,None,,,,,,,,,,,,,,,,,,,,,,,,,,,,,,11046,001,2024_Apr_15_1349,ANT,2021.2.3,59.867907474622314,
0,7,center,down,C,R,0,50,-1.5,right,RRRRR.png,,,,,,,,0,2,2,6,,,,,,,,,,,,,,,,,,,,,,,,,,,,,,,,,,,,,,,,,,,,,,,,,32.91280069993809,33.31435779994354,33.29670939990319,33.397921700030565,33.797521699918434,None,right,1,0.6339936999138445,33.797521699918434,None,33.29670939990319,33.397921700030565,33.397921700030565,None,34.44824379985221,None,,,,,,,,,,,,,,,,,,,,,,,,,,,,,,11046,001,2024_Apr_15_1349,ANT,2021.2.3,59.867907474622314,
0,4,no,down,IC,L,50,0,-1.5,left,RRLRR.png,,,,,,,,0,3,3,3,,,,,,,,,,,,,,,,,,,,,,,,,,,,,,,,,,,,,,,,,,,,,,,,,36.45141420001164,36.85226029995829,36.83513169991784,36.93673379998654,37.337555499980226,None,left,1,0.8137800998520106,37.337555499980226,None,36.83513169991784,36.93673379998654,36.93673379998654,None,38.17069159983657,None,,,,,,,,,,,,,,,,,,,,,,,,,,,,,,11046,001,2024_Apr_15_1349,ANT,2021.2.3,59.867907474622314,
0,2,no,up,IC,R,50,0,1.5,right,LLRLL.png,,,,,,,,0,4,4,1,,,,,,,,,,,,,,,,,,,,,,,,,,,,,,,,,,,,,,,,,,,,,,,,,40.17381209996529,40.575644499855116,40.55787130002864,40.658708499977365,41.058385899988934,None,right,1,0.7411047001369298,41.058385899988934,None,40.55787130002864,40.658708499977365,40.658708499977365,None,41.82592199998908,None,,,,,,,,,,,,,,,,,,,,,,,,,,,,,,11046,001,2024_Apr_15_1349,ANT,2021.2.3,59.867907474622314,
0,8,center,down,IC,L,0,50,-1.5,left,RRLRR.png,,,,,,,,0,5,5,7,,,,,,,,,,,,,,,,,,,,,,,,,,,,,,,,,,,,,,,,,,,,,,,,,43.82936439989135,44.23069679993205,44.2143510999158,44.31482239998877,44.71434909990057,None,left,1,0.6286005000583827,44.71434909990057,None,44.2143510999158,44.31482239998877,44.31482239998877,None,45.36484629986808,None,,,,,,,,,,,,,,,,,,,,,,,,,,,,,,11046,001,2024_Apr_15_1349,ANT,2021.2.3,59.867907474622314,
0,9,spatial,up,C,R,1.5,0,1.5,right,RRRRR.png,,,,,,,,0,6,6,8,,,,,,,,,,,,,,,,,,,,,,,,,,,,,,,,,,,,,,,,,,,,,,,,,47.368156999815255,47.769067199900746,47.751918099820614,47.85240209987387,48.25287849991582,None,right,1,0.5549027000088245,48.25287849991582,None,47.751918099820614,47.85240209987387,47.85240209987387,None,48.83677759999409,None,,,,,,,,,,,,,,,,,,,,,,,,,,,,,,11046,001,2024_Apr_15_1349,ANT,2021.2.3,59.867907474622314,
0,11,spatial,down,C,L,-1.5,0,-1.5,left,LLLLL.png,,,,,,,,0,7,7,10,,,,,,,,,,,,,,,,,,,,,,,,,,,,,,,,,,,,,,,,,,,,,,,,,50.83993909996934,51.24209469999187,51.22404849994928,51.32410730002448,51.72472930001095,None,left,1,0.48309950018301606,51.72472930001095,None,51.22404849994928,51.32410730002448,51.32410730002448,None,52.22541669989005,None,,,,,,,,,,,,,,,,,,,,,,,,,,,,,,11046,001,2024_Apr_15_1349,ANT,2021.2.3,59.867907474622314,
0,5,center,up,C,L,0,50,1.5,left,LLLLL.png,,,,,,,,0,8,8,4,,,,,,,,,,,,,,,,,,,,,,,,,,,,,,,,,,,,,,,,,,,,,,,,,54.228819999843836,54.63005049992353,54.61224129982293,54.712744700023904,55.11331759998575,None,left,1,0.5020536000374705,55.11331759998575,None,54.61224129982293,54.712744700023904,54.712744700023904,None,55.63030479988083,None,,,,,,,,,,,,,,,,,,,,,,,,,,,,,,11046,001,2024_Apr_15_1349,ANT,2021.2.3,59.867907474622314,
0,3,no,down,C,R,50,0,-1.5,right,RRRRR.png,,,,,,,,0,9,9,2,,,,,,,,,,,,,,,,,,,,,,,,,,,,,,,,,,,,,,,,,,,,,,,,,57.63380840001628,58.03626720001921,58.01754369982518,58.11779129994102,58.51893949997611,None,right,1,0.529476199997589,58.51893949997611,None,58.01754369982518,58.11779129994102,58.11779129994102,None,59.069090500008315,None,,,,,,,,,,,,,,,,,,,,,,,,,,,,,,11046,001,2024_Apr_15_1349,ANT,2021.2.3,59.867907474622314,
0,6,center,up,IC,R,0,50,1.5,right,LLRLL.png,,,,,,,,0,10,10,5,,,,,,,,,,,,,,,,,,,,,,,,,,,,,,,,,,,,,,,,,,,,,,,,,61.07214139983989,61.47301059984602,61.45583929982968,61.55665209982544,61.95672669983469,None,right,1,0.5950396000407636,61.95672669983469,None,61.45583929982968,61.55665209982544,61.55665209982544,None,62.57431419985369,None,,,,,,,,,,,,,,,,,,,,,,,,,,,,,,11046,001,2024_Apr_15_1349,ANT,2021.2.3,59.867907474622314,
0,1,no,up,C,L,50,0,1.5,left,LLLLL.png,,,,,,,,0,11,11,0,,,,,,,,,,,,,,,,,,,,,,,,,,,,,,,,,,,,,,,,,,,,,,,,,64.57718689995818,64.97922029998153,64.96103529981337,65.06207400001585,65.46190140000544,None,left,1,0.54615189996548,65.46190140000544,None,64.96103529981337,65.06207400001585,65.06207400001585,None,66.02955459989607,None,,,,,,,,,,,,,,,,,,,,,,,,,,,,,,11046,001,2024_Apr_15_1349,ANT,2021.2.3,59.867907474622314,
,,,,,,,,,,,,,,,,,,,,,,,,,,,,,,,,,,,,,,,,,,,,,,,,,,,,,,,,,,,,,,,,,,,,,,,,,,,,,,,,,,,,,,,space,13.664145400049165,68.03227369999513,None,,,,,,,,,,,,,,,,,,,,,,,,,,11046,001,2024_Apr_15_1349,ANT,2021.2.3,59.867907474622314,
1,22,spatial,down,C,R,,,,,,Block.xlsx,"你已经完成了第一个实验区组

请稍作休息


点击空格键进入下一个区组。",-1.5,0,-1.5,right,RRRRR.png,,,,,0,0,0,0,0,0,0,21,,,,,,,,,,,,,,,,,,,,,,,,,,,,,,,,,,,,,,,,,,,,,,,,,,,,,,,,,,,,,,68.03227369999513,None,81.7538795999717,82.15369599987753,82.13801759993657,82.23721849988215,82.6379636998754,None,right,1,0.4425828999374062,82.6379636998754,None,82.13801759993657,82.23721849988215,82.23721849988215,None,83.1051470998209,None,,,,,,,11046,001,2024_Apr_15_1349,ANT,2021.2.3,59.867907474622314,
1,8,no,down,IC,R,,,,,,Block.xlsx,"你已经完成了第一个实验区组

请稍作休息


点击空格键进入下一个区组。",50,0,-1.5,right,LLRLL.png,,,,,0,0,0,0,0,1,1,7,,,,,,,,,,,,,,,,,,,,,,,,,,,,,,,,,,,,,,,,,,,,,,,,,,,,,,,,,,,,,,,,83.50624919985421,83.90646109986119,83.89033089997247,83.99112199991941,84.39185769995674,None,right,1,0.49665909982286394,84.39185769995674,None,83.89033089997247,83.99112199991941,83.99112199991941,None,84.90781340003014,None,,,,,,,11046,001,2024_Apr_15_1349,ANT,2021.2.3,59.867907474622314,
1,16,center,down,IC,R,,,,,,Block.xlsx,"你已经完成了第一个实验区组

请稍作休息


点击空格键进入下一个区组。",0,50,-1.5,right,LLRLL.png,,,,,0,0,0,0,0,2,2,15,,,,,,,,,,,,,,,,,,,,,,,,,,,,,,,,,,,,,,,,,,,,,,,,,,,,,,,,,,,,,,,,85.30868060002103,85.70980719989166,85.6936568999663,85.79275789996609,86.1950860999059,None,right,1,0.5812493001576513,86.1950860999059,None,85.6936568999663,85.79275789996609,85.79275789996609,None,86.7941572999116,None,,,,,,,11046,001,2024_Apr_15_1349,ANT,2021.2.3,59.867907474622314,
1,11,center,up,IC,L,,,,,,Block.xlsx,"你已经完成了第一个实验区组

请稍作休息


点击空格键进入下一个区组。",0,50,1.5,left,RRLRR.png,,,,,0,0,0,0,0,3,3,10,,,,,,,,,,,,,,,,,,,,,,,,,,,,,,,,,,,,,,,,,,,,,,,,,,,,,,,,,,,,,,,,87.19471439998597,87.5961404000409,87.57899529999122,87.67874059989117,88.08125799987465,None,left,1,0.6309970999136567,88.08125799987465,None,87.57899529999122,87.67874059989117,87.67874059989117,None,88.73042019992135,None,,,,,,,11046,001,2024_Apr_15_1349,ANT,2021.2.3,59.867907474622314,
1,2,no,up,C,R,,,,,,Block.xlsx,"你已经完成了第一个实验区组

请稍作休息


点击空格键进入下一个区组。",50,0,1.5,right,RRRRR.png,,,,,0,0,0,0,0,4,4,1,,,,,,,,,,,,,,,,,,,,,,,,,,,,,,,,,,,,,,,,,,,,,,,,,,,,,,,,,,,,,,,,89.13123039994389,89.53185959998518,89.51551479985937,89.61590839992277,90.01788940001279,None,right,1,0.488363099982962,90.01788940001279,None,89.51551479985937,89.61590839992277,89.61590839992277,None,90.53312949999236,None,,,,,,,11046,001,2024_Apr_15_1349,ANT,2021.2.3,59.867907474622314,
1,24,spatial,down,IC,R,,,,,,Block.xlsx,"你已经完成了第一个实验区组

请稍作休息


点击空格键进入下一个区组。",-1.5,0,-1.5,right,LLRLL.png,,,,,0,0,0,0,0,5,5,23,,,,,,,,,,,,,,,,,,,,,,,,,,,,,,,,,,,,,,,,,,,,,,,,,,,,,,,,,,,,,,,,90.93365689995699,91.33455799985677,91.31741669983603,91.41845859983005,91.81842210004106,None,right,1,0.4782683998346329,91.81842210004106,None,91.31741669983603,91.41845859983005,91.41845859983005,None,92.31917419983074,None,,,,,,,11046,001,2024_Apr_15_1349,ANT,2021.2.3,59.867907474622314,
1,1,no,up,C,L,,,,,,Block.xlsx,"你已经完成了第一个实验区组

请稍作休息


点击空格键进入下一个区组。",50,0,1.5,left,LLLLL.png,,,,,0,0,0,0,0,6,6,0,,,,,,,,,,,,,,,,,,,,,,,,,,,,,,,,,,,,,,,,,,,,,,,,,,,,,,,,,,,,,,,,92.71974419988692,93.12052039988339,93.10567219997756,93.22151759988628,93.60630799992941,None,left,1,0.6020752999465913,93.60630799992941,None,93.10567219997756,93.22151759988628,93.20426060003228,None,94.23873570002615,None,,,,,,,11046,001,2024_Apr_15_1349,ANT,2021.2.3,59.867907474622314,
1,5,no,down,C,L,,,,,,Block.xlsx,"你已经完成了第一个实验区组

请稍作休息


点击空格键进入下一个区组。",50,0,-1.5,left,LLLLL.png,,,,,0,0,0,0,0,7,7,4,,,,,,,,,,,,,,,,,,,,,,,,,,,,,,,,,,,,,,,,,,,,,,,,,,,,,,,,,,,,,,,,94.63912749988958,95.03998490003869,95.0231472000014,95.12339930003509,95.52400309988298,None,left,1,0.5574166001752019,95.52400309988298,None,95.0231472000014,95.12339930003509,95.12339930003509,None,96.10812829993665,None,,,,,,,11046,001,2024_Apr_15_1349,ANT,2021.2.3,59.867907474622314,
1,7,no,down,IC,L,,,,,,Block.xlsx,"你已经完成了第一个实验区组

请稍作休息


点击空格键进入下一个区组。",50,0,-1.5,left,RRLRR.png,,,,,0,0,0,0,0,8,8,6,,,,,,,,,,,,,,,,,,,,,,,,,,,,,,,,,,,,,,,,,,,,,,,,,,,,,,,,,,,,,,,,96.5101947998628,96.9097555000335,96.89385009999387,96.99398180004209,97.39380049984902,None,left,1,0.5347725998144597,97.39380049984902,None,96.89385009999387,96.99398180004209,96.99398180004209,None,97.94425489986315,None,,,,,,,11046,001,2024_Apr_15_1349,ANT,2021.2.3,59.867907474622314,
1,2,no,up,C,R,,,,,,Block.xlsx,"你已经完成了第一个实验区组

请稍作休息


点击空格键进入下一个区组。",50,0,1.5,right,RRRRR.png,,,,,0,0,0,0,0,9,9,1,,,,,,,,,,,,,,,,,,,,,,,,,,,,,,,,,,,,,,,,,,,,,,,,,,,,,,,,,,,,,,,,98.34504020004533,98.74575819983147,98.72919139987789,98.82973450003192,99.22950130002573,None,right,1,0.6193109999876469,99.22950130002573,None,98.72919139987789,98.82973450003192,98.82973450003192,None,99.863961199997,None,,,,,,,11046,001,2024_Apr_15_1349,ANT,2021.2.3,59.867907474622314,
1,18,spatial,up,C,R,,,,,,Block.xlsx,"你已经完成了第一个实验区组

请稍作休息


点击空格键进入下一个区组。",1.5,0,1.5,right,RRRRR.png,,,,,0,0,0,0,0,10,10,17,,,,,,,,,,,,,,,,,,,,,,,,,,,,,,,,,,,,,,,,,,,,,,,,,,,,,,,,,,,,,,,,100.26449349988252,100.66592519986443,100.64851189986803,100.74847029987723,101.15091109997593,None,right,1,0.5221611000597477,101.15091109997593,None,100.64851189986803,100.74847029987723,100.74847029987723,None,101.6999635999091,None,,,,,,,11046,001,2024_Apr_15_1349,ANT,2021.2.3,59.867907474622314,
1,10,center,up,C,R,,,,,,Block.xlsx,"你已经完成了第一个实验区组

请稍作休息


点击空格键进入下一个区组。",0,50,1.5,right,RRRRR.png,,,,,0,0,0,0,0,11,11,9,,,,,,,,,,,,,,,,,,,,,,,,,,,,,,,,,,,,,,,,,,,,,,,,,,,,,,,,,,,,,,,,102.100631600013,102.50190279982053,102.48447399982251,102.58532109996304,102.98602389986627,None,right,1,0.4313651002012193,102.98602389986627,None,102.48447399982251,102.58532109996304,102.58532109996304,None,103.43573979986832,None,,,,,,,11046,001,2024_Apr_15_1349,ANT,2021.2.3,59.867907474622314,
1,22,spatial,down,C,R,,,,,,Block.xlsx,"你已经完成了第一个实验区组

请稍作休息


点击空格键进入下一个区组。",-1.5,0,-1.5,right,RRRRR.png,,,,,0,0,0,0,0,12,12,21,,,,,,,,,,,,,,,,,,,,,,,,,,,,,,,,,,,,,,,,,,,,,,,,,,,,,,,,,,,,,,,,103.83651910000481,104.23768469993956,104.22042709984817,104.32069059996866,104.72249119984917,None,right,1,0.4302540000062436,104.72249119984917,None,104.22042709984817,104.32069059996866,104.32069059996866,None,105.17185539985076,None,,,,,,,11046,001,2024_Apr_15_1349,ANT,2021.2.3,59.867907474622314,
1,22,spatial,down,C,R,,,,,,Block.xlsx,"你已经完成了第一个实验区组

请稍作休息


点击空格键进入下一个区组。",-1.5,0,-1.5,right,RRRRR.png,,,,,0,0,0,0,0,13,13,21,,,,,,,,,,,,,,,,,,,,,,,,,,,,,,,,,,,,,,,,,,,,,,,,,,,,,,,,,,,,,,,,105.57251149998046,105.97312360000797,105.95753229991533,106.05796099989675,106.45799389993772,None,right,1,0.37582580000162125,106.45799389993772,None,105.95753229991533,106.05796099989675,106.05796099989675,None,106.85778479999863,None,,,,,,,11046,001,2024_Apr_15_1349,ANT,2021.2.3,59.867907474622314,
1,23,spatial,down,IC,L,,,,,,Block.xlsx,"你已经完成了第一个实验区组

请稍作休息


点击空格键进入下一个区组。",-1.5,0,-1.5,left,RRLRR.png,,,,,0,0,0,0,0,14,14,22,,,,,,,,,,,,,,,,,,,,,,,,,,,,,,,,,,,,,,,,,,,,,,,,,,,,,,,,,,,,,,,,107.25843809987418,107.66021629981697,107.64287219988182,107.74379989993758,108.14301829994656,None,left,1,0.5379110998474061,108.14301829994656,None,107.64287219988182,107.74379989993758,107.74379989993758,None,108.71062289993279,None,,,,,,,11046,001,2024_Apr_15_1349,ANT,2021.2.3,59.867907474622314,
1,11,center,up,IC,L,,,,,,Block.xlsx,"你已经完成了第一个实验区组

请稍作休息


点击空格键进入下一个区组。",0,50,1.5,left,RRLRR.png,,,,,0,0,0,0,0,15,15,10,,,,,,,,,,,,,,,,,,,,,,,,,,,,,,,,,,,,,,,,,,,,,,,,,,,,,,,,,,,,,,,,109.11135179991834,109.512853999855,109.49493619985878,109.59559859987348,109.99686459987424,None,left,1,0.6040697998832911,109.99686459987424,None,109.49493619985878,109.59559859987348,109.59559859987348,None,110.63002229994163,None,,,,,,,11046,001,2024_Apr_15_1349,ANT,2021.2.3,59.867907474622314,
1,17,spatial,up,C,L,,,,,,Block.xlsx,"你已经完成了第一个实验区组

请稍作休息


点击空格键进入下一个区组。",1.5,0,1.5,left,LLLLL.png,,,,,0,0,0,0,0,16,16,16,,,,,,,,,,,,,,,,,,,,,,,,,,,,,,,,,,,,,,,,,,,,,,,,,,,,,,,,,,,,,,,,111.03080159984529,111.43302619992755,111.41472500003874,111.51504449988715,111.91630729986355,None,left,1,0.4454002999700606,111.91630729986355,None,111.41472500003874,111.51504449988715,111.51504449988715,None,112.38275159988552,None,,,,,,,11046,001,2024_Apr_15_1349,ANT,2021.2.3,59.867907474622314,
1,17,spatial,up,C,L,,,,,,Block.xlsx,"你已经完成了第一个实验区组

请稍作休息


点击空格键进入下一个区组。",1.5,0,1.5,left,LLLLL.png,,,,,0,0,0,0,0,17,17,16,,,,,,,,,,,,,,,,,,,,,,,,,,,,,,,,,,,,,,,,,,,,,,,,,,,,,,,,,,,,,,,,112.78313749982044,113.18376149982214,113.16822709981352,113.26739639998414,113.66809589997865,None,left,1,0.39704330009408295,113.66809589997865,None,113.16822709981352,113.26739639998414,113.26739639998414,None,114.08518379996531,None,,,,,,,11046,001,2024_Apr_15_1349,ANT,2021.2.3,59.867907474622314,
1,3,no,up,IC,L,,,,,,Block.xlsx,"你已经完成了第一个实验区组

请稍作休息


点击空格键进入下一个区组。",50,0,1.5,left,RRLRR.png,,,,,0,0,0,0,0,18,18,2,,,,,,,,,,,,,,,,,,,,,,,,,,,,,,,,,,,,,,,,,,,,,,,,,,,,,,,,,,,,,,,,114.48634259984829,114.88652439997531,114.87085109995678,114.97036249982193,115.37166889989749,None,left,1,0.5102589000016451,115.37166889989749,None,114.87085109995678,114.97036249982193,114.97036249982193,None,115.90519939991646,None,,,,,,,11046,001,2024_Apr_15_1349,ANT,2021.2.3,59.867907474622314,
1,17,spatial,up,C,L,,,,,,Block.xlsx,"你已经完成了第一个实验区组

请稍作休息


点击空格键进入下一个区组。",1.5,0,1.5,left,LLLLL.png,,,,,0,0,0,0,0,19,19,16,,,,,,,,,,,,,,,,,,,,,,,,,,,,,,,,,,,,,,,,,,,,,,,,,,,,,,,,,,,,,,,,116.30528689990751,116.70621760003269,116.68925959989429,116.78943579993211,117.19124559988268,None,left,1,0.44240329996682703,117.19124559988268,None,116.68925959989429,116.78943579993211,116.78943579993211,None,117.65746649983339,None,,,,,,,11046,001,2024_Apr_15_1349,ANT,2021.2.3,59.867907474622314,
1,15,center,down,IC,L,,,,,,Block.xlsx,"你已经完成了第一个实验区组

请稍作休息


点击空格键进入下一个区组。",0,50,-1.5,left,RRLRR.png,,,,,0,0,0,0,0,20,20,14,,,,,,,,,,,,,,,,,,,,,,,,,,,,,,,,,,,,,,,,,,,,,,,,,,,,,,,,,,,,,,,,118.05807969998568,118.4597771000117,118.44199580000713,118.54203090001829,118.94264799985103,None,left,1,0.5465121997985989,118.94264799985103,None,118.44199580000713,118.54203090001829,118.54203090001829,None,119.51018269988708,None,,,,,,,11046,001,2024_Apr_15_1349,ANT,2021.2.3,59.867907474622314,
1,1,no,up,C,L,,,,,,Block.xlsx,"你已经完成了第一个实验区组

请稍作休息


点击空格键进入下一个区组。",50,0,1.5,left,LLLLL.png,,,,,0,0,0,0,0,21,21,0,,,,,,,,,,,,,,,,,,,,,,,,,,,,,,,,,,,,,,,,,,,,,,,,,,,,,,,,,,,,,,,,119.91093869996257,120.3111906000413,120.29588839993812,120.39536700001918,120.79542939993553,None,left,1,0.4940914998296648,120.79542939993553,None,120.29588839993812,120.39536700001918,120.39536700001918,None,121.31285630003549,None,,,,,,,11046,001,2024_Apr_15_1349,ANT,2021.2.3,59.867907474622314,
1,8,no,down,IC,R,,,,,,Block.xlsx,"你已经完成了第一个实验区组

请稍作休息


点击空格键进入下一个区组。",50,0,-1.5,right,LLRLL.png,,,,,0,0,0,0,0,22,22,7,,,,,,,,,,,,,,,,,,,,,,,,,,,,,,,,,,,,,,,,,,,,,,,,,,,,,,,,,,,,,,,,121.71356509998441,122.11491069989279,122.09744229982607,122.1980735999532,122.59825179981999,None,right,1,0.5954303999897093,122.59825179981999,None,122.09744229982607,122.1980735999532,122.1980735999532,None,123.21577889984474,None,,,,,,,11046,001,2024_Apr_15_1349,ANT,2021.2.3,59.867907474622314,
1,19,spatial,up,IC,L,,,,,,Block.xlsx,"你已经完成了第一个实验区组

请稍作休息


点击空格键进入下一个区组。",1.5,0,1.5,left,RRLRR.png,,,,,0,0,0,0,0,23,23,18,,,,,,,,,,,,,,,,,,,,,,,,,,,,,,,,,,,,,,,,,,,,,,,,,,,,,,,,,,,,,,,,123.61631940002553,124.01718339999206,124.0021390998736,124.11790059995838,124.50102510000579,None,left,1,0.4448804999701679,124.50102510000579,None,124.0021390998736,124.11790059995838,124.10321930004284,None,124.96848109993152,None,,,,,,,11046,001,2024_Apr_15_1349,ANT,2021.2.3,59.867907474622314,
1,22,spatial,down,C,R,,,,,,Block.xlsx,"你已经完成了第一个实验区组

请稍作休息


点击空格键进入下一个区组。",-1.5,0,-1.5,right,RRRRR.png,,,,,0,0,0,0,1,0,24,21,,,,,,,,,,,,,,,,,,,,,,,,,,,,,,,,,,,,,,,,,,,,,,,,,,,,,,,,,,,,,,,,125.36913529993035,125.77030560001731,125.75494819995947,125.87022199993953,126.25413200003095,None,right,1,0.41172740003094077,126.25413200003095,None,125.75494819995947,125.87022199993953,125.8529693998862,None,126.68776639993303,None,,,,,,,11046,001,2024_Apr_15_1349,ANT,2021.2.3,59.867907474622314,
1,12,center,up,IC,R,,,,,,Block.xlsx,"你已经完成了第一个实验区组

请稍作休息


点击空格键进入下一个区组。",0,50,1.5,right,LLRLL.png,,,,,0,0,0,0,1,1,25,11,,,,,,,,,,,,,,,,,,,,,,,,,,,,,,,,,,,,,,,,,,,,,,,,,,,,,,,,,,,,,,,,127.08844019984826,127.4890374999959,127.47284589987248,127.5726316999644,127.97382869990543,None,right,1,0.5324514999520034,127.97382869990543,None,127.47284589987248,127.5726316999644,127.5726316999644,None,128.52385340002365,None,,,,,,,11046,001,2024_Apr_15_1349,ANT,2021.2.3,59.867907474622314,
1,11,center,up,IC,L,,,,,,Block.xlsx,"你已经完成了第一个实验区组

请稍作休息


点击空格键进入下一个区组。",0,50,1.5,left,RRLRR.png,,,,,0,0,0,0,1,2,26,10,,,,,,,,,,,,,,,,,,,,,,,,,,,,,,,,,,,,,,,,,,,,,,,,,,,,,,,,,,,,,,,,128.92427329998463,129.32531369989738,129.3083794999402,129.41086729988456,129.80915909982286,None,left,1,0.42460830020718277,129.80915909982286,None,129.3083794999402,129.41086729988456,129.41086729988456,None,130.2597013998311,None,,,,,,,11046,001,2024_Apr_15_1349,ANT,2021.2.3,59.867907474622314,
1,4,no,up,IC,R,,,,,,Block.xlsx,"你已经完成了第一个实验区组

请稍作休息


点击空格键进入下一个区组。",50,0,1.5,right,LLRLL.png,,,,,0,0,0,0,1,3,27,3,,,,,,,,,,,,,,,,,,,,,,,,,,,,,,,,,,,,,,,,,,,,,,,,,,,,,,,,,,,,,,,,130.660305300029,131.0618344999384,131.04432699992321,131.14428739994764,131.54493309999816,None,right,1,0.5045499000698328,131.54493309999816,None,131.04432699992321,131.14428739994764,131.14428739994764,None,132.07911319984123,None,,,,,,,11046,001,2024_Apr_15_1349,ANT,2021.2.3,59.867907474622314,
1,4,no,up,IC,R,,,,,,Block.xlsx,"你已经完成了第一个实验区组

请稍作休息


点击空格键进入下一个区组。",50,0,1.5,right,LLRLL.png,,,,,0,0,0,0,1,4,28,3,,,,,,,,,,,,,,,,,,,,,,,,,,,,,,,,,,,,,,,,,,,,,,,,,,,,,,,,,,,,,,,,132.47989269997925,132.88101219991222,132.86360060004517,132.96381299989298,133.3644709000364,None,right,1,0.5094013998750597,133.3644709000364,None,132.86360060004517,132.96381299989298,132.96381299989298,None,133.89853050000966,None,,,,,,,11046,001,2024_Apr_15_1349,ANT,2021.2.3,59.867907474622314,
1,19,spatial,up,IC,L,,,,,,Block.xlsx,"你已经完成了第一个实验区组

请稍作休息


点击空格键进入下一个区组。",1.5,0,1.5,left,RRLRR.png,,,,,0,0,0,0,1,5,29,18,,,,,,,,,,,,,,,,,,,,,,,,,,,,,,,,,,,,,,,,,,,,,,,,,,,,,,,,,,,,,,,,134.29908100003377,134.6998081000056,134.6831993998494,134.78431569994427,135.18485990003683,None,left,1,0.4170554999727756,135.18485990003683,None,134.6831993998494,134.78431569994427,134.78431569994427,None,135.61784139997326,None,,,,,,,11046,001,2024_Apr_15_1349,ANT,2021.2.3,59.867907474622314,
1,12,center,up,IC,R,,,,,,Block.xlsx,"你已经完成了第一个实验区组

请稍作休息


点击空格键进入下一个区组。",0,50,1.5,right,LLRLL.png,,,,,0,0,0,0,1,6,30,11,,,,,,,,,,,,,,,,,,,,,,,,,,,,,,,,,,,,,,,,,,,,,,,,,,,,,,,,,,,,,,,,136.01852149982005,136.41912179999053,136.40326719987206,136.5027788998559,136.9030029999558,None,right,1,0.45137879997491837,136.9030029999558,None,136.40326719987206,136.5027788998559,136.5027788998559,None,137.37025399995036,None,,,,,,,11046,001,2024_Apr_15_1349,ANT,2021.2.3,59.867907474622314,
1,6,no,down,C,R,,,,,,Block.xlsx,"你已经完成了第一个实验区组

请稍作休息


点击空格键进入下一个区组。",50,0,-1.5,right,RRRRR.png,,,,,0,0,0,0,1,7,31,5,,,,,,,,,,,,,,,,,,,,,,,,,,,,,,,,,,,,,,,,,,,,,,,,,,,,,,,,,,,,,,,,137.77126930002123,138.17164409998804,138.15518000000156,138.25618889997713,138.6555891998578,None,right,1,0.45807019993662834,138.6555891998578,None,138.15518000000156,138.25618889997713,138.25618889997713,None,139.1398735998664,None,,,,,,,11046,001,2024_Apr_15_1349,ANT,2021.2.3,59.867907474622314,
1,18,spatial,up,C,R,,,,,,Block.xlsx,"你已经完成了第一个实验区组

请稍作休息


点击空格键进入下一个区组。",1.5,0,1.5,right,RRRRR.png,,,,,0,0,0,0,1,8,32,17,,,,,,,,,,,,,,,,,,,,,,,,,,,,,,,,,,,,,,,,,,,,,,,,,,,,,,,,,,,,,,,,139.54053679993376,139.94163659983315,139.92552159982733,140.02455169986933,140.4263053999748,None,right,1,0.3514165999367833,140.4263053999748,None,139.92552159982733,140.02455169986933,140.02455169986933,None,140.8091149998363,None,,,,,,,11046,001,2024_Apr_15_1349,ANT,2021.2.3,59.867907474622314,
1,8,no,down,IC,R,,,,,,Block.xlsx,"你已经完成了第一个实验区组

请稍作休息


点击空格键进入下一个区组。",50,0,-1.5,right,LLRLL.png,,,,,0,0,0,0,1,9,33,7,,,,,,,,,,,,,,,,,,,,,,,,,,,,,,,,,,,,,,,,,,,,,,,,,,,,,,,,,,,,,,,,141.2094986999873,141.61127959983423,141.5951866998803,141.69393229996786,142.094334699912,None,right,1,0.5956415999680758,142.094334699912,None,141.5951866998803,141.69393229996786,141.69393229996786,None,142.71195509983227,None,,,,,,,11046,001,2024_Apr_15_1349,ANT,2021.2.3,59.867907474622314,
1,20,spatial,up,IC,R,,,,,,Block.xlsx,"你已经完成了第一个实验区组

请稍作休息


点击空格键进入下一个区组。",1.5,0,1.5,right,LLRLL.png,,,,,0,0,0,0,1,10,34,19,,,,,,,,,,,,,,,,,,,,,,,,,,,,,,,,,,,,,,,,,,,,,,,,,,,,,,,,,,,,,,,,143.11258969991468,143.5130539999809,143.49668450001627,143.5970152998343,143.9970286998432,None,right,1,0.461440599989146,143.9970286998432,None,143.49668450001627,143.5970152998343,143.5970152998343,None,144.4812502998393,None,,,,,,,11046,001,2024_Apr_15_1349,ANT,2021.2.3,59.867907474622314,
1,6,no,down,C,R,,,,,,Block.xlsx,"你已经完成了第一个实验区组

请稍作休息


点击空格键进入下一个区组。",50,0,-1.5,right,RRRRR.png,,,,,0,0,0,0,1,11,35,5,,,,,,,,,,,,,,,,,,,,,,,,,,,,,,,,,,,,,,,,,,,,,,,,,,,,,,,,,,,,,,,,144.88260050001554,145.2823911998421,145.26696639996953,145.3675985999871,145.76784989982843,None,right,1,0.4099642999935895,145.76784989982843,None,145.26696639996953,145.3675985999871,145.3675985999871,None,146.20042819995433,None,,,,,,,11046,001,2024_Apr_15_1349,ANT,2021.2.3,59.867907474622314,
1,21,spatial,down,C,L,,,,,,Block.xlsx,"你已经完成了第一个实验区组

请稍作休息


点击空格键进入下一个区组。",-1.5,0,-1.5,left,LLLLL.png,,,,,0,0,0,0,1,12,36,20,,,,,,,,,,,,,,,,,,,,,,,,,,,,,,,,,,,,,,,,,,,,,,,,,,,,,,,,,,,,,,,,146.6011659000069,147.00174549990334,146.98516969988123,147.0860201998148,147.48685009987094,None,left,1,0.41899770009331405,147.48685009987094,None,146.98516969988123,147.0860201998148,147.0860201998148,None,147.93645369983278,None,,,,,,,11046,001,2024_Apr_15_1349,ANT,2021.2.3,59.867907474622314,
1,12,center,up,IC,R,,,,,,Block.xlsx,"你已经完成了第一个实验区组

请稍作休息


点击空格键进入下一个区组。",0,50,1.5,right,LLRLL.png,,,,,0,0,0,0,1,13,37,11,,,,,,,,,,,,,,,,,,,,,,,,,,,,,,,,,,,,,,,,,,,,,,,,,,,,,,,,,,,,,,,,148.33744849986397,148.73917900002562,148.72109589981847,148.8210598998703,149.22265629982576,None,right,1,0.36400659987702966,149.22265629982576,None,148.72109589981847,148.8210598998703,148.8210598998703,None,149.60566399991512,None,,,,,,,11046,001,2024_Apr_15_1349,ANT,2021.2.3,59.867907474622314,
1,5,no,down,C,L,,,,,,Block.xlsx,"你已经完成了第一个实验区组

请稍作休息


点击空格键进入下一个区组。",50,0,-1.5,left,LLLLL.png,,,,,0,0,0,0,1,14,38,4,,,,,,,,,,,,,,,,,,,,,,,,,,,,,,,,,,,,,,,,,,,,,,,,,,,,,,,,,,,,,,,,150.00658679986373,150.40673329983838,150.39032120001502,150.49100619996898,150.89128109999,None,left,1,0.4709840000141412,150.89128109999,None,150.39032120001502,150.49100619996898,150.49100619996898,None,151.3916763998568,None,,,,,,,11046,001,2024_Apr_15_1349,ANT,2021.2.3,59.867907474622314,
1,11,center,up,IC,L,,,,,,Block.xlsx,"你已经完成了第一个实验区组

请稍作休息


点击空格键进入下一个区组。",0,50,1.5,left,RRLRR.png,,,,,0,0,0,0,1,15,39,10,,,,,,,,,,,,,,,,,,,,,,,,,,,,,,,,,,,,,,,,,,,,,,,,,,,,,,,,,,,,,,,,151.79233790002763,152.19368149992079,152.17629819991998,152.27637370000593,152.67725269985385,None,left,1,0.4137905000243336,152.67725269985385,None,152.17629819991998,152.27637370000593,152.27637370000593,None,153.11091950000264,None,,,,,,,11046,001,2024_Apr_15_1349,ANT,2021.2.3,59.867907474622314,
1,1,no,up,C,L,,,,,,Block.xlsx,"你已经完成了第一个实验区组

请稍作休息


点击空格键进入下一个区组。",50,0,1.5,left,LLLLL.png,,,,,0,0,0,0,1,16,40,0,,,,,,,,,,,,,,,,,,,,,,,,,,,,,,,,,,,,,,,,,,,,,,,,,,,,,,,,,,,,,,,,153.51148059987463,153.91324889985844,153.8952082998585,153.99563589994796,154.39746629982255,None,left,1,0.38886109995655715,154.39746629982255,None,153.8952082998585,153.99563589994796,153.99563589994796,None,154.81348080001771,None,,,,,,,11046,001,2024_Apr_15_1349,ANT,2021.2.3,59.867907474622314,
1,15,center,down,IC,L,,,,,,Block.xlsx,"你已经完成了第一个实验区组

请稍作休息


点击空格键进入下一个区组。",0,50,-1.5,left,RRLRR.png,,,,,0,0,0,0,1,17,41,14,,,,,,,,,,,,,,,,,,,,,,,,,,,,,,,,,,,,,,,,,,,,,,,,,,,,,,,,,,,,,,,,155.2142817999702,155.61538770003244,155.59787499997765,155.69871079991572,156.0988248998765,None,left,1,0.8081708999816328,156.0988248998765,None,155.59787499997765,155.69871079991572,155.69871079991572,None,156.9334477998782,None,,,,,,,11046,001,2024_Apr_15_1349,ANT,2021.2.3,59.867907474622314,
1,18,spatial,up,C,R,,,,,,Block.xlsx,"你已经完成了第一个实验区组

请稍作休息


点击空格键进入下一个区组。",1.5,0,1.5,right,RRRRR.png,,,,,0,0,0,0,1,18,42,17,,,,,,,,,,,,,,,,,,,,,,,,,,,,,,,,,,,,,,,,,,,,,,,,,,,,,,,,,,,,,,,,157.33390529989265,157.73455179994926,157.71928339987062,157.8205237998627,158.2186910000164,None,right,1,0.3678564000874758,158.2186910000164,None,157.71928339987062,157.8205237998627,157.8205237998627,None,158.6027072998695,None,,,,,,,11046,001,2024_Apr_15_1349,ANT,2021.2.3,59.867907474622314,
1,21,spatial,down,C,L,,,,,,Block.xlsx,"你已经完成了第一个实验区组

请稍作休息


点击空格键进入下一个区组。",-1.5,0,-1.5,left,LLLLL.png,,,,,0,0,0,0,1,19,43,20,,,,,,,,,,,,,,,,,,,,,,,,,,,,,,,,,,,,,,,,,,,,,,,,,,,,,,,,,,,,,,,,159.00304119987413,159.40469649992883,159.38779890001751,159.48884669994004,159.8878508999478,None,left,1,0.35440379986539483,159.8878508999478,None,159.38779890001751,159.48884669994004,159.48884669994004,None,160.27181479986757,None,,,,,,,11046,001,2024_Apr_15_1349,ANT,2021.2.3,59.867907474622314,
1,24,spatial,down,IC,R,,,,,,Block.xlsx,"你已经完成了第一个实验区组

请稍作休息


点击空格键进入下一个区组。",-1.5,0,-1.5,right,LLRLL.png,,,,,0,0,0,0,1,20,44,23,,,,,,,,,,,,,,,,,,,,,,,,,,,,,,,,,,,,,,,,,,,,,,,,,,,,,,,,,,,,,,,,160.67256209999323,161.0740022000391,161.05620039999485,161.15876029990613,161.55710289999843,None,right,1,0.5096052999142557,161.55710289999843,None,161.05620039999485,161.15876029990613,161.15876029990613,None,162.09114489983767,None,,,,,,,11046,001,2024_Apr_15_1349,ANT,2021.2.3,59.867907474622314,
1,12,center,up,IC,R,,,,,,Block.xlsx,"你已经完成了第一个实验区组

请稍作休息


点击空格键进入下一个区组。",0,50,1.5,right,LLRLL.png,,,,,0,0,0,0,1,21,45,11,,,,,,,,,,,,,,,,,,,,,,,,,,,,,,,,,,,,,,,,,,,,,,,,,,,,,,,,,,,,,,,,162.49173579993658,162.89328880002722,162.87563199992292,162.97618100000545,163.37841859995387,None,right,1,0.5527979999314994,163.37841859995387,None,162.87563199992292,162.97618100000545,162.97618100000545,None,163.96049829991534,None,,,,,,,11046,001,2024_Apr_15_1349,ANT,2021.2.3,59.867907474622314,
1,24,spatial,down,IC,R,,,,,,Block.xlsx,"你已经完成了第一个实验区组

请稍作休息


点击空格键进入下一个区组。",-1.5,0,-1.5,right,LLRLL.png,,,,,0,0,0,0,1,22,46,23,,,,,,,,,,,,,,,,,,,,,,,,,,,,,,,,,,,,,,,,,,,,,,,,,,,,,,,,,,,,,,,,164.36128810001537,164.7619062999729,164.7466060000006,164.84619319997728,165.24566020001657,None,right,1,0.4052029000595212,165.24566020001657,None,164.7466060000006,164.84619319997728,164.84619319997728,None,165.68011269997805,None,,,,,,,11046,001,2024_Apr_15_1349,ANT,2021.2.3,59.867907474622314,
1,21,spatial,down,C,L,,,,,,Block.xlsx,"你已经完成了第一个实验区组

请稍作休息


点击空格键进入下一个区组。",-1.5,0,-1.5,left,LLLLL.png,,,,,0,0,0,0,1,23,47,20,,,,,,,,,,,,,,,,,,,,,,,,,,,,,,,,,,,,,,,,,,,,,,,,,,,,,,,,,,,,,,,,166.08054969995283,166.48115669982508,166.4648625999689,166.56483569997363,166.96513190004043,None,left,1,0.42957909987308085,166.96513190004043,None,166.4648625999689,166.56483569997363,166.56483569997363,None,167.41586519987322,None,,,,,,,11046,001,2024_Apr_15_1349,ANT,2021.2.3,59.867907474622314,
1,15,center,down,IC,L,,,,,,Block.xlsx,"你已经完成了第一个实验区组

请稍作休息


点击空格键进入下一个区组。",0,50,-1.5,left,RRLRR.png,,,,,0,0,0,0,2,0,48,14,,,,,,,,,,,,,,,,,,,,,,,,,,,,,,,,,,,,,,,,,,,,,,,,,,,,,,,,,,,,,,,,167.8169898998458,168.21746900002472,168.20029129995964,168.30122749996372,168.70135909994133,None,left,1,0.5179854000452906,168.70135909994133,None,168.20029129995964,168.30122749996372,168.30122749996372,None,169.23550399998203,None,,,,,,,11046,001,2024_Apr_15_1349,ANT,2021.2.3,59.867907474622314,
1,24,spatial,down,IC,R,,,,,,Block.xlsx,"你已经完成了第一个实验区组

请稍作休息


点击空格键进入下一个区组。",-1.5,0,-1.5,right,LLRLL.png,,,,,0,0,0,0,2,1,49,23,,,,,,,,,,,,,,,,,,,,,,,,,,,,,,,,,,,,,,,,,,,,,,,,,,,,,,,,,,,,,,,,169.63597419997677,170.0374272998888,170.01968239992857,170.11999429995194,170.5213929999154,None,right,1,0.42553590005263686,170.5213929999154,None,170.01968239992857,170.11999429995194,170.11999429995194,None,170.9710735999979,None,,,,,,,11046,001,2024_Apr_15_1349,ANT,2021.2.3,59.867907474622314,
1,3,no,up,IC,L,,,,,,Block.xlsx,"你已经完成了第一个实验区组

请稍作休息


点击空格键进入下一个区组。",50,0,1.5,left,RRLRR.png,,,,,0,0,0,0,2,2,50,2,,,,,,,,,,,,,,,,,,,,,,,,,,,,,,,,,,,,,,,,,,,,,,,,,,,,,,,,,,,,,,,,171.371798499953,171.773328299867,171.75621049990878,171.85637639998458,172.25666019995697,None,left,1,0.6264003999531269,172.25666019995697,None,171.75621049990878,171.85637639998458,171.85637639998458,None,172.90787540003657,None,,,,,,,11046,001,2024_Apr_15_1349,ANT,2021.2.3,59.867907474622314,
1,19,spatial,up,IC,L,,,,,,Block.xlsx,"你已经完成了第一个实验区组

请稍作休息


点击空格键进入下一个区组。",1.5,0,1.5,left,RRLRR.png,,,,,0,0,0,0,2,3,51,18,,,,,,,,,,,,,,,,,,,,,,,,,,,,,,,,,,,,,,,,,,,,,,,,,,,,,,,,,,,,,,,,173.30854239990003,173.7093211999163,173.6919290998485,173.79248519986868,174.19278709986247,None,left,1,0.49056019983254373,174.19278709986247,None,173.6919290998485,173.79248519986868,173.79248519986868,None,174.71022120001726,None,,,,,,,11046,001,2024_Apr_15_1349,ANT,2021.2.3,59.867907474622314,
1,15,center,down,IC,L,,,,,,Block.xlsx,"你已经完成了第一个实验区组

请稍作休息


点击空格键进入下一个区组。",0,50,-1.5,left,RRLRR.png,,,,,0,0,0,0,2,4,52,14,,,,,,,,,,,,,,,,,,,,,,,,,,,,,,,,,,,,,,,,,,,,,,,,,,,,,,,,,,,,,,,,175.11075520003214,175.5111481999047,175.49473369983025,175.59532129997388,175.99678159994073,None,left,1,0.45407350012101233,175.99678159994073,None,175.49473369983025,175.59532129997388,175.59532129997388,None,176.47949479985982,None,,,,,,,11046,001,2024_Apr_15_1349,ANT,2021.2.3,59.867907474622314,
1,5,no,down,C,L,,,,,,Block.xlsx,"你已经完成了第一个实验区组

请稍作休息


点击空格键进入下一个区组。",50,0,-1.5,left,LLLLL.png,,,,,0,0,0,0,2,5,53,4,,,,,,,,,,,,,,,,,,,,,,,,,,,,,,,,,,,,,,,,,,,,,,,,,,,,,,,,,,,,,,,,176.88013349985704,177.28073040000163,177.26429939991795,177.36604609992355,177.76473449985497,None,left,1,0.414357400033623,177.76473449985497,None,177.26429939991795,177.36604609992355,177.36604609992355,None,178.19885459984653,None,,,,,,,11046,001,2024_Apr_15_1349,ANT,2021.2.3,59.867907474622314,
1,8,no,down,IC,R,,,,,,Block.xlsx,"你已经完成了第一个实验区组

请稍作休息


点击空格键进入下一个区组。",50,0,-1.5,right,LLRLL.png,,,,,0,0,0,0,2,6,54,7,,,,,,,,,,,,,,,,,,,,,,,,,,,,,,,,,,,,,,,,,,,,,,,,,,,,,,,,,,,,,,,,178.60024099983275,178.99984579999,178.98433139990084,179.08461389993317,179.4841718999669,None,right,1,0.5186892000492662,179.4841718999669,None,178.98433139990084,179.08461389993317,179.08461389993317,None,180.03497709985822,None,,,,,,,11046,001,2024_Apr_15_1349,ANT,2021.2.3,59.867907474622314,
1,3,no,up,IC,L,,,,,,Block.xlsx,"你已经完成了第一个实验区组

请稍作休息


点击空格键进入下一个区组。",50,0,1.5,left,RRLRR.png,,,,,0,0,0,0,2,7,55,2,,,,,,,,,,,,,,,,,,,,,,,,,,,,,,,,,,,,,,,,,,,,,,,,,,,,,,,,,,,,,,,,180.43587099993601,180.8360127999913,180.8202454999555,180.92167659988627,181.3210199000314,None,left,1,0.4901856000069529,181.3210199000314,None,180.8202454999555,180.92167659988627,180.92167659988627,None,181.8377392999828,None,,,,,,,11046,001,2024_Apr_15_1349,ANT,2021.2.3,59.867907474622314,
1,13,center,down,C,L,,,,,,Block.xlsx,"你已经完成了第一个实验区组

请稍作休息


点击空格键进入下一个区组。",0,50,-1.5,left,LLLLL.png,,,,,0,0,0,0,2,8,56,12,,,,,,,,,,,,,,,,,,,,,,,,,,,,,,,,,,,,,,,,,,,,,,,,,,,,,,,,,,,,,,,,182.2382361998316,182.6396981999278,182.62215309985913,182.72343749995343,183.12359109986573,None,left,1,0.4237279000226408,183.12359109986573,None,182.62215309985913,182.72343749995343,182.72343749995343,None,183.57355450000614,None,,,,,,,11046,001,2024_Apr_15_1349,ANT,2021.2.3,59.867907474622314,
1,20,spatial,up,IC,R,,,,,,Block.xlsx,"你已经完成了第一个实验区组

请稍作休息


点击空格键进入下一个区组。",1.5,0,1.5,right,LLRLL.png,,,,,0,0,0,0,2,9,57,19,,,,,,,,,,,,,,,,,,,,,,,,,,,,,,,,,,,,,,,,,,,,,,,,,,,,,,,,,,,,,,,,183.9743957000319,184.37684719986282,184.35815709992312,184.45896640000865,184.85923609999008,None,right,1,0.4882307997904718,184.85923609999008,None,184.35815709992312,184.45896640000865,184.45896640000865,None,185.37670819996856,None,,,,,,,11046,001,2024_Apr_15_1349,ANT,2021.2.3,59.867907474622314,
1,7,no,down,IC,L,,,,,,Block.xlsx,"你已经完成了第一个实验区组

请稍作休息


点击空格键进入下一个区组。",50,0,-1.5,left,RRLRR.png,,,,,0,0,0,0,2,10,58,6,,,,,,,,,,,,,,,,,,,,,,,,,,,,,,,,,,,,,,,,,,,,,,,,,,,,,,,,,,,,,,,,185.77672349987552,186.17863429989666,186.160770899849,186.2610449998174,186.66169429989532,None,left,1,0.5179513001348823,186.66169429989532,None,186.160770899849,186.2610449998174,186.2610449998174,None,187.19571519992314,None,,,,,,,11046,001,2024_Apr_15_1349,ANT,2021.2.3,59.867907474622314,
1,4,no,up,IC,R,,,,,,Block.xlsx,"你已经完成了第一个实验区组

请稍作休息


点击空格键进入下一个区组。",50,0,1.5,right,LLRLL.png,,,,,0,0,0,0,2,11,59,3,,,,,,,,,,,,,,,,,,,,,,,,,,,,,,,,,,,,,,,,,,,,,,,,,,,,,,,,,,,,,,,,187.59665149985813,187.99672929989174,187.98035910003819,188.0807238998823,188.48178319982253,None,right,1,0.5455168001353741,188.48178319982253,None,187.98035910003819,188.0807238998823,188.0807238998823,None,189.04864279995672,None,,,,,,,11046,001,2024_Apr_15_1349,ANT,2021.2.3,59.867907474622314,
1,16,center,down,IC,R,,,,,,Block.xlsx,"你已经完成了第一个实验区组

请稍作休息


点击空格键进入下一个区组。",0,50,-1.5,right,LLRLL.png,,,,,0,0,0,0,2,12,60,15,,,,,,,,,,,,,,,,,,,,,,,,,,,,,,,,,,,,,,,,,,,,,,,,,,,,,,,,,,,,,,,,189.44908409984782,189.85075159999542,189.83294729981571,189.93336459994316,190.33483819989488,None,right,1,0.48430010001175106,190.33483819989488,None,189.83294729981571,189.93336459994316,189.93336459994316,None,190.83450789982453,None,,,,,,,11046,001,2024_Apr_15_1349,ANT,2021.2.3,59.867907474622314,
1,2,no,up,C,R,,,,,,Block.xlsx,"你已经完成了第一个实验区组

请稍作休息


点击空格键进入下一个区组。",50,0,1.5,right,RRRRR.png,,,,,0,0,0,0,2,13,61,1,,,,,,,,,,,,,,,,,,,,,,,,,,,,,,,,,,,,,,,,,,,,,,,,,,,,,,,,,,,,,,,,191.23582349997014,191.63575330004096,191.6200486999005,191.73587129986845,192.11979529983364,None,right,1,0.4842721000313759,192.11979529983364,None,191.6200486999005,191.73587129986845,191.72051359992474,None,192.62067550001666,None,,,,,,,11046,001,2024_Apr_15_1349,ANT,2021.2.3,59.867907474622314,
1,14,center,down,C,R,,,,,,Block.xlsx,"你已经完成了第一个实验区组

请稍作休息


点击空格键进入下一个区组。",0,50,-1.5,right,RRRRR.png,,,,,0,0,0,0,2,14,62,13,,,,,,,,,,,,,,,,,,,,,,,,,,,,,,,,,,,,,,,,,,,,,,,,,,,,,,,,,,,,,,,,193.02138869999908,193.42178620002232,193.4065337998327,193.52241900004447,193.90611169999465,None,right,1,0.3692297001834959,193.90611169999465,None,193.4065337998327,193.52241900004447,193.50511919986457,None,194.30643919995055,None,,,,,,,11046,001,2024_Apr_15_1349,ANT,2021.2.3,59.867907474622314,
1,6,no,down,C,R,,,,,,Block.xlsx,"你已经完成了第一个实验区组

请稍作休息


点击空格键进入下一个区组。",50,0,-1.5,right,RRRRR.png,,,,,0,0,0,0,2,15,63,5,,,,,,,,,,,,,,,,,,,,,,,,,,,,,,,,,,,,,,,,,,,,,,,,,,,,,,,,,,,,,,,,194.7071358000394,195.10830319998786,195.0929851999972,195.20988329988904,195.5917058000341,None,right,1,0.45238689985126257,195.5917058000341,None,195.0929851999972,195.20988329988904,195.19100979994982,None,196.0588670000434,None,,,,,,,11046,001,2024_Apr_15_1349,ANT,2021.2.3,59.867907474622314,
1,20,spatial,up,IC,R,,,,,,Block.xlsx,"你已经完成了第一个实验区组

请稍作休息


点击空格键进入下一个区组。",1.5,0,1.5,right,LLRLL.png,,,,,0,0,0,0,2,16,64,19,,,,,,,,,,,,,,,,,,,,,,,,,,,,,,,,,,,,,,,,,,,,,,,,,,,,,,,,,,,,,,,,196.4595792000182,196.86022579995915,196.84351129992865,196.94482370000333,197.34428279986605,None,right,1,0.5075350999832153,197.34428279986605,None,196.84351129992865,196.94482370000333,196.94482370000333,None,197.87822289997712,None,,,,,,,11046,001,2024_Apr_15_1349,ANT,2021.2.3,59.867907474622314,
1,10,center,up,C,R,,,,,,Block.xlsx,"你已经完成了第一个实验区组

请稍作休息


点击空格键进入下一个区组。",0,50,1.5,right,RRRRR.png,,,,,0,0,0,0,2,17,65,9,,,,,,,,,,,,,,,,,,,,,,,,,,,,,,,,,,,,,,,,,,,,,,,,,,,,,,,,,,,,,,,,198.27899020002224,198.6815714999102,198.6631087998394,198.7647394000087,199.16381699987687,None,right,1,0.47169900010339916,199.16381699987687,None,198.6631087998394,198.7647394000087,198.7647394000087,None,199.6645829998888,None,,,,,,,11046,001,2024_Apr_15_1349,ANT,2021.2.3,59.867907474622314,
1,5,no,down,C,L,,,,,,Block.xlsx,"你已经完成了第一个实验区组

请稍作休息


点击空格键进入下一个区组。",50,0,-1.5,left,LLLLL.png,,,,,0,0,0,0,2,18,66,4,,,,,,,,,,,,,,,,,,,,,,,,,,,,,,,,,,,,,,,,,,,,,,,,,,,,,,,,,,,,,,,,200.0652328999713,200.46691359998658,200.4489851000253,200.54923629993573,200.94985999981873,None,left,1,0.5101596000604331,200.94985999981873,None,200.4489851000253,200.54923629993573,200.54923629993573,None,201.48404629994184,None,,,,,,,11046,001,2024_Apr_15_1349,ANT,2021.2.3,59.867907474622314,
1,13,center,down,C,L,,,,,,Block.xlsx,"你已经完成了第一个实验区组

请稍作休息


点击空格键进入下一个区组。",0,50,-1.5,left,LLLLL.png,,,,,0,0,0,0,2,19,67,12,,,,,,,,,,,,,,,,,,,,,,,,,,,,,,,,,,,,,,,,,,,,,,,,,,,,,,,,,,,,,,,,201.88463009987026,202.28548670001328,202.2688592998311,202.3685744998511,202.76923860004172,None,left,1,0.514951900113374,202.76923860004172,None,202.2688592998311,202.3685744998511,202.3685744998511,None,203.30334670003504,None,,,,,,,11046,001,2024_Apr_15_1349,ANT,2021.2.3,59.867907474622314,
1,14,center,down,C,R,,,,,,Block.xlsx,"你已经完成了第一个实验区组

请稍作休息


点击空格键进入下一个区组。",0,50,-1.5,right,RRRRR.png,,,,,0,0,0,0,2,20,68,13,,,,,,,,,,,,,,,,,,,,,,,,,,,,,,,,,,,,,,,,,,,,,,,,,,,,,,,,,,,,,,,,203.70451910002157,204.1045917000156,204.08803260000423,204.1885406000074,204.5890177998226,None,right,1,0.5025639000814408,204.5890177998226,None,204.08803260000423,204.1885406000074,204.1885406000074,None,205.12275290000252,None,,,,,,,11046,001,2024_Apr_15_1349,ANT,2021.2.3,59.867907474622314,
1,4,no,up,IC,R,,,,,,Block.xlsx,"你已经完成了第一个实验区组

请稍作休息


点击空格键进入下一个区组。",50,0,1.5,right,LLRLL.png,,,,,0,0,0,0,2,21,69,3,,,,,,,,,,,,,,,,,,,,,,,,,,,,,,,,,,,,,,,,,,,,,,,,,,,,,,,,,,,,,,,,205.52392169996165,205.92493189987727,205.907422499964,206.00739859999157,206.40840839990415,None,right,1,0.5475367000326514,206.40840839990415,None,205.907422499964,206.00739859999157,206.00739859999157,None,206.9755044998601,None,,,,,,,11046,001,2024_Apr_15_1349,ANT,2021.2.3,59.867907474622314,
1,17,spatial,up,C,L,,,,,,Block.xlsx,"你已经完成了第一个实验区组

请稍作休息


点击空格键进入下一个区组。",1.5,0,1.5,left,LLLLL.png,,,,,0,0,0,0,2,22,70,16,,,,,,,,,,,,,,,,,,,,,,,,,,,,,,,,,,,,,,,,,,,,,,,,,,,,,,,,,,,,,,,,207.37624979997054,207.77692910004407,207.76046639983542,207.86181119992398,208.2607779998798,None,left,1,0.5431963999290019,208.2607779998798,None,207.76046639983542,207.86181119992398,207.86181119992398,None,208.82869230001234,None,,,,,,,11046,001,2024_Apr_15_1349,ANT,2021.2.3,59.867907474622314,
1,10,center,up,C,R,,,,,,Block.xlsx,"你已经完成了第一个实验区组

请稍作休息


点击空格键进入下一个区组。",0,50,1.5,right,RRRRR.png,,,,,0,0,0,0,2,23,71,9,,,,,,,,,,,,,,,,,,,,,,,,,,,,,,,,,,,,,,,,,,,,,,,,,,,,,,,,,,,,,,,,209.2292624998372,209.62949269986711,209.61351579986513,209.71462469990365,210.11492459988222,None,right,1,0.466265199938789,210.11492459988222,None,209.61351579986513,209.71462469990365,209.71462469990365,None,210.59756679995917,None,,,,,,,11046,001,2024_Apr_15_1349,ANT,2021.2.3,59.867907474622314,
1,21,spatial,down,C,L,,,,,,Block.xlsx,"你已经完成了第一个实验区组

请稍作休息


点击空格键进入下一个区组。",-1.5,0,-1.5,left,LLLLL.png,,,,,0,0,0,0,3,0,72,20,,,,,,,,,,,,,,,,,,,,,,,,,,,,,,,,,,,,,,,,,,,,,,,,,,,,,,,,,,,,,,,,210.99917640001513,211.39895750000142,211.382141900016,211.48355149989948,211.88516009994783,None,left,1,0.5190142998471856,211.88516009994783,None,211.382141900016,211.48355149989948,211.48355149989948,None,212.43387759989128,None,,,,,,,11046,001,2024_Apr_15_1349,ANT,2021.2.3,59.867907474622314,
1,9,center,up,C,L,,,,,,Block.xlsx,"你已经完成了第一个实验区组

请稍作休息


点击空格键进入下一个区组。",0,50,1.5,left,LLLLL.png,,,,,0,0,0,0,3,1,73,8,,,,,,,,,,,,,,,,,,,,,,,,,,,,,,,,,,,,,,,,,,,,,,,,,,,,,,,,,,,,,,,,212.83430139999837,213.23576619988307,213.21847479999997,213.31945029995404,213.71913979994133,None,left,1,0.4777124000247568,213.71913979994133,None,213.21847479999997,213.31945029995404,213.31945029995404,None,214.21973409992643,None,,,,,,,11046,001,2024_Apr_15_1349,ANT,2021.2.3,59.867907474622314,
1,14,center,down,C,R,,,,,,Block.xlsx,"你已经完成了第一个实验区组

请稍作休息


点击空格键进入下一个区组。",0,50,-1.5,right,RRRRR.png,,,,,0,0,0,0,3,2,74,13,,,,,,,,,,,,,,,,,,,,,,,,,,,,,,,,,,,,,,,,,,,,,,,,,,,,,,,,,,,,,,,,214.6204243998509,215.02126059983857,215.0042800998781,215.10451800003648,215.50498449988663,None,right,1,0.4750679999124259,215.50498449988663,None,215.0042800998781,215.10451800003648,215.10451800003648,None,216.00601929984987,None,,,,,,,11046,001,2024_Apr_15_1349,ANT,2021.2.3,59.867907474622314,
1,23,spatial,down,IC,L,,,,,,Block.xlsx,"你已经完成了第一个实验区组

请稍作休息


点击空格键进入下一个区组。",-1.5,0,-1.5,left,RRLRR.png,,,,,0,0,0,0,3,3,75,22,,,,,,,,,,,,,,,,,,,,,,,,,,,,,,,,,,,,,,,,,,,,,,,,,,,,,,,,,,,,,,,,216.40641509997658,216.8070982999634,216.79125329991803,216.89167549996637,217.29217189992778,None,left,1,0.6240369000006467,217.29217189992778,None,216.79125329991803,216.89167549996637,216.89167549996637,None,217.9421233998146,None,,,,,,,11046,001,2024_Apr_15_1349,ANT,2021.2.3,59.867907474622314,
1,9,center,up,C,L,,,,,,Block.xlsx,"你已经完成了第一个实验区组

请稍作休息


点击空格键进入下一个区组。",0,50,1.5,left,LLLLL.png,,,,,0,0,0,0,3,4,76,8,,,,,,,,,,,,,,,,,,,,,,,,,,,,,,,,,,,,,,,,,,,,,,,,,,,,,,,,,,,,,,,,218.34303849982098,218.74331799987704,218.7270330998581,218.82677639997564,219.22840159991756,None,left,1,0.44016400002874434,219.22840159991756,None,218.7270330998581,218.82677639997564,218.82677639997564,None,219.69486779998988,None,,,,,,,11046,001,2024_Apr_15_1349,ANT,2021.2.3,59.867907474622314,
1,7,no,down,IC,L,,,,,,Block.xlsx,"你已经完成了第一个实验区组

请稍作休息


点击空格键进入下一个区组。",50,0,-1.5,left,RRLRR.png,,,,,0,0,0,0,3,5,77,6,,,,,,,,,,,,,,,,,,,,,,,,,,,,,,,,,,,,,,,,,,,,,,,,,,,,,,,,,,,,,,,,220.09517819993198,220.49601899995469,220.48060499993153,220.57946050004102,220.98105899989605,None,left,1,0.5675115999765694,220.98105899989605,None,220.48060499993153,220.57946050004102,220.57946050004102,None,221.56445039995015,None,,,,,,,11046,001,2024_Apr_15_1349,ANT,2021.2.3,59.867907474622314,
1,14,center,down,C,R,,,,,,Block.xlsx,"你已经完成了第一个实验区组

请稍作休息


点击空格键进入下一个区组。",0,50,-1.5,right,RRRRR.png,,,,,0,0,0,0,3,6,78,13,,,,,,,,,,,,,,,,,,,,,,,,,,,,,,,,,,,,,,,,,,,,,,,,,,,,,,,,,,,,,,,,221.96486249985173,222.36541879992,222.34894529986195,222.45083380001597,222.8501533998642,None,right,1,0.5064741000533104,222.8501533998642,None,222.34894529986195,222.45083380001597,222.45083380001597,None,223.38345009996556,None,,,,,,,11046,001,2024_Apr_15_1349,ANT,2021.2.3,59.867907474622314,
1,13,center,down,C,L,,,,,,Block.xlsx,"你已经完成了第一个实验区组

请稍作休息


点击空格键进入下一个区组。",0,50,-1.5,left,LLLLL.png,,,,,0,0,0,0,3,7,79,12,,,,,,,,,,,,,,,,,,,,,,,,,,,,,,,,,,,,,,,,,,,,,,,,,,,,,,,,,,,,,,,,223.78424559999257,224.18671919987537,224.168187599862,224.2700535999611,224.66971419984475,None,left,1,0.4065449999179691,224.66971419984475,None,224.168187599862,224.2700535999611,224.2700535999611,None,225.10301609989256,None,,,,,,,11046,001,2024_Apr_15_1349,ANT,2021.2.3,59.867907474622314,
1,16,center,down,IC,R,,,,,,Block.xlsx,"你已经完成了第一个实验区组

请稍作休息


点击空格键进入下一个区组。",0,50,-1.5,right,LLRLL.png,,,,,0,0,0,0,3,8,80,15,,,,,,,,,,,,,,,,,,,,,,,,,,,,,,,,,,,,,,,,,,,,,,,,,,,,,,,,,,,,,,,,225.5034324999433,225.9041695999913,225.88926879991777,226.004385399865,226.38980849995278,None,right,1,0.5267418001312762,226.38980849995278,None,225.88926879991777,226.004385399865,225.98842529999092,None,226.93909020000137,None,,,,,,,11046,001,2024_Apr_15_1349,ANT,2021.2.3,59.867907474622314,
1,6,no,down,C,R,,,,,,Block.xlsx,"你已经完成了第一个实验区组

请稍作休息


点击空格键进入下一个区组。",50,0,-1.5,right,RRRRR.png,,,,,0,0,0,0,3,9,81,5,,,,,,,,,,,,,,,,,,,,,,,,,,,,,,,,,,,,,,,,,,,,,,,,,,,,,,,,,,,,,,,,227.3396902999375,227.7404392999597,227.72469999990426,227.8258258998394,228.2243086998351,None,right,1,0.460408000042662,228.2243086998351,None,227.72469999990426,227.8258258998394,227.8258258998394,None,228.7082213999238,None,,,,,,,11046,001,2024_Apr_15_1349,ANT,2021.2.3,59.867907474622314,
1,1,no,up,C,L,,,,,,Block.xlsx,"你已经完成了第一个实验区组

请稍作休息


点击空格键进入下一个区组。",50,0,1.5,left,LLLLL.png,,,,,0,0,0,0,3,10,82,0,,,,,,,,,,,,,,,,,,,,,,,,,,,,,,,,,,,,,,,,,,,,,,,,,,,,,,,,,,,,,,,,229.10889769997448,229.50957220001146,229.49427090003155,229.5941434998531,229.99352469993755,None,left,1,0.5076511998195201,229.99352469993755,None,229.49427090003155,229.5941434998531,229.5941434998531,None,230.52783129992895,None,,,,,,,11046,001,2024_Apr_15_1349,ANT,2021.2.3,59.867907474622314,
1,2,no,up,C,R,,,,,,Block.xlsx,"你已经完成了第一个实验区组

请稍作休息


点击空格键进入下一个区组。",50,0,1.5,right,RRRRR.png,,,,,0,0,0,0,3,11,83,1,,,,,,,,,,,,,,,,,,,,,,,,,,,,,,,,,,,,,,,,,,,,,,,,,,,,,,,,,,,,,,,,230.92834939993918,231.32900379993953,231.31220879987814,231.41342539992183,231.81427789991722,None,right,1,0.48613750003278255,231.81427789991722,None,231.31220879987814,231.41342539992183,231.41342539992183,None,232.33065899997018,None,,,,,,,11046,001,2024_Apr_15_1349,ANT,2021.2.3,59.867907474622314,
1,16,center,down,IC,R,,,,,,Block.xlsx,"你已经完成了第一个实验区组

请稍作休息


点击空格键进入下一个区组。",0,50,-1.5,right,LLRLL.png,,,,,0,0,0,0,3,12,84,15,,,,,,,,,,,,,,,,,,,,,,,,,,,,,,,,,,,,,,,,,,,,,,,,,,,,,,,,,,,,,,,,232.7311560998205,233.13246380002238,233.11545159993693,233.2152478999924,233.61633350001648,None,right,1,0.5245647998526692,233.61633350001648,None,233.11545159993693,233.2152478999924,233.2152478999924,None,234.16674459981732,None,,,,,,,11046,001,2024_Apr_15_1349,ANT,2021.2.3,59.867907474622314,
1,18,spatial,up,C,R,,,,,,Block.xlsx,"你已经完成了第一个实验区组

请稍作休息


点击空格键进入下一个区组。",1.5,0,1.5,right,RRRRR.png,,,,,0,0,0,0,3,13,85,17,,,,,,,,,,,,,,,,,,,,,,,,,,,,,,,,,,,,,,,,,,,,,,,,,,,,,,,,,,,,,,,,234.56760059995577,234.96788759995252,234.9514915999025,235.05131129990332,235.45188939990476,None,right,1,0.4089428000152111,235.45188939990476,None,234.9514915999025,235.05131129990332,235.05131129990332,None,235.88581290002912,None,,,,,,,11046,001,2024_Apr_15_1349,ANT,2021.2.3,59.867907474622314,
1,20,spatial,up,IC,R,,,,,,Block.xlsx,"你已经完成了第一个实验区组

请稍作休息


点击空格键进入下一个区组。",1.5,0,1.5,right,LLRLL.png,,,,,0,0,0,0,3,14,86,19,,,,,,,,,,,,,,,,,,,,,,,,,,,,,,,,,,,,,,,,,,,,,,,,,,,,,,,,,,,,,,,,236.28633080003783,236.68771800003015,236.67031969991513,236.7716655000113,237.172574599972,None,right,1,0.4959265999495983,237.172574599972,None,236.67031969991513,236.7716655000113,236.7716655000113,None,237.68855259986594,None,,,,,,,11046,001,2024_Apr_15_1349,ANT,2021.2.3,59.867907474622314,
1,3,no,up,IC,L,,,,,,Block.xlsx,"你已经完成了第一个实验区组

请稍作休息


点击空格键进入下一个区组。",50,0,1.5,left,RRLRR.png,,,,,0,0,0,0,3,15,87,2,,,,,,,,,,,,,,,,,,,,,,,,,,,,,,,,,,,,,,,,,,,,,,,,,,,,,,,,,,,,,,,,238.08913500001654,238.49151859991252,238.47398919984698,238.57335489988327,238.97391039994545,None,left,1,0.5913231000304222,238.97391039994545,None,238.47398919984698,238.57335489988327,238.57335489988327,None,239.59196859993972,None,,,,,,,11046,001,2024_Apr_15_1349,ANT,2021.2.3,59.867907474622314,
1,9,center,up,C,L,,,,,,Block.xlsx,"你已经完成了第一个实验区组

请稍作休息


点击空格键进入下一个区组。",0,50,1.5,left,LLLLL.png,,,,,0,0,0,0,3,16,88,8,,,,,,,,,,,,,,,,,,,,,,,,,,,,,,,,,,,,,,,,,,,,,,,,,,,,,,,,,,,,,,,,239.9923690999858,240.3928427998908,240.37679130001925,240.47611889988184,240.87669710000046,None,left,1,0.4079551000613719,240.87669710000046,None,240.37679130001925,240.47611889988184,240.47611889988184,None,241.3107232998591,None,,,,,,,11046,001,2024_Apr_15_1349,ANT,2021.2.3,59.867907474622314,
1,23,spatial,down,IC,L,,,,,,Block.xlsx,"你已经完成了第一个实验区组

请稍作休息


点击空格键进入下一个区组。",-1.5,0,-1.5,left,RRLRR.png,,,,,0,0,0,0,3,17,89,22,,,,,,,,,,,,,,,,,,,,,,,,,,,,,,,,,,,,,,,,,,,,,,,,,,,,,,,,,,,,,,,,241.71137269982137,242.1125854998827,242.09532309998758,242.19595399987884,242.59606829984114,None,left,1,0.513020500075072,242.59606829984114,None,242.09532309998758,242.19595399987884,242.19595399987884,None,243.1301386000123,None,,,,,,,11046,001,2024_Apr_15_1349,ANT,2021.2.3,59.867907474622314,
1,23,spatial,down,IC,L,,,,,,Block.xlsx,"你已经完成了第一个实验区组

请稍作休息


点击空格键进入下一个区组。",-1.5,0,-1.5,left,RRLRR.png,,,,,0,0,0,0,3,18,90,22,,,,,,,,,,,,,,,,,,,,,,,,,,,,,,,,,,,,,,,,,,,,,,,,,,,,,,,,,,,,,,,,243.5310857000295,243.93221669993363,243.91509619983844,244.01505559985526,244.4154820998665,None,left,1,0.5500698001123965,244.4154820998665,None,243.91509619983844,244.01505559985526,244.01505559985526,None,244.9829740000423,None,,,,,,,11046,001,2024_Apr_15_1349,ANT,2021.2.3,59.867907474622314,
1,7,no,down,IC,L,,,,,,Block.xlsx,"你已经完成了第一个实验区组

请稍作休息


点击空格键进入下一个区组。",50,0,-1.5,left,RRLRR.png,,,,,0,0,0,0,3,19,91,6,,,,,,,,,,,,,,,,,,,,,,,,,,,,,,,,,,,,,,,,,,,,,,,,,,,,,,,,,,,,,,,,245.3834875000175,245.78442419995554,245.76739089982584,245.8684546998702,246.2692098999396,None,left,1,0.43339439993724227,246.2692098999396,None,245.76739089982584,245.8684546998702,245.8684546998702,None,246.71895379992202,None,,,,,,,11046,001,2024_Apr_15_1349,ANT,2021.2.3,59.867907474622314,
1,10,center,up,C,R,,,,,,Block.xlsx,"你已经完成了第一个实验区组

请稍作休息


点击空格键进入下一个区组。",0,50,1.5,right,RRRRR.png,,,,,0,0,0,0,3,20,92,9,,,,,,,,,,,,,,,,,,,,,,,,,,,,,,,,,,,,,,,,,,,,,,,,,,,,,,,,,,,,,,,,247.11942629981786,247.5203606998548,247.50335010001436,247.60473349993117,248.0043162999209,None,right,1,0.4736629999242723,248.0043162999209,None,247.50335010001436,247.60473349993117,247.60473349993117,None,248.50523559981957,None,,,,,,,11046,001,2024_Apr_15_1349,ANT,2021.2.3,59.867907474622314,
1,9,center,up,C,L,,,,,,Block.xlsx,"你已经完成了第一个实验区组

请稍作休息


点击空格键进入下一个区组。",0,50,1.5,left,LLLLL.png,,,,,0,0,0,0,3,21,93,8,,,,,,,,,,,,,,,,,,,,,,,,,,,,,,,,,,,,,,,,,,,,,,,,,,,,,,,,,,,,,,,,248.90550139988773,249.30816829996184,249.2896222998388,249.38975299987942,249.79041399993002,None,left,1,0.6227172000799328,249.79041399993002,None,249.2896222998388,249.38975299987942,249.38975299987942,None,250.44120189989917,None,,,,,,,11046,001,2024_Apr_15_1349,ANT,2021.2.3,59.867907474622314,
1,19,spatial,up,IC,L,,,,,,Block.xlsx,"你已经完成了第一个实验区组

请稍作休息


点击空格键进入下一个区组。",1.5,0,1.5,left,RRLRR.png,,,,,0,0,0,0,3,22,94,18,,,,,,,,,,,,,,,,,,,,,,,,,,,,,,,,,,,,,,,,,,,,,,,,,,,,,,,,,,,,,,,,250.8419605998788,251.24242169992067,251.22569629992358,251.32579659996554,251.72759769996628,None,left,1,0.42163929995149374,251.72759769996628,None,251.22569629992358,251.32579659996554,251.32579659996554,None,252.17721270001493,None,,,,,,,11046,001,2024_Apr_15_1349,ANT,2021.2.3,59.867907474622314,
1,13,center,down,C,L,,,,,,Block.xlsx,"你已经完成了第一个实验区组

请稍作休息


点击空格键进入下一个区组。",0,50,-1.5,left,LLLLL.png,,,,,0,0,0,0,3,23,95,12,,,,,,,,,,,,,,,,,,,,,,,,,,,,,,,,,,,,,,,,,,,,,,,,,,,,,,,,,,,,,,,,252.57768039987423,252.9796831998974,252.96150680002756,253.06336269993335,253.46235980000347,None,left,1,0.6312613999471068,253.46235980000347,None,252.96150680002756,253.06336269993335,253.06336269993335,None,254.11346150003374,None,,,,,,,11046,001,2024_Apr_15_1349,ANT,2021.2.3,59.867907474622314,
,,,,,,,,,,,Block.xlsx,"你已经完成了第一个实验区组

请稍作休息


点击空格键进入下一个区组。",,,,,,,,,,0,0,0,0,,,,,,,,,,,,,,,,,,,,,,,,,,,,,,,,,,,,,,,,,,,,,,,,,,,,,,,,,,,,,,,,,,,,,,,,,,,,,,,,,,,,,space,4.010576300090179,254.53086209995672,None,254.53086209995672,None,11046,001,2024_Apr_15_1349,ANT,2021.2.3,59.867907474622314,
1,2,no,up,C,R,,,,,,Block.xlsx,"你已经完成了整个实验（三个区组）。

请报告实验者已完成实验

非常感谢，再见！",50,0,1.5,right,RRRRR.png,,,,,0,1,1,1,0,0,0,1,,,,,,,,,,,,,,,,,,,,,,,,,,,,,,,,,,,,,,,,,,,,,,,,,,,,,,,,,,,,,,,,258.5867769999895,258.98728679982014,258.97178859985434,259.07175079989247,259.47158829984255,None,None,0,,259.47158829984255,None,258.97178859985434,259.07175079989247,259.07175079989247,None,261.1739443000406,None,,,,,,,11046,001,2024_Apr_15_1349,ANT,2021.2.3,59.867907474622314,
1,9,center,up,C,L,,,,,,Block.xlsx,"你已经完成了整个实验（三个区组）。

请报告实验者已完成实验

非常感谢，再见！",0,50,1.5,left,LLLLL.png,,,,,0,1,1,1,0,1,1,8,,,,,,,,,,,,,,,,,,,,,,,,,,,,,,,,,,,,,,,,,,,,,,,,,,,,,,,,,,,,,,,,261.5746466999408,261.975667799823,261.95869649993256,262.0595807998907,262.4601035998203,None,left,1,0.48113970016129315,262.4601035998203,None,261.95869649993256,262.0595807998907,262.0595807998907,None,262.9600654998794,None,,,,,,,11046,001,2024_Apr_15_1349,ANT,2021.2.3,59.867907474622314,
1,24,spatial,down,IC,R,,,,,,Block.xlsx,"你已经完成了整个实验（三个区组）。

请报告实验者已完成实验

非常感谢，再见！",-1.5,0,-1.5,right,LLRLL.png,,,,,0,1,1,1,0,2,2,23,,,,,,,,,,,,,,,,,,,,,,,,,,,,,,,,,,,,,,,,,,,,,,,,,,,,,,,,,,,,,,,,263.36057349992916,263.7612599998247,263.7459495998919,263.8620578998234,264.245457299985,None,right,1,0.4643577001988888,264.245457299985,None,263.7459495998919,263.8620578998234,263.8463433999568,None,264.7295571998693,None,,,,,,,11046,001,2024_Apr_15_1349,ANT,2021.2.3,59.867907474622314,
1,12,center,up,IC,R,,,,,,Block.xlsx,"你已经完成了整个实验（三个区组）。

请报告实验者已完成实验

非常感谢，再见！",0,50,1.5,right,LLRLL.png,,,,,0,1,1,1,0,3,3,11,,,,,,,,,,,,,,,,,,,,,,,,,,,,,,,,,,,,,,,,,,,,,,,,,,,,,,,,,,,,,,,,265.13004729989916,265.5306955999695,265.5153436998371,265.6142467998434,266.01604389981367,None,right,1,0.5013196000363678,266.01604389981367,None,265.5153436998371,265.6142467998434,265.6142467998434,None,266.5488601999823,None,,,,,,,11046,001,2024_Apr_15_1349,ANT,2021.2.3,59.867907474622314,
1,11,center,up,IC,L,,,,,,Block.xlsx,"你已经完成了整个实验（三个区组）。

请报告实验者已完成实验

非常感谢，再见！",0,50,1.5,left,RRLRR.png,,,,,0,1,1,1,0,4,4,10,,,,,,,,,,,,,,,,,,,,,,,,,,,,,,,,,,,,,,,,,,,,,,,,,,,,,,,,,,,,,,,,266.9495094998274,267.35064539988525,267.33509089984,267.43505600001663,267.83435059990734,None,left,1,0.555596899939701,267.83435059990734,None,267.33509089984,267.43505600001663,267.43505600001663,None,268.4183223999571,None,,,,,,,11046,001,2024_Apr_15_1349,ANT,2021.2.3,59.867907474622314,
1,18,spatial,up,C,R,,,,,,Block.xlsx,"你已经完成了整个实验（三个区组）。

请报告实验者已完成实验

非常感谢，再见！",1.5,0,1.5,right,RRRRR.png,,,,,0,1,1,1,0,5,5,17,,,,,,,,,,,,,,,,,,,,,,,,,,,,,,,,,,,,,,,,,,,,,,,,,,,,,,,,,,,,,,,,268.8189641998615,269.21988149988465,269.2029939999338,269.3031228999607,269.7042314999271,None,right,1,0.40615779999643564,269.7042314999271,None,269.2029939999338,269.3031228999607,269.3031228999607,None,270.13740399992093,None,,,,,,,11046,001,2024_Apr_15_1349,ANT,2021.2.3,59.867907474622314,
1,14,center,down,C,R,,,,,,Block.xlsx,"你已经完成了整个实验（三个区组）。

请报告实验者已完成实验

非常感谢，再见！",0,50,-1.5,right,RRRRR.png,,,,,0,1,1,1,0,6,6,13,,,,,,,,,,,,,,,,,,,,,,,,,,,,,,,,,,,,,,,,,,,,,,,,,,,,,,,,,,,,,,,,270.5380617999472,270.93939920002595,270.9232305998448,271.02384589985013,271.42467679991387,None,right,1,0.46272559999488294,271.42467679991387,None,270.9232305998448,271.02384589985013,271.02384589985013,None,271.90695249987766,None,,,,,,,11046,001,2024_Apr_15_1349,ANT,2021.2.3,59.867907474622314,
1,14,center,down,C,R,,,,,,Block.xlsx,"你已经完成了整个实验（三个区组）。

请报告实验者已完成实验

非常感谢，再见！",0,50,-1.5,right,RRRRR.png,,,,,0,1,1,1,0,7,7,13,,,,,,,,,,,,,,,,,,,,,,,,,,,,,,,,,,,,,,,,,,,,,,,,,,,,,,,,,,,,,,,,272.3075233998243,272.70819169981405,272.6925347999204,272.7915566000156,273.193664399907,None,right,1,0.4842876000329852,273.193664399907,None,272.6925347999204,272.7915566000156,272.7915566000156,None,273.69286039983854,None,,,,,,,11046,001,2024_Apr_15_1349,ANT,2021.2.3,59.867907474622314,
1,21,spatial,down,C,L,,,,,,Block.xlsx,"你已经完成了整个实验（三个区组）。

请报告实验者已完成实验

非常感谢，再见！",-1.5,0,-1.5,left,LLLLL.png,,,,,0,1,1,1,0,8,8,20,,,,,,,,,,,,,,,,,,,,,,,,,,,,,,,,,,,,,,,,,,,,,,,,,,,,,,,,,,,,,,,,274.09380110003985,274.49548269994557,274.47740740003064,274.57766249985434,274.9794125999324,None,left,1,0.37824740004725754,274.9794125999324,None,274.47740740003064,274.57766249985434,274.57766249985434,None,275.3787503000349,None,,,,,,,11046,001,2024_Apr_15_1349,ANT,2021.2.3,59.867907474622314,
1,17,spatial,up,C,L,,,,,,Block.xlsx,"你已经完成了整个实验（三个区组）。

请报告实验者已完成实验

非常感谢，再见！",1.5,0,1.5,left,LLLLL.png,,,,,0,1,1,1,0,9,9,16,,,,,,,,,,,,,,,,,,,,,,,,,,,,,,,,,,,,,,,,,,,,,,,,,,,,,,,,,,,,,,,,275.7794866999611,276.1808271999471,276.1640427999664,276.26576379989274,276.66421699989587,None,left,1,0.35846889996901155,276.66421699989587,None,276.1640427999664,276.26576379989274,276.26576379989274,None,277.04823699989356,None,,,,,,,11046,001,2024_Apr_15_1349,ANT,2021.2.3,59.867907474622314,
1,19,spatial,up,IC,L,,,,,,Block.xlsx,"你已经完成了整个实验（三个区组）。

请报告实验者已完成实验

非常感谢，再见！",1.5,0,1.5,left,RRLRR.png,,,,,0,1,1,1,0,10,10,18,,,,,,,,,,,,,,,,,,,,,,,,,,,,,,,,,,,,,,,,,,,,,,,,,,,,,,,,,,,,,,,,277.44859889987856,277.8491838998161,277.8326987999026,277.9336860999465,278.33380259992555,None,left,1,0.4640608998015523,278.33380259992555,None,277.8326987999026,277.9336860999465,277.9336860999465,None,278.81759210000746,None,,,,,,,11046,001,2024_Apr_15_1349,ANT,2021.2.3,59.867907474622314,
1,5,no,down,C,L,,,,,,Block.xlsx,"你已经完成了整个实验（三个区组）。

请报告实验者已完成实验

非常感谢，再见！",50,0,-1.5,left,LLLLL.png,,,,,0,1,1,1,0,11,11,4,,,,,,,,,,,,,,,,,,,,,,,,,,,,,,,,,,,,,,,,,,,,,,,,,,,,,,,,,,,,,,,,279.2179419999011,279.618602699833,279.6020731998142,279.7023924998939,280.10252980003133,None,left,1,0.464202499948442,280.10252980003133,None,279.6020731998142,279.7023924998939,279.7023924998939,None,280.58680699998513,None,,,,,,,11046,001,2024_Apr_15_1349,ANT,2021.2.3,59.867907474622314,
1,14,center,down,C,R,,,,,,Block.xlsx,"你已经完成了整个实验（三个区组）。

请报告实验者已完成实验

非常感谢，再见！",0,50,-1.5,right,RRRRR.png,,,,,0,1,1,1,0,12,12,13,,,,,,,,,,,,,,,,,,,,,,,,,,,,,,,,,,,,,,,,,,,,,,,,,,,,,,,,,,,,,,,,280.98784650000744,281.3889874999877,281.3717924999073,281.47163279983215,281.8720654998906,None,right,1,0.45378419989719987,281.8720654998906,None,281.3717924999073,281.47163279983215,281.47163279983215,None,282.3562902000267,None,,,,,,,11046,001,2024_Apr_15_1349,ANT,2021.2.3,59.867907474622314,
1,1,no,up,C,L,,,,,,Block.xlsx,"你已经完成了整个实验（三个区组）。

请报告实验者已完成实验

非常感谢，再见！",50,0,1.5,left,LLLLL.png,,,,,0,1,1,1,0,13,13,0,,,,,,,,,,,,,,,,,,,,,,,,,,,,,,,,,,,,,,,,,,,,,,,,,,,,,,,,,,,,,,,,282.7566276998259,283.1578941999469,283.14056099997833,283.24071729998104,283.6420525999274,None,left,1,0.4437845000065863,283.6420525999274,None,283.14056099997833,283.24071729998104,283.24071729998104,None,284.1091171000153,None,,,,,,,11046,001,2024_Apr_15_1349,ANT,2021.2.3,59.867907474622314,
1,11,center,up,IC,L,,,,,,Block.xlsx,"你已经完成了整个实验（三个区组）。

请报告实验者已完成实验

非常感谢，再见！",0,50,1.5,left,RRLRR.png,,,,,0,1,1,1,0,14,14,10,,,,,,,,,,,,,,,,,,,,,,,,,,,,,,,,,,,,,,,,,,,,,,,,,,,,,,,,,,,,,,,,284.5092030998785,284.90973019995727,284.89475360000506,285.0110161998309,285.3943602000363,None,left,1,0.4120344000402838,285.3943602000363,None,284.89475360000506,285.0110161998309,284.99423930002376,None,285.82840169989504,None,,,,,,,11046,001,2024_Apr_15_1349,ANT,2021.2.3,59.867907474622314,
1,19,spatial,up,IC,L,,,,,,Block.xlsx,"你已经完成了整个实验（三个区组）。

请报告实验者已完成实验

非常感谢，再见！",1.5,0,1.5,left,RRLRR.png,,,,,0,1,1,1,0,15,15,18,,,,,,,,,,,,,,,,,,,,,,,,,,,,,,,,,,,,,,,,,,,,,,,,,,,,,,,,,,,,,,,,286.228805199964,286.6302514998242,286.6124930998776,286.7137932998594,287.11438539996743,None,left,1,0.4196800999343395,287.11438539996743,None,286.6124930998776,286.7137932998594,286.7137932998594,None,287.563976299949,None,,,,,,,11046,001,2024_Apr_15_1349,ANT,2021.2.3,59.867907474622314,
1,11,center,up,IC,L,,,,,,Block.xlsx,"你已经完成了整个实验（三个区组）。

请报告实验者已完成实验

非常感谢，再见！",0,50,1.5,left,RRLRR.png,,,,,0,1,1,1,0,16,16,10,,,,,,,,,,,,,,,,,,,,,,,,,,,,,,,,,,,,,,,,,,,,,,,,,,,,,,,,,,,,,,,,287.9644201998599,288.3651276999153,288.34986629989,288.46534909983166,288.8491932998877,None,left,1,0.41319440002553165,288.8491932998877,None,288.34986629989,288.46534909983166,288.4487500998657,None,289.28311560000293,None,,,,,,,11046,001,2024_Apr_15_1349,ANT,2021.2.3,59.867907474622314,
1,3,no,up,IC,L,,,,,,Block.xlsx,"你已经完成了整个实验（三个区组）。

请报告实验者已完成实验

非常感谢，再见！",50,0,1.5,left,RRLRR.png,,,,,0,1,1,1,0,17,17,2,,,,,,,,,,,,,,,,,,,,,,,,,,,,,,,,,,,,,,,,,,,,,,,,,,,,,,,,,,,,,,,,289.6837475998327,290.0843707998283,290.0677618999034,290.16883410001174,290.56832759990357,None,left,1,0.4381214000750333,290.56832759990357,None,290.0677618999034,290.16883410001174,290.16883410001174,None,291.03579570003785,None,,,,,,,11046,001,2024_Apr_15_1349,ANT,2021.2.3,59.867907474622314,
1,8,no,down,IC,R,,,,,,Block.xlsx,"你已经完成了整个实验（三个区组）。

请报告实验者已完成实验

非常感谢，再见！",50,0,-1.5,right,LLRLL.png,,,,,0,1,1,1,0,18,18,7,,,,,,,,,,,,,,,,,,,,,,,,,,,,,,,,,,,,,,,,,,,,,,,,,,,,,,,,,,,,,,,,291.4363822999876,291.8380911999848,291.8202608998399,291.9206989000086,292.32118549989536,None,left,0,0.5172348998021334,292.32118549989536,None,291.8202608998399,291.9206989000086,291.9206989000086,None,292.8552702998277,None,,,,,,,11046,001,2024_Apr_15_1349,ANT,2021.2.3,59.867907474622314,
1,12,center,up,IC,R,,,,,,Block.xlsx,"你已经完成了整个实验（三个区组）。

请报告实验者已完成实验

非常感谢，再见！",0,50,1.5,right,LLRLL.png,,,,,0,1,1,1,0,19,19,11,,,,,,,,,,,,,,,,,,,,,,,,,,,,,,,,,,,,,,,,,,,,,,,,,,,,,,,,,,,,,,,,293.2556773000397,293.65731989988126,293.6398199000396,293.7399253998883,294.1408934998326,None,right,1,0.5536508001387119,294.1408934998326,None,293.6398199000396,293.7399253998883,293.7399253998883,None,294.72477039997466,None,,,,,,,11046,001,2024_Apr_15_1349,ANT,2021.2.3,59.867907474622314,
1,7,no,down,IC,L,,,,,,Block.xlsx,"你已经完成了整个实验（三个区组）。

请报告实验者已完成实验

非常感谢，再见！",50,0,-1.5,left,RRLRR.png,,,,,0,1,1,1,0,20,20,6,,,,,,,,,,,,,,,,,,,,,,,,,,,,,,,,,,,,,,,,,,,,,,,,,,,,,,,,,,,,,,,,295.1252331000287,295.52582179987803,295.5092255999334,295.6093860999681,296.0099863000214,None,left,1,0.6042985999956727,296.0099863000214,None,295.5092255999334,295.6093860999681,295.6093860999681,None,296.6443302000407,None,,,,,,,11046,001,2024_Apr_15_1349,ANT,2021.2.3,59.867907474622314,
1,7,no,down,IC,L,,,,,,Block.xlsx,"你已经完成了整个实验（三个区组）。

请报告实验者已完成实验

非常感谢，再见！",50,0,-1.5,left,RRLRR.png,,,,,0,1,1,1,0,21,21,6,,,,,,,,,,,,,,,,,,,,,,,,,,,,,,,,,,,,,,,,,,,,,,,,,,,,,,,,,,,,,,,,297.0448824998457,297.4479737000074,297.42886330001056,297.52915599988773,297.92952539981343,None,left,1,0.4852589999791235,297.92952539981343,None,297.42886330001056,297.52915599988773,297.52915599988773,None,298.4301562998444,None,,,,,,,11046,001,2024_Apr_15_1349,ANT,2021.2.3,59.867907474622314,
1,5,no,down,C,L,,,,,,Block.xlsx,"你已经完成了整个实验（三个区组）。

请报告实验者已完成实验

非常感谢，再见！",50,0,-1.5,left,LLLLL.png,,,,,0,1,1,1,0,22,22,4,,,,,,,,,,,,,,,,,,,,,,,,,,,,,,,,,,,,,,,,,,,,,,,,,,,,,,,,,,,,,,,,298.83079699985683,299.2314670998603,299.2161967998836,299.3154074999038,299.71579799987376,None,left,1,0.41875119996257126,299.71579799987376,None,299.2161967998836,299.3154074999038,299.3154074999038,None,300.1662788998801,None,,,,,,,11046,001,2024_Apr_15_1349,ANT,2021.2.3,59.867907474622314,
1,23,spatial,down,IC,L,,,,,,Block.xlsx,"你已经完成了整个实验（三个区组）。

请报告实验者已完成实验

非常感谢，再见！",-1.5,0,-1.5,left,RRLRR.png,,,,,0,1,1,1,0,23,23,22,,,,,,,,,,,,,,,,,,,,,,,,,,,,,,,,,,,,,,,,,,,,,,,,,,,,,,,,,,,,,,,,300.5669237000402,300.9689219999127,300.9508732999675,301.05102429981343,301.4516622000374,None,left,1,0.5230624999385327,301.4516622000374,None,300.9508732999675,301.05102429981343,301.05102429981343,None,302.0023109000176,None,,,,,,,11046,001,2024_Apr_15_1349,ANT,2021.2.3,59.867907474622314,
1,13,center,down,C,L,,,,,,Block.xlsx,"你已经完成了整个实验（三个区组）。

请报告实验者已完成实验

非常感谢，再见！",0,50,-1.5,left,LLLLL.png,,,,,0,1,1,1,1,0,24,12,,,,,,,,,,,,,,,,,,,,,,,,,,,,,,,,,,,,,,,,,,,,,,,,,,,,,,,,,,,,,,,,302.40307349991053,302.8040900998749,302.7869219998829,302.887032300001,303.28897570003755,None,left,1,0.41391379991546273,303.28897570003755,None,302.7869219998829,302.887032300001,302.887032300001,None,303.7216860000044,None,,,,,,,11046,001,2024_Apr_15_1349,ANT,2021.2.3,59.867907474622314,
1,24,spatial,down,IC,R,,,,,,Block.xlsx,"你已经完成了整个实验（三个区组）。

请报告实验者已完成实验

非常感谢，再见！",-1.5,0,-1.5,right,LLRLL.png,,,,,0,1,1,1,1,1,25,23,,,,,,,,,,,,,,,,,,,,,,,,,,,,,,,,,,,,,,,,,,,,,,,,,,,,,,,,,,,,,,,,304.1221686999779,304.52396589983255,304.50723330001347,304.60682590003125,305.006968599977,None,right,1,0.47149090003222227,305.006968599977,None,304.50723330001347,304.60682590003125,304.60682590003125,None,305.5077698000241,None,,,,,,,11046,001,2024_Apr_15_1349,ANT,2021.2.3,59.867907474622314,
1,22,spatial,down,C,R,,,,,,Block.xlsx,"你已经完成了整个实验（三个区组）。

请报告实验者已完成实验

非常感谢，再见！",-1.5,0,-1.5,right,RRRRR.png,,,,,0,1,1,1,1,2,26,21,,,,,,,,,,,,,,,,,,,,,,,,,,,,,,,,,,,,,,,,,,,,,,,,,,,,,,,,,,,,,,,,305.9083101998549,306.309348099865,306.29207309987396,306.39267580001615,306.7938141999766,None,right,1,0.46866319980472326,306.7938141999766,None,306.29207309987396,306.39267580001615,306.39267580001615,None,307.29388040001504,None,,,,,,,11046,001,2024_Apr_15_1349,ANT,2021.2.3,59.867907474622314,
1,22,spatial,down,C,R,,,,,,Block.xlsx,"你已经完成了整个实验（三个区组）。

请报告实验者已完成实验

非常感谢，再见！",-1.5,0,-1.5,right,RRRRR.png,,,,,0,1,1,1,1,3,27,21,,,,,,,,,,,,,,,,,,,,,,,,,,,,,,,,,,,,,,,,,,,,,,,,,,,,,,,,,,,,,,,,307.6942898000125,308.0960541998502,308.0782198999077,308.178293999983,308.5789331998676,None,right,1,0.41175720002502203,308.5789331998676,None,308.0782198999077,308.178293999983,308.178293999983,None,309.0130000000354,None,,,,,,,11046,001,2024_Apr_15_1349,ANT,2021.2.3,59.867907474622314,
1,18,spatial,up,C,R,,,,,,Block.xlsx,"你已经完成了整个实验（三个区组）。

请报告实验者已完成实验

非常感谢，再见！",1.5,0,1.5,right,RRRRR.png,,,,,0,1,1,1,1,4,28,17,,,,,,,,,,,,,,,,,,,,,,,,,,,,,,,,,,,,,,,,,,,,,,,,,,,,,,,,,,,,,,,,309.4133442998864,309.8153720998671,309.79875089996494,309.89929479989223,310.29829339985736,None,right,1,0.4204267000313848,310.29829339985736,None,309.79875089996494,309.89929479989223,309.89929479989223,None,310.74889789987355,None,,,,,,,11046,001,2024_Apr_15_1349,ANT,2021.2.3,59.867907474622314,
1,16,center,down,IC,R,,,,,,Block.xlsx,"你已经完成了整个实验（三个区组）。

请报告实验者已完成实验

非常感谢，再见！",0,50,-1.5,right,LLRLL.png,,,,,0,1,1,1,1,5,29,15,,,,,,,,,,,,,,,,,,,,,,,,,,,,,,,,,,,,,,,,,,,,,,,,,,,,,,,,,,,,,,,,311.1493956998456,311.5502001999412,311.5333962000441,311.6333140998613,312.03549989988096,None,right,1,0.5234427000395954,312.03549989988096,None,311.5333962000441,311.6333140998613,311.6333140998613,None,312.58498709998094,None,,,,,,,11046,001,2024_Apr_15_1349,ANT,2021.2.3,59.867907474622314,
1,21,spatial,down,C,L,,,,,,Block.xlsx,"你已经完成了整个实验（三个区组）。

请报告实验者已完成实验

非常感谢，再见！",-1.5,0,-1.5,left,LLLLL.png,,,,,0,1,1,1,1,6,30,20,,,,,,,,,,,,,,,,,,,,,,,,,,,,,,,,,,,,,,,,,,,,,,,,,,,,,,,,,,,,,,,,312.98595899995416,313.38622929994017,313.3697777998168,313.4699539998546,313.8708160999231,None,left,1,0.44838810013607144,313.8708160999231,None,313.3697777998168,313.4699539998546,313.4699539998546,None,314.3376750999596,None,,,,,,,11046,001,2024_Apr_15_1349,ANT,2021.2.3,59.867907474622314,
1,8,no,down,IC,R,,,,,,Block.xlsx,"你已经完成了整个实验（三个区组）。

请报告实验者已完成实验

非常感谢，再见！",50,0,-1.5,right,LLRLL.png,,,,,0,1,1,1,1,7,31,7,,,,,,,,,,,,,,,,,,,,,,,,,,,,,,,,,,,,,,,,,,,,,,,,,,,,,,,,,,,,,,,,314.738167299889,315.1400960998144,315.1221139000263,315.22342479997315,315.62302419985645,None,right,1,0.5758259000722319,315.62302419985645,None,315.1221139000263,315.22342479997315,315.22342479997315,None,316.2238608999178,None,,,,,,,11046,001,2024_Apr_15_1349,ANT,2021.2.3,59.867907474622314,
1,15,center,down,IC,L,,,,,,Block.xlsx,"你已经完成了整个实验（三个区组）。

请报告实验者已完成实验

非常感谢，再见！",0,50,-1.5,left,RRLRR.png,,,,,0,1,1,1,1,8,32,14,,,,,,,,,,,,,,,,,,,,,,,,,,,,,,,,,,,,,,,,,,,,,,,,,,,,,,,,,,,,,,,,316.6245176999364,317.0250880999956,317.00993129983544,317.10938279982656,317.5096278998535,None,left,1,0.5373323999810964,317.5096278998535,None,317.00993129983544,317.10938279982656,317.10938279982656,None,318.0766788998153,None,,,,,,,11046,001,2024_Apr_15_1349,ANT,2021.2.3,59.867907474622314,
1,6,no,down,C,R,,,,,,Block.xlsx,"你已经完成了整个实验（三个区组）。

请报告实验者已完成实验

非常感谢，再见！",50,0,-1.5,right,RRRRR.png,,,,,0,1,1,1,1,9,33,5,,,,,,,,,,,,,,,,,,,,,,,,,,,,,,,,,,,,,,,,,,,,,,,,,,,,,,,,,,,,,,,,318.4773253998719,318.8779056998901,318.8616467998363,318.9611943999771,319.36346809985116,None,right,1,0.4677984998561442,319.36346809985116,None,318.8616467998363,318.9611943999771,318.9611943999771,None,319.8626102998387,None,,,,,,,11046,001,2024_Apr_15_1349,ANT,2021.2.3,59.867907474622314,
1,24,spatial,down,IC,R,,,,,,Block.xlsx,"你已经完成了整个实验（三个区组）。

请报告实验者已完成实验

非常感谢，再见！",-1.5,0,-1.5,right,LLRLL.png,,,,,0,1,1,1,1,10,34,23,,,,,,,,,,,,,,,,,,,,,,,,,,,,,,,,,,,,,,,,,,,,,,,,,,,,,,,,,,,,,,,,320.263176899869,320.6638619999867,320.6472330999095,320.7480542999692,321.14793340000324,None,right,1,0.5239921999163926,321.14793340000324,None,320.6472330999095,320.7480542999692,320.7480542999692,None,321.69879219983704,None,,,,,,,11046,001,2024_Apr_15_1349,ANT,2021.2.3,59.867907474622314,
1,15,center,down,IC,L,,,,,,Block.xlsx,"你已经完成了整个实验（三个区组）。

请报告实验者已完成实验

非常感谢，再见！",0,50,-1.5,left,RRLRR.png,,,,,0,1,1,1,1,11,35,14,,,,,,,,,,,,,,,,,,,,,,,,,,,,,,,,,,,,,,,,,,,,,,,,,,,,,,,,,,,,,,,,322.09947879984975,322.50143549987115,322.48308609984815,322.58519020001404,322.98519059992395,None,left,1,0.5261756000109017,322.98519059992395,None,322.48308609984815,322.58519020001404,322.58519020001404,None,323.53506299993023,None,,,,,,,11046,001,2024_Apr_15_1349,ANT,2021.2.3,59.867907474622314,
1,6,no,down,C,R,,,,,,Block.xlsx,"你已经完成了整个实验（三个区组）。

请报告实验者已完成实验

非常感谢，再见！",50,0,-1.5,right,RRRRR.png,,,,,0,1,1,1,1,12,36,5,,,,,,,,,,,,,,,,,,,,,,,,,,,,,,,,,,,,,,,,,,,,,,,,,,,,,,,,,,,,,,,,323.9353997998405,324.3364426000044,324.31921750004403,324.4200685999822,324.82142960000783,None,right,1,0.39397060009650886,324.82142960000783,None,324.31921750004403,324.4200685999822,324.4200685999822,None,325.23746099998243,None,,,,,,,11046,001,2024_Apr_15_1349,ANT,2021.2.3,59.867907474622314,
1,1,no,up,C,L,,,,,,Block.xlsx,"你已经完成了整个实验（三个区组）。

请报告实验者已完成实验

非常感谢，再见！",50,0,1.5,left,LLLLL.png,,,,,0,1,1,1,1,13,37,0,,,,,,,,,,,,,,,,,,,,,,,,,,,,,,,,,,,,,,,,,,,,,,,,,,,,,,,,,,,,,,,,325.63803469995037,326.0393713999074,326.0218801998999,326.12217219988815,326.52292170003057,None,left,1,0.5489814998582006,326.52292170003057,None,326.0218801998999,326.12217219988815,326.12217219988815,None,327.0902372999117,None,,,,,,,11046,001,2024_Apr_15_1349,ANT,2021.2.3,59.867907474622314,
1,18,spatial,up,C,R,,,,,,Block.xlsx,"你已经完成了整个实验（三个区组）。

请报告实验者已完成实验

非常感谢，再见！",1.5,0,1.5,right,RRRRR.png,,,,,0,1,1,1,1,14,38,17,,,,,,,,,,,,,,,,,,,,,,,,,,,,,,,,,,,,,,,,,,,,,,,,,,,,,,,,,,,,,,,,327.4910450000316,327.89211589982733,327.8747502998449,327.97608319995925,328.37691099988297,None,right,1,0.4225852999370545,328.37691099988297,None,327.8747502998449,327.97608319995925,327.97608319995925,None,328.826293699909,None,,,,,,,11046,001,2024_Apr_15_1349,ANT,2021.2.3,59.867907474622314,
1,16,center,down,IC,R,,,,,,Block.xlsx,"你已经完成了整个实验（三个区组）。

请报告实验者已完成实验

非常感谢，再见！",0,50,-1.5,right,LLRLL.png,,,,,0,1,1,1,1,15,39,15,,,,,,,,,,,,,,,,,,,,,,,,,,,,,,,,,,,,,,,,,,,,,,,,,,,,,,,,,,,,,,,,329.22682260000147,329.6287618998904,329.61066579981707,329.7117794000078,330.11183399986476,None,right,1,0.6555386998225003,330.11183399986476,None,329.61066579981707,329.7117794000078,329.7117794000078,None,330.7958330998663,None,,,,,,,11046,001,2024_Apr_15_1349,ANT,2021.2.3,59.867907474622314,
1,14,center,down,C,R,,,,,,Block.xlsx,"你已经完成了整个实验（三个区组）。

请报告实验者已完成实验

非常感谢，再见！",0,50,-1.5,right,RRRRR.png,,,,,0,1,1,1,1,16,40,13,,,,,,,,,,,,,,,,,,,,,,,,,,,,,,,,,,,,,,,,,,,,,,,,,,,,,,,,,,,,,,,,331.19646469992585,331.5974450998474,331.5816299999133,331.6804851000197,332.0813074999023,None,right,1,0.43045310000889003,332.0813074999023,None,331.5816299999133,331.6804851000197,331.6804851000197,None,332.5316661999095,None,,,,,,,11046,001,2024_Apr_15_1349,ANT,2021.2.3,59.867907474622314,
1,13,center,down,C,L,,,,,,Block.xlsx,"你已经完成了整个实验（三个区组）。

请报告实验者已完成实验

非常感谢，再见！",0,50,-1.5,left,LLLLL.png,,,,,0,1,1,1,1,17,41,12,,,,,,,,,,,,,,,,,,,,,,,,,,,,,,,,,,,,,,,,,,,,,,,,,,,,,,,,,,,,,,,,332.9323145998642,333.33426679996774,333.31626409990713,333.4165332999546,333.817563300021,None,left,1,0.4939123000949621,333.817563300021,None,333.31626409990713,333.4165332999546,333.4165332999546,None,334.33451640000567,None,,,,,,,11046,001,2024_Apr_15_1349,ANT,2021.2.3,59.867907474622314,
1,2,no,up,C,R,,,,,,Block.xlsx,"你已经完成了整个实验（三个区组）。

请报告实验者已完成实验

非常感谢，再见！",50,0,1.5,right,RRRRR.png,,,,,0,1,1,1,1,18,42,1,,,,,,,,,,,,,,,,,,,,,,,,,,,,,,,,,,,,,,,,,,,,,,,,,,,,,,,,,,,,,,,,334.7349790998269,335.13747880002484,335.1189011000097,335.22100199991837,335.6198928998783,None,right,1,0.4439844998996705,335.6198928998783,None,335.1189011000097,335.22100199991837,335.22100199991837,None,336.0874550999142,None,,,,,,,11046,001,2024_Apr_15_1349,ANT,2021.2.3,59.867907474622314,
1,16,center,down,IC,R,,,,,,Block.xlsx,"你已经完成了整个实验（三个区组）。

请报告实验者已完成实验

非常感谢，再见！",0,50,-1.5,right,LLRLL.png,,,,,0,1,1,1,1,19,43,15,,,,,,,,,,,,,,,,,,,,,,,,,,,,,,,,,,,,,,,,,,,,,,,,,,,,,,,,,,,,,,,,336.48771469993517,336.88840729999356,336.8717097998597,336.97176319989376,337.3723932998255,None,right,1,0.4351379000581801,337.3723932998255,None,336.8717097998597,336.97176319989376,336.97176319989376,None,337.82313369982876,None,,,,,,,11046,001,2024_Apr_15_1349,ANT,2021.2.3,59.867907474622314,
1,10,center,up,C,R,,,,,,Block.xlsx,"你已经完成了整个实验（三个区组）。

请报告实验者已完成实验

非常感谢，再见！",0,50,1.5,right,RRRRR.png,,,,,0,1,1,1,1,20,44,9,,,,,,,,,,,,,,,,,,,,,,,,,,,,,,,,,,,,,,,,,,,,,,,,,,,,,,,,,,,,,,,,338.2234843999613,338.6243794998154,338.6076235999353,338.70849009999074,339.1082210999448,None,right,1,0.39577839989215136,339.1082210999448,None,338.6076235999353,338.70849009999074,338.70849009999074,None,339.52581629995257,None,,,,,,,11046,001,2024_Apr_15_1349,ANT,2021.2.3,59.867907474622314,
1,22,spatial,down,C,R,,,,,,Block.xlsx,"你已经完成了整个实验（三个区组）。

请报告实验者已完成实验

非常感谢，再见！",-1.5,0,-1.5,right,RRRRR.png,,,,,0,1,1,1,1,21,45,21,,,,,,,,,,,,,,,,,,,,,,,,,,,,,,,,,,,,,,,,,,,,,,,,,,,,,,,,,,,,,,,,339.9262577998452,340.3269372000359,340.31039260001853,340.41130489995703,340.81131949997507,None,right,1,0.3967354998458177,340.81131949997507,None,340.31039260001853,340.41130489995703,340.41130489995703,None,341.22817619983107,None,,,,,,,11046,001,2024_Apr_15_1349,ANT,2021.2.3,59.867907474622314,
1,1,no,up,C,L,,,,,,Block.xlsx,"你已经完成了整个实验（三个区组）。

请报告实验者已完成实验

非常感谢，再见！",50,0,1.5,left,LLLLL.png,,,,,0,1,1,1,1,22,46,0,,,,,,,,,,,,,,,,,,,,,,,,,,,,,,,,,,,,,,,,,,,,,,,,,,,,,,,,,,,,,,,,341.62893579993397,342.0296740999911,342.01284149987623,342.11307849991135,342.5149333998561,None,left,1,0.5410380000248551,342.5149333998561,None,342.01284149987623,342.11307849991135,342.11307849991135,None,343.0815771999769,None,,,,,,,11046,001,2024_Apr_15_1349,ANT,2021.2.3,59.867907474622314,
1,19,spatial,up,IC,L,,,,,,Block.xlsx,"你已经完成了整个实验（三个区组）。

请报告实验者已完成实验

非常感谢，再见！",1.5,0,1.5,left,RRLRR.png,,,,,0,1,1,1,1,23,47,18,,,,,,,,,,,,,,,,,,,,,,,,,,,,,,,,,,,,,,,,,,,,,,,,,,,,,,,,,,,,,,,,343.482066599885,343.88335799984634,343.86635120003484,343.9678352000192,344.3670306999702,None,left,1,0.6491589001379907,344.3670306999702,None,343.86635120003484,343.9678352000192,343.9678352000192,None,345.03407649998553,None,,,,,,,11046,001,2024_Apr_15_1349,ANT,2021.2.3,59.867907474622314,
1,18,spatial,up,C,R,,,,,,Block.xlsx,"你已经完成了整个实验（三个区组）。

请报告实验者已完成实验

非常感谢，再见！",1.5,0,1.5,right,RRRRR.png,,,,,0,1,1,1,2,0,48,17,,,,,,,,,,,,,,,,,,,,,,,,,,,,,,,,,,,,,,,,,,,,,,,,,,,,,,,,,,,,,,,,345.4350945998449,345.83527319994755,345.81849109986797,345.91994709987193,346.32027689996175,None,right,1,0.43191269994713366,346.32027689996175,None,345.81849109986797,345.91994709987193,345.91994709987193,None,346.7699414999224,None,,,,,,,11046,001,2024_Apr_15_1349,ANT,2021.2.3,59.867907474622314,
1,10,center,up,C,R,,,,,,Block.xlsx,"你已经完成了整个实验（三个区组）。

请报告实验者已完成实验

非常感谢，再见！",0,50,1.5,right,RRRRR.png,,,,,0,1,1,1,2,1,49,9,,,,,,,,,,,,,,,,,,,,,,,,,,,,,,,,,,,,,,,,,,,,,,,,,,,,,,,,,,,,,,,,347.1705714999698,347.57247189991176,347.5548092999961,347.6553670000285,348.0551836998202,None,right,1,0.3929008999839425,348.0551836998202,None,347.5548092999961,347.6553670000285,347.6553670000285,None,348.4724569998216,None,,,,,,,11046,001,2024_Apr_15_1349,ANT,2021.2.3,59.867907474622314,
1,5,no,down,C,L,,,,,,Block.xlsx,"你已经完成了整个实验（三个区组）。

请报告实验者已完成实验

非常感谢，再见！",50,0,-1.5,left,LLLLL.png,,,,,0,1,1,1,2,2,50,4,,,,,,,,,,,,,,,,,,,,,,,,,,,,,,,,,,,,,,,,,,,,,,,,,,,,,,,,,,,,,,,,348.8733632999938,349.2749854000285,349.2569796999451,349.3590602998156,349.75835739984177,None,left,1,0.49750429997220635,349.75835739984177,None,349.2569796999451,349.3590602998156,349.3590602998156,None,350.27527139987797,None,,,,,,,11046,001,2024_Apr_15_1349,ANT,2021.2.3,59.867907474622314,
1,8,no,down,IC,R,,,,,,Block.xlsx,"你已经完成了整个实验（三个区组）。

请报告实验者已完成实验

非常感谢，再见！",50,0,-1.5,right,LLRLL.png,,,,,0,1,1,1,2,3,51,7,,,,,,,,,,,,,,,,,,,,,,,,,,,,,,,,,,,,,,,,,,,,,,,,,,,,,,,,,,,,,,,,350.676211199956,351.0774935998488,351.05989659996703,351.16053819982335,351.560568299843,None,right,1,0.5916454000398517,351.560568299843,None,351.05989659996703,351.16053819982335,351.16053819982335,None,352.177976799896,None,,,,,,,11046,001,2024_Apr_15_1349,ANT,2021.2.3,59.867907474622314,
1,20,spatial,up,IC,R,,,,,,Block.xlsx,"你已经完成了整个实验（三个区组）。

请报告实验者已完成实验

非常感谢，再见！",1.5,0,1.5,right,LLRLL.png,,,,,0,1,1,1,2,4,52,19,,,,,,,,,,,,,,,,,,,,,,,,,,,,,,,,,,,,,,,,,,,,,,,,,,,,,,,,,,,,,,,,352.5786252999678,352.9809993999079,352.96306589990854,353.06455489993095,353.46332439989783,None,right,1,0.44089379999786615,353.46332439989783,None,352.96306589990854,353.06455489993095,353.06455489993095,None,353.93089019996114,None,,,,,,,11046,001,2024_Apr_15_1349,ANT,2021.2.3,59.867907474622314,
1,23,spatial,down,IC,L,,,,,,Block.xlsx,"你已经完成了整个实验（三个区组）。

请报告实验者已完成实验

非常感谢，再见！",-1.5,0,-1.5,left,RRLRR.png,,,,,0,1,1,1,2,5,53,22,,,,,,,,,,,,,,,,,,,,,,,,,,,,,,,,,,,,,,,,,,,,,,,,,,,,,,,,,,,,,,,,354.33123839995824,354.7334606000222,354.71521379984915,354.815832399996,355.21599569986574,None,left,1,0.4880655000451952,355.21599569986574,None,354.71521379984915,354.815832399996,354.815832399996,None,355.73344159987755,None,,,,,,,11046,001,2024_Apr_15_1349,ANT,2021.2.3,59.867907474622314,
1,17,spatial,up,C,L,,,,,,Block.xlsx,"你已经完成了整个实验（三个区组）。

请报告实验者已完成实验

非常感谢，再见！",1.5,0,1.5,left,LLLLL.png,,,,,0,1,1,1,2,6,54,16,,,,,,,,,,,,,,,,,,,,,,,,,,,,,,,,,,,,,,,,,,,,,,,,,,,,,,,,,,,,,,,,356.1342405998148,356.53494209982455,356.5199712999165,356.63531289994717,357.01886689988896,None,left,1,0.4215105001349002,357.01886689988896,None,356.5199712999165,356.63531289994717,356.61808669986203,None,357.4691802000161,None,,,,,,,11046,001,2024_Apr_15_1349,ANT,2021.2.3,59.867907474622314,
1,20,spatial,up,IC,R,,,,,,Block.xlsx,"你已经完成了整个实验（三个区组）。

请报告实验者已完成实验

非常感谢，再见！",1.5,0,1.5,right,LLRLL.png,,,,,0,1,1,1,2,7,55,19,,,,,,,,,,,,,,,,,,,,,,,,,,,,,,,,,,,,,,,,,,,,,,,,,,,,,,,,,,,,,,,,357.8699147000443,358.2706793998368,358.2551661999896,358.3710721998941,358.7552993998397,None,right,1,0.5091024001594633,358.7552993998397,None,358.2551661999896,358.3710721998941,358.3541941998992,None,359.28890139982104,None,,,,,,,11046,001,2024_Apr_15_1349,ANT,2021.2.3,59.867907474622314,
1,9,center,up,C,L,,,,,,Block.xlsx,"你已经完成了整个实验（三个区组）。

请报告实验者已完成实验

非常感谢，再见！",0,50,1.5,left,LLLLL.png,,,,,0,1,1,1,2,8,56,8,,,,,,,,,,,,,,,,,,,,,,,,,,,,,,,,,,,,,,,,,,,,,,,,,,,,,,,,,,,,,,,,359.6893495998811,360.0899342999328,360.07455320004374,360.1750384999905,360.5751412999816,None,left,1,0.4895071000792086,360.5751412999816,None,360.07455320004374,360.1750384999905,360.1750384999905,None,361.09162029996514,None,,,,,,,11046,001,2024_Apr_15_1349,ANT,2021.2.3,59.867907474622314,
1,2,no,up,C,R,,,,,,Block.xlsx,"你已经完成了整个实验（三个区组）。

请报告实验者已完成实验

非常感谢，再见！",50,0,1.5,right,RRRRR.png,,,,,0,1,1,1,2,9,57,1,,,,,,,,,,,,,,,,,,,,,,,,,,,,,,,,,,,,,,,,,,,,,,,,,,,,,,,,,,,,,,,,361.4924683000427,361.8927805998828,361.8764355999883,361.9770201998763,362.3792627998628,None,right,1,0.58906070003286,362.3792627998628,None,361.8764355999883,361.9770201998763,361.9770201998763,None,362.9944042998832,None,,,,,,,11046,001,2024_Apr_15_1349,ANT,2021.2.3,59.867907474622314,
1,10,center,up,C,R,,,,,,Block.xlsx,"你已经完成了整个实验（三个区组）。

请报告实验者已完成实验

非常感谢，再见！",0,50,1.5,right,RRRRR.png,,,,,0,1,1,1,2,10,58,9,,,,,,,,,,,,,,,,,,,,,,,,,,,,,,,,,,,,,,,,,,,,,,,,,,,,,,,,,,,,,,,,363.3951577998232,363.7960812000092,363.7795340998564,363.8794121998362,364.2796105998568,None,right,1,0.5291202999651432,364.2796105998568,None,363.7795340998564,363.8794121998362,363.8794121998362,None,364.8304415999446,None,,,,,,,11046,001,2024_Apr_15_1349,ANT,2021.2.3,59.867907474622314,
1,2,no,up,C,R,,,,,,Block.xlsx,"你已经完成了整个实验（三个区组）。

请报告实验者已完成实验

非常感谢，再见！",50,0,1.5,right,RRRRR.png,,,,,0,1,1,1,2,11,59,1,,,,,,,,,,,,,,,,,,,,,,,,,,,,,,,,,,,,,,,,,,,,,,,,,,,,,,,,,,,,,,,,365.2310017000418,365.63292229990475,365.61521039996296,365.71569769992493,366.11563239991665,None,right,1,0.412995700025931,366.11563239991665,None,365.61521039996296,365.71569769992493,365.71569769992493,None,366.5502702998929,None,,,,,,,11046,001,2024_Apr_15_1349,ANT,2021.2.3,59.867907474622314,
1,16,center,down,IC,R,,,,,,Block.xlsx,"你已经完成了整个实验（三个区组）。

请报告实验者已完成实验

非常感谢，再见！",0,50,-1.5,right,LLRLL.png,,,,,0,1,1,1,2,12,60,15,,,,,,,,,,,,,,,,,,,,,,,,,,,,,,,,,,,,,,,,,,,,,,,,,,,,,,,,,,,,,,,,366.9504766999744,367.3518604999408,367.33441909984685,367.4343983998988,367.83505559992045,None,right,1,0.6776312000583857,367.83505559992045,None,367.33441909984685,367.4343983998988,367.4343983998988,None,368.5360475999769,None,,,,,,,11046,001,2024_Apr_15_1349,ANT,2021.2.3,59.867907474622314,
1,21,spatial,down,C,L,,,,,,Block.xlsx,"你已经完成了整个实验（三个区组）。

请报告实验者已完成实验

非常感谢，再见！",-1.5,0,-1.5,left,LLLLL.png,,,,,0,1,1,1,2,13,61,20,,,,,,,,,,,,,,,,,,,,,,,,,,,,,,,,,,,,,,,,,,,,,,,,,,,,,,,,,,,,,,,,368.9368569999933,369.33751169987954,369.3208114998415,369.4209694999736,369.82241699984297,None,left,1,0.490201500011608,369.82241699984297,None,369.3208114998415,369.4209694999736,369.4209694999736,None,370.3387706000358,None,,,,,,,11046,001,2024_Apr_15_1349,ANT,2021.2.3,59.867907474622314,
1,11,center,up,IC,L,,,,,,Block.xlsx,"你已经完成了整个实验（三个区组）。

请报告实验者已完成实验

非常感谢，再见！",0,50,1.5,left,RRLRR.png,,,,,0,1,1,1,2,14,62,10,,,,,,,,,,,,,,,,,,,,,,,,,,,,,,,,,,,,,,,,,,,,,,,,,,,,,,,,,,,,,,,,370.73943790001795,371.1401488999836,371.12343449983746,371.22450340003707,371.6253166999668,None,left,1,0.6954697000328451,371.6253166999668,None,371.12343449983746,371.22450340003707,371.22450340003707,None,372.3417797998991,None,,,,,,,11046,001,2024_Apr_15_1349,ANT,2021.2.3,59.867907474622314,
1,17,spatial,up,C,L,,,,,,Block.xlsx,"你已经完成了整个实验（三个区组）。

请报告实验者已完成实验

非常感谢，再见！",1.5,0,1.5,left,LLLLL.png,,,,,0,1,1,1,2,15,63,16,,,,,,,,,,,,,,,,,,,,,,,,,,,,,,,,,,,,,,,,,,,,,,,,,,,,,,,,,,,,,,,,372.74262769985944,373.1442183998879,373.126389299985,373.22770749987103,373.6273209999781,None,left,1,0.49353610002435744,373.6273209999781,None,373.126389299985,373.22770749987103,373.22770749987103,None,374.14471319993027,None,,,,,,,11046,001,2024_Apr_15_1349,ANT,2021.2.3,59.867907474622314,
1,15,center,down,IC,L,,,,,,Block.xlsx,"你已经完成了整个实验（三个区组）。

请报告实验者已完成实验

非常感谢，再见！",0,50,-1.5,left,RRLRR.png,,,,,0,1,1,1,2,16,64,14,,,,,,,,,,,,,,,,,,,,,,,,,,,,,,,,,,,,,,,,,,,,,,,,,,,,,,,,,,,,,,,,374.54515559994616,374.94656670000404,374.92896189983,375.0293753000442,375.43067799997516,None,left,1,0.6109242998063564,375.43067799997516,None,374.92896189983,375.0293753000442,375.0293753000442,None,376.0640259999782,None,,,,,,,11046,001,2024_Apr_15_1349,ANT,2021.2.3,59.867907474622314,
1,9,center,up,C,L,,,,,,Block.xlsx,"你已经完成了整个实验（三个区组）。

请报告实验者已完成实验

非常感谢，再见！",0,50,1.5,left,LLLLL.png,,,,,0,1,1,1,2,17,65,8,,,,,,,,,,,,,,,,,,,,,,,,,,,,,,,,,,,,,,,,,,,,,,,,,,,,,,,,,,,,,,,,376.4648640998639,376.8663198999129,376.8486935000401,376.94923979998566,377.34954329999164,None,left,1,0.47548969998024404,377.34954329999164,None,376.8486935000401,376.94923979998566,376.94923979998566,None,377.8504266999662,None,,,,,,,11046,001,2024_Apr_15_1349,ANT,2021.2.3,59.867907474622314,
1,3,no,up,IC,L,,,,,,Block.xlsx,"你已经完成了整个实验（三个区组）。

请报告实验者已完成实验

非常感谢，再见！",50,0,1.5,left,RRLRR.png,,,,,0,1,1,1,2,18,66,2,,,,,,,,,,,,,,,,,,,,,,,,,,,,,,,,,,,,,,,,,,,,,,,,,,,,,,,,,,,,,,,,378.2508803999517,378.65290310001,378.6346447998658,378.7352141998708,379.1354540998582,None,left,1,0.5775558999739587,379.1354540998582,None,378.6346447998658,378.7352141998708,378.7352141998708,None,379.73627729993314,None,,,,,,,11046,001,2024_Apr_15_1349,ANT,2021.2.3,59.867907474622314,
1,15,center,down,IC,L,,,,,,Block.xlsx,"你已经完成了整个实验（三个区组）。

请报告实验者已完成实验

非常感谢，再见！",0,50,-1.5,left,RRLRR.png,,,,,0,1,1,1,2,19,67,14,,,,,,,,,,,,,,,,,,,,,,,,,,,,,,,,,,,,,,,,,,,,,,,,,,,,,,,,,,,,,,,,380.1371724999044,380.5384893999435,380.5208723000251,380.6219823998399,381.0217541998718,None,left,1,0.5954973001498729,381.0217541998718,None,380.5208723000251,380.6219823998399,380.6219823998399,None,381.6393458999228,None,,,,,,,11046,001,2024_Apr_15_1349,ANT,2021.2.3,59.867907474622314,
1,6,no,down,C,R,,,,,,Block.xlsx,"你已经完成了整个实验（三个区组）。

请报告实验者已完成实验

非常感谢，再见！",50,0,-1.5,right,RRRRR.png,,,,,0,1,1,1,2,20,68,5,,,,,,,,,,,,,,,,,,,,,,,,,,,,,,,,,,,,,,,,,,,,,,,,,,,,,,,,,,,,,,,,382.03967399988323,382.4403089999687,382.4249346998986,382.5253735999577,382.92466859985143,None,right,1,0.7963318999391049,382.92466859985143,None,382.4249346998986,382.5253735999577,382.5253735999577,None,383.74226029985584,None,,,,,,,11046,001,2024_Apr_15_1349,ANT,2021.2.3,59.867907474622314,
1,6,no,down,C,R,,,,,,Block.xlsx,"你已经完成了整个实验（三个区组）。

请报告实验者已完成实验

非常感谢，再见！",50,0,-1.5,right,RRRRR.png,,,,,0,1,1,1,2,21,69,5,,,,,,,,,,,,,,,,,,,,,,,,,,,,,,,,,,,,,,,,,,,,,,,,,,,,,,,,,,,,,,,,384.14305429998785,384.54600939992815,384.5269072998781,384.6283595999703,385.02854459988885,None,right,1,0.5328355999663472,385.02854459988885,None,384.5269072998781,384.6283595999703,384.6283595999703,None,385.57848549983464,None,,,,,,,11046,001,2024_Apr_15_1349,ANT,2021.2.3,59.867907474622314,
1,1,no,up,C,L,,,,,,Block.xlsx,"你已经完成了整个实验（三个区组）。

请报告实验者已完成实验

非常感谢，再见！",50,0,1.5,left,LLLLL.png,,,,,0,1,1,1,2,22,70,0,,,,,,,,,,,,,,,,,,,,,,,,,,,,,,,,,,,,,,,,,,,,,,,,,,,,,,,,,,,,,,,,385.97905309987254,386.38050549989566,386.3631652998738,386.4636814999394,386.86507429997437,None,left,1,0.5198952001519501,386.86507429997437,None,386.3631652998738,386.4636814999394,386.4636814999394,None,387.4146131000016,None,,,,,,,11046,001,2024_Apr_15_1349,ANT,2021.2.3,59.867907474622314,
1,23,spatial,down,IC,L,,,,,,Block.xlsx,"你已经完成了整个实验（三个区组）。

请报告实验者已完成实验

非常感谢，再见！",-1.5,0,-1.5,left,RRLRR.png,,,,,0,1,1,1,2,23,71,22,,,,,,,,,,,,,,,,,,,,,,,,,,,,,,,,,,,,,,,,,,,,,,,,,,,,,,,,,,,,,,,,387.8158503999002,388.21635199990124,388.1991038999986,388.3005089999642,388.699908999959,None,left,1,0.4142840001732111,388.699908999959,None,388.1991038999986,388.3005089999642,388.3005089999642,None,389.13389089982957,None,,,,,,,11046,001,2024_Apr_15_1349,ANT,2021.2.3,59.867907474622314,
1,3,no,up,IC,L,,,,,,Block.xlsx,"你已经完成了整个实验（三个区组）。

请报告实验者已完成实验

非常感谢，再见！",50,0,1.5,left,RRLRR.png,,,,,0,1,1,1,3,0,72,2,,,,,,,,,,,,,,,,,,,,,,,,,,,,,,,,,,,,,,,,,,,,,,,,,,,,,,,,,,,,,,,,389.53446380002424,389.9357243999839,389.91856259992346,390.02014899998903,390.4197746999562,None,left,1,0.39777610008604825,390.4197746999562,None,389.91856259992346,390.02014899998903,390.02014899998903,None,390.8364901000168,None,,,,,,,11046,001,2024_Apr_15_1349,ANT,2021.2.3,59.867907474622314,
1,8,no,down,IC,R,,,,,,Block.xlsx,"你已经完成了整个实验（三个区组）。

请报告实验者已完成实验

非常感谢，再见！",50,0,-1.5,right,LLRLL.png,,,,,0,1,1,1,3,1,73,7,,,,,,,,,,,,,,,,,,,,,,,,,,,,,,,,,,,,,,,,,,,,,,,,,,,,,,,,,,,,,,,,391.2371888998896,391.63795119989663,391.621302699903,391.72267029993236,392.1221282999031,None,right,1,0.4953600999433547,392.1221282999031,None,391.621302699903,391.72267029993236,391.72267029993236,None,392.6391359998379,None,,,,,,,11046,001,2024_Apr_15_1349,ANT,2021.2.3,59.867907474622314,
1,4,no,up,IC,R,,,,,,Block.xlsx,"你已经完成了整个实验（三个区组）。

请报告实验者已完成实验

非常感谢，再见！",50,0,1.5,right,LLRLL.png,,,,,0,1,1,1,3,2,74,3,,,,,,,,,,,,,,,,,,,,,,,,,,,,,,,,,,,,,,,,,,,,,,,,,,,,,,,,,,,,,,,,393.03988249995746,393.44123509991914,393.42345869983546,393.5238651998807,393.9244539998472,None,right,1,0.540983899962157,393.9244539998472,None,393.42345869983546,393.5238651998807,393.5238651998807,None,394.49286159989424,None,,,,,,,11046,001,2024_Apr_15_1349,ANT,2021.2.3,59.867907474622314,
1,4,no,up,IC,R,,,,,,Block.xlsx,"你已经完成了整个实验（三个区组）。

请报告实验者已完成实验

非常感谢，再见！",50,0,1.5,right,LLRLL.png,,,,,0,1,1,1,3,3,75,3,,,,,,,,,,,,,,,,,,,,,,,,,,,,,,,,,,,,,,,,,,,,,,,,,,,,,,,,,,,,,,,,394.8923972998746,395.29453699989244,395.2767109000124,395.3766179999802,395.77850789995864,None,right,1,0.49563149991445243,395.77850789995864,None,395.2767109000124,395.3766179999802,395.3766179999802,None,396.2947986999061,None,,,,,,,11046,001,2024_Apr_15_1349,ANT,2021.2.3,59.867907474622314,
1,24,spatial,down,IC,R,,,,,,Block.xlsx,"你已经完成了整个实验（三个区组）。

请报告实验者已完成实验

非常感谢，再见！",-1.5,0,-1.5,right,LLRLL.png,,,,,0,1,1,1,3,4,76,23,,,,,,,,,,,,,,,,,,,,,,,,,,,,,,,,,,,,,,,,,,,,,,,,,,,,,,,,,,,,,,,,396.69559019990265,397.09631980000995,397.08002489991486,397.1800144999288,397.58009019983,None,right,1,0.47740460000932217,397.58009019983,None,397.08002489991486,397.1800144999288,397.1800144999288,None,398.08065439993516,None,,,,,,,11046,001,2024_Apr_15_1349,ANT,2021.2.3,59.867907474622314,
1,4,no,up,IC,R,,,,,,Block.xlsx,"你已经完成了整个实验（三个区组）。

请报告实验者已完成实验

非常感谢，再见！",50,0,1.5,right,LLRLL.png,,,,,0,1,1,1,3,5,77,3,,,,,,,,,,,,,,,,,,,,,,,,,,,,,,,,,,,,,,,,,,,,,,,,,,,,,,,,,,,,,,,,398.48128409986384,398.88247679988854,398.8654839999508,398.96536989999004,399.3661889999639,None,right,1,0.49117729999125004,399.3661889999639,None,398.8654839999508,398.96536989999004,398.96536989999004,None,399.883445299929,None,,,,,,,11046,001,2024_Apr_15_1349,ANT,2021.2.3,59.867907474622314,
1,13,center,down,C,L,,,,,,Block.xlsx,"你已经完成了整个实验（三个区组）。

请报告实验者已完成实验

非常感谢，再见！",0,50,-1.5,left,LLLLL.png,,,,,0,1,1,1,3,6,78,12,,,,,,,,,,,,,,,,,,,,,,,,,,,,,,,,,,,,,,,,,,,,,,,,,,,,,,,,,,,,,,,,400.28414059989154,400.6870283000171,400.667985299835,400.7695769998245,401.1686095998157,None,left,1,0.4811421998310834,401.1686095998157,None,400.667985299835,400.7695769998245,400.7695769998245,None,401.6695222998969,None,,,,,,,11046,001,2024_Apr_15_1349,ANT,2021.2.3,59.867907474622314,
1,19,spatial,up,IC,L,,,,,,Block.xlsx,"你已经完成了整个实验（三个区组）。

请报告实验者已完成实验

非常感谢，再见！",1.5,0,1.5,left,RRLRR.png,,,,,0,1,1,1,3,7,79,18,,,,,,,,,,,,,,,,,,,,,,,,,,,,,,,,,,,,,,,,,,,,,,,,,,,,,,,,,,,,,,,,402.07010099990293,402.4706202999223,402.4541465998627,402.55430439999327,402.95475100004114,None,left,1,0.41457769996486604,402.95475100004114,None,402.4541465998627,402.55430439999327,402.55430439999327,None,403.38867180002853,None,,,,,,,11046,001,2024_Apr_15_1349,ANT,2021.2.3,59.867907474622314,
1,5,no,down,C,L,,,,,,Block.xlsx,"你已经完成了整个实验（三个区组）。

请报告实验者已完成实验

非常感谢，再见！",50,0,-1.5,left,LLLLL.png,,,,,0,1,1,1,3,8,80,4,,,,,,,,,,,,,,,,,,,,,,,,,,,,,,,,,,,,,,,,,,,,,,,,,,,,,,,,,,,,,,,,403.78948409995064,404.1900082998909,404.1733136998955,404.27441349998116,404.6750580999069,None,left,1,0.4786970999557525,404.6750580999069,None,404.1733136998955,404.27441349998116,404.27441349998116,None,405.1746847999748,None,,,,,,,11046,001,2024_Apr_15_1349,ANT,2021.2.3,59.867907474622314,
1,7,no,down,IC,L,,,,,,Block.xlsx,"你已经完成了整个实验（三个区组）。

请报告实验者已完成实验

非常感谢，再见！",50,0,-1.5,left,RRLRR.png,,,,,0,1,1,1,3,9,81,6,,,,,,,,,,,,,,,,,,,,,,,,,,,,,,,,,,,,,,,,,,,,,,,,,,,,,,,,,,,,,,,,405.5753876999952,405.9772270999383,405.95925229997374,406.0595605999697,406.46096529997885,None,left,1,0.5332557999063283,406.46096529997885,None,405.95925229997374,406.0595605999697,406.0595605999697,None,407.01072979997844,None,,,,,,,11046,001,2024_Apr_15_1349,ANT,2021.2.3,59.867907474622314,
1,10,center,up,C,R,,,,,,Block.xlsx,"你已经完成了整个实验（三个区组）。

请报告实验者已完成实验

非常感谢，再见！",0,50,1.5,right,RRRRR.png,,,,,0,1,1,1,3,10,82,9,,,,,,,,,,,,,,,,,,,,,,,,,,,,,,,,,,,,,,,,,,,,,,,,,,,,,,,,,,,,,,,,407.41141089983284,407.8129922999069,407.79566429997794,407.8962509999983,408.2986309998669,None,right,1,0.6072857000399381,408.2986309998669,None,407.79566429997794,407.8962509999983,407.8962509999983,None,408.9303901998792,None,,,,,,,11046,001,2024_Apr_15_1349,ANT,2021.2.3,59.867907474622314,
1,12,center,up,IC,R,,,,,,Block.xlsx,"你已经完成了整个实验（三个区组）。

请报告实验者已完成实验

非常感谢，再见！",0,50,1.5,right,LLRLL.png,,,,,0,1,1,1,3,11,83,11,,,,,,,,,,,,,,,,,,,,,,,,,,,,,,,,,,,,,,,,,,,,,,,,,,,,,,,,,,,,,,,,409.33116149995476,409.7321418998763,409.71502189990133,409.8164253998548,410.2157039998565,None,right,1,0.5539255999028683,410.2157039998565,None,409.71502189990133,409.8164253998548,409.8164253998548,None,410.80051589990035,None,,,,,,,11046,001,2024_Apr_15_1349,ANT,2021.2.3,59.867907474622314,
1,17,spatial,up,C,L,,,,,,Block.xlsx,"你已经完成了整个实验（三个区组）。

请报告实验者已完成实验

非常感谢，再见！",1.5,0,1.5,left,LLLLL.png,,,,,0,1,1,1,3,12,84,16,,,,,,,,,,,,,,,,,,,,,,,,,,,,,,,,,,,,,,,,,,,,,,,,,,,,,,,,,,,,,,,,411.2004574998282,411.6022520000115,411.5842140999157,411.6847763999831,412.08528440003283,None,left,1,0.41249900008551776,412.08528440003283,None,411.5842140999157,411.6847763999831,411.6847763999831,None,412.5189860998653,None,,,,,,,11046,001,2024_Apr_15_1349,ANT,2021.2.3,59.867907474622314,
1,20,spatial,up,IC,R,,,,,,Block.xlsx,"你已经完成了整个实验（三个区组）。

请报告实验者已完成实验

非常感谢，再见！",1.5,0,1.5,right,LLRLL.png,,,,,0,1,1,1,3,13,85,19,,,,,,,,,,,,,,,,,,,,,,,,,,,,,,,,,,,,,,,,,,,,,,,,,,,,,,,,,,,,,,,,412.92006479995325,413.32037179986946,413.3050613999367,413.4042448999826,413.80577119998634,None,right,1,0.564564700005576,413.80577119998634,None,413.3050613999367,413.4042448999826,413.4042448999826,None,414.3886643999722,None,,,,,,,11046,001,2024_Apr_15_1349,ANT,2021.2.3,59.867907474622314,
1,3,no,up,IC,L,,,,,,Block.xlsx,"你已经完成了整个实验（三个区组）。

请报告实验者已完成实验

非常感谢，再见！",50,0,1.5,left,RRLRR.png,,,,,0,1,1,1,3,14,86,2,,,,,,,,,,,,,,,,,,,,,,,,,,,,,,,,,,,,,,,,,,,,,,,,,,,,,,,,,,,,,,,,414.78923340002075,415.19236879982054,415.17336619994603,415.27382729994133,415.6752583999187,None,left,1,0.5184113001450896,415.6752583999187,None,415.17336619994603,415.27382729994133,415.27382729994133,None,416.22468959982507,None,,,,,,,11046,001,2024_Apr_15_1349,ANT,2021.2.3,59.867907474622314,
1,7,no,down,IC,L,,,,,,Block.xlsx,"你已经完成了整个实验（三个区组）。

请报告实验者已完成实验

非常感谢，再见！",50,0,-1.5,left,RRLRR.png,,,,,0,1,1,1,3,15,87,6,,,,,,,,,,,,,,,,,,,,,,,,,,,,,,,,,,,,,,,,,,,,,,,,,,,,,,,,,,,,,,,,416.62538410001434,417.0266128999647,417.00935669988394,417.1093456998933,417.51032709982246,None,left,1,0.6118393000215292,417.51032709982246,None,417.00935669988394,417.1093456998933,417.1093456998933,None,418.14436959987506,None,,,,,,,11046,001,2024_Apr_15_1349,ANT,2021.2.3,59.867907474622314,
1,12,center,up,IC,R,,,,,,Block.xlsx,"你已经完成了整个实验（三个区组）。

请报告实验者已完成实验

非常感谢，再见！",0,50,1.5,right,LLRLL.png,,,,,0,1,1,1,3,16,88,11,,,,,,,,,,,,,,,,,,,,,,,,,,,,,,,,,,,,,,,,,,,,,,,,,,,,,,,,,,,,,,,,418.5447027999908,418.9453682999592,418.9288427999709,419.02907499996945,419.43043089983985,None,right,1,0.5238143000751734,419.43043089983985,None,418.9288427999709,419.02907499996945,419.02907499996945,None,419.9813327000011,None,,,,,,,11046,001,2024_Apr_15_1349,ANT,2021.2.3,59.867907474622314,
1,4,no,up,IC,R,,,,,,Block.xlsx,"你已经完成了整个实验（三个区组）。

请报告实验者已完成实验

非常感谢，再见！",50,0,1.5,right,LLRLL.png,,,,,0,1,1,1,3,17,89,3,,,,,,,,,,,,,,,,,,,,,,,,,,,,,,,,,,,,,,,,,,,,,,,,,,,,,,,,,,,,,,,,420.3810633998364,420.78171809995547,420.7659803999122,420.86686309985816,421.265732599888,None,right,1,0.6084062000736594,421.265732599888,None,420.7659803999122,420.86686309985816,420.86686309985816,None,421.8998747000005,None,,,,,,,11046,001,2024_Apr_15_1349,ANT,2021.2.3,59.867907474622314,
1,20,spatial,up,IC,R,,,,,,Block.xlsx,"你已经完成了整个实验（三个区组）。

请报告实验者已完成实验

非常感谢，再见！",1.5,0,1.5,right,LLRLL.png,,,,,0,1,1,1,3,18,90,19,,,,,,,,,,,,,,,,,,,,,,,,,,,,,,,,,,,,,,,,,,,,,,,,,,,,,,,,,,,,,,,,422.30090809985995,422.70129669993185,422.6846423998941,422.7846617999021,423.18516689981334,None,right,1,0.43310789996758103,423.18516689981334,None,422.6846423998941,422.7846617999021,422.7846617999021,None,423.63597529986873,None,,,,,,,11046,001,2024_Apr_15_1349,ANT,2021.2.3,59.867907474622314,
1,23,spatial,down,IC,L,,,,,,Block.xlsx,"你已经完成了整个实验（三个区组）。

请报告实验者已完成实验

非常感谢，再见！",-1.5,0,-1.5,left,RRLRR.png,,,,,0,1,1,1,3,19,91,22,,,,,,,,,,,,,,,,,,,,,,,,,,,,,,,,,,,,,,,,,,,,,,,,,,,,,,,,,,,,,,,,424.0369529998861,424.43712749984115,424.4216330999043,424.53828979982063,424.921322299866,None,left,1,0.4970801998861134,424.921322299866,None,424.4216330999043,424.53828979982063,424.5214894998353,None,425.43866620003246,None,,,,,,,11046,001,2024_Apr_15_1349,ANT,2021.2.3,59.867907474622314,
1,21,spatial,down,C,L,,,,,,Block.xlsx,"你已经完成了整个实验（三个区组）。

请报告实验者已完成实验

