TrialType,TrialNumber,WarningType,TargetType,FlankerType,TargetDirection,W,f,Y,corr,imageFile,condition,endtext,Yw,Yf,Yt,Corr,imagefile,trials_3.thisRepN,trials_3.thisTrialN,trials_3.thisN,trials_3.thisIndex,trials_2.thisRepN,trials_2.thisTrialN,trials_2.thisN,trials_2.thisIndex,trials.thisRepN,trials.thisTrialN,trials.thisN,trials.thisIndex,instr.started,instr.stopped,key_resp.keys,key_resp.rt,key_resp.started,key_resp.stopped,image.started,image.stopped,key_resp_6.keys,key_resp_6.rt,key_resp_6.started,key_resp_6.stopped,EX_L.started,EX_L.stopped,AL.started,AL.stopped,key_resp_7.keys,key_resp_7.rt,key_resp_7.started,key_resp_7.stopped,EX_R.started,EX_R.stopped,RR.started,RR.stopped,key_resp_8.keys,key_resp_8.rt,key_resp_8.started,key_resp_8.stopped,image_2.started,image_2.stopped,key_resp_9.keys,key_resp_9.rt,key_resp_9.started,key_resp_9.stopped,image_3.started,image_3.stopped,key_resp_10.keys,key_resp_10.rt,key_resp_10.started,key_resp_10.stopped,fix.started,fix.stopped,war.started,war.stopped,tar.started,tar.stopped,key_resp_4.keys,key_resp_4.corr,key_resp_4.rt,key_resp_4.started,key_resp_4.stopped,fix2.started,fix2.stopped,fix_2.started,fix_2.stopped,Feedback.started,Feedback.stopped,key_resp_2.keys,key_resp_2.rt,key_resp_2.started,key_resp_2.stopped,text_5.started,text_5.stopped,fix2_1.started,fix2_1.stopped,Warn.started,Warn.stopped,Tar.started,Tar.stopped,key_resp_5.keys,key_resp_5.corr,key_resp_5.rt,key_resp_5.started,key_resp_5.stopped,Fix_2.started,Fix_2.stopped,fix2_2.started,fix2_2.stopped,text_4.started,text_4.stopped,key_resp_3.keys,key_resp_3.rt,key_resp_3.started,key_resp_3.stopped,text_3.started,text_3.stopped,participant,session,date,expName,psychopyVersion,frameRate,
,,,,,,,,,,,,,,,,,,,,,,,,,,,,,,8.985241699963808,None,space,5.823464100016281,8.985241699963808,None,,,,,,,,,,,,,,,,,,,,,,,,,,,,,,,,,,,,,,,,,,,,,,,,,,,,,,,,,,,,,,,,,,,,,,,,,,,,,,,,,11041,001,2024_Mar_15_1421,ANT,2021.2.3,59.816411457765994,
,,,,,,,,,,,,,,,,,,,,,,,,,,,,,,,,,,,,14.827853899972979,None,space,3.964567400049418,14.827853899972979,None,,,,,,,,,,,,,,,,,,,,,,,,,,,,,,,,,,,,,,,,,,,,,,,,,,,,,,,,,,,,,,,,,,,,,,,,,,,11041,001,2024_Mar_15_1421,ANT,2021.2.3,59.816411457765994,
,,,,,,,,,,,,,,,,,,,,,,,,,,,,,,,,,,,,,,,,,,18.81737299996894,None,18.81737299996894,None,left,1.6870865999953821,18.81737299996894,None,,,,,,,,,,,,,,,,,,,,,,,,,,,,,,,,,,,,,,,,,,,,,,,,,,,,,,,,,,,,,,,,,,,11041,001,2024_Mar_15_1421,ANT,2021.2.3,59.816411457765994,
,,,,,,,,,,,,,,,,,,,,,,,,,,,,,,,,,,,,,,,,,,,,,,,,,,20.536252499965485,None,20.536252499965485,None,right,0.6485508999903686,20.536252499965485,None,,,,,,,,,,,,,,,,,,,,,,,,,,,,,,,,,,,,,,,,,,,,,,,,,,,,,,,,,,,11041,001,2024_Mar_15_1421,ANT,2021.2.3,59.816411457765994,
,,,,,,,,,,,,,,,,,,,,,,,,,,,,,,,,,,,,,,,,,,,,,,,,,,,,,,,,,,21.204406399978325,None,space,2.6604225000482984,21.204406399978325,None,,,,,,,,,,,,,,,,,,,,,,,,,,,,,,,,,,,,,,,,,,,,,,,,,,,,,11041,001,2024_Mar_15_1421,ANT,2021.2.3,59.816411457765994,
,,,,,,,,,,,,,,,,,,,,,,,,,,,,,,,,,,,,,,,,,,,,,,,,,,,,,,,,,,,,,,,,23.89151220000349,None,space,2.9570798000204377,23.89151220000349,None,,,,,,,,,,,,,,,,,,,,,,,,,,,,,,,,,,,,,,,,,,,,,,,11041,001,2024_Mar_15_1421,ANT,2021.2.3,59.816411457765994,
0,4,no,down,IC,L,50,0,-1.5,left,RRLRR.png,,,,,,,,0,0,0,3,,,,,,,,,,,,,,,,,,,,,,,,,,,,,,,,,,,,,,,,,,,,,,,,,26.945633099996485,27.346336099959444,27.330223299970385,27.430325699970126,27.831143499992322,None,left,1,0.7617740000132471,27.831143499992322,None,27.330223299970385,27.430325699970126,27.430325699970126,None,28.631804699951317,None,,,,,,,,,,,,,,,,,,,,,,,,,,,,,,11041,001,2024_Mar_15_1421,ANT,2021.2.3,59.816411457765994,
0,3,no,down,C,R,50,0,-1.5,right,RRRRR.png,,,,,,,,0,1,1,2,,,,,,,,,,,,,,,,,,,,,,,,,,,,,,,,,,,,,,,,,,,,,,,,,30.63515639997786,31.036541499954183,31.01870819996111,31.120479899982456,31.519451799977105,None,right,1,0.4255212999996729,31.519451799977105,None,31.01870819996111,31.120479899982456,31.120479899982456,None,31.96991699998034,None,,,,,,,,,,,,,,,,,,,,,,,,,,,,,,11041,001,2024_Mar_15_1421,ANT,2021.2.3,59.816411457765994,
0,11,spatial,down,C,L,-1.5,0,-1.5,left,LLLLL.png,,,,,,,,0,2,2,10,,,,,,,,,,,,,,,,,,,,,,,,,,,,,,,,,,,,,,,,,,,,,,,,,33.9729674999835,34.37507369997911,34.35695429996122,34.458900499972515,34.859472799988,None,left,1,0.47759200003929436,34.859472799988,None,34.35695429996122,34.458900499972515,34.458900499972515,None,35.3584590999526,None,,,,,,,,,,,,,,,,,,,,,,,,,,,,,,11041,001,2024_Mar_15_1421,ANT,2021.2.3,59.816411457765994,
0,7,center,down,C,R,0,50,-1.5,right,RRRRR.png,,,,,,,,0,3,3,6,,,,,,,,,,,,,,,,,,,,,,,,,,,,,,,,,,,,,,,,,,,,,,,,,37.36146749998443,37.76344459998654,37.74559379997663,37.84607979998691,38.24682959995698,None,right,1,0.37020120001398027,38.24682959995698,None,37.74559379997663,37.84607979998691,37.84607979998691,None,38.64641789998859,None,,,,,,,,,,,,,,,,,,,,,,,,,,,,,,11041,001,2024_Mar_15_1421,ANT,2021.2.3,59.816411457765994,
0,8,center,down,IC,L,0,50,-1.5,left,RRLRR.png,,,,,,,,0,4,4,7,,,,,,,,,,,,,,,,,,,,,,,,,,,,,,,,,,,,,,,,,,,,,,,,,40.649758899991866,41.05037640000228,41.03426019998733,41.13484739995329,41.53502459998708,None,left,1,0.4902182999649085,41.53502459998708,None,41.03426019998733,41.13484739995329,41.13484739995329,None,42.05167769995751,None,,,,,,,,,,,,,,,,,,,,,,,,,,,,,,11041,001,2024_Mar_15_1421,ANT,2021.2.3,59.816411457765994,
0,2,no,up,IC,R,50,0,1.5,right,LLRLL.png,,,,,,,,0,5,5,1,,,,,,,,,,,,,,,,,,,,,,,,,,,,,,,,,,,,,,,,,,,,,,,,,44.05514949996723,44.45606219995534,44.43891609995626,44.539289899985306,44.940707099973224,None,right,1,0.7246373000089079,44.940707099973224,None,44.43891609995626,44.539289899985306,44.539289899985306,None,45.69043089996558,None,,,,,,,,,,,,,,,,,,,,,,,,,,,,,,11041,001,2024_Mar_15_1421,ANT,2021.2.3,59.816411457765994,
0,5,center,up,C,L,0,50,1.5,left,LLLLL.png,,,,,,,,0,6,6,4,,,,,,,,,,,,,,,,,,,,,,,,,,,,,,,,,,,,,,,,,,,,,,,,,47.693517999956384,48.09431999997469,48.07891829998698,48.19449059996987,48.579657699970994,None,left,1,0.5577599999960512,48.579657699970994,None,48.07891829998698,48.19449059996987,48.17857779999031,None,49.16237269999692,None,,,,,,,,,,,,,,,,,,,,,,,,,,,,,,11041,001,2024_Mar_15_1421,ANT,2021.2.3,59.816411457765994,
0,9,spatial,up,C,R,1.5,0,1.5,right,RRRRR.png,,,,,,,,0,7,7,8,,,,,,,,,,,,,,,,,,,,,,,,,,,,,,,,,,,,,,,,,,,,,,,,,51.166012699948624,51.56757369998377,51.54972309997538,51.65041989996098,52.05040899995947,None,right,1,0.3349762000143528,52.05040899995947,None,51.54972309997538,51.65041989996098,51.65041989996098,None,52.40072999999393,None,,,,,,,,,,,,,,,,,,,,,,,,,,,,,,11041,001,2024_Mar_15_1421,ANT,2021.2.3,59.816411457765994,
0,1,no,up,C,L,50,0,1.5,left,LLLLL.png,,,,,,,,0,8,8,0,,,,,,,,,,,,,,,,,,,,,,,,,,,,,,,,,,,,,,,,,,,,,,,,,54.40392769995378,54.80471639998723,54.788218199973926,54.88980839995202,55.288414799957536,None,left,1,0.42531729995971546,55.288414799957536,None,54.788218199973926,54.88980839995202,54.88980839995202,None,55.73924789996818,None,,,,,,,,,,,,,,,,,,,,,,,,,,,,,,11041,001,2024_Mar_15_1421,ANT,2021.2.3,59.816411457765994,
0,12,spatial,down,IC,R,-1.5,0,-1.5,right,LLRLL.png,,,,,,,,0,9,9,11,,,,,,,,,,,,,,,,,,,,,,,,,,,,,,,,,,,,,,,,,,,,,,,,,57.74218849994941,58.14301869994961,58.127371299953666,58.22615879995283,58.6285460999934,None,right,1,0.4528582000057213,58.6285460999934,None,58.127371299953666,58.22615879995283,58.22615879995283,None,59.11087899998529,None,,,,,,,,,,,,,,,,,,,,,,,,,,,,,,11041,001,2024_Mar_15_1421,ANT,2021.2.3,59.816411457765994,
0,6,center,up,IC,R,0,50,1.5,right,LLRLL.png,,,,,,,,0,10,10,5,,,,,,,,,,,,,,,,,,,,,,,,,,,,,,,,,,,,,,,,,,,,,,,,,61.11376999999629,61.514461699989624,61.497736799996346,61.59861759998603,61.99859659996582,None,right,1,0.5549862000043504,61.99859659996582,None,61.497736799996346,61.59861759998603,61.59861759998603,None,62.58279109996511,None,,,,,,,,,,,,,,,,,,,,,,,,,,,,,,11041,001,2024_Mar_15_1421,ANT,2021.2.3,59.816411457765994,
0,10,spatial,up,IC,L,1.5,0,1.5,left,RRLRR.png,,,,,,,,0,11,11,9,,,,,,,,,,,,,,,,,,,,,,,,,,,,,,,,,,,,,,,,,,,,,,,,,64.585893499956,64.98633499996504,64.97065799997654,65.07063519995427,65.4705421999679,None,left,1,0.4592765999841504,65.4705421999679,None,64.97065799997654,65.07063519995427,65.07063519995427,None,65.95447129994864,None,,,,,,,,,,,,,,,,,,,,,,,,,,,,,,11041,001,2024_Mar_15_1421,ANT,2021.2.3,59.816411457765994,
,,,,,,,,,,,,,,,,,,,,,,,,,,,,,,,,,,,,,,,,,,,,,,,,,,,,,,,,,,,,,,,,,,,,,,,,,,,,,,,,,,,,,,,space,11.292940699961036,67.95759299997007,None,,,,,,,,,,,,,,,,,,,,,,,,,,11041,001,2024_Mar_15_1421,ANT,2021.2.3,59.816411457765994,
1,7,no,down,IC,L,,,,,,Block.xlsx,"你已经完成了第一个实验区组

请稍作休息


点击空格键进入下一个区组。",50,0,-1.5,left,RRLRR.png,,,,,0,0,0,0,0,0,0,6,,,,,,,,,,,,,,,,,,,,,,,,,,,,,,,,,,,,,,,,,,,,,,,,,,,,,,,,,,,,,,67.95759299997007,None,79.30922860000283,79.70856539998204,79.69241719995625,79.7925940999994,80.19281340000452,None,left,1,0.5857343000243418,80.19281340000452,None,79.69241719995625,79.7925940999994,79.7925940999994,None,80.81048200000077,None,,,,,,,11041,001,2024_Mar_15_1421,ANT,2021.2.3,59.816411457765994,
1,2,no,up,C,R,,,,,,Block.xlsx,"你已经完成了第一个实验区组

请稍作休息


点击空格键进入下一个区组。",50,0,1.5,right,RRRRR.png,,,,,0,0,0,0,0,1,1,1,,,,,,,,,,,,,,,,,,,,,,,,,,,,,,,,,,,,,,,,,,,,,,,,,,,,,,,,,,,,,,,,81.21254769997904,81.62869169999612,81.59481499996036,81.69530609995127,82.09614409995265,None,right,1,0.5306633000145666,82.09614409995265,None,81.59481499996036,81.69530609995127,81.69530609995127,None,82.64667499996722,None,,,,,,,11041,001,2024_Mar_15_1421,ANT,2021.2.3,59.816411457765994,
1,3,no,up,IC,L,,,,,,Block.xlsx,"你已经完成了第一个实验区组

请稍作休息


点击空格键进入下一个区组。",50,0,1.5,left,RRLRR.png,,,,,0,0,0,0,0,2,2,2,,,,,,,,,,,,,,,,,,,,,,,,,,,,,,,,,,,,,,,,,,,,,,,,,,,,,,,,,,,,,,,,83.04711669997778,83.44738949998282,83.43215829995461,83.53122969996184,83.9317291000043,None,left,1,0.4065446999738924,83.9317291000043,None,83.43215829995461,83.53122969996184,83.53122969996184,None,84.36531799996737,None,,,,,,,11041,001,2024_Mar_15_1421,ANT,2021.2.3,59.816411457765994,
1,3,no,up,IC,L,,,,,,Block.xlsx,"你已经完成了第一个实验区组

请稍作休息


点击空格键进入下一个区组。",50,0,1.5,left,RRLRR.png,,,,,0,0,0,0,0,3,3,2,,,,,,,,,,,,,,,,,,,,,,,,,,,,,,,,,,,,,,,,,,,,,,,,,,,,,,,,,,,,,,,,84.76702249998925,85.16750389995286,85.15148050000425,85.25036379997618,85.65263069997309,None,left,1,0.414393899962306,85.65263069997309,None,85.15148050000425,85.25036379997618,85.25036379997618,None,86.08515979995718,None,,,,,,,11041,001,2024_Mar_15_1421,ANT,2021.2.3,59.816411457765994,
1,22,spatial,down,C,R,,,,,,Block.xlsx,"你已经完成了第一个实验区组

请稍作休息


点击空格键进入下一个区组。",-1.5,0,-1.5,right,RRRRR.png,,,,,0,0,0,0,0,4,4,21,,,,,,,,,,,,,,,,,,,,,,,,,,,,,,,,,,,,,,,,,,,,,,,,,,,,,,,,,,,,,,,,86.48566969996318,86.88663039996754,86.87044799997238,86.96944039996015,87.37163749994943,None,right,1,0.4392989000189118,87.37163749994943,None,86.87044799997238,86.96944039996015,86.96944039996015,None,87.83727119996911,None,,,,,,,11041,001,2024_Mar_15_1421,ANT,2021.2.3,59.816411457765994,
1,5,no,down,C,L,,,,,,Block.xlsx,"你已经完成了第一个实验区组

请稍作休息


点击空格键进入下一个区组。",50,0,-1.5,left,LLLLL.png,,,,,0,0,0,0,0,5,5,4,,,,,,,,,,,,,,,,,,,,,,,,,,,,,,,,,,,,,,,,,,,,,,,,,,,,,,,,,,,,,,,,88.23822149995249,88.63866429997142,88.62228939996567,88.72248889994808,89.12370119994739,None,left,1,0.5029049000004306,89.12370119994739,None,88.62228939996567,88.72248889994808,88.72248889994808,None,89.65719359996729,None,,,,,,,11041,001,2024_Mar_15_1421,ANT,2021.2.3,59.816411457765994,
1,5,no,down,C,L,,,,,,Block.xlsx,"你已经完成了第一个实验区组

请稍作休息


点击空格键进入下一个区组。",50,0,-1.5,left,LLLLL.png,,,,,0,0,0,0,0,6,6,4,,,,,,,,,,,,,,,,,,,,,,,,,,,,,,,,,,,,,,,,,,,,,,,,,,,,,,,,,,,,,,,,90.05748959997436,90.45937189995311,90.44131019996712,90.54350879997946,90.94235179998213,None,left,1,0.4604473999934271,90.94235179998213,None,90.44131019996712,90.54350879997946,90.54350879997946,None,91.426165199955,None,,,,,,,11041,001,2024_Mar_15_1421,ANT,2021.2.3,59.816411457765994,
1,21,spatial,down,C,L,,,,,,Block.xlsx,"你已经完成了第一个实验区组

请稍作休息


点击空格键进入下一个区组。",-1.5,0,-1.5,left,LLLLL.png,,,,,0,0,0,0,0,7,7,20,,,,,,,,,,,,,,,,,,,,,,,,,,,,,,,,,,,,,,,,,,,,,,,,,,,,,,,,,,,,,,,,91.82743219996337,92.22794799995609,92.21192639996298,92.32805799995549,92.71195929998066,None,left,1,0.35456249996786937,92.71195929998066,None,92.21192639996298,92.32805799995549,92.31092989997705,None,93.0958210999961,None,,,,,,,11041,001,2024_Mar_15_1421,ANT,2021.2.3,59.816411457765994,
1,10,center,up,C,R,,,,,,Block.xlsx,"你已经完成了第一个实验区组

请稍作休息


点击空格键进入下一个区组。",0,50,1.5,right,RRRRR.png,,,,,0,0,0,0,0,8,8,9,,,,,,,,,,,,,,,,,,,,,,,,,,,,,,,,,,,,,,,,,,,,,,,,,,,,,,,,,,,,,,,,93.49663289997261,93.89807909994852,93.88013529998716,93.98040669999318,94.3818723000004,None,right,1,0.4525994999567047,94.3818723000004,None,93.88013529998716,93.98040669999318,93.98040669999318,None,94.86507519998122,None,,,,,,,11041,001,2024_Mar_15_1421,ANT,2021.2.3,59.816411457765994,
1,7,no,down,IC,L,,,,,,Block.xlsx,"你已经完成了第一个实验区组

请稍作休息


点击空格键进入下一个区组。",50,0,-1.5,left,RRLRR.png,,,,,0,0,0,0,0,9,9,6,,,,,,,,,,,,,,,,,,,,,,,,,,,,,,,,,,,,,,,,,,,,,,,,,,,,,,,,,,,,,,,,95.26531469996553,95.66594929998973,95.65002699999604,95.75045910000335,96.14994499995373,None,left,1,0.6047255999874324,96.14994499995373,None,95.65002699999604,95.75045910000335,95.75045910000335,None,96.78434739995282,None,,,,,,,11041,001,2024_Mar_15_1421,ANT,2021.2.3,59.816411457765994,
1,3,no,up,IC,L,,,,,,Block.xlsx,"你已经完成了第一个实验区组

请稍作休息


点击空格键进入下一个区组。",50,0,1.5,left,RRLRR.png,,,,,0,0,0,0,0,10,10,2,,,,,,,,,,,,,,,,,,,,,,,,,,,,,,,,,,,,,,,,,,,,,,,,,,,,,,,,,,,,,,,,97.18480359995738,97.58690429996932,97.56879009999102,97.67047739995178,98.07018859998789,None,left,1,0.5167269999510609,98.07018859998789,None,97.56879009999102,97.67047739995178,97.67047739995178,None,98.60374089999823,None,,,,,,,11041,001,2024_Mar_15_1421,ANT,2021.2.3,59.816411457765994,
1,19,spatial,up,IC,L,,,,,,Block.xlsx,"你已经完成了第一个实验区组

请稍作休息


点击空格键进入下一个区组。",1.5,0,1.5,left,RRLRR.png,,,,,0,0,0,0,0,11,11,18,,,,,,,,,,,,,,,,,,,,,,,,,,,,,,,,,,,,,,,,,,,,,,,,,,,,,,,,,,,,,,,,99.00439609994646,99.40589909994742,99.38833559997147,99.4897841999773,99.88906669995049,None,left,1,0.4504840000299737,99.88906669995049,None,99.38833559997147,99.4897841999773,99.4897841999773,None,100.35633499996038,None,,,,,,,11041,001,2024_Mar_15_1421,ANT,2021.2.3,59.816411457765994,
1,4,no,up,IC,R,,,,,,Block.xlsx,"你已经完成了第一个实验区组

请稍作休息


点击空格键进入下一个区组。",50,0,1.5,right,LLRLL.png,,,,,0,0,0,0,0,12,12,3,,,,,,,,,,,,,,,,,,,,,,,,,,,,,,,,,,,,,,,,,,,,,,,,,,,,,,,,,,,,,,,,100.75695159996394,101.15921969996998,101.14094669994665,101.24233999999706,101.64164940000046,None,right,1,0.497155399993062,101.64164940000046,None,101.14094669994665,101.24233999999706,101.24233999999706,None,102.15890260000015,None,,,,,,,11041,001,2024_Mar_15_1421,ANT,2021.2.3,59.816411457765994,
1,12,center,up,IC,R,,,,,,Block.xlsx,"你已经完成了第一个实验区组

请稍作休息


点击空格键进入下一个区组。",0,50,1.5,right,LLRLL.png,,,,,0,0,0,0,0,13,13,11,,,,,,,,,,,,,,,,,,,,,,,,,,,,,,,,,,,,,,,,,,,,,,,,,,,,,,,,,,,,,,,,102.56037139997352,102.96025639999425,102.94382019998739,103.04405470000347,103.4441736000008,None,right,1,0.4386227000504732,103.4441736000008,None,102.94382019998739,103.04405470000347,103.04405470000347,None,103.91171819996089,None,,,,,,,11041,001,2024_Mar_15_1421,ANT,2021.2.3,59.816411457765994,
1,13,center,down,C,L,,,,,,Block.xlsx,"你已经完成了第一个实验区组

请稍作休息


点击空格键进入下一个区组。",0,50,-1.5,left,LLLLL.png,,,,,0,0,0,0,0,14,14,12,,,,,,,,,,,,,,,,,,,,,,,,,,,,,,,,,,,,,,,,,,,,,,,,,,,,,,,,,,,,,,,,104.31240649998654,104.7127684999723,104.69628029997693,104.79707829997642,105.19698119995883,None,left,1,0.4380519000114873,105.19698119995883,None,104.69628029997693,104.79707829997642,104.79707829997642,None,105.66456239996478,None,,,,,,,11041,001,2024_Mar_15_1421,ANT,2021.2.3,59.816411457765994,
1,2,no,up,C,R,,,,,,Block.xlsx,"你已经完成了第一个实验区组

请稍作休息


点击空格键进入下一个区组。",50,0,1.5,right,RRRRR.png,,,,,0,0,0,0,0,15,15,1,,,,,,,,,,,,,,,,,,,,,,,,,,,,,,,,,,,,,,,,,,,,,,,,,,,,,,,,,,,,,,,,106.06557899998734,106.4658250999637,106.44892979995348,106.55031429999508,106.94977609999478,None,right,1,0.4530232999823056,106.94977609999478,None,106.44892979995348,106.55031429999508,106.55031429999508,None,107.43374809995294,None,,,,,,,11041,001,2024_Mar_15_1421,ANT,2021.2.3,59.816411457765994,
1,21,spatial,down,C,L,,,,,,Block.xlsx,"你已经完成了第一个实验区组

请稍作休息


点击空格键进入下一个区组。",-1.5,0,-1.5,left,LLLLL.png,,,,,0,0,0,0,0,16,16,20,,,,,,,,,,,,,,,,,,,,,,,,,,,,,,,,,,,,,,,,,,,,,,,,,,,,,,,,,,,,,,,,107.83504419995006,108.23615209996933,108.21846609999193,108.32057989999885,108.71975999994902,None,left,1,0.37135599995963275,108.71975999994902,None,108.21846609999193,108.32057989999885,108.32057989999885,None,109.11941449996084,None,,,,,,,11041,001,2024_Mar_15_1421,ANT,2021.2.3,59.816411457765994,
1,8,no,down,IC,R,,,,,,Block.xlsx,"你已经完成了第一个实验区组

请稍作休息


点击空格键进入下一个区组。",50,0,-1.5,right,LLRLL.png,,,,,0,0,0,0,0,17,17,7,,,,,,,,,,,,,,,,,,,,,,,,,,,,,,,,,,,,,,,,,,,,,,,,,,,,,,,,,,,,,,,,109.52000069996575,109.9223406999954,109.90443120000418,110.0068903999636,110.4048243999714,None,right,1,0.6302443000022322,110.4048243999714,None,109.90443120000418,110.0068903999636,110.0068903999636,None,111.05610029998934,None,,,,,,,11041,001,2024_Mar_15_1421,ANT,2021.2.3,59.816411457765994,
1,21,spatial,down,C,L,,,,,,Block.xlsx,"你已经完成了第一个实验区组

请稍作休息


点击空格键进入下一个区组。",-1.5,0,-1.5,left,LLLLL.png,,,,,0,0,0,0,0,18,18,20,,,,,,,,,,,,,,,,,,,,,,,,,,,,,,,,,,,,,,,,,,,,,,,,,,,,,,,,,,,,,,,,111.45637469994836,111.85813329997472,111.84052359999623,111.94048930000281,112.34202779998304,None,left,1,0.38099730003159493,112.34202779998304,None,111.84052359999623,111.94048930000281,111.94048930000281,None,112.7418816999998,None,,,,,,,11041,001,2024_Mar_15_1421,ANT,2021.2.3,59.816411457765994,
1,1,no,up,C,L,,,,,,Block.xlsx,"你已经完成了第一个实验区组

请稍作休息


点击空格键进入下一个区组。",50,0,1.5,left,LLLLL.png,,,,,0,0,0,0,0,19,19,0,,,,,,,,,,,,,,,,,,,,,,,,,,,,,,,,,,,,,,,,,,,,,,,,,,,,,,,,,,,,,,,,113.14243019995047,113.54433889995562,113.5263452999643,113.62681379995774,114.02880249998998,None,left,1,0.4942379000131041,114.02880249998998,None,113.5263452999643,113.62681379995774,113.62681379995774,None,114.54479019995779,None,,,,,,,11041,001,2024_Mar_15_1421,ANT,2021.2.3,59.816411457765994,
1,11,center,up,IC,L,,,,,,Block.xlsx,"你已经完成了第一个实验区组

请稍作休息


点击空格键进入下一个区组。",0,50,1.5,left,RRLRR.png,,,,,0,0,0,0,0,20,20,10,,,,,,,,,,,,,,,,,,,,,,,,,,,,,,,,,,,,,,,,,,,,,,,,,,,,,,,,,,,,,,,,114.94557290000375,115.34588589996565,115.33020009996835,115.42902389995288,115.82974239997566,None,left,1,0.5814682000200264,115.82974239997566,None,115.33020009996835,115.42902389995288,115.42902389995288,None,116.43072099995334,None,,,,,,,11041,001,2024_Mar_15_1421,ANT,2021.2.3,59.816411457765994,
1,22,spatial,down,C,R,,,,,,Block.xlsx,"你已经完成了第一个实验区组

请稍作休息


点击空格键进入下一个区组。",-1.5,0,-1.5,right,RRRRR.png,,,,,0,0,0,0,0,21,21,21,,,,,,,,,,,,,,,,,,,,,,,,,,,,,,,,,,,,,,,,,,,,,,,,,,,,,,,,,,,,,,,,116.83149189996766,117.23183089995291,117.2166229999857,117.33263530000113,117.71596369997133,None,right,1,0.48741230001905933,117.71596369997133,None,117.2166229999857,117.33263530000113,117.3152957999846,None,118.23330869997153,None,,,,,,,11041,001,2024_Mar_15_1421,ANT,2021.2.3,59.816411457765994,
1,16,center,down,IC,R,,,,,,Block.xlsx,"你已经完成了第一个实验区组

请稍作休息


点击空格键进入下一个区组。",0,50,-1.5,right,LLRLL.png,,,,,0,0,0,0,0,22,22,15,,,,,,,,,,,,,,,,,,,,,,,,,,,,,,,,,,,,,,,,,,,,,,,,,,,,,,,,,,,,,,,,118.63424729998223,119.03431609994732,119.01873509999132,119.11832649999997,119.51854809996439,None,right,1,0.5011523999855854,119.51854809996439,None,119.01873509999132,119.11832649999997,119.11832649999997,None,120.0364019999979,None,,,,,,,11041,001,2024_Mar_15_1421,ANT,2021.2.3,59.816411457765994,
1,8,no,down,IC,R,,,,,,Block.xlsx,"你已经完成了第一个实验区组

请稍作休息


点击空格键进入下一个区组。",50,0,-1.5,right,LLRLL.png,,,,,0,0,0,0,0,23,23,7,,,,,,,,,,,,,,,,,,,,,,,,,,,,,,,,,,,,,,,,,,,,,,,,,,,,,,,,,,,,,,,,120.43711899995105,120.83817359997192,120.8206169999903,120.92189229995711,121.32131209998624,None,right,1,0.48264130001189187,121.32131209998624,None,120.8206169999903,120.92189229995711,120.92189229995711,None,121.82196149998344,None,,,,,,,11041,001,2024_Mar_15_1421,ANT,2021.2.3,59.816411457765994,
1,17,spatial,up,C,L,,,,,,Block.xlsx,"你已经完成了第一个实验区组

请稍作休息


点击空格键进入下一个区组。",1.5,0,1.5,left,LLLLL.png,,,,,0,0,0,0,1,0,24,16,,,,,,,,,,,,,,,,,,,,,,,,,,,,,,,,,,,,,,,,,,,,,,,,,,,,,,,,,,,,,,,,122.22254129999783,122.62431079999078,122.60658939997666,122.7065168999834,123.10858159995405,None,left,1,0.37477920000674203,123.10858159995405,None,122.60658939997666,122.7065168999834,122.7065168999834,None,123.5079196000006,None,,,,,,,11041,001,2024_Mar_15_1421,ANT,2021.2.3,59.816411457765994,
1,20,spatial,up,IC,R,,,,,,Block.xlsx,"你已经完成了第一个实验区组

请稍作休息


点击空格键进入下一个区组。",1.5,0,1.5,right,LLRLL.png,,,,,0,0,0,0,1,1,25,19,,,,,,,,,,,,,,,,,,,,,,,,,,,,,,,,,,,,,,,,,,,,,,,,,,,,,,,,,,,,,,,,123.90899480000371,124.3116911999532,124.29251309996471,124.39274719997775,124.7932054999983,None,right,1,0.5069482999970205,124.7932054999983,None,124.29251309996471,124.39274719997775,124.39274719997775,None,125.32751189998817,None,,,,,,,11041,001,2024_Mar_15_1421,ANT,2021.2.3,59.816411457765994,
1,20,spatial,up,IC,R,,,,,,Block.xlsx,"你已经完成了第一个实验区组

请稍作休息


点击空格键进入下一个区组。",1.5,0,1.5,right,LLRLL.png,,,,,0,0,0,0,1,2,26,19,,,,,,,,,,,,,,,,,,,,,,,,,,,,,,,,,,,,,,,,,,,,,,,,,,,,,,,,,,,,,,,,125.72823889995925,126.12952479999512,126.11217709997436,126.21343879995402,126.61326509999344,None,right,1,0.39901930000633,126.61326509999344,None,126.11217709997436,126.21343879995402,126.21343879995402,None,127.02985989995068,None,,,,,,,11041,001,2024_Mar_15_1421,ANT,2021.2.3,59.816411457765994,
1,11,center,up,IC,L,,,,,,Block.xlsx,"你已经完成了第一个实验区组

请稍作休息


点击空格键进入下一个区组。",0,50,1.5,left,RRLRR.png,,,,,0,0,0,0,1,3,27,10,,,,,,,,,,,,,,,,,,,,,,,,,,,,,,,,,,,,,,,,,,,,,,,,,,,,,,,,,,,,,,,,127.43057949998183,127.83132589998422,127.8155270999996,127.91465479996987,128.3152952999808,None,left,1,0.5201030000462197,128.3152952999808,None,127.8155270999996,127.91465479996987,127.91465479996987,None,128.86592779995408,None,,,,,,,11041,001,2024_Mar_15_1421,ANT,2021.2.3,59.816411457765994,
1,17,spatial,up,C,L,,,,,,Block.xlsx,"你已经完成了第一个实验区组

请稍作休息


点击空格键进入下一个区组。",1.5,0,1.5,left,LLLLL.png,,,,,0,0,0,0,1,4,28,16,,,,,,,,,,,,,,,,,,,,,,,,,,,,,,,,,,,,,,,,,,,,,,,,,,,,,,,,,,,,,,,,129.26694959995802,129.66845189995365,129.65038119995734,129.7507424999494,130.1517431999673,None,left,1,0.4359365000273101,130.1517431999673,None,129.65038119995734,129.7507424999494,129.7507424999494,None,130.6187211999786,None,,,,,,,11041,001,2024_Mar_15_1421,ANT,2021.2.3,59.816411457765994,
1,15,center,down,IC,L,,,,,,Block.xlsx,"你已经完成了第一个实验区组

请稍作休息


点击空格键进入下一个区组。",0,50,-1.5,left,RRLRR.png,,,,,0,0,0,0,1,5,29,14,,,,,,,,,,,,,,,,,,,,,,,,,,,,,,,,,,,,,,,,,,,,,,,,,,,,,,,,,,,,,,,,131.01916119997622,131.42037199996412,131.4039961999515,131.50411959999474,131.90440979995765,None,left,1,0.6195085000363179,131.90440979995765,None,131.4039961999515,131.50411959999474,131.50411959999474,None,132.53807399998186,None,,,,,,,11041,001,2024_Mar_15_1421,ANT,2021.2.3,59.816411457765994,
1,8,no,down,IC,R,,,,,,Block.xlsx,"你已经完成了第一个实验区组

请稍作休息


点击空格键进入下一个区组。",50,0,-1.5,right,LLRLL.png,,,,,0,0,0,0,1,6,30,7,,,,,,,,,,,,,,,,,,,,,,,,,,,,,,,,,,,,,,,,,,,,,,,,,,,,,,,,,,,,,,,,132.93906829995103,133.3404862000025,133.32284839998465,133.4233838999644,133.82358619995648,None,right,1,0.540368199988734,133.82358619995648,None,133.32284839998465,133.4233838999644,133.4233838999644,None,134.3909993999987,None,,,,,,,11041,001,2024_Mar_15_1421,ANT,2021.2.3,59.816411457765994,
1,19,spatial,up,IC,L,,,,,,Block.xlsx,"你已经完成了第一个实验区组

请稍作休息


点击空格键进入下一个区组。",1.5,0,1.5,left,RRLRR.png,,,,,0,0,0,0,1,7,31,18,,,,,,,,,,,,,,,,,,,,,,,,,,,,,,,,,,,,,,,,,,,,,,,,,,,,,,,,,,,,,,,,134.79228019999573,135.19204599998193,135.17543949995888,135.27613119996386,135.67731609998737,None,left,1,0.4144471000181511,135.67731609998737,None,135.17543949995888,135.27613119996386,135.27613119996386,None,136.1103693000041,None,,,,,,,11041,001,2024_Mar_15_1421,ANT,2021.2.3,59.816411457765994,
1,6,no,down,C,R,,,,,,Block.xlsx,"你已经完成了第一个实验区组

请稍作休息


点击空格键进入下一个区组。",50,0,-1.5,right,RRRRR.png,,,,,0,0,0,0,1,8,32,5,,,,,,,,,,,,,,,,,,,,,,,,,,,,,,,,,,,,,,,,,,,,,,,,,,,,,,,,,,,,,,,,136.51087469997583,136.91151009994792,136.89474789996166,136.99551249999786,137.39549899997655,None,right,1,0.6321953000151552,137.39549899997655,None,136.89474789996166,136.99551249999786,136.99551249999786,None,138.04652019997593,None,,,,,,,11041,001,2024_Mar_15_1421,ANT,2021.2.3,59.816411457765994,
1,24,spatial,down,IC,R,,,,,,Block.xlsx,"你已经完成了第一个实验区组

请稍作休息


点击空格键进入下一个区组。",-1.5,0,-1.5,right,LLRLL.png,,,,,0,0,0,0,1,9,33,23,,,,,,,,,,,,,,,,,,,,,,,,,,,,,,,,,,,,,,,,,,,,,,,,,,,,,,,,,,,,,,,,138.447285000002,138.8475247999886,138.83117439999478,138.93160809995607,139.33187799999723,None,left,0,0.3677952999714762,139.33187799999723,None,138.83117439999478,138.93160809995607,138.93160809995607,None,139.7156849000021,None,,,,,,,11041,001,2024_Mar_15_1421,ANT,2021.2.3,59.816411457765994,
1,16,center,down,IC,R,,,,,,Block.xlsx,"你已经完成了第一个实验区组

请稍作休息


点击空格键进入下一个区组。",0,50,-1.5,right,LLRLL.png,,,,,0,0,0,0,1,10,34,15,,,,,,,,,,,,,,,,,,,,,,,,,,,,,,,,,,,,,,,,,,,,,,,,,,,,,,,,,,,,,,,,140.11626739997882,140.51760079996893,140.5001471999567,140.60027539997827,141.00182769994717,None,right,1,0.49026960000628605,141.00182769994717,None,140.5001471999567,140.60027539997827,140.60027539997827,None,141.51841159997275,None,,,,,,,11041,001,2024_Mar_15_1421,ANT,2021.2.3,59.816411457765994,
1,23,spatial,down,IC,L,,,,,,Block.xlsx,"你已经完成了第一个实验区组

请稍作休息


点击空格键进入下一个区组。",-1.5,0,-1.5,left,RRLRR.png,,,,,0,0,0,0,1,11,35,22,,,,,,,,,,,,,,,,,,,,,,,,,,,,,,,,,,,,,,,,,,,,,,,,,,,,,,,,,,,,,,,,141.91897889995016,142.32065909996163,142.30319779994898,142.4031330999569,142.80404849996557,None,left,1,0.47204249998321757,142.80404849996557,None,142.30319779994898,142.4031330999569,142.4031330999569,None,143.30445419996977,None,,,,,,,11041,001,2024_Mar_15_1421,ANT,2021.2.3,59.816411457765994,
1,2,no,up,C,R,,,,,,Block.xlsx,"你已经完成了第一个实验区组

请稍作休息


点击空格键进入下一个区组。",50,0,1.5,right,RRRRR.png,,,,,0,0,0,0,1,12,36,1,,,,,,,,,,,,,,,,,,,,,,,,,,,,,,,,,,,,,,,,,,,,,,,,,,,,,,,,,,,,,,,,143.7050992999575,144.10657549998723,144.08901049999986,144.1890352999908,144.5906920999987,None,right,1,0.5412429999560118,144.5906920999987,None,144.08901049999986,144.1890352999908,144.1890352999908,None,145.15722739999183,None,,,,,,,11041,001,2024_Mar_15_1421,ANT,2021.2.3,59.816411457765994,
1,23,spatial,down,IC,L,,,,,,Block.xlsx,"你已经完成了第一个实验区组

请稍作休息


点击空格键进入下一个区组。",-1.5,0,-1.5,left,RRLRR.png,,,,,0,0,0,0,1,13,37,22,,,,,,,,,,,,,,,,,,,,,,,,,,,,,,,,,,,,,,,,,,,,,,,,,,,,,,,,,,,,,,,,145.55868929997087,145.95887360000052,145.94266349996906,146.0419961999869,146.4431430999539,None,left,1,0.4011039999895729,146.4431430999539,None,145.94266349996906,146.0419961999869,146.0419961999869,None,146.85976759996265,None,,,,,,,11041,001,2024_Mar_15_1421,ANT,2021.2.3,59.816411457765994,
1,3,no,up,IC,L,,,,,,Block.xlsx,"你已经完成了第一个实验区组

请稍作休息


点击空格键进入下一个区组。",50,0,1.5,left,RRLRR.png,,,,,0,0,0,0,1,14,38,2,,,,,,,,,,,,,,,,,,,,,,,,,,,,,,,,,,,,,,,,,,,,,,,,,,,,,,,,,,,,,,,,147.26054339995608,147.6608472999651,147.64476129994728,147.744672300003,148.14613359997747,None,left,1,0.6420203999732621,148.14613359997747,None,147.64476129994728,147.744672300003,147.744672300003,None,148.8126344999764,None,,,,,,,11041,001,2024_Mar_15_1421,ANT,2021.2.3,59.816411457765994,
1,18,spatial,up,C,R,,,,,,Block.xlsx,"你已经完成了第一个实验区组

请稍作休息


点击空格键进入下一个区组。",1.5,0,1.5,right,RRRRR.png,,,,,0,0,0,0,1,15,39,17,,,,,,,,,,,,,,,,,,,,,,,,,,,,,,,,,,,,,,,,,,,,,,,,,,,,,,,,,,,,,,,,149.21331289998489,149.6153199999826,149.5973961999989,149.69742329994915,150.0985601999564,None,right,1,0.4897488999995403,150.0985601999564,None,149.5973961999989,149.69742329994915,149.69742329994915,None,150.61531889997423,None,,,,,,,11041,001,2024_Mar_15_1421,ANT,2021.2.3,59.816411457765994,
1,23,spatial,down,IC,L,,,,,,Block.xlsx,"你已经完成了第一个实验区组

请稍作休息


点击空格键进入下一个区组。",-1.5,0,-1.5,left,RRLRR.png,,,,,0,0,0,0,1,16,40,22,,,,,,,,,,,,,,,,,,,,,,,,,,,,,,,,,,,,,,,,,,,,,,,,,,,,,,,,,,,,,,,,151.01634360000025,151.4179345999728,151.39997519995086,151.49992759997258,151.9019783999538,None,left,1,0.35039019997930154,151.9019783999538,None,151.39997519995086,151.49992759997258,151.49992759997258,None,152.284692599962,None,,,,,,,11041,001,2024_Mar_15_1421,ANT,2021.2.3,59.816411457765994,
1,10,center,up,C,R,,,,,,Block.xlsx,"你已经完成了第一个实验区组

请稍作休息


点击空格键进入下一个区组。",0,50,1.5,right,RRRRR.png,,,,,0,0,0,0,1,17,41,9,,,,,,,,,,,,,,,,,,,,,,,,,,,,,,,,,,,,,,,,,,,,,,,,,,,,,,,,,,,,,,,,152.68518649996258,153.0868820999749,153.06947429996217,153.16967769997427,153.57001769996714,None,right,1,0.3942912999773398,153.57001769996714,None,153.06947429996217,153.16967769997427,153.16967769997427,None,153.98715599998832,None,,,,,,,11041,001,2024_Mar_15_1421,ANT,2021.2.3,59.816411457765994,
1,23,spatial,down,IC,L,,,,,,Block.xlsx,"你已经完成了第一个实验区组

请稍作休息


点击空格键进入下一个区组。",-1.5,0,-1.5,left,RRLRR.png,,,,,0,0,0,0,1,18,42,22,,,,,,,,,,,,,,,,,,,,,,,,,,,,,,,,,,,,,,,,,,,,,,,,,,,,,,,,,,,,,,,,154.38794399995822,154.78859379998175,154.77295309997862,154.87207449995913,155.27261659997748,None,left,1,0.3875423999852501,155.27261659997748,None,154.77295309997862,154.87207449995913,154.87207449995913,None,155.68984929996077,None,,,,,,,11041,001,2024_Mar_15_1421,ANT,2021.2.3,59.816411457765994,
1,17,spatial,up,C,L,,,,,,Block.xlsx,"你已经完成了第一个实验区组

请稍作休息


点击空格键进入下一个区组。",1.5,0,1.5,left,LLLLL.png,,,,,0,0,0,0,1,19,43,16,,,,,,,,,,,,,,,,,,,,,,,,,,,,,,,,,,,,,,,,,,,,,,,,,,,,,,,,,,,,,,,,156.09053899999708,156.49085020000348,156.47585399996024,156.57564929994987,156.97511069994653,None,left,1,0.4852523999870755,156.97511069994653,None,156.47585399996024,156.57564929994987,156.57564929994987,None,157.475762499962,None,,,,,,,11041,001,2024_Mar_15_1421,ANT,2021.2.3,59.816411457765994,
1,9,center,up,C,L,,,,,,Block.xlsx,"你已经完成了第一个实验区组

请稍作休息


点击空格键进入下一个区组。",0,50,1.5,left,LLLLL.png,,,,,0,0,0,0,1,20,44,8,,,,,,,,,,,,,,,,,,,,,,,,,,,,,,,,,,,,,,,,,,,,,,,,,,,,,,,,,,,,,,,,157.87648360000458,158.2771126999869,158.2603347999975,158.36036779999267,158.76163139997516,None,left,1,0.43477200000779703,158.76163139997516,None,158.2603347999975,158.36036779999267,158.36036779999267,None,159.2115009999834,None,,,,,,,11041,001,2024_Mar_15_1421,ANT,2021.2.3,59.816411457765994,
1,11,center,up,IC,L,,,,,,Block.xlsx,"你已经完成了第一个实验区组

请稍作休息


点击空格键进入下一个区组。",0,50,1.5,left,RRLRR.png,,,,,0,0,0,0,1,21,45,10,,,,,,,,,,,,,,,,,,,,,,,,,,,,,,,,,,,,,,,,,,,,,,,,,,,,,,,,,,,,,,,,159.61242929997388,160.0131784999976,159.99693829996977,160.0970639999723,160.49751909996849,None,left,1,0.49852359999204054,160.49751909996849,None,159.99693829996977,160.0970639999723,160.0970639999723,None,161.0145023999503,None,,,,,,,11041,001,2024_Mar_15_1421,ANT,2021.2.3,59.816411457765994,
1,4,no,up,IC,R,,,,,,Block.xlsx,"你已经完成了第一个实验区组

请稍作休息


点击空格键进入下一个区组。",50,0,1.5,right,LLRLL.png,,,,,0,0,0,0,1,22,46,3,,,,,,,,,,,,,,,,,,,,,,,,,,,,,,,,,,,,,,,,,,,,,,,,,,,,,,,,,,,,,,,,161.4148881000001,161.81622969999444,161.8001307999948,161.90018070000224,162.29977899999358,None,right,1,0.47255330003099516,162.29977899999358,None,161.8001307999948,161.90018070000224,161.90018070000224,None,162.80048019997776,None,,,,,,,11041,001,2024_Mar_15_1421,ANT,2021.2.3,59.816411457765994,
1,9,center,up,C,L,,,,,,Block.xlsx,"你已经完成了第一个实验区组

请稍作休息


点击空格键进入下一个区组。",0,50,1.5,left,LLLLL.png,,,,,0,0,0,0,1,23,47,8,,,,,,,,,,,,,,,,,,,,,,,,,,,,,,,,,,,,,,,,,,,,,,,,,,,,,,,,,,,,,,,,163.20106949994806,163.6022258999874,163.5851840999676,163.68521189998137,164.0879529999802,None,left,1,0.42829940002411604,164.0879529999802,None,163.5851840999676,163.68521189998137,163.68521189998137,None,164.53626609995263,None,,,,,,,11041,001,2024_Mar_15_1421,ANT,2021.2.3,59.816411457765994,
1,13,center,down,C,L,,,,,,Block.xlsx,"你已经完成了第一个实验区组

请稍作休息


点击空格键进入下一个区组。",0,50,-1.5,left,LLLLL.png,,,,,0,0,0,0,2,0,48,12,,,,,,,,,,,,,,,,,,,,,,,,,,,,,,,,,,,,,,,,,,,,,,,,,,,,,,,,,,,,,,,,164.93688120000297,165.33789669995895,165.32229799998458,165.43823879997944,165.82263059995603,None,left,1,0.5504602000000887,165.82263059995603,None,165.32229799998458,165.43823879997944,165.42101649998222,None,166.38912989996606,None,,,,,,,11041,001,2024_Mar_15_1421,ANT,2021.2.3,59.816411457765994,
1,15,center,down,IC,L,,,,,,Block.xlsx,"你已经完成了第一个实验区组

请稍作休息


点击空格键进入下一个区组。",0,50,-1.5,left,RRLRR.png,,,,,0,0,0,0,2,1,49,14,,,,,,,,,,,,,,,,,,,,,,,,,,,,,,,,,,,,,,,,,,,,,,,,,,,,,,,,,,,,,,,,166.78991609998047,167.19124769995688,167.1737752999761,167.27486059995135,167.67469139996683,None,left,1,0.5859272999805398,167.67469139996683,None,167.1737752999761,167.27486059995135,167.27486059995135,None,168.29207029996905,None,,,,,,,11041,001,2024_Mar_15_1421,ANT,2021.2.3,59.816411457765994,
1,19,spatial,up,IC,L,,,,,,Block.xlsx,"你已经完成了第一个实验区组

请稍作休息


点击空格键进入下一个区组。",1.5,0,1.5,left,RRLRR.png,,,,,0,0,0,0,2,2,50,18,,,,,,,,,,,,,,,,,,,,,,,,,,,,,,,,,,,,,,,,,,,,,,,,,,,,,,,,,,,,,,,,168.69277029996738,169.0938645999995,169.07716220000293,169.17720169998938,169.57734039996285,None,left,1,0.46769369998946786,169.57734039996285,None,169.07716220000293,169.17720169998938,169.17720169998938,None,170.06137650000164,None,,,,,,,11041,001,2024_Mar_15_1421,ANT,2021.2.3,59.816411457765994,
1,12,center,up,IC,R,,,,,,Block.xlsx,"你已经完成了第一个实验区组

请稍作休息


点击空格键进入下一个区组。",0,50,1.5,right,LLRLL.png,,,,,0,0,0,0,2,3,51,11,,,,,,,,,,,,,,,,,,,,,,,,,,,,,,,,,,,,,,,,,,,,,,,,,,,,,,,,,,,,,,,,170.4619645999628,170.86315699998522,170.8460352999973,170.94594389997656,171.3471894999966,None,right,1,0.5454780000145547,171.3471894999966,None,170.8460352999973,170.94594389997656,170.94594389997656,None,171.9141079999972,None,,,,,,,11041,001,2024_Mar_15_1421,ANT,2021.2.3,59.816411457765994,
1,6,no,down,C,R,,,,,,Block.xlsx,"你已经完成了第一个实验区组

请稍作休息


点击空格键进入下一个区组。",50,0,-1.5,right,RRRRR.png,,,,,0,0,0,0,2,4,52,5,,,,,,,,,,,,,,,,,,,,,,,,,,,,,,,,,,,,,,,,,,,,,,,,,,,,,,,,,,,,,,,,172.31524209998315,172.7154824999743,172.699573699967,172.7995227999636,173.19974650000222,None,right,1,0.5412878000061028,173.19974650000222,None,172.699573699967,172.7995227999636,172.7995227999636,None,173.76713969995035,None,,,,,,,11041,001,2024_Mar_15_1421,ANT,2021.2.3,59.816411457765994,
1,16,center,down,IC,R,,,,,,Block.xlsx,"你已经完成了第一个实验区组

请稍作休息


点击空格键进入下一个区组。",0,50,-1.5,right,LLRLL.png,,,,,0,0,0,0,2,5,53,15,,,,,,,,,,,,,,,,,,,,,,,,,,,,,,,,,,,,,,,,,,,,,,,,,,,,,,,,,,,,,,,,174.167604999966,174.5683153999853,174.55342939996626,174.66871549998177,175.05383349995827,None,right,1,0.6555202000308782,175.05383349995827,None,174.55342939996626,174.66871549998177,174.6529920999892,None,175.73658149997937,None,,,,,,,11041,001,2024_Mar_15_1421,ANT,2021.2.3,59.816411457765994,
1,16,center,down,IC,R,,,,,,Block.xlsx,"你已经完成了第一个实验区组

请稍作休息


点击空格键进入下一个区组。",0,50,-1.5,right,LLRLL.png,,,,,0,0,0,0,2,6,54,15,,,,,,,,,,,,,,,,,,,,,,,,,,,,,,,,,,,,,,,,,,,,,,,,,,,,,,,,,,,,,,,,176.13842079997994,176.53833329997724,176.521069099952,176.622596399975,177.02190749999136,None,right,1,0.46300809999229386,177.02190749999136,None,176.521069099952,176.622596399975,176.622596399975,None,177.50607509998372,None,,,,,,,11041,001,2024_Mar_15_1421,ANT,2021.2.3,59.816411457765994,
1,20,spatial,up,IC,R,,,,,,Block.xlsx,"你已经完成了第一个实验区组

请稍作休息


点击空格键进入下一个区组。",1.5,0,1.5,right,LLRLL.png,,,,,0,0,0,0,2,7,55,19,,,,,,,,,,,,,,,,,,,,,,,,,,,,,,,,,,,,,,,,,,,,,,,,,,,,,,,,,,,,,,,,177.90651149995392,178.3077308999491,178.29035569995176,178.3911678000004,178.791476399987,None,right,1,0.46925460000056773,178.791476399987,None,178.29035569995176,178.3911678000004,178.3911678000004,None,179.29192930000136,None,,,,,,,11041,001,2024_Mar_15_1421,ANT,2021.2.3,59.816411457765994,
1,12,center,up,IC,R,,,,,,Block.xlsx,"你已经完成了第一个实验区组

请稍作休息


点击空格键进入下一个区组。",0,50,1.5,right,LLRLL.png,,,,,0,0,0,0,2,8,56,11,,,,,,,,,,,,,,,,,,,,,,,,,,,,,,,,,,,,,,,,,,,,,,,,,,,,,,,,,,,,,,,,179.69268429995282,180.09317659999942,180.07647719996748,180.17718649999006,180.57841439999174,None,right,1,0.5468783999676816,180.57841439999174,None,180.07647719996748,180.17718649999006,180.17718649999006,None,181.1448377999477,None,,,,,,,11041,001,2024_Mar_15_1421,ANT,2021.2.3,59.816411457765994,
1,14,center,down,C,R,,,,,,Block.xlsx,"你已经完成了第一个实验区组

请稍作休息


点击空格键进入下一个区组。",0,50,-1.5,right,RRRRR.png,,,,,0,0,0,0,2,9,57,13,,,,,,,,,,,,,,,,,,,,,,,,,,,,,,,,,,,,,,,,,,,,,,,,,,,,,,,,,,,,,,,,181.54548239998985,181.9459552000044,181.92971090000356,182.0295172999613,182.43011779995868,None,right,1,0.5186553000239655,182.43011779995868,None,181.92971090000356,182.0295172999613,182.0295172999613,None,182.96424569998635,None,,,,,,,11041,001,2024_Mar_15_1421,ANT,2021.2.3,59.816411457765994,
1,15,center,down,IC,L,,,,,,Block.xlsx,"你已经完成了第一个实验区组

请稍作休息


点击空格键进入下一个区组。",0,50,-1.5,left,RRLRR.png,,,,,0,0,0,0,2,10,58,14,,,,,,,,,,,,,,,,,,,,,,,,,,,,,,,,,,,,,,,,,,,,,,,,,,,,,,,,,,,,,,,,183.36488029995235,183.7661033999757,183.74881019996246,183.85085549997166,184.24986449995777,None,left,1,0.6591846999945119,184.24986449995777,None,183.74881019996246,183.85085549997166,183.85085549997166,None,184.93381789996056,None,,,,,,,11041,001,2024_Mar_15_1421,ANT,2021.2.3,59.816411457765994,
1,18,spatial,up,C,R,,,,,,Block.xlsx,"你已经完成了第一个实验区组

请稍作休息


点击空格键进入下一个区组。",1.5,0,1.5,right,RRRRR.png,,,,,0,0,0,0,2,11,59,17,,,,,,,,,,,,,,,,,,,,,,,,,,,,,,,,,,,,,,,,,,,,,,,,,,,,,,,,,,,,,,,,185.33449989999644,185.735813999956,185.71844189998228,185.81912849994842,186.21916919999057,None,right,1,0.3696908999700099,186.21916919999057,None,185.71844189998228,185.81912849994842,185.81912849994842,None,186.61975709995022,None,,,,,,,11041,001,2024_Mar_15_1421,ANT,2021.2.3,59.816411457765994,
1,20,spatial,up,IC,R,,,,,,Block.xlsx,"你已经完成了第一个实验区组

请稍作休息


点击空格键进入下一个区组。",1.5,0,1.5,right,LLRLL.png,,,,,0,0,0,0,2,12,60,19,,,,,,,,,,,,,,,,,,,,,,,,,,,,,,,,,,,,,,,,,,,,,,,,,,,,,,,,,,,,,,,,187.02033109997865,187.42089539999142,187.4059971999959,187.50429779995466,187.90508840000257,None,right,1,0.43588659999659285,187.90508840000257,None,187.4059971999959,187.50429779995466,187.50429779995466,None,188.3722703999956,None,,,,,,,11041,001,2024_Mar_15_1421,ANT,2021.2.3,59.816411457765994,
1,5,no,down,C,L,,,,,,Block.xlsx,"你已经完成了第一个实验区组

请稍作休息


点击空格键进入下一个区组。",50,0,-1.5,left,LLLLL.png,,,,,0,0,0,0,2,13,61,4,,,,,,,,,,,,,,,,,,,,,,,,,,,,,,,,,,,,,,,,,,,,,,,,,,,,,,,,,,,,,,,,188.77305719995638,189.1735262000002,189.15689329995075,189.25744659994962,189.65761999995448,None,left,1,0.5317109999596141,189.65761999995448,None,189.15689329995075,189.25744659994962,189.25744659994962,None,190.20855629997095,None,,,,,,,11041,001,2024_Mar_15_1421,ANT,2021.2.3,59.816411457765994,
1,4,no,up,IC,R,,,,,,Block.xlsx,"你已经完成了第一个实验区组

请稍作休息


点击空格键进入下一个区组。",50,0,1.5,right,LLRLL.png,,,,,0,0,0,0,2,14,62,3,,,,,,,,,,,,,,,,,,,,,,,,,,,,,,,,,,,,,,,,,,,,,,,,,,,,,,,,,,,,,,,,190.60886379994918,191.00964049994946,190.99335679999785,191.0932798999711,191.49524389998987,None,right,1,0.5416810999740846,191.49524389998987,None,190.99335679999785,191.0932798999711,191.0932798999711,None,192.0612259999616,None,,,,,,,11041,001,2024_Mar_15_1421,ANT,2021.2.3,59.816411457765994,
1,2,no,up,C,R,,,,,,Block.xlsx,"你已经完成了第一个实验区组

请稍作休息


点击空格键进入下一个区组。",50,0,1.5,right,RRRRR.png,,,,,0,0,0,0,2,15,63,1,,,,,,,,,,,,,,,,,,,,,,,,,,,,,,,,,,,,,,,,,,,,,,,,,,,,,,,,,,,,,,,,192.4618041999638,192.86333889997331,192.84574429999338,192.9459558999515,193.34739609999815,None,right,1,0.5220491000218317,193.34739609999815,None,192.84574429999338,192.9459558999515,192.9459558999515,None,193.89759149996098,None,,,,,,,11041,001,2024_Mar_15_1421,ANT,2021.2.3,59.816411457765994,
1,14,center,down,C,R,,,,,,Block.xlsx,"你已经完成了第一个实验区组

请稍作休息


点击空格键进入下一个区组。",0,50,-1.5,right,RRRRR.png,,,,,0,0,0,0,2,16,64,13,,,,,,,,,,,,,,,,,,,,,,,,,,,,,,,,,,,,,,,,,,,,,,,,,,,,,,,,,,,,,,,,194.2978811999783,194.69992439995985,194.68209789996035,194.7832788999658,195.1830035999883,None,right,1,0.49435039999661967,195.1830035999883,None,194.68209789996035,194.7832788999658,194.7832788999658,None,195.6998093999573,None,,,,,,,11041,001,2024_Mar_15_1421,ANT,2021.2.3,59.816411457765994,
1,6,no,down,C,R,,,,,,Block.xlsx,"你已经完成了第一个实验区组

请稍作休息


点击空格键进入下一个区组。",50,0,-1.5,right,RRRRR.png,,,,,0,0,0,0,2,17,65,5,,,,,,,,,,,,,,,,,,,,,,,,,,,,,,,,,,,,,,,,,,,,,,,,,,,,,,,,,,,,,,,,196.10072649997892,196.50193739996757,196.48591269995086,196.58479369996348,196.98728289996507,None,right,1,0.4663666000124067,196.98728289996507,None,196.48591269995086,196.58479369996348,196.58479369996348,None,197.46943649998866,None,,,,,,,11041,001,2024_Mar_15_1421,ANT,2021.2.3,59.816411457765994,
1,21,spatial,down,C,L,,,,,,Block.xlsx,"你已经完成了第一个实验区组

请稍作休息


点击空格键进入下一个区组。",-1.5,0,-1.5,left,LLLLL.png,,,,,0,0,0,0,2,18,66,20,,,,,,,,,,,,,,,,,,,,,,,,,,,,,,,,,,,,,,,,,,,,,,,,,,,,,,,,,,,,,,,,197.870034499967,198.27194159995997,198.2542121000006,198.35603129997617,198.754800900002,None,left,1,0.39441780000925064,198.754800900002,None,198.2542121000006,198.35603129997617,198.35603129997617,None,199.1720568999881,None,,,,,,,11041,001,2024_Mar_15_1421,ANT,2021.2.3,59.816411457765994,
1,1,no,up,C,L,,,,,,Block.xlsx,"你已经完成了第一个实验区组

请稍作休息


点击空格键进入下一个区组。",50,0,1.5,left,LLLLL.png,,,,,0,0,0,0,2,19,67,0,,,,,,,,,,,,,,,,,,,,,,,,,,,,,,,,,,,,,,,,,,,,,,,,,,,,,,,,,,,,,,,,199.5722906999872,199.9740099000046,199.95660909998696,200.056766099995,200.45736519998172,None,left,1,0.4920941000455059,200.45736519998172,None,199.95660909998696,200.056766099995,200.056766099995,None,200.97475809999742,None,,,,,,,11041,001,2024_Mar_15_1421,ANT,2021.2.3,59.816411457765994,
1,5,no,down,C,L,,,,,,Block.xlsx,"你已经完成了第一个实验区组

请稍作休息


点击空格键进入下一个区组。",50,0,-1.5,left,LLLLL.png,,,,,0,0,0,0,2,20,68,4,,,,,,,,,,,,,,,,,,,,,,,,,,,,,,,,,,,,,,,,,,,,,,,,,,,,,,,,,,,,,,,,201.3751458999468,201.77588989998912,201.76032529998338,201.85942219995195,202.2607068999787,None,left,1,0.4967666000011377,202.2607068999787,None,201.76032529998338,201.85942219995195,201.85942219995195,None,202.77732479997212,None,,,,,,,11041,001,2024_Mar_15_1421,ANT,2021.2.3,59.816411457765994,
1,8,no,down,IC,R,,,,,,Block.xlsx,"你已经完成了第一个实验区组

请稍作休息


点击空格键进入下一个区组。",50,0,-1.5,right,LLRLL.png,,,,,0,0,0,0,2,21,69,7,,,,,,,,,,,,,,,,,,,,,,,,,,,,,,,,,,,,,,,,,,,,,,,,,,,,,,,,,,,,,,,,203.17798629996832,203.58059849997517,203.56252489995677,203.66247849998763,204.06398269999772,None,right,1,0.5895474000135437,204.06398269999772,None,203.56252489995677,203.66247849998763,203.66247849998763,None,204.68010830000276,None,,,,,,,11041,001,2024_Mar_15_1421,ANT,2021.2.3,59.816411457765994,
1,12,center,up,IC,R,,,,,,Block.xlsx,"你已经完成了第一个实验区组

请稍作休息


点击空格键进入下一个区组。",0,50,1.5,right,LLRLL.png,,,,,0,0,0,0,2,22,70,11,,,,,,,,,,,,,,,,,,,,,,,,,,,,,,,,,,,,,,,,,,,,,,,,,,,,,,,,,,,,,,,,205.08074439998018,205.48272579995682,205.46483889996307,205.56513469998026,205.96649279998383,None,right,1,0.542888599971775,205.96649279998383,None,205.46483889996307,205.56513469998026,205.56513469998026,None,206.53281049994985,None,,,,,,,11041,001,2024_Mar_15_1421,ANT,2021.2.3,59.816411457765994,
1,14,center,down,C,R,,,,,,Block.xlsx,"你已经完成了第一个实验区组

请稍作休息


点击空格键进入下一个区组。",0,50,-1.5,right,RRRRR.png,,,,,0,0,0,0,2,23,71,13,,,,,,,,,,,,,,,,,,,,,,,,,,,,,,,,,,,,,,,,,,,,,,,,,,,,,,,,,,,,,,,,206.93382849998306,207.33485210000072,207.3175619999529,207.41884509997908,207.81837009999435,None,right,1,0.507146299991291,207.81837009999435,None,207.3175619999529,207.41884509997908,207.41884509997908,None,208.35237399995094,None,,,,,,,11041,001,2024_Mar_15_1421,ANT,2021.2.3,59.816411457765994,
1,15,center,down,IC,L,,,,,,Block.xlsx,"你已经完成了第一个实验区组

请稍作休息


点击空格键进入下一个区组。",0,50,-1.5,left,RRLRR.png,,,,,0,0,0,0,3,0,72,14,,,,,,,,,,,,,,,,,,,,,,,,,,,,,,,,,,,,,,,,,,,,,,,,,,,,,,,,,,,,,,,,208.75295759999426,209.15414409997175,209.1368638999993,209.2372770999791,209.63813909998862,None,right,0,0.4394221000256948,209.63813909998862,None,209.1368638999993,209.2372770999791,209.2372770999791,None,210.1050808999571,None,,,,,,,11041,001,2024_Mar_15_1421,ANT,2021.2.3,59.816411457765994,
1,18,spatial,up,C,R,,,,,,Block.xlsx,"你已经完成了第一个实验区组

请稍作休息


点击空格键进入下一个区组。",1.5,0,1.5,right,RRRRR.png,,,,,0,0,0,0,3,1,73,17,,,,,,,,,,,,,,,,,,,,,,,,,,,,,,,,,,,,,,,,,,,,,,,,,,,,,,,,,,,,,,,,210.50569149997318,210.90702139999485,210.89179379999405,211.00703099998645,211.39074149995577,None,right,1,0.3989892000099644,211.39074149995577,None,210.89179379999405,211.00703099998645,210.9899528999813,None,211.80769869999494,None,,,,,,,11041,001,2024_Mar_15_1421,ANT,2021.2.3,59.816411457765994,
1,24,spatial,down,IC,R,,,,,,Block.xlsx,"你已经完成了第一个实验区组

请稍作休息


点击空格键进入下一个区组。",-1.5,0,-1.5,right,LLRLL.png,,,,,0,0,0,0,3,2,74,23,,,,,,,,,,,,,,,,,,,,,,,,,,,,,,,,,,,,,,,,,,,,,,,,,,,,,,,,,,,,,,,,212.20838769996772,212.61039649997838,212.59215849998873,212.6932985999738,213.09350560000166,None,right,1,0.4805877000326291,213.09350560000166,None,212.59215849998873,212.6932985999738,212.6932985999738,None,213.5937755999621,None,,,,,,,11041,001,2024_Mar_15_1421,ANT,2021.2.3,59.816411457765994,
1,10,center,up,C,R,,,,,,Block.xlsx,"你已经完成了第一个实验区组

请稍作休息


点击空格键进入下一个区组。",0,50,1.5,right,RRRRR.png,,,,,0,0,0,0,3,3,75,9,,,,,,,,,,,,,,,,,,,,,,,,,,,,,,,,,,,,,,,,,,,,,,,,,,,,,,,,,,,,,,,,213.99433839996345,214.39560409996193,214.37832129996968,214.47828049998498,214.87896669999463,None,right,1,0.5269010000047274,214.87896669999463,None,214.37832129996968,214.47828049998498,214.47828049998498,None,215.42978129995754,None,,,,,,,11041,001,2024_Mar_15_1421,ANT,2021.2.3,59.816411457765994,
1,6,no,down,C,R,,,,,,Block.xlsx,"你已经完成了第一个实验区组

请稍作休息


点击空格键进入下一个区组。",50,0,-1.5,right,RRRRR.png,,,,,0,0,0,0,3,4,76,5,,,,,,,,,,,,,,,,,,,,,,,,,,,,,,,,,,,,,,,,,,,,,,,,,,,,,,,,,,,,,,,,215.83049819996813,216.23107089998666,216.21470139996381,216.31456379999872,216.7164633999928,None,right,1,0.6254342999891378,216.7164633999928,None,216.21470139996381,216.31456379999872,216.31456379999872,None,217.36594439996406,None,,,,,,,11041,001,2024_Mar_15_1421,ANT,2021.2.3,59.816411457765994,
1,10,center,up,C,R,,,,,,Block.xlsx,"你已经完成了第一个实验区组

请稍作休息


点击空格键进入下一个区组。",0,50,1.5,right,RRRRR.png,,,,,0,0,0,0,3,5,77,9,,,,,,,,,,,,,,,,,,,,,,,,,,,,,,,,,,,,,,,,,,,,,,,,,,,,,,,,,,,,,,,,217.7669048999669,218.16732549999142,218.15053689997876,218.25069479999365,218.6517571999575,None,right,1,0.5145195000222884,218.6517571999575,None,218.15053689997876,218.25069479999365,218.25069479999365,None,219.18574589997297,None,,,,,,,11041,001,2024_Mar_15_1421,ANT,2021.2.3,59.816411457765994,
1,1,no,up,C,L,,,,,,Block.xlsx,"你已经完成了第一个实验区组

请稍作休息


点击空格键进入下一个区组。",50,0,1.5,left,LLLLL.png,,,,,0,0,0,0,3,6,78,0,,,,,,,,,,,,,,,,,,,,,,,,,,,,,,,,,,,,,,,,,,,,,,,,,,,,,,,,,,,,,,,,219.58602069999324,219.98769019998144,219.97005149995675,220.070347699977,220.47068519995082,None,left,1,0.5832318000029773,220.47068519995082,None,219.97005149995675,220.070347699977,220.070347699977,None,221.07166610000422,None,,,,,,,11041,001,2024_Mar_15_1421,ANT,2021.2.3,59.816411457765994,
1,17,spatial,up,C,L,,,,,,Block.xlsx,"你已经完成了第一个实验区组

请稍作休息


点击空格键进入下一个区组。",1.5,0,1.5,left,LLLLL.png,,,,,0,0,0,0,3,7,79,16,,,,,,,,,,,,,,,,,,,,,,,,,,,,,,,,,,,,,,,,,,,,,,,,,,,,,,,,,,,,,,,,221.47224599996116,221.8744379999698,221.8561698999838,221.95696119999047,222.35706670000218,None,left,1,0.39291319996118546,222.35706670000218,None,221.8561698999838,221.95696119999047,221.95696119999047,None,222.77426119998563,None,,,,,,,11041,001,2024_Mar_15_1421,ANT,2021.2.3,59.816411457765994,
1,24,spatial,down,IC,R,,,,,,Block.xlsx,"你已经完成了第一个实验区组

请稍作休息


点击空格键进入下一个区组。",-1.5,0,-1.5,right,LLRLL.png,,,,,0,0,0,0,3,8,80,23,,,,,,,,,,,,,,,,,,,,,,,,,,,,,,,,,,,,,,,,,,,,,,,,,,,,,,,,,,,,,,,,223.17486029997235,223.5766509999521,223.5587300999905,223.65910150000127,224.05958939995617,None,right,1,0.4584463000064716,224.05958939995617,None,223.5587300999905,223.65910150000127,223.65910150000127,None,224.5435847999761,None,,,,,,,11041,001,2024_Mar_15_1421,ANT,2021.2.3,59.816411457765994,
1,18,spatial,up,C,R,,,,,,Block.xlsx,"你已经完成了第一个实验区组

请稍作休息


点击空格键进入下一个区组。",1.5,0,1.5,right,RRRRR.png,,,,,0,0,0,0,3,9,81,17,,,,,,,,,,,,,,,,,,,,,,,,,,,,,,,,,,,,,,,,,,,,,,,,,,,,,,,,,,,,,,,,224.94412820000434,225.34522839996498,225.32889249996515,225.4281001999625,225.82866609998746,None,right,1,0.4821248999796808,225.82866609998746,None,225.32889249996515,225.4281001999625,225.4281001999625,None,226.32943889999297,None,,,,,,,11041,001,2024_Mar_15_1421,ANT,2021.2.3,59.816411457765994,
1,14,center,down,C,R,,,,,,Block.xlsx,"你已经完成了第一个实验区组

请稍作休息


点击空格键进入下一个区组。",0,50,-1.5,right,RRRRR.png,,,,,0,0,0,0,3,10,82,13,,,,,,,,,,,,,,,,,,,,,,,,,,,,,,,,,,,,,,,,,,,,,,,,,,,,,,,,,,,,,,,,226.73005419998663,227.13084609998623,227.1152912999969,227.23125640000217,227.61503109999467,None,right,1,0.5680111999972723,227.61503109999467,None,227.1152912999969,227.23125640000217,227.2150066999602,None,228.19928119995166,None,,,,,,,11041,001,2024_Mar_15_1421,ANT,2021.2.3,59.816411457765994,
1,7,no,down,IC,L,,,,,,Block.xlsx,"你已经完成了第一个实验区组

请稍作休息


点击空格键进入下一个区组。",50,0,-1.5,left,RRLRR.png,,,,,0,0,0,0,3,11,83,6,,,,,,,,,,,,,,,,,,,,,,,,,,,,,,,,,,,,,,,,,,,,,,,,,,,,,,,,,,,,,,,,228.59954179998022,229.00020819995552,228.98524499998894,229.10121639998397,229.4846367999562,None,left,1,0.5776258999831043,229.4846367999562,None,228.98524499998894,229.10121639998397,229.08381250000093,None,230.08523049997166,None,,,,,,,11041,001,2024_Mar_15_1421,ANT,2021.2.3,59.816411457765994,
1,24,spatial,down,IC,R,,,,,,Block.xlsx,"你已经完成了第一个实验区组

请稍作休息


点击空格键进入下一个区组。",-1.5,0,-1.5,right,LLRLL.png,,,,,0,0,0,0,3,12,84,23,,,,,,,,,,,,,,,,,,,,,,,,,,,,,,,,,,,,,,,,,,,,,,,,,,,,,,,,,,,,,,,,230.48614069999894,230.88753049995285,230.86987679998856,230.9698689999641,231.3704880999867,None,right,1,0.5717490999959409,231.3704880999867,None,230.86987679998856,230.9698689999641,230.9698689999641,None,231.97157509997487,None,,,,,,,11041,001,2024_Mar_15_1421,ANT,2021.2.3,59.816411457765994,
1,13,center,down,C,L,,,,,,Block.xlsx,"你已经完成了第一个实验区组

请稍作休息


点击空格键进入下一个区组。",0,50,-1.5,left,LLLLL.png,,,,,0,0,0,0,3,13,85,12,,,,,,,,,,,,,,,,,,,,,,,,,,,,,,,,,,,,,,,,,,,,,,,,,,,,,,,,,,,,,,,,232.3718802999938,232.7723829000024,232.75577419996262,232.85683259996586,233.25674199999776,None,left,1,0.5413270000135526,233.25674199999776,None,232.75577419996262,232.85683259996586,232.85683259996586,None,233.82428489997983,None,,,,,,,11041,001,2024_Mar_15_1421,ANT,2021.2.3,59.816411457765994,
1,19,spatial,up,IC,L,,,,,,Block.xlsx,"你已经完成了第一个实验区组

请稍作休息


点击空格键进入下一个区组。",1.5,0,1.5,left,RRLRR.png,,,,,0,0,0,0,3,14,86,18,,,,,,,,,,,,,,,,,,,,,,,,,,,,,,,,,,,,,,,,,,,,,,,,,,,,,,,,,,,,,,,,234.22476079995977,234.62709919997724,234.60881229996448,234.7099633999751,235.1095547999721,None,left,1,0.5127928000292741,235.1095547999721,None,234.60881229996448,234.7099633999751,234.7099633999751,None,235.64425919996575,None,,,,,,,11041,001,2024_Mar_15_1421,ANT,2021.2.3,59.816411457765994,
1,11,center,up,IC,L,,,,,,Block.xlsx,"你已经完成了第一个实验区组

请稍作休息


点击空格键进入下一个区组。",0,50,1.5,left,RRLRR.png,,,,,0,0,0,0,3,15,87,10,,,,,,,,,,,,,,,,,,,,,,,,,,,,,,,,,,,,,,,,,,,,,,,,,,,,,,,,,,,,,,,,236.04430259997025,236.44545329996618,236.42923349997727,236.52888080000412,236.93074119999073,None,left,1,0.611392299993895,236.93074119999073,None,236.42923349997727,236.52888080000412,236.52888080000412,None,237.56311459996505,None,,,,,,,11041,001,2024_Mar_15_1421,ANT,2021.2.3,59.816411457765994,
1,9,center,up,C,L,,,,,,Block.xlsx,"你已经完成了第一个实验区组

请稍作休息


点击空格键进入下一个区组。",0,50,1.5,left,LLLLL.png,,,,,0,0,0,0,3,16,88,8,,,,,,,,,,,,,,,,,,,,,,,,,,,,,,,,,,,,,,,,,,,,,,,,,,,,,,,,,,,,,,,,237.96387799998047,238.36473519995343,238.34905579994665,238.4648299999535,238.8494812999852,None,left,1,0.42093359999125823,238.8494812999852,None,238.34905579994665,238.4648299999535,238.44783289998304,None,239.29961029998958,None,,,,,,,11041,001,2024_Mar_15_1421,ANT,2021.2.3,59.816411457765994,
1,9,center,up,C,L,,,,,,Block.xlsx,"你已经完成了第一个实验区组

请稍作休息


点击空格键进入下一个区组。",0,50,1.5,left,LLLLL.png,,,,,0,0,0,0,3,17,89,8,,,,,,,,,,,,,,,,,,,,,,,,,,,,,,,,,,,,,,,,,,,,,,,,,,,,,,,,,,,,,,,,239.69982189999428,240.10126229998423,240.08406589995138,240.18442149995826,240.58446749998257,None,left,1,0.4138410000014119,240.58446749998257,None,240.08406589995138,240.18442149995826,240.18442149995826,None,241.01824079995276,None,,,,,,,11041,001,2024_Mar_15_1421,ANT,2021.2.3,59.816411457765994,
1,13,center,down,C,L,,,,,,Block.xlsx,"你已经完成了第一个实验区组

请稍作休息


点击空格键进入下一个区组。",0,50,-1.5,left,LLLLL.png,,,,,0,0,0,0,3,18,90,12,,,,,,,,,,,,,,,,,,,,,,,,,,,,,,,,,,,,,,,,,,,,,,,,,,,,,,,,,,,,,,,,241.4191073999973,241.819633099949,241.80286830000114,241.90471529995557,242.30419729999267,None,left,1,0.5503076000022702,242.30419729999267,None,241.80286830000114,241.90471529995557,241.90471529995557,None,242.8710310999886,None,,,,,,,11041,001,2024_Mar_15_1421,ANT,2021.2.3,59.816411457765994,
1,1,no,up,C,L,,,,,,Block.xlsx,"你已经完成了第一个实验区组

请稍作休息


点击空格键进入下一个区组。",50,0,1.5,left,LLLLL.png,,,,,0,0,0,0,3,19,91,0,,,,,,,,,,,,,,,,,,,,,,,,,,,,,,,,,,,,,,,,,,,,,,,,,,,,,,,,,,,,,,,,243.27199219999602,243.67238489998272,243.65732959995512,243.77300369995646,244.15650209999876,None,left,1,0.4978760999510996,244.15650209999876,None,243.65732959995512,243.77300369995646,243.75570449995575,None,244.67399280000245,None,,,,,,,11041,001,2024_Mar_15_1421,ANT,2021.2.3,59.816411457765994,
1,4,no,up,IC,R,,,,,,Block.xlsx,"你已经完成了第一个实验区组

请稍作休息


点击空格键进入下一个区组。",50,0,1.5,right,LLRLL.png,,,,,0,0,0,0,3,20,92,3,,,,,,,,,,,,,,,,,,,,,,,,,,,,,,,,,,,,,,,,,,,,,,,,,,,,,,,,,,,,,,,,245.07430509995902,245.47574649995659,245.45905769994715,245.55860509997,245.95900390000315,None,right,1,0.7120008000056259,245.95900390000315,None,245.45905769994715,245.55860509997,245.55860509997,None,246.69373309996445,None,,,,,,,11041,001,2024_Mar_15_1421,ANT,2021.2.3,59.816411457765994,
1,7,no,down,IC,L,,,,,,Block.xlsx,"你已经完成了第一个实验区组

请稍作休息


点击空格键进入下一个区组。",50,0,-1.5,left,RRLRR.png,,,,,0,0,0,0,3,21,93,6,,,,,,,,,,,,,,,,,,,,,,,,,,,,,,,,,,,,,,,,,,,,,,,,,,,,,,,,,,,,,,,,247.09419049997814,247.4947873999481,247.4783075999585,247.5787321999669,247.97874339995906,None,left,1,0.6848633000045083,247.97874339995906,None,247.4783075999585,247.5787321999669,247.5787321999669,None,248.68013829999836,None,,,,,,,11041,001,2024_Mar_15_1421,ANT,2021.2.3,59.816411457765994,
1,22,spatial,down,C,R,,,,,,Block.xlsx,"你已经完成了第一个实验区组

请稍作休息


点击空格键进入下一个区组。",-1.5,0,-1.5,right,RRRRR.png,,,,,0,0,0,0,3,22,94,21,,,,,,,,,,,,,,,,,,,,,,,,,,,,,,,,,,,,,,,,,,,,,,,,,,,,,,,,,,,,,,,,249.0803753999644,249.48104119999334,249.46445529995253,249.56651959999,249.9654972999706,None,right,1,0.42545919999247417,249.9654972999706,None,249.46445529995253,249.56651959999,249.56651959999,None,250.4158815999981,None,,,,,,,11041,001,2024_Mar_15_1421,ANT,2021.2.3,59.816411457765994,
1,22,spatial,down,C,R,,,,,,Block.xlsx,"你已经完成了第一个实验区组

请稍作休息


点击空格键进入下一个区组。",-1.5,0,-1.5,right,RRRRR.png,,,,,0,0,0,0,3,23,95,21,,,,,,,,,,,,,,,,,,,,,,,,,,,,,,,,,,,,,,,,,,,,,,,,,,,,,,,,,,,,,,,,250.81676939997124,251.21798580000177,251.20047939999495,251.30092239996884,251.70263620000333,None,right,1,0.3761578000267036,251.70263620000333,None,251.20047939999495,251.30092239996884,251.30092239996884,None,252.10175089997938,None,,,,,,,11041,001,2024_Mar_15_1421,ANT,2021.2.3,59.816411457765994,
,,,,,,,,,,,Block.xlsx,"你已经完成了第一个实验区组

请稍作休息


点击空格键进入下一个区组。",,,,,,,,,,0,0,0,0,,,,,,,,,,,,,,,,,,,,,,,,,,,,,,,,,,,,,,,,,,,,,,,,,,,,,,,,,,,,,,,,,,,,,,,,,,,,,,,,,,,,,space,5.430717000039294,252.52039889997104,None,252.52039889997104,None,11041,001,2024_Mar_15_1421,ANT,2021.2.3,59.816411457765994,
1,13,center,down,C,L,,,,,,Block.xlsx,"你已经完成了整个实验（三个区组）。

请报告实验者已完成实验

非常感谢，再见！",0,50,-1.5,left,LLLLL.png,,,,,0,1,1,1,0,0,0,12,,,,,,,,,,,,,,,,,,,,,,,,,,,,,,,,,,,,,,,,,,,,,,,,,,,,,,,,,,,,,,,,257.99396769999294,258.39511219999986,258.3793269000016,258.47809249995044,258.8793926999788,None,left,1,0.5034855000558309,258.8793926999788,None,258.3793269000016,258.47809249995044,258.47809249995044,None,259.41266989998985,None,,,,,,,11041,001,2024_Mar_15_1421,ANT,2021.2.3,59.816411457765994,
1,8,no,down,IC,R,,,,,,Block.xlsx,"你已经完成了整个实验（三个区组）。

请报告实验者已完成实验

非常感谢，再见！",50,0,-1.5,right,LLRLL.png,,,,,0,1,1,1,0,1,1,7,,,,,,,,,,,,,,,,,,,,,,,,,,,,,,,,,,,,,,,,,,,,,,,,,,,,,,,,,,,,,,,,259.81335259997286,260.2141692999867,260.1974420999759,260.2975435999688,260.6985793999629,None,right,1,0.6123041999526322,260.6985793999629,None,260.1974420999759,260.2975435999688,260.2975435999688,None,261.3325683999574,None,,,,,,,11041,001,2024_Mar_15_1421,ANT,2021.2.3,59.816411457765994,
1,3,no,up,IC,L,,,,,,Block.xlsx,"你已经完成了整个实验（三个区组）。

请报告实验者已完成实验

非常感谢，再见！",50,0,1.5,left,RRLRR.png,,,,,0,1,1,1,0,2,2,2,,,,,,,,,,,,,,,,,,,,,,,,,,,,,,,,,,,,,,,,,,,,,,,,,,,,,,,,,,,,,,,,261.73361259995727,262.13499239995144,262.1174555000034,262.21916019998025,262.61773869994795,None,left,1,0.6211012999992818,262.61773869994795,None,262.1174555000034,262.21916019998025,262.21916019998025,None,263.268568200001,None,,,,,,,11041,001,2024_Mar_15_1421,ANT,2021.2.3,59.816411457765994,
1,23,spatial,down,IC,L,,,,,,Block.xlsx,"你已经完成了整个实验（三个区组）。

请报告实验者已完成实验

非常感谢，再见！",-1.5,0,-1.5,left,RRLRR.png,,,,,0,1,1,1,0,3,3,22,,,,,,,,,,,,,,,,,,,,,,,,,,,,,,,,,,,,,,,,,,,,,,,,,,,,,,,,,,,,,,,,263.66937269998016,264.07041949999984,264.05411949998233,264.15317769994726,264.55394559999695,None,left,1,0.5811345999827608,264.55394559999695,None,264.05411949998233,264.15317769994726,264.15317769994726,None,265.1546478999662,None,,,,,,,11041,001,2024_Mar_15_1421,ANT,2021.2.3,59.816411457765994,
1,21,spatial,down,C,L,,,,,,Block.xlsx,"你已经完成了整个实验（三个区组）。

请报告实验者已完成实验

非常感谢，再见！",-1.5,0,-1.5,left,LLLLL.png,,,,,0,1,1,1,0,4,4,20,,,,,,,,,,,,,,,,,,,,,,,,,,,,,,,,,,,,,,,,,,,,,,,,,,,,,,,,,,,,,,,,265.5551715999609,265.9559826999903,265.93955909996293,266.040299699991,266.44174679997377,None,left,1,0.6058068999554962,266.44174679997377,None,265.93955909996293,266.040299699991,266.040299699991,None,267.07432389998576,None,,,,,,,11041,001,2024_Mar_15_1421,ANT,2021.2.3,59.816411457765994,
1,14,center,down,C,R,,,,,,Block.xlsx,"你已经完成了整个实验（三个区组）。

请报告实验者已完成实验

非常感谢，再见！",0,50,-1.5,right,RRRRR.png,,,,,0,1,1,1,0,5,5,13,,,,,,,,,,,,,,,,,,,,,,,,,,,,,,,,,,,,,,,,,,,,,,,,,,,,,,,,,,,,,,,,267.47503329999745,267.8778040999896,267.85889259999385,267.95994769997196,268.3607501999941,None,right,1,0.5026506000431255,268.3607501999941,None,267.85889259999385,267.95994769997196,267.95994769997196,None,268.8939917999669,None,,,,,,,11041,001,2024_Mar_15_1421,ANT,2021.2.3,59.816411457765994,
1,5,no,down,C,L,,,,,,Block.xlsx,"你已经完成了整个实验（三个区组）。

请报告实验者已完成实验

非常感谢，再见！",50,0,-1.5,left,LLLLL.png,,,,,0,1,1,1,0,6,6,4,,,,,,,,,,,,,,,,,,,,,,,,,,,,,,,,,,,,,,,,,,,,,,,,,,,,,,,,,,,,,,,,269.2943547999603,269.695447999984,269.678285699978,269.7789998999797,270.1789495999692,None,left,1,0.5566056999959983,270.1789495999692,None,269.678285699978,269.7789998999797,269.7789998999797,None,270.76352999999654,None,,,,,,,11041,001,2024_Mar_15_1421,ANT,2021.2.3,59.816411457765994,
1,2,no,up,C,R,,,,,,Block.xlsx,"你已经完成了整个实验（三个区组）。

请报告实验者已完成实验

非常感谢，再见！",50,0,1.5,right,RRRRR.png,,,,,0,1,1,1,0,7,7,1,,,,,,,,,,,,,,,,,,,,,,,,,,,,,,,,,,,,,,,,,,,,,,,,,,,,,,,,,,,,,,,,271.16371259995503,271.56438029999845,271.5493338999804,271.66448429995216,272.0496689999709,None,right,1,0.44575700000859797,272.0496689999709,None,271.5493338999804,271.66448429995216,271.649062099983,None,272.5158572999644,None,,,,,,,11041,001,2024_Mar_15_1421,ANT,2021.2.3,59.816411457765994,
1,1,no,up,C,L,,,,,,Block.xlsx,"你已经完成了整个实验（三个区组）。

请报告实验者已完成实验

非常感谢，再见！",50,0,1.5,left,LLLLL.png,,,,,0,1,1,1,0,8,8,0,,,,,,,,,,,,,,,,,,,,,,,,,,,,,,,,,,,,,,,,,,,,,,,,,,,,,,,,,,,,,,,,272.9168853999581,273.3177751000039,273.3002440999844,273.40046659996733,273.8011457999819,None,left,1,0.5420430999947712,273.8011457999819,None,273.3002440999844,273.40046659996733,273.40046659996733,None,274.36896150000393,None,,,,,,,11041,001,2024_Mar_15_1421,ANT,2021.2.3,59.816411457765994,
1,10,center,up,C,R,,,,,,Block.xlsx,"你已经完成了整个实验（三个区组）。

请报告实验者已完成实验

非常感谢，再见！",0,50,1.5,right,RRRRR.png,,,,,0,1,1,1,0,9,9,9,,,,,,,,,,,,,,,,,,,,,,,,,,,,,,,,,,,,,,,,,,,,,,,,,,,,,,,,,,,,,,,,274.769003399997,275.17114469996886,275.1531865999568,275.2535093000042,275.6549715999863,None,right,1,0.5283366999938153,275.6549715999863,None,275.1531865999568,275.2535093000042,275.2535093000042,None,276.20471839996753,None,,,,,,,11041,001,2024_Mar_15_1421,ANT,2021.2.3,59.816411457765994,
1,4,no,up,IC,R,,,,,,Block.xlsx,"你已经完成了整个实验（三个区组）。

请报告实验者已完成实验

非常感谢，再见！",50,0,1.5,right,LLRLL.png,,,,,0,1,1,1,0,10,10,3,,,,,,,,,,,,,,,,,,,,,,,,,,,,,,,,,,,,,,,,,,,,,,,,,,,,,,,,,,,,,,,,276.60529989999486,277.0072212999803,276.9894716999843,277.08951429999433,277.49116459995275,None,right,1,0.4682949999696575,277.49116459995275,None,276.9894716999843,277.08951429999433,277.08951429999433,None,277.99074389995076,None,,,,,,,11041,001,2024_Mar_15_1421,ANT,2021.2.3,59.816411457765994,
1,12,center,up,IC,R,,,,,,Block.xlsx,"你已经完成了整个实验（三个区组）。

请报告实验者已完成实验

非常感谢，再见！",0,50,1.5,right,LLRLL.png,,,,,0,1,1,1,0,11,11,11,,,,,,,,,,,,,,,,,,,,,,,,,,,,,,,,,,,,,,,,,,,,,,,,,,,,,,,,,,,,,,,,278.3918854999938,278.79203119996237,278.7753509999602,278.87578219996067,279.27651409996906,None,right,1,0.49918550002621487,279.27651409996906,None,278.7753509999602,278.87578219996067,278.87578219996067,None,279.79362729995046,None,,,,,,,11041,001,2024_Mar_15_1421,ANT,2021.2.3,59.816411457765994,
1,19,spatial,up,IC,L,,,,,,Block.xlsx,"你已经完成了整个实验（三个区组）。

请报告实验者已完成实验

非常感谢，再见！",1.5,0,1.5,left,RRLRR.png,,,,,0,1,1,1,0,12,12,18,,,,,,,,,,,,,,,,,,,,,,,,,,,,,,,,,,,,,,,,,,,,,,,,,,,,,,,,,,,,,,,,280.19421349995537,280.5946823999984,280.5780323999934,280.67993829998886,281.0798761000042,None,left,1,0.4716344000189565,281.0798761000042,None,280.5780323999934,280.67993829998886,280.67993829998886,None,281.5793333000038,None,,,,,,,11041,001,2024_Mar_15_1421,ANT,2021.2.3,59.816411457765994,
1,13,center,down,C,L,,,,,,Block.xlsx,"你已经完成了整个实验（三个区组）。

请报告实验者已完成实验

非常感谢，再见！",0,50,-1.5,left,LLLLL.png,,,,,0,1,1,1,0,13,13,12,,,,,,,,,,,,,,,,,,,,,,,,,,,,,,,,,,,,,,,,,,,,,,,,,,,,,,,,,,,,,,,,281.98011209996184,282.3815387999639,282.3640439999872,282.46439569996437,282.86605469998904,None,left,1,0.5669044000096619,282.86605469998904,None,282.3640439999872,282.46439569996437,282.46439569996437,None,283.4490134999505,None,,,,,,,11041,001,2024_Mar_15_1421,ANT,2021.2.3,59.816411457765994,
1,2,no,up,C,R,,,,,,Block.xlsx,"你已经完成了整个实验（三个区组）。

请报告实验者已完成实验

非常感谢，再见！",50,0,1.5,right,RRRRR.png,,,,,0,1,1,1,0,14,14,1,,,,,,,,,,,,,,,,,,,,,,,,,,,,,,,,,,,,,,,,,,,,,,,,,,,,,,,,,,,,,,,,283.84984179999446,284.2503958999878,284.23470499995165,284.3335369999986,284.73425199999474,None,right,1,0.5132004999904893,284.73425199999474,None,284.23470499995165,284.3335369999986,284.3335369999986,None,285.2682360999752,None,,,,,,,11041,001,2024_Mar_15_1421,ANT,2021.2.3,59.816411457765994,
1,1,no,up,C,L,,,,,,Block.xlsx,"你已经完成了整个实验（三个区组）。

请报告实验者已完成实验

非常感谢，再见！",50,0,1.5,left,LLLLL.png,,,,,0,1,1,1,0,15,15,0,,,,,,,,,,,,,,,,,,,,,,,,,,,,,,,,,,,,,,,,,,,,,,,,,,,,,,,,,,,,,,,,285.6689221999841,286.07033899996895,286.05288739997195,286.1533599999966,286.55373369995505,None,left,1,0.5661940000136383,286.55373369995505,None,286.05288739997195,286.1533599999966,286.1533599999966,None,287.1378977999557,None,,,,,,,11041,001,2024_Mar_15_1421,ANT,2021.2.3,59.816411457765994,
1,15,center,down,IC,L,,,,,,Block.xlsx,"你已经完成了整个实验（三个区组）。

请报告实验者已完成实验

非常感谢，再见！",0,50,-1.5,left,RRLRR.png,,,,,0,1,1,1,0,16,16,14,,,,,,,,,,,,,,,,,,,,,,,,,,,,,,,,,,,,,,,,,,,,,,,,,,,,,,,,,,,,,,,,287.53859509999165,287.940092899953,287.92252189997816,288.0241698999889,288.42336620000424,None,left,1,0.8084849999868311,288.42336620000424,None,287.92252189997816,288.0241698999889,288.0241698999889,None,289.2575721999747,None,,,,,,,11041,001,2024_Mar_15_1421,ANT,2021.2.3,59.816411457765994,
1,9,center,up,C,L,,,,,,Block.xlsx,"你已经完成了整个实验（三个区组）。

请报告实验者已完成实验

非常感谢，再见！",0,50,1.5,left,LLLLL.png,,,,,0,1,1,1,0,17,17,8,,,,,,,,,,,,,,,,,,,,,,,,,,,,,,,,,,,,,,,,,,,,,,,,,,,,,,,,,,,,,,,,289.66075489996,290.0771215999848,290.04239789996063,290.1430631999974,290.543502799992,None,left,1,0.4645151000004262,290.543502799992,None,290.04239789996063,290.1430631999974,290.1430631999974,None,291.0270622999524,None,,,,,,,11041,001,2024_Mar_15_1421,ANT,2021.2.3,59.816411457765994,
1,22,spatial,down,C,R,,,,,,Block.xlsx,"你已经完成了整个实验（三个区组）。

请报告实验者已完成实验

非常感谢，再见！",-1.5,0,-1.5,right,RRRRR.png,,,,,0,1,1,1,0,18,18,21,,,,,,,,,,,,,,,,,,,,,,,,,,,,,,,,,,,,,,,,,,,,,,,,,,,,,,,,,,,,,,,,291.42772649996914,291.8297163999523,291.81221059995005,291.9119139999966,292.3123767999932,None,right,1,0.4236473999917507,292.3123767999932,None,291.81221059995005,291.9119139999966,291.9119139999966,None,292.76319339999463,None,,,,,,,11041,001,2024_Mar_15_1421,ANT,2021.2.3,59.816411457765994,
1,22,spatial,down,C,R,,,,,,Block.xlsx,"你已经完成了整个实验（三个区组）。

请报告实验者已完成实验

非常感谢，再见！",-1.5,0,-1.5,right,RRRRR.png,,,,,0,1,1,1,0,19,19,21,,,,,,,,,,,,,,,,,,,,,,,,,,,,,,,,,,,,,,,,,,,,,,,,,,,,,,,,,,,,,,,,293.16372389998287,293.56431589997374,293.5485745999613,293.64752589998534,294.0483004999696,None,right,1,0.4075929999817163,294.0483004999696,None,293.5485745999613,293.64752589998534,293.64752589998534,None,294.4823506999528,None,,,,,,,11041,001,2024_Mar_15_1421,ANT,2021.2.3,59.816411457765994,
1,14,center,down,C,R,,,,,,Block.xlsx,"你已经完成了整个实验（三个区组）。

请报告实验者已完成实验

非常感谢，再见！",0,50,-1.5,right,RRRRR.png,,,,,0,1,1,1,0,20,20,13,,,,,,,,,,,,,,,,,,,,,,,,,,,,,,,,,,,,,,,,,,,,,,,,,,,,,,,,,,,,,,,,294.8829379999661,295.2860845999676,295.2674114999827,295.36794899997767,295.7679037999478,None,right,1,0.5359443000052124,295.7679037999478,None,295.2674114999827,295.36794899997767,295.36794899997767,None,296.3350055999472,None,,,,,,,11041,001,2024_Mar_15_1421,ANT,2021.2.3,59.816411457765994,
1,4,no,up,IC,R,,,,,,Block.xlsx,"你已经完成了整个实验（三个区组）。

请报告实验者已完成实验

非常感谢，再见！",50,0,1.5,right,LLRLL.png,,,,,0,1,1,1,0,21,21,3,,,,,,,,,,,,,,,,,,,,,,,,,,,,,,,,,,,,,,,,,,,,,,,,,,,,,,,,,,,,,,,,296.73572179995244,297.1375176999718,297.11970809998456,297.21986749995267,297.62042529997416,None,right,1,0.5956038000294939,297.62042529997416,None,297.11970809998456,297.21986749995267,297.21986749995267,None,298.23811269999715,None,,,,,,,11041,001,2024_Mar_15_1421,ANT,2021.2.3,59.816411457765994,
1,17,spatial,up,C,L,,,,,,Block.xlsx,"你已经完成了整个实验（三个区组）。

请报告实验者已完成实验

非常感谢，再见！",1.5,0,1.5,left,LLLLL.png,,,,,0,1,1,1,0,22,22,16,,,,,,,,,,,,,,,,,,,,,,,,,,,,,,,,,,,,,,,,,,,,,,,,,,,,,,,,,,,,,,,,298.6388197999913,299.0393043999793,299.0231117999647,299.12268139998196,299.523418399971,None,left,1,0.5175852999673225,299.523418399971,None,299.0231117999647,299.12268139998196,299.12268139998196,None,300.05742619995726,None,,,,,,,11041,001,2024_Mar_15_1421,ANT,2021.2.3,59.816411457765994,
1,12,center,up,IC,R,,,,,,Block.xlsx,"你已经完成了整个实验（三个区组）。

请报告实验者已完成实验

非常感谢，再见！",0,50,1.5,right,LLRLL.png,,,,,0,1,1,1,0,23,23,11,,,,,,,,,,,,,,,,,,,,,,,,,,,,,,,,,,,,,,,,,,,,,,,,,,,,,,,,,,,,,,,,300.4578268000041,300.8587397999945,300.8420123999822,300.9420838999795,301.3428276999621,None,right,1,0.5690879999892786,301.3428276999621,None,300.8420123999822,300.9420838999795,300.9420838999795,None,301.92671459994745,None,,,,,,,11041,001,2024_Mar_15_1421,ANT,2021.2.3,59.816411457765994,
1,1,no,up,C,L,,,,,,Block.xlsx,"你已经完成了整个实验（三个区组）。

请报告实验者已完成实验

非常感谢，再见！",50,0,1.5,left,LLLLL.png,,,,,0,1,1,1,1,0,24,0,,,,,,,,,,,,,,,,,,,,,,,,,,,,,,,,,,,,,,,,,,,,,,,,,,,,,,,,,,,,,,,,302.327651999949,302.72859779995633,302.7112365999492,302.8121442999691,303.2119117999682,None,left,1,0.5319952000281774,303.2119117999682,None,302.7112365999492,302.8121442999691,302.8121442999691,None,303.7632847999921,None,,,,,,,11041,001,2024_Mar_15_1421,ANT,2021.2.3,59.816411457765994,
1,22,spatial,down,C,R,,,,,,Block.xlsx,"你已经完成了整个实验（三个区组）。

请报告实验者已完成实验

非常感谢，再见！",-1.5,0,-1.5,right,RRRRR.png,,,,,0,1,1,1,1,1,25,21,,,,,,,,,,,,,,,,,,,,,,,,,,,,,,,,,,,,,,,,,,,,,,,,,,,,,,,,,,,,,,,,304.16372109996155,304.5643063999596,304.54753669997444,304.6487675999524,305.0492580999853,None,right,1,0.3835664000362158,305.0492580999853,None,304.54753669997444,304.6487675999524,304.6487675999524,None,305.448726099974,None,,,,,,,11041,001,2024_Mar_15_1421,ANT,2021.2.3,59.816411457765994,
1,18,spatial,up,C,R,,,,,,Block.xlsx,"你已经完成了整个实验（三个区组）。

请报告实验者已完成实验

非常感谢，再见！",1.5,0,1.5,right,RRRRR.png,,,,,0,1,1,1,1,2,26,17,,,,,,,,,,,,,,,,,,,,,,,,,,,,,,,,,,,,,,,,,,,,,,,,,,,,,,,,,,,,,,,,305.84947570000077,306.250872399949,306.2337811999605,306.3334997999482,306.7340414999635,None,right,1,0.4342801999882795,306.7340414999635,None,306.2337811999605,306.3334997999482,306.3334997999482,None,307.1849509999738,None,,,,,,,11041,001,2024_Mar_15_1421,ANT,2021.2.3,59.816411457765994,
1,7,no,down,IC,L,,,,,,Block.xlsx,"你已经完成了整个实验（三个区组）。

请报告实验者已完成实验

非常感谢，再见！",50,0,-1.5,left,RRLRR.png,,,,,0,1,1,1,1,3,27,6,,,,,,,,,,,,,,,,,,,,,,,,,,,,,,,,,,,,,,,,,,,,,,,,,,,,,,,,,,,,,,,,307.58530809998047,307.98617150000064,307.97023049998097,308.0699831999955,308.4703333999496,None,left,1,0.698540800018236,308.4703333999496,None,307.97023049998097,308.0699831999955,308.0699831999955,None,309.1878795999801,None,,,,,,,11041,001,2024_Mar_15_1421,ANT,2021.2.3,59.816411457765994,
1,12,center,up,IC,R,,,,,,Block.xlsx,"你已经完成了整个实验（三个区组）。

请报告实验者已完成实验

非常感谢，再见！",0,50,1.5,right,LLRLL.png,,,,,0,1,1,1,1,4,28,11,,,,,,,,,,,,,,,,,,,,,,,,,,,,,,,,,,,,,,,,,,,,,,,,,,,,,,,,,,,,,,,,309.5886052999995,309.9894276999985,309.97210659994744,310.0739583999966,310.47345509997103,None,right,1,0.478865799959749,310.47345509997103,None,309.97210659994744,310.0739583999966,310.0739583999966,None,310.9736724999966,None,,,,,,,11041,001,2024_Mar_15_1421,ANT,2021.2.3,59.816411457765994,
1,20,spatial,up,IC,R,,,,,,Block.xlsx,"你已经完成了整个实验（三个区组）。

请报告实验者已完成实验

非常感谢，再见！",1.5,0,1.5,right,LLRLL.png,,,,,0,1,1,1,1,5,29,19,,,,,,,,,,,,,,,,,,,,,,,,,,,,,,,,,,,,,,,,,,,,,,,,,,,,,,,,,,,,,,,,311.37453420000384,311.7750325999805,311.75897949998034,311.85863539995626,312.2591572999954,None,right,1,0.4051954000024125,312.2591572999954,None,311.75897949998034,311.85863539995626,311.85863539995626,None,312.69303579995176,None,,,,,,,11041,001,2024_Mar_15_1421,ANT,2021.2.3,59.816411457765994,
1,2,no,up,C,R,,,,,,Block.xlsx,"你已经完成了整个实验（三个区组）。

请报告实验者已完成实验

非常感谢，再见！",50,0,1.5,right,RRRRR.png,,,,,0,1,1,1,1,6,30,1,,,,,,,,,,,,,,,,,,,,,,,,,,,,,,,,,,,,,,,,,,,,,,,,,,,,,,,,,,,,,,,,313.09363959997427,313.49509649997344,313.4780795999686,313.57925419998355,313.9784446999547,None,right,1,0.5023161999997683,313.9784446999547,None,313.4780795999686,313.57925419998355,313.57925419998355,None,314.4960887999623,None,,,,,,,11041,001,2024_Mar_15_1421,ANT,2021.2.3,59.816411457765994,
1,19,spatial,up,IC,L,,,,,,Block.xlsx,"你已经完成了整个实验（三个区组）。

请报告实验者已完成实验

非常感谢，再见！",1.5,0,1.5,left,RRLRR.png,,,,,0,1,1,1,1,7,31,18,,,,,,,,,,,,,,,,,,,,,,,,,,,,,,,,,,,,,,,,,,,,,,,,,,,,,,,,,,,,,,,,314.8966136999661,315.29829779994907,315.2803430999629,315.3805599999614,315.78168809995987,None,left,1,0.4025676000164822,315.78168809995987,None,315.2803430999629,315.3805599999614,315.3805599999614,None,316.21512509998865,None,,,,,,,11041,001,2024_Mar_15_1421,ANT,2021.2.3,59.816411457765994,
1,4,no,up,IC,R,,,,,,Block.xlsx,"你已经完成了整个实验（三个区组）。

请报告实验者已完成实验

非常感谢，再见！",50,0,1.5,right,LLRLL.png,,,,,0,1,1,1,1,8,32,3,,,,,,,,,,,,,,,,,,,,,,,,,,,,,,,,,,,,,,,,,,,,,,,,,,,,,,,,,,,,,,,,316.6156858999748,317.01666369999293,317.0001212999923,317.0998662999482,317.50020559999393,None,right,1,0.48477169999387115,317.50020559999393,None,317.0001212999923,317.0998662999482,317.0998662999482,None,318.0016016999725,None,,,,,,,11041,001,2024_Mar_15_1421,ANT,2021.2.3,59.816411457765994,
1,14,center,down,C,R,,,,,,Block.xlsx,"你已经完成了整个实验（三个区组）。

请报告实验者已完成实验

非常感谢，再见！",0,50,-1.5,right,RRRRR.png,,,,,0,1,1,1,1,9,33,13,,,,,,,,,,,,,,,,,,,,,,,,,,,,,,,,,,,,,,,,,,,,,,,,,,,,,,,,,,,,,,,,318.4015366999665,318.80255259998376,318.7861031999928,318.88630229997216,319.2864516999689,None,right,1,0.4900002999929711,319.2864516999689,None,318.7861031999928,318.88630229997216,318.88630229997216,None,319.8038952999632,None,,,,,,,11041,001,2024_Mar_15_1421,ANT,2021.2.3,59.816411457765994,
1,9,center,up,C,L,,,,,,Block.xlsx,"你已经完成了整个实验（三个区组）。

请报告实验者已完成实验

非常感谢，再见！",0,50,1.5,left,LLLLL.png,,,,,0,1,1,1,1,10,34,8,,,,,,,,,,,,,,,,,,,,,,,,,,,,,,,,,,,,,,,,,,,,,,,,,,,,,,,,,,,,,,,,320.2043577999575,320.6050847999868,320.5889849999803,320.6893066999619,321.0891272999579,None,left,1,0.4316475999657996,321.0891272999579,None,320.5889849999803,320.6893066999619,320.6893066999619,None,321.5396963999956,None,,,,,,,11041,001,2024_Mar_15_1421,ANT,2021.2.3,59.816411457765994,
1,11,center,up,IC,L,,,,,,Block.xlsx,"你已经完成了整个实验（三个区组）。

请报告实验者已完成实验

非常感谢，再见！",0,50,1.5,left,RRLRR.png,,,,,0,1,1,1,1,11,35,10,,,,,,,,,,,,,,,,,,,,,,,,,,,,,,,,,,,,,,,,,,,,,,,,,,,,,,,,,,,,,,,,321.9410959999659,322.3412972999504,322.32408049999503,322.42494439997245,322.8251583999954,None,left,1,0.5192728000110947,322.8251583999954,None,322.32408049999503,322.42494439997245,322.42494439997245,None,323.3591904999921,None,,,,,,,11041,001,2024_Mar_15_1421,ANT,2021.2.3,59.816411457765994,
1,6,no,down,C,R,,,,,,Block.xlsx,"你已经完成了整个实验（三个区组）。

请报告实验者已完成实验

非常感谢，再见！",50,0,-1.5,right,RRRRR.png,,,,,0,1,1,1,1,12,36,5,,,,,,,,,,,,,,,,,,,,,,,,,,,,,,,,,,,,,,,,,,,,,,,,,,,,,,,,,,,,,,,,323.75954399997136,324.1618790999637,324.1435985999997,324.2448482000036,324.64462939999066,None,right,1,0.41207749996101484,324.64462939999066,None,324.1435985999997,324.2448482000036,324.2448482000036,None,325.0783342999639,None,,,,,,,11041,001,2024_Mar_15_1421,ANT,2021.2.3,59.816411457765994,
1,22,spatial,down,C,R,,,,,,Block.xlsx,"你已经完成了整个实验（三个区组）。

请报告实验者已完成实验

非常感谢，再见！",-1.5,0,-1.5,right,RRRRR.png,,,,,0,1,1,1,1,13,37,21,,,,,,,,,,,,,,,,,,,,,,,,,,,,,,,,,,,,,,,,,,,,,,,,,,,,,,,,,,,,,,,,325.4789460999891,325.88100049999775,325.86306379997404,325.9634289999958,326.3650086999987,None,right,1,0.3555737999849953,326.3650086999987,None,325.86306379997404,325.9634289999958,325.9634289999958,None,326.7475591999828,None,,,,,,,11041,001,2024_Mar_15_1421,ANT,2021.2.3,59.816411457765994,
1,10,center,up,C,R,,,,,,Block.xlsx,"你已经完成了整个实验（三个区组）。

请报告实验者已完成实验

非常感谢，再见！",0,50,1.5,right,RRRRR.png,,,,,0,1,1,1,1,14,38,9,,,,,,,,,,,,,,,,,,,,,,,,,,,,,,,,,,,,,,,,,,,,,,,,,,,,,,,,,,,,,,,,327.14831449999474,327.55128999997396,327.53277509997133,327.63344750000397,328.03367639996577,None,right,1,0.39114210003754124,328.03367639996577,None,327.53277509997133,327.63344750000397,327.63344750000397,None,328.4504546999815,None,,,,,,,11041,001,2024_Mar_15_1421,ANT,2021.2.3,59.816411457765994,
1,23,spatial,down,IC,L,,,,,,Block.xlsx,"你已经完成了整个实验（三个区组）。

请报告实验者已完成实验

非常感谢，再见！",-1.5,0,-1.5,left,RRLRR.png,,,,,0,1,1,1,1,15,39,22,,,,,,,,,,,,,,,,,,,,,,,,,,,,,,,,,,,,,,,,,,,,,,,,,,,,,,,,,,,,,,,,328.85133679996943,329.2521277999622,329.2358111999929,329.35192919999827,329.7362753999769,None,left,1,0.4406911000260152,329.7362753999769,None,329.2358111999929,329.35192919999827,329.3365148999728,None,330.20266239997,None,,,,,,,11041,001,2024_Mar_15_1421,ANT,2021.2.3,59.816411457765994,
1,17,spatial,up,C,L,,,,,,Block.xlsx,"你已经完成了整个实验（三个区组）。

请报告实验者已完成实验

非常感谢，再见！",1.5,0,1.5,left,LLLLL.png,,,,,0,1,1,1,1,16,40,16,,,,,,,,,,,,,,,,,,,,,,,,,,,,,,,,,,,,,,,,,,,,,,,,,,,,,,,,,,,,,,,,330.6033650999889,331.0056989999721,330.98754189995816,331.0884594999952,331.4883665999514,None,left,1,0.4172326999832876,331.4883665999514,None,330.98754189995816,331.0884594999952,331.0884594999952,None,331.922066500003,None,,,,,,,11041,001,2024_Mar_15_1421,ANT,2021.2.3,59.816411457765994,
1,9,center,up,C,L,,,,,,Block.xlsx,"你已经完成了整个实验（三个区组）。

请报告实验者已完成实验

非常感谢，再见！",0,50,1.5,left,LLLLL.png,,,,,0,1,1,1,1,17,41,8,,,,,,,,,,,,,,,,,,,,,,,,,,,,,,,,,,,,,,,,,,,,,,,,,,,,,,,,,,,,,,,,332.32278139999835,332.72466409998015,332.7071401999565,332.80734969995683,333.20811959996354,None,left,1,0.42483969999011606,333.20811959996354,None,332.7071401999565,332.80734969995683,332.80734969995683,None,333.6579686999903,None,,,,,,,11041,001,2024_Mar_15_1421,ANT,2021.2.3,59.816411457765994,
1,24,spatial,down,IC,R,,,,,,Block.xlsx,"你已经完成了整个实验（三个区组）。

请报告实验者已完成实验

非常感谢，再见！",-1.5,0,-1.5,right,LLRLL.png,,,,,0,1,1,1,1,18,42,23,,,,,,,,,,,,,,,,,,,,,,,,,,,,,,,,,,,,,,,,,,,,,,,,,,,,,,,,,,,,,,,,334.05878819996724,334.46011619997444,334.4425239999546,334.54388559999643,334.9434842999908,None,right,1,0.42543290002504364,334.9434842999908,None,334.4425239999546,334.54388559999643,334.54388559999643,None,335.3939104999881,None,,,,,,,11041,001,2024_Mar_15_1421,ANT,2021.2.3,59.816411457765994,
1,17,spatial,up,C,L,,,,,,Block.xlsx,"你已经完成了整个实验（三个区组）。

请报告实验者已完成实验

非常感谢，再见！",1.5,0,1.5,left,LLLLL.png,,,,,0,1,1,1,1,19,43,16,,,,,,,,,,,,,,,,,,,,,,,,,,,,,,,,,,,,,,,,,,,,,,,,,,,,,,,,,,,,,,,,335.79462099995,336.19590150000295,336.1787624999997,336.28099969995674,336.67923609999707,None,left,1,0.40198269998654723,336.67923609999707,None,336.1787624999997,336.28099969995674,336.28099969995674,None,337.0965835999814,None,,,,,,,11041,001,2024_Mar_15_1421,ANT,2021.2.3,59.816411457765994,
1,23,spatial,down,IC,L,,,,,,Block.xlsx,"你已经完成了整个实验（三个区组）。

请报告实验者已完成实验

非常感谢，再见！",-1.5,0,-1.5,left,RRLRR.png,,,,,0,1,1,1,1,20,44,22,,,,,,,,,,,,,,,,,,,,,,,,,,,,,,,,,,,,,,,,,,,,,,,,,,,,,,,,,,,,,,,,337.49701419996563,337.8987292999518,337.8808060999727,337.9812192999525,338.383697799989,None,left,1,0.5291662999661639,338.383697799989,None,337.8808060999727,337.9812192999525,337.9812192999525,None,338.9328180999728,None,,,,,,,11041,001,2024_Mar_15_1421,ANT,2021.2.3,59.816411457765994,
1,17,spatial,up,C,L,,,,,,Block.xlsx,"你已经完成了整个实验（三个区组）。

请报告实验者已完成实验

非常感谢，再见！",1.5,0,1.5,left,LLLLL.png,,,,,0,1,1,1,1,21,45,16,,,,,,,,,,,,,,,,,,,,,,,,,,,,,,,,,,,,,,,,,,,,,,,,,,,,,,,,,,,,,,,,339.33318869996583,339.7338844999904,339.71868079999695,339.8173262999626,340.21789579995675,None,left,1,0.463122499990277,340.21789579995675,None,339.71868079999695,339.8173262999626,339.8173262999626,None,340.7021658999729,None,,,,,,,11041,001,2024_Mar_15_1421,ANT,2021.2.3,59.816411457765994,
1,3,no,up,IC,L,,,,,,Block.xlsx,"你已经完成了整个实验（三个区组）。

请报告实验者已完成实验

非常感谢，再见！",50,0,1.5,left,RRLRR.png,,,,,0,1,1,1,1,22,46,2,,,,,,,,,,,,,,,,,,,,,,,,,,,,,,,,,,,,,,,,,,,,,,,,,,,,,,,,,,,,,,,,341.1029288999853,341.5032829999691,341.48737139999866,341.587426699989,341.9877960999729,None,left,1,0.5174018999678083,341.9877960999729,None,341.48737139999866,341.587426699989,341.587426699989,None,342.5213751999545,None,,,,,,,11041,001,2024_Mar_15_1421,ANT,2021.2.3,59.816411457765994,
1,21,spatial,down,C,L,,,,,,Block.xlsx,"你已经完成了整个实验（三个区组）。

请报告实验者已完成实验

非常感谢，再见！",-1.5,0,-1.5,left,LLLLL.png,,,,,0,1,1,1,1,23,47,20,,,,,,,,,,,,,,,,,,,,,,,,,,,,,,,,,,,,,,,,,,,,,,,,,,,,,,,,,,,,,,,,342.92204479995416,343.32386579999,343.3064736999804,343.405964399979,343.8078412999748,None,left,1,0.4172670000116341,343.8078412999748,None,343.3064736999804,343.405964399979,343.405964399979,None,344.24062959995354,None,,,,,,,11041,001,2024_Mar_15_1421,ANT,2021.2.3,59.816411457765994,
1,18,spatial,up,C,R,,,,,,Block.xlsx,"你已经完成了整个实验（三个区组）。

请报告实验者已完成实验

非常感谢，再见！",1.5,0,1.5,right,RRRRR.png,,,,,0,1,1,1,2,0,48,17,,,,,,,,,,,,,,,,,,,,,,,,,,,,,,,,,,,,,,,,,,,,,,,,,,,,,,,,,,,,,,,,344.6410146999988,345.04180949996226,345.0255390999955,345.12607699999353,345.5264868999948,None,right,1,0.38658970000687987,345.5264868999948,None,345.0255390999955,345.12607699999353,345.12607699999353,None,345.94314449996455,None,,,,,,,11041,001,2024_Mar_15_1421,ANT,2021.2.3,59.816411457765994,
1,1,no,up,C,L,,,,,,Block.xlsx,"你已经完成了整个实验（三个区组）。

请报告实验者已完成实验

非常感谢，再见！",50,0,1.5,left,LLLLL.png,,,,,0,1,1,1,2,1,49,0,,,,,,,,,,,,,,,,,,,,,,,,,,,,,,,,,,,,,,,,,,,,,,,,,,,,,,,,,,,,,,,,346.34386289998656,346.74593659996754,346.7279467000044,346.8283085000003,347.2285580000025,None,left,1,0.541291999979876,347.2285580000025,None,346.7279467000044,346.8283085000003,346.8283085000003,None,347.79591809998965,None,,,,,,,11041,001,2024_Mar_15_1421,ANT,2021.2.3,59.816411457765994,
1,20,spatial,up,IC,R,,,,,,Block.xlsx,"你已经完成了整个实验（三个区组）。

请报告实验者已完成实验

非常感谢，再见！",1.5,0,1.5,right,LLRLL.png,,,,,0,1,1,1,2,2,50,19,,,,,,,,,,,,,,,,,,,,,,,,,,,,,,,,,,,,,,,,,,,,,,,,,,,,,,,,,,,,,,,,348.1965936999768,348.59792489995016,348.5804865999962,348.68129149999004,349.08124639996095,None,right,1,0.41676639998331666,349.08124639996095,None,348.5804865999962,348.68129149999004,348.68129149999004,None,349.51516509999055,None,,,,,,,11041,001,2024_Mar_15_1421,ANT,2021.2.3,59.816411457765994,
1,21,spatial,down,C,L,,,,,,Block.xlsx,"你已经完成了整个实验（三个区组）。

请报告实验者已完成实验

非常感谢，再见！",-1.5,0,-1.5,left,LLLLL.png,,,,,0,1,1,1,2,3,51,20,,,,,,,,,,,,,,,,,,,,,,,,,,,,,,,,,,,,,,,,,,,,,,,,,,,,,,,,,,,,,,,,349.9165548000019,350.3163992000045,350.3004997999524,350.40029839996714,350.8019038999919,None,left,1,0.4320395000395365,350.8019038999919,None,350.3004997999524,350.40029839996714,350.40029839996714,None,351.2509755999781,None,,,,,,,11041,001,2024_Mar_15_1421,ANT,2021.2.3,59.816411457765994,
1,4,no,up,IC,R,,,,,,Block.xlsx,"你已经完成了整个实验（三个区组）。

请报告实验者已完成实验

非常感谢，再见！",50,0,1.5,right,LLRLL.png,,,,,0,1,1,1,2,4,52,3,,,,,,,,,,,,,,,,,,,,,,,,,,,,,,,,,,,,,,,,,,,,,,,,,,,,,,,,,,,,,,,,351.6525483999867,352.05278959998395,352.0356355999829,352.135957099963,352.5362195999478,None,right,1,0.4969981999602169,352.5362195999478,None,352.0356355999829,352.135957099963,352.135957099963,None,353.05403489997843,None,,,,,,,11041,001,2024_Mar_15_1421,ANT,2021.2.3,59.816411457765994,
1,7,no,down,IC,L,,,,,,Block.xlsx,"你已经完成了整个实验（三个区组）。

请报告实验者已完成实验

非常感谢，再见！",50,0,-1.5,left,RRLRR.png,,,,,0,1,1,1,2,5,53,6,,,,,,,,,,,,,,,,,,,,,,,,,,,,,,,,,,,,,,,,,,,,,,,,,,,,,,,,,,,,,,,,353.45430179999676,353.85546349996,353.8390331999981,353.9386670999811,354.34058379998896,None,left,1,0.5250796999898739,354.34058379998896,None,353.8390331999981,353.9386670999811,353.9386670999811,None,354.89002719998825,None,,,,,,,11041,001,2024_Mar_15_1421,ANT,2021.2.3,59.816411457765994,
1,12,center,up,IC,R,,,,,,Block.xlsx,"你已经完成了整个实验（三个区组）。

请报告实验者已完成实验

非常感谢，再见！",0,50,1.5,right,LLRLL.png,,,,,0,1,1,1,2,6,54,11,,,,,,,,,,,,,,,,,,,,,,,,,,,,,,,,,,,,,,,,,,,,,,,,,,,,,,,,,,,,,,,,355.29036559996894,355.6922908999841,355.674697099952,355.7747196999844,356.17560929997126,None,right,1,0.44208060001255944,356.17560929997126,None,355.674697099952,355.7747196999844,355.7747196999844,None,356.64285069995094,None,,,,,,,11041,001,2024_Mar_15_1421,ANT,2021.2.3,59.816411457765994,
1,15,center,down,IC,L,,,,,,Block.xlsx,"你已经完成了整个实验（三个区组）。

请报告实验者已完成实验

非常感谢，再见！",0,50,-1.5,left,RRLRR.png,,,,,0,1,1,1,2,7,55,14,,,,,,,,,,,,,,,,,,,,,,,,,,,,,,,,,,,,,,,,,,,,,,,,,,,,,,,,,,,,,,,,357.04375379998237,357.44484219996957,357.427183599968,357.5272820999962,357.9281935999752,None,left,1,0.5774792999727651,357.9281935999752,None,357.427183599968,357.5272820999962,357.5272820999962,None,358.52887270000065,None,,,,,,,11041,001,2024_Mar_15_1421,ANT,2021.2.3,59.816411457765994,
1,21,spatial,down,C,L,,,,,,Block.xlsx,"你已经完成了整个实验（三个区组）。

请报告实验者已完成实验

非常感谢，再见！",-1.5,0,-1.5,left,LLLLL.png,,,,,0,1,1,1,2,8,56,20,,,,,,,,,,,,,,,,,,,,,,,,,,,,,,,,,,,,,,,,,,,,,,,,,,,,,,,,,,,,,,,,358.92950489994837,359.3320534999948,359.313768299995,359.41355989995645,359.814199299959,None,left,1,0.4594470000010915,359.814199299959,None,359.313768299995,359.41355989995645,359.41355989995645,None,360.2980404999689,None,,,,,,,11041,001,2024_Mar_15_1421,ANT,2021.2.3,59.816411457765994,
1,16,center,down,IC,R,,,,,,Block.xlsx,"你已经完成了整个实验（三个区组）。

请报告实验者已完成实验

非常感谢，再见！",0,50,-1.5,right,LLRLL.png,,,,,0,1,1,1,2,9,57,15,,,,,,,,,,,,,,,,,,,,,,,,,,,,,,,,,,,,,,,,,,,,,,,,,,,,,,,,,,,,,,,,360.6986807999783,361.0995431999909,361.08340780000435,361.18470230000094,361.5835148000042,None,right,1,0.6099394999910146,361.5835148000042,None,361.08340780000435,361.18470230000094,361.18470230000094,None,362.2177568000043,None,,,,,,,11041,001,2024_Mar_15_1421,ANT,2021.2.3,59.816411457765994,
1,8,no,down,IC,R,,,,,,Block.xlsx,"你已经完成了整个实验（三个区组）。

请报告实验者已完成实验

非常感谢，再见！",50,0,-1.5,right,LLRLL.png,,,,,0,1,1,1,2,10,58,7,,,,,,,,,,,,,,,,,,,,,,,,,,,,,,,,,,,,,,,,,,,,,,,,,,,,,,,,,,,,,,,,362.6185926999897,363.0194067999837,363.00266759999795,363.10325419995934,363.5038821999915,None,right,1,0.5538951000198722,363.5038821999915,None,363.00266759999795,363.10325419995934,363.10325419995934,None,364.0871210999903,None,,,,,,,11041,001,2024_Mar_15_1421,ANT,2021.2.3,59.816411457765994,
1,8,no,down,IC,R,,,,,,Block.xlsx,"你已经完成了整个实验（三个区组）。

请报告实验者已完成实验

非常感谢，再见！",50,0,-1.5,right,LLRLL.png,,,,,0,1,1,1,2,11,59,7,,,,,,,,,,,,,,,,,,,,,,,,,,,,,,,,,,,,,,,,,,,,,,,,,,,,,,,,,,,,,,,,364.48849379998865,364.8883188999607,364.8718413999886,364.9719200999825,365.3726462999475,None,right,1,0.49295649997657165,365.3726462999475,None,364.8718413999886,364.9719200999825,364.9719200999825,None,365.88995369995246,None,,,,,,,11041,001,2024_Mar_15_1421,ANT,2021.2.3,59.816411457765994,
1,9,center,up,C,L,,,,,,Block.xlsx,"你已经完成了整个实验（三个区组）。

请报告实验者已完成实验

非常感谢，再见！",0,50,1.5,left,LLLLL.png,,,,,0,1,1,1,2,12,60,8,,,,,,,,,,,,,,,,,,,,,,,,,,,,,,,,,,,,,,,,,,,,,,,,,,,,,,,,,,,,,,,,366.29063780000433,366.691740499984,366.67572939995443,366.79278149997117,367.17628949997015,None,left,1,0.45204599999124184,367.17628949997015,None,366.67572939995443,366.79278149997117,366.7749499999918,None,367.6423948999727,None,,,,,,,11041,001,2024_Mar_15_1421,ANT,2021.2.3,59.816411457765994,
1,20,spatial,up,IC,R,,,,,,Block.xlsx,"你已经完成了整个实验（三个区组）。

请报告实验者已完成实验

非常感谢，再见！",1.5,0,1.5,right,LLRLL.png,,,,,0,1,1,1,2,13,61,19,,,,,,,,,,,,,,,,,,,,,,,,,,,,,,,,,,,,,,,,,,,,,,,,,,,,,,,,,,,,,,,,368.04352949996246,368.44384019996505,368.4291094999644,368.5272207999951,368.9279276999878,None,right,1,0.45788270002231,368.9279276999878,None,368.4291094999644,368.5272207999951,368.5272207999951,None,369.41173769999295,None,,,,,,,11041,001,2024_Mar_15_1421,ANT,2021.2.3,59.816411457765994,
1,19,spatial,up,IC,L,,,,,,Block.xlsx,"你已经完成了整个实验（三个区组）。

请报告实验者已完成实验

非常感谢，再见！",1.5,0,1.5,left,RRLRR.png,,,,,0,1,1,1,2,14,62,18,,,,,,,,,,,,,,,,,,,,,,,,,,,,,,,,,,,,,,,,,,,,,,,,,,,,,,,,,,,,,,,,369.81209829996806,370.2145661999821,370.1968166999868,370.29773589997785,370.6982621999923,None,left,1,0.4798832999658771,370.6982621999923,None,370.1968166999868,370.29773589997785,370.29773589997785,None,371.1978953999933,None,,,,,,,11041,001,2024_Mar_15_1421,ANT,2021.2.3,59.816411457765994,
1,5,no,down,C,L,,,,,,Block.xlsx,"你已经完成了整个实验（三个区组）。

请报告实验者已完成实验

非常感谢，再见！",50,0,-1.5,left,LLLLL.png,,,,,0,1,1,1,2,15,63,4,,,,,,,,,,,,,,,,,,,,,,,,,,,,,,,,,,,,,,,,,,,,,,,,,,,,,,,,,,,,,,,,371.5982235999545,372.00016110000433,371.98222379997605,372.08272499998566,372.48362019995693,None,left,1,0.6063196000177413,372.48362019995693,None,371.98222379997605,372.08272499998566,372.08272499998566,None,373.1174342999584,None,,,,,,,11041,001,2024_Mar_15_1421,ANT,2021.2.3,59.816411457765994,
1,6,no,down,C,R,,,,,,Block.xlsx,"你已经完成了整个实验（三个区组）。

请报告实验者已完成实验

非常感谢，再见！",50,0,-1.5,right,RRRRR.png,,,,,0,1,1,1,2,16,64,5,,,,,,,,,,,,,,,,,,,,,,,,,,,,,,,,,,,,,,,,,,,,,,,,,,,,,,,,,,,,,,,,373.5179314999841,373.9194625999662,373.9020290999906,374.00339309999254,374.40351409994764,None,right,1,0.5269240000052378,374.40351409994764,None,373.9020290999906,374.00339309999254,374.00339309999254,None,374.95334429998184,None,,,,,,,11041,001,2024_Mar_15_1421,ANT,2021.2.3,59.816411457765994,
1,2,no,up,C,R,,,,,,Block.xlsx,"你已经完成了整个实验（三个区组）。

请报告实验者已完成实验

非常感谢，再见！",50,0,1.5,right,RRRRR.png,,,,,0,1,1,1,2,17,65,1,,,,,,,,,,,,,,,,,,,,,,,,,,,,,,,,,,,,,,,,,,,,,,,,,,,,,,,,,,,,,,,,375.35421540000243,375.755196699989,375.74027929996373,375.8554463000037,376.2403137999936,None,right,1,0.4739949000068009,376.2403137999936,None,375.74027929996373,375.8554463000037,375.83817919995636,None,376.73971319996053,None,,,,,,,11041,001,2024_Mar_15_1421,ANT,2021.2.3,59.816411457765994,
1,24,spatial,down,IC,R,,,,,,Block.xlsx,"你已经完成了整个实验（三个区组）。

请报告实验者已完成实验

非常感谢，再见！",-1.5,0,-1.5,right,LLRLL.png,,,,,0,1,1,1,2,18,66,23,,,,,,,,,,,,,,,,,,,,,,,,,,,,,,,,,,,,,,,,,,,,,,,,,,,,,,,,,,,,,,,,377.14021579996916,377.542319799948,377.52450559998397,377.62440869997954,378.0273675999488,None,right,1,0.43877960002282634,378.0273675999488,None,377.52450559998397,377.62440869997954,377.62440869997954,None,378.4925499999663,None,,,,,,,11041,001,2024_Mar_15_1421,ANT,2021.2.3,59.816411457765994,
1,24,spatial,down,IC,R,,,,,,Block.xlsx,"你已经完成了整个实验（三个区组）。

请报告实验者已完成实验

非常感谢，再见！",-1.5,0,-1.5,right,LLRLL.png,,,,,0,1,1,1,2,19,67,23,,,,,,,,,,,,,,,,,,,,,,,,,,,,,,,,,,,,,,,,,,,,,,,,,,,,,,,,,,,,,,,,378.8933972999803,379.29357579996577,379.2792261999566,379.393538699951,379.77881399996113,None,right,1,0.43109219998586923,379.77881399996113,None,379.2792261999566,379.393538699951,379.3783325999975,None,380.22843399998965,None,,,,,,,11041,001,2024_Mar_15_1421,ANT,2021.2.3,59.816411457765994,
1,3,no,up,IC,L,,,,,,Block.xlsx,"你已经完成了整个实验（三个区组）。

请报告实验者已完成实验

非常感谢，再见！",50,0,1.5,left,RRLRR.png,,,,,0,1,1,1,2,20,68,2,,,,,,,,,,,,,,,,,,,,,,,,,,,,,,,,,,,,,,,,,,,,,,,,,,,,,,,,,,,,,,,,380.6286914999946,381.029567199992,381.0134100999567,381.1130697999615,381.51333799998974,None,left,1,0.5769323999993503,381.51333799998974,None,381.0134100999567,381.1130697999615,381.1130697999615,None,382.1146421000012,None,,,,,,,11041,001,2024_Mar_15_1421,ANT,2021.2.3,59.816411457765994,
1,8,no,down,IC,R,,,,,,Block.xlsx,"你已经完成了整个实验（三个区组）。

请报告实验者已完成实验

非常感谢，再见！",50,0,-1.5,right,LLRLL.png,,,,,0,1,1,1,2,21,69,7,,,,,,,,,,,,,,,,,,,,,,,,,,,,,,,,,,,,,,,,,,,,,,,,,,,,,,,,,,,,,,,,382.5150919999578,382.9169880999834,382.8991919999826,382.999764499953,383.4002278999542,None,right,1,0.4580205000238493,383.4002278999542,None,382.8991919999826,382.999764499953,382.999764499953,None,383.8839073999552,None,,,,,,,11041,001,2024_Mar_15_1421,ANT,2021.2.3,59.816411457765994,
1,3,no,up,IC,L,,,,,,Block.xlsx,"你已经完成了整个实验（三个区组）。

请报告实验者已完成实验

非常感谢，再见！",50,0,1.5,left,RRLRR.png,,,,,0,1,1,1,2,22,70,2,,,,,,,,,,,,,,,,,,,,,,,,,,,,,,,,,,,,,,,,,,,,,,,,,,,,,,,,,,,,,,,,384.2842922999989,384.68515999999363,384.66826979996404,384.76977689994965,385.1690496999654,None,left,1,0.5212814999977127,385.1690496999654,None,384.66826979996404,384.76977689994965,384.76977689994965,None,385.71961689996533,None,,,,,,,11041,001,2024_Mar_15_1421,ANT,2021.2.3,59.816411457765994,
1,11,center,up,IC,L,,,,,,Block.xlsx,"你已经完成了整个实验（三个区组）。

请报告实验者已完成实验

非常感谢，再见！",0,50,1.5,left,RRLRR.png,,,,,0,1,1,1,2,23,71,10,,,,,,,,,,,,,,,,,,,,,,,,,,,,,,,,,,,,,,,,,,,,,,,,,,,,,,,,,,,,,,,,386.1209426999558,386.52231169998413,386.5043222999666,386.60550249996595,387.0052660999936,None,left,1,0.5732163999928162,387.0052660999936,None,386.5043222999666,386.60550249996595,386.60550249996595,None,387.6059232999687,None,,,,,,,11041,001,2024_Mar_15_1421,ANT,2021.2.3,59.816411457765994,
1,11,center,up,IC,L,,,,,,Block.xlsx,"你已经完成了整个实验（三个区组）。

请报告实验者已完成实验

非常感谢，再见！",0,50,1.5,left,RRLRR.png,,,,,0,1,1,1,3,0,72,10,,,,,,,,,,,,,,,,,,,,,,,,,,,,,,,,,,,,,,,,,,,,,,,,,,,,,,,,,,,,,,,,388.0069550999906,388.40730649995385,388.3904383999761,388.49190589995123,388.8926789999823,None,left,1,0.3896836999920197,388.8926789999823,None,388.3904383999761,388.49190589995123,388.49190589995123,None,389.3085807999596,None,,,,,,,11041,001,2024_Mar_15_1421,ANT,2021.2.3,59.816411457765994,
1,7,no,down,IC,L,,,,,,Block.xlsx,"你已经完成了整个实验（三个区组）。

请报告实验者已完成实验

非常感谢，再见！",50,0,-1.5,left,RRLRR.png,,,,,0,1,1,1,3,1,73,6,,,,,,,,,,,,,,,,,,,,,,,,,,,,,,,,,,,,,,,,,,,,,,,,,,,,,,,,,,,,,,,,389.7095087999478,390.11086719995365,390.09313539997675,390.19322239997564,390.59558729996206,None,left,1,0.6226792000234127,390.59558729996206,None,390.09313539997675,390.19322239997564,390.19322239997564,None,391.24459889996797,None,,,,,,,11041,001,2024_Mar_15_1421,ANT,2021.2.3,59.816411457765994,
1,19,spatial,up,IC,L,,,,,,Block.xlsx,"你已经完成了整个实验（三个区组）。

请报告实验者已完成实验

非常感谢，再见！",1.5,0,1.5,left,RRLRR.png,,,,,0,1,1,1,3,2,74,18,,,,,,,,,,,,,,,,,,,,,,,,,,,,,,,,,,,,,,,,,,,,,,,,,,,,,,,,,,,,,,,,391.64545189996716,392.04860759997973,392.02992539998377,392.1298179999576,392.5301783999894,None,left,1,0.4884675999637693,392.5301783999894,None,392.02992539998377,392.1298179999576,392.1298179999576,None,393.0475630000001,None,,,,,,,11041,001,2024_Mar_15_1421,ANT,2021.2.3,59.816411457765994,
1,6,no,down,C,R,,,,,,Block.xlsx,"你已经完成了整个实验（三个区组）。

请报告实验者已完成实验

非常感谢，再见！",50,0,-1.5,right,RRRRR.png,,,,,0,1,1,1,3,3,75,5,,,,,,,,,,,,,,,,,,,,,,,,,,,,,,,,,,,,,,,,,,,,,,,,,,,,,,,,,,,,,,,,393.44851619994733,393.8487682999694,393.83206419995986,393.9341471999651,394.33292029995937,None,right,1,0.3661170999985188,394.33292029995937,None,393.83206419995986,393.9341471999651,393.9341471999651,None,394.7164076999761,None,,,,,,,11041,001,2024_Mar_15_1421,ANT,2021.2.3,59.816411457765994,
1,5,no,down,C,L,,,,,,Block.xlsx,"你已经完成了整个实验（三个区组）。

请报告实验者已完成实验

非常感谢，再见！",50,0,-1.5,left,LLLLL.png,,,,,0,1,1,1,3,4,76,4,,,,,,,,,,,,,,,,,,,,,,,,,,,,,,,,,,,,,,,,,,,,,,,,,,,,,,,,,,,,,,,,395.11707249999745,395.5200915999594,395.5012829999905,395.60146589996293,396.00328649999574,None,left,1,0.6553507999633439,396.00328649999574,None,395.5012829999905,395.60146589996293,395.60146589996293,None,396.68634809996,None,,,,,,,11041,001,2024_Mar_15_1421,ANT,2021.2.3,59.816411457765994,
1,18,spatial,up,C,R,,,,,,Block.xlsx,"你已经完成了整个实验（三个区组）。

请报告实验者已完成实验

非常感谢，再见！",1.5,0,1.5,right,RRRRR.png,,,,,0,1,1,1,3,5,77,17,,,,,,,,,,,,,,,,,,,,,,,,,,,,,,,,,,,,,,,,,,,,,,,,,,,,,,,,,,,,,,,,397.08729279995896,397.4874543999904,397.47199429996544,397.5713918999536,397.9719152000034,None,right,1,0.44672870001522824,397.9719152000034,None,397.47199429996544,397.5713918999536,397.5713918999536,None,398.4389454999473,None,,,,,,,11041,001,2024_Mar_15_1421,ANT,2021.2.3,59.816411457765994,
1,16,center,down,IC,R,,,,,,Block.xlsx,"你已经完成了整个实验（三个区组）。

请报告实验者已完成实验

非常感谢，再见！",0,50,-1.5,right,LLRLL.png,,,,,0,1,1,1,3,6,78,15,,,,,,,,,,,,,,,,,,,,,,,,,,,,,,,,,,,,,,,,,,,,,,,,,,,,,,,,,,,,,,,,398.83956159994705,399.2417824000004,399.22342349996325,399.3236795999692,399.7262579999515,None,right,1,0.5963501000078395,399.7262579999515,None,399.22342349996325,399.3236795999692,399.3236795999692,None,400.34232999995584,None,,,,,,,11041,001,2024_Mar_15_1421,ANT,2021.2.3,59.816411457765994,
1,7,no,down,IC,L,,,,,,Block.xlsx,"你已经完成了整个实验（三个区组）。

请报告实验者已完成实验

非常感谢，再见！",50,0,-1.5,left,RRLRR.png,,,,,0,1,1,1,3,7,79,6,,,,,,,,,,,,,,,,,,,,,,,,,,,,,,,,,,,,,,,,,,,,,,,,,,,,,,,,,,,,,,,,400.74256739998236,401.144059299957,401.12666549999267,401.2265500999638,401.628630399995,None,left,1,0.5824843000154942,401.628630399995,None,401.12666549999267,401.2265500999638,401.2265500999638,None,402.2281714999699,None,,,,,,,11041,001,2024_Mar_15_1421,ANT,2021.2.3,59.816411457765994,
1,20,spatial,up,IC,R,,,,,,Block.xlsx,"你已经完成了整个实验（三个区组）。

请报告实验者已完成实验

非常感谢，再见！",1.5,0,1.5,right,LLRLL.png,,,,,0,1,1,1,3,8,80,19,,,,,,,,,,,,,,,,,,,,,,,,,,,,,,,,,,,,,,,,,,,,,,,,,,,,,,,,,,,,,,,,402.62854519998655,403.0293808999704,403.01241379999556,403.1129305999493,403.5136870999704,None,right,1,0.4736796999932267,403.5136870999704,None,403.01241379999556,403.1129305999493,403.1129305999493,None,404.0141400999855,None,,,,,,,11041,001,2024_Mar_15_1421,ANT,2021.2.3,59.816411457765994,
1,10,center,up,C,R,,,,,,Block.xlsx,"你已经完成了整个实验（三个区组）。

请报告实验者已完成实验

非常感谢，再见！",0,50,1.5,right,RRRRR.png,,,,,0,1,1,1,3,9,81,9,,,,,,,,,,,,,,,,,,,,,,,,,,,,,,,,,,,,,,,,,,,,,,,,,,,,,,,,,,,,,,,,404.41499709995696,404.8163696999545,404.7987952999538,404.8989636999904,405.29943909996655,None,right,1,0.44764450000366196,405.29943909996655,None,404.7987952999538,404.8989636999904,404.8989636999904,None,405.7670106999576,None,,,,,,,11041,001,2024_Mar_15_1421,ANT,2021.2.3,59.816411457765994,
1,6,no,down,C,R,,,,,,Block.xlsx,"你已经完成了整个实验（三个区组）。

请报告实验者已完成实验

非常感谢，再见！",50,0,-1.5,right,RRRRR.png,,,,,0,1,1,1,3,10,82,5,,,,,,,,,,,,,,,,,,,,,,,,,,,,,,,,,,,,,,,,,,,,,,,,,,,,,,,,,,,,,,,,406.16718729998684,406.5683866000036,406.5523353999597,406.65175059996545,407.0534884999506,None,right,1,0.46944160002749413,407.0534884999506,None,406.5523353999597,406.65175059996545,406.65175059996545,None,407.5530784999719,None,,,,,,,11041,001,2024_Mar_15_1421,ANT,2021.2.3,59.816411457765994,
1,15,center,down,IC,L,,,,,,Block.xlsx,"你已经完成了整个实验（三个区组）。

请报告实验者已完成实验

非常感谢，再见！",0,50,-1.5,left,RRLRR.png,,,,,0,1,1,1,3,11,83,14,,,,,,,,,,,,,,,,,,,,,,,,,,,,,,,,,,,,,,,,,,,,,,,,,,,,,,,,,,,,,,,,407.9533158999984,408.3537517999648,408.33792339998763,408.4379674999509,408.8385510999942,None,left,1,0.6445992999942973,408.8385510999942,None,408.33792339998763,408.4379674999509,408.4379674999509,None,409.50562999997055,None,,,,,,,11041,001,2024_Mar_15_1421,ANT,2021.2.3,59.816411457765994,
1,5,no,down,C,L,,,,,,Block.xlsx,"你已经完成了整个实验（三个区组）。

请报告实验者已完成实验

非常感谢，再见！",50,0,-1.5,left,LLLLL.png,,,,,0,1,1,1,3,12,84,4,,,,,,,,,,,,,,,,,,,,,,,,,,,,,,,,,,,,,,,,,,,,,,,,,,,,,,,,,,,,,,,,409.9063278999529,410.308007399959,410.29017999995267,410.39165509998566,410.7914862000034,None,left,1,0.48428679996868595,410.7914862000034,None,410.29017999995267,410.39165509998566,410.39165509998566,None,411.2915374999866,None,,,,,,,11041,001,2024_Mar_15_1421,ANT,2021.2.3,59.816411457765994,
1,11,center,up,IC,L,,,,,,Block.xlsx,"你已经完成了整个实验（三个区组）。

请报告实验者已完成实验

非常感谢，再见！",0,50,1.5,left,RRLRR.png,,,,,0,1,1,1,3,13,85,10,,,,,,,,,,,,,,,,,,,,,,,,,,,,,,,,,,,,,,,,,,,,,,,,,,,,,,,,,,,,,,,,411.6924335999647,412.09277139999904,412.07618569995975,412.1771620999789,412.5770554000046,None,left,1,0.5458428999991156,412.5770554000046,None,412.07618569995975,412.1771620999789,412.1771620999789,None,413.1443395999959,None,,,,,,,11041,001,2024_Mar_15_1421,ANT,2021.2.3,59.816411457765994,
1,13,center,down,C,L,,,,,,Block.xlsx,"你已经完成了整个实验（三个区组）。

请报告实验者已完成实验

非常感谢，再见！",0,50,-1.5,left,LLLLL.png,,,,,0,1,1,1,3,14,86,12,,,,,,,,,,,,,,,,,,,,,,,,,,,,,,,,,,,,,,,,,,,,,,,,,,,,,,,,,,,,,,,,413.5450283999671,413.9466555999825,413.92907109996304,414.0296212999965,414.43082779995166,None,left,1,0.5165713999886066,414.43082779995166,None,413.92907109996304,414.0296212999965,414.0296212999965,None,414.96417299995665,None,,,,,,,11041,001,2024_Mar_15_1421,ANT,2021.2.3,59.816411457765994,
1,10,center,up,C,R,,,,,,Block.xlsx,"你已经完成了整个实验（三个区组）。

请报告实验者已完成实验

非常感谢，再见！",0,50,1.5,right,RRRRR.png,,,,,0,1,1,1,3,15,87,9,,,,,,,,,,,,,,,,,,,,,,,,,,,,,,,,,,,,,,,,,,,,,,,,,,,,,,,,,,,,,,,,415.3644304999616,415.7674957999843,415.7488437999855,415.84842969995225,416.24960300000384,None,right,1,0.4818152000079863,416.24960300000384,None,415.7488437999855,415.84842969995225,415.84842969995225,None,416.7501682000002,None,,,,,,,11041,001,2024_Mar_15_1421,ANT,2021.2.3,59.816411457765994,
1,23,spatial,down,IC,L,,,,,,Block.xlsx,"你已经完成了整个实验（三个区组）。

请报告实验者已完成实验

非常感谢，再见！",-1.5,0,-1.5,left,RRLRR.png,,,,,0,1,1,1,3,16,88,22,,,,,,,,,,,,,,,,,,,,,,,,,,,,,,,,,,,,,,,,,,,,,,,,,,,,,,,,,,,,,,,,417.1505233999924,417.5512184999534,417.5345757000032,417.6363311999594,418.03555789997336,None,left,1,0.3917065999703482,418.03555789997336,None,417.5345757000032,417.6363311999594,417.6363311999594,None,418.452433199971,None,,,,,,,11041,001,2024_Mar_15_1421,ANT,2021.2.3,59.816411457765994,
1,16,center,down,IC,R,,,,,,Block.xlsx,"你已经完成了整个实验（三个区组）。

请报告实验者已完成实验

非常感谢，再见！",0,50,-1.5,right,LLRLL.png,,,,,0,1,1,1,3,17,89,15,,,,,,,,,,,,,,,,,,,,,,,,,,,,,,,,,,,,,,,,,,,,,,,,,,,,,,,,,,,,,,,,418.85303169995314,419.2545637000003,419.237069899973,419.33858019998297,419.7390159999486,None,right,1,0.5762416000361554,419.7390159999486,None,419.237069899973,419.33858019998297,419.33858019998297,None,420.33871999999974,None,,,,,,,11041,001,2024_Mar_15_1421,ANT,2021.2.3,59.816411457765994,
1,24,spatial,down,IC,R,,,,,,Block.xlsx,"你已经完成了整个实验（三个区组）。

请报告实验者已完成实验

非常感谢，再见！",-1.5,0,-1.5,right,LLRLL.png,,,,,0,1,1,1,3,18,90,23,,,,,,,,,,,,,,,,,,,,,,,,,,,,,,,,,,,,,,,,,,,,,,,,,,,,,,,,,,,,,,,,420.7393306999584,421.14058759994805,421.12324339995394,421.22497479995945,421.6239352999837,None,right,1,0.4513545000227168,421.6239352999837,None,421.12324339995394,421.22497479995945,421.22497479995945,None,422.0911580999964,None,,,,,,,11041,001,2024_Mar_15_1421,ANT,2021.2.3,59.816411457765994,
1,16,center,down,IC,R,,,,,,Block.xlsx,"你已经完成了整个实验（三个区组）。

请报告实验者已完成实验

非常感谢，再见！",0,50,-1.5,right,LLRLL.png,,,,,0,1,1,1,3,19,91,15,,,,,,,,,,,,,,,,,,,,,,,,,,,,,,,,,,,,,,,,,,,,,,,,,,,,,,,,,,,,,,,,422.49196279997705,422.89270480000414,422.8762120999745,422.97657189995516,423.37650409998605,None,right,1,0.6748661000165157,423.37650409998605,None,422.8762120999745,422.97657189995516,422.97657189995516,None,424.0774613999529,None,,,,,,,11041,001,2024_Mar_15_1421,ANT,2021.2.3,59.816411457765994,
1,15,center,down,IC,L,,,,,,Block.xlsx,"你已经完成了整个实验（三个区组）。

请报告实验者已完成实验

