TrialType,TrialNumber,WarningType,TargetType,FlankerType,TargetDirection,W,f,Y,corr,imageFile,condition,endtext,Yw,Yf,Yt,Corr,imagefile,trials_3.thisRepN,trials_3.thisTrialN,trials_3.thisN,trials_3.thisIndex,trials_2.thisRepN,trials_2.thisTrialN,trials_2.thisN,trials_2.thisIndex,trials.thisRepN,trials.thisTrialN,trials.thisN,trials.thisIndex,instr.started,instr.stopped,key_resp.keys,key_resp.rt,key_resp.started,key_resp.stopped,image.started,image.stopped,key_resp_6.keys,key_resp_6.rt,key_resp_6.started,key_resp_6.stopped,EX_L.started,EX_L.stopped,AL.started,AL.stopped,key_resp_7.keys,key_resp_7.rt,key_resp_7.started,key_resp_7.stopped,EX_R.started,EX_R.stopped,RR.started,RR.stopped,key_resp_8.keys,key_resp_8.rt,key_resp_8.started,key_resp_8.stopped,image_2.started,image_2.stopped,key_resp_9.keys,key_resp_9.rt,key_resp_9.started,key_resp_9.stopped,image_3.started,image_3.stopped,key_resp_10.keys,key_resp_10.rt,key_resp_10.started,key_resp_10.stopped,fix.started,fix.stopped,war.started,war.stopped,tar.started,tar.stopped,key_resp_4.keys,key_resp_4.corr,key_resp_4.rt,key_resp_4.started,key_resp_4.stopped,fix2.started,fix2.stopped,fix_2.started,fix_2.stopped,Feedback.started,Feedback.stopped,key_resp_2.keys,key_resp_2.rt,key_resp_2.started,key_resp_2.stopped,text_5.started,text_5.stopped,fix2_1.started,fix2_1.stopped,Warn.started,Warn.stopped,Tar.started,Tar.stopped,key_resp_5.keys,key_resp_5.corr,key_resp_5.rt,key_resp_5.started,key_resp_5.stopped,Fix_2.started,Fix_2.stopped,fix2_2.started,fix2_2.stopped,text_4.started,text_4.stopped,key_resp_3.keys,key_resp_3.rt,key_resp_3.started,key_resp_3.stopped,text_3.started,text_3.stopped,participant,session,date,expName,psychopyVersion,frameRate,
,,,,,,,,,,,,,,,,,,,,,,,,,,,,,,11.15038690000074,None,space,1.6738206000009086,11.15038690000074,None,,,,,,,,,,,,,,,,,,,,,,,,,,,,,,,,,,,,,,,,,,,,,,,,,,,,,,,,,,,,,,,,,,,,,,,,,,,,,,,,,11040,001,2024_Mar_13_1450,ANT,2021.2.3,60.074744996890324,
,,,,,,,,,,,,,,,,,,,,,,,,,,,,,,,,,,,,12.851911800011294,None,space,8.436686200002441,12.851911800011294,None,,,,,,,,,,,,,,,,,,,,,,,,,,,,,,,,,,,,,,,,,,,,,,,,,,,,,,,,,,,,,,,,,,,,,,,,,,,11040,001,2024_Mar_13_1450,ANT,2021.2.3,60.074744996890324,
,,,,,,,,,,,,,,,,,,,,,,,,,,,,,,,,,,,,,,,,,,21.31477630000154,None,21.31477630000154,None,left,2.422334300004877,21.31477630000154,None,,,,,,,,,,,,,,,,,,,,,,,,,,,,,,,,,,,,,,,,,,,,,,,,,,,,,,,,,,,,,,,,,,,11040,001,2024_Mar_13_1450,ANT,2021.2.3,60.074744996890324,
,,,,,,,,,,,,,,,,,,,,,,,,,,,,,,,,,,,,,,,,,,,,,,,,,,23.751890300001833,None,23.751890300001833,None,right,0.7691242000000784,23.751890300001833,None,,,,,,,,,,,,,,,,,,,,,,,,,,,,,,,,,,,,,,,,,,,,,,,,,,,,,,,,,,,11040,001,2024_Mar_13_1450,ANT,2021.2.3,60.074744996890324,
,,,,,,,,,,,,,,,,,,,,,,,,,,,,,,,,,,,,,,,,,,,,,,,,,,,,,,,,,,24.53632210000069,None,space,4.857221099999151,24.53632210000069,None,,,,,,,,,,,,,,,,,,,,,,,,,,,,,,,,,,,,,,,,,,,,,,,,,,,,,11040,001,2024_Mar_13_1450,ANT,2021.2.3,60.074744996890324,
,,,,,,,,,,,,,,,,,,,,,,,,,,,,,,,,,,,,,,,,,,,,,,,,,,,,,,,,,,,,,,,,29.410313100001076,None,space,2.2549549999966985,29.410313100001076,None,,,,,,,,,,,,,,,,,,,,,,,,,,,,,,,,,,,,,,,,,,,,,,,11040,001,2024_Mar_13_1450,ANT,2021.2.3,60.074744996890324,
0,3,no,down,C,R,50,0,-1.5,right,RRRRR.png,,,,,,,,0,0,0,2,,,,,,,,,,,,,,,,,,,,,,,,,,,,,,,,,,,,,,,,,,,,,,,,,31.74695950000023,32.149634800007334,32.13138510000135,32.23154490000161,32.63160060001246,None,right,1,0.9372107999952277,32.63160060001246,None,32.13138510000135,32.23154490000161,32.23154490000161,None,33.600296800010256,None,,,,,,,,,,,,,,,,,,,,,,,,,,,,,,11040,001,2024_Mar_13_1450,ANT,2021.2.3,60.074744996890324,
0,8,center,down,IC,L,0,50,-1.5,left,RRLRR.png,,,,,,,,0,1,1,7,,,,,,,,,,,,,,,,,,,,,,,,,,,,,,,,,,,,,,,,,,,,,,,,,35.60279450000962,36.00354320000042,35.986983800001326,36.088209000008646,36.48906980000902,None,left,1,0.6001993999961996,36.48906980000902,None,35.986983800001326,36.088209000008646,36.088209000008646,None,37.105148100003134,None,,,,,,,,,,,,,,,,,,,,,,,,,,,,,,11040,001,2024_Mar_13_1450,ANT,2021.2.3,60.074744996890324,
0,5,center,up,C,L,0,50,1.5,left,LLLLL.png,,,,,,,,0,2,2,4,,,,,,,,,,,,,,,,,,,,,,,,,,,,,,,,,,,,,,,,,,,,,,,,,39.108262600013404,39.50921509999898,39.494244000001345,39.609015800000634,39.99327510000148,None,left,1,0.5515626999986125,39.99327510000148,None,39.494244000001345,39.609015800000634,39.59220769999956,None,40.56029200000921,None,,,,,,,,,,,,,,,,,,,,,,,,,,,,,,11040,001,2024_Mar_13_1450,ANT,2021.2.3,60.074744996890324,
0,4,no,down,IC,L,50,0,-1.5,left,RRLRR.png,,,,,,,,0,3,3,3,,,,,,,,,,,,,,,,,,,,,,,,,,,,,,,,,,,,,,,,,,,,,,,,,42.56364980000944,42.96418160000758,42.94826790000661,43.04762450000271,43.44815039999958,None,left,1,0.5447589999967022,43.44815039999958,None,42.94826790000661,43.04762450000271,43.04762450000271,None,44.01549740000337,None,,,,,,,,,,,,,,,,,,,,,,,,,,,,,,11040,001,2024_Mar_13_1450,ANT,2021.2.3,60.074744996890324,
0,2,no,up,IC,R,50,0,1.5,right,LLRLL.png,,,,,,,,0,4,4,1,,,,,,,,,,,,,,,,,,,,,,,,,,,,,,,,,,,,,,,,,,,,,,,,,46.01865490000637,46.41939090000233,46.402693100011675,46.504163700010395,46.90422260000196,None,right,1,0.4329794000077527,46.90422260000196,None,46.402693100011675,46.504163700010395,46.504163700010395,None,47.35425329999998,None,,,,,,,,,,,,,,,,,,,,,,,,,,,,,,11040,001,2024_Mar_13_1450,ANT,2021.2.3,60.074744996890324,
0,10,spatial,up,IC,L,1.5,0,1.5,left,RRLRR.png,,,,,,,,0,5,5,9,,,,,,,,,,,,,,,,,,,,,,,,,,,,,,,,,,,,,,,,,,,,,,,,,49.357274699999834,49.75769600000058,49.74114380001265,49.84103980001237,50.24433300000965,None,left,1,0.43680729999323376,50.24433300000965,None,49.74114380001265,49.84103980001237,49.84103980001237,None,50.709733200012124,None,,,,,,,,,,,,,,,,,,,,,,,,,,,,,,11040,001,2024_Mar_13_1450,ANT,2021.2.3,60.074744996890324,
0,11,spatial,down,C,L,-1.5,0,-1.5,left,LLLLL.png,,,,,,,,0,6,6,10,,,,,,,,,,,,,,,,,,,,,,,,,,,,,,,,,,,,,,,,,,,,,,,,,52.71259930000815,53.113686400000006,53.0967806000117,53.19642150000436,53.596684100004495,None,left,1,0.3649065000063274,53.596684100004495,None,53.0967806000117,53.19642150000436,53.19642150000436,None,53.98089280001295,None,,,,,,,,,,,,,,,,,,,,,,,,,,,,,,11040,001,2024_Mar_13_1450,ANT,2021.2.3,60.074744996890324,
0,1,no,up,C,L,50,0,1.5,left,LLLLL.png,,,,,,,,0,7,7,0,,,,,,,,,,,,,,,,,,,,,,,,,,,,,,,,,,,,,,,,,,,,,,,,,55.98394630000985,56.38466170000902,56.36765440000454,56.46851280001283,56.86919320000743,None,left,1,0.5651295999996364,56.86919320000743,None,56.36765440000454,56.46851280001283,56.46851280001283,None,57.45256300001347,None,,,,,,,,,,,,,,,,,,,,,,,,,,,,,,11040,001,2024_Mar_13_1450,ANT,2021.2.3,60.074744996890324,
0,9,spatial,up,C,R,1.5,0,1.5,right,RRRRR.png,,,,,,,,0,8,8,8,,,,,,,,,,,,,,,,,,,,,,,,,,,,,,,,,,,,,,,,,,,,,,,,,59.45563850000326,59.85696550000284,59.84027330001118,59.94074489999912,60.34266720000596,None,right,1,0.4267371999885654,60.34266720000596,None,59.84027330001118,59.94074489999912,59.94074489999912,None,60.790875100006815,None,,,,,,,,,,,,,,,,,,,,,,,,,,,,,,11040,001,2024_Mar_13_1450,ANT,2021.2.3,60.074744996890324,
0,6,center,up,IC,R,0,50,1.5,right,LLRLL.png,,,,,,,,0,9,9,5,,,,,,,,,,,,,,,,,,,,,,,,,,,,,,,,,,,,,,,,,,,,,,,,,62.79382250001072,63.19511970000167,63.179591500011156,63.294710900008795,63.68001670000376,None,left,0,0.44961209999746643,63.68001670000376,None,63.179591500011156,63.294710900008795,63.27979550001328,None,64.14591920000385,None,,,,,,,,,,,,,,,,,,,,,,,,,,,,,,11040,001,2024_Mar_13_1450,ANT,2021.2.3,60.074744996890324,
0,12,spatial,down,IC,R,-1.5,0,-1.5,right,LLRLL.png,,,,,,,,0,10,10,11,,,,,,,,,,,,,,,,,,,,,,,,,,,,,,,,,,,,,,,,,,,,,,,,,66.14968149999913,66.54948640000657,66.53286150000349,66.63438490001136,67.03548090001277,None,right,1,0.4944990000076359,67.03548090001277,None,66.53286150000349,66.63438490001136,66.63438490001136,None,67.55103850000887,None,,,,,,,,,,,,,,,,,,,,,,,,,,,,,,11040,001,2024_Mar_13_1450,ANT,2021.2.3,60.074744996890324,
0,7,center,down,C,R,0,50,-1.5,right,RRRRR.png,,,,,,,,0,11,11,6,,,,,,,,,,,,,,,,,,,,,,,,,,,,,,,,,,,,,,,,,,,,,,,,,69.55413750000298,69.95648580000852,69.93813280000177,70.0390202000126,70.43898140000238,None,right,1,0.474687099995208,70.43898140000238,None,69.93813280000177,70.0390202000126,70.0390202000126,None,70.93961940000008,None,,,,,,,,,,,,,,,,,,,,,,,,,,,,,,11040,001,2024_Mar_13_1450,ANT,2021.2.3,60.074744996890324,
,,,,,,,,,,,,,,,,,,,,,,,,,,,,,,,,,,,,,,,,,,,,,,,,,,,,,,,,,,,,,,,,,,,,,,,,,,,,,,,,,,,,,,,space,13.923354099999415,72.94271960000333,None,,,,,,,,,,,,,,,,,,,,,,,,,,11040,001,2024_Mar_13_1450,ANT,2021.2.3,60.074744996890324,
1,16,center,down,IC,R,,,,,,Block.xlsx,"你已经完成了第一个实验区组

请稍作休息


点击空格键进入下一个区组。",0,50,-1.5,right,LLRLL.png,,,,,0,0,0,0,0,0,0,15,,,,,,,,,,,,,,,,,,,,,,,,,,,,,,,,,,,,,,,,,,,,,,,,,,,,,,,,,,,,,,72.94271960000333,None,86.93050620000577,87.33120020000206,87.31507039999997,87.4145153999998,87.8150495000009,None,right,1,0.7074438000126975,87.8150495000009,None,87.31507039999997,87.4145153999998,87.4145153999998,None,88.5494491999998,None,,,,,,,11040,001,2024_Mar_13_1450,ANT,2021.2.3,60.074744996890324,
1,16,center,down,IC,R,,,,,,Block.xlsx,"你已经完成了第一个实验区组

请稍作休息


点击空格键进入下一个区组。",0,50,-1.5,right,LLRLL.png,,,,,0,0,0,0,0,1,1,15,,,,,,,,,,,,,,,,,,,,,,,,,,,,,,,,,,,,,,,,,,,,,,,,,,,,,,,,,,,,,,,,88.94996860000538,89.35102700001153,89.3348898000113,89.43480770000315,89.83679200000188,None,right,1,0.4536112000059802,89.83679200000188,None,89.3348898000113,89.43480770000315,89.43480770000315,None,90.31882020000194,None,,,,,,,11040,001,2024_Mar_13_1450,ANT,2021.2.3,60.074744996890324,
1,19,spatial,up,IC,L,,,,,,Block.xlsx,"你已经完成了第一个实验区组

请稍作休息


点击空格键进入下一个区组。",1.5,0,1.5,left,RRLRR.png,,,,,0,0,0,0,0,2,2,18,,,,,,,,,,,,,,,,,,,,,,,,,,,,,,,,,,,,,,,,,,,,,,,,,,,,,,,,,,,,,,,,90.72038260000409,91.1209569000057,91.1034820000059,91.20346270001028,91.60450350001338,None,left,1,0.8219593999965582,91.60450350001338,None,91.1034820000059,91.20346270001028,91.20346270001028,None,92.45519610001065,None,,,,,,,11040,001,2024_Mar_13_1450,ANT,2021.2.3,60.074744996890324,
1,15,center,down,IC,L,,,,,,Block.xlsx,"你已经完成了第一个实验区组

请稍作休息


点击空格键进入下一个区组。",0,50,-1.5,left,RRLRR.png,,,,,0,0,0,0,0,3,3,14,,,,,,,,,,,,,,,,,,,,,,,,,,,,,,,,,,,,,,,,,,,,,,,,,,,,,,,,,,,,,,,,92.8560787000024,93.25745070000994,93.23978910000005,93.34185130000697,93.74055630000657,None,right,0,0.3821804000035627,93.74055630000657,None,93.23978910000005,93.34185130000697,93.34185130000697,None,94.14139970000542,None,,,,,,,11040,001,2024_Mar_13_1450,ANT,2021.2.3,60.074744996890324,
1,22,spatial,down,C,R,,,,,,Block.xlsx,"你已经完成了第一个实验区组

请稍作休息


点击空格键进入下一个区组。",-1.5,0,-1.5,right,RRRRR.png,,,,,0,0,0,0,0,4,4,21,,,,,,,,,,,,,,,,,,,,,,,,,,,,,,,,,,,,,,,,,,,,,,,,,,,,,,,,,,,,,,,,94.54186870000558,94.9428853999998,94.92566700000316,95.02693659999932,95.4283429000061,None,right,1,0.3500227999902563,95.4283429000061,None,94.92566700000316,95.02693659999932,95.02693659999932,None,95.79382260001148,None,,,,,,,11040,001,2024_Mar_13_1450,ANT,2021.2.3,60.074744996890324,
1,21,spatial,down,C,L,,,,,,Block.xlsx,"你已经完成了第一个实验区组

请稍作休息


点击空格键进入下一个区组。",-1.5,0,-1.5,left,LLLLL.png,,,,,0,0,0,0,0,5,5,20,,,,,,,,,,,,,,,,,,,,,,,,,,,,,,,,,,,,,,,,,,,,,,,,,,,,,,,,,,,,,,,,96.19456630000786,96.59571010000946,96.57818250000128,96.6782663000049,97.08020520000719,None,left,1,0.4180586000002222,97.08020520000719,None,96.57818250000128,96.6782663000049,96.6782663000049,None,97.5136654000089,None,,,,,,,11040,001,2024_Mar_13_1450,ANT,2021.2.3,60.074744996890324,
1,21,spatial,down,C,L,,,,,,Block.xlsx,"你已经完成了第一个实验区组

请稍作休息


点击空格键进入下一个区组。",-1.5,0,-1.5,left,LLLLL.png,,,,,0,0,0,0,0,6,6,20,,,,,,,,,,,,,,,,,,,,,,,,,,,,,,,,,,,,,,,,,,,,,,,,,,,,,,,,,,,,,,,,97.91415360000974,98.31420350000553,98.29905650000728,98.4142920000013,98.79935280000791,None,left,1,0.36306630000763107,98.79935280000791,None,98.29905650000728,98.4142920000013,98.39766640000744,None,99.18212880000647,None,,,,,,,11040,001,2024_Mar_13_1450,ANT,2021.2.3,60.074744996890324,
1,22,spatial,down,C,R,,,,,,Block.xlsx,"你已经完成了第一个实验区组

请稍作休息


点击空格键进入下一个区组。",-1.5,0,-1.5,right,RRRRR.png,,,,,0,0,0,0,0,7,7,21,,,,,,,,,,,,,,,,,,,,,,,,,,,,,,,,,,,,,,,,,,,,,,,,,,,,,,,,,,,,,,,,99.58289650001097,99.98350550000032,99.96714960000827,100.06702820000646,100.4689275000128,None,right,1,0.3494281999883242,100.4689275000128,None,99.96714960000827,100.06702820000646,100.06702820000646,None,100.83465699999942,None,,,,,,,11040,001,2024_Mar_13_1450,ANT,2021.2.3,60.074744996890324,
1,14,center,down,C,R,,,,,,Block.xlsx,"你已经完成了第一个实验区组

请稍作休息


点击空格键进入下一个区组。",0,50,-1.5,right,RRRRR.png,,,,,0,0,0,0,0,8,8,13,,,,,,,,,,,,,,,,,,,,,,,,,,,,,,,,,,,,,,,,,,,,,,,,,,,,,,,,,,,,,,,,101.23522550000052,101.63570800000161,101.61913590000768,101.7206942000048,102.120496500007,None,right,1,0.338277199989534,102.120496500007,None,101.61913590000768,101.7206942000048,101.7206942000048,None,102.48712790000718,None,,,,,,,11040,001,2024_Mar_13_1450,ANT,2021.2.3,60.074744996890324,
1,2,no,up,C,R,,,,,,Block.xlsx,"你已经完成了第一个实验区组

请稍作休息


点击空格键进入下一个区组。",50,0,1.5,right,RRRRR.png,,,,,0,0,0,0,0,9,9,1,,,,,,,,,,,,,,,,,,,,,,,,,,,,,,,,,,,,,,,,,,,,,,,,,,,,,,,,,,,,,,,,102.88773190000211,103.29047180000634,103.2716294000129,103.37289579999924,103.7728180000122,None,right,1,0.5338817000010749,103.7728180000122,None,103.2716294000129,103.37289579999924,103.37289579999924,None,104.32339300001331,None,,,,,,,11040,001,2024_Mar_13_1450,ANT,2021.2.3,60.074744996890324,
1,17,spatial,up,C,L,,,,,,Block.xlsx,"你已经完成了第一个实验区组

请稍作休息


点击空格键进入下一个区组。",1.5,0,1.5,left,LLLLL.png,,,,,0,0,0,0,0,10,10,16,,,,,,,,,,,,,,,,,,,,,,,,,,,,,,,,,,,,,,,,,,,,,,,,,,,,,,,,,,,,,,,,104.72361850000743,105.12458660000993,105.10803280000982,105.2088109000033,105.60867310001049,None,left,1,0.3621187000098871,105.60867310001049,None,105.10803280000982,105.2088109000033,105.2088109000033,None,105.99240210000426,None,,,,,,,11040,001,2024_Mar_13_1450,ANT,2021.2.3,60.074744996890324,
1,23,spatial,down,IC,L,,,,,,Block.xlsx,"你已经完成了第一个实验区组

请稍作休息


点击空格键进入下一个区组。",-1.5,0,-1.5,left,RRLRR.png,,,,,0,0,0,0,0,11,11,22,,,,,,,,,,,,,,,,,,,,,,,,,,,,,,,,,,,,,,,,,,,,,,,,,,,,,,,,,,,,,,,,106.393902300013,106.79472489999898,106.77669260000403,106.87719199999992,107.27885349999997,None,left,1,0.42000260000349954,107.27885349999997,None,106.77669260000403,106.87719199999992,106.87719199999992,None,107.72832810001273,None,,,,,,,11040,001,2024_Mar_13_1450,ANT,2021.2.3,60.074744996890324,
1,16,center,down,IC,R,,,,,,Block.xlsx,"你已经完成了第一个实验区组

请稍作休息


点击空格键进入下一个区组。",0,50,-1.5,right,LLRLL.png,,,,,0,0,0,0,0,12,12,15,,,,,,,,,,,,,,,,,,,,,,,,,,,,,,,,,,,,,,,,,,,,,,,,,,,,,,,,,,,,,,,,108.12904280000657,108.53018040000461,108.51365560000704,108.61476250000123,109.01368000000366,None,left,0,0.42936700000427663,109.01368000000366,None,108.51365560000704,108.61476250000123,108.61476250000123,None,109.46449650000432,None,,,,,,,11040,001,2024_Mar_13_1450,ANT,2021.2.3,60.074744996890324,
1,2,no,up,C,R,,,,,,Block.xlsx,"你已经完成了第一个实验区组

请稍作休息


点击空格键进入下一个区组。",50,0,1.5,right,RRRRR.png,,,,,0,0,0,0,0,13,13,1,,,,,,,,,,,,,,,,,,,,,,,,,,,,,,,,,,,,,,,,,,,,,,,,,,,,,,,,,,,,,,,,109.86470070001087,110.26634240000567,110.24888290000672,110.34945620001236,110.74960600001214,None,right,1,0.5175515000009909,110.74960600001214,None,110.24888290000672,110.34945620001236,110.34945620001236,None,111.28361030000087,None,,,,,,,11040,001,2024_Mar_13_1450,ANT,2021.2.3,60.074744996890324,
1,2,no,up,C,R,,,,,,Block.xlsx,"你已经完成了第一个实验区组

请稍作休息


点击空格键进入下一个区组。",50,0,1.5,right,RRRRR.png,,,,,0,0,0,0,0,14,14,1,,,,,,,,,,,,,,,,,,,,,,,,,,,,,,,,,,,,,,,,,,,,,,,,,,,,,,,,,,,,,,,,111.68405250000069,112.08581350000168,112.0688164000021,112.17039480000676,112.56994310001028,None,right,1,0.488902600001893,112.56994310001028,None,112.0688164000021,112.17039480000676,112.17039480000676,None,113.08645230000548,None,,,,,,,11040,001,2024_Mar_13_1450,ANT,2021.2.3,60.074744996890324,
1,10,center,up,C,R,,,,,,Block.xlsx,"你已经完成了第一个实验区组

请稍作休息


点击空格键进入下一个区组。",0,50,1.5,right,RRRRR.png,,,,,0,0,0,0,0,15,15,9,,,,,,,,,,,,,,,,,,,,,,,,,,,,,,,,,,,,,,,,,,,,,,,,,,,,,,,,,,,,,,,,113.48753460000444,113.88758110000344,113.8721341000055,113.98923110000032,114.37181260000216,None,right,1,0.36707370000658557,114.37181260000216,None,113.8721341000055,113.98923110000032,113.97101930000645,None,114.75565650001226,None,,,,,,,11040,001,2024_Mar_13_1450,ANT,2021.2.3,60.074744996890324,
1,15,center,down,IC,L,,,,,,Block.xlsx,"你已经完成了第一个实验区组

请稍作休息


点击空格键进入下一个区组。",0,50,-1.5,left,RRLRR.png,,,,,0,0,0,0,0,16,16,14,,,,,,,,,,,,,,,,,,,,,,,,,,,,,,,,,,,,,,,,,,,,,,,,,,,,,,,,,,,,,,,,115.15618550000363,115.55710410000756,115.5409750000108,115.64104230000521,116.04123719999916,None,left,1,0.47358960000565276,116.04123719999916,None,115.5409750000108,115.64104230000521,115.64104230000521,None,116.54169390001334,None,,,,,,,11040,001,2024_Mar_13_1450,ANT,2021.2.3,60.074744996890324,
1,20,spatial,up,IC,R,,,,,,Block.xlsx,"你已经完成了第一个实验区组

请稍作休息


点击空格键进入下一个区组。",1.5,0,1.5,right,LLRLL.png,,,,,0,0,0,0,0,17,17,19,,,,,,,,,,,,,,,,,,,,,,,,,,,,,,,,,,,,,,,,,,,,,,,,,,,,,,,,,,,,,,,,116.94226680000429,117.34391239999968,117.3263380999997,117.42687730000762,117.82798650000768,None,right,1,0.4155672000051709,117.82798650000768,None,117.3263380999997,117.42687730000762,117.42687730000762,None,118.26118460000725,None,,,,,,,11040,001,2024_Mar_13_1450,ANT,2021.2.3,60.074744996890324,
1,4,no,up,IC,R,,,,,,Block.xlsx,"你已经完成了第一个实验区组

请稍作休息


点击空格键进入下一个区组。",50,0,1.5,right,LLRLL.png,,,,,0,0,0,0,0,18,18,3,,,,,,,,,,,,,,,,,,,,,,,,,,,,,,,,,,,,,,,,,,,,,,,,,,,,,,,,,,,,,,,,118.66189020000456,119.06412660000206,119.0453475000104,119.14571130000695,119.54685340001015,None,right,1,0.5045277000026545,119.54685340001015,None,119.0453475000104,119.14571130000695,119.14571130000695,None,120.08045870000205,None,,,,,,,11040,001,2024_Mar_13_1450,ANT,2021.2.3,60.074744996890324,
1,5,no,down,C,L,,,,,,Block.xlsx,"你已经完成了第一个实验区组

请稍作休息


点击空格键进入下一个区组。",50,0,-1.5,left,LLLLL.png,,,,,0,0,0,0,0,19,19,4,,,,,,,,,,,,,,,,,,,,,,,,,,,,,,,,,,,,,,,,,,,,,,,,,,,,,,,,,,,,,,,,120.48092539999925,120.88306700000248,120.86471829999937,120.96486460001324,121.36626600001182,None,left,1,0.4288218000001507,121.36626600001182,None,120.86471829999937,120.96486460001324,120.96486460001324,None,121.81628030000138,None,,,,,,,11040,001,2024_Mar_13_1450,ANT,2021.2.3,60.074744996890324,
1,23,spatial,down,IC,L,,,,,,Block.xlsx,"你已经完成了第一个实验区组

请稍作休息


点击空格键进入下一个区组。",-1.5,0,-1.5,left,RRLRR.png,,,,,0,0,0,0,0,20,20,22,,,,,,,,,,,,,,,,,,,,,,,,,,,,,,,,,,,,,,,,,,,,,,,,,,,,,,,,,,,,,,,,122.21733330001007,122.61749260000943,122.60069090001343,122.70241520000855,123.10163400000602,None,left,1,0.40570210000441875,123.10163400000602,None,122.60069090001343,122.70241520000855,122.70241520000855,None,123.53549760000897,None,,,,,,,11040,001,2024_Mar_13_1450,ANT,2021.2.3,60.074744996890324,
1,10,center,up,C,R,,,,,,Block.xlsx,"你已经完成了第一个实验区组

请稍作休息


点击空格键进入下一个区组。",0,50,1.5,right,RRRRR.png,,,,,0,0,0,0,0,21,21,9,,,,,,,,,,,,,,,,,,,,,,,,,,,,,,,,,,,,,,,,,,,,,,,,,,,,,,,,,,,,,,,,123.93606150000414,124.33749780000653,124.32008750000386,124.42076110000198,124.82154920000175,None,right,1,0.3899214999983087,124.82154920000175,None,124.32008750000386,124.42076110000198,124.42076110000198,None,125.23807770000712,None,,,,,,,11040,001,2024_Mar_13_1450,ANT,2021.2.3,60.074744996890324,
1,18,spatial,up,C,R,,,,,,Block.xlsx,"你已经完成了第一个实验区组

请稍作休息


点击空格键进入下一个区组。",1.5,0,1.5,right,RRRRR.png,,,,,0,0,0,0,0,22,22,17,,,,,,,,,,,,,,,,,,,,,,,,,,,,,,,,,,,,,,,,,,,,,,,,,,,,,,,,,,,,,,,,125.63858510000864,126.03964719999931,126.02266000000236,126.12348990001192,126.52442600000359,None,right,1,0.3110700999968685,126.52442600000359,None,126.02266000000236,126.12348990001192,126.12348990001192,None,126.85775960001047,None,,,,,,,11040,001,2024_Mar_13_1450,ANT,2021.2.3,60.074744996890324,
1,11,center,up,IC,L,,,,,,Block.xlsx,"你已经完成了第一个实验区组

请稍作休息


点击空格键进入下一个区组。",0,50,1.5,left,RRLRR.png,,,,,0,0,0,0,0,23,23,10,,,,,,,,,,,,,,,,,,,,,,,,,,,,,,,,,,,,,,,,,,,,,,,,,,,,,,,,,,,,,,,,127.25848300001235,127.66004400000384,127.6416220000101,127.74185960000614,128.14293280000857,None,right,0,0.3564755999977933,128.14293280000857,None,127.6416220000101,127.74185960000614,127.74185960000614,None,128.52643450000323,None,,,,,,,11040,001,2024_Mar_13_1450,ANT,2021.2.3,60.074744996890324,
1,20,spatial,up,IC,R,,,,,,Block.xlsx,"你已经完成了第一个实验区组

请稍作休息


点击空格键进入下一个区组。",1.5,0,1.5,right,LLRLL.png,,,,,0,0,0,0,1,0,24,19,,,,,,,,,,,,,,,,,,,,,,,,,,,,,,,,,,,,,,,,,,,,,,,,,,,,,,,,,,,,,,,,128.92676070000743,129.32759920001263,129.31164030000218,129.4115665999998,129.81228640000336,None,right,1,0.7112216999958036,129.81228640000336,None,129.31164030000218,129.4115665999998,129.4115665999998,None,130.54611120000482,None,,,,,,,11040,001,2024_Mar_13_1450,ANT,2021.2.3,60.074744996890324,
1,9,center,up,C,L,,,,,,Block.xlsx,"你已经完成了第一个实验区组

请稍作休息


点击空格键进入下一个区组。",0,50,1.5,left,LLLLL.png,,,,,0,0,0,0,1,1,25,8,,,,,,,,,,,,,,,,,,,,,,,,,,,,,,,,,,,,,,,,,,,,,,,,,,,,,,,,,,,,,,,,130.9466192000109,131.34796250000363,131.33044350000273,131.4307536000124,131.83338650000223,None,left,1,0.49812410000595264,131.83338650000223,None,131.33044350000273,131.4307536000124,131.4307536000124,None,132.34883460000856,None,,,,,,,11040,001,2024_Mar_13_1450,ANT,2021.2.3,60.074744996890324,
1,4,no,up,IC,R,,,,,,Block.xlsx,"你已经完成了第一个实验区组

请稍作休息


点击空格键进入下一个区组。",50,0,1.5,right,LLRLL.png,,,,,0,0,0,0,1,2,26,3,,,,,,,,,,,,,,,,,,,,,,,,,,,,,,,,,,,,,,,,,,,,,,,,,,,,,,,,,,,,,,,,132.74949830000696,133.15093440000783,133.1341420000099,133.23422030000074,133.63497050000296,None,right,1,0.5287079999980051,133.63497050000296,None,133.1341420000099,133.23422030000074,133.23422030000074,None,134.18490920000477,None,,,,,,,11040,001,2024_Mar_13_1450,ANT,2021.2.3,60.074744996890324,
1,20,spatial,up,IC,R,,,,,,Block.xlsx,"你已经完成了第一个实验区组

请稍作休息


点击空格键进入下一个区组。",1.5,0,1.5,right,LLRLL.png,,,,,0,0,0,0,1,3,27,19,,,,,,,,,,,,,,,,,,,,,,,,,,,,,,,,,,,,,,,,,,,,,,,,,,,,,,,,,,,,,,,,134.58566980001342,134.98584480000136,134.96947830000136,135.07013530000404,135.47030010000162,None,right,1,0.413244899988058,135.47030010000162,None,134.96947830000136,135.07013530000404,135.07013530000404,None,135.90392440000142,None,,,,,,,11040,001,2024_Mar_13_1450,ANT,2021.2.3,60.074744996890324,
1,3,no,up,IC,L,,,,,,Block.xlsx,"你已经完成了第一个实验区组

请稍作休息


点击空格键进入下一个区组。",50,0,1.5,left,RRLRR.png,,,,,0,0,0,0,1,4,28,2,,,,,,,,,,,,,,,,,,,,,,,,,,,,,,,,,,,,,,,,,,,,,,,,,,,,,,,,,,,,,,,,136.30480800000078,136.70588040001167,136.68954250001116,136.79086360000656,137.1896842999995,None,left,1,0.49367300000449177,137.1896842999995,None,136.68954250001116,136.79086360000656,136.79086360000656,None,137.7069327000063,None,,,,,,,11040,001,2024_Mar_13_1450,ANT,2021.2.3,60.074744996890324,
1,9,center,up,C,L,,,,,,Block.xlsx,"你已经完成了第一个实验区组

请稍作休息


点击空格键进入下一个区组。",0,50,1.5,left,LLLLL.png,,,,,0,0,0,0,1,5,29,8,,,,,,,,,,,,,,,,,,,,,,,,,,,,,,,,,,,,,,,,,,,,,,,,,,,,,,,,,,,,,,,,138.10751210000308,138.50807150000765,138.49201610000455,138.5927997000108,138.99427619999915,None,left,1,0.5067036999971606,138.99427619999915,None,138.49201610000455,138.5927997000108,138.5927997000108,None,139.52635840000585,None,,,,,,,11040,001,2024_Mar_13_1450,ANT,2021.2.3,60.074744996890324,
1,1,no,up,C,L,,,,,,Block.xlsx,"你已经完成了第一个实验区组

请稍作休息


点击空格键进入下一个区组。",50,0,1.5,left,LLLLL.png,,,,,0,0,0,0,1,6,30,0,,,,,,,,,,,,,,,,,,,,,,,,,,,,,,,,,,,,,,,,,,,,,,,,,,,,,,,,,,,,,,,,139.92676060000667,140.3272713000042,140.31293970000115,140.42921230000502,140.8115453000064,None,left,1,0.5678870999981882,140.8115453000064,None,140.31293970000115,140.42921230000502,140.41127190001134,None,141.39567710000847,None,,,,,,,11040,001,2024_Mar_13_1450,ANT,2021.2.3,60.074744996890324,
1,12,center,up,IC,R,,,,,,Block.xlsx,"你已经完成了第一个实验区组

请稍作休息


点击空格键进入下一个区组。",0,50,1.5,right,LLRLL.png,,,,,0,0,0,0,1,7,31,11,,,,,,,,,,,,,,,,,,,,,,,,,,,,,,,,,,,,,,,,,,,,,,,,,,,,,,,,,,,,,,,,141.79627510000137,142.19753760000458,142.18025510000007,142.28221080001094,142.6809968000016,None,right,1,0.48292639999999665,142.6809968000016,None,142.18025510000007,142.28221080001094,142.28221080001094,None,143.18179919999966,None,,,,,,,11040,001,2024_Mar_13_1450,ANT,2021.2.3,60.074744996890324,
1,12,center,up,IC,R,,,,,,Block.xlsx,"你已经完成了第一个实验区组

请稍作休息


点击空格键进入下一个区组。",0,50,1.5,right,LLRLL.png,,,,,0,0,0,0,1,8,32,11,,,,,,,,,,,,,,,,,,,,,,,,,,,,,,,,,,,,,,,,,,,,,,,,,,,,,,,,,,,,,,,,143.5830844000011,143.98299530000077,143.9678111000103,144.06643520000216,144.46751320001204,None,right,1,0.49646409999695607,144.46751320001204,None,143.9678111000103,144.06643520000216,144.06643520000216,None,144.98475470000994,None,,,,,,,11040,001,2024_Mar_13_1450,ANT,2021.2.3,60.074744996890324,
1,9,center,up,C,L,,,,,,Block.xlsx,"你已经完成了第一个实验区组

请稍作休息


点击空格键进入下一个区组。",0,50,1.5,left,LLLLL.png,,,,,0,0,0,0,1,9,33,8,,,,,,,,,,,,,,,,,,,,,,,,,,,,,,,,,,,,,,,,,,,,,,,,,,,,,,,,,,,,,,,,145.3852337000135,145.7864957999991,145.7691857000027,145.86922920000507,146.26977130000887,None,left,1,0.43796120000479277,146.26977130000887,None,145.7691857000027,145.86922920000507,145.86922920000507,None,146.73700190000818,None,,,,,,,11040,001,2024_Mar_13_1450,ANT,2021.2.3,60.074744996890324,
1,3,no,up,IC,L,,,,,,Block.xlsx,"你已经完成了第一个实验区组

请稍作休息


点击空格键进入下一个区组。",50,0,1.5,left,RRLRR.png,,,,,0,0,0,0,1,10,34,2,,,,,,,,,,,,,,,,,,,,,,,,,,,,,,,,,,,,,,,,,,,,,,,,,,,,,,,,,,,,,,,,147.13756149999972,147.53906049999932,147.5223590000096,147.62159140000585,148.0223221000051,None,left,1,0.5022090000129538,148.0223221000051,None,147.5223590000096,147.62159140000585,147.62159140000585,None,148.53963510000904,None,,,,,,,11040,001,2024_Mar_13_1450,ANT,2021.2.3,60.074744996890324,
1,5,no,down,C,L,,,,,,Block.xlsx,"你已经完成了第一个实验区组

请稍作休息


点击空格键进入下一个区组。",50,0,-1.5,left,LLLLL.png,,,,,0,0,0,0,1,11,35,4,,,,,,,,,,,,,,,,,,,,,,,,,,,,,,,,,,,,,,,,,,,,,,,,,,,,,,,,,,,,,,,,148.94140410001273,149.34263170001213,149.32527230000414,149.42560590000357,149.8260336000094,None,left,1,0.6339136000024155,149.8260336000094,None,149.32527230000414,149.42560590000357,149.42560590000357,None,150.47611360000155,None,,,,,,,11040,001,2024_Mar_13_1450,ANT,2021.2.3,60.074744996890324,
1,19,spatial,up,IC,L,,,,,,Block.xlsx,"你已经完成了第一个实验区组

请稍作休息


点击空格键进入下一个区组。",1.5,0,1.5,left,RRLRR.png,,,,,0,0,0,0,1,12,36,18,,,,,,,,,,,,,,,,,,,,,,,,,,,,,,,,,,,,,,,,,,,,,,,,,,,,,,,,,,,,,,,,150.87672949999978,151.2784004999994,151.26075830000627,151.3617491000041,151.7632985000091,None,left,1,0.4966285999980755,151.7632985000091,None,151.26075830000627,151.3617491000041,151.3617491000041,None,152.2786744000041,None,,,,,,,11040,001,2024_Mar_13_1450,ANT,2021.2.3,60.074744996890324,
1,23,spatial,down,IC,L,,,,,,Block.xlsx,"你已经完成了第一个实验区组

请稍作休息


点击空格键进入下一个区组。",-1.5,0,-1.5,left,RRLRR.png,,,,,0,0,0,0,1,13,37,22,,,,,,,,,,,,,,,,,,,,,,,,,,,,,,,,,,,,,,,,,,,,,,,,,,,,,,,,,,,,,,,,152.6811514000001,153.08014540000295,153.0640446000034,153.16433980000147,153.5654993000062,None,left,1,0.406128800008446,153.5654993000062,None,153.0640446000034,153.16433980000147,153.16433980000147,None,153.9980276000133,None,,,,,,,11040,001,2024_Mar_13_1450,ANT,2021.2.3,60.074744996890324,
1,18,spatial,up,C,R,,,,,,Block.xlsx,"你已经完成了第一个实验区组

请稍作休息


点击空格键进入下一个区组。",1.5,0,1.5,right,RRRRR.png,,,,,0,0,0,0,1,14,38,17,,,,,,,,,,,,,,,,,,,,,,,,,,,,,,,,,,,,,,,,,,,,,,,,,,,,,,,,,,,,,,,,154.39877730001172,154.8010299000016,154.78261560000828,154.8831252000091,155.28341720000026,None,right,1,0.5051938999968115,155.28341720000026,None,154.78261560000828,154.8831252000091,154.8831252000091,None,155.81749080000736,None,,,,,,,11040,001,2024_Mar_13_1450,ANT,2021.2.3,60.074744996890324,
1,21,spatial,down,C,L,,,,,,Block.xlsx,"你已经完成了第一个实验区组

请稍作休息


点击空格键进入下一个区组。",-1.5,0,-1.5,left,LLLLL.png,,,,,0,0,0,0,1,15,39,20,,,,,,,,,,,,,,,,,,,,,,,,,,,,,,,,,,,,,,,,,,,,,,,,,,,,,,,,,,,,,,,,156.2181183000066,156.61860150001303,156.60202380000555,156.7020451000135,157.1044147000066,None,left,1,0.42760520000592805,157.1044147000066,None,156.60202380000555,156.7020451000135,156.7020451000135,None,157.55321480000566,None,,,,,,,11040,001,2024_Mar_13_1450,ANT,2021.2.3,60.074744996890324,
1,10,center,up,C,R,,,,,,Block.xlsx,"你已经完成了第一个实验区组

请稍作休息


点击空格键进入下一个区组。",0,50,1.5,right,RRRRR.png,,,,,0,0,0,0,1,16,40,9,,,,,,,,,,,,,,,,,,,,,,,,,,,,,,,,,,,,,,,,,,,,,,,,,,,,,,,,,,,,,,,,157.95409140000993,158.35556180001004,158.339154900008,158.43820330000017,158.83962080000492,None,right,1,0.28476240001327824,158.83962080000492,None,158.339154900008,158.43820330000017,158.43820330000017,None,159.156003600001,None,,,,,,,11040,001,2024_Mar_13_1450,ANT,2021.2.3,60.074744996890324,
1,17,spatial,up,C,L,,,,,,Block.xlsx,"你已经完成了第一个实验区组

请稍作休息


点击空格键进入下一个区组。",1.5,0,1.5,left,LLLLL.png,,,,,0,0,0,0,1,17,41,16,,,,,,,,,,,,,,,,,,,,,,,,,,,,,,,,,,,,,,,,,,,,,,,,,,,,,,,,,,,,,,,,159.55720160000783,159.95921460000682,159.94059990000096,160.04097100000945,160.44124140001077,None,left,1,0.5147923999902559,160.44124140001077,None,159.94059990000096,160.04097100000945,160.04097100000945,None,160.9752465000056,None,,,,,,,11040,001,2024_Mar_13_1450,ANT,2021.2.3,60.074744996890324,
1,8,no,down,IC,R,,,,,,Block.xlsx,"你已经完成了第一个实验区组

请稍作休息


点击空格键进入下一个区组。",50,0,-1.5,right,LLRLL.png,,,,,0,0,0,0,1,18,42,7,,,,,,,,,,,,,,,,,,,,,,,,,,,,,,,,,,,,,,,,,,,,,,,,,,,,,,,,,,,,,,,,161.37582450000627,161.7764857000002,161.76110899999912,161.87763880001148,162.26308560000325,None,left,0,0.38905240000167396,162.26308560000325,None,161.76110899999912,161.87763880001148,161.85996080000768,None,162.67777200001,None,,,,,,,11040,001,2024_Mar_13_1450,ANT,2021.2.3,60.074744996890324,
1,7,no,down,IC,L,,,,,,Block.xlsx,"你已经完成了第一个实验区组

请稍作休息


点击空格键进入下一个区组。",50,0,-1.5,left,RRLRR.png,,,,,0,0,0,0,1,19,43,6,,,,,,,,,,,,,,,,,,,,,,,,,,,,,,,,,,,,,,,,,,,,,,,,,,,,,,,,,,,,,,,,163.0783361000067,163.48052130000724,163.46242730000813,163.56422630000452,163.96384799999942,None,left,1,0.639959899999667,163.96384799999942,None,163.46242730000813,163.56422630000452,163.56422630000452,None,164.6307369000133,None,,,,,,,11040,001,2024_Mar_13_1450,ANT,2021.2.3,60.074744996890324,
1,4,no,up,IC,R,,,,,,Block.xlsx,"你已经完成了第一个实验区组

请稍作休息


点击空格键进入下一个区组。",50,0,1.5,right,LLRLL.png,,,,,0,0,0,0,1,20,44,3,,,,,,,,,,,,,,,,,,,,,,,,,,,,,,,,,,,,,,,,,,,,,,,,,,,,,,,,,,,,,,,,165.03225340000063,165.43339460001152,165.4151195000013,165.51601210000808,165.9179992999998,None,right,1,0.6311026999901515,165.9179992999998,None,165.4151195000013,165.51601210000808,165.51601210000808,None,166.567054500003,None,,,,,,,11040,001,2024_Mar_13_1450,ANT,2021.2.3,60.074744996890324,
1,12,center,up,IC,R,,,,,,Block.xlsx,"你已经完成了第一个实验区组

请稍作休息


点击空格键进入下一个区组。",0,50,1.5,right,LLRLL.png,,,,,0,0,0,0,1,21,45,11,,,,,,,,,,,,,,,,,,,,,,,,,,,,,,,,,,,,,,,,,,,,,,,,,,,,,,,,,,,,,,,,166.96776630000386,167.3683241000108,167.3524013000133,167.45193930000823,167.8539688000019,None,right,1,0.5831212000048254,167.8539688000019,None,167.3524013000133,167.45193930000823,167.45193930000823,None,168.45308810001006,None,,,,,,,11040,001,2024_Mar_13_1450,ANT,2021.2.3,60.074744996890324,
1,6,no,down,C,R,,,,,,Block.xlsx,"你已经完成了第一个实验区组

请稍作休息


点击空格键进入下一个区组。",50,0,-1.5,right,RRRRR.png,,,,,0,0,0,0,1,22,46,5,,,,,,,,,,,,,,,,,,,,,,,,,,,,,,,,,,,,,,,,,,,,,,,,,,,,,,,,,,,,,,,,168.85388180000882,169.25511920001009,169.23779900000955,169.33830970000417,169.73915940000734,None,right,1,0.5535098000109429,169.73915940000734,None,169.23779900000955,169.33830970000417,169.33830970000417,None,170.3226846000034,None,,,,,,,11040,001,2024_Mar_13_1450,ANT,2021.2.3,60.074744996890324,
1,12,center,up,IC,R,,,,,,Block.xlsx,"你已经完成了第一个实验区组

请稍作休息


点击空格键进入下一个区组。",0,50,1.5,right,LLRLL.png,,,,,0,0,0,0,1,23,47,11,,,,,,,,,,,,,,,,,,,,,,,,,,,,,,,,,,,,,,,,,,,,,,,,,,,,,,,,,,,,,,,,170.723393200009,171.12485360000574,171.1071629000071,171.2094986000011,171.60802850000618,None,right,1,0.3964496999979019,171.60802850000618,None,171.1071629000071,171.2094986000011,171.2094986000011,None,172.02506520001043,None,,,,,,,11040,001,2024_Mar_13_1450,ANT,2021.2.3,60.074744996890324,
1,3,no,up,IC,L,,,,,,Block.xlsx,"你已经完成了第一个实验区组

请稍作休息


点击空格键进入下一个区组。",50,0,1.5,left,RRLRR.png,,,,,0,0,0,0,2,0,48,2,,,,,,,,,,,,,,,,,,,,,,,,,,,,,,,,,,,,,,,,,,,,,,,,,,,,,,,,,,,,,,,,172.42675600000075,172.8269474000117,172.80979420000222,172.91089700000884,173.31055220001144,None,left,1,0.5260132000112208,173.31055220001144,None,172.80979420000222,172.91089700000884,172.91089700000884,None,173.86120640000445,None,,,,,,,11040,001,2024_Mar_13_1450,ANT,2021.2.3,60.074744996890324,
1,2,no,up,C,R,,,,,,Block.xlsx,"你已经完成了第一个实验区组

请稍作休息


点击空格键进入下一个区组。",50,0,1.5,right,RRRRR.png,,,,,0,0,0,0,2,1,49,1,,,,,,,,,,,,,,,,,,,,,,,,,,,,,,,,,,,,,,,,,,,,,,,,,,,,,,,,,,,,,,,,174.26299570000265,174.663801600007,174.64789530000417,174.7461500000063,175.1463392000005,None,right,1,0.3859836999909021,175.1463392000005,None,174.64789530000417,174.7461500000063,174.7461500000063,None,175.5638644999999,None,,,,,,,11040,001,2024_Mar_13_1450,ANT,2021.2.3,60.074744996890324,
1,7,no,down,IC,L,,,,,,Block.xlsx,"你已经完成了第一个实验区组

请稍作休息


点击空格键进入下一个区组。",50,0,-1.5,left,RRLRR.png,,,,,0,0,0,0,2,2,50,6,,,,,,,,,,,,,,,,,,,,,,,,,,,,,,,,,,,,,,,,,,,,,,,,,,,,,,,,,,,,,,,,175.96463790000416,176.3662417000014,176.34847280000395,176.44860020000488,176.84904480000841,None,left,1,0.579763699992327,176.84904480000841,None,176.34847280000395,176.44860020000488,176.44860020000488,None,177.45035280000593,None,,,,,,,11040,001,2024_Mar_13_1450,ANT,2021.2.3,60.074744996890324,
1,7,no,down,IC,L,,,,,,Block.xlsx,"你已经完成了第一个实验区组

请稍作休息


点击空格键进入下一个区组。",50,0,-1.5,left,RRLRR.png,,,,,0,0,0,0,2,3,51,6,,,,,,,,,,,,,,,,,,,,,,,,,,,,,,,,,,,,,,,,,,,,,,,,,,,,,,,,,,,,,,,,177.85070610001276,178.2513665000006,178.2360755000118,178.33468320000975,178.73695030000817,None,left,1,0.42822879999584984,178.73695030000817,None,178.2360755000118,178.33468320000975,178.33468320000975,None,179.18616920000932,None,,,,,,,11040,001,2024_Mar_13_1450,ANT,2021.2.3,60.074744996890324,
1,24,spatial,down,IC,R,,,,,,Block.xlsx,"你已经完成了第一个实验区组

请稍作休息


点击空格键进入下一个区组。",-1.5,0,-1.5,right,LLRLL.png,,,,,0,0,0,0,2,4,52,23,,,,,,,,,,,,,,,,,,,,,,,,,,,,,,,,,,,,,,,,,,,,,,,,,,,,,,,,,,,,,,,,179.5866812000022,179.98740969999926,179.97058210000978,180.07124499999918,180.4727675000031,None,right,1,0.459806099999696,180.4727675000031,None,179.97058210000978,180.07124499999918,180.07124499999918,None,180.95542480000586,None,,,,,,,11040,001,2024_Mar_13_1450,ANT,2021.2.3,60.074744996890324,
1,17,spatial,up,C,L,,,,,,Block.xlsx,"你已经完成了第一个实验区组

请稍作休息


点击空格键进入下一个区组。",1.5,0,1.5,left,LLLLL.png,,,,,0,0,0,0,2,5,53,16,,,,,,,,,,,,,,,,,,,,,,,,,,,,,,,,,,,,,,,,,,,,,,,,,,,,,,,,,,,,,,,,181.3561030000128,181.75797410000814,181.74143170000752,181.8579277000099,182.24195809999947,None,left,1,0.483596200007014,182.24195809999947,None,181.74143170000752,181.8579277000099,181.84018990000186,None,182.74145050000516,None,,,,,,,11040,001,2024_Mar_13_1450,ANT,2021.2.3,60.074744996890324,
1,6,no,down,C,R,,,,,,Block.xlsx,"你已经完成了第一个实验区组

请稍作休息


点击空格键进入下一个区组。",50,0,-1.5,right,RRRRR.png,,,,,0,0,0,0,2,6,54,5,,,,,,,,,,,,,,,,,,,,,,,,,,,,,,,,,,,,,,,,,,,,,,,,,,,,,,,,,,,,,,,,183.14293120001093,183.54524600000877,183.52592600000207,183.62703290001082,184.02668170000834,None,right,1,0.42602400000032503,184.02668170000834,None,183.52592600000207,183.62703290001082,183.62703290001082,None,184.47739400000137,None,,,,,,,11040,001,2024_Mar_13_1450,ANT,2021.2.3,60.074744996890324,
1,6,no,down,C,R,,,,,,Block.xlsx,"你已经完成了第一个实验区组

请稍作休息


点击空格键进入下一个区组。",50,0,-1.5,right,RRRRR.png,,,,,0,0,0,0,2,7,55,5,,,,,,,,,,,,,,,,,,,,,,,,,,,,,,,,,,,,,,,,,,,,,,,,,,,,,,,,,,,,,,,,184.87771000000066,185.2796207000065,185.26208570000017,185.3620898000081,185.7645113000035,None,right,1,0.42416229999798816,185.7645113000035,None,185.26208570000017,185.3620898000081,185.3620898000081,None,186.21328450000146,None,,,,,,,11040,001,2024_Mar_13_1450,ANT,2021.2.3,60.074744996890324,
1,13,center,down,C,L,,,,,,Block.xlsx,"你已经完成了第一个实验区组

请稍作休息


点击空格键进入下一个区组。",0,50,-1.5,left,LLLLL.png,,,,,0,0,0,0,2,8,56,12,,,,,,,,,,,,,,,,,,,,,,,,,,,,,,,,,,,,,,,,,,,,,,,,,,,,,,,,,,,,,,,,186.61390770001162,187.01463970000623,186.99784710000677,187.09792300000845,187.4995775999996,None,left,1,0.48126139999658335,187.4995775999996,None,186.99784710000677,187.09792300000845,187.09792300000845,None,187.99934560000838,None,,,,,,,11040,001,2024_Mar_13_1450,ANT,2021.2.3,60.074744996890324,
1,15,center,down,IC,L,,,,,,Block.xlsx,"你已经完成了第一个实验区组

请稍作休息


点击空格键进入下一个区组。",0,50,-1.5,left,RRLRR.png,,,,,0,0,0,0,2,9,57,14,,,,,,,,,,,,,,,,,,,,,,,,,,,,,,,,,,,,,,,,,,,,,,,,,,,,,,,,,,,,,,,,188.40006870000798,188.80042790000152,188.78503009999986,188.88419760001125,189.28458479999972,None,left,1,0.4480042999930447,189.28458479999972,None,188.78503009999986,188.88419760001125,188.88419760001125,None,189.75209390000964,None,,,,,,,11040,001,2024_Mar_13_1450,ANT,2021.2.3,60.074744996890324,
1,20,spatial,up,IC,R,,,,,,Block.xlsx,"你已经完成了第一个实验区组

请稍作休息


点击空格键进入下一个区组。",1.5,0,1.5,right,LLRLL.png,,,,,0,0,0,0,2,10,58,19,,,,,,,,,,,,,,,,,,,,,,,,,,,,,,,,,,,,,,,,,,,,,,,,,,,,,,,,,,,,,,,,190.15264610000304,190.55556090000027,190.53732040000614,190.63807840000663,191.03723070000706,None,right,1,0.5356926000094973,191.03723070000706,None,190.53732040000614,190.63807840000663,190.63807840000663,None,191.605593100001,None,,,,,,,11040,001,2024_Mar_13_1450,ANT,2021.2.3,60.074744996890324,
1,24,spatial,down,IC,R,,,,,,Block.xlsx,"你已经完成了第一个实验区组

请稍作休息


点击空格键进入下一个区组。",-1.5,0,-1.5,right,LLRLL.png,,,,,0,0,0,0,2,11,59,23,,,,,,,,,,,,,,,,,,,,,,,,,,,,,,,,,,,,,,,,,,,,,,,,,,,,,,,,,,,,,,,,192.00557170000684,192.40599790000124,192.38962050000555,192.4898807999998,192.89051340000879,None,right,1,0.6104155000066385,192.89051340000879,None,192.38962050000555,192.4898807999998,192.4898807999998,None,193.52429990000383,None,,,,,,,11040,001,2024_Mar_13_1450,ANT,2021.2.3,60.074744996890324,
1,8,no,down,IC,R,,,,,,Block.xlsx,"你已经完成了第一个实验区组

请稍作休息


点击空格键进入下一个区组。",50,0,-1.5,right,LLRLL.png,,,,,0,0,0,0,2,12,60,7,,,,,,,,,,,,,,,,,,,,,,,,,,,,,,,,,,,,,,,,,,,,,,,,,,,,,,,,,,,,,,,,193.92583420001029,194.32700170000317,194.30888100000448,194.40878520000842,194.81180980001227,None,right,1,0.6093269999983022,194.81180980001227,None,194.30888100000448,194.40878520000842,194.40878520000842,None,195.4444547000021,None,,,,,,,11040,001,2024_Mar_13_1450,ANT,2021.2.3,60.074744996890324,
1,18,spatial,up,C,R,,,,,,Block.xlsx,"你已经完成了第一个实验区组

请稍作休息


点击空格键进入下一个区组。",1.5,0,1.5,right,RRRRR.png,,,,,0,0,0,0,2,13,61,17,,,,,,,,,,,,,,,,,,,,,,,,,,,,,,,,,,,,,,,,,,,,,,,,,,,,,,,,,,,,,,,,195.84450740000466,196.2460710000014,196.22835660001147,196.3290105000051,196.72994319999998,None,right,1,0.4430805000010878,196.72994319999998,None,196.22835660001147,196.3290105000051,196.3290105000051,None,197.19661640000413,None,,,,,,,11040,001,2024_Mar_13_1450,ANT,2021.2.3,60.074744996890324,
1,22,spatial,down,C,R,,,,,,Block.xlsx,"你已经完成了第一个实验区组

请稍作休息


点击空格键进入下一个区组。",-1.5,0,-1.5,right,RRRRR.png,,,,,0,0,0,0,2,14,62,21,,,,,,,,,,,,,,,,,,,,,,,,,,,,,,,,,,,,,,,,,,,,,,,,,,,,,,,,,,,,,,,,197.59711100001005,197.99838880001334,197.98120629999903,198.0817676000006,198.48197110000183,None,right,1,0.41885550000006333,198.48197110000183,None,197.98120629999903,198.0817676000006,198.0817676000006,None,198.9325283000071,None,,,,,,,11040,001,2024_Mar_13_1450,ANT,2021.2.3,60.074744996890324,
1,4,no,up,IC,R,,,,,,Block.xlsx,"你已经完成了第一个实验区组

请稍作休息


点击空格键进入下一个区组。",50,0,1.5,right,LLRLL.png,,,,,0,0,0,0,2,15,63,3,,,,,,,,,,,,,,,,,,,,,,,,,,,,,,,,,,,,,,,,,,,,,,,,,,,,,,,,,,,,,,,,199.33368170000904,199.73343880000175,199.71939330000896,199.8175409000105,200.21935840000515,None,right,1,0.5617493000027025,200.21935840000515,None,199.71939330000896,199.8175409000105,199.8175409000105,None,200.80204930000764,None,,,,,,,11040,001,2024_Mar_13_1450,ANT,2021.2.3,60.074744996890324,
1,21,spatial,down,C,L,,,,,,Block.xlsx,"你已经完成了第一个实验区组

请稍作休息


点击空格键进入下一个区组。",-1.5,0,-1.5,left,LLLLL.png,,,,,0,0,0,0,2,16,64,20,,,,,,,,,,,,,,,,,,,,,,,,,,,,,,,,,,,,,,,,,,,,,,,,,,,,,,,,,,,,,,,,201.20294080000895,201.60438540000177,201.5865790000098,201.68708240000706,202.08734390001337,None,left,1,0.44612680000136606,202.08734390001337,None,201.5865790000098,201.68708240000706,201.68708240000706,None,202.55472110000846,None,,,,,,,11040,001,2024_Mar_13_1450,ANT,2021.2.3,60.074744996890324,
1,3,no,up,IC,L,,,,,,Block.xlsx,"你已经完成了第一个实验区组

请稍作休息


点击空格键进入下一个区组。",50,0,1.5,left,RRLRR.png,,,,,0,0,0,0,2,17,65,2,,,,,,,,,,,,,,,,,,,,,,,,,,,,,,,,,,,,,,,,,,,,,,,,,,,,,,,,,,,,,,,,202.95609680000052,203.35589160000382,203.3400615999999,203.44034290000855,203.84058670001104,None,right,0,0.41268969999509864,203.84058670001104,None,203.3400615999999,203.44034290000855,203.44034290000855,None,204.2738861000107,None,,,,,,,11040,001,2024_Mar_13_1450,ANT,2021.2.3,60.074744996890324,
1,14,center,down,C,R,,,,,,Block.xlsx,"你已经完成了第一个实验区组

请稍作休息


点击空格键进入下一个区组。",0,50,-1.5,right,RRRRR.png,,,,,0,0,0,0,2,18,66,13,,,,,,,,,,,,,,,,,,,,,,,,,,,,,,,,,,,,,,,,,,,,,,,,,,,,,,,,,,,,,,,,204.6742871000024,205.07497910001257,205.058216800011,205.15843980001227,205.559141500009,None,right,1,0.4144131000066409,205.559141500009,None,205.058216800011,205.15843980001227,205.15843980001227,None,205.99334110000927,None,,,,,,,11040,001,2024_Mar_13_1450,ANT,2021.2.3,60.074744996890324,
1,1,no,up,C,L,,,,,,Block.xlsx,"你已经完成了第一个实验区组

请稍作休息


点击空格键进入下一个区组。",50,0,1.5,left,LLLLL.png,,,,,0,0,0,0,2,19,67,0,,,,,,,,,,,,,,,,,,,,,,,,,,,,,,,,,,,,,,,,,,,,,,,,,,,,,,,,,,,,,,,,206.39374440000392,206.79551500000525,206.77772000001278,206.87869950001186,207.27930310000374,None,left,1,1.1100929000094766,207.27930310000374,None,206.77772000001278,206.87869950001186,206.87869950001186,None,208.41343270000652,None,,,,,,,11040,001,2024_Mar_13_1450,ANT,2021.2.3,60.074744996890324,
1,16,center,down,IC,R,,,,,,Block.xlsx,"你已经完成了第一个实验区组

请稍作休息


点击空格键进入下一个区组。",0,50,-1.5,right,LLRLL.png,,,,,0,0,0,0,2,20,68,15,,,,,,,,,,,,,,,,,,,,,,,,,,,,,,,,,,,,,,,,,,,,,,,,,,,,,,,,,,,,,,,,208.81405350001296,209.2153454000072,209.19793180000852,209.2995241000026,209.69866490000277,None,right,1,0.5390111000015168,209.69866490000277,None,209.19793180000852,209.2995241000026,209.2995241000026,None,210.26610690000234,None,,,,,,,11040,001,2024_Mar_13_1450,ANT,2021.2.3,60.074744996890324,
1,24,spatial,down,IC,R,,,,,,Block.xlsx,"你已经完成了第一个实验区组

请稍作休息


点击空格键进入下一个区组。",-1.5,0,-1.5,right,LLRLL.png,,,,,0,0,0,0,2,21,69,23,,,,,,,,,,,,,,,,,,,,,,,,,,,,,,,,,,,,,,,,,,,,,,,,,,,,,,,,,,,,,,,,210.66690630000085,211.06759520000196,211.0509180000081,211.1512628000055,211.55190000000584,None,right,1,0.5263163999916287,211.55190000000584,None,211.0509180000081,211.1512628000055,211.1512628000055,None,212.10231050000584,None,,,,,,,11040,001,2024_Mar_13_1450,ANT,2021.2.3,60.074744996890324,
1,19,spatial,up,IC,L,,,,,,Block.xlsx,"你已经完成了第一个实验区组

请稍作休息


点击空格键进入下一个区组。",1.5,0,1.5,left,RRLRR.png,,,,,0,0,0,0,2,22,70,18,,,,,,,,,,,,,,,,,,,,,,,,,,,,,,,,,,,,,,,,,,,,,,,,,,,,,,,,,,,,,,,,212.50306390000333,212.90348940000695,212.887764900006,212.98729520000052,213.38764730001276,None,left,1,0.4899475000129314,213.38764730001276,None,212.887764900006,212.98729520000052,212.98729520000052,None,213.90594890000648,None,,,,,,,11040,001,2024_Mar_13_1450,ANT,2021.2.3,60.074744996890324,
1,15,center,down,IC,L,,,,,,Block.xlsx,"你已经完成了第一个实验区组

请稍作休息


点击空格键进入下一个区组。",0,50,-1.5,left,RRLRR.png,,,,,0,0,0,0,2,23,71,14,,,,,,,,,,,,,,,,,,,,,,,,,,,,,,,,,,,,,,,,,,,,,,,,,,,,,,,,,,,,,,,,214.30563540000003,214.7076345000096,214.68986860000587,214.7901634000009,215.19209260000207,None,left,1,0.5172083000070415,215.19209260000207,None,214.68986860000587,214.7901634000009,214.7901634000009,None,215.7409772000101,None,,,,,,,11040,001,2024_Mar_13_1450,ANT,2021.2.3,60.074744996890324,
1,6,no,down,C,R,,,,,,Block.xlsx,"你已经完成了第一个实验区组

请稍作休息


点击空格键进入下一个区组。",50,0,-1.5,right,RRRRR.png,,,,,0,0,0,0,3,0,72,5,,,,,,,,,,,,,,,,,,,,,,,,,,,,,,,,,,,,,,,,,,,,,,,,,,,,,,,,,,,,,,,,216.1423008999991,216.54238410000107,216.52642750000814,216.6264869000006,217.02631929999916,None,right,1,0.6753441999899223,217.02631929999916,None,216.52642750000814,216.6264869000006,216.6264869000006,None,217.72749780000595,None,,,,,,,11040,001,2024_Mar_13_1450,ANT,2021.2.3,60.074744996890324,
1,5,no,down,C,L,,,,,,Block.xlsx,"你已经完成了第一个实验区组

请稍作休息


点击空格键进入下一个区组。",50,0,-1.5,left,LLLLL.png,,,,,0,0,0,0,3,1,73,4,,,,,,,,,,,,,,,,,,,,,,,,,,,,,,,,,,,,,,,,,,,,,,,,,,,,,,,,,,,,,,,,218.1280909000052,218.52899440001056,218.51294490000873,218.61288640000566,219.0128349000006,None,left,1,0.47289289999753237,219.0128349000006,None,218.51294490000873,218.61288640000566,218.61288640000566,None,219.5135622000089,None,,,,,,,11040,001,2024_Mar_13_1450,ANT,2021.2.3,60.074744996890324,
1,10,center,up,C,R,,,,,,Block.xlsx,"你已经完成了第一个实验区组

请稍作休息


点击空格键进入下一个区组。",0,50,1.5,right,RRRRR.png,,,,,0,0,0,0,3,2,74,9,,,,,,,,,,,,,,,,,,,,,,,,,,,,,,,,,,,,,,,,,,,,,,,,,,,,,,,,,,,,,,,,219.91501580001204,220.31624190000002,220.29806060000556,220.39887050000834,220.79903920000652,None,right,1,0.4786256999941543,220.79903920000652,None,220.29806060000556,220.39887050000834,220.39887050000834,None,221.29943320000893,None,,,,,,,11040,001,2024_Mar_13_1450,ANT,2021.2.3,60.074744996890324,
1,1,no,up,C,L,,,,,,Block.xlsx,"你已经完成了第一个实验区组

请稍作休息


点击空格键进入下一个区组。",50,0,1.5,left,LLLLL.png,,,,,0,0,0,0,3,3,75,0,,,,,,,,,,,,,,,,,,,,,,,,,,,,,,,,,,,,,,,,,,,,,,,,,,,,,,,,,,,,,,,,221.70017650000227,222.10205880001013,222.08411250000063,222.1854897000012,222.58550030000333,None,left,1,0.44426620000740513,222.58550030000333,None,222.08411250000063,222.1854897000012,222.1854897000012,None,223.05205660000502,None,,,,,,,11040,001,2024_Mar_13_1450,ANT,2021.2.3,60.074744996890324,
1,9,center,up,C,L,,,,,,Block.xlsx,"你已经完成了第一个实验区组

请稍作休息


点击空格键进入下一个区组。",0,50,1.5,left,LLLLL.png,,,,,0,0,0,0,3,4,76,8,,,,,,,,,,,,,,,,,,,,,,,,,,,,,,,,,,,,,,,,,,,,,,,,,,,,,,,,,,,,,,,,223.45280400000047,223.85436910000863,223.83822640001017,223.938696600002,224.33742670000356,None,left,1,0.3725742000096943,224.33742670000356,None,223.83822640001017,223.938696600002,223.938696600002,None,224.73811920000298,None,,,,,,,11040,001,2024_Mar_13_1450,ANT,2021.2.3,60.074744996890324,
1,17,spatial,up,C,L,,,,,,Block.xlsx,"你已经完成了第一个实验区组

请稍作休息


点击空格键进入下一个区组。",1.5,0,1.5,left,LLLLL.png,,,,,0,0,0,0,3,5,77,16,,,,,,,,,,,,,,,,,,,,,,,,,,,,,,,,,,,,,,,,,,,,,,,,,,,,,,,,,,,,,,,,225.13919539999915,225.53926980000688,225.52315950000775,225.62317450001137,226.02351389999967,None,left,1,0.35098449999350123,226.02351389999967,None,225.52315950000775,225.62317450001137,225.62317450001137,None,226.3905281000043,None,,,,,,,11040,001,2024_Mar_13_1450,ANT,2021.2.3,60.074744996890324,
1,24,spatial,down,IC,R,,,,,,Block.xlsx,"你已经完成了第一个实验区组

请稍作休息


点击空格键进入下一个区组。",-1.5,0,-1.5,right,LLRLL.png,,,,,0,0,0,0,3,6,78,23,,,,,,,,,,,,,,,,,,,,,,,,,,,,,,,,,,,,,,,,,,,,,,,,,,,,,,,,,,,,,,,,226.7911555000028,227.19217560000834,227.1766792000126,227.27653770000325,227.67570070001238,None,right,1,0.4981605000066338,227.67570070001238,None,227.1766792000126,227.27653770000325,227.27653770000325,None,228.19323110001278,None,,,,,,,11040,001,2024_Mar_13_1450,ANT,2021.2.3,60.074744996890324,
1,8,no,down,IC,R,,,,,,Block.xlsx,"你已经完成了第一个实验区组

请稍作休息


点击空格键进入下一个区组。",50,0,-1.5,right,LLRLL.png,,,,,0,0,0,0,3,7,79,7,,,,,,,,,,,,,,,,,,,,,,,,,,,,,,,,,,,,,,,,,,,,,,,,,,,,,,,,,,,,,,,,228.5945187000034,228.99451480001153,228.97786189999897,229.07786300001317,229.478600500006,None,right,1,0.4157609000103548,229.478600500006,None,228.97786189999897,229.07786300001317,229.07786300001317,None,229.91252779999922,None,,,,,,,11040,001,2024_Mar_13_1450,ANT,2021.2.3,60.074744996890324,
1,18,spatial,up,C,R,,,,,,Block.xlsx,"你已经完成了第一个实验区组

请稍作休息


点击空格键进入下一个区组。",1.5,0,1.5,right,RRRRR.png,,,,,0,0,0,0,3,8,80,17,,,,,,,,,,,,,,,,,,,,,,,,,,,,,,,,,,,,,,,,,,,,,,,,,,,,,,,,,,,,,,,,230.31310940001276,230.71511140000075,230.6972286000091,230.79844810000213,231.19780980001087,None,right,1,0.4559268000011798,231.19780980001087,None,230.6972286000091,230.79844810000213,230.79844810000213,None,231.68199850000383,None,,,,,,,11040,001,2024_Mar_13_1450,ANT,2021.2.3,60.074744996890324,
1,11,center,up,IC,L,,,,,,Block.xlsx,"你已经完成了第一个实验区组

请稍作休息


点击空格键进入下一个区组。",0,50,1.5,left,RRLRR.png,,,,,0,0,0,0,3,9,81,10,,,,,,,,,,,,,,,,,,,,,,,,,,,,,,,,,,,,,,,,,,,,,,,,,,,,,,,,,,,,,,,,232.08237010000448,232.482997900006,232.46732900000643,232.5665838999994,232.9677542999998,None,left,1,0.5900475999951595,232.9677542999998,None,232.46732900000643,232.5665838999994,232.5665838999994,None,233.58480260000215,None,,,,,,,11040,001,2024_Mar_13_1450,ANT,2021.2.3,60.074744996890324,
1,14,center,down,C,R,,,,,,Block.xlsx,"你已经完成了第一个实验区组

请稍作休息


点击空格键进入下一个区组。",0,50,-1.5,right,RRRRR.png,,,,,0,0,0,0,3,10,82,13,,,,,,,,,,,,,,,,,,,,,,,,,,,,,,,,,,,,,,,,,,,,,,,,,,,,,,,,,,,,,,,,233.98621970000386,234.3863604000071,234.37052280000353,234.47098250000272,234.87031340000976,None,right,1,0.5035692999954335,234.87031340000976,None,234.37052280000353,234.47098250000272,234.47098250000272,None,235.40418610000052,None,,,,,,,11040,001,2024_Mar_13_1450,ANT,2021.2.3,60.074744996890324,
1,23,spatial,down,IC,L,,,,,,Block.xlsx,"你已经完成了第一个实验区组

请稍作休息


点击空格键进入下一个区组。",-1.5,0,-1.5,left,RRLRR.png,,,,,0,0,0,0,3,11,83,22,,,,,,,,,,,,,,,,,,,,,,,,,,,,,,,,,,,,,,,,,,,,,,,,,,,,,,,,,,,,,,,,235.80549020000035,236.2053079000034,236.18880750000244,236.28947990000597,236.6898274000123,None,left,1,0.612183899997035,236.6898274000123,None,236.18880750000244,236.28947990000597,236.28947990000597,None,237.32363579999947,None,,,,,,,11040,001,2024_Mar_13_1450,ANT,2021.2.3,60.074744996890324,
1,8,no,down,IC,R,,,,,,Block.xlsx,"你已经完成了第一个实验区组

请稍作休息


点击空格键进入下一个区组。",50,0,-1.5,right,LLRLL.png,,,,,0,0,0,0,3,12,84,7,,,,,,,,,,,,,,,,,,,,,,,,,,,,,,,,,,,,,,,,,,,,,,,,,,,,,,,,,,,,,,,,237.72484850000183,238.12753270000394,238.10826780000934,238.20923710000352,238.60998540000583,None,right,1,1.0122812000045087,238.60998540000583,None,238.10826780000934,238.20923710000352,238.20923710000352,None,239.64388300001156,None,,,,,,,11040,001,2024_Mar_13_1450,ANT,2021.2.3,60.074744996890324,
1,22,spatial,down,C,R,,,,,,Block.xlsx,"你已经完成了第一个实验区组

请稍作休息


点击空格键进入下一个区组。",-1.5,0,-1.5,right,RRRRR.png,,,,,0,0,0,0,3,13,85,21,,,,,,,,,,,,,,,,,,,,,,,,,,,,,,,,,,,,,,,,,,,,,,,,,,,,,,,,,,,,,,,,240.04450800000632,240.44489680000697,240.42838610000035,240.5292763000034,240.93009650000022,None,right,1,0.5566293000010774,240.93009650000022,None,240.42838610000035,240.5292763000034,240.5292763000034,None,241.51339900000312,None,,,,,,,11040,001,2024_Mar_13_1450,ANT,2021.2.3,60.074744996890324,
1,13,center,down,C,L,,,,,,Block.xlsx,"你已经完成了第一个实验区组

请稍作休息


点击空格键进入下一个区组。",0,50,-1.5,left,LLLLL.png,,,,,0,0,0,0,3,14,86,12,,,,,,,,,,,,,,,,,,,,,,,,,,,,,,,,,,,,,,,,,,,,,,,,,,,,,,,,,,,,,,,,241.9137374000129,242.3157504000119,242.29776110000967,242.39879240001028,242.79872660001274,None,left,1,0.44022839999524876,242.79872660001274,None,242.29776110000967,242.39879240001028,242.39879240001028,None,243.26589980001154,None,,,,,,,11040,001,2024_Mar_13_1450,ANT,2021.2.3,60.074744996890324,
1,7,no,down,IC,L,,,,,,Block.xlsx,"你已经完成了第一个实验区组

请稍作休息


点击空格键进入下一个区组。",50,0,-1.5,left,RRLRR.png,,,,,0,0,0,0,3,15,87,6,,,,,,,,,,,,,,,,,,,,,,,,,,,,,,,,,,,,,,,,,,,,,,,,,,,,,,,,,,,,,,,,243.66652160001104,244.06780880001315,244.0505727000127,244.15211960001034,244.55148030001146,None,left,1,0.4387072999961674,244.55148030001146,None,244.0505727000127,244.15211960001034,244.15211960001034,None,245.0185710000078,None,,,,,,,11040,001,2024_Mar_13_1450,ANT,2021.2.3,60.074744996890324,
1,5,no,down,C,L,,,,,,Block.xlsx,"你已经完成了第一个实验区组

请稍作休息


点击空格键进入下一个区组。",50,0,-1.5,left,LLLLL.png,,,,,0,0,0,0,3,16,88,4,,,,,,,,,,,,,,,,,,,,,,,,,,,,,,,,,,,,,,,,,,,,,,,,,,,,,,,,,,,,,,,,245.4192211000045,245.82073460001266,245.80290260000038,245.90439660000266,246.30431540000427,None,left,1,0.4858628999936627,246.30431540000427,None,245.80290260000038,245.90439660000266,245.90439660000266,None,246.82169960001193,None,,,,,,,11040,001,2024_Mar_13_1450,ANT,2021.2.3,60.074744996890324,
1,19,spatial,up,IC,L,,,,,,Block.xlsx,"你已经完成了第一个实验区组

请稍作休息


点击空格键进入下一个区组。",1.5,0,1.5,left,RRLRR.png,,,,,0,0,0,0,3,17,89,18,,,,,,,,,,,,,,,,,,,,,,,,,,,,,,,,,,,,,,,,,,,,,,,,,,,,,,,,,,,,,,,,247.22186350000266,247.62315510000917,247.60558760000276,247.7060252000083,248.10664969999925,None,left,1,0.38018839999858756,248.10664969999925,None,247.60558760000276,247.7060252000083,247.7060252000083,None,248.50700090000464,None,,,,,,,11040,001,2024_Mar_13_1450,ANT,2021.2.3,60.074744996890324,
1,11,center,up,IC,L,,,,,,Block.xlsx,"你已经完成了第一个实验区组

请稍作休息


点击空格键进入下一个区组。",0,50,1.5,left,RRLRR.png,,,,,0,0,0,0,3,18,90,10,,,,,,,,,,,,,,,,,,,,,,,,,,,,,,,,,,,,,,,,,,,,,,,,,,,,,,,,,,,,,,,,248.90779360001034,249.30829410000297,249.2924587000016,249.39213530000416,249.79282330001297,None,left,1,0.4055616999976337,249.79282330001297,None,249.2924587000016,249.39213530000416,249.39213530000416,None,250.22647810001217,None,,,,,,,11040,001,2024_Mar_13_1450,ANT,2021.2.3,60.074744996890324,
1,13,center,down,C,L,,,,,,Block.xlsx,"你已经完成了第一个实验区组

请稍作休息


点击空格键进入下一个区组。",0,50,-1.5,left,LLLLL.png,,,,,0,0,0,0,3,19,91,12,,,,,,,,,,,,,,,,,,,,,,,,,,,,,,,,,,,,,,,,,,,,,,,,,,,,,,,,,,,,,,,,250.6277831000043,251.0277219000127,251.01104780001333,251.1130084000033,251.51282990000618,None,left,1,0.5976375000027474,251.51282990000618,None,251.01104780001333,251.1130084000033,251.1130084000033,None,252.12938530000974,None,,,,,,,11040,001,2024_Mar_13_1450,ANT,2021.2.3,60.074744996890324,
1,13,center,down,C,L,,,,,,Block.xlsx,"你已经完成了第一个实验区组

请稍作休息


点击空格键进入下一个区组。",0,50,-1.5,left,LLLLL.png,,,,,0,0,0,0,3,20,92,12,,,,,,,,,,,,,,,,,,,,,,,,,,,,,,,,,,,,,,,,,,,,,,,,,,,,,,,,,,,,,,,,252.52999660000205,252.9309726000065,252.91360500000883,253.01395830001275,253.41472559999966,None,left,1,0.37590759999875445,253.41472559999966,None,252.91360500000883,253.01395830001275,253.01395830001275,None,253.81589170001098,None,,,,,,,11040,001,2024_Mar_13_1450,ANT,2021.2.3,60.074744996890324,
1,1,no,up,C,L,,,,,,Block.xlsx,"你已经完成了第一个实验区组

请稍作休息


点击空格键进入下一个区组。",50,0,1.5,left,LLLLL.png,,,,,0,0,0,0,3,21,93,0,,,,,,,,,,,,,,,,,,,,,,,,,,,,,,,,,,,,,,,,,,,,,,,,,,,,,,,,,,,,,,,,254.21587200000067,254.61754440001096,254.60085630000685,254.70179170000483,255.10206600000674,None,left,1,0.40863330000138376,255.10206600000674,None,254.60085630000685,254.70179170000483,254.70179170000483,None,255.5344124000112,None,,,,,,,11040,001,2024_Mar_13_1450,ANT,2021.2.3,60.074744996890324,
1,11,center,up,IC,L,,,,,,Block.xlsx,"你已经完成了第一个实验区组

请稍作休息


点击空格键进入下一个区组。",0,50,1.5,left,RRLRR.png,,,,,0,0,0,0,3,22,94,10,,,,,,,,,,,,,,,,,,,,,,,,,,,,,,,,,,,,,,,,,,,,,,,,,,,,,,,,,,,,,,,,255.9350875000091,256.3371729000064,256.3190975000034,256.4194332000043,256.82084620000387,None,left,1,0.5062662999989698,256.82084620000387,None,256.3190975000034,256.4194332000043,256.4194332000043,None,257.3537484000117,None,,,,,,,11040,001,2024_Mar_13_1450,ANT,2021.2.3,60.074744996890324,
1,14,center,down,C,R,,,,,,Block.xlsx,"你已经完成了第一个实验区组

请稍作休息


点击空格键进入下一个区组。",0,50,-1.5,right,RRRRR.png,,,,,0,0,0,0,3,23,95,13,,,,,,,,,,,,,,,,,,,,,,,,,,,,,,,,,,,,,,,,,,,,,,,,,,,,,,,,,,,,,,,,257.7543522000051,258.15517910000926,258.1391394000093,258.23927679999906,258.6391113999998,None,None,0,,258.6391113999998,None,258.1391394000093,258.23927679999906,258.23927679999906,None,260.3417835,None,,,,,,,11040,001,2024_Mar_13_1450,ANT,2021.2.3,60.074744996890324,
,,,,,,,,,,,Block.xlsx,"你已经完成了第一个实验区组

请稍作休息


点击空格键进入下一个区组。",,,,,,,,,,0,0,0,0,,,,,,,,,,,,,,,,,,,,,,,,,,,,,,,,,,,,,,,,,,,,,,,,,,,,,,,,,,,,,,,,,,,,,,,,,,,,,,,,,,,,,space,2.7609379999921657,260.741969900002,None,260.741969900002,None,11040,001,2024_Mar_13_1450,ANT,2021.2.3,60.074744996890324,
1,11,center,up,IC,L,,,,,,Block.xlsx,"你已经完成了整个实验（三个区组）。

请报告实验者已完成实验

非常感谢，再见！",0,50,1.5,left,RRLRR.png,,,,,0,1,1,1,0,0,0,10,,,,,,,,,,,,,,,,,,,,,,,,,,,,,,,,,,,,,,,,,,,,,,,,,,,,,,,,,,,,,,,,263.56468060000043,263.96521290000237,263.9471763000038,264.0485018000036,264.44801110000117,None,left,1,0.526877099997364,264.44801110000117,None,263.9471763000038,264.0485018000036,264.0485018000036,None,264.9985163000092,None,,,,,,,11040,001,2024_Mar_13_1450,ANT,2021.2.3,60.074744996890324,
1,17,spatial,up,C,L,,,,,,Block.xlsx,"你已经完成了整个实验（三个区组）。

请报告实验者已完成实验

非常感谢，再见！",1.5,0,1.5,left,LLLLL.png,,,,,0,1,1,1,0,1,1,16,,,,,,,,,,,,,,,,,,,,,,,,,,,,,,,,,,,,,,,,,,,,,,,,,,,,,,,,,,,,,,,,265.39922840001236,265.80131690000417,265.784086700005,265.8842710000026,266.28439020000224,None,left,1,0.4346032000030391,266.28439020000224,None,265.784086700005,265.8842710000026,265.8842710000026,None,266.73451410001144,None,,,,,,,11040,001,2024_Mar_13_1450,ANT,2021.2.3,60.074744996890324,
1,1,no,up,C,L,,,,,,Block.xlsx,"你已经完成了整个实验（三个区组）。

请报告实验者已完成实验

非常感谢，再见！",50,0,1.5,left,LLLLL.png,,,,,0,1,1,1,0,2,2,0,,,,,,,,,,,,,,,,,,,,,,,,,,,,,,,,,,,,,,,,,,,,,,,,,,,,,,,,,,,,,,,,267.1351294000051,267.53677230000903,267.5191710000072,267.6202067000122,268.02005580000696,None,left,1,0.40275069999916013,268.02005580000696,None,267.5191710000072,267.6202067000122,267.6202067000122,None,268.4544401000021,None,,,,,,,11040,001,2024_Mar_13_1450,ANT,2021.2.3,60.074744996890324,
1,15,center,down,IC,L,,,,,,Block.xlsx,"你已经完成了整个实验（三个区组）。

请报告实验者已完成实验

非常感谢，再见！",0,50,-1.5,left,RRLRR.png,,,,,0,1,1,1,0,3,3,14,,,,,,,,,,,,,,,,,,,,,,,,,,,,,,,,,,,,,,,,,,,,,,,,,,,,,,,,,,,,,,,,268.8551970000117,269.255376400004,269.2396363000007,269.3391701000073,269.739482200006,None,left,1,0.56375040000421,269.739482200006,None,269.2396363000007,269.3391701000073,269.3391701000073,None,270.32346750001307,None,,,,,,,11040,001,2024_Mar_13_1450,ANT,2021.2.3,60.074744996890324,
1,8,no,down,IC,R,,,,,,Block.xlsx,"你已经完成了整个实验（三个区组）。

请报告实验者已完成实验

非常感谢，再见！",50,0,-1.5,right,LLRLL.png,,,,,0,1,1,1,0,4,4,7,,,,,,,,,,,,,,,,,,,,,,,,,,,,,,,,,,,,,,,,,,,,,,,,,,,,,,,,,,,,,,,,270.7239607000083,271.1260867000092,271.1079284000007,271.2083476000116,271.6093886000017,None,right,1,0.5095450999942841,271.6093886000017,None,271.1079284000007,271.2083476000116,271.2083476000116,None,272.1428040000028,None,,,,,,,11040,001,2024_Mar_13_1450,ANT,2021.2.3,60.074744996890324,
1,3,no,up,IC,L,,,,,,Block.xlsx,"你已经完成了整个实验（三个区组）。

请报告实验者已完成实验

非常感谢，再见！",50,0,1.5,left,RRLRR.png,,,,,0,1,1,1,0,5,5,2,,,,,,,,,,,,,,,,,,,,,,,,,,,,,,,,,,,,,,,,,,,,,,,,,,,,,,,,,,,,,,,,272.54344780000974,272.94546360000095,272.92721470000106,273.0282348000037,273.42812010001217,None,left,1,0.4110037999926135,273.42812010001217,None,272.92721470000106,273.0282348000037,273.0282348000037,None,273.8621727999998,None,,,,,,,11040,001,2024_Mar_13_1450,ANT,2021.2.3,60.074744996890324,
1,21,spatial,down,C,L,,,,,,Block.xlsx,"你已经完成了整个实验（三个区组）。

请报告实验者已完成实验

非常感谢，再见！",-1.5,0,-1.5,left,LLLLL.png,,,,,0,1,1,1,0,6,6,20,,,,,,,,,,,,,,,,,,,,,,,,,,,,,,,,,,,,,,,,,,,,,,,,,,,,,,,,,,,,,,,,274.26392480000504,274.66327250000904,274.64695120000397,274.7490942000004,275.14750650001224,None,left,1,0.41955479999887757,275.14750650001224,None,274.64695120000397,274.7490942000004,274.7490942000004,None,275.5980084000039,None,,,,,,,11040,001,2024_Mar_13_1450,ANT,2021.2.3,60.074744996890324,
1,6,no,down,C,R,,,,,,Block.xlsx,"你已经完成了整个实验（三个区组）。

请报告实验者已完成实验

非常感谢，再见！",50,0,-1.5,right,RRRRR.png,,,,,0,1,1,1,0,7,7,5,,,,,,,,,,,,,,,,,,,,,,,,,,,,,,,,,,,,,,,,,,,,,,,,,,,,,,,,,,,,,,,,275.9987179000018,276.40049590000126,276.3825480000087,276.48256070000934,276.8836980000051,None,right,1,0.4033027999976184,276.8836980000051,None,276.3825480000087,276.48256070000934,276.48256070000934,None,277.31721990001097,None,,,,,,,11040,001,2024_Mar_13_1450,ANT,2021.2.3,60.074744996890324,
1,1,no,up,C,L,,,,,,Block.xlsx,"你已经完成了整个实验（三个区组）。

请报告实验者已完成实验

非常感谢，再见！",50,0,1.5,left,LLLLL.png,,,,,0,1,1,1,0,8,8,0,,,,,,,,,,,,,,,,,,,,,,,,,,,,,,,,,,,,,,,,,,,,,,,,,,,,,,,,,,,,,,,,277.71801550000964,278.1184157000098,278.1017195000022,278.20341330001247,278.6034840000066,None,left,1,0.27594769999268465,278.6034840000066,None,278.1017195000022,278.20341330001247,278.20341330001247,None,278.90307790000224,None,,,,,,,11040,001,2024_Mar_13_1450,ANT,2021.2.3,60.074744996890324,
1,23,spatial,down,IC,L,,,,,,Block.xlsx,"你已经完成了整个实验（三个区组）。

请报告实验者已完成实验

非常感谢，再见！",-1.5,0,-1.5,left,RRLRR.png,,,,,0,1,1,1,0,9,9,22,,,,,,,,,,,,,,,,,,,,,,,,,,,,,,,,,,,,,,,,,,,,,,,,,,,,,,,,,,,,,,,,279.3038732999994,279.70425510000496,279.6880487000017,279.78758519999974,280.19033630000195,None,left,1,0.3929477999918163,280.19033630000195,None,279.6880487000017,279.78758519999974,279.78758519999974,None,280.6059207000071,None,,,,,,,11040,001,2024_Mar_13_1450,ANT,2021.2.3,60.074744996890324,
1,17,spatial,up,C,L,,,,,,Block.xlsx,"你已经完成了整个实验（三个区组）。

请报告实验者已完成实验

非常感谢，再见！",1.5,0,1.5,left,LLLLL.png,,,,,0,1,1,1,0,10,10,16,,,,,,,,,,,,,,,,,,,,,,,,,,,,,,,,,,,,,,,,,,,,,,,,,,,,,,,,,,,,,,,,281.0059324000031,281.4067253000103,281.3903571000119,281.49028830000316,281.8909948000073,None,left,1,0.324475600005826,281.8909948000073,None,281.3903571000119,281.49028830000316,281.49028830000316,None,282.241371000011,None,,,,,,,11040,001,2024_Mar_13_1450,ANT,2021.2.3,60.074744996890324,
1,23,spatial,down,IC,L,,,,,,Block.xlsx,"你已经完成了整个实验（三个区组）。

请报告实验者已完成实验

非常感谢，再见！",-1.5,0,-1.5,left,RRLRR.png,,,,,0,1,1,1,0,11,11,22,,,,,,,,,,,,,,,,,,,,,,,,,,,,,,,,,,,,,,,,,,,,,,,,,,,,,,,,,,,,,,,,282.641872600012,283.04320030000235,283.027055700004,283.12611730000935,283.5268221000006,None,left,1,0.36085720000846777,283.5268221000006,None,283.027055700004,283.12611730000935,283.12611730000935,None,283.9106383000035,None,,,,,,,11040,001,2024_Mar_13_1450,ANT,2021.2.3,60.074744996890324,
1,19,spatial,up,IC,L,,,,,,Block.xlsx,"你已经完成了整个实验（三个区组）。

请报告实验者已完成实验

非常感谢，再见！",1.5,0,1.5,left,RRLRR.png,,,,,0,1,1,1,0,12,12,18,,,,,,,,,,,,,,,,,,,,,,,,,,,,,,,,,,,,,,,,,,,,,,,,,,,,,,,,,,,,,,,,284.3110783000011,284.7128878000076,284.6961542000063,284.7968510000064,285.1960691000131,None,left,1,0.3158019999973476,285.1960691000131,None,284.6961542000063,284.7968510000064,284.7968510000064,None,285.5299207000062,None,,,,,,,11040,001,2024_Mar_13_1450,ANT,2021.2.3,60.074744996890324,
1,18,spatial,up,C,R,,,,,,Block.xlsx,"你已经完成了整个实验（三个区组）。

请报告实验者已完成实验

非常感谢，再见！",1.5,0,1.5,right,RRRRR.png,,,,,0,1,1,1,0,13,13,17,,,,,,,,,,,,,,,,,,,,,,,,,,,,,,,,,,,,,,,,,,,,,,,,,,,,,,,,,,,,,,,,285.93077070001164,286.3308606000064,286.3156544000085,286.43150750000495,286.8162381000002,None,right,1,0.4393279000069015,286.8162381000002,None,286.3156544000085,286.43150750000495,286.414850000001,None,287.2823763000051,None,,,,,,,11040,001,2024_Mar_13_1450,ANT,2021.2.3,60.074744996890324,
1,13,center,down,C,L,,,,,,Block.xlsx,"你已经完成了整个实验（三个区组）。

请报告实验者已完成实验

非常感谢，再见！",0,50,-1.5,left,LLLLL.png,,,,,0,1,1,1,0,14,14,12,,,,,,,,,,,,,,,,,,,,,,,,,,,,,,,,,,,,,,,,,,,,,,,,,,,,,,,,,,,,,,,,287.682939300008,288.08396810000704,288.067827100007,288.1689495000028,288.56815190000634,None,left,1,0.39126170000236016,288.56815190000634,None,288.067827100007,288.1689495000028,288.1689495000028,None,288.98492480001005,None,,,,,,,11040,001,2024_Mar_13_1450,ANT,2021.2.3,60.074744996890324,
1,4,no,up,IC,R,,,,,,Block.xlsx,"你已经完成了整个实验（三个区组）。

请报告实验者已完成实验

非常感谢，再见！",50,0,1.5,right,LLRLL.png,,,,,0,1,1,1,0,15,15,3,,,,,,,,,,,,,,,,,,,,,,,,,,,,,,,,,,,,,,,,,,,,,,,,,,,,,,,,,,,,,,,,289.3856732999993,289.7873789000005,289.7706965000107,289.8705852999992,290.27215440000873,None,right,1,0.5593869000003906,290.27215440000873,None,289.7706965000107,289.8705852999992,289.8705852999992,None,290.8544449000037,None,,,,,,,11040,001,2024_Mar_13_1450,ANT,2021.2.3,60.074744996890324,
1,1,no,up,C,L,,,,,,Block.xlsx,"你已经完成了整个实验（三个区组）。

请报告实验者已完成实验

非常感谢，再见！",50,0,1.5,left,LLLLL.png,,,,,0,1,1,1,0,16,16,0,,,,,,,,,,,,,,,,,,,,,,,,,,,,,,,,,,,,,,,,,,,,,,,,,,,,,,,,,,,,,,,,291.2550714000099,291.6555714999995,291.63969130000623,291.73929680000583,292.1402248000086,None,left,1,0.5394286999944597,292.1402248000086,None,291.63969130000623,291.73929680000583,291.73929680000583,None,292.707902500013,None,,,,,,,11040,001,2024_Mar_13_1450,ANT,2021.2.3,60.074744996890324,
1,5,no,down,C,L,,,,,,Block.xlsx,"你已经完成了整个实验（三个区组）。

请报告实验者已完成实验

非常感谢，再见！",50,0,-1.5,left,LLLLL.png,,,,,0,1,1,1,0,17,17,4,,,,,,,,,,,,,,,,,,,,,,,,,,,,,,,,,,,,,,,,,,,,,,,,,,,,,,,,,,,,,,,,293.108570299999,293.5096274000098,293.4926750000013,293.59283760000835,293.99250830001256,None,left,1,0.3592082999966806,293.99250830001256,None,293.4926750000013,293.59283760000835,293.59283760000835,None,294.3762546000071,None,,,,,,,11040,001,2024_Mar_13_1450,ANT,2021.2.3,60.074744996890324,
1,14,center,down,C,R,,,,,,Block.xlsx,"你已经完成了整个实验（三个区组）。

请报告实验者已完成实验

非常感谢，再见！",0,50,-1.5,right,RRRRR.png,,,,,0,1,1,1,0,18,18,13,,,,,,,,,,,,,,,,,,,,,,,,,,,,,,,,,,,,,,,,,,,,,,,,,,,,,,,,,,,,,,,,294.77682270000514,295.1789495000121,295.1610415000032,295.2618963000132,295.6622736999998,None,right,1,0.4015046999993501,295.6622736999998,None,295.1610415000032,295.2618963000132,295.2618963000132,None,296.0787091000093,None,,,,,,,11040,001,2024_Mar_13_1450,ANT,2021.2.3,60.074744996890324,
1,14,center,down,C,R,,,,,,Block.xlsx,"你已经完成了整个实验（三个区组）。

请报告实验者已完成实验

非常感谢，再见！",0,50,-1.5,right,RRRRR.png,,,,,0,1,1,1,0,19,19,13,,,,,,,,,,,,,,,,,,,,,,,,,,,,,,,,,,,,,,,,,,,,,,,,,,,,,,,,,,,,,,,,296.4796299000009,296.8801433000044,296.86520620000374,296.96358420001343,297.36432030001015,None,right,1,0.3559674999996787,297.36432030001015,None,296.86520620000374,296.96358420001343,296.96358420001343,None,297.7483023000095,None,,,,,,,11040,001,2024_Mar_13_1450,ANT,2021.2.3,60.074744996890324,
1,22,spatial,down,C,R,,,,,,Block.xlsx,"你已经完成了整个实验（三个区组）。

请报告实验者已完成实验

非常感谢，再见！",-1.5,0,-1.5,right,RRRRR.png,,,,,0,1,1,1,0,20,20,21,,,,,,,,,,,,,,,,,,,,,,,,,,,,,,,,,,,,,,,,,,,,,,,,,,,,,,,,,,,,,,,,298.14895430000615,298.5493975999998,298.53277920000255,298.63385990000097,299.0342135000101,None,right,1,0.34153480001259595,299.0342135000101,None,298.53277920000255,298.63385990000097,298.63385990000097,None,299.4006604000024,None,,,,,,,11040,001,2024_Mar_13_1450,ANT,2021.2.3,60.074744996890324,
1,11,center,up,IC,L,,,,,,Block.xlsx,"你已经完成了整个实验（三个区组）。

请报告实验者已完成实验

非常感谢，再见！",0,50,1.5,left,RRLRR.png,,,,,0,1,1,1,0,21,21,10,,,,,,,,,,,,,,,,,,,,,,,,,,,,,,,,,,,,,,,,,,,,,,,,,,,,,,,,,,,,,,,,299.80125899999985,300.20256780000636,300.1860799999995,300.286188099999,300.6876076000044,None,left,1,0.47270990000106394,300.6876076000044,None,300.1860799999995,300.286188099999,300.286188099999,None,301.1868487000029,None,,,,,,,11040,001,2024_Mar_13_1450,ANT,2021.2.3,60.074744996890324,
1,16,center,down,IC,R,,,,,,Block.xlsx,"你已经完成了整个实验（三个区组）。

请报告实验者已完成实验

非常感谢，再见！",0,50,-1.5,right,LLRLL.png,,,,,0,1,1,1,0,22,22,15,,,,,,,,,,,,,,,,,,,,,,,,,,,,,,,,,,,,,,,,,,,,,,,,,,,,,,,,,,,,,,,,301.5870466000051,301.99019070000213,301.971286400003,302.07255930000974,302.47257779999927,None,right,1,0.45612779998918995,302.47257779999927,None,301.971286400003,302.07255930000974,302.07255930000974,None,302.956033800001,None,,,,,,,11040,001,2024_Mar_13_1450,ANT,2021.2.3,60.074744996890324,
1,4,no,up,IC,R,,,,,,Block.xlsx,"你已经完成了整个实验（三个区组）。

请报告实验者已完成实验

非常感谢，再见！",50,0,1.5,right,LLRLL.png,,,,,0,1,1,1,0,23,23,3,,,,,,,,,,,,,,,,,,,,,,,,,,,,,,,,,,,,,,,,,,,,,,,,,,,,,,,,,,,,,,,,303.3565195000119,303.7587341000035,303.74045209999895,303.84140790000674,304.2420071000088,None,right,1,0.49401140000554733,304.2420071000088,None,303.74045209999895,303.84140790000674,303.84140790000674,None,304.7586825000035,None,,,,,,,11040,001,2024_Mar_13_1450,ANT,2021.2.3,60.074744996890324,
1,6,no,down,C,R,,,,,,Block.xlsx,"你已经完成了整个实验（三个区组）。

请报告实验者已完成实验

非常感谢，再见！",50,0,-1.5,right,RRRRR.png,,,,,0,1,1,1,1,0,24,5,,,,,,,,,,,,,,,,,,,,,,,,,,,,,,,,,,,,,,,,,,,,,,,,,,,,,,,,,,,,,,,,305.15940180000325,305.55978630000027,305.5440297000023,305.6434805000026,306.04453569999896,None,right,1,0.41139880000264384,306.04453569999896,None,305.5440297000023,305.6434805000026,305.6434805000026,None,306.4778076000075,None,,,,,,,11040,001,2024_Mar_13_1450,ANT,2021.2.3,60.074744996890324,
1,11,center,up,IC,L,,,,,,Block.xlsx,"你已经完成了整个实验（三个区组）。

请报告实验者已完成实验

非常感谢，再见！",0,50,1.5,left,RRLRR.png,,,,,0,1,1,1,1,1,25,10,,,,,,,,,,,,,,,,,,,,,,,,,,,,,,,,,,,,,,,,,,,,,,,,,,,,,,,,,,,,,,,,306.87839990000066,307.28052420000313,307.263584100001,307.3627034000092,307.7641053000116,None,right,0,0.3801586000045063,307.7641053000116,None,307.263584100001,307.3627034000092,307.3627034000092,None,308.1637303000025,None,,,,,,,11040,001,2024_Mar_13_1450,ANT,2021.2.3,60.074744996890324,
1,24,spatial,down,IC,R,,,,,,Block.xlsx,"你已经完成了整个实验（三个区组）。

请报告实验者已完成实验

非常感谢，再见！",-1.5,0,-1.5,right,LLRLL.png,,,,,0,1,1,1,1,2,26,23,,,,,,,,,,,,,,,,,,,,,,,,,,,,,,,,,,,,,,,,,,,,,,,,,,,,,,,,,,,,,,,,308.5648550000042,308.9656191000104,308.94980190000206,309.06662970001344,309.4508396000019,None,right,1,0.5568758000008529,309.4508396000019,None,308.94980190000206,309.06662970001344,309.04913920001127,None,310.033142100001,None,,,,,,,11040,001,2024_Mar_13_1450,ANT,2021.2.3,60.074744996890324,
1,20,spatial,up,IC,R,,,,,,Block.xlsx,"你已经完成了整个实验（三个区组）。

请报告实验者已完成实验

非常感谢，再见！",1.5,0,1.5,right,LLRLL.png,,,,,0,1,1,1,1,3,27,19,,,,,,,,,,,,,,,,,,,,,,,,,,,,,,,,,,,,,,,,,,,,,,,,,,,,,,,,,,,,,,,,310.4339564000111,310.83528820000356,310.818668500011,310.91896730000735,311.3191094000067,None,right,1,0.48877019999781623,311.3191094000067,None,310.818668500011,310.91896730000735,310.91896730000735,None,311.8359433000005,None,,,,,,,11040,001,2024_Mar_13_1450,ANT,2021.2.3,60.074744996890324,
1,20,spatial,up,IC,R,,,,,,Block.xlsx,"你已经完成了整个实验（三个区组）。

请报告实验者已完成实验

非常感谢，再见！",1.5,0,1.5,right,LLRLL.png,,,,,0,1,1,1,1,4,28,19,,,,,,,,,,,,,,,,,,,,,,,,,,,,,,,,,,,,,,,,,,,,,,,,,,,,,,,,,,,,,,,,312.2367011000024,312.6372405000002,312.6206417000067,312.72058330000436,313.12248250000994,None,right,1,0.4057890999974916,313.12248250000994,None,312.6206417000067,312.72058330000436,312.72058330000436,None,313.5552189000009,None,,,,,,,11040,001,2024_Mar_13_1450,ANT,2021.2.3,60.074744996890324,
1,23,spatial,down,IC,L,,,,,,Block.xlsx,"你已经完成了整个实验（三个区组）。

请报告实验者已完成实验

非常感谢，再见！",-1.5,0,-1.5,left,RRLRR.png,,,,,0,1,1,1,1,5,29,22,,,,,,,,,,,,,,,,,,,,,,,,,,,,,,,,,,,,,,,,,,,,,,,,,,,,,,,,,,,,,,,,313.9563562000112,314.3590172000113,314.34063470001274,314.44008990000293,314.8412510000053,None,left,1,0.4788994999980787,314.8412510000053,None,314.34063470001274,314.44008990000293,314.44008990000293,None,315.3412021000113,None,,,,,,,11040,001,2024_Mar_13_1450,ANT,2021.2.3,60.074744996890324,
1,6,no,down,C,R,,,,,,Block.xlsx,"你已经完成了整个实验（三个区组）。

请报告实验者已完成实验

非常感谢，再见！",50,0,-1.5,right,RRRRR.png,,,,,0,1,1,1,1,6,30,5,,,,,,,,,,,,,,,,,,,,,,,,,,,,,,,,,,,,,,,,,,,,,,,,,,,,,,,,,,,,,,,,315.7421309000056,316.14243220000935,316.12579320000077,316.2284091000038,316.62798140000086,None,right,1,0.5081713999970816,316.62798140000086,None,316.12579320000077,316.2284091000038,316.2284091000038,None,317.1607759000035,None,,,,,,,11040,001,2024_Mar_13_1450,ANT,2021.2.3,60.074744996890324,
1,24,spatial,down,IC,R,,,,,,Block.xlsx,"你已经完成了整个实验（三个区组）。

请报告实验者已完成实验

非常感谢，再见！",-1.5,0,-1.5,right,LLRLL.png,,,,,0,1,1,1,1,7,31,23,,,,,,,,,,,,,,,,,,,,,,,,,,,,,,,,,,,,,,,,,,,,,,,,,,,,,,,,,,,,,,,,317.56126740000036,317.96189970000705,317.94530680000025,318.04535380000016,318.44625410001026,None,right,1,0.5144271000026492,318.44625410001026,None,317.94530680000025,318.04535380000016,318.04535380000016,None,318.98010760000034,None,,,,,,,11040,001,2024_Mar_13_1450,ANT,2021.2.3,60.074744996890324,
1,18,spatial,up,C,R,,,,,,Block.xlsx,"你已经完成了整个实验（三个区组）。

请报告实验者已完成实验

非常感谢，再见！",1.5,0,1.5,right,RRRRR.png,,,,,0,1,1,1,1,8,32,17,,,,,,,,,,,,,,,,,,,,,,,,,,,,,,,,,,,,,,,,,,,,,,,,,,,,,,,,,,,,,,,,319.38080360001186,319.78132970001025,319.7658048000012,319.8645123000024,320.26628360000905,None,right,1,0.41444189999310765,320.26628360000905,None,319.7658048000012,319.8645123000024,319.8645123000024,None,320.6993220000004,None,,,,,,,11040,001,2024_Mar_13_1450,ANT,2021.2.3,60.074744996890324,
1,5,no,down,C,L,,,,,,Block.xlsx,"你已经完成了整个实验（三个区组）。

请报告实验者已完成实验

非常感谢，再见！",50,0,-1.5,left,LLLLL.png,,,,,0,1,1,1,1,9,33,4,,,,,,,,,,,,,,,,,,,,,,,,,,,,,,,,,,,,,,,,,,,,,,,,,,,,,,,,,,,,,,,,321.10007410000253,321.5023868000135,321.4843828000012,321.5859638000111,321.98514790000627,None,left,1,0.43966740000178106,321.98514790000627,None,321.4843828000012,321.5859638000111,321.5859638000111,None,322.45182560000103,None,,,,,,,11040,001,2024_Mar_13_1450,ANT,2021.2.3,60.074744996890324,
1,16,center,down,IC,R,,,,,,Block.xlsx,"你已经完成了整个实验（三个区组）。

请报告实验者已完成实验

非常感谢，再见！",0,50,-1.5,right,LLRLL.png,,,,,0,1,1,1,1,10,34,15,,,,,,,,,,,,,,,,,,,,,,,,,,,,,,,,,,,,,,,,,,,,,,,,,,,,,,,,,,,,,,,,322.8530189000012,323.2541673000087,323.23715730001277,323.3368257000111,323.7390756000095,None,right,1,0.5810926999984076,323.7390756000095,None,323.23715730001277,323.3368257000111,323.3368257000111,None,324.3386956000031,None,,,,,,,11040,001,2024_Mar_13_1450,ANT,2021.2.3,60.074744996890324,
1,5,no,down,C,L,,,,,,Block.xlsx,"你已经完成了整个实验（三个区组）。

请报告实验者已完成实验

非常感谢，再见！",50,0,-1.5,left,LLLLL.png,,,,,0,1,1,1,1,11,35,4,,,,,,,,,,,,,,,,,,,,,,,,,,,,,,,,,,,,,,,,,,,,,,,,,,,,,,,,,,,,,,,,324.73867210000753,325.1401874000003,325.12368080001033,325.222697300007,325.623525300005,None,left,1,0.5769615999888629,325.623525300005,None,325.12368080001033,325.222697300007,325.222697300007,None,326.22436050001124,None,,,,,,,11040,001,2024_Mar_13_1450,ANT,2021.2.3,60.074744996890324,
1,22,spatial,down,C,R,,,,,,Block.xlsx,"你已经完成了整个实验（三个区组）。

请报告实验者已完成实验

非常感谢，再见！",-1.5,0,-1.5,right,RRRRR.png,,,,,0,1,1,1,1,12,36,21,,,,,,,,,,,,,,,,,,,,,,,,,,,,,,,,,,,,,,,,,,,,,,,,,,,,,,,,,,,,,,,,326.62498100000084,327.0262909000012,327.01180230001046,327.1255932000058,327.5096440000052,None,right,1,0.3477759000088554,327.5096440000052,None,327.01180230001046,327.1255932000058,327.1096377000067,None,327.87717360000534,None,,,,,,,11040,001,2024_Mar_13_1450,ANT,2021.2.3,60.074744996890324,
1,13,center,down,C,L,,,,,,Block.xlsx,"你已经完成了整个实验（三个区组）。

请报告实验者已完成实验

非常感谢，再见！",0,50,-1.5,left,LLLLL.png,,,,,0,1,1,1,1,13,37,12,,,,,,,,,,,,,,,,,,,,,,,,,,,,,,,,,,,,,,,,,,,,,,,,,,,,,,,,,,,,,,,,328.278564200009,328.677898000009,328.66203250001126,328.7614723000006,329.16286540000874,None,left,1,0.36602670000866055,329.16286540000874,None,328.66203250001126,328.7614723000006,328.7614723000006,None,329.545978500013,None,,,,,,,11040,001,2024_Mar_13_1450,ANT,2021.2.3,60.074744996890324,
1,10,center,up,C,R,,,,,,Block.xlsx,"你已经完成了整个实验（三个区组）。

请报告实验者已完成实验

非常感谢，再见！",0,50,1.5,right,RRRRR.png,,,,,0,1,1,1,1,14,38,9,,,,,,,,,,,,,,,,,,,,,,,,,,,,,,,,,,,,,,,,,,,,,,,,,,,,,,,,,,,,,,,,329.94679760000145,330.347196600007,330.3307516000059,330.4309562000126,330.8312394000095,None,right,1,0.4494890000059968,330.8312394000095,None,330.3307516000059,330.4309562000126,330.4309562000126,None,331.2987168000109,None,,,,,,,11040,001,2024_Mar_13_1450,ANT,2021.2.3,60.074744996890324,
1,10,center,up,C,R,,,,,,Block.xlsx,"你已经完成了整个实验（三个区组）。

请报告实验者已完成实验

非常感谢，再见！",0,50,1.5,right,RRRRR.png,,,,,0,1,1,1,1,15,39,9,,,,,,,,,,,,,,,,,,,,,,,,,,,,,,,,,,,,,,,,,,,,,,,,,,,,,,,,,,,,,,,,331.6993250000087,332.09987220000767,332.0832529000036,332.1843744000071,332.5854959000135,None,right,1,0.4397334000095725,332.5854959000135,None,332.0832529000036,332.1843744000071,332.1843744000071,None,333.05138550000265,None,,,,,,,11040,001,2024_Mar_13_1450,ANT,2021.2.3,60.074744996890324,
1,7,no,down,IC,L,,,,,,Block.xlsx,"你已经完成了整个实验（三个区组）。

请报告实验者已完成实验

非常感谢，再见！",50,0,-1.5,left,RRLRR.png,,,,,0,1,1,1,1,16,40,6,,,,,,,,,,,,,,,,,,,,,,,,,,,,,,,,,,,,,,,,,,,,,,,,,,,,,,,,,,,,,,,,333.4528401999996,333.8525856000051,333.8366554000095,333.9371581000014,334.3367358000105,None,left,1,0.6323561999888625,334.3367358000105,None,333.8366554000095,333.9371581000014,333.9371581000014,None,334.98761110000487,None,,,,,,,11040,001,2024_Mar_13_1450,ANT,2021.2.3,60.074744996890324,
1,17,spatial,up,C,L,,,,,,Block.xlsx,"你已经完成了整个实验（三个区组）。

请报告实验者已完成实验

非常感谢，再见！",1.5,0,1.5,left,LLLLL.png,,,,,0,1,1,1,1,17,41,16,,,,,,,,,,,,,,,,,,,,,,,,,,,,,,,,,,,,,,,,,,,,,,,,,,,,,,,,,,,,,,,,335.38821770000504,335.78879540000344,335.7721217000071,335.87284270000237,336.2745380000124,None,left,1,0.35823070000333246,336.2745380000124,None,335.7721217000071,335.87284270000237,335.87284270000237,None,336.65674260001106,None,,,,,,,11040,001,2024_Mar_13_1450,ANT,2021.2.3,60.074744996890324,
1,3,no,up,IC,L,,,,,,Block.xlsx,"你已经完成了整个实验（三个区组）。

请报告实验者已完成实验

非常感谢，再见！",50,0,1.5,left,RRLRR.png,,,,,0,1,1,1,1,18,42,2,,,,,,,,,,,,,,,,,,,,,,,,,,,,,,,,,,,,,,,,,,,,,,,,,,,,,,,,,,,,,,,,337.05740050000895,337.4579519000108,337.44125730000087,337.5412168000039,337.941991300002,None,left,1,0.4748489000048721,337.941991300002,None,337.44125730000087,337.5412168000039,337.5412168000039,None,338.44278580001264,None,,,,,,,11040,001,2024_Mar_13_1450,ANT,2021.2.3,60.074744996890324,
1,2,no,up,C,R,,,,,,Block.xlsx,"你已经完成了整个实验（三个区组）。

请报告实验者已完成实验

非常感谢，再见！",50,0,1.5,right,RRRRR.png,,,,,0,1,1,1,1,19,43,1,,,,,,,,,,,,,,,,,,,,,,,,,,,,,,,,,,,,,,,,,,,,,,,,,,,,,,,,,,,,,,,,338.84339200000977,339.24518470000476,339.22741010000755,339.32860070001334,339.7280919000041,None,right,1,0.4329357999959029,339.7280919000041,None,339.22741010000755,339.32860070001334,339.32860070001334,None,340.17969010000525,None,,,,,,,11040,001,2024_Mar_13_1450,ANT,2021.2.3,60.074744996890324,
1,2,no,up,C,R,,,,,,Block.xlsx,"你已经完成了整个实验（三个区组）。

请报告实验者已完成实验

非常感谢，再见！",50,0,1.5,right,RRRRR.png,,,,,0,1,1,1,1,20,44,1,,,,,,,,,,,,,,,,,,,,,,,,,,,,,,,,,,,,,,,,,,,,,,,,,,,,,,,,,,,,,,,,340.5800389000069,340.98087090000627,340.96465150000586,341.08012120000785,341.46408670001256,None,right,1,0.37670940000680275,341.46408670001256,None,340.96465150000586,341.08012120000785,341.06528930000786,None,341.8646077000012,None,,,,,,,11040,001,2024_Mar_13_1450,ANT,2021.2.3,60.074744996890324,
1,19,spatial,up,IC,L,,,,,,Block.xlsx,"你已经完成了整个实验（三个区组）。

请报告实验者已完成实验

非常感谢，再见！",1.5,0,1.5,left,RRLRR.png,,,,,0,1,1,1,1,21,45,18,,,,,,,,,,,,,,,,,,,,,,,,,,,,,,,,,,,,,,,,,,,,,,,,,,,,,,,,,,,,,,,,342.2667636000115,342.6824207000027,342.649041200013,342.7504026000097,343.1503980000125,None,left,1,0.5464836999890395,343.1503980000125,None,342.649041200013,342.7504026000097,342.7504026000097,None,343.71744990001025,None,,,,,,,11040,001,2024_Mar_13_1450,ANT,2021.2.3,60.074744996890324,
1,16,center,down,IC,R,,,,,,Block.xlsx,"你已经完成了整个实验（三个区组）。

请报告实验者已完成实验

非常感谢，再见！",0,50,-1.5,right,LLRLL.png,,,,,0,1,1,1,1,22,46,15,,,,,,,,,,,,,,,,,,,,,,,,,,,,,,,,,,,,,,,,,,,,,,,,,,,,,,,,,,,,,,,,344.11810060001153,344.5186795000045,344.5022209000017,344.6028037000069,345.00240810000105,None,left,0,0.46321489999536425,345.00240810000105,None,344.5022209000017,344.6028037000069,344.6028037000069,None,345.48726170000737,None,,,,,,,11040,001,2024_Mar_13_1450,ANT,2021.2.3,60.074744996890324,
1,20,spatial,up,IC,R,,,,,,Block.xlsx,"你已经完成了整个实验（三个区组）。

请报告实验者已完成实验

非常感谢，再见！",1.5,0,1.5,right,LLRLL.png,,,,,0,1,1,1,1,23,47,19,,,,,,,,,,,,,,,,,,,,,,,,,,,,,,,,,,,,,,,,,,,,,,,,,,,,,,,,,,,,,,,,345.88809870000114,346.2904380000109,346.27170530000876,346.37211260000186,346.77231010000105,None,right,1,0.4524491000047419,346.77231010000105,None,346.27170530000876,346.37211260000186,346.37211260000186,None,347.25585929999943,None,,,,,,,11040,001,2024_Mar_13_1450,ANT,2021.2.3,60.074744996890324,
1,13,center,down,C,L,,,,,,Block.xlsx,"你已经完成了整个实验（三个区组）。

请报告实验者已完成实验

非常感谢，再见！",0,50,-1.5,left,LLLLL.png,,,,,0,1,1,1,2,0,48,12,,,,,,,,,,,,,,,,,,,,,,,,,,,,,,,,,,,,,,,,,,,,,,,,,,,,,,,,,,,,,,,,347.6569065000076,348.05737310000404,348.0412620999996,348.14159010000003,348.5412778000027,None,left,1,0.3955497999995714,348.5412778000027,None,348.0412620999996,348.14159010000003,348.14159010000003,None,348.95975370000815,None,,,,,,,11040,001,2024_Mar_13_1450,ANT,2021.2.3,60.074744996890324,
1,21,spatial,down,C,L,,,,,,Block.xlsx,"你已经完成了整个实验（三个区组）。

请报告实验者已完成实验

非常感谢，再见！",-1.5,0,-1.5,left,LLLLL.png,,,,,0,1,1,1,2,1,49,20,,,,,,,,,,,,,,,,,,,,,,,,,,,,,,,,,,,,,,,,,,,,,,,,,,,,,,,,,,,,,,,,349.3597427000059,349.76105690000986,349.7432812000043,349.8432485000085,350.24451460001,None,left,1,0.42913319999934174,350.24451460001,None,349.7432812000043,349.8432485000085,349.8432485000085,None,350.6944968000025,None,,,,,,,11040,001,2024_Mar_13_1450,ANT,2021.2.3,60.074744996890324,
1,8,no,down,IC,R,,,,,,Block.xlsx,"你已经完成了整个实验（三个区组）。

请报告实验者已完成实验

非常感谢，再见！",50,0,-1.5,right,LLRLL.png,,,,,0,1,1,1,2,2,50,7,,,,,,,,,,,,,,,,,,,,,,,,,,,,,,,,,,,,,,,,,,,,,,,,,,,,,,,,,,,,,,,,351.09622820001096,351.4968709000095,351.47919920001004,351.57992150000064,351.9799820000044,None,right,1,0.5895562999940012,351.9799820000044,None,351.47919920001004,351.57992150000064,351.57992150000064,None,352.5972984000109,None,,,,,,,11040,001,2024_Mar_13_1450,ANT,2021.2.3,60.074744996890324,
1,8,no,down,IC,R,,,,,,Block.xlsx,"你已经完成了整个实验（三个区组）。

请报告实验者已完成实验

非常感谢，再见！",50,0,-1.5,right,LLRLL.png,,,,,0,1,1,1,2,3,51,7,,,,,,,,,,,,,,,,,,,,,,,,,,,,,,,,,,,,,,,,,,,,,,,,,,,,,,,,,,,,,,,,352.9980232000089,353.3993303000025,353.3820243000082,353.48348610001267,353.88412550000066,None,right,1,0.5334383000008529,353.88412550000066,None,353.3820243000082,353.48348610001267,353.48348610001267,None,354.4333770000085,None,,,,,,,11040,001,2024_Mar_13_1450,ANT,2021.2.3,60.074744996890324,
1,19,spatial,up,IC,L,,,,,,Block.xlsx,"你已经完成了整个实验（三个区组）。

请报告实验者已完成实验

非常感谢，再见！",1.5,0,1.5,left,RRLRR.png,,,,,0,1,1,1,2,4,52,18,,,,,,,,,,,,,,,,,,,,,,,,,,,,,,,,,,,,,,,,,,,,,,,,,,,,,,,,,,,,,,,,354.83572500001173,355.23548670001037,355.2188568999991,355.31897530000424,355.71997660001216,None,left,1,0.3538135999988299,355.71997660001216,None,355.2188568999991,355.31897530000424,355.31897530000424,None,356.103102500012,None,,,,,,,11040,001,2024_Mar_13_1450,ANT,2021.2.3,60.074744996890324,
1,20,spatial,up,IC,R,,,,,,Block.xlsx,"你已经完成了整个实验（三个区组）。

请报告实验者已完成实验

非常感谢，再见！",1.5,0,1.5,right,LLRLL.png,,,,,0,1,1,1,2,5,53,19,,,,,,,,,,,,,,,,,,,,,,,,,,,,,,,,,,,,,,,,,,,,,,,,,,,,,,,,,,,,,,,,356.50393570000597,356.9047685000114,356.88741610001307,356.98872220001067,357.3878325000114,None,right,1,0.5901358999981312,357.3878325000114,None,356.88741610001307,356.98872220001067,356.98872220001067,None,358.0055315000063,None,,,,,,,11040,001,2024_Mar_13_1450,ANT,2021.2.3,60.074744996890324,
1,12,center,up,IC,R,,,,,,Block.xlsx,"你已经完成了整个实验（三个区组）。

请报告实验者已完成实验

非常感谢，再见！",0,50,1.5,right,LLRLL.png,,,,,0,1,1,1,2,6,54,11,,,,,,,,,,,,,,,,,,,,,,,,,,,,,,,,,,,,,,,,,,,,,,,,,,,,,,,,,,,,,,,,358.4073139000102,358.80672370000684,358.79060550000577,358.8913925000088,359.29084470000817,None,left,0,0.3750292000040645,359.29084470000817,None,358.79060550000577,358.8913925000088,358.8913925000088,None,359.69150400000217,None,,,,,,,11040,001,2024_Mar_13_1450,ANT,2021.2.3,60.074744996890324,
1,15,center,down,IC,L,,,,,,Block.xlsx,"你已经完成了整个实验（三个区组）。

请报告实验者已完成实验

非常感谢，再见！",0,50,-1.5,left,RRLRR.png,,,,,0,1,1,1,2,7,55,14,,,,,,,,,,,,,,,,,,,,,,,,,,,,,,,,,,,,,,,,,,,,,,,,,,,,,,,,,,,,,,,,360.0930970000045,360.4948621000076,360.4762699999992,360.578064500005,360.9781725000066,None,left,1,0.4630673000065144,360.9781725000066,None,360.4762699999992,360.578064500005,360.578064500005,None,361.46138470000005,None,,,,,,,11040,001,2024_Mar_13_1450,ANT,2021.2.3,60.074744996890324,
1,19,spatial,up,IC,L,,,,,,Block.xlsx,"你已经完成了整个实验（三个区组）。

请报告实验者已完成实验

非常感谢，再见！",1.5,0,1.5,left,RRLRR.png,,,,,0,1,1,1,2,8,56,18,,,,,,,,,,,,,,,,,,,,,,,,,,,,,,,,,,,,,,,,,,,,,,,,,,,,,,,,,,,,,,,,361.8614671000105,362.26412849999906,362.2459770000132,362.3461887000012,362.74630199999956,None,left,1,0.3911009000003105,362.74630199999956,None,362.2459770000132,362.3461887000012,362.3461887000012,None,363.16340689999925,None,,,,,,,11040,001,2024_Mar_13_1450,ANT,2021.2.3,60.074744996890324,
1,16,center,down,IC,R,,,,,,Block.xlsx,"你已经完成了整个实验（三个区组）。

请报告实验者已完成实验

非常感谢，再见！",0,50,-1.5,right,LLRLL.png,,,,,0,1,1,1,2,9,57,15,,,,,,,,,,,,,,,,,,,,,,,,,,,,,,,,,,,,,,,,,,,,,,,,,,,,,,,,,,,,,,,,363.56379320000997,363.9654382000008,363.94929180000327,364.0490845000022,364.44862450000073,None,right,1,0.6968764000048395,364.44862450000073,None,363.94929180000327,364.0490845000022,364.0490845000022,None,365.1665267000062,None,,,,,,,11040,001,2024_Mar_13_1450,ANT,2021.2.3,60.074744996890324,
1,24,spatial,down,IC,R,,,,,,Block.xlsx,"你已经完成了整个实验（三个区组）。

请报告实验者已完成实验

非常感谢，再见！",-1.5,0,-1.5,right,LLRLL.png,,,,,0,1,1,1,2,10,58,23,,,,,,,,,,,,,,,,,,,,,,,,,,,,,,,,,,,,,,,,,,,,,,,,,,,,,,,,,,,,,,,,365.5676425000129,365.9679666000011,365.9523063000088,366.05112329999974,366.4516173000011,None,right,1,0.4379130000015721,366.4516173000011,None,365.9523063000088,366.05112329999974,366.05112329999974,None,366.91898400000355,None,,,,,,,11040,001,2024_Mar_13_1450,ANT,2021.2.3,60.074744996890324,
1,5,no,down,C,L,,,,,,Block.xlsx,"你已经完成了整个实验（三个区组）。

请报告实验者已完成实验

非常感谢，再见！",50,0,-1.5,left,LLLLL.png,,,,,0,1,1,1,2,11,59,4,,,,,,,,,,,,,,,,,,,,,,,,,,,,,,,,,,,,,,,,,,,,,,,,,,,,,,,,,,,,,,,,367.319559800002,367.72119770001154,367.7036424000107,367.8050680000015,368.2043165000068,None,left,1,0.509426299991901,368.2043165000068,None,367.7036424000107,367.8050680000015,367.8050680000015,None,368.7388181999995,None,,,,,,,11040,001,2024_Mar_13_1450,ANT,2021.2.3,60.074744996890324,
1,7,no,down,IC,L,,,,,,Block.xlsx,"你已经完成了整个实验（三个区组）。

请报告实验者已完成实验

非常感谢，再见！",50,0,-1.5,left,RRLRR.png,,,,,0,1,1,1,2,12,60,6,,,,,,,,,,,,,,,,,,,,,,,,,,,,,,,,,,,,,,,,,,,,,,,,,,,,,,,,,,,,,,,,369.13980390000506,369.5397156000108,369.5236663000105,369.6235130999994,370.02389760001097,None,left,1,0.44184739999764133,370.02389760001097,None,369.5236663000105,369.6235130999994,369.6235130999994,None,370.49135120000574,None,,,,,,,11040,001,2024_Mar_13_1450,ANT,2021.2.3,60.074744996890324,
1,4,no,up,IC,R,,,,,,Block.xlsx,"你已经完成了整个实验（三个区组）。

请报告实验者已完成实验

非常感谢，再见！",50,0,1.5,right,LLRLL.png,,,,,0,1,1,1,2,13,61,3,,,,,,,,,,,,,,,,,,,,,,,,,,,,,,,,,,,,,,,,,,,,,,,,,,,,,,,,,,,,,,,,370.89187669999956,371.2937785000104,371.2756492000044,371.3770693000115,371.7770762,None,right,1,0.600774199992884,371.7770762,None,371.2756492000044,371.3770693000115,371.3770693000115,None,372.3937227000133,None,,,,,,,11040,001,2024_Mar_13_1450,ANT,2021.2.3,60.074744996890324,
1,2,no,up,C,R,,,,,,Block.xlsx,"你已经完成了整个实验（三个区组）。

请报告实验者已完成实验

非常感谢，再见！",50,0,1.5,right,RRRRR.png,,,,,0,1,1,1,2,14,62,1,,,,,,,,,,,,,,,,,,,,,,,,,,,,,,,,,,,,,,,,,,,,,,,,,,,,,,,,,,,,,,,,372.7950711000012,373.19520710001234,373.17845400000806,373.27845720000914,373.67940030001046,None,right,1,0.426350600013393,373.67940030001046,None,373.17845400000806,373.27845720000914,373.27845720000914,None,374.1299127000093,None,,,,,,,11040,001,2024_Mar_13_1450,ANT,2021.2.3,60.074744996890324,
1,22,spatial,down,C,R,,,,,,Block.xlsx,"你已经完成了整个实验（三个区组）。

请报告实验者已完成实验

非常感谢，再见！",-1.5,0,-1.5,right,RRRRR.png,,,,,0,1,1,1,2,15,63,21,,,,,,,,,,,,,,,,,,,,,,,,,,,,,,,,,,,,,,,,,,,,,,,,,,,,,,,,,,,,,,,,374.5304373000108,374.93200340001204,374.9152055000013,375.0160506000102,375.4165830999991,None,right,1,0.3456852999952389,375.4165830999991,None,374.9152055000013,375.0160506000102,375.0160506000102,None,375.783234100003,None,,,,,,,11040,001,2024_Mar_13_1450,ANT,2021.2.3,60.074744996890324,
1,3,no,up,IC,L,,,,,,Block.xlsx,"你已经完成了整个实验（三个区组）。

请报告实验者已完成实验

非常感谢，再见！",50,0,1.5,left,RRLRR.png,,,,,0,1,1,1,2,16,64,2,,,,,,,,,,,,,,,,,,,,,,,,,,,,,,,,,,,,,,,,,,,,,,,,,,,,,,,,,,,,,,,,376.1834780000063,376.5845885000017,376.56920310000714,376.684454000002,377.0697699000011,None,left,1,0.48398450000968296,377.0697699000011,None,376.56920310000714,376.684454000002,376.66713460000756,None,377.58505900000455,None,,,,,,,11040,001,2024_Mar_13_1450,ANT,2021.2.3,60.074744996890324,
1,21,spatial,down,C,L,,,,,,Block.xlsx,"你已经完成了整个实验（三个区组）。

请报告实验者已完成实验

非常感谢，再见！",-1.5,0,-1.5,left,LLLLL.png,,,,,0,1,1,1,2,17,65,20,,,,,,,,,,,,,,,,,,,,,,,,,,,,,,,,,,,,,,,,,,,,,,,,,,,,,,,,,,,,,,,,377.9858874000056,378.38723870000103,378.36974420001206,378.4716901000065,378.8704992999992,None,left,1,0.31602419998671394,378.8704992999992,None,378.36974420001206,378.4716901000065,378.4716901000065,None,379.20419070000935,None,,,,,,,11040,001,2024_Mar_13_1450,ANT,2021.2.3,60.074744996890324,
1,21,spatial,down,C,L,,,,,,Block.xlsx,"你已经完成了整个实验（三个区组）。

请报告实验者已完成实验

非常感谢，再见！",-1.5,0,-1.5,left,LLLLL.png,,,,,0,1,1,1,2,18,66,20,,,,,,,,,,,,,,,,,,,,,,,,,,,,,,,,,,,,,,,,,,,,,,,,,,,,,,,,,,,,,,,,379.60480610000377,380.0055570000113,379.9894016000035,380.08977190000587,380.4900328000076,None,left,1,0.2879114999959711,380.4900328000076,None,379.9894016000035,380.08977190000587,380.08977190000587,None,380.80691900000966,None,,,,,,,11040,001,2024_Mar_13_1450,ANT,2021.2.3,60.074744996890324,
1,10,center,up,C,R,,,,,,Block.xlsx,"你已经完成了整个实验（三个区组）。

请报告实验者已完成实验

非常感谢，再见！",0,50,1.5,right,RRRRR.png,,,,,0,1,1,1,2,19,67,9,,,,,,,,,,,,,,,,,,,,,,,,,,,,,,,,,,,,,,,,,,,,,,,,,,,,,,,,,,,,,,,,381.2072130000015,381.6077561000129,381.59144200000446,381.69285430001037,382.092203600012,None,right,1,0.35060239999438636,382.092203600012,None,381.59144200000446,381.69285430001037,381.69285430001037,None,382.45906140000443,None,,,,,,,11040,001,2024_Mar_13_1450,ANT,2021.2.3,60.074744996890324,
1,7,no,down,IC,L,,,,,,Block.xlsx,"你已经完成了整个实验（三个区组）。

请报告实验者已完成实验

非常感谢，再见！",50,0,-1.5,left,RRLRR.png,,,,,0,1,1,1,2,20,68,6,,,,,,,,,,,,,,,,,,,,,,,,,,,,,,,,,,,,,,,,,,,,,,,,,,,,,,,,,,,,,,,,382.85953830000653,383.26064910000423,383.24368230000255,383.3449040000123,383.7461409000098,None,left,1,0.5524035999987973,383.7461409000098,None,383.24368230000255,383.3449040000123,383.3449040000123,None,384.3286739000032,None,,,,,,,11040,001,2024_Mar_13_1450,ANT,2021.2.3,60.074744996890324,
1,7,no,down,IC,L,,,,,,Block.xlsx,"你已经完成了整个实验（三个区组）。

请报告实验者已完成实验

非常感谢，再见！",50,0,-1.5,left,RRLRR.png,,,,,0,1,1,1,2,21,69,6,,,,,,,,,,,,,,,,,,,,,,,,,,,,,,,,,,,,,,,,,,,,,,,,,,,,,,,,,,,,,,,,384.7300096000108,385.13026340000215,385.1134721000126,385.2142354000098,385.6159009000112,None,left,1,0.3467658000008669,385.6159009000112,None,385.1134721000126,385.2142354000098,385.2142354000098,None,385.9809952000069,None,,,,,,,11040,001,2024_Mar_13_1450,ANT,2021.2.3,60.074744996890324,
1,18,spatial,up,C,R,,,,,,Block.xlsx,"你已经完成了整个实验（三个区组）。

请报告实验者已完成实验

非常感谢，再见！",1.5,0,1.5,right,RRRRR.png,,,,,0,1,1,1,2,22,70,17,,,,,,,,,,,,,,,,,,,,,,,,,,,,,,,,,,,,,,,,,,,,,,,,,,,,,,,,,,,,,,,,386.3817884000018,386.78297620000376,386.7655997000111,386.8666249000089,387.26630800000567,None,right,1,0.31182599999010563,387.26630800000567,None,386.7655997000111,386.8666249000089,386.8666249000089,None,387.60016640000686,None,,,,,,,11040,001,2024_Mar_13_1450,ANT,2021.2.3,60.074744996890324,
1,12,center,up,IC,R,,,,,,Block.xlsx,"你已经完成了整个实验（三个区组）。

请报告实验者已完成实验

非常感谢，再见！",0,50,1.5,right,LLRLL.png,,,,,0,1,1,1,2,23,71,11,,,,,,,,,,,,,,,,,,,,,,,,,,,,,,,,,,,,,,,,,,,,,,,,,,,,,,,,,,,,,,,,388.0008235000132,388.4036381000042,388.3847681000043,388.4856096000003,388.8864905000082,None,right,1,0.3160561999975471,388.8864905000082,None,388.3847681000043,388.4856096000003,388.4856096000003,None,389.21914710001147,None,,,,,,,11040,001,2024_Mar_13_1450,ANT,2021.2.3,60.074744996890324,
1,9,center,up,C,L,,,,,,Block.xlsx,"你已经完成了整个实验（三个区组）。

请报告实验者已完成实验

非常感谢，再见！",0,50,1.5,left,LLLLL.png,,,,,0,1,1,1,3,0,72,8,,,,,,,,,,,,,,,,,,,,,,,,,,,,,,,,,,,,,,,,,,,,,,,,,,,,,,,,,,,,,,,,389.61984890000895,390.02060540000093,390.0046980000043,390.1056654999993,390.5045342000085,None,left,1,0.36941850000584964,390.5045342000085,None,390.0046980000043,390.1056654999993,390.1056654999993,None,390.90501430000586,None,,,,,,,11040,001,2024_Mar_13_1450,ANT,2021.2.3,60.074744996890324,
1,15,center,down,IC,L,,,,,,Block.xlsx,"你已经完成了整个实验（三个区组）。

请报告实验者已完成实验

非常感谢，再见！",0,50,-1.5,left,RRLRR.png,,,,,0,1,1,1,3,1,73,14,,,,,,,,,,,,,,,,,,,,,,,,,,,,,,,,,,,,,,,,,,,,,,,,,,,,,,,,,,,,,,,,391.3058643000113,391.7062786000024,391.69010510000226,391.7898608000105,392.1905209000106,None,left,1,0.41968389999237843,392.1905209000106,None,391.69010510000226,391.7898608000105,391.7898608000105,None,392.64115270000184,None,,,,,,,11040,001,2024_Mar_13_1450,ANT,2021.2.3,60.074744996890324,
1,17,spatial,up,C,L,,,,,,Block.xlsx,"你已经完成了整个实验（三个区组）。

请报告实验者已完成实验

非常感谢，再见！",1.5,0,1.5,left,LLLLL.png,,,,,0,1,1,1,3,2,74,16,,,,,,,,,,,,,,,,,,,,,,,,,,,,,,,,,,,,,,,,,,,,,,,,,,,,,,,,,,,,,,,,393.0420005000051,393.4423497000098,393.42698430000746,393.5265000000072,393.9268840000004,None,left,1,0.4754190999956336,393.9268840000004,None,393.42698430000746,393.5265000000072,393.5265000000072,None,394.42705460000434,None,,,,,,,11040,001,2024_Mar_13_1450,ANT,2021.2.3,60.074744996890324,
1,14,center,down,C,R,,,,,,Block.xlsx,"你已经完成了整个实验（三个区组）。

请报告实验者已完成实验

非常感谢，再见！",0,50,-1.5,right,RRRRR.png,,,,,0,1,1,1,3,3,75,13,,,,,,,,,,,,,,,,,,,,,,,,,,,,,,,,,,,,,,,,,,,,,,,,,,,,,,,,,,,,,,,,394.82783370000834,395.22975670000596,395.21170220000204,395.313587200013,395.7125880000094,None,right,1,0.4180091000016546,395.7125880000094,None,395.21170220000204,395.313587200013,395.313587200013,None,396.1465503000072,None,,,,,,,11040,001,2024_Mar_13_1450,ANT,2021.2.3,60.074744996890324,
1,15,center,down,IC,L,,,,,,Block.xlsx,"你已经完成了整个实验（三个区组）。

请报告实验者已完成实验

非常感谢，再见！",0,50,-1.5,left,RRLRR.png,,,,,0,1,1,1,3,4,76,14,,,,,,,,,,,,,,,,,,,,,,,,,,,,,,,,,,,,,,,,,,,,,,,,,,,,,,,,,,,,,,,,396.5477038000099,396.94864390000293,396.93200070000603,397.0327649000101,397.4318020000064,None,right,0,0.3706235999998171,397.4318020000064,None,396.93200070000603,397.0327649000101,397.0327649000101,None,397.8322361000028,None,,,,,,,11040,001,2024_Mar_13_1450,ANT,2021.2.3,60.074744996890324,
1,22,spatial,down,C,R,,,,,,Block.xlsx,"你已经完成了整个实验（三个区组）。

请报告实验者已完成实验

非常感谢，再见！",-1.5,0,-1.5,right,RRRRR.png,,,,,0,1,1,1,3,5,77,21,,,,,,,,,,,,,,,,,,,,,,,,,,,,,,,,,,,,,,,,,,,,,,,,,,,,,,,,,,,,,,,,398.2328894000093,398.63346420000016,398.61731780000264,398.7189412000007,399.1186744000006,None,right,1,0.4440657000086503,399.1186744000006,None,398.61731780000264,398.7189412000007,398.7189412000007,None,399.58500600000843,None,,,,,,,11040,001,2024_Mar_13_1450,ANT,2021.2.3,60.074744996890324,
1,3,no,up,IC,L,,,,,,Block.xlsx,"你已经完成了整个实验（三个区组）。

请报告实验者已完成实验

非常感谢，再见！",50,0,1.5,left,RRLRR.png,,,,,0,1,1,1,3,6,78,2,,,,,,,,,,,,,,,,,,,,,,,,,,,,,,,,,,,,,,,,,,,,,,,,,,,,,,,,,,,,,,,,399.985646000001,400.3866347000003,400.36955010000383,400.4696217000019,400.87263990000065,None,left,1,0.5700243000028422,400.87263990000065,None,400.36955010000383,400.4696217000019,400.4696217000019,None,401.47108110001136,None,,,,,,,11040,001,2024_Mar_13_1450,ANT,2021.2.3,60.074744996890324,
1,23,spatial,down,IC,L,,,,,,Block.xlsx,"你已经完成了整个实验（三个区组）。

请报告实验者已完成实验

非常感谢，再见！",-1.5,0,-1.5,left,RRLRR.png,,,,,0,1,1,1,3,7,79,22,,,,,,,,,,,,,,,,,,,,,,,,,,,,,,,,,,,,,,,,,,,,,,,,,,,,,,,,,,,,,,,,401.87166300001263,402.27268740000727,402.2562031000125,402.3565776000032,402.7563962999993,None,left,1,0.45403739999164827,402.7563962999993,None,402.2562031000125,402.3565776000032,402.3565776000032,None,403.2407845000125,None,,,,,,,11040,001,2024_Mar_13_1450,ANT,2021.2.3,60.074744996890324,
1,11,center,up,IC,L,,,,,,Block.xlsx,"你已经完成了整个实验（三个区组）。

请报告实验者已完成实验

非常感谢，再见！",0,50,1.5,left,RRLRR.png,,,,,0,1,1,1,3,8,80,10,,,,,,,,,,,,,,,,,,,,,,,,,,,,,,,,,,,,,,,,,,,,,,,,,,,,,,,,,,,,,,,,403.6410756000114,404.0416450000048,404.02582170000824,404.1254745000042,404.5259609000059,None,left,1,0.5246600000100443,404.5259609000059,None,404.02582170000824,404.1254745000042,404.1254745000042,None,405.07654940000793,None,,,,,,,11040,001,2024_Mar_13_1450,ANT,2021.2.3,60.074744996890324,
1,14,center,down,C,R,,,,,,Block.xlsx,"你已经完成了整个实验（三个区组）。

请报告实验者已完成实验

非常感谢，再见！",0,50,-1.5,right,RRRRR.png,,,,,0,1,1,1,3,9,81,13,,,,,,,,,,,,,,,,,,,,,,,,,,,,,,,,,,,,,,,,,,,,,,,,,,,,,,,,,,,,,,,,405.47818360000383,405.87916860000405,405.8610852000129,405.96108410001034,406.36236420000205,None,right,1,0.4725731999933487,406.36236420000205,None,405.8610852000129,405.96108410001034,405.96108410001034,None,406.86271800000395,None,,,,,,,11040,001,2024_Mar_13_1450,ANT,2021.2.3,60.074744996890324,
1,18,spatial,up,C,R,,,,,,Block.xlsx,"你已经完成了整个实验（三个区组）。

请报告实验者已完成实验

非常感谢，再见！",1.5,0,1.5,right,RRRRR.png,,,,,0,1,1,1,3,10,82,17,,,,,,,,,,,,,,,,,,,,,,,,,,,,,,,,,,,,,,,,,,,,,,,,,,,,,,,,,,,,,,,,407.26316240000597,407.66456330000074,407.64709860000585,407.74715870000364,408.14840960000583,None,right,1,0.3822368999972241,408.14840960000583,None,407.64709860000585,407.74715870000364,407.74715870000364,None,408.5483830000012,None,,,,,,,11040,001,2024_Mar_13_1450,ANT,2021.2.3,60.074744996890324,
1,4,no,up,IC,R,,,,,,Block.xlsx,"你已经完成了整个实验（三个区组）。

请报告实验者已完成实验

非常感谢，再见！",50,0,1.5,right,LLRLL.png,,,,,0,1,1,1,3,11,83,3,,,,,,,,,,,,,,,,,,,,,,,,,,,,,,,,,,,,,,,,,,,,,,,,,,,,,,,,,,,,,,,,408.9500345000124,409.3497242000012,409.3331074000016,409.43292200000724,409.83541700000933,None,right,1,0.5115190999931656,409.83541700000933,None,409.3331074000016,409.43292200000724,409.43292200000724,None,410.36797620001016,None,,,,,,,11040,001,2024_Mar_13_1450,ANT,2021.2.3,60.074744996890324,
1,9,center,up,C,L,,,,,,Block.xlsx,"你已经完成了整个实验（三个区组）。

请报告实验者已完成实验

非常感谢，再见！",0,50,1.5,left,LLLLL.png,,,,,0,1,1,1,3,12,84,8,,,,,,,,,,,,,,,,,,,,,,,,,,,,,,,,,,,,,,,,,,,,,,,,,,,,,,,,,,,,,,,,410.7684625000111,411.17135200000484,411.15307570000004,411.25393880000047,411.65432280000823,None,left,1,0.47661840000364464,411.65432280000823,None,411.15307570000004,411.25393880000047,411.25393880000047,None,412.15383740000834,None,,,,,,,11040,001,2024_Mar_13_1450,ANT,2021.2.3,60.074744996890324,
1,9,center,up,C,L,,,,,,Block.xlsx,"你已经完成了整个实验（三个区组）。

请报告实验者已完成实验

非常感谢，再见！",0,50,1.5,left,LLLLL.png,,,,,0,1,1,1,3,13,85,8,,,,,,,,,,,,,,,,,,,,,,,,,,,,,,,,,,,,,,,,,,,,,,,,,,,,,,,,,,,,,,,,412.5543053000001,412.9549657000025,412.9395537000091,413.0398256000044,413.43909949999943,None,left,1,0.4675565000070492,413.43909949999943,None,412.9395537000091,413.0398256000044,413.0398256000044,None,413.9232423000067,None,,,,,,,11040,001,2024_Mar_13_1450,ANT,2021.2.3,60.074744996890324,
1,2,no,up,C,R,,,,,,Block.xlsx,"你已经完成了整个实验（三个区组）。

请报告实验者已完成实验

非常感谢，再见！",50,0,1.5,right,RRRRR.png,,,,,0,1,1,1,3,14,86,1,,,,,,,,,,,,,,,,,,,,,,,,,,,,,,,,,,,,,,,,,,,,,,,,,,,,,,,,,,,,,,,,414.3238042000012,414.72604200000933,414.7076392000017,414.8078826000128,415.20954090000305,None,left,0,0.5617679999995744,415.20954090000305,None,414.7076392000017,414.8078826000128,414.8078826000128,None,415.7930292000092,None,,,,,,,11040,001,2024_Mar_13_1450,ANT,2021.2.3,60.074744996890324,
1,13,center,down,C,L,,,,,,Block.xlsx,"你已经完成了整个实验（三个区组）。

请报告实验者已完成实验

非常感谢，再见！",0,50,-1.5,left,LLLLL.png,,,,,0,1,1,1,3,15,87,12,,,,,,,,,,,,,,,,,,,,,,,,,,,,,,,,,,,,,,,,,,,,,,,,,,,,,,,,,,,,,,,,416.19420770001307,416.5939753999992,416.5786389999994,416.677895300003,417.0785687000025,None,left,1,0.6132389999984298,417.0785687000025,None,416.5786389999994,416.677895300003,416.677895300003,None,417.71236200000567,None,,,,,,,11040,001,2024_Mar_13_1450,ANT,2021.2.3,60.074744996890324,
1,12,center,up,IC,R,,,,,,Block.xlsx,"你已经完成了整个实验（三个区组）。

请报告实验者已完成实验

非常感谢，再见！",0,50,1.5,right,LLRLL.png,,,,,0,1,1,1,3,16,88,11,,,,,,,,,,,,,,,,,,,,,,,,,,,,,,,,,,,,,,,,,,,,,,,,,,,,,,,,,,,,,,,,418.11280290001014,418.51389280000876,418.497701100001,418.59735809999984,418.9993405000132,None,right,1,0.7717088000063086,418.9993405000132,None,418.497701100001,418.59735809999984,418.59735809999984,None,419.7995277000009,None,,,,,,,11040,001,2024_Mar_13_1450,ANT,2021.2.3,60.074744996890324,
1,12,center,up,IC,R,,,,,,Block.xlsx,"你已经完成了整个实验（三个区组）。

请报告实验者已完成实验

非常感谢，再见！",0,50,1.5,right,LLRLL.png,,,,,0,1,1,1,3,17,89,11,,,,,,,,,,,,,,,,,,,,,,,,,,,,,,,,,,,,,,,,,,,,,,,,,,,,,,,,,,,,,,,,420.199474500012,420.6012718000129,420.58295760001056,420.68395990000863,421.084629200006,None,right,1,0.5504673999967054,421.084629200006,None,420.58295760001056,420.68395990000863,420.68395990000863,None,421.65168030001223,None,,,,,,,11040,001,2024_Mar_13_1450,ANT,2021.2.3,60.074744996890324,
1,6,no,down,C,R,,,,,,Block.xlsx,"你已经完成了整个实验（三个区组）。

请报告实验者已完成实验

非常感谢，再见！",50,0,-1.5,right,RRRRR.png,,,,,0,1,1,1,3,18,90,5,,,,,,,,,,,,,,,,,,,,,,,,,,,,,,,,,,,,,,,,,,,,,,,,,,,,,,,,,,,,,,,,422.0519171000051,422.4532898000034,422.4359935000102,422.5381972000032,422.9390196000022,None,right,1,0.5517315000033705,422.9390196000022,None,422.4359935000102,422.5381972000032,422.5381972000032,None,423.5210825000104,None,,,,,,,11040,001,2024_Mar_13_1450,ANT,2021.2.3,60.074744996890324,
1,1,no,up,C,L,,,,,,Block.xlsx,"你已经完成了整个实验（三个区组）。

请报告实验者已完成实验

非常感谢，再见！",50,0,1.5,left,LLLLL.png,,,,,0,1,1,1,3,19,91,0,,,,,,,,,,,,,,,,,,,,,,,,,,,,,,,,,,,,,,,,,,,,,,,,,,,,,,,,,,,,,,,,423.9213929000107,424.32307180001226,424.3068435000023,424.40646680000646,424.80713470000774,None,left,1,0.43613550000009127,424.80713470000774,None,424.3068435000023,424.40646680000646,424.40646680000646,None,425.25698340000235,None,,,,,,,11040,001,2024_Mar_13_1450,ANT,2021.2.3,60.074744996890324,
1,8,no,down,IC,R,,,,,,Block.xlsx,"你已经完成了整个实验（三个区组）。

请报告实验者已完成实验

