TrialType,TrialNumber,WarningType,TargetType,FlankerType,TargetDirection,W,f,Y,corr,imageFile,condition,endtext,Yw,Yf,Yt,Corr,imagefile,trials_3.thisRepN,trials_3.thisTrialN,trials_3.thisN,trials_3.thisIndex,trials_2.thisRepN,trials_2.thisTrialN,trials_2.thisN,trials_2.thisIndex,trials.thisRepN,trials.thisTrialN,trials.thisN,trials.thisIndex,instr.started,instr.stopped,key_resp.keys,key_resp.rt,key_resp.started,key_resp.stopped,image.started,image.stopped,key_resp_6.keys,key_resp_6.rt,key_resp_6.started,key_resp_6.stopped,EX_L.started,EX_L.stopped,AL.started,AL.stopped,key_resp_7.keys,key_resp_7.rt,key_resp_7.started,key_resp_7.stopped,EX_R.started,EX_R.stopped,RR.started,RR.stopped,key_resp_8.keys,key_resp_8.rt,key_resp_8.started,key_resp_8.stopped,image_2.started,image_2.stopped,key_resp_9.keys,key_resp_9.rt,key_resp_9.started,key_resp_9.stopped,image_3.started,image_3.stopped,key_resp_10.keys,key_resp_10.rt,key_resp_10.started,key_resp_10.stopped,fix.started,fix.stopped,war.started,war.stopped,tar.started,tar.stopped,key_resp_4.keys,key_resp_4.corr,key_resp_4.rt,key_resp_4.started,key_resp_4.stopped,fix2.started,fix2.stopped,fix_2.started,fix_2.stopped,Feedback.started,Feedback.stopped,key_resp_2.keys,key_resp_2.rt,key_resp_2.started,key_resp_2.stopped,text_5.started,text_5.stopped,fix2_1.started,fix2_1.stopped,Warn.started,Warn.stopped,Tar.started,Tar.stopped,key_resp_5.keys,key_resp_5.corr,key_resp_5.rt,key_resp_5.started,key_resp_5.stopped,Fix_2.started,Fix_2.stopped,fix2_2.started,fix2_2.stopped,text_4.started,text_4.stopped,key_resp_3.keys,key_resp_3.rt,key_resp_3.started,key_resp_3.stopped,text_3.started,text_3.stopped,participant,session,date,expName,psychopyVersion,frameRate,
,,,,,,,,,,,,,,,,,,,,,,,,,,,,,,8.430468200007454,None,space,4.259961299991119,8.430468200007454,None,,,,,,,,,,,,,,,,,,,,,,,,,,,,,,,,,,,,,,,,,,,,,,,,,,,,,,,,,,,,,,,,,,,,,,,,,,,,,,,,,11044,001,2024_Mar_24_1017,ANT,2021.2.3,59.9147532851025,
,,,,,,,,,,,,,,,,,,,,,,,,,,,,,,,,,,,,12.720492300009937,None,space,2.314181900001131,12.720492300009937,None,,,,,,,,,,,,,,,,,,,,,,,,,,,,,,,,,,,,,,,,,,,,,,,,,,,,,,,,,,,,,,,,,,,,,,,,,,,11044,001,2024_Mar_24_1017,ANT,2021.2.3,59.9147532851025,
,,,,,,,,,,,,,,,,,,,,,,,,,,,,,,,,,,,,,,,,,,15.057175599999027,None,15.057175599999027,None,left,9.889632799997344,15.057175599999027,None,,,,,,,,,,,,,,,,,,,,,,,,,,,,,,,,,,,,,,,,,,,,,,,,,,,,,,,,,,,,,,,,,,,11044,001,2024_Mar_24_1017,ANT,2021.2.3,59.9147532851025,
,,,,,,,,,,,,,,,,,,,,,,,,,,,,,,,,,,,,,,,,,,,,,,,,,,24.9723723000061,None,24.9723723000061,None,right,0.8781825999903958,24.9723723000061,None,,,,,,,,,,,,,,,,,,,,,,,,,,,,,,,,,,,,,,,,,,,,,,,,,,,,,,,,,,,11044,001,2024_Mar_24_1017,ANT,2021.2.3,59.9147532851025,
,,,,,,,,,,,,,,,,,,,,,,,,,,,,,,,,,,,,,,,,,,,,,,,,,,,,,,,,,,25.87337660000776,None,space,8.258017700005439,25.87337660000776,None,,,,,,,,,,,,,,,,,,,,,,,,,,,,,,,,,,,,,,,,,,,,,,,,,,,,,11044,001,2024_Mar_24_1017,ANT,2021.2.3,59.9147532851025,
,,,,,,,,,,,,,,,,,,,,,,,,,,,,,,,,,,,,,,,,,,,,,,,,,,,,,,,,,,,,,,,,34.15301819999877,None,space,2.034303499996895,34.15301819999877,None,,,,,,,,,,,,,,,,,,,,,,,,,,,,,,,,,,,,,,,,,,,,,,,11044,001,2024_Mar_24_1017,ANT,2021.2.3,59.9147532851025,
0,12,spatial,down,IC,R,-1.5,0,-1.5,right,LLRLL.png,,,,,,,,0,0,0,11,,,,,,,,,,,,,,,,,,,,,,,,,,,,,,,,,,,,,,,,,,,,,,,,,36.27177930000471,36.67412630000035,36.6564967000013,36.757268000001204,37.15874480000639,None,right,1,0.8284924999898067,37.15874480000639,None,36.6564967000013,36.757268000001204,36.757268000001204,None,38.025364300003275,None,,,,,,,,,,,,,,,,,,,,,,,,,,,,,,11044,001,2024_Mar_24_1017,ANT,2021.2.3,59.9147532851025,
0,5,center,up,C,L,0,50,1.5,left,LLLLL.png,,,,,,,,0,1,1,4,,,,,,,,,,,,,,,,,,,,,,,,,,,,,,,,,,,,,,,,,,,,,,,,,40.0286511000013,40.43048579999595,40.412188300004345,40.512479500001064,40.913323800006765,None,left,1,0.8183030999934999,40.913323800006765,None,40.412188300004345,40.512479500001064,40.512479500001064,None,41.74750080000376,None,,,,,,,,,,,,,,,,,,,,,,,,,,,,,,11044,001,2024_Mar_24_1017,ANT,2021.2.3,59.9147532851025,
0,4,no,down,IC,L,50,0,-1.5,left,RRLRR.png,,,,,,,,0,2,2,3,,,,,,,,,,,,,,,,,,,,,,,,,,,,,,,,,,,,,,,,,,,,,,,,,43.750831299999845,44.15122690000862,44.135077900005854,44.23472780000884,44.63581870000053,None,left,1,0.7597953999938909,44.63581870000053,None,44.135077900005854,44.23472780000884,44.23472780000884,None,45.419571699996595,None,,,,,,,,,,,,,,,,,,,,,,,,,,,,,,11044,001,2024_Mar_24_1017,ANT,2021.2.3,59.9147532851025,
0,1,no,up,C,L,50,0,1.5,left,LLLLL.png,,,,,,,,0,3,3,0,,,,,,,,,,,,,,,,,,,,,,,,,,,,,,,,,,,,,,,,,,,,,,,,,47.42281139999977,47.82447740000498,47.806615000008605,47.90678190000472,48.30751660000533,None,left,1,0.5999289999890607,48.30751660000533,None,47.806615000008605,47.90678190000472,47.90678190000472,None,48.92484360000526,None,,,,,,,,,,,,,,,,,,,,,,,,,,,,,,11044,001,2024_Mar_24_1017,ANT,2021.2.3,59.9147532851025,
0,8,center,down,IC,L,0,50,-1.5,left,RRLRR.png,,,,,,,,0,4,4,7,,,,,,,,,,,,,,,,,,,,,,,,,,,,,,,,,,,,,,,,,,,,,,,,,50.928017800004454,51.32876620000752,51.31297900000936,51.413653800002066,51.812810999996145,None,left,1,0.7427741999999853,51.812810999996145,None,51.31297900000936,51.413653800002066,51.413653800002066,None,52.58045970000967,None,,,,,,,,,,,,,,,,,,,,,,,,,,,,,,11044,001,2024_Mar_24_1017,ANT,2021.2.3,59.9147532851025,
0,9,spatial,up,C,R,1.5,0,1.5,right,RRRRR.png,,,,,,,,0,5,5,8,,,,,,,,,,,,,,,,,,,,,,,,,,,,,,,,,,,,,,,,,,,,,,,,,54.58367760000692,54.98422100000607,54.96815729999798,55.0686418999976,55.46870310000668,None,right,1,0.598774099998991,55.46870310000668,None,54.96815729999798,55.0686418999976,55.0686418999976,None,56.08564859999751,None,,,,,,,,,,,,,,,,,,,,,,,,,,,,,,11044,001,2024_Mar_24_1017,ANT,2021.2.3,59.9147532851025,
0,2,no,up,IC,R,50,0,1.5,right,LLRLL.png,,,,,,,,0,6,6,1,,,,,,,,,,,,,,,,,,,,,,,,,,,,,,,,,,,,,,,,,,,,,,,,,58.08947770000668,58.49112069999683,58.472745699997176,58.573913600004744,58.97477529999742,None,right,1,0.7251861999975517,58.97477529999742,None,58.472745699997176,58.573913600004744,58.573913600004744,None,59.72460430000501,None,,,,,,,,,,,,,,,,,,,,,,,,,,,,,,11044,001,2024_Mar_24_1017,ANT,2021.2.3,59.9147532851025,
0,11,spatial,down,C,L,-1.5,0,-1.5,left,LLLLL.png,,,,,,,,0,7,7,10,,,,,,,,,,,,,,,,,,,,,,,,,,,,,,,,,,,,,,,,,,,,,,,,,61.72778690000996,62.12810770000215,62.11309050000273,62.21188850000908,62.6123801000067,None,left,1,0.5679882999975234,62.6123801000067,None,62.11309050000273,62.21188850000908,62.21188850000908,None,63.19663400000718,None,,,,,,,,,,,,,,,,,,,,,,,,,,,,,,11044,001,2024_Mar_24_1017,ANT,2021.2.3,59.9147532851025,
0,7,center,down,C,R,0,50,-1.5,right,RRRRR.png,,,,,,,,0,8,8,6,,,,,,,,,,,,,,,,,,,,,,,,,,,,,,,,,,,,,,,,,,,,,,,,,65.19974920000823,65.60001560000819,65.58354600000894,65.6836631000042,66.08590720000211,None,right,1,0.6701219000096899,66.08590720000211,None,65.58354600000894,65.6836631000042,65.6836631000042,None,66.78522040000826,None,,,,,,,,,,,,,,,,,,,,,,,,,,,,,,11044,001,2024_Mar_24_1017,ANT,2021.2.3,59.9147532851025,
0,3,no,down,C,R,50,0,-1.5,right,RRRRR.png,,,,,,,,0,9,9,2,,,,,,,,,,,,,,,,,,,,,,,,,,,,,,,,,,,,,,,,,,,,,,,,,68.78831920000084,69.18889770000533,69.17277050000848,69.2735168000072,69.67303920000268,None,right,1,0.5157573000033153,69.67303920000268,None,69.17277050000848,69.2735168000072,69.2735168000072,None,70.20689860000857,None,,,,,,,,,,,,,,,,,,,,,,,,,,,,,,11044,001,2024_Mar_24_1017,ANT,2021.2.3,59.9147532851025,
0,10,spatial,up,IC,L,1.5,0,1.5,left,RRLRR.png,,,,,,,,0,10,10,9,,,,,,,,,,,,,,,,,,,,,,,,,,,,,,,,,,,,,,,,,,,,,,,,,72.2102167999983,72.61201090000395,72.59384270000737,72.69568509999954,73.0948611000058,None,left,1,0.49358150000625756,73.0948611000058,None,72.59384270000737,72.69568509999954,72.69568509999954,None,73.61232090000703,None,,,,,,,,,,,,,,,,,,,,,,,,,,,,,,11044,001,2024_Mar_24_1017,ANT,2021.2.3,59.9147532851025,
0,6,center,up,IC,R,0,50,1.5,right,LLRLL.png,,,,,,,,0,11,11,5,,,,,,,,,,,,,,,,,,,,,,,,,,,,,,,,,,,,,,,,,,,,,,,,,75.61526820001018,76.01703760000237,75.99934540000686,76.10015280000516,76.50112650000665,None,right,1,0.607187800007523,76.50112650000665,None,75.99934540000686,76.10015280000516,76.10015280000516,None,77.13436389999697,None,,,,,,,,,,,,,,,,,,,,,,,,,,,,,,11044,001,2024_Mar_24_1017,ANT,2021.2.3,59.9147532851025,
,,,,,,,,,,,,,,,,,,,,,,,,,,,,,,,,,,,,,,,,,,,,,,,,,,,,,,,,,,,,,,,,,,,,,,,,,,,,,,,,,,,,,,,space,15.61148300000059,79.13733120000688,None,,,,,,,,,,,,,,,,,,,,,,,,,,11044,001,2024_Mar_24_1017,ANT,2021.2.3,59.9147532851025,
1,21,spatial,down,C,L,,,,,,Block.xlsx,"你已经完成了第一个实验区组

请稍作休息


点击空格键进入下一个区组。",-1.5,0,-1.5,left,LLLLL.png,,,,,0,0,0,0,0,0,0,20,,,,,,,,,,,,,,,,,,,,,,,,,,,,,,,,,,,,,,,,,,,,,,,,,,,,,,,,,,,,,,79.13733120000688,None,94.8121484000003,95.21224190000794,95.1950622000004,95.29697209999722,95.69754400000966,None,left,1,0.5313415999989957,95.69754400000966,None,95.1950622000004,95.29697209999722,95.29697209999722,None,96.2464658000099,None,,,,,,,11044,001,2024_Mar_24_1017,ANT,2021.2.3,59.9147532851025,
1,2,no,up,C,R,,,,,,Block.xlsx,"你已经完成了第一个实验区组

请稍作休息


点击空格键进入下一个区组。",50,0,1.5,right,RRRRR.png,,,,,0,0,0,0,0,1,1,1,,,,,,,,,,,,,,,,,,,,,,,,,,,,,,,,,,,,,,,,,,,,,,,,,,,,,,,,,,,,,,,,96.64724820000993,97.04826270000194,97.03089550000732,97.1312340000004,97.5337489000085,None,right,1,0.5434965000022203,97.5337489000085,None,97.03089550000732,97.1312340000004,97.1312340000004,None,98.09922840000945,None,,,,,,,11044,001,2024_Mar_24_1017,ANT,2021.2.3,59.9147532851025,
1,13,center,down,C,L,,,,,,Block.xlsx,"你已经完成了第一个实验区组

请稍作休息


点击空格键进入下一个区组。",0,50,-1.5,left,LLLLL.png,,,,,0,0,0,0,0,2,2,12,,,,,,,,,,,,,,,,,,,,,,,,,,,,,,,,,,,,,,,,,,,,,,,,,,,,,,,,,,,,,,,,98.49972500000149,98.90052239999932,98.88385120000748,98.98448080000526,99.38488789999974,None,None,0,,99.38488789999974,None,98.88385120000748,98.98448080000526,98.98448080000526,None,101.08842000000004,None,,,,,,,11044,001,2024_Mar_24_1017,ANT,2021.2.3,59.9147532851025,
1,20,spatial,up,IC,R,,,,,,Block.xlsx,"你已经完成了第一个实验区组

请稍作休息


点击空格键进入下一个区组。",1.5,0,1.5,right,LLRLL.png,,,,,0,0,0,0,0,3,3,19,,,,,,,,,,,,,,,,,,,,,,,,,,,,,,,,,,,,,,,,,,,,,,,,,,,,,,,,,,,,,,,,101.48773249999795,101.88928000000305,101.87165370000002,101.97309159999713,102.37229850000585,None,right,1,0.600678799994057,102.37229850000585,None,101.87165370000002,101.97309159999713,101.97309159999713,None,102.98998929999652,None,,,,,,,11044,001,2024_Mar_24_1017,ANT,2021.2.3,59.9147532851025,
1,17,spatial,up,C,L,,,,,,Block.xlsx,"你已经完成了第一个实验区组

请稍作休息


点击空格键进入下一个区组。",1.5,0,1.5,left,LLLLL.png,,,,,0,0,0,0,0,4,4,16,,,,,,,,,,,,,,,,,,,,,,,,,,,,,,,,,,,,,,,,,,,,,,,,,,,,,,,,,,,,,,,,103.39051379999728,103.79205760000332,103.77453290000267,103.8748176000081,104.27536549999786,None,left,1,0.4577050999942003,104.27536549999786,None,103.77453290000267,103.8748176000081,103.8748176000081,None,104.75934669999697,None,,,,,,,11044,001,2024_Mar_24_1017,ANT,2021.2.3,59.9147532851025,
1,11,center,up,IC,L,,,,,,Block.xlsx,"你已经完成了第一个实验区组

请稍作休息


点击空格键进入下一个区组。",0,50,1.5,left,RRLRR.png,,,,,0,0,0,0,0,5,5,10,,,,,,,,,,,,,,,,,,,,,,,,,,,,,,,,,,,,,,,,,,,,,,,,,,,,,,,,,,,,,,,,105.15995929999917,105.56143810000503,105.54391020000912,105.6447804000054,106.04463790000591,None,left,1,0.5604690000036499,106.04463790000591,None,105.54391020000912,105.6447804000054,105.6447804000054,None,106.62889829999767,None,,,,,,,11044,001,2024_Mar_24_1017,ANT,2021.2.3,59.9147532851025,
1,9,center,up,C,L,,,,,,Block.xlsx,"你已经完成了第一个实验区组

请稍作休息


点击空格键进入下一个区组。",0,50,1.5,left,LLLLL.png,,,,,0,0,0,0,0,6,6,8,,,,,,,,,,,,,,,,,,,,,,,,,,,,,,,,,,,,,,,,,,,,,,,,,,,,,,,,,,,,,,,,107.02950440000859,107.4303149000043,107.41508629999589,107.53095800000301,107.91408230000525,None,left,1,0.3790601000073366,107.91408230000525,None,107.41508629999589,107.53095800000301,107.51353100000415,None,108.31479250000848,None,,,,,,,11044,001,2024_Mar_24_1017,ANT,2021.2.3,59.9147532851025,
1,16,center,down,IC,R,,,,,,Block.xlsx,"你已经完成了第一个实验区组

请稍作休息


点击空格键进入下一个区组。",0,50,-1.5,right,LLRLL.png,,,,,0,0,0,0,0,7,7,15,,,,,,,,,,,,,,,,,,,,,,,,,,,,,,,,,,,,,,,,,,,,,,,,,,,,,,,,,,,,,,,,108.71509579999838,109.11592650000239,109.09927669999888,109.2010328000033,109.60006300000532,None,right,1,0.6369752000027802,109.60006300000532,None,109.09927669999888,109.2010328000033,109.2010328000033,None,110.26773690000118,None,,,,,,,11044,001,2024_Mar_24_1017,ANT,2021.2.3,59.9147532851025,
1,7,no,down,IC,L,,,,,,Block.xlsx,"你已经完成了第一个实验区组

请稍作休息


点击空格键进入下一个区组。",50,0,-1.5,left,RRLRR.png,,,,,0,0,0,0,0,8,8,6,,,,,,,,,,,,,,,,,,,,,,,,,,,,,,,,,,,,,,,,,,,,,,,,,,,,,,,,,,,,,,,,110.66885870000988,111.06880459999957,111.0535130000062,111.1522294000024,111.55293309999979,None,left,1,0.6121735999913653,111.55293309999979,None,111.0535130000062,111.1522294000024,111.1522294000024,None,112.1871683000063,None,,,,,,,11044,001,2024_Mar_24_1017,ANT,2021.2.3,59.9147532851025,
1,21,spatial,down,C,L,,,,,,Block.xlsx,"你已经完成了第一个实验区组

请稍作休息


点击空格键进入下一个区组。",-1.5,0,-1.5,left,LLLLL.png,,,,,0,0,0,0,0,9,9,20,,,,,,,,,,,,,,,,,,,,,,,,,,,,,,,,,,,,,,,,,,,,,,,,,,,,,,,,,,,,,,,,112.58786780000082,112.98847769999702,112.97167100000661,113.07180299999891,113.4716374999989,None,left,1,0.4300184000021545,113.4716374999989,None,112.97167100000661,113.07180299999891,113.07180299999891,None,113.92331150000973,None,,,,,,,11044,001,2024_Mar_24_1017,ANT,2021.2.3,59.9147532851025,
1,9,center,up,C,L,,,,,,Block.xlsx,"你已经完成了第一个实验区组

请稍作休息


点击空格键进入下一个区组。",0,50,1.5,left,LLLLL.png,,,,,0,0,0,0,0,10,10,8,,,,,,,,,,,,,,,,,,,,,,,,,,,,,,,,,,,,,,,,,,,,,,,,,,,,,,,,,,,,,,,,114.32386840000981,114.72471550000773,114.70916440000292,114.8082282999967,115.20953619999636,None,left,1,0.4680056999932276,115.20953619999636,None,114.70916440000292,114.8082282999967,114.8082282999967,None,115.69226999999955,None,,,,,,,11044,001,2024_Mar_24_1017,ANT,2021.2.3,59.9147532851025,
1,23,spatial,down,IC,L,,,,,,Block.xlsx,"你已经完成了第一个实验区组

请稍作休息


点击空格键进入下一个区组。",-1.5,0,-1.5,left,RRLRR.png,,,,,0,0,0,0,0,11,11,22,,,,,,,,,,,,,,,,,,,,,,,,,,,,,,,,,,,,,,,,,,,,,,,,,,,,,,,,,,,,,,,,116.09308800000872,116.4936902000045,116.4783080000052,116.57836400000087,116.97850860000472,None,left,1,0.5949044000008143,116.97850860000472,None,116.4783080000052,116.57836400000087,116.57836400000087,None,117.59536649999791,None,,,,,,,11044,001,2024_Mar_24_1017,ANT,2021.2.3,59.9147532851025,
1,8,no,down,IC,R,,,,,,Block.xlsx,"你已经完成了第一个实验区组

请稍作休息


点击空格键进入下一个区组。",50,0,-1.5,right,LLRLL.png,,,,,0,0,0,0,0,12,12,7,,,,,,,,,,,,,,,,,,,,,,,,,,,,,,,,,,,,,,,,,,,,,,,,,,,,,,,,,,,,,,,,117.99599670000316,118.39662290000706,118.38007369999832,118.47993200000201,118.88084769999841,None,right,1,0.5567290999897523,118.88084769999841,None,118.38007369999832,118.47993200000201,118.47993200000201,None,119.46483930000977,None,,,,,,,11044,001,2024_Mar_24_1017,ANT,2021.2.3,59.9147532851025,
1,18,spatial,up,C,R,,,,,,Block.xlsx,"你已经完成了第一个实验区组

请稍作休息


点击空格键进入下一个区组。",1.5,0,1.5,right,RRRRR.png,,,,,0,0,0,0,0,13,13,17,,,,,,,,,,,,,,,,,,,,,,,,,,,,,,,,,,,,,,,,,,,,,,,,,,,,,,,,,,,,,,,,119.8655587999965,120.26653130000341,120.24958289999631,120.34974689999945,120.75153439999849,None,right,1,0.45397000000230037,120.75153439999849,None,120.24958289999631,120.34974689999945,120.34974689999945,None,121.23424879999948,None,,,,,,,11044,001,2024_Mar_24_1017,ANT,2021.2.3,59.9147532851025,
1,11,center,up,IC,L,,,,,,Block.xlsx,"你已经完成了第一个实验区组

请稍作休息


点击空格键进入下一个区组。",0,50,1.5,left,RRLRR.png,,,,,0,0,0,0,0,14,14,10,,,,,,,,,,,,,,,,,,,,,,,,,,,,,,,,,,,,,,,,,,,,,,,,,,,,,,,,,,,,,,,,121.6349695000099,122.03730170000927,122.01874559999851,122.11950909999723,122.52117400000861,None,left,1,0.6605312000028789,122.52117400000861,None,122.01874559999851,122.11950909999723,122.11950909999723,None,123.20390010000847,None,,,,,,,11044,001,2024_Mar_24_1017,ANT,2021.2.3,59.9147532851025,
1,20,spatial,up,IC,R,,,,,,Block.xlsx,"你已经完成了第一个实验区组

请稍作休息


点击空格键进入下一个区组。",1.5,0,1.5,right,LLRLL.png,,,,,0,0,0,0,0,15,15,19,,,,,,,,,,,,,,,,,,,,,,,,,,,,,,,,,,,,,,,,,,,,,,,,,,,,,,,,,,,,,,,,123.60441139999602,124.00495380000211,123.9882987000019,124.08865560000413,124.48942450000322,None,right,1,0.5484125999937532,124.48942450000322,None,123.9882987000019,124.08865560000413,124.08865560000413,None,125.05648280000605,None,,,,,,,11044,001,2024_Mar_24_1017,ANT,2021.2.3,59.9147532851025,
1,24,spatial,down,IC,R,,,,,,Block.xlsx,"你已经完成了第一个实验区组

请稍作休息


点击空格键进入下一个区组。",-1.5,0,-1.5,right,LLRLL.png,,,,,0,0,0,0,0,16,16,23,,,,,,,,,,,,,,,,,,,,,,,,,,,,,,,,,,,,,,,,,,,,,,,,,,,,,,,,,,,,,,,,125.4572685000021,125.85790450000786,125.84203100000741,125.94157710000582,126.3431394000072,None,right,1,0.4467632000014419,126.3431394000072,None,125.84203100000741,125.94157710000582,125.94157710000582,None,126.80927840000368,None,,,,,,,11044,001,2024_Mar_24_1017,ANT,2021.2.3,59.9147532851025,
1,9,center,up,C,L,,,,,,Block.xlsx,"你已经完成了第一个实验区组

请稍作休息


点击空格键进入下一个区组。",0,50,1.5,left,LLLLL.png,,,,,0,0,0,0,0,17,17,8,,,,,,,,,,,,,,,,,,,,,,,,,,,,,,,,,,,,,,,,,,,,,,,,,,,,,,,,,,,,,,,,127.20993880000606,127.61040040000807,127.59383470000466,127.69383099999686,128.0946763999964,None,left,1,0.4470341999985976,128.0946763999964,None,127.59383470000466,127.69383099999686,127.69383099999686,None,128.56185130000813,None,,,,,,,11044,001,2024_Mar_24_1017,ANT,2021.2.3,59.9147532851025,
1,4,no,up,IC,R,,,,,,Block.xlsx,"你已经完成了第一个实验区组

请稍作休息


点击空格键进入下一个区组。",50,0,1.5,right,LLRLL.png,,,,,0,0,0,0,0,18,18,3,,,,,,,,,,,,,,,,,,,,,,,,,,,,,,,,,,,,,,,,,,,,,,,,,,,,,,,,,,,,,,,,128.96253689999867,129.36313890000747,129.3464485000004,129.44687660000636,129.84760079999978,None,right,1,0.558408299999428,129.84760079999978,None,129.3464485000004,129.44687660000636,129.44687660000636,None,130.43139870000596,None,,,,,,,11044,001,2024_Mar_24_1017,ANT,2021.2.3,59.9147532851025,
1,17,spatial,up,C,L,,,,,,Block.xlsx,"你已经完成了第一个实验区组

请稍作休息


点击空格键进入下一个区组。",1.5,0,1.5,left,LLLLL.png,,,,,0,0,0,0,0,19,19,16,,,,,,,,,,,,,,,,,,,,,,,,,,,,,,,,,,,,,,,,,,,,,,,,,,,,,,,,,,,,,,,,130.83237190000364,131.23271599999862,131.21728130000702,131.33293020000565,131.71660970000084,None,left,1,0.40110259999346454,131.71660970000084,None,131.21728130000702,131.33293020000565,131.31596900000295,None,132.1339777999965,None,,,,,,,11044,001,2024_Mar_24_1017,ANT,2021.2.3,59.9147532851025,
1,15,center,down,IC,L,,,,,,Block.xlsx,"你已经完成了第一个实验区组

请稍作休息


点击空格键进入下一个区组。",0,50,-1.5,left,RRLRR.png,,,,,0,0,0,0,0,20,20,14,,,,,,,,,,,,,,,,,,,,,,,,,,,,,,,,,,,,,,,,,,,,,,,,,,,,,,,,,,,,,,,,132.53465450000658,132.93499280000106,132.91849550000916,133.01918950000254,133.419412800009,None,left,1,0.6823743999993894,133.419412800009,None,132.91849550000916,133.01918950000254,133.01918950000254,None,134.12026490000426,None,,,,,,,11044,001,2024_Mar_24_1017,ANT,2021.2.3,59.9147532851025,
1,2,no,up,C,R,,,,,,Block.xlsx,"你已经完成了第一个实验区组

请稍作休息


点击空格键进入下一个区组。",50,0,1.5,right,RRRRR.png,,,,,0,0,0,0,0,21,21,1,,,,,,,,,,,,,,,,,,,,,,,,,,,,,,,,,,,,,,,,,,,,,,,,,,,,,,,,,,,,,,,,134.52098909999768,134.92255099999602,134.90501740000036,135.0059248000034,135.40594840000267,None,right,1,0.41593299999658484,135.40594840000267,None,134.90501740000036,135.0059248000034,135.0059248000034,None,135.83962880000763,None,,,,,,,11044,001,2024_Mar_24_1017,ANT,2021.2.3,59.9147532851025,
1,14,center,down,C,R,,,,,,Block.xlsx,"你已经完成了第一个实验区组

请稍作休息


点击空格键进入下一个区组。",0,50,-1.5,right,RRRRR.png,,,,,0,0,0,0,0,22,22,13,,,,,,,,,,,,,,,,,,,,,,,,,,,,,,,,,,,,,,,,,,,,,,,,,,,,,,,,,,,,,,,,136.24001390000922,136.64071819999663,136.62537580000935,136.74174280000443,137.1249480999977,None,right,1,0.5450158000021474,137.1249480999977,None,136.62537580000935,136.74174280000443,136.7243085000082,None,137.69251160000567,None,,,,,,,11044,001,2024_Mar_24_1017,ANT,2021.2.3,59.9147532851025,
1,17,spatial,up,C,L,,,,,,Block.xlsx,"你已经完成了第一个实验区组

请稍作休息


点击空格键进入下一个区组。",1.5,0,1.5,left,LLLLL.png,,,,,0,0,0,0,0,23,23,16,,,,,,,,,,,,,,,,,,,,,,,,,,,,,,,,,,,,,,,,,,,,,,,,,,,,,,,,,,,,,,,,138.09289790000184,138.49394539999776,138.4768439000036,138.57708580000326,138.9778581999999,None,left,1,0.40408820001175627,138.9778581999999,None,138.4768439000036,138.57708580000326,138.57708580000326,None,139.41161409999768,None,,,,,,,11044,001,2024_Mar_24_1017,ANT,2021.2.3,59.9147532851025,
1,13,center,down,C,L,,,,,,Block.xlsx,"你已经完成了第一个实验区组

请稍作休息


点击空格键进入下一个区组。",0,50,-1.5,left,LLLLL.png,,,,,0,0,0,0,1,0,24,12,,,,,,,,,,,,,,,,,,,,,,,,,,,,,,,,,,,,,,,,,,,,,,,,,,,,,,,,,,,,,,,,139.81227480000234,140.21302470000228,140.1962532000034,140.297144199998,140.69696960000147,None,left,1,0.5331781999993837,140.69696960000147,None,140.1962532000034,140.297144199998,140.297144199998,None,141.2475712000014,None,,,,,,,11044,001,2024_Mar_24_1017,ANT,2021.2.3,59.9147532851025,
1,13,center,down,C,L,,,,,,Block.xlsx,"你已经完成了第一个实验区组

请稍作休息


点击空格键进入下一个区组。",0,50,-1.5,left,LLLLL.png,,,,,0,0,0,0,1,1,25,12,,,,,,,,,,,,,,,,,,,,,,,,,,,,,,,,,,,,,,,,,,,,,,,,,,,,,,,,,,,,,,,,141.64828330000455,142.04924800001027,142.03228510000918,142.13347700001032,142.53305159999582,None,left,1,0.41708319999452215,142.53305159999582,None,142.03228510000918,142.13347700001032,142.13347700001032,None,142.967109300007,None,,,,,,,11044,001,2024_Mar_24_1017,ANT,2021.2.3,59.9147532851025,
1,10,center,up,C,R,,,,,,Block.xlsx,"你已经完成了第一个实验区组

请稍作休息


点击空格键进入下一个区组。",0,50,1.5,right,RRRRR.png,,,,,0,0,0,0,1,2,26,9,,,,,,,,,,,,,,,,,,,,,,,,,,,,,,,,,,,,,,,,,,,,,,,,,,,,,,,,,,,,,,,,143.3675385000097,143.7680820000096,143.75164489999588,143.85389159999613,144.2522897000017,None,right,1,0.4417807999998331,144.2522897000017,None,143.75164489999588,143.85389159999613,143.85389159999613,None,144.71954130000086,None,,,,,,,11044,001,2024_Mar_24_1017,ANT,2021.2.3,59.9147532851025,
1,9,center,up,C,L,,,,,,Block.xlsx,"你已经完成了第一个实验区组

请稍作休息


点击空格键进入下一个区组。",0,50,1.5,left,LLLLL.png,,,,,0,0,0,0,1,3,27,8,,,,,,,,,,,,,,,,,,,,,,,,,,,,,,,,,,,,,,,,,,,,,,,,,,,,,,,,,,,,,,,,145.12022110000544,145.5213458000071,145.5042339000065,145.60560760000953,146.00570799999696,None,left,1,0.4326720000099158,146.00570799999696,None,145.5042339000065,145.60560760000953,145.60560760000953,None,146.4557044000103,None,,,,,,,11044,001,2024_Mar_24_1017,ANT,2021.2.3,59.9147532851025,
1,1,no,up,C,L,,,,,,Block.xlsx,"你已经完成了第一个实验区组

请稍作休息


点击空格键进入下一个区组。",50,0,1.5,left,LLLLL.png,,,,,0,0,0,0,1,4,28,0,,,,,,,,,,,,,,,,,,,,,,,,,,,,,,,,,,,,,,,,,,,,,,,,,,,,,,,,,,,,,,,,146.8562571000075,147.2579265000095,147.2399119000038,147.34104520000983,147.74102010000206,None,left,1,0.4010474999959115,147.74102010000206,None,147.2399119000038,147.34104520000983,147.34104520000983,None,148.15797700000985,None,,,,,,,11044,001,2024_Mar_24_1017,ANT,2021.2.3,59.9147532851025,
1,12,center,up,IC,R,,,,,,Block.xlsx,"你已经完成了第一个实验区组

请稍作休息


点击空格键进入下一个区组。",0,50,1.5,right,LLRLL.png,,,,,0,0,0,0,1,5,29,11,,,,,,,,,,,,,,,,,,,,,,,,,,,,,,,,,,,,,,,,,,,,,,,,,,,,,,,,,,,,,,,,148.55865380000614,148.95938870000828,148.94266510001034,149.04276900000696,149.44406740000704,None,right,1,0.5383331999910297,149.44406740000704,None,148.94266510001034,149.04276900000696,149.04276900000696,None,150.01076190000458,None,,,,,,,11044,001,2024_Mar_24_1017,ANT,2021.2.3,59.9147532851025,
1,6,no,down,C,R,,,,,,Block.xlsx,"你已经完成了第一个实验区组

请稍作休息


点击空格键进入下一个区组。",50,0,-1.5,right,RRRRR.png,,,,,0,0,0,0,1,6,30,5,,,,,,,,,,,,,,,,,,,,,,,,,,,,,,,,,,,,,,,,,,,,,,,,,,,,,,,,,,,,,,,,150.41216210000857,150.81331820000196,150.79541950000566,150.89579650000087,151.29626460000873,None,right,1,0.5502055000106338,151.29626460000873,None,150.79541950000566,150.89579650000087,150.89579650000087,None,151.86357149999822,None,,,,,,,11044,001,2024_Mar_24_1017,ANT,2021.2.3,59.9147532851025,
1,7,no,down,IC,L,,,,,,Block.xlsx,"你已经完成了第一个实验区组

请稍作休息


点击空格键进入下一个区组。",50,0,-1.5,left,RRLRR.png,,,,,0,0,0,0,1,7,31,6,,,,,,,,,,,,,,,,,,,,,,,,,,,,,,,,,,,,,,,,,,,,,,,,,,,,,,,,,,,,,,,,152.2643345999968,152.6656287000078,152.64833900000667,152.74829339999997,153.15008800000942,None,left,1,0.5371375999966403,153.15008800000942,None,152.64833900000667,152.74829339999997,152.74829339999997,None,153.71653190000507,None,,,,,,,11044,001,2024_Mar_24_1017,ANT,2021.2.3,59.9147532851025,
1,11,center,up,IC,L,,,,,,Block.xlsx,"你已经完成了第一个实验区组

请稍作休息


点击空格键进入下一个区组。",0,50,1.5,left,RRLRR.png,,,,,0,0,0,0,1,8,32,10,,,,,,,,,,,,,,,,,,,,,,,,,,,,,,,,,,,,,,,,,,,,,,,,,,,,,,,,,,,,,,,,154.11716000000888,154.51779410000017,154.5017394000024,154.6014157000027,155.0017788999976,None,left,1,0.5326207000034628,155.0017788999976,None,154.5017394000024,154.6014157000027,154.6014157000027,None,155.55254299999797,None,,,,,,,11044,001,2024_Mar_24_1017,ANT,2021.2.3,59.9147532851025,
1,2,no,up,C,R,,,,,,Block.xlsx,"你已经完成了第一个实验区组

请稍作休息


点击空格键进入下一个区组。",50,0,1.5,right,RRRRR.png,,,,,0,0,0,0,1,9,33,1,,,,,,,,,,,,,,,,,,,,,,,,,,,,,,,,,,,,,,,,,,,,,,,,,,,,,,,,,,,,,,,,155.953285399999,156.35529099999985,156.33722139999736,156.43772290000925,156.83972640000866,None,right,1,0.406879400004982,156.83972640000866,None,156.33722139999736,156.43772290000925,156.43772290000925,None,157.2718767000042,None,,,,,,,11044,001,2024_Mar_24_1017,ANT,2021.2.3,59.9147532851025,
1,4,no,up,IC,R,,,,,,Block.xlsx,"你已经完成了第一个实验区组

请稍作休息


点击空格键进入下一个区组。",50,0,1.5,right,LLRLL.png,,,,,0,0,0,0,1,10,34,3,,,,,,,,,,,,,,,,,,,,,,,,,,,,,,,,,,,,,,,,,,,,,,,,,,,,,,,,,,,,,,,,157.67253979999805,158.074048399998,158.05642609999632,158.15663060000225,158.5572392000031,None,right,1,0.44125679999706335,158.5572392000031,None,158.05642609999632,158.15663060000225,158.15663060000225,None,159.02439610000874,None,,,,,,,11044,001,2024_Mar_24_1017,ANT,2021.2.3,59.9147532851025,
1,8,no,down,IC,R,,,,,,Block.xlsx,"你已经完成了第一个实验区组

请稍作休息


点击空格键进入下一个区组。",50,0,-1.5,right,LLRLL.png,,,,,0,0,0,0,1,11,35,7,,,,,,,,,,,,,,,,,,,,,,,,,,,,,,,,,,,,,,,,,,,,,,,,,,,,,,,,,,,,,,,,159.42516420000175,159.82739089999814,159.80904310000187,159.91027039999608,160.30988850000722,None,right,1,0.7207120999955805,160.30988850000722,None,159.80904310000187,159.91027039999608,159.91027039999608,None,161.0443290999974,None,,,,,,,11044,001,2024_Mar_24_1017,ANT,2021.2.3,59.9147532851025,
1,16,center,down,IC,R,,,,,,Block.xlsx,"你已经完成了第一个实验区组

请稍作休息


点击空格键进入下一个区组。",0,50,-1.5,right,LLRLL.png,,,,,0,0,0,0,1,12,36,15,,,,,,,,,,,,,,,,,,,,,,,,,,,,,,,,,,,,,,,,,,,,,,,,,,,,,,,,,,,,,,,,161.44487310000113,161.84671230000095,161.82888939999975,161.92999400000554,162.3295511000033,None,right,1,0.5333250000112457,162.3295511000033,None,161.82888939999975,161.92999400000554,161.92999400000554,None,162.8802633000014,None,,,,,,,11044,001,2024_Mar_24_1017,ANT,2021.2.3,59.9147532851025,
1,19,spatial,up,IC,L,,,,,,Block.xlsx,"你已经完成了第一个实验区组

请稍作休息


点击空格键进入下一个区组。",1.5,0,1.5,left,RRLRR.png,,,,,0,0,0,0,1,13,37,18,,,,,,,,,,,,,,,,,,,,,,,,,,,,,,,,,,,,,,,,,,,,,,,,,,,,,,,,,,,,,,,,163.28101420000894,163.68330420000711,163.66494210000383,163.76533090000157,164.1658640000096,None,left,1,0.4410836000024574,164.1658640000096,None,163.66494210000383,163.76533090000157,163.76533090000157,None,164.63313930000004,None,,,,,,,11044,001,2024_Mar_24_1017,ANT,2021.2.3,59.9147532851025,
1,20,spatial,up,IC,R,,,,,,Block.xlsx,"你已经完成了第一个实验区组

请稍作休息


点击空格键进入下一个区组。",1.5,0,1.5,right,LLRLL.png,,,,,0,0,0,0,1,14,38,19,,,,,,,,,,,,,,,,,,,,,,,,,,,,,,,,,,,,,,,,,,,,,,,,,,,,,,,,,,,,,,,,165.03346020000754,165.43460079999932,165.41814580000937,165.51826680000522,165.91948350000894,None,right,1,0.5116495000111172,165.91948350000894,None,165.41814580000937,165.51826680000522,165.51826680000522,None,166.4524332000001,None,,,,,,,11044,001,2024_Mar_24_1017,ANT,2021.2.3,59.9147532851025,
1,8,no,down,IC,R,,,,,,Block.xlsx,"你已经完成了第一个实验区组

请稍作休息


点击空格键进入下一个区组。",50,0,-1.5,right,LLRLL.png,,,,,0,0,0,0,1,15,39,7,,,,,,,,,,,,,,,,,,,,,,,,,,,,,,,,,,,,,,,,,,,,,,,,,,,,,,,,,,,,,,,,166.85346110000683,167.2536334000033,167.23864860000322,167.33787220000522,167.73776109999744,None,right,1,0.5814187000069069,167.73776109999744,None,167.23864860000322,167.33787220000522,167.33787220000522,None,168.3383582999959,None,,,,,,,11044,001,2024_Mar_24_1017,ANT,2021.2.3,59.9147532851025,
1,5,no,down,C,L,,,,,,Block.xlsx,"你已经完成了第一个实验区组

请稍作休息


点击空格键进入下一个区组。",50,0,-1.5,left,LLLLL.png,,,,,0,0,0,0,1,16,40,4,,,,,,,,,,,,,,,,,,,,,,,,,,,,,,,,,,,,,,,,,,,,,,,,,,,,,,,,,,,,,,,,168.73914649999642,169.13977700000396,169.1233246000047,169.2244447999983,169.6237783999968,None,left,1,0.4398442999954568,169.6237783999968,None,169.1233246000047,169.2244447999983,169.2244447999983,None,170.09127289999742,None,,,,,,,11044,001,2024_Mar_24_1017,ANT,2021.2.3,59.9147532851025,
1,20,spatial,up,IC,R,,,,,,Block.xlsx,"你已经完成了第一个实验区组

请稍作休息


点击空格键进入下一个区组。",1.5,0,1.5,right,LLRLL.png,,,,,0,0,0,0,1,17,41,19,,,,,,,,,,,,,,,,,,,,,,,,,,,,,,,,,,,,,,,,,,,,,,,,,,,,,,,,,,,,,,,,170.49309089999588,170.89222439999867,170.8761308000103,170.97657199999958,171.3767508000019,None,right,1,0.4072091999987606,171.3767508000019,None,170.8761308000103,170.97657199999958,170.97657199999958,None,171.8103773000039,None,,,,,,,11044,001,2024_Mar_24_1017,ANT,2021.2.3,59.9147532851025,
1,5,no,down,C,L,,,,,,Block.xlsx,"你已经完成了第一个实验区组

请稍作休息


点击空格键进入下一个区组。",50,0,-1.5,left,LLLLL.png,,,,,0,0,0,0,1,18,42,4,,,,,,,,,,,,,,,,,,,,,,,,,,,,,,,,,,,,,,,,,,,,,,,,,,,,,,,,,,,,,,,,172.21118539999588,172.61302889999934,172.59496740000031,172.6960034000076,173.0972560000082,None,left,1,0.45384799999010283,173.0972560000082,None,172.59496740000031,172.6960034000076,172.6960034000076,None,173.57986640000308,None,,,,,,,11044,001,2024_Mar_24_1017,ANT,2021.2.3,59.9147532851025,
1,13,center,down,C,L,,,,,,Block.xlsx,"你已经完成了第一个实验区组

请稍作休息


点击空格键进入下一个区组。",0,50,-1.5,left,LLLLL.png,,,,,0,0,0,0,1,19,43,12,,,,,,,,,,,,,,,,,,,,,,,,,,,,,,,,,,,,,,,,,,,,,,,,,,,,,,,,,,,,,,,,173.98041800000647,174.38112069999625,174.36431520000042,174.46466140000848,174.86518730000535,None,left,1,0.45386590000998694,174.86518730000535,None,174.36431520000042,174.46466140000848,174.46466140000848,None,175.34940269999788,None,,,,,,,11044,001,2024_Mar_24_1017,ANT,2021.2.3,59.9147532851025,
1,4,no,up,IC,R,,,,,,Block.xlsx,"你已经完成了第一个实验区组

请稍作休息


点击空格键进入下一个区组。",50,0,1.5,right,LLRLL.png,,,,,0,0,0,0,1,20,44,3,,,,,,,,,,,,,,,,,,,,,,,,,,,,,,,,,,,,,,,,,,,,,,,,,,,,,,,,,,,,,,,,175.74990960001014,176.15047510000295,176.13492480000423,176.23445220000576,176.6345258000074,None,right,1,0.5566230999975232,176.6345258000074,None,176.13492480000423,176.23445220000576,176.23445220000576,None,177.21874240000034,None,,,,,,,11044,001,2024_Mar_24_1017,ANT,2021.2.3,59.9147532851025,
1,10,center,up,C,R,,,,,,Block.xlsx,"你已经完成了第一个实验区组

请稍作休息


点击空格键进入下一个区组。",0,50,1.5,right,RRRRR.png,,,,,0,0,0,0,1,21,45,9,,,,,,,,,,,,,,,,,,,,,,,,,,,,,,,,,,,,,,,,,,,,,,,,,,,,,,,,,,,,,,,,177.6192929000099,178.01998340000864,178.00327400000242,178.10495730000548,178.50589369999943,None,right,1,0.38932079999358393,178.50589369999943,None,178.00327400000242,178.10495730000548,178.10495730000548,None,178.92144430000917,None,,,,,,,11044,001,2024_Mar_24_1017,ANT,2021.2.3,59.9147532851025,
1,14,center,down,C,R,,,,,,Block.xlsx,"你已经完成了第一个实验区组

请稍作休息


点击空格键进入下一个区组。",0,50,-1.5,right,RRRRR.png,,,,,0,0,0,0,1,22,46,13,,,,,,,,,,,,,,,,,,,,,,,,,,,,,,,,,,,,,,,,,,,,,,,,,,,,,,,,,,,,,,,,179.32184530000086,179.72360389999812,179.70573450000666,179.8064527999959,180.20738290000008,None,right,1,0.4797924000013154,180.20738290000008,None,179.70573450000666,179.8064527999959,179.8064527999959,None,180.7072465000092,None,,,,,,,11044,001,2024_Mar_24_1017,ANT,2021.2.3,59.9147532851025,
1,15,center,down,IC,L,,,,,,Block.xlsx,"你已经完成了第一个实验区组

请稍作休息


点击空格键进入下一个区组。",0,50,-1.5,left,RRLRR.png,,,,,0,0,0,0,1,23,47,14,,,,,,,,,,,,,,,,,,,,,,,,,,,,,,,,,,,,,,,,,,,,,,,,,,,,,,,,,,,,,,,,181.10840730000928,181.51067400000466,181.49187130000792,181.5932424000057,181.99269650000497,None,left,1,0.44633259999682195,181.99269650000497,None,181.49187130000792,181.5932424000057,181.5932424000057,None,182.45979819999775,None,,,,,,,11044,001,2024_Mar_24_1017,ANT,2021.2.3,59.9147532851025,
1,18,spatial,up,C,R,,,,,,Block.xlsx,"你已经完成了第一个实验区组

请稍作休息


点击空格键进入下一个区组。",1.5,0,1.5,right,RRRRR.png,,,,,0,0,0,0,2,0,48,17,,,,,,,,,,,,,,,,,,,,,,,,,,,,,,,,,,,,,,,,,,,,,,,,,,,,,,,,,,,,,,,,182.86072820000118,183.26101170000038,183.24443590000737,183.34572290000506,183.74736039999698,None,right,1,0.4038940000027651,183.74736039999698,None,183.24443590000737,183.34572290000506,183.34572290000506,None,184.1791213999968,None,,,,,,,11044,001,2024_Mar_24_1017,ANT,2021.2.3,59.9147532851025,
1,10,center,up,C,R,,,,,,Block.xlsx,"你已经完成了第一个实验区组

请稍作休息


点击空格键进入下一个区组。",0,50,1.5,right,RRRRR.png,,,,,0,0,0,0,2,1,49,9,,,,,,,,,,,,,,,,,,,,,,,,,,,,,,,,,,,,,,,,,,,,,,,,,,,,,,,,,,,,,,,,184.5797792000085,184.98214069999813,184.96385300000838,185.06450180000684,185.46599130000686,None,right,1,0.3412920000118902,185.46599130000686,None,184.96385300000838,185.06450180000684,185.06450180000684,None,185.8316518000065,None,,,,,,,11044,001,2024_Mar_24_1017,ANT,2021.2.3,59.9147532851025,
1,1,no,up,C,L,,,,,,Block.xlsx,"你已经完成了第一个实验区组

请稍作休息


点击空格键进入下一个区组。",50,0,1.5,left,LLLLL.png,,,,,0,0,0,0,2,2,50,0,,,,,,,,,,,,,,,,,,,,,,,,,,,,,,,,,,,,,,,,,,,,,,,,,,,,,,,,,,,,,,,,186.23228219999874,186.6336069000099,186.6163552000071,186.71645100000023,187.11702700000023,None,left,1,0.3467612999957055,187.11702700000023,None,186.6163552000071,186.71645100000023,186.71645100000023,None,187.48422720000963,None,,,,,,,11044,001,2024_Mar_24_1017,ANT,2021.2.3,59.9147532851025,
1,18,spatial,up,C,R,,,,,,Block.xlsx,"你已经完成了第一个实验区组

请稍作休息


点击空格键进入下一个区组。",1.5,0,1.5,right,RRRRR.png,,,,,0,0,0,0,2,3,51,17,,,,,,,,,,,,,,,,,,,,,,,,,,,,,,,,,,,,,,,,,,,,,,,,,,,,,,,,,,,,,,,,187.8848324999999,188.28549439999915,188.27125890000025,188.386113200002,188.76970960000472,None,right,1,0.46221739999600686,188.76970960000472,None,188.27125890000025,188.386113200002,188.3699351999967,None,189.2535046999983,None,,,,,,,11044,001,2024_Mar_24_1017,ANT,2021.2.3,59.9147532851025,
1,21,spatial,down,C,L,,,,,,Block.xlsx,"你已经完成了第一个实验区组

请稍作休息


点击空格键进入下一个区组。",-1.5,0,-1.5,left,LLLLL.png,,,,,0,0,0,0,2,4,52,20,,,,,,,,,,,,,,,,,,,,,,,,,,,,,,,,,,,,,,,,,,,,,,,,,,,,,,,,,,,,,,,,189.65422140000737,190.05581849999726,190.0380032999965,190.13826560000598,190.5394754000008,None,left,1,0.5078788999962853,190.5394754000008,None,190.0380032999965,190.13826560000598,190.13826560000598,None,191.07271639999817,None,,,,,,,11044,001,2024_Mar_24_1017,ANT,2021.2.3,59.9147532851025,
1,24,spatial,down,IC,R,,,,,,Block.xlsx,"你已经完成了第一个实验区组

请稍作休息


点击空格键进入下一个区组。",-1.5,0,-1.5,right,LLRLL.png,,,,,0,0,0,0,2,5,53,23,,,,,,,,,,,,,,,,,,,,,,,,,,,,,,,,,,,,,,,,,,,,,,,,,,,,,,,,,,,,,,,,191.47373690000677,191.8741302999988,191.85874599999806,191.97428209999634,192.35933160000423,None,right,1,0.4245405999972718,192.35933160000423,None,191.85874599999806,191.97428209999634,191.95873630000278,None,192.80880440000328,None,,,,,,,11044,001,2024_Mar_24_1017,ANT,2021.2.3,59.9147532851025,
1,5,no,down,C,L,,,,,,Block.xlsx,"你已经完成了第一个实验区组

请稍作休息


点击空格键进入下一个区组。",50,0,-1.5,left,LLLLL.png,,,,,0,0,0,0,2,6,54,4,,,,,,,,,,,,,,,,,,,,,,,,,,,,,,,,,,,,,,,,,,,,,,,,,,,,,,,,,,,,,,,,193.20997779999743,193.61014440000872,193.5944571,193.71023910000804,194.09423220000463,None,left,1,0.4255648999969708,194.09423220000463,None,193.5944571,193.71023910000804,193.69352190000063,None,194.5447690000001,None,,,,,,,11044,001,2024_Mar_24_1017,ANT,2021.2.3,59.9147532851025,
1,23,spatial,down,IC,L,,,,,,Block.xlsx,"你已经完成了第一个实验区组

请稍作休息


点击空格键进入下一个区组。",-1.5,0,-1.5,left,RRLRR.png,,,,,0,0,0,0,2,7,55,22,,,,,,,,,,,,,,,,,,,,,,,,,,,,,,,,,,,,,,,,,,,,,,,,,,,,,,,,,,,,,,,,194.9453729000088,195.34671369999705,195.32916130000376,195.43168470000091,195.8302221000049,None,left,1,0.5296904000133509,195.8302221000049,None,195.32916130000376,195.43168470000091,195.43168470000091,None,196.3809312000085,None,,,,,,,11044,001,2024_Mar_24_1017,ANT,2021.2.3,59.9147532851025,
1,12,center,up,IC,R,,,,,,Block.xlsx,"你已经完成了第一个实验区组

请稍作休息


点击空格键进入下一个区组。",0,50,1.5,right,LLRLL.png,,,,,0,0,0,0,2,8,56,11,,,,,,,,,,,,,,,,,,,,,,,,,,,,,,,,,,,,,,,,,,,,,,,,,,,,,,,,,,,,,,,,196.78138939999917,197.1824975000054,197.1654550000094,197.2663273000071,197.66611370000464,None,right,1,0.6143396999977995,197.66611370000464,None,197.1654550000094,197.2663273000071,197.2663273000071,None,198.30037230000016,None,,,,,,,11044,001,2024_Mar_24_1017,ANT,2021.2.3,59.9147532851025,
1,23,spatial,down,IC,L,,,,,,Block.xlsx,"你已经完成了第一个实验区组

请稍作休息


点击空格键进入下一个区组。",-1.5,0,-1.5,left,RRLRR.png,,,,,0,0,0,0,2,9,57,22,,,,,,,,,,,,,,,,,,,,,,,,,,,,,,,,,,,,,,,,,,,,,,,,,,,,,,,,,,,,,,,,198.70105200000398,199.10194449999835,199.0851801000099,199.18532520000008,199.58584990000236,None,left,1,0.4379140999953961,199.58584990000236,None,199.0851801000099,199.18532520000008,199.18532520000008,None,200.05307340000581,None,,,,,,,11044,001,2024_Mar_24_1017,ANT,2021.2.3,59.9147532851025,
1,22,spatial,down,C,R,,,,,,Block.xlsx,"你已经完成了第一个实验区组

请稍作休息


点击空格键进入下一个区组。",-1.5,0,-1.5,right,RRRRR.png,,,,,0,0,0,0,2,10,58,21,,,,,,,,,,,,,,,,,,,,,,,,,,,,,,,,,,,,,,,,,,,,,,,,,,,,,,,,,,,,,,,,200.45378379999602,200.85571580000396,200.8375112000067,200.93798820000666,201.33966890000738,None,right,1,0.42816889999085106,201.33966890000738,None,200.8375112000067,200.93798820000666,200.93798820000666,None,201.78900879999856,None,,,,,,,11044,001,2024_Mar_24_1017,ANT,2021.2.3,59.9147532851025,
1,12,center,up,IC,R,,,,,,Block.xlsx,"你已经完成了第一个实验区组

请稍作休息


点击空格键进入下一个区组。",0,50,1.5,right,LLRLL.png,,,,,0,0,0,0,2,11,59,11,,,,,,,,,,,,,,,,,,,,,,,,,,,,,,,,,,,,,,,,,,,,,,,,,,,,,,,,,,,,,,,,202.1897683999996,202.5918856000062,202.57382679999864,202.67371640000783,203.074466200007,None,right,1,0.5896217999979854,203.074466200007,None,202.57382679999864,202.67371640000783,202.67371640000783,None,203.69188870000653,None,,,,,,,11044,001,2024_Mar_24_1017,ANT,2021.2.3,59.9147532851025,
1,19,spatial,up,IC,L,,,,,,Block.xlsx,"你已经完成了第一个实验区组

请稍作休息


点击空格键进入下一个区组。",1.5,0,1.5,left,RRLRR.png,,,,,0,0,0,0,2,12,60,18,,,,,,,,,,,,,,,,,,,,,,,,,,,,,,,,,,,,,,,,,,,,,,,,,,,,,,,,,,,,,,,,204.092670500002,204.49322699999902,204.47712769999634,204.5772536000004,204.97738399999798,None,left,1,0.5025825000047917,204.97738399999798,None,204.47712769999634,204.5772536000004,204.5772536000004,None,205.51148870000907,None,,,,,,,11044,001,2024_Mar_24_1017,ANT,2021.2.3,59.9147532851025,
1,7,no,down,IC,L,,,,,,Block.xlsx,"你已经完成了第一个实验区组

请稍作休息


点击空格键进入下一个区组。",50,0,-1.5,left,RRLRR.png,,,,,0,0,0,0,2,13,61,6,,,,,,,,,,,,,,,,,,,,,,,,,,,,,,,,,,,,,,,,,,,,,,,,,,,,,,,,,,,,,,,,205.91205349999655,206.3141059000045,206.29574380000122,206.39684060000582,206.79676120000659,None,left,1,0.699130699998932,206.79676120000659,None,206.29574380000122,206.39684060000582,206.39684060000582,None,207.51441360000172,None,,,,,,,11044,001,2024_Mar_24_1017,ANT,2021.2.3,59.9147532851025,
1,3,no,up,IC,L,,,,,,Block.xlsx,"你已经完成了第一个实验区组

请稍作休息


点击空格键进入下一个区组。",50,0,1.5,left,RRLRR.png,,,,,0,0,0,0,2,14,62,2,,,,,,,,,,,,,,,,,,,,,,,,,,,,,,,,,,,,,,,,,,,,,,,,,,,,,,,,,,,,,,,,207.91515440000512,208.31738120000227,208.29878060000192,208.40013270000054,208.79962839999644,None,left,1,0.5604929999972228,208.79962839999644,None,208.29878060000192,208.40013270000054,208.40013270000054,None,209.38397710000572,None,,,,,,,11044,001,2024_Mar_24_1017,ANT,2021.2.3,59.9147532851025,
1,6,no,down,C,R,,,,,,Block.xlsx,"你已经完成了第一个实验区组

请稍作休息


点击空格键进入下一个区组。",50,0,-1.5,right,RRRRR.png,,,,,0,0,0,0,2,15,63,5,,,,,,,,,,,,,,,,,,,,,,,,,,,,,,,,,,,,,,,,,,,,,,,,,,,,,,,,,,,,,,,,209.7845975000091,210.18634100000781,210.16827490000287,210.26975150000362,210.67049440000847,None,right,1,0.5457170000008773,210.67049440000847,None,210.16827490000287,210.26975150000362,210.26975150000362,None,211.23675360000925,None,,,,,,,11044,001,2024_Mar_24_1017,ANT,2021.2.3,59.9147532851025,
1,23,spatial,down,IC,L,,,,,,Block.xlsx,"你已经完成了第一个实验区组

请稍作休息


点击空格键进入下一个区组。",-1.5,0,-1.5,left,RRLRR.png,,,,,0,0,0,0,2,16,64,22,,,,,,,,,,,,,,,,,,,,,,,,,,,,,,,,,,,,,,,,,,,,,,,,,,,,,,,,,,,,,,,,211.63725080000586,212.03913050000847,212.02139629999874,212.12202350000734,212.52220459999808,None,left,1,0.5420034999988275,212.52220459999808,None,212.02139629999874,212.12202350000734,212.12202350000734,None,213.0894849000033,None,,,,,,,11044,001,2024_Mar_24_1017,ANT,2021.2.3,59.9147532851025,
1,18,spatial,up,C,R,,,,,,Block.xlsx,"你已经完成了第一个实验区组

请稍作休息


点击空格键进入下一个区组。",1.5,0,1.5,right,RRRRR.png,,,,,0,0,0,0,2,17,65,17,,,,,,,,,,,,,,,,,,,,,,,,,,,,,,,,,,,,,,,,,,,,,,,,,,,,,,,,,,,,,,,,213.4900084999972,213.89197969999805,213.87392520000867,213.97504140000092,214.37617519999912,None,right,1,0.432561399997212,214.37617519999912,None,213.87392520000867,213.97504140000092,213.97504140000092,None,214.8257297000091,None,,,,,,,11044,001,2024_Mar_24_1017,ANT,2021.2.3,59.9147532851025,
1,1,no,up,C,L,,,,,,Block.xlsx,"你已经完成了第一个实验区组

请稍作休息


点击空格键进入下一个区组。",50,0,1.5,left,LLLLL.png,,,,,0,0,0,0,2,18,66,0,,,,,,,,,,,,,,,,,,,,,,,,,,,,,,,,,,,,,,,,,,,,,,,,,,,,,,,,,,,,,,,,215.22621590000927,215.62684140000783,215.61010580000584,215.71111910000036,216.1107517000055,None,left,1,0.3936202000040794,216.1107517000055,None,215.61010580000584,215.71111910000036,215.71111910000036,None,216.52807840000605,None,,,,,,,11044,001,2024_Mar_24_1017,ANT,2021.2.3,59.9147532851025,
1,15,center,down,IC,L,,,,,,Block.xlsx,"你已经完成了第一个实验区组

请稍作休息


点击空格键进入下一个区组。",0,50,-1.5,left,RRLRR.png,,,,,0,0,0,0,2,19,67,14,,,,,,,,,,,,,,,,,,,,,,,,,,,,,,,,,,,,,,,,,,,,,,,,,,,,,,,,,,,,,,,,216.92876629999955,217.3291823000036,217.31247200000507,217.41313570000057,217.813459099998,None,left,1,0.6192668000003323,217.813459099998,None,217.31247200000507,217.41313570000057,217.41313570000057,None,218.44747880000796,None,,,,,,,11044,001,2024_Mar_24_1017,ANT,2021.2.3,59.9147532851025,
1,22,spatial,down,C,R,,,,,,Block.xlsx,"你已经完成了第一个实验区组

请稍作休息


点击空格键进入下一个区组。",-1.5,0,-1.5,right,RRRRR.png,,,,,0,0,0,0,2,20,68,21,,,,,,,,,,,,,,,,,,,,,,,,,,,,,,,,,,,,,,,,,,,,,,,,,,,,,,,,,,,,,,,,218.8480744999979,219.249175200006,219.23267399999895,219.33397100000002,219.73290740000084,None,right,1,0.46748870000010356,219.73290740000084,None,219.23267399999895,219.33397100000002,219.33397100000002,None,220.21842489999835,None,,,,,,,11044,001,2024_Mar_24_1017,ANT,2021.2.3,59.9147532851025,
1,7,no,down,IC,L,,,,,,Block.xlsx,"你已经完成了第一个实验区组

请稍作休息


点击空格键进入下一个区组。",50,0,-1.5,left,RRLRR.png,,,,,0,0,0,0,2,21,69,6,,,,,,,,,,,,,,,,,,,,,,,,,,,,,,,,,,,,,,,,,,,,,,,,,,,,,,,,,,,,,,,,220.61738550000882,221.0181256000069,221.00256900000386,221.10182100000384,221.50305939999816,None,left,1,0.5614545999997063,221.50305939999816,None,221.00256900000386,221.10182100000384,221.10182100000384,None,222.08629449999717,None,,,,,,,11044,001,2024_Mar_24_1017,ANT,2021.2.3,59.9147532851025,
1,3,no,up,IC,L,,,,,,Block.xlsx,"你已经完成了第一个实验区组

请稍作休息


点击空格键进入下一个区组。",50,0,1.5,left,RRLRR.png,,,,,0,0,0,0,2,22,70,2,,,,,,,,,,,,,,,,,,,,,,,,,,,,,,,,,,,,,,,,,,,,,,,,,,,,,,,,,,,,,,,,222.48689519999607,222.88785769999959,222.8719126000069,222.97218630000134,223.37287020000804,None,None,0,,223.37287020000804,None,222.8719126000069,222.97218630000134,222.97218630000134,None,225.07452690000355,None,,,,,,,11044,001,2024_Mar_24_1017,ANT,2021.2.3,59.9147532851025,
1,16,center,down,IC,R,,,,,,Block.xlsx,"你已经完成了第一个实验区组

请稍作休息


点击空格键进入下一个区组。",0,50,-1.5,right,LLRLL.png,,,,,0,0,0,0,2,23,71,15,,,,,,,,,,,,,,,,,,,,,,,,,,,,,,,,,,,,,,,,,,,,,,,,,,,,,,,,,,,,,,,,225.4749448000075,225.8756049000076,225.85877079999773,225.95905020000646,226.35987100000784,None,right,1,0.6567056999920169,226.35987100000784,None,225.85877079999773,225.95905020000646,225.95905020000646,None,227.04370049999852,None,,,,,,,11044,001,2024_Mar_24_1017,ANT,2021.2.3,59.9147532851025,
1,22,spatial,down,C,R,,,,,,Block.xlsx,"你已经完成了第一个实验区组

请稍作休息


点击空格键进入下一个区组。",-1.5,0,-1.5,right,RRRRR.png,,,,,0,0,0,0,3,0,72,21,,,,,,,,,,,,,,,,,,,,,,,,,,,,,,,,,,,,,,,,,,,,,,,,,,,,,,,,,,,,,,,,227.44474760000594,227.84520579999662,227.8284086000058,227.92934020000394,228.32900510000763,None,right,1,0.4077114999963669,228.32900510000763,None,227.8284086000058,227.92934020000394,227.92934020000394,None,228.7631706000102,None,,,,,,,11044,001,2024_Mar_24_1017,ANT,2021.2.3,59.9147532851025,
1,22,spatial,down,C,R,,,,,,Block.xlsx,"你已经完成了第一个实验区组

请稍作休息


点击空格键进入下一个区组。",-1.5,0,-1.5,right,RRRRR.png,,,,,0,0,0,0,3,1,73,21,,,,,,,,,,,,,,,,,,,,,,,,,,,,,,,,,,,,,,,,,,,,,,,,,,,,,,,,,,,,,,,,229.16482990000804,229.5663968000008,229.547856899997,229.64796889999707,230.04856769999606,None,right,1,0.431948099998408,230.04856769999606,None,229.547856899997,229.64796889999707,229.64796889999707,None,230.4989806000085,None,,,,,,,11044,001,2024_Mar_24_1017,ANT,2021.2.3,59.9147532851025,
1,12,center,up,IC,R,,,,,,Block.xlsx,"你已经完成了第一个实验区组

请稍作休息


点击空格键进入下一个区组。",0,50,1.5,right,LLRLL.png,,,,,0,0,0,0,3,2,74,11,,,,,,,,,,,,,,,,,,,,,,,,,,,,,,,,,,,,,,,,,,,,,,,,,,,,,,,,,,,,,,,,230.90004049999698,231.30034729999898,231.28495929999917,231.38412250000692,231.78446059999987,None,right,1,0.672267500005546,231.78446059999987,None,231.28495929999917,231.38412250000692,231.38412250000692,None,232.4855940999987,None,,,,,,,11044,001,2024_Mar_24_1017,ANT,2021.2.3,59.9147532851025,
1,1,no,up,C,L,,,,,,Block.xlsx,"你已经完成了第一个实验区组

请稍作休息


点击空格键进入下一个区组。",50,0,1.5,left,LLLLL.png,,,,,0,0,0,0,3,3,75,0,,,,,,,,,,,,,,,,,,,,,,,,,,,,,,,,,,,,,,,,,,,,,,,,,,,,,,,,,,,,,,,,232.88602780000656,233.28656310000224,233.27109920000657,233.3702317999996,233.7707536000089,None,left,1,0.5260520000010729,233.7707536000089,None,233.27109920000657,233.3702317999996,233.3702317999996,None,234.32132909999928,None,,,,,,,11044,001,2024_Mar_24_1017,ANT,2021.2.3,59.9147532851025,
1,6,no,down,C,R,,,,,,Block.xlsx,"你已经完成了第一个实验区组

请稍作休息


点击空格键进入下一个区组。",50,0,-1.5,right,RRRRR.png,,,,,0,0,0,0,3,4,76,5,,,,,,,,,,,,,,,,,,,,,,,,,,,,,,,,,,,,,,,,,,,,,,,,,,,,,,,,,,,,,,,,234.7220459000091,235.12411730000167,235.10608939999656,235.20636250000098,235.6078017999971,None,right,1,0.5451772000087658,235.6078017999971,None,235.10608939999656,235.20636250000098,235.20636250000098,None,236.174460299997,None,,,,,,,11044,001,2024_Mar_24_1017,ANT,2021.2.3,59.9147532851025,
1,4,no,up,IC,R,,,,,,Block.xlsx,"你已经完成了第一个实验区组

请稍作休息


点击空格键进入下一个区组。",50,0,1.5,right,LLRLL.png,,,,,0,0,0,0,3,5,77,3,,,,,,,,,,,,,,,,,,,,,,,,,,,,,,,,,,,,,,,,,,,,,,,,,,,,,,,,,,,,,,,,236.57488700000977,236.97554189999937,236.95914520000224,237.0594054999965,237.46048829999927,None,right,1,0.5166074000007939,237.46048829999927,None,236.95914520000224,237.0594054999965,237.0594054999965,None,237.99380750001,None,,,,,,,11044,001,2024_Mar_24_1017,ANT,2021.2.3,59.9147532851025,
1,15,center,down,IC,L,,,,,,Block.xlsx,"你已经完成了第一个实验区组

请稍作休息


点击空格键进入下一个区组。",0,50,-1.5,left,RRLRR.png,,,,,0,0,0,0,3,6,78,14,,,,,,,,,,,,,,,,,,,,,,,,,,,,,,,,,,,,,,,,,,,,,,,,,,,,,,,,,,,,,,,,238.39412620000076,238.79511479999928,238.779515000002,238.87844570000016,239.28082860000723,None,left,1,0.5922619999910239,239.28082860000723,None,238.779515000002,238.87844570000016,238.87844570000016,None,239.89664150000317,None,,,,,,,11044,001,2024_Mar_24_1017,ANT,2021.2.3,59.9147532851025,
1,16,center,down,IC,R,,,,,,Block.xlsx,"你已经完成了第一个实验区组

请稍作休息


点击空格键进入下一个区组。",0,50,-1.5,right,LLRLL.png,,,,,0,0,0,0,3,7,79,15,,,,,,,,,,,,,,,,,,,,,,,,,,,,,,,,,,,,,,,,,,,,,,,,,,,,,,,,,,,,,,,,240.29722000000766,240.69786510000995,240.68251460000465,240.78231300000334,241.18235800000548,None,right,1,0.5545190999982879,241.18235800000548,None,240.68251460000465,240.78231300000334,240.78231300000334,None,241.76614150000387,None,,,,,,,11044,001,2024_Mar_24_1017,ANT,2021.2.3,59.9147532851025,
1,6,no,down,C,R,,,,,,Block.xlsx,"你已经完成了第一个实验区组

请稍作休息


点击空格键进入下一个区组。",50,0,-1.5,right,RRRRR.png,,,,,0,0,0,0,3,8,80,5,,,,,,,,,,,,,,,,,,,,,,,,,,,,,,,,,,,,,,,,,,,,,,,,,,,,,,,,,,,,,,,,242.16709640000772,242.56736519999686,242.5512688000017,242.65256940000108,243.05131039999833,None,right,1,0.5177185999928042,243.05131039999833,None,242.5512688000017,242.65256940000108,242.65256940000108,None,243.58550909999758,None,,,,,,,11044,001,2024_Mar_24_1017,ANT,2021.2.3,59.9147532851025,
1,19,spatial,up,IC,L,,,,,,Block.xlsx,"你已经完成了第一个实验区组

请稍作休息


点击空格键进入下一个区组。",1.5,0,1.5,left,RRLRR.png,,,,,0,0,0,0,3,9,81,18,,,,,,,,,,,,,,,,,,,,,,,,,,,,,,,,,,,,,,,,,,,,,,,,,,,,,,,,,,,,,,,,243.9861249999958,244.38755919999676,244.37017170000763,244.47219490000862,244.87215190001007,None,left,1,0.4890126000100281,244.87215190001007,None,244.37017170000763,244.47219490000862,244.47219490000862,None,245.38833180000074,None,,,,,,,11044,001,2024_Mar_24_1017,ANT,2021.2.3,59.9147532851025,
1,3,no,up,IC,L,,,,,,Block.xlsx,"你已经完成了第一个实验区组

请稍作休息


点击空格键进入下一个区组。",50,0,1.5,left,RRLRR.png,,,,,0,0,0,0,3,10,82,2,,,,,,,,,,,,,,,,,,,,,,,,,,,,,,,,,,,,,,,,,,,,,,,,,,,,,,,,,,,,,,,,245.78903759999957,246.18957129999762,246.17596069999854,246.2905383000034,246.6734359999973,None,left,1,0.4715713999903528,246.6734359999973,None,246.17596069999854,246.2905383000034,246.27405870000075,None,247.1743623000075,None,,,,,,,11044,001,2024_Mar_24_1017,ANT,2021.2.3,59.9147532851025,
1,17,spatial,up,C,L,,,,,,Block.xlsx,"你已经完成了第一个实验区组

请稍作休息


点击空格键进入下一个区组。",1.5,0,1.5,left,LLLLL.png,,,,,0,0,0,0,3,11,83,16,,,,,,,,,,,,,,,,,,,,,,,,,,,,,,,,,,,,,,,,,,,,,,,,,,,,,,,,,,,,,,,,247.57497349999903,247.97672829999647,247.95869620000303,248.05966149999585,248.45962280000094,None,left,1,0.42983549999189563,248.45962280000094,None,247.95869620000303,248.05966149999585,248.05966149999585,None,248.91038719999779,None,,,,,,,11044,001,2024_Mar_24_1017,ANT,2021.2.3,59.9147532851025,
1,14,center,down,C,R,,,,,,Block.xlsx,"你已经完成了第一个实验区组

请稍作休息


点击空格键进入下一个区组。",0,50,-1.5,right,RRRRR.png,,,,,0,0,0,0,3,12,84,13,,,,,,,,,,,,,,,,,,,,,,,,,,,,,,,,,,,,,,,,,,,,,,,,,,,,,,,,,,,,,,,,249.31087329999718,249.7115727000055,249.69546560000163,249.79486720000568,250.19668419999653,None,right,1,0.4926865000015823,250.19668419999653,None,249.69546560000163,249.79486720000568,249.79486720000568,None,250.71301110000059,None,,,,,,,11044,001,2024_Mar_24_1017,ANT,2021.2.3,59.9147532851025,
1,19,spatial,up,IC,L,,,,,,Block.xlsx,"你已经完成了第一个实验区组

请稍作休息


点击空格键进入下一个区组。",1.5,0,1.5,left,RRLRR.png,,,,,0,0,0,0,3,13,85,18,,,,,,,,,,,,,,,,,,,,,,,,,,,,,,,,,,,,,,,,,,,,,,,,,,,,,,,,,,,,,,,,251.11424160000752,251.51492040000448,251.49750589999894,251.59854279999854,251.99995320000744,None,left,1,0.3541364999982761,251.99995320000744,None,251.49750589999894,251.59854279999854,251.59854279999854,None,252.38205230000312,None,,,,,,,11044,001,2024_Mar_24_1017,ANT,2021.2.3,59.9147532851025,
1,11,center,up,IC,L,,,,,,Block.xlsx,"你已经完成了第一个实验区组

请稍作休息


点击空格键进入下一个区组。",0,50,1.5,left,RRLRR.png,,,,,0,0,0,0,3,14,86,10,,,,,,,,,,,,,,,,,,,,,,,,,,,,,,,,,,,,,,,,,,,,,,,,,,,,,,,,,,,,,,,,252.78269340000406,253.184614400001,253.16659059999802,253.26656840000942,253.66764810000313,None,left,1,0.36584990000119433,253.66764810000313,None,253.16659059999802,253.26656840000942,253.26656840000942,None,254.0513171000057,None,,,,,,,11044,001,2024_Mar_24_1017,ANT,2021.2.3,59.9147532851025,
1,3,no,up,IC,L,,,,,,Block.xlsx,"你已经完成了第一个实验区组

请稍作休息


点击空格键进入下一个区组。",50,0,1.5,left,RRLRR.png,,,,,0,0,0,0,3,15,87,2,,,,,,,,,,,,,,,,,,,,,,,,,,,,,,,,,,,,,,,,,,,,,,,,,,,,,,,,,,,,,,,,254.45193769999605,254.85455750000256,254.8360446000006,254.93700170000375,255.33828310000536,None,left,1,0.3194660000008298,255.33828310000536,None,254.8360446000006,254.93700170000375,254.93700170000375,None,255.68698739999672,None,,,,,,,11044,001,2024_Mar_24_1017,ANT,2021.2.3,59.9147532851025,
1,2,no,up,C,R,,,,,,Block.xlsx,"你已经完成了第一个实验区组

请稍作休息


点击空格键进入下一个区组。",50,0,1.5,right,RRRRR.png,,,,,0,0,0,0,3,16,88,1,,,,,,,,,,,,,,,,,,,,,,,,,,,,,,,,,,,,,,,,,,,,,,,,,,,,,,,,,,,,,,,,256.087915600001,256.4882795000012,256.47382939999807,256.5893899000075,256.97269960000995,None,right,1,0.5169462000048952,256.97269960000995,None,256.47382939999807,256.5893899000075,256.57376090000616,None,257.5066361000063,None,,,,,,,11044,001,2024_Mar_24_1017,ANT,2021.2.3,59.9147532851025,
1,24,spatial,down,IC,R,,,,,,Block.xlsx,"你已经完成了第一个实验区组

请稍作休息


点击空格键进入下一个区组。",-1.5,0,-1.5,right,LLRLL.png,,,,,0,0,0,0,3,17,89,23,,,,,,,,,,,,,,,,,,,,,,,,,,,,,,,,,,,,,,,,,,,,,,,,,,,,,,,,,,,,,,,,257.9070333999989,258.30858969999827,258.29112019999593,258.3909699000069,258.793159000008,None,right,1,0.4962589999922784,258.793159000008,None,258.29112019999593,258.3909699000069,258.3909699000069,None,259.30907860001025,None,,,,,,,11044,001,2024_Mar_24_1017,ANT,2021.2.3,59.9147532851025,
1,8,no,down,IC,R,,,,,,Block.xlsx,"你已经完成了第一个实验区组

请稍作休息


点击空格键进入下一个区组。",50,0,-1.5,right,LLRLL.png,,,,,0,0,0,0,3,18,90,7,,,,,,,,,,,,,,,,,,,,,,,,,,,,,,,,,,,,,,,,,,,,,,,,,,,,,,,,,,,,,,,,259.70962999999756,260.11044270001,260.09386600001017,260.1949719999975,260.5944877000002,None,right,1,0.3751447999966331,260.5944877000002,None,260.09386600001017,260.1949719999975,260.1949719999975,None,260.99542810001003,None,,,,,,,11044,001,2024_Mar_24_1017,ANT,2021.2.3,59.9147532851025,
1,14,center,down,C,R,,,,,,Block.xlsx,"你已经完成了第一个实验区组

请稍作休息


点击空格键进入下一个区组。",0,50,-1.5,right,RRRRR.png,,,,,0,0,0,0,3,19,91,13,,,,,,,,,,,,,,,,,,,,,,,,,,,,,,,,,,,,,,,,,,,,,,,,,,,,,,,,,,,,,,,,261.3970980000013,261.7963751000061,261.7808678000001,261.87983550000354,262.280451300001,None,right,1,0.43371829998795874,262.280451300001,None,261.7808678000001,261.87983550000354,261.87983550000354,None,262.7311824000062,None,,,,,,,11044,001,2024_Mar_24_1017,ANT,2021.2.3,59.9147532851025,
1,24,spatial,down,IC,R,,,,,,Block.xlsx,"你已经完成了第一个实验区组

请稍作休息


点击空格键进入下一个区组。",-1.5,0,-1.5,right,LLRLL.png,,,,,0,0,0,0,3,20,92,23,,,,,,,,,,,,,,,,,,,,,,,,,,,,,,,,,,,,,,,,,,,,,,,,,,,,,,,,,,,,,,,,263.1320263000089,263.5348246000067,263.51562590000685,263.6158269000007,264.01641379999637,None,right,1,0.3454326999926707,264.01641379999637,None,263.51562590000685,263.6158269000007,263.6158269000007,None,264.38364739999815,None,,,,,,,11044,001,2024_Mar_24_1017,ANT,2021.2.3,59.9147532851025,
1,5,no,down,C,L,,,,,,Block.xlsx,"你已经完成了第一个实验区组

请稍作休息


点击空格键进入下一个区组。",50,0,-1.5,left,LLLLL.png,,,,,0,0,0,0,3,21,93,4,,,,,,,,,,,,,,,,,,,,,,,,,,,,,,,,,,,,,,,,,,,,,,,,,,,,,,,,,,,,,,,,264.78408749999653,265.18479510000907,265.16807410000183,265.26881429999776,265.6696556000097,None,right,0,0.31685529999958817,265.6696556000097,None,265.16807410000183,265.26881429999776,265.26881429999776,None,266.0029361000052,None,,,,,,,11044,001,2024_Mar_24_1017,ANT,2021.2.3,59.9147532851025,
1,10,center,up,C,R,,,,,,Block.xlsx,"你已经完成了第一个实验区组

请稍作休息


点击空格键进入下一个区组。",0,50,1.5,right,RRRRR.png,,,,,0,0,0,0,3,22,94,9,,,,,,,,,,,,,,,,,,,,,,,,,,,,,,,,,,,,,,,,,,,,,,,,,,,,,,,,,,,,,,,,266.4033972000034,266.8047387999977,266.78721930000756,266.88917680000304,267.28985129999637,None,right,1,0.5119962000026135,267.28985129999637,None,266.78721930000756,266.88917680000304,266.88917680000304,None,267.8220064000052,None,,,,,,,11044,001,2024_Mar_24_1017,ANT,2021.2.3,59.9147532851025,
1,21,spatial,down,C,L,,,,,,Block.xlsx,"你已经完成了第一个实验区组

请稍作休息


点击空格键进入下一个区组。",-1.5,0,-1.5,left,LLLLL.png,,,,,0,0,0,0,3,23,95,20,,,,,,,,,,,,,,,,,,,,,,,,,,,,,,,,,,,,,,,,,,,,,,,,,,,,,,,,,,,,,,,,268.2228199000092,268.6236107000004,268.6077437000058,268.70674080000026,269.1073264000006,None,left,1,0.4626587000093423,269.1073264000006,None,268.6077437000058,268.70674080000026,268.70674080000026,None,269.5917083000095,None,,,,,,,11044,001,2024_Mar_24_1017,ANT,2021.2.3,59.9147532851025,
,,,,,,,,,,,Block.xlsx,"你已经完成了第一个实验区组

请稍作休息


点击空格键进入下一个区组。",,,,,,,,,,0,0,0,0,,,,,,,,,,,,,,,,,,,,,,,,,,,,,,,,,,,,,,,,,,,,,,,,,,,,,,,,,,,,,,,,,,,,,,,,,,,,,,,,,,,,,space,5.10447700000077,270.0096579000092,None,270.0096579000092,None,11044,001,2024_Mar_24_1017,ANT,2021.2.3,59.9147532851025,
1,3,no,up,IC,L,,,,,,Block.xlsx,"你已经完成了整个实验（三个区组）。

请报告实验者已完成实验

非常感谢，再见！",50,0,1.5,left,RRLRR.png,,,,,0,1,1,1,0,0,0,2,,,,,,,,,,,,,,,,,,,,,,,,,,,,,,,,,,,,,,,,,,,,,,,,,,,,,,,,,,,,,,,,275.14990730000136,275.5516721000022,275.533752000003,275.63391650000995,276.0358883000008,None,left,1,0.5825717999978224,276.0358883000008,None,275.533752000003,275.63391650000995,275.63391650000995,None,276.63554830000794,None,,,,,,,11044,001,2024_Mar_24_1017,ANT,2021.2.3,59.9147532851025,
1,19,spatial,up,IC,L,,,,,,Block.xlsx,"你已经完成了整个实验（三个区组）。

请报告实验者已完成实验

非常感谢，再见！",1.5,0,1.5,left,RRLRR.png,,,,,0,1,1,1,0,1,1,18,,,,,,,,,,,,,,,,,,,,,,,,,,,,,,,,,,,,,,,,,,,,,,,,,,,,,,,,,,,,,,,,277.0361083000025,277.43748459999915,277.41996640000434,277.5203582999966,277.92083000000275,None,left,1,0.6091840000008233,277.92083000000275,None,277.41996640000434,277.5203582999966,277.5203582999966,None,278.5550982999994,None,,,,,,,11044,001,2024_Mar_24_1017,ANT,2021.2.3,59.9147532851025,
1,10,center,up,C,R,,,,,,Block.xlsx,"你已经完成了整个实验（三个区组）。

请报告实验者已完成实验

非常感谢，再见！",0,50,1.5,right,RRRRR.png,,,,,0,1,1,1,0,2,2,9,,,,,,,,,,,,,,,,,,,,,,,,,,,,,,,,,,,,,,,,,,,,,,,,,,,,,,,,,,,,,,,,278.95549429999664,279.35743030000594,279.33931630000006,279.4405098999996,279.84033950000594,None,right,1,0.44158080000488553,279.84033950000594,None,279.33931630000006,279.4405098999996,279.4405098999996,None,280.3076226999983,None,,,,,,,11044,001,2024_Mar_24_1017,ANT,2021.2.3,59.9147532851025,
1,5,no,down,C,L,,,,,,Block.xlsx,"你已经完成了整个实验（三个区组）。

请报告实验者已完成实验

非常感谢，再见！",50,0,-1.5,left,LLLLL.png,,,,,0,1,1,1,0,3,3,4,,,,,,,,,,,,,,,,,,,,,,,,,,,,,,,,,,,,,,,,,,,,,,,,,,,,,,,,,,,,,,,,280.7082725000073,281.1097465000057,281.0921907000011,281.1922510000004,281.5930092000053,None,left,1,0.5452622000011615,281.5930092000053,None,281.0921907000011,281.1922510000004,281.1922510000004,None,282.1604672999965,None,,,,,,,11044,001,2024_Mar_24_1017,ANT,2021.2.3,59.9147532851025,
1,17,spatial,up,C,L,,,,,,Block.xlsx,"你已经完成了整个实验（三个区组）。

请报告实验者已完成实验

非常感谢，再见！",1.5,0,1.5,left,LLLLL.png,,,,,0,1,1,1,0,4,4,16,,,,,,,,,,,,,,,,,,,,,,,,,,,,,,,,,,,,,,,,,,,,,,,,,,,,,,,,,,,,,,,,282.56122669999604,282.9630599000084,282.94519100000616,283.04507469999953,283.44567080000706,None,left,1,0.44516260000818875,283.44567080000706,None,282.94519100000616,283.04507469999953,283.04507469999953,None,283.9130632000015,None,,,,,,,11044,001,2024_Mar_24_1017,ANT,2021.2.3,59.9147532851025,
1,23,spatial,down,IC,L,,,,,,Block.xlsx,"你已经完成了整个实验（三个区组）。

请报告实验者已完成实验

非常感谢，再见！",-1.5,0,-1.5,left,RRLRR.png,,,,,0,1,1,1,0,5,5,22,,,,,,,,,,,,,,,,,,,,,,,,,,,,,,,,,,,,,,,,,,,,,,,,,,,,,,,,,,,,,,,,284.31364590000885,284.7155741000024,284.69761230000586,284.7996859999985,285.19920560000173,None,left,1,0.5072165000019595,285.19920560000173,None,284.69761230000586,284.7996859999985,284.7996859999985,None,285.73243590000493,None,,,,,,,11044,001,2024_Mar_24_1017,ANT,2021.2.3,59.9147532851025,
1,21,spatial,down,C,L,,,,,,Block.xlsx,"你已经完成了整个实验（三个区组）。

请报告实验者已完成实验

非常感谢，再见！",-1.5,0,-1.5,left,LLLLL.png,,,,,0,1,1,1,0,6,6,20,,,,,,,,,,,,,,,,,,,,,,,,,,,,,,,,,,,,,,,,,,,,,,,,,,,,,,,,,,,,,,,,286.133290400001,286.53365720000875,286.51857320001,286.617390600004,287.01963560000877,None,left,1,0.4791672999999719,287.01963560000877,None,286.51857320001,286.617390600004,286.617390600004,None,287.51871990000654,None,,,,,,,11044,001,2024_Mar_24_1017,ANT,2021.2.3,59.9147532851025,
1,7,no,down,IC,L,,,,,,Block.xlsx,"你已经完成了整个实验（三个区组）。

请报告实验者已完成实验

非常感谢，再见！",50,0,-1.5,left,RRLRR.png,,,,,0,1,1,1,0,7,7,6,,,,,,,,,,,,,,,,,,,,,,,,,,,,,,,,,,,,,,,,,,,,,,,,,,,,,,,,,,,,,,,,287.9193260000029,288.3197118000098,288.3029114000092,288.4042257999972,288.8037949999998,None,left,1,0.5586015000008047,288.8037949999998,None,288.3029114000092,288.4042257999972,288.4042257999972,None,289.387817099996,None,,,,,,,11044,001,2024_Mar_24_1017,ANT,2021.2.3,59.9147532851025,
1,10,center,up,C,R,,,,,,Block.xlsx,"你已经完成了整个实验（三个区组）。

请报告实验者已完成实验

非常感谢，再见！",0,50,1.5,right,RRRRR.png,,,,,0,1,1,1,0,8,8,9,,,,,,,,,,,,,,,,,,,,,,,,,,,,,,,,,,,,,,,,,,,,,,,,,,,,,,,,,,,,,,,,289.788738800009,290.18922650000604,290.17432720000215,290.2728080000088,290.6731704999984,None,right,1,0.49744960000680294,290.6731704999984,None,290.17432720000215,290.2728080000088,290.2728080000088,None,291.1907618999976,None,,,,,,,11044,001,2024_Mar_24_1017,ANT,2021.2.3,59.9147532851025,
1,18,spatial,up,C,R,,,,,,Block.xlsx,"你已经完成了整个实验（三个区组）。

请报告实验者已完成实验

非常感谢，再见！",1.5,0,1.5,right,RRRRR.png,,,,,0,1,1,1,0,9,9,17,,,,,,,,,,,,,,,,,,,,,,,,,,,,,,,,,,,,,,,,,,,,,,,,,,,,,,,,,,,,,,,,291.59125779999886,291.9929652999999,291.9761750000034,292.0756132999959,292.4771901000058,None,right,1,0.3973191999975825,292.4771901000058,None,291.9761750000034,292.0756132999959,292.0756132999959,None,292.89326890000666,None,,,,,,,11044,001,2024_Mar_24_1017,ANT,2021.2.3,59.9147532851025,
1,12,center,up,IC,R,,,,,,Block.xlsx,"你已经完成了整个实验（三个区组）。

请报告实验者已完成实验

非常感谢，再见！",0,50,1.5,right,LLRLL.png,,,,,0,1,1,1,0,10,10,11,,,,,,,,,,,,,,,,,,,,,,,,,,,,,,,,,,,,,,,,,,,,,,,,,,,,,,,,,,,,,,,,293.2938831000065,293.69585260000895,293.6779755000025,293.7781424999994,294.178522400005,None,right,1,0.5121481000096537,294.178522400005,None,293.6779755000025,293.7781424999994,293.7781424999994,None,294.7125081999984,None,,,,,,,11044,001,2024_Mar_24_1017,ANT,2021.2.3,59.9147532851025,
1,19,spatial,up,IC,L,,,,,,Block.xlsx,"你已经完成了整个实验（三个区组）。

请报告实验者已完成实验

非常感谢，再见！",1.5,0,1.5,left,RRLRR.png,,,,,0,1,1,1,0,11,11,18,,,,,,,,,,,,,,,,,,,,,,,,,,,,,,,,,,,,,,,,,,,,,,,,,,,,,,,,,,,,,,,,295.1135049000004,295.5157906000095,295.4971924999991,295.59734020000906,295.9983295999991,None,left,1,0.4363471999968169,295.9983295999991,None,295.4971924999991,295.59734020000906,295.59734020000906,None,296.4659663000057,None,,,,,,,11044,001,2024_Mar_24_1017,ANT,2021.2.3,59.9147532851025,
1,17,spatial,up,C,L,,,,,,Block.xlsx,"你已经完成了整个实验（三个区组）。

请报告实验者已完成实验

非常感谢，再见！",1.5,0,1.5,left,LLLLL.png,,,,,0,1,1,1,0,12,12,16,,,,,,,,,,,,,,,,,,,,,,,,,,,,,,,,,,,,,,,,,,,,,,,,,,,,,,,,,,,,,,,,296.8660541999998,297.2679274999973,297.24994609999703,297.3505032999965,297.7506859999994,None,left,1,0.3883356000005733,297.7506859999994,None,297.24994609999703,297.3505032999965,297.3505032999965,None,298.16801490000216,None,,,,,,,11044,001,2024_Mar_24_1017,ANT,2021.2.3,59.9147532851025,
1,17,spatial,up,C,L,,,,,,Block.xlsx,"你已经完成了整个实验（三个区组）。

请报告实验者已完成实验

非常感谢，再见！",1.5,0,1.5,left,LLLLL.png,,,,,0,1,1,1,0,13,13,16,,,,,,,,,,,,,,,,,,,,,,,,,,,,,,,,,,,,,,,,,,,,,,,,,,,,,,,,,,,,,,,,298.56845500000054,298.97014469999704,298.9524151000078,299.0527087000082,299.4539517000085,None,left,1,0.34918699999980163,299.4539517000085,None,298.9524151000078,299.0527087000082,299.0527087000082,None,299.8208045000065,None,,,,,,,11044,001,2024_Mar_24_1017,ANT,2021.2.3,59.9147532851025,
1,10,center,up,C,R,,,,,,Block.xlsx,"你已经完成了整个实验（三个区组）。

请报告实验者已完成实验

非常感谢，再见！",0,50,1.5,right,RRRRR.png,,,,,0,1,1,1,0,14,14,9,,,,,,,,,,,,,,,,,,,,,,,,,,,,,,,,,,,,,,,,,,,,,,,,,,,,,,,,,,,,,,,,300.220979500009,300.6216956999997,300.60658970000804,300.70507830000133,301.1058212000062,None,right,1,0.4809492000058526,301.1058212000062,None,300.60658970000804,300.70507830000133,300.70507830000133,None,301.60659830000077,None,,,,,,,11044,001,2024_Mar_24_1017,ANT,2021.2.3,59.9147532851025,
1,24,spatial,down,IC,R,,,,,,Block.xlsx,"你已经完成了整个实验（三个区组）。

请报告实验者已完成实验

非常感谢，再见！",-1.5,0,-1.5,right,LLRLL.png,,,,,0,1,1,1,0,15,15,23,,,,,,,,,,,,,,,,,,,,,,,,,,,,,,,,,,,,,,,,,,,,,,,,,,,,,,,,,,,,,,,,302.00707550000516,302.4088888999977,302.3912328000006,302.492115800007,302.8918818000093,None,right,1,0.5829604999889852,302.8918818000093,None,302.3912328000006,302.492115800007,302.492115800007,None,303.4927250000037,None,,,,,,,11044,001,2024_Mar_24_1017,ANT,2021.2.3,59.9147532851025,
1,15,center,down,IC,L,,,,,,Block.xlsx,"你已经完成了整个实验（三个区组）。

请报告实验者已完成实验

非常感谢，再见！",0,50,-1.5,left,RRLRR.png,,,,,0,1,1,1,0,16,16,14,,,,,,,,,,,,,,,,,,,,,,,,,,,,,,,,,,,,,,,,,,,,,,,,,,,,,,,,,,,,,,,,303.89370970000164,304.2951783000026,304.27703969999857,304.3774493000092,304.7779741999984,None,left,1,0.5849398000136716,304.7779741999984,None,304.27703969999857,304.3774493000092,304.3774493000092,None,305.37871319999977,None,,,,,,,11044,001,2024_Mar_24_1017,ANT,2021.2.3,59.9147532851025,
1,6,no,down,C,R,,,,,,Block.xlsx,"你已经完成了整个实验（三个区组）。

请报告实验者已完成实验

非常感谢，再见！",50,0,-1.5,right,RRRRR.png,,,,,0,1,1,1,0,17,17,5,,,,,,,,,,,,,,,,,,,,,,,,,,,,,,,,,,,,,,,,,,,,,,,,,,,,,,,,,,,,,,,,305.7794273000036,306.18006280000554,306.163306500006,306.2639252000081,306.6642164000077,None,right,1,0.6105672999983653,306.6642164000077,None,306.163306500006,306.2639252000081,306.2639252000081,None,307.2984041000018,None,,,,,,,11044,001,2024_Mar_24_1017,ANT,2021.2.3,59.9147532851025,
1,21,spatial,down,C,L,,,,,,Block.xlsx,"你已经完成了整个实验（三个区组）。

请报告实验者已完成实验

非常感谢，再见！",-1.5,0,-1.5,left,LLLLL.png,,,,,0,1,1,1,0,18,18,20,,,,,,,,,,,,,,,,,,,,,,,,,,,,,,,,,,,,,,,,,,,,,,,,,,,,,,,,,,,,,,,,307.6990067000006,308.10027130000526,308.0839657000033,308.1832760999969,308.58363649999956,None,left,1,0.4274454999977024,308.58363649999956,None,308.0839657000033,308.1832760999969,308.1832760999969,None,309.0343157000025,None,,,,,,,11044,001,2024_Mar_24_1017,ANT,2021.2.3,59.9147532851025,
1,1,no,up,C,L,,,,,,Block.xlsx,"你已经完成了整个实验（三个区组）。

请报告实验者已完成实验

非常感谢，再见！",50,0,1.5,left,LLLLL.png,,,,,0,1,1,1,0,19,19,0,,,,,,,,,,,,,,,,,,,,,,,,,,,,,,,,,,,,,,,,,,,,,,,,,,,,,,,,,,,,,,,,309.43507130000216,309.8360648000089,309.8190209000022,309.9201075000019,310.3208799999993,None,left,1,0.6663353000039933,310.3208799999993,None,309.8190209000022,309.9201075000019,309.9201075000019,None,311.0039792000025,None,,,,,,,11044,001,2024_Mar_24_1017,ANT,2021.2.3,59.9147532851025,
1,6,no,down,C,R,,,,,,Block.xlsx,"你已经完成了整个实验（三个区组）。

请报告实验者已完成实验

非常感谢，再见！",50,0,-1.5,right,RRRRR.png,,,,,0,1,1,1,0,20,20,5,,,,,,,,,,,,,,,,,,,,,,,,,,,,,,,,,,,,,,,,,,,,,,,,,,,,,,,,,,,,,,,,311.40437669999665,311.8059520999959,311.78850070000044,311.88920980000694,312.29028060000564,None,right,1,0.5450939000002109,312.29028060000564,None,311.78850070000044,311.88920980000694,311.88920980000694,None,312.8565690999967,None,,,,,,,11044,001,2024_Mar_24_1017,ANT,2021.2.3,59.9147532851025,
1,20,spatial,up,IC,R,,,,,,Block.xlsx,"你已经完成了整个实验（三个区组）。

请报告实验者已完成实验

非常感谢，再见！",1.5,0,1.5,right,LLRLL.png,,,,,0,1,1,1,0,21,21,19,,,,,,,,,,,,,,,,,,,,,,,,,,,,,,,,,,,,,,,,,,,,,,,,,,,,,,,,,,,,,,,,313.25717340000847,313.65788520000933,313.64128789999813,313.74150600000576,314.1431183000095,None,right,1,0.5081356000009691,314.1431183000095,None,313.64128789999813,313.74150600000576,313.74150600000576,None,314.6762363000016,None,,,,,,,11044,001,2024_Mar_24_1017,ANT,2021.2.3,59.9147532851025,
1,12,center,up,IC,R,,,,,,Block.xlsx,"你已经完成了整个实验（三个区组）。

请报告实验者已完成实验

非常感谢，再见！",0,50,1.5,right,LLRLL.png,,,,,0,1,1,1,0,22,22,11,,,,,,,,,,,,,,,,,,,,,,,,,,,,,,,,,,,,,,,,,,,,,,,,,,,,,,,,,,,,,,,,315.0766753000062,315.4776922000019,315.4607346999983,315.5609217000019,315.96237340000516,None,right,1,0.496731399995042,315.96237340000516,None,315.4607346999983,315.5609217000019,315.5609217000019,None,316.4789688000019,None,,,,,,,11044,001,2024_Mar_24_1017,ANT,2021.2.3,59.9147532851025,
1,16,center,down,IC,R,,,,,,Block.xlsx,"你已经完成了整个实验（三个区组）。

请报告实验者已完成实验

非常感谢，再见！",0,50,-1.5,right,LLRLL.png,,,,,0,1,1,1,0,23,23,15,,,,,,,,,,,,,,,,,,,,,,,,,,,,,,,,,,,,,,,,,,,,,,,,,,,,,,,,,,,,,,,,316.87968589999946,317.2812898999982,317.2634281000064,317.3643427000061,317.7642976000061,None,right,1,0.6393832999892766,317.7642976000061,None,317.2634281000064,317.3643427000061,317.3643427000061,None,318.43186029999924,None,,,,,,,11044,001,2024_Mar_24_1017,ANT,2021.2.3,59.9147532851025,
1,7,no,down,IC,L,,,,,,Block.xlsx,"你已经完成了整个实验（三个区组）。

请报告实验者已完成实验

非常感谢，再见！",50,0,-1.5,left,RRLRR.png,,,,,0,1,1,1,1,0,24,6,,,,,,,,,,,,,,,,,,,,,,,,,,,,,,,,,,,,,,,,,,,,,,,,,,,,,,,,,,,,,,,,318.8326354000019,319.23385420000704,319.2164780000021,319.3167533000087,319.717115499996,None,left,1,0.7422517999948468,319.717115499996,None,319.2164780000021,319.3167533000087,319.3167533000087,None,320.48505860001023,None,,,,,,,11044,001,2024_Mar_24_1017,ANT,2021.2.3,59.9147532851025,
1,15,center,down,IC,L,,,,,,Block.xlsx,"你已经完成了整个实验（三个区组）。

请报告实验者已完成实验

非常感谢，再见！",0,50,-1.5,left,RRLRR.png,,,,,0,1,1,1,1,1,25,14,,,,,,,,,,,,,,,,,,,,,,,,,,,,,,,,,,,,,,,,,,,,,,,,,,,,,,,,,,,,,,,,320.8856728999963,321.2869759000023,321.26949720000266,321.37119380000513,321.7702954999986,None,left,1,0.5368580999929691,321.7702954999986,None,321.26949720000266,321.37119380000513,321.37119380000513,None,322.3376816000091,None,,,,,,,11044,001,2024_Mar_24_1017,ANT,2021.2.3,59.9147532851025,
1,22,spatial,down,C,R,,,,,,Block.xlsx,"你已经完成了整个实验（三个区组）。

请报告实验者已完成实验

非常感谢，再见！",-1.5,0,-1.5,right,RRRRR.png,,,,,0,1,1,1,1,2,26,21,,,,,,,,,,,,,,,,,,,,,,,,,,,,,,,,,,,,,,,,,,,,,,,,,,,,,,,,,,,,,,,,322.73850449999736,323.13902970000345,323.1237736000039,323.23955900000874,323.6236527000001,None,right,1,0.42778810000163503,323.6236527000001,None,323.1237736000039,323.23955900000874,323.2237671000039,None,324.07398529999773,None,,,,,,,11044,001,2024_Mar_24_1017,ANT,2021.2.3,59.9147532851025,
1,23,spatial,down,IC,L,,,,,,Block.xlsx,"你已经完成了整个实验（三个区组）。

请报告实验者已完成实验

非常感谢，再见！",-1.5,0,-1.5,left,RRLRR.png,,,,,0,1,1,1,1,3,27,22,,,,,,,,,,,,,,,,,,,,,,,,,,,,,,,,,,,,,,,,,,,,,,,,,,,,,,,,,,,,,,,,324.4743296000088,324.8753315000067,324.85841410000285,324.95846720000554,325.3596256000019,None,left,1,0.4998985999991419,325.3596256000019,None,324.85841410000285,324.95846720000554,324.95846720000554,None,325.87648390000686,None,,,,,,,11044,001,2024_Mar_24_1017,ANT,2021.2.3,59.9147532851025,
1,4,no,up,IC,R,,,,,,Block.xlsx,"你已经完成了整个实验（三个区组）。

请报告实验者已完成实验

非常感谢，再见！",50,0,1.5,right,LLRLL.png,,,,,0,1,1,1,1,4,28,3,,,,,,,,,,,,,,,,,,,,,,,,,,,,,,,,,,,,,,,,,,,,,,,,,,,,,,,,,,,,,,,,326.27694979999796,326.6780703999975,326.6608935999975,326.7611489999981,327.1617804999987,None,right,1,0.6340141000109725,327.1617804999987,None,326.6608935999975,326.7611489999981,326.7611489999981,None,327.812672,None,,,,,,,11044,001,2024_Mar_24_1017,ANT,2021.2.3,59.9147532851025,
1,15,center,down,IC,L,,,,,,Block.xlsx,"你已经完成了整个实验（三个区组）。

请报告实验者已完成实验

非常感谢，再见！",0,50,-1.5,left,RRLRR.png,,,,,0,1,1,1,1,5,29,14,,,,,,,,,,,,,,,,,,,,,,,,,,,,,,,,,,,,,,,,,,,,,,,,,,,,,,,,,,,,,,,,328.2133229000028,328.615034500006,328.597431400005,328.69722220000403,329.0981982000085,None,left,1,0.6172430000005988,329.0981982000085,None,328.597431400005,328.69722220000403,328.69722220000403,None,329.73244479999994,None,,,,,,,11044,001,2024_Mar_24_1017,ANT,2021.2.3,59.9147532851025,
1,2,no,up,C,R,,,,,,Block.xlsx,"你已经完成了整个实验（三个区组）。

请报告实验者已完成实验

非常感谢，再见！",50,0,1.5,right,RRRRR.png,,,,,0,1,1,1,1,6,30,1,,,,,,,,,,,,,,,,,,,,,,,,,,,,,,,,,,,,,,,,,,,,,,,,,,,,,,,,,,,,,,,,330.1327397999994,330.53352100000484,330.516950899997,330.61706020000565,331.01923700000043,None,right,1,0.5287047000019811,331.01923700000043,None,330.516950899997,330.61706020000565,330.61706020000565,None,331.56851209999877,None,,,,,,,11044,001,2024_Mar_24_1017,ANT,2021.2.3,59.9147532851025,
1,2,no,up,C,R,,,,,,Block.xlsx,"你已经完成了整个实验（三个区组）。

请报告实验者已完成实验

非常感谢，再见！",50,0,1.5,right,RRRRR.png,,,,,0,1,1,1,1,7,31,1,,,,,,,,,,,,,,,,,,,,,,,,,,,,,,,,,,,,,,,,,,,,,,,,,,,,,,,,,,,,,,,,331.96889750000264,332.37135359999957,332.3527724000014,332.4538167999999,332.85364090000803,None,right,1,0.5419224000070244,332.85364090000803,None,332.3527724000014,332.4538167999999,332.4538167999999,None,333.42109810000693,None,,,,,,,11044,001,2024_Mar_24_1017,ANT,2021.2.3,59.9147532851025,
1,5,no,down,C,L,,,,,,Block.xlsx,"你已经完成了整个实验（三个区组）。

请报告实验者已完成实验

非常感谢，再见！",50,0,-1.5,left,LLLLL.png,,,,,0,1,1,1,1,8,32,4,,,,,,,,,,,,,,,,,,,,,,,,,,,,,,,,,,,,,,,,,,,,,,,,,,,,,,,,,,,,,,,,333.82159800000954,334.22296830000414,334.2055535999971,334.3072519999987,334.70717870000226,None,left,1,0.6166605000034906,334.70717870000226,None,334.2055535999971,334.3072519999987,334.3072519999987,None,335.34095779999916,None,,,,,,,11044,001,2024_Mar_24_1017,ANT,2021.2.3,59.9147532851025,
1,3,no,up,IC,L,,,,,,Block.xlsx,"你已经完成了整个实验（三个区组）。

请报告实验者已完成实验

非常感谢，再见！",50,0,1.5,left,RRLRR.png,,,,,0,1,1,1,1,9,33,2,,,,,,,,,,,,,,,,,,,,,,,,,,,,,,,,,,,,,,,,,,,,,,,,,,,,,,,,,,,,,,,,335.74146469999687,336.1434567999968,336.1258250000101,336.22750000000815,336.62594470000477,None,left,1,0.6737523000047076,336.62594470000477,None,336.1258250000101,336.22750000000815,336.22750000000815,None,337.3272555000003,None,,,,,,,11044,001,2024_Mar_24_1017,ANT,2021.2.3,59.9147532851025,
1,13,center,down,C,L,,,,,,Block.xlsx,"你已经完成了整个实验（三个区组）。

请报告实验者已完成实验

非常感谢，再见！",0,50,-1.5,left,LLLLL.png,,,,,0,1,1,1,1,10,34,12,,,,,,,,,,,,,,,,,,,,,,,,,,,,,,,,,,,,,,,,,,,,,,,,,,,,,,,,,,,,,,,,337.72795210000186,338.1292078999977,338.11164099999587,338.2117413000087,338.61231759999646,None,left,1,0.5595538999914424,338.61231759999646,None,338.11164099999587,338.2117413000087,338.2117413000087,None,339.19657169999846,None,,,,,,,11044,001,2024_Mar_24_1017,ANT,2021.2.3,59.9147532851025,
1,11,center,up,IC,L,,,,,,Block.xlsx,"你已经完成了整个实验（三个区组）。

请报告实验者已完成实验

非常感谢，再见！",0,50,1.5,left,RRLRR.png,,,,,0,1,1,1,1,11,35,10,,,,,,,,,,,,,,,,,,,,,,,,,,,,,,,,,,,,,,,,,,,,,,,,,,,,,,,,,,,,,,,,339.5971835000091,339.99878150000586,339.9831501000008,340.08116250000603,340.4821757000027,None,left,1,0.5938649999879999,340.4821757000027,None,339.9831501000008,340.08116250000603,340.08116250000603,None,341.09944330000144,None,,,,,,,11044,001,2024_Mar_24_1017,ANT,2021.2.3,59.9147532851025,
1,14,center,down,C,R,,,,,,Block.xlsx,"你已经完成了整个实验（三个区组）。

请报告实验者已完成实验

非常感谢，再见！",0,50,-1.5,right,RRRRR.png,,,,,0,1,1,1,1,12,36,13,,,,,,,,,,,,,,,,,,,,,,,,,,,,,,,,,,,,,,,,,,,,,,,,,,,,,,,,,,,,,,,,341.49991150001006,341.9007866000029,341.88422950000677,341.98470180000004,342.38464250000834,None,right,1,0.5631331999902613,342.38464250000834,None,341.88422950000677,341.98470180000004,341.98470180000004,None,342.96882970001025,None,,,,,,,11044,001,2024_Mar_24_1017,ANT,2021.2.3,59.9147532851025,
1,20,spatial,up,IC,R,,,,,,Block.xlsx,"你已经完成了整个实验（三个区组）。

请报告实验者已完成实验

非常感谢，再见！",1.5,0,1.5,right,LLRLL.png,,,,,0,1,1,1,1,13,37,19,,,,,,,,,,,,,,,,,,,,,,,,,,,,,,,,,,,,,,,,,,,,,,,,,,,,,,,,,,,,,,,,343.3695016999991,343.7714119000011,343.75343939999584,343.8546459000063,344.2540125000087,None,right,1,0.44612060001236387,344.2540125000087,None,343.75343939999584,343.8546459000063,343.8546459000063,None,344.72155770000245,None,,,,,,,11044,001,2024_Mar_24_1017,ANT,2021.2.3,59.9147532851025,
1,10,center,up,C,R,,,,,,Block.xlsx,"你已经完成了整个实验（三个区组）。

请报告实验者已完成实验

非常感谢，再见！",0,50,1.5,right,RRRRR.png,,,,,0,1,1,1,1,14,38,9,,,,,,,,,,,,,,,,,,,,,,,,,,,,,,,,,,,,,,,,,,,,,,,,,,,,,,,,,,,,,,,,345.12227040001017,345.52271530000144,345.506612600002,345.6082713000069,346.0075457000057,None,right,1,0.41312649998872075,346.0075457000057,None,345.506612600002,345.6082713000069,345.6082713000069,None,346.4406706000009,None,,,,,,,11044,001,2024_Mar_24_1017,ANT,2021.2.3,59.9147532851025,
1,13,center,down,C,L,,,,,,Block.xlsx,"你已经完成了整个实验（三个区组）。

请报告实验者已完成实验

非常感谢，再见！",0,50,-1.5,left,LLLLL.png,,,,,0,1,1,1,1,15,39,12,,,,,,,,,,,,,,,,,,,,,,,,,,,,,,,,,,,,,,,,,,,,,,,,,,,,,,,,,,,,,,,,346.8413697000069,347.2420723999967,347.22713010000007,347.3425627999968,347.7280266000016,None,left,1,0.5881790999992518,347.7280266000016,None,347.22713010000007,347.3425627999968,347.32681710000907,None,348.34356160000607,None,,,,,,,11044,001,2024_Mar_24_1017,ANT,2021.2.3,59.9147532851025,
1,2,no,up,C,R,,,,,,Block.xlsx,"你已经完成了整个实验（三个区组）。

请报告实验者已完成实验

非常感谢，再见！",50,0,1.5,right,RRRRR.png,,,,,0,1,1,1,1,16,40,1,,,,,,,,,,,,,,,,,,,,,,,,,,,,,,,,,,,,,,,,,,,,,,,,,,,,,,,,,,,,,,,,348.74432470000465,349.1453091000003,349.12839820000227,349.2290934000048,349.62903569999617,None,right,1,0.49530480000248645,349.62903569999617,None,349.12839820000227,349.2290934000048,349.2290934000048,None,350.14625170000363,None,,,,,,,11044,001,2024_Mar_24_1017,ANT,2021.2.3,59.9147532851025,
1,22,spatial,down,C,R,,,,,,Block.xlsx,"你已经完成了整个实验（三个区组）。

请报告实验者已完成实验

非常感谢，再见！",-1.5,0,-1.5,right,RRRRR.png,,,,,0,1,1,1,1,17,41,21,,,,,,,,,,,,,,,,,,,,,,,,,,,,,,,,,,,,,,,,,,,,,,,,,,,,,,,,,,,,,,,,350.547218000007,350.9476943000045,350.9321096000058,351.0478581000061,351.43317810000735,None,right,1,0.42714270000578836,351.43317810000735,None,350.9321096000058,351.0478581000061,351.0309827000019,None,351.8823984000046,None,,,,,,,11044,001,2024_Mar_24_1017,ANT,2021.2.3,59.9147532851025,
1,24,spatial,down,IC,R,,,,,,Block.xlsx,"你已经完成了整个实验（三个区组）。

请报告实验者已完成实验

非常感谢，再见！",-1.5,0,-1.5,right,LLRLL.png,,,,,0,1,1,1,1,18,42,23,,,,,,,,,,,,,,,,,,,,,,,,,,,,,,,,,,,,,,,,,,,,,,,,,,,,,,,,,,,,,,,,352.2835434000008,352.6846668000071,352.6668442000082,352.7675469000096,353.16777870000806,None,right,1,0.45231730000523385,353.16777870000806,None,352.6668442000082,352.7675469000096,352.7675469000096,None,353.65167200000724,None,,,,,,,11044,001,2024_Mar_24_1017,ANT,2021.2.3,59.9147532851025,
1,12,center,up,IC,R,,,,,,Block.xlsx,"你已经完成了整个实验（三个区组）。

请报告实验者已完成实验

非常感谢，再见！",0,50,1.5,right,LLRLL.png,,,,,0,1,1,1,1,19,43,11,,,,,,,,,,,,,,,,,,,,,,,,,,,,,,,,,,,,,,,,,,,,,,,,,,,,,,,,,,,,,,,,354.05235959999845,354.45365540000785,354.4362644000066,354.5364552000101,354.9390413000074,None,right,1,0.5614789000101155,354.9390413000074,None,354.4362644000066,354.5364552000101,354.5364552000101,None,355.52149030000146,None,,,,,,,11044,001,2024_Mar_24_1017,ANT,2021.2.3,59.9147532851025,
1,19,spatial,up,IC,L,,,,,,Block.xlsx,"你已经完成了整个实验（三个区组）。

请报告实验者已完成实验

非常感谢，再见！",1.5,0,1.5,left,RRLRR.png,,,,,0,1,1,1,1,20,44,18,,,,,,,,,,,,,,,,,,,,,,,,,,,,,,,,,,,,,,,,,,,,,,,,,,,,,,,,,,,,,,,,355.9218585000053,356.3234478000086,356.30584070000623,356.40636220001034,356.80723520000174,None,left,1,0.5572143000026699,356.80723520000174,None,356.30584070000623,356.40636220001034,356.40636220001034,None,357.39035060000606,None,,,,,,,11044,001,2024_Mar_24_1017,ANT,2021.2.3,59.9147532851025,
1,24,spatial,down,IC,R,,,,,,Block.xlsx,"你已经完成了整个实验（三个区组）。

请报告实验者已完成实验

非常感谢，再见！",-1.5,0,-1.5,right,LLRLL.png,,,,,0,1,1,1,1,21,45,23,,,,,,,,,,,,,,,,,,,,,,,,,,,,,,,,,,,,,,,,,,,,,,,,,,,,,,,,,,,,,,,,357.79139870000654,358.19252110000525,358.175084100003,358.2755204999994,358.67617430000973,None,right,1,0.6723471000004793,358.67617430000973,None,358.175084100003,358.2755204999994,358.2755204999994,None,359.3770404999959,None,,,,,,,11044,001,2024_Mar_24_1017,ANT,2021.2.3,59.9147532851025,
1,16,center,down,IC,R,,,,,,Block.xlsx,"你已经完成了整个实验（三个区组）。

请报告实验者已完成实验

非常感谢，再见！",0,50,-1.5,right,LLRLL.png,,,,,0,1,1,1,1,22,46,15,,,,,,,,,,,,,,,,,,,,,,,,,,,,,,,,,,,,,,,,,,,,,,,,,,,,,,,,,,,,,,,,359.7776623999962,360.1785560999997,360.16171929999837,360.2623173000029,360.6622677999985,None,right,1,0.6862320000072941,360.6622677999985,None,360.16171929999837,360.2623173000029,360.2623173000029,None,361.3799704999983,None,,,,,,,11044,001,2024_Mar_24_1017,ANT,2021.2.3,59.9147532851025,
1,14,center,down,C,R,,,,,,Block.xlsx,"你已经完成了整个实验（三个区组）。

请报告实验者已完成实验

非常感谢，再见！",0,50,-1.5,right,RRRRR.png,,,,,0,1,1,1,1,23,47,13,,,,,,,,,,,,,,,,,,,,,,,,,,,,,,,,,,,,,,,,,,,,,,,,,,,,,,,,,,,,,,,,361.7807690000045,362.1814585000102,362.16540150000947,362.2653993999993,362.6652949999989,None,right,1,0.39531749999150634,362.6652949999989,None,362.16540150000947,362.2653993999993,362.2653993999993,None,363.0825660999981,None,,,,,,,11044,001,2024_Mar_24_1017,ANT,2021.2.3,59.9147532851025,
1,20,spatial,up,IC,R,,,,,,Block.xlsx,"你已经完成了整个实验（三个区组）。

请报告实验者已完成实验

非常感谢，再见！",1.5,0,1.5,right,LLRLL.png,,,,,0,1,1,1,2,0,48,19,,,,,,,,,,,,,,,,,,,,,,,,,,,,,,,,,,,,,,,,,,,,,,,,,,,,,,,,,,,,,,,,363.483301500004,363.8839311000047,363.86785700000473,363.9672936999996,364.36859769999865,None,right,1,0.5323442000080831,364.36859769999865,None,363.86785700000473,363.9672936999996,363.9672936999996,None,364.918657000002,None,,,,,,,11044,001,2024_Mar_24_1017,ANT,2021.2.3,59.9147532851025,
1,14,center,down,C,R,,,,,,Block.xlsx,"你已经完成了整个实验（三个区组）。

请报告实验者已完成实验

非常感谢，再见！",0,50,-1.5,right,RRRRR.png,,,,,0,1,1,1,2,1,49,13,,,,,,,,,,,,,,,,,,,,,,,,,,,,,,,,,,,,,,,,,,,,,,,,,,,,,,,,,,,,,,,,365.31972539999697,365.72153520000575,365.7031146000081,365.8034067999979,366.2048954000056,None,right,1,0.5680608999973629,366.2048954000056,None,365.7031146000081,365.8034067999979,365.8034067999979,None,366.788206600002,None,,,,,,,11044,001,2024_Mar_24_1017,ANT,2021.2.3,59.9147532851025,
1,3,no,up,IC,L,,,,,,Block.xlsx,"你已经完成了整个实验（三个区组）。

请报告实验者已完成实验

非常感谢，再见！",50,0,1.5,left,RRLRR.png,,,,,0,1,1,1,2,2,50,2,,,,,,,,,,,,,,,,,,,,,,,,,,,,,,,,,,,,,,,,,,,,,,,,,,,,,,,,,,,,,,,,367.1889155999961,367.5906687000097,367.57277969999996,367.67350469999656,368.0733562000096,None,left,1,0.5402466000086861,368.0733562000096,None,367.57277969999996,367.67350469999656,367.67350469999656,None,368.64132720000634,None,,,,,,,11044,001,2024_Mar_24_1017,ANT,2021.2.3,59.9147532851025,
1,8,no,down,IC,R,,,,,,Block.xlsx,"你已经完成了整个实验（三个区组）。

请报告实验者已完成实验

非常感谢，再见！",50,0,-1.5,right,LLRLL.png,,,,,0,1,1,1,2,3,51,7,,,,,,,,,,,,,,,,,,,,,,,,,,,,,,,,,,,,,,,,,,,,,,,,,,,,,,,,,,,,,,,,369.04159210000944,369.4438064999995,369.42544410000846,369.52700699999696,369.9262896,None,right,1,0.5910465999913868,369.9262896,None,369.42544410000846,369.52700699999696,369.52700699999696,None,370.54382000000624,None,,,,,,,11044,001,2024_Mar_24_1017,ANT,2021.2.3,59.9147532851025,
1,6,no,down,C,R,,,,,,Block.xlsx,"你已经完成了整个实验（三个区组）。

请报告实验者已完成实验

非常感谢，再见！",50,0,-1.5,right,RRRRR.png,,,,,0,1,1,1,2,4,52,5,,,,,,,,,,,,,,,,,,,,,,,,,,,,,,,,,,,,,,,,,,,,,,,,,,,,,,,,,,,,,,,,370.9446928999969,371.34644839999964,371.3284549000091,371.42851290000544,371.82906370000273,None,right,1,0.5999319000111427,371.82906370000273,None,371.3284549000091,371.42851290000544,371.42851290000544,None,372.4469359000068,None,,,,,,,11044,001,2024_Mar_24_1017,ANT,2021.2.3,59.9147532851025,
1,9,center,up,C,L,,,,,,Block.xlsx,"你已经完成了整个实验（三个区组）。

请报告实验者已完成实验

非常感谢，再见！",0,50,1.5,left,LLLLL.png,,,,,0,1,1,1,2,5,53,8,,,,,,,,,,,,,,,,,,,,,,,,,,,,,,,,,,,,,,,,,,,,,,,,,,,,,,,,,,,,,,,,372.8475691000058,373.24797070000204,373.23158170000534,373.3318109999964,373.7320389000088,None,left,1,0.48865260000457056,373.7320389000088,None,373.23158170000534,373.3318109999964,373.3318109999964,None,374.24960550000833,None,,,,,,,11044,001,2024_Mar_24_1017,ANT,2021.2.3,59.9147532851025,
1,8,no,down,IC,R,,,,,,Block.xlsx,"你已经完成了整个实验（三个区组）。

请报告实验者已完成实验

非常感谢，再见！",50,0,-1.5,right,LLRLL.png,,,,,0,1,1,1,2,6,54,7,,,,,,,,,,,,,,,,,,,,,,,,,,,,,,,,,,,,,,,,,,,,,,,,,,,,,,,,,,,,,,,,374.6501641000068,375.05116090000956,375.0353596000059,375.1514082000067,375.53547600000456,None,right,1,0.46969120000721887,375.53547600000456,None,375.0353596000059,375.1514082000067,375.1342571999994,None,376.0355705999973,None,,,,,,,11044,001,2024_Mar_24_1017,ANT,2021.2.3,59.9147532851025,
1,1,no,up,C,L,,,,,,Block.xlsx,"你已经完成了整个实验（三个区组）。

请报告实验者已完成实验

非常感谢，再见！",50,0,1.5,left,LLLLL.png,,,,,0,1,1,1,2,7,55,0,,,,,,,,,,,,,,,,,,,,,,,,,,,,,,,,,,,,,,,,,,,,,,,,,,,,,,,,,,,,,,,,376.4361609000043,376.8385428000038,376.82012800000666,376.9200625000085,377.32193079999706,None,left,1,0.44360079999023583,377.32193079999706,None,376.82012800000666,376.9200625000085,376.9200625000085,None,377.7881824000069,None,,,,,,,11044,001,2024_Mar_24_1017,ANT,2021.2.3,59.9147532851025,
1,18,spatial,up,C,R,,,,,,Block.xlsx,"你已经完成了整个实验（三个区组）。

请报告实验者已完成实验

非常感谢，再见！",1.5,0,1.5,right,RRRRR.png,,,,,0,1,1,1,2,8,56,17,,,,,,,,,,,,,,,,,,,,,,,,,,,,,,,,,,,,,,,,,,,,,,,,,,,,,,,,,,,,,,,,378.18872220000776,378.59066810000513,378.57273500000883,378.6729466999968,379.07415339999716,None,right,1,0.46701730000495445,379.07415339999716,None,378.57273500000883,378.6729466999968,378.6729466999968,None,379.55752070000744,None,,,,,,,11044,001,2024_Mar_24_1017,ANT,2021.2.3,59.9147532851025,
1,12,center,up,IC,R,,,,,,Block.xlsx,"你已经完成了整个实验（三个区组）。

请报告实验者已完成实验

非常感谢，再见！",0,50,1.5,right,LLRLL.png,,,,,0,1,1,1,2,9,57,11,,,,,,,,,,,,,,,,,,,,,,,,,,,,,,,,,,,,,,,,,,,,,,,,,,,,,,,,,,,,,,,,379.95808979999856,380.358630200004,380.3417652000062,380.4426833000034,380.8442584000004,None,right,1,0.4966952999966452,380.8442584000004,None,380.3417652000062,380.4426833000034,380.4426833000034,None,381.3604134000052,None,,,,,,,11044,001,2024_Mar_24_1017,ANT,2021.2.3,59.9147532851025,
1,18,spatial,up,C,R,,,,,,Block.xlsx,"你已经完成了整个实验（三个区组）。

请报告实验者已完成实验

非常感谢，再见！",1.5,0,1.5,right,RRRRR.png,,,,,0,1,1,1,2,10,58,17,,,,,,,,,,,,,,,,,,,,,,,,,,,,,,,,,,,,,,,,,,,,,,,,,,,,,,,,,,,,,,,,381.7608665000007,382.1615124000091,382.14475420000963,382.24495910000405,382.64624940000067,None,right,1,0.4069441000028746,382.64624940000067,None,382.14475420000963,382.24495910000405,382.24495910000405,None,383.0795594000083,None,,,,,,,11044,001,2024_Mar_24_1017,ANT,2021.2.3,59.9147532851025,
1,13,center,down,C,L,,,,,,Block.xlsx,"你已经完成了整个实验（三个区组）。

请报告实验者已完成实验

非常感谢，再见！",0,50,-1.5,left,LLLLL.png,,,,,0,1,1,1,2,11,59,12,,,,,,,,,,,,,,,,,,,,,,,,,,,,,,,,,,,,,,,,,,,,,,,,,,,,,,,,,,,,,,,,383.4800755000033,383.88197060000675,383.86390779999783,383.9640731999971,384.3655032000097,None,left,1,0.5757554000010714,384.3655032000097,None,383.86390779999783,383.9640731999971,383.9640731999971,None,384.96554930000275,None,,,,,,,11044,001,2024_Mar_24_1017,ANT,2021.2.3,59.9147532851025,
1,1,no,up,C,L,,,,,,Block.xlsx,"你已经完成了整个实验（三个区组）。

请报告实验者已完成实验

非常感谢，再见！",50,0,1.5,left,LLLLL.png,,,,,0,1,1,1,2,12,60,0,,,,,,,,,,,,,,,,,,,,,,,,,,,,,,,,,,,,,,,,,,,,,,,,,,,,,,,,,,,,,,,,385.36633879999863,385.7681566000101,385.7504442000063,385.8511654000031,386.25103030000173,None,left,1,0.6183560000063153,386.25103030000173,None,385.7504442000063,385.8511654000031,385.8511654000031,None,386.8854110000102,None,,,,,,,11044,001,2024_Mar_24_1017,ANT,2021.2.3,59.9147532851025,
1,19,spatial,up,IC,L,,,,,,Block.xlsx,"你已经完成了整个实验（三个区组）。

请报告实验者已完成实验

非常感谢，再见！",1.5,0,1.5,left,RRLRR.png,,,,,0,1,1,1,2,13,61,18,,,,,,,,,,,,,,,,,,,,,,,,,,,,,,,,,,,,,,,,,,,,,,,,,,,,,,,,,,,,,,,,387.2862546999968,387.6877237000008,387.6697533999977,387.7712179000082,388.17051419999916,None,left,1,0.4113960999966366,388.17051419999916,None,387.6697533999977,387.7712179000082,387.7712179000082,None,388.604562499997,None,,,,,,,11044,001,2024_Mar_24_1017,ANT,2021.2.3,59.9147532851025,
1,8,no,down,IC,R,,,,,,Block.xlsx,"你已经完成了整个实验（三个区组）。

请报告实验者已完成实验

非常感谢，再见！",50,0,-1.5,right,LLRLL.png,,,,,0,1,1,1,2,14,62,7,,,,,,,,,,,,,,,,,,,,,,,,,,,,,,,,,,,,,,,,,,,,,,,,,,,,,,,,,,,,,,,,389.0050046999968,389.40573700000823,389.39081490000535,389.5068806000054,389.8896886000002,None,right,1,0.5477310000133002,389.8896886000002,None,389.39081490000535,389.5068806000054,389.4891989000025,None,390.4571974999999,None,,,,,,,11044,001,2024_Mar_24_1017,ANT,2021.2.3,59.9147532851025,
1,21,spatial,down,C,L,,,,,,Block.xlsx,"你已经完成了整个实验（三个区组）。

请报告实验者已完成实验

非常感谢，再见！",-1.5,0,-1.5,left,LLLLL.png,,,,,0,1,1,1,2,15,63,20,,,,,,,,,,,,,,,,,,,,,,,,,,,,,,,,,,,,,,,,,,,,,,,,,,,,,,,,,,,,,,,,390.8578625000082,391.25850140000694,391.2428823000082,391.34190520000993,391.74247240000113,None,left,1,0.49495169999136124,391.74247240000113,None,391.2428823000082,391.34190520000993,391.34190520000993,None,392.2602551000018,None,,,,,,,11044,001,2024_Mar_24_1017,ANT,2021.2.3,59.9147532851025,
1,22,spatial,down,C,R,,,,,,Block.xlsx,"你已经完成了整个实验（三个区组）。

请报告实验者已完成实验

非常感谢，再见！",-1.5,0,-1.5,right,RRRRR.png,,,,,0,1,1,1,2,16,64,21,,,,,,,,,,,,,,,,,,,,,,,,,,,,,,,,,,,,,,,,,,,,,,,,,,,,,,,,,,,,,,,,392.66035730000294,393.0610125000094,393.04521759999625,393.1452840999991,393.54551039999933,None,right,1,0.4760501999990083,393.54551039999933,None,393.04521759999625,393.1452840999991,393.1452840999991,None,394.0459652999998,None,,,,,,,11044,001,2024_Mar_24_1017,ANT,2021.2.3,59.9147532851025,
1,23,spatial,down,IC,L,,,,,,Block.xlsx,"你已经完成了整个实验（三个区组）。

请报告实验者已完成实验

非常感谢，再见！",-1.5,0,-1.5,left,RRLRR.png,,,,,0,1,1,1,2,17,65,22,,,,,,,,,,,,,,,,,,,,,,,,,,,,,,,,,,,,,,,,,,,,,,,,,,,,,,,,,,,,,,,,394.4468276999978,394.8476862000098,394.830664299996,394.93171319999965,395.3315430000075,None,left,1,0.514635499988799,395.3315430000075,None,394.830664299996,394.93171319999965,394.93171319999965,None,395.8657297000027,None,,,,,,,11044,001,2024_Mar_24_1017,ANT,2021.2.3,59.9147532851025,
1,22,spatial,down,C,R,,,,,,Block.xlsx,"你已经完成了整个实验（三个区组）。

请报告实验者已完成实验

非常感谢，再见！",-1.5,0,-1.5,right,RRRRR.png,,,,,0,1,1,1,2,18,66,21,,,,,,,,,,,,,,,,,,,,,,,,,,,,,,,,,,,,,,,,,,,,,,,,,,,,,,,,,,,,,,,,396.266403600006,396.66750710000633,396.6508673000062,396.7517821000074,397.1515675999981,None,right,1,0.4063373999961186,397.1515675999981,None,396.6508673000062,396.7517821000074,396.7517821000074,None,397.584743600004,None,,,,,,,11044,001,2024_Mar_24_1017,ANT,2021.2.3,59.9147532851025,
1,4,no,up,IC,R,,,,,,Block.xlsx,"你已经完成了整个实验（三个区组）。

请报告实验者已完成实验

非常感谢，再见！",50,0,1.5,right,LLRLL.png,,,,,0,1,1,1,2,19,67,3,,,,,,,,,,,,,,,,,,,,,,,,,,,,,,,,,,,,,,,,,,,,,,,,,,,,,,,,,,,,,,,,397.98513660000754,398.3871369999979,398.3691092000081,398.46987400000216,398.86999020000803,None,right,1,0.7275685000058729,398.86999020000803,None,398.3691092000081,398.46987400000216,398.46987400000216,None,399.62113769999996,None,,,,,,,11044,001,2024_Mar_24_1017,ANT,2021.2.3,59.9147532851025,
1,21,spatial,down,C,L,,,,,,Block.xlsx,"你已经完成了整个实验（三个区组）。

请报告实验者已完成实验

非常感谢，再见！",-1.5,0,-1.5,left,LLLLL.png,,,,,0,1,1,1,2,20,68,20,,,,,,,,,,,,,,,,,,,,,,,,,,,,,,,,,,,,,,,,,,,,,,,,,,,,,,,,,,,,,,,,400.0215828000073,400.4237872000085,400.4056108000077,400.5068859000021,400.90688090000185,None,left,1,0.4588456000055885,400.90688090000185,None,400.4056108000077,400.5068859000021,400.5068859000021,None,401.39121480000904,None,,,,,,,11044,001,2024_Mar_24_1017,ANT,2021.2.3,59.9147532851025,
1,23,spatial,down,IC,L,,,,,,Block.xlsx,"你已经完成了整个实验（三个区组）。

请报告实验者已完成实验

非常感谢，再见！",-1.5,0,-1.5,left,RRLRR.png,,,,,0,1,1,1,2,21,69,22,,,,,,,,,,,,,,,,,,,,,,,,,,,,,,,,,,,,,,,,,,,,,,,,,,,,,,,,,,,,,,,,401.7911443000048,402.191642100006,402.17503290000604,402.27504469999985,402.67588239999895,None,left,1,0.5382021999976132,402.67588239999895,None,402.17503290000604,402.27504469999985,402.27504469999985,None,403.24403529999836,None,,,,,,,11044,001,2024_Mar_24_1017,ANT,2021.2.3,59.9147532851025,
1,16,center,down,IC,R,,,,,,Block.xlsx,"你已经完成了整个实验（三个区组）。

请报告实验者已完成实验

非常感谢，再见！",0,50,-1.5,right,LLRLL.png,,,,,0,1,1,1,2,22,70,15,,,,,,,,,,,,,,,,,,,,,,,,,,,,,,,,,,,,,,,,,,,,,,,,,,,,,,,,,,,,,,,,403.6440563000069,404.04503490000207,404.0278047000029,404.1277858000103,404.5284557999985,None,right,1,0.5014476999931503,404.5284557999985,None,404.0278047000029,404.1277858000103,404.1277858000103,None,405.04612169999746,None,,,,,,,11044,001,2024_Mar_24_1017,ANT,2021.2.3,59.9147532851025,
1,9,center,up,C,L,,,,,,Block.xlsx,"你已经完成了整个实验（三个区组）。

请报告实验者已完成实验

非常感谢，再见！",0,50,1.5,left,LLLLL.png,,,,,0,1,1,1,2,23,71,8,,,,,,,,,,,,,,,,,,,,,,,,,,,,,,,,,,,,,,,,,,,,,,,,,,,,,,,,,,,,,,,,405.4465665000025,405.8474419999984,405.83270680000714,405.94757570000365,406.3315855999972,None,left,1,0.5143602000025567,406.3315855999972,None,405.83270680000714,405.94757570000365,405.93068839999614,None,406.86528500000713,None,,,,,,,11044,001,2024_Mar_24_1017,ANT,2021.2.3,59.9147532851025,
1,24,spatial,down,IC,R,,,,,,Block.xlsx,"你已经完成了整个实验（三个区组）。

请报告实验者已完成实验

非常感谢，再见！",-1.5,0,-1.5,right,LLRLL.png,,,,,0,1,1,1,3,0,72,23,,,,,,,,,,,,,,,,,,,,,,,,,,,,,,,,,,,,,,,,,,,,,,,,,,,,,,,,,,,,,,,,407.2659960000019,407.66775370000687,407.64992290000373,407.7513328000059,408.15167750000546,None,right,1,0.3902430000016466,408.15167750000546,None,407.64992290000373,407.7513328000059,407.7513328000059,None,408.56841809999605,None,,,,,,,11044,001,2024_Mar_24_1017,ANT,2021.2.3,59.9147532851025,
1,4,no,up,IC,R,,,,,,Block.xlsx,"你已经完成了整个实验（三个区组）。

请报告实验者已完成实验

非常感谢，再见！",50,0,1.5,right,LLRLL.png,,,,,0,1,1,1,3,1,73,3,,,,,,,,,,,,,,,,,,,,,,,,,,,,,,,,,,,,,,,,,,,,,,,,,,,,,,,,,,,,,,,,408.9687042000005,409.3703428000008,409.3539036000002,409.4527018000081,409.85404800000833,None,right,1,0.5359211999893887,409.85404800000833,None,409.3539036000002,409.4527018000081,409.4527018000081,None,410.4208712999971,None,,,,,,,11044,001,2024_Mar_24_1017,ANT,2021.2.3,59.9147532851025,
1,8,no,down,IC,R,,,,,,Block.xlsx,"你已经完成了整个实验（三个区组）。

请报告实验者已完成实验

非常感谢，再见！",50,0,-1.5,right,LLRLL.png,,,,,0,1,1,1,3,2,74,7,,,,,,,,,,,,,,,,,,,,,,,,,,,,,,,,,,,,,,,,,,,,,,,,,,,,,,,,,,,,,,,,410.8211413000099,411.221864799998,411.2067284000077,411.30765339999925,411.707848799997,None,right,1,0.6180381000012858,411.707848799997,None,411.2067284000077,411.30765339999925,411.30765339999925,None,412.35709489999863,None,,,,,,,11044,001,2024_Mar_24_1017,ANT,2021.2.3,59.9147532851025,
1,17,spatial,up,C,L,,,,,,Block.xlsx,"你已经完成了整个实验（三个区组）。

请报告实验者已完成实验

非常感谢，再见！",1.5,0,1.5,left,LLLLL.png,,,,,0,1,1,1,3,3,75,16,,,,,,,,,,,,,,,,,,,,,,,,,,,,,,,,,,,,,,,,,,,,,,,,,,,,,,,,,,,,,,,,412.75771079999686,413.1583341000078,413.14154310000595,413.2420992999978,413.6443350000045,None,left,1,0.46693510000477545,413.6443350000045,None,413.14154310000595,413.2420992999978,413.2420992999978,None,414.1263306000037,None,,,,,,,11044,001,2024_Mar_24_1017,ANT,2021.2.3,59.9147532851025,
1,11,center,up,IC,L,,,,,,Block.xlsx,"你已经完成了整个实验（三个区组）。

请报告实验者已完成实验

非常感谢，再见！",0,50,1.5,left,RRLRR.png,,,,,0,1,1,1,3,4,76,10,,,,,,,,,,,,,,,,,,,,,,,,,,,,,,,,,,,,,,,,,,,,,,,,,,,,,,,,,,,,,,,,414.52679050000734,414.92833840000094,414.91093759999785,415.01198999999906,415.4114506000042,None,left,1,0.514953299993067,415.4114506000042,None,414.91093759999785,415.01198999999906,415.01198999999906,None,415.9458203999966,None,,,,,,,11044,001,2024_Mar_24_1017,ANT,2021.2.3,59.9147532851025,
1,9,center,up,C,L,,,,,,Block.xlsx,"你已经完成了整个实验（三个区组）。

请报告实验者已完成实验

非常感谢，再见！",0,50,1.5,left,LLLLL.png,,,,,0,1,1,1,3,5,77,8,,,,,,,,,,,,,,,,,,,,,,,,,,,,,,,,,,,,,,,,,,,,,,,,,,,,,,,,,,,,,,,,416.34649080000236,416.7469839999976,416.7308150000026,416.8304971000034,417.23075470000913,None,left,1,0.38458719999471214,417.23075470000913,None,416.7308150000026,416.8304971000034,416.8304971000034,None,417.6314967000071,None,,,,,,,11044,001,2024_Mar_24_1017,ANT,2021.2.3,59.9147532851025,
1,11,center,up,IC,L,,,,,,Block.xlsx,"你已经完成了整个实验（三个区组）。

请报告实验者已完成实验

非常感谢，再见！",0,50,1.5,left,RRLRR.png,,,,,0,1,1,1,3,6,78,10,,,,,,,,,,,,,,,,,,,,,,,,,,,,,,,,,,,,,,,,,,,,,,,,,,,,,,,,,,,,,,,,418.03227250000054,418.4328441999969,418.4176220000081,418.51896830000624,418.9177975000057,None,left,1,0.40880160000233445,418.9177975000057,None,418.4176220000081,418.51896830000624,418.51896830000624,None,419.35078700000304,None,,,,,,,11044,001,2024_Mar_24_1017,ANT,2021.2.3,59.9147532851025,
1,9,center,up,C,L,,,,,,Block.xlsx,"你已经完成了整个实验（三个区组）。

请报告实验者已完成实验

非常感谢，再见！",0,50,1.5,left,LLLLL.png,,,,,0,1,1,1,3,7,79,8,,,,,,,,,,,,,,,,,,,,,,,,,,,,,,,,,,,,,,,,,,,,,,,,,,,,,,,,,,,,,,,,419.75150369999756,420.15310530000716,420.1355799000012,420.23557319999964,420.63682189999963,None,left,1,0.4014656999934232,420.63682189999963,None,420.1355799000012,420.23557319999964,420.23557319999964,None,421.07154060000903,None,,,,,,,11044,001,2024_Mar_24_1017,ANT,2021.2.3,59.9147532851025,
1,20,spatial,up,IC,R,,,,,,Block.xlsx,"你已经完成了整个实验（三个区组）。

请报告实验者已完成实验

非常感谢，再见！",1.5,0,1.5,right,LLRLL.png,,,,,0,1,1,1,3,8,80,19,,,,,,,,,,,,,,,,,,,,,,,,,,,,,,,,,,,,,,,,,,,,,,,,,,,,,,,,,,,,,,,,421.4705222000048,421.8730080000096,421.85461439999926,421.9556356000103,422.35636299999896,None,left,0,0.33833929999673273,422.35636299999896,None,421.85461439999926,421.9556356000103,421.9556356000103,None,422.7225196000072,None,,,,,,,11044,001,2024_Mar_24_1017,ANT,2021.2.3,59.9147532851025,
1,5,no,down,C,L,,,,,,Block.xlsx,"你已经完成了整个实验（三个区组）。

请报告实验者已完成实验

非常感谢，再见！",50,0,-1.5,left,LLLLL.png,,,,,0,1,1,1,3,9,81,4,,,,,,,,,,,,,,,,,,,,,,,,,,,,,,,,,,,,,,,,,,,,,,,,,,,,,,,,,,,,,,,,423.1230455000041,423.5239169999986,423.5069543999998,423.6081456000102,424.0094960999995,None,left,1,0.6768624999967869,424.0094960999995,None,423.5069543999998,423.6081456000102,423.6081456000102,None,424.7092083000025,None,,,,,,,11044,001,2024_Mar_24_1017,ANT,2021.2.3,59.9147532851025,
1,7,no,down,IC,L,,,,,,Block.xlsx,"你已经完成了整个实验（三个区组）。

请报告实验者已完成实验

非常感谢，再见！",50,0,-1.5,left,RRLRR.png,,,,,0,1,1,1,3,10,82,6,,,,,,,,,,,,,,,,,,,,,,,,,,,,,,,,,,,,,,,,,,,,,,,,,,,,,,,,,,,,,,,,425.10955350000586,425.5102581999963,425.4945860000007,425.5951908999996,425.9943205000018,None,left,1,0.6120915000064997,425.9943205000018,None,425.4945860000007,425.5951908999996,425.5951908999996,None,426.6287952999992,None,,,,,,,11044,001,2024_Mar_24_1017,ANT,2021.2.3,59.9147532851025,
1,15,center,down,IC,L,,,,,,Block.xlsx,"你已经完成了整个实验（三个区组）。

请报告实验者已完成实验

非常感谢，再见！",0,50,-1.5,left,RRLRR.png,,,,,0,1,1,1,3,11,83,14,,,,,,,,,,,,,,,,,,,,,,,,,,,,,,,,,,,,,,,,,,,,,,,,,,,,,,,,,,,,,,,,427.02905640000245,427.43047550000483,427.41376650000166,427.51447170000756,427.91401960000803,None,left,1,0.5407115999987582,427.91401960000803,None,427.41376650000166,427.51447170000756,427.51447170000756,None,428.48152509999636,None,,,,,,,11044,001,2024_Mar_24_1017,ANT,2021.2.3,59.9147532851025,
1,4,no,up,IC,R,,,,,,Block.xlsx,"你已经完成了整个实验（三个区组）。

请报告实验者已完成实验

非常感谢，再见！",50,0,1.5,right,LLRLL.png,,,,,0,1,1,1,3,12,84,3,,,,,,,,,,,,,,,,,,,,,,,,,,,,,,,,,,,,,,,,,,,,,,,,,,,,,,,,,,,,,,,,428.8819092000049,429.2826561999973,429.26630509999814,429.36759690000326,429.76765409999643,None,right,1,0.6469308999949135,429.76765409999643,None,429.26630509999814,429.36759690000326,429.36759690000326,None,430.4354134000023,None,,,,,,,11044,001,2024_Mar_24_1017,ANT,2021.2.3,59.9147532851025,
1,14,center,down,C,R,,,,,,Block.xlsx,"你已经完成了整个实验（三个区组）。

请报告实验者已完成实验

非常感谢，再见！",0,50,-1.5,right,RRRRR.png,,,,,0,1,1,1,3,13,85,13,,,,,,,,,,,,,,,,,,,,,,,,,,,,,,,,,,,,,,,,,,,,,,,,,,,,,,,,,,,,,,,,430.8348299000063,431.2366156000062,431.21880509999755,431.3198095999978,431.7203970999981,None,right,1,0.646086099994136,431.7203970999981,None,431.21880509999755,431.3198095999978,431.3198095999978,None,432.3872659000044,None,,,,,,,11044,001,2024_Mar_24_1017,ANT,2021.2.3,59.9147532851025,
1,11,center,up,IC,L,,,,,,Block.xlsx,"你已经完成了整个实验（三个区组）。

请报告实验者已完成实验

非常感谢，再见！",0,50,1.5,left,RRLRR.png,,,,,0,1,1,1,3,14,86,10,,,,,,,,,,,,,,,,,,,,,,,,,,,,,,,,,,,,,,,,,,,,,,,,,,,,,,,,,,,,,,,,432.7882224000059,433.18847920000553,433.173704300003,433.2886969999963,433.67337200000475,None,left,1,0.6456792999961181,433.67337200000475,None,433.173704300003,433.2886969999963,433.27250180000556,None,434.3401212000026,None,,,,,,,11044,001,2024_Mar_24_1017,ANT,2021.2.3,59.9147532851025,
1,1,no,up,C,L,,,,,,Block.xlsx,"你已经完成了整个实验（三个区组）。

请报告实验者已完成实验

非常感谢，再见！",50,0,1.5,left,LLLLL.png,,,,,0,1,1,1,3,15,87,0,,,,,,,,,,,,,,,,,,,,,,,,,,,,,,,,,,,,,,,,,,,,,,,,,,,,,,,,,,,,,,,,434.7407547000039,435.1413969999994,435.1249266000086,435.2260416000063,435.62572880000516,None,left,1,0.5090142999979435,435.62572880000516,None,435.1249266000086,435.2260416000063,435.2260416000063,None,436.1593908000068,None,,,,,,,11044,001,2024_Mar_24_1017,ANT,2021.2.3,59.9147532851025,
1,18,spatial,up,C,R,,,,,,Block.xlsx,"你已经完成了整个实验（三个区组）。

请报告实验者已完成实验

非常感谢，再见！",1.5,0,1.5,right,RRRRR.png,,,,,0,1,1,1,3,16,88,17,,,,,,,,,,,,,,,,,,,,,,,,,,,,,,,,,,,,,,,,,,,,,,,,,,,,,,,,,,,,,,,,436.56093330000294,436.96076560000074,436.94529570000304,437.04445990000386,437.4447816000029,None,right,1,0.48989009999786504,437.4447816000029,None,436.94529570000304,437.04445990000386,437.04445990000386,None,437.96246450000035,None,,,,,,,11044,001,2024_Mar_24_1017,ANT,2021.2.3,59.9147532851025,
1,2,no,up,C,R,,,,,,Block.xlsx,"你已经完成了整个实验（三个区组）。

请报告实验者已完成实验

非常感谢，再见！",50,0,1.5,right,RRRRR.png,,,,,0,1,1,1,3,17,89,1,,,,,,,,,,,,,,,,,,,,,,,,,,,,,,,,,,,,,,,,,,,,,,,,,,,,,,,,,,,,,,,,438.36278409999795,438.7639502000093,438.74696160000167,438.84701090000453,439.2480171000061,None,right,1,0.41448389999277424,439.2480171000061,None,438.74696160000167,438.84701090000453,438.84701090000453,None,439.68176800000947,None,,,,,,,11044,001,2024_Mar_24_1017,ANT,2021.2.3,59.9147532851025,
1,6,no,down,C,R,,,,,,Block.xlsx,"你已经完成了整个实验（三个区组）。

请报告实验者已完成实验

非常感谢，再见！",50,0,-1.5,right,RRRRR.png,,,,,0,1,1,1,3,18,90,5,,,,,,,,,,,,,,,,,,,,,,,,,,,,,,,,,,,,,,,,,,,,,,,,,,,,,,,,,,,,,,,,440.0822990000015,440.48429690000194,440.46625520000816,440.567140500003,440.9669523000048,None,right,1,0.6079476000013528,440.9669523000048,None,440.46625520000816,440.567140500003,440.567140500003,None,441.6012458000041,None,,,,,,,11044,001,2024_Mar_24_1017,ANT,2021.2.3,59.9147532851025,
1,16,center,down,IC,R,,,,,,Block.xlsx,"你已经完成了整个实验（三个区组）。

请报告实验者已完成实验

非常感谢，再见！",0,50,-1.5,right,LLRLL.png,,,,,0,1,1,1,3,19,91,15,,,,,,,,,,,,,,,,,,,,,,,,,,,,,,,,,,,,,,,,,,,,,,,,,,,,,,,,,,,,,,,,442.00292739999713,442.40297190001,442.38681660000293,442.4865537000005,442.8865411000006,None,right,1,0.640411900007166,442.8865411000006,None,442.38681660000293,442.4865537000005,442.4865537000005,None,443.5542048000061,None,,,,,,,11044,001,2024_Mar_24_1017,ANT,2021.2.3,59.9147532851025,
1,3,no,up,IC,L,,,,,,Block.xlsx,"你已经完成了整个实验（三个区组）。

请报告实验者已完成实验

非常感谢，再见！",50,0,1.5,left,RRLRR.png,,,,,0,1,1,1,3,20,92,2,,,,,,,,,,,,,,,,,,,,,,,,,,,,,,,,,,,,,,,,,,,,,,,,,,,,,,,,,,,,,,,,443.9546965000045,444.3554291000037,444.338871800006,444.44052720000036,444.83934829999635,None,left,1,0.6716596999904141,444.83934829999635,None,444.338871800006,444.44052720000036,444.44052720000036,None,445.54054560000077,None,,,,,,,11044,001,2024_Mar_24_1017,ANT,2021.2.3,59.9147532851025,
1,5,no,down,C,L,,,,,,Block.xlsx,"你已经完成了整个实验（三个区组）。

请报告实验者已完成实验

