TrialType,TrialNumber,WarningType,TargetType,FlankerType,TargetDirection,W,f,Y,corr,imageFile,condition,endtext,Yw,Yf,Yt,Corr,imagefile,trials_3.thisRepN,trials_3.thisTrialN,trials_3.thisN,trials_3.thisIndex,trials_2.thisRepN,trials_2.thisTrialN,trials_2.thisN,trials_2.thisIndex,trials.thisRepN,trials.thisTrialN,trials.thisN,trials.thisIndex,instr.started,instr.stopped,key_resp.keys,key_resp.rt,key_resp.started,key_resp.stopped,image.started,image.stopped,key_resp_6.keys,key_resp_6.rt,key_resp_6.started,key_resp_6.stopped,EX_L.started,EX_L.stopped,AL.started,AL.stopped,key_resp_7.keys,key_resp_7.rt,key_resp_7.started,key_resp_7.stopped,EX_R.started,EX_R.stopped,RR.started,RR.stopped,key_resp_8.keys,key_resp_8.rt,key_resp_8.started,key_resp_8.stopped,image_2.started,image_2.stopped,key_resp_9.keys,key_resp_9.rt,key_resp_9.started,key_resp_9.stopped,image_3.started,image_3.stopped,key_resp_10.keys,key_resp_10.rt,key_resp_10.started,key_resp_10.stopped,fix.started,fix.stopped,war.started,war.stopped,tar.started,tar.stopped,key_resp_4.keys,key_resp_4.corr,key_resp_4.rt,key_resp_4.started,key_resp_4.stopped,fix2.started,fix2.stopped,fix_2.started,fix_2.stopped,Feedback.started,Feedback.stopped,key_resp_2.keys,key_resp_2.rt,key_resp_2.started,key_resp_2.stopped,text_5.started,text_5.stopped,fix2_1.started,fix2_1.stopped,Warn.started,Warn.stopped,Tar.started,Tar.stopped,key_resp_5.keys,key_resp_5.corr,key_resp_5.rt,key_resp_5.started,key_resp_5.stopped,Fix_2.started,Fix_2.stopped,fix2_2.started,fix2_2.stopped,text_4.started,text_4.stopped,key_resp_3.keys,key_resp_3.rt,key_resp_3.started,key_resp_3.stopped,text_3.started,text_3.stopped,participant,session,date,expName,psychopyVersion,frameRate,
,,,,,,,,,,,,,,,,,,,,,,,,,,,,,,9.039327700040303,None,space,7.148213700042106,9.039327700040303,None,,,,,,,,,,,,,,,,,,,,,,,,,,,,,,,,,,,,,,,,,,,,,,,,,,,,,,,,,,,,,,,,,,,,,,,,,,,,,,,,,11043,001,2024_Mar_21_0816,ANT,2021.2.3,59.90423709661102,
,,,,,,,,,,,,,,,,,,,,,,,,,,,,,,,,,,,,16.21636370010674,None,space,5.835139299975708,16.21636370010674,None,,,,,,,,,,,,,,,,,,,,,,,,,,,,,,,,,,,,,,,,,,,,,,,,,,,,,,,,,,,,,,,,,,,,,,,,,,,11043,001,2024_Mar_21_0816,ANT,2021.2.3,59.90423709661102,
,,,,,,,,,,,,,,,,,,,,,,,,,,,,,,,,,,,,,,,,,,22.074803500087,None,22.074803500087,None,left,3.9207733999937773,22.074803500087,None,,,,,,,,,,,,,,,,,,,,,,,,,,,,,,,,,,,,,,,,,,,,,,,,,,,,,,,,,,,,,,,,,,,11043,001,2024_Mar_21_0816,ANT,2021.2.3,59.90423709661102,
,,,,,,,,,,,,,,,,,,,,,,,,,,,,,,,,,,,,,,,,,,,,,,,,,,26.01404120004736,None,26.01404120004736,None,right,1.1412638999754563,26.01404120004736,None,,,,,,,,,,,,,,,,,,,,,,,,,,,,,,,,,,,,,,,,,,,,,,,,,,,,,,,,,,,11043,001,2024_Mar_21_0816,ANT,2021.2.3,59.90423709661102,
,,,,,,,,,,,,,,,,,,,,,,,,,,,,,,,,,,,,,,,,,,,,,,,,,,,,,,,,,,27.18251810001675,None,space,7.525417799944989,27.18251810001675,None,,,,,,,,,,,,,,,,,,,,,,,,,,,,,,,,,,,,,,,,,,,,,,,,,,,,,11043,001,2024_Mar_21_0816,ANT,2021.2.3,59.90423709661102,
,,,,,,,,,,,,,,,,,,,,,,,,,,,,,,,,,,,,,,,,,,,,,,,,,,,,,,,,,,,,,,,,34.72745050000958,None,space,2.9645999999484047,34.72745050000958,None,,,,,,,,,,,,,,,,,,,,,,,,,,,,,,,,,,,,,,,,,,,,,,,11043,001,2024_Mar_21_0816,ANT,2021.2.3,59.90423709661102,
0,12,spatial,down,IC,R,-1.5,0,-1.5,right,LLRLL.png,,,,,,,,0,0,0,11,,,,,,,,,,,,,,,,,,,,,,,,,,,,,,,,,,,,,,,,,,,,,,,,,37.78157700004522,38.18227550003212,38.16700550005771,38.265919300029054,38.66736410011072,None,left,0,0.768906999961473,38.66736410011072,None,38.16700550005771,38.265919300029054,38.265919300029054,None,39.450651000021026,None,,,,,,,,,,,,,,,,,,,,,,,,,,,,,,11043,001,2024_Mar_21_0816,ANT,2021.2.3,59.90423709661102,
0,5,center,up,C,L,0,50,1.5,left,LLLLL.png,,,,,,,,0,1,1,4,,,,,,,,,,,,,,,,,,,,,,,,,,,,,,,,,,,,,,,,,,,,,,,,,41.453756300034,41.85619210009463,41.83788100001402,41.93813310004771,42.339499499998055,None,left,1,0.6248267999617383,42.339499499998055,None,41.83788100001402,41.93813310004771,41.93813310004771,None,43.00724619999528,None,,,,,,,,,,,,,,,,,,,,,,,,,,,,,,11043,001,2024_Mar_21_0816,ANT,2021.2.3,59.90423709661102,
0,8,center,down,IC,L,0,50,-1.5,left,RRLRR.png,,,,,,,,0,2,2,7,,,,,,,,,,,,,,,,,,,,,,,,,,,,,,,,,,,,,,,,,,,,,,,,,45.00931560003664,45.409887300105765,45.393247300060466,45.49413100001402,45.89453420008067,None,left,1,0.6139056000392884,45.89453420008067,None,45.393247300060466,45.49413100001402,45.49413100001402,None,46.52810450003017,None,,,,,,,,,,,,,,,,,,,,,,,,,,,,,,11043,001,2024_Mar_21_0816,ANT,2021.2.3,59.90423709661102,
0,11,spatial,down,C,L,-1.5,0,-1.5,left,LLLLL.png,,,,,,,,0,3,3,10,,,,,,,,,,,,,,,,,,,,,,,,,,,,,,,,,,,,,,,,,,,,,,,,,48.531938300002366,48.931930700084195,48.91604920011014,49.01589210005477,49.41611099999864,None,left,1,0.6124471999937668,49.41611099999864,None,48.91604920011014,49.01589210005477,49.01589210005477,None,50.05006810009945,None,,,,,,,,,,,,,,,,,,,,,,,,,,,,,,11043,001,2024_Mar_21_0816,ANT,2021.2.3,59.90423709661102,
0,9,spatial,up,C,R,1.5,0,1.5,right,RRRRR.png,,,,,,,,0,4,4,8,,,,,,,,,,,,,,,,,,,,,,,,,,,,,,,,,,,,,,,,,,,,,,,,,52.05334610003047,52.45384860003833,52.437481700093485,52.539319200091995,52.938506800099276,None,right,1,0.4977385000092909,52.938506800099276,None,52.437481700093485,52.539319200091995,52.539319200091995,None,53.455451900023036,None,,,,,,,,,,,,,,,,,,,,,,,,,,,,,,11043,001,2024_Mar_21_0816,ANT,2021.2.3,59.90423709661102,
0,2,no,up,IC,R,50,0,1.5,right,LLRLL.png,,,,,,,,0,5,5,1,,,,,,,,,,,,,,,,,,,,,,,,,,,,,,,,,,,,,,,,,,,,,,,,,55.45854030002374,55.859235700103454,55.84446240006946,55.95939329999965,56.3425759000238,None,right,1,0.550100399996154,56.3425759000238,None,55.84446240006946,55.95939329999965,55.944421100080945,None,56.910681200097315,None,,,,,,,,,,,,,,,,,,,,,,,,,,,,,,11043,001,2024_Mar_21_0816,ANT,2021.2.3,59.90423709661102,
0,4,no,down,IC,L,50,0,-1.5,left,RRLRR.png,,,,,,,,0,6,6,3,,,,,,,,,,,,,,,,,,,,,,,,,,,,,,,,,,,,,,,,,,,,,,,,,58.913625800050795,59.31419540010393,59.297567400033586,59.397558900061995,59.79823950002901,None,left,1,0.4619842000538483,59.79823950002901,None,59.297567400033586,59.397558900061995,59.397558900061995,None,60.28245739999693,None,,,,,,,,,,,,,,,,,,,,,,,,,,,,,,11043,001,2024_Mar_21_0816,ANT,2021.2.3,59.90423709661102,
0,7,center,down,C,R,0,50,-1.5,right,RRRRR.png,,,,,,,,0,7,7,6,,,,,,,,,,,,,,,,,,,,,,,,,,,,,,,,,,,,,,,,,,,,,,,,,62.28544570005033,62.688551400089636,62.66953720001038,62.769428400089964,63.17005970003083,None,right,1,0.45876210008282214,63.17005970003083,None,62.66953720001038,62.769428400089964,62.769428400089964,None,63.654044300084934,None,,,,,,,,,,,,,,,,,,,,,,,,,,,,,,11043,001,2024_Mar_21_0816,ANT,2021.2.3,59.90423709661102,
0,6,center,up,IC,R,0,50,1.5,right,LLRLL.png,,,,,,,,0,8,8,5,,,,,,,,,,,,,,,,,,,,,,,,,,,,,,,,,,,,,,,,,,,,,,,,,65.65734120004345,66.05820890003815,66.04091660003178,66.14193640009034,66.54176020005252,None,right,1,0.5590022000251338,66.54176020005252,None,66.04091660003178,66.14193640009034,66.14193640009034,None,67.12559840001632,None,,,,,,,,,,,,,,,,,,,,,,,,,,,,,,11043,001,2024_Mar_21_0816,ANT,2021.2.3,59.90423709661102,
0,1,no,up,C,L,50,0,1.5,left,LLLLL.png,,,,,,,,0,9,9,0,,,,,,,,,,,,,,,,,,,,,,,,,,,,,,,,,,,,,,,,,,,,,,,,,69.12908380001318,69.53002679999918,69.5128507000627,69.61362850002479,70.01378870010376,None,left,1,0.4641836000373587,70.01378870010376,None,69.5128507000627,69.61362850002479,69.61362850002479,None,70.49767420010176,None,,,,,,,,,,,,,,,,,,,,,,,,,,,,,,11043,001,2024_Mar_21_0816,ANT,2021.2.3,59.90423709661102,
0,10,spatial,up,IC,L,1.5,0,1.5,left,RRLRR.png,,,,,,,,0,10,10,9,,,,,,,,,,,,,,,,,,,,,,,,,,,,,,,,,,,,,,,,,,,,,,,,,72.50085750001017,72.90294100006577,72.8847263000207,72.98462820006534,73.38543610007036,None,left,1,0.4844198999926448,73.38543610007036,None,72.8847263000207,72.98462820006534,72.98462820006534,None,73.88594950002152,None,,,,,,,,,,,,,,,,,,,,,,,,,,,,,,11043,001,2024_Mar_21_0816,ANT,2021.2.3,59.90423709661102,
0,3,no,down,C,R,50,0,-1.5,right,RRRRR.png,,,,,,,,0,11,11,2,,,,,,,,,,,,,,,,,,,,,,,,,,,,,,,,,,,,,,,,,,,,,,,,,75.88936600007582,76.29116210003849,76.27351700002328,76.37323880009353,76.7751446000766,None,right,1,0.43773870007134974,76.7751446000766,None,76.27351700002328,76.37323880009353,76.37323880009353,None,77.2411953000119,None,,,,,,,,,,,,,,,,,,,,,,,,,,,,,,11043,001,2024_Mar_21_0816,ANT,2021.2.3,59.90423709661102,
,,,,,,,,,,,,,,,,,,,,,,,,,,,,,,,,,,,,,,,,,,,,,,,,,,,,,,,,,,,,,,,,,,,,,,,,,,,,,,,,,,,,,,,space,12.800432699965313,79.24499060004018,None,,,,,,,,,,,,,,,,,,,,,,,,,,11043,001,2024_Mar_21_0816,ANT,2021.2.3,59.90423709661102,
1,8,no,down,IC,R,,,,,,Block.xlsx,"你已经完成了第一个实验区组

请稍作休息


点击空格键进入下一个区组。",50,0,-1.5,right,LLRLL.png,,,,,0,0,0,0,0,0,0,7,,,,,,,,,,,,,,,,,,,,,,,,,,,,,,,,,,,,,,,,,,,,,,,,,,,,,,,,,,,,,,79.24499060004018,None,92.0973608000204,92.49764660000801,92.48174020007718,92.58153210009914,92.98321810003836,None,right,1,0.6062963000731543,92.98321810003836,None,92.48174020007718,92.58153210009914,92.58153210009914,None,93.61603820009623,None,,,,,,,11043,001,2024_Mar_21_0816,ANT,2021.2.3,59.90423709661102,
1,23,spatial,down,IC,L,,,,,,Block.xlsx,"你已经完成了第一个实验区组

请稍作休息


点击空格键进入下一个区组。",-1.5,0,-1.5,left,RRLRR.png,,,,,0,0,0,0,0,1,1,22,,,,,,,,,,,,,,,,,,,,,,,,,,,,,,,,,,,,,,,,,,,,,,,,,,,,,,,,,,,,,,,,94.01665470004082,94.41673530009575,94.40123550000135,94.50063710007817,94.9012108000461,None,left,1,0.5601118999766186,94.9012108000461,None,94.40123550000135,94.50063710007817,94.50063710007817,None,95.4854940000223,None,,,,,,,11043,001,2024_Mar_21_0816,ANT,2021.2.3,59.90423709661102,
1,11,center,up,IC,L,,,,,,Block.xlsx,"你已经完成了第一个实验区组

请稍作休息


点击空格键进入下一个区组。",0,50,1.5,left,RRLRR.png,,,,,0,0,0,0,0,2,2,10,,,,,,,,,,,,,,,,,,,,,,,,,,,,,,,,,,,,,,,,,,,,,,,,,,,,,,,,,,,,,,,,95.88598720007576,96.28752670006361,96.26974590006284,96.37230940000154,96.77080350008328,None,left,1,0.5468029000330716,96.77080350008328,None,96.26974590006284,96.37230940000154,96.37230940000154,None,97.33844320010394,None,,,,,,,11043,001,2024_Mar_21_0816,ANT,2021.2.3,59.90423709661102,
1,20,spatial,up,IC,R,,,,,,Block.xlsx,"你已经完成了第一个实验区组

请稍作休息


点击空格键进入下一个区组。",1.5,0,1.5,right,LLRLL.png,,,,,0,0,0,0,0,3,3,19,,,,,,,,,,,,,,,,,,,,,,,,,,,,,,,,,,,,,,,,,,,,,,,,,,,,,,,,,,,,,,,,97.73871400009375,98.13943840004504,98.12436170002911,98.24016929999925,98.62345230008941,None,right,1,0.47008749993983656,98.62345230008941,None,98.12436170002911,98.24016929999925,98.22459130000789,None,99.12427940010093,None,,,,,,,11043,001,2024_Mar_21_0816,ANT,2021.2.3,59.90423709661102,
1,18,spatial,up,C,R,,,,,,Block.xlsx,"你已经完成了第一个实验区组

请稍作休息


点击空格键进入下一个区组。",1.5,0,1.5,right,RRRRR.png,,,,,0,0,0,0,0,4,4,17,,,,,,,,,,,,,,,,,,,,,,,,,,,,,,,,,,,,,,,,,,,,,,,,,,,,,,,,,,,,,,,,99.5250256001018,99.92544150003232,99.90882300003432,100.01077980000991,100.41116780007724,None,right,1,0.402348899981007,100.41116780007724,None,99.90882300003432,100.01077980000991,100.01077980000991,None,100.84365150006488,None,,,,,,,11043,001,2024_Mar_21_0816,ANT,2021.2.3,59.90423709661102,
1,21,spatial,down,C,L,,,,,,Block.xlsx,"你已经完成了第一个实验区组

请稍作休息


点击空格键进入下一个区组。",-1.5,0,-1.5,left,LLLLL.png,,,,,0,0,0,0,0,5,5,20,,,,,,,,,,,,,,,,,,,,,,,,,,,,,,,,,,,,,,,,,,,,,,,,,,,,,,,,,,,,,,,,101.24400340009015,101.6448764000088,101.62874100008048,101.73015320010018,102.12876350001898,None,left,1,0.340842799982056,102.12876350001898,None,101.62874100008048,101.73015320010018,101.73015320010018,None,102.49606850009877,None,,,,,,,11043,001,2024_Mar_21_0816,ANT,2021.2.3,59.90423709661102,
1,1,no,up,C,L,,,,,,Block.xlsx,"你已经完成了第一个实验区组

请稍作休息


点击空格键进入下一个区组。",50,0,1.5,left,LLLLL.png,,,,,0,0,0,0,0,6,6,0,,,,,,,,,,,,,,,,,,,,,,,,,,,,,,,,,,,,,,,,,,,,,,,,,,,,,,,,,,,,,,,,102.89684760000091,103.29916180006694,103.28078980010469,103.38263820006978,103.78154830005951,None,left,1,0.45614859997294843,103.78154830005951,None,103.28078980010469,103.38263820006978,103.38263820006978,None,104.26532150001731,None,,,,,,,11043,001,2024_Mar_21_0816,ANT,2021.2.3,59.90423709661102,
1,15,center,down,IC,L,,,,,,Block.xlsx,"你已经完成了第一个实验区组

请稍作休息


点击空格键进入下一个区组。",0,50,-1.5,left,RRLRR.png,,,,,0,0,0,0,0,7,7,14,,,,,,,,,,,,,,,,,,,,,,,,,,,,,,,,,,,,,,,,,,,,,,,,,,,,,,,,,,,,,,,,104.66606010007672,105.06665910000447,105.0517211999977,105.15016270009801,105.55076260003261,None,left,1,0.45527149992994964,105.55076260003261,None,105.0517211999977,105.15016270009801,105.15016270009801,None,106.03457610006444,None,,,,,,,11043,001,2024_Mar_21_0816,ANT,2021.2.3,59.90423709661102,
1,4,no,up,IC,R,,,,,,Block.xlsx,"你已经完成了第一个实验区组

请稍作休息


点击空格键进入下一个区组。",50,0,1.5,right,LLRLL.png,,,,,0,0,0,0,0,8,8,3,,,,,,,,,,,,,,,,,,,,,,,,,,,,,,,,,,,,,,,,,,,,,,,,,,,,,,,,,,,,,,,,106.43547660007607,106.83602430007886,106.820196100045,106.92049700010102,107.32002710003871,None,right,1,0.42232739995233715,107.32002710003871,None,106.820196100045,106.92049700010102,106.92049700010102,None,107.77092690009158,None,,,,,,,11043,001,2024_Mar_21_0816,ANT,2021.2.3,59.90423709661102,
1,9,center,up,C,L,,,,,,Block.xlsx,"你已经完成了第一个实验区组

请稍作休息


点击空格键进入下一个区组。",0,50,1.5,left,LLLLL.png,,,,,0,0,0,0,0,9,9,8,,,,,,,,,,,,,,,,,,,,,,,,,,,,,,,,,,,,,,,,,,,,,,,,,,,,,,,,,,,,,,,,108.17137200001162,108.57201410003472,108.55499220010825,108.65541410003789,109.05663900007494,None,left,1,0.41342920006718487,109.05663900007494,None,108.55499220010825,108.65541410003789,108.65541410003789,None,109.48973990010563,None,,,,,,,11043,001,2024_Mar_21_0816,ANT,2021.2.3,59.90423709661102,
1,7,no,down,IC,L,,,,,,Block.xlsx,"你已经完成了第一个实验区组

请稍作休息


点击空格键进入下一个区组。",50,0,-1.5,left,RRLRR.png,,,,,0,0,0,0,0,10,10,6,,,,,,,,,,,,,,,,,,,,,,,,,,,,,,,,,,,,,,,,,,,,,,,,,,,,,,,,,,,,,,,,109.89042700000573,110.29293530003633,110.27449630002957,110.37461000005715,110.775320500019,None,right,0,0.3984529000008479,110.775320500019,None,110.27449630002957,110.37461000005715,110.37461000005715,None,111.19241490005516,None,,,,,,,11043,001,2024_Mar_21_0816,ANT,2021.2.3,59.90423709661102,
1,16,center,down,IC,R,,,,,,Block.xlsx,"你已经完成了第一个实验区组

请稍作休息


点击空格键进入下一个区组。",0,50,-1.5,right,LLRLL.png,,,,,0,0,0,0,0,11,11,15,,,,,,,,,,,,,,,,,,,,,,,,,,,,,,,,,,,,,,,,,,,,,,,,,,,,,,,,,,,,,,,,111.59398140001576,111.995685000089,111.97692830010783,112.07722500001546,112.477554500103,None,right,1,0.6644902999978513,112.477554500103,None,111.97692830010783,112.07722500001546,112.07722500001546,None,113.16203750006389,None,,,,,,,11043,001,2024_Mar_21_0816,ANT,2021.2.3,59.90423709661102,
1,7,no,down,IC,L,,,,,,Block.xlsx,"你已经完成了第一个实验区组

请稍作休息


点击空格键进入下一个区组。",50,0,-1.5,left,RRLRR.png,,,,,0,0,0,0,0,12,12,6,,,,,,,,,,,,,,,,,,,,,,,,,,,,,,,,,,,,,,,,,,,,,,,,,,,,,,,,,,,,,,,,113.56264090002514,113.96430160000455,113.94672020000871,114.04712240002118,114.44769400008954,None,left,1,0.5582015999825671,114.44769400008954,None,113.94672020000871,114.04712240002118,114.04712240002118,None,115.03145610005595,None,,,,,,,11043,001,2024_Mar_21_0816,ANT,2021.2.3,59.90423709661102,
1,3,no,up,IC,L,,,,,,Block.xlsx,"你已经完成了第一个实验区组

请稍作休息


点击空格键进入下一个区组。",50,0,1.5,left,RRLRR.png,,,,,0,0,0,0,0,13,13,2,,,,,,,,,,,,,,,,,,,,,,,,,,,,,,,,,,,,,,,,,,,,,,,,,,,,,,,,,,,,,,,,115.43213319999631,115.83480760001112,115.8162368000485,115.91751620010473,116.31701470003463,None,left,1,0.5209092000732198,116.31701470003463,None,115.8162368000485,115.91751620010473,115.91751620010473,None,116.8677469000686,None,,,,,,,11043,001,2024_Mar_21_0816,ANT,2021.2.3,59.90423709661102,
1,18,spatial,up,C,R,,,,,,Block.xlsx,"你已经完成了第一个实验区组

请稍作休息


点击空格键进入下一个区组。",1.5,0,1.5,right,RRRRR.png,,,,,0,0,0,0,0,14,14,17,,,,,,,,,,,,,,,,,,,,,,,,,,,,,,,,,,,,,,,,,,,,,,,,,,,,,,,,,,,,,,,,117.26836450002156,117.66881130007096,117.65344320004806,117.75321690004785,118.15381830011029,None,right,1,0.4121045999927446,118.15381830011029,None,117.65344320004806,117.75321690004785,117.75321690004785,None,118.58695760008413,None,,,,,,,11043,001,2024_Mar_21_0816,ANT,2021.2.3,59.90423709661102,
1,3,no,up,IC,L,,,,,,Block.xlsx,"你已经完成了第一个实验区组

请稍作休息


点击空格键进入下一个区组。",50,0,1.5,left,RRLRR.png,,,,,0,0,0,0,0,15,15,2,,,,,,,,,,,,,,,,,,,,,,,,,,,,,,,,,,,,,,,,,,,,,,,,,,,,,,,,,,,,,,,,118.9878417000873,119.38937540003099,119.37136960006319,119.47157690010499,119.87370840006042,None,left,1,0.5084158999379724,119.87370840006042,None,119.37136960006319,119.47157690010499,119.47157690010499,None,120.40625380002894,None,,,,,,,11043,001,2024_Mar_21_0816,ANT,2021.2.3,59.90423709661102,
1,22,spatial,down,C,R,,,,,,Block.xlsx,"你已经完成了第一个实验区组

请稍作休息


点击空格键进入下一个区组。",-1.5,0,-1.5,right,RRRRR.png,,,,,0,0,0,0,0,16,16,21,,,,,,,,,,,,,,,,,,,,,,,,,,,,,,,,,,,,,,,,,,,,,,,,,,,,,,,,,,,,,,,,120.80787680007052,121.20736080000643,121.1919853000436,121.292868400109,121.69159600010607,None,right,1,0.3945772999431938,121.69159600010607,None,121.1919853000436,121.292868400109,121.292868400109,None,122.10902850003913,None,,,,,,,11043,001,2024_Mar_21_0816,ANT,2021.2.3,59.90423709661102,
1,2,no,up,C,R,,,,,,Block.xlsx,"你已经完成了第一个实验区组

请稍作休息


点击空格键进入下一个区组。",50,0,1.5,right,RRRRR.png,,,,,0,0,0,0,0,17,17,1,,,,,,,,,,,,,,,,,,,,,,,,,,,,,,,,,,,,,,,,,,,,,,,,,,,,,,,,,,,,,,,,122.50944230007008,122.91022449999582,122.8933546000626,122.99416970007587,123.39440950006247,None,right,1,0.4035639999201521,123.39440950006247,None,122.8933546000626,122.99416970007587,122.99416970007587,None,123.82829690002836,None,,,,,,,11043,001,2024_Mar_21_0816,ANT,2021.2.3,59.90423709661102,
1,12,center,up,IC,R,,,,,,Block.xlsx,"你已经完成了第一个实验区组

请稍作休息


点击空格键进入下一个区组。",0,50,1.5,right,LLRLL.png,,,,,0,0,0,0,0,18,18,11,,,,,,,,,,,,,,,,,,,,,,,,,,,,,,,,,,,,,,,,,,,,,,,,,,,,,,,,,,,,,,,,124.22886860009748,124.62952110008337,124.61278429999948,124.71421640005428,125.11449860001449,None,right,1,0.4599208999425173,125.11449860001449,None,124.61278429999948,124.71421640005428,124.71421640005428,None,125.59784560010303,None,,,,,,,11043,001,2024_Mar_21_0816,ANT,2021.2.3,59.90423709661102,
1,12,center,up,IC,R,,,,,,Block.xlsx,"你已经完成了第一个实验区组

请稍作休息


点击空格键进入下一个区组。",0,50,1.5,right,LLRLL.png,,,,,0,0,0,0,0,19,19,11,,,,,,,,,,,,,,,,,,,,,,,,,,,,,,,,,,,,,,,,,,,,,,,,,,,,,,,,,,,,,,,,125.99788410007022,126.39882060000673,126.38251510006376,126.4827078001108,126.8840601000702,None,right,1,0.3622566000558436,126.8840601000702,None,126.38251510006376,126.4827078001108,126.4827078001108,None,127.2664871000452,None,,,,,,,11043,001,2024_Mar_21_0816,ANT,2021.2.3,59.90423709661102,
1,20,spatial,up,IC,R,,,,,,Block.xlsx,"你已经完成了第一个实验区组

请稍作休息


点击空格键进入下一个区组。",1.5,0,1.5,right,LLRLL.png,,,,,0,0,0,0,0,20,20,19,,,,,,,,,,,,,,,,,,,,,,,,,,,,,,,,,,,,,,,,,,,,,,,,,,,,,,,,,,,,,,,,127.66732780006714,128.0694041000679,128.05125820008107,128.15142410004046,128.55270400003064,None,right,1,0.38154600001871586,128.55270400003064,None,128.05125820008107,128.15142410004046,128.15142410004046,None,128.95265089999884,None,,,,,,,11043,001,2024_Mar_21_0816,ANT,2021.2.3,59.90423709661102,
1,4,no,up,IC,R,,,,,,Block.xlsx,"你已经完成了第一个实验区组

请稍作休息


点击空格键进入下一个区组。",50,0,1.5,right,LLRLL.png,,,,,0,0,0,0,0,21,21,3,,,,,,,,,,,,,,,,,,,,,,,,,,,,,,,,,,,,,,,,,,,,,,,,,,,,,,,,,,,,,,,,129.35392980009783,129.75551730010193,129.73724750010297,129.83762800006662,130.23760920006316,None,right,1,0.44847860001027584,130.23760920006316,None,129.73724750010297,129.83762800006662,129.83762800006662,None,130.7052158000879,None,,,,,,,11043,001,2024_Mar_21_0816,ANT,2021.2.3,59.90423709661102,
1,20,spatial,up,IC,R,,,,,,Block.xlsx,"你已经完成了第一个实验区组

请稍作休息


点击空格键进入下一个区组。",1.5,0,1.5,right,LLRLL.png,,,,,0,0,0,0,0,22,22,19,,,,,,,,,,,,,,,,,,,,,,,,,,,,,,,,,,,,,,,,,,,,,,,,,,,,,,,,,,,,,,,,131.10606090002693,131.5079059000127,131.48989710002206,131.590811900096,131.99066920008045,None,right,1,0.4637902000686154,131.99066920008045,None,131.48989710002206,131.590811900096,131.590811900096,None,132.47452520008665,None,,,,,,,11043,001,2024_Mar_21_0816,ANT,2021.2.3,59.90423709661102,
1,3,no,up,IC,L,,,,,,Block.xlsx,"你已经完成了第一个实验区组

请稍作休息


点击空格键进入下一个区组。",50,0,1.5,left,RRLRR.png,,,,,0,0,0,0,0,23,23,2,,,,,,,,,,,,,,,,,,,,,,,,,,,,,,,,,,,,,,,,,,,,,,,,,,,,,,,,,,,,,,,,132.87522170005832,133.27647590008564,133.2591680000769,133.35936720005702,133.75975490000565,None,left,1,0.44724459992721677,133.75975490000565,None,133.2591680000769,133.35936720005702,133.35936720005702,None,134.22853230009787,None,,,,,,,11043,001,2024_Mar_21_0816,ANT,2021.2.3,59.90423709661102,
1,16,center,down,IC,R,,,,,,Block.xlsx,"你已经完成了第一个实验区组

请稍作休息


点击空格键进入下一个区组。",0,50,-1.5,right,LLRLL.png,,,,,0,0,0,0,1,0,24,15,,,,,,,,,,,,,,,,,,,,,,,,,,,,,,,,,,,,,,,,,,,,,,,,,,,,,,,,,,,,,,,,134.6276962000411,135.02941130008548,135.0117038000608,135.11286930006463,135.51338300004136,None,right,1,0.6530792000703514,135.51338300004136,None,135.0117038000608,135.11286930006463,135.11286930006463,None,136.1969306000974,None,,,,,,,11043,001,2024_Mar_21_0816,ANT,2021.2.3,59.90423709661102,
1,17,spatial,up,C,L,,,,,,Block.xlsx,"你已经完成了第一个实验区组

请稍作休息


点击空格键进入下一个区组。",1.5,0,1.5,left,LLLLL.png,,,,,0,0,0,0,1,1,25,16,,,,,,,,,,,,,,,,,,,,,,,,,,,,,,,,,,,,,,,,,,,,,,,,,,,,,,,,,,,,,,,,136.5973807000555,136.997838600073,136.98136430000886,137.082657400053,137.4821308000246,None,left,1,0.4523782000178471,137.4821308000246,None,136.98136430000886,137.082657400053,137.082657400053,None,137.9662331000436,None,,,,,,,11043,001,2024_Mar_21_0816,ANT,2021.2.3,59.90423709661102,
1,13,center,down,C,L,,,,,,Block.xlsx,"你已经完成了第一个实验区组

请稍作休息


点击空格键进入下一个区组。",0,50,-1.5,left,LLLLL.png,,,,,0,0,0,0,1,2,26,12,,,,,,,,,,,,,,,,,,,,,,,,,,,,,,,,,,,,,,,,,,,,,,,,,,,,,,,,,,,,,,,,138.36743120010942,138.76738790003583,138.75127550004981,138.85132200003136,139.25134489999618,None,left,1,0.4752979000331834,139.25134489999618,None,138.75127550004981,138.85132200003136,138.85132200003136,None,139.75216460006777,None,,,,,,,11043,001,2024_Mar_21_0816,ANT,2021.2.3,59.90423709661102,
1,22,spatial,down,C,R,,,,,,Block.xlsx,"你已经完成了第一个实验区组

请稍作休息


点击空格键进入下一个区组。",-1.5,0,-1.5,right,RRRRR.png,,,,,0,0,0,0,1,3,27,21,,,,,,,,,,,,,,,,,,,,,,,,,,,,,,,,,,,,,,,,,,,,,,,,,,,,,,,,,,,,,,,,140.15282529999968,140.55387580010574,140.53659590007737,140.63695700000972,141.03864320006687,None,right,1,0.48008580005262047,141.03864320006687,None,140.53659590007737,140.63695700000972,140.63695700000972,None,141.53827120002825,None,,,,,,,11043,001,2024_Mar_21_0816,ANT,2021.2.3,59.90423709661102,
1,5,no,down,C,L,,,,,,Block.xlsx,"你已经完成了第一个实验区组

请稍作休息


点击空格键进入下一个区组。",50,0,-1.5,left,LLLLL.png,,,,,0,0,0,0,1,4,28,4,,,,,,,,,,,,,,,,,,,,,,,,,,,,,,,,,,,,,,,,,,,,,,,,,,,,,,,,,,,,,,,,141.93884010007605,142.33950190001633,142.3227528000716,142.42342490004376,142.8240467000287,None,left,1,0.6545378000009805,142.8240467000287,None,142.3227528000716,142.42342490004376,142.42342490004376,None,143.50782040006015,None,,,,,,,11043,001,2024_Mar_21_0816,ANT,2021.2.3,59.90423709661102,
1,21,spatial,down,C,L,,,,,,Block.xlsx,"你已经完成了第一个实验区组

请稍作休息


点击空格键进入下一个区组。",-1.5,0,-1.5,left,LLLLL.png,,,,,0,0,0,0,1,5,29,20,,,,,,,,,,,,,,,,,,,,,,,,,,,,,,,,,,,,,,,,,,,,,,,,,,,,,,,,,,,,,,,,143.9084037001012,144.30908620008267,144.29327470005956,144.3929367000237,144.79306180006824,None,left,1,0.4538639000384137,144.79306180006824,None,144.29327470005956,144.3929367000237,144.3929367000237,None,145.26032660005149,None,,,,,,,11043,001,2024_Mar_21_0816,ANT,2021.2.3,59.90423709661102,
1,11,center,up,IC,L,,,,,,Block.xlsx,"你已经完成了第一个实验区组

请稍作休息


点击空格键进入下一个区组。",0,50,1.5,left,RRLRR.png,,,,,0,0,0,0,1,6,30,10,,,,,,,,,,,,,,,,,,,,,,,,,,,,,,,,,,,,,,,,,,,,,,,,,,,,,,,,,,,,,,,,145.66104620008264,146.06178690004162,146.046941800043,146.14594610000495,146.54551660001744,None,right,0,0.3495994000695646,146.54551660001744,None,146.046941800043,146.14594610000495,146.14594610000495,None,146.91285560000688,None,,,,,,,11043,001,2024_Mar_21_0816,ANT,2021.2.3,59.90423709661102,
1,8,no,down,IC,R,,,,,,Block.xlsx,"你已经完成了第一个实验区组

请稍作休息


点击空格键进入下一个区组。",50,0,-1.5,right,LLRLL.png,,,,,0,0,0,0,1,7,31,7,,,,,,,,,,,,,,,,,,,,,,,,,,,,,,,,,,,,,,,,,,,,,,,,,,,,,,,,,,,,,,,,147.3136040000245,147.71530660009012,147.69741610006895,147.79831750004087,148.20026750001125,None,right,1,0.726750300033018,148.20026750001125,None,147.69741610006895,147.79831750004087,147.79831750004087,None,148.94927500002086,None,,,,,,,11043,001,2024_Mar_21_0816,ANT,2021.2.3,59.90423709661102,
1,11,center,up,IC,L,,,,,,Block.xlsx,"你已经完成了第一个实验区组

请稍作休息


点击空格键进入下一个区组。",0,50,1.5,left,RRLRR.png,,,,,0,0,0,0,1,8,32,10,,,,,,,,,,,,,,,,,,,,,,,,,,,,,,,,,,,,,,,,,,,,,,,,,,,,,,,,,,,,,,,,149.35007180005778,149.7504889999982,149.73528140003327,149.851508700056,150.23461929999758,None,left,1,0.42002429999411106,150.23461929999758,None,149.73528140003327,149.851508700056,149.83619719999842,None,150.68533020000905,None,,,,,,,11043,001,2024_Mar_21_0816,ANT,2021.2.3,59.90423709661102,
1,13,center,down,C,L,,,,,,Block.xlsx,"你已经完成了第一个实验区组

请稍作休息


点击空格键进入下一个区组。",0,50,-1.5,left,LLLLL.png,,,,,0,0,0,0,1,9,33,12,,,,,,,,,,,,,,,,,,,,,,,,,,,,,,,,,,,,,,,,,,,,,,,,,,,,,,,,,,,,,,,,151.08605120005086,151.4867667000508,151.47021790000144,151.57123730005696,151.9709514999995,None,left,1,0.48410370002966374,151.9709514999995,None,151.47021790000144,151.57123730005696,151.57123730005696,None,152.47129480005242,None,,,,,,,11043,001,2024_Mar_21_0816,ANT,2021.2.3,59.90423709661102,
1,17,spatial,up,C,L,,,,,,Block.xlsx,"你已经完成了第一个实验区组

请稍作休息


点击空格键进入下一个区组。",1.5,0,1.5,left,LLLLL.png,,,,,0,0,0,0,1,10,34,16,,,,,,,,,,,,,,,,,,,,,,,,,,,,,,,,,,,,,,,,,,,,,,,,,,,,,,,,,,,,,,,,152.8718738000607,153.27344880008604,153.25586620008107,153.35617800010368,153.75662330002524,None,left,1,0.35405620001256466,153.75662330002524,None,153.25586620008107,153.35617800010368,153.35617800010368,None,154.1405156000983,None,,,,,,,11043,001,2024_Mar_21_0816,ANT,2021.2.3,59.90423709661102,
1,1,no,up,C,L,,,,,,Block.xlsx,"你已经完成了第一个实验区组

请稍作休息


点击空格键进入下一个区组。",50,0,1.5,left,LLLLL.png,,,,,0,0,0,0,1,11,35,0,,,,,,,,,,,,,,,,,,,,,,,,,,,,,,,,,,,,,,,,,,,,,,,,,,,,,,,,,,,,,,,,154.5412187000038,154.94181030010805,154.9251083000563,155.0270625000121,155.42615030007437,None,left,1,0.47689290007110685,155.42615030007437,None,154.9251083000563,155.0270625000121,155.0270625000121,None,155.9266935000196,None,,,,,,,11043,001,2024_Mar_21_0816,ANT,2021.2.3,59.90423709661102,
1,17,spatial,up,C,L,,,,,,Block.xlsx,"你已经完成了第一个实验区组

请稍作休息


点击空格键进入下一个区组。",1.5,0,1.5,left,LLLLL.png,,,,,0,0,0,0,1,12,36,16,,,,,,,,,,,,,,,,,,,,,,,,,,,,,,,,,,,,,,,,,,,,,,,,,,,,,,,,,,,,,,,,156.3271248000674,156.7294054001104,156.71212230005767,156.81178650003858,157.21180680010002,None,left,1,0.35523400001693517,157.21180680010002,None,156.71212230005767,156.81178650003858,156.81178650003858,None,157.5956298999954,None,,,,,,,11043,001,2024_Mar_21_0816,ANT,2021.2.3,59.90423709661102,
1,16,center,down,IC,R,,,,,,Block.xlsx,"你已经完成了第一个实验区组

请稍作休息


点击空格键进入下一个区组。",0,50,-1.5,right,LLRLL.png,,,,,0,0,0,0,1,13,37,15,,,,,,,,,,,,,,,,,,,,,,,,,,,,,,,,,,,,,,,,,,,,,,,,,,,,,,,,,,,,,,,,157.9966239000205,158.39774840010796,158.38078760006465,158.48173010000028,158.88083130004816,None,right,1,0.5982511000474915,158.88083130004816,None,158.38078760006465,158.48173010000028,158.48173010000028,None,159.49859160010237,None,,,,,,,11043,001,2024_Mar_21_0816,ANT,2021.2.3,59.90423709661102,
1,14,center,down,C,R,,,,,,Block.xlsx,"你已经完成了第一个实验区组

请稍作休息


点击空格键进入下一个区组。",0,50,-1.5,right,RRRRR.png,,,,,0,0,0,0,1,14,38,13,,,,,,,,,,,,,,,,,,,,,,,,,,,,,,,,,,,,,,,,,,,,,,,,,,,,,,,,,,,,,,,,159.8995669001015,160.29976970003918,160.28383250010666,160.3832133000251,160.78443800006062,None,right,1,0.4625812000595033,160.78443800006062,None,160.28383250010666,160.3832133000251,160.3832133000251,None,161.26786000002176,None,,,,,,,11043,001,2024_Mar_21_0816,ANT,2021.2.3,59.90423709661102,
1,14,center,down,C,R,,,,,,Block.xlsx,"你已经完成了第一个实验区组

请稍作休息


点击空格键进入下一个区组。",0,50,-1.5,right,RRRRR.png,,,,,0,0,0,0,1,15,39,13,,,,,,,,,,,,,,,,,,,,,,,,,,,,,,,,,,,,,,,,,,,,,,,,,,,,,,,,,,,,,,,,161.6687080000993,162.06991469999775,162.05253270000685,162.1525456000818,162.55318270006683,None,right,1,0.41424089996144176,162.55318270006683,None,162.05253270000685,162.1525456000818,162.1525456000818,None,162.98886890010908,None,,,,,,,11043,001,2024_Mar_21_0816,ANT,2021.2.3,59.90423709661102,
1,21,spatial,down,C,L,,,,,,Block.xlsx,"你已经完成了第一个实验区组

请稍作休息


点击空格键进入下一个区组。",-1.5,0,-1.5,left,LLLLL.png,,,,,0,0,0,0,1,16,40,20,,,,,,,,,,,,,,,,,,,,,,,,,,,,,,,,,,,,,,,,,,,,,,,,,,,,,,,,,,,,,,,,163.38827700004913,163.78914810006972,163.77155180007685,163.87295470002573,164.27308270009235,None,left,1,0.5660308999940753,164.27308270009235,None,163.77155180007685,163.87295470002573,163.87295470002573,None,164.85667750006542,None,,,,,,,11043,001,2024_Mar_21_0816,ANT,2021.2.3,59.90423709661102,
1,7,no,down,IC,L,,,,,,Block.xlsx,"你已经完成了第一个实验区组

请稍作休息


点击空格键进入下一个区组。",50,0,-1.5,left,RRLRR.png,,,,,0,0,0,0,1,17,41,6,,,,,,,,,,,,,,,,,,,,,,,,,,,,,,,,,,,,,,,,,,,,,,,,,,,,,,,,,,,,,,,,165.25726720003877,165.65850600006524,165.64268730010372,165.75825950002763,166.14215120009612,None,left,1,0.4572710000211373,166.14215120009612,None,165.64268730010372,165.75825950002763,165.74202410003636,None,166.62598910008091,None,,,,,,,11043,001,2024_Mar_21_0816,ANT,2021.2.3,59.90423709661102,
1,14,center,down,C,R,,,,,,Block.xlsx,"你已经完成了第一个实验区组

请稍作休息


点击空格键进入下一个区组。",0,50,-1.5,right,RRRRR.png,,,,,0,0,0,0,1,18,42,13,,,,,,,,,,,,,,,,,,,,,,,,,,,,,,,,,,,,,,,,,,,,,,,,,,,,,,,,,,,,,,,,167.0269999000011,167.4273603000911,167.41061910009012,167.51273440010846,167.91281720006373,None,right,1,0.43874350003898144,167.91281720006373,None,167.41061910009012,167.51273440010846,167.51273440010846,None,168.37851420009974,None,,,,,,,11043,001,2024_Mar_21_0816,ANT,2021.2.3,59.90423709661102,
1,8,no,down,IC,R,,,,,,Block.xlsx,"你已经完成了第一个实验区组

请稍作休息


点击空格键进入下一个区组。",50,0,-1.5,right,LLRLL.png,,,,,0,0,0,0,1,19,43,7,,,,,,,,,,,,,,,,,,,,,,,,,,,,,,,,,,,,,,,,,,,,,,,,,,,,,,,,,,,,,,,,168.77948050003033,169.18057690002024,169.16511260007974,169.27988770010415,169.66401659999974,None,right,1,0.4161662000697106,169.66401659999974,None,169.16511260007974,169.27988770010415,169.26516200008336,None,170.09795730002224,None,,,,,,,11043,001,2024_Mar_21_0816,ANT,2021.2.3,59.90423709661102,
1,16,center,down,IC,R,,,,,,Block.xlsx,"你已经完成了第一个实验区组

请稍作休息


点击空格键进入下一个区组。",0,50,-1.5,right,LLRLL.png,,,,,0,0,0,0,1,20,44,15,,,,,,,,,,,,,,,,,,,,,,,,,,,,,,,,,,,,,,,,,,,,,,,,,,,,,,,,,,,,,,,,170.49846300005447,170.9002217000816,170.88286470004823,170.98253660008777,171.38547130010556,None,right,1,0.3822201000293717,171.38547130010556,None,170.88286470004823,170.98253660008777,170.98253660008777,None,171.78376290004235,None,,,,,,,11043,001,2024_Mar_21_0816,ANT,2021.2.3,59.90423709661102,
1,2,no,up,C,R,,,,,,Block.xlsx,"你已经完成了第一个实验区组

请稍作休息


点击空格键进入下一个区组。",50,0,1.5,right,RRRRR.png,,,,,0,0,0,0,1,21,45,1,,,,,,,,,,,,,,,,,,,,,,,,,,,,,,,,,,,,,,,,,,,,,,,,,,,,,,,,,,,,,,,,172.1844357000664,172.58487370004877,172.5683203000808,172.6686813000124,173.06979239999782,None,right,1,0.5617310999659821,173.06979239999782,None,172.5683203000808,172.6686813000124,172.6686813000124,None,173.65343830001075,None,,,,,,,11043,001,2024_Mar_21_0816,ANT,2021.2.3,59.90423709661102,
1,24,spatial,down,IC,R,,,,,,Block.xlsx,"你已经完成了第一个实验区组

请稍作休息


点击空格键进入下一个区组。",-1.5,0,-1.5,right,LLRLL.png,,,,,0,0,0,0,1,22,46,23,,,,,,,,,,,,,,,,,,,,,,,,,,,,,,,,,,,,,,,,,,,,,,,,,,,,,,,,,,,,,,,,174.05428170005325,174.45517920004204,174.4393675000174,174.55700920009986,174.93850280006882,None,right,1,0.4370292000239715,174.93850280006882,None,174.4393675000174,174.55700920009986,174.5380967000965,None,175.40584050002508,None,,,,,,,11043,001,2024_Mar_21_0816,ANT,2021.2.3,59.90423709661102,
1,6,no,down,C,R,,,,,,Block.xlsx,"你已经完成了第一个实验区组

请稍作休息


点击空格键进入下一个区组。",50,0,-1.5,right,RRRRR.png,,,,,0,0,0,0,1,23,47,5,,,,,,,,,,,,,,,,,,,,,,,,,,,,,,,,,,,,,,,,,,,,,,,,,,,,,,,,,,,,,,,,175.80656110006385,176.20814500004053,176.1904738000594,176.2904483000748,176.69244760007132,None,right,1,0.38715009996667504,176.69244760007132,None,176.1904738000594,176.2904483000748,176.2904483000748,None,177.10841450002044,None,,,,,,,11043,001,2024_Mar_21_0816,ANT,2021.2.3,59.90423709661102,
1,23,spatial,down,IC,L,,,,,,Block.xlsx,"你已经完成了第一个实验区组

请稍作休息


点击空格键进入下一个区组。",-1.5,0,-1.5,left,RRLRR.png,,,,,0,0,0,0,2,0,48,22,,,,,,,,,,,,,,,,,,,,,,,,,,,,,,,,,,,,,,,,,,,,,,,,,,,,,,,,,,,,,,,,177.50937110011,177.91135180008132,177.89298940007575,177.99346910009626,178.39374780002981,None,left,1,0.4222136000171304,178.39374780002981,None,177.89298940007575,177.99346910009626,177.99346910009626,None,178.84435820009094,None,,,,,,,11043,001,2024_Mar_21_0816,ANT,2021.2.3,59.90423709661102,
1,5,no,down,C,L,,,,,,Block.xlsx,"你已经完成了第一个实验区组

请稍作休息


点击空格键进入下一个区组。",50,0,-1.5,left,LLLLL.png,,,,,0,0,0,0,2,1,49,4,,,,,,,,,,,,,,,,,,,,,,,,,,,,,,,,,,,,,,,,,,,,,,,,,,,,,,,,,,,,,,,,179.24512370000593,179.64569460006896,179.62891010008752,179.72903690009844,180.13137110008392,None,left,1,0.38024770002812147,180.13137110008392,None,179.62891010008752,179.72903690009844,179.72903690009844,None,180.53014350007288,None,,,,,,,11043,001,2024_Mar_21_0816,ANT,2021.2.3,59.90423709661102,
1,17,spatial,up,C,L,,,,,,Block.xlsx,"你已经完成了第一个实验区组

请稍作休息


点击空格键进入下一个区组。",1.5,0,1.5,left,LLLLL.png,,,,,0,0,0,0,2,2,50,16,,,,,,,,,,,,,,,,,,,,,,,,,,,,,,,,,,,,,,,,,,,,,,,,,,,,,,,,,,,,,,,,180.9314117000904,181.3315341999987,181.3156472000992,181.41608430002816,181.8156065000221,None,left,1,0.38463620003312826,181.8156065000221,None,181.3156472000992,181.41608430002816,181.41608430002816,None,182.21621100010816,None,,,,,,,11043,001,2024_Mar_21_0816,ANT,2021.2.3,59.90423709661102,
1,9,center,up,C,L,,,,,,Block.xlsx,"你已经完成了第一个实验区组

请稍作休息


点击空格键进入下一个区组。",0,50,1.5,left,LLLLL.png,,,,,0,0,0,0,2,3,51,8,,,,,,,,,,,,,,,,,,,,,,,,,,,,,,,,,,,,,,,,,,,,,,,,,,,,,,,,,,,,,,,,182.6174721000716,183.01746680005454,183.00151700002607,183.1018629000755,183.50230600009672,None,left,1,0.4337126000318676,183.50230600009672,None,183.00151700002607,183.1018629000755,183.1018629000755,None,183.95193320000544,None,,,,,,,11043,001,2024_Mar_21_0816,ANT,2021.2.3,59.90423709661102,
1,12,center,up,IC,R,,,,,,Block.xlsx,"你已经完成了第一个实验区组

请稍作休息


点击空格键进入下一个区组。",0,50,1.5,right,LLRLL.png,,,,,0,0,0,0,2,4,52,11,,,,,,,,,,,,,,,,,,,,,,,,,,,,,,,,,,,,,,,,,,,,,,,,,,,,,,,,,,,,,,,,184.35257580003235,184.75371280009858,184.73825580009725,184.83737230009865,185.23734890006017,None,right,1,0.4424519999884069,185.23734890006017,None,184.73825580009725,184.83737230009865,184.83737230009865,None,185.70485060010105,None,,,,,,,11043,001,2024_Mar_21_0816,ANT,2021.2.3,59.90423709661102,
1,11,center,up,IC,L,,,,,,Block.xlsx,"你已经完成了第一个实验区组

请稍作休息


点击空格键进入下一个区组。",0,50,1.5,left,RRLRR.png,,,,,0,0,0,0,2,5,53,10,,,,,,,,,,,,,,,,,,,,,,,,,,,,,,,,,,,,,,,,,,,,,,,,,,,,,,,,,,,,,,,,186.10531530005392,186.50740620004945,186.48926850000862,186.59019180003088,186.9902080000611,None,left,1,0.5378692999947816,186.9902080000611,None,186.48926850000862,186.59019180003088,186.59019180003088,None,187.5575798000209,None,,,,,,,11043,001,2024_Mar_21_0816,ANT,2021.2.3,59.90423709661102,
1,18,spatial,up,C,R,,,,,,Block.xlsx,"你已经完成了第一个实验区组

请稍作休息


点击空格键进入下一个区组。",1.5,0,1.5,right,RRRRR.png,,,,,0,0,0,0,2,6,54,17,,,,,,,,,,,,,,,,,,,,,,,,,,,,,,,,,,,,,,,,,,,,,,,,,,,,,,,,,,,,,,,,187.95825110003352,188.35921840008814,188.34215020004194,188.44212600006722,188.84292590001132,None,right,1,0.37341740005649626,188.84292590001132,None,188.34215020004194,188.44212600006722,188.44212600006722,None,189.24339770001825,None,,,,,,,11043,001,2024_Mar_21_0816,ANT,2021.2.3,59.90423709661102,
1,24,spatial,down,IC,R,,,,,,Block.xlsx,"你已经完成了第一个实验区组

请稍作休息


点击空格键进入下一个区组。",-1.5,0,-1.5,right,LLRLL.png,,,,,0,0,0,0,2,7,55,23,,,,,,,,,,,,,,,,,,,,,,,,,,,,,,,,,,,,,,,,,,,,,,,,,,,,,,,,,,,,,,,,189.64401060005184,190.0446595000103,190.03017150005326,190.14496060006786,190.52888410002925,None,right,1,0.535104600014165,190.52888410002925,None,190.03017150005326,190.14496060006786,190.12986540002748,None,191.07957920001354,None,,,,,,,11043,001,2024_Mar_21_0816,ANT,2021.2.3,59.90423709661102,
1,14,center,down,C,R,,,,,,Block.xlsx,"你已经完成了第一个实验区组

请稍作休息


点击空格键进入下一个区组。",0,50,-1.5,right,RRRRR.png,,,,,0,0,0,0,2,8,56,13,,,,,,,,,,,,,,,,,,,,,,,,,,,,,,,,,,,,,,,,,,,,,,,,,,,,,,,,,,,,,,,,191.48166320007294,191.88220100000035,191.86408420000225,191.96607490000315,192.36588900000788,None,right,1,0.39389009994920343,192.36588900000788,None,191.86408420000225,191.96607490000315,191.96607490000315,None,192.78204110008664,None,,,,,,,11043,001,2024_Mar_21_0816,ANT,2021.2.3,59.90423709661102,
1,3,no,up,IC,L,,,,,,Block.xlsx,"你已经完成了第一个实验区组

请稍作休息


点击空格键进入下一个区组。",50,0,1.5,left,RRLRR.png,,,,,0,0,0,0,2,9,57,2,,,,,,,,,,,,,,,,,,,,,,,,,,,,,,,,,,,,,,,,,,,,,,,,,,,,,,,,,,,,,,,,193.1838538000593,193.58327390009072,193.56800770002883,193.6684459000826,194.0671708000591,None,left,1,0.6292102000443265,194.0671708000591,None,193.56800770002883,193.6684459000826,193.6684459000826,None,194.7184372000629,None,,,,,,,11043,001,2024_Mar_21_0816,ANT,2021.2.3,59.90423709661102,
1,19,spatial,up,IC,L,,,,,,Block.xlsx,"你已经完成了第一个实验区组

请稍作休息


点击空格键进入下一个区组。",1.5,0,1.5,left,RRLRR.png,,,,,0,0,0,0,2,10,58,18,,,,,,,,,,,,,,,,,,,,,,,,,,,,,,,,,,,,,,,,,,,,,,,,,,,,,,,,,,,,,,,,195.1193717001006,195.5216559000546,195.50294450006913,195.6030507000396,196.00488720007706,None,left,1,0.3712597000412643,196.00488720007706,None,195.50294450006913,195.6030507000396,195.6030507000396,None,196.40424659999553,None,,,,,,,11043,001,2024_Mar_21_0816,ANT,2021.2.3,59.90423709661102,
1,10,center,up,C,R,,,,,,Block.xlsx,"你已经完成了第一个实验区组

请稍作休息


点击空格键进入下一个区组。",0,50,1.5,right,RRRRR.png,,,,,0,0,0,0,2,11,59,9,,,,,,,,,,,,,,,,,,,,,,,,,,,,,,,,,,,,,,,,,,,,,,,,,,,,,,,,,,,,,,,,196.80528590001632,197.2061614000704,197.18954530009069,197.29060490010306,197.6894878000021,None,right,1,0.4067570000188425,197.6894878000021,None,197.18954530009069,197.29060490010306,197.29060490010306,None,198.12344670004677,None,,,,,,,11043,001,2024_Mar_21_0816,ANT,2021.2.3,59.90423709661102,
1,6,no,down,C,R,,,,,,Block.xlsx,"你已经完成了第一个实验区组

请稍作休息


点击空格键进入下一个区组。",50,0,-1.5,right,RRRRR.png,,,,,0,0,0,0,2,12,60,5,,,,,,,,,,,,,,,,,,,,,,,,,,,,,,,,,,,,,,,,,,,,,,,,,,,,,,,,,,,,,,,,198.5240021001082,198.92550930008292,198.9083493000362,199.00813750003,199.40933420008514,None,right,1,0.4790776000590995,199.40933420008514,None,198.9083493000362,199.00813750003,199.00813750003,None,199.90919750009198,None,,,,,,,11043,001,2024_Mar_21_0816,ANT,2021.2.3,59.90423709661102,
1,8,no,down,IC,R,,,,,,Block.xlsx,"你已经完成了第一个实验区组

请稍作休息


点击空格键进入下一个区组。",50,0,-1.5,right,LLRLL.png,,,,,0,0,0,0,2,13,61,7,,,,,,,,,,,,,,,,,,,,,,,,,,,,,,,,,,,,,,,,,,,,,,,,,,,,,,,,,,,,,,,,200.31016730004922,200.71136640000623,200.6941821000073,200.79432180000003,201.19495750009082,None,right,1,0.4295751000754535,201.19495750009082,None,200.6941821000073,200.79432180000003,200.79432180000003,None,201.6454234000994,None,,,,,,,11043,001,2024_Mar_21_0816,ANT,2021.2.3,59.90423709661102,
1,23,spatial,down,IC,L,,,,,,Block.xlsx,"你已经完成了第一个实验区组

请稍作休息


点击空格键进入下一个区组。",-1.5,0,-1.5,left,RRLRR.png,,,,,0,0,0,0,2,14,62,22,,,,,,,,,,,,,,,,,,,,,,,,,,,,,,,,,,,,,,,,,,,,,,,,,,,,,,,,,,,,,,,,202.04653390008025,202.447541700094,202.43003120005596,202.52993860002607,202.93107360007707,None,left,1,0.43710410001222044,202.93107360007707,None,202.43003120005596,202.52993860002607,202.52993860002607,None,203.39800420007668,None,,,,,,,11043,001,2024_Mar_21_0816,ANT,2021.2.3,59.90423709661102,
1,20,spatial,up,IC,R,,,,,,Block.xlsx,"你已经完成了第一个实验区组

请稍作休息


点击空格键进入下一个区组。",1.5,0,1.5,right,LLRLL.png,,,,,0,0,0,0,2,15,63,19,,,,,,,,,,,,,,,,,,,,,,,,,,,,,,,,,,,,,,,,,,,,,,,,,,,,,,,,,,,,,,,,203.79883830004837,204.19923940009903,204.18454730010126,204.3007663000608,204.68311700003687,None,right,1,0.43696080008521676,204.68311700003687,None,204.18454730010126,204.3007663000608,204.2828438000288,None,205.1507314000046,None,,,,,,,11043,001,2024_Mar_21_0816,ANT,2021.2.3,59.90423709661102,
1,19,spatial,up,IC,L,,,,,,Block.xlsx,"你已经完成了第一个实验区组

请稍作休息


点击空格键进入下一个区组。",1.5,0,1.5,left,RRLRR.png,,,,,0,0,0,0,2,16,64,18,,,,,,,,,,,,,,,,,,,,,,,,,,,,,,,,,,,,,,,,,,,,,,,,,,,,,,,,,,,,,,,,205.5515908000525,205.95311840006616,205.93560220010113,206.03592010005377,206.43712350004353,None,left,1,0.43527320004068315,206.43712350004353,None,205.93560220010113,206.03592010005377,206.03592010005377,None,206.9034102000296,None,,,,,,,11043,001,2024_Mar_21_0816,ANT,2021.2.3,59.90423709661102,
1,5,no,down,C,L,,,,,,Block.xlsx,"你已经完成了第一个实验区组

请稍作休息


点击空格键进入下一个区组。",50,0,-1.5,left,LLLLL.png,,,,,0,0,0,0,2,17,65,4,,,,,,,,,,,,,,,,,,,,,,,,,,,,,,,,,,,,,,,,,,,,,,,,,,,,,,,,,,,,,,,,207.30389650003053,207.70526810002048,207.68934510007966,207.78839460003655,208.18905200005975,None,left,1,0.46762720006518066,208.18905200005975,None,207.68934510007966,207.78839460003655,207.78839460003655,None,208.67279140010942,None,,,,,,,11043,001,2024_Mar_21_0816,ANT,2021.2.3,59.90423709661102,
1,2,no,up,C,R,,,,,,Block.xlsx,"你已经完成了第一个实验区组

请稍作休息


点击空格键进入下一个区组。",50,0,1.5,right,RRRRR.png,,,,,0,0,0,0,2,18,66,1,,,,,,,,,,,,,,,,,,,,,,,,,,,,,,,,,,,,,,,,,,,,,,,,,,,,,,,,,,,,,,,,209.07319850008935,209.47540190001018,209.45724220003467,209.55886290001217,209.95897110004444,None,right,1,0.43405989999882877,209.95897110004444,None,209.45724220003467,209.55886290001217,209.55886290001217,None,210.40854299999774,None,,,,,,,11043,001,2024_Mar_21_0816,ANT,2021.2.3,59.90423709661102,
1,2,no,up,C,R,,,,,,Block.xlsx,"你已经完成了第一个实验区组

请稍作休息


点击空格键进入下一个区组。",50,0,1.5,right,RRRRR.png,,,,,0,0,0,0,2,19,67,1,,,,,,,,,,,,,,,,,,,,,,,,,,,,,,,,,,,,,,,,,,,,,,,,,,,,,,,,,,,,,,,,210.80926690006163,211.210317100049,211.19322910008486,211.2932040001033,211.69402480009012,None,right,1,0.39421539998147637,211.69402480009012,None,211.19322910008486,211.2932040001033,211.2932040001033,None,212.11116530001163,None,,,,,,,11043,001,2024_Mar_21_0816,ANT,2021.2.3,59.90423709661102,
1,15,center,down,IC,L,,,,,,Block.xlsx,"你已经完成了第一个实验区组

请稍作休息


点击空格键进入下一个区组。",0,50,-1.5,left,RRLRR.png,,,,,0,0,0,0,2,20,68,14,,,,,,,,,,,,,,,,,,,,,,,,,,,,,,,,,,,,,,,,,,,,,,,,,,,,,,,,,,,,,,,,212.51186150009744,212.91347370005678,212.89578890008852,212.99590420001186,213.39729450002778,None,right,0,0.4275330000091344,213.39729450002778,None,212.89578890008852,212.99590420001186,212.99590420001186,None,213.8470529000042,None,,,,,,,11043,001,2024_Mar_21_0816,ANT,2021.2.3,59.90423709661102,
1,15,center,down,IC,L,,,,,,Block.xlsx,"你已经完成了第一个实验区组

请稍作休息


点击空格键进入下一个区组。",0,50,-1.5,left,RRLRR.png,,,,,0,0,0,0,2,21,69,14,,,,,,,,,,,,,,,,,,,,,,,,,,,,,,,,,,,,,,,,,,,,,,,,,,,,,,,,,,,,,,,,214.24760120001156,214.6482352000894,214.6331137000816,214.73243289999664,215.13328540010843,None,left,1,0.5237199000548571,215.13328540010843,None,214.6331137000816,214.73243289999664,214.73243289999664,None,215.68308030010667,None,,,,,,,11043,001,2024_Mar_21_0816,ANT,2021.2.3,59.90423709661102,
1,10,center,up,C,R,,,,,,Block.xlsx,"你已经完成了第一个实验区组

请稍作休息


点击空格键进入下一个区组。",0,50,1.5,right,RRRRR.png,,,,,0,0,0,0,2,22,70,9,,,,,,,,,,,,,,,,,,,,,,,,,,,,,,,,,,,,,,,,,,,,,,,,,,,,,,,,,,,,,,,,216.08386570005678,216.48557820008136,216.46793230006006,216.56793270003982,216.96833130007144,None,right,1,0.5200520999496803,216.96833130007144,None,216.46793230006006,216.56793270003982,216.56793270003982,None,217.51920610002708,None,,,,,,,11043,001,2024_Mar_21_0816,ANT,2021.2.3,59.90423709661102,
1,24,spatial,down,IC,R,,,,,,Block.xlsx,"你已经完成了第一个实验区组

请稍作休息


点击空格键进入下一个区组。",-1.5,0,-1.5,right,LLRLL.png,,,,,0,0,0,0,2,23,71,23,,,,,,,,,,,,,,,,,,,,,,,,,,,,,,,,,,,,,,,,,,,,,,,,,,,,,,,,,,,,,,,,217.92011470010038,218.32202110008802,218.30400780006312,218.4039934000466,218.80484780005645,None,None,0,,218.80484780005645,None,218.30400780006312,218.4039934000466,218.4039934000466,None,220.50715580000542,None,,,,,,,11043,001,2024_Mar_21_0816,ANT,2021.2.3,59.90423709661102,
1,19,spatial,up,IC,L,,,,,,Block.xlsx,"你已经完成了第一个实验区组

请稍作休息


点击空格键进入下一个区组。",1.5,0,1.5,left,RRLRR.png,,,,,0,0,0,0,3,0,72,18,,,,,,,,,,,,,,,,,,,,,,,,,,,,,,,,,,,,,,,,,,,,,,,,,,,,,,,,,,,,,,,,220.90793540002778,221.3084059000248,221.2926570000127,221.39281140000094,221.79354480002075,None,left,1,0.4715940000023693,221.79354480002075,None,221.2926570000127,221.39281140000094,221.39281140000094,None,222.29304730007425,None,,,,,,,11043,001,2024_Mar_21_0816,ANT,2021.2.3,59.90423709661102,
1,4,no,up,IC,R,,,,,,Block.xlsx,"你已经完成了第一个实验区组

请稍作休息


点击空格键进入下一个区组。",50,0,1.5,right,LLRLL.png,,,,,0,0,0,0,3,1,73,3,,,,,,,,,,,,,,,,,,,,,,,,,,,,,,,,,,,,,,,,,,,,,,,,,,,,,,,,,,,,,,,,222.69461390003562,223.09505980007816,223.07768560003024,223.17770430003293,223.58012719999533,None,right,1,0.5085024000145495,223.58012719999533,None,223.07768560003024,223.17770430003293,223.17770430003293,None,224.11274010001216,None,,,,,,,11043,001,2024_Mar_21_0816,ANT,2021.2.3,59.90423709661102,
1,24,spatial,down,IC,R,,,,,,Block.xlsx,"你已经完成了第一个实验区组

请稍作休息


点击空格键进入下一个区组。",-1.5,0,-1.5,right,LLRLL.png,,,,,0,0,0,0,3,2,74,23,,,,,,,,,,,,,,,,,,,,,,,,,,,,,,,,,,,,,,,,,,,,,,,,,,,,,,,,,,,,,,,,224.5131555000553,224.91487940005027,224.89726440003142,224.99820330005605,225.39916440006346,None,right,1,0.43436109996400774,225.39916440006346,None,224.89726440003142,224.99820330005605,224.99820330005605,None,225.86542500008363,None,,,,,,,11043,001,2024_Mar_21_0816,ANT,2021.2.3,59.90423709661102,
1,1,no,up,C,L,,,,,,Block.xlsx,"你已经完成了第一个实验区组

请稍作休息


点击空格键进入下一个区组。",50,0,1.5,left,LLLLL.png,,,,,0,0,0,0,3,3,75,0,,,,,,,,,,,,,,,,,,,,,,,,,,,,,,,,,,,,,,,,,,,,,,,,,,,,,,,,,,,,,,,,226.26591010007542,226.66630710009485,226.64990290009882,226.74987700011116,227.15079510002397,None,left,1,0.4589301999658346,227.15079510002397,None,226.64990290009882,226.74987700011116,226.74987700011116,None,227.63450270006433,None,,,,,,,11043,001,2024_Mar_21_0816,ANT,2021.2.3,59.90423709661102,
1,13,center,down,C,L,,,,,,Block.xlsx,"你已经完成了第一个实验区组

请稍作休息


点击空格键进入下一个区组。",0,50,-1.5,left,LLLLL.png,,,,,0,0,0,0,3,4,76,12,,,,,,,,,,,,,,,,,,,,,,,,,,,,,,,,,,,,,,,,,,,,,,,,,,,,,,,,,,,,,,,,228.03519310010597,228.43582930008415,228.4192308000056,228.51912930002436,228.91982420010027,None,left,1,0.4730000999988988,228.91982420010027,None,228.4192308000056,228.51912930002436,228.51912930002436,None,229.42070860008243,None,,,,,,,11043,001,2024_Mar_21_0816,ANT,2021.2.3,59.90423709661102,
1,7,no,down,IC,L,,,,,,Block.xlsx,"你已经完成了第一个实验区组

请稍作休息


点击空格键进入下一个区组。",50,0,-1.5,left,RRLRR.png,,,,,0,0,0,0,3,5,77,6,,,,,,,,,,,,,,,,,,,,,,,,,,,,,,,,,,,,,,,,,,,,,,,,,,,,,,,,,,,,,,,,229.82142100005876,230.2217365000397,230.2049837000668,230.30564490007237,230.70712120004464,None,left,1,0.5817075000377372,230.70712120004464,None,230.2049837000668,230.30564490007237,230.30564490007237,None,231.30664780002553,None,,,,,,,11043,001,2024_Mar_21_0816,ANT,2021.2.3,59.90423709661102,
1,1,no,up,C,L,,,,,,Block.xlsx,"你已经完成了第一个实验区组

请稍作休息


点击空格键进入下一个区组。",50,0,1.5,left,LLLLL.png,,,,,0,0,0,0,3,6,78,0,,,,,,,,,,,,,,,,,,,,,,,,,,,,,,,,,,,,,,,,,,,,,,,,,,,,,,,,,,,,,,,,231.70737030007876,232.10837200004607,232.0918052000925,232.1914720000932,232.59228710003663,None,left,1,0.4569998000515625,232.59228710003663,None,232.0918052000925,232.1914720000932,232.1914720000932,None,233.07698320003692,None,,,,,,,11043,001,2024_Mar_21_0816,ANT,2021.2.3,59.90423709661102,
1,5,no,down,C,L,,,,,,Block.xlsx,"你已经完成了第一个实验区组

请稍作休息


点击空格键进入下一个区组。",50,0,-1.5,left,LLLLL.png,,,,,0,0,0,0,3,7,79,4,,,,,,,,,,,,,,,,,,,,,,,,,,,,,,,,,,,,,,,,,,,,,,,,,,,,,,,,,,,,,,,,233.47648150008172,233.87909080006648,233.86046160000842,233.96125880000181,234.36133890005294,None,left,1,0.4161274000070989,234.36133890005294,None,233.86046160000842,233.96125880000181,233.96125880000181,None,234.79547630005982,None,,,,,,,11043,001,2024_Mar_21_0816,ANT,2021.2.3,59.90423709661102,
1,22,spatial,down,C,R,,,,,,Block.xlsx,"你已经完成了第一个实验区组

请稍作休息


点击空格键进入下一个区组。",-1.5,0,-1.5,right,RRRRR.png,,,,,0,0,0,0,3,8,80,21,,,,,,,,,,,,,,,,,,,,,,,,,,,,,,,,,,,,,,,,,,,,,,,,,,,,,,,,,,,,,,,,235.19590430008247,235.597496900009,235.57996730005834,235.68095550010912,236.08238880010322,None,right,1,0.5428049999754876,236.08238880010322,None,235.57996730005834,235.68095550010912,235.68095550010912,None,236.64849430008326,None,,,,,,,11043,001,2024_Mar_21_0816,ANT,2021.2.3,59.90423709661102,
1,23,spatial,down,IC,L,,,,,,Block.xlsx,"你已经完成了第一个实验区组

请稍作休息


点击空格键进入下一个区组。",-1.5,0,-1.5,left,RRLRR.png,,,,,0,0,0,0,3,9,81,22,,,,,,,,,,,,,,,,,,,,,,,,,,,,,,,,,,,,,,,,,,,,,,,,,,,,,,,,,,,,,,,,237.04871210001875,237.4499484000262,237.43270120001398,237.533014500048,237.9335084001068,None,left,1,0.4837231000419706,237.9335084001068,None,237.43270120001398,237.533014500048,237.533014500048,None,238.43410290009342,None,,,,,,,11043,001,2024_Mar_21_0816,ANT,2021.2.3,59.90423709661102,
1,22,spatial,down,C,R,,,,,,Block.xlsx,"你已经完成了第一个实验区组

请稍作休息


点击空格键进入下一个区组。",-1.5,0,-1.5,right,RRRRR.png,,,,,0,0,0,0,3,10,82,21,,,,,,,,,,,,,,,,,,,,,,,,,,,,,,,,,,,,,,,,,,,,,,,,,,,,,,,,,,,,,,,,238.83480140008032,239.2363654000219,239.21880140004214,239.32119850011077,239.7196465000743,None,right,1,0.449493300053291,239.7196465000743,None,239.21880140004214,239.32119850011077,239.32119850011077,None,240.18679800000973,None,,,,,,,11043,001,2024_Mar_21_0816,ANT,2021.2.3,59.90423709661102,
1,12,center,up,IC,R,,,,,,Block.xlsx,"你已经完成了第一个实验区组

请稍作休息


点击空格键进入下一个区组。",0,50,1.5,right,LLRLL.png,,,,,0,0,0,0,3,11,83,11,,,,,,,,,,,,,,,,,,,,,,,,,,,,,,,,,,,,,,,,,,,,,,,,,,,,,,,,,,,,,,,,240.58752990001813,240.9882598000113,240.97262460005004,241.0715386000229,241.4727202000795,None,right,1,0.4966284000547603,241.4727202000795,None,240.97262460005004,241.0715386000229,241.0715386000229,None,241.98949530010577,None,,,,,,,11043,001,2024_Mar_21_0816,ANT,2021.2.3,59.90423709661102,
1,21,spatial,down,C,L,,,,,,Block.xlsx,"你已经完成了第一个实验区组

请稍作休息


点击空格键进入下一个区组。",-1.5,0,-1.5,left,LLLLL.png,,,,,0,0,0,0,3,12,84,20,,,,,,,,,,,,,,,,,,,,,,,,,,,,,,,,,,,,,,,,,,,,,,,,,,,,,,,,,,,,,,,,242.3904139000224,242.79085480002686,242.77501570002642,242.8757995000342,243.2759544000728,None,left,1,0.39739459997508675,243.2759544000728,None,242.77501570002642,242.8757995000342,242.8757995000342,None,243.69216580002103,None,,,,,,,11043,001,2024_Mar_21_0816,ANT,2021.2.3,59.90423709661102,
1,6,no,down,C,R,,,,,,Block.xlsx,"你已经完成了第一个实验区组

请稍作休息


点击空格键进入下一个区组。",50,0,-1.5,right,RRRRR.png,,,,,0,0,0,0,3,13,85,5,,,,,,,,,,,,,,,,,,,,,,,,,,,,,,,,,,,,,,,,,,,,,,,,,,,,,,,,,,,,,,,,244.09253680007532,244.49422640004195,244.4767661000369,244.57688450010028,244.97828180005308,None,right,1,0.5591131000546739,244.97828180005308,None,244.4767661000369,244.57688450010028,244.57688450010028,None,245.56162440008484,None,,,,,,,11043,001,2024_Mar_21_0816,ANT,2021.2.3,59.90423709661102,
1,10,center,up,C,R,,,,,,Block.xlsx,"你已经完成了第一个实验区组

请稍作休息


点击空格键进入下一个区组。",0,50,1.5,right,RRRRR.png,,,,,0,0,0,0,3,14,86,9,,,,,,,,,,,,,,,,,,,,,,,,,,,,,,,,,,,,,,,,,,,,,,,,,,,,,,,,,,,,,,,,245.96237950003706,246.3642996000126,246.34602230007295,246.44646600005217,246.84777130000293,None,right,1,0.3696938999928534,246.84777130000293,None,246.34602230007295,246.44646600005217,246.44646600005217,None,247.2475442000432,None,,,,,,,11043,001,2024_Mar_21_0816,ANT,2021.2.3,59.90423709661102,
1,18,spatial,up,C,R,,,,,,Block.xlsx,"你已经完成了第一个实验区组

请稍作休息


点击空格键进入下一个区组。",1.5,0,1.5,right,RRRRR.png,,,,,0,0,0,0,3,15,87,17,,,,,,,,,,,,,,,,,,,,,,,,,,,,,,,,,,,,,,,,,,,,,,,,,,,,,,,,,,,,,,,,247.6481371000409,248.048629200086,248.0320169000188,248.1332296000328,248.5338422000641,None,right,1,0.39583409996703267,248.5338422000641,None,248.0320169000188,248.1332296000328,248.1332296000328,None,248.94932620006148,None,,,,,,,11043,001,2024_Mar_21_0816,ANT,2021.2.3,59.90423709661102,
1,13,center,down,C,L,,,,,,Block.xlsx,"你已经完成了第一个实验区组

请稍作休息


点击空格键进入下一个区组。",0,50,-1.5,left,LLLLL.png,,,,,0,0,0,0,3,16,88,12,,,,,,,,,,,,,,,,,,,,,,,,,,,,,,,,,,,,,,,,,,,,,,,,,,,,,,,,,,,,,,,,249.35071770008653,249.75178050005343,249.73473020002712,249.8351582000032,250.23528250004165,None,left,1,0.3821100000059232,250.23528250004165,None,249.73473020002712,249.8351582000032,249.8351582000032,None,250.63603230006993,None,,,,,,,11043,001,2024_Mar_21_0816,ANT,2021.2.3,59.90423709661102,
1,10,center,up,C,R,,,,,,Block.xlsx,"你已经完成了第一个实验区组

请稍作休息


点击空格键进入下一个区组。",0,50,1.5,right,RRRRR.png,,,,,0,0,0,0,3,17,89,9,,,,,,,,,,,,,,,,,,,,,,,,,,,,,,,,,,,,,,,,,,,,,,,,,,,,,,,,,,,,,,,,251.03720830008388,251.4382578000659,251.42051090009045,251.5220709000714,251.9218150000088,None,right,1,0.3758273998973891,251.9218150000088,None,251.42051090009045,251.5220709000714,251.5220709000714,None,252.32191180007067,None,,,,,,,11043,001,2024_Mar_21_0816,ANT,2021.2.3,59.90423709661102,
1,9,center,up,C,L,,,,,,Block.xlsx,"你已经完成了第一个实验区组

请稍作休息


点击空格键进入下一个区组。",0,50,1.5,left,LLLLL.png,,,,,0,0,0,0,3,18,90,8,,,,,,,,,,,,,,,,,,,,,,,,,,,,,,,,,,,,,,,,,,,,,,,,,,,,,,,,,,,,,,,,252.72241350007243,253.12428710004315,253.10655160003807,253.20691090007313,253.60799839999527,None,left,1,0.3696709999348968,253.60799839999527,None,253.10655160003807,253.20691090007313,253.20691090007313,None,254.0077240000246,None,,,,,,,11043,001,2024_Mar_21_0816,ANT,2021.2.3,59.90423709661102,
1,4,no,up,IC,R,,,,,,Block.xlsx,"你已经完成了第一个实验区组

请稍作休息


点击空格键进入下一个区组。",50,0,1.5,right,LLRLL.png,,,,,0,0,0,0,3,19,91,3,,,,,,,,,,,,,,,,,,,,,,,,,,,,,,,,,,,,,,,,,,,,,,,,,,,,,,,,,,,,,,,,254.40817629999947,254.80877500004135,254.7924384000944,254.89245530008338,255.29321060003713,None,right,1,0.4846471999771893,255.29321060003713,None,254.7924384000944,254.89245530008338,254.89245530008338,None,255.79371280001942,None,,,,,,,11043,001,2024_Mar_21_0816,ANT,2021.2.3,59.90423709661102,
1,19,spatial,up,IC,L,,,,,,Block.xlsx,"你已经完成了第一个实验区组

请稍作休息


点击空格键进入下一个区组。",1.5,0,1.5,left,RRLRR.png,,,,,0,0,0,0,3,20,92,18,,,,,,,,,,,,,,,,,,,,,,,,,,,,,,,,,,,,,,,,,,,,,,,,,,,,,,,,,,,,,,,,256.19436030008364,256.59479590004776,256.5784551000688,256.6786456000991,257.0794448000379,None,left,1,0.4584154000040144,257.0794448000379,None,256.5784551000688,256.6786456000991,256.6786456000991,None,257.5628159000771,None,,,,,,,11043,001,2024_Mar_21_0816,ANT,2021.2.3,59.90423709661102,
1,9,center,up,C,L,,,,,,Block.xlsx,"你已经完成了第一个实验区组

请稍作休息


点击空格键进入下一个区组。",0,50,1.5,left,LLLLL.png,,,,,0,0,0,0,3,21,93,8,,,,,,,,,,,,,,,,,,,,,,,,,,,,,,,,,,,,,,,,,,,,,,,,,,,,,,,,,,,,,,,,257.9635519000003,258.3642187000951,258.3476495000068,258.4479285000125,258.8482858000789,None,left,1,0.33737249998375773,258.8482858000789,None,258.3476495000068,258.4479285000125,258.4479285000125,None,259.2155755000422,None,,,,,,,11043,001,2024_Mar_21_0816,ANT,2021.2.3,59.90423709661102,
1,6,no,down,C,R,,,,,,Block.xlsx,"你已经完成了第一个实验区组

请稍作休息


点击空格键进入下一个区组。",50,0,-1.5,right,RRRRR.png,,,,,0,0,0,0,3,22,94,5,,,,,,,,,,,,,,,,,,,,,,,,,,,,,,,,,,,,,,,,,,,,,,,,,,,,,,,,,,,,,,,,259.61609610007145,260.01732730004005,260.0000288001029,260.10192850010935,260.50126580009237,None,right,1,0.4843327000271529,260.50126580009237,None,260.0000288001029,260.10192850010935,260.10192850010935,None,261.0015420001,None,,,,,,,11043,001,2024_Mar_21_0816,ANT,2021.2.3,59.90423709661102,
1,15,center,down,IC,L,,,,,,Block.xlsx,"你已经完成了第一个实验区组

请稍作休息


点击空格键进入下一个区组。",0,50,-1.5,left,RRLRR.png,,,,,0,0,0,0,3,23,95,14,,,,,,,,,,,,,,,,,,,,,,,,,,,,,,,,,,,,,,,,,,,,,,,,,,,,,,,,,,,,,,,,261.40208960010204,261.80349420011044,261.78603250009473,261.8867138000205,262.2880424000323,None,left,1,0.7460541999898851,262.2880424000323,None,261.78603250009473,261.8867138000205,261.8867138000205,None,263.05463620007504,None,,,,,,,11043,001,2024_Mar_21_0816,ANT,2021.2.3,59.90423709661102,
,,,,,,,,,,,Block.xlsx,"你已经完成了第一个实验区组

请稍作休息


点击空格键进入下一个区组。",,,,,,,,,,0,0,0,0,,,,,,,,,,,,,,,,,,,,,,,,,,,,,,,,,,,,,,,,,,,,,,,,,,,,,,,,,,,,,,,,,,,,,,,,,,,,,,,,,,,,,space,12.025684299995191,263.47244290006347,None,263.47244290006347,None,11043,001,2024_Mar_21_0816,ANT,2021.2.3,59.90423709661102,
1,18,spatial,up,C,R,,,,,,Block.xlsx,"你已经完成了整个实验（三个区组）。

请报告实验者已完成实验

非常感谢，再见！",1.5,0,1.5,right,RRRRR.png,,,,,0,1,1,1,0,0,0,17,,,,,,,,,,,,,,,,,,,,,,,,,,,,,,,,,,,,,,,,,,,,,,,,,,,,,,,,,,,,,,,,275.5400136000244,275.9416305000195,275.92547220003325,276.0416324000107,276.42507870006375,None,right,1,0.46615950006525964,276.42507870006375,None,275.92547220003325,276.0416324000107,276.0243808000814,None,276.9088046000106,None,,,,,,,11043,001,2024_Mar_21_0816,ANT,2021.2.3,59.90423709661102,
1,8,no,down,IC,R,,,,,,Block.xlsx,"你已经完成了整个实验（三个区组）。

请报告实验者已完成实验

非常感谢，再见！",50,0,-1.5,right,LLRLL.png,,,,,0,1,1,1,0,1,1,7,,,,,,,,,,,,,,,,,,,,,,,,,,,,,,,,,,,,,,,,,,,,,,,,,,,,,,,,,,,,,,,,277.3095456000883,277.7115528000286,277.6932683000341,277.79374220001046,278.1942331000464,None,right,1,0.6882319999858737,278.1942331000464,None,277.6932683000341,277.79374220001046,277.79374220001046,None,278.91202170006,None,,,,,,,11043,001,2024_Mar_21_0816,ANT,2021.2.3,59.90423709661102,
1,17,spatial,up,C,L,,,,,,Block.xlsx,"你已经完成了整个实验（三个区组）。

请报告实验者已完成实验

非常感谢，再见！",1.5,0,1.5,left,LLLLL.png,,,,,0,1,1,1,0,2,2,16,,,,,,,,,,,,,,,,,,,,,,,,,,,,,,,,,,,,,,,,,,,,,,,,,,,,,,,,,,,,,,,,279.31253790005576,279.7143788000103,279.6966057000682,279.7968238000758,280.19802440004423,None,left,1,0.38916390005033463,280.19802440004423,None,279.6966057000682,279.7968238000758,279.7968238000758,None,280.61431120010093,None,,,,,,,11043,001,2024_Mar_21_0816,ANT,2021.2.3,59.90423709661102,
1,15,center,down,IC,L,,,,,,Block.xlsx,"你已经完成了整个实验（三个区组）。

请报告实验者已完成实验

非常感谢，再见！",0,50,-1.5,left,RRLRR.png,,,,,0,1,1,1,0,3,3,14,,,,,,,,,,,,,,,,,,,,,,,,,,,,,,,,,,,,,,,,,,,,,,,,,,,,,,,,,,,,,,,,281.0148545000702,281.4176860000007,281.39972320001107,281.50206660002004,281.9006194000831,None,left,1,0.5896054999902844,281.9006194000831,None,281.39972320001107,281.50206660002004,281.50206660002004,None,282.5172319000121,None,,,,,,,11043,001,2024_Mar_21_0816,ANT,2021.2.3,59.90423709661102,
1,6,no,down,C,R,,,,,,Block.xlsx,"你已经完成了整个实验（三个区组）。

请报告实验者已完成实验

非常感谢，再见！",50,0,-1.5,right,RRRRR.png,,,,,0,1,1,1,0,4,4,5,,,,,,,,,,,,,,,,,,,,,,,,,,,,,,,,,,,,,,,,,,,,,,,,,,,,,,,,,,,,,,,,282.91819610004313,283.3186787000159,283.30231410008855,283.4017714000074,283.80267600005027,None,right,1,0.4719317000126466,283.80267600005027,None,283.30231410008855,283.4017714000074,283.4017714000074,None,284.30325170001015,None,,,,,,,11043,001,2024_Mar_21_0816,ANT,2021.2.3,59.90423709661102,
1,17,spatial,up,C,L,,,,,,Block.xlsx,"你已经完成了整个实验（三个区组）。

请报告实验者已完成实验

非常感谢，再见！",1.5,0,1.5,left,LLLLL.png,,,,,0,1,1,1,0,5,5,16,,,,,,,,,,,,,,,,,,,,,,,,,,,,,,,,,,,,,,,,,,,,,,,,,,,,,,,,,,,,,,,,284.7041258000536,285.1055464000674,285.08793920010794,285.18977640010417,285.59001860010903,None,left,1,0.37254819995723665,285.59001860010903,None,285.08793920010794,285.18977640010417,285.18977640010417,None,285.989009300014,None,,,,,,,11043,001,2024_Mar_21_0816,ANT,2021.2.3,59.90423709661102,
1,8,no,down,IC,R,,,,,,Block.xlsx,"你已经完成了整个实验（三个区组）。

请报告实验者已完成实验

非常感谢，再见！",50,0,-1.5,right,LLRLL.png,,,,,0,1,1,1,0,6,6,7,,,,,,,,,,,,,,,,,,,,,,,,,,,,,,,,,,,,,,,,,,,,,,,,,,,,,,,,,,,,,,,,286.39060680009425,286.79100590001326,286.7744998000562,286.87388610001653,287.2762944001006,None,right,1,0.41425309993792325,287.2762944001006,None,286.7744998000562,286.87388610001653,286.87388610001653,None,287.70912920008413,None,,,,,,,11043,001,2024_Mar_21_0816,ANT,2021.2.3,59.90423709661102,
1,24,spatial,down,IC,R,,,,,,Block.xlsx,"你已经完成了整个实验（三个区组）。

请报告实验者已完成实验

非常感谢，再见！",-1.5,0,-1.5,right,LLRLL.png,,,,,0,1,1,1,0,7,7,23,,,,,,,,,,,,,,,,,,,,,,,,,,,,,,,,,,,,,,,,,,,,,,,,,,,,,,,,,,,,,,,,288.1092459000647,288.51058770006057,288.49417489999905,288.59418820007704,288.99428100010846,None,right,1,0.6242299999576062,288.99428100010846,None,288.49417489999905,288.59418820007704,288.59418820007704,None,289.6460534000071,None,,,,,,,11043,001,2024_Mar_21_0816,ANT,2021.2.3,59.90423709661102,
1,14,center,down,C,R,,,,,,Block.xlsx,"你已经完成了整个实验（三个区组）。

请报告实验者已完成实验

非常感谢，再见！",0,50,-1.5,right,RRRRR.png,,,,,0,1,1,1,0,8,8,13,,,,,,,,,,,,,,,,,,,,,,,,,,,,,,,,,,,,,,,,,,,,,,,,,,,,,,,,,,,,,,,,290.045485700015,290.44814440002665,290.4292187000392,290.5296423000982,290.93008920003194,None,right,1,0.36865179997403175,290.93008920003194,None,290.4292187000392,290.5296423000982,290.5296423000982,None,291.31396510009654,None,,,,,,,11043,001,2024_Mar_21_0816,ANT,2021.2.3,59.90423709661102,
1,1,no,up,C,L,,,,,,Block.xlsx,"你已经完成了整个实验（三个区组）。

请报告实验者已完成实验

非常感谢，再见！",50,0,1.5,left,LLLLL.png,,,,,0,1,1,1,0,9,9,0,,,,,,,,,,,,,,,,,,,,,,,,,,,,,,,,,,,,,,,,,,,,,,,,,,,,,,,,,,,,,,,,291.7146595000522,292.1151769000571,292.09984630008694,292.1998169000726,292.5989996000426,None,left,1,0.4439731000456959,292.5989996000426,None,292.09984630008694,292.1998169000726,292.1998169000726,None,293.06652720004786,None,,,,,,,11043,001,2024_Mar_21_0816,ANT,2021.2.3,59.90423709661102,
1,24,spatial,down,IC,R,,,,,,Block.xlsx,"你已经完成了整个实验（三个区组）。

请报告实验者已完成实验

非常感谢，再见！",-1.5,0,-1.5,right,LLRLL.png,,,,,0,1,1,1,0,10,10,23,,,,,,,,,,,,,,,,,,,,,,,,,,,,,,,,,,,,,,,,,,,,,,,,,,,,,,,,,,,,,,,,293.4674776000902,293.86762770009227,293.85119549999945,293.9521858000662,294.351883299998,None,right,1,0.4187550999922678,294.351883299998,None,293.85119549999945,293.9521858000662,293.9521858000662,None,294.7856936000753,None,,,,,,,11043,001,2024_Mar_21_0816,ANT,2021.2.3,59.90423709661102,
1,21,spatial,down,C,L,,,,,,Block.xlsx,"你已经完成了整个实验（三个区组）。

请报告实验者已完成实验

非常感谢，再见！",-1.5,0,-1.5,left,LLLLL.png,,,,,0,1,1,1,0,11,11,20,,,,,,,,,,,,,,,,,,,,,,,,,,,,,,,,,,,,,,,,,,,,,,,,,,,,,,,,,,,,,,,,295.18707139999606,295.5879659000784,295.57034630002454,295.67248910001945,296.0712072000606,None,left,1,0.45182740001473576,296.0712072000606,None,295.57034630002454,295.67248910001945,295.67248910001945,None,296.5386224000249,None,,,,,,,11043,001,2024_Mar_21_0816,ANT,2021.2.3,59.90423709661102,
1,2,no,up,C,R,,,,,,Block.xlsx,"你已经完成了整个实验（三个区组）。

请报告实验者已完成实验

非常感谢，再见！",50,0,1.5,right,RRRRR.png,,,,,0,1,1,1,0,12,12,1,,,,,,,,,,,,,,,,,,,,,,,,,,,,,,,,,,,,,,,,,,,,,,,,,,,,,,,,,,,,,,,,296.9394377000863,297.3397135999985,297.324732100009,297.42412400001194,297.8246239,None,right,1,0.37031159992329776,297.8246239,None,297.324732100009,297.42412400001194,297.42412400001194,None,298.2242466000607,None,,,,,,,11043,001,2024_Mar_21_0816,ANT,2021.2.3,59.90423709661102,
1,2,no,up,C,R,,,,,,Block.xlsx,"你已经完成了整个实验（三个区组）。

请报告实验者已完成实验

非常感谢，再见！",50,0,1.5,right,RRRRR.png,,,,,0,1,1,1,0,13,13,1,,,,,,,,,,,,,,,,,,,,,,,,,,,,,,,,,,,,,,,,,,,,,,,,,,,,,,,,,,,,,,,,298.625104600098,299.0264334001113,299.0111351000378,299.1258461000398,299.51024000009056,None,right,1,0.428725800011307,299.51024000009056,None,299.0111351000378,299.1258461000398,299.109958200017,None,299.9602576000616,None,,,,,,,11043,001,2024_Mar_21_0816,ANT,2021.2.3,59.90423709661102,
1,24,spatial,down,IC,R,,,,,,Block.xlsx,"你已经完成了整个实验（三个区组）。

请报告实验者已完成实验

非常感谢，再见！",-1.5,0,-1.5,right,LLRLL.png,,,,,0,1,1,1,0,14,14,23,,,,,,,,,,,,,,,,,,,,,,,,,,,,,,,,,,,,,,,,,,,,,,,,,,,,,,,,,,,,,,,,300.3609178001061,300.76173490006477,300.7449050000869,300.84546550002415,301.2455893000588,None,right,1,0.4453137000091374,301.2455893000588,None,300.7449050000869,300.84546550002415,300.84546550002415,None,301.7127248001052,None,,,,,,,11043,001,2024_Mar_21_0816,ANT,2021.2.3,59.90423709661102,
1,2,no,up,C,R,,,,,,Block.xlsx,"你已经完成了整个实验（三个区组）。

请报告实验者已完成实验

非常感谢，再见！",50,0,1.5,right,RRRRR.png,,,,,0,1,1,1,0,15,15,1,,,,,,,,,,,,,,,,,,,,,,,,,,,,,,,,,,,,,,,,,,,,,,,,,,,,,,,,,,,,,,,,302.1136854001088,302.51414780004416,302.49816650000867,302.59759510005824,302.9999425000278,None,right,1,0.44334490003529936,302.9999425000278,None,302.49816650000867,302.59759510005824,302.59759510005824,None,303.46586660004687,None,,,,,,,11043,001,2024_Mar_21_0816,ANT,2021.2.3,59.90423709661102,
1,19,spatial,up,IC,L,,,,,,Block.xlsx,"你已经完成了整个实验（三个区组）。

请报告实验者已完成实验

非常感谢，再见！",1.5,0,1.5,left,RRLRR.png,,,,,0,1,1,1,0,16,16,18,,,,,,,,,,,,,,,,,,,,,,,,,,,,,,,,,,,,,,,,,,,,,,,,,,,,,,,,,,,,,,,,303.86725800007116,304.26772550004534,304.2504161000252,304.3502475999994,304.7509245000547,None,left,1,0.45978159992955625,304.7509245000547,None,304.2504161000252,304.3502475999994,304.3502475999994,None,305.23483309999574,None,,,,,,,11043,001,2024_Mar_21_0816,ANT,2021.2.3,59.90423709661102,
1,23,spatial,down,IC,L,,,,,,Block.xlsx,"你已经完成了整个实验（三个区组）。

请报告实验者已完成实验

非常感谢，再见！",-1.5,0,-1.5,left,RRLRR.png,,,,,0,1,1,1,0,17,17,22,,,,,,,,,,,,,,,,,,,,,,,,,,,,,,,,,,,,,,,,,,,,,,,,,,,,,,,,,,,,,,,,305.6353309000842,306.03634940006305,306.01981369999703,306.11974460002966,306.5200766000198,None,left,1,0.35559839999768883,306.5200766000198,None,306.01981369999703,306.11974460002966,306.11974460002966,None,306.90405640006065,None,,,,,,,11043,001,2024_Mar_21_0816,ANT,2021.2.3,59.90423709661102,
1,11,center,up,IC,L,,,,,,Block.xlsx,"你已经完成了整个实验（三个区组）。

请报告实验者已完成实验

非常感谢，再见！",0,50,1.5,left,RRLRR.png,,,,,0,1,1,1,0,18,18,10,,,,,,,,,,,,,,,,,,,,,,,,,,,,,,,,,,,,,,,,,,,,,,,,,,,,,,,,,,,,,,,,307.3047263000626,307.7060913000023,307.6885512000881,307.78990560001694,308.19095030007884,None,left,1,0.38095080002676696,308.19095030007884,None,307.6885512000881,307.78990560001694,307.78990560001694,None,308.589978300035,None,,,,,,,11043,001,2024_Mar_21_0816,ANT,2021.2.3,59.90423709661102,
1,7,no,down,IC,L,,,,,,Block.xlsx,"你已经完成了整个实验（三个区组）。

请报告实验者已完成实验

非常感谢，再见！",50,0,-1.5,left,RRLRR.png,,,,,0,1,1,1,0,19,19,6,,,,,,,,,,,,,,,,,,,,,,,,,,,,,,,,,,,,,,,,,,,,,,,,,,,,,,,,,,,,,,,,308.99075170001015,309.3933082000585,309.3750145001104,309.4749515000731,309.8758018000517,None,left,1,0.4799137000227347,309.8758018000517,None,309.3750145001104,309.4749515000731,309.4749515000731,None,310.37597190006636,None,,,,,,,11043,001,2024_Mar_21_0816,ANT,2021.2.3,59.90423709661102,
1,9,center,up,C,L,,,,,,Block.xlsx,"你已经完成了整个实验（三个区组）。

请报告实验者已完成实验

非常感谢，再见！",0,50,1.5,left,LLLLL.png,,,,,0,1,1,1,0,20,20,8,,,,,,,,,,,,,,,,,,,,,,,,,,,,,,,,,,,,,,,,,,,,,,,,,,,,,,,,,,,,,,,,310.7767192000756,311.1784392000409,311.1604435000336,311.2605152000906,311.6614285000833,None,left,1,0.3577108000172302,311.6614285000833,None,311.1604435000336,311.2605152000906,311.2605152000906,None,312.0450308000436,None,,,,,,,11043,001,2024_Mar_21_0816,ANT,2021.2.3,59.90423709661102,
1,5,no,down,C,L,,,,,,Block.xlsx,"你已经完成了整个实验（三个区组）。

请报告实验者已完成实验

非常感谢，再见！",50,0,-1.5,left,LLLLL.png,,,,,0,1,1,1,0,21,21,4,,,,,,,,,,,,,,,,,,,,,,,,,,,,,,,,,,,,,,,,,,,,,,,,,,,,,,,,,,,,,,,,312.4458305001026,312.84663060004823,312.83028140000533,312.93156320007984,313.3322631000774,None,left,1,0.3909140999894589,313.3322631000774,None,312.83028140000533,312.93156320007984,312.93156320007984,None,313.74774800008163,None,,,,,,,11043,001,2024_Mar_21_0816,ANT,2021.2.3,59.90423709661102,
1,17,spatial,up,C,L,,,,,,Block.xlsx,"你已经完成了整个实验（三个区组）。

请报告实验者已完成实验

非常感谢，再见！",1.5,0,1.5,left,LLLLL.png,,,,,0,1,1,1,0,22,22,16,,,,,,,,,,,,,,,,,,,,,,,,,,,,,,,,,,,,,,,,,,,,,,,,,,,,,,,,,,,,,,,,314.14853490004316,314.5503784000175,314.53253290010616,314.6325207001064,315.0330598000437,None,left,1,0.33819190005306154,315.0330598000437,None,314.53253290010616,314.6325207001064,314.6325207001064,None,315.4009821000509,None,,,,,,,11043,001,2024_Mar_21_0816,ANT,2021.2.3,59.90423709661102,
1,15,center,down,IC,L,,,,,,Block.xlsx,"你已经完成了整个实验（三个区组）。

请报告实验者已完成实验

非常感谢，再见！",0,50,-1.5,left,RRLRR.png,,,,,0,1,1,1,0,23,23,14,,,,,,,,,,,,,,,,,,,,,,,,,,,,,,,,,,,,,,,,,,,,,,,,,,,,,,,,,,,,,,,,315.802292700042,316.20153020008,316.18484020000324,316.28531860001385,316.6854516000021,None,left,1,0.3735970000270754,316.6854516000021,None,316.18484020000324,316.28531860001385,316.28531860001385,None,317.0859642000869,None,,,,,,,11043,001,2024_Mar_21_0816,ANT,2021.2.3,59.90423709661102,
1,14,center,down,C,R,,,,,,Block.xlsx,"你已经完成了整个实验（三个区组）。

请报告实验者已完成实验

非常感谢，再见！",0,50,-1.5,right,RRRRR.png,,,,,0,1,1,1,1,0,24,13,,,,,,,,,,,,,,,,,,,,,,,,,,,,,,,,,,,,,,,,,,,,,,,,,,,,,,,,,,,,,,,,317.4867219000589,317.888403100078,317.8707603000803,317.9714379000943,318.3715582001023,None,right,1,0.5761030000867322,318.3715582001023,None,317.8707603000803,317.9714379000943,317.9714379000943,None,318.97220880002715,None,,,,,,,11043,001,2024_Mar_21_0816,ANT,2021.2.3,59.90423709661102,
1,21,spatial,down,C,L,,,,,,Block.xlsx,"你已经完成了整个实验（三个区组）。

请报告实验者已完成实验

非常感谢，再见！",-1.5,0,-1.5,left,LLLLL.png,,,,,0,1,1,1,1,1,25,20,,,,,,,,,,,,,,,,,,,,,,,,,,,,,,,,,,,,,,,,,,,,,,,,,,,,,,,,,,,,,,,,319.3729532000143,319.7757013000082,319.75701210007537,319.8571601000149,320.25837620010134,None,left,1,0.4733007999602705,320.25837620010134,None,319.75701210007537,319.8571601000149,319.8571601000149,None,320.75827190000564,None,,,,,,,11043,001,2024_Mar_21_0816,ANT,2021.2.3,59.90423709661102,
1,13,center,down,C,L,,,,,,Block.xlsx,"你已经完成了整个实验（三个区组）。

请报告实验者已完成实验

非常感谢，再见！",0,50,-1.5,left,LLLLL.png,,,,,0,1,1,1,1,2,26,12,,,,,,,,,,,,,,,,,,,,,,,,,,,,,,,,,,,,,,,,,,,,,,,,,,,,,,,,,,,,,,,,321.1589067000896,321.56166210002266,321.5430493000895,321.64482070005033,322.0454533000011,None,left,1,0.41394530003890395,322.0454533000011,None,321.5430493000895,321.64482070005033,321.64482070005033,None,322.477475300082,None,,,,,,,11043,001,2024_Mar_21_0816,ANT,2021.2.3,59.90423709661102,
1,22,spatial,down,C,R,,,,,,Block.xlsx,"你已经完成了整个实验（三个区组）。

请报告实验者已完成实验

非常感谢，再见！",-1.5,0,-1.5,right,RRRRR.png,,,,,0,1,1,1,1,3,27,21,,,,,,,,,,,,,,,,,,,,,,,,,,,,,,,,,,,,,,,,,,,,,,,,,,,,,,,,,,,,,,,,322.8784670000896,323.27905510005075,323.263306900044,323.36234640004113,323.7644209000282,None,right,1,0.4230771000729874,323.7644209000282,None,323.263306900044,323.36234640004113,323.36234640004113,None,324.21406250004657,None,,,,,,,11043,001,2024_Mar_21_0816,ANT,2021.2.3,59.90423709661102,
1,23,spatial,down,IC,L,,,,,,Block.xlsx,"你已经完成了整个实验（三个区组）。

请报告实验者已完成实验

非常感谢，再见！",-1.5,0,-1.5,left,RRLRR.png,,,,,0,1,1,1,1,4,28,22,,,,,,,,,,,,,,,,,,,,,,,,,,,,,,,,,,,,,,,,,,,,,,,,,,,,,,,,,,,,,,,,324.6143081000773,325.01488940010313,324.99868450011127,325.0991414000746,325.49884860008024,None,left,1,0.536574500030838,325.49884860008024,None,324.99868450011127,325.0991414000746,325.0991414000746,None,326.0663957000943,None,,,,,,,11043,001,2024_Mar_21_0816,ANT,2021.2.3,59.90423709661102,
1,10,center,up,C,R,,,,,,Block.xlsx,"你已经完成了整个实验（三个区组）。

请报告实验者已完成实验

非常感谢，再见！",0,50,1.5,right,RRRRR.png,,,,,0,1,1,1,1,5,29,9,,,,,,,,,,,,,,,,,,,,,,,,,,,,,,,,,,,,,,,,,,,,,,,,,,,,,,,,,,,,,,,,326.46684280002955,326.8681833000155,326.85172250005417,326.951834000065,327.3519635000266,None,right,1,0.45258119993377477,327.3519635000266,None,326.85172250005417,326.951834000065,326.951834000065,None,327.836583300028,None,,,,,,,11043,001,2024_Mar_21_0816,ANT,2021.2.3,59.90423709661102,
1,13,center,down,C,L,,,,,,Block.xlsx,"你已经完成了整个实验（三个区组）。

请报告实验者已完成实验

非常感谢，再见！",0,50,-1.5,left,LLLLL.png,,,,,0,1,1,1,1,6,30,12,,,,,,,,,,,,,,,,,,,,,,,,,,,,,,,,,,,,,,,,,,,,,,,,,,,,,,,,,,,,,,,,328.2363224000437,328.63778870005626,328.6202755999984,328.72057390003465,329.1215328000253,None,left,1,0.4103297999827191,329.1215328000253,None,328.6202755999984,328.72057390003465,328.72057390003465,None,329.5550156000536,None,,,,,,,11043,001,2024_Mar_21_0816,ANT,2021.2.3,59.90423709661102,
1,1,no,up,C,L,,,,,,Block.xlsx,"你已经完成了整个实验（三个区组）。

请报告实验者已完成实验

非常感谢，再见！",50,0,1.5,left,LLLLL.png,,,,,0,1,1,1,1,7,31,0,,,,,,,,,,,,,,,,,,,,,,,,,,,,,,,,,,,,,,,,,,,,,,,,,,,,,,,,,,,,,,,,329.9554153000936,330.3559257000452,330.33961490006186,330.4399957000278,330.8402341000037,None,left,1,0.4032657000934705,330.8402341000037,None,330.33961490006186,330.4399957000278,330.4399957000278,None,331.27407280006446,None,,,,,,,11043,001,2024_Mar_21_0816,ANT,2021.2.3,59.90423709661102,
1,19,spatial,up,IC,L,,,,,,Block.xlsx,"你已经完成了整个实验（三个区组）。

请报告实验者已完成实验

非常感谢，再见！",1.5,0,1.5,left,RRLRR.png,,,,,0,1,1,1,1,8,32,18,,,,,,,,,,,,,,,,,,,,,,,,,,,,,,,,,,,,,,,,,,,,,,,,,,,,,,,,,,,,,,,,331.67468030005693,332.0773993000621,332.0590049000457,332.16046070004813,332.55959590000566,None,left,1,0.3401450999081135,332.55959590000566,None,332.0590049000457,332.16046070004813,332.16046070004813,None,332.926520200097,None,,,,,,,11043,001,2024_Mar_21_0816,ANT,2021.2.3,59.90423709661102,
1,8,no,down,IC,R,,,,,,Block.xlsx,"你已经完成了整个实验（三个区组）。

请报告实验者已完成实验

非常感谢，再见！",50,0,-1.5,right,LLRLL.png,,,,,0,1,1,1,1,9,33,7,,,,,,,,,,,,,,,,,,,,,,,,,,,,,,,,,,,,,,,,,,,,,,,,,,,,,,,,,,,,,,,,333.32719480001833,333.72892710007727,333.7117613001028,333.81272550008725,334.2118296000408,None,right,1,0.5759281000355259,334.2118296000408,None,333.7117613001028,333.81272550008725,333.81272550008725,None,334.8127302000066,None,,,,,,,11043,001,2024_Mar_21_0816,ANT,2021.2.3,59.90423709661102,
1,1,no,up,C,L,,,,,,Block.xlsx,"你已经完成了整个实验（三个区组）。

请报告实验者已完成实验

非常感谢，再见！",50,0,1.5,left,LLLLL.png,,,,,0,1,1,1,1,10,34,0,,,,,,,,,,,,,,,,,,,,,,,,,,,,,,,,,,,,,,,,,,,,,,,,,,,,,,,,,,,,,,,,335.2134752999991,335.61511550005525,335.59783570002764,335.6983089999994,336.0981274000369,None,left,1,0.3694779999786988,336.0981274000369,None,335.59783570002764,335.6983089999994,335.6983089999994,None,336.498682100093,None,,,,,,,11043,001,2024_Mar_21_0816,ANT,2021.2.3,59.90423709661102,
1,22,spatial,down,C,R,,,,,,Block.xlsx,"你已经完成了整个实验（三个区组）。

请报告实验者已完成实验

非常感谢，再见！",-1.5,0,-1.5,right,RRRRR.png,,,,,0,1,1,1,1,11,35,21,,,,,,,,,,,,,,,,,,,,,,,,,,,,,,,,,,,,,,,,,,,,,,,,,,,,,,,,,,,,,,,,336.8992315001087,337.30063800001517,337.28391170001123,337.38408770004753,337.7842218000442,None,right,1,0.3556845000712201,337.7842218000442,None,337.28391170001123,337.38408770004753,337.38408770004753,None,338.1678707000101,None,,,,,,,11043,001,2024_Mar_21_0816,ANT,2021.2.3,59.90423709661102,
1,18,spatial,up,C,R,,,,,,Block.xlsx,"你已经完成了整个实验（三个区组）。

请报告实验者已完成实验

非常感谢，再见！",1.5,0,1.5,right,RRRRR.png,,,,,0,1,1,1,1,12,36,17,,,,,,,,,,,,,,,,,,,,,,,,,,,,,,,,,,,,,,,,,,,,,,,,,,,,,,,,,,,,,,,,338.5690489000408,338.96967350004707,338.95343250001315,339.05459380010143,339.4533247000072,None,right,1,0.4386172000085935,339.4533247000072,None,338.95343250001315,339.05459380010143,339.05459380010143,None,339.9212706000544,None,,,,,,,11043,001,2024_Mar_21_0816,ANT,2021.2.3,59.90423709661102,
1,1,no,up,C,L,,,,,,Block.xlsx,"你已经完成了整个实验（三个区组）。

请报告实验者已完成实验

非常感谢，再见！",50,0,1.5,left,LLLLL.png,,,,,0,1,1,1,1,13,37,0,,,,,,,,,,,,,,,,,,,,,,,,,,,,,,,,,,,,,,,,,,,,,,,,,,,,,,,,,,,,,,,,340.3211555000162,340.72224430006463,340.70587280008476,340.8051279000938,341.2058365000412,None,left,1,0.5421138000674546,341.2058365000412,None,340.70587280008476,340.8051279000938,340.8051279000938,None,341.77355510008056,None,,,,,,,11043,001,2024_Mar_21_0816,ANT,2021.2.3,59.90423709661102,
1,10,center,up,C,R,,,,,,Block.xlsx,"你已经完成了整个实验（三个区组）。

请报告实验者已完成实验

非常感谢，再见！",0,50,1.5,right,RRRRR.png,,,,,0,1,1,1,1,14,38,9,,,,,,,,,,,,,,,,,,,,,,,,,,,,,,,,,,,,,,,,,,,,,,,,,,,,,,,,,,,,,,,,342.17390640010126,342.5766827000771,342.55829300009646,342.65792050003074,343.0588108000811,None,right,1,0.4413692000089213,343.0588108000811,None,342.55829300009646,342.65792050003074,342.65792050003074,None,343.52606270008255,None,,,,,,,11043,001,2024_Mar_21_0816,ANT,2021.2.3,59.90423709661102,
1,20,spatial,up,IC,R,,,,,,Block.xlsx,"你已经完成了整个实验（三个区组）。

请报告实验者已完成实验

非常感谢，再见！",1.5,0,1.5,right,LLRLL.png,,,,,0,1,1,1,1,15,39,19,,,,,,,,,,,,,,,,,,,,,,,,,,,,,,,,,,,,,,,,,,,,,,,,,,,,,,,,,,,,,,,,343.9265704000136,344.32840170001145,344.31044820009265,344.410838300013,344.8119639001088,None,right,1,0.4080443000420928,344.8119639001088,None,344.31044820009265,344.410838300013,344.410838300013,None,345.24554380006157,None,,,,,,,11043,001,2024_Mar_21_0816,ANT,2021.2.3,59.90423709661102,
1,19,spatial,up,IC,L,,,,,,Block.xlsx,"你已经完成了整个实验（三个区组）。

请报告实验者已完成实验

非常感谢，再见！",1.5,0,1.5,left,RRLRR.png,,,,,0,1,1,1,1,16,40,18,,,,,,,,,,,,,,,,,,,,,,,,,,,,,,,,,,,,,,,,,,,,,,,,,,,,,,,,,,,,,,,,345.64574770000763,346.04879150004126,346.0298506000545,346.1308537001023,346.530619300087,None,left,1,0.4345403000479564,346.530619300087,None,346.0298506000545,346.1308537001023,346.1308537001023,None,346.9811207000166,None,,,,,,,11043,001,2024_Mar_21_0816,ANT,2021.2.3,59.90423709661102,
1,16,center,down,IC,R,,,,,,Block.xlsx,"你已经完成了整个实验（三个区组）。

请报告实验者已完成实验

非常感谢，再见！",0,50,-1.5,right,LLRLL.png,,,,,0,1,1,1,1,17,41,15,,,,,,,,,,,,,,,,,,,,,,,,,,,,,,,,,,,,,,,,,,,,,,,,,,,,,,,,,,,,,,,,347.38175650010817,347.78299390000757,347.76643390010577,347.8663516000379,348.2673174000811,None,right,1,0.48060759995132685,348.2673174000811,None,347.76643390010577,347.8663516000379,347.8663516000379,None,348.767271000077,None,,,,,,,11043,001,2024_Mar_21_0816,ANT,2021.2.3,59.90423709661102,
1,16,center,down,IC,R,,,,,,Block.xlsx,"你已经完成了整个实验（三个区组）。

请报告实验者已完成实验

非常感谢，再见！",0,50,-1.5,right,LLRLL.png,,,,,0,1,1,1,1,18,42,15,,,,,,,,,,,,,,,,,,,,,,,,,,,,,,,,,,,,,,,,,,,,,,,,,,,,,,,,,,,,,,,,349.1679251000751,349.5685351000866,349.5521548000397,349.65250399999786,350.05300770001486,None,right,1,0.6553411000641063,350.05300770001486,None,349.5521548000397,349.65250399999786,349.65250399999786,None,350.73693940008525,None,,,,,,,11043,001,2024_Mar_21_0816,ANT,2021.2.3,59.90423709661102,
1,12,center,up,IC,R,,,,,,Block.xlsx,"你已经完成了整个实验（三个区组）。

请报告实验者已完成实验

非常感谢，再见！",0,50,1.5,right,LLRLL.png,,,,,0,1,1,1,1,19,43,11,,,,,,,,,,,,,,,,,,,,,,,,,,,,,,,,,,,,,,,,,,,,,,,,,,,,,,,,,,,,,,,,351.1374466000125,351.5380181000801,351.52211040002294,351.62152880011126,352.02273030008655,None,right,1,0.41317770001478493,352.02273030008655,None,351.52211040002294,351.62152880011126,351.62152880011126,None,352.4561402000254,None,,,,,,,11043,001,2024_Mar_21_0816,ANT,2021.2.3,59.90423709661102,
1,8,no,down,IC,R,,,,,,Block.xlsx,"你已经完成了整个实验（三个区组）。

请报告实验者已完成实验

非常感谢，再见！",50,0,-1.5,right,LLRLL.png,,,,,0,1,1,1,1,20,44,7,,,,,,,,,,,,,,,,,,,,,,,,,,,,,,,,,,,,,,,,,,,,,,,,,,,,,,,,,,,,,,,,352.8564641000703,353.257252600044,353.2406416001031,353.34039780008607,353.74236410006415,None,left,0,0.5016751000657678,353.74236410006415,None,353.2406416001031,353.34039780008607,353.34039780008607,None,354.25877610000316,None,,,,,,,11043,001,2024_Mar_21_0816,ANT,2021.2.3,59.90423709661102,
1,12,center,up,IC,R,,,,,,Block.xlsx,"你已经完成了整个实验（三个区组）。

请报告实验者已完成实验

非常感谢，再见！",0,50,1.5,right,LLRLL.png,,,,,0,1,1,1,1,21,45,11,,,,,,,,,,,,,,,,,,,,,,,,,,,,,,,,,,,,,,,,,,,,,,,,,,,,,,,,,,,,,,,,354.6595675999997,355.0600449000485,355.0433331000386,355.1434560000198,355.5440272000851,None,right,1,0.34810139995533973,355.5440272000851,None,355.0433331000386,355.1434560000198,355.1434560000198,None,355.9111562001053,None,,,,,,,11043,001,2024_Mar_21_0816,ANT,2021.2.3,59.90423709661102,
1,7,no,down,IC,L,,,,,,Block.xlsx,"你已经完成了整个实验（三个区组）。

请报告实验者已完成实验

非常感谢，再见！",50,0,-1.5,left,RRLRR.png,,,,,0,1,1,1,1,22,46,6,,,,,,,,,,,,,,,,,,,,,,,,,,,,,,,,,,,,,,,,,,,,,,,,,,,,,,,,,,,,,,,,356.31206760008354,356.7124694000231,356.6958993000444,356.79702779999934,357.1966245000949,None,left,1,0.5918113000225276,357.1966245000949,None,356.6958993000444,356.79702779999934,356.79702779999934,None,357.8145740000764,None,,,,,,,11043,001,2024_Mar_21_0816,ANT,2021.2.3,59.90423709661102,
1,11,center,up,IC,L,,,,,,Block.xlsx,"你已经完成了整个实验（三个区组）。

请报告实验者已完成实验

非常感谢，再见！",0,50,1.5,left,RRLRR.png,,,,,0,1,1,1,1,23,47,10,,,,,,,,,,,,,,,,,,,,,,,,,,,,,,,,,,,,,,,,,,,,,,,,,,,,,,,,,,,,,,,,358.21498390007764,358.61630670004524,358.59842510009184,358.7002459000796,359.1008107000962,None,left,1,0.4716669999761507,359.1008107000962,None,358.59842510009184,358.7002459000796,358.7002459000796,None,359.6005136000458,None,,,,,,,11043,001,2024_Mar_21_0816,ANT,2021.2.3,59.90423709661102,
1,4,no,up,IC,R,,,,,,Block.xlsx,"你已经完成了整个实验（三个区组）。

请报告实验者已完成实验

非常感谢，再见！",50,0,1.5,right,LLRLL.png,,,,,0,1,1,1,2,0,48,3,,,,,,,,,,,,,,,,,,,,,,,,,,,,,,,,,,,,,,,,,,,,,,,,,,,,,,,,,,,,,,,,360.001506300061,360.40155380009674,360.3847105000168,360.48534120002296,360.8855860000476,None,right,1,0.5026726999785751,360.8855860000476,None,360.3847105000168,360.48534120002296,360.48534120002296,None,361.4196057000663,None,,,,,,,11043,001,2024_Mar_21_0816,ANT,2021.2.3,59.90423709661102,
1,3,no,up,IC,L,,,,,,Block.xlsx,"你已经完成了整个实验（三个区组）。

请报告实验者已完成实验

非常感谢，再见！",50,0,1.5,left,RRLRR.png,,,,,0,1,1,1,2,1,49,2,,,,,,,,,,,,,,,,,,,,,,,,,,,,,,,,,,,,,,,,,,,,,,,,,,,,,,,,,,,,,,,,361.82033410004806,362.2222227000166,362.2041783001041,362.3054733000463,362.70616650010925,None,left,1,0.47455299994908273,362.70616650010925,None,362.2041783001041,362.3054733000463,362.3054733000463,None,363.20567750011105,None,,,,,,,11043,001,2024_Mar_21_0816,ANT,2021.2.3,59.90423709661102,
1,9,center,up,C,L,,,,,,Block.xlsx,"你已经完成了整个实验（三个区组）。

请报告实验者已完成实验

非常感谢，再见！",0,50,1.5,left,LLLLL.png,,,,,0,1,1,1,2,2,50,8,,,,,,,,,,,,,,,,,,,,,,,,,,,,,,,,,,,,,,,,,,,,,,,,,,,,,,,,,,,,,,,,363.60608749999665,364.00745250005275,363.9902287001023,364.0899951000465,364.490865400061,None,left,1,0.47353649989236146,364.490865400061,None,363.9902287001023,364.0899951000465,364.0899951000465,None,364.9917728001019,None,,,,,,,11043,001,2024_Mar_21_0816,ANT,2021.2.3,59.90423709661102,
1,10,center,up,C,R,,,,,,Block.xlsx,"你已经完成了整个实验（三个区组）。

请报告实验者已完成实验

非常感谢，再见！",0,50,1.5,right,RRRRR.png,,,,,0,1,1,1,2,3,51,9,,,,,,,,,,,,,,,,,,,,,,,,,,,,,,,,,,,,,,,,,,,,,,,,,,,,,,,,,,,,,,,,365.3922832000535,365.79283360007685,365.77616050001234,365.8778215000639,366.2770025000209,None,right,1,0.4394694999791682,366.2770025000209,None,365.77616050001234,365.8778215000639,365.8778215000639,None,366.7441981000593,None,,,,,,,11043,001,2024_Mar_21_0816,ANT,2021.2.3,59.90423709661102,
1,6,no,down,C,R,,,,,,Block.xlsx,"你已经完成了整个实验（三个区组）。

请报告实验者已完成实验

非常感谢，再见！",50,0,-1.5,right,RRRRR.png,,,,,0,1,1,1,2,4,52,5,,,,,,,,,,,,,,,,,,,,,,,,,,,,,,,,,,,,,,,,,,,,,,,,,,,,,,,,,,,,,,,,367.1453579000663,367.5458051000023,367.52881760010496,367.6294449000852,368.0303264000686,None,right,1,0.40680280001834035,368.0303264000686,None,367.52881760010496,367.6294449000852,367.6294449000852,None,368.46345140004996,None,,,,,,,11043,001,2024_Mar_21_0816,ANT,2021.2.3,59.90423709661102,
1,19,spatial,up,IC,L,,,,,,Block.xlsx,"你已经完成了整个实验（三个区组）。

请报告实验者已完成实验

非常感谢，再见！",1.5,0,1.5,left,RRLRR.png,,,,,0,1,1,1,2,5,53,18,,,,,,,,,,,,,,,,,,,,,,,,,,,,,,,,,,,,,,,,,,,,,,,,,,,,,,,,,,,,,,,,368.8640808000928,369.264798700111,369.24902340001427,369.34835680003744,369.7507592000766,None,left,1,0.47003480000421405,369.7507592000766,None,369.24902340001427,369.34835680003744,369.34835680003744,None,370.24975280009676,None,,,,,,,11043,001,2024_Mar_21_0816,ANT,2021.2.3,59.90423709661102,
1,3,no,up,IC,L,,,,,,Block.xlsx,"你已经完成了整个实验（三个区组）。

请报告实验者已完成实验

非常感谢，再见！",50,0,1.5,left,RRLRR.png,,,,,0,1,1,1,2,6,54,2,,,,,,,,,,,,,,,,,,,,,,,,,,,,,,,,,,,,,,,,,,,,,,,,,,,,,,,,,,,,,,,,370.6501824000152,371.05205200007185,371.0338838000316,371.1342316000955,371.53563870000653,None,left,1,0.44509920000564307,371.53563870000653,None,371.0338838000316,371.1342316000955,371.1342316000955,None,372.002123100101,None,,,,,,,11043,001,2024_Mar_21_0816,ANT,2021.2.3,59.90423709661102,
1,12,center,up,IC,R,,,,,,Block.xlsx,"你已经完成了整个实验（三个区组）。

请报告实验者已完成实验

非常感谢，再见！",0,50,1.5,right,LLRLL.png,,,,,0,1,1,1,2,7,55,11,,,,,,,,,,,,,,,,,,,,,,,,,,,,,,,,,,,,,,,,,,,,,,,,,,,,,,,,,,,,,,,,372.4033650000347,372.80420900008176,372.7876854001079,372.8874360000482,373.2875899000792,None,right,1,0.44535980001091957,373.2875899000792,None,372.7876854001079,372.8874360000482,372.8874360000482,None,373.7549870000221,None,,,,,,,11043,001,2024_Mar_21_0816,ANT,2021.2.3,59.90423709661102,
1,23,spatial,down,IC,L,,,,,,Block.xlsx,"你已经完成了整个实验（三个区组）。

请报告实验者已完成实验

非常感谢，再见！",-1.5,0,-1.5,left,RRLRR.png,,,,,0,1,1,1,2,8,56,22,,,,,,,,,,,,,,,,,,,,,,,,,,,,,,,,,,,,,,,,,,,,,,,,,,,,,,,,,,,,,,,,374.1554795000702,374.5565405000234,374.53931310004555,374.64030920004006,375.0425333000021,None,left,1,0.47419649991206825,375.0425333000021,None,374.53931310004555,374.64030920004006,374.64030920004006,None,375.54091050010175,None,,,,,,,11043,001,2024_Mar_21_0816,ANT,2021.2.3,59.90423709661102,
1,22,spatial,down,C,R,,,,,,Block.xlsx,"你已经完成了整个实验（三个区组）。

请报告实验者已完成实验

非常感谢，再见！",-1.5,0,-1.5,right,RRRRR.png,,,,,0,1,1,1,2,9,57,21,,,,,,,,,,,,,,,,,,,,,,,,,,,,,,,,,,,,,,,,,,,,,,,,,,,,,,,,,,,,,,,,375.94159270008095,376.3424077000236,376.3263333000941,376.4269981000107,376.8260599001078,None,right,1,0.49907520005945116,376.8260599001078,None,376.3263333000941,376.4269981000107,376.4269981000107,None,377.343442200101,None,,,,,,,11043,001,2024_Mar_21_0816,ANT,2021.2.3,59.90423709661102,
1,17,spatial,up,C,L,,,,,,Block.xlsx,"你已经完成了整个实验（三个区组）。

请报告实验者已完成实验

非常感谢，再见！",1.5,0,1.5,left,LLLLL.png,,,,,0,1,1,1,2,10,58,16,,,,,,,,,,,,,,,,,,,,,,,,,,,,,,,,,,,,,,,,,,,,,,,,,,,,,,,,,,,,,,,,377.74438550008927,378.1464166000951,378.1283092000522,378.2280742001021,378.63010690000374,None,left,1,0.39933709998149425,378.63010690000374,None,378.1283092000522,378.2280742001021,378.2280742001021,None,379.0461462000385,None,,,,,,,11043,001,2024_Mar_21_0816,ANT,2021.2.3,59.90423709661102,
1,7,no,down,IC,L,,,,,,Block.xlsx,"你已经完成了整个实验（三个区组）。

请报告实验者已完成实验

非常感谢，再见！",50,0,-1.5,left,RRLRR.png,,,,,0,1,1,1,2,11,59,6,,,,,,,,,,,,,,,,,,,,,,,,,,,,,,,,,,,,,,,,,,,,,,,,,,,,,,,,,,,,,,,,379.4468894000165,379.8490285000298,379.83068600005936,379.93100530002266,380.3315413000528,None,left,1,0.6492492998950183,380.3315413000528,None,379.83068600005936,379.93100530002266,379.93100530002266,None,380.99926380009856,None,,,,,,,11043,001,2024_Mar_21_0816,ANT,2021.2.3,59.90423709661102,
1,23,spatial,down,IC,L,,,,,,Block.xlsx,"你已经完成了整个实验（三个区组）。

请报告实验者已完成实验

非常感谢，再见！",-1.5,0,-1.5,left,RRLRR.png,,,,,0,1,1,1,2,12,60,22,,,,,,,,,,,,,,,,,,,,,,,,,,,,,,,,,,,,,,,,,,,,,,,,,,,,,,,,,,,,,,,,381.4008964000968,381.80049240007065,381.78368090000004,381.8845820000861,382.28529840009287,None,left,1,0.47956640005577356,382.28529840009287,None,381.78368090000004,381.8845820000861,381.8845820000861,None,382.7848481000401,None,,,,,,,11043,001,2024_Mar_21_0816,ANT,2021.2.3,59.90423709661102,
1,24,spatial,down,IC,R,,,,,,Block.xlsx,"你已经完成了整个实验（三个区组）。

请报告实验者已完成实验

非常感谢，再见！",-1.5,0,-1.5,right,LLRLL.png,,,,,0,1,1,1,2,13,61,23,,,,,,,,,,,,,,,,,,,,,,,,,,,,,,,,,,,,,,,,,,,,,,,,,,,,,,,,,,,,,,,,383.18582350004,383.5869672000408,383.5700781000778,383.6698715001112,384.07095120009035,None,right,1,0.5818617000477389,384.07095120009035,None,383.5700781000778,383.6698715001112,383.6698715001112,None,384.67166760005057,None,,,,,,,11043,001,2024_Mar_21_0816,ANT,2021.2.3,59.90423709661102,
1,14,center,down,C,R,,,,,,Block.xlsx,"你已经完成了整个实验（三个区组）。

请报告实验者已完成实验

非常感谢，再见！",0,50,-1.5,right,RRRRR.png,,,,,0,1,1,1,2,14,62,13,,,,,,,,,,,,,,,,,,,,,,,,,,,,,,,,,,,,,,,,,,,,,,,,,,,,,,,,,,,,,,,,385.0727264001034,385.4739437000826,385.45613030006643,385.55612740002107,385.9576292000711,None,right,1,0.7437159999972209,385.9576292000711,None,385.45613030006643,385.55612740002107,385.55612740002107,None,386.72438990010414,None,,,,,,,11043,001,2024_Mar_21_0816,ANT,2021.2.3,59.90423709661102,
1,18,spatial,up,C,R,,,,,,Block.xlsx,"你已经完成了整个实验（三个区组）。

请报告实验者已完成实验

非常感谢，再见！",1.5,0,1.5,right,RRRRR.png,,,,,0,1,1,1,2,15,63,17,,,,,,,,,,,,,,,,,,,,,,,,,,,,,,,,,,,,,,,,,,,,,,,,,,,,,,,,,,,,,,,,387.12516420008615,387.52814700000454,387.50891950004734,387.60895580006763,388.01020560006145,None,right,1,0.3549905999097973,388.01020560006145,None,387.50891950004734,387.60895580006763,387.60895580006763,None,388.3940671000164,None,,,,,,,11043,001,2024_Mar_21_0816,ANT,2021.2.3,59.90423709661102,
1,20,spatial,up,IC,R,,,,,,Block.xlsx,"你已经完成了整个实验（三个区组）。

请报告实验者已完成实验

非常感谢，再见！",1.5,0,1.5,right,LLRLL.png,,,,,0,1,1,1,2,16,64,19,,,,,,,,,,,,,,,,,,,,,,,,,,,,,,,,,,,,,,,,,,,,,,,,,,,,,,,,,,,,,,,,388.7942397000734,389.1956716000568,389.17806700000074,389.27991690009367,389.67933519999497,None,right,1,0.41369590000249445,389.67933519999497,None,389.17806700000074,389.27991690009367,389.27991690009367,None,390.11287670000456,None,,,,,,,11043,001,2024_Mar_21_0816,ANT,2021.2.3,59.90423709661102,
1,16,center,down,IC,R,,,,,,Block.xlsx,"你已经完成了整个实验（三个区组）。

请报告实验者已完成实验

非常感谢，再见！",0,50,-1.5,right,LLRLL.png,,,,,0,1,1,1,2,17,65,15,,,,,,,,,,,,,,,,,,,,,,,,,,,,,,,,,,,,,,,,,,,,,,,,,,,,,,,,,,,,,,,,390.5146664000349,390.91571950004436,390.89728920010384,390.9988661000971,391.39913990010973,None,right,1,0.6306947999401018,391.39913990010973,None,390.89728920010384,390.9988661000971,390.9988661000971,None,392.04929210001137,None,,,,,,,11043,001,2024_Mar_21_0816,ANT,2021.2.3,59.90423709661102,
1,18,spatial,up,C,R,,,,,,Block.xlsx,"你已经完成了整个实验（三个区组）。

请报告实验者已完成实验

非常感谢，再见！",1.5,0,1.5,right,RRRRR.png,,,,,0,1,1,1,2,18,66,17,,,,,,,,,,,,,,,,,,,,,,,,,,,,,,,,,,,,,,,,,,,,,,,,,,,,,,,,,,,,,,,,392.4497733000899,392.8509175000945,392.8341013001045,392.93533070001286,393.33428589999676,None,right,1,0.33506879990454763,393.33428589999676,None,392.8341013001045,392.93533070001286,392.93533070001286,None,393.6849133000942,None,,,,,,,11043,001,2024_Mar_21_0816,ANT,2021.2.3,59.90423709661102,
1,20,spatial,up,IC,R,,,,,,Block.xlsx,"你已经完成了整个实验（三个区组）。

请报告实验者已完成实验

非常感谢，再见！",1.5,0,1.5,right,LLRLL.png,,,,,0,1,1,1,2,19,67,19,,,,,,,,,,,,,,,,,,,,,,,,,,,,,,,,,,,,,,,,,,,,,,,,,,,,,,,,,,,,,,,,394.0859585000435,394.4866715000244,394.46942410001066,394.5700059001101,394.9703062000917,None,right,1,0.4756329000229016,394.9703062000917,None,394.46942410001066,394.5700059001101,394.5700059001101,None,395.4707520001102,None,,,,,,,11043,001,2024_Mar_21_0816,ANT,2021.2.3,59.90423709661102,
1,12,center,up,IC,R,,,,,,Block.xlsx,"你已经完成了整个实验（三个区组）。

请报告实验者已完成实验

非常感谢，再见！",0,50,1.5,right,LLRLL.png,,,,,0,1,1,1,2,20,68,11,,,,,,,,,,,,,,,,,,,,,,,,,,,,,,,,,,,,,,,,,,,,,,,,,,,,,,,,,,,,,,,,395.8714099000208,396.27204750000965,396.2574004000053,396.35581100010313,396.75634620001074,None,right,1,0.3450038000009954,396.75634620001074,None,396.2574004000053,396.35581100010313,396.35581100010313,None,397.123453300097,None,,,,,,,11043,001,2024_Mar_21_0816,ANT,2021.2.3,59.90423709661102,
1,11,center,up,IC,L,,,,,,Block.xlsx,"你已经完成了整个实验（三个区组）。

请报告实验者已完成实验

非常感谢，再见！",0,50,1.5,left,RRLRR.png,,,,,0,1,1,1,2,21,69,10,,,,,,,,,,,,,,,,,,,,,,,,,,,,,,,,,,,,,,,,,,,,,,,,,,,,,,,,,,,,,,,,397.52397550002206,397.924714300083,397.90848220000044,398.0086823001038,398.40978590003215,None,left,1,0.5077677000081167,398.40978590003215,None,397.90848220000044,398.0086823001038,398.0086823001038,None,398.9425693000667,None,,,,,,,11043,001,2024_Mar_21_0816,ANT,2021.2.3,59.90423709661102,
1,9,center,up,C,L,,,,,,Block.xlsx,"你已经完成了整个实验（三个区组）。

请报告实验者已完成实验

非常感谢，再见！",0,50,1.5,left,LLLLL.png,,,,,0,1,1,1,2,22,70,8,,,,,,,,,,,,,,,,,,,,,,,,,,,,,,,,,,,,,,,,,,,,,,,,,,,,,,,,,,,,,,,,399.34348260005936,399.74414700001944,399.7278479000088,399.82846250000875,400.22809590003453,None,left,1,0.40939330006949604,400.22809590003453,None,399.7278479000088,399.82846250000875,399.82846250000875,None,400.6622856000904,None,,,,,,,11043,001,2024_Mar_21_0816,ANT,2021.2.3,59.90423709661102,
1,6,no,down,C,R,,,,,,Block.xlsx,"你已经完成了整个实验（三个区组）。

请报告实验者已完成实验

非常感谢，再见！",50,0,-1.5,right,RRRRR.png,,,,,0,1,1,1,2,23,71,5,,,,,,,,,,,,,,,,,,,,,,,,,,,,,,,,,,,,,,,,,,,,,,,,,,,,,,,,,,,,,,,,401.0625821000431,401.46441420004703,401.44691779999994,401.54673930001445,401.94786160008516,None,right,1,0.625672800000757,401.94786160008516,None,401.44691779999994,401.54673930001445,401.54673930001445,None,402.5981849000091,None,,,,,,,11043,001,2024_Mar_21_0816,ANT,2021.2.3,59.90423709661102,
1,21,spatial,down,C,L,,,,,,Block.xlsx,"你已经完成了整个实验（三个区组）。

请报告实验者已完成实验

非常感谢，再见！",-1.5,0,-1.5,left,LLLLL.png,,,,,0,1,1,1,3,0,72,20,,,,,,,,,,,,,,,,,,,,,,,,,,,,,,,,,,,,,,,,,,,,,,,,,,,,,,,,,,,,,,,,402.9988453000551,403.40070870006457,403.3828270001104,403.4831805001013,403.8844233000418,None,left,1,0.4339109999127686,403.8844233000418,None,403.3828270001104,403.4831805001013,403.4831805001013,None,404.3342082001036,None,,,,,,,11043,001,2024_Mar_21_0816,ANT,2021.2.3,59.90423709661102,
1,13,center,down,C,L,,,,,,Block.xlsx,"你已经完成了整个实验（三个区组）。

请报告实验者已完成实验

非常感谢，再见！",0,50,-1.5,left,LLLLL.png,,,,,0,1,1,1,3,1,73,12,,,,,,,,,,,,,,,,,,,,,,,,,,,,,,,,,,,,,,,,,,,,,,,,,,,,,,,,,,,,,,,,404.73491090000607,405.1355124000693,405.1198842000449,405.22068260004744,405.6195779000409,None,left,1,0.3859777000034228,405.6195779000409,None,405.1198842000449,405.22068260004744,405.22068260004744,None,406.0370582001051,None,,,,,,,11043,001,2024_Mar_21_0816,ANT,2021.2.3,59.90423709661102,
1,16,center,down,IC,R,,,,,,Block.xlsx,"你已经完成了整个实验（三个区组）。

请报告实验者已完成实验

非常感谢，再见！",0,50,-1.5,right,LLRLL.png,,,,,0,1,1,1,3,2,74,15,,,,,,,,,,,,,,,,,,,,,,,,,,,,,,,,,,,,,,,,,,,,,,,,,,,,,,,,,,,,,,,,406.4373667000327,406.8380947000114,406.8222703000065,406.92198590002954,407.32311540003866,None,right,1,0.5629427999956533,407.32311540003866,None,406.8222703000065,406.92198590002954,406.92198590002954,None,407.9061913000187,None,,,,,,,11043,001,2024_Mar_21_0816,ANT,2021.2.3,59.90423709661102,
1,15,center,down,IC,L,,,,,,Block.xlsx,"你已经完成了整个实验（三个区组）。

请报告实验者已完成实验

非常感谢，再见！",0,50,-1.5,left,RRLRR.png,,,,,0,1,1,1,3,3,75,14,,,,,,,,,,,,,,,,,,,,,,,,,,,,,,,,,,,,,,,,,,,,,,,,,,,,,,,,,,,,,,,,408.30696570000146,408.7077492000535,408.69103720004205,408.7921590000624,409.19254380010534,None,left,1,0.5338843000354245,409.19254380010534,None,408.69103720004205,408.7921590000624,408.7921590000624,None,409.7423308000434,None,,,,,,,11043,001,2024_Mar_21_0816,ANT,2021.2.3,59.90423709661102,
1,6,no,down,C,R,,,,,,Block.xlsx,"你已经完成了整个实验（三个区组）。

请报告实验者已完成实验

非常感谢，再见！",50,0,-1.5,right,RRRRR.png,,,,,0,1,1,1,3,4,76,5,,,,,,,,,,,,,,,,,,,,,,,,,,,,,,,,,,,,,,,,,,,,,,,,,,,,,,,,,,,,,,,,410.1440839000279,410.5437436000211,410.52702230005525,410.6280693000881,411.02851160010323,None,right,1,0.45715280005242676,411.02851160010323,None,410.52702230005525,410.6280693000881,410.6280693000881,None,411.5118354000151,None,,,,,,,11043,001,2024_Mar_21_0816,ANT,2021.2.3,59.90423709661102,
1,14,center,down,C,R,,,,,,Block.xlsx,"你已经完成了整个实验（三个区组）。

请报告实验者已完成实验

非常感谢，再见！",0,50,-1.5,right,RRRRR.png,,,,,0,1,1,1,3,5,77,13,,,,,,,,,,,,,,,,,,,,,,,,,,,,,,,,,,,,,,,,,,,,,,,,,,,,,,,,,,,,,,,,411.912532400107,412.3132029999979,412.2963522000937,412.3975283000618,412.7991761000594,None,right,1,0.35042750008869916,412.7991761000594,None,412.2963522000937,412.3975283000618,412.3975283000618,None,413.18099810008425,None,,,,,,,11043,001,2024_Mar_21_0816,ANT,2021.2.3,59.90423709661102,
1,20,spatial,up,IC,R,,,,,,Block.xlsx,"你已经完成了整个实验（三个区组）。

请报告实验者已完成实验

非常感谢，再见！",1.5,0,1.5,right,LLRLL.png,,,,,0,1,1,1,3,6,78,19,,,,,,,,,,,,,,,,,,,,,,,,,,,,,,,,,,,,,,,,,,,,,,,,,,,,,,,,,,,,,,,,413.5818571000127,413.98309780005366,413.96662880002987,414.0669684000313,414.4668284000363,None,right,1,0.47511959995608777,414.4668284000363,None,413.96662880002987,414.0669684000313,414.0669684000313,None,414.96695330005605,None,,,,,,,11043,001,2024_Mar_21_0816,ANT,2021.2.3,59.90423709661102,
1,2,no,up,C,R,,,,,,Block.xlsx,"你已经完成了整个实验（三个区组）。

请报告实验者已完成实验

非常感谢，再见！",50,0,1.5,right,RRRRR.png,,,,,0,1,1,1,3,7,79,1,,,,,,,,,,,,,,,,,,,,,,,,,,,,,,,,,,,,,,,,,,,,,,,,,,,,,,,,,,,,,,,,415.3676780000096,415.76907610008493,415.7515154000139,415.8519622000167,416.2521423000144,None,right,1,0.4178379999939352,416.2521423000144,None,415.7515154000139,415.8519622000167,415.8519622000167,None,416.6862164000049,None,,,,,,,11043,001,2024_Mar_21_0816,ANT,2021.2.3,59.90423709661102,
1,3,no,up,IC,L,,,,,,Block.xlsx,"你已经完成了整个实验（三个区组）。

请报告实验者已完成实验

非常感谢，再见！",50,0,1.5,left,RRLRR.png,,,,,0,1,1,1,3,8,80,2,,,,,,,,,,,,,,,,,,,,,,,,,,,,,,,,,,,,,,,,,,,,,,,,,,,,,,,,,,,,,,,,417.086662500049,417.4882298000157,417.47059690009337,417.57328440004494,417.97165410011075,None,left,1,0.554388799937442,417.97165410011075,None,417.47059690009337,417.57328440004494,417.57328440004494,None,418.555824900046,None,,,,,,,11043,001,2024_Mar_21_0816,ANT,2021.2.3,59.90423709661102,
1,4,no,up,IC,R,,,,,,Block.xlsx,"你已经完成了整个实验（三个区组）。

请报告实验者已完成实验

非常感谢，再见！",50,0,1.5,right,LLRLL.png,,,,,0,1,1,1,3,9,81,3,,,,,,,,,,,,,,,,,,,,,,,,,,,,,,,,,,,,,,,,,,,,,,,,,,,,,,,,,,,,,,,,418.9560748001095,419.35677700000815,419.34020430000965,419.4413861000212,419.8418698000023,None,right,1,0.5726656999904662,419.8418698000023,None,419.34020430000965,419.4413861000212,419.4413861000212,None,420.4417271000566,None,,,,,,,11043,001,2024_Mar_21_0816,ANT,2021.2.3,59.90423709661102,
1,11,center,up,IC,L,,,,,,Block.xlsx,"你已经完成了整个实验（三个区组）。

请报告实验者已完成实验

非常感谢，再见！",0,50,1.5,left,RRLRR.png,,,,,0,1,1,1,3,10,82,10,,,,,,,,,,,,,,,,,,,,,,,,,,,,,,,,,,,,,,,,,,,,,,,,,,,,,,,,,,,,,,,,420.84244050004054,421.24323580006603,421.22643250005785,421.3278146000812,421.72712980001234,None,left,1,0.5270278999814764,421.72712980001234,None,421.22643250005785,421.3278146000812,421.3278146000812,None,422.27791410009377,None,,,,,,,11043,001,2024_Mar_21_0816,ANT,2021.2.3,59.90423709661102,
1,13,center,down,C,L,,,,,,Block.xlsx,"你已经完成了整个实验（三个区组）。

请报告实验者已完成实验

非常感谢，再见！",0,50,-1.5,left,LLLLL.png,,,,,0,1,1,1,3,11,83,12,,,,,,,,,,,,,,,,,,,,,,,,,,,,,,,,,,,,,,,,,,,,,,,,,,,,,,,,,,,,,,,,422.6785710999975,423.07928300008643,423.0645504000131,423.17945380008314,423.56443750008475,None,left,1,0.44969480007421225,423.56443750008475,None,423.0645504000131,423.17945380008314,423.16478340001777,None,424.03062380000483,None,,,,,,,11043,001,2024_Mar_21_0816,ANT,2021.2.3,59.90423709661102,
1,5,no,down,C,L,,,,,,Block.xlsx,"你已经完成了整个实验（三个区组）。

请报告实验者已完成实验

非常感谢，再见！",50,0,-1.5,left,LLLLL.png,,,,,0,1,1,1,3,12,84,4,,,,,,,,,,,,,,,,,,,,,,,,,,,,,,,,,,,,,,,,,,,,,,,,,,,,,,,,,,,,,,,,424.43113440007437,424.8329345000675,424.81521260004956,424.9172740000067,425.3169966000132,None,left,1,0.40933070005849004,425.3169966000132,None,424.81521260004956,424.9172740000067,424.9172740000067,None,425.7498046000255,None,,,,,,,11043,001,2024_Mar_21_0816,ANT,2021.2.3,59.90423709661102,
1,15,center,down,IC,L,,,,,,Block.xlsx,"你已经完成了整个实验（三个区组）。

请报告实验者已完成实验

非常感谢，再见！",0,50,-1.5,left,RRLRR.png,,,,,0,1,1,1,3,13,85,14,,,,,,,,,,,,,,,,,,,,,,,,,,,,,,,,,,,,,,,,,,,,,,,,,,,,,,,,,,,,,,,,426.15052400005516,426.55118220008444,426.53456340008415,426.63553140009753,427.03653080004733,None,left,1,0.593735900009051,427.03653080004733,None,426.53456340008415,426.63553140009753,426.63553140009753,None,427.65282489999663,None,,,,,,,11043,001,2024_Mar_21_0816,ANT,2021.2.3,59.90423709661102,
1,9,center,up,C,L,,,,,,Block.xlsx,"你已经完成了整个实验（三个区组）。

请报告实验者已完成实验

非常感谢，再见！",0,50,1.5,left,LLLLL.png,,,,,0,1,1,1,3,14,86,8,,,,,,,,,,,,,,,,,,,,,,,,,,,,,,,,,,,,,,,,,,,,,,,,,,,,,,,,,,,,,,,,428.05385530006606,428.4550944000948,428.4376441000495,428.5384196001105,428.9395147000905,None,left,1,0.37887630006298423,428.9395147000905,None,428.4376441000495,428.5384196001105,428.5384196001105,None,429.3387191001093,None,,,,,,,11043,001,2024_Mar_21_0816,ANT,2021.2.3,59.90423709661102,
1,3,no,up,IC,L,,,,,,Block.xlsx,"你已经完成了整个实验（三个区组）。

请报告实验者已完成实验

非常感谢，再见！",50,0,1.5,left,RRLRR.png,,,,,0,1,1,1,3,15,87,2,,,,,,,,,,,,,,,,,,,,,,,,,,,,,,,,,,,,,,,,,,,,,,,,,,,,,,,,,,,,,,,,429.73899750004057,430.1400571000995,430.1230053000618,430.22428150009364,430.6251010000706,None,left,1,0.5010975999757648,430.6251010000706,None,430.1230053000618,430.22428150009364,430.22428150009364,None,431.14132530009374,None,,,,,,,11043,001,2024_Mar_21_0816,ANT,2021.2.3,59.90423709661102,
1,5,no,down,C,L,,,,,,Block.xlsx,"你已经完成了整个实验（三个区组）。

请报告实验者已完成实验

非常感谢，再见！",50,0,-1.5,left,LLLLL.png,,,,,0,1,1,1,3,16,88,4,,,,,,,,,,,,,,,,,,,,,,,,,,,,,,,,,,,,,,,,,,,,,,,,,,,,,,,,,,,,,,,,431.5419734000461,431.9425183000276,431.9259094001027,432.02603680000175,432.4266749001108,None,left,1,0.3797645999584347,432.4266749001108,None,431.9259094001027,432.02603680000175,432.02603680000175,None,432.8271809000289,None,,,,,,,11043,001,2024_Mar_21_0816,ANT,2021.2.3,59.90423709661102,
1,7,no,down,IC,L,,,,,,Block.xlsx,"你已经完成了整个实验（三个区组）。

请报告实验者已完成实验

非常感谢，再见！",50,0,-1.5,left,RRLRR.png,,,,,0,1,1,1,3,17,89,6,,,,,,,,,,,,,,,,,,,,,,,,,,,,,,,,,,,,,,,,,,,,,,,,,,,,,,,,,,,,,,,,433.2275884000119,433.6299308000598,433.6117506000446,433.71416910004336,434.11322240007576,None,left,1,0.4532650000182912,434.11322240007576,None,433.6117506000446,433.71416910004336,433.71416910004336,None,434.5965559000615,None,,,,,,,11043,001,2024_Mar_21_0816,ANT,2021.2.3,59.90423709661102,
1,5,no,down,C,L,,,,,,Block.xlsx,"你已经完成了整个实验（三个区组）。

请报告实验者已完成实验

非常感谢，再见！",50,0,-1.5,left,LLLLL.png,,,,,0,1,1,1,3,18,90,4,,,,,,,,,,,,,,,,,,,,,,,,,,,,,,,,,,,,,,,,,,,,,,,,,,,,,,,,,,,,,,,,434.9976311000064,435.3991267000092,435.38133250002284,435.48223390011117,435.88408530002926,None,left,1,0.36214330000802875,435.88408530002926,None,435.38133250002284,435.48223390011117,435.48223390011117,None,436.2657790000085,None,,,,,,,11043,001,2024_Mar_21_0816,ANT,2021.2.3,59.90423709661102,
1,10,center,up,C,R,,,,,,Block.xlsx,"你已经完成了整个实验（三个区组）。

请报告实验者已完成实验

非常感谢，再见！",0,50,1.5,right,RRRRR.png,,,,,0,1,1,1,3,19,91,9,,,,,,,,,,,,,,,,,,,,,,,,,,,,,,,,,,,,,,,,,,,,,,,,,,,,,,,,,,,,,,,,436.6665093000047,437.066911800066,437.05022590002045,437.1524483000394,437.55164350010455,None,right,1,0.3512101999949664,437.55164350010455,None,437.05022590002045,437.1524483000394,437.1524483000394,None,437.9182174000889,None,,,,,,,11043,001,2024_Mar_21_0816,ANT,2021.2.3,59.90423709661102,
1,22,spatial,down,C,R,,,,,,Block.xlsx,"你已经完成了整个实验（三个区组）。

请报告实验者已完成实验

