b_pra,ins_blocks,ins_blocks2,stim_word,stim_color,corrAns,cue_type,trial_type,task_type,rand,compatibility,switch,b_test,w_pic,w_pic2,trials_instr.thisRepN,trials_instr.thisTrialN,trials_instr.thisN,trials_instr.thisIndex,block_pra.thisRepN,block_pra.thisTrialN,block_pra.thisN,block_pra.thisIndex,trials_rep.thisRepN,trials_rep.thisTrialN,trials_rep.thisN,trials_rep.thisIndex,trials_pra.thisRepN,trials_pra.thisTrialN,trials_pra.thisN,trials_pra.thisIndex,trials_3.thisRepN,trials_3.thisTrialN,trials_3.thisN,trials_3.thisIndex,trials_2.thisRepN,trials_2.thisTrialN,trials_2.thisN,trials_2.thisIndex,instr_image.started,instr_image.stopped,instr_key_resp.keys,instr_key_resp.rt,instr_key_resp.started,instr_key_resp.stopped,instr_pra_image.started,instr_pra_image.stopped,ip_key_resp.keys,ip_key_resp.rt,ip_key_resp.started,ip_key_resp.stopped,block_image.started,block_image.stopped,ib_key_resp.keys,ib_key_resp.rt,ib_key_resp.started,ib_key_resp.stopped,cd3.started,cd3.stopped,cd2.started,cd2.stopped,cd1.started,cd1.stopped,cd_text.started,cd_text.stopped,text_fix.started,text_fix.stopped,text_2.started,text_2.stopped,text_4.started,text_4.stopped,text_target.started,text_target.stopped,key_resp.keys,key_resp.corr,key_resp.rt,key_resp.started,key_resp.stopped,sceen_black.started,sceen_black.stopped,text_fb.started,text_fb.stopped,text.started,text.stopped,key_bf.keys,key_bf.rt,key_bf.started,key_bf.stopped,instr_test_image.started,instr_test_image.stopped,instr_exp_key_resp.keys,instr_exp_key_resp.rt,instr_exp_key_resp.started,instr_exp_key_resp.stopped,text_rest.started,text_rest.stopped,key_resp_rest.keys,key_resp_rest.rt,key_resp_rest.started,key_resp_rest.stopped,text_3.started,text_3.stopped,participant,session,balance,date,expName,psychopyVersion,frameRate,
,,,,,,,,,,,,,,,0,0,0,0,,,,,,,,,,,,,,,,,,,,,8.335404600016773,None,right,3.2027789000421762,8.335404600016773,None,,,,,,,,,,,,,,,,,,,,,,,,,,,,,,,,,,,,,,,,,,,,,,,,,,,,,,,,,,11004,1,1,2024_Jun_01_1706,stroop_task_switching2,2021.2.3,60.127554585593884,
,,,,,,,,,,,,,,,1,0,1,0,,,,,,,,,,,,,,,,,,,,,11.57350589998532,None,right,23.60546379996231,11.57350589998532,None,,,,,,,,,,,,,,,,,,,,,,,,,,,,,,,,,,,,,,,,,,,,,,,,,,,,,,,,,,11004,1,1,2024_Jun_01_1706,stroop_task_switching2,2021.2.3,60.127554585593884,
,,,,,,,,,,,,,,,2,0,2,0,,,,,,,,,,,,,,,,,,,,,35.226099199964665,None,right,8.672360100026708,35.226099199964665,None,,,,,,,,,,,,,,,,,,,,,,,,,,,,,,,,,,,,,,,,,,,,,,,,,,,,,,,,,,11004,1,1,2024_Jun_01_1706,stroop_task_switching2,2021.2.3,60.127554585593884,
,,,,,,,,,,,,,,,3,0,3,0,,,,,,,,,,,,,,,,,,,,,43.93912629998522,None,right,4.391472899995279,43.93912629998522,None,,,,,,,,,,,,,,,,,,,,,,,,,,,,,,,,,,,,,,,,,,,,,,,,,,,,,,,,,,11004,1,1,2024_Jun_01_1706,stroop_task_switching2,2021.2.3,60.127554585593884,
,,,,,,,,,,,,,,,4,0,4,0,,,,,,,,,,,,,,,,,,,,,48.379009899974335,None,right,12.712079300021287,48.379009899974335,None,,,,,,,,,,,,,,,,,,,,,,,,,,,,,,,,,,,,,,,,,,,,,,,,,,,,,,,,,,11004,1,1,2024_Jun_01_1706,stroop_task_switching2,2021.2.3,60.127554585593884,
,,,,,,,,,,,,,,,5,0,5,0,,,,,,,,,,,,,,,,,,,,,61.13159609999275,None,right,0.6792423999868333,61.13159609999275,None,,,,,,,,,,,,,,,,,,,,,,,,,,,,,,,,,,,,,,,,,,,,,,,,,,,,,,,,,,11004,1,1,2024_Jun_01_1706,stroop_task_switching2,2021.2.3,60.127554585593884,
,,,,,,,,,,,,,,,,,,,,,,,,,,,,,,,,,,,,,,,,,,,,,61.85100319999037,None,space,1.055104199971538,61.85100319999037,None,,,,,,,,,,,,,,,,,,,,,,,,,,,,,,,,,,,,,,,,,,,,,,,,,,,,11004,1,1,2024_Jun_01_1706,stroop_task_switching2,2021.2.3,60.127554585593884,
condition/block_color,instruction/instr_color,instruction/i8,XX,red,d,diamond,color_single,颜色,,,,,,,,,,,0,0,0,0,0,0,0,0,0,0,0,0,,,,,,,,,,,,,,,,,,,,,62.951024000009056,None,space,5.5805326999980025,62.951024000009056,None,69.61113929998828,70.61399139999412,70.61399139999412,71.61509119998664,71.61509119998664,None,68.62784179998562,69.6301255999715,72.58198139996966,72.78367159998743,72.76669209997635,73.06680099997902,73.06680099997902,None,73.56703069998184,None,d,1,0.828417900018394,73.56703069998184,None,None,None,74.4181891999906,None,,,,,,,,,,,,,,,,,,,,,11004,1,1,2024_Jun_01_1706,stroop_task_switching2,2021.2.3,60.127554585593884,
condition/block_color,instruction/instr_color,instruction/i8,XX,green,k,diamond,color_single,颜色,,,,,,,,,,,0,0,0,0,0,0,0,0,0,1,1,1,,,,,,,,,,,,,,,,,,,,,,,,,,,,,,,,,,,75.41993639996508,75.6215596999973,75.6036446999642,75.9039502000087,75.9039502000087,None,76.40548590000253,None,k,1,1.237978800025303,76.40548590000253,None,None,None,77.67403759999434,None,,,,,,,,,,,,,,,,,,,,,11004,1,1,2024_Jun_01_1706,stroop_task_switching2,2021.2.3,60.127554585593884,
condition/block_color,instruction/instr_color,instruction/i8,XX,yellow,j,diamond,color_single,颜色,,,,,,,,,,,0,0,0,0,0,0,0,0,0,2,2,2,,,,,,,,,,,,,,,,,,,,,,,,,,,,,,,,,,,78.6748285999638,78.87651599996025,78.85844370000996,79.15971350000473,79.15971350000473,None,79.65957019996131,None,j,1,1.0715763000189327,79.65957019996131,None,None,None,80.76132099999813,None,,,,,,,,,,,,,,,,,,,,,11004,1,1,2024_Jun_01_1706,stroop_task_switching2,2021.2.3,60.127554585593884,
condition/block_color,instruction/instr_color,instruction/i8,XX,blue,f,diamond,color_single,颜色,,,,,,,,,,,0,0,0,0,0,0,0,0,0,3,3,3,,,,,,,,,,,,,,,,,,,,,,,,,,,,,,,,,,,81.76351229997817,81.96435779996682,81.94724919996224,82.24739029997727,82.24739029997727,None,82.74773910001386,None,f,1,0.8962007000227459,82.74773910001386,None,None,None,83.66556290001608,None,,,,,,,,,,,,,,,,,,,,,11004,1,1,2024_Jun_01_1706,stroop_task_switching2,2021.2.3,60.127554585593884,
condition/block_color,instruction/instr_color,instruction/i8,XX,green,k,diamond,color_single,颜色,,,,,,,,,,,0,0,0,0,0,0,0,0,0,4,4,4,,,,,,,,,,,,,,,,,,,,,,,,,,,,,,,,,,,84.66776609997032,84.86758939997526,84.85075440001674,85.15160629997263,85.15160629997263,None,85.65190260001691,None,k,1,0.6238741999841295,85.65190260001691,None,None,None,86.30497309996281,None,,,,,,,,,,,,,,,,,,,,,11004,1,1,2024_Jun_01_1706,stroop_task_switching2,2021.2.3,60.127554585593884,
condition/block_color,instruction/instr_color,instruction/i8,XX,yellow,j,diamond,color_single,颜色,,,,,,,,,,,0,0,0,0,0,0,0,0,0,5,5,5,,,,,,,,,,,,,,,,,,,,,,,,,,,,,,,,,,,87.30538679996971,87.50561940000625,87.48916519997874,87.78931700001704,87.78931700001704,None,88.28978559997631,None,j,1,1.450232999981381,88.28978559997631,None,None,None,89.75809740001569,None,,,,,,,,,,,,,,,,,,,,,11004,1,1,2024_Jun_01_1706,stroop_task_switching2,2021.2.3,60.127554585593884,
condition/block_color,instruction/instr_color,instruction/i8,XX,blue,f,diamond,color_single,颜色,,,,,,,,,,,0,0,0,0,0,0,0,0,0,6,6,6,,,,,,,,,,,,,,,,,,,,,,,,,,,,,,,,,,,90.75955640000757,90.96101309999358,90.94439779996173,91.24384959996678,91.24384959996678,None,91.7444991999655,None,f,1,0.6431758000398986,91.7444991999655,None,None,None,92.41281429998344,None,,,,,,,,,,,,,,,,,,,,,11004,1,1,2024_Jun_01_1706,stroop_task_switching2,2021.2.3,60.127554585593884,
condition/block_color,instruction/instr_color,instruction/i8,XX,red,d,diamond,color_single,颜色,,,,,,,,,,,0,0,0,0,0,0,0,0,0,7,7,7,,,,,,,,,,,,,,,,,,,,,,,,,,,,,,,,,,,93.41360629996052,93.61510709999129,93.59726239996962,93.89863740000874,93.89863740000874,None,94.3993494999595,None,d,1,0.5803218000219204,94.3993494999595,None,None,None,94.99942559999181,None,,,,,,,,,,,,,,,,,,,,,11004,1,1,2024_Jun_01_1706,stroop_task_switching2,2021.2.3,60.127554585593884,
condition/block_color,instruction/instr_color,instruction/i8,XX,yellow,j,diamond,color_single,颜色,,,,,,,,,,,0,0,0,0,0,0,0,0,0,8,8,8,,,,,,,,,,,,,,,,,,,,,,,,,,,,,,,,,,,96.00201709999237,96.20196079998277,96.18461609998485,96.48534069996094,96.48534069996094,None,96.98572150000837,None,j,1,0.6188621000037529,96.98572150000837,None,None,None,97.62000599998282,None,,,,,,,,,,,,,,,,,,,,,11004,1,1,2024_Jun_01_1706,stroop_task_switching2,2021.2.3,60.127554585593884,
condition/block_color,instruction/instr_color,instruction/i8,XX,blue,f,diamond,color_single,颜色,,,,,,,,,,,0,0,0,0,0,0,0,0,0,9,9,9,,,,,,,,,,,,,,,,,,,,,,,,,,,,,,,,,,,98.6214636999648,98.82324940001126,98.80496549996315,99.10604039998725,99.10604039998725,None,99.6072193,None,f,1,0.7655727000092156,99.6072193,None,None,None,100.39078730001347,None,,,,,,,,,,,,,,,,,,,,,11004,1,1,2024_Jun_01_1706,stroop_task_switching2,2021.2.3,60.127554585593884,
condition/block_color,instruction/instr_color,instruction/i8,XX,red,d,diamond,color_single,颜色,,,,,,,,,,,0,0,0,0,0,0,0,0,0,10,10,10,,,,,,,,,,,,,,,,,,,,,,,,,,,,,,,,,,,101.39385599998059,101.6108698999742,101.57591479999246,101.8771512999665,101.8771512999665,None,102.37879899999825,None,d,1,0.617163100047037,102.37879899999825,None,None,None,103.01146629999857,None,,,,,,,,,,,,,,,,,,,,,11004,1,1,2024_Jun_01_1706,stroop_task_switching2,2021.2.3,60.127554585593884,
condition/block_color,instruction/instr_color,instruction/i8,XX,green,k,diamond,color_single,颜色,,,,,,,,,,,0,0,0,0,0,0,0,0,0,11,11,11,,,,,,,,,,,,,,,,,,,,,,,,,,,,,,,,,,,104.012971499993,104.2138505000039,104.19772519997787,104.49772619997384,104.49772619997384,None,104.99773850000929,None,k,1,0.7503703000256792,104.99773850000929,None,None,None,105.76705249998486,None,,,,,,,,,,,,,,,,,,,,,11004,1,1,2024_Jun_01_1706,stroop_task_switching2,2021.2.3,60.127554585593884,
condition/block_color,instruction/instr_color,instruction/i8,XX,blue,f,diamond,color_single,颜色,,,,,,,,,,,0,0,0,0,0,0,0,0,0,12,12,12,,,,,,,,,,,,,,,,,,,,,,,,,,,,,,,,,,,106.76850439998088,106.96743309998419,106.95092540001497,107.25185469997814,107.25185469997814,None,107.75207789998967,None,f,1,0.8359968999866396,107.75207789998967,None,None,None,108.60332059999928,None,,,,,,,,,,,,,,,,,,,,,11004,1,1,2024_Jun_01_1706,stroop_task_switching2,2021.2.3,60.127554585593884,
condition/block_color,instruction/instr_color,instruction/i8,XX,red,d,diamond,color_single,颜色,,,,,,,,,,,0,0,0,0,0,0,0,0,0,13,13,13,,,,,,,,,,,,,,,,,,,,,,,,,,,,,,,,,,,109.6053028999595,109.80564979999326,109.78951339999912,110.08947619999526,110.08947619999526,None,110.59027749998495,None,d,1,0.7259897000039928,110.59027749998495,None,None,None,111.34088679996785,None,,,,,,,,,,,,,,,,,,,,,11004,1,1,2024_Jun_01_1706,stroop_task_switching2,2021.2.3,60.127554585593884,
condition/block_color,instruction/instr_color,instruction/i8,XX,green,k,diamond,color_single,颜色,,,,,,,,,,,0,0,0,0,0,0,0,0,0,14,14,14,,,,,,,,,,,,,,,,,,,,,,,,,,,,,,,,,,,112.34304449998308,112.54433489998337,112.52586250001332,112.82868079998298,112.82868079998298,None,113.32679339998867,None,k,1,0.750352600007318,113.32679339998867,None,None,None,114.09473609999986,None,,,,,,,,,,,,,,,,,,,,,11004,1,1,2024_Jun_01_1706,stroop_task_switching2,2021.2.3,60.127554585593884,
condition/block_color,instruction/instr_color,instruction/i8,XX,yellow,j,diamond,color_single,颜色,,,,,,,,,,,0,0,0,0,0,0,0,0,0,15,15,15,,,,,,,,,,,,,,,,,,,,,,,,,,,,,,,,,,,115.09653069998603,115.2967370999977,115.28063819999807,115.58128310000757,115.58128310000757,None,116.08118139998987,None,j,1,0.6589824999682605,116.08118139998987,None,None,None,116.7663193999906,None,,,,,,,,,,,,,,,,,,,,,11004,1,1,2024_Jun_01_1706,stroop_task_switching2,2021.2.3,60.127554585593884,
condition/block_color,instruction/instr_color,instruction/i8,XX,red,d,diamond,color_single,颜色,,,,,,,,,,,0,0,0,0,0,0,0,0,0,16,16,16,,,,,,,,,,,,,,,,,,,,,,,,,,,,,,,,,,,117.76860909996321,117.96763199998531,117.95124349999242,118.25201110000489,118.25201110000489,None,118.75280839996412,None,d,1,0.42766250000568107,118.75280839996412,None,None,None,119.20340669999132,None,,,,,,,,,,,,,,,,,,,,,11004,1,1,2024_Jun_01_1706,stroop_task_switching2,2021.2.3,60.127554585593884,
condition/block_color,instruction/instr_color,instruction/i8,XX,green,k,diamond,color_single,颜色,,,,,,,,,,,0,0,0,0,0,0,0,0,0,17,17,17,,,,,,,,,,,,,,,,,,,,,,,,,,,,,,,,,,,120.20438919996377,120.40635050000856,120.3876511999988,120.6878585999948,120.6878585999948,None,121.1888062999933,None,k,1,0.6004098000121303,121.1888062999933,None,None,None,121.80641969997669,None,,,,,,,,,,,,,,,,,,,,,11004,1,1,2024_Jun_01_1706,stroop_task_switching2,2021.2.3,60.127554585593884,
condition/block_color,instruction/instr_color,instruction/i8,XX,yellow,j,diamond,color_single,颜色,,,,,,,,,,,0,0,0,0,0,0,0,0,0,18,18,18,,,,,,,,,,,,,,,,,,,,,,,,,,,,,,,,,,,122.80894269997953,123.00833619997138,122.99308929999825,123.2927553000045,123.2927553000045,None,123.79369540000334,None,j,1,0.7866026000119746,123.79369540000334,None,None,None,124.61150309996447,None,,,,,,,,,,,,,,,,,,,,,11004,1,1,2024_Jun_01_1706,stroop_task_switching2,2021.2.3,60.127554585593884,
condition/block_color,instruction/instr_color,instruction/i8,XX,blue,f,diamond,color_single,颜色,,,,,,,,,,,0,0,0,0,0,0,0,0,0,19,19,19,,,,,,,,,,,,,,,,,,,,,,,,,,,,,,,,,,,125.61218799999915,125.81333450000966,125.79742279998027,126.11366849998012,126.09801229997538,None,126.59790270001395,None,f,1,0.4546208999818191,126.59790270001395,None,None,None,127.08089689997723,None,,,,,,,,,,,,,,,,,,,,,11004,1,1,2024_Jun_01_1706,stroop_task_switching2,2021.2.3,60.127554585593884,
condition/block_color,instruction/instr_color,instruction/i8,XX,green,k,diamond,color_single,颜色,,,,,,,,,,,0,0,0,0,0,0,0,0,0,20,20,20,,,,,,,,,,,,,,,,,,,,,,,,,,,,,,,,,,,128.08286039996892,128.28372379997745,128.26723890000721,128.5678033999866,128.5678033999866,None,129.06739219999872,None,k,1,0.6732377000153065,129.06739219999872,None,None,None,129.7696547000087,None,,,,,,,,,,,,,,,,,,,,,11004,1,1,2024_Jun_01_1706,stroop_task_switching2,2021.2.3,60.127554585593884,
condition/block_color,instruction/instr_color,instruction/i8,XX,yellow,j,diamond,color_single,颜色,,,,,,,,,,,0,0,0,0,0,0,0,0,0,21,21,21,,,,,,,,,,,,,,,,,,,,,,,,,,,,,,,,,,,130.77096789999632,130.97240440000314,130.95377500000177,131.25456380000105,131.25456380000105,None,131.75485089997528,None,j,1,0.7304478000150993,131.75485089997528,None,None,None,132.50685070001055,None,,,,,,,,,,,,,,,,,,,,,11004,1,1,2024_Jun_01_1706,stroop_task_switching2,2021.2.3,60.127554585593884,
condition/block_color,instruction/instr_color,instruction/i8,XX,blue,f,diamond,color_single,颜色,,,,,,,,,,,0,0,0,0,0,0,0,0,0,22,22,22,,,,,,,,,,,,,,,,,,,,,,,,,,,,,,,,,,,133.50812329998007,133.7078689999762,133.69202909996966,133.99168289999943,133.99168289999943,None,134.49217360001057,None,f,1,1.3046869999961928,134.49217360001057,None,None,None,135.8289506000001,None,,,,,,,,,,,,,,,,,,,,,11004,1,1,2024_Jun_01_1706,stroop_task_switching2,2021.2.3,60.127554585593884,
condition/block_color,instruction/instr_color,instruction/i8,XX,red,d,diamond,color_single,颜色,,,,,,,,,,,0,0,0,0,0,0,0,0,0,23,23,23,,,,,,,,,,,,,,,,,,,,,,,,,,,,,,,,,,,136.82911200000672,137.02963070000987,137.0138037999859,137.31315960001666,137.31315960001666,None,137.8145480999956,None,d,1,0.36658859997987747,137.8145480999956,None,None,None,138.1980268000043,None,,,,,,,,,,,,,,,,,,,,,11004,1,1,2024_Jun_01_1706,stroop_task_switching2,2021.2.3,60.127554585593884,
condition/block_color,instruction/instr_color,instruction/i8,,,,,,,,,,,,,,,,,0,0,0,0,0,0,0,0,,,,,,,,,,,,,,,,,,,,,,,,,,,,,,,,,,,,,,,,,,,,,,,,,,,,,,,,139.2162250999827,None,space,2.3735988000407815,139.2162250999827,None,,,,,,,,,,,,,,,11004,1,1,2024_Jun_01_1706,stroop_task_switching2,2021.2.3,60.127554585593884,
condition/block_color,instruction/instr_color,instruction/i8,,,,,,,,,,,,,,,,,0,0,0,0,,,,,,,,,,,,,,,,,,,,,,,,,,,,,,,,,,,,,,,,,,,,,,,,,,,,,,,,,,,,,,,,,,,,,,,,,,,,,,,,11004,1,1,2024_Jun_01_1706,stroop_task_switching2,2021.2.3,60.127554585593884,
condition/block_word,instruction/instr_word,instruction/i9,黄,white,j,square,word_single,单词,0.0032461461866890584,,,,,,,,,,0,1,1,1,0,0,0,0,0,0,0,0,,,,,,,,,,,,,,,,,,,,,141.6363912000088,None,space,3.375473799998872,141.6363912000088,None,146.04301229998237,147.0453267999692,147.0453267999692,148.04675149999093,148.04675149999093,None,145.0600768000004,146.06037179997656,149.06420459999936,149.26541759999236,149.2485175000038,149.54921369999647,149.54921369999647,None,150.0494790999801,None,f,0,2.252093799994327,150.0494790999801,None,None,None,152.31910199997947,None,,,,,,,,,,,,,,,,,,,,,11004,1,1,2024_Jun_01_1706,stroop_task_switching2,2021.2.3,60.127554585593884,
condition/block_word,instruction/instr_word,instruction/i9,蓝,white,f,square,word_single,单词,0.060540570646362424,,,,,,,,,,0,1,1,1,0,0,0,0,0,1,1,1,,,,,,,,,,,,,,,,,,,,,,,,,,,,,,,,,,,153.32171439996455,153.52207599999383,153.50527349999174,153.80541909998283,153.80541909998283,None,154.30613509996329,None,f,1,1.9396841999841854,154.30613509996329,None,None,None,156.27529089996824,None,,,,,,,,,,,,,,,,,,,,,11004,1,1,2024_Jun_01_1706,stroop_task_switching2,2021.2.3,60.127554585593884,
condition/block_word,instruction/instr_word,instruction/i9,黄,white,j,square,word_single,单词,0.06994067193778963,,,,,,,,,,0,1,1,1,0,0,0,0,0,2,2,2,,,,,,,,,,,,,,,,,,,,,,,,,,,,,,,,,,,157.2774546999717,157.47772329999134,157.4625627999776,157.77799629996298,157.76066899998114,None,158.26223009999376,None,j,1,0.687555100012105,158.26223009999376,None,None,None,158.97933950001607,None,,,,,,,,,,,,,,,,,,,,,11004,1,1,2024_Jun_01_1706,stroop_task_switching2,2021.2.3,60.127554585593884,
condition/block_word,instruction/instr_word,instruction/i9,蓝,white,f,square,word_single,单词,0.08193765152950094,,,,,,,,,,0,1,1,1,0,0,0,0,0,3,3,3,,,,,,,,,,,,,,,,,,,,,,,,,,,,,,,,,,,159.98146179999458,160.18160329997772,160.1650964000146,160.4655347999651,160.4655347999651,None,160.96546310000122,None,f,1,0.5685411000158638,160.96546310000122,None,None,None,161.54974829999264,None,,,,,,,,,,,,,,,,,,,,,11004,1,1,2024_Jun_01_1706,stroop_task_switching2,2021.2.3,60.127554585593884,
condition/block_word,instruction/instr_word,instruction/i9,红,white,d,square,word_single,单词,0.1279694370605574,,,,,,,,,,0,1,1,1,0,0,0,0,0,4,4,4,,,,,,,,,,,,,,,,,,,,,,,,,,,,,,,,,,,162.55163499998162,162.75338010000996,162.73538029997144,163.03673910000362,163.03673910000362,None,163.53597189998254,None,d,1,0.7179440999752842,163.53597189998254,None,None,None,164.27117949997773,None,,,,,,,,,,,,,,,,,,,,,11004,1,1,2024_Jun_01_1706,stroop_task_switching2,2021.2.3,60.127554585593884,
condition/block_word,instruction/instr_word,instruction/i9,红,white,d,square,word_single,单词,0.18345028784879092,,,,,,,,,,0,1,1,1,0,0,0,0,0,5,5,5,,,,,,,,,,,,,,,,,,,,,,,,,,,,,,,,,,,165.2719800999621,165.4725014999858,165.45678939996287,165.755817199999,165.755817199999,None,166.25679889996536,None,d,1,0.5497419000021182,166.25679889996536,None,None,None,166.82480419997592,None,,,,,,,,,,,,,,,,,,,,,11004,1,1,2024_Jun_01_1706,stroop_task_switching2,2021.2.3,60.127554585593884,
condition/block_word,instruction/instr_word,instruction/i9,蓝,white,f,square,word_single,单词,0.19920386223101294,,,,,,,,,,0,1,1,1,0,0,0,0,0,6,6,6,,,,,,,,,,,,,,,,,,,,,,,,,,,,,,,,,,,167.82645200000843,168.027153300005,168.0104778999812,168.31026759999804,168.31026759999804,None,168.81127679999918,None,f,1,0.5544110999908298,168.81127679999918,None,None,None,169.39528499997687,None,,,,,,,,,,,,,,,,,,,,,11004,1,1,2024_Jun_01_1706,stroop_task_switching2,2021.2.3,60.127554585593884,
condition/block_word,instruction/instr_word,instruction/i9,蓝,white,f,square,word_single,单词,0.26360599864925405,,,,,,,,,,0,1,1,1,0,0,0,0,0,7,7,7,,,,,,,,,,,,,,,,,,,,,,,,,,,,,,,,,,,170.3964993999689,170.59743869997328,170.57983589998912,170.88111670000944,170.88111670000944,None,171.3821256000083,None,f,1,0.591582200024277,171.3821256000083,None,None,None,171.99873260001186,None,,,,,,,,,,,,,,,,,,,,,11004,1,1,2024_Jun_01_1706,stroop_task_switching2,2021.2.3,60.127554585593884,
condition/block_word,instruction/instr_word,instruction/i9,蓝,white,f,square,word_single,单词,0.358985675745526,,,,,,,,,,0,1,1,1,0,0,0,0,0,8,8,8,,,,,,,,,,,,,,,,,,,,,,,,,,,,,,,,,,,173.00035270000808,173.20141290000174,173.1840152000077,173.48498909996124,173.48498909996124,None,173.98574219999136,None,f,1,0.5805063000298105,173.98574219999136,None,None,None,174.5871227000025,None,,,,,,,,,,,,,,,,,,,,,11004,1,1,2024_Jun_01_1706,stroop_task_switching2,2021.2.3,60.127554585593884,
condition/block_word,instruction/instr_word,instruction/i9,绿,white,k,square,word_single,单词,0.36496733802487347,,,,,,,,,,0,1,1,1,0,0,0,0,0,9,9,9,,,,,,,,,,,,,,,,,,,,,,,,,,,,,,,,,,,175.58748739998555,175.78788079996593,175.77153879997786,176.072586699971,176.072586699971,None,176.57223389996216,None,k,1,0.5535435000201687,176.57223389996216,None,None,None,177.1564450999722,None,,,,,,,,,,,,,,,,,,,,,11004,1,1,2024_Jun_01_1706,stroop_task_switching2,2021.2.3,60.127554585593884,
condition/block_word,instruction/instr_word,instruction/i9,黄,white,j,square,word_single,单词,0.3743513623756727,,,,,,,,,,0,1,1,1,0,0,0,0,0,10,10,10,,,,,,,,,,,,,,,,,,,,,,,,,,,,,,,,,,,178.15900859999238,178.35844300000463,178.34333930001594,178.64289829996414,178.64289829996414,None,179.1437806999893,None,j,1,0.6068074000068009,179.1437806999893,None,None,None,179.7774224000168,None,,,,,,,,,,,,,,,,,,,,,11004,1,1,2024_Jun_01_1706,stroop_task_switching2,2021.2.3,60.127554585593884,
condition/block_word,instruction/instr_word,instruction/i9,红,white,d,square,word_single,单词,0.3894803852598544,,,,,,,,,,0,1,1,1,0,0,0,0,0,11,11,11,,,,,,,,,,,,,,,,,,,,,,,,,,,,,,,,,,,180.78018160001375,180.995742900006,180.9624649999896,181.2633957999642,181.2633957999642,None,181.7645613999921,None,f,0,0.7693817000254057,181.7645613999921,None,None,None,182.56477269995958,None,,,,,,,,,,,,,,,,,,,,,11004,1,1,2024_Jun_01_1706,stroop_task_switching2,2021.2.3,60.127554585593884,
condition/block_word,instruction/instr_word,instruction/i9,绿,white,k,square,word_single,单词,0.5393759672408067,,,,,,,,,,0,1,1,1,0,0,0,0,0,12,12,12,,,,,,,,,,,,,,,,,,,,,,,,,,,,,,,,,,,183.56624600000214,183.76801489997888,183.74982530000852,184.0510096999933,184.0510096999933,None,184.55107839999255,None,k,1,0.7431514999479987,184.55107839999255,None,None,None,185.31898969999747,None,,,,,,,,,,,,,,,,,,,,,11004,1,1,2024_Jun_01_1706,stroop_task_switching2,2021.2.3,60.127554585593884,
condition/block_word,instruction/instr_word,instruction/i9,蓝,white,f,square,word_single,单词,0.5995731954831104,,,,,,,,,,0,1,1,1,0,0,0,0,0,13,13,13,,,,,,,,,,,,,,,,,,,,,,,,,,,,,,,,,,,186.32114279997768,186.52150909998454,186.50567769998452,186.82205389998853,186.8044050000026,None,187.30527859996073,None,f,1,0.628940699971281,187.30527859996073,None,None,None,187.95632659998955,None,,,,,,,,,,,,,,,,,,,,,11004,1,1,2024_Jun_01_1706,stroop_task_switching2,2021.2.3,60.127554585593884,
condition/block_word,instruction/instr_word,instruction/i9,红,white,d,square,word_single,单词,0.6298674479151414,,,,,,,,,,0,1,1,1,0,0,0,0,0,14,14,14,,,,,,,,,,,,,,,,,,,,,,,,,,,,,,,,,,,188.9583726999699,189.15896049997536,189.1442859999952,189.46027769998182,189.441834199999,None,189.94266989995958,None,d,1,0.45592099998611957,189.94266989995958,None,None,None,190.4265173000167,None,,,,,,,,,,,,,,,,,,,,,11004,1,1,2024_Jun_01_1706,stroop_task_switching2,2021.2.3,60.127554585593884,
condition/block_word,instruction/instr_word,instruction/i9,红,white,d,square,word_single,单词,0.7389942282348904,,,,,,,,,,0,1,1,1,0,0,0,0,0,15,15,15,,,,,,,,,,,,,,,,,,,,,,,,,,,,,,,,,,,191.4281006999663,191.62837829999626,191.61194510001224,191.91217109997524,191.91217109997524,None,192.41289009997854,None,d,1,0.5214223000220954,192.41289009997854,None,None,None,192.96427140000742,None,,,,,,,,,,,,,,,,,,,,,11004,1,1,2024_Jun_01_1706,stroop_task_switching2,2021.2.3,60.127554585593884,
condition/block_word,instruction/instr_word,instruction/i9,绿,white,k,square,word_single,单词,0.7550853947239682,,,,,,,,,,0,1,1,1,0,0,0,0,0,16,16,16,,,,,,,,,,,,,,,,,,,,,,,,,,,,,,,,,,,193.965357100009,194.16634709999198,194.1494626000058,194.4505949000013,194.4505949000013,None,194.94992079999065,None,k,1,0.5694429000141099,194.94992079999065,None,None,None,195.5341344999615,None,,,,,,,,,,,,,,,,,,,,,11004,1,1,2024_Jun_01_1706,stroop_task_switching2,2021.2.3,60.127554585593884,
condition/block_word,instruction/instr_word,instruction/i9,绿,white,k,square,word_single,单词,0.8019302780428206,,,,,,,,,,0,1,1,1,0,0,0,0,0,17,17,17,,,,,,,,,,,,,,,,,,,,,,,,,,,,,,,,,,,196.5358260999783,196.73616129998118,196.7203206999693,197.02083310001763,197.02083310001763,None,197.52182809996884,None,k,1,0.4766702000051737,197.52182809996884,None,None,None,198.0222356999875,None,,,,,,,,,,,,,,,,,,,,,11004,1,1,2024_Jun_01_1706,stroop_task_switching2,2021.2.3,60.127554585593884,
condition/block_word,instruction/instr_word,instruction/i9,绿,white,k,square,word_single,单词,0.8110702914095343,,,,,,,,,,0,1,1,1,0,0,0,0,0,18,18,18,,,,,,,,,,,,,,,,,,,,,,,,,,,,,,,,,,,199.0241948000039,199.2231596999918,199.20735240000067,199.5091073999647,199.5091073999647,None,200.00781270000152,None,k,1,0.6788640000158921,200.00781270000152,None,None,None,200.7089119000011,None,,,,,,,,,,,,,,,,,,,,,11004,1,1,2024_Jun_01_1706,stroop_task_switching2,2021.2.3,60.127554585593884,
condition/block_word,instruction/instr_word,instruction/i9,黄,white,j,square,word_single,单词,0.8176594937590999,,,,,,,,,,0,1,1,1,0,0,0,0,0,19,19,19,,,,,,,,,,,,,,,,,,,,,,,,,,,,,,,,,,,201.7110440999968,201.9107202999876,201.8938071000157,202.19486139999935,202.19486139999935,None,202.69524580001598,None,j,1,0.5277953000040725,202.69524580001598,None,None,None,203.24596089997794,None,,,,,,,,,,,,,,,,,,,,,11004,1,1,2024_Jun_01_1706,stroop_task_switching2,2021.2.3,60.127554585593884,
condition/block_word,instruction/instr_word,instruction/i9,红,white,d,square,word_single,单词,0.8955794421104841,,,,,,,,,,0,1,1,1,0,0,0,0,0,20,20,20,,,,,,,,,,,,,,,,,,,,,,,,,,,,,,,,,,,204.24848469998688,204.44778699998278,204.43217200000072,204.73192569997627,204.73192569997627,None,205.23320179997245,None,d,1,0.3495234999572858,205.23320179997245,None,None,None,205.5994354999857,None,,,,,,,,,,,,,,,,,,,,,11004,1,1,2024_Jun_01_1706,stroop_task_switching2,2021.2.3,60.127554585593884,
condition/block_word,instruction/instr_word,instruction/i9,绿,white,k,square,word_single,单词,0.9113598052474129,,,,,,,,,,0,1,1,1,0,0,0,0,0,21,21,21,,,,,,,,,,,,,,,,,,,,,,,,,,,,,,,,,,,206.601022799965,206.80298959999345,206.7847334999824,207.0850730999955,207.0850730999955,None,207.5858004000038,None,k,1,0.6213478000136092,207.5858004000038,None,None,None,208.23677319998387,None,,,,,,,,,,,,,,,,,,,,,11004,1,1,2024_Jun_01_1706,stroop_task_switching2,2021.2.3,60.127554585593884,
condition/block_word,instruction/instr_word,instruction/i9,黄,white,j,square,word_single,单词,0.9215930958042953,,,,,,,,,,0,1,1,1,0,0,0,0,0,22,22,22,,,,,,,,,,,,,,,,,,,,,,,,,,,,,,,,,,,209.23848130000988,209.44023999996716,209.42192100000102,209.72321580001153,209.72321580001153,None,210.2231182999676,None,j,1,0.6077563000144437,210.2231182999676,None,None,None,210.85753430001205,None,,,,,,,,,,,,,,,,,,,,,11004,1,1,2024_Jun_01_1706,stroop_task_switching2,2021.2.3,60.127554585593884,
condition/block_word,instruction/instr_word,instruction/i9,黄,white,j,square,word_single,单词,0.9493525498837774,,,,,,,,,,0,1,1,1,0,0,0,0,0,23,23,23,,,,,,,,,,,,,,,,,,,,,,,,,,,,,,,,,,,211.85956609999994,212.06112239998765,212.04260869999416,212.34358679997968,212.34358679997968,None,212.84422470000573,None,j,1,0.5469145000097342,212.84422470000573,None,None,None,213.41131759999553,None,,,,,,,,,,,,,,,,,,,,,11004,1,1,2024_Jun_01_1706,stroop_task_switching2,2021.2.3,60.127554585593884,
condition/block_word,instruction/instr_word,instruction/i9,,,,,,,,,,,,,,,,,0,1,1,1,0,0,0,0,,,,,,,,,,,,,,,,,,,,,,,,,,,,,,,,,,,,,,,,,,,,,,,,,,,,,,,,214.43196079996414,None,space,2.623439299990423,214.43196079996414,None,,,,,,,,,,,,,,,11004,1,1,2024_Jun_01_1706,stroop_task_switching2,2021.2.3,60.127554585593884,
condition/block_word,instruction/instr_word,instruction/i9,,,,,,,,,,,,,,,,,0,1,1,1,,,,,,,,,,,,,,,,,,,,,,,,,,,,,,,,,,,,,,,,,,,,,,,,,,,,,,,,,,,,,,,,,,,,,,,,,,,,,,,,11004,1,1,2024_Jun_01_1706,stroop_task_switching2,2021.2.3,60.127554585593884,
condition/block_mixed,instruction/instr_mixed,instruction/i10,蓝,red,d,diamond,color_mix,颜色,,incompatible,0,,,,,,,,0,2,2,2,0,0,0,0,0,0,0,0,,,,,,,,,,,,,,,,,,,,,217.10022139997454,None,space,17.57394899998326,217.10022139997454,None,235.69498540001223,236.696483000007,236.696483000007,237.698215899989,237.698215899989,None,234.71141240000725,235.71207919996232,238.7344987000106,238.93470579996938,238.91726229997585,239.2170058999909,239.2170058999909,None,239.70180629997049,None,d,1,0.9779273000312969,239.70180629997049,None,None,None,240.70248089998495,None,,,,,,,,,,,,,,,,,,,,,11004,1,1,2024_Jun_01_1706,stroop_task_switching2,2021.2.3,60.127554585593884,
condition/block_mixed,instruction/instr_mixed,instruction/i10,绿,yellow,j,diamond,color_mix,颜色,,incompatible,1,,,,,,,,0,2,2,2,0,0,0,0,0,1,1,1,,,,,,,,,,,,,,,,,,,,,,,,,,,,,,,,,,,241.7047547000111,241.90505429997575,241.8881498000119,242.18981979996897,242.18981979996897,None,242.68885400000727,None,j,1,0.919509899977129,242.68885400000727,None,None,None,243.6235301999841,None,,,,,,,,,,,,,,,,,,,,,11004,1,1,2024_Jun_01_1706,stroop_task_switching2,2021.2.3,60.127554585593884,
condition/block_mixed,instruction/instr_mixed,instruction/i10,红,green,k,diamond,color_mix,颜色,,incompatible,1,,,,,,,,0,2,2,2,0,0,0,0,0,2,2,2,,,,,,,,,,,,,,,,,,,,,,,,,,,,,,,,,,,244.62548909999896,244.8252468999708,244.809094599972,245.11056920001283,245.11056920001283,None,245.60959939996246,None,k,1,0.5507855999749154,245.60959939996246,None,None,None,246.17799579998245,None,,,,,,,,,,,,,,,,,,,,,11004,1,1,2024_Jun_01_1706,stroop_task_switching2,2021.2.3,60.127554585593884,
condition/block_mixed,instruction/instr_mixed,instruction/i10,蓝,red,d,diamond,color_mix,颜色,,incompatible,1,,,,,,,,0,2,2,2,0,0,0,0,0,3,3,3,,,,,,,,,,,,,,,,,,,,,,,,,,,,,,,,,,,247.17874870001106,247.37948870001128,247.36308709997684,247.66357079998124,247.66357079998124,None,248.16357749997405,None,d,1,0.7963117999606766,248.16357749997405,None,None,None,248.9822306999704,None,,,,,,,,,,,,,,,,,,,,,11004,1,1,2024_Jun_01_1706,stroop_task_switching2,2021.2.3,60.127554585593884,
condition/block_mixed,instruction/instr_mixed,instruction/i10,红,blue,f,diamond,color_mix,颜色,,incompatible,1,,,,,,,,0,2,2,2,0,0,0,0,0,4,4,4,,,,,,,,,,,,,,,,,,,,,,,,,,,,,,,,,,,249.98301169998012,250.1834286999656,250.16792390000774,250.468118699966,250.468118699966,None,250.96803629997885,None,f,1,1.0240198000101373,250.96803629997885,None,None,None,252.01962869998533,None,,,,,,,,,,,,,,,,,,,,,11004,1,1,2024_Jun_01_1706,stroop_task_switching2,2021.2.3,60.127554585593884,
condition/block_mixed,instruction/instr_mixed,instruction/i10,红,blue,d,square,color_mix,单词,,incompatible,2,,,,,,,,0,2,2,2,0,0,0,0,0,5,5,5,,,,,,,,,,,,,,,,,,,,,,,,,,,,,,,,,,,253.0221307000029,253.22139319998678,253.20659429999068,253.50578700000187,253.50578700000187,None,254.00660149997566,None,d,1,0.6504873000085354,254.00660149997566,None,None,None,254.6743465999607,None,,,,,,,,,,,,,,,,,,,,,11004,1,1,2024_Jun_01_1706,stroop_task_switching2,2021.2.3,60.127554585593884,
condition/block_mixed,instruction/instr_mixed,instruction/i10,红,yellow,j,diamond,color_mix,颜色,,incompatible,2,,,,,,,,0,2,2,2,0,0,0,0,0,6,6,6,,,,,,,,,,,,,,,,,,,,,,,,,,,,,,,,,,,255.675863499986,255.87523120001424,255.8587502000155,256.1591646000161,256.1591646000161,None,256.65976619999856,None,j,1,1.0444008999620564,256.65976619999856,None,None,None,257.7282918000128,None,,,,,,,,,,,,,,,,,,,,,11004,1,1,2024_Jun_01_1706,stroop_task_switching2,2021.2.3,60.127554585593884,
condition/block_mixed,instruction/instr_mixed,instruction/i10,红,yellow,d,square,color_mix,单词,,incompatible,2,,,,,,,,0,2,2,2,0,0,0,0,0,7,7,7,,,,,,,,,,,,,,,,,,,,,,,,,,,,,,,,,,,258.73015249997843,258.92991999996593,258.9132660999894,259.2136176999775,259.2136176999775,None,259.71453240001574,None,j,0,0.8144619000377133,259.71453240001574,None,None,None,260.5489675999852,None,,,,,,,,,,,,,,,,,,,,,11004,1,1,2024_Jun_01_1706,stroop_task_switching2,2021.2.3,60.127554585593884,
condition/block_mixed,instruction/instr_mixed,instruction/i10,绿,blue,k,square,color_mix,单词,,incompatible,1,,,,,,,,0,2,2,2,0,0,0,0,0,8,8,8,,,,,,,,,,,,,,,,,,,,,,,,,,,,,,,,,,,261.5506602000096,261.75084019999485,261.7342399999616,262.03596279997146,262.03596279997146,None,262.535303200013,None,f,0,1.1289839999517426,262.535303200013,None,None,None,263.6871775999898,None,,,,,,,,,,,,,,,,,,,,,11004,1,1,2024_Jun_01_1706,stroop_task_switching2,2021.2.3,60.127554585593884,
condition/block_mixed,instruction/instr_mixed,instruction/i10,蓝,green,k,diamond,color_mix,颜色,,incompatible,2,,,,,,,,0,2,2,2,0,0,0,0,0,9,9,9,,,,,,,,,,,,,,,,,,,,,,,,,,,,,,,,,,,264.68995470000664,264.890428899962,264.87287879997166,265.17401349998545,265.17401349998545,None,265.67356749996543,None,k,1,0.9426750000566244,265.67356749996543,None,None,None,266.64147089998005,None,,,,,,,,,,,,,,,,,,,,,11004,1,1,2024_Jun_01_1706,stroop_task_switching2,2021.2.3,60.127554585593884,
condition/block_mixed,instruction/instr_mixed,instruction/i10,蓝,yellow,f,square,color_mix,单词,,incompatible,2,,,,,,,,0,2,2,2,0,0,0,0,0,10,10,10,,,,,,,,,,,,,,,,,,,,,,,,,,,,,,,,,,,267.64328740001656,267.8434613000136,267.82755409996025,268.1279586000019,268.1279586000019,None,268.6279052000027,None,f,1,1.1965892000007443,268.6279052000027,None,None,None,269.8464873000048,None,,,,,,,,,,,,,,,,,,,,,11004,1,1,2024_Jun_01_1706,stroop_task_switching2,2021.2.3,60.127554585593884,
condition/block_mixed,instruction/instr_mixed,instruction/i10,蓝,green,f,square,color_mix,单词,,incompatible,1,,,,,,,,0,2,2,2,0,0,0,0,0,11,11,11,,,,,,,,,,,,,,,,,,,,,,,,,,,,,,,,,,,270.84851380001055,271.0499639000045,271.0316969999694,271.3327784999856,271.3327784999856,None,271.83373509999365,None,f,1,1.2229233999969438,271.83373509999365,None,None,None,273.0845318000065,None,,,,,,,,,,,,,,,,,,,,,11004,1,1,2024_Jun_01_1706,stroop_task_switching2,2021.2.3,60.127554585593884,
condition/block_mixed,instruction/instr_mixed,instruction/i10,绿,yellow,k,square,color_mix,单词,,incompatible,1,,,,,,,,0,2,2,2,0,0,0,0,0,12,12,12,,,,,,,,,,,,,,,,,,,,,,,,,,,,,,,,,,,274.0863357000053,274.28673950000666,274.2712560999789,274.5710376999923,274.5710376999923,None,275.0714950999827,None,k,1,0.921230000036303,275.0714950999827,None,None,None,276.0221165000112,None,,,,,,,,,,,,,,,,,,,,,11004,1,1,2024_Jun_01_1706,stroop_task_switching2,2021.2.3,60.127554585593884,
condition/block_mixed,instruction/instr_mixed,instruction/i10,绿,blue,f,diamond,color_mix,颜色,,incompatible,2,,,,,,,,0,2,2,2,0,0,0,0,0,13,13,13,,,,,,,,,,,,,,,,,,,,,,,,,,,,,,,,,,,277.0237730999943,277.22414299997035,277.20816799998283,277.50800199998775,277.50800199998775,None,278.0090727999923,None,f,1,0.9195018000318669,278.0090727999923,None,None,None,278.9433878000127,None,,,,,,,,,,,,,,,,,,,,,11004,1,1,2024_Jun_01_1706,stroop_task_switching2,2021.2.3,60.127554585593884,
condition/block_mixed,instruction/instr_mixed,instruction/i10,黄,red,j,square,color_mix,单词,,incompatible,2,,,,,,,,0,2,2,2,0,0,0,0,0,14,14,14,,,,,,,,,,,,,,,,,,,,,,,,,,,,,,,,,,,279.94556799996644,280.1459135999903,280.1299266999704,280.4290030999691,280.4290030999691,None,280.9297573000076,None,j,1,1.6550320999813266,280.9297573000076,None,None,None,282.6155141000054,None,,,,,,,,,,,,,,,,,,,,,11004,1,1,2024_Jun_01_1706,stroop_task_switching2,2021.2.3,60.127554585593884,
condition/block_mixed,instruction/instr_mixed,instruction/i10,蓝,yellow,j,diamond,color_mix,颜色,,incompatible,2,,,,,,,,0,2,2,2,0,0,0,0,0,15,15,15,,,,,,,,,,,,,,,,,,,,,,,,,,,,,,,,,,,283.6172076999792,283.81737379997503,283.8011274000164,284.1012034000014,284.1012034000014,None,284.60187589999987,None,j,1,1.327099200047087,284.60187589999987,None,None,None,285.9542029000004,None,,,,,,,,,,,,,,,,,,,,,11004,1,1,2024_Jun_01_1706,stroop_task_switching2,2021.2.3,60.127554585593884,
condition/block_mixed,instruction/instr_mixed,instruction/i10,黄,red,d,diamond,color_mix,颜色,,incompatible,1,,,,,,,,0,2,2,2,0,0,0,0,0,16,16,16,,,,,,,,,,,,,,,,,,,,,,,,,,,,,,,,,,,286.9562705999706,287.15659480000613,287.1392063999665,287.44011329999194,287.44011329999194,None,287.9402365999995,None,d,1,1.5090922000235878,287.9402365999995,None,None,None,289.4763653000118,None,,,,,,,,,,,,,,,,,,,,,11004,1,1,2024_Jun_01_1706,stroop_task_switching2,2021.2.3,60.127554585593884,
condition/block_mixed,instruction/instr_mixed,instruction/i10,绿,red,k,square,color_mix,单词,,incompatible,2,,,,,,,,0,2,2,2,0,0,0,0,0,17,17,17,,,,,,,,,,,,,,,,,,,,,,,,,,,,,,,,,,,290.478378299973,290.6790799999726,290.6611636999878,290.96157869999297,290.96157869999297,None,291.46237620001193,None,k,1,1.346704600029625,291.46237620001193,None,None,None,292.8311470999615,None,,,,,,,,,,,,,,,,,,,,,11004,1,1,2024_Jun_01_1706,stroop_task_switching2,2021.2.3,60.127554585593884,
condition/block_mixed,instruction/instr_mixed,instruction/i10,红,green,d,square,color_mix,单词,,incompatible,1,,,,,,,,0,2,2,2,0,0,0,0,0,18,18,18,,,,,,,,,,,,,,,,,,,,,,,,,,,,,,,,,,,293.8333364999853,294.0356289999909,294.01706829998875,294.3173445999855,294.3173445999855,None,294.8173595999833,None,d,1,1.1120323999784887,294.8173595999833,None,None,None,295.9537774999626,None,,,,,,,,,,,,,,,,,,,,,11004,1,1,2024_Jun_01_1706,stroop_task_switching2,2021.2.3,60.127554585593884,
condition/block_mixed,instruction/instr_mixed,instruction/i10,黄,blue,f,diamond,color_mix,颜色,,incompatible,2,,,,,,,,0,2,2,2,0,0,0,0,0,19,19,19,,,,,,,,,,,,,,,,,,,,,,,,,,,,,,,,,,,296.953914600017,297.15428099996643,297.1384435999789,297.43914999999106,297.43914999999106,None,297.9392703999765,None,f,1,0.8062983999843709,297.9392703999765,None,None,None,298.7731264999602,None,,,,,,,,,,,,,,,,,,,,,11004,1,1,2024_Jun_01_1706,stroop_task_switching2,2021.2.3,60.127554585593884,
condition/block_mixed,instruction/instr_mixed,instruction/i10,黄,green,k,diamond,color_mix,颜色,,incompatible,1,,,,,,,,0,2,2,2,0,0,0,0,0,20,20,20,,,,,,,,,,,,,,,,,,,,,,,,,,,,,,,,,,,299.7750964000006,299.9761298999656,299.9594475000049,300.2600278999889,300.2600278999889,None,300.7597717999597,None,k,1,1.6654224999947473,300.7597717999597,None,None,None,302.4454922999721,None,,,,,,,,,,,,,,,,,,,,,11004,1,1,2024_Jun_01_1706,stroop_task_switching2,2021.2.3,60.127554585593884,
condition/block_mixed,instruction/instr_mixed,instruction/i10,黄,green,j,square,color_mix,单词,,incompatible,2,,,,,,,,0,2,2,2,0,0,0,0,0,21,21,21,,,,,,,,,,,,,,,,,,,,,,,,,,,,,,,,,,,303.44807350001065,303.6481437999755,303.63124989997596,303.9315034999745,303.9315034999745,None,304.43322599999374,None,j,1,1.336425399989821,304.43322599999374,None,None,None,305.78402059996733,None,,,,,,,,,,,,,,,,,,,,,11004,1,1,2024_Jun_01_1706,stroop_task_switching2,2021.2.3,60.127554585593884,
condition/block_mixed,instruction/instr_mixed,instruction/i10,黄,blue,j,square,color_mix,单词,,incompatible,1,,,,,,,,0,2,2,2,0,0,0,0,0,22,22,22,,,,,,,,,,,,,,,,,,,,,,,,,,,,,,,,,,,306.7865134999738,306.9856649999856,306.97007119999034,307.27103429997806,307.27103429997806,None,307.77133700001286,None,j,1,1.2388651000219397,307.77133700001286,None,None,None,309.0396914000157,None,,,,,,,,,,,,,,,,,,,,,11004,1,1,2024_Jun_01_1706,stroop_task_switching2,2021.2.3,60.127554585593884,
condition/block_mixed,instruction/instr_mixed,instruction/i10,蓝,red,f,square,color_mix,单词,,incompatible,1,,,,,,,,0,2,2,2,0,0,0,0,0,23,23,23,,,,,,,,,,,,,,,,,,,,,,,,,,,,,,,,,,,310.0403676999849,310.24141249997774,310.2239402999985,310.52573930000653,310.52573930000653,None,311.02521599998,None,f,1,0.5762882999842986,311.02521599998,None,None,None,311.6260656999657,None,,,,,,,,,,,,,,,,,,,,,11004,1,1,2024_Jun_01_1706,stroop_task_switching2,2021.2.3,60.127554585593884,
condition/block_mixed,instruction/instr_mixed,instruction/i10,绿,red,d,diamond,color_mix,颜色,,incompatible,2,,,,,,,,0,2,2,2,0,0,0,0,0,24,24,24,,,,,,,,,,,,,,,,,,,,,,,,,,,,,,,,,,,312.6281481999904,312.8278272000025,312.8118528999621,313.11234089999925,313.11234089999925,None,313.6123009999865,None,d,1,0.8775366999907419,313.6123009999865,None,None,None,314.5145346999634,None,,,,,,,,,,,,,,,,,,,,,11004,1,1,2024_Jun_01_1706,stroop_task_switching2,2021.2.3,60.127554585593884,
condition/block_mixed,instruction/instr_mixed,instruction/i10,绿,green,k,diamond,color_mix,颜色,,compatible,1,,,,,,,,0,2,2,2,0,0,0,0,0,25,25,25,,,,,,,,,,,,,,,,,,,,,,,,,,,,,,,,,,,315.51587559998734,315.7160962999915,315.7004636999918,315.99924330000067,315.99924330000067,None,316.5010439999751,None,k,1,1.2526498999795876,316.5010439999751,None,None,None,317.785507099994,None,,,,,,,,,,,,,,,,,,,,,11004,1,1,2024_Jun_01_1706,stroop_task_switching2,2021.2.3,60.127554585593884,
condition/block_mixed,instruction/instr_mixed,instruction/i10,蓝,blue,f,diamond,color_mix,颜色,,compatible,1,,,,,,,,0,2,2,2,0,0,0,0,0,26,26,26,,,,,,,,,,,,,,,,,,,,,,,,,,,,,,,,,,,318.7876311999862,318.9876163000008,318.97122070001205,319.27093080000486,319.27093080000486,None,319.772576999967,None,f,1,1.0054476999794133,319.772576999967,None,None,None,320.80739229999017,None,,,,,,,,,,,,,,,,,,,,,11004,1,1,2024_Jun_01_1706,stroop_task_switching2,2021.2.3,60.127554585593884,
condition/block_mixed,instruction/instr_mixed,instruction/i10,绿,green,k,square,color_mix,单词,,compatible,2,,,,,,,,0,2,2,2,0,0,0,0,0,27,27,27,,,,,,,,,,,,,,,,,,,,,,,,,,,,,,,,,,,321.8085548999952,322.00910389999626,321.99361760000465,322.2920649999869,322.2920649999869,None,322.79288429999724,None,k,1,0.8652672000462189,322.79288429999724,None,None,None,323.6788359999773,None,,,,,,,,,,,,,,,,,,,,,11004,1,1,2024_Jun_01_1706,stroop_task_switching2,2021.2.3,60.127554585593884,
condition/block_mixed,instruction/instr_mixed,instruction/i10,绿,green,k,square,color_mix,单词,,compatible,1,,,,,,,,0,2,2,2,0,0,0,0,0,28,28,28,,,,,,,,,,,,,,,,,,,,,,,,,,,,,,,,,,,324.68026120000286,324.8808185000089,324.86434550001286,325.1640534999897,325.1640534999897,None,325.66396510001505,None,k,1,0.48213710001436993,325.66396510001505,None,None,None,326.1647426999989,None,,,,,,,,,,,,,,,,,,,,,11004,1,1,2024_Jun_01_1706,stroop_task_switching2,2021.2.3,60.127554585593884,
condition/block_mixed,instruction/instr_mixed,instruction/i10,蓝,blue,f,square,color_mix,单词,,compatible,1,,,,,,,,0,2,2,2,0,0,0,0,0,29,29,29,,,,,,,,,,,,,,,,,,,,,,,,,,,,,,,,,,,327.16760250000516,327.36617029999616,327.3508900000015,327.6506939000101,327.6506939000101,None,328.15194599999813,None,f,1,0.8021118000033312,328.15194599999813,None,None,None,328.986776500009,None,,,,,,,,,,,,,,,,,,,,,11004,1,1,2024_Jun_01_1706,stroop_task_switching2,2021.2.3,60.127554585593884,
condition/block_mixed,instruction/instr_mixed,instruction/i10,黄,yellow,j,diamond,color_mix,颜色,,compatible,2,,,,,,,,0,2,2,2,0,0,0,0,0,30,30,30,,,,,,,,,,,,,,,,,,,,,,,,,,,,,,,,,,,329.98706169996876,330.18802279996453,330.1718153000111,330.47116720001213,330.47116720001213,None,330.9719131999882,None,j,1,1.0462310999864712,330.9719131999882,None,None,None,332.0401061999728,None,,,,,,,,,,,,,,,,,,,,,11004,1,1,2024_Jun_01_1706,stroop_task_switching2,2021.2.3,60.127554585593884,
condition/block_mixed,instruction/instr_mixed,instruction/i10,绿,green,k,square,color_mix,单词,,compatible,2,,,,,,,,0,2,2,2,0,0,0,0,0,31,31,31,,,,,,,,,,,,,,,,,,,,,,,,,,,,,,,,,,,333.04132409999147,333.24232710001525,333.2258080000174,333.5260643999791,333.5260643999791,None,334.0271869999706,None,k,1,0.49537799996323884,334.0271869999706,None,None,None,334.5438811999629,None,,,,,,,,,,,,,,,,,,,,,11004,1,1,2024_Jun_01_1706,stroop_task_switching2,2021.2.3,60.127554585593884,
condition/block_mixed,instruction/instr_mixed,instruction/i10,黄,yellow,j,square,color_mix,单词,,compatible,1,,,,,,,,0,2,2,2,0,0,0,0,0,32,32,32,,,,,,,,,,,,,,,,,,,,,,,,,,,,,,,,,,,335.5454056999879,335.74659920000704,335.7296953999903,336.0293651999673,336.0293651999673,None,336.5311897000065,None,j,1,0.9994307999731973,336.5311897000065,None,None,None,337.54850899998564,None,,,,,,,,,,,,,,,,,,,,,11004,1,1,2024_Jun_01_1706,stroop_task_switching2,2021.2.3,60.127554585593884,
condition/block_mixed,instruction/instr_mixed,instruction/i10,绿,green,k,diamond,color_mix,颜色,,compatible,2,,,,,,,,0,2,2,2,0,0,0,0,0,33,33,33,,,,,,,,,,,,,,,,,,,,,,,,,,,,,,,,,,,338.5499243999948,338.75062780000735,338.7335172999883,339.03415459999815,339.03415459999815,None,339.535246799991,None,k,1,0.6433029000181705,339.535246799991,None,None,None,340.2024088999606,None,,,,,,,,,,,,,,,,,,,,,11004,1,1,2024_Jun_01_1706,stroop_task_switching2,2021.2.3,60.127554585593884,
condition/block_mixed,instruction/instr_mixed,instruction/i10,红,red,d,square,color_mix,单词,,compatible,2,,,,,,,,0,2,2,2,0,0,0,0,0,34,34,34,,,,,,,,,,,,,,,,,,,,,,,,,,,,,,,,,,,341.2039111999911,341.4043284999789,341.38777999999,341.68820129998494,341.68820129998494,None,342.1887685999973,None,d,1,0.5739500999916345,342.1887685999973,None,None,None,342.78961549996166,None,,,,,,,,,,,,,,,,,,,,,11004,1,1,2024_Jun_01_1706,stroop_task_switching2,2021.2.3,60.127554585593884,
condition/block_mixed,instruction/instr_mixed,instruction/i10,黄,yellow,j,square,color_mix,单词,,compatible,1,,,,,,,,0,2,2,2,0,0,0,0,0,35,35,35,,,,,,,,,,,,,,,,,,,,,,,,,,,,,,,,,,,343.7917546000099,343.99341549997916,343.9751903999713,344.27529479999794,344.27529479999794,None,344.77612059999956,None,j,1,0.7622947000199929,344.77612059999956,None,None,None,345.56080749997636,None,,,,,,,,,,,,,,,,,,,,,11004,1,1,2024_Jun_01_1706,stroop_task_switching2,2021.2.3,60.127554585593884,
condition/block_mixed,instruction/instr_mixed,instruction/i10,绿,green,k,diamond,color_mix,颜色,,compatible,2,,,,,,,,0,2,2,2,0,0,0,0,0,36,36,36,,,,,,,,,,,,,,,,,,,,,,,,,,,,,,,,,,,346.56276770000113,346.76332249998813,346.74634379998315,347.0469907000079,347.0469907000079,None,347.5466733999783,None,k,1,0.6162539999932051,347.5466733999783,None,None,None,348.18104719999246,None,,,,,,,,,,,,,,,,,,,,,11004,1,1,2024_Jun_01_1706,stroop_task_switching2,2021.2.3,60.127554585593884,
condition/block_mixed,instruction/instr_mixed,instruction/i10,蓝,blue,f,square,color_mix,单词,,compatible,2,,,,,,,,0,2,2,2,0,0,0,0,0,37,37,37,,,,,,,,,,,,,,,,,,,,,,,,,,,,,,,,,,,349.1827116999775,349.38275960000465,349.36721789999865,349.6667746999883,349.6667746999883,None,350.1675338000059,None,f,1,1.3166241000290029,350.1675338000059,None,None,None,351.5028224000125,None,,,,,,,,,,,,,,,,,,,,,11004,1,1,2024_Jun_01_1706,stroop_task_switching2,2021.2.3,60.127554585593884,
condition/block_mixed,instruction/instr_mixed,instruction/i10,红,red,d,square,color_mix,单词,,compatible,1,,,,,,,,0,2,2,2,0,0,0,0,0,38,38,38,,,,,,,,,,,,,,,,,,,,,,,,,,,,,,,,,,,352.5052417999832,352.70455620001303,352.68874949996825,352.98941979999654,352.98941979999654,None,353.4894695999683,None,d,1,0.6093055999954231,353.4894695999683,None,None,None,354.123627199966,None,,,,,,,,,,,,,,,,,,,,,11004,1,1,2024_Jun_01_1706,stroop_task_switching2,2021.2.3,60.127554585593884,
condition/block_mixed,instruction/instr_mixed,instruction/i10,黄,yellow,j,diamond,color_mix,颜色,,compatible,2,,,,,,,,0,2,2,2,0,0,0,0,0,39,39,39,,,,,,,,,,,,,,,,,,,,,,,,,,,,,,,,,,,355.1255761999637,355.32590140000684,355.3103451000061,355.61149129999103,355.61149129999103,None,356.12650770001346,None,j,1,0.5165110999951139,356.12650770001346,None,None,None,356.66097600001376,None,,,,,,,,,,,,,,,,,,,,,11004,1,1,2024_Jun_01_1706,stroop_task_switching2,2021.2.3,60.127554585593884,
condition/block_mixed,instruction/instr_mixed,instruction/i10,黄,yellow,j,square,color_mix,单词,,compatible,2,,,,,,,,0,2,2,2,0,0,0,0,0,40,40,40,,,,,,,,,,,,,,,,,,,,,,,,,,,,,,,,,,,357.6637031999999,357.8790599000058,357.8457832999993,358.1475747000077,358.1475747000077,None,358.6469591999776,None,j,1,0.5722050999756902,358.6469591999776,None,None,None,359.2480203000014,None,,,,,,,,,,,,,,,,,,,,,11004,1,1,2024_Jun_01_1706,stroop_task_switching2,2021.2.3,60.127554585593884,
condition/block_mixed,instruction/instr_mixed,instruction/i10,蓝,blue,f,square,color_mix,单词,,compatible,1,,,,,,,,0,2,2,2,0,0,0,0,0,41,41,41,,,,,,,,,,,,,,,,,,,,,,,,,,,,,,,,,,,360.2493653999991,360.45162219996564,360.43298380001215,360.73418550001225,360.73418550001225,None,361.234129199991,None,f,1,1.1852432999876328,361.234129199991,None,None,None,362.43589109997265,None,,,,,,,,,,,,,,,,,,,,,11004,1,1,2024_Jun_01_1706,stroop_task_switching2,2021.2.3,60.127554585593884,
condition/block_mixed,instruction/instr_mixed,instruction/i10,蓝,blue,f,diamond,color_mix,颜色,,compatible,2,,,,,,,,0,2,2,2,0,0,0,0,0,42,42,42,,,,,,,,,,,,,,,,,,,,,,,,,,,,,,,,,,,363.4381137000164,363.6387003000127,363.6233588999603,363.9227734999731,363.9227734999731,None,364.4234541999758,None,f,1,0.6996682000462897,364.4234541999758,None,None,None,365.1399922000128,None,,,,,,,,,,,,,,,,,,,,,11004,1,1,2024_Jun_01_1706,stroop_task_switching2,2021.2.3,60.127554585593884,
condition/block_mixed,instruction/instr_mixed,instruction/i10,黄,yellow,j,diamond,color_mix,颜色,,compatible,1,,,,,,,,0,2,2,2,0,0,0,0,0,43,43,43,,,,,,,,,,,,,,,,,,,,,,,,,,,,,,,,,,,366.142165999976,366.3434308000142,366.3252574999933,366.62808699999005,366.62808699999005,None,367.14302720001433,None,j,1,0.5245539000025019,367.14302720001433,None,None,None,367.6939784999704,None,,,,,,,,,,,,,,,,,,,,,11004,1,1,2024_Jun_01_1706,stroop_task_switching2,2021.2.3,60.127554585593884,
condition/block_mixed,instruction/instr_mixed,instruction/i10,红,red,d,diamond,color_mix,颜色,,compatible,1,,,,,,,,0,2,2,2,0,0,0,0,0,44,44,44,,,,,,,,,,,,,,,,,,,,,,,,,,,,,,,,,,,368.69628099998226,368.8962478999747,368.88159820000874,369.19709959998727,369.1803751999978,None,369.68095379997976,None,d,1,0.5384659999981523,369.68095379997976,None,None,None,370.2477230000077,None,,,,,,,,,,,,,,,,,,,,,11004,1,1,2024_Jun_01_1706,stroop_task_switching2,2021.2.3,60.127554585593884,
condition/block_mixed,instruction/instr_mixed,instruction/i10,蓝,blue,f,diamond,color_mix,颜色,,compatible,1,,,,,,,,0,2,2,2,0,0,0,0,0,45,45,45,,,,,,,,,,,,,,,,,,,,,,,,,,,,,,,,,,,371.2494100999902,371.4511811999837,371.4329901000019,371.73346389998915,371.73346389998915,None,372.23492259997874,None,f,1,0.7450391000020318,372.23492259997874,None,None,None,373.0018922999734,None,,,,,,,,,,,,,,,,,,,,,11004,1,1,2024_Jun_01_1706,stroop_task_switching2,2021.2.3,60.127554585593884,
condition/block_mixed,instruction/instr_mixed,instruction/i10,红,red,d,diamond,color_mix,颜色,,compatible,1,,,,,,,,0,2,2,2,0,0,0,0,0,46,46,46,,,,,,,,,,,,,,,,,,,,,,,,,,,,,,,,,,,374.0037603999954,374.20451189996675,374.1892416999908,374.48824049998075,374.48824049998075,None,374.9890558999614,None,d,1,0.49432950001209974,374.9890558999614,None,None,None,375.5056099999929,None,,,,,,,,,,,,,,,,,,,,,11004,1,1,2024_Jun_01_1706,stroop_task_switching2,2021.2.3,60.127554585593884,
condition/block_mixed,instruction/instr_mixed,instruction/i10,红,red,d,square,color_mix,单词,,compatible,2,,,,,,,,0,2,2,2,0,0,0,0,0,47,47,47,,,,,,,,,,,,,,,,,,,,,,,,,,,,,,,,,,,376.50713599997107,376.70719929999905,376.6925014000153,376.9918458000175,376.9918458000175,None,377.4922777999891,None,d,1,0.5349717999924906,377.4922777999891,None,None,None,378.04282109998167,None,,,,,,,,,,,,,,,,,,,,,11004,1,1,2024_Jun_01_1706,stroop_task_switching2,2021.2.3,60.127554585593884,
condition/block_mixed,instruction/instr_mixed,instruction/i10,红,red,d,diamond,color_mix,颜色,,compatible,2,,,,,,,,0,2,2,2,0,0,0,0,0,48,48,48,,,,,,,,,,,,,,,,,,,,,,,,,,,,,,,,,,,379.044412999996,379.24479819997214,379.22890119999647,379.5294298999943,379.5294298999943,None,380.0296414999757,None,d,1,0.7183431000448763,380.0296414999757,None,None,None,380.7649861999671,None,,,,,,,,,,,,,,,,,,,,,11004,1,1,2024_Jun_01_1706,stroop_task_switching2,2021.2.3,60.127554585593884,
condition/block_mixed,instruction/instr_mixed,instruction/i10,,,,,,,,,,,,,,,,,0,2,2,2,0,0,0,0,,,,,,,,,,,,,,,,,,,,,,,,,,,,,,,,,,,,,,,,,,,,,,,,,,,,,,,,381.7647702000104,None,space,4.217824999999721,381.7647702000104,None,,,,,,,,,,,,,,,11004,1,1,2024_Jun_01_1706,stroop_task_switching2,2021.2.3,60.127554585593884,
condition/block_mixed,instruction/instr_mixed,instruction/i10,,,,,,,,,,,,,,,,,0,2,2,2,,,,,,,,,,,,,,,,,,,,,,,,,,,,,,,,,,,,,,,,,,,,,,,,,,,,,,,,,,,,,,,,,,,,,,,,,,,,,,,,11004,1,1,2024_Jun_01_1706,stroop_task_switching2,2021.2.3,60.127554585593884,
,,,红,red,d,square,color_mix,单词,,compatible,0,block_switch1,instruction/ready_test.png,instruction/i11.png,,,,,,,,,,,,,,,,,0,0,0,0,0,0,0,0,,,,,,,,,,,,,,,,,,,415.80126290000044,416.80141959997127,416.80141959997127,417.80268169997726,417.78712140000425,None,414.8153723999858,415.8174578999751,418.80417149997083,419.00544549996266,419.00544549996266,419.3073720000102,419.3073720000102,None,419.8055917000165,None,d,1,0.5674233000027016,419.8055917000165,None,None,None,,,,,,,,,386.0209220999968,None,space,28.775832299957983,386.0209220999968,None,,,,,,,,,11004,1,1,2024_Jun_01_1706,stroop_task_switching2,2021.2.3,60.127554585593884,
,,,绿,green,k,diamond,color_mix,颜色,,compatible,2,block_switch1,instruction/ready_test.png,instruction/i11.png,,,,,,,,,,,,,,,,,0,0,0,0,0,1,1,1,,,,,,,,,,,,,,,,,,,,,,,,,,,420.3898722999729,420.591754699999,420.5735335999634,420.8751197999809,420.8751197999809,None,421.3757953000022,None,k,1,1.9570251000113785,421.3757953000022,None,None,None,,,,,,,,,,,,,,,,,,,,,,,11004,1,1,2024_Jun_01_1706,stroop_task_switching2,2021.2.3,60.127554585593884,
,,,绿,yellow,j,diamond,color_mix,颜色,,incompatible,1,block_switch1,instruction/ready_test.png,instruction/i11.png,,,,,,,,,,,,,,,,,0,0,0,0,0,2,2,2,,,,,,,,,,,,,,,,,,,,,,,,,,,423.36123169999337,423.5613679999951,423.54599780001445,423.84734539996134,423.84734539996134,None,424.3466668999754,None,j,1,1.4985381999867968,424.3466668999754,None,None,None,,,,,,,,,,,,,,,,,,,,,,,11004,1,1,2024_Jun_01_1706,stroop_task_switching2,2021.2.3,60.127554585593884,
,,,蓝,blue,f,diamond,color_mix,颜色,,compatible,1,block_switch1,instruction/ready_test.png,instruction/i11.png,,,,,,,,,,,,,,,,,0,0,0,0,0,3,3,3,,,,,,,,,,,,,,,,,,,,,,,,,,,425.86471649998566,426.0651901999954,426.04924189997837,426.3499640999944,426.3499640999944,None,426.8499105999945,None,f,1,0.5231222999864258,426.8499105999945,None,None,None,,,,,,,,,,,,,,,,,,,,,,,11004,1,1,2024_Jun_01_1706,stroop_task_switching2,2021.2.3,60.127554585593884,
,,,绿,green,k,square,color_mix,单词,,compatible,2,block_switch1,instruction/ready_test.png,instruction/i11.png,,,,,,,,,,,,,,,,,0,0,0,0,0,4,4,4,,,,,,,,,,,,,,,,,,,,,,,,,,,427.40068289998453,427.60300289996667,427.5842576000141,427.8866607999662,427.8866607999662,None,428.3853213000111,None,k,1,0.5717805000022054,428.3853213000111,None,None,None,,,,,,,,,,,,,,,,,,,,,,,11004,1,1,2024_Jun_01_1706,stroop_task_switching2,2021.2.3,60.127554585593884,
,,,绿,blue,f,diamond,color_mix,颜色,,incompatible,2,block_switch1,instruction/ready_test.png,instruction/i11.png,,,,,,,,,,,,,,,,,0,0,0,0,0,5,5,5,,,,,,,,,,,,,,,,,,,,,,,,,,,428.9862062999746,429.1879721999867,429.1698860999895,429.47126630001003,429.47126630001003,None,429.97179149999283,None,f,1,0.8495525000034831,429.97179149999283,None,None,None,,,,,,,,,,,,,,,,,,,,,,,11004,1,1,2024_Jun_01_1706,stroop_task_switching2,2021.2.3,60.127554585593884,
,,,黄,red,j,square,color_mix,单词,,incompatible,2,block_switch1,instruction/ready_test.png,instruction/i11.png,,,,,,,,,,,,,,,,,0,0,0,0,0,6,6,6,,,,,,,,,,,,,,,,,,,,,,,,,,,430.83909169997787,431.04183150001336,431.0235337999766,431.32444759999635,431.32444759999635,None,431.82383020001,None,d,0,0.8771204000222497,431.82383020001,None,None,None,,,,,,,,,,,,,,,,,,,,,,,11004,1,1,2024_Jun_01_1706,stroop_task_switching2,2021.2.3,60.127554585593884,
,,,绿,green,k,square,color_mix,单词,,compatible,1,block_switch1,instruction/ready_test.png,instruction/i11.png,,,,,,,,,,,,,,,,,0,0,0,0,0,7,7,7,,,,,,,,,,,,,,,,,,,,,,,,,,,432.72560920001706,432.9256345999893,432.9087506000069,433.2092313999892,433.2092313999892,None,433.71078829996986,None,k,1,0.7351207000319846,433.71078829996986,None,None,None,,,,,,,,,,,,,,,,,,,,,,,11004,1,1,2024_Jun_01_1706,stroop_task_switching2,2021.2.3,60.127554585593884,
,,,蓝,blue,f,square,color_mix,单词,,compatible,1,block_switch1,instruction/ready_test.png,instruction/i11.png,,,,,,,,,,,,,,,,,0,0,0,0,0,8,8,8,,,,,,,,,,,,,,,,,,,,,,,,,,,434.4611557999742,434.6614203999634,434.6467578000156,434.9628444999689,434.9463140000007,None,435.44664219999686,None,f,1,1.142472799983807,435.44664219999686,None,None,None,,,,,,,,,,,,,,,,,,,,,,,11004,1,1,2024_Jun_01_1706,stroop_task_switching2,2021.2.3,60.127554585593884,
,,,红,red,d,diamond,color_mix,颜色,,compatible,2,block_switch1,instruction/ready_test.png,instruction/i11.png,,,,,,,,,,,,,,,,,0,0,0,0,0,9,9,9,,,,,,,,,,,,,,,,,,,,,,,,,,,436.61448889999883,436.8161435999791,436.79802960000234,437.0995945999748,437.0995945999748,None,437.59924989996944,None,d,1,0.5577608000021428,437.59924989996944,None,None,None,,,,,,,,,,,,,,,,,,,,,,,11004,1,1,2024_Jun_01_1706,stroop_task_switching2,2021.2.3,60.127554585593884,
,,,黄,yellow,j,diamond,color_mix,颜色,,compatible,1,block_switch1,instruction/ready_test.png,instruction/i11.png,,,,,,,,,,,,,,,,,0,0,0,0,0,10,10,10,,,,,,,,,,,,,,,,,,,,,,,,,,,438.18369969999185,438.38442469999427,438.3670091999811,438.66833989997394,438.66833989997394,None,439.1683267999906,None,j,1,0.5014499999815598,439.1683267999906,None,None,None,,,,,,,,,,,,,,,,,,,,,,,11004,1,1,2024_Jun_01_1706,stroop_task_switching2,2021.2.3,60.127554585593884,
,,,绿,green,k,square,color_mix,单词,,compatible,2,block_switch1,instruction/ready_test.png,instruction/i11.png,,,,,,,,,,,,,,,,,0,0,0,0,0,11,11,11,,,,,,,,,,,,,,,,,,,,,,,,,,,439.68573819997255,439.88680500001647,439.8695047000074,440.17057690001093,440.17057690001093,None,440.6705945999711,None,k,1,0.8867783999885432,440.6705945999711,None,None,None,,,,,,,,,,,,,,,,,,,,,,,11004,1,1,2024_Jun_01_1706,stroop_task_switching2,2021.2.3,60.127554585593884,
,,,红,red,d,diamond,color_mix,颜色,,compatible,2,block_switch1,instruction/ready_test.png,instruction/i11.png,,,,,,,,,,,,,,,,,0,0,0,0,0,12,12,12,,,,,,,,,,,,,,,,,,,,,,,,,,,441.5886976000038,441.78902039997047,441.7746218999964,442.07271719997516,442.07271719997516,None,442.5733018000028,None,d,1,0.6884856999968179,442.5733018000028,None,None,None,,,,,,,,,,,,,,,,,,,,,,,11004,1,1,2024_Jun_01_1706,stroop_task_switching2,2021.2.3,60.127554585593884,
,,,红,red,d,diamond,color_mix,颜色,,compatible,1,block_switch1,instruction/ready_test.png,instruction/i11.png,,,,,,,,,,,,,,,,,0,0,0,0,0,13,13,13,,,,,,,,,,,,,,,,,,,,,,,,,,,443.29092419997323,443.49241319997236,443.47582190000685,443.7769274999737,443.7769274999737,None,444.27670529996976,None,d,1,0.5926416000002064,444.27670529996976,None,None,None,,,,,,,,,,,,,,,,,,,,,,,11004,1,1,2024_Jun_01_1706,stroop_task_switching2,2021.2.3,60.127554585593884,
,,,黄,yellow,j,square,color_mix,单词,,compatible,2,block_switch1,instruction/ready_test.png,instruction/i11.png,,,,,,,,,,,,,,,,,0,0,0,0,0,14,14,14,,,,,,,,,,,,,,,,,,,,,,,,,,,444.89361749996897,445.09458059997996,445.0773693000083,445.3788269999786,445.3788269999786,None,445.8792123000021,None,j,1,0.5825105999829248,445.8792123000021,None,None,None,,,,,,,,,,,,,,,,,,,,,,,11004,1,1,2024_Jun_01_1706,stroop_task_switching2,2021.2.3,60.127554585593884,
,,,红,green,k,diamond,color_mix,颜色,,incompatible,2,block_switch1,instruction/ready_test.png,instruction/i11.png,,,,,,,,,,,,,,,,,0,0,0,0,0,15,15,15,,,,,,,,,,,,,,,,,,,,,,,,,,,446.479257399973,446.680680999998,446.6641777000041,446.96394009998767,446.96394009998767,None,447.4642565000104,None,d,0,0.6931475999881513,447.4642565000104,None,None,None,,,,,,,,,,,,,,,,,,,,,,,11004,1,1,2024_Jun_01_1706,stroop_task_switching2,2021.2.3,60.127554585593884,
,,,蓝,red,d,diamond,color_mix,颜色,,incompatible,1,block_switch1,instruction/ready_test.png,instruction/i11.png,,,,,,,,,,,,,,,,,0,0,0,0,0,16,16,16,,,,,,,,,,,,,,,,,,,,,,,,,,,448.18203969998285,448.3822972999769,448.3655947999796,448.6665105000138,448.6665105000138,None,449.1675679999753,None,d,1,2.3897207000409253,449.1675679999753,None,None,None,,,,,,,,,,,,,,,,,,,,,,,11004,1,1,2024_Jun_01_1706,stroop_task_switching2,2021.2.3,60.127554585593884,
,,,黄,green,k,diamond,color_mix,颜色,,incompatible,1,block_switch1,instruction/ready_test.png,instruction/i11.png,,,,,,,,,,,,,,,,,0,0,0,0,0,17,17,17,,,,,,,,,,,,,,,,,,,,,,,,,,,451.586951699981,451.7885863999836,451.7707911999896,452.07126970001264,452.07126970001264,None,452.57236230000854,None,k,1,0.9215420000255108,452.57236230000854,None,None,None,,,,,,,,,,,,,,,,,,,,,,,11004,1,1,2024_Jun_01_1706,stroop_task_switching2,2021.2.3,60.127554585593884,
,,,绿,green,k,diamond,color_mix,颜色,,compatible,1,block_switch1,instruction/ready_test.png,instruction/i11.png,,,,,,,,,,,,,,,,,0,0,0,0,0,18,18,18,,,,,,,,,,,,,,,,,,,,,,,,,,,453.52442749997135,453.7249664000119,453.7071049999795,454.00907209998695,454.00907209998695,None,454.5081659000134,None,k,1,0.5775096000288613,454.5081659000134,None,None,None,,,,,,,,,,,,,,,,,,,,,,,11004,1,1,2024_Jun_01_1706,stroop_task_switching2,2021.2.3,60.127554585593884,
,,,黄,red,d,diamond,color_mix,颜色,,incompatible,1,block_switch1,instruction/ready_test.png,instruction/i11.png,,,,,,,,,,,,,,,,,0,0,0,0,0,19,19,19,,,,,,,,,,,,,,,,,,,,,,,,,,,455.1090179000166,455.3110030000098,455.29259159998037,455.5930570999626,455.5930570999626,None,456.0942786000087,None,d,1,0.7517072000191547,456.0942786000087,None,None,None,,,,,,,,,,,,,,,,,,,,,,,11004,1,1,2024_Jun_01_1706,stroop_task_switching2,2021.2.3,60.127554585593884,
,,,绿,yellow,k,square,color_mix,单词,,incompatible,2,block_switch1,instruction/ready_test.png,instruction/i11.png,,,,,,,,,,,,,,,,,0,0,0,0,0,20,20,20,,,,,,,,,,,,,,,,,,,,,,,,,,,456.86142500001006,457.06426899996586,457.04592609999236,457.3467356999754,457.3467356999754,None,457.84771379997255,None,k,1,0.6857489999965765,457.84771379997255,None,None,None,,,,,,,,,,,,,,,,,,,,,,,11004,1,1,2024_Jun_01_1706,stroop_task_switching2,2021.2.3,60.127554585593884,
,,,绿,yellow,j,diamond,color_mix,颜色,,incompatible,2,block_switch1,instruction/ready_test.png,instruction/i11.png,,,,,,,,,,,,,,,,,0,0,0,0,0,21,21,21,,,,,,,,,,,,,,,,,,,,,,,,,,,458.56535389996134,458.7656068999786,458.74897010001587,459.04825130000245,459.04825130000245,None,459.5499661999638,None,j,1,0.8806183999986388,459.5499661999638,None,None,None,,,,,,,,,,,,,,,,,,,,,,,11004,1,1,2024_Jun_01_1706,stroop_task_switching2,2021.2.3,60.127554585593884,
,,,绿,green,k,square,color_mix,单词,,compatible,2,block_switch1,instruction/ready_test.png,instruction/i11.png,,,,,,,,,,,,,,,,,0,0,0,0,0,22,22,22,,,,,,,,,,,,,,,,,,,,,,,,,,,460.45049049996305,460.6507048999774,460.63405499997316,460.9361494999612,460.9361494999612,None,461.4360366999754,None,k,1,0.8416958000161685,461.4360366999754,None,None,None,,,,,,,,,,,,,,,,,,,,,,,11004,1,1,2024_Jun_01_1706,stroop_task_switching2,2021.2.3,60.127554585593884,
,,,红,red,d,square,color_mix,单词,,compatible,1,block_switch1,instruction/ready_test.png,instruction/i11.png,,,,,,,,,,,,,,,,,0,0,0,0,0,23,23,23,,,,,,,,,,,,,,,,,,,,,,,,,,,462.303614799981,462.503580199962,462.4869407999795,462.78864839999005,462.78864839999005,None,463.2877659999649,None,d,1,0.5100548999616876,463.2877659999649,None,None,None,,,,,,,,,,,,,,,,,,,,,,,11004,1,1,2024_Jun_01_1706,stroop_task_switching2,2021.2.3,60.127554585593884,
,,,黄,green,j,square,color_mix,单词,,incompatible,1,block_switch1,instruction/ready_test.png,instruction/i11.png,,,,,,,,,,,,,,,,,0,0,0,0,0,24,24,24,,,,,,,,,,,,,,,,,,,,,,,,,,,463.8220226999838,464.0223554999684,464.00747780001257,464.30710769997677,464.30710769997677,None,464.8081668000086,None,j,1,0.5981955999741331,464.8081668000086,None,None,None,,,,,,,,,,,,,,,,,,,,,,,11004,1,1,2024_Jun_01_1706,stroop_task_switching2,2021.2.3,60.127554585593884,
,,,红,blue,d,square,color_mix,单词,,incompatible,1,block_switch1,instruction/ready_test.png,instruction/i11.png,,,,,,,,,,,,,,,,,0,0,0,0,0,25,25,25,,,,,,,,,,,,,,,,,,,,,,,,,,,465.4245933999773,465.6257898999611,465.60829989996273,465.9097200999968,465.9097200999968,None,466.41023059998406,None,f,0,0.6438749000080861,466.41023059998406,None,None,None,,,,,,,,,,,,,,,,,,,,,,,11004,1,1,2024_Jun_01_1706,stroop_task_switching2,2021.2.3,60.127554585593884,
,,,黄,yellow,j,square,color_mix,单词,,compatible,1,block_switch1,instruction/ready_test.png,instruction/i11.png,,,,,,,,,,,,,,,,,0,0,0,0,0,26,26,26,,,,,,,,,,,,,,,,,,,,,,,,,,,467.07779959996697,467.2784542000154,467.260590699967,467.5619948999956,467.5619948999956,None,468.0618219000171,None,j,1,1.9449352999799885,468.0618219000171,None,None,None,,,,,,,,,,,,,,,,,,,,,,,11004,1,1,2024_Jun_01_1706,stroop_task_switching2,2021.2.3,60.127554585593884,
,,,蓝,green,f,square,color_mix,单词,,incompatible,1,block_switch1,instruction/ready_test.png,instruction/i11.png,,,,,,,,,,,,,,,,,0,0,0,0,0,27,27,27,,,,,,,,,,,,,,,,,,,,,,,,,,,470.03166619996773,470.2324246999924,470.21727199997986,470.515551999968,470.515551999968,None,471.0174104999751,None,f,1,1.8522830000147223,471.0174104999751,None,None,None,,,,,,,,,,,,,,,,,,,,,,,11004,1,1,2024_Jun_01_1706,stroop_task_switching2,2021.2.3,60.127554585593884,
,,,绿,green,k,diamond,color_mix,颜色,,compatible,2,block_switch1,instruction/ready_test.png,instruction/i11.png,,,,,,,,,,,,,,,,,0,0,0,0,0,28,28,28,,,,,,,,,,,,,,,,,,,,,,,,,,,472.8858292999794,473.0874666000018,473.0695823999704,473.370667900017,473.370667900017,None,473.87093599996297,None,k,1,0.6634006999665871,473.87093599996297,None,None,None,,,,,,,,,,,,,,,,,,,,,,,11004,1,1,2024_Jun_01_1706,stroop_task_switching2,2021.2.3,60.127554585593884,
,,,黄,blue,f,diamond,color_mix,颜色,,incompatible,1,block_switch1,instruction/ready_test.png,instruction/i11.png,,,,,,,,,,,,,,,,,0,0,0,0,0,29,29,29,,,,,,,,,,,,,,,,,,,,,,,,,,,474.55518199998187,474.7559992999886,474.7396817000117,475.03892550000455,475.03892550000455,None,475.54068039997946,None,f,1,1.4736635000444949,475.54068039997946,None,None,None,,,,,,,,,,,,,,,,,,,,,,,11004,1,1,2024_Jun_01_1706,stroop_task_switching2,2021.2.3,60.127554585593884,
,,,绿,green,k,diamond,color_mix,颜色,,compatible,1,block_switch1,instruction/ready_test.png,instruction/i11.png,,,,,,,,,,,,,,,,,0,0,0,0,0,30,30,30,,,,,,,,,,,,,,,,,,,,,,,,,,,477.0428889999748,477.2438758999924,477.2256669999915,477.52635269996244,477.52635269996244,None,478.02688069996657,None,k,1,0.6511214000056498,478.02688069996657,None,None,None,,,,,,,,,,,,,,,,,,,,,,,11004,1,1,2024_Jun_01_1706,stroop_task_switching2,2021.2.3,60.127554585593884,
,,,蓝,blue,f,square,color_mix,单词,,compatible,2,block_switch1,instruction/ready_test.png,instruction/i11.png,,,,,,,,,,,,,,,,,0,0,0,0,0,31,31,31,,,,,,,,,,,,,,,,,,,,,,,,,,,478.69447930000024,478.8948044999852,478.88009240000974,479.1802713999641,479.1802713999641,None,479.679648099991,None,f,1,0.9424244999536313,479.679648099991,None,None,None,,,,,,,,,,,,,,,,,,,,,,,11004,1,1,2024_Jun_01_1706,stroop_task_switching2,2021.2.3,60.127554585593884,
,,,红,red,d,square,color_mix,单词,,compatible,1,block_switch1,instruction/ready_test.png,instruction/i11.png,,,,,,,,,,,,,,,,,0,0,0,0,0,32,32,32,,,,,,,,,,,,,,,,,,,,,,,,,,,480.6476272,480.8488000999787,480.83300440001767,481.13193089998094,481.13193089998094,None,481.6322932000039,None,d,1,1.1739903999841772,481.6322932000039,None,None,None,,,,,,,,,,,,,,,,,,,,,,,11004,1,1,2024_Jun_01_1706,stroop_task_switching2,2021.2.3,60.127554585593884,
,,,红,green,d,square,color_mix,单词,,incompatible,1,block_switch1,instruction/ready_test.png,instruction/i11.png,,,,,,,,,,,,,,,,,0,0,0,0,0,33,33,33,,,,,,,,,,,,,,,,,,,,,,,,,,,482.83421110000927,483.03608729998814,483.0177786999848,483.31823510001414,483.31823510001414,None,483.8187567999703,None,d,1,1.6201897999853827,483.8187567999703,None,None,None,,,,,,,,,,,,,,,,,,,,,,,11004,1,1,2024_Jun_01_1706,stroop_task_switching2,2021.2.3,60.127554585593884,
,,,黄,yellow,j,diamond,color_mix,颜色,,compatible,2,block_switch1,instruction/ready_test.png,instruction/i11.png,,,,,,,,,,,,,,,,,0,0,0,0,0,34,34,34,,,,,,,,,,,,,,,,,,,,,,,,,,,485.4548524999991,485.65629509999417,485.63875529996585,485.9388461000053,485.9388461000053,None,486.4394755999674,None,j,1,0.5355730999726802,486.4394755999674,None,None,None,,,,,,,,,,,,,,,,,,,,,,,11004,1,1,2024_Jun_01_1706,stroop_task_switching2,2021.2.3,60.127554585593884,
,,,红,green,k,diamond,color_mix,颜色,,incompatible,1,block_switch1,instruction/ready_test.png,instruction/i11.png,,,,,,,,,,,,,,,,,0,0,0,0,0,35,35,35,,,,,,,,,,,,,,,,,,,,,,,,,,,486.9902691000025,487.1924754999927,487.1741436999873,487.4749115000013,487.4749115000013,None,487.97519450000254,None,d,0,0.9752727000159211,487.97519450000254,None,None,None,,,,,,,,,,,,,,,,,,,,,,,11004,1,1,2024_Jun_01_1706,stroop_task_switching2,2021.2.3,60.127554585593884,
,,,黄,yellow,j,square,color_mix,单词,,compatible,2,block_switch1,instruction/ready_test.png,instruction/i11.png,,,,,,,,,,,,,,,,,0,0,0,0,0,36,36,36,,,,,,,,,,,,,,,,,,,,,,,,,,,488.9770040999865,489.1785819999641,489.1603420000174,489.46088279999094,489.46088279999094,None,489.9623110999819,None,j,1,0.948868700012099,489.9623110999819,None,None,None,,,,,,,,,,,,,,,,,,,,,,,11004,1,1,2024_Jun_01_1706,stroop_task_switching2,2021.2.3,60.127554585593884,
,,,蓝,blue,f,square,color_mix,单词,,compatible,1,block_switch1,instruction/ready_test.png,instruction/i11.png,,,,,,,,,,,,,,,,,0,0,0,0,0,37,37,37,,,,,,,,,,,,,,,,,,,,,,,,,,,490.9307211000123,491.12999869999476,491.114852299972,491.41387170000235,491.41387170000235,None,491.9143217999954,None,f,1,0.8041942000272684,491.9143217999954,None,None,None,,,,,,,,,,,,,,,,,,,,,,,11004,1,1,2024_Jun_01_1706,stroop_task_switching2,2021.2.3,60.127554585593884,
,,,绿,red,d,diamond,color_mix,颜色,,incompatible,2,block_switch1,instruction/ready_test.png,instruction/i11.png,,,,,,,,,,,,,,,,,0,0,0,0,0,38,38,38,,,,,,,,,,,,,,,,,,,,,,,,,,,492.74916549999034,492.94949779997114,492.93349089997355,493.23505949997343,493.23505949997343,None,493.75038019998465,None,d,1,1.2723113000392914,493.75038019998465,None,None,None,,,,,,,,,,,,,,,,,,,,,,,11004,1,1,2024_Jun_01_1706,stroop_task_switching2,2021.2.3,60.127554585593884,
,,,黄,yellow,j,diamond,color_mix,颜色,,compatible,1,block_switch1,instruction/ready_test.png,instruction/i11.png,,,,,,,,,,,,,,,,,0,0,0,0,0,39,39,39,,,,,,,,,,,,,,,,,,,,,,,,,,,495.05270160001237,495.25380810000934,495.23746659996687,495.53807189996587,495.53807189996587,None,496.03836949996185,None,j,1,0.6804232000140473,496.03836949996185,None,None,None,,,,,,,,,,,,,,,,,,,,,,,11004,1,1,2024_Jun_01_1706,stroop_task_switching2,2021.2.3,60.127554585593884,
,,,红,blue,f,diamond,color_mix,颜色,,incompatible,1,block_switch1,instruction/ready_test.png,instruction/i11.png,,,,,,,,,,,,,,,,,0,0,0,0,0,40,40,40,,,,,,,,,,,,,,,,,,,,,,,,,,,496.7384360000142,496.9401395000168,496.9220687999623,497.22344729996985,497.22344729996985,None,497.7239324999973,None,f,1,0.6990333999856375,497.7239324999973,None,None,None,,,,,,,,,,,,,,,,,,,,,,,11004,1,1,2024_Jun_01_1706,stroop_task_switching2,2021.2.3,60.127554585593884,
,,,绿,blue,k,square,color_mix,单词,,incompatible,2,block_switch1,instruction/ready_test.png,instruction/i11.png,,,,,,,,,,,,,,,,,0,0,0,0,0,41,41,41,,,,,,,,,,,,,,,,,,,,,,,,,,,498.4411022000131,498.64265300001716,498.62464639998507,498.92773789999774,498.92773789999774,None,499.4259827999631,None,k,1,0.7408762999693863,499.4259827999631,None,None,None,,,,,,,,,,,,,,,,,,,,,,,11004,1,1,2024_Jun_01_1706,stroop_task_switching2,2021.2.3,60.127554585593884,
,,,蓝,blue,f,diamond,color_mix,颜色,,compatible,2,block_switch1,instruction/ready_test.png,instruction/i11.png,,,,,,,,,,,,,,,,,0,0,0,0,0,42,42,42,,,,,,,,,,,,,,,,,,,,,,,,,,,500.1937222999986,500.3951321999775,500.37796620000154,500.6786605999805,500.6786605999805,None,501.1785124000162,None,f,1,0.6285167000023648,501.1785124000162,None,None,None,,,,,,,,,,,,,,,,,,,,,,,11004,1,1,2024_Jun_01_1706,stroop_task_switching2,2021.2.3,60.127554585593884,
,,,红,blue,d,square,color_mix,单词,,incompatible,2,block_switch1,instruction/ready_test.png,instruction/i11.png,,,,,,,,,,,,,,,,,0,0,0,0,0,43,43,43,,,,,,,,,,,,,,,,,,,,,,,,,,,501.829466199968,502.03072569996584,502.013841899985,502.31432259996654,502.31432259996654,None,502.81514459999744,None,f,0,2.911669900000561,502.81514459999744,None,None,None,,,,,,,,,,,,,,,,,,,,,,,11004,1,1,2024_Jun_01_1706,stroop_task_switching2,2021.2.3,60.127554585593884,
,,,蓝,green,k,diamond,color_mix,颜色,,incompatible,2,block_switch1,instruction/ready_test.png,instruction/i11.png,,,,,,,,,,,,,,,,,0,0,0,0,0,44,44,44,,,,,,,,,,,,,,,,,,,,,,,,,,,505.7519642999978,505.95232959999703,505.93660829996224,506.2367985000019,506.2367985000019,None,506.73723400000017,None,k,1,0.7415815000422299,506.73723400000017,None,None,None,,,,,,,,,,,,,,,,,,,,,,,11004,1,1,2024_Jun_01_1706,stroop_task_switching2,2021.2.3,60.127554585593884,
,,,黄,yellow,j,square,color_mix,单词,,compatible,2,block_switch1,instruction/ready_test.png,instruction/i11.png,,,,,,,,,,,,,,,,,0,0,0,0,0,45,45,45,,,,,,,,,,,,,,,,,,,,,,,,,,,507.5045414000051,507.70579879998695,507.6883770999848,507.98964330001036,507.98964330001036,None,508.490868999972,None,j,1,0.5810776999569498,508.490868999972,None,None,None,,,,,,,,,,,,,,,,,,,,,,,11004,1,1,2024_Jun_01_1706,stroop_task_switching2,2021.2.3,60.127554585593884,
,,,黄,yellow,j,diamond,color_mix,颜色,,compatible,2,block_switch1,instruction/ready_test.png,instruction/i11.png,,,,,,,,,,,,,,,,,0,0,0,0,0,46,46,46,,,,,,,,,,,,,,,,,,,,,,,,,,,509.09045989997685,509.2918349999818,509.27576049999334,509.57443019998027,509.57443019998027,None,510.075173499994,None,j,1,0.45180989999789745,510.075173499994,None,None,None,,,,,,,,,,,,,,,,,,,,,,,11004,1,1,2024_Jun_01_1706,stroop_task_switching2,2021.2.3,60.127554585593884,
,,,绿,red,k,square,color_mix,单词,,incompatible,2,block_switch1,instruction/ready_test.png,instruction/i11.png,,,,,,,,,,,,,,,,,0,0,0,0,0,47,47,47,,,,,,,,,,,,,,,,,,,,,,,,,,,510.54279729997506,510.7430216000066,510.72664790001,511.0288562999922,511.0288562999922,None,511.5280778000015,None,k,1,1.942968200019095,511.5280778000015,None,None,None,,,,,,,,,,,,,,,,,,,,,,,11004,1,1,2024_Jun_01_1706,stroop_task_switching2,2021.2.3,60.127554585593884,
,,,红,red,d,diamond,color_mix,颜色,,compatible,2,block_switch1,instruction/ready_test.png,instruction/i11.png,,,,,,,,,,,,,,,,,0,0,0,0,0,48,48,48,,,,,,,,,,,,,,,,,,,,,,,,,,,513.497005000012,513.6974252999644,513.681114499981,513.9812432999606,513.9812432999606,None,514.4817536000046,None,d,1,0.6055038000340573,514.4817536000046,None,None,None,,,,,,,,,,,,,,,,,,,,,,,11004,1,1,2024_Jun_01_1706,stroop_task_switching2,2021.2.3,60.127554585593884,
,,,蓝,blue,f,diamond,color_mix,颜色,,compatible,1,block_switch1,instruction/ready_test.png,instruction/i11.png,,,,,,,,,,,,,,,,,0,0,0,0,0,49,49,49,,,,,,,,,,,,,,,,,,,,,,,,,,,515.1162010999979,515.3170194000122,515.3017337999772,515.6169549999759,515.6003176000086,None,516.1017939000158,None,f,1,0.5616346999886446,516.1017939000158,None,None,None,,,,,,,,,,,,,,,,,,,,,,,11004,1,1,2024_Jun_01_1706,stroop_task_switching2,2021.2.3,60.127554585593884,
,,,黄,yellow,j,diamond,color_mix,颜色,,compatible,1,block_switch1,instruction/ready_test.png,instruction/i11.png,,,,,,,,,,,,,,,,,0,0,0,0,0,50,50,50,,,,,,,,,,,,,,,,,,,,,,,,,,,516.6852851000149,516.886820100015,516.869047300017,517.1693971999921,517.1693971999921,None,517.670058699965,None,j,1,0.43313079996732995,517.670058699965,None,None,None,,,,,,,,,,,,,,,,,,,,,,,11004,1,1,2024_Jun_01_1706,stroop_task_switching2,2021.2.3,60.127554585593884,
,,,红,blue,f,diamond,color_mix,颜色,,incompatible,1,block_switch1,instruction/ready_test.png,instruction/i11.png,,,,,,,,,,,,,,,,,0,0,0,0,0,51,51,51,,,,,,,,,,,,,,,,,,,,,,,,,,,518.1204171999707,518.3208660999662,518.304733500001,518.6059406999848,518.6059406999848,None,519.1055651999777,None,f,1,1.3659184999996796,519.1055651999777,None,None,None,,,,,,,,,,,,,,,,,,,,,,,11004,1,1,2024_Jun_01_1706,stroop_task_switching2,2021.2.3,60.127554585593884,
,,,蓝,yellow,j,diamond,color_mix,颜色,,incompatible,1,block_switch1,instruction/ready_test.png,instruction/i11.png,,,,,,,,,,,,,,,,,0,0,0,0,0,52,52,52,,,,,,,,,,,,,,,,,,,,,,,,,,,520.4922574000084,520.6930097999866,520.6746005999739,520.9767858000123,520.9767858000123,None,521.4761410999927,None,j,1,1.027349999989383,521.4761410999927,None,None,None,,,,,,,,,,,,,,,,,,,,,,,11004,1,1,2024_Jun_01_1706,stroop_task_switching2,2021.2.3,60.127554585593884,
,,,黄,blue,j,square,color_mix,单词,,incompatible,2,block_switch1,instruction/ready_test.png,instruction/i11.png,,,,,,,,,,,,,,,,,0,0,0,0,0,53,53,53,,,,,,,,,,,,,,,,,,,,,,,,,,,522.5272777999635,522.7300782999955,522.7108956999728,523.0120832999819,523.0120832999819,None,523.5130435999599,None,f,0,1.2866823999793269,523.5130435999599,None,None,None,,,,,,,,,,,,,,,,,,,,,,,11004,1,1,2024_Jun_01_1706,stroop_task_switching2,2021.2.3,60.127554585593884,
,,,蓝,blue,f,diamond,color_mix,颜色,,compatible,2,block_switch1,instruction/ready_test.png,instruction/i11.png,,,,,,,,,,,,,,,,,0,0,0,0,0,54,54,54,,,,,,,,,,,,,,,,,,,,,,,,,,,524.814082900004,525.0146305999951,524.997688399977,525.2992084000143,525.2992084000143,None,525.7990485999617,None,f,1,0.7127593999612145,525.7990485999617,None,None,None,,,,,,,,,,,,,,,,,,,,,,,11004,1,1,2024_Jun_01_1706,stroop_task_switching2,2021.2.3,60.127554585593884,
,,,红,yellow,d,square,color_mix,单词,,incompatible,2,block_switch1,instruction/ready_test.png,instruction/i11.png,,,,,,,,,,,,,,,,,0,0,0,0,0,55,55,55,,,,,,,,,,,,,,,,,,,,,,,,,,,526.5334510999965,526.735887399991,526.7171055999934,527.0174675000017,527.0174675000017,None,527.5181812999654,None,d,1,2.257498199993279,527.5181812999654,None,None,None,,,,,,,,,,,,,,,,,,,,,,,11004,1,1,2024_Jun_01_1706,stroop_task_switching2,2021.2.3,60.127554585593884,
,,,蓝,red,f,square,color_mix,单词,,incompatible,1,block_switch1,instruction/ready_test.png,instruction/i11.png,,,,,,,,,,,,,,,,,0,0,0,0,0,56,56,56,,,,,,,,,,,,,,,,,,,,,,,,,,,529.804934899963,530.0054124000017,529.9893418999854,530.2901282999665,530.2901282999665,None,530.7897349999985,None,f,1,0.6259185000089929,530.7897349999985,None,None,None,,,,,,,,,,,,,,,,,,,,,,,11004,1,1,2024_Jun_01_1706,stroop_task_switching2,2021.2.3,60.127554585593884,
,,,蓝,blue,f,square,color_mix,单词,,compatible,1,block_switch1,instruction/ready_test.png,instruction/i11.png,,,,,,,,,,,,,,,,,0,0,0,0,0,57,57,57,,,,,,,,,,,,,,,,,,,,,,,,,,,531.4408380999812,531.6411335999728,531.6245073999744,531.9269788999809,531.9269788999809,None,532.4422799000167,None,f,1,0.4614424000028521,532.4422799000167,None,None,None,,,,,,,,,,,,,,,,,,,,,,,11004,1,1,2024_Jun_01_1706,stroop_task_switching2,2021.2.3,60.127554585593884,
,,,蓝,red,d,diamond,color_mix,颜色,,incompatible,2,block_switch1,instruction/ready_test.png,instruction/i11.png,,,,,,,,,,,,,,,,,0,0,0,0,0,58,58,58,,,,,,,,,,,,,,,,,,,,,,,,,,,532.9265368999913,533.1266572999884,533.1111897999654,533.4120564999757,533.4120564999757,None,533.9109371000086,None,d,1,2.3287596000009216,533.9109371000086,None,None,None,,,,,,,,,,,,,,,,,,,,,,,11004,1,1,2024_Jun_01_1706,stroop_task_switching2,2021.2.3,60.127554585593884,
,,,绿,green,k,diamond,color_mix,颜色,,compatible,1,block_switch1,instruction/ready_test.png,instruction/i11.png,,,,,,,,,,,,,,,,,0,0,0,0,0,59,59,59,,,,,,,,,,,,,,,,,,,,,,,,,,,536.2651490999851,536.4659366999986,536.448923799966,536.7496690999833,536.7496690999833,None,537.249664700008,None,k,1,0.5741372000193223,537.249664700008,None,None,None,,,,,,,,,,,,,,,,,,,,,,,11004,1,1,2024_Jun_01_1706,stroop_task_switching2,2021.2.3,60.127554585593884,
,,,蓝,blue,f,diamond,color_mix,颜色,,compatible,1,block_switch1,instruction/ready_test.png,instruction/i11.png,,,,,,,,,,,,,,,,,0,0,0,0,0,60,60,60,,,,,,,,,,,,,,,,,,,,,,,,,,,537.8511183999944,538.0519190999912,538.0340535999858,538.3355228999862,538.3355228999862,None,538.8364933999837,None,f,1,1.4198728000046685,538.8364933999837,None,None,None,,,,,,,,,,,,,,,,,,,,,,,11004,1,1,2024_Jun_01_1706,stroop_task_switching2,2021.2.3,60.127554585593884,
,,,黄,yellow,j,square,color_mix,单词,,compatible,2,block_switch1,instruction/ready_test.png,instruction/i11.png,,,,,,,,,,,,,,,,,0,0,0,0,0,61,61,61,,,,,,,,,,,,,,,,,,,,,,,,,,,540.2707170000067,540.4712053000112,540.4550104999798,540.7558863000013,540.7558863000013,None,541.256429800007,None,d,0,0.9594398000044748,541.256429800007,None,None,None,,,,,,,,,,,,,,,,,,,,,,,11004,1,1,2024_Jun_01_1706,stroop_task_switching2,2021.2.3,60.127554585593884,
,,,绿,blue,k,square,color_mix,单词,,incompatible,1,block_switch1,instruction/ready_test.png,instruction/i11.png,,,,,,,,,,,,,,,,,0,0,0,0,0,62,62,62,,,,,,,,,,,,,,,,,,,,,,,,,,,542.2405818999978,542.4413181999698,542.4251001999946,542.7257615000126,542.7257615000126,None,543.2259033999871,None,k,1,1.0379565000184812,543.2259033999871,None,None,None,,,,,,,,,,,,,,,,,,,,,,,11004,1,1,2024_Jun_01_1706,stroop_task_switching2,2021.2.3,60.127554585593884,
,,,蓝,yellow,f,square,color_mix,单词,,incompatible,1,block_switch1,instruction/ready_test.png,instruction/i11.png,,,,,,,,,,,,,,,,,0,0,0,0,0,63,63,63,,,,,,,,,,,,,,,,,,,,,,,,,,,544.2939403000055,544.4949171000044,544.4777919999906,544.7787293000147,544.7787293000147,None,545.2783745999914,None,f,1,0.5460679999669082,545.2783745999914,None,None,None,,,,,,,,,,,,,,,,,,,,,,,11004,1,1,2024_Jun_01_1706,stroop_task_switching2,2021.2.3,60.127554585593884,
,,,黄,yellow,j,diamond,color_mix,颜色,,compatible,2,block_switch1,instruction/ready_test.png,instruction/i11.png,,,,,,,,,,,,,,,,,0,0,0,0,0,64,64,64,,,,,,,,,,,,,,,,,,,,,,,,,,,545.8466181000113,546.0470693999669,546.0305885999696,546.3319105000119,546.3319105000119,None,546.8314528999617,None,j,1,0.6969096999964677,546.8314528999617,None,None,None,,,,,,,,,,,,,,,,,,,,,,,11004,1,1,2024_Jun_01_1706,stroop_task_switching2,2021.2.3,60.127554585593884,
,,,蓝,green,k,diamond,color_mix,颜色,,incompatible,1,block_switch1,instruction/ready_test.png,instruction/i11.png,,,,,,,,,,,,,,,,,0,0,0,0,0,65,65,65,,,,,,,,,,,,,,,,,,,,,,,,,,,547.5486438999651,547.7494663000107,547.7319302000105,548.0335244999733,548.0335244999733,None,548.5334469999652,None,k,1,1.0905195000232197,548.5334469999652,None,None,None,,,,,,,,,,,,,,,,,,,,,,,11004,1,1,2024_Jun_01_1706,stroop_task_switching2,2021.2.3,60.127554585593884,
,,,红,red,d,diamond,color_mix,颜色,,compatible,1,block_switch1,instruction/ready_test.png,instruction/i11.png,,,,,,,,,,,,,,,,,0,0,0,0,0,66,66,66,,,,,,,,,,,,,,,,,,,,,,,,,,,549.6516768999863,549.8530029999674,549.8353466999833,550.1363557999721,550.1363557999721,None,550.6365238999715,None,d,1,1.2434813000145368,550.6365238999715,None,None,None,,,,,,,,,,,,,,,,,,,,,,,11004,1,1,2024_Jun_01_1706,stroop_task_switching2,2021.2.3,60.127554585593884,
,,,蓝,yellow,f,square,color_mix,单词,,incompatible,2,block_switch1,instruction/ready_test.png,instruction/i11.png,,,,,,,,,,,,,,,,,0,0,0,0,0,67,67,67,,,,,,,,,,,,,,,,,,,,,,,,,,,551.904905000003,552.1064938000054,552.0885629999684,552.3903237999766,552.3903237999766,None,552.8898745999904,None,f,1,0.5582716999924742,552.8898745999904,None,None,None,,,,,,,,,,,,,,,,,,,,,,,11004,1,1,2024_Jun_01_1706,stroop_task_switching2,2021.2.3,60.127554585593884,
,,,红,yellow,d,square,color_mix,单词,,incompatible,1,block_switch1,instruction/ready_test.png,instruction/i11.png,,,,,,,,,,,,,,,,,0,0,0,0,0,68,68,68,,,,,,,,,,,,,,,,,,,,,,,,,,,553.4742182999616,553.6754981999984,553.6578405000037,553.9595050999778,553.9595050999778,None,554.4595639999607,None,d,1,0.5412294999696314,554.4595639999607,None,None,None,,,,,,,,,,,,,,,,,,,,,,,11004,1,1,2024_Jun_01_1706,stroop_task_switching2,2021.2.3,60.127554585593884,
,,,红,yellow,j,diamond,color_mix,颜色,,incompatible,2,block_switch1,instruction/ready_test.png,instruction/i11.png,,,,,,,,,,,,,,,,,0,0,0,0,0,69,69,69,,,,,,,,,,,,,,,,,,,,,,,,,,,555.0263212000136,555.2271728999913,555.2108206999837,555.5126165999682,555.5126165999682,None,556.0119623999926,None,j,1,0.8523854999803007,556.0119623999926,None,None,None,,,,,,,,,,,,,,,,,,,,,,,11004,1,1,2024_Jun_01_1706,stroop_task_switching2,2021.2.3,60.127554585593884,
,,,蓝,green,f,square,color_mix,单词,,incompatible,2,block_switch1,instruction/ready_test.png,instruction/i11.png,,,,,,,,,,,,,,,,,0,0,0,0,0,70,70,70,,,,,,,,,,,,,,,,,,,,,,,,,,,556.8790387999616,557.0802127000061,557.0626749999938,557.3640562999644,557.3640562999644,None,557.8649707000004,None,f,1,0.9119629000197165,557.8649707000004,None,None,None,,,,,,,,,,,,,,,,,,,,,,,11004,1,1,2024_Jun_01_1706,stroop_task_switching2,2021.2.3,60.127554585593884,
,,,绿,yellow,k,square,color_mix,单词,,incompatible,1,block_switch1,instruction/ready_test.png,instruction/i11.png,,,,,,,,,,,,,,,,,0,0,0,0,0,71,71,71,,,,,,,,,,,,,,,,,,,,,,,,,,,558.7988368999795,559.0002741999924,558.9825056999689,559.2845882999827,559.2845882999827,None,559.8011330000008,None,k,1,0.47187439998378977,559.8011330000008,None,None,None,,,,,,,,,,,,,,,,,,,,,,,11004,1,1,2024_Jun_01_1706,stroop_task_switching2,2021.2.3,60.127554585593884,
,,,蓝,yellow,j,diamond,color_mix,颜色,,incompatible,2,block_switch1,instruction/ready_test.png,instruction/i11.png,,,,,,,,,,,,,,,,,0,0,0,0,0,72,72,72,,,,,,,,,,,,,,,,,,,,,,,,,,,560.3011512999656,560.5035343999625,560.4846442000126,560.7861870999914,560.7861870999914,None,561.2865026000072,None,j,1,1.3059826000244357,561.2865026000072,None,None,None,,,,,,,,,,,,,,,,,,,,,,,11004,1,1,2024_Jun_01_1706,stroop_task_switching2,2021.2.3,60.127554585593884,
,,,红,green,d,square,color_mix,单词,,incompatible,2,block_switch1,instruction/ready_test.png,instruction/i11.png,,,,,,,,,,,,,,,,,0,0,0,0,0,73,73,73,,,,,,,,,,,,,,,,,,,,,,,,,,,562.6211473000003,562.8224626000156,562.8046955000027,563.1066970999818,563.1066970999818,None,563.6060182999936,None,d,1,1.4506714000017382,563.6060182999936,None,None,None,,,,,,,,,,,,,,,,,,,,,,,11004,1,1,2024_Jun_01_1706,stroop_task_switching2,2021.2.3,60.127554585593884,
,,,绿,blue,f,diamond,color_mix,颜色,,incompatible,2,block_switch1,instruction/ready_test.png,instruction/i11.png,,,,,,,,,,,,,,,,,0,0,0,0,0,74,74,74,,,,,,,,,,,,,,,,,,,,,,,,,,,565.0751439000014,565.2756324000075,565.2584863000084,565.5596188000054,565.5596188000054,None,566.0610204999684,None,f,1,1.811633899982553,566.0610204999684,None,None,None,,,,,,,,,,,,,,,,,,,,,,,11004,1,1,2024_Jun_01_1706,stroop_task_switching2,2021.2.3,60.127554585593884,
,,,红,red,d,square,color_mix,单词,,compatible,2,block_switch1,instruction/ready_test.png,instruction/i11.png,,,,,,,,,,,,,,,,,0,0,0,0,0,75,75,75,,,,,,,,,,,,,,,,,,,,,,,,,,,567.8958543000044,568.097815599991,568.0795195999672,568.3798398000072,568.3798398000072,None,568.8805286000133,None,d,1,0.8485881999949925,568.8805286000133,None,None,None,,,,,,,,,,,,,,,,,,,,,,,11004,1,1,2024_Jun_01_1706,stroop_task_switching2,2021.2.3,60.127554585593884,
,,,绿,green,k,diamond,color_mix,颜色,,compatible,2,block_switch1,instruction/ready_test.png,instruction/i11.png,,,,,,,,,,,,,,,,,0,0,0,0,0,76,76,76,,,,,,,,,,,,,,,,,,,,,,,,,,,569.7484718000051,569.9495850999956,569.9321735000121,570.2338878000155,570.2338878000155,None,570.7343506999896,None,k,1,1.0670540999853984,570.7343506999896,None,None,None,,,,,,,,,,,,,,,,,,,,,,,11004,1,1,2024_Jun_01_1706,stroop_task_switching2,2021.2.3,60.127554585593884,
,,,黄,red,j,square,color_mix,单词,,incompatible,2,block_switch1,instruction/ready_test.png,instruction/i11.png,,,,,,,,,,,,,,,,,0,0,0,0,0,77,77,77,,,,,,,,,,,,,,,,,,,,,,,,,,,571.8183115000138,572.0207692999975,572.0020600999705,572.302343999967,572.302343999967,None,572.8032447000151,None,j,1,1.9902216999907978,572.8032447000151,None,None,None,,,,,,,,,,,,,,,,,,,,,,,11004,1,1,2024_Jun_01_1706,stroop_task_switching2,2021.2.3,60.127554585593884,
,,,红,red,d,square,color_mix,单词,,compatible,1,block_switch1,instruction/ready_test.png,instruction/i11.png,,,,,,,,,,,,,,,,,0,0,0,0,0,78,78,78,,,,,,,,,,,,,,,,,,,,,,,,,,,574.8236664999858,575.0241361999651,575.0084454999887,575.307797299989,575.307797299989,None,575.8090279999888,None,d,1,2.536347899993416,575.8090279999888,None,None,None,,,,,,,,,,,,,,,,,,,,,,,11004,1,1,2024_Jun_01_1706,stroop_task_switching2,2021.2.3,60.127554585593884,
,,,黄,yellow,j,square,color_mix,单词,,compatible,1,block_switch1,instruction/ready_test.png,instruction/i11.png,,,,,,,,,,,,,,,,,0,0,0,0,0,79,79,79,,,,,,,,,,,,,,,,,,,,,,,,,,,578.3615588999819,578.5618031999911,578.54672079999,578.8455092000077,578.8455092000077,None,579.346332999994,None,j,1,0.990830700029619,579.346332999994,None,None,None,,,,,,,,,,,,,,,,,,,,,,,11004,1,1,2024_Jun_01_1706,stroop_task_switching2,2021.2.3,60.127554585593884,
,,,红,red,d,diamond,color_mix,颜色,,compatible,2,block_switch1,instruction/ready_test.png,instruction/i11.png,,,,,,,,,,,,,,,,,0,0,0,0,0,80,80,80,,,,,,,,,,,,,,,,,,,,,,,,,,,580.3644147000159,580.566098899988,580.5483745000092,580.8494092999608,580.8494092999608,None,581.3499422000023,None,d,1,0.6589679999742657,581.3499422000023,None,None,None,,,,,,,,,,,,,,,,,,,,,,,11004,1,1,2024_Jun_01_1706,stroop_task_switching2,2021.2.3,60.127554585593884,
,,,红,red,d,square,color_mix,单词,,compatible,2,block_switch1,instruction/ready_test.png,instruction/i11.png,,,,,,,,,,,,,,,,,0,0,0,0,0,81,81,81,,,,,,,,,,,,,,,,,,,,,,,,,,,582.0341858000029,582.2347228999715,582.2175782999839,582.5175165999681,582.5175165999681,None,583.0193841999862,None,d,1,0.7502436999930069,583.0193841999862,None,None,None,,,,,,,,,,,,,,,,,,,,,,,11004,1,1,2024_Jun_01_1706,stroop_task_switching2,2021.2.3,60.127554585593884,
,,,黄,blue,f,diamond,color_mix,颜色,,incompatible,2,block_switch1,instruction/ready_test.png,instruction/i11.png,,,,,,,,,,,,,,,,,0,0,0,0,0,82,82,82,,,,,,,,,,,,,,,,,,,,,,,,,,,583.7864180000033,583.9873815000174,583.971798899991,584.2877850999939,584.270540700003,None,584.7724019999732,None,f,1,2.1569016999565065,584.7724019999732,None,None,None,,,,,,,,,,,,,,,,,,,,,,,11004,1,1,2024_Jun_01_1706,stroop_task_switching2,2021.2.3,60.127554585593884,
,,,红,yellow,j,diamond,color_mix,颜色,,incompatible,1,block_switch1,instruction/ready_test.png,instruction/i11.png,,,,,,,,,,,,,,,,,0,0,0,0,0,83,83,83,,,,,,,,,,,,,,,,,,,,,,,,,,,586.9578088999842,587.1588755999692,587.1414280000026,587.442304599972,587.442304599972,None,587.9426416999777,None,j,1,1.1945914999814704,587.9426416999777,None,None,None,,,,,,,,,,,,,,,,,,,,,,,11004,1,1,2024_Jun_01_1706,stroop_task_switching2,2021.2.3,60.127554585593884,
,,,黄,red,d,diamond,color_mix,颜色,,incompatible,1,block_switch1,instruction/ready_test.png,instruction/i11.png,,,,,,,,,,,,,,,,,0,0,0,0,0,84,84,84,,,,,,,,,,,,,,,,,,,,,,,,,,,589.1614813999622,589.3622794999974,589.3448738000006,589.64607779996,589.64607779996,None,590.1465095999883,None,d,1,0.6391356000094675,590.1465095999883,None,None,None,,,,,,,,,,,,,,,,,,,,,,,11004,1,1,2024_Jun_01_1706,stroop_task_switching2,2021.2.3,60.127554585593884,
,,,蓝,blue,f,square,color_mix,单词,,compatible,2,block_switch1,instruction/ready_test.png,instruction/i11.png,,,,,,,,,,,,,,,,,0,0,0,0,0,85,85,85,,,,,,,,,,,,,,,,,,,,,,,,,,,590.8135848999955,591.0139637999819,590.9988424999756,591.2999044000171,591.2999044000171,None,591.8157944999984,None,f,1,0.841722099983599,591.8157944999984,None,None,None,,,,,,,,,,,,,,,,,,,,,,,11004,1,1,2024_Jun_01_1706,stroop_task_switching2,2021.2.3,60.127554585593884,
,,,绿,green,k,square,color_mix,单词,,compatible,1,block_switch1,instruction/ready_test.png,instruction/i11.png,,,,,,,,,,,,,,,,,0,0,0,0,0,86,86,86,,,,,,,,,,,,,,,,,,,,,,,,,,,592.6831938999821,592.8833915999858,592.867276999983,593.1678469000035,593.1678469000035,None,593.6686819999595,None,k,1,0.6049066000268795,593.6686819999595,None,None,None,,,,,,,,,,,,,,,,,,,,,,,11004,1,1,2024_Jun_01_1706,stroop_task_switching2,2021.2.3,60.127554585593884,
,,,红,red,d,square,color_mix,单词,,compatible,1,block_switch1,instruction/ready_test.png,instruction/i11.png,,,,,,,,,,,,,,,,,0,0,0,0,0,87,87,87,,,,,,,,,,,,,,,,,,,,,,,,,,,594.3023455999792,594.5038618000108,594.4865785000147,594.7876687999815,594.7876687999815,None,595.28718569997,None,d,1,0.7145463000051677,595.28718569997,None,None,None,,,,,,,,,,,,,,,,,,,,,,,11004,1,1,2024_Jun_01_1706,stroop_task_switching2,2021.2.3,60.127554585593884,
,,,黄,green,k,diamond,color_mix,颜色,,incompatible,2,block_switch1,instruction/ready_test.png,instruction/i11.png,,,,,,,,,,,,,,,,,0,0,0,0,0,88,88,88,,,,,,,,,,,,,,,,,,,,,,,,,,,596.0220189999673,596.2217916999944,596.2056202999665,596.5067234999733,596.5067234999733,None,597.0063552999636,None,k,1,0.9547989999991842,597.0063552999636,None,None,None,,,,,,,,,,,,,,,,,,,,,,,11004,1,1,2024_Jun_01_1706,stroop_task_switching2,2021.2.3,60.127554585593884,
,,,绿,red,k,square,color_mix,单词,,incompatible,2,block_switch1,instruction/ready_test.png,instruction/i11.png,,,,,,,,,,,,,,,,,0,0,0,0,0,89,89,89,,,,,,,,,,,,,,,,,,,,,,,,,,,597.9912115999614,598.1914783999673,598.176017699996,598.4752205999685,598.4752205999685,None,598.9768256999669,None,k,1,0.7606874000048265,598.9768256999669,None,None,None,,,,,,,,,,,,,,,,,,,,,,,11004,1,1,2024_Jun_01_1706,stroop_task_switching2,2021.2.3,60.127554585593884,
,,,黄,green,j,square,color_mix,单词,,incompatible,1,block_switch1,instruction/ready_test.png,instruction/i11.png,,,,,,,,,,,,,,,,,0,0,0,0,0,90,90,90,,,,,,,,,,,,,,,,,,,,,,,,,,,599.7605557999923,599.9608305000002,599.944751699979,600.2454189999844,600.2454189999844,None,600.7463295999914,None,j,1,0.5512294999789447,600.7463295999914,None,None,None,,,,,,,,,,,,,,,,,,,,,,,11004,1,1,2024_Jun_01_1706,stroop_task_switching2,2021.2.3,60.127554585593884,
,,,蓝,blue,f,square,color_mix,单词,,compatible,1,block_switch1,instruction/ready_test.png,instruction/i11.png,,,,,,,,,,,,,,,,,0,0,0,0,0,91,91,91,,,,,,,,,,,,,,,,,,,,,,,,,,,601.3129346999922,601.513439900009,601.4972169999965,601.7978592999862,601.7978592999862,None,602.2977165000048,None,f,1,1.1279616000247188,602.2977165000048,None,None,None,,,,,,,,,,,,,,,,,,,,,,,11004,1,1,2024_Jun_01_1706,stroop_task_switching2,2021.2.3,60.127554585593884,
,,,蓝,red,f,square,color_mix,单词,,incompatible,1,block_switch1,instruction/ready_test.png,instruction/i11.png,,,,,,,,,,,,,,,,,0,0,0,0,0,92,92,92,,,,,,,,,,,,,,,,,,,,,,,,,,,603.4491159999743,603.650526500016,603.633834599983,603.9334556999966,603.9334556999966,None,604.4343186999904,None,f,1,0.479568799957633,604.4343186999904,None,None,None,,,,,,,,,,,,,,,,,,,,,,,11004,1,1,2024_Jun_01_1706,stroop_task_switching2,2021.2.3,60.127554585593884,
,,,黄,blue,j,square,color_mix,单词,,incompatible,1,block_switch1,instruction/ready_test.png,instruction/i11.png,,,,,,,,,,,,,,,,,0,0,0,0,0,93,93,93,,,,,,,,,,,,,,,,,,,,,,,,,,,604.9358745999634,605.1377999999677,605.118732700008,605.4198879000032,605.4198879000032,None,605.9200546999928,None,f,0,0.9380993999657221,605.9200546999928,None,None,None,,,,,,,,,,,,,,,,,,,,,,,11004,1,1,2024_Jun_01_1706,stroop_task_switching2,2021.2.3,60.127554585593884,
,,,绿,red,d,diamond,color_mix,颜色,,incompatible,2,block_switch1,instruction/ready_test.png,instruction/i11.png,,,,,,,,,,,,,,,,,0,0,0,0,0,94,94,94,,,,,,,,,,,,,,,,,,,,,,,,,,,606.8882176000043,607.0892666999716,607.0714426999912,607.3720649000024,607.3720649000024,None,607.872577800008,None,d,1,1.8094622999778949,607.872577800008,None,None,None,,,,,,,,,,,,,,,,,,,,,,,11004,1,1,2024_Jun_01_1706,stroop_task_switching2,2021.2.3,60.127554585593884,
,,,蓝,blue,f,diamond,color_mix,颜色,,compatible,1,block_switch1,instruction/ready_test.png,instruction/i11.png,,,,,,,,,,,,,,,,,0,0,0,0,0,95,95,95,,,,,,,,,,,,,,,,,,,,,,,,,,,609.7087736999965,609.9091312999954,609.8945625000051,610.1929270999972,610.1929270999972,None,610.6945276999613,None,f,1,1.5872433999902569,610.6945276999613,None,None,None,,,,,,,,,,,,,,,,,,,,,,,11004,1,1,2024_Jun_01_1706,stroop_task_switching2,2021.2.3,60.127554585593884,
,,,绿,green,k,square,color_mix,单词,,compatible,2,block_switch1,instruction/ready_test.png,instruction/i11.png,,,,,,,,,,,,,,,,,0,0,0,0,0,96,96,96,,,,,,,,,,,,,,,,,,,,,,,,,,,612.3130328999832,612.5137885999866,612.4970418000012,612.7975628999993,612.7975628999993,None,613.2988410000107,None,k,1,0.9430057999561541,613.2988410000107,None,None,None,,,,,,,,,,,,,,,,,,,,,,,11004,1,1,2024_Jun_01_1706,stroop_task_switching2,2021.2.3,60.127554585593884,
,,,,,,,,,,,,block_switch1,instruction/ready_test.png,instruction/i11.png,,,,,,,,,,,,,,,,,0,0,0,0,,,,,,,,,,,,,,,,,,,,,,,,,,,,,,,,,,,,,,,,,,,,,,,,,,,,,,,,,,,,614.2657904999796,None,space,8.457151199982036,614.2657904999796,None,,,11004,1,1,2024_Jun_01_1706,stroop_task_switching2,2021.2.3,60.127554585593884,
,,,蓝,blue,f,square,color_mix,单词,,compatible,0,block_switch2,instruction/ready_2.png,instruction/i12.png,,,,,,,,,,,,,,,,,0,1,1,1,0,0,0,0,,,,,,,,,,,,,,,,,,,625.6335440999828,626.6342768999748,626.6342768999748,627.6369419000112,627.6369419000112,None,624.6481220999849,625.6494519999833,628.6715021000127,628.8723115000175,628.8386908000102,629.1380567000015,629.1380567000015,None,629.6387932999642,None,f,1,0.6915727999876253,629.6387932999642,None,None,None,,,,,,,,,622.7626541999634,None,space,1.8638401999487542,622.7626541999634,None,,,,,,,,,11004,1,1,2024_Jun_01_1706,stroop_task_switching2,2021.2.3,60.127554585593884,
,,,黄,red,d,diamond,color_mix,颜色,,incompatible,2,block_switch2,instruction/ready_2.png,instruction/i12.png,,,,,,,,,,,,,,,,,0,1,1,1,0,1,1,1,,,,,,,,,,,,,,,,,,,,,,,,,,,630.3572203000076,630.5569266999955,630.541097600013,630.8407345999731,630.8407345999731,None,631.3414822999621,None,d,1,0.8769410999957472,631.3414822999621,None,None,None,,,,,,,,,,,,,,,,,,,,,,,11004,1,1,2024_Jun_01_1706,stroop_task_switching2,2021.2.3,60.127554585593884,
,,,蓝,green,k,diamond,color_mix,颜色,,incompatible,1,block_switch2,instruction/ready_2.png,instruction/i12.png,,,,,,,,,,,,,,,,,0,1,1,1,0,2,2,2,,,,,,,,,,,,,,,,,,,,,,,,,,,632.244055899966,632.4434477000032,632.4273581000161,632.7269966999884,632.7269966999884,None,633.2276135999709,None,k,1,0.8388287000125274,633.2276135999709,None,None,None,,,,,,,,,,,,,,,,,,,,,,,11004,1,1,2024_Jun_01_1706,stroop_task_switching2,2021.2.3,60.127554585593884,
,,,红,yellow,j,diamond,color_mix,颜色,,incompatible,1,block_switch2,instruction/ready_2.png,instruction/i12.png,,,,,,,,,,,,,,,,,0,1,1,1,0,3,3,3,,,,,,,,,,,,,,,,,,,,,,,,,,,634.0957044999814,634.2972627999843,634.2791446999763,634.5803279000102,634.5803279000102,None,635.0811270999839,None,j,1,0.8574903999688104,635.0811270999839,None,None,None,,,,,,,,,,,,,,,,,,,,,,,11004,1,1,2024_Jun_01_1706,stroop_task_switching2,2021.2.3,60.127554585593884,
,,,红,red,d,diamond,color_mix,颜色,,compatible,1,block_switch2,instruction/ready_2.png,instruction/i12.png,,,,,,,,,,,,,,,,,0,1,1,1,0,4,4,4,,,,,,,,,,,,,,,,,,,,,,,,,,,635.966021100001,636.1654809999745,636.1499103999813,636.4495320999995,636.4495320999995,None,636.9507702999981,None,d,1,0.6598392000305466,636.9507702999981,None,None,None,,,,,,,,,,,,,,,,,,,,,,,11004,1,1,2024_Jun_01_1706,stroop_task_switching2,2021.2.3,60.127554585593884,
,,,绿,green,k,square,color_mix,单词,,compatible,2,block_switch2,instruction/ready_2.png,instruction/i12.png,,,,,,,,,,,,,,,,,0,1,1,1,0,5,5,5,,,,,,,,,,,,,,,,,,,,,,,,,,,637.6344014999922,637.8362450000132,637.8178233999643,638.1181772999698,638.1181772999698,None,638.619183200004,None,k,1,0.5038505000411533,638.619183200004,None,None,None,,,,,,,,,,,,,,,,,,,,,,,11004,1,1,2024_Jun_01_1706,stroop_task_switching2,2021.2.3,60.127554585593884,
,,,黄,blue,f,diamond,color_mix,颜色,,incompatible,2,block_switch2,instruction/ready_2.png,instruction/i12.png,,,,,,,,,,,,,,,,,0,1,1,1,0,6,6,6,,,,,,,,,,,,,,,,,,,,,,,,,,,639.1541469999938,639.3543971999898,639.338176099991,639.6366671000142,639.6366671000142,None,640.1382599999779,None,f,1,2.5768098999978974,640.1382599999779,None,None,None,,,,,,,,,,,,,,,,,,,,,,,11004,1,1,2024_Jun_01_1706,stroop_task_switching2,2021.2.3,60.127554585593884,
,,,绿,yellow,k,square,color_mix,单词,,incompatible,2,block_switch2,instruction/ready_2.png,instruction/i12.png,,,,,,,,,,,,,,,,,0,1,1,1,0,7,7,7,,,,,,,,,,,,,,,,,,,,,,,,,,,642.7421360000153,642.9441743000061,642.9255906000035,643.2267051999806,643.2267051999806,None,643.7268718999694,None,k,1,1.0357124999864027,643.7268718999694,None,None,None,,,,,,,,,,,,,,,,,,,,,,,11004,1,1,2024_Jun_01_1706,stroop_task_switching2,2021.2.3,60.127554585593884,
,,,红,green,d,square,color_mix,单词,,incompatible,1,block_switch2,instruction/ready_2.png,instruction/i12.png,,,,,,,,,,,,,,,,,0,1,1,1,0,8,8,8,,,,,,,,,,,,,,,,,,,,,,,,,,,644.7786140000098,644.9796788999811,644.9624901000061,645.2633486000123,645.2633486000123,None,645.764022999967,None,d,1,0.3506731999805197,645.764022999967,None,None,None,,,,,,,,,,,,,,,,,,,,,,,11004,1,1,2024_Jun_01_1706,stroop_task_switching2,2021.2.3,60.127554585593884,
,,,黄,yellow,j,square,color_mix,单词,,compatible,1,block_switch2,instruction/ready_2.png,instruction/i12.png,,,,,,,,,,,,,,,,,0,1,1,1,0,9,9,9,,,,,,,,,,,,,,,,,,,,,,,,,,,646.1304932999774,646.3320249000099,646.3141659999965,646.6154497999814,646.6154497999814,None,647.1151971999789,None,j,1,0.5515748999896459,647.1151971999789,None,None,None,,,,,,,,,,,,,,,,,,,,,,,11004,1,1,2024_Jun_01_1706,stroop_task_switching2,2021.2.3,60.127554585593884,
