b_pra,ins_blocks,ins_blocks2,stim_word,stim_color,corrAns,cue_type,trial_type,task_type,rand,compatibility,switch,b_test,w_pic,w_pic2,trials_instr.thisRepN,trials_instr.thisTrialN,trials_instr.thisN,trials_instr.thisIndex,block_pra.thisRepN,block_pra.thisTrialN,block_pra.thisN,block_pra.thisIndex,trials_rep.thisRepN,trials_rep.thisTrialN,trials_rep.thisN,trials_rep.thisIndex,trials_pra.thisRepN,trials_pra.thisTrialN,trials_pra.thisN,trials_pra.thisIndex,trials_3.thisRepN,trials_3.thisTrialN,trials_3.thisN,trials_3.thisIndex,trials_2.thisRepN,trials_2.thisTrialN,trials_2.thisN,trials_2.thisIndex,instr_image.started,instr_key_resp.started,instr_key_resp.keys,instr_key_resp.rt,instr_pra_image.started,ip_key_resp.started,ip_key_resp.keys,ip_key_resp.rt,block_image.started,ib_key_resp.started,ib_key_resp.keys,ib_key_resp.rt,cd_text.started,cd3.started,cd_text.stopped,cd3.stopped,cd2.started,cd2.stopped,cd1.started,cd1.stopped,text_fix.started,text_2.started,text_fix.stopped,text_2.stopped,text_4.started,text_4.stopped,text_target.started,key_resp.started,key_resp.keys,key_resp.corr,key_resp.rt,text_fb.started,text_fb.stopped,text.started,key_bf.started,key_bf.keys,key_bf.rt,text_target.stopped,key_resp.stopped,sceen_black.started,sceen_black.stopped,instr_test_image.started,instr_exp_key_resp.started,instr_exp_key_resp.keys,instr_exp_key_resp.rt,text_rest.started,key_resp_rest.started,key_resp_rest.keys,key_resp_rest.rt,text_3.started,text_3.stopped,participant,session,balance,date,expName,psychopyVersion,frameRate,
,,,,,,,,,,,,,,,0,0,0,0,,,,,,,,,,,,,,,,,,,,,16.087864200002514,16.087864200002514,space,5.631084299995564,,,,,,,,,,,,,,,,,,,,,,,,,,,,,,,,,,,,,,,,,,,,,,,,11002,2,2,2024-06-15_18h09.31.766,stroop_task_switching2_b,2022.2.4,59.91730213418072,
,,,,,,,,,,,,,,,1,0,1,0,,,,,,,,,,,,,,,,,,,,,21.741852099978132,21.741852099978132,right,9.272577900002943,,,,,,,,,,,,,,,,,,,,,,,,,,,,,,,,,,,,,,,,,,,,,,,,11002,2,2,2024-06-15_18h09.31.766,stroop_task_switching2_b,2022.2.4,59.91730213418072,
,,,,,,,,,,,,,,,2,0,2,0,,,,,,,,,,,,,,,,,,,,,31.04588189997594,31.04588189997594,right,10.75207980000414,,,,,,,,,,,,,,,,,,,,,,,,,,,,,,,,,,,,,,,,,,,,,,,,11002,2,2,2024-06-15_18h09.31.766,stroop_task_switching2_b,2022.2.4,59.91730213418072,
,,,,,,,,,,,,,,,3,0,3,0,,,,,,,,,,,,,,,,,,,,,41.83366759997443,41.83366759997443,right,31.284259600011865,,,,,,,,,,,,,,,,,,,,,,,,,,,,,,,,,,,,,,,,,,,,,,,,11002,2,2,2024-06-15_18h09.31.766,stroop_task_switching2_b,2022.2.4,59.91730213418072,
,,,,,,,,,,,,,,,4,0,4,0,,,,,,,,,,,,,,,,,,,,,73.15346859997953,73.15346859997953,right,27.205058399995323,,,,,,,,,,,,,,,,,,,,,,,,,,,,,,,,,,,,,,,,,,,,,,,,11002,2,2,2024-06-15_18h09.31.766,stroop_task_switching2_b,2022.2.4,59.91730213418072,
,,,,,,,,,,,,,,,5,0,5,0,,,,,,,,,,,,,,,,,,,,,100.40829819999635,100.40829819999635,right,40.37435619998723,,,,,,,,,,,,,,,,,,,,,,,,,,,,,,,,,,,,,,,,,,,,,,,,11002,2,2,2024-06-15_18h09.31.766,stroop_task_switching2_b,2022.2.4,59.91730213418072,
,,,,,,,,,,,,,,,6,0,6,0,,,,,,,,,,,,,,,,,,,,,140.81086879997747,140.81086879997747,right,4.8518287999904715,,,,,,,,,,,,,,,,,,,,,,,,,,,,,,,,,,,,,,,,,,,,,,,,11002,2,2,2024-06-15_18h09.31.766,stroop_task_switching2_b,2022.2.4,59.91730213418072,
,,,,,,,,,,,,,,,,,,,,,,,,,,,,,,,,,,,,,,,,,,,145.69462470000144,145.69462470000144,space,4.031510799977696,,,,,,,,,,,,,,,,,,,,,,,,,,,,,,,,,,,,,,,,,,,,11002,2,2,2024-06-15_18h09.31.766,stroop_task_switching2_b,2022.2.4,59.91730213418072,
condition/block_color_b,instruction/instr_color,instruction/i8_b,XX,red,k,diamond,color_single,颜色,,,,,,,,,,,0,0,0,0,0,0,0,0,0,0,0,0,,,,,,,,,,,,,,,,,149.76624739999534,149.76624739999534,space,7.4337606000190135,157.215332199994,158.21562360000098,158.21562360000098,159.21593929998926,159.21593929998926,160.2162069999904,160.2162069999904,161.21908949999488,161.21908949999488,161.40291299999808,161.41989039999316,161.70315509999637,161.70315509999637,162.20291949997772,162.20291949997772,162.20291949997772,k,1,1.3554971999838017,163.58577029997832,164.58870049999678,,,,,,,,,,,,,,,,,,,11002,2,2,2024-06-15_18h09.31.766,stroop_task_switching2_b,2022.2.4,59.91730213418072,
condition/block_color_b,instruction/instr_color,instruction/i8_b,XX,green,d,diamond,color_single,颜色,,,,,,,,,,,0,0,0,0,0,0,0,0,0,1,1,1,,,,,,,,,,,,,,,,,,,,,,,,,,,,,164.58870049999678,164.7721029999957,164.78824239998357,165.07209499998135,165.07209499998135,165.57129389999318,165.57129389999318,165.57129389999318,d,1,1.083010899979854,166.67132349999156,167.67143919999944,,,,,,,,,,,,,,,,,,,11002,2,2,2024-06-15_18h09.31.766,stroop_task_switching2_b,2022.2.4,59.91730213418072,
condition/block_color_b,instruction/instr_color,instruction/i8_b,XX,yellow,f,diamond,color_single,颜色,,,,,,,,,,,0,0,0,0,0,0,0,0,0,2,2,2,,,,,,,,,,,,,,,,,,,,,,,,,,,,,167.67143919999944,167.8544275999884,167.8711420999898,168.1550802999991,168.171455099975,168.67165399997612,168.67165399997612,168.67165399997612,f,1,0.607754800003022,169.304836299998,170.3047829999996,,,,,,,,,,,,,,,,,,,11002,2,2,2024-06-15_18h09.31.766,stroop_task_switching2_b,2022.2.4,59.91730213418072,
condition/block_color_b,instruction/instr_color,instruction/i8_b,XX,blue,j,diamond,color_single,颜色,,,,,,,,,,,0,0,0,0,0,0,0,0,0,3,3,3,,,,,,,,,,,,,,,,,,,,,,,,,,,,,170.3047829999996,170.50510249999934,170.50510249999934,170.80543149998994,170.80543149998994,171.30524309998145,171.30524309998145,171.30524309998145,j,1,0.4858984999882523,171.82128679999732,172.82183749999967,,,,,,,,,,,,,,,,,,,11002,2,2,2024-06-15_18h09.31.766,stroop_task_switching2_b,2022.2.4,59.91730213418072,
condition/block_color_b,instruction/instr_color,instruction/i8_b,XX,green,d,diamond,color_single,颜色,,,,,,,,,,,0,0,0,0,0,0,0,0,0,4,4,4,,,,,,,,,,,,,,,,,,,,,,,,,,,,,172.82183749999967,173.00462789999438,173.02173849998508,173.3048054999963,173.32238559998223,,173.83825579998665,173.83825579998665,d,1,1.3039104999916162,175.1715194999997,176.1722273999767,,,,,,,,,,,,,,,,,,,11002,2,2,2024-06-15_18h09.31.766,stroop_task_switching2_b,2022.2.4,59.91730213418072,
condition/block_color_b,instruction/instr_color,instruction/i8_b,XX,yellow,f,diamond,color_single,颜色,,,,,,,,,,,0,0,0,0,0,0,0,0,0,5,5,5,,,,,,,,,,,,,,,,,,,,,,,,,,,,,176.1722273999767,176.37177800000063,176.37177800000063,176.67180479998933,176.67180479998933,177.1711895999906,177.1711895999906,177.1711895999906,f,1,0.7399771999916993,177.93783079998684,178.93821289998596,,,,,,,,,,,,,,,,,,,11002,2,2,2024-06-15_18h09.31.766,stroop_task_switching2_b,2022.2.4,59.91730213418072,
condition/block_color_b,instruction/instr_color,instruction/i8_b,XX,blue,j,diamond,color_single,颜色,,,,,,,,,,,0,0,0,0,0,0,0,0,0,6,6,6,,,,,,,,,,,,,,,,,,,,,,,,,,,,,178.93821289998596,179.13770949997706,179.13770949997706,179.4382792999968,179.42173829997773,179.92104699998163,179.92104699998163,179.92104699998163,j,1,0.4772520000115037,180.42144359997474,181.42134909998276,,,,,,,,,,,,,,,,,,,11002,2,2,2024-06-15_18h09.31.766,stroop_task_switching2_b,2022.2.4,59.91730213418072,
condition/block_color_b,instruction/instr_color,instruction/i8_b,XX,red,k,diamond,color_single,颜色,,,,,,,,,,,0,0,0,0,0,0,0,0,0,7,7,7,,,,,,,,,,,,,,,,,,,,,,,,,,,,,181.42134909998276,181.60515589997522,181.62147669997648,181.9048675999802,181.92105979999178,182.42192269998486,182.42192269998486,182.42192269998486,k,1,0.4881483000062872,182.93798079999397,183.93800729999202,,,,,,,,,,,,,,,,,,,11002,2,2,2024-06-15_18h09.31.766,stroop_task_switching2_b,2022.2.4,59.91730213418072,
condition/block_color_b,instruction/instr_color,instruction/i8_b,XX,yellow,f,diamond,color_single,颜色,,,,,,,,,,,0,0,0,0,0,0,0,0,0,8,8,8,,,,,,,,,,,,,,,,,,,,,,,,,,,,,183.93800729999202,184.13873529998818,184.13873529998818,184.4544934000005,184.43854209998972,184.93849229998887,184.93849229998887,184.93849229998887,d,0,0.948039200011408,185.90464549997705,186.9047542999906,,,,,,,,,,,,,,,,,,,11002,2,2,2024-06-15_18h09.31.766,stroop_task_switching2_b,2022.2.4,59.91730213418072,
condition/block_color_b,instruction/instr_color,instruction/i8_b,XX,blue,j,diamond,color_single,颜色,,,,,,,,,,,0,0,0,0,0,0,0,0,0,9,9,9,,,,,,,,,,,,,,,,,,,,,,,,,,,,,186.9047542999906,187.1049918999779,187.1049918999779,187.40458269999363,187.3884627999796,187.88822539997636,187.88822539997636,187.88822539997636,j,1,0.7014937000058126,188.62174009997398,189.6221953999775,,,,,,,,,,,,,,,,,,,11002,2,2,2024-06-15_18h09.31.766,stroop_task_switching2_b,2022.2.4,59.91730213418072,
condition/block_color_b,instruction/instr_color,instruction/i8_b,XX,red,k,diamond,color_single,颜色,,,,,,,,,,,0,0,0,0,0,0,0,0,0,10,10,10,,,,,,,,,,,,,,,,,,,,,,,,,,,,,189.6221953999775,189.8216195999994,189.8216195999994,190.12129849998746,190.10465829999885,190.60477969999192,190.6213971999823,190.6213971999823,k,1,0.35281370001030155,191.00458159999107,192.0041843999934,,,,,,,,,,,,,,,,,,,11002,2,2,2024-06-15_18h09.31.766,stroop_task_switching2_b,2022.2.4,59.91730213418072,
condition/block_color_b,instruction/instr_color,instruction/i8_b,XX,green,d,diamond,color_single,颜色,,,,,,,,,,,0,0,0,0,0,0,0,0,0,11,11,11,,,,,,,,,,,,,,,,,,,,,,,,,,,,,192.0041843999934,192.2045339999895,192.2045339999895,192.50436789999367,192.50436789999367,193.00464659999125,193.00464659999125,193.00464659999125,d,1,0.6817774999944959,193.70459939999273,194.70507959998213,,,,,,,,,,,,,,,,,,,11002,2,2,2024-06-15_18h09.31.766,stroop_task_switching2_b,2022.2.4,59.91730213418072,
condition/block_color_b,instruction/instr_color,instruction/i8_b,XX,blue,j,diamond,color_single,颜色,,,,,,,,,,,0,0,0,0,0,0,0,0,0,12,12,12,,,,,,,,,,,,,,,,,,,,,,,,,,,,,194.70507959998213,194.90458529998432,194.90458529998432,195.20470370000112,195.188162299979,195.68768380000256,195.70453619997716,195.70453619997716,f,0,0.36661160000949167,196.0876463999739,197.08792299998458,,,,,,,,,,,,,,,,,,,11002,2,2,2024-06-15_18h09.31.766,stroop_task_switching2_b,2022.2.4,59.91730213418072,
condition/block_color_b,instruction/instr_color,instruction/i8_b,XX,red,k,diamond,color_single,颜色,,,,,,,,,,,0,0,0,0,0,0,0,0,0,13,13,13,,,,,,,,,,,,,,,,,,,,,,,,,,,,,197.08792299998458,197.2711919999856,197.28763299999991,197.5717306000006,197.5717306000006,198.07133949999115,198.07133949999115,198.07133949999115,k,1,0.7271035999874584,198.82105639998917,199.8215574999922,,,,,,,,,,,,,,,,,,,11002,2,2,2024-06-15_18h09.31.766,stroop_task_switching2_b,2022.2.4,59.91730213418072,
condition/block_color_b,instruction/instr_color,instruction/i8_b,XX,green,d,diamond,color_single,颜色,,,,,,,,,,,0,0,0,0,0,0,0,0,0,14,14,14,,,,,,,,,,,,,,,,,,,,,,,,,,,,,199.8215574999922,200.0055066999921,200.02104389999295,200.3047125999874,200.3047125999874,200.80522569999448,200.80522569999448,200.80522569999448,d,1,0.7208712999999989,201.55462189999525,202.5548654999875,,,,,,,,,,,,,,,,,,,11002,2,2,2024-06-15_18h09.31.766,stroop_task_switching2_b,2022.2.4,59.91730213418072,
condition/block_color_b,instruction/instr_color,instruction/i8_b,XX,yellow,f,diamond,color_single,颜色,,,,,,,,,,,0,0,0,0,0,0,0,0,0,15,15,15,,,,,,,,,,,,,,,,,,,,,,,,,,,,,202.5548654999875,202.73791379999602,202.7545799999789,203.03782869997667,203.03782869997667,203.5381250999926,203.5381250999926,203.5381250999926,f,1,0.4292655999888666,203.98776409999118,204.98798259999603,,,,,,,,,,,,,,,,,,,11002,2,2,2024-06-15_18h09.31.766,stroop_task_switching2_b,2022.2.4,59.91730213418072,
condition/block_color_b,instruction/instr_color,instruction/i8_b,XX,red,k,diamond,color_single,颜色,,,,,,,,,,,0,0,0,0,0,0,0,0,0,16,16,16,,,,,,,,,,,,,,,,,,,,,,,,,,,,,204.98798259999603,205.1879146999854,205.1879146999854,205.48813990000053,205.47125559998676,205.97115399999893,205.97115399999893,205.97115399999893,k,1,0.46737660001963377,206.4543324999977,207.45487819999107,,,,,,,,,,,,,,,,,,,11002,2,2,2024-06-15_18h09.31.766,stroop_task_switching2_b,2022.2.4,59.91730213418072,
condition/block_color_b,instruction/instr_color,instruction/i8_b,XX,green,d,diamond,color_single,颜色,,,,,,,,,,,0,0,0,0,0,0,0,0,0,17,17,17,,,,,,,,,,,,,,,,,,,,,,,,,,,,,207.45487819999107,207.65447029998177,207.65447029998177,207.955350299977,207.955350299977,208.45481199998176,208.45481199998176,208.45481199998176,d,1,1.0006450999935623,209.48823560000164,210.48802969997632,,,,,,,,,,,,,,,,,,,11002,2,2,2024-06-15_18h09.31.766,stroop_task_switching2_b,2022.2.4,59.91730213418072,
condition/block_color_b,instruction/instr_color,instruction/i8_b,XX,yellow,f,diamond,color_single,颜色,,,,,,,,,,,0,0,0,0,0,0,0,0,0,18,18,18,,,,,,,,,,,,,,,,,,,,,,,,,,,,,210.48802969997632,210.67182589997537,210.68812189999153,210.97097779999604,210.9878713999933,211.48779539999668,211.48779539999668,211.48779539999668,f,1,0.9183544999978039,212.43808079999872,213.4377869000018,,,,,,,,,,,,,,,,,,,11002,2,2,2024-06-15_18h09.31.766,stroop_task_switching2_b,2022.2.4,59.91730213418072,
condition/block_color_b,instruction/instr_color,instruction/i8_b,XX,blue,j,diamond,color_single,颜色,,,,,,,,,,,0,0,0,0,0,0,0,0,0,19,19,19,,,,,,,,,,,,,,,,,,,,,,,,,,,,,213.4377869000018,213.62098939999123,213.63828579999972,213.92107609999948,213.92107609999948,214.4215564999904,214.4215564999904,214.4215564999904,j,1,0.5845446999883279,215.03766209998867,216.03809319998254,,,,,,,,,,,,,,,,,,,11002,2,2,2024-06-15_18h09.31.766,stroop_task_switching2_b,2022.2.4,59.91730213418072,
condition/block_color_b,instruction/instr_color,instruction/i8_b,XX,green,d,diamond,color_single,颜色,,,,,,,,,,,0,0,0,0,0,0,0,0,0,20,20,20,,,,,,,,,,,,,,,,,,,,,,,,,,,,,216.03809319998254,216.22157369999331,216.23769529999117,216.52148199998192,216.53804429998854,217.03776919998927,217.03776919998927,217.03776919998927,d,1,0.920913300011307,217.98814429997583,218.98794759999146,,,,,,,,,,,,,,,,,,,11002,2,2,2024-06-15_18h09.31.766,stroop_task_switching2_b,2022.2.4,59.91730213418072,
condition/block_color_b,instruction/instr_color,instruction/i8_b,XX,yellow,f,diamond,color_single,颜色,,,,,,,,,,,0,0,0,0,0,0,0,0,0,21,21,21,,,,,,,,,,,,,,,,,,,,,,,,,,,,,218.98794759999146,219.1875987999956,219.1875987999956,219.48818769998616,219.48818769998616,219.98743929999182,219.98743929999182,219.98743929999182,f,1,0.5795230999938212,220.58814269999857,221.58833169998252,,,,,,,,,,,,,,,,,,,11002,2,2,2024-06-15_18h09.31.766,stroop_task_switching2_b,2022.2.4,59.91730213418072,
condition/block_color_b,instruction/instr_color,instruction/i8_b,XX,blue,j,diamond,color_single,颜色,,,,,,,,,,,0,0,0,0,0,0,0,0,0,22,22,22,,,,,,,,,,,,,,,,,,,,,,,,,,,,,221.58833169998252,221.78807839998626,221.78807839998626,222.08798209999804,222.08798209999804,222.58801029997994,222.58801029997994,222.58801029997994,j,1,0.6823542999918573,223.28719339999952,224.28798870000173,,,,,,,,,,,,,,,,,,,11002,2,2,2024-06-15_18h09.31.766,stroop_task_switching2_b,2022.2.4,59.91730213418072,
condition/block_color_b,instruction/instr_color,instruction/i8_b,XX,red,k,diamond,color_single,颜色,,,,,,,,,,,0,0,0,0,0,0,0,0,0,23,23,23,,,,,,,,,,,,,,,,,,,,,,,,,,,,,224.28798870000173,224.48773549997713,224.48773549997713,224.78788409999106,224.78788409999106,225.2874989999982,225.2874989999982,225.2874989999982,k,1,0.32658759999321774,225.63855859998148,,,,,,,,,,,,,,,,,,,,11002,2,2,2024-06-15_18h09.31.766,stroop_task_switching2_b,2022.2.4,59.91730213418072,
condition/block_color_b,instruction/instr_color,instruction/i8_b,,,,,,,,,,,,,,,,,0,0,0,0,0,0,0,0,,,,,,,,,,,,,,,,,,,,,,,,,,,,,,,,,,,,,,,,,,,,,,226.67866429997957,226.67866429997957,space,3.831006799999159,,,,,,,,,,,,,,,11002,2,2,2024-06-15_18h09.31.766,stroop_task_switching2_b,2022.2.4,59.91730213418072,
condition/block_color_b,instruction/instr_color,instruction/i8_b,,,,,,,,,,,,,,,,,0,0,0,0,,,,,,,,,,,,,,,,,,,,,,,,,,,,,,,,,,,,,,,,,,,,,,,,,,,,,,,,,,,,,,,,,,,,11002,2,2,2024-06-15_18h09.31.766,stroop_task_switching2_b,2022.2.4,59.91730213418072,
condition/block_word_b,instruction/instr_word,instruction/i9_b,黄,white,f,square,word_single,单词,0.0032461461866890584,,,,,,,,,,0,1,1,1,0,0,0,0,0,0,0,0,,,,,,,,,,,,,,,,,230.5311609999917,230.5311609999917,space,8.388454200001433,238.9481986000028,239.94867469999008,239.94867469999008,240.94821869998123,240.94821869998123,241.94907089998014,241.94907089998014,242.94865969999228,242.94865969999228,243.14927090000128,243.14927090000128,243.44948749998002,243.44948749998002,243.95075289998204,243.95075289998204,243.95075289998204,f,1,0.7686239000177011,244.751233899995,245.7515213000006,,,,,,,,,,,,,,,,,,,11002,2,2,2024-06-15_18h09.31.766,stroop_task_switching2_b,2022.2.4,59.91730213418072,
condition/block_word_b,instruction/instr_word,instruction/i9_b,蓝,white,j,square,word_single,单词,0.060540570646362424,,,,,,,,,,0,1,1,1,0,0,0,0,0,1,1,1,,,,,,,,,,,,,,,,,,,,,,,,,,,,,245.7515213000006,245.95138029998634,245.95138029998634,246.25200680000125,246.25200680000125,246.7531381000008,246.7531381000008,246.7531381000008,j,1,0.6371298999874853,247.42059139997582,248.41992889999528,,,,,,,,,,,,,,,,,,,11002,2,2,2024-06-15_18h09.31.766,stroop_task_switching2_b,2022.2.4,59.91730213418072,
condition/block_word_b,instruction/instr_word,instruction/i9_b,黄,white,f,square,word_single,单词,0.06994067193778963,,,,,,,,,,0,1,1,1,0,0,0,0,0,2,2,2,,,,,,,,,,,,,,,,,,,,,,,,,,,,,248.41992889999528,248.61998049999238,248.61998049999238,248.9201322000008,248.9201322000008,249.42060759998276,249.42060759998276,249.42060759998276,f,1,0.7384067999955732,250.18664919998264,251.18667769999593,,,,,,,,,,,,,,,,,,,11002,2,2,2024-06-15_18h09.31.766,stroop_task_switching2_b,2022.2.4,59.91730213418072,
condition/block_word_b,instruction/instr_word,instruction/i9_b,蓝,white,j,square,word_single,单词,0.08193765152950094,,,,,,,,,,0,1,1,1,0,0,0,0,0,3,3,3,,,,,,,,,,,,,,,,,,,,,,,,,,,,,251.18667769999593,251.37023949998547,251.38686089997645,251.6702946999867,251.6702946999867,252.17072609998286,252.17072609998286,252.17072609998286,j,1,0.6767876999801956,252.87028509998345,253.8703092999931,,,,,,,,,,,,,,,,,,,11002,2,2,2024-06-15_18h09.31.766,stroop_task_switching2_b,2022.2.4,59.91730213418072,
condition/block_word_b,instruction/instr_word,instruction/i9_b,红,white,k,square,word_single,单词,0.1279694370605574,,,,,,,,,,0,1,1,1,0,0,0,0,0,4,4,4,,,,,,,,,,,,,,,,,,,,,,,,,,,,,253.8703092999931,254.0541716000007,254.0704630999826,254.3540318000014,254.3705878999899,254.87252959999023,254.87252959999023,254.87252959999023,k,1,0.4149996000051033,255.30618200000026,256.3073292999761,,,,,,,,,,,,,,,,,,,11002,2,2,2024-06-15_18h09.31.766,stroop_task_switching2_b,2022.2.4,59.91730213418072,
condition/block_word_b,instruction/instr_word,instruction/i9_b,红,white,k,square,word_single,单词,0.18345028784879092,,,,,,,,,,0,1,1,1,0,0,0,0,0,5,5,5,,,,,,,,,,,,,,,,,,,,,,,,,,,,,256.3073292999761,256.50682579999557,256.50682579999557,256.80655949999345,256.80655949999345,257.3072514999949,257.3072514999949,257.3072514999949,k,1,0.5874588000006042,257.9239463999984,258.92329219999374,,,,,,,,,,,,,,,,,,,11002,2,2,2024-06-15_18h09.31.766,stroop_task_switching2_b,2022.2.4,59.91730213418072,
condition/block_word_b,instruction/instr_word,instruction/i9_b,蓝,white,j,square,word_single,单词,0.19920386223101294,,,,,,,,,,0,1,1,1,0,0,0,0,0,6,6,6,,,,,,,,,,,,,,,,,,,,,,,,,,,,,258.92329219999374,259.1237851999758,259.1237851999758,259.42351799999597,259.42351799999597,259.92320629997994,259.92320629997994,259.92320629997994,f,0,0.6514707999886014,260.60668830000213,261.6070707999752,,,,,,,,,,,,,,,,,,,11002,2,2,2024-06-15_18h09.31.766,stroop_task_switching2_b,2022.2.4,59.91730213418072,
condition/block_word_b,instruction/instr_word,instruction/i9_b,蓝,white,j,square,word_single,单词,0.26360599864925405,,,,,,,,,,0,1,1,1,0,0,0,0,0,7,7,7,,,,,,,,,,,,,,,,,,,,,,,,,,,,,261.6070707999752,261.7899716999964,261.80685649998486,262.0903674000001,262.1066940999881,262.6064295999822,262.6064295999822,262.6064295999822,j,1,0.4557436000031885,263.0898746000021,264.09032459999435,,,,,,,,,,,,,,,,,,,11002,2,2,2024-06-15_18h09.31.766,stroop_task_switching2_b,2022.2.4,59.91730213418072,
condition/block_word_b,instruction/instr_word,instruction/i9_b,蓝,white,j,square,word_single,单词,0.358985675745526,,,,,,,,,,0,1,1,1,0,0,0,0,0,8,8,8,,,,,,,,,,,,,,,,,,,,,,,,,,,,,264.09032459999435,264.28977769997437,264.28977769997437,264.5895726000017,264.5895726000017,265.0896786999947,265.0896786999947,265.0896786999947,j,1,0.572940899990499,265.68975099999807,266.6901797000028,,,,,,,,,,,,,,,,,,,11002,2,2,2024-06-15_18h09.31.766,stroop_task_switching2_b,2022.2.4,59.91730213418072,
condition/block_word_b,instruction/instr_word,instruction/i9_b,绿,white,d,square,word_single,单词,0.36496733802487347,,,,,,,,,,0,1,1,1,0,0,0,0,0,9,9,9,,,,,,,,,,,,,,,,,,,,,,,,,,,,,266.6901797000028,266.889824199985,266.889824199985,267.19034169998486,267.19034169998486,267.69011899997713,267.69011899997713,267.69011899997713,d,1,0.5004037999897264,268.2232517999946,269.22316529997624,,,,,,,,,,,,,,,,,,,11002,2,2,2024-06-15_18h09.31.766,stroop_task_switching2_b,2022.2.4,59.91730213418072,
condition/block_word_b,instruction/instr_word,instruction/i9_b,黄,white,f,square,word_single,单词,0.3743513623756727,,,,,,,,,,0,1,1,1,0,0,0,0,0,10,10,10,,,,,,,,,,,,,,,,,,,,,,,,,,,,,269.22316529997624,269.40659709999454,269.42320399999153,269.70621769997524,269.70621769997524,270.2068635999749,270.2068635999749,270.2068635999749,f,1,0.40796579999732785,270.6400247999991,271.639861499978,,,,,,,,,,,,,,,,,,,11002,2,2,2024-06-15_18h09.31.766,stroop_task_switching2_b,2022.2.4,59.91730213418072,
condition/block_word_b,instruction/instr_word,instruction/i9_b,红,white,k,square,word_single,单词,0.3894803852598544,,,,,,,,,,0,1,1,1,0,0,0,0,0,11,11,11,,,,,,,,,,,,,,,,,,,,,,,,,,,,,271.639861499978,271.8236041999771,271.8401879000012,272.1235950999835,272.1399183999747,272.64033100000233,272.64033100000233,272.64033100000233,k,1,0.43106259999331087,273.08954369998537,274.0896809999831,,,,,,,,,,,,,,,,,,,11002,2,2,2024-06-15_18h09.31.766,stroop_task_switching2_b,2022.2.4,59.91730213418072,
condition/block_word_b,instruction/instr_word,instruction/i9_b,绿,white,d,square,word_single,单词,0.5393759672408067,,,,,,,,,,0,1,1,1,0,0,0,0,0,12,12,12,,,,,,,,,,,,,,,,,,,,,,,,,,,,,274.0896809999831,274.27314369997475,274.29033139999956,274.5731835999759,274.5731835999759,275.07339899998624,275.07339899998624,275.07339899998624,j,0,0.500518299988471,275.60611149997567,276.6069496999844,,,,,,,,,,,,,,,,,,,11002,2,2,2024-06-15_18h09.31.766,stroop_task_switching2_b,2022.2.4,59.91730213418072,
condition/block_word_b,instruction/instr_word,instruction/i9_b,蓝,white,j,square,word_single,单词,0.5995731954831104,,,,,,,,,,0,1,1,1,0,0,0,0,0,13,13,13,,,,,,,,,,,,,,,,,,,,,,,,,,,,,276.6069496999844,276.78978739999,276.8066558999999,277.0900910999917,277.10666419999325,277.60626319999574,277.60626319999574,277.60626319999574,j,1,1.0658499999844935,278.68966259999434,279.69024029999855,,,,,,,,,,,,,,,,,,,11002,2,2,2024-06-15_18h09.31.766,stroop_task_switching2_b,2022.2.4,59.91730213418072,
condition/block_word_b,instruction/instr_word,instruction/i9_b,红,white,k,square,word_single,单词,0.6298674479151414,,,,,,,,,,0,1,1,1,0,0,0,0,0,14,14,14,,,,,,,,,,,,,,,,,,,,,,,,,,,,,279.69024029999855,279.88981529997545,279.88981529997545,280.18972539997776,280.18972539997776,280.68989879998844,280.68989879998844,280.68989879998844,k,1,0.5963586999860127,281.30627879998065,282.3062685999903,,,,,,,,,,,,,,,,,,,11002,2,2,2024-06-15_18h09.31.766,stroop_task_switching2_b,2022.2.4,59.91730213418072,
condition/block_word_b,instruction/instr_word,instruction/i9_b,红,white,k,square,word_single,单词,0.7389942282348904,,,,,,,,,,0,1,1,1,0,0,0,0,0,15,15,15,,,,,,,,,,,,,,,,,,,,,,,,,,,,,282.3062685999903,282.4898760999786,282.5065772999951,282.78967269998975,282.78967269998975,283.28976319998037,283.28976319998037,283.28976319998037,k,1,0.6363595000002533,283.95632450000267,284.9563608999888,,,,,,,,,,,,,,,,,,,11002,2,2,2024-06-15_18h09.31.766,stroop_task_switching2_b,2022.2.4,59.91730213418072,
condition/block_word_b,instruction/instr_word,instruction/i9_b,绿,white,d,square,word_single,单词,0.7550853947239682,,,,,,,,,,0,1,1,1,0,0,0,0,0,16,16,16,,,,,,,,,,,,,,,,,,,,,,,,,,,,,284.9563608999888,285.15654529997846,285.15654529997846,285.4563595999789,285.4403547999973,285.9392408999847,285.9392408999847,285.9392408999847,d,1,0.8280056999938097,286.790101599996,287.78967919998104,,,,,,,,,,,,,,,,,,,11002,2,2,2024-06-15_18h09.31.766,stroop_task_switching2_b,2022.2.4,59.91730213418072,
condition/block_word_b,instruction/instr_word,instruction/i9_b,绿,white,d,square,word_single,单词,0.8019302780428206,,,,,,,,,,0,1,1,1,0,0,0,0,0,17,17,17,,,,,,,,,,,,,,,,,,,,,,,,,,,,,287.78967919998104,287.9900856000022,287.9900856000022,288.28997979999986,288.27316209999844,288.7731502999959,288.7731502999959,288.7731502999959,d,1,0.6410982999950647,289.43974969998817,290.4401491000026,,,,,,,,,,,,,,,,,,,11002,2,2,2024-06-15_18h09.31.766,stroop_task_switching2_b,2022.2.4,59.91730213418072,
condition/block_word_b,instruction/instr_word,instruction/i9_b,绿,white,d,square,word_single,单词,0.8110702914095343,,,,,,,,,,0,1,1,1,0,0,0,0,0,18,18,18,,,,,,,,,,,,,,,,,,,,,,,,,,,,,290.4401491000026,290.63958479999565,290.63958479999565,290.9395933999913,290.9395933999913,291.43990549998125,291.43990549998125,291.43990549998125,d,1,0.6956684999749996,292.15616659997613,293.15615470000193,,,,,,,,,,,,,,,,,,,11002,2,2,2024-06-15_18h09.31.766,stroop_task_switching2_b,2022.2.4,59.91730213418072,
condition/block_word_b,instruction/instr_word,instruction/i9_b,黄,white,f,square,word_single,单词,0.8176594937590999,,,,,,,,,,0,1,1,1,0,0,0,0,0,19,19,19,,,,,,,,,,,,,,,,,,,,,,,,,,,,,293.15615470000193,293.3401761999994,293.3564131000021,293.63987149999593,293.63987149999593,294.1395258999837,294.1395258999837,294.1395258999837,f,1,0.7317992000025697,294.889978399995,295.8898203999852,,,,,,,,,,,,,,,,,,,11002,2,2,2024-06-15_18h09.31.766,stroop_task_switching2_b,2022.2.4,59.91730213418072,
condition/block_word_b,instruction/instr_word,instruction/i9_b,红,white,k,square,word_single,单词,0.8955794421104841,,,,,,,,,,0,1,1,1,0,0,0,0,0,20,20,20,,,,,,,,,,,,,,,,,,,,,,,,,,,,,295.8898203999852,296.0898641999811,296.0898641999811,296.3894572999852,296.3894572999852,296.89002819999587,296.89002819999587,296.89002819999587,k,1,0.46803250000812113,297.3894753999775,298.3893616999849,,,,,,,,,,,,,,,,,,,11002,2,2,2024-06-15_18h09.31.766,stroop_task_switching2_b,2022.2.4,59.91730213418072,
condition/block_word_b,instruction/instr_word,instruction/i9_b,绿,white,d,square,word_single,单词,0.9113598052474129,,,,,,,,,,0,1,1,1,0,0,0,0,0,21,21,21,,,,,,,,,,,,,,,,,,,,,,,,,,,,,298.3893616999849,298.57305119998637,298.5900240999763,298.8731855999795,298.88926299999,299.3899483999994,299.3899483999994,299.3899483999994,d,1,0.6885747000051197,300.10640569997486,301.1063116999867,,,,,,,,,,,,,,,,,,,11002,2,2,2024-06-15_18h09.31.766,stroop_task_switching2_b,2022.2.4,59.91730213418072,
condition/block_word_b,instruction/instr_word,instruction/i9_b,黄,white,f,square,word_single,单词,0.9215930958042953,,,,,,,,,,0,1,1,1,0,0,0,0,0,22,22,22,,,,,,,,,,,,,,,,,,,,,,,,,,,,,301.1063116999867,301.3063161999744,301.3063161999744,301.60640829999465,301.60640829999465,302.10641839998425,302.10641839998425,302.10641839998425,j,0,0.7641406999900937,302.89008829998784,303.88952159998007,,,,,,,,,,,,,,,,,,,11002,2,2,2024-06-15_18h09.31.766,stroop_task_switching2_b,2022.2.4,59.91730213418072,
condition/block_word_b,instruction/instr_word,instruction/i9_b,黄,white,f,square,word_single,单词,0.9493525498837774,,,,,,,,,,0,1,1,1,0,0,0,0,0,23,23,23,,,,,,,,,,,,,,,,,,,,,,,,,,,,,303.88952159998007,304.0734003999969,304.08944519999204,304.37249459998566,304.37249459998566,304.8729153999884,304.8729153999884,304.8729153999884,f,1,0.6860906999791041,305.58996260000276,306.58962990000146,,,,,,,,,,,,,,,,,,,11002,2,2,2024-06-15_18h09.31.766,stroop_task_switching2_b,2022.2.4,59.91730213418072,
condition/block_word_b,instruction/instr_word,instruction/i9_b,,,,,,,,,,,,,,,,,0,1,1,1,0,0,0,0,,,,,,,,,,,,,,,,,,,,,,,,,,,,,,,,,,,,,,,,,,,,,,306.58962990000146,306.58962990000146,space,3.7483208999910858,,,,,,,,,,,,,,,11002,2,2,2024-06-15_18h09.31.766,stroop_task_switching2_b,2022.2.4,59.91730213418072,
condition/block_word_b,instruction/instr_word,instruction/i9_b,,,,,,,,,,,,,,,,,0,1,1,1,,,,,,,,,,,,,,,,,,,,,,,,,,,,,,,,,,,,,,,,,,,,,,,,,,,,,,,,,,,,,,,,,,,,11002,2,2,2024-06-15_18h09.31.766,stroop_task_switching2_b,2022.2.4,59.91730213418072,
condition/block_mixed_b,instruction/instr_mixed,instruction/i10_b,蓝,red,k,diamond,color_mix,颜色,,incompatible,0,,,,,,,,0,2,2,2,0,0,0,0,0,0,0,0,,,,,,,,,,,,,,,,,310.35889289999614,310.35889289999614,space,23.11769600000116,333.5089741999982,334.50910309999017,334.50910309999017,335.50912539998535,335.50912539998535,336.5088010999898,336.5088010999898,337.51143189999857,337.51143189999857,337.69589760000235,337.71227829999407,337.99545919999946,337.99545919999946,338.4960618999903,338.4960618999903,338.4960618999903,j,0,2.230719000013778,340.7458258999977,341.7462015999772,,,,,,,,,,,,,,,,,,,11002,2,2,2024-06-15_18h09.31.766,stroop_task_switching2_b,2022.2.4,59.91730213418072,
condition/block_mixed_b,instruction/instr_mixed,instruction/i10_b,绿,yellow,f,diamond,color_mix,颜色,,incompatible,1,,,,,,,,0,2,2,2,0,0,0,0,0,1,1,1,,,,,,,,,,,,,,,,,,,,,,,,,,,,,341.7462015999772,341.94553589998395,341.94553589998395,342.2457574,342.2457574,342.7461006999947,342.7461006999947,342.7461006999947,d,0,2.6777075999998488,345.4455564999953,346.44585029999143,,,,,,,,,,,,,,,,,,,11002,2,2,2024-06-15_18h09.31.766,stroop_task_switching2_b,2022.2.4,59.91730213418072,
condition/block_mixed_b,instruction/instr_mixed,instruction/i10_b,红,green,d,diamond,color_mix,颜色,,incompatible,1,,,,,,,,0,2,2,2,0,0,0,0,0,2,2,2,,,,,,,,,,,,,,,,,,,,,,,,,,,,,346.44585029999143,346.6458713999891,346.6458713999891,346.9454958999995,346.9454958999995,347.44609289997607,347.44609289997607,347.44609289997607,k,0,1.0723172000143677,348.5454129999853,349.54555329997675,,,,,,,,,,,,,,,,,,,11002,2,2,2024-06-15_18h09.31.766,stroop_task_switching2_b,2022.2.4,59.91730213418072,
condition/block_mixed_b,instruction/instr_mixed,instruction/i10_b,蓝,red,k,diamond,color_mix,颜色,,incompatible,1,,,,,,,,0,2,2,2,0,0,0,0,0,3,3,3,,,,,,,,,,,,,,,,,,,,,,,,,,,,,349.54555329997675,349.74592159999884,349.74592159999884,350.0459770000016,350.0459770000016,350.5457575999899,350.5457575999899,350.5457575999899,k,1,1.4942502999911085,352.0623897999758,353.06276269999216,,,,,,,,,,,,,,,,,,,11002,2,2,2024-06-15_18h09.31.766,stroop_task_switching2_b,2022.2.4,59.91730213418072,
condition/block_mixed_b,instruction/instr_mixed,instruction/i10_b,红,blue,j,diamond,color_mix,颜色,,incompatible,1,,,,,,,,0,2,2,2,0,0,0,0,0,4,4,4,,,,,,,,,,,,,,,,,,,,,,,,,,,,,353.06276269999216,353.2622651999991,353.2622651999991,353.5623110999877,353.5623110999877,354.0621439999959,354.0621439999959,354.0621439999959,j,1,1.6254180000105407,355.7122336999746,356.7118064999813,,,,,,,,,,,,,,,,,,,11002,2,2,2024-06-15_18h09.31.766,stroop_task_switching2_b,2022.2.4,59.91730213418072,
condition/block_mixed_b,instruction/instr_mixed,instruction/i10_b,红,blue,k,square,color_mix,单词,,incompatible,2,,,,,,,,0,2,2,2,0,0,0,0,0,5,5,5,,,,,,,,,,,,,,,,,,,,,,,,,,,,,356.7118064999813,356.9120334999752,356.9120334999752,357.21212469998864,357.19569299998693,357.69586269999854,357.69586269999854,357.69586269999854,j,0,1.5184942999912892,359.2455526999838,360.24573369999416,,,,,,,,,,,,,,,,,,,11002,2,2,2024-06-15_18h09.31.766,stroop_task_switching2_b,2022.2.4,59.91730213418072,
condition/block_mixed_b,instruction/instr_mixed,instruction/i10_b,红,yellow,f,diamond,color_mix,颜色,,incompatible,2,,,,,,,,0,2,2,2,0,0,0,0,0,6,6,6,,,,,,,,,,,,,,,,,,,,,,,,,,,,,360.24573369999416,360.4457722999796,360.4457722999796,360.7455583999981,360.7455583999981,361.24547969998093,361.24547969998093,361.24547969998093,f,1,1.1775672000076156,362.4454355999769,363.4455641999957,,,,,,,,,,,,,,,,,,,11002,2,2,2024-06-15_18h09.31.766,stroop_task_switching2_b,2022.2.4,59.91730213418072,
condition/block_mixed_b,instruction/instr_mixed,instruction/i10_b,红,yellow,k,square,color_mix,单词,,incompatible,2,,,,,,,,0,2,2,2,0,0,0,0,0,7,7,7,,,,,,,,,,,,,,,,,,,,,,,,,,,,,363.4455641999957,363.64569379997556,363.64569379997556,363.94576249999227,363.9289568999957,364.4285283999925,364.4455534000008,364.4455534000008,f,0,1.2896719000127632,365.7619482000009,366.7621779999754,,,,,,,,,,,,,,,,,,,11002,2,2,2024-06-15_18h09.31.766,stroop_task_switching2_b,2022.2.4,59.91730213418072,
condition/block_mixed_b,instruction/instr_mixed,instruction/i10_b,绿,blue,d,square,color_mix,单词,,incompatible,1,,,,,,,,0,2,2,2,0,0,0,0,0,8,8,8,,,,,,,,,,,,,,,,,,,,,,,,,,,,,366.7621779999754,366.96231350000016,366.96231350000016,367.2628591999819,367.2628591999819,367.76251859997865,367.76251859997865,367.76251859997865,d,1,0.9394746999896597,368.72915969998576,369.72915689999354,,,,,,,,,,,,,,,,,,,11002,2,2,2024-06-15_18h09.31.766,stroop_task_switching2_b,2022.2.4,59.91730213418072,
condition/block_mixed_b,instruction/instr_mixed,instruction/i10_b,蓝,green,d,diamond,color_mix,颜色,,incompatible,2,,,,,,,,0,2,2,2,0,0,0,0,0,9,9,9,,,,,,,,,,,,,,,,,,,,,,,,,,,,,369.72915689999354,369.9121434999979,369.92888449999737,370.21279419999337,370.21279419999337,370.71255209998344,370.71255209998344,370.71255209998344,d,1,1.094650199986063,371.8290468999767,372.8287308999861,,,,,,,,,,,,,,,,,,,11002,2,2,2024-06-15_18h09.31.766,stroop_task_switching2_b,2022.2.4,59.91730213418072,
condition/block_mixed_b,instruction/instr_mixed,instruction/i10_b,蓝,yellow,j,square,color_mix,单词,,incompatible,2,,,,,,,,0,2,2,2,0,0,0,0,0,10,10,10,,,,,,,,,,,,,,,,,,,,,,,,,,,,,372.8287308999861,373.0288323999848,373.0288323999848,373.32899439998437,373.3120215999952,373.81238579997444,373.82869509997545,373.82869509997545,f,0,0.9534334000200033,374.81214259998524,375.81272779998835,,,,,,,,,,,,,,,,,,,11002,2,2,2024-06-15_18h09.31.766,stroop_task_switching2_b,2022.2.4,59.91730213418072,
condition/block_mixed_b,instruction/instr_mixed,instruction/i10_b,蓝,green,j,square,color_mix,单词,,incompatible,1,,,,,,,,0,2,2,2,0,0,0,0,0,11,11,11,,,,,,,,,,,,,,,,,,,,,,,,,,,,,375.81272779998835,375.9955904999806,376.0117671999906,376.29568529999233,376.31241479999153,376.8126367999939,376.8126367999939,376.8126367999939,d,0,1.569798999989871,378.41200079998816,379.4118700999825,,,,,,,,,,,,,,,,,,,11002,2,2,2024-06-15_18h09.31.766,stroop_task_switching2_b,2022.2.4,59.91730213418072,
condition/block_mixed_b,instruction/instr_mixed,instruction/i10_b,绿,yellow,d,square,color_mix,单词,,incompatible,1,,,,,,,,0,2,2,2,0,0,0,0,0,12,12,12,,,,,,,,,,,,,,,,,,,,,,,,,,,,,379.4118700999825,379.61191999999573,379.61191999999573,379.9119175999949,379.9119175999949,380.4121491999831,380.4121491999831,380.4121491999831,d,1,2.5060277999727987,382.94599310000194,383.9458855999983,,,,,,,,,,,,,,,,,,,11002,2,2,2024-06-15_18h09.31.766,stroop_task_switching2_b,2022.2.4,59.91730213418072,
condition/block_mixed_b,instruction/instr_mixed,instruction/i10_b,绿,blue,j,diamond,color_mix,颜色,,incompatible,2,,,,,,,,0,2,2,2,0,0,0,0,0,13,13,13,,,,,,,,,,,,,,,,,,,,,,,,,,,,,383.9458855999983,384.1292618000007,384.1452688999998,384.42865970000275,384.4450141999987,384.9455466999789,384.9455466999789,384.9455466999789,d,0,1.0047043999948073,385.97909059998346,386.9793070000014,,,,,,,,,,,,,,,,,,,11002,2,2,2024-06-15_18h09.31.766,stroop_task_switching2_b,2022.2.4,59.91730213418072,
condition/block_mixed_b,instruction/instr_mixed,instruction/i10_b,黄,red,f,square,color_mix,单词,,incompatible,2,,,,,,,,0,2,2,2,0,0,0,0,0,14,14,14,,,,,,,,,,,,,,,,,,,,,,,,,,,,,386.9793070000014,387.1788017999788,387.1788017999788,387.4785980999877,387.4785980999877,387.9791292999871,387.9791292999871,387.9791292999871,None,0,,391.62915969997994,392.6283809999877,,,,,390.9794636000006,390.9794636000006,390.9794636000006,391.62915969997994,,,,,,,,,,,11002,2,2,2024-06-15_18h09.31.766,stroop_task_switching2_b,2022.2.4,59.91730213418072,
condition/block_mixed_b,instruction/instr_mixed,instruction/i10_b,蓝,yellow,f,diamond,color_mix,颜色,,incompatible,2,,,,,,,,0,2,2,2,0,0,0,0,0,15,15,15,,,,,,,,,,,,,,,,,,,,,,,,,,,,,392.6283809999877,392.81241479999153,392.82891219999874,393.1119123999961,393.1119123999961,393.6123262999754,393.6123262999754,393.6123262999754,None,0,,397.14573519999976,398.1450903999794,,,,,396.6126667999779,396.6126667999779,396.6126667999779,397.14573519999976,,,,,,,,,,,11002,2,2,2024-06-15_18h09.31.766,stroop_task_switching2_b,2022.2.4,59.91730213418072,
condition/block_mixed_b,instruction/instr_mixed,instruction/i10_b,黄,red,k,diamond,color_mix,颜色,,incompatible,1,,,,,,,,0,2,2,2,0,0,0,0,0,16,16,16,,,,,,,,,,,,,,,,,,,,,,,,,,,,,398.1450903999794,398.34552189998794,398.34552189998794,398.6452858999837,398.6452858999837,399.1452246999834,399.1452246999834,399.1452246999834,d,0,0.8624849999905564,400.02858109999215,401.0286132999754,,,,,,,,,,,,,,,,,,,11002,2,2,2024-06-15_18h09.31.766,stroop_task_switching2_b,2022.2.4,59.91730213418072,
condition/block_mixed_b,instruction/instr_mixed,instruction/i10_b,绿,red,d,square,color_mix,单词,,incompatible,2,,,,,,,,0,2,2,2,0,0,0,0,0,17,17,17,,,,,,,,,,,,,,,,,,,,,,,,,,,,,401.0286132999754,401.21201309998287,401.2284224999894,401.5119025000022,401.5286894000019,402.028753999999,402.028753999999,402.028753999999,d,1,1.5059421000187285,403.5619602999941,404.5620347999793,,,,,,,,,,,,,,,,,,,11002,2,2,2024-06-15_18h09.31.766,stroop_task_switching2_b,2022.2.4,59.91730213418072,
condition/block_mixed_b,instruction/instr_mixed,instruction/i10_b,红,green,k,square,color_mix,单词,,incompatible,1,,,,,,,,0,2,2,2,0,0,0,0,0,18,18,18,,,,,,,,,,,,,,,,,,,,,,,,,,,,,404.5620347999793,404.7622584999772,404.7622584999772,405.0620984999987,405.0453582999762,405.5454084999801,405.5454084999801,405.5454084999801,k,1,1.1659753999847453,406.7283794999821,407.72862650000025,,,,,,,,,,,,,,,,,,,11002,2,2,2024-06-15_18h09.31.766,stroop_task_switching2_b,2022.2.4,59.91730213418072,
condition/block_mixed_b,instruction/instr_mixed,instruction/i10_b,黄,blue,j,diamond,color_mix,颜色,,incompatible,2,,,,,,,,0,2,2,2,0,0,0,0,0,19,19,19,,,,,,,,,,,,,,,,,,,,,,,,,,,,,407.72862650000025,407.92875159997493,407.92875159997493,408.2286640999955,408.2286640999955,408.7286814999825,408.7286814999825,408.7286814999825,j,1,1.317721800005529,410.078666299989,,,,,,,,,,,,,,,,,,,,11002,2,2,2024-06-15_18h09.31.766,stroop_task_switching2_b,2022.2.4,59.91730213418072,
condition/block_mixed_b,instruction/instr_mixed,instruction/i10_b,黄,green,d,diamond,color_mix,颜色,,incompatible,1,,,,,,,,0,2,2,2,0,0,0,0,0,20,20,20,,,,,,,,,,,,,,,,,,,,,,,,,,,,,411.07838130000164,411.26184309998644,411.27835579999373,411.5618957999977,411.5618957999977,412.0621297999751,412.0621297999751,412.0621297999751,d,1,1.2962247999967076,413.37829629998305,414.3785230999929,,,,,,,,,,,,,,,,,,,11002,2,2,2024-06-15_18h09.31.766,stroop_task_switching2_b,2022.2.4,59.91730213418072,
condition/block_mixed_b,instruction/instr_mixed,instruction/i10_b,黄,green,f,square,color_mix,单词,,incompatible,2,,,,,,,,0,2,2,2,0,0,0,0,0,21,21,21,,,,,,,,,,,,,,,,,,,,,,,,,,,,,414.3785230999929,414.56190479997895,414.5785986999981,414.8625510999991,414.8625510999991,415.3619063999795,415.3619063999795,415.3619063999795,f,1,2.2683821999817155,417.66220059999614,418.6622899999784,,,,,,,,,,,,,,,,,,,11002,2,2,2024-06-15_18h09.31.766,stroop_task_switching2_b,2022.2.4,59.91730213418072,
condition/block_mixed_b,instruction/instr_mixed,instruction/i10_b,黄,blue,f,square,color_mix,单词,,incompatible,1,,,,,,,,0,2,2,2,0,0,0,0,0,22,22,22,,,,,,,,,,,,,,,,,,,,,,,,,,,,,418.6622899999784,418.86204099998577,418.86204099998577,419.16160259998287,419.1449273999897,419.64480280000134,419.64480280000134,419.64480280000134,f,1,0.7055885999870952,420.37897309998516,421.3785282999743,,,,,,,,,,,,,,,,,,,11002,2,2,2024-06-15_18h09.31.766,stroop_task_switching2_b,2022.2.4,59.91730213418072,
condition/block_mixed_b,instruction/instr_mixed,instruction/i10_b,蓝,red,j,square,color_mix,单词,,incompatible,1,,,,,,,,0,2,2,2,0,0,0,0,0,23,23,23,,,,,,,,,,,,,,,,,,,,,,,,,,,,,421.3785282999743,421.5786379999772,421.5786379999772,421.87876919997507,421.87876919997507,422.37880599999335,422.37880599999335,422.37880599999335,j,1,1.267773200001102,423.67833029999747,424.67927729999064,,,,,,,,,,,,,,,,,,,11002,2,2,2024-06-15_18h09.31.766,stroop_task_switching2_b,2022.2.4,59.91730213418072,
condition/block_mixed_b,instruction/instr_mixed,instruction/i10_b,绿,red,k,diamond,color_mix,颜色,,incompatible,2,,,,,,,,0,2,2,2,0,0,0,0,0,24,24,24,,,,,,,,,,,,,,,,,,,,,,,,,,,,,424.67927729999064,424.8782976999937,424.8782976999937,425.1789143999922,425.1789143999922,425.678903299995,425.678903299995,425.678903299995,k,1,0.8711044999945443,426.5785440999898,427.5787794999778,,,,,,,,,,,,,,,,,,,11002,2,2,2024-06-15_18h09.31.766,stroop_task_switching2_b,2022.2.4,59.91730213418072,
condition/block_mixed_b,instruction/instr_mixed,instruction/i10_b,绿,green,d,diamond,color_mix,颜色,,compatible,1,,,,,,,,0,2,2,2,0,0,0,0,0,25,25,25,,,,,,,,,,,,,,,,,,,,,,,,,,,,,427.5787794999778,427.7783822999918,427.7783822999918,428.0782613999909,428.0782613999909,428.57870029998594,428.57870029998594,428.57870029998594,d,1,0.9170373999804724,429.5285436999984,430.5289617999806,,,,,,,,,,,,,,,,,,,11002,2,2,2024-06-15_18h09.31.766,stroop_task_switching2_b,2022.2.4,59.91730213418072,
condition/block_mixed_b,instruction/instr_mixed,instruction/i10_b,蓝,blue,j,diamond,color_mix,颜色,,compatible,1,,,,,,,,0,2,2,2,0,0,0,0,0,26,26,26,,,,,,,,,,,,,,,,,,,,,,,,,,,,,430.5289617999806,430.7287628999911,430.7287628999911,431.02846129998215,431.02846129998215,431.5287739999767,431.5287739999767,431.5287739999767,j,1,0.8793248999863863,432.4284334999975,433.42862989997957,,,,,,,,,,,,,,,,,,,11002,2,2,2024-06-15_18h09.31.766,stroop_task_switching2_b,2022.2.4,59.91730213418072,
condition/block_mixed_b,instruction/instr_mixed,instruction/i10_b,绿,green,d,square,color_mix,单词,,compatible,2,,,,,,,,0,2,2,2,0,0,0,0,0,27,27,27,,,,,,,,,,,,,,,,,,,,,,,,,,,,,433.42862989997957,433.6119106999831,433.62833690000116,433.91169419998187,433.92841939997743,434.4285769999842,434.4285769999842,434.4285769999842,d,1,0.6896528000070248,435.1453355999838,436.145598299976,,,,,,,,,,,,,,,,,,,11002,2,2,2024-06-15_18h09.31.766,stroop_task_switching2_b,2022.2.4,59.91730213418072,
condition/block_mixed_b,instruction/instr_mixed,instruction/i10_b,绿,green,d,square,color_mix,单词,,compatible,1,,,,,,,,0,2,2,2,0,0,0,0,0,28,28,28,,,,,,,,,,,,,,,,,,,,,,,,,,,,,436.145598299976,436.3450539999758,436.3450539999758,436.6450788999791,436.6450788999791,437.1449410999776,437.1449410999776,437.1449410999776,d,1,0.7984676999913063,437.96233159999247,438.9616095999954,,,,,,,,,,,,,,,,,,,11002,2,2,2024-06-15_18h09.31.766,stroop_task_switching2_b,2022.2.4,59.91730213418072,
condition/block_mixed_b,instruction/instr_mixed,instruction/i10_b,蓝,blue,j,square,color_mix,单词,,compatible,1,,,,,,,,0,2,2,2,0,0,0,0,0,29,29,29,,,,,,,,,,,,,,,,,,,,,,,,,,,,,438.9616095999954,439.161780800001,439.161780800001,439.46166589998757,439.46166589998757,439.9615995999775,439.9615995999775,439.9615995999775,j,1,0.7981183999800123,440.77821059999405,441.7781524999882,,,,,,,,,,,,,,,,,,,11002,2,2,2024-06-15_18h09.31.766,stroop_task_switching2_b,2022.2.4,59.91730213418072,
condition/block_mixed_b,instruction/instr_mixed,instruction/i10_b,黄,yellow,f,diamond,color_mix,颜色,,compatible,2,,,,,,,,0,2,2,2,0,0,0,0,0,30,30,30,,,,,,,,,,,,,,,,,,,,,,,,,,,,,441.7781524999882,441.9784734999994,441.9784734999994,442.2785004999896,442.2621949999884,442.76185129999067,442.7784803999821,442.7784803999821,f,1,0.7555590000119992,443.56191540000145,444.5618966999755,,,,,,,,,,,,,,,,,,,11002,2,2,2024-06-15_18h09.31.766,stroop_task_switching2_b,2022.2.4,59.91730213418072,
condition/block_mixed_b,instruction/instr_mixed,instruction/i10_b,绿,green,d,square,color_mix,单词,,compatible,2,,,,,,,,0,2,2,2,0,0,0,0,0,31,31,31,,,,,,,,,,,,,,,,,,,,,,,,,,,,,444.5618966999755,444.76192509999964,444.76192509999964,445.061985599983,445.061985599983,445.56187169998884,445.56187169998884,445.56187169998884,d,1,0.6772830999980215,446.2616233000008,447.2615076999937,,,,,,,,,,,,,,,,,,,11002,2,2,2024-06-15_18h09.31.766,stroop_task_switching2_b,2022.2.4,59.91730213418072,
condition/block_mixed_b,instruction/instr_mixed,instruction/i10_b,黄,yellow,f,square,color_mix,单词,,compatible,1,,,,,,,,0,2,2,2,0,0,0,0,0,32,32,32,,,,,,,,,,,,,,,,,,,,,,,,,,,,,447.2615076999937,447.4461037000001,447.46173119999,447.74508039999637,447.76212869997835,448.26175089998287,448.26175089998287,448.26175089998287,j,0,0.416769999981625,448.69533069999306,449.6950827999972,,,,,,,,,,,,,,,,,,,11002,2,2,2024-06-15_18h09.31.766,stroop_task_switching2_b,2022.2.4,59.91730213418072,
condition/block_mixed_b,instruction/instr_mixed,instruction/i10_b,绿,green,d,diamond,color_mix,颜色,,compatible,2,,,,,,,,0,2,2,2,0,0,0,0,0,33,33,33,,,,,,,,,,,,,,,,,,,,,,,,,,,,,449.6950827999972,449.89496710000094,449.89496710000094,450.1954187999945,450.1954187999945,450.6950254999974,450.6950254999974,450.6950254999974,f,0,1.129059099999722,451.8448645999888,452.84471459998167,,,,,,,,,,,,,,,,,,,11002,2,2,2024-06-15_18h09.31.766,stroop_task_switching2_b,2022.2.4,59.91730213418072,
condition/block_mixed_b,instruction/instr_mixed,instruction/i10_b,红,red,k,square,color_mix,单词,,compatible,2,,,,,,,,0,2,2,2,0,0,0,0,0,34,34,34,,,,,,,,,,,,,,,,,,,,,,,,,,,,,452.84471459998167,453.04525779999676,453.04525779999676,453.3451651999785,453.3451651999785,453.845135999989,453.845135999989,453.845135999989,k,1,0.9530772999860346,454.82862960000057,455.82846999997855,,,,,,,,,,,,,,,,,,,11002,2,2,2024-06-15_18h09.31.766,stroop_task_switching2_b,2022.2.4,59.91730213418072,
condition/block_mixed_b,instruction/instr_mixed,instruction/i10_b,黄,yellow,f,square,color_mix,单词,,compatible,1,,,,,,,,0,2,2,2,0,0,0,0,0,35,35,35,,,,,,,,,,,,,,,,,,,,,,,,,,,,,455.82846999997855,456.0285203999956,456.0285203999956,456.32780089997686,456.31179069998325,456.81215759998304,456.8284235999745,456.8284235999745,f,1,1.1224832000152674,457.97856899999897,458.97844179999083,,,,,,,,,,,,,,,,,,,11002,2,2,2024-06-15_18h09.31.766,stroop_task_switching2_b,2022.2.4,59.91730213418072,
condition/block_mixed_b,instruction/instr_mixed,instruction/i10_b,绿,green,d,diamond,color_mix,颜色,,compatible,2,,,,,,,,0,2,2,2,0,0,0,0,0,36,36,36,,,,,,,,,,,,,,,,,,,,,,,,,,,,,458.97844179999083,459.16141299999435,459.17833789999713,459.46171299999696,459.46171299999696,459.96186209999723,459.96186209999723,459.96186209999723,d,1,0.6937995000043884,460.67837949999375,461.6781079999928,,,,,,,,,,,,,,,,,,,11002,2,2,2024-06-15_18h09.31.766,stroop_task_switching2_b,2022.2.4,59.91730213418072,
condition/block_mixed_b,instruction/instr_mixed,instruction/i10_b,蓝,blue,j,square,color_mix,单词,,compatible,2,,,,,,,,0,2,2,2,0,0,0,0,0,37,37,37,,,,,,,,,,,,,,,,,,,,,,,,,,,,,461.6781079999928,461.8787079999747,461.8787079999747,462.1781648999895,462.1781648999895,462.6786646999826,462.6786646999826,462.6786646999826,j,1,0.5604083000216633,463.2619865000015,464.2614653999917,,,,,,,,,,,,,,,,,,,11002,2,2,2024-06-15_18h09.31.766,stroop_task_switching2_b,2022.2.4,59.91730213418072,
condition/block_mixed_b,instruction/instr_mixed,instruction/i10_b,红,red,k,square,color_mix,单词,,compatible,1,,,,,,,,0,2,2,2,0,0,0,0,0,38,38,38,,,,,,,,,,,,,,,,,,,,,,,,,,,,,464.2614653999917,464.4610724999802,464.4610724999802,464.76176490000216,464.76176490000216,465.2620892999985,465.2620892999985,465.2620892999985,k,1,0.8002377999946475,466.09518789997674,467.0947455999849,,,,,,,,,,,,,,,,,,,11002,2,2,2024-06-15_18h09.31.766,stroop_task_switching2_b,2022.2.4,59.91730213418072,
condition/block_mixed_b,instruction/instr_mixed,instruction/i10_b,黄,yellow,f,diamond,color_mix,颜色,,compatible,2,,,,,,,,0,2,2,2,0,0,0,0,0,39,39,39,,,,,,,,,,,,,,,,,,,,,,,,,,,,,467.0947455999849,467.29526949999854,467.29526949999854,467.59532709998894,467.59532709998894,468.09547059997567,468.09547059997567,468.09547059997567,d,0,0.7596511000010651,468.8778350999928,469.87800419999985,,,,,,,,,,,,,,,,,,,11002,2,2,2024-06-15_18h09.31.766,stroop_task_switching2_b,2022.2.4,59.91730213418072,
condition/block_mixed_b,instruction/instr_mixed,instruction/i10_b,黄,yellow,f,square,color_mix,单词,,compatible,2,,,,,,,,0,2,2,2,0,0,0,0,0,40,40,40,,,,,,,,,,,,,,,,,,,,,,,,,,,,,469.87800419999985,470.0618235000002,470.0785247999884,470.36146049998933,470.3785939999798,470.87827789998846,470.87827789998846,470.87827789998846,f,1,0.8163994000060484,471.7111615999893,472.71208509997814,,,,,,,,,,,,,,,,,,,11002,2,2,2024-06-15_18h09.31.766,stroop_task_switching2_b,2022.2.4,59.91730213418072,
condition/block_mixed_b,instruction/instr_mixed,instruction/i10_b,蓝,blue,j,square,color_mix,单词,,compatible,1,,,,,,,,0,2,2,2,0,0,0,0,0,41,41,41,,,,,,,,,,,,,,,,,,,,,,,,,,,,,472.71208509997814,472.9116894999752,472.9116894999752,473.2125880999956,473.2125880999956,,473.7285548999789,473.7285548999789,j,1,0.5912500999984331,474.34531519998563,475.344697499997,,,,,,,,,,,,,,,,,,,11002,2,2,2024-06-15_18h09.31.766,stroop_task_switching2_b,2022.2.4,59.91730213418072,
condition/block_mixed_b,instruction/instr_mixed,instruction/i10_b,蓝,blue,j,diamond,color_mix,颜色,,compatible,2,,,,,,,,0,2,2,2,0,0,0,0,0,42,42,42,,,,,,,,,,,,,,,,,,,,,,,,,,,,,475.344697499997,475.5454993000021,475.5454993000021,475.8448309999949,475.8448309999949,476.3448764999921,476.3448764999921,476.3448764999921,j,1,0.7818694000015967,477.1445144999889,478.14468629998737,,,,,,,,,,,,,,,,,,,11002,2,2,2024-06-15_18h09.31.766,stroop_task_switching2_b,2022.2.4,59.91730213418072,
condition/block_mixed_b,instruction/instr_mixed,instruction/i10_b,黄,yellow,f,diamond,color_mix,颜色,,compatible,1,,,,,,,,0,2,2,2,0,0,0,0,0,43,43,43,,,,,,,,,,,,,,,,,,,,,,,,,,,,,478.14468629998737,478.34488309998414,478.34488309998414,478.64440199997625,478.64440199997625,479.14464469999075,479.14464469999075,479.14464469999075,f,1,1.005452100012917,480.1779628999939,481.1780823000008,,,,,,,,,,,,,,,,,,,11002,2,2,2024-06-15_18h09.31.766,stroop_task_switching2_b,2022.2.4,59.91730213418072,
condition/block_mixed_b,instruction/instr_mixed,instruction/i10_b,红,red,k,diamond,color_mix,颜色,,compatible,1,,,,,,,,0,2,2,2,0,0,0,0,0,44,44,44,,,,,,,,,,,,,,,,,,,,,,,,,,,,,481.1780823000008,481.378733199992,481.378733199992,481.67821189999813,481.67821189999813,482.17814279999584,482.17814279999584,482.17814279999584,k,1,0.5485752000240609,482.74526699999114,483.74438089999603,,,,,,,,,,,,,,,,,,,11002,2,2,2024-06-15_18h09.31.766,stroop_task_switching2_b,2022.2.4,59.91730213418072,
condition/block_mixed_b,instruction/instr_mixed,instruction/i10_b,蓝,blue,j,diamond,color_mix,颜色,,compatible,1,,,,,,,,0,2,2,2,0,0,0,0,0,45,45,45,,,,,,,,,,,,,,,,,,,,,,,,,,,,,483.74438089999603,483.94463240000186,483.94463240000186,484.2444350000005,484.2444350000005,484.74435269998503,484.74435269998503,484.74435269998503,j,1,0.6299472999817226,485.39548449998256,486.3945922999992,,,,,,,,,,,,,,,,,,,11002,2,2,2024-06-15_18h09.31.766,stroop_task_switching2_b,2022.2.4,59.91730213418072,
condition/block_mixed_b,instruction/instr_mixed,instruction/i10_b,红,red,k,diamond,color_mix,颜色,,compatible,1,,,,,,,,0,2,2,2,0,0,0,0,0,46,46,46,,,,,,,,,,,,,,,,,,,,,,,,,,,,,486.3945922999992,486.59511769999517,486.59511769999517,486.8945087999746,486.8945087999746,487.39432259998284,487.39432259998284,487.39432259998284,k,1,0.7810982999799307,488.19457139997394,489.1950469999865,,,,,,,,,,,,,,,,,,,11002,2,2,2024-06-15_18h09.31.766,stroop_task_switching2_b,2022.2.4,59.91730213418072,
condition/block_mixed_b,instruction/instr_mixed,instruction/i10_b,红,red,k,square,color_mix,单词,,compatible,2,,,,,,,,0,2,2,2,0,0,0,0,0,47,47,47,,,,,,,,,,,,,,,,,,,,,,,,,,,,,489.1950469999865,489.3949562999769,489.3949562999769,489.6949165999831,489.6949165999831,490.1949129999848,490.1949129999848,490.1949129999848,k,1,0.8199009999807458,491.0448157999781,492.04459889998543,,,,,,,,,,,,,,,,,,,11002,2,2,2024-06-15_18h09.31.766,stroop_task_switching2_b,2022.2.4,59.91730213418072,
condition/block_mixed_b,instruction/instr_mixed,instruction/i10_b,红,red,k,diamond,color_mix,颜色,,compatible,2,,,,,,,,0,2,2,2,0,0,0,0,0,48,48,48,,,,,,,,,,,,,,,,,,,,,,,,,,,,,492.04459889998543,492.2445729999745,492.2445729999745,492.5443239999877,492.5443239999877,493.04448630000115,493.04448630000115,493.04448630000115,k,1,0.522197700018296,493.5944363999879,494.5947137999756,,,,,,,,,,,,,,,,,,,11002,2,2,2024-06-15_18h09.31.766,stroop_task_switching2_b,2022.2.4,59.91730213418072,
condition/block_mixed_b,instruction/instr_mixed,instruction/i10_b,,,,,,,,,,,,,,,,,0,2,2,2,0,0,0,0,,,,,,,,,,,,,,,,,,,,,,,,,,,,,,,,,,,,,,,,,,,,,,494.5947137999756,494.5947137999756,q,16.53150579999783,,,,,,,,,,,,,,,11002,2,2,2024-06-15_18h09.31.766,stroop_task_switching2_b,2022.2.4,59.91730213418072,
condition/block_mixed_b,instruction/instr_mixed,instruction/i10_b,蓝,red,k,diamond,color_mix,颜色,,incompatible,0,,,,,,,,0,2,2,2,1,0,1,0,0,0,0,0,,,,,,,,,,,,,,,,,,,,,511.1445951999922,512.1445234999992,512.1445234999992,513.1446046999772,513.1446046999772,514.1449618999904,514.1449618999904,515.1462511999998,515.1462511999998,515.3471802999848,515.3471802999848,515.6469970999751,515.6469970999751,516.1467177000013,516.1467177000013,516.1467177000013,j,0,1.3560732000041753,517.529897499975,518.530190599995,,,,,,,,,,,,,,,,,,,11002,2,2,2024-06-15_18h09.31.766,stroop_task_switching2_b,2022.2.4,59.91730213418072,
condition/block_mixed_b,instruction/instr_mixed,instruction/i10_b,绿,yellow,f,diamond,color_mix,颜色,,incompatible,1,,,,,,,,0,2,2,2,1,0,1,0,0,1,1,1,,,,,,,,,,,,,,,,,,,,,,,,,,,,,518.530190599995,518.713164899993,518.730097599997,519.0136837999744,519.0136837999744,519.5139613999927,519.5306720999943,519.5306720999943,d,0,0.6915088999958243,520.2471927999868,521.2473058999749,,,,,,,,,,,,,,,,,,,11002,2,2,2024-06-15_18h09.31.766,stroop_task_switching2_b,2022.2.4,59.91730213418072,
condition/block_mixed_b,instruction/instr_mixed,instruction/i10_b,红,green,d,diamond,color_mix,颜色,,incompatible,1,,,,,,,,0,2,2,2,1,0,1,0,0,2,2,2,,,,,,,,,,,,,,,,,,,,,,,,,,,,,521.2473058999749,521.4467566999956,521.4467566999956,521.7470048999821,521.7470048999821,522.2468516999797,522.2468516999797,522.2468516999797,k,0,0.8795814999903087,523.1469413999876,524.1465825999912,,,,,,,,,,,,,,,,,,,11002,2,2,2024-06-15_18h09.31.766,stroop_task_switching2_b,2022.2.4,59.91730213418072,
condition/block_mixed_b,instruction/instr_mixed,instruction/i10_b,蓝,red,k,diamond,color_mix,颜色,,incompatible,1,,,,,,,,0,2,2,2,1,0,1,0,0,3,3,3,,,,,,,,,,,,,,,,,,,,,,,,,,,,,524.1465825999912,524.3472353999969,524.3472353999969,524.6468072999851,524.6468072999851,525.1466942999978,525.1466942999978,525.1466942999978,k,1,1.4851338999869768,526.6636561999912,527.6637020999915,,,,,,,,,,,,,,,,,,,11002,2,2,2024-06-15_18h09.31.766,stroop_task_switching2_b,2022.2.4,59.91730213418072,
condition/block_mixed_b,instruction/instr_mixed,instruction/i10_b,红,blue,j,diamond,color_mix,颜色,,incompatible,1,,,,,,,,0,2,2,2,1,0,1,0,0,4,4,4,,,,,,,,,,,,,,,,,,,,,,,,,,,,,527.6637020999915,527.8469488999981,527.8637882999901,528.1471329999913,528.1471329999913,528.6468734999944,528.663699799974,528.663699799974,k,0,1.1277146999782417,529.8135107999842,530.8132658999821,,,,,,,,,,,,,,,,,,,11002,2,2,2024-06-15_18h09.31.766,stroop_task_switching2_b,2022.2.4,59.91730213418072,
condition/block_mixed_b,instruction/instr_mixed,instruction/i10_b,红,blue,k,square,color_mix,单词,,incompatible,2,,,,,,,,0,2,2,2,1,0,1,0,0,5,5,5,,,,,,,,,,,,,,,,,,,,,,,,,,,,,530.8132658999821,531.0135149999987,531.0135149999987,531.3136933999776,531.3136933999776,531.8133857999928,531.8133857999928,531.8133857999928,k,1,1.2820008999842685,533.113484499976,534.1135830999992,,,,,,,,,,,,,,,,,,,11002,2,2,2024-06-15_18h09.31.766,stroop_task_switching2_b,2022.2.4,59.91730213418072,
condition/block_mixed_b,instruction/instr_mixed,instruction/i10_b,红,yellow,f,diamond,color_mix,颜色,,incompatible,2,,,,,,,,0,2,2,2,1,0,1,0,0,6,6,6,,,,,,,,,,,,,,,,,,,,,,,,,,,,,534.1135830999992,534.3131283999828,534.3131283999828,534.613576099975,534.613576099975,535.113563699997,535.113563699997,535.113563699997,f,1,1.765524699992966,536.8968913999852,537.8970311000012,,,,,,,,,,,,,,,,,,,11002,2,2,2024-06-15_18h09.31.766,stroop_task_switching2_b,2022.2.4,59.91730213418072,
condition/block_mixed_b,instruction/instr_mixed,instruction/i10_b,红,yellow,k,square,color_mix,单词,,incompatible,2,,,,,,,,0,2,2,2,1,0,1,0,0,7,7,7,,,,,,,,,,,,,,,,,,,,,,,,,,,,,537.8970311000012,538.0969786999922,538.0969786999922,538.3969498999941,538.3800685000024,538.8807082999847,538.8807082999847,538.8807082999847,k,1,0.68609619999188,539.5967232999974,540.596427499986,,,,,,,,,,,,,,,,,,,11002,2,2,2024-06-15_18h09.31.766,stroop_task_switching2_b,2022.2.4,59.91730213418072,
condition/block_mixed_b,instruction/instr_mixed,instruction/i10_b,绿,blue,d,square,color_mix,单词,,incompatible,1,,,,,,,,0,2,2,2,1,0,1,0,0,8,8,8,,,,,,,,,,,,,,,,,,,,,,,,,,,,,540.596427499986,540.7803216999746,540.7966007999785,541.0800567999831,541.0800567999831,541.5804293999972,541.5969150000019,541.5969150000019,d,1,0.9053826999734156,542.5303066999768,543.5296164999891,,,,,,,,,,,,,,,,,,,11002,2,2,2024-06-15_18h09.31.766,stroop_task_switching2_b,2022.2.4,59.91730213418072,
condition/block_mixed_b,instruction/instr_mixed,instruction/i10_b,蓝,green,d,diamond,color_mix,颜色,,incompatible,2,,,,,,,,0,2,2,2,1,0,1,0,0,9,9,9,,,,,,,,,,,,,,,,,,,,,,,,,,,,,543.5296164999891,543.7134297000011,543.7302306999918,544.0132518999744,544.0302437999926,544.5295832999982,544.5295832999982,544.5295832999982,d,1,1.0207338999898639,545.5799930999929,546.5805677999742,,,,,,,,,,,,,,,,,,,11002,2,2,2024-06-15_18h09.31.766,stroop_task_switching2_b,2022.2.4,59.91730213418072,
condition/block_mixed_b,instruction/instr_mixed,instruction/i10_b,蓝,yellow,j,square,color_mix,单词,,incompatible,2,,,,,,,,0,2,2,2,1,0,1,0,0,10,10,10,,,,,,,,,,,,,,,,,,,,,,,,,,,,,546.5805677999742,546.7797291999741,546.7797291999741,547.0802614999993,547.0802614999993,547.5803555999883,547.5803555999883,547.5803555999883,f,0,1.2027849000005517,548.8131833999942,549.8135547999991,,,,,,,,,,,,,,,,,,,11002,2,2,2024-06-15_18h09.31.766,stroop_task_switching2_b,2022.2.4,59.91730213418072,
condition/block_mixed_b,instruction/instr_mixed,instruction/i10_b,蓝,green,j,square,color_mix,单词,,incompatible,1,,,,,,,,0,2,2,2,1,0,1,0,0,11,11,11,,,,,,,,,,,,,,,,,,,,,,,,,,,,,549.8135547999991,550.0135470999812,550.0135470999812,550.3141146999842,550.3141146999842,,550.8297791999939,550.8297791999939,j,1,2.194622100010747,553.0467076999776,554.0464034999895,,,,,,,,,,,,,,,,,,,11002,2,2,2024-06-15_18h09.31.766,stroop_task_switching2_b,2022.2.4,59.91730213418072,
condition/block_mixed_b,instruction/instr_mixed,instruction/i10_b,绿,yellow,d,square,color_mix,单词,,incompatible,1,,,,,,,,0,2,2,2,1,0,1,0,0,12,12,12,,,,,,,,,,,,,,,,,,,,,,,,,,,,,554.0464034999895,554.2463787999877,554.2463787999877,554.5472762999998,554.5472762999998,555.0468966999906,555.0468966999906,555.0468966999906,d,1,1.2319312999898102,556.2964284999762,557.2964668999775,,,,,,,,,,,,,,,,,,,11002,2,2,2024-06-15_18h09.31.766,stroop_task_switching2_b,2022.2.4,59.91730213418072,
condition/block_mixed_b,instruction/instr_mixed,instruction/i10_b,绿,blue,j,diamond,color_mix,颜色,,incompatible,2,,,,,,,,0,2,2,2,1,0,1,0,0,13,13,13,,,,,,,,,,,,,,,,,,,,,,,,,,,,,557.2964668999775,557.4804004999751,557.4965941999981,557.7805401999794,557.7805401999794,558.2800494999974,558.2800494999974,558.2800494999974,j,1,2.128083500021603,560.4300419999927,561.4297809999844,,,,,,,,,,,,,,,,,,,11002,2,2,2024-06-15_18h09.31.766,stroop_task_switching2_b,2022.2.4,59.91730213418072,
condition/block_mixed_b,instruction/instr_mixed,instruction/i10_b,黄,red,f,square,color_mix,单词,,incompatible,2,,,,,,,,0,2,2,2,1,0,1,0,0,14,14,14,,,,,,,,,,,,,,,,,,,,,,,,,,,,,561.4297809999844,561.6303208999743,561.6303208999743,561.9302438999875,561.9302438999875,562.4297731999832,562.4297731999832,562.4297731999832,f,1,1.505001599987736,563.9635255999747,564.9631394999742,,,,,,,,,,,,,,,,,,,11002,2,2,2024-06-15_18h09.31.766,stroop_task_switching2_b,2022.2.4,59.91730213418072,
condition/block_mixed_b,instruction/instr_mixed,instruction/i10_b,蓝,yellow,f,diamond,color_mix,颜色,,incompatible,2,,,,,,,,0,2,2,2,1,0,1,0,0,15,15,15,,,,,,,,,,,,,,,,,,,,,,,,,,,,,564.9631394999742,565.1636555999867,565.1636555999867,565.4636654999922,565.4636654999922,565.9630308999913,565.9630308999913,565.9630308999913,f,1,2.1641500999976415,568.1468133000017,569.1462223999843,,,,,,,,,,,,,,,,,,,11002,2,2,2024-06-15_18h09.31.766,stroop_task_switching2_b,2022.2.4,59.91730213418072,
condition/block_mixed_b,instruction/instr_mixed,instruction/i10_b,黄,red,k,diamond,color_mix,颜色,,incompatible,1,,,,,,,,0,2,2,2,1,0,1,0,0,16,16,16,,,,,,,,,,,,,,,,,,,,,,,,,,,,,569.1462223999843,569.3300084999937,569.3464098999975,569.6299337999953,569.6299337999953,570.1299711999891,570.1299711999891,570.1299711999891,k,1,1.0046409999777097,571.1634823999775,572.1634736999986,,,,,,,,,,,,,,,,,,,11002,2,2,2024-06-15_18h09.31.766,stroop_task_switching2_b,2022.2.4,59.91730213418072,
condition/block_mixed_b,instruction/instr_mixed,instruction/i10_b,绿,red,d,square,color_mix,单词,,incompatible,2,,,,,,,,0,2,2,2,1,0,1,0,0,17,17,17,,,,,,,,,,,,,,,,,,,,,,,,,,,,,572.1634736999986,572.3631066999806,572.3631066999806,572.6635873999912,572.6635873999912,573.1628053000022,573.1628053000022,573.1628053000022,d,1,1.019769800012,574.2133793999965,575.2133511999855,,,,,,,,,,,,,,,,,,,11002,2,2,2024-06-15_18h09.31.766,stroop_task_switching2_b,2022.2.4,59.91730213418072,
condition/block_mixed_b,instruction/instr_mixed,instruction/i10_b,红,green,k,square,color_mix,单词,,incompatible,1,,,,,,,,0,2,2,2,1,0,1,0,0,18,18,18,,,,,,,,,,,,,,,,,,,,,,,,,,,,,575.2133511999855,575.4131213999935,575.4131213999935,575.713454599987,575.713454599987,576.2132778999803,576.2132778999803,576.2132778999803,k,1,0.6412952000100631,576.8798962000001,577.8798681999906,,,,,,,,,,,,,,,,,,,11002,2,2,2024-06-15_18h09.31.766,stroop_task_switching2_b,2022.2.4,59.91730213418072,
condition/block_mixed_b,instruction/instr_mixed,instruction/i10_b,黄,blue,j,diamond,color_mix,颜色,,incompatible,2,,,,,,,,0,2,2,2,1,0,1,0,0,19,19,19,,,,,,,,,,,,,,,,,,,,,,,,,,,,,577.8798681999906,578.0796268999984,578.0796268999984,578.380270900001,578.3632296999858,578.863002899976,578.863002899976,578.863002899976,j,1,2.360782300005667,581.2466335999779,582.2464439999894,,,,,,,,,,,,,,,,,,,11002,2,2,2024-06-15_18h09.31.766,stroop_task_switching2_b,2022.2.4,59.91730213418072,
condition/block_mixed_b,instruction/instr_mixed,instruction/i10_b,黄,green,d,diamond,color_mix,颜色,,incompatible,1,,,,,,,,0,2,2,2,1,0,1,0,0,20,20,20,,,,,,,,,,,,,,,,,,,,,,,,,,,,,582.2464439999894,582.4299810999946,582.4467516999866,582.7302827999811,582.7302827999811,583.2298238999792,583.2298238999792,583.2298238999792,d,1,1.6822086999891326,584.9297916999785,585.9300092999765,,,,,,,,,,,,,,,,,,,11002,2,2,2024-06-15_18h09.31.766,stroop_task_switching2_b,2022.2.4,59.91730213418072,
condition/block_mixed_b,instruction/instr_mixed,instruction/i10_b,黄,green,f,square,color_mix,单词,,incompatible,2,,,,,,,,0,2,2,2,1,0,1,0,0,21,21,21,,,,,,,,,,,,,,,,,,,,,,,,,,,,,585.9300092999765,586.1296732999908,586.1296732999908,586.4298054999963,586.4298054999963,586.9298261999793,586.9298261999793,586.9298261999793,j,0,2.3260784999874886,589.2797168999969,590.2800021999865,,,,,,,,,,,,,,,,,,,11002,2,2,2024-06-15_18h09.31.766,stroop_task_switching2_b,2022.2.4,59.91730213418072,
condition/block_mixed_b,instruction/instr_mixed,instruction/i10_b,黄,blue,f,square,color_mix,单词,,incompatible,1,,,,,,,,0,2,2,2,1,0,1,0,0,22,22,22,,,,,,,,,,,,,,,,,,,,,,,,,,,,,590.2800021999865,590.4795312999922,590.4795312999922,590.7797717999783,590.7797717999783,591.2795898999902,591.2795898999902,591.2795898999902,f,1,0.5908605000004172,591.8964967999782,592.8965801000013,,,,,,,,,,,,,,,,,,,11002,2,2,2024-06-15_18h09.31.766,stroop_task_switching2_b,2022.2.4,59.91730213418072,
condition/block_mixed_b,instruction/instr_mixed,instruction/i10_b,蓝,red,j,square,color_mix,单词,,incompatible,1,,,,,,,,0,2,2,2,1,0,1,0,0,23,23,23,,,,,,,,,,,,,,,,,,,,,,,,,,,,,592.8965801000013,593.0797650000022,593.0966957999917,593.3803084999963,593.3803084999963,593.8801085999876,593.8801085999876,593.8801085999876,j,1,2.270851599983871,596.1798566999787,597.1793897000025,,,,,,,,,,,,,,,,,,,11002,2,2,2024-06-15_18h09.31.766,stroop_task_switching2_b,2022.2.4,59.91730213418072,
condition/block_mixed_b,instruction/instr_mixed,instruction/i10_b,绿,red,k,diamond,color_mix,颜色,,incompatible,2,,,,,,,,0,2,2,2,1,0,1,0,0,24,24,24,,,,,,,,,,,,,,,,,,,,,,,,,,,,,597.1793897000025,597.3637337999826,597.3794550999883,597.6632777999912,597.6632777999912,598.1630171999859,598.1630171999859,598.1630171999859,k,1,2.083955399983097,600.2633514999761,601.2633311999962,,,,,,,,,,,,,,,,,,,11002,2,2,2024-06-15_18h09.31.766,stroop_task_switching2_b,2022.2.4,59.91730213418072,
condition/block_mixed_b,instruction/instr_mixed,instruction/i10_b,绿,green,d,diamond,color_mix,颜色,,compatible,1,,,,,,,,0,2,2,2,1,0,1,0,0,25,25,25,,,,,,,,,,,,,,,,,,,,,,,,,,,,,601.2633311999962,601.4629984999774,601.4629984999774,601.7631001999835,601.7631001999835,602.2633060999797,602.2633060999797,602.2633060999797,d,1,1.1043436999898404,603.3966711999965,604.3964405999868,,,,,,,,,,,,,,,,,,,11002,2,2,2024-06-15_18h09.31.766,stroop_task_switching2_b,2022.2.4,59.91730213418072,
condition/block_mixed_b,instruction/instr_mixed,instruction/i10_b,蓝,blue,j,diamond,color_mix,颜色,,compatible,1,,,,,,,,0,2,2,2,1,0,1,0,0,26,26,26,,,,,,,,,,,,,,,,,,,,,,,,,,,,,604.3964405999868,604.5959646999836,604.5959646999836,604.896227499994,604.896227499994,605.3963035999914,605.3963035999914,605.3963035999914,j,1,1.1945703999954276,606.6127988999942,607.6129462999816,,,,,,,,,,,,,,,,,,,11002,2,2,2024-06-15_18h09.31.766,stroop_task_switching2_b,2022.2.4,59.91730213418072,
condition/block_mixed_b,instruction/instr_mixed,instruction/i10_b,绿,green,d,square,color_mix,单词,,compatible,2,,,,,,,,0,2,2,2,1,0,1,0,0,27,27,27,,,,,,,,,,,,,,,,,,,,,,,,,,,,,607.6129462999816,607.8133629999938,607.8133629999938,608.1134640999953,608.0961256999872,608.596294899995,608.596294899995,608.596294899995,d,1,2.0102865000080783,610.6301862999971,611.6297089,,,,,,,,,,,,,,,,,,,11002,2,2,2024-06-15_18h09.31.766,stroop_task_switching2_b,2022.2.4,59.91730213418072,
condition/block_mixed_b,instruction/instr_mixed,instruction/i10_b,绿,green,d,square,color_mix,单词,,compatible,1,,,,,,,,0,2,2,2,1,0,1,0,0,28,28,28,,,,,,,,,,,,,,,,,,,,,,,,,,,,,611.6297089,611.8297115000023,611.8297115000023,612.1294032000005,612.1294032000005,612.6301458999806,612.6301458999806,612.6301458999806,d,1,1.6416041000047699,614.296363499976,615.2965187999944,,,,,,,,,,,,,,,,,,,11002,2,2,2024-06-15_18h09.31.766,stroop_task_switching2_b,2022.2.4,59.91730213418072,
condition/block_mixed_b,instruction/instr_mixed,instruction/i10_b,蓝,blue,j,square,color_mix,单词,,compatible,1,,,,,,,,0,2,2,2,1,0,1,0,0,29,29,29,,,,,,,,,,,,,,,,,,,,,,,,,,,,,615.2965187999944,615.4962855999765,615.4962855999765,615.7964246999763,615.7964246999763,616.2963737999962,616.2963737999962,616.2963737999962,j,1,1.6461992999829818,617.9633168999862,618.9628527000023,,,,,,,,,,,,,,,,,,,11002,2,2,2024-06-15_18h09.31.766,stroop_task_switching2_b,2022.2.4,59.91730213418072,
condition/block_mixed_b,instruction/instr_mixed,instruction/i10_b,黄,yellow,f,diamond,color_mix,颜色,,compatible,2,,,,,,,,0,2,2,2,1,0,1,0,0,30,30,30,,,,,,,,,,,,,,,,,,,,,,,,,,,,,618.9628527000023,619.1632195999846,619.1632195999846,619.4627993999748,619.4627993999748,619.9626341999974,619.9626341999974,619.9626341999974,f,1,1.2771242999879178,621.2626813999959,622.262714099983,,,,,,,,,,,,,,,,,,,11002,2,2,2024-06-15_18h09.31.766,stroop_task_switching2_b,2022.2.4,59.91730213418072,
condition/block_mixed_b,instruction/instr_mixed,instruction/i10_b,绿,green,d,square,color_mix,单词,,compatible,2,,,,,,,,0,2,2,2,1,0,1,0,0,31,31,31,,,,,,,,,,,,,,,,,,,,,,,,,,,,,622.262714099983,622.4630391999963,622.4630391999963,622.7628275999741,622.7628275999741,623.2627128999738,623.2627128999738,623.2627128999738,d,1,0.7128526000014972,623.9963166999805,624.9958769999794,,,,,,,,,,,,,,,,,,,11002,2,2,2024-06-15_18h09.31.766,stroop_task_switching2_b,2022.2.4,59.91730213418072,
condition/block_mixed_b,instruction/instr_mixed,instruction/i10_b,黄,yellow,f,square,color_mix,单词,,compatible,1,,,,,,,,0,2,2,2,1,0,1,0,0,32,32,32,,,,,,,,,,,,,,,,,,,,,,,,,,,,,624.9958769999794,625.1962062999955,625.1962062999955,625.496064099978,625.496064099978,625.9960502999893,625.9960502999893,625.9960502999893,f,1,0.6350002999824937,626.6631070000003,627.6626981000009,,,,,,,,,,,,,,,,,,,11002,2,2,2024-06-15_18h09.31.766,stroop_task_switching2_b,2022.2.4,59.91730213418072,
condition/block_mixed_b,instruction/instr_mixed,instruction/i10_b,绿,green,d,diamond,color_mix,颜色,,compatible,2,,,,,,,,0,2,2,2,1,0,1,0,0,33,33,33,,,,,,,,,,,,,,,,,,,,,,,,,,,,,627.6626981000009,627.8627857999818,627.8627857999818,628.1626408000011,628.1626408000011,628.6631027999974,628.6631027999974,628.6631027999974,d,1,0.9453971000039019,629.6297401999764,630.6297647999891,,,,,,,,,,,,,,,,,,,11002,2,2,2024-06-15_18h09.31.766,stroop_task_switching2_b,2022.2.4,59.91730213418072,
condition/block_mixed_b,instruction/instr_mixed,instruction/i10_b,红,red,k,square,color_mix,单词,,compatible,2,,,,,,,,0,2,2,2,1,0,1,0,0,34,34,34,,,,,,,,,,,,,,,,,,,,,,,,,,,,,630.6297647999891,630.8292548999889,630.8292548999889,631.1294925999828,631.1294925999828,631.6300775999844,631.6300775999844,631.6300775999844,k,1,0.5690037999884225,632.2295419999864,633.2294547999918,,,,,,,,,,,,,,,,,,,11002,2,2,2024-06-15_18h09.31.766,stroop_task_switching2_b,2022.2.4,59.91730213418072,
condition/block_mixed_b,instruction/instr_mixed,instruction/i10_b,黄,yellow,f,square,color_mix,单词,,compatible,1,,,,,,,,0,2,2,2,1,0,1,0,0,35,35,35,,,,,,,,,,,,,,,,,,,,,,,,,,,,,633.2294547999918,633.4298724999826,633.4298724999826,633.7295732999919,633.7135604999785,634.2127948999987,634.2127948999987,634.2127948999987,f,1,0.5060428999713622,634.746020999999,635.7461939999775,,,,,,,,,,,,,,,,,,,11002,2,2,2024-06-15_18h09.31.766,stroop_task_switching2_b,2022.2.4,59.91730213418072,
condition/block_mixed_b,instruction/instr_mixed,instruction/i10_b,绿,green,d,diamond,color_mix,颜色,,compatible,2,,,,,,,,0,2,2,2,1,0,1,0,0,36,36,36,,,,,,,,,,,,,,,,,,,,,,,,,,,,,635.7461939999775,635.9464908999798,635.9464908999798,636.2464657999808,636.2292234999768,636.729314999975,636.746241899993,636.746241899993,d,1,0.5495058000087738,637.3125522999908,638.3125856999832,,,,,,,,,,,,,,,,,,,11002,2,2,2024-06-15_18h09.31.766,stroop_task_switching2_b,2022.2.4,59.91730213418072,
condition/block_mixed_b,instruction/instr_mixed,instruction/i10_b,蓝,blue,j,square,color_mix,单词,,compatible,2,,,,,,,,0,2,2,2,1,0,1,0,0,37,37,37,,,,,,,,,,,,,,,,,,,,,,,,,,,,,638.3125856999832,638.5128081000003,638.5128081000003,638.8131442999875,638.7966053999844,639.296156299999,639.296156299999,639.296156299999,j,1,0.5826620000007097,639.8961323999974,640.8958343999984,,,,,,,,,,,,,,,,,,,11002,2,2,2024-06-15_18h09.31.766,stroop_task_switching2_b,2022.2.4,59.91730213418072,
condition/block_mixed_b,instruction/instr_mixed,instruction/i10_b,红,red,k,square,color_mix,单词,,compatible,1,,,,,,,,0,2,2,2,1,0,1,0,0,38,38,38,,,,,,,,,,,,,,,,,,,,,,,,,,,,,640.8958343999984,641.0958049999899,641.0958049999899,641.396385,641.3799201999791,641.879080499988,641.8966992999776,641.8966992999776,d,0,0.38986819999990985,642.3128711000027,643.3129537999921,,,,,,,,,,,,,,,,,,,11002,2,2,2024-06-15_18h09.31.766,stroop_task_switching2_b,2022.2.4,59.91730213418072,
condition/block_mixed_b,instruction/instr_mixed,instruction/i10_b,黄,yellow,f,diamond,color_mix,颜色,,compatible,2,,,,,,,,0,2,2,2,1,0,1,0,0,39,39,39,,,,,,,,,,,,,,,,,,,,,,,,,,,,,643.3129537999921,643.513136900001,643.513136900001,643.8131544999778,643.8131544999778,644.3128566999803,644.3128566999803,644.3128566999803,f,1,0.6792816999950446,645.0124267999781,646.0128705999814,,,,,,,,,,,,,,,,,,,11002,2,2,2024-06-15_18h09.31.766,stroop_task_switching2_b,2022.2.4,59.91730213418072,
condition/block_mixed_b,instruction/instr_mixed,instruction/i10_b,黄,yellow,f,square,color_mix,单词,,compatible,2,,,,,,,,0,2,2,2,1,0,1,0,0,40,40,40,,,,,,,,,,,,,,,,,,,,,,,,,,,,,646.0128705999814,646.1959494999901,646.212816299987,646.4962740999763,646.5129944999935,647.0131243999931,647.0131243999931,647.0131243999931,f,1,0.658460099977674,647.696318799979,648.696412099991,,,,,,,,,,,,,,,,,,,11002,2,2,2024-06-15_18h09.31.766,stroop_task_switching2_b,2022.2.4,59.91730213418072,
condition/block_mixed_b,instruction/instr_mixed,instruction/i10_b,蓝,blue,j,square,color_mix,单词,,compatible,1,,,,,,,,0,2,2,2,1,0,1,0,0,41,41,41,,,,,,,,,,,,,,,,,,,,,,,,,,,,,648.696412099991,648.8963049000013,648.8963049000013,649.1962218999979,649.1962218999979,649.6956657999835,649.6956657999835,649.6956657999835,j,1,0.5034510999976192,650.22923669999,651.2290904999827,,,,,,,,,,,,,,,,,,,11002,2,2,2024-06-15_18h09.31.766,stroop_task_switching2_b,2022.2.4,59.91730213418072,
condition/block_mixed_b,instruction/instr_mixed,instruction/i10_b,蓝,blue,j,diamond,color_mix,颜色,,compatible,2,,,,,,,,0,2,2,2,1,0,1,0,0,42,42,42,,,,,,,,,,,,,,,,,,,,,,,,,,,,,651.2290904999827,651.4293202999979,651.4293202999979,651.7292639999941,651.7292639999941,652.2290512999753,652.2290512999753,652.2290512999753,j,1,1.1630171000142582,653.4124825999897,654.4126131999947,,,,,,,,,,,,,,,,,,,11002,2,2,2024-06-15_18h09.31.766,stroop_task_switching2_b,2022.2.4,59.91730213418072,
condition/block_mixed_b,instruction/instr_mixed,instruction/i10_b,黄,yellow,f,diamond,color_mix,颜色,,compatible,1,,,,,,,,0,2,2,2,1,0,1,0,0,43,43,43,,,,,,,,,,,,,,,,,,,,,,,,,,,,,654.4126131999947,654.6126319999748,654.6126319999748,654.9129348999995,654.9129348999995,655.4127509999962,655.4127509999962,655.4127509999962,f,1,0.5863490999909118,656.0291612999863,657.0293973999796,,,,,,,,,,,,,,,,,,,11002,2,2,2024-06-15_18h09.31.766,stroop_task_switching2_b,2022.2.4,59.91730213418072,
condition/block_mixed_b,instruction/instr_mixed,instruction/i10_b,红,red,k,diamond,color_mix,颜色,,compatible,1,,,,,,,,0,2,2,2,1,0,1,0,0,44,44,44,,,,,,,,,,,,,,,,,,,,,,,,,,,,,657.0293973999796,657.2124367999786,657.2290873999882,657.5129372999945,657.5295931999863,658.0291494999838,658.0291494999838,658.0291494999838,k,1,0.5700953000050504,658.6294546999852,659.6293701999821,,,,,,,,,,,,,,,,,,,11002,2,2,2024-06-15_18h09.31.766,stroop_task_switching2_b,2022.2.4,59.91730213418072,
condition/block_mixed_b,instruction/instr_mixed,instruction/i10_b,蓝,blue,j,diamond,color_mix,颜色,,compatible,1,,,,,,,,0,2,2,2,1,0,1,0,0,45,45,45,,,,,,,,,,,,,,,,,,,,,,,,,,,,,659.6293701999821,659.8299887999892,659.8299887999892,660.1291653999942,660.1128986999975,660.612959799997,660.612959799997,660.612959799997,j,1,0.6430731999862473,661.2794167999818,662.2794028999924,,,,,,,,,,,,,,,,,,,11002,2,2,2024-06-15_18h09.31.766,stroop_task_switching2_b,2022.2.4,59.91730213418072,
condition/block_mixed_b,instruction/instr_mixed,instruction/i10_b,红,red,k,diamond,color_mix,颜色,,compatible,1,,,,,,,,0,2,2,2,1,0,1,0,0,46,46,46,,,,,,,,,,,,,,,,,,,,,,,,,,,,,662.2794028999924,662.4629930999945,662.4795134000015,662.7624857999908,662.7624857999908,663.2628825999855,663.2628825999855,663.2628825999855,k,1,0.49726629999349825,663.779240999982,664.7792246000026,,,,,,,,,,,,,,,,,,,11002,2,2,2024-06-15_18h09.31.766,stroop_task_switching2_b,2022.2.4,59.91730213418072,
condition/block_mixed_b,instruction/instr_mixed,instruction/i10_b,红,red,k,square,color_mix,单词,,compatible,2,,,,,,,,0,2,2,2,1,0,1,0,0,47,47,47,,,,,,,,,,,,,,,,,,,,,,,,,,,,,664.7792246000026,664.9792510999832,664.9792510999832,665.2793917999952,665.2793917999952,665.7790699999896,665.7790699999896,665.7790699999896,k,1,0.6033399000007194,666.4125691999798,667.4124290999898,,,,,,,,,,,,,,,,,,,11002,2,2,2024-06-15_18h09.31.766,stroop_task_switching2_b,2022.2.4,59.91730213418072,
condition/block_mixed_b,instruction/instr_mixed,instruction/i10_b,红,red,k,diamond,color_mix,颜色,,compatible,2,,,,,,,,0,2,2,2,1,0,1,0,0,48,48,48,,,,,,,,,,,,,,,,,,,,,,,,,,,,,667.4124290999898,667.6126151999924,667.6126151999924,667.9129438999807,667.9129438999807,668.412665699987,668.412665699987,668.412665699987,k,1,0.914929700025823,669.3458100999997,670.346229799994,,,,,,,,,,,,,,,,,,,11002,2,2,2024-06-15_18h09.31.766,stroop_task_switching2_b,2022.2.4,59.91730213418072,
condition/block_mixed_b,instruction/instr_mixed,instruction/i10_b,,,,,,,,,,,,,,,,,0,2,2,2,1,0,1,0,,,,,,,,,,,,,,,,,,,,,,,,,,,,,,,,,,,,,,,,,,,,,,670.346229799994,670.346229799994,space,20.05240909999702,,,,,,,,,,,,,,,11002,2,2,2024-06-15_18h09.31.766,stroop_task_switching2_b,2022.2.4,59.91730213418072,
condition/block_mixed_b,instruction/instr_mixed,instruction/i10_b,,,,,,,,,,,,,,,,,0,2,2,2,,,,,,,,,,,,,,,,,,,,,,,,,,,,,,,,,,,,,,,,,,,,,,,,,,,,,,,,,,,,,,,,,,,,11002,2,2,2024-06-15_18h09.31.766,stroop_task_switching2_b,2022.2.4,59.91730213418072,
,,,红,red,k,square,color_mix,单词,,compatible,0,block_switch1_b,instruction/ready_test.png,instruction/i11.png,,,,,,,,,,,,,,,,,0,0,0,0,0,0,0,0,,,,,,,,,,,,,692.0165474999812,693.0170050000015,693.0170050000015,694.0160762000014,694.0160762000014,695.0170013000024,695.0170013000024,696.0374383000017,696.0374383000017,696.204422699986,696.2373532999773,696.5042040999979,696.5042040999979,697.0042475999799,697.0042475999799,697.0042475999799,k,1,0.6667323999863584,,,,,,,,,,,690.4497261999932,690.4497261999932,space,1.5366810999985319,,,,,,,11002,2,2,2024-06-15_18h09.31.766,stroop_task_switching2_b,2022.2.4,59.91730213418072,
,,,绿,green,d,diamond,color_mix,颜色,,compatible,2,block_switch1_b,instruction/ready_test.png,instruction/i11.png,,,,,,,,,,,,,,,,,0,0,0,0,0,1,1,1,,,,,,,,,,,,,,,,,,,,,697.6875073999981,697.8708140999952,697.8877283999755,698.1709824999853,698.1874954999948,698.6875690000015,698.6875690000015,698.6875690000015,d,1,0.7593227000033949,,,,,,,,,,,,,,,,,,,,,11002,2,2,2024-06-15_18h09.31.766,stroop_task_switching2_b,2022.2.4,59.91730213418072,
,,,绿,yellow,f,diamond,color_mix,颜色,,incompatible,1,block_switch1_b,instruction/ready_test.png,instruction/i11.png,,,,,,,,,,,,,,,,,0,0,0,0,0,2,2,2,,,,,,,,,,,,,,,,,,,,,699.4706560999912,699.6708260999876,699.6708260999876,699.9707855999877,699.9707855999877,700.4708640000026,700.4708640000026,700.4708640000026,f,1,1.1122059999906924,,,,,,,,,,,,,,,,,,,,,11002,2,2,2024-06-15_18h09.31.766,stroop_task_switching2_b,2022.2.4,59.91730213418072,
,,,蓝,blue,j,diamond,color_mix,颜色,,compatible,1,block_switch1_b,instruction/ready_test.png,instruction/i11.png,,,,,,,,,,,,,,,,,0,0,0,0,0,3,3,3,,,,,,,,,,,,,,,,,,,,,701.6047563999891,701.803901599982,701.803901599982,702.104079599987,702.104079599987,702.603984699992,702.603984699992,702.603984699992,j,1,0.6831699000031222,,,,,,,,,,,,,,,,,,,,,11002,2,2,2024-06-15_18h09.31.766,stroop_task_switching2_b,2022.2.4,59.91730213418072,
,,,绿,green,d,square,color_mix,单词,,compatible,2,block_switch1_b,instruction/ready_test.png,instruction/i11.png,,,,,,,,,,,,,,,,,0,0,0,0,0,4,4,4,,,,,,,,,,,,,,,,,,,,,703.3037993999897,703.5044628999894,703.5044628999894,703.8042652999866,703.8042652999866,704.3044189999928,704.3044189999928,704.3044189999928,d,1,1.0639797000039835,,,,,,,,,,,,,,,,,,,,,11002,2,2,2024-06-15_18h09.31.766,stroop_task_switching2_b,2022.2.4,59.91730213418072,
,,,绿,blue,j,diamond,color_mix,颜色,,incompatible,2,block_switch1_b,instruction/ready_test.png,instruction/i11.png,,,,,,,,,,,,,,,,,0,0,0,0,0,5,5,5,,,,,,,,,,,,,,,,,,,,,705.387321199989,705.5876361999835,705.5876361999835,705.8878635999863,705.8878635999863,706.3878019999829,706.3878019999829,706.3878019999829,j,1,0.9229431000130717,,,,,,,,,,,,,,,,,,,,,11002,2,2,2024-06-15_18h09.31.766,stroop_task_switching2_b,2022.2.4,59.91730213418072,
,,,黄,red,f,square,color_mix,单词,,incompatible,2,block_switch1_b,instruction/ready_test.png,instruction/i11.png,,,,,,,,,,,,,,,,,0,0,0,0,0,6,6,6,,,,,,,,,,,,,,,,,,,,,707.3379910999793,707.5373193999985,707.5373193999985,707.8373358999961,707.8373358999961,708.3375408999855,708.3375408999855,708.3375408999855,f,1,0.9584548999846447,,,,,,,,,,,,,,,,,,,,,11002,2,2,2024-06-15_18h09.31.766,stroop_task_switching2_b,2022.2.4,59.91730213418072,
,,,绿,green,d,square,color_mix,单词,,compatible,1,block_switch1_b,instruction/ready_test.png,instruction/i11.png,,,,,,,,,,,,,,,,,0,0,0,0,0,7,7,7,,,,,,,,,,,,,,,,,,,,,709.3209289999795,709.5206211999757,709.5206211999757,709.8209661000001,709.8209661000001,710.320922199986,710.320922199986,710.320922199986,d,1,0.7415783999895211,,,,,,,,,,,,,,,,,,,,,11002,2,2,2024-06-15_18h09.31.766,stroop_task_switching2_b,2022.2.4,59.91730213418072,
,,,蓝,blue,j,square,color_mix,单词,,compatible,1,block_switch1_b,instruction/ready_test.png,instruction/i11.png,,,,,,,,,,,,,,,,,0,0,0,0,0,8,8,8,,,,,,,,,,,,,,,,,,,,,711.0871589999879,711.2702648999984,711.2874043999764,711.5706157999812,711.5706157999812,712.0709850999992,712.0875702999765,712.0875702999765,j,1,0.6641004999983124,,,,,,,,,,,,,,,,,,,,,11002,2,2,2024-06-15_18h09.31.766,stroop_task_switching2_b,2022.2.4,59.91730213418072,
,,,红,red,k,diamond,color_mix,颜色,,compatible,2,block_switch1_b,instruction/ready_test.png,instruction/i11.png,,,,,,,,,,,,,,,,,0,0,0,0,0,9,9,9,,,,,,,,,,,,,,,,,,,,,712.770921599993,712.9710591999756,712.9710591999756,713.2709916000022,713.2547883999941,713.753925899975,713.753925899975,713.753925899975,k,1,1.0052857999980915,,,,,,,,,,,,,,,,,,,,,11002,2,2,2024-06-15_18h09.31.766,stroop_task_switching2_b,2022.2.4,59.91730213418072,
,,,黄,yellow,f,diamond,color_mix,颜色,,compatible,1,block_switch1_b,instruction/ready_test.png,instruction/i11.png,,,,,,,,,,,,,,,,,0,0,0,0,0,10,10,10,,,,,,,,,,,,,,,,,,,,,714.7871862999746,714.9874918999849,714.9874918999849,715.2875116999785,715.2875116999785,715.7874146999966,715.7874146999966,715.7874146999966,f,1,0.8189979000017047,,,,,,,,,,,,,,,,,,,,,11002,2,2,2024-06-15_18h09.31.766,stroop_task_switching2_b,2022.2.4,59.91730213418072,
,,,绿,green,d,square,color_mix,单词,,compatible,2,block_switch1_b,instruction/ready_test.png,instruction/i11.png,,,,,,,,,,,,,,,,,0,0,0,0,0,11,11,11,,,,,,,,,,,,,,,,,,,,,716.6374791999988,716.8209533999907,716.837726400001,717.1212204999756,717.1375342999818,717.6374659999856,717.6374659999856,717.6374659999856,d,1,0.7377223999937996,,,,,,,,,,,,,,,,,,,,,11002,2,2,2024-06-15_18h09.31.766,stroop_task_switching2_b,2022.2.4,59.91730213418072,
,,,红,red,k,diamond,color_mix,颜色,,compatible,2,block_switch1_b,instruction/ready_test.png,instruction/i11.png,,,,,,,,,,,,,,,,,0,0,0,0,0,12,12,12,,,,,,,,,,,,,,,,,,,,,718.4046925999864,718.5873121999903,718.6045547999965,718.8875023,718.9043486999872,719.4040099999984,719.4040099999984,719.4040099999984,k,1,0.49848360000760294,,,,,,,,,,,,,,,,,,,,,11002,2,2,2024-06-15_18h09.31.766,stroop_task_switching2_b,2022.2.4,59.91730213418072,
,,,红,red,k,diamond,color_mix,颜色,,compatible,1,block_switch1_b,instruction/ready_test.png,instruction/i11.png,,,,,,,,,,,,,,,,,0,0,0,0,0,13,13,13,,,,,,,,,,,,,,,,,,,,,719.9209728999995,720.1203699999896,720.1203699999896,720.4208341999911,720.4208341999911,720.9211841999786,720.9211841999786,720.9211841999786,k,1,0.5179108000011183,,,,,,,,,,,,,,,,,,,,,11002,2,2,2024-06-15_18h09.31.766,stroop_task_switching2_b,2022.2.4,59.91730213418072,
,,,黄,yellow,f,square,color_mix,单词,,compatible,2,block_switch1_b,instruction/ready_test.png,instruction/i11.png,,,,,,,,,,,,,,,,,0,0,0,0,0,14,14,14,,,,,,,,,,,,,,,,,,,,,721.4709311999904,721.6542023999791,721.6707668000017,721.9538308999909,721.9705726999964,722.4708742999937,722.4708742999937,722.4708742999937,f,1,0.6166150000062771,,,,,,,,,,,,,,,,,,,,,11002,2,2,2024-06-15_18h09.31.766,stroop_task_switching2_b,2022.2.4,59.91730213418072,
,,,红,green,d,diamond,color_mix,颜色,,incompatible,2,block_switch1_b,instruction/ready_test.png,instruction/i11.png,,,,,,,,,,,,,,,,,0,0,0,0,0,15,15,15,,,,,,,,,,,,,,,,,,,,,723.1041807000001,723.3042856999964,723.3042856999964,723.6041132999817,723.6041132999817,724.1048121999775,724.1048121999775,724.1048121999775,k,0,1.517701799981296,,,,,,,,,,,,,,,,,,,,,11002,2,2,2024-06-15_18h09.31.766,stroop_task_switching2_b,2022.2.4,59.91730213418072,
,,,蓝,red,k,diamond,color_mix,颜色,,incompatible,1,block_switch1_b,instruction/ready_test.png,instruction/i11.png,,,,,,,,,,,,,,,,,0,0,0,0,0,16,16,16,,,,,,,,,,,,,,,,,,,,,725.6540492999775,725.8372168999922,725.8545227999857,726.1376256999793,726.1376256999793,726.637173199997,726.637173199997,726.637173199997,j,0,1.011113499989733,,,,,,,,,,,,,,,,,,,,,11002,2,2,2024-06-15_18h09.31.766,stroop_task_switching2_b,2022.2.4,59.91730213418072,
,,,黄,green,d,diamond,color_mix,颜色,,incompatible,1,block_switch1_b,instruction/ready_test.png,instruction/i11.png,,,,,,,,,,,,,,,,,0,0,0,0,0,17,17,17,,,,,,,,,,,,,,,,,,,,,727.6711725999776,727.8713584999787,727.8713584999787,728.1714465999976,728.1714465999976,728.6708647999913,728.6708647999913,728.6708647999913,d,1,1.8555085000116378,,,,,,,,,,,,,,,,,,,,,11002,2,2,2024-06-15_18h09.31.766,stroop_task_switching2_b,2022.2.4,59.91730213418072,
,,,绿,green,d,diamond,color_mix,颜色,,compatible,1,block_switch1_b,instruction/ready_test.png,instruction/i11.png,,,,,,,,,,,,,,,,,0,0,0,0,0,18,18,18,,,,,,,,,,,,,,,,,,,,,730.5544331999845,730.7540709000023,730.7540709000023,731.0539838999975,731.0372288999788,731.5373434999783,731.5373434999783,731.5373434999783,d,1,0.6470124999759719,,,,,,,,,,,,,,,,,,,,,11002,2,2,2024-06-15_18h09.31.766,stroop_task_switching2_b,2022.2.4,59.91730213418072,
,,,黄,red,k,diamond,color_mix,颜色,,incompatible,1,block_switch1_b,instruction/ready_test.png,instruction/i11.png,,,,,,,,,,,,,,,,,0,0,0,0,0,19,19,19,,,,,,,,,,,,,,,,,,,,,732.2042380999774,732.3872990999953,732.4037661999755,732.6875838999986,732.6875838999986,733.1870078999782,733.2037997999869,733.2037997999869,k,1,1.3951337999897078,,,,,,,,,,,,,,,,,,,,,11002,2,2,2024-06-15_18h09.31.766,stroop_task_switching2_b,2022.2.4,59.91730213418072,
,,,绿,yellow,d,square,color_mix,单词,,incompatible,2,block_switch1_b,instruction/ready_test.png,instruction/i11.png,,,,,,,,,,,,,,,,,0,0,0,0,0,20,20,20,,,,,,,,,,,,,,,,,,,,,734.6204802999855,734.8201924999885,734.8201924999885,735.1204343999852,735.1204343999852,735.6204081999895,735.6204081999895,735.6204081999895,d,1,0.9381776000082027,,,,,,,,,,,,,,,,,,,,,11002,2,2,2024-06-15_18h09.31.766,stroop_task_switching2_b,2022.2.4,59.91730213418072,
,,,绿,yellow,f,diamond,color_mix,颜色,,incompatible,2,block_switch1_b,instruction/ready_test.png,instruction/i11.png,,,,,,,,,,,,,,,,,0,0,0,0,0,21,21,21,,,,,,,,,,,,,,,,,,,,,736.5875408999855,736.7876453999779,736.7876453999779,737.0874978999782,737.0710121000011,737.570562799985,737.570562799985,737.570562799985,f,1,1.8934158000047319,,,,,,,,,,,,,,,,,,,,,11002,2,2,2024-06-15_18h09.31.766,stroop_task_switching2_b,2022.2.4,59.91730213418072,
,,,绿,green,d,square,color_mix,单词,,compatible,2,block_switch1_b,instruction/ready_test.png,instruction/i11.png,,,,,,,,,,,,,,,,,0,0,0,0,0,22,22,22,,,,,,,,,,,,,,,,,,,,,739.4876370999846,739.670629100001,739.687476799998,739.9706218999927,739.9706218999927,740.470413699979,740.470413699979,740.470413699979,d,1,0.7847581999958493,,,,,,,,,,,,,,,,,,,,,11002,2,2,2024-06-15_18h09.31.766,stroop_task_switching2_b,2022.2.4,59.91730213418072,
,,,红,red,k,square,color_mix,单词,,compatible,1,block_switch1_b,instruction/ready_test.png,instruction/i11.png,,,,,,,,,,,,,,,,,0,0,0,0,0,23,23,23,,,,,,,,,,,,,,,,,,,,,741.2877726999868,741.4709216999763,741.4870299999893,741.7710270999814,741.7871582999942,742.2875813999854,742.2875813999854,742.2875813999854,k,1,0.649067999998806,,,,,,,,,,,,,,,,,,,,,11002,2,2,2024-06-15_18h09.31.766,stroop_task_switching2_b,2022.2.4,59.91730213418072,
,,,黄,green,f,square,color_mix,单词,,incompatible,1,block_switch1_b,instruction/ready_test.png,instruction/i11.png,,,,,,,,,,,,,,,,,0,0,0,0,0,24,24,24,,,,,,,,,,,,,,,,,,,,,742.9541793999961,743.1540636999998,743.1540636999998,743.4537423999864,743.4537423999864,743.9540510999796,743.9540510999796,743.9540510999796,f,1,2.350486400013324,,,,,,,,,,,,,,,,,,,,,11002,2,2,2024-06-15_18h09.31.766,stroop_task_switching2_b,2022.2.4,59.91730213418072,
,,,红,blue,k,square,color_mix,单词,,incompatible,1,block_switch1_b,instruction/ready_test.png,instruction/i11.png,,,,,,,,,,,,,,,,,0,0,0,0,0,25,25,25,,,,,,,,,,,,,,,,,,,,,746.3369122000004,746.5371905999782,746.5371905999782,746.8372837999777,746.8372837999777,747.3375637999852,747.3375637999852,747.3375637999852,k,1,0.9571708000148647,,,,,,,,,,,,,,,,,,,,,11002,2,2,2024-06-15_18h09.31.766,stroop_task_switching2_b,2022.2.4,59.91730213418072,
,,,黄,yellow,f,square,color_mix,单词,,compatible,1,block_switch1_b,instruction/ready_test.png,instruction/i11.png,,,,,,,,,,,,,,,,,0,0,0,0,0,26,26,26,,,,,,,,,,,,,,,,,,,,,748.321131899982,748.5041446999821,748.5210734999855,748.8042053999961,748.8042053999961,749.3041869000008,749.3041869000008,749.3041869000008,f,1,1.0959537000162527,,,,,,,,,,,,,,,,,,,,,11002,2,2,2024-06-15_18h09.31.766,stroop_task_switching2_b,2022.2.4,59.91730213418072,
,,,蓝,green,j,square,color_mix,单词,,incompatible,1,block_switch1_b,instruction/ready_test.png,instruction/i11.png,,,,,,,,,,,,,,,,,0,0,0,0,0,27,27,27,,,,,,,,,,,,,,,,,,,,,750.4207975000027,750.6040869999852,750.6204905999766,750.9035930999962,750.9035930999962,751.4039086999837,751.4039086999837,751.4039086999837,j,1,0.9488643999793567,,,,,,,,,,,,,,,,,,,,,11002,2,2,2024-06-15_18h09.31.766,stroop_task_switching2_b,2022.2.4,59.91730213418072,
,,,绿,green,d,diamond,color_mix,颜色,,compatible,2,block_switch1_b,instruction/ready_test.png,instruction/i11.png,,,,,,,,,,,,,,,,,0,0,0,0,0,28,28,28,,,,,,,,,,,,,,,,,,,,,752.3712376999902,752.5542071999807,752.5706801999768,752.8542481999903,752.8706448999874,753.3704334999784,753.3704334999784,753.3704334999784,d,1,0.636389399995096,,,,,,,,,,,,,,,,,,,,,11002,2,2,2024-06-15_18h09.31.766,stroop_task_switching2_b,2022.2.4,59.91730213418072,
,,,黄,blue,j,diamond,color_mix,颜色,,incompatible,1,block_switch1_b,instruction/ready_test.png,instruction/i11.png,,,,,,,,,,,,,,,,,0,0,0,0,0,29,29,29,,,,,,,,,,,,,,,,,,,,,754.0374343000003,754.2372922999784,754.2372922999784,754.5371425999911,754.5371425999911,755.0370220999757,755.0370220999757,755.0370220999757,j,1,1.6822059999976773,,,,,,,,,,,,,,,,,,,,,11002,2,2,2024-06-15_18h09.31.766,stroop_task_switching2_b,2022.2.4,59.91730213418072,
,,,绿,green,d,diamond,color_mix,颜色,,compatible,1,block_switch1_b,instruction/ready_test.png,instruction/i11.png,,,,,,,,,,,,,,,,,0,0,0,0,0,30,30,30,,,,,,,,,,,,,,,,,,,,,756.7375181999814,756.9372277999937,756.9372277999937,757.2370653999969,757.2370653999969,757.7369609999878,757.7369609999878,757.7369609999878,d,1,0.9577851000067312,,,,,,,,,,,,,,,,,,,,,11002,2,2,2024-06-15_18h09.31.766,stroop_task_switching2_b,2022.2.4,59.91730213418072,
,,,蓝,blue,j,square,color_mix,单词,,compatible,2,block_switch1_b,instruction/ready_test.png,instruction/i11.png,,,,,,,,,,,,,,,,,0,0,0,0,0,31,31,31,,,,,,,,,,,,,,,,,,,,,758.7201698999852,758.9209551999811,758.9209551999811,759.2208866000001,759.2208866000001,759.7209015999979,759.7209015999979,759.7209015999979,j,1,0.9903204000147525,,,,,,,,,,,,,,,,,,,,,11002,2,2,2024-06-15_18h09.31.766,stroop_task_switching2_b,2022.2.4,59.91730213418072,
,,,红,red,k,square,color_mix,单词,,compatible,1,block_switch1_b,instruction/ready_test.png,instruction/i11.png,,,,,,,,,,,,,,,,,0,0,0,0,0,32,32,32,,,,,,,,,,,,,,,,,,,,,760.7371482999879,760.9371618999867,760.9371618999867,761.2366985999979,761.2202861999976,761.7205214999849,761.7205214999849,761.7205214999849,k,1,0.6321324000018649,,,,,,,,,,,,,,,,,,,,,11002,2,2,2024-06-15_18h09.31.766,stroop_task_switching2_b,2022.2.4,59.91730213418072,
,,,红,green,k,square,color_mix,单词,,incompatible,1,block_switch1_b,instruction/ready_test.png,instruction/i11.png,,,,,,,,,,,,,,,,,0,0,0,0,0,33,33,33,,,,,,,,,,,,,,,,,,,,,762.370210699999,762.5536079999874,762.570699599979,762.8539722999849,762.8709830000007,763.3702994999767,763.3702994999767,763.3702994999767,k,1,1.5663734000117984,,,,,,,,,,,,,,,,,,,,,11002,2,2,2024-06-15_18h09.31.766,stroop_task_switching2_b,2022.2.4,59.91730213418072,
,,,黄,yellow,f,diamond,color_mix,颜色,,compatible,2,block_switch1_b,instruction/ready_test.png,instruction/i11.png,,,,,,,,,,,,,,,,,0,0,0,0,0,34,34,34,,,,,,,,,,,,,,,,,,,,,764.953907499992,765.1534311999858,765.1534311999858,765.4543234999874,765.4543234999874,765.9540768000006,765.9540768000006,765.9540768000006,f,1,1.9006844999967143,,,,,,,,,,,,,,,,,,,,,11002,2,2,2024-06-15_18h09.31.766,stroop_task_switching2_b,2022.2.4,59.91730213418072,
,,,红,green,d,diamond,color_mix,颜色,,incompatible,1,block_switch1_b,instruction/ready_test.png,instruction/i11.png,,,,,,,,,,,,,,,,,0,0,0,0,0,35,35,35,,,,,,,,,,,,,,,,,,,,,767.8869408999744,768.0706770999823,768.0869902999839,768.3703386999841,768.3703386999841,768.8705541999952,768.8705541999952,768.8705541999952,d,1,2.241060700005619,,,,,,,,,,,,,,,,,,,,,11002,2,2,2024-06-15_18h09.31.766,stroop_task_switching2_b,2022.2.4,59.91730213418072,
,,,黄,yellow,f,square,color_mix,单词,,compatible,2,block_switch1_b,instruction/ready_test.png,instruction/i11.png,,,,,,,,,,,,,,,,,0,0,0,0,0,36,36,36,,,,,,,,,,,,,,,,,,,,,771.1374625999888,771.3375672999828,771.3375672999828,771.6371082999976,771.6208571000025,772.120837399998,772.120837399998,772.120837399998,f,1,2.2380278000200633,,,,,,,,,,,,,,,,,,,,,11002,2,2,2024-06-15_18h09.31.766,stroop_task_switching2_b,2022.2.4,59.91730213418072,
,,,蓝,blue,j,square,color_mix,单词,,compatible,1,block_switch1_b,instruction/ready_test.png,instruction/i11.png,,,,,,,,,,,,,,,,,0,0,0,0,0,37,37,37,,,,,,,,,,,,,,,,,,,,,774.3869654999871,774.5870468999783,774.5870468999783,774.8867430999817,774.8867430999817,775.3868012999883,775.3868012999883,775.3868012999883,j,1,0.7802296000008937,,,,,,,,,,,,,,,,,,,,,11002,2,2,2024-06-15_18h09.31.766,stroop_task_switching2_b,2022.2.4,59.91730213418072,
,,,绿,red,k,diamond,color_mix,颜色,,incompatible,2,block_switch1_b,instruction/ready_test.png,instruction/i11.png,,,,,,,,,,,,,,,,,0,0,0,0,0,38,38,38,,,,,,,,,,,,,,,,,,,,,776.1865723999799,776.3869707999984,776.3869707999984,776.686840099981,776.686840099981,777.1867237999977,777.1867237999977,777.1867237999977,k,1,1.3564757000131067,,,,,,,,,,,,,,,,,,,,,11002,2,2,2024-06-15_18h09.31.766,stroop_task_switching2_b,2022.2.4,59.91730213418072,
,,,黄,yellow,f,diamond,color_mix,颜色,,compatible,1,block_switch1_b,instruction/ready_test.png,instruction/i11.png,,,,,,,,,,,,,,,,,0,0,0,0,0,39,39,39,,,,,,,,,,,,,,,,,,,,,778.5703307999938,778.7702978999878,778.7702978999878,779.0709449999849,779.0709449999849,779.5703158999968,779.5703158999968,779.5703158999968,f,1,0.8125603999942541,,,,,,,,,,,,,,,,,,,,,11002,2,2,2024-06-15_18h09.31.766,stroop_task_switching2_b,2022.2.4,59.91730213418072,
,,,红,blue,j,diamond,color_mix,颜色,,incompatible,1,block_switch1_b,instruction/ready_test.png,instruction/i11.png,,,,,,,,,,,,,,,,,0,0,0,0,0,40,40,40,,,,,,,,,,,,,,,,,,,,,780.4033490000002,780.6035204999789,780.6035204999789,780.9041176000028,780.8868438999925,781.3872751999879,781.3872751999879,781.3872751999879,j,1,1.1957956999831367,,,,,,,,,,,,,,,,,,,,,11002,2,2,2024-06-15_18h09.31.766,stroop_task_switching2_b,2022.2.4,59.91730213418072,
,,,绿,blue,d,square,color_mix,单词,,incompatible,2,block_switch1_b,instruction/ready_test.png,instruction/i11.png,,,,,,,,,,,,,,,,,0,0,0,0,0,41,41,41,,,,,,,,,,,,,,,,,,,,,782.6038062000007,782.8036150999833,782.8036150999833,783.1032847999886,783.0875649999944,783.5870571999985,783.5870571999985,783.5870571999985,d,1,1.6915716999792494,,,,,,,,,,,,,,,,,,,,,11002,2,2,2024-06-15_18h09.31.766,stroop_task_switching2_b,2022.2.4,59.91730213418072,
,,,蓝,blue,j,diamond,color_mix,颜色,,compatible,2,block_switch1_b,instruction/ready_test.png,instruction/i11.png,,,,,,,,,,,,,,,,,0,0,0,0,0,42,42,42,,,,,,,,,,,,,,,,,,,,,785.303542699985,785.503244099993,785.503244099993,785.8039957000001,785.8039957000001,786.3029008999874,786.3029008999874,786.3029008999874,j,1,0.8162126000097487,,,,,,,,,,,,,,,,,,,,,11002,2,2,2024-06-15_18h09.31.766,stroop_task_switching2_b,2022.2.4,59.91730213418072,
,,,红,blue,k,square,color_mix,单词,,incompatible,2,block_switch1_b,instruction/ready_test.png,instruction/i11.png,,,,,,,,,,,,,,,,,0,0,0,0,0,43,43,43,,,,,,,,,,,,,,,,,,,,,787.1371719999879,787.3372581999865,787.3372581999865,787.6370486999804,787.6370486999804,788.1367819999869,788.1367819999869,788.1367819999869,d,0,1.26345999998739,,,,,,,,,,,,,,,,,,,,,11002,2,2,2024-06-15_18h09.31.766,stroop_task_switching2_b,2022.2.4,59.91730213418072,
,,,蓝,green,d,diamond,color_mix,颜色,,incompatible,2,block_switch1_b,instruction/ready_test.png,instruction/i11.png,,,,,,,,,,,,,,,,,0,0,0,0,0,44,44,44,,,,,,,,,,,,,,,,,,,,,789.4199034999765,789.6204165999952,789.6204165999952,789.9200376999797,789.903518999985,790.4038986999949,790.4203449999914,790.4203449999914,d,1,1.7231317999830935,,,,,,,,,,,,,,,,,,,,,11002,2,2,2024-06-15_18h09.31.766,stroop_task_switching2_b,2022.2.4,59.91730213418072,
,,,黄,yellow,f,square,color_mix,单词,,compatible,2,block_switch1_b,instruction/ready_test.png,instruction/i11.png,,,,,,,,,,,,,,,,,0,0,0,0,0,45,45,45,,,,,,,,,,,,,,,,,,,,,792.1704422999755,792.3704138999747,792.3704138999747,792.6701173999754,792.6536627000023,793.153823599976,793.153823599976,793.153823599976,f,1,1.0448022999917157,,,,,,,,,,,,,,,,,,,,,11002,2,2,2024-06-15_18h09.31.766,stroop_task_switching2_b,2022.2.4,59.91730213418072,
,,,黄,yellow,f,diamond,color_mix,颜色,,compatible,2,block_switch1_b,instruction/ready_test.png,instruction/i11.png,,,,,,,,,,,,,,,,,0,0,0,0,0,46,46,46,,,,,,,,,,,,,,,,,,,,,794.2200651999738,794.403934699978,794.4203395999793,794.7038627000002,794.7038627000002,795.203356699989,795.2203644999827,795.2203644999827,f,1,1.46658129998832,,,,,,,,,,,,,,,,,,,,,11002,2,2,2024-06-15_18h09.31.766,stroop_task_switching2_b,2022.2.4,59.91730213418072,
,,,绿,red,d,square,color_mix,单词,,incompatible,2,block_switch1_b,instruction/ready_test.png,instruction/i11.png,,,,,,,,,,,,,,,,,0,0,0,0,0,47,47,47,,,,,,,,,,,,,,,,,,,,,796.7030705999932,796.9041230999865,796.9041230999865,797.2031797999807,797.2031797999807,797.7035349999787,797.7035349999787,797.7035349999787,d,1,1.5676181000017095,,,,,,,,,,,,,,,,,,,,,11002,2,2,2024-06-15_18h09.31.766,stroop_task_switching2_b,2022.2.4,59.91730213418072,
,,,红,red,k,diamond,color_mix,颜色,,compatible,2,block_switch1_b,instruction/ready_test.png,instruction/i11.png,,,,,,,,,,,,,,,,,0,0,0,0,0,48,48,48,,,,,,,,,,,,,,,,,,,,,799.3031948999851,799.5032150999759,799.5032150999759,799.8036609999835,799.8036609999835,800.3033944999916,800.3033944999916,800.3033944999916,f,0,1.6159269000054337,,,,,,,,,,,,,,,,,,,,,11002,2,2,2024-06-15_18h09.31.766,stroop_task_switching2_b,2022.2.4,59.91730213418072,
,,,蓝,blue,j,diamond,color_mix,颜色,,compatible,1,block_switch1_b,instruction/ready_test.png,instruction/i11.png,,,,,,,,,,,,,,,,,0,0,0,0,0,49,49,49,,,,,,,,,,,,,,,,,,,,,801.9365377999784,802.1199512000021,802.1370559999777,802.4197921000014,802.4197921000014,802.9197388999746,802.9367199999979,802.9367199999979,j,1,2.5819934000028297,,,,,,,,,,,,,,,,,,,,,11002,2,2,2024-06-15_18h09.31.766,stroop_task_switching2_b,2022.2.4,59.91730213418072,
,,,黄,yellow,f,diamond,color_mix,颜色,,compatible,1,block_switch1_b,instruction/ready_test.png,instruction/i11.png,,,,,,,,,,,,,,,,,0,0,0,0,0,50,50,50,,,,,,,,,,,,,,,,,,,,,805.536930000002,805.7201353999844,805.7372828999942,806.0205516999995,806.0205516999995,806.5196759999963,806.5372800999903,806.5372800999903,f,1,1.869331499998225,,,,,,,,,,,,,,,,,,,,,11002,2,2,2024-06-15_18h09.31.766,stroop_task_switching2_b,2022.2.4,59.91730213418072,
,,,红,blue,j,diamond,color_mix,颜色,,incompatible,1,block_switch1_b,instruction/ready_test.png,instruction/i11.png,,,,,,,,,,,,,,,,,0,0,0,0,0,51,51,51,,,,,,,,,,,,,,,,,,,,,808.4365282999934,808.6368236999842,808.6368236999842,808.9371316999895,808.9371316999895,809.4369270000025,809.4369270000025,809.4369270000025,j,1,2.098087199992733,,,,,,,,,,,,,,,,,,,,,11002,2,2,2024-06-15_18h09.31.766,stroop_task_switching2_b,2022.2.4,59.91730213418072,
,,,蓝,yellow,f,diamond,color_mix,颜色,,incompatible,1,block_switch1_b,instruction/ready_test.png,instruction/i11.png,,,,,,,,,,,,,,,,,0,0,0,0,0,52,52,52,,,,,,,,,,,,,,,,,,,,,811.5535098999972,811.7367740999907,811.7536096999829,812.0371313999931,812.0371313999931,812.5365420999879,812.5365420999879,812.5365420999879,f,1,1.5102631000045221,,,,,,,,,,,,,,,,,,,,,11002,2,2,2024-06-15_18h09.31.766,stroop_task_switching2_b,2022.2.4,59.91730213418072,
