b_pra,ins_blocks,ins_blocks2,stim_word,stim_color,corrAns,cue_type,trial_type,task_type,rand,compatibility,switch,b_test,w_pic,w_pic2,trials_instr.thisRepN,trials_instr.thisTrialN,trials_instr.thisN,trials_instr.thisIndex,block_pra.thisRepN,block_pra.thisTrialN,block_pra.thisN,block_pra.thisIndex,trials_rep.thisRepN,trials_rep.thisTrialN,trials_rep.thisN,trials_rep.thisIndex,trials_pra.thisRepN,trials_pra.thisTrialN,trials_pra.thisN,trials_pra.thisIndex,trials_3.thisRepN,trials_3.thisTrialN,trials_3.thisN,trials_3.thisIndex,trials_2.thisRepN,trials_2.thisTrialN,trials_2.thisN,trials_2.thisIndex,instr_image.started,instr_image.stopped,instr_key_resp.keys,instr_key_resp.rt,instr_key_resp.started,instr_key_resp.stopped,instr_pra_image.started,instr_pra_image.stopped,ip_key_resp.keys,ip_key_resp.rt,ip_key_resp.started,ip_key_resp.stopped,block_image.started,block_image.stopped,ib_key_resp.keys,ib_key_resp.rt,ib_key_resp.started,ib_key_resp.stopped,cd3.started,cd3.stopped,cd2.started,cd2.stopped,cd1.started,cd1.stopped,cd_text.started,cd_text.stopped,text_fix.started,text_fix.stopped,text_2.started,text_2.stopped,text_4.started,text_4.stopped,text_target.started,text_target.stopped,key_resp.keys,key_resp.corr,key_resp.rt,key_resp.started,key_resp.stopped,sceen_black.started,sceen_black.stopped,text_fb.started,text_fb.stopped,text.started,text.stopped,key_bf.keys,key_bf.rt,key_bf.started,key_bf.stopped,instr_test_image.started,instr_test_image.stopped,instr_exp_key_resp.keys,instr_exp_key_resp.rt,instr_exp_key_resp.started,instr_exp_key_resp.stopped,text_rest.started,text_rest.stopped,key_resp_rest.keys,key_resp_rest.rt,key_resp_rest.started,key_resp_rest.stopped,text_3.started,text_3.stopped,participant,session,balance,date,expName,psychopyVersion,frameRate,
,,,,,,,,,,,,,,,0,0,0,0,,,,,,,,,,,,,,,,,,,,,9.421329499979038,None,right,6.5124776999873575,9.421329499979038,None,,,,,,,,,,,,,,,,,,,,,,,,,,,,,,,,,,,,,,,,,,,,,,,,,,,,,,,,,,11005,1,1,2024_May_31_1700,stroop_task_switching2,2021.2.3,60.078715130448636,
,,,,,,,,,,,,,,,1,0,1,0,,,,,,,,,,,,,,,,,,,,,15.997723699983908,None,right,32.90500980001525,15.997723699983908,None,,,,,,,,,,,,,,,,,,,,,,,,,,,,,,,,,,,,,,,,,,,,,,,,,,,,,,,,,,11005,1,1,2024_May_31_1700,stroop_task_switching2,2021.2.3,60.078715130448636,
,,,,,,,,,,,,,,,2,0,2,0,,,,,,,,,,,,,,,,,,,,,48.94734949999838,None,right,5.627270900004078,48.94734949999838,None,,,,,,,,,,,,,,,,,,,,,,,,,,,,,,,,,,,,,,,,,,,,,,,,,,,,,,,,,,11005,1,1,2024_May_31_1700,stroop_task_switching2,2021.2.3,60.078715130448636,
,,,,,,,,,,,,,,,3,0,3,0,,,,,,,,,,,,,,,,,,,,,54.62253249998321,None,right,6.056666899996344,54.62253249998321,None,,,,,,,,,,,,,,,,,,,,,,,,,,,,,,,,,,,,,,,,,,,,,,,,,,,,,,,,,,11005,1,1,2024_May_31_1700,stroop_task_switching2,2021.2.3,60.078715130448636,
,,,,,,,,,,,,,,,4,0,4,0,,,,,,,,,,,,,,,,,,,,,60.71497659999295,None,right,9.572546099981992,60.71497659999295,None,,,,,,,,,,,,,,,,,,,,,,,,,,,,,,,,,,,,,,,,,,,,,,,,,,,,,,,,,,11005,1,1,2024_May_31_1700,stroop_task_switching2,2021.2.3,60.078715130448636,
,,,,,,,,,,,,,,,5,0,5,0,,,,,,,,,,,,,,,,,,,,,70.32952129998012,None,right,0.6536606000154279,70.32952129998012,None,,,,,,,,,,,,,,,,,,,,,,,,,,,,,,,,,,,,,,,,,,,,,,,,,,,,,,,,,,11005,1,1,2024_May_31_1700,stroop_task_switching2,2021.2.3,60.078715130448636,
,,,,,,,,,,,,,,,,,,,,,,,,,,,,,,,,,,,,,,,,,,,,,71.03090569999767,None,space,3.168427100026747,71.03090569999767,None,,,,,,,,,,,,,,,,,,,,,,,,,,,,,,,,,,,,,,,,,,,,,,,,,,,,11005,1,1,2024_May_31_1700,stroop_task_switching2,2021.2.3,60.078715130448636,
condition/block_color,instruction/instr_color,instruction/i8,XX,red,d,diamond,color_single,颜色,,,,,,,,,,,0,0,0,0,0,0,0,0,0,0,0,0,,,,,,,,,,,,,,,,,,,,,74.23539419998997,None,space,5.588570499996422,74.23539419998997,None,80.87998430000152,81.88037389999954,81.88037389999954,82.8816722999909,82.8816722999909,None,79.91105130000506,80.91269060000195,83.86684329999844,84.06898199999705,84.05029569999897,84.3522043999983,84.3522043999983,None,84.85158079999383,None,d,1,0.5001893999869935,84.85158079999383,None,None,None,85.36887279999792,None,,,,,,,,,,,,,,,,,,,,,11005,1,1,2024_May_31_1700,stroop_task_switching2,2021.2.3,60.078715130448636,
condition/block_color,instruction/instr_color,instruction/i8,XX,green,k,diamond,color_single,颜色,,,,,,,,,,,0,0,0,0,0,0,0,0,0,1,1,1,,,,,,,,,,,,,,,,,,,,,,,,,,,,,,,,,,,86.37072619999526,86.57133889998659,86.55574109998997,86.85636360000353,86.85636360000353,None,87.35546059999615,None,j,0,0.7406058000051416,87.35546059999615,None,None,None,88.12298630000441,None,,,,,,,,,,,,,,,,,,,,,11005,1,1,2024_May_31_1700,stroop_task_switching2,2021.2.3,60.078715130448636,
condition/block_color,instruction/instr_color,instruction/i8,XX,yellow,j,diamond,color_single,颜色,,,,,,,,,,,0,0,0,0,0,0,0,0,0,2,2,2,,,,,,,,,,,,,,,,,,,,,,,,,,,,,,,,,,,89.12501489999704,89.32577799999854,89.30874589999439,89.60926119997748,89.60926119997748,None,90.10944289999316,None,j,1,0.6901971000188496,90.10944289999316,None,None,None,90.82703449999099,None,,,,,,,,,,,,,,,,,,,,,11005,1,1,2024_May_31_1700,stroop_task_switching2,2021.2.3,60.078715130448636,
condition/block_color,instruction/instr_color,instruction/i8,XX,blue,f,diamond,color_single,颜色,,,,,,,,,,,0,0,0,0,0,0,0,0,0,3,3,3,,,,,,,,,,,,,,,,,,,,,,,,,,,,,,,,,,,91.82927149999887,92.02901549998205,92.01295599999139,92.31285960000241,92.31285960000241,None,92.81344779999927,None,f,1,0.55427300001611,92.81344779999927,None,None,None,93.39837769998121,None,,,,,,,,,,,,,,,,,,,,,11005,1,1,2024_May_31_1700,stroop_task_switching2,2021.2.3,60.078715130448636,
condition/block_color,instruction/instr_color,instruction/i8,XX,green,k,diamond,color_single,颜色,,,,,,,,,,,0,0,0,0,0,0,0,0,0,4,4,4,,,,,,,,,,,,,,,,,,,,,,,,,,,,,,,,,,,94.40000309998868,94.63293479999993,94.63293479999993,94.9333212999918,94.8837164999859,None,95.38432339997962,None,k,1,0.7434622999862768,95.38432339997962,None,None,None,96.15251240000362,None,,,,,,,,,,,,,,,,,,,,,11005,1,1,2024_May_31_1700,stroop_task_switching2,2021.2.3,60.078715130448636,
condition/block_color,instruction/instr_color,instruction/i8,XX,yellow,j,diamond,color_single,颜色,,,,,,,,,,,0,0,0,0,0,0,0,0,0,5,5,5,,,,,,,,,,,,,,,,,,,,,,,,,,,,,,,,,,,97.15337569999974,97.35374429999501,97.33876660000533,97.65426069998648,97.63745549999294,None,98.13818320000428,None,j,1,0.7660144000255968,98.13818320000428,None,None,None,98.92272159998538,None,,,,,,,,,,,,,,,,,,,,,11005,1,1,2024_May_31_1700,stroop_task_switching2,2021.2.3,60.078715130448636,
condition/block_color,instruction/instr_color,instruction/i8,XX,blue,f,diamond,color_single,颜色,,,,,,,,,,,0,0,0,0,0,0,0,0,0,6,6,6,,,,,,,,,,,,,,,,,,,,,,,,,,,,,,,,,,,99.92530299999635,100.1262850999774,100.10798760000034,100.40830079998705,100.40830079998705,None,100.90966360000311,None,f,1,0.5783695999998599,100.90966360000311,None,None,None,101.50993219998782,None,,,,,,,,,,,,,,,,,,,,,11005,1,1,2024_May_31_1700,stroop_task_switching2,2021.2.3,60.078715130448636,
condition/block_color,instruction/instr_color,instruction/i8,XX,red,d,diamond,color_single,颜色,,,,,,,,,,,0,0,0,0,0,0,0,0,0,7,7,7,,,,,,,,,,,,,,,,,,,,,,,,,,,,,,,,,,,102.51140809999197,102.71164919997682,102.69531329997699,102.99615890000132,102.99615890000132,None,103.49612889997661,None,d,1,0.31203370000002906,103.49612889997661,None,None,None,103.83008429998881,None,,,,,,,,,,,,,,,,,,,,,11005,1,1,2024_May_31_1700,stroop_task_switching2,2021.2.3,60.078715130448636,
condition/block_color,instruction/instr_color,instruction/i8,XX,yellow,j,diamond,color_single,颜色,,,,,,,,,,,0,0,0,0,0,0,0,0,0,8,8,8,,,,,,,,,,,,,,,,,,,,,,,,,,,,,,,,,,,104.8315851999796,105.03209849999985,105.01607149999472,105.31711569998879,105.31711569998879,None,105.81636789999902,None,j,1,0.8076898999861442,105.81636789999902,None,None,None,106.65131600000313,None,,,,,,,,,,,,,,,,,,,,,11005,1,1,2024_May_31_1700,stroop_task_switching2,2021.2.3,60.078715130448636,
condition/block_color,instruction/instr_color,instruction/i8,XX,blue,f,diamond,color_single,颜色,,,,,,,,,,,0,0,0,0,0,0,0,0,0,9,9,9,,,,,,,,,,,,,,,,,,,,,,,,,,,,,,,,,,,107.65331269998569,107.85424409998814,107.83648040000116,108.13663989998167,108.13663989998167,None,108.63738459997694,None,f,1,0.5708442000031937,108.63738459997694,None,None,None,109.23825239998405,None,,,,,,,,,,,,,,,,,,,,,11005,1,1,2024_May_31_1700,stroop_task_switching2,2021.2.3,60.078715130448636,
condition/block_color,instruction/instr_color,instruction/i8,XX,red,d,diamond,color_single,颜色,,,,,,,,,,,0,0,0,0,0,0,0,0,0,10,10,10,,,,,,,,,,,,,,,,,,,,,,,,,,,,,,,,,,,110.23981050000293,110.44040199997835,110.4243465999898,110.72505690000253,110.72505690000253,None,111.22456619999139,None,d,1,0.45631540002068505,111.22456619999139,None,None,None,111.70843420000165,None,,,,,,,,,,,,,,,,,,,,,11005,1,1,2024_May_31_1700,stroop_task_switching2,2021.2.3,60.078715130448636,
condition/block_color,instruction/instr_color,instruction/i8,XX,green,k,diamond,color_single,颜色,,,,,,,,,,,0,0,0,0,0,0,0,0,0,11,11,11,,,,,,,,,,,,,,,,,,,,,,,,,,,,,,,,,,,112.7101030999911,112.91117289999966,112.89364209998166,113.19428679998964,113.19428679998964,None,113.69567119999556,None,k,1,0.7125161000003573,113.69567119999556,None,None,None,114.4294610999932,None,,,,,,,,,,,,,,,,,,,,,11005,1,1,2024_May_31_1700,stroop_task_switching2,2021.2.3,60.078715130448636,
condition/block_color,instruction/instr_color,instruction/i8,XX,blue,f,diamond,color_single,颜色,,,,,,,,,,,0,0,0,0,0,0,0,0,0,12,12,12,,,,,,,,,,,,,,,,,,,,,,,,,,,,,,,,,,,115.43119259999366,115.63253919998533,115.61462670000037,115.91473769998993,115.91473769998993,None,116.41575139999622,None,f,1,0.6328080999956001,116.41575139999622,None,None,None,117.0668386000034,None,,,,,,,,,,,,,,,,,,,,,11005,1,1,2024_May_31_1700,stroop_task_switching2,2021.2.3,60.078715130448636,
condition/block_color,instruction/instr_color,instruction/i8,XX,red,d,diamond,color_single,颜色,,,,,,,,,,,0,0,0,0,0,0,0,0,0,13,13,13,,,,,,,,,,,,,,,,,,,,,,,,,,,,,,,,,,,118.06947349998518,118.26944109998294,118.2532239999855,118.5524327000021,118.5524327000021,None,119.05403469997691,None,d,1,0.522944699972868,119.05403469997691,None,None,None,119.60366739999154,None,,,,,,,,,,,,,,,,,,,,,11005,1,1,2024_May_31_1700,stroop_task_switching2,2021.2.3,60.078715130448636,
condition/block_color,instruction/instr_color,instruction/i8,XX,green,k,diamond,color_single,颜色,,,,,,,,,,,0,0,0,0,0,0,0,0,0,14,14,14,,,,,,,,,,,,,,,,,,,,,,,,,,,,,,,,,,,120.60560409998288,120.8062941999815,120.78942459999234,121.08992379999836,121.08992379999836,None,121.5900999000005,None,k,1,0.6264887999859639,121.5900999000005,None,None,None,122.2411318999948,None,,,,,,,,,,,,,,,,,,,,,11005,1,1,2024_May_31_1700,stroop_task_switching2,2021.2.3,60.078715130448636,
condition/block_color,instruction/instr_color,instruction/i8,XX,yellow,j,diamond,color_single,颜色,,,,,,,,,,,0,0,0,0,0,0,0,0,0,15,15,15,,,,,,,,,,,,,,,,,,,,,,,,,,,,,,,,,,,123.24249219999183,123.44498139998177,123.4260735999851,123.72684619997744,123.72684619997744,None,124.22874500000034,None,j,1,0.5078795000154059,124.22874500000034,None,None,None,124.76163229998201,None,,,,,,,,,,,,,,,,,,,,,11005,1,1,2024_May_31_1700,stroop_task_switching2,2021.2.3,60.078715130448636,
condition/block_color,instruction/instr_color,instruction/i8,XX,red,d,diamond,color_single,颜色,,,,,,,,,,,0,0,0,0,0,0,0,0,0,16,16,16,,,,,,,,,,,,,,,,,,,,,,,,,,,,,,,,,,,125.76364789999207,125.96424559998559,125.94670319999568,126.24832250000327,126.24832250000327,None,126.74800179997692,None,d,1,0.5247644999762997,126.74800179997692,None,None,None,127.29865680000512,None,,,,,,,,,,,,,,,,,,,,,11005,1,1,2024_May_31_1700,stroop_task_switching2,2021.2.3,60.078715130448636,
condition/block_color,instruction/instr_color,instruction/i8,XX,green,k,diamond,color_single,颜色,,,,,,,,,,,0,0,0,0,0,0,0,0,0,17,17,17,,,,,,,,,,,,,,,,,,,,,,,,,,,,,,,,,,,128.30125570000382,128.50185929998406,128.48396339997998,128.78512799998862,128.78512799998862,None,129.28551049999078,None,k,1,0.7313637000042945,129.28551049999078,None,None,None,130.03621739998925,None,,,,,,,,,,,,,,,,,,,,,11005,1,1,2024_May_31_1700,stroop_task_switching2,2021.2.3,60.078715130448636,
condition/block_color,instruction/instr_color,instruction/i8,XX,yellow,j,diamond,color_single,颜色,,,,,,,,,,,0,0,0,0,0,0,0,0,0,18,18,18,,,,,,,,,,,,,,,,,,,,,,,,,,,,,,,,,,,131.03826099997968,131.23947259999113,131.22148169999127,131.52340839998215,131.52340839998215,None,132.02264869998908,None,j,1,0.450812200026121,132.02264869998908,None,None,None,132.48985139999422,None,,,,,,,,,,,,,,,,,,,,,11005,1,1,2024_May_31_1700,stroop_task_switching2,2021.2.3,60.078715130448636,
condition/block_color,instruction/instr_color,instruction/i8,XX,blue,f,diamond,color_single,颜色,,,,,,,,,,,0,0,0,0,0,0,0,0,0,19,19,19,,,,,,,,,,,,,,,,,,,,,,,,,,,,,,,,,,,133.49167509999825,133.69220999997924,133.6760207999905,133.97628319999785,133.97628319999785,None,134.47646000000532,None,f,1,0.5324857999803498,134.47646000000532,None,None,None,135.02725169999758,None,,,,,,,,,,,,,,,,,,,,,11005,1,1,2024_May_31_1700,stroop_task_switching2,2021.2.3,60.078715130448636,
condition/block_color,instruction/instr_color,instruction/i8,XX,green,k,diamond,color_single,颜色,,,,,,,,,,,0,0,0,0,0,0,0,0,0,20,20,20,,,,,,,,,,,,,,,,,,,,,,,,,,,,,,,,,,,136.02908039998147,136.22898929999792,136.212793099985,136.51426139997784,136.51426139997784,None,137.01345470000524,None,k,1,0.8193674999929499,137.01345470000524,None,None,None,137.86481790000107,None,,,,,,,,,,,,,,,,,,,,,11005,1,1,2024_May_31_1700,stroop_task_switching2,2021.2.3,60.078715130448636,
condition/block_color,instruction/instr_color,instruction/i8,XX,yellow,j,diamond,color_single,颜色,,,,,,,,,,,0,0,0,0,0,0,0,0,0,21,21,21,,,,,,,,,,,,,,,,,,,,,,,,,,,,,,,,,,,138.866214699985,139.0667270999984,139.05145979998633,139.35096229999908,139.35096229999908,None,139.85160969998105,None,j,1,0.3980191000155173,139.85160969998105,None,None,None,140.26850659999764,None,,,,,,,,,,,,,,,,,,,,,11005,1,1,2024_May_31_1700,stroop_task_switching2,2021.2.3,60.078715130448636,
condition/block_color,instruction/instr_color,instruction/i8,XX,blue,f,diamond,color_single,颜色,,,,,,,,,,,0,0,0,0,0,0,0,0,0,22,22,22,,,,,,,,,,,,,,,,,,,,,,,,,,,,,,,,,,,141.26998109999113,141.470848500001,141.45353759999853,141.75647729999037,141.75647729999037,None,142.27181019997806,None,f,1,0.5056786000204738,142.27181019997806,None,None,None,142.80556569999317,None,,,,,,,,,,,,,,,,,,,,,11005,1,1,2024_May_31_1700,stroop_task_switching2,2021.2.3,60.078715130448636,
condition/block_color,instruction/instr_color,instruction/i8,XX,red,d,diamond,color_single,颜色,,,,,,,,,,,0,0,0,0,0,0,0,0,0,23,23,23,,,,,,,,,,,,,,,,,,,,,,,,,,,,,,,,,,,143.80705790000502,144.00816070000292,143.99168649999774,144.29242630000226,144.29242630000226,None,144.79183879998163,None,d,1,0.5054814000031911,144.79183879998163,None,None,None,145.3260878000001,None,,,,,,,,,,,,,,,,,,,,,11005,1,1,2024_May_31_1700,stroop_task_switching2,2021.2.3,60.078715130448636,
condition/block_color,instruction/instr_color,instruction/i8,,,,,,,,,,,,,,,,,0,0,0,0,0,0,0,0,,,,,,,,,,,,,,,,,,,,,,,,,,,,,,,,,,,,,,,,,,,,,,,,,,,,,,,,146.34427629999118,None,space,6.2652981000137515,146.34427629999118,None,,,,,,,,,,,,,,,11005,1,1,2024_May_31_1700,stroop_task_switching2,2021.2.3,60.078715130448636,
condition/block_color,instruction/instr_color,instruction/i8,,,,,,,,,,,,,,,,,0,0,0,0,,,,,,,,,,,,,,,,,,,,,,,,,,,,,,,,,,,,,,,,,,,,,,,,,,,,,,,,,,,,,,,,,,,,,,,,,,,,,,,,11005,1,1,2024_May_31_1700,stroop_task_switching2,2021.2.3,60.078715130448636,
condition/block_word,instruction/instr_word,instruction/i9,黄,white,j,square,word_single,单词,0.0032461461866890584,,,,,,,,,,0,1,1,1,0,0,0,0,0,0,0,0,,,,,,,,,,,,,,,,,,,,,152.67029660000117,None,space,3.7232661999878474,152.67029660000117,None,157.41199959997903,158.41378219999024,158.41378219999024,159.4144730999833,159.4144730999833,None,156.4274885999912,157.42773739999393,160.43218529998558,160.63510809998843,160.61654160000035,160.9161729000043,160.9161729000043,None,161.41684570000507,None,j,1,0.9527125000022352,161.41684570000507,None,None,None,162.40175249997992,None,,,,,,,,,,,,,,,,,,,,,11005,1,1,2024_May_31_1700,stroop_task_switching2,2021.2.3,60.078715130448636,
condition/block_word,instruction/instr_word,instruction/i9,蓝,white,f,square,word_single,单词,0.060540570646362424,,,,,,,,,,0,1,1,1,0,0,0,0,0,1,1,1,,,,,,,,,,,,,,,,,,,,,,,,,,,,,,,,,,,163.40380899998127,163.60381589998724,163.5868010999984,163.88738849997753,163.88738849997753,None,164.38794269997743,None,f,1,0.57373489998281,164.38794269997743,None,None,None,164.98965649999445,None,,,,,,,,,,,,,,,,,,,,,11005,1,1,2024_May_31_1700,stroop_task_switching2,2021.2.3,60.078715130448636,
condition/block_word,instruction/instr_word,instruction/i9,黄,white,j,square,word_single,单词,0.06994067193778963,,,,,,,,,,0,1,1,1,0,0,0,0,0,2,2,2,,,,,,,,,,,,,,,,,,,,,,,,,,,,,,,,,,,165.99050600000191,166.19184959999984,166.17391459998908,166.47510369998054,166.47510369998054,None,166.97535829999833,None,j,1,0.6423492000030819,166.97535829999833,None,None,None,167.64280989998952,None,,,,,,,,,,,,,,,,,,,,,11005,1,1,2024_May_31_1700,stroop_task_switching2,2021.2.3,60.078715130448636,
condition/block_word,instruction/instr_word,instruction/i9,蓝,white,f,square,word_single,单词,0.08193765152950094,,,,,,,,,,0,1,1,1,0,0,0,0,0,3,3,3,,,,,,,,,,,,,,,,,,,,,,,,,,,,,,,,,,,168.64477270000498,168.84546049998607,168.8288413999835,169.12954639998497,169.12954639998497,None,169.63057949999347,None,f,1,0.5481197999906726,169.63057949999347,None,None,None,170.19670410000253,None,,,,,,,,,,,,,,,,,,,,,11005,1,1,2024_May_31_1700,stroop_task_switching2,2021.2.3,60.078715130448636,
condition/block_word,instruction/instr_word,instruction/i9,红,white,d,square,word_single,单词,0.1279694370605574,,,,,,,,,,0,1,1,1,0,0,0,0,0,4,4,4,,,,,,,,,,,,,,,,,,,,,,,,,,,,,,,,,,,171.19821579998825,171.39870510000037,171.38414099998772,171.7009504000016,171.6825523999869,None,172.18315769999754,None,d,1,0.426813600002788,172.18315769999754,None,None,None,172.63402889997815,None,,,,,,,,,,,,,,,,,,,,,11005,1,1,2024_May_31_1700,stroop_task_switching2,2021.2.3,60.078715130448636,
condition/block_word,instruction/instr_word,instruction/i9,红,white,d,square,word_single,单词,0.18345028784879092,,,,,,,,,,0,1,1,1,0,0,0,0,0,5,5,5,,,,,,,,,,,,,,,,,,,,,,,,,,,,,,,,,,,173.63533019999159,173.8361653999891,173.81914579999284,174.11945609998656,174.11945609998656,None,174.62022219999926,None,d,1,0.4059819999965839,174.62022219999926,None,None,None,175.05431379997754,None,,,,,,,,,,,,,,,,,,,,,11005,1,1,2024_May_31_1700,stroop_task_switching2,2021.2.3,60.078715130448636,
condition/block_word,instruction/instr_word,instruction/i9,蓝,white,f,square,word_single,单词,0.19920386223101294,,,,,,,,,,0,1,1,1,0,0,0,0,0,6,6,6,,,,,,,,,,,,,,,,,,,,,,,,,,,,,,,,,,,176.0557376999932,176.2557115999807,176.2403304000036,176.53996369999368,176.53996369999368,None,177.04038699998637,None,f,1,0.585711399995489,177.04038699998637,None,None,None,177.65862969998852,None,,,,,,,,,,,,,,,,,,,,,11005,1,1,2024_May_31_1700,stroop_task_switching2,2021.2.3,60.078715130448636,
condition/block_word,instruction/instr_word,instruction/i9,蓝,white,f,square,word_single,单词,0.26360599864925405,,,,,,,,,,0,1,1,1,0,0,0,0,0,7,7,7,,,,,,,,,,,,,,,,,,,,,,,,,,,,,,,,,,,178.6594260999991,178.86048559998744,178.844170700002,179.1436305999814,179.1436305999814,None,179.64443389998632,None,f,1,0.3976725999964401,179.64443389998632,None,None,None,180.0617201999994,None,,,,,,,,,,,,,,,,,,,,,11005,1,1,2024_May_31_1700,stroop_task_switching2,2021.2.3,60.078715130448636,
condition/block_word,instruction/instr_word,instruction/i9,蓝,white,f,square,word_single,单词,0.358985675745526,,,,,,,,,,0,1,1,1,0,0,0,0,0,8,8,8,,,,,,,,,,,,,,,,,,,,,,,,,,,,,,,,,,,181.063187199994,181.2635784999875,181.24775429998408,181.54867669998202,181.54867669998202,None,182.04799550000462,None,f,1,0.3224830999970436,182.04799550000462,None,None,None,182.39851239998825,None,,,,,,,,,,,,,,,,,,,,,11005,1,1,2024_May_31_1700,stroop_task_switching2,2021.2.3,60.078715130448636,
condition/block_word,instruction/instr_word,instruction/i9,绿,white,k,square,word_single,单词,0.36496733802487347,,,,,,,,,,0,1,1,1,0,0,0,0,0,9,9,9,,,,,,,,,,,,,,,,,,,,,,,,,,,,,,,,,,,183.399986000004,183.6002830999787,183.5843902999768,183.88470719999168,183.88470719999168,None,184.38476109999465,None,j,0,0.5135567999968771,184.38476109999465,None,None,None,184.91919169999892,None,,,,,,,,,,,,,,,,,,,,,11005,1,1,2024_May_31_1700,stroop_task_switching2,2021.2.3,60.078715130448636,
condition/block_word,instruction/instr_word,instruction/i9,黄,white,j,square,word_single,单词,0.3743513623756727,,,,,,,,,,0,1,1,1,0,0,0,0,0,10,10,10,,,,,,,,,,,,,,,,,,,,,,,,,,,,,,,,,,,185.92063089998555,186.12007999999332,186.10520979997818,186.40603260000353,186.40603260000353,None,186.90524530000403,None,j,1,0.9053400999982841,186.90524530000403,None,None,None,187.83994819998043,None,,,,,,,,,,,,,,,,,,,,,11005,1,1,2024_May_31_1700,stroop_task_switching2,2021.2.3,60.078715130448636,
condition/block_word,instruction/instr_word,instruction/i9,红,white,d,square,word_single,单词,0.3894803852598544,,,,,,,,,,0,1,1,1,0,0,0,0,0,11,11,11,,,,,,,,,,,,,,,,,,,,,,,,,,,,,,,,,,,188.8416687999852,189.04190029998426,189.026175099978,189.32668559998274,189.32668559998274,None,189.8269469999941,None,d,1,0.4713067999982741,189.8269469999941,None,None,None,190.32724719998077,None,,,,,,,,,,,,,,,,,,,,,11005,1,1,2024_May_31_1700,stroop_task_switching2,2021.2.3,60.078715130448636,
condition/block_word,instruction/instr_word,instruction/i9,绿,white,k,square,word_single,单词,0.5393759672408067,,,,,,,,,,0,1,1,1,0,0,0,0,0,12,12,12,,,,,,,,,,,,,,,,,,,,,,,,,,,,,,,,,,,191.3285438999883,191.53096370000276,191.51226789999055,191.8134613999864,191.8134613999864,None,192.31364079998457,None,k,1,0.528838900005212,192.31364079998457,None,None,None,192.86435609997716,None,,,,,,,,,,,,,,,,,,,,,11005,1,1,2024_May_31_1700,stroop_task_switching2,2021.2.3,60.078715130448636,
condition/block_word,instruction/instr_word,instruction/i9,蓝,white,f,square,word_single,单词,0.5995731954831104,,,,,,,,,,0,1,1,1,0,0,0,0,0,13,13,13,,,,,,,,,,,,,,,,,,,,,,,,,,,,,,,,,,,193.86563159999787,194.0681595999922,194.03423140000086,194.33429790000082,194.35084589998587,None,194.85067960000015,None,j,0,0.4399480000138283,194.85067960000015,None,None,None,195.3178246000025,None,,,,,,,,,,,,,,,,,,,,,11005,1,1,2024_May_31_1700,stroop_task_switching2,2021.2.3,60.078715130448636,
condition/block_word,instruction/instr_word,instruction/i9,红,white,d,square,word_single,单词,0.6298674479151414,,,,,,,,,,0,1,1,1,0,0,0,0,0,14,14,14,,,,,,,,,,,,,,,,,,,,,,,,,,,,,,,,,,,196.32015769998543,196.5219466999988,196.50324540000292,196.80348380000214,196.80348380000214,None,197.3044897999789,None,d,1,0.4741820000053849,197.3044897999789,None,None,None,197.80504589999327,None,,,,,,,,,,,,,,,,,,,,,11005,1,1,2024_May_31_1700,stroop_task_switching2,2021.2.3,60.078715130448636,
condition/block_word,instruction/instr_word,instruction/i9,红,white,d,square,word_single,单词,0.7389942282348904,,,,,,,,,,0,1,1,1,0,0,0,0,0,15,15,15,,,,,,,,,,,,,,,,,,,,,,,,,,,,,,,,,,,198.8065915000043,199.00844549998874,198.9902613000013,199.29139289999148,199.29139289999148,None,199.79238420000183,None,d,1,0.45063579999259673,199.79238420000183,None,None,None,200.25987829998485,None,,,,,,,,,,,,,,,,,,,,,11005,1,1,2024_May_31_1700,stroop_task_switching2,2021.2.3,60.078715130448636,
condition/block_word,instruction/instr_word,instruction/i9,绿,white,k,square,word_single,单词,0.7550853947239682,,,,,,,,,,0,1,1,1,0,0,0,0,0,16,16,16,,,,,,,,,,,,,,,,,,,,,,,,,,,,,,,,,,,201.26044369998272,201.4625570999924,201.4440476000018,201.7444314000022,201.7444314000022,None,202.2452246999892,None,k,1,0.7095300999935716,202.2452246999892,None,None,None,202.9796495999908,None,,,,,,,,,,,,,,,,,,,,,11005,1,1,2024_May_31_1700,stroop_task_switching2,2021.2.3,60.078715130448636,
condition/block_word,instruction/instr_word,instruction/i9,绿,white,k,square,word_single,单词,0.8019302780428206,,,,,,,,,,0,1,1,1,0,0,0,0,0,17,17,17,,,,,,,,,,,,,,,,,,,,,,,,,,,,,,,,,,,203.98194649998914,204.18264559999807,204.1660503000021,204.46587990000262,204.46587990000262,None,204.96590189999552,None,k,1,0.612754000001587,204.96590189999552,None,None,None,205.60002299997723,None,,,,,,,,,,,,,,,,,,,,,11005,1,1,2024_May_31_1700,stroop_task_switching2,2021.2.3,60.078715130448636,
condition/block_word,instruction/instr_word,instruction/i9,绿,white,k,square,word_single,单词,0.8110702914095343,,,,,,,,,,0,1,1,1,0,0,0,0,0,18,18,18,,,,,,,,,,,,,,,,,,,,,,,,,,,,,,,,,,,206.60188400000334,206.80405330000212,206.78549469998688,207.0867134,207.0867134,None,207.5866587999917,None,k,1,0.5046361999993678,207.5866587999917,None,None,None,208.1208282999869,None,,,,,,,,,,,,,,,,,,,,,11005,1,1,2024_May_31_1700,stroop_task_switching2,2021.2.3,60.078715130448636,
condition/block_word,instruction/instr_word,instruction/i9,黄,white,j,square,word_single,单词,0.8176594937590999,,,,,,,,,,0,1,1,1,0,0,0,0,0,19,19,19,,,,,,,,,,,,,,,,,,,,,,,,,,,,,,,,,,,209.1232067999954,209.32248989999061,209.30748479999602,209.6068743999931,209.6068743999931,None,210.1070081999933,None,j,1,0.6964159000199288,210.1070081999933,None,None,None,210.82467079997878,None,,,,,,,,,,,,,,,,,,,,,11005,1,1,2024_May_31_1700,stroop_task_switching2,2021.2.3,60.078715130448636,
condition/block_word,instruction/instr_word,instruction/i9,红,white,d,square,word_single,单词,0.8955794421104841,,,,,,,,,,0,1,1,1,0,0,0,0,0,20,20,20,,,,,,,,,,,,,,,,,,,,,,,,,,,,,,,,,,,211.826270199992,212.0273030999815,212.00982369997655,212.31025859998772,212.31025859998772,None,212.81099199998425,None,d,1,0.48855439998442307,212.81099199998425,None,None,None,213.32839929999318,None,,,,,,,,,,,,,,,,,,,,,11005,1,1,2024_May_31_1700,stroop_task_switching2,2021.2.3,60.078715130448636,
condition/block_word,instruction/instr_word,instruction/i9,绿,white,k,square,word_single,单词,0.9113598052474129,,,,,,,,,,0,1,1,1,0,0,0,0,0,21,21,21,,,,,,,,,,,,,,,,,,,,,,,,,,,,,,,,,,,214.33081769998535,214.5311275999993,214.513573299977,214.81506490000174,214.81506490000174,None,215.31468549999408,None,k,1,0.6644079999823589,215.31468549999408,None,None,None,215.99931319997995,None,,,,,,,,,,,,,,,,,,,,,11005,1,1,2024_May_31_1700,stroop_task_switching2,2021.2.3,60.078715130448636,
condition/block_word,instruction/instr_word,instruction/i9,黄,white,j,square,word_single,单词,0.9215930958042953,,,,,,,,,,0,1,1,1,0,0,0,0,0,22,22,22,,,,,,,,,,,,,,,,,,,,,,,,,,,,,,,,,,,217.0017891000025,217.20260769999004,217.18414480000501,217.48567239998374,217.48567239998374,None,217.98556499998085,None,j,1,0.8737772000022233,217.98556499998085,None,None,None,218.88689719999093,None,,,,,,,,,,,,,,,,,,,,,11005,1,1,2024_May_31_1700,stroop_task_switching2,2021.2.3,60.078715130448636,
condition/block_word,instruction/instr_word,instruction/i9,黄,white,j,square,word_single,单词,0.9493525498837774,,,,,,,,,,0,1,1,1,0,0,0,0,0,23,23,23,,,,,,,,,,,,,,,,,,,,,,,,,,,,,,,,,,,219.88896949999616,220.0891226999811,220.07338159999927,220.37243869999656,220.37243869999656,None,220.87316909999936,None,j,1,0.490119100024458,220.87316909999936,None,None,None,221.39071639999747,None,,,,,,,,,,,,,,,,,,,,,11005,1,1,2024_May_31_1700,stroop_task_switching2,2021.2.3,60.078715130448636,
condition/block_word,instruction/instr_word,instruction/i9,,,,,,,,,,,,,,,,,0,1,1,1,0,0,0,0,,,,,,,,,,,,,,,,,,,,,,,,,,,,,,,,,,,,,,,,,,,,,,,,,,,,,,,,222.3919079999905,None,space,2.9635622999921907,222.3919079999905,None,,,,,,,,,,,,,,,11005,1,1,2024_May_31_1700,stroop_task_switching2,2021.2.3,60.078715130448636,
condition/block_word,instruction/instr_word,instruction/i9,,,,,,,,,,,,,,,,,0,1,1,1,,,,,,,,,,,,,,,,,,,,,,,,,,,,,,,,,,,,,,,,,,,,,,,,,,,,,,,,,,,,,,,,,,,,,,,,,,,,,,,,11005,1,1,2024_May_31_1700,stroop_task_switching2,2021.2.3,60.078715130448636,
condition/block_mixed,instruction/instr_mixed,instruction/i10,蓝,red,d,diamond,color_mix,颜色,,incompatible,0,,,,,,,,0,2,2,2,0,0,0,0,0,0,0,0,,,,,,,,,,,,,,,,,,,,,225.39683329997933,None,space,9.950717899977462,225.39683329997933,None,236.36412329997984,237.36719609997817,237.36719609997817,238.3671114000026,238.3671114000026,None,235.37937189999502,236.38030419999268,239.38413910000236,239.58608409998124,239.58608409998124,239.8861784999899,239.8861784999899,None,240.37003439999535,None,d,1,1.8257894999987911,240.37003439999535,None,None,None,242.22214979998535,None,,,,,,,,,,,,,,,,,,,,,11005,1,1,2024_May_31_1700,stroop_task_switching2,2021.2.3,60.078715130448636,
condition/block_mixed,instruction/instr_mixed,instruction/i10,绿,yellow,j,diamond,color_mix,颜色,,incompatible,1,,,,,,,,0,2,2,2,0,0,0,0,0,1,1,1,,,,,,,,,,,,,,,,,,,,,,,,,,,,,,,,,,,243.22348299997975,243.42514209999354,243.4071311999869,243.70785079998313,243.70785079998313,None,244.2092854999937,None,j,1,1.0990935000008903,244.2092854999937,None,None,None,245.32678989999113,None,,,,,,,,,,,,,,,,,,,,,11005,1,1,2024_May_31_1700,stroop_task_switching2,2021.2.3,60.078715130448636,
condition/block_mixed,instruction/instr_mixed,instruction/i10,红,green,k,diamond,color_mix,颜色,,incompatible,1,,,,,,,,0,2,2,2,0,0,0,0,0,2,2,2,,,,,,,,,,,,,,,,,,,,,,,,,,,,,,,,,,,246.32802220000303,246.529701499996,246.51222269999562,246.8132071,246.8132071,None,247.313187199994,None,k,1,1.4192693999793846,247.313187199994,None,None,None,248.74955249999766,None,,,,,,,,,,,,,,,,,,,,,11005,1,1,2024_May_31_1700,stroop_task_switching2,2021.2.3,60.078715130448636,
condition/block_mixed,instruction/instr_mixed,instruction/i10,蓝,red,d,diamond,color_mix,颜色,,incompatible,1,,,,,,,,0,2,2,2,0,0,0,0,0,3,3,3,,,,,,,,,,,,,,,,,,,,,,,,,,,,,,,,,,,249.75025919999462,249.95060209999792,249.93455789997824,250.234555300005,250.234555300005,None,250.7349376999773,None,d,1,0.9093432999798097,250.7349376999773,None,None,None,251.67020269998466,None,,,,,,,,,,,,,,,,,,,,,11005,1,1,2024_May_31_1700,stroop_task_switching2,2021.2.3,60.078715130448636,
condition/block_mixed,instruction/instr_mixed,instruction/i10,红,blue,f,diamond,color_mix,颜色,,incompatible,1,,,,,,,,0,2,2,2,0,0,0,0,0,4,4,4,,,,,,,,,,,,,,,,,,,,,,,,,,,,,,,,,,,252.6711838999763,252.87165630000527,252.8555139999953,253.15522279997822,253.15522279997822,None,253.65670799999498,None,f,1,1.5872388000134379,253.65670799999498,None,None,None,255.2751522999897,None,,,,,,,,,,,,,,,,,,,,,11005,1,1,2024_May_31_1700,stroop_task_switching2,2021.2.3,60.078715130448636,
condition/block_mixed,instruction/instr_mixed,instruction/i10,红,blue,d,square,color_mix,单词,,incompatible,2,,,,,,,,0,2,2,2,0,0,0,0,0,5,5,5,,,,,,,,,,,,,,,,,,,,,,,,,,,,,,,,,,,256.278988999984,256.4775958999817,256.4613641999895,256.76157809997676,256.76157809997676,None,257.261575099983,None,f,0,0.9586664999951608,257.261575099983,None,None,None,258.24614069997915,None,,,,,,,,,,,,,,,,,,,,,11005,1,1,2024_May_31_1700,stroop_task_switching2,2021.2.3,60.078715130448636,
condition/block_mixed,instruction/instr_mixed,instruction/i10,红,yellow,j,diamond,color_mix,颜色,,incompatible,2,,,,,,,,0,2,2,2,0,0,0,0,0,6,6,6,,,,,,,,,,,,,,,,,,,,,,,,,,,,,,,,,,,259.24788059998536,259.4489648999879,259.4335201999929,259.7318352999864,259.7318352999864,None,260.23268539999845,None,j,1,1.907662599987816,260.23268539999845,None,None,None,262.1689381999895,None,,,,,,,,,,,,,,,,,,,,,11005,1,1,2024_May_31_1700,stroop_task_switching2,2021.2.3,60.078715130448636,
condition/block_mixed,instruction/instr_mixed,instruction/i10,红,yellow,d,square,color_mix,单词,,incompatible,2,,,,,,,,0,2,2,2,0,0,0,0,0,7,7,7,,,,,,,,,,,,,,,,,,,,,,,,,,,,,,,,,,,263.17042419998324,263.37191610000446,263.35458659997676,263.654409699986,263.654409699986,None,264.1552834000031,None,d,1,0.609630399994785,264.1552834000031,None,None,None,264.78949619998457,None,,,,,,,,,,,,,,,,,,,,,11005,1,1,2024_May_31_1700,stroop_task_switching2,2021.2.3,60.078715130448636,
condition/block_mixed,instruction/instr_mixed,instruction/i10,绿,blue,k,square,color_mix,单词,,incompatible,1,,,,,,,,0,2,2,2,0,0,0,0,0,8,8,8,,,,,,,,,,,,,,,,,,,,,,,,,,,,,,,,,,,265.791556399985,265.9925072999904,265.97467880000477,266.2751219999918,266.2751219999918,None,266.7756576999964,None,f,0,2.2931197000143584,266.7756576999964,None,None,None,269.09597619998385,None,,,,,,,,,,,,,,,,,,,,,11005,1,1,2024_May_31_1700,stroop_task_switching2,2021.2.3,60.078715130448636,
condition/block_mixed,instruction/instr_mixed,instruction/i10,蓝,green,k,diamond,color_mix,颜色,,incompatible,2,,,,,,,,0,2,2,2,0,0,0,0,0,9,9,9,,,,,,,,,,,,,,,,,,,,,,,,,,,,,,,,,,,270.0976224000042,270.2978501000034,270.2811120999977,270.5819564999838,270.5819564999838,None,271.0821779999824,None,k,1,1.322711300017545,271.0821779999824,None,None,None,272.4346770999837,None,,,,,,,,,,,,,,,,,,,,,11005,1,1,2024_May_31_1700,stroop_task_switching2,2021.2.3,60.078715130448636,
condition/block_mixed,instruction/instr_mixed,instruction/i10,蓝,yellow,f,square,color_mix,单词,,incompatible,2,,,,,,,,0,2,2,2,0,0,0,0,0,10,10,10,,,,,,,,,,,,,,,,,,,,,,,,,,,,,,,,,,,273.4359773999895,273.6366064999893,273.6194811000023,273.9202563999861,273.9202563999861,None,274.4205197999836,None,f,1,0.8083521999942604,274.4205197999836,None,None,None,275.2553542999958,None,,,,,,,,,,,,,,,,,,,,,11005,1,1,2024_May_31_1700,stroop_task_switching2,2021.2.3,60.078715130448636,
condition/block_mixed,instruction/instr_mixed,instruction/i10,蓝,green,f,square,color_mix,单词,,incompatible,1,,,,,,,,0,2,2,2,0,0,0,0,0,11,11,11,,,,,,,,,,,,,,,,,,,,,,,,,,,,,,,,,,,276.2571066999808,276.45836279998184,276.44027940000524,276.74181509998743,276.74181509998743,None,277.2415096999903,None,f,1,0.48357290000421926,277.2415096999903,None,None,None,277.7424648999877,None,,,,,,,,,,,,,,,,,,,,,11005,1,1,2024_May_31_1700,stroop_task_switching2,2021.2.3,60.078715130448636,
condition/block_mixed,instruction/instr_mixed,instruction/i10,绿,yellow,k,square,color_mix,单词,,incompatible,1,,,,,,,,0,2,2,2,0,0,0,0,0,12,12,12,,,,,,,,,,,,,,,,,,,,,,,,,,,,,,,,,,,278.7439517999883,278.94429220000166,278.9289379999973,279.2282922999875,279.2282922999875,None,279.7284015000041,None,k,1,0.6044320999935735,279.7284015000041,None,None,None,280.3629910000018,None,,,,,,,,,,,,,,,,,,,,,11005,1,1,2024_May_31_1700,stroop_task_switching2,2021.2.3,60.078715130448636,
condition/block_mixed,instruction/instr_mixed,instruction/i10,绿,blue,f,diamond,color_mix,颜色,,incompatible,2,,,,,,,,0,2,2,2,0,0,0,0,0,13,13,13,,,,,,,,,,,,,,,,,,,,,,,,,,,,,,,,,,,281.3641682000016,281.56462580000516,281.5479426999809,281.84857989999,281.84857989999,None,282.34932389997994,None,f,1,0.8642132999957539,282.34932389997994,None,None,None,283.2340562999889,None,,,,,,,,,,,,,,,,,,,,,11005,1,1,2024_May_31_1700,stroop_task_switching2,2021.2.3,60.078715130448636,
condition/block_mixed,instruction/instr_mixed,instruction/i10,黄,red,j,square,color_mix,单词,,incompatible,2,,,,,,,,0,2,2,2,0,0,0,0,0,14,14,14,,,,,,,,,,,,,,,,,,,,,,,,,,,,,,,,,,,284.23563359997934,284.43785429999116,284.41911369998707,284.7197509999969,284.7197509999969,None,285.2200881000026,None,j,1,0.657172500010347,285.2200881000026,None,None,None,285.9046310999838,None,,,,,,,,,,,,,,,,,,,,,11005,1,1,2024_May_31_1700,stroop_task_switching2,2021.2.3,60.078715130448636,
condition/block_mixed,instruction/instr_mixed,instruction/i10,蓝,yellow,j,diamond,color_mix,颜色,,incompatible,2,,,,,,,,0,2,2,2,0,0,0,0,0,15,15,15,,,,,,,,,,,,,,,,,,,,,,,,,,,,,,,,,,,286.9061720999889,287.10651159999543,287.08991739997873,287.39106520000496,287.39106520000496,None,287.89098239998566,None,j,1,0.818193400016753,287.89098239998566,None,None,None,288.7255340999982,None,,,,,,,,,,,,,,,,,,,,,11005,1,1,2024_May_31_1700,stroop_task_switching2,2021.2.3,60.078715130448636,
condition/block_mixed,instruction/instr_mixed,instruction/i10,黄,red,d,diamond,color_mix,颜色,,incompatible,1,,,,,,,,0,2,2,2,0,0,0,0,0,16,16,16,,,,,,,,,,,,,,,,,,,,,,,,,,,,,,,,,,,289.7273458999989,289.92741909998585,289.91076929998235,290.21151919997646,290.21151919997646,None,290.7126546999789,None,d,1,0.4925585000019055,290.7126546999789,None,None,None,291.2295717999805,None,,,,,,,,,,,,,,,,,,,,,11005,1,1,2024_May_31_1700,stroop_task_switching2,2021.2.3,60.078715130448636,
condition/block_mixed,instruction/instr_mixed,instruction/i10,绿,red,k,square,color_mix,单词,,incompatible,2,,,,,,,,0,2,2,2,0,0,0,0,0,17,17,17,,,,,,,,,,,,,,,,,,,,,,,,,,,,,,,,,,,292.2310337999952,292.43199059998733,292.41440079998574,292.71489539998583,292.71489539998583,None,293.21642290000455,None,k,1,1.5332544000120834,293.21642290000455,None,None,None,294.76799769999343,None,,,,,,,,,,,,,,,,,,,,,11005,1,1,2024_May_31_1700,stroop_task_switching2,2021.2.3,60.078715130448636,
condition/block_mixed,instruction/instr_mixed,instruction/i10,红,green,d,square,color_mix,单词,,incompatible,1,,,,,,,,0,2,2,2,0,0,0,0,0,18,18,18,,,,,,,,,,,,,,,,,,,,,,,,,,,,,,,,,,,295.77062729999307,295.9701034000027,295.9536659999867,296.2546720999817,296.2546720999817,None,296.7550648000033,None,d,1,0.4102040999860037,296.7550648000033,None,None,None,297.1881809000042,None,,,,,,,,,,,,,,,,,,,,,11005,1,1,2024_May_31_1700,stroop_task_switching2,2021.2.3,60.078715130448636,
condition/block_mixed,instruction/instr_mixed,instruction/i10,黄,blue,f,diamond,color_mix,颜色,,incompatible,2,,,,,,,,0,2,2,2,0,0,0,0,0,19,19,19,,,,,,,,,,,,,,,,,,,,,,,,,,,,,,,,,,,298.1899115999986,298.3900744999992,298.3734856999945,298.67476659998647,298.67476659998647,None,299.1744978999777,None,j,0,0.7828570999845397,299.1744978999777,None,None,None,299.9760457999946,None,,,,,,,,,,,,,,,,,,,,,11005,1,1,2024_May_31_1700,stroop_task_switching2,2021.2.3,60.078715130448636,
condition/block_mixed,instruction/instr_mixed,instruction/i10,黄,green,k,diamond,color_mix,颜色,,incompatible,1,,,,,,,,0,2,2,2,0,0,0,0,0,20,20,20,,,,,,,,,,,,,,,,,,,,,,,,,,,,,,,,,,,300.9774426999793,301.17764889998944,301.16107669999474,301.463193100004,301.463193100004,None,301.97883579999325,None,k,1,2.914875199989183,301.97883579999325,None,None,None,304.9167935999867,None,,,,,,,,,,,,,,,,,,,,,11005,1,1,2024_May_31_1700,stroop_task_switching2,2021.2.3,60.078715130448636,
condition/block_mixed,instruction/instr_mixed,instruction/i10,黄,green,j,square,color_mix,单词,,incompatible,2,,,,,,,,0,2,2,2,0,0,0,0,0,21,21,21,,,,,,,,,,,,,,,,,,,,,,,,,,,,,,,,,,,305.91816499998095,306.1182848000026,306.1025796000031,306.4053656999895,306.4053656999895,None,306.9196015999769,None,j,1,0.7102823999885004,306.9196015999769,None,None,None,307.6543154999963,None,,,,,,,,,,,,,,,,,,,,,11005,1,1,2024_May_31_1700,stroop_task_switching2,2021.2.3,60.078715130448636,
condition/block_mixed,instruction/instr_mixed,instruction/i10,黄,blue,j,square,color_mix,单词,,incompatible,1,,,,,,,,0,2,2,2,0,0,0,0,0,22,22,22,,,,,,,,,,,,,,,,,,,,,,,,,,,,,,,,,,,308.65556630000356,308.856012299977,308.83936319997883,309.14169779999065,309.14169779999065,None,309.6582555999921,None,j,1,1.7795998999790754,309.6582555999921,None,None,None,311.45992419999675,None,,,,,,,,,,,,,,,,,,,,,11005,1,1,2024_May_31_1700,stroop_task_switching2,2021.2.3,60.078715130448636,
condition/block_mixed,instruction/instr_mixed,instruction/i10,蓝,red,f,square,color_mix,单词,,incompatible,1,,,,,,,,0,2,2,2,0,0,0,0,0,23,23,23,,,,,,,,,,,,,,,,,,,,,,,,,,,,,,,,,,,312.46198880000156,312.66179589999956,312.6473380999814,312.9462102999969,312.9462102999969,None,313.44614929999807,None,f,1,1.0878156000107992,313.44614929999807,None,None,None,314.5656088999822,None,,,,,,,,,,,,,,,,,,,,,11005,1,1,2024_May_31_1700,stroop_task_switching2,2021.2.3,60.078715130448636,
condition/block_mixed,instruction/instr_mixed,instruction/i10,绿,red,d,diamond,color_mix,颜色,,incompatible,2,,,,,,,,0,2,2,2,0,0,0,0,0,24,24,24,,,,,,,,,,,,,,,,,,,,,,,,,,,,,,,,,,,315.56604360000347,315.768004499987,315.74977939997916,316.0502385,316.0502385,None,316.55176629999187,None,d,1,0.7421619000087958,316.55176629999187,None,None,None,317.3185453999904,None,,,,,,,,,,,,,,,,,,,,,11005,1,1,2024_May_31_1700,stroop_task_switching2,2021.2.3,60.078715130448636,
condition/block_mixed,instruction/instr_mixed,instruction/i10,绿,green,k,diamond,color_mix,颜色,,compatible,1,,,,,,,,0,2,2,2,0,0,0,0,0,25,25,25,,,,,,,,,,,,,,,,,,,,,,,,,,,,,,,,,,,318.3200653999811,318.52211299998453,318.503811499977,318.80426019997685,318.80426019997685,None,319.3051945999905,None,f,0,0.6927553999994416,319.3051945999905,None,None,None,320.0227675999922,None,,,,,,,,,,,,,,,,,,,,,11005,1,1,2024_May_31_1700,stroop_task_switching2,2021.2.3,60.078715130448636,
condition/block_mixed,instruction/instr_mixed,instruction/i10,蓝,blue,f,diamond,color_mix,颜色,,compatible,1,,,,,,,,0,2,2,2,0,0,0,0,0,26,26,26,,,,,,,,,,,,,,,,,,,,,,,,,,,,,,,,,,,321.02524249997805,321.22525560000213,321.20791289999033,321.5096193999925,321.5096193999925,None,322.00904679999803,None,f,1,1.5489719999895897,322.00904679999803,None,None,None,323.578205400001,None,,,,,,,,,,,,,,,,,,,,,11005,1,1,2024_May_31_1700,stroop_task_switching2,2021.2.3,60.078715130448636,
condition/block_mixed,instruction/instr_mixed,instruction/i10,绿,green,k,square,color_mix,单词,,compatible,2,,,,,,,,0,2,2,2,0,0,0,0,0,27,27,27,,,,,,,,,,,,,,,,,,,,,,,,,,,,,,,,,,,324.5805054999946,324.7807266000018,324.7632784000016,325.06488639998133,325.06488639998133,None,325.5642927000008,None,k,1,2.02599470000132,325.5642927000008,None,None,None,327.6176734000037,None,,,,,,,,,,,,,,,,,,,,,11005,1,1,2024_May_31_1700,stroop_task_switching2,2021.2.3,60.078715130448636,
condition/block_mixed,instruction/instr_mixed,instruction/i10,绿,green,k,square,color_mix,单词,,compatible,1,,,,,,,,0,2,2,2,0,0,0,0,0,28,28,28,,,,,,,,,,,,,,,,,,,,,,,,,,,,,,,,,,,328.6190835000016,328.8191353000002,328.802692199999,329.1035584999772,329.1035584999772,None,329.604491999984,None,k,1,0.4257379000191577,329.604491999984,None,None,None,330.05459319998045,None,,,,,,,,,,,,,,,,,,,,,11005,1,1,2024_May_31_1700,stroop_task_switching2,2021.2.3,60.078715130448636,
condition/block_mixed,instruction/instr_mixed,instruction/i10,蓝,blue,f,square,color_mix,单词,,compatible,1,,,,,,,,0,2,2,2,0,0,0,0,0,29,29,29,,,,,,,,,,,,,,,,,,,,,,,,,,,,,,,,,,,331.05677890000516,331.2562094999885,331.24198890000116,331.55690880000475,331.5408461999905,None,332.040734899987,None,f,1,1.8697516999964137,332.040734899987,None,None,None,333.9270781999803,None,,,,,,,,,,,,,,,,,,,,,11005,1,1,2024_May_31_1700,stroop_task_switching2,2021.2.3,60.078715130448636,
condition/block_mixed,instruction/instr_mixed,instruction/i10,黄,yellow,j,diamond,color_mix,颜色,,compatible,2,,,,,,,,0,2,2,2,0,0,0,0,0,30,30,30,,,,,,,,,,,,,,,,,,,,,,,,,,,,,,,,,,,334.9284998999792,335.12971700000344,335.1129176999966,335.4126680000045,335.4126680000045,None,335.9132944000012,None,j,1,0.933216600009473,335.9132944000012,None,None,None,336.86472689997754,None,,,,,,,,,,,,,,,,,,,,,11005,1,1,2024_May_31_1700,stroop_task_switching2,2021.2.3,60.078715130448636,
condition/block_mixed,instruction/instr_mixed,instruction/i10,绿,green,k,square,color_mix,单词,,compatible,2,,,,,,,,0,2,2,2,0,0,0,0,0,31,31,31,,,,,,,,,,,,,,,,,,,,,,,,,,,,,,,,,,,337.8661680999794,338.06648089998635,338.0510210999928,338.35049979999894,338.35049979999894,None,338.85107309999876,None,k,1,0.91563109998242,338.85107309999876,None,None,None,339.7859867999796,None,,,,,,,,,,,,,,,,,,,,,11005,1,1,2024_May_31_1700,stroop_task_switching2,2021.2.3,60.078715130448636,
condition/block_mixed,instruction/instr_mixed,instruction/i10,黄,yellow,j,square,color_mix,单词,,compatible,1,,,,,,,,0,2,2,2,0,0,0,0,0,32,32,32,,,,,,,,,,,,,,,,,,,,,,,,,,,,,,,,,,,340.78758429997833,340.9877009000047,340.97170840000035,341.2722609999764,341.2722609999764,None,341.77357499999925,None,j,1,1.745178399985889,341.77357499999925,None,None,None,343.541338799987,None,,,,,,,,,,,,,,,,,,,,,11005,1,1,2024_May_31_1700,stroop_task_switching2,2021.2.3,60.078715130448636,
condition/block_mixed,instruction/instr_mixed,instruction/i10,绿,green,k,diamond,color_mix,颜色,,compatible,2,,,,,,,,0,2,2,2,0,0,0,0,0,33,33,33,,,,,,,,,,,,,,,,,,,,,,,,,,,,,,,,,,,344.54311379999854,344.7438955999969,344.7267740999814,345.02882199999294,345.02882199999294,None,345.5284093999944,None,k,1,0.7186323000059929,345.5284093999944,None,None,None,346.2624614999804,None,,,,,,,,,,,,,,,,,,,,,11005,1,1,2024_May_31_1700,stroop_task_switching2,2021.2.3,60.078715130448636,
condition/block_mixed,instruction/instr_mixed,instruction/i10,红,red,d,square,color_mix,单词,,compatible,2,,,,,,,,0,2,2,2,0,0,0,0,0,34,34,34,,,,,,,,,,,,,,,,,,,,,,,,,,,,,,,,,,,347.263961699995,347.4649878999917,347.4477476000029,347.74783489998663,347.74783489998663,None,348.24908729997696,None,d,1,0.6296840000140946,348.24908729997696,None,None,None,348.89963169998373,None,,,,,,,,,,,,,,,,,,,,,11005,1,1,2024_May_31_1700,stroop_task_switching2,2021.2.3,60.078715130448636,
condition/block_mixed,instruction/instr_mixed,instruction/i10,黄,yellow,j,square,color_mix,单词,,compatible,1,,,,,,,,0,2,2,2,0,0,0,0,0,35,35,35,,,,,,,,,,,,,,,,,,,,,,,,,,,,,,,,,,,349.90129989999696,350.1021259999834,350.086112399993,350.38597479998134,350.38597479998134,None,350.8867637999938,None,j,1,1.2720204000070225,350.8867637999938,None,None,None,352.18780329998117,None,,,,,,,,,,,,,,,,,,,,,11005,1,1,2024_May_31_1700,stroop_task_switching2,2021.2.3,60.078715130448636,
condition/block_mixed,instruction/instr_mixed,instruction/i10,绿,green,k,diamond,color_mix,颜色,,compatible,2,,,,,,,,0,2,2,2,0,0,0,0,0,36,36,36,,,,,,,,,,,,,,,,,,,,,,,,,,,,,,,,,,,353.19004439999117,353.3897737999796,353.37374479998834,353.67339260000153,353.67339260000153,None,354.17425129999174,None,k,1,1.288758600014262,354.17425129999174,None,None,None,355.4929548999935,None,,,,,,,,,,,,,,,,,,,,,11005,1,1,2024_May_31_1700,stroop_task_switching2,2021.2.3,60.078715130448636,
condition/block_mixed,instruction/instr_mixed,instruction/i10,蓝,blue,f,square,color_mix,单词,,compatible,2,,,,,,,,0,2,2,2,0,0,0,0,0,37,37,37,,,,,,,,,,,,,,,,,,,,,,,,,,,,,,,,,,,356.4946621999843,356.69572349998634,356.6787717999832,356.9797430000035,356.9797430000035,None,357.47901219999767,None,f,1,2.3681366000091657,357.47901219999767,None,None,None,359.8660992999794,None,,,,,,,,,,,,,,,,,,,,,11005,1,1,2024_May_31_1700,stroop_task_switching2,2021.2.3,60.078715130448636,
condition/block_mixed,instruction/instr_mixed,instruction/i10,红,red,d,square,color_mix,单词,,compatible,1,,,,,,,,0,2,2,2,0,0,0,0,0,38,38,38,,,,,,,,,,,,,,,,,,,,,,,,,,,,,,,,,,,360.8683683999989,361.06812229999923,361.05334280000534,361.35195459998795,361.35195459998795,None,361.8530705999874,None,d,1,0.5622629999998026,361.8530705999874,None,None,None,362.4365938999981,None,,,,,,,,,,,,,,,,,,,,,11005,1,1,2024_May_31_1700,stroop_task_switching2,2021.2.3,60.078715130448636,
condition/block_mixed,instruction/instr_mixed,instruction/i10,黄,yellow,j,diamond,color_mix,颜色,,compatible,2,,,,,,,,0,2,2,2,0,0,0,0,0,39,39,39,,,,,,,,,,,,,,,,,,,,,,,,,,,,,,,,,,,363.43824319998384,363.63856459999806,363.62180459999945,363.92233309999574,363.92233309999574,None,364.42359639998176,None,j,1,0.655614700022852,364.42359639998176,None,None,None,365.1074081999832,None,,,,,,,,,,,,,,,,,,,,,11005,1,1,2024_May_31_1700,stroop_task_switching2,2021.2.3,60.078715130448636,
condition/block_mixed,instruction/instr_mixed,instruction/i10,黄,yellow,j,square,color_mix,单词,,compatible,2,,,,,,,,0,2,2,2,0,0,0,0,0,40,40,40,,,,,,,,,,,,,,,,,,,,,,,,,,,,,,,,,,,366.1099151999806,366.31101659999695,366.2927008999977,366.5938865999924,366.5938865999924,None,367.0936819000053,None,j,1,0.9616117000114173,367.0936819000053,None,None,None,368.0791801000014,None,,,,,,,,,,,,,,,,,,,,,11005,1,1,2024_May_31_1700,stroop_task_switching2,2021.2.3,60.078715130448636,
condition/block_mixed,instruction/instr_mixed,instruction/i10,蓝,blue,f,square,color_mix,单词,,compatible,1,,,,,,,,0,2,2,2,0,0,0,0,0,41,41,41,,,,,,,,,,,,,,,,,,,,,,,,,,,,,,,,,,,369.0798962999834,369.28170469999895,369.26382339998963,369.5655700999778,369.5655700999778,None,370.0649783999834,None,f,1,1.5028078999894205,370.0649783999834,None,None,None,371.58394569999655,None,,,,,,,,,,,,,,,,,,,,,11005,1,1,2024_May_31_1700,stroop_task_switching2,2021.2.3,60.078715130448636,
condition/block_mixed,instruction/instr_mixed,instruction/i10,蓝,blue,f,diamond,color_mix,颜色,,compatible,2,,,,,,,,0,2,2,2,0,0,0,0,0,42,42,42,,,,,,,,,,,,,,,,,,,,,,,,,,,,,,,,,,,372.5855866999773,372.7862906999944,372.76934119997895,373.06929449999006,373.06929449999006,None,373.57007739998517,None,f,1,0.5573751000047196,373.57007739998517,None,None,None,374.1542714999814,None,,,,,,,,,,,,,,,,,,,,,11005,1,1,2024_May_31_1700,stroop_task_switching2,2021.2.3,60.078715130448636,
condition/block_mixed,instruction/instr_mixed,instruction/i10,黄,yellow,j,diamond,color_mix,颜色,,compatible,1,,,,,,,,0,2,2,2,0,0,0,0,0,43,43,43,,,,,,,,,,,,,,,,,,,,,,,,,,,,,,,,,,,375.15659289999167,375.3567553999892,375.3407282999833,375.63978840000345,375.63978840000345,None,376.14073509999434,None,k,0,0.6990520999825094,376.14073509999434,None,None,None,376.85893059999216,None,,,,,,,,,,,,,,,,,,,,,11005,1,1,2024_May_31_1700,stroop_task_switching2,2021.2.3,60.078715130448636,
condition/block_mixed,instruction/instr_mixed,instruction/i10,红,red,d,diamond,color_mix,颜色,,compatible,1,,,,,,,,0,2,2,2,0,0,0,0,0,44,44,44,,,,,,,,,,,,,,,,,,,,,,,,,,,,,,,,,,,377.8607736999984,378.06156989999,378.0435779999825,378.3442536999937,378.3442536999937,None,378.844767499977,None,d,1,0.6906425000051968,378.844767499977,None,None,None,379.5625236000051,None,,,,,,,,,,,,,,,,,,,,,11005,1,1,2024_May_31_1700,stroop_task_switching2,2021.2.3,60.078715130448636,
condition/block_mixed,instruction/instr_mixed,instruction/i10,蓝,blue,f,diamond,color_mix,颜色,,compatible,1,,,,,,,,0,2,2,2,0,0,0,0,0,45,45,45,,,,,,,,,,,,,,,,,,,,,,,,,,,,,,,,,,,380.5640615999873,380.76529709997703,380.74778179998975,381.04906449999544,381.04906449999544,None,381.5488850999973,None,f,1,0.9476118000166025,381.5488850999973,None,None,None,382.5170201000001,None,,,,,,,,,,,,,,,,,,,,,11005,1,1,2024_May_31_1700,stroop_task_switching2,2021.2.3,60.078715130448636,
condition/block_mixed,instruction/instr_mixed,instruction/i10,红,red,d,diamond,color_mix,颜色,,compatible,1,,,,,,,,0,2,2,2,0,0,0,0,0,46,46,46,,,,,,,,,,,,,,,,,,,,,,,,,,,,,,,,,,,383.5183999000001,383.7197946999804,383.70294709998416,384.00357030000305,384.00357030000305,None,384.5034841999877,None,d,1,0.7762802999932319,384.5034841999877,None,None,None,385.30460740000126,None,,,,,,,,,,,,,,,,,,,,,11005,1,1,2024_May_31_1700,stroop_task_switching2,2021.2.3,60.078715130448636,
condition/block_mixed,instruction/instr_mixed,instruction/i10,红,red,d,square,color_mix,单词,,compatible,2,,,,,,,,0,2,2,2,0,0,0,0,0,47,47,47,,,,,,,,,,,,,,,,,,,,,,,,,,,,,,,,,,,386.30690389999654,386.5072819000052,386.49050200000056,386.7900735999865,386.7900735999865,None,387.29078650000156,None,d,1,0.5088888999889605,387.29078650000156,None,None,None,387.8249288999941,None,,,,,,,,,,,,,,,,,,,,,11005,1,1,2024_May_31_1700,stroop_task_switching2,2021.2.3,60.078715130448636,
condition/block_mixed,instruction/instr_mixed,instruction/i10,红,red,d,diamond,color_mix,颜色,,compatible,2,,,,,,,,0,2,2,2,0,0,0,0,0,48,48,48,,,,,,,,,,,,,,,,,,,,,,,,,,,,,,,,,,,388.8265521999856,389.0282043000043,389.0103652999969,389.31184399998165,389.31184399998165,None,389.8116182999802,None,d,1,0.6363983000046574,389.8116182999802,None,None,None,390.4623721999815,None,,,,,,,,,,,,,,,,,,,,,11005,1,1,2024_May_31_1700,stroop_task_switching2,2021.2.3,60.078715130448636,
condition/block_mixed,instruction/instr_mixed,instruction/i10,,,,,,,,,,,,,,,,,0,2,2,2,0,0,0,0,,,,,,,,,,,,,,,,,,,,,,,,,,,,,,,,,,,,,,,,,,,,,,,,,,,,,,,,391.46360560000176,None,space,67.52247470000293,391.46360560000176,None,,,,,,,,,,,,,,,11005,1,1,2024_May_31_1700,stroop_task_switching2,2021.2.3,60.078715130448636,
condition/block_mixed,instruction/instr_mixed,instruction/i10,,,,,,,,,,,,,,,,,0,2,2,2,,,,,,,,,,,,,,,,,,,,,,,,,,,,,,,,,,,,,,,,,,,,,,,,,,,,,,,,,,,,,,,,,,,,,,,,,,,,,,,,11005,1,1,2024_May_31_1700,stroop_task_switching2,2021.2.3,60.078715130448636,
,,,红,red,d,square,color_mix,单词,,compatible,0,block_switch1,instruction/ready_test.png,instruction/i11.png,,,,,,,,,,,,,,,,,0,0,0,0,0,0,0,0,,,,,,,,,,,,,,,,,,,462.0702487999806,463.07317099999636,463.07317099999636,464.07413169997744,464.07413169997744,None,461.08550970000215,462.0875285999791,465.1092460999789,465.3084935999941,465.29272329999367,465.5928992999834,465.5928992999834,None,466.0944613000029,None,d,1,0.40351460000965744,466.0944613000029,None,None,None,,,,,,,,,459.08269939999445,None,space,1.9833899000077508,459.08269939999445,None,,,,,,,,,11005,1,1,2024_May_31_1700,stroop_task_switching2,2021.2.3,60.078715130448636,
,,,绿,green,k,diamond,color_mix,颜色,,compatible,2,block_switch1,instruction/ready_test.png,instruction/i11.png,,,,,,,,,,,,,,,,,0,0,0,0,0,1,1,1,,,,,,,,,,,,,,,,,,,,,,,,,,,466.52685019999626,466.7272744999791,466.7123146999802,467.0290016999934,467.01307329998235,None,467.51191159998416,None,f,0,1.3627860000124201,467.51191159998416,None,None,None,,,,,,,,,,,,,,,,,,,,,,,11005,1,1,2024_May_31_1700,stroop_task_switching2,2021.2.3,60.078715130448636,
,,,绿,yellow,j,diamond,color_mix,颜色,,incompatible,1,block_switch1,instruction/ready_test.png,instruction/i11.png,,,,,,,,,,,,,,,,,0,0,0,0,0,2,2,2,,,,,,,,,,,,,,,,,,,,,,,,,,,468.8972710999951,469.09820539999055,469.0809963999782,469.3815483999788,469.3815483999788,None,469.8820829000033,None,j,1,1.8323801000078674,469.8820829000033,None,None,None,,,,,,,,,,,,,,,,,,,,,,,11005,1,1,2024_May_31_1700,stroop_task_switching2,2021.2.3,60.078715130448636,
,,,蓝,blue,f,diamond,color_mix,颜色,,compatible,1,block_switch1,instruction/ready_test.png,instruction/i11.png,,,,,,,,,,,,,,,,,0,0,0,0,0,3,3,3,,,,,,,,,,,,,,,,,,,,,,,,,,,471.73488089998136,471.9361863999802,471.9184983999876,472.22050070000114,472.22050070000114,None,472.719551599992,None,f,1,0.7468127000029199,472.719551599992,None,None,None,,,,,,,,,,,,,,,,,,,,,,,11005,1,1,2024_May_31_1700,stroop_task_switching2,2021.2.3,60.078715130448636,
,,,绿,green,k,square,color_mix,单词,,compatible,2,block_switch1,instruction/ready_test.png,instruction/i11.png,,,,,,,,,,,,,,,,,0,0,0,0,0,4,4,4,,,,,,,,,,,,,,,,,,,,,,,,,,,473.4875228999881,473.6885645999864,473.67219049998675,473.9729998999974,473.9729998999974,None,474.47238239998114,None,k,1,0.9460762000235263,474.47238239998114,None,None,None,,,,,,,,,,,,,,,,,,,,,,,11005,1,1,2024_May_31_1700,stroop_task_switching2,2021.2.3,60.078715130448636,
,,,绿,blue,f,diamond,color_mix,颜色,,incompatible,2,block_switch1,instruction/ready_test.png,instruction/i11.png,,,,,,,,,,,,,,,,,0,0,0,0,0,5,5,5,,,,,,,,,,,,,,,,,,,,,,,,,,,475.4403556000034,475.6420073999907,475.62400609999895,475.92554409999866,475.92554409999866,None,476.42591999997967,None,f,1,1.2328174999856856,476.42591999997967,None,None,None,,,,,,,,,,,,,,,,,,,,,,,11005,1,1,2024_May_31_1700,stroop_task_switching2,2021.2.3,60.078715130448636,
,,,黄,red,j,square,color_mix,单词,,incompatible,2,block_switch1,instruction/ready_test.png,instruction/i11.png,,,,,,,,,,,,,,,,,0,0,0,0,0,6,6,6,,,,,,,,,,,,,,,,,,,,,,,,,,,477.6770311,477.8777131999959,477.86090159998275,478.1619659999851,478.1619659999851,None,478.6619942999969,None,j,1,1.3724103999848012,478.6619942999969,None,None,None,,,,,,,,,,,,,,,,,,,,,,,11005,1,1,2024_May_31_1700,stroop_task_switching2,2021.2.3,60.078715130448636,
,,,绿,green,k,square,color_mix,单词,,compatible,1,block_switch1,instruction/ready_test.png,instruction/i11.png,,,,,,,,,,,,,,,,,0,0,0,0,0,7,7,7,,,,,,,,,,,,,,,,,,,,,,,,,,,480.0642009000003,480.2656485000043,480.2476753999945,480.54801149998093,480.54801149998093,None,481.04884949998814,None,k,1,1.1775587000011,481.04884949998814,None,None,None,,,,,,,,,,,,,,,,,,,,,,,11005,1,1,2024_May_31_1700,stroop_task_switching2,2021.2.3,60.078715130448636,
,,,蓝,blue,f,square,color_mix,单词,,compatible,1,block_switch1,instruction/ready_test.png,instruction/i11.png,,,,,,,,,,,,,,,,,0,0,0,0,0,8,8,8,,,,,,,,,,,,,,,,,,,,,,,,,,,482.25049269999727,482.4513545999944,482.434206099977,482.73544259998016,482.73544259998016,None,483.2362596000021,None,f,1,0.9580960999883246,483.2362596000021,None,None,None,,,,,,,,,,,,,,,,,,,,,,,11005,1,1,2024_May_31_1700,stroop_task_switching2,2021.2.3,60.078715130448636,
,,,红,red,d,diamond,color_mix,颜色,,compatible,2,block_switch1,instruction/ready_test.png,instruction/i11.png,,,,,,,,,,,,,,,,,0,0,0,0,0,9,9,9,,,,,,,,,,,,,,,,,,,,,,,,,,,484.22036149998894,484.4204041999765,484.4048509999993,484.70459209999535,484.70459209999535,None,485.2052507000044,None,d,1,0.5252156000060495,485.2052507000044,None,None,None,,,,,,,,,,,,,,,,,,,,,,,11005,1,1,2024_May_31_1700,stroop_task_switching2,2021.2.3,60.078715130448636,
,,,黄,yellow,j,diamond,color_mix,颜色,,compatible,1,block_switch1,instruction/ready_test.png,instruction/i11.png,,,,,,,,,,,,,,,,,0,0,0,0,0,10,10,10,,,,,,,,,,,,,,,,,,,,,,,,,,,485.75586229999317,485.95820549997734,485.93952210000134,486.2408012999804,486.2408012999804,None,486.7408690000011,None,j,1,1.0854450000042561,486.7408690000011,None,None,None,,,,,,,,,,,,,,,,,,,,,,,11005,1,1,2024_May_31_1700,stroop_task_switching2,2021.2.3,60.078715130448636,
,,,绿,green,k,square,color_mix,单词,,compatible,2,block_switch1,instruction/ready_test.png,instruction/i11.png,,,,,,,,,,,,,,,,,0,0,0,0,0,11,11,11,,,,,,,,,,,,,,,,,,,,,,,,,,,487.8424262999906,488.04344359997776,488.02687819997664,488.3272946999932,488.3272946999932,None,488.827188700001,None,k,1,2.2235823000082746,488.827188700001,None,None,None,,,,,,,,,,,,,,,,,,,,,,,11005,1,1,2024_May_31_1700,stroop_task_switching2,2021.2.3,60.078715130448636,
,,,红,red,d,diamond,color_mix,颜色,,compatible,2,block_switch1,instruction/ready_test.png,instruction/i11.png,,,,,,,,,,,,,,,,,0,0,0,0,0,12,12,12,,,,,,,,,,,,,,,,,,,,,,,,,,,491.08077469997806,491.2824304999958,491.2643737999897,491.5672263999877,491.5672263999877,None,492.0822466999816,None,d,1,0.5364033000078052,492.0822466999816,None,None,None,,,,,,,,,,,,,,,,,,,,,,,11005,1,1,2024_May_31_1700,stroop_task_switching2,2021.2.3,60.078715130448636,
,,,红,red,d,diamond,color_mix,颜色,,compatible,1,block_switch1,instruction/ready_test.png,instruction/i11.png,,,,,,,,,,,,,,,,,0,0,0,0,0,13,13,13,,,,,,,,,,,,,,,,,,,,,,,,,,,492.64969319998636,492.85115249999217,492.83320619998267,493.13582989998395,493.13582989998395,None,493.65133379999315,None,d,1,0.5755768999806605,493.65133379999315,None,None,None,,,,,,,,,,,,,,,,,,,,,,,11005,1,1,2024_May_31_1700,stroop_task_switching2,2021.2.3,60.078715130448636,
,,,黄,yellow,j,square,color_mix,单词,,compatible,2,block_switch1,instruction/ready_test.png,instruction/i11.png,,,,,,,,,,,,,,,,,0,0,0,0,0,14,14,14,,,,,,,,,,,,,,,,,,,,,,,,,,,494.2520086999866,494.4526937000046,494.43571719998727,494.7361453999765,494.7361453999765,None,495.23688250000123,None,f,0,0.8776892999885604,495.23688250000123,None,None,None,,,,,,,,,,,,,,,,,,,,,,,11005,1,1,2024_May_31_1700,stroop_task_switching2,2021.2.3,60.078715130448636,
,,,红,green,k,diamond,color_mix,颜色,,incompatible,2,block_switch1,instruction/ready_test.png,instruction/i11.png,,,,,,,,,,,,,,,,,0,0,0,0,0,15,15,15,,,,,,,,,,,,,,,,,,,,,,,,,,,496.1383274999971,496.3384604000021,496.32190349997836,496.6228962999885,496.6228962999885,None,497.1232308000035,None,k,1,1.3436058000079356,497.1232308000035,None,None,None,,,,,,,,,,,,,,,,,,,,,,,11005,1,1,2024_May_31_1700,stroop_task_switching2,2021.2.3,60.078715130448636,
,,,蓝,red,d,diamond,color_mix,颜色,,incompatible,1,block_switch1,instruction/ready_test.png,instruction/i11.png,,,,,,,,,,,,,,,,,0,0,0,0,0,16,16,16,,,,,,,,,,,,,,,,,,,,,,,,,,,498.4919719999889,498.69325599999866,498.6754210999934,498.9766013000044,498.9766013000044,None,499.4766309999977,None,d,1,0.9747810999979265,499.4766309999977,None,None,None,,,,,,,,,,,,,,,,,,,,,,,11005,1,1,2024_May_31_1700,stroop_task_switching2,2021.2.3,60.078715130448636,
,,,黄,green,k,diamond,color_mix,颜色,,incompatible,1,block_switch1,instruction/ready_test.png,instruction/i11.png,,,,,,,,,,,,,,,,,0,0,0,0,0,17,17,17,,,,,,,,,,,,,,,,,,,,,,,,,,,500.4780417000002,500.6786426999897,500.6637716999976,500.96421899998677,500.96421899998677,None,501.4627356999845,None,k,1,1.780334099981701,501.4627356999845,None,None,None,,,,,,,,,,,,,,,,,,,,,,,11005,1,1,2024_May_31_1700,stroop_task_switching2,2021.2.3,60.078715130448636,
,,,绿,green,k,diamond,color_mix,颜色,,compatible,1,block_switch1,instruction/ready_test.png,instruction/i11.png,,,,,,,,,,,,,,,,,0,0,0,0,0,18,18,18,,,,,,,,,,,,,,,,,,,,,,,,,,,503.26571779997903,503.4660294999776,503.44956039998215,503.75010959999054,503.75010959999054,None,504.2504027999821,None,k,1,0.4564788999850862,504.2504027999821,None,None,None,,,,,,,,,,,,,,,,,,,,,,,11005,1,1,2024_May_31_1700,stroop_task_switching2,2021.2.3,60.078715130448636,
,,,黄,red,d,diamond,color_mix,颜色,,incompatible,1,block_switch1,instruction/ready_test.png,instruction/i11.png,,,,,,,,,,,,,,,,,0,0,0,0,0,19,19,19,,,,,,,,,,,,,,,,,,,,,,,,,,,504.7345934000041,504.9349282000039,504.918614299997,505.2205799999938,505.2205799999938,None,505.7198793999851,None,d,1,0.9391474000003655,505.7198793999851,None,None,None,,,,,,,,,,,,,,,,,,,,,,,11005,1,1,2024_May_31_1700,stroop_task_switching2,2021.2.3,60.078715130448636,
,,,绿,yellow,k,square,color_mix,单词,,incompatible,2,block_switch1,instruction/ready_test.png,instruction/i11.png,,,,,,,,,,,,,,,,,0,0,0,0,0,20,20,20,,,,,,,,,,,,,,,,,,,,,,,,,,,506.68746600000304,506.88930690000416,506.8711273999943,507.1716570999997,507.1716570999997,None,507.67256639999687,None,k,1,1.034880700026406,507.67256639999687,None,None,None,,,,,,,,,,,,,,,,,,,,,,,11005,1,1,2024_May_31_1700,stroop_task_switching2,2021.2.3,60.078715130448636,
,,,绿,yellow,j,diamond,color_mix,颜色,,incompatible,2,block_switch1,instruction/ready_test.png,instruction/i11.png,,,,,,,,,,,,,,,,,0,0,0,0,0,21,21,21,,,,,,,,,,,,,,,,,,,,,,,,,,,508.7238849999849,508.92432289998396,508.9083352999878,509.2085905999993,509.2085905999993,None,509.7093737999967,None,j,1,0.9501923999923747,509.7093737999967,None,None,None,,,,,,,,,,,,,,,,,,,,,,,11005,1,1,2024_May_31_1700,stroop_task_switching2,2021.2.3,60.078715130448636,
,,,绿,green,k,square,color_mix,单词,,compatible,2,block_switch1,instruction/ready_test.png,instruction/i11.png,,,,,,,,,,,,,,,,,0,0,0,0,0,22,22,22,,,,,,,,,,,,,,,,,,,,,,,,,,,510.6769923999964,510.87761969998246,510.8608639999875,511.16100989998085,511.16100989998085,None,511.6617072999943,None,k,1,1.661977100011427,511.6617072999943,None,None,None,,,,,,,,,,,,,,,,,,,,,,,11005,1,1,2024_May_31_1700,stroop_task_switching2,2021.2.3,60.078715130448636,
,,,红,red,d,square,color_mix,单词,,compatible,1,block_switch1,instruction/ready_test.png,instruction/i11.png,,,,,,,,,,,,,,,,,0,0,0,0,0,23,23,23,,,,,,,,,,,,,,,,,,,,,,,,,,,513.347612499987,513.5488562999817,513.5311370999843,513.8327764999995,513.8327764999995,None,514.3321894999826,None,d,1,0.5268644000170752,514.3321894999826,None,None,None,,,,,,,,,,,,,,,,,,,,,,,11005,1,1,2024_May_31_1700,stroop_task_switching2,2021.2.3,60.078715130448636,
,,,黄,green,j,square,color_mix,单词,,incompatible,1,block_switch1,instruction/ready_test.png,instruction/i11.png,,,,,,,,,,,,,,,,,0,0,0,0,0,24,24,24,,,,,,,,,,,,,,,,,,,,,,,,,,,514.8833836999838,515.0840571000008,515.0666857000033,515.3686800999858,515.3686800999858,None,515.868295399996,None,k,0,1.7673578999820165,515.868295399996,None,None,None,,,,,,,,,,,,,,,,,,,,,,,11005,1,1,2024_May_31_1700,stroop_task_switching2,2021.2.3,60.078715130448636,
,,,红,blue,d,square,color_mix,单词,,incompatible,1,block_switch1,instruction/ready_test.png,instruction/i11.png,,,,,,,,,,,,,,,,,0,0,0,0,0,25,25,25,,,,,,,,,,,,,,,,,,,,,,,,,,,517.6539408999961,517.854847199982,517.8377659999824,518.1382398999995,518.1382398999995,None,518.6388663999969,None,d,1,0.5405252999917138,518.6388663999969,None,None,None,,,,,,,,,,,,,,,,,,,,,,,11005,1,1,2024_May_31_1700,stroop_task_switching2,2021.2.3,60.078715130448636,
,,,黄,yellow,j,square,color_mix,单词,,compatible,1,block_switch1,instruction/ready_test.png,instruction/i11.png,,,,,,,,,,,,,,,,,0,0,0,0,0,26,26,26,,,,,,,,,,,,,,,,,,,,,,,,,,,519.2070084000006,519.4067982999841,519.3916044999787,519.6910386999953,519.6910386999953,None,520.1914461999841,None,j,1,0.9958175000210758,520.1914461999841,None,None,None,,,,,,,,,,,,,,,,,,,,,,,11005,1,1,2024_May_31_1700,stroop_task_switching2,2021.2.3,60.078715130448636,
,,,蓝,green,f,square,color_mix,单词,,incompatible,1,block_switch1,instruction/ready_test.png,instruction/i11.png,,,,,,,,,,,,,,,,,0,0,0,0,0,27,27,27,,,,,,,,,,,,,,,,,,,,,,,,,,,521.2093917999882,521.4105871999927,521.3930083999876,521.6948933999811,521.6948933999811,None,522.1941487999866,None,f,1,0.9134520000079647,522.1941487999866,None,None,None,,,,,,,,,,,,,,,,,,,,,,,11005,1,1,2024_May_31_1700,stroop_task_switching2,2021.2.3,60.078715130448636,
,,,绿,green,k,diamond,color_mix,颜色,,compatible,2,block_switch1,instruction/ready_test.png,instruction/i11.png,,,,,,,,,,,,,,,,,0,0,0,0,0,28,28,28,,,,,,,,,,,,,,,,,,,,,,,,,,,523.128921399999,523.331059499993,523.3124218999874,523.6153109000006,523.6153109000006,None,524.1307077999809,None,k,1,2.024816199991619,524.1307077999809,None,None,None,,,,,,,,,,,,,,,,,,,,,,,11005,1,1,2024_May_31_1700,stroop_task_switching2,2021.2.3,60.078715130448636,
,,,黄,blue,f,diamond,color_mix,颜色,,incompatible,1,block_switch1,instruction/ready_test.png,instruction/i11.png,,,,,,,,,,,,,,,,,0,0,0,0,0,29,29,29,,,,,,,,,,,,,,,,,,,,,,,,,,,526.1836278999981,526.3839777999965,526.3691303999803,526.6847081999877,526.6690060999827,None,527.168314599985,None,f,1,0.7793739000044297,527.168314599985,None,None,None,,,,,,,,,,,,,,,,,,,,,,,11005,1,1,2024_May_31_1700,stroop_task_switching2,2021.2.3,60.078715130448636,
,,,绿,green,k,diamond,color_mix,颜色,,compatible,1,block_switch1,instruction/ready_test.png,instruction/i11.png,,,,,,,,,,,,,,,,,0,0,0,0,0,30,30,30,,,,,,,,,,,,,,,,,,,,,,,,,,,527.9697314999939,528.1699713999988,528.1548631000041,528.4704188999895,528.4555935999961,None,528.9544111999858,None,k,1,0.8892705000180285,528.9544111999858,None,None,None,,,,,,,,,,,,,,,,,,,,,,,11005,1,1,2024_May_31_1700,stroop_task_switching2,2021.2.3,60.078715130448636,
,,,蓝,blue,f,square,color_mix,单词,,compatible,2,block_switch1,instruction/ready_test.png,instruction/i11.png,,,,,,,,,,,,,,,,,0,0,0,0,0,31,31,31,,,,,,,,,,,,,,,,,,,,,,,,,,,529.872578999988,530.0742587999848,530.0561254999775,530.3571610999934,530.3571610999934,None,530.85708289998,None,f,1,2.3635124000138603,530.85708289998,None,None,None,,,,,,,,,,,,,,,,,,,,,,,11005,1,1,2024_May_31_1700,stroop_task_switching2,2021.2.3,60.078715130448636,
,,,红,red,d,square,color_mix,单词,,compatible,1,block_switch1,instruction/ready_test.png,instruction/i11.png,,,,,,,,,,,,,,,,,0,0,0,0,0,32,32,32,,,,,,,,,,,,,,,,,,,,,,,,,,,533.2442746000015,533.4449126999825,533.4290090999857,533.7293336000002,533.7293336000002,None,534.2291272000002,None,d,1,0.45466920000035316,534.2291272000002,None,None,None,,,,,,,,,,,,,,,,,,,,,,,11005,1,1,2024_May_31_1700,stroop_task_switching2,2021.2.3,60.078715130448636,
,,,红,green,d,square,color_mix,单词,,incompatible,1,block_switch1,instruction/ready_test.png,instruction/i11.png,,,,,,,,,,,,,,,,,0,0,0,0,0,33,33,33,,,,,,,,,,,,,,,,,,,,,,,,,,,534.7130174999766,534.9148855999811,534.8968389999936,535.1977724999888,535.1977724999888,None,535.6985371999908,None,d,1,0.7853209000022616,535.6985371999908,None,None,None,,,,,,,,,,,,,,,,,,,,,,,11005,1,1,2024_May_31_1700,stroop_task_switching2,2021.2.3,60.078715130448636,
,,,黄,yellow,j,diamond,color_mix,颜色,,compatible,2,block_switch1,instruction/ready_test.png,instruction/i11.png,,,,,,,,,,,,,,,,,0,0,0,0,0,34,34,34,,,,,,,,,,,,,,,,,,,,,,,,,,,536.4991024000046,536.7005455000035,536.6827274999814,536.9837947999767,536.9837947999767,None,537.4840352000028,None,j,1,0.9196541999990586,537.4840352000028,None,None,None,,,,,,,,,,,,,,,,,,,,,,,11005,1,1,2024_May_31_1700,stroop_task_switching2,2021.2.3,60.078715130448636,
,,,红,green,k,diamond,color_mix,颜色,,incompatible,1,block_switch1,instruction/ready_test.png,instruction/i11.png,,,,,,,,,,,,,,,,,0,0,0,0,0,35,35,35,,,,,,,,,,,,,,,,,,,,,,,,,,,538.4354601999803,538.6356049999886,538.6190218999982,538.920404799981,538.920404799981,None,539.4201961999934,None,k,1,0.9839305999921635,539.4201961999934,None,None,None,,,,,,,,,,,,,,,,,,,,,,,11005,1,1,2024_May_31_1700,stroop_task_switching2,2021.2.3,60.078715130448636,
,,,黄,yellow,j,square,color_mix,单词,,compatible,2,block_switch1,instruction/ready_test.png,instruction/i11.png,,,,,,,,,,,,,,,,,0,0,0,0,0,36,36,36,,,,,,,,,,,,,,,,,,,,,,,,,,,540.421692599979,540.6226782999875,540.6060526999936,540.9065916999825,540.9065916999825,None,541.4066253999772,None,k,0,2.3181057999900077,541.4066253999772,None,None,None,,,,,,,,,,,,,,,,,,,,,,,11005,1,1,2024_May_31_1700,stroop_task_switching2,2021.2.3,60.078715130448636,
,,,蓝,blue,f,square,color_mix,单词,,compatible,1,block_switch1,instruction/ready_test.png,instruction/i11.png,,,,,,,,,,,,,,,,,0,0,0,0,0,37,37,37,,,,,,,,,,,,,,,,,,,,,,,,,,,543.743383699999,543.9445411999768,543.9271053999837,544.228515499999,544.228515499999,None,544.7282755999768,None,f,1,1.451785999990534,544.7282755999768,None,None,None,,,,,,,,,,,,,,,,,,,,,,,11005,1,1,2024_May_31_1700,stroop_task_switching2,2021.2.3,60.078715130448636,
,,,绿,red,d,diamond,color_mix,颜色,,incompatible,2,block_switch1,instruction/ready_test.png,instruction/i11.png,,,,,,,,,,,,,,,,,0,0,0,0,0,38,38,38,,,,,,,,,,,,,,,,,,,,,,,,,,,546.1970998999896,546.3973231999844,546.3813463999832,546.6821347999794,546.6821347999794,None,547.1820852999808,None,d,1,0.6218544000003021,547.1820852999808,None,None,None,,,,,,,,,,,,,,,,,,,,,,,11005,1,1,2024_May_31_1700,stroop_task_switching2,2021.2.3,60.078715130448636,
,,,黄,yellow,j,diamond,color_mix,颜色,,compatible,1,block_switch1,instruction/ready_test.png,instruction/i11.png,,,,,,,,,,,,,,,,,0,0,0,0,0,39,39,39,,,,,,,,,,,,,,,,,,,,,,,,,,,547.8329281999904,548.0334255000053,548.0168079999858,548.3170441999973,548.3170441999973,None,548.8176281999913,None,j,1,0.9948239999939688,548.8176281999913,None,None,None,,,,,,,,,,,,,,,,,,,,,,,11005,1,1,2024_May_31_1700,stroop_task_switching2,2021.2.3,60.078715130448636,
,,,红,blue,f,diamond,color_mix,颜色,,incompatible,1,block_switch1,instruction/ready_test.png,instruction/i11.png,,,,,,,,,,,,,,,,,0,0,0,0,0,40,40,40,,,,,,,,,,,,,,,,,,,,,,,,,,,549.8359573000052,550.0362150000001,550.0194900999777,550.3204043000005,550.3204043000005,None,550.8218728999782,None,f,1,0.7902344999893103,550.8218728999782,None,None,None,,,,,,,,,,,,,,,,,,,,,,,11005,1,1,2024_May_31_1700,stroop_task_switching2,2021.2.3,60.078715130448636,
,,,绿,blue,k,square,color_mix,单词,,incompatible,2,block_switch1,instruction/ready_test.png,instruction/i11.png,,,,,,,,,,,,,,,,,0,0,0,0,0,41,41,41,,,,,,,,,,,,,,,,,,,,,,,,,,,551.6385199999786,551.8389448999951,551.8226835999812,552.1235531999846,552.1235531999846,None,552.6234597000002,None,k,1,0.764758500008611,552.6234597000002,None,None,None,,,,,,,,,,,,,,,,,,,,,,,11005,1,1,2024_May_31_1700,stroop_task_switching2,2021.2.3,60.078715130448636,
,,,蓝,blue,f,diamond,color_mix,颜色,,compatible,2,block_switch1,instruction/ready_test.png,instruction/i11.png,,,,,,,,,,,,,,,,,0,0,0,0,0,42,42,42,,,,,,,,,,,,,,,,,,,,,,,,,,,553.4078550999984,553.6097714999923,553.5915305999806,553.892678299977,553.892678299977,None,554.3927609999955,None,f,1,0.9796071999880951,554.3927609999955,None,None,None,,,,,,,,,,,,,,,,,,,,,,,11005,1,1,2024_May_31_1700,stroop_task_switching2,2021.2.3,60.078715130448636,
,,,红,blue,d,square,color_mix,单词,,incompatible,2,block_switch1,instruction/ready_test.png,instruction/i11.png,,,,,,,,,,,,,,,,,0,0,0,0,0,43,43,43,,,,,,,,,,,,,,,,,,,,,,,,,,,555.3942135999969,555.5962713999907,555.5778816999809,555.8784312999924,555.8784312999924,None,556.3792727999971,None,d,1,0.553156099980697,556.3792727999971,None,None,None,,,,,,,,,,,,,,,,,,,,,,,11005,1,1,2024_May_31_1700,stroop_task_switching2,2021.2.3,60.078715130448636,
,,,蓝,green,k,diamond,color_mix,颜色,,incompatible,2,block_switch1,instruction/ready_test.png,instruction/i11.png,,,,,,,,,,,,,,,,,0,0,0,0,0,44,44,44,,,,,,,,,,,,,,,,,,,,,,,,,,,556.9633175999916,557.1643775999837,557.1469608999905,557.4475908000022,557.4475908000022,None,557.948315799993,None,k,1,0.808135700004641,557.948315799993,None,None,None,,,,,,,,,,,,,,,,,,,,,,,11005,1,1,2024_May_31_1700,stroop_task_switching2,2021.2.3,60.078715130448636,
,,,黄,yellow,j,square,color_mix,单词,,compatible,2,block_switch1,instruction/ready_test.png,instruction/i11.png,,,,,,,,,,,,,,,,,0,0,0,0,0,45,45,45,,,,,,,,,,,,,,,,,,,,,,,,,,,558.7826811999839,558.9844164999959,558.9662726999959,559.2667299000022,559.2667299000022,None,559.7675886999932,None,j,1,1.6047047000029124,559.7675886999932,None,None,None,,,,,,,,,,,,,,,,,,,,,,,11005,1,1,2024_May_31_1700,stroop_task_switching2,2021.2.3,60.078715130448636,
,,,黄,yellow,j,diamond,color_mix,颜色,,compatible,2,block_switch1,instruction/ready_test.png,instruction/i11.png,,,,,,,,,,,,,,,,,0,0,0,0,0,46,46,46,,,,,,,,,,,,,,,,,,,,,,,,,,,561.4033019999915,561.6037204999884,561.5874938000052,561.8894232999883,561.8894232999883,None,562.388117800001,None,j,1,0.5848993000108749,562.388117800001,None,None,None,,,,,,,,,,,,,,,,,,,,,,,11005,1,1,2024_May_31_1700,stroop_task_switching2,2021.2.3,60.078715130448636,
,,,绿,red,k,square,color_mix,单词,,incompatible,2,block_switch1,instruction/ready_test.png,instruction/i11.png,,,,,,,,,,,,,,,,,0,0,0,0,0,47,47,47,,,,,,,,,,,,,,,,,,,,,,,,,,,562.9891602999996,563.1899871999922,563.1739183999889,563.4731189000013,563.4731189000013,None,563.973995599983,None,d,0,0.6544549000100233,563.973995599983,None,None,None,,,,,,,,,,,,,,,,,,,,,,,11005,1,1,2024_May_31_1700,stroop_task_switching2,2021.2.3,60.078715130448636,
,,,红,red,d,diamond,color_mix,颜色,,compatible,2,block_switch1,instruction/ready_test.png,instruction/i11.png,,,,,,,,,,,,,,,,,0,0,0,0,0,48,48,48,,,,,,,,,,,,,,,,,,,,,,,,,,,564.6414317000017,564.8421420999803,564.8261057999916,565.126002999983,565.126002999983,None,565.626426999981,None,d,1,0.7143343999923673,565.626426999981,None,None,None,,,,,,,,,,,,,,,,,,,,,,,11005,1,1,2024_May_31_1700,stroop_task_switching2,2021.2.3,60.078715130448636,
,,,蓝,blue,f,diamond,color_mix,颜色,,compatible,1,block_switch1,instruction/ready_test.png,instruction/i11.png,,,,,,,,,,,,,,,,,0,0,0,0,0,49,49,49,,,,,,,,,,,,,,,,,,,,,,,,,,,566.3609286999854,566.561822299991,566.5445334999822,566.8457508999854,566.8457508999854,None,567.3455092999793,None,f,1,1.0672320000012405,567.3455092999793,None,None,None,,,,,,,,,,,,,,,,,,,,,,,11005,1,1,2024_May_31_1700,stroop_task_switching2,2021.2.3,60.078715130448636,
,,,黄,yellow,j,diamond,color_mix,颜色,,compatible,1,block_switch1,instruction/ready_test.png,instruction/i11.png,,,,,,,,,,,,,,,,,0,0,0,0,0,50,50,50,,,,,,,,,,,,,,,,,,,,,,,,,,,568.430434799986,568.6309198999952,568.6154300000053,568.9147471000033,568.9147471000033,None,569.4154556999856,None,j,1,0.7017424999794457,569.4154556999856,None,None,None,,,,,,,,,,,,,,,,,,,,,,,11005,1,1,2024_May_31_1700,stroop_task_switching2,2021.2.3,60.078715130448636,
,,,红,blue,f,diamond,color_mix,颜色,,incompatible,1,block_switch1,instruction/ready_test.png,instruction/i11.png,,,,,,,,,,,,,,,,,0,0,0,0,0,51,51,51,,,,,,,,,,,,,,,,,,,,,,,,,,,570.133242299984,570.3336923999886,570.3169782999903,570.6182352000033,570.6182352000033,None,571.1180421999888,None,d,0,0.6628109000157565,571.1180421999888,None,None,None,,,,,,,,,,,,,,,,,,,,,,,11005,1,1,2024_May_31_1700,stroop_task_switching2,2021.2.3,60.078715130448636,
,,,蓝,yellow,j,diamond,color_mix,颜色,,incompatible,1,block_switch1,instruction/ready_test.png,instruction/i11.png,,,,,,,,,,,,,,,,,0,0,0,0,0,52,52,52,,,,,,,,,,,,,,,,,,,,,,,,,,,571.8025573999912,572.005430899997,571.9876625000034,572.3031740000006,572.286500199989,None,572.7871726999874,None,j,1,0.8497362999769393,572.7871726999874,None,None,None,,,,,,,,,,,,,,,,,,,,,,,11005,1,1,2024_May_31_1700,stroop_task_switching2,2021.2.3,60.078715130448636,
,,,黄,blue,j,square,color_mix,单词,,incompatible,2,block_switch1,instruction/ready_test.png,instruction/i11.png,,,,,,,,,,,,,,,,,0,0,0,0,0,53,53,53,,,,,,,,,,,,,,,,,,,,,,,,,,,573.6556296999916,573.8562375000038,573.83874929999,574.139256399998,574.139256399998,None,574.640807799995,None,j,1,0.7401652999978978,574.640807799995,None,None,None,,,,,,,,,,,,,,,,,,,,,,,11005,1,1,2024_May_31_1700,stroop_task_switching2,2021.2.3,60.078715130448636,
,,,蓝,blue,f,diamond,color_mix,颜色,,compatible,2,block_switch1,instruction/ready_test.png,instruction/i11.png,,,,,,,,,,,,,,,,,0,0,0,0,0,54,54,54,,,,,,,,,,,,,,,,,,,,,,,,,,,575.4076749999949,575.6084859999828,575.5914669999911,575.8926917999925,575.8926917999925,None,576.3930207999947,None,f,1,1.4679080999922007,576.3930207999947,None,None,None,,,,,,,,,,,,,,,,,,,,,,,11005,1,1,2024_May_31_1700,stroop_task_switching2,2021.2.3,60.078715130448636,
,,,红,yellow,d,square,color_mix,单词,,incompatible,2,block_switch1,instruction/ready_test.png,instruction/i11.png,,,,,,,,,,,,,,,,,0,0,0,0,0,55,55,55,,,,,,,,,,,,,,,,,,,,,,,,,,,577.8782267999777,578.0788723999867,578.0617015000025,578.3632485999842,578.3632485999842,None,578.8629060999956,None,d,1,0.5341269999917131,578.8629060999956,None,None,None,,,,,,,,,,,,,,,,,,,,,,,11005,1,1,2024_May_31_1700,stroop_task_switching2,2021.2.3,60.078715130448636,
,,,蓝,red,f,square,color_mix,单词,,incompatible,1,block_switch1,instruction/ready_test.png,instruction/i11.png,,,,,,,,,,,,,,,,,0,0,0,0,0,56,56,56,,,,,,,,,,,,,,,,,,,,,,,,,,,579.4139556000009,579.6147637999966,579.5974756999931,579.8995941999892,579.8995941999892,None,580.3987530999875,None,f,1,1.0625623000087216,580.3987530999875,None,None,None,,,,,,,,,,,,,,,,,,,,,,,11005,1,1,2024_May_31_1700,stroop_task_switching2,2021.2.3,60.078715130448636,
,,,蓝,blue,f,square,color_mix,单词,,compatible,1,block_switch1,instruction/ready_test.png,instruction/i11.png,,,,,,,,,,,,,,,,,0,0,0,0,0,57,57,57,,,,,,,,,,,,,,,,,,,,,,,,,,,581.4835201999813,581.6845577999775,581.6683122999966,581.9680066999863,581.9680066999863,None,582.4687214999867,None,f,1,0.8882398999994621,582.4687214999867,None,None,None,,,,,,,,,,,,,,,,,,,,,,,11005,1,1,2024_May_31_1700,stroop_task_switching2,2021.2.3,60.078715130448636,
,,,蓝,red,d,diamond,color_mix,颜色,,incompatible,2,block_switch1,instruction/ready_test.png,instruction/i11.png,,,,,,,,,,,,,,,,,0,0,0,0,0,58,58,58,,,,,,,,,,,,,,,,,,,,,,,,,,,583.3865449999867,583.5883220999967,583.5709450999857,583.8717951999861,583.8717951999861,None,584.3713304999983,None,d,1,0.6258629999938421,584.3713304999983,None,None,None,,,,,,,,,,,,,,,,,,,,,,,11005,1,1,2024_May_31_1700,stroop_task_switching2,2021.2.3,60.078715130448636,
,,,绿,green,k,diamond,color_mix,颜色,,compatible,1,block_switch1,instruction/ready_test.png,instruction/i11.png,,,,,,,,,,,,,,,,,0,0,0,0,0,59,59,59,,,,,,,,,,,,,,,,,,,,,,,,,,,585.0222883999813,585.2231912999996,585.2061140000005,585.5074724000006,585.5074724000006,None,586.0072210999788,None,k,1,1.7504756999842357,586.0072210999788,None,None,None,,,,,,,,,,,,,,,,,,,,,,,11005,1,1,2024_May_31_1700,stroop_task_switching2,2021.2.3,60.078715130448636,
,,,蓝,blue,f,diamond,color_mix,颜色,,compatible,1,block_switch1,instruction/ready_test.png,instruction/i11.png,,,,,,,,,,,,,,,,,0,0,0,0,0,60,60,60,,,,,,,,,,,,,,,,,,,,,,,,,,,587.7764221999969,587.977155999979,587.9600663000019,588.2634894999792,588.2634894999792,None,588.7613451999787,None,f,1,1.100220000022091,588.7613451999787,None,None,None,,,,,,,,,,,,,,,,,,,,,,,11005,1,1,2024_May_31_1700,stroop_task_switching2,2021.2.3,60.078715130448636,
,,,黄,yellow,j,square,color_mix,单词,,compatible,2,block_switch1,instruction/ready_test.png,instruction/i11.png,,,,,,,,,,,,,,,,,0,0,0,0,0,61,61,61,,,,,,,,,,,,,,,,,,,,,,,,,,,589.8796024000039,590.0809919000021,590.064123899996,590.3636949999782,590.3636949999782,None,590.8644493999891,None,j,1,1.4368694000004325,590.8644493999891,None,None,None,,,,,,,,,,,,,,,,,,,,,,,11005,1,1,2024_May_31_1700,stroop_task_switching2,2021.2.3,60.078715130448636,
,,,绿,blue,k,square,color_mix,单词,,incompatible,1,block_switch1,instruction/ready_test.png,instruction/i11.png,,,,,,,,,,,,,,,,,0,0,0,0,0,62,62,62,,,,,,,,,,,,,,,,,,,,,,,,,,,592.3168984999938,592.5170557999809,592.5005297999887,592.8006254999782,592.8006254999782,None,593.3016255999974,None,k,1,1.7198780000035185,593.3016255999974,None,None,None,,,,,,,,,,,,,,,,,,,,,,,11005,1,1,2024_May_31_1700,stroop_task_switching2,2021.2.3,60.078715130448636,
,,,蓝,yellow,f,square,color_mix,单词,,incompatible,1,block_switch1,instruction/ready_test.png,instruction/i11.png,,,,,,,,,,,,,,,,,0,0,0,0,0,63,63,63,,,,,,,,,,,,,,,,,,,,,,,,,,,595.0372371999838,595.2395350000006,595.2209641999798,595.5237209000043,595.5237209000043,None,596.0225264999899,None,f,1,0.9750523999973666,596.0225264999899,None,None,None,,,,,,,,,,,,,,,,,,,,,,,11005,1,1,2024_May_31_1700,stroop_task_switching2,2021.2.3,60.078715130448636,
,,,黄,yellow,j,diamond,color_mix,颜色,,compatible,2,block_switch1,instruction/ready_test.png,instruction/i11.png,,,,,,,,,,,,,,,,,0,0,0,0,0,64,64,64,,,,,,,,,,,,,,,,,,,,,,,,,,,597.0238240000035,597.2252322999993,597.2073544999876,597.5085520999855,597.5085520999855,None,598.0095920999884,None,j,1,0.7960477999877185,598.0095920999884,None,None,None,,,,,,,,,,,,,,,,,,,,,,,11005,1,1,2024_May_31_1700,stroop_task_switching2,2021.2.3,60.078715130448636,
,,,蓝,green,k,diamond,color_mix,颜色,,incompatible,1,block_switch1,instruction/ready_test.png,instruction/i11.png,,,,,,,,,,,,,,,,,0,0,0,0,0,65,65,65,,,,,,,,,,,,,,,,,,,,,,,,,,,598.8265934999799,599.0270847999782,599.0104998000024,599.3104122999939,599.3104122999939,None,599.8112261999922,None,k,1,1.154451299982611,599.8112261999922,None,None,None,,,,,,,,,,,,,,,,,,,,,,,11005,1,1,2024_May_31_1700,stroop_task_switching2,2021.2.3,60.078715130448636,
,,,红,red,d,diamond,color_mix,颜色,,compatible,1,block_switch1,instruction/ready_test.png,instruction/i11.png,,,,,,,,,,,,,,,,,0,0,0,0,0,66,66,66,,,,,,,,,,,,,,,,,,,,,,,,,,,600.9795930999971,601.1815490000008,601.1652752999798,601.4808763999899,601.465375300002,None,601.9643539999961,None,d,1,0.6414027999853715,601.9643539999961,None,None,None,,,,,,,,,,,,,,,,,,,,,,,11005,1,1,2024_May_31_1700,stroop_task_switching2,2021.2.3,60.078715130448636,
,,,蓝,yellow,f,square,color_mix,单词,,incompatible,2,block_switch1,instruction/ready_test.png,instruction/i11.png,,,,,,,,,,,,,,,,,0,0,0,0,0,67,67,67,,,,,,,,,,,,,,,,,,,,,,,,,,,602.6321586999984,602.8325234999938,602.8164238999889,603.1173701999942,603.1173701999942,None,603.6180493999855,None,f,1,0.7076620000007097,603.6180493999855,None,None,None,,,,,,,,,,,,,,,,,,,,,,,11005,1,1,2024_May_31_1700,stroop_task_switching2,2021.2.3,60.078715130448636,
,,,红,yellow,d,square,color_mix,单词,,incompatible,1,block_switch1,instruction/ready_test.png,instruction/i11.png,,,,,,,,,,,,,,,,,0,0,0,0,0,68,68,68,,,,,,,,,,,,,,,,,,,,,,,,,,,604.3514949999808,604.5517240999907,604.5361021999852,604.8355944999785,604.8355944999785,None,605.3364484999911,None,d,1,0.6854488000099082,605.3364484999911,None,None,None,,,,,,,,,,,,,,,,,,,,,,,11005,1,1,2024_May_31_1700,stroop_task_switching2,2021.2.3,60.078715130448636,
,,,红,yellow,j,diamond,color_mix,颜色,,incompatible,2,block_switch1,instruction/ready_test.png,instruction/i11.png,,,,,,,,,,,,,,,,,0,0,0,0,0,69,69,69,,,,,,,,,,,,,,,,,,,,,,,,,,,606.0373351000017,606.2389302999945,606.2224381999986,606.5223221999768,606.5223221999768,None,607.0227386000042,None,j,1,1.0470198999973945,607.0227386000042,None,None,None,,,,,,,,,,,,,,,,,,,,,,,11005,1,1,2024_May_31_1700,stroop_task_switching2,2021.2.3,60.078715130448636,
,,,蓝,green,f,square,color_mix,单词,,incompatible,2,block_switch1,instruction/ready_test.png,instruction/i11.png,,,,,,,,,,,,,,,,,0,0,0,0,0,70,70,70,,,,,,,,,,,,,,,,,,,,,,,,,,,608.0904637999774,608.2909642999875,608.2763628999819,608.5745655999926,608.5745655999926,None,609.0751865999773,None,f,1,1.8027086999791209,609.0751865999773,None,None,None,,,,,,,,,,,,,,,,,,,,,,,11005,1,1,2024_May_31_1700,stroop_task_switching2,2021.2.3,60.078715130448636,
,,,绿,yellow,k,square,color_mix,单词,,incompatible,1,block_switch1,instruction/ready_test.png,instruction/i11.png,,,,,,,,,,,,,,,,,0,0,0,0,0,71,71,71,,,,,,,,,,,,,,,,,,,,,,,,,,,610.8946797999961,611.0959520000033,611.0781890999933,611.3805683999963,611.3805683999963,None,611.8803480999777,None,k,1,0.7181349000020418,611.8803480999777,None,None,None,,,,,,,,,,,,,,,,,,,,,,,11005,1,1,2024_May_31_1700,stroop_task_switching2,2021.2.3,60.078715130448636,
,,,蓝,yellow,j,diamond,color_mix,颜色,,incompatible,2,block_switch1,instruction/ready_test.png,instruction/i11.png,,,,,,,,,,,,,,,,,0,0,0,0,0,72,72,72,,,,,,,,,,,,,,,,,,,,,,,,,,,612.6138901999802,612.8153004999913,612.7978437999845,613.0982335000008,613.0982335000008,None,613.5990717999812,None,j,1,1.4148677999910433,613.5990717999812,None,None,None,,,,,,,,,,,,,,,,,,,,,,,11005,1,1,2024_May_31_1700,stroop_task_switching2,2021.2.3,60.078715130448636,
,,,红,green,d,square,color_mix,单词,,incompatible,2,block_switch1,instruction/ready_test.png,instruction/i11.png,,,,,,,,,,,,,,,,,0,0,0,0,0,73,73,73,,,,,,,,,,,,,,,,,,,,,,,,,,,615.0341686999891,615.2359936999856,615.2178809999896,615.5184869999939,615.5184869999939,None,616.019762699987,None,d,1,0.6185736999905203,616.019762699987,None,None,None,,,,,,,,,,,,,,,,,,,,,,,11005,1,1,2024_May_31_1700,stroop_task_switching2,2021.2.3,60.078715130448636,
,,,绿,blue,f,diamond,color_mix,颜色,,incompatible,2,block_switch1,instruction/ready_test.png,instruction/i11.png,,,,,,,,,,,,,,,,,0,0,0,0,0,74,74,74,,,,,,,,,,,,,,,,,,,,,,,,,,,616.6534694999864,616.8534761999908,616.8379906000046,617.1372816999792,617.1372816999792,None,617.6382717999804,None,f,1,1.0796842999989167,617.6382717999804,None,None,None,,,,,,,,,,,,,,,,,,,,,,,11005,1,1,2024_May_31_1700,stroop_task_switching2,2021.2.3,60.078715130448636,
,,,红,red,d,square,color_mix,单词,,compatible,2,block_switch1,instruction/ready_test.png,instruction/i11.png,,,,,,,,,,,,,,,,,0,0,0,0,0,75,75,75,,,,,,,,,,,,,,,,,,,,,,,,,,,618.7398297000036,618.9406243999838,618.9233151999942,619.2245454999793,619.2245454999793,None,619.7246455999848,None,d,1,0.7856192999752238,619.7246455999848,None,None,None,,,,,,,,,,,,,,,,,,,,,,,11005,1,1,2024_May_31_1700,stroop_task_switching2,2021.2.3,60.078715130448636,
,,,绿,green,k,diamond,color_mix,颜色,,compatible,2,block_switch1,instruction/ready_test.png,instruction/i11.png,,,,,,,,,,,,,,,,,0,0,0,0,0,76,76,76,,,,,,,,,,,,,,,,,,,,,,,,,,,620.5258041999768,620.726903999981,620.7105239999946,621.0111991000012,621.0111991000012,None,621.5113878999837,None,k,1,1.110924000007799,621.5113878999837,None,None,None,,,,,,,,,,,,,,,,,,,,,,,11005,1,1,2024_May_31_1700,stroop_task_switching2,2021.2.3,60.078715130448636,
,,,黄,red,j,square,color_mix,单词,,incompatible,2,block_switch1,instruction/ready_test.png,instruction/i11.png,,,,,,,,,,,,,,,,,0,0,0,0,0,77,77,77,,,,,,,,,,,,,,,,,,,,,,,,,,,622.6456238999963,622.8464910000039,622.8310778999876,623.1315259999828,623.1315259999828,None,623.6313655999838,None,j,1,1.9029879000154324,623.6313655999838,None,None,None,,,,,,,,,,,,,,,,,,,,,,,11005,1,1,2024_May_31_1700,stroop_task_switching2,2021.2.3,60.078715130448636,
,,,红,red,d,square,color_mix,单词,,compatible,1,block_switch1,instruction/ready_test.png,instruction/i11.png,,,,,,,,,,,,,,,,,0,0,0,0,0,78,78,78,,,,,,,,,,,,,,,,,,,,,,,,,,,625.550123699999,625.7509903000027,625.7338486999797,626.0348251999822,626.0348251999822,None,626.535143999994,None,d,1,1.2551700999902096,626.535143999994,None,None,None,,,,,,,,,,,,,,,,,,,,,,,11005,1,1,2024_May_31_1700,stroop_task_switching2,2021.2.3,60.078715130448636,
,,,黄,yellow,j,square,color_mix,单词,,compatible,1,block_switch1,instruction/ready_test.png,instruction/i11.png,,,,,,,,,,,,,,,,,0,0,0,0,0,79,79,79,,,,,,,,,,,,,,,,,,,,,,,,,,,627.8202438000008,628.0204546999885,628.0051197999856,628.3048640999768,628.3048640999768,None,628.804947800003,None,j,1,0.7541772999975365,628.804947800003,None,None,None,,,,,,,,,,,,,,,,,,,,,,,11005,1,1,2024_May_31_1700,stroop_task_switching2,2021.2.3,60.078715130448636,
,,,红,red,d,diamond,color_mix,颜色,,compatible,2,block_switch1,instruction/ready_test.png,instruction/i11.png,,,,,,,,,,,,,,,,,0,0,0,0,0,80,80,80,,,,,,,,,,,,,,,,,,,,,,,,,,,629.5894897999824,629.7907844999863,629.7731645999884,630.0740291999828,630.0740291999828,None,630.5745400000014,None,d,1,0.5599565999873448,630.5745400000014,None,None,None,,,,,,,,,,,,,,,,,,,,,,,11005,1,1,2024_May_31_1700,stroop_task_switching2,2021.2.3,60.078715130448636,
,,,红,red,d,square,color_mix,单词,,compatible,2,block_switch1,instruction/ready_test.png,instruction/i11.png,,,,,,,,,,,,,,,,,0,0,0,0,0,81,81,81,,,,,,,,,,,,,,,,,,,,,,,,,,,631.1585310999944,631.3586912000028,631.3439076999784,631.6600591999886,631.6443452999811,None,632.1451776000031,None,d,1,0.9573519000259694,632.1451776000031,None,None,None,,,,,,,,,,,,,,,,,,,,,,,11005,1,1,2024_May_31_1700,stroop_task_switching2,2021.2.3,60.078715130448636,
,,,黄,blue,f,diamond,color_mix,颜色,,incompatible,2,block_switch1,instruction/ready_test.png,instruction/i11.png,,,,,,,,,,,,,,,,,0,0,0,0,0,82,82,82,,,,,,,,,,,,,,,,,,,,,,,,,,,633.1284597999766,633.3300815999974,633.3119775999803,633.6124314999906,633.6124314999906,None,634.1128071999992,None,f,1,0.7498747000063304,634.1128071999992,None,None,None,,,,,,,,,,,,,,,,,,,,,,,11005,1,1,2024_May_31_1700,stroop_task_switching2,2021.2.3,60.078715130448636,
,,,红,yellow,j,diamond,color_mix,颜色,,incompatible,1,block_switch1,instruction/ready_test.png,instruction/i11.png,,,,,,,,,,,,,,,,,0,0,0,0,0,83,83,83,,,,,,,,,,,,,,,,,,,,,,,,,,,634.8810062999837,635.0819868999824,635.0664065000019,635.3830088999821,635.3649374999804,None,635.8656749999791,None,j,1,1.1570417000039015,635.8656749999791,None,None,None,,,,,,,,,,,,,,,,,,,,,,,11005,1,1,2024_May_31_1700,stroop_task_switching2,2021.2.3,60.078715130448636,
,,,黄,red,d,diamond,color_mix,颜色,,incompatible,1,block_switch1,instruction/ready_test.png,instruction/i11.png,,,,,,,,,,,,,,,,,0,0,0,0,0,84,84,84,,,,,,,,,,,,,,,,,,,,,,,,,,,637.0504298000014,637.2517860999797,637.2351318000001,637.5358659999911,637.5358659999911,None,638.0356970999856,None,d,1,0.6188063999870792,638.0356970999856,None,None,None,,,,,,,,,,,,,,,,,,,,,,,11005,1,1,2024_May_31_1700,stroop_task_switching2,2021.2.3,60.078715130448636,
,,,蓝,blue,f,square,color_mix,单词,,compatible,2,block_switch1,instruction/ready_test.png,instruction/i11.png,,,,,,,,,,,,,,,,,0,0,0,0,0,85,85,85,,,,,,,,,,,,,,,,,,,,,,,,,,,638.6695995999908,638.8702630999906,638.8545850999944,639.154492599977,639.154492599977,None,639.655555299978,None,f,1,1.0231589000031818,639.655555299978,None,None,None,,,,,,,,,,,,,,,,,,,,,,,11005,1,1,2024_May_31_1700,stroop_task_switching2,2021.2.3,60.078715130448636,
,,,绿,green,k,square,color_mix,单词,,compatible,1,block_switch1,instruction/ready_test.png,instruction/i11.png,,,,,,,,,,,,,,,,,0,0,0,0,0,86,86,86,,,,,,,,,,,,,,,,,,,,,,,,,,,640.7061452999769,640.9069653000042,640.8899116999819,641.1906982999935,641.1906982999935,None,641.6912265999999,None,k,1,1.8278048999782186,641.6912265999999,None,None,None,,,,,,,,,,,,,,,,,,,,,,,11005,1,1,2024_May_31_1700,stroop_task_switching2,2021.2.3,60.078715130448636,
,,,红,red,d,square,color_mix,单词,,compatible,1,block_switch1,instruction/ready_test.png,instruction/i11.png,,,,,,,,,,,,,,,,,0,0,0,0,0,87,87,87,,,,,,,,,,,,,,,,,,,,,,,,,,,643.543871300004,643.7450836999924,643.7274963999807,644.0288777999813,644.0288777999813,None,644.5287882999983,None,d,1,1.078074099990772,644.5287882999983,None,None,None,,,,,,,,,,,,,,,,,,,,,,,11005,1,1,2024_May_31_1700,stroop_task_switching2,2021.2.3,60.078715130448636,
,,,黄,green,k,diamond,color_mix,颜色,,incompatible,2,block_switch1,instruction/ready_test.png,instruction/i11.png,,,,,,,,,,,,,,,,,0,0,0,0,0,88,88,88,,,,,,,,,,,,,,,,,,,,,,,,,,,645.6303401000041,645.8314967000042,645.8152902000002,646.1145027999883,646.1145027999883,None,646.615156099986,None,k,1,1.119746300013503,646.615156099986,None,None,None,,,,,,,,,,,,,,,,,,,,,,,11005,1,1,2024_May_31_1700,stroop_task_switching2,2021.2.3,60.078715130448636,
,,,绿,red,k,square,color_mix,单词,,incompatible,2,block_switch1,instruction/ready_test.png,instruction/i11.png,,,,,,,,,,,,,,,,,0,0,0,0,0,89,89,89,,,,,,,,,,,,,,,,,,,,,,,,,,,647.7501574999769,647.9516949999961,647.9338310000021,648.2341711999907,648.2341711999907,None,648.7359288999869,None,k,1,1.8792924000008497,648.7359288999869,None,None,None,,,,,,,,,,,,,,,,,,,,,,,11005,1,1,2024_May_31_1700,stroop_task_switching2,2021.2.3,60.078715130448636,
,,,黄,green,j,square,color_mix,单词,,incompatible,1,block_switch1,instruction/ready_test.png,instruction/i11.png,,,,,,,,,,,,,,,,,0,0,0,0,0,90,90,90,,,,,,,,,,,,,,,,,,,,,,,,,,,650.6377296999854,650.8394536999986,650.8215076999913,651.1237623999768,651.1237623999768,None,651.6394409999775,None,f,0,1.935868999978993,651.6394409999775,None,None,None,,,,,,,,,,,,,,,,,,,,,,,11005,1,1,2024_May_31_1700,stroop_task_switching2,2021.2.3,60.078715130448636,
,,,蓝,blue,f,square,color_mix,单词,,compatible,1,block_switch1,instruction/ready_test.png,instruction/i11.png,,,,,,,,,,,,,,,,,0,0,0,0,0,91,91,91,,,,,,,,,,,,,,,,,,,,,,,,,,,653.5924201000016,653.7930861999921,653.7759765999799,654.0766533999995,654.0766533999995,None,654.5771967000037,None,f,1,0.7261705999844708,654.5771967000037,None,None,None,,,,,,,,,,,,,,,,,,,,,,,11005,1,1,2024_May_31_1700,stroop_task_switching2,2021.2.3,60.078715130448636,
,,,蓝,red,f,square,color_mix,单词,,incompatible,1,block_switch1,instruction/ready_test.png,instruction/i11.png,,,,,,,,,,,,,,,,,0,0,0,0,0,92,92,92,,,,,,,,,,,,,,,,,,,,,,,,,,,655.3293083999888,655.5288148999971,655.5132701999974,655.8124769999995,655.8124769999995,None,656.3131396999815,None,f,1,0.4299328000051901,656.3131396999815,None,None,None,,,,,,,,,,,,,,,,,,,,,,,11005,1,1,2024_May_31_1700,stroop_task_switching2,2021.2.3,60.078715130448636,
,,,黄,blue,j,square,color_mix,单词,,incompatible,1,block_switch1,instruction/ready_test.png,instruction/i11.png,,,,,,,,,,,,,,,,,0,0,0,0,0,93,93,93,,,,,,,,,,,,,,,,,,,,,,,,,,,656.7637097999977,656.964837699983,656.947459899995,657.249505099986,657.249505099986,None,657.7494693000044,None,j,1,1.5618025999865495,657.7494693000044,None,None,None,,,,,,,,,,,,,,,,,,,,,,,11005,1,1,2024_May_31_1700,stroop_task_switching2,2021.2.3,60.078715130448636,
,,,绿,red,d,diamond,color_mix,颜色,,incompatible,2,block_switch1,instruction/ready_test.png,instruction/i11.png,,,,,,,,,,,,,,,,,0,0,0,0,0,94,94,94,,,,,,,,,,,,,,,,,,,,,,,,,,,659.3344247999776,659.536302499997,659.5179693999817,659.8184330999793,659.8184330999793,None,660.3192548999796,None,d,1,0.5602773000136949,660.3192548999796,None,None,None,,,,,,,,,,,,,,,,,,,,,,,11005,1,1,2024_May_31_1700,stroop_task_switching2,2021.2.3,60.078715130448636,
,,,蓝,blue,f,diamond,color_mix,颜色,,compatible,1,block_switch1,instruction/ready_test.png,instruction/i11.png,,,,,,,,,,,,,,,,,0,0,0,0,0,95,95,95,,,,,,,,,,,,,,,,,,,,,,,,,,,660.9032825999893,661.1048978999897,661.0882298999932,661.388148900005,661.388148900005,None,661.8888681999815,None,f,1,0.9104399999778252,661.8888681999815,None,None,None,,,,,,,,,,,,,,,,,,,,,,,11005,1,1,2024_May_31_1700,stroop_task_switching2,2021.2.3,60.078715130448636,
,,,绿,green,k,square,color_mix,单词,,compatible,2,block_switch1,instruction/ready_test.png,instruction/i11.png,,,,,,,,,,,,,,,,,0,0,0,0,0,96,96,96,,,,,,,,,,,,,,,,,,,,,,,,,,,662.823048899998,663.0235581999877,663.006558699999,663.3082319999812,663.3082319999812,None,663.8076609999989,None,k,1,1.1916292000096291,663.8076609999989,None,None,None,,,,,,,,,,,,,,,,,,,,,,,11005,1,1,2024_May_31_1700,stroop_task_switching2,2021.2.3,60.078715130448636,
,,,,,,,,,,,,block_switch1,instruction/ready_test.png,instruction/i11.png,,,,,,,,,,,,,,,,,0,0,0,0,,,,,,,,,,,,,,,,,,,,,,,,,,,,,,,,,,,,,,,,,,,,,,,,,,,,,,,,,,,,665.0263335999916,None,space,30.013858000020264,665.0263335999916,None,,,11005,1,1,2024_May_31_1700,stroop_task_switching2,2021.2.3,60.078715130448636,
,,,蓝,blue,f,square,color_mix,单词,,compatible,0,block_switch2,instruction/ready_2.png,instruction/i12.png,,,,,,,,,,,,,,,,,0,1,1,1,0,0,0,0,,,,,,,,,,,,,,,,,,,697.3584205999796,698.3599387999857,698.3599387999857,699.3623686999781,699.3623686999781,None,696.3735415999836,697.3761937999807,700.379348699993,700.580678600003,700.580678600003,700.8804344999953,700.8644030999858,None,701.3644664000021,None,f,1,0.7801182999974117,701.3644664000021,None,None,None,,,,,,,,,695.0882718999928,None,space,1.264629800018156,695.0882718999928,None,,,,,,,,,11005,1,1,2024_May_31_1700,stroop_task_switching2,2021.2.3,60.078715130448636,
,,,黄,red,d,diamond,color_mix,颜色,,incompatible,2,block_switch2,instruction/ready_2.png,instruction/i12.png,,,,,,,,,,,,,,,,,0,1,1,1,0,1,1,1,,,,,,,,,,,,,,,,,,,,,,,,,,,702.1654266999976,702.368226599996,702.349831999978,702.6497083999857,702.6497083999857,None,703.15052559998,None,d,1,0.7377911999938078,703.15052559998,None,None,None,,,,,,,,,,,,,,,,,,,,,,,11005,1,1,2024_May_31_1700,stroop_task_switching2,2021.2.3,60.078715130448636,
,,,蓝,green,k,diamond,color_mix,颜色,,incompatible,1,block_switch2,instruction/ready_2.png,instruction/i12.png,,,,,,,,,,,,,,,,,0,1,1,1,0,2,2,2,,,,,,,,,,,,,,,,,,,,,,,,,,,703.918311699992,704.1205278999987,704.1022894999769,704.403751899983,704.403751899983,None,704.9031205999781,None,k,1,1.1615426000207663,704.9031205999781,None,None,None,,,,,,,,,,,,,,,,,,,,,,,11005,1,1,2024_May_31_1700,stroop_task_switching2,2021.2.3,60.078715130448636,
,,,红,yellow,j,diamond,color_mix,颜色,,incompatible,1,block_switch2,instruction/ready_2.png,instruction/i12.png,,,,,,,,,,,,,,,,,0,1,1,1,0,3,3,3,,,,,,,,,,,,,,,,,,,,,,,,,,,706.0881978999823,706.2891596999834,706.2728110000025,706.573847599997,706.573847599997,None,707.0731011999887,None,j,1,0.8553267000243068,707.0731011999887,None,None,None,,,,,,,,,,,,,,,,,,,,,,,11005,1,1,2024_May_31_1700,stroop_task_switching2,2021.2.3,60.078715130448636,
,,,红,red,d,diamond,color_mix,颜色,,compatible,1,block_switch2,instruction/ready_2.png,instruction/i12.png,,,,,,,,,,,,,,,,,0,1,1,1,0,4,4,4,,,,,,,,,,,,,,,,,,,,,,,,,,,707.9577544999775,708.1579999999958,708.1413535999891,708.4417186999926,708.4417186999926,None,708.9423457999947,None,d,1,0.5866092000214849,708.9423457999947,None,None,None,,,,,,,,,,,,,,,,,,,,,,,11005,1,1,2024_May_31_1700,stroop_task_switching2,2021.2.3,60.078715130448636,
,,,绿,green,k,square,color_mix,单词,,compatible,2,block_switch2,instruction/ready_2.png,instruction/i12.png,,,,,,,,,,,,,,,,,0,1,1,1,0,5,5,5,,,,,,,,,,,,,,,,,,,,,,,,,,,709.5434089000046,709.7441514999955,709.7280287999893,710.0277917999774,710.0277917999774,None,710.5284807999851,None,f,0,1.1845761000004131,710.5284807999851,None,None,None,,,,,,,,,,,,,,,,,,,,,,,11005,1,1,2024_May_31_1700,stroop_task_switching2,2021.2.3,60.078715130448636,
,,,黄,blue,f,diamond,color_mix,颜色,,incompatible,2,block_switch2,instruction/ready_2.png,instruction/i12.png,,,,,,,,,,,,,,,,,0,1,1,1,0,6,6,6,,,,,,,,,,,,,,,,,,,,,,,,,,,711.7299449999991,711.9309350999829,711.9148010999779,712.2156313000014,712.2156313000014,None,712.7148887999938,None,f,1,0.6858451000007335,712.7148887999938,None,None,None,,,,,,,,,,,,,,,,,,,,,,,11005,1,1,2024_May_31_1700,stroop_task_switching2,2021.2.3,60.078715130448636,
,,,绿,yellow,k,square,color_mix,单词,,incompatible,2,block_switch2,instruction/ready_2.png,instruction/i12.png,,,,,,,,,,,,,,,,,0,1,1,1,0,7,7,7,,,,,,,,,,,,,,,,,,,,,,,,,,,713.4160402999842,713.6170072999957,713.5993740999838,713.9000508000026,713.9000508000026,None,714.4007598999888,None,k,1,0.7197941000049468,714.4007598999888,None,None,None,,,,,,,,,,,,,,,,,,,,,,,11005,1,1,2024_May_31_1700,stroop_task_switching2,2021.2.3,60.078715130448636,
,,,红,green,d,square,color_mix,单词,,incompatible,1,block_switch2,instruction/ready_2.png,instruction/i12.png,,,,,,,,,,,,,,,,,0,1,1,1,0,8,8,8,,,,,,,,,,,,,,,,,,,,,,,,,,,715.1351913999824,715.3365272999799,715.3188682000036,715.6212817999767,715.6212817999767,None,716.1368359999906,None,d,1,1.2239429000183009,716.1368359999906,None,None,None,,,,,,,,,,,,,,,,,,,,,,,11005,1,1,2024_May_31_1700,stroop_task_switching2,2021.2.3,60.078715130448636,
,,,黄,yellow,j,square,color_mix,单词,,compatible,1,block_switch2,instruction/ready_2.png,instruction/i12.png,,,,,,,,,,,,,,,,,0,1,1,1,0,9,9,9,,,,,,,,,,,,,,,,,,,,,,,,,,,717.3884695000015,717.5900601999892,717.5720108999813,717.8751970999874,717.8751970999874,None,718.3902769999986,None,j,1,0.8350425999960862,718.3902769999986,None,None,None,,,,,,,,,,,,,,,,,,,,,,,11005,1,1,2024_May_31_1700,stroop_task_switching2,2021.2.3,60.078715130448636,
