b_pra,ins_blocks,ins_blocks2,stim_word,stim_color,corrAns,cue_type,trial_type,task_type,rand,compatibility,switch,b_test,w_pic,w_pic2,trials_instr.thisRepN,trials_instr.thisTrialN,trials_instr.thisN,trials_instr.thisIndex,block_pra.thisRepN,block_pra.thisTrialN,block_pra.thisN,block_pra.thisIndex,trials_rep.thisRepN,trials_rep.thisTrialN,trials_rep.thisN,trials_rep.thisIndex,trials_pra.thisRepN,trials_pra.thisTrialN,trials_pra.thisN,trials_pra.thisIndex,trials_3.thisRepN,trials_3.thisTrialN,trials_3.thisN,trials_3.thisIndex,trials_2.thisRepN,trials_2.thisTrialN,trials_2.thisN,trials_2.thisIndex,instr_image.started,instr_image.stopped,instr_key_resp.keys,instr_key_resp.rt,instr_key_resp.started,instr_key_resp.stopped,instr_pra_image.started,instr_pra_image.stopped,ip_key_resp.keys,ip_key_resp.rt,ip_key_resp.started,ip_key_resp.stopped,block_image.started,block_image.stopped,ib_key_resp.keys,ib_key_resp.rt,ib_key_resp.started,ib_key_resp.stopped,cd3.started,cd3.stopped,cd2.started,cd2.stopped,cd1.started,cd1.stopped,cd_text.started,cd_text.stopped,text_fix.started,text_fix.stopped,text_2.started,text_2.stopped,text_4.started,text_4.stopped,text_target.started,text_target.stopped,key_resp.keys,key_resp.corr,key_resp.rt,key_resp.started,key_resp.stopped,sceen_black.started,sceen_black.stopped,text_fb.started,text_fb.stopped,text.started,text.stopped,key_bf.keys,key_bf.rt,key_bf.started,key_bf.stopped,instr_test_image.started,instr_test_image.stopped,instr_exp_key_resp.keys,instr_exp_key_resp.rt,instr_exp_key_resp.started,instr_exp_key_resp.stopped,text_rest.started,text_rest.stopped,key_resp_rest.keys,key_resp_rest.rt,key_resp_rest.started,key_resp_rest.stopped,text_3.started,text_3.stopped,participant,session,balance,date,expName,psychopyVersion,frameRate,
,,,,,,,,,,,,,,,0,0,0,0,,,,,,,,,,,,,,,,,,,,,117.01191560004372,None,right,0.9479129000101238,117.01191560004372,None,,,,,,,,,,,,,,,,,,,,,,,,,,,,,,,,,,,,,,,,,,,,,,,,,,,,,,,,,,11003,1,2,2024_Jun_14_1438,stroop_task_switching2_b,2021.2.3,59.75521872246126,
,,,,,,,,,,,,,,,1,0,1,0,,,,,,,,,,,,,,,,,,,,,117.99722989997827,None,right,38.61157589999493,117.99722989997827,None,,,,,,,,,,,,,,,,,,,,,,,,,,,,,,,,,,,,,,,,,,,,,,,,,,,,,,,,,,11003,1,2,2024_Jun_14_1438,stroop_task_switching2_b,2021.2.3,59.75521872246126,
,,,,,,,,,,,,,,,2,0,2,0,,,,,,,,,,,,,,,,,,,,,156.65495720005129,None,right,0.17765730002429336,156.65495720005129,None,,,,,,,,,,,,,,,,,,,,,,,,,,,,,,,,,,,,,,,,,,,,,,,,,,,,,,,,,,11003,1,2,2024_Jun_14_1438,stroop_task_switching2_b,2021.2.3,59.75521872246126,
,,,,,,,,,,,,,,,3,0,3,0,,,,,,,,,,,,,,,,,,,,,156.8719799000537,None,right,0.15283209993503988,156.8719799000537,None,,,,,,,,,,,,,,,,,,,,,,,,,,,,,,,,,,,,,,,,,,,,,,,,,,,,,,,,,,11003,1,2,2024_Jun_14_1438,stroop_task_switching2_b,2021.2.3,59.75521872246126,
,,,,,,,,,,,,,,,4,0,4,0,,,,,,,,,,,,,,,,,,,,,157.0560991000384,None,right,0.14420350000727922,157.0560991000384,None,,,,,,,,,,,,,,,,,,,,,,,,,,,,,,,,,,,,,,,,,,,,,,,,,,,,,,,,,,11003,1,2,2024_Jun_14_1438,stroop_task_switching2_b,2021.2.3,59.75521872246126,
,,,,,,,,,,,,,,,5,0,5,0,,,,,,,,,,,,,,,,,,,,,157.2392083000159,None,right,0.6814491000259295,157.2392083000159,None,,,,,,,,,,,,,,,,,,,,,,,,,,,,,,,,,,,,,,,,,,,,,,,,,,,,,,,,,,11003,1,2,2024_Jun_14_1438,stroop_task_switching2_b,2021.2.3,59.75521872246126,
,,,,,,,,,,,,,,,,,,,,,,,,,,,,,,,,,,,,,,,,,,,,,157.95809740002733,None,space,7.297188400058076,157.95809740002733,None,,,,,,,,,,,,,,,,,,,,,,,,,,,,,,,,,,,,,,,,,,,,,,,,,,,,11003,1,2,2024_Jun_14_1438,stroop_task_switching2_b,2021.2.3,59.75521872246126,
condition/block_color_b,instruction/instr_color,instruction/i8_b,XX,red,k,diamond,color_single,颜色,,,,,,,,,,,0,0,0,0,0,0,0,0,0,0,0,0,,,,,,,,,,,,,,,,,,,,,165.30125460005365,None,space,11.084112099953927,165.30125460005365,None,177.4546206999803,178.45547960000113,178.45547960000113,179.45597510004882,179.45597510004882,None,176.46865549997892,177.47035379998852,180.42412069998682,180.62586300005205,180.60772470000666,180.90928390005138,180.90928390005138,None,181.4098418999929,None,k,1,1.6315103999804705,181.4098418999929,None,None,None,183.0615620999597,None,,,,,,,,,,,,,,,,,,,,,11003,1,2,2024_Jun_14_1438,stroop_task_switching2_b,2021.2.3,59.75521872246126,
condition/block_color_b,instruction/instr_color,instruction/i8_b,XX,green,d,diamond,color_single,颜色,,,,,,,,,,,0,0,0,0,0,0,0,0,0,1,1,1,,,,,,,,,,,,,,,,,,,,,,,,,,,,,,,,,,,184.06295709998813,184.2633500000229,184.24695289996453,184.54726599995047,184.54726599995047,None,185.04793310002424,None,d,1,2.7862946999957785,185.04793310002424,None,None,None,187.85221020004246,None,,,,,,,,,,,,,,,,,,,,,11003,1,2,2024_Jun_14_1438,stroop_task_switching2_b,2021.2.3,59.75521872246126,
condition/block_color_b,instruction/instr_color,instruction/i8_b,XX,yellow,f,diamond,color_single,颜色,,,,,,,,,,,0,0,0,0,0,0,0,0,0,2,2,2,,,,,,,,,,,,,,,,,,,,,,,,,,,,,,,,,,,188.8534913000185,189.05477319995407,189.03815449995454,189.33741719997488,189.33741719997488,None,189.83850880002137,None,f,1,0.9223733999533579,189.83850880002137,None,None,None,190.789954100037,None,,,,,,,,,,,,,,,,,,,,,11003,1,2,2024_Jun_14_1438,stroop_task_switching2_b,2021.2.3,59.75521872246126,
condition/block_color_b,instruction/instr_color,instruction/i8_b,XX,blue,j,diamond,color_single,颜色,,,,,,,,,,,0,0,0,0,0,0,0,0,0,3,3,3,,,,,,,,,,,,,,,,,,,,,,,,,,,,,,,,,,,191.79273350001313,191.99233749997802,191.97608839999884,192.27643800002988,192.27643800002988,None,192.77734020003118,None,j,1,0.9600053000031039,192.77734020003118,None,None,None,193.76105910004117,None,,,,,,,,,,,,,,,,,,,,,11003,1,2,2024_Jun_14_1438,stroop_task_switching2_b,2021.2.3,59.75521872246126,
condition/block_color_b,instruction/instr_color,instruction/i8_b,XX,green,d,diamond,color_single,颜色,,,,,,,,,,,0,0,0,0,0,0,0,0,0,4,4,4,,,,,,,,,,,,,,,,,,,,,,,,,,,,,,,,,,,194.76306190004107,194.96417759999167,194.94634909997694,195.24658359994646,195.24658359994646,None,195.74811219994444,None,d,1,1.3016337000299245,195.74811219994444,None,None,None,197.0659684999846,None,,,,,,,,,,,,,,,,,,,,,11003,1,2,2024_Jun_14_1438,stroop_task_switching2_b,2021.2.3,59.75521872246126,
condition/block_color_b,instruction/instr_color,instruction/i8_b,XX,yellow,f,diamond,color_single,颜色,,,,,,,,,,,0,0,0,0,0,0,0,0,0,5,5,5,,,,,,,,,,,,,,,,,,,,,,,,,,,,,,,,,,,198.0681194999488,198.26784600003157,198.25306999997701,198.55248459998984,198.55248459998984,None,199.0530168999685,None,f,1,0.9726147999754176,199.0530168999685,None,None,None,200.0538663000334,None,,,,,,,,,,,,,,,,,,,,,11003,1,2,2024_Jun_14_1438,stroop_task_switching2_b,2021.2.3,59.75521872246126,
condition/block_color_b,instruction/instr_color,instruction/i8_b,XX,blue,j,diamond,color_single,颜色,,,,,,,,,,,0,0,0,0,0,0,0,0,0,6,6,6,,,,,,,,,,,,,,,,,,,,,,,,,,,,,,,,,,,201.05636130005587,201.2580619000364,201.23908530001063,201.54022409999743,201.54022409999743,None,202.040303900023,None,j,1,1.0412807000102475,202.040303900023,None,None,None,203.1084712999873,None,,,,,,,,,,,,,,,,,,,,,11003,1,2,2024_Jun_14_1438,stroop_task_switching2_b,2021.2.3,59.75521872246126,
condition/block_color_b,instruction/instr_color,instruction/i8_b,XX,red,k,diamond,color_single,颜色,,,,,,,,,,,0,0,0,0,0,0,0,0,0,7,7,7,,,,,,,,,,,,,,,,,,,,,,,,,,,,,,,,,,,204.11005739995744,204.31094620004296,204.29430069995578,204.59500570001546,204.59500570001546,None,205.09532039996702,None,k,1,0.5703982999548316,205.09532039996702,None,None,None,205.69552169996314,None,,,,,,,,,,,,,,,,,,,,,11003,1,2,2024_Jun_14_1438,stroop_task_switching2_b,2021.2.3,59.75521872246126,
condition/block_color_b,instruction/instr_color,instruction/i8_b,XX,yellow,f,diamond,color_single,颜色,,,,,,,,,,,0,0,0,0,0,0,0,0,0,8,8,8,,,,,,,,,,,,,,,,,,,,,,,,,,,,,,,,,,,206.69806399999652,206.8998089999659,206.88137359998655,207.18261420005,207.18261420005,None,207.68227520002984,None,f,1,1.0559387999819592,207.68227520002984,None,None,None,208.76789589994587,None,,,,,,,,,,,,,,,,,,,,,11003,1,2,2024_Jun_14_1438,stroop_task_switching2_b,2021.2.3,59.75521872246126,
condition/block_color_b,instruction/instr_color,instruction/i8_b,XX,blue,j,diamond,color_single,颜色,,,,,,,,,,,0,0,0,0,0,0,0,0,0,9,9,9,,,,,,,,,,,,,,,,,,,,,,,,,,,,,,,,,,,209.76884140004404,209.9696184999775,209.95345699996687,210.25339129997883,210.25339129997883,None,210.75360749999527,None,j,1,0.6801149999955669,210.75360749999527,None,None,None,211.45475789997727,None,,,,,,,,,,,,,,,,,,,,,11003,1,2,2024_Jun_14_1438,stroop_task_switching2_b,2021.2.3,59.75521872246126,
condition/block_color_b,instruction/instr_color,instruction/i8_b,XX,red,k,diamond,color_single,颜色,,,,,,,,,,,0,0,0,0,0,0,0,0,0,10,10,10,,,,,,,,,,,,,,,,,,,,,,,,,,,,,,,,,,,212.45582989999093,212.6580425000284,212.63942290004343,212.94085590005852,212.94085590005852,None,213.44246369996108,None,k,1,0.6797122999560088,213.44246369996108,None,None,None,214.14171919994988,None,,,,,,,,,,,,,,,,,,,,,11003,1,2,2024_Jun_14_1438,stroop_task_switching2_b,2021.2.3,59.75521872246126,
condition/block_color_b,instruction/instr_color,instruction/i8_b,XX,green,d,diamond,color_single,颜色,,,,,,,,,,,0,0,0,0,0,0,0,0,0,11,11,11,,,,,,,,,,,,,,,,,,,,,,,,,,,,,,,,,,,215.1432247000048,215.34528030001093,215.32752649998292,215.6284081999911,215.6284081999911,None,216.1280279000057,None,d,1,1.2097933000186458,216.1280279000057,None,None,None,217.36335770005826,None,,,,,,,,,,,,,,,,,,,,,11003,1,2,2024_Jun_14_1438,stroop_task_switching2_b,2021.2.3,59.75521872246126,
condition/block_color_b,instruction/instr_color,instruction/i8_b,XX,blue,j,diamond,color_single,颜色,,,,,,,,,,,0,0,0,0,0,0,0,0,0,12,12,12,,,,,,,,,,,,,,,,,,,,,,,,,,,,,,,,,,,218.36530649999622,218.5653915000148,218.5497897999594,218.8511919999728,218.8511919999728,None,219.3496473999694,None,j,1,0.9724343999987468,219.3496473999694,None,None,None,220.35107239999343,None,,,,,,,,,,,,,,,,,,,,,11003,1,2,2024_Jun_14_1438,stroop_task_switching2_b,2021.2.3,59.75521872246126,
condition/block_color_b,instruction/instr_color,instruction/i8_b,XX,red,k,diamond,color_single,颜色,,,,,,,,,,,0,0,0,0,0,0,0,0,0,13,13,13,,,,,,,,,,,,,,,,,,,,,,,,,,,,,,,,,,,221.35271340003237,221.55531710002106,221.53619290003553,221.83698749996256,221.83698749996256,None,222.33814490004443,None,k,1,0.5202992999693379,222.33814490004443,None,None,None,222.88906840002164,None,,,,,,,,,,,,,,,,,,,,,11003,1,2,2024_Jun_14_1438,stroop_task_switching2_b,2021.2.3,59.75521872246126,
condition/block_color_b,instruction/instr_color,instruction/i8_b,XX,green,d,diamond,color_single,颜色,,,,,,,,,,,0,0,0,0,0,0,0,0,0,14,14,14,,,,,,,,,,,,,,,,,,,,,,,,,,,,,,,,,,,223.89070820005145,224.0919898999855,224.0734506000299,224.37381649995223,224.37381649995223,None,224.8746518000262,None,d,1,0.8556115999817848,224.8746518000262,None,None,None,225.75922250002623,None,,,,,,,,,,,,,,,,,,,,,11003,1,2,2024_Jun_14_1438,stroop_task_switching2_b,2021.2.3,59.75521872246126,
condition/block_color_b,instruction/instr_color,instruction/i8_b,XX,yellow,f,diamond,color_single,颜色,,,,,,,,,,,0,0,0,0,0,0,0,0,0,15,15,15,,,,,,,,,,,,,,,,,,,,,,,,,,,,,,,,,,,226.76140580000356,226.96213120000903,226.9451414999785,227.24589859996922,227.24589859996922,None,227.74606210005004,None,f,1,0.40791069995611906,227.74606210005004,None,None,None,228.17997359996662,None,,,,,,,,,,,,,,,,,,,,,11003,1,2,2024_Jun_14_1438,stroop_task_switching2_b,2021.2.3,59.75521872246126,
condition/block_color_b,instruction/instr_color,instruction/i8_b,XX,red,k,diamond,color_single,颜色,,,,,,,,,,,0,0,0,0,0,0,0,0,0,16,16,16,,,,,,,,,,,,,,,,,,,,,,,,,,,,,,,,,,,229.18176369997673,229.3825022999663,229.36455970001407,229.66519480000716,229.66519480000716,None,230.16659859998617,None,k,1,0.7161270999349654,230.16659859998617,None,None,None,230.90044620004483,None,,,,,,,,,,,,,,,,,,,,,11003,1,2,2024_Jun_14_1438,stroop_task_switching2_b,2021.2.3,59.75521872246126,
condition/block_color_b,instruction/instr_color,instruction/i8_b,XX,green,d,diamond,color_single,颜色,,,,,,,,,,,0,0,0,0,0,0,0,0,0,17,17,17,,,,,,,,,,,,,,,,,,,,,,,,,,,,,,,,,,,231.9027879999485,232.1022783999797,232.0869141999865,232.38755490002222,232.38755490002222,None,232.88757190003525,None,d,1,0.5633328000549227,232.88757190003525,None,None,None,233.471430900041,None,,,,,,,,,,,,,,,,,,,,,11003,1,2,2024_Jun_14_1438,stroop_task_switching2_b,2021.2.3,59.75521872246126,
condition/block_color_b,instruction/instr_color,instruction/i8_b,XX,yellow,f,diamond,color_single,颜色,,,,,,,,,,,0,0,0,0,0,0,0,0,0,18,18,18,,,,,,,,,,,,,,,,,,,,,,,,,,,,,,,,,,,234.47336920001544,234.67499440000392,234.65601439995226,234.95859080005903,234.95859080005903,None,235.45776480005588,None,f,1,0.5609128000214696,235.45776480005588,None,None,None,236.04155179997906,None,,,,,,,,,,,,,,,,,,,,,11003,1,2,2024_Jun_14_1438,stroop_task_switching2_b,2021.2.3,59.75521872246126,
condition/block_color_b,instruction/instr_color,instruction/i8_b,XX,blue,j,diamond,color_single,颜色,,,,,,,,,,,0,0,0,0,0,0,0,0,0,19,19,19,,,,,,,,,,,,,,,,,,,,,,,,,,,,,,,,,,,237.0438213000307,237.24439440004062,237.2274633999914,237.52806190005504,237.52806190005504,None,238.0280660999706,None,j,1,0.36730549996718764,238.0280660999706,None,None,None,238.4118262999691,None,,,,,,,,,,,,,,,,,,,,,11003,1,2,2024_Jun_14_1438,stroop_task_switching2_b,2021.2.3,59.75521872246126,
condition/block_color_b,instruction/instr_color,instruction/i8_b,XX,green,d,diamond,color_single,颜色,,,,,,,,,,,0,0,0,0,0,0,0,0,0,20,20,20,,,,,,,,,,,,,,,,,,,,,,,,,,,,,,,,,,,239.4130563000217,239.6140917999437,239.59768939996138,239.8974113999866,239.8974113999866,None,240.39826629997697,None,d,1,1.0206277000252157,240.39826629997697,None,None,None,241.45035249996,None,,,,,,,,,,,,,,,,,,,,,11003,1,2,2024_Jun_14_1438,stroop_task_switching2_b,2021.2.3,59.75521872246126,
condition/block_color_b,instruction/instr_color,instruction/i8_b,XX,yellow,f,diamond,color_single,颜色,,,,,,,,,,,0,0,0,0,0,0,0,0,0,21,21,21,,,,,,,,,,,,,,,,,,,,,,,,,,,,,,,,,,,242.4515785999829,242.6523994000163,242.63463430001866,242.9373241000576,242.9373241000576,None,243.4365214999998,None,f,1,0.6060316000366583,243.4365214999998,None,None,None,244.0703525999561,None,,,,,,,,,,,,,,,,,,,,,11003,1,2,2024_Jun_14_1438,stroop_task_switching2_b,2021.2.3,59.75521872246126,
condition/block_color_b,instruction/instr_color,instruction/i8_b,XX,blue,j,diamond,color_single,颜色,,,,,,,,,,,0,0,0,0,0,0,0,0,0,22,22,22,,,,,,,,,,,,,,,,,,,,,,,,,,,,,,,,,,,245.07248860003892,245.2733798000263,245.25552939996123,245.5565650999779,245.5565650999779,None,246.05669530003797,None,j,1,0.47415479994378984,246.05669530003797,None,None,None,246.55802859994583,None,,,,,,,,,,,,,,,,,,,,,11003,1,2,2024_Jun_14_1438,stroop_task_switching2_b,2021.2.3,59.75521872246126,
condition/block_color_b,instruction/instr_color,instruction/i8_b,XX,red,k,diamond,color_single,颜色,,,,,,,,,,,0,0,0,0,0,0,0,0,0,23,23,23,,,,,,,,,,,,,,,,,,,,,,,,,,,,,,,,,,,247.5596460000379,247.7599276000401,247.74379840004258,248.0427428999683,248.0427428999683,None,248.54380999994464,None,k,1,0.650940400082618,248.54380999994464,None,None,None,249.2112414999865,None,,,,,,,,,,,,,,,,,,,,,11003,1,2,2024_Jun_14_1438,stroop_task_switching2_b,2021.2.3,59.75521872246126,
condition/block_color_b,instruction/instr_color,instruction/i8_b,,,,,,,,,,,,,,,,,0,0,0,0,0,0,0,0,,,,,,,,,,,,,,,,,,,,,,,,,,,,,,,,,,,,,,,,,,,,,,,,,,,,,,,,250.2295159000205,None,space,3.0236003999598324,250.2295159000205,None,,,,,,,,,,,,,,,11003,1,2,2024_Jun_14_1438,stroop_task_switching2_b,2021.2.3,59.75521872246126,
condition/block_color_b,instruction/instr_color,instruction/i8_b,,,,,,,,,,,,,,,,,0,0,0,0,,,,,,,,,,,,,,,,,,,,,,,,,,,,,,,,,,,,,,,,,,,,,,,,,,,,,,,,,,,,,,,,,,,,,,,,,,,,,,,,11003,1,2,2024_Jun_14_1438,stroop_task_switching2_b,2021.2.3,59.75521872246126,
condition/block_word_b,instruction/instr_word,instruction/i9_b,黄,white,f,square,word_single,单词,0.0032461461866890584,,,,,,,,,,0,1,1,1,0,0,0,0,0,0,0,0,,,,,,,,,,,,,,,,,,,,,253.28381149994675,None,space,10.415644599939696,253.28381149994675,None,264.7180087999441,265.7195990999462,265.7195990999462,266.7213912999723,266.7213912999723,None,263.73384060000535,264.7355406000279,267.7394490999868,267.94056320004165,267.92449330003,268.22336990002077,268.22336990002077,None,268.7250744999619,None,j,0,1.494215799961239,268.7250744999619,None,None,None,270.2428135999944,None,,,,,,,,,,,,,,,,,,,,,11003,1,2,2024_Jun_14_1438,stroop_task_switching2_b,2021.2.3,59.75521872246126,
condition/block_word_b,instruction/instr_word,instruction/i9_b,蓝,white,j,square,word_single,单词,0.060540570646362424,,,,,,,,,,0,1,1,1,0,0,0,0,0,1,1,1,,,,,,,,,,,,,,,,,,,,,,,,,,,,,,,,,,,271.24519279995,271.44488500000443,271.42887449997943,271.7287880999502,271.7287880999502,None,272.22948470001575,None,j,1,1.4864447999279946,272.22948470001575,None,None,None,273.7316723000258,None,,,,,,,,,,,,,,,,,,,,,11003,1,2,2024_Jun_14_1438,stroop_task_switching2_b,2021.2.3,59.75521872246126,
condition/block_word_b,instruction/instr_word,instruction/i9_b,黄,white,f,square,word_single,单词,0.06994067193778963,,,,,,,,,,0,1,1,1,0,0,0,0,0,2,2,2,,,,,,,,,,,,,,,,,,,,,,,,,,,,,,,,,,,274.73369060002733,274.9342542999657,274.916791100055,275.21906499995384,275.21906499995384,None,275.71792740002275,None,f,1,0.9979915999574587,275.71792740002275,None,None,None,276.7361977000255,None,,,,,,,,,,,,,,,,,,,,,11003,1,2,2024_Jun_14_1438,stroop_task_switching2_b,2021.2.3,59.75521872246126,
condition/block_word_b,instruction/instr_word,instruction/i9_b,蓝,white,j,square,word_single,单词,0.08193765152950094,,,,,,,,,,0,1,1,1,0,0,0,0,0,3,3,3,,,,,,,,,,,,,,,,,,,,,,,,,,,,,,,,,,,277.738546699984,277.9378939999733,277.92207820003387,278.2236474000383,278.2236474000383,None,278.7233188999817,None,j,1,1.032696499954909,278.7233188999817,None,None,None,279.77481169998646,None,,,,,,,,,,,,,,,,,,,,,11003,1,2,2024_Jun_14_1438,stroop_task_switching2_b,2021.2.3,59.75521872246126,
condition/block_word_b,instruction/instr_word,instruction/i9_b,红,white,k,square,word_single,单词,0.1279694370605574,,,,,,,,,,0,1,1,1,0,0,0,0,0,4,4,4,,,,,,,,,,,,,,,,,,,,,,,,,,,,,,,,,,,280.7765029000584,280.9764459000435,280.95989129994996,281.26088339998387,281.26088339998387,None,281.76079780003056,None,k,1,0.9790664999745786,281.76079780003056,None,None,None,282.76206820004154,None,,,,,,,,,,,,,,,,,,,,,11003,1,2,2024_Jun_14_1438,stroop_task_switching2_b,2021.2.3,59.75521872246126,
condition/block_word_b,instruction/instr_word,instruction/i9_b,红,white,k,square,word_single,单词,0.18345028784879092,,,,,,,,,,0,1,1,1,0,0,0,0,0,5,5,5,,,,,,,,,,,,,,,,,,,,,,,,,,,,,,,,,,,283.7645494999597,283.9649696999695,283.9470813999651,284.2487354000332,284.2487354000332,None,284.7483538000379,None,k,1,1.0876504000043496,284.7483538000379,None,None,None,285.8665616000071,None,,,,,,,,,,,,,,,,,,,,,11003,1,2,2024_Jun_14_1438,stroop_task_switching2_b,2021.2.3,59.75521872246126,
condition/block_word_b,instruction/instr_word,instruction/i9_b,蓝,white,j,square,word_single,单词,0.19920386223101294,,,,,,,,,,0,1,1,1,0,0,0,0,0,6,6,6,,,,,,,,,,,,,,,,,,,,,,,,,,,,,,,,,,,286.8694257000461,287.0686591999838,287.0523923999863,287.35327620001044,287.35327620001044,None,287.85378899995703,None,j,1,0.9258543000323698,287.85378899995703,None,None,None,288.8044596000109,None,,,,,,,,,,,,,,,,,,,,,11003,1,2,2024_Jun_14_1438,stroop_task_switching2_b,2021.2.3,59.75521872246126,
condition/block_word_b,instruction/instr_word,instruction/i9_b,蓝,white,j,square,word_single,单词,0.26360599864925405,,,,,,,,,,0,1,1,1,0,0,0,0,0,7,7,7,,,,,,,,,,,,,,,,,,,,,,,,,,,,,,,,,,,289.80667099996936,290.0081054000184,289.99026089999825,290.28997799998615,290.28997799998615,None,290.7915409000125,None,j,1,0.644777600071393,290.7915409000125,None,None,None,291.4584715999663,None,,,,,,,,,,,,,,,,,,,,,11003,1,2,2024_Jun_14_1438,stroop_task_switching2_b,2021.2.3,59.75521872246126,
condition/block_word_b,instruction/instr_word,instruction/i9_b,蓝,white,j,square,word_single,单词,0.358985675745526,,,,,,,,,,0,1,1,1,0,0,0,0,0,8,8,8,,,,,,,,,,,,,,,,,,,,,,,,,,,,,,,,,,,292.4608767000027,292.6614161999896,292.6444013,292.9448098000139,292.9448098000139,None,293.44476440001745,None,j,1,0.5591188999824226,293.44476440001745,None,None,None,294.03018000000156,None,,,,,,,,,,,,,,,,,,,,,11003,1,2,2024_Jun_14_1438,stroop_task_switching2_b,2021.2.3,59.75521872246126,
condition/block_word_b,instruction/instr_word,instruction/i9_b,绿,white,d,square,word_single,单词,0.36496733802487347,,,,,,,,,,0,1,1,1,0,0,0,0,0,9,9,9,,,,,,,,,,,,,,,,,,,,,,,,,,,,,,,,,,,295.0304467000533,295.2306501000421,295.2153060999699,295.51451180002186,295.51451180002186,None,296.0152656000573,None,d,1,1.549089499982074,296.0152656000573,None,None,None,297.58487200003583,None,,,,,,,,,,,,,,,,,,,,,11003,1,2,2024_Jun_14_1438,stroop_task_switching2_b,2021.2.3,59.75521872246126,
condition/block_word_b,instruction/instr_word,instruction/i9_b,黄,white,f,square,word_single,单词,0.3743513623756727,,,,,,,,,,0,1,1,1,0,0,0,0,0,10,10,10,,,,,,,,,,,,,,,,,,,,,,,,,,,,,,,,,,,298.5866410000017,298.78707900003064,298.7705122999614,299.07128230005037,299.07128230005037,None,299.57076409994625,None,f,1,1.0013176000211388,299.57076409994625,None,None,None,300.5887996000238,None,,,,,,,,,,,,,,,,,,,,,11003,1,2,2024_Jun_14_1438,stroop_task_switching2_b,2021.2.3,59.75521872246126,
condition/block_word_b,instruction/instr_word,instruction/i9_b,红,white,k,square,word_single,单词,0.3894803852598544,,,,,,,,,,0,1,1,1,0,0,0,0,0,11,11,11,,,,,,,,,,,,,,,,,,,,,,,,,,,,,,,,,,,301.5911074000178,301.790540899965,301.7746326000197,302.07485279999673,302.07485279999673,None,302.5752474999754,None,k,1,1.1408177999546751,302.5752474999754,None,None,None,303.743704100023,None,,,,,,,,,,,,,,,,,,,,,11003,1,2,2024_Jun_14_1438,stroop_task_switching2_b,2021.2.3,59.75521872246126,
condition/block_word_b,instruction/instr_word,instruction/i9_b,绿,white,d,square,word_single,单词,0.5393759672408067,,,,,,,,,,0,1,1,1,0,0,0,0,0,12,12,12,,,,,,,,,,,,,,,,,,,,,,,,,,,,,,,,,,,304.7450587999774,304.9465544000268,304.928575500031,305.2308239999693,305.2308239999693,None,305.7309626999777,None,d,1,0.85715870000422,305.7309626999777,None,None,None,306.614701100043,None,,,,,,,,,,,,,,,,,,,,,11003,1,2,2024_Jun_14_1438,stroop_task_switching2_b,2021.2.3,59.75521872246126,
condition/block_word_b,instruction/instr_word,instruction/i9_b,蓝,white,j,square,word_single,单词,0.5995731954831104,,,,,,,,,,0,1,1,1,0,0,0,0,0,13,13,13,,,,,,,,,,,,,,,,,,,,,,,,,,,,,,,,,,,307.6165840999456,307.8165156999603,307.8006832000101,308.10036829998717,308.10036829998717,None,308.6010182000464,None,j,1,0.9474865000229329,308.6010182000464,None,None,None,309.5692058999557,None,,,,,,,,,,,,,,,,,,,,,11003,1,2,2024_Jun_14_1438,stroop_task_switching2_b,2021.2.3,59.75521872246126,
condition/block_word_b,instruction/instr_word,instruction/i9_b,红,white,k,square,word_single,单词,0.6298674479151414,,,,,,,,,,0,1,1,1,0,0,0,0,0,14,14,14,,,,,,,,,,,,,,,,,,,,,,,,,,,,,,,,,,,310.57068000000436,310.7716882999521,310.75515340000857,311.0556231000228,311.0556231000228,None,311.5553811000427,None,k,1,0.7929968999233097,311.5553811000427,None,None,None,312.37402340001427,None,,,,,,,,,,,,,,,,,,,,,11003,1,2,2024_Jun_14_1438,stroop_task_switching2_b,2021.2.3,59.75521872246126,
condition/block_word_b,instruction/instr_word,instruction/i9_b,红,white,k,square,word_single,单词,0.7389942282348904,,,,,,,,,,0,1,1,1,0,0,0,0,0,15,15,15,,,,,,,,,,,,,,,,,,,,,,,,,,,,,,,,,,,313.37590230000205,313.5749553999631,313.559577899985,313.85942120000254,313.85942120000254,None,314.35953350004274,None,k,1,1.4451553999679163,314.35953350004274,None,None,None,315.82843430002686,None,,,,,,,,,,,,,,,,,,,,,11003,1,2,2024_Jun_14_1438,stroop_task_switching2_b,2021.2.3,59.75521872246126,
condition/block_word_b,instruction/instr_word,instruction/i9_b,绿,white,d,square,word_single,单词,0.7550853947239682,,,,,,,,,,0,1,1,1,0,0,0,0,0,16,16,16,,,,,,,,,,,,,,,,,,,,,,,,,,,,,,,,,,,316.83085599995684,317.03043849999085,317.0144593999721,317.31503489997704,317.31503489997704,None,317.81545320001896,None,d,1,1.0377800000132993,317.81545320001896,None,None,None,318.88297639996745,None,,,,,,,,,,,,,,,,,,,,,11003,1,2,2024_Jun_14_1438,stroop_task_switching2_b,2021.2.3,59.75521872246126,
condition/block_word_b,instruction/instr_word,instruction/i9_b,绿,white,d,square,word_single,单词,0.8019302780428206,,,,,,,,,,0,1,1,1,0,0,0,0,0,17,17,17,,,,,,,,,,,,,,,,,,,,,,,,,,,,,,,,,,,319.8855942999944,320.08709030004684,320.0686695999466,320.36844370001927,320.36844370001927,None,320.86973739997484,None,d,1,0.9354837000137195,320.86973739997484,None,None,None,321.82095059996936,None,,,,,,,,,,,,,,,,,,,,,11003,1,2,2024_Jun_14_1438,stroop_task_switching2_b,2021.2.3,59.75521872246126,
condition/block_word_b,instruction/instr_word,instruction/i9_b,绿,white,d,square,word_single,单词,0.8110702914095343,,,,,,,,,,0,1,1,1,0,0,0,0,0,18,18,18,,,,,,,,,,,,,,,,,,,,,,,,,,,,,,,,,,,322.82337600004394,323.0244593999814,323.0060675999848,323.3070134000154,323.3070134000154,None,323.80802620004397,None,d,1,1.004606100032106,323.80802620004397,None,None,None,324.84292379999533,None,,,,,,,,,,,,,,,,,,,,,11003,1,2,2024_Jun_14_1438,stroop_task_switching2_b,2021.2.3,59.75521872246126,
condition/block_word_b,instruction/instr_word,instruction/i9_b,黄,white,f,square,word_single,单词,0.8176594937590999,,,,,,,,,,0,1,1,1,0,0,0,0,0,19,19,19,,,,,,,,,,,,,,,,,,,,,,,,,,,,,,,,,,,325.84483580000233,326.04507750004996,326.0282545000082,326.32825090002734,326.32825090002734,None,326.8286807000404,None,f,1,1.2805770999984816,326.8286807000404,None,None,None,328.1304770000279,None,,,,,,,,,,,,,,,,,,,,,11003,1,2,2024_Jun_14_1438,stroop_task_switching2_b,2021.2.3,59.75521872246126,
condition/block_word_b,instruction/instr_word,instruction/i9_b,红,white,k,square,word_single,单词,0.8955794421104841,,,,,,,,,,0,1,1,1,0,0,0,0,0,20,20,20,,,,,,,,,,,,,,,,,,,,,,,,,,,,,,,,,,,329.13181090005673,329.33294420002494,329.3163937999634,329.6168353999965,329.6168353999965,None,330.116633299971,None,k,1,0.9763739999616519,330.116633299971,None,None,None,331.11809610005,None,,,,,,,,,,,,,,,,,,,,,11003,1,2,2024_Jun_14_1438,stroop_task_switching2_b,2021.2.3,59.75521872246126,
condition/block_word_b,instruction/instr_word,instruction/i9_b,绿,white,d,square,word_single,单词,0.9113598052474129,,,,,,,,,,0,1,1,1,0,0,0,0,0,21,21,21,,,,,,,,,,,,,,,,,,,,,,,,,,,,,,,,,,,332.1203267000383,332.32004529994447,332.30400120001286,332.60491780005395,332.60491780005395,None,333.1048285999568,None,d,1,1.0921019000234082,333.1048285999568,None,None,None,334.2228582999669,None,,,,,,,,,,,,,,,,,,,,,11003,1,2,2024_Jun_14_1438,stroop_task_switching2_b,2021.2.3,59.75521872246126,
condition/block_word_b,instruction/instr_word,instruction/i9_b,黄,white,f,square,word_single,单词,0.9215930958042953,,,,,,,,,,0,1,1,1,0,0,0,0,0,22,22,22,,,,,,,,,,,,,,,,,,,,,,,,,,,,,,,,,,,335.22456290002447,335.4253944000229,335.4092292999849,335.7091800000053,335.7091800000053,None,336.2096368999919,None,f,1,1.243607599986717,336.2096368999919,None,None,None,337.4784537999658,None,,,,,,,,,,,,,,,,,,,,,11003,1,2,2024_Jun_14_1438,stroop_task_switching2_b,2021.2.3,59.75521872246126,
condition/block_word_b,instruction/instr_word,instruction/i9_b,黄,white,f,square,word_single,单词,0.9493525498837774,,,,,,,,,,0,1,1,1,0,0,0,0,0,23,23,23,,,,,,,,,,,,,,,,,,,,,,,,,,,,,,,,,,,338.48003680002876,338.68020790000446,338.6629060000414,338.96342679997906,338.96342679997906,None,339.46429849998094,None,f,1,1.4130816999822855,339.46429849998094,None,None,None,340.8996999999508,None,,,,,,,,,,,,,,,,,,,,,11003,1,2,2024_Jun_14_1438,stroop_task_switching2_b,2021.2.3,59.75521872246126,
condition/block_word_b,instruction/instr_word,instruction/i9_b,,,,,,,,,,,,,,,,,0,1,1,1,0,0,0,0,,,,,,,,,,,,,,,,,,,,,,,,,,,,,,,,,,,,,,,,,,,,,,,,,,,,,,,,341.9008256000234,None,space,8.534302599960938,341.9008256000234,None,,,,,,,,,,,,,,,11003,1,2,2024_Jun_14_1438,stroop_task_switching2_b,2021.2.3,59.75521872246126,
condition/block_word_b,instruction/instr_word,instruction/i9_b,,,,,,,,,,,,,,,,,0,1,1,1,,,,,,,,,,,,,,,,,,,,,,,,,,,,,,,,,,,,,,,,,,,,,,,,,,,,,,,,,,,,,,,,,,,,,,,,,,,,,,,,11003,1,2,2024_Jun_14_1438,stroop_task_switching2_b,2021.2.3,59.75521872246126,
condition/block_mixed_b,instruction/instr_mixed,instruction/i10_b,蓝,red,k,diamond,color_mix,颜色,,incompatible,0,,,,,,,,0,2,2,2,0,0,0,0,0,0,0,0,,,,,,,,,,,,,,,,,,,,,350.48057340004016,None,space,22.293811499956064,350.48057340004016,None,373.79952270002104,374.8018027000362,374.8018027000362,375.8047117999522,375.8047117999522,None,372.8147644000128,373.81635099998675,376.83876399998553,377.03856280003674,377.0217905000318,377.3219936999958,377.3219936999958,None,377.8053467000136,None,k,1,1.7291795000201091,377.8053467000136,None,None,None,379.55782159999944,None,,,,,,,,,,,,,,,,,,,,,11003,1,2,2024_Jun_14_1438,stroop_task_switching2_b,2021.2.3,59.75521872246126,
condition/block_mixed_b,instruction/instr_mixed,instruction/i10_b,绿,yellow,f,diamond,color_mix,颜色,,incompatible,1,,,,,,,,0,2,2,2,0,0,0,0,0,1,1,1,,,,,,,,,,,,,,,,,,,,,,,,,,,,,,,,,,,380.55953950004186,380.76139929995406,380.7430679999525,381.0434289999539,381.0434289999539,None,381.544258799986,None,d,0,1.1422516000457108,381.544258799986,None,None,None,382.7127427000087,None,,,,,,,,,,,,,,,,,,,,,11003,1,2,2024_Jun_14_1438,stroop_task_switching2_b,2021.2.3,59.75521872246126,
condition/block_mixed_b,instruction/instr_mixed,instruction/i10_b,红,green,d,diamond,color_mix,颜色,,incompatible,1,,,,,,,,0,2,2,2,0,0,0,0,0,2,2,2,,,,,,,,,,,,,,,,,,,,,,,,,,,,,,,,,,,383.7152486999985,383.9159120999975,383.8978550999891,384.1995563999517,384.1995563999517,None,384.6988437999971,None,d,1,1.3078308999538422,384.6988437999971,None,None,None,386.03417630004697,None,,,,,,,,,,,,,,,,,,,,,11003,1,2,2024_Jun_14_1438,stroop_task_switching2_b,2021.2.3,59.75521872246126,
condition/block_mixed_b,instruction/instr_mixed,instruction/i10_b,蓝,red,k,diamond,color_mix,颜色,,incompatible,1,,,,,,,,0,2,2,2,0,0,0,0,0,3,3,3,,,,,,,,,,,,,,,,,,,,,,,,,,,,,,,,,,,387.03591810003854,387.23729049996473,387.2202779999934,387.51994579995517,387.51994579995517,None,388.020848199958,None,k,1,1.713710300042294,388.020848199958,None,None,None,389.7566397000337,None,,,,,,,,,,,,,,,,,,,,,11003,1,2,2024_Jun_14_1438,stroop_task_switching2_b,2021.2.3,59.75521872246126,
condition/block_mixed_b,instruction/instr_mixed,instruction/i10_b,红,blue,j,diamond,color_mix,颜色,,incompatible,1,,,,,,,,0,2,2,2,0,0,0,0,0,4,4,4,,,,,,,,,,,,,,,,,,,,,,,,,,,,,,,,,,,390.7590668000048,390.9594561000122,390.941561399959,391.2430997999618,391.2430997999618,None,391.7436095000012,None,j,1,1.3430900000967085,391.7436095000012,None,None,None,393.11177039996255,None,,,,,,,,,,,,,,,,,,,,,11003,1,2,2024_Jun_14_1438,stroop_task_switching2_b,2021.2.3,59.75521872246126,
condition/block_mixed_b,instruction/instr_mixed,instruction/i10_b,红,blue,k,square,color_mix,单词,,incompatible,2,,,,,,,,0,2,2,2,0,0,0,0,0,5,5,5,,,,,,,,,,,,,,,,,,,,,,,,,,,,,,,,,,,394.11355180002283,394.31423540005926,394.2969178999774,394.59878979995847,394.59878979995847,None,395.098025699961,None,j,0,1.6127453000517562,395.098025699961,None,None,None,396.7338021999458,None,,,,,,,,,,,,,,,,,,,,,11003,1,2,2024_Jun_14_1438,stroop_task_switching2_b,2021.2.3,59.75521872246126,
condition/block_mixed_b,instruction/instr_mixed,instruction/i10_b,红,yellow,f,diamond,color_mix,颜色,,incompatible,2,,,,,,,,0,2,2,2,0,0,0,0,0,6,6,6,,,,,,,,,,,,,,,,,,,,,,,,,,,,,,,,,,,397.7353419000283,397.9375528000528,397.9189481999492,398.22015940002166,398.22015940002166,None,398.7210849999683,None,f,1,1.2778402999974787,398.7210849999683,None,None,None,400.02204079995863,None,,,,,,,,,,,,,,,,,,,,,11003,1,2,2024_Jun_14_1438,stroop_task_switching2_b,2021.2.3,59.75521872246126,
condition/block_mixed_b,instruction/instr_mixed,instruction/i10_b,红,yellow,k,square,color_mix,单词,,incompatible,2,,,,,,,,0,2,2,2,0,0,0,0,0,7,7,7,,,,,,,,,,,,,,,,,,,,,,,,,,,,,,,,,,,401.02341799996793,401.22560670005623,401.20722460001707,401.5077808999922,401.5077808999922,None,402.00944030005485,None,f,0,1.445862099993974,402.00944030005485,None,None,None,403.47753719997127,None,,,,,,,,,,,,,,,,,,,,,11003,1,2,2024_Jun_14_1438,stroop_task_switching2_b,2021.2.3,59.75521872246126,
condition/block_mixed_b,instruction/instr_mixed,instruction/i10_b,绿,blue,d,square,color_mix,单词,,incompatible,1,,,,,,,,0,2,2,2,0,0,0,0,0,8,8,8,,,,,,,,,,,,,,,,,,,,,,,,,,,,,,,,,,,404.47943710000254,404.680714600021,404.6628731000237,404.96352770004887,404.96352770004887,None,405.4648651999887,408.4689676000271,None,0,,405.4648651999887,408.4689676000271,408.45150860003196,None,409.1864738999866,None,,,,,,,,,,,,,,,,,,,,,11003,1,2,2024_Jun_14_1438,stroop_task_switching2_b,2021.2.3,59.75521872246126,
condition/block_mixed_b,instruction/instr_mixed,instruction/i10_b,蓝,green,d,diamond,color_mix,颜色,,incompatible,2,,,,,,,,0,2,2,2,0,0,0,0,0,9,9,9,,,,,,,,,,,,,,,,,,,,,,,,,,,,,,,,,,,410.1873507000273,410.3888854000252,410.3709670000244,410.67147199995816,410.67147199995816,None,411.1721824000124,None,j,0,2.9073070999002084,411.1721824000124,None,None,None,414.11024680000264,None,,,,,,,,,,,,,,,,,,,,,11003,1,2,2024_Jun_14_1438,stroop_task_switching2_b,2021.2.3,59.75521872246126,
condition/block_mixed_b,instruction/instr_mixed,instruction/i10_b,蓝,yellow,j,square,color_mix,单词,,incompatible,2,,,,,,,,0,2,2,2,0,0,0,0,0,10,10,10,,,,,,,,,,,,,,,,,,,,,,,,,,,,,,,,,,,415.11164699995425,415.3119299999671,415.29600089997984,415.5964420000091,415.5964420000091,None,416.0978623999981,None,j,1,2.669610399985686,416.0978623999981,None,None,None,418.783834700007,None,,,,,,,,,,,,,,,,,,,,,11003,1,2,2024_Jun_14_1438,stroop_task_switching2_b,2021.2.3,59.75521872246126,
condition/block_mixed_b,instruction/instr_mixed,instruction/i10_b,蓝,green,j,square,color_mix,单词,,incompatible,1,,,,,,,,0,2,2,2,0,0,0,0,0,11,11,11,,,,,,,,,,,,,,,,,,,,,,,,,,,,,,,,,,,419.78580469998997,419.9869212999474,419.9693235999439,420.26917410001624,420.26917410001624,None,420.77065680001397,None,j,1,1.949877699953504,420.77065680001397,None,None,None,422.73959130002186,None,,,,,,,,,,,,,,,,,,,,,11003,1,2,2024_Jun_14_1438,stroop_task_switching2_b,2021.2.3,59.75521872246126,
condition/block_mixed_b,instruction/instr_mixed,instruction/i10_b,绿,yellow,d,square,color_mix,单词,,incompatible,1,,,,,,,,0,2,2,2,0,0,0,0,0,12,12,12,,,,,,,,,,,,,,,,,,,,,,,,,,,,,,,,,,,423.7419993999647,423.9422832999844,423.9253887999803,424.2273197999457,424.2273197999457,None,424.727189600002,None,d,1,2.5366502000251785,424.727189600002,None,None,None,427.2812341999961,None,,,,,,,,,,,,,,,,,,,,,11003,1,2,2024_Jun_14_1438,stroop_task_switching2_b,2021.2.3,59.75521872246126,
condition/block_mixed_b,instruction/instr_mixed,instruction/i10_b,绿,blue,j,diamond,color_mix,颜色,,incompatible,2,,,,,,,,0,2,2,2,0,0,0,0,0,13,13,13,,,,,,,,,,,,,,,,,,,,,,,,,,,,,,,,,,,428.2822604000103,428.482548299944,428.4652107000584,428.76665620005224,428.76665620005224,None,429.2669079999905,None,j,1,2.5567455000709742,429.2669079999905,None,None,None,431.8535832000198,None,,,,,,,,,,,,,,,,,,,,,11003,1,2,2024_Jun_14_1438,stroop_task_switching2_b,2021.2.3,59.75521872246126,
condition/block_mixed_b,instruction/instr_mixed,instruction/i10_b,黄,red,f,square,color_mix,单词,,incompatible,2,,,,,,,,0,2,2,2,0,0,0,0,0,14,14,14,,,,,,,,,,,,,,,,,,,,,,,,,,,,,,,,,,,432.8557361999992,433.0571555000497,433.03877620003186,433.34067900001537,433.34067900001537,None,433.83969020005316,None,f,1,2.104976699920371,433.83969020005316,None,None,None,435.9606850000564,None,,,,,,,,,,,,,,,,,,,,,11003,1,2,2024_Jun_14_1438,stroop_task_switching2_b,2021.2.3,59.75521872246126,
condition/block_mixed_b,instruction/instr_mixed,instruction/i10_b,蓝,yellow,f,diamond,color_mix,颜色,,incompatible,2,,,,,,,,0,2,2,2,0,0,0,0,0,15,15,15,,,,,,,,,,,,,,,,,,,,,,,,,,,,,,,,,,,436.96174619998783,437.1614838000387,437.1456270000199,437.4452648999868,437.4452648999868,None,437.94712579995394,None,f,1,1.1812810999108478,437.94712579995394,None,None,None,439.1479301999789,None,,,,,,,,,,,,,,,,,,,,,11003,1,2,2024_Jun_14_1438,stroop_task_switching2_b,2021.2.3,59.75521872246126,
condition/block_mixed_b,instruction/instr_mixed,instruction/i10_b,黄,red,k,diamond,color_mix,颜色,,incompatible,1,,,,,,,,0,2,2,2,0,0,0,0,0,16,16,16,,,,,,,,,,,,,,,,,,,,,,,,,,,,,,,,,,,440.1493981999811,440.3509972000029,440.33281369996257,440.63423540000804,440.63423540000804,None,441.1346463999944,None,f,0,1.521555200102739,441.1346463999944,None,None,None,442.6868035000516,None,,,,,,,,,,,,,,,,,,,,,11003,1,2,2024_Jun_14_1438,stroop_task_switching2_b,2021.2.3,59.75521872246126,
condition/block_mixed_b,instruction/instr_mixed,instruction/i10_b,绿,red,d,square,color_mix,单词,,incompatible,2,,,,,,,,0,2,2,2,0,0,0,0,0,17,17,17,,,,,,,,,,,,,,,,,,,,,,,,,,,,,,,,,,,443.6884689000435,443.88894600002095,443.8724281999748,444.1719984000083,444.1719984000083,None,444.67307250003796,None,d,1,1.8791307000210509,444.67307250003796,None,None,None,446.575692399987,None,,,,,,,,,,,,,,,,,,,,,11003,1,2,2024_Jun_14_1438,stroop_task_switching2_b,2021.2.3,59.75521872246126,
condition/block_mixed_b,instruction/instr_mixed,instruction/i10_b,红,green,k,square,color_mix,单词,,incompatible,1,,,,,,,,0,2,2,2,0,0,0,0,0,18,18,18,,,,,,,,,,,,,,,,,,,,,,,,,,,,,,,,,,,447.5772748000454,447.7785042000469,447.7617772000376,448.0613394000102,448.0613394000102,None,448.56194259994663,None,k,1,1.9505725000053644,448.56194259994663,None,None,None,450.53145869995933,None,,,,,,,,,,,,,,,,,,,,,11003,1,2,2024_Jun_14_1438,stroop_task_switching2_b,2021.2.3,59.75521872246126,
condition/block_mixed_b,instruction/instr_mixed,instruction/i10_b,黄,blue,j,diamond,color_mix,颜色,,incompatible,2,,,,,,,,0,2,2,2,0,0,0,0,0,19,19,19,,,,,,,,,,,,,,,,,,,,,,,,,,,,,,,,,,,451.53305239998735,451.7343010000186,451.7167158999946,452.01833690004423,452.01833690004423,None,452.5189137000125,None,j,1,1.4016573000699282,452.5189137000125,None,None,None,453.93669470003806,None,,,,,,,,,,,,,,,,,,,,,11003,1,2,2024_Jun_14_1438,stroop_task_switching2_b,2021.2.3,59.75521872246126,
condition/block_mixed_b,instruction/instr_mixed,instruction/i10_b,黄,green,d,diamond,color_mix,颜色,,incompatible,1,,,,,,,,0,2,2,2,0,0,0,0,0,20,20,20,,,,,,,,,,,,,,,,,,,,,,,,,,,,,,,,,,,454.93886959995143,455.13978580001276,455.12260360002983,455.4222955000587,455.4222955000587,None,455.92308229999617,458.92758340004366,None,0,,455.92308229999617,458.92758340004366,458.89426900004037,None,459.6119270999916,None,,,,,,,,,,,,,,,,,,,,,11003,1,2,2024_Jun_14_1438,stroop_task_switching2_b,2021.2.3,59.75521872246126,
condition/block_mixed_b,instruction/instr_mixed,instruction/i10_b,黄,green,f,square,color_mix,单词,,incompatible,2,,,,,,,,0,2,2,2,0,0,0,0,0,21,21,21,,,,,,,,,,,,,,,,,,,,,,,,,,,,,,,,,,,460.6137305999873,460.8147705999436,460.7970470000291,461.09761010005604,461.09761010005604,None,461.5984185000416,None,d,0,2.410347600001842,461.5984185000416,None,None,None,464.0352786000585,None,,,,,,,,,,,,,,,,,,,,,11003,1,2,2024_Jun_14_1438,stroop_task_switching2_b,2021.2.3,59.75521872246126,
condition/block_mixed_b,instruction/instr_mixed,instruction/i10_b,黄,blue,f,square,color_mix,单词,,incompatible,1,,,,,,,,0,2,2,2,0,0,0,0,0,22,22,22,,,,,,,,,,,,,,,,,,,,,,,,,,,,,,,,,,,465.0375170999905,465.23768579994794,465.2211119000567,465.5215162000386,465.5215162000386,None,466.02258560003247,None,f,1,2.2826008000411093,466.02258560003247,None,None,None,468.3260232999455,None,,,,,,,,,,,,,,,,,,,,,11003,1,2,2024_Jun_14_1438,stroop_task_switching2_b,2021.2.3,59.75521872246126,
condition/block_mixed_b,instruction/instr_mixed,instruction/i10_b,蓝,red,j,square,color_mix,单词,,incompatible,1,,,,,,,,0,2,2,2,0,0,0,0,0,23,23,23,,,,,,,,,,,,,,,,,,,,,,,,,,,,,,,,,,,469.3281938000582,469.5269409000175,469.51143379998393,469.8115986000048,469.79474070004653,None,470.294842400006,None,j,1,2.130114500061609,470.294842400006,None,None,None,472.4487214999972,None,,,,,,,,,,,,,,,,,,,,,11003,1,2,2024_Jun_14_1438,stroop_task_switching2_b,2021.2.3,59.75521872246126,
condition/block_mixed_b,instruction/instr_mixed,instruction/i10_b,绿,red,k,diamond,color_mix,颜色,,incompatible,2,,,,,,,,0,2,2,2,0,0,0,0,0,24,24,24,,,,,,,,,,,,,,,,,,,,,,,,,,,,,,,,,,,473.4498207999859,473.65073560003657,473.6339370999485,473.9341997000156,473.9341997000156,None,474.4356221000198,None,k,1,2.0854638000018895,474.4356221000198,None,None,None,476.5375405000523,None,,,,,,,,,,,,,,,,,,,,,11003,1,2,2024_Jun_14_1438,stroop_task_switching2_b,2021.2.3,59.75521872246126,
condition/block_mixed_b,instruction/instr_mixed,instruction/i10_b,绿,green,d,diamond,color_mix,颜色,,compatible,1,,,,,,,,0,2,2,2,0,0,0,0,0,25,25,25,,,,,,,,,,,,,,,,,,,,,,,,,,,,,,,,,,,477.54025329998694,477.7406571999891,477.72324760002084,478.0233943000203,478.0233943000203,None,478.52458980004303,None,d,1,1.420721699949354,478.52458980004303,None,None,None,479.9759576000506,None,,,,,,,,,,,,,,,,,,,,,11003,1,2,2024_Jun_14_1438,stroop_task_switching2_b,2021.2.3,59.75521872246126,
condition/block_mixed_b,instruction/instr_mixed,instruction/i10_b,蓝,blue,j,diamond,color_mix,颜色,,compatible,1,,,,,,,,0,2,2,2,0,0,0,0,0,26,26,26,,,,,,,,,,,,,,,,,,,,,,,,,,,,,,,,,,,480.9785029999912,481.1783589000115,481.16109479998704,481.4638403999852,481.4638403999852,None,481.9792037999723,None,j,1,1.1819070000201464,481.9792037999723,None,None,None,483.1806946999859,None,,,,,,,,,,,,,,,,,,,,,11003,1,2,2024_Jun_14_1438,stroop_task_switching2_b,2021.2.3,59.75521872246126,
condition/block_mixed_b,instruction/instr_mixed,instruction/i10_b,绿,green,d,square,color_mix,单词,,compatible,2,,,,,,,,0,2,2,2,0,0,0,0,0,27,27,27,,,,,,,,,,,,,,,,,,,,,,,,,,,,,,,,,,,484.1826856000116,484.38322760001756,484.36731730005704,484.6663500999566,484.6663500999566,None,485.16719299997203,None,d,1,1.9866424000356346,485.16719299997203,None,None,None,487.1701354000252,None,,,,,,,,,,,,,,,,,,,,,11003,1,2,2024_Jun_14_1438,stroop_task_switching2_b,2021.2.3,59.75521872246126,
condition/block_mixed_b,instruction/instr_mixed,instruction/i10_b,绿,green,d,square,color_mix,单词,,compatible,1,,,,,,,,0,2,2,2,0,0,0,0,0,28,28,28,,,,,,,,,,,,,,,,,,,,,,,,,,,,,,,,,,,488.1717370999977,488.3733130999608,488.3566955999704,488.6563274000073,488.6563274000073,None,489.15664159995504,None,d,1,0.7331320999655873,489.15664159995504,None,None,None,489.907858200022,None,,,,,,,,,,,,,,,,,,,,,11003,1,2,2024_Jun_14_1438,stroop_task_switching2_b,2021.2.3,59.75521872246126,
condition/block_mixed_b,instruction/instr_mixed,instruction/i10_b,蓝,blue,j,square,color_mix,单词,,compatible,1,,,,,,,,0,2,2,2,0,0,0,0,0,29,29,29,,,,,,,,,,,,,,,,,,,,,,,,,,,,,,,,,,,490.9099295999622,491.1100492000114,491.0927202999592,491.3953603999689,491.3953603999689,None,491.91067929996643,None,j,1,1.2351354999700561,491.91067929996643,None,None,None,493.1638164999895,None,,,,,,,,,,,,,,,,,,,,,11003,1,2,2024_Jun_14_1438,stroop_task_switching2_b,2021.2.3,59.75521872246126,
condition/block_mixed_b,instruction/instr_mixed,instruction/i10_b,黄,yellow,f,diamond,color_mix,颜色,,compatible,2,,,,,,,,0,2,2,2,0,0,0,0,0,30,30,30,,,,,,,,,,,,,,,,,,,,,,,,,,,,,,,,,,,494.16495110001415,494.365335999988,494.34854150004685,494.64877730002627,494.64877730002627,None,495.1489324000431,None,f,1,1.285433099954389,495.1489324000431,None,None,None,496.45090990001336,None,,,,,,,,,,,,,,,,,,,,,11003,1,2,2024_Jun_14_1438,stroop_task_switching2_b,2021.2.3,59.75521872246126,
condition/block_mixed_b,instruction/instr_mixed,instruction/i10_b,绿,green,d,square,color_mix,单词,,compatible,2,,,,,,,,0,2,2,2,0,0,0,0,0,31,31,31,,,,,,,,,,,,,,,,,,,,,,,,,,,,,,,,,,,497.45246379997116,497.65470109996386,497.63606459996663,497.9373807000229,497.9373807000229,None,498.43749569996726,None,d,1,2.2442437999416143,498.43749569996726,None,None,None,500.7082009000005,None,,,,,,,,,,,,,,,,,,,,,11003,1,2,2024_Jun_14_1438,stroop_task_switching2_b,2021.2.3,59.75521872246126,
condition/block_mixed_b,instruction/instr_mixed,instruction/i10_b,黄,yellow,f,square,color_mix,单词,,compatible,1,,,,,,,,0,2,2,2,0,0,0,0,0,32,32,32,,,,,,,,,,,,,,,,,,,,,,,,,,,,,,,,,,,501.7091106000589,501.9088106000563,501.8933113999665,502.19291480001993,502.19291480001993,None,502.6946008000523,None,f,1,1.5632053000153974,502.6946008000523,None,None,None,504.2793174999533,None,,,,,,,,,,,,,,,,,,,,,11003,1,2,2024_Jun_14_1438,stroop_task_switching2_b,2021.2.3,59.75521872246126,
condition/block_mixed_b,instruction/instr_mixed,instruction/i10_b,绿,green,d,diamond,color_mix,颜色,,compatible,2,,,,,,,,0,2,2,2,0,0,0,0,0,33,33,33,,,,,,,,,,,,,,,,,,,,,,,,,,,,,,,,,,,505.2806596000446,505.48278810002375,505.4649038000498,505.7647701000096,505.7647701000096,None,506.26579019997735,None,d,1,1.8324096000287682,506.26579019997735,None,None,None,508.1189081999473,None,,,,,,,,,,,,,,,,,,,,,11003,1,2,2024_Jun_14_1438,stroop_task_switching2_b,2021.2.3,59.75521872246126,
condition/block_mixed_b,instruction/instr_mixed,instruction/i10_b,红,red,k,square,color_mix,单词,,compatible,2,,,,,,,,0,2,2,2,0,0,0,0,0,34,34,34,,,,,,,,,,,,,,,,,,,,,,,,,,,,,,,,,,,509.11997620004695,509.3209677999839,509.30393940000795,509.6062251999974,509.6062251999974,None,510.1048940999899,None,k,1,1.5291737000225112,510.1048940999899,None,None,None,511.6570589999901,None,,,,,,,,,,,,,,,,,,,,,11003,1,2,2024_Jun_14_1438,stroop_task_switching2_b,2021.2.3,59.75521872246126,
condition/block_mixed_b,instruction/instr_mixed,instruction/i10_b,黄,yellow,f,square,color_mix,单词,,compatible,1,,,,,,,,0,2,2,2,0,0,0,0,0,35,35,35,,,,,,,,,,,,,,,,,,,,,,,,,,,,,,,,,,,512.6593855000101,512.8590115000261,512.8426927999826,513.143245000043,513.143245000043,None,513.6443182999501,None,f,1,1.5659438000293449,513.6443182999501,None,None,None,515.2297293000156,None,,,,,,,,,,,,,,,,,,,,,11003,1,2,2024_Jun_14_1438,stroop_task_switching2_b,2021.2.3,59.75521872246126,
condition/block_mixed_b,instruction/instr_mixed,instruction/i10_b,绿,green,d,diamond,color_mix,颜色,,compatible,2,,,,,,,,0,2,2,2,0,0,0,0,0,36,36,36,,,,,,,,,,,,,,,,,,,,,,,,,,,,,,,,,,,516.2307437000563,516.4322815999622,516.4142735999776,516.7155143000418,516.7155143000418,None,517.2155072999885,None,d,1,1.8107126000104472,517.2155072999885,None,None,None,519.051806799951,None,,,,,,,,,,,,,,,,,,,,,11003,1,2,2024_Jun_14_1438,stroop_task_switching2_b,2021.2.3,59.75521872246126,
condition/block_mixed_b,instruction/instr_mixed,instruction/i10_b,蓝,blue,j,square,color_mix,单词,,compatible,2,,,,,,,,0,2,2,2,0,0,0,0,0,37,37,37,,,,,,,,,,,,,,,,,,,,,,,,,,,,,,,,,,,520.0540573999751,520.2547857000027,520.2377030999633,520.5372061999515,520.5372061999515,None,521.037765200017,None,j,1,1.012641099980101,521.037765200017,None,None,None,522.0729535999708,None,,,,,,,,,,,,,,,,,,,,,11003,1,2,2024_Jun_14_1438,stroop_task_switching2_b,2021.2.3,59.75521872246126,
condition/block_mixed_b,instruction/instr_mixed,instruction/i10_b,红,red,k,square,color_mix,单词,,compatible,1,,,,,,,,0,2,2,2,0,0,0,0,0,38,38,38,,,,,,,,,,,,,,,,,,,,,,,,,,,,,,,,,,,523.075080199982,523.2746391999535,523.2584060999798,523.5590910000028,523.5590910000028,None,524.0600703000091,None,d,0,1.2304220999358222,524.0600703000091,None,None,None,525.3109566000057,None,,,,,,,,,,,,,,,,,,,,,11003,1,2,2024_Jun_14_1438,stroop_task_switching2_b,2021.2.3,59.75521872246126,
condition/block_mixed_b,instruction/instr_mixed,instruction/i10_b,黄,yellow,f,diamond,color_mix,颜色,,compatible,2,,,,,,,,0,2,2,2,0,0,0,0,0,39,39,39,,,,,,,,,,,,,,,,,,,,,,,,,,,,,,,,,,,526.3125345000299,526.5133290999802,526.4961227000458,526.7971896999516,526.7971896999516,None,527.2984546000371,None,f,1,1.0724118000362068,527.2984546000371,None,None,None,528.3997148999479,None,,,,,,,,,,,,,,,,,,,,,11003,1,2,2024_Jun_14_1438,stroop_task_switching2_b,2021.2.3,59.75521872246126,
condition/block_mixed_b,instruction/instr_mixed,instruction/i10_b,黄,yellow,f,square,color_mix,单词,,compatible,2,,,,,,,,0,2,2,2,0,0,0,0,0,40,40,40,,,,,,,,,,,,,,,,,,,,,,,,,,,,,,,,,,,529.4014184999978,529.6006016000174,529.5851586000063,529.8846097999485,529.8846097999485,None,530.3852993999608,None,f,1,1.129437700030394,530.3852993999608,None,None,None,531.536973600043,None,,,,,,,,,,,,,,,,,,,,,11003,1,2,2024_Jun_14_1438,stroop_task_switching2_b,2021.2.3,59.75521872246126,
condition/block_mixed_b,instruction/instr_mixed,instruction/i10_b,蓝,blue,j,square,color_mix,单词,,compatible,1,,,,,,,,0,2,2,2,0,0,0,0,0,41,41,41,,,,,,,,,,,,,,,,,,,,,,,,,,,,,,,,,,,532.538877199986,532.739656800055,532.7230018000118,533.022718799999,533.022718799999,None,533.5248718999792,None,j,1,1.3097685999237,533.5248718999792,None,None,None,534.8587975000264,None,,,,,,,,,,,,,,,,,,,,,11003,1,2,2024_Jun_14_1438,stroop_task_switching2_b,2021.2.3,59.75521872246126,
condition/block_mixed_b,instruction/instr_mixed,instruction/i10_b,蓝,blue,j,diamond,color_mix,颜色,,compatible,2,,,,,,,,0,2,2,2,0,0,0,0,0,42,42,42,,,,,,,,,,,,,,,,,,,,,,,,,,,,,,,,,,,535.8602703999495,536.0608950000023,536.0439827999799,536.3464523999719,536.3464523999719,None,536.8618131000549,None,j,1,1.18094230000861,536.8618131000549,None,None,None,538.0637093000114,None,,,,,,,,,,,,,,,,,,,,,11003,1,2,2024_Jun_14_1438,stroop_task_switching2_b,2021.2.3,59.75521872246126,
condition/block_mixed_b,instruction/instr_mixed,instruction/i10_b,黄,yellow,f,diamond,color_mix,颜色,,compatible,1,,,,,,,,0,2,2,2,0,0,0,0,0,43,43,43,,,,,,,,,,,,,,,,,,,,,,,,,,,,,,,,,,,539.0658518000273,539.2659691999434,539.2493452000199,539.5508156999713,539.5508156999713,None,540.0508878000546,None,f,1,1.0479542999528348,540.0508878000546,None,None,None,541.1181244000327,None,,,,,,,,,,,,,,,,,,,,,11003,1,2,2024_Jun_14_1438,stroop_task_switching2_b,2021.2.3,59.75521872246126,
condition/block_mixed_b,instruction/instr_mixed,instruction/i10_b,红,red,k,diamond,color_mix,颜色,,compatible,1,,,,,,,,0,2,2,2,0,0,0,0,0,44,44,44,,,,,,,,,,,,,,,,,,,,,,,,,,,,,,,,,,,542.1209721999476,542.3200130000478,542.3044237999711,542.6052402999485,542.6052402999485,None,543.1057135000592,None,k,1,1.9934575000079349,543.1057135000592,None,None,None,545.1248131999746,None,,,,,,,,,,,,,,,,,,,,,11003,1,2,2024_Jun_14_1438,stroop_task_switching2_b,2021.2.3,59.75521872246126,
condition/block_mixed_b,instruction/instr_mixed,instruction/i10_b,蓝,blue,j,diamond,color_mix,颜色,,compatible,1,,,,,,,,0,2,2,2,0,0,0,0,0,45,45,45,,,,,,,,,,,,,,,,,,,,,,,,,,,,,,,,,,,546.1267605000176,546.3260641000234,546.3093113000505,546.6104568999726,546.6104568999726,None,547.1105450999457,None,j,1,1.24444629997015,547.1105450999457,None,None,None,548.3792468999745,None,,,,,,,,,,,,,,,,,,,,,11003,1,2,2024_Jun_14_1438,stroop_task_switching2_b,2021.2.3,59.75521872246126,
condition/block_mixed_b,instruction/instr_mixed,instruction/i10_b,红,red,k,diamond,color_mix,颜色,,compatible,1,,,,,,,,0,2,2,2,0,0,0,0,0,46,46,46,,,,,,,,,,,,,,,,,,,,,,,,,,,,,,,,,,,549.3807307999814,549.5809037999716,549.5655326000415,549.8648666000227,549.8648666000227,None,550.3665949000278,None,k,1,1.6364386000204831,550.3665949000278,None,None,None,552.0180036999518,None,,,,,,,,,,,,,,,,,,,,,11003,1,2,2024_Jun_14_1438,stroop_task_switching2_b,2021.2.3,59.75521872246126,
condition/block_mixed_b,instruction/instr_mixed,instruction/i10_b,红,red,k,square,color_mix,单词,,compatible,2,,,,,,,,0,2,2,2,0,0,0,0,0,47,47,47,,,,,,,,,,,,,,,,,,,,,,,,,,,,,,,,,,,553.0195386999985,553.2218282000395,553.2031459000427,553.5043271000031,553.5043271000031,None,554.004167499952,557.0101106000366,None,0,,554.004167499952,557.0101106000366,556.9922445999691,None,557.5763510999968,None,,,,,,,,,,,,,,,,,,,,,11003,1,2,2024_Jun_14_1438,stroop_task_switching2_b,2021.2.3,59.75521872246126,
condition/block_mixed_b,instruction/instr_mixed,instruction/i10_b,红,red,k,diamond,color_mix,颜色,,compatible,2,,,,,,,,0,2,2,2,0,0,0,0,0,48,48,48,,,,,,,,,,,,,,,,,,,,,,,,,,,,,,,,,,,558.5786610000068,558.7780919000506,558.7623809999786,559.062035299954,559.062035299954,None,559.5626037999755,None,k,1,0.79252739995718,559.5626037999755,None,None,None,560.380629500025,None,,,,,,,,,,,,,,,,,,,,,11003,1,2,2024_Jun_14_1438,stroop_task_switching2_b,2021.2.3,59.75521872246126,
condition/block_mixed_b,instruction/instr_mixed,instruction/i10_b,,,,,,,,,,,,,,,,,0,2,2,2,0,0,0,0,,,,,,,,,,,,,,,,,,,,,,,,,,,,,,,,,,,,,,,,,,,,,,,,,,,,,,,,561.38192970003,None,q,11.286253500031307,561.38192970003,None,,,,,,,,,,,,,,,11003,1,2,2024_Jun_14_1438,stroop_task_switching2_b,2021.2.3,59.75521872246126,
condition/block_mixed_b,instruction/instr_mixed,instruction/i10_b,蓝,red,k,diamond,color_mix,颜色,,incompatible,0,,,,,,,,0,2,2,2,1,0,1,0,0,0,0,0,,,,,,,,,,,,,,,,,,,,,,,,,,,573.6676043999614,574.6707944000373,574.6707944000373,575.6701828000369,575.6701828000369,None,572.6997912999941,573.7011705000186,576.7062495000428,576.9065527999774,576.8888029999798,577.1903368999483,577.1903368999483,None,577.68997019995,None,k,1,2.721748999902047,577.68997019995,None,None,None,580.4272895000177,None,,,,,,,,,,,,,,,,,,,,,11003,1,2,2024_Jun_14_1438,stroop_task_switching2_b,2021.2.3,59.75521872246126,
condition/block_mixed_b,instruction/instr_mixed,instruction/i10_b,绿,yellow,f,diamond,color_mix,颜色,,incompatible,1,,,,,,,,0,2,2,2,1,0,1,0,0,1,1,1,,,,,,,,,,,,,,,,,,,,,,,,,,,,,,,,,,,581.4295563000487,581.6293000000296,581.6128123999806,581.9130243000109,581.9130243000109,None,582.4137047999538,None,f,1,1.102752699982375,582.4137047999538,None,None,None,583.5320487000281,None,,,,,,,,,,,,,,,,,,,,,11003,1,2,2024_Jun_14_1438,stroop_task_switching2_b,2021.2.3,59.75521872246126,
condition/block_mixed_b,instruction/instr_mixed,instruction/i10_b,红,green,d,diamond,color_mix,颜色,,incompatible,1,,,,,,,,0,2,2,2,1,0,1,0,0,2,2,2,,,,,,,,,,,,,,,,,,,,,,,,,,,,,,,,,,,584.5338350000093,584.7340416000225,584.7179871000117,585.0187651000451,585.0187651000451,None,585.5188308999641,None,d,1,1.4450331999687478,585.5188308999641,None,None,None,586.9874007999897,None,,,,,,,,,,,,,,,,,,,,,11003,1,2,2024_Jun_14_1438,stroop_task_switching2_b,2021.2.3,59.75521872246126,
condition/block_mixed_b,instruction/instr_mixed,instruction/i10_b,蓝,red,k,diamond,color_mix,颜色,,incompatible,1,,,,,,,,0,2,2,2,1,0,1,0,0,3,3,3,,,,,,,,,,,,,,,,,,,,,,,,,,,,,,,,,,,587.9887614999898,588.1906734999502,588.1726328999503,588.4738580000121,588.4738580000121,None,588.9737960000057,None,j,0,1.0864378999685869,588.9737960000057,None,None,None,590.0758077000501,None,,,,,,,,,,,,,,,,,,,,,11003,1,2,2024_Jun_14_1438,stroop_task_switching2_b,2021.2.3,59.75521872246126,
condition/block_mixed_b,instruction/instr_mixed,instruction/i10_b,红,blue,j,diamond,color_mix,颜色,,incompatible,1,,,,,,,,0,2,2,2,1,0,1,0,0,4,4,4,,,,,,,,,,,,,,,,,,,,,,,,,,,,,,,,,,,591.0778027999913,591.2772989999503,591.2610795999644,591.5619858000427,591.5619858000427,None,592.0616699999664,None,j,1,1.6386242000153288,592.0616699999664,None,None,None,593.731013600016,None,,,,,,,,,,,,,,,,,,,,,11003,1,2,2024_Jun_14_1438,stroop_task_switching2_b,2021.2.3,59.75521872246126,
condition/block_mixed_b,instruction/instr_mixed,instruction/i10_b,红,blue,k,square,color_mix,单词,,incompatible,2,,,,,,,,0,2,2,2,1,0,1,0,0,5,5,5,,,,,,,,,,,,,,,,,,,,,,,,,,,,,,,,,,,594.7324013999896,594.9336639000103,594.9171686000191,595.2169402999571,595.2169402999571,None,595.7171152000083,None,k,1,1.7751611999701709,595.7171152000083,None,None,None,597.5198597999988,None,,,,,,,,,,,,,,,,,,,,,11003,1,2,2024_Jun_14_1438,stroop_task_switching2_b,2021.2.3,59.75521872246126,
condition/block_mixed_b,instruction/instr_mixed,instruction/i10_b,红,yellow,f,diamond,color_mix,颜色,,incompatible,2,,,,,,,,0,2,2,2,1,0,1,0,0,6,6,6,,,,,,,,,,,,,,,,,,,,,,,,,,,,,,,,,,,598.5215360999573,598.7217704999493,598.7054126999574,599.0070464999881,599.0070464999881,None,599.5062173999613,None,f,1,2.8105085999704897,599.5062173999613,None,None,None,602.3437870000489,None,,,,,,,,,,,,,,,,,,,,,11003,1,2,2024_Jun_14_1438,stroop_task_switching2_b,2021.2.3,59.75521872246126,
condition/block_mixed_b,instruction/instr_mixed,instruction/i10_b,红,yellow,k,square,color_mix,单词,,incompatible,2,,,,,,,,0,2,2,2,1,0,1,0,0,7,7,7,,,,,,,,,,,,,,,,,,,,,,,,,,,,,,,,,,,603.3462666999549,603.5466444999911,603.5308896000497,603.8300543000223,603.8300543000223,None,604.3302225000225,None,k,1,1.9142037999117747,604.3302225000225,None,None,None,606.26645190001,None,,,,,,,,,,,,,,,,,,,,,11003,1,2,2024_Jun_14_1438,stroop_task_switching2_b,2021.2.3,59.75521872246126,
condition/block_mixed_b,instruction/instr_mixed,instruction/i10_b,绿,blue,d,square,color_mix,单词,,incompatible,1,,,,,,,,0,2,2,2,1,0,1,0,0,8,8,8,,,,,,,,,,,,,,,,,,,,,,,,,,,,,,,,,,,607.2679441999644,607.4688510999549,607.4522748000454,607.7528555999743,607.7528555999743,None,608.2527706000255,None,d,1,1.9600696000270545,608.2527706000255,None,None,None,610.2390218999935,None,,,,,,,,,,,,,,,,,,,,,11003,1,2,2024_Jun_14_1438,stroop_task_switching2_b,2021.2.3,59.75521872246126,
condition/block_mixed_b,instruction/instr_mixed,instruction/i10_b,蓝,green,d,diamond,color_mix,颜色,,incompatible,2,,,,,,,,0,2,2,2,1,0,1,0,0,9,9,9,,,,,,,,,,,,,,,,,,,,,,,,,,,,,,,,,,,611.2406094999751,611.4421216000337,611.4241777999559,611.7253486999543,611.7253486999543,None,612.226159999962,None,j,0,2.3149029000196606,612.226159999962,None,None,None,614.5623274999671,None,,,,,,,,,,,,,,,,,,,,,11003,1,2,2024_Jun_14_1438,stroop_task_switching2_b,2021.2.3,59.75521872246126,
condition/block_mixed_b,instruction/instr_mixed,instruction/i10_b,蓝,yellow,j,square,color_mix,单词,,incompatible,2,,,,,,,,0,2,2,2,1,0,1,0,0,10,10,10,,,,,,,,,,,,,,,,,,,,,,,,,,,,,,,,,,,615.5638498000335,615.7654800999444,615.7474497000221,616.0480943999719,616.0480943999719,None,616.5484961000038,None,j,1,2.033691299962811,616.5484961000038,None,None,None,618.6017833000515,None,,,,,,,,,,,,,,,,,,,,,11003,1,2,2024_Jun_14_1438,stroop_task_switching2_b,2021.2.3,59.75521872246126,
condition/block_mixed_b,instruction/instr_mixed,instruction/i10_b,蓝,green,j,square,color_mix,单词,,incompatible,1,,,,,,,,0,2,2,2,1,0,1,0,0,11,11,11,,,,,,,,,,,,,,,,,,,,,,,,,,,,,,,,,,,619.6032924000174,619.8046143000247,619.7884508999996,620.0880869999528,620.0880869999528,None,620.587888399954,None,j,1,1.505112799932249,620.587888399954,None,None,None,622.1236761000473,None,,,,,,,,,,,,,,,,,,,,,11003,1,2,2024_Jun_14_1438,stroop_task_switching2_b,2021.2.3,59.75521872246126,
condition/block_mixed_b,instruction/instr_mixed,instruction/i10_b,绿,yellow,d,square,color_mix,单词,,incompatible,1,,,,,,,,0,2,2,2,1,0,1,0,0,12,12,12,,,,,,,,,,,,,,,,,,,,,,,,,,,,,,,,,,,623.1259408999467,623.3254246000433,623.3095602999674,623.6103510999819,623.6103510999819,None,624.1100797000108,None,d,1,2.054986000061035,624.1100797000108,None,None,None,626.1970470000524,None,,,,,,,,,,,,,,,,,,,,,11003,1,2,2024_Jun_14_1438,stroop_task_switching2_b,2021.2.3,59.75521872246126,
condition/block_mixed_b,instruction/instr_mixed,instruction/i10_b,绿,blue,j,diamond,color_mix,颜色,,incompatible,2,,,,,,,,0,2,2,2,1,0,1,0,0,13,13,13,,,,,,,,,,,,,,,,,,,,,,,,,,,,,,,,,,,627.197999499971,627.3998846999602,627.3815637000371,627.6819883000571,627.6819883000571,None,628.1835710000014,None,j,1,1.5256873000180349,628.1835710000014,None,None,None,629.7359297999647,None,,,,,,,,,,,,,,,,,,,,,11003,1,2,2024_Jun_14_1438,stroop_task_switching2_b,2021.2.3,59.75521872246126,
condition/block_mixed_b,instruction/instr_mixed,instruction/i10_b,黄,red,f,square,color_mix,单词,,incompatible,2,,,,,,,,0,2,2,2,1,0,1,0,0,14,14,14,,,,,,,,,,,,,,,,,,,,,,,,,,,,,,,,,,,630.7374180000043,630.9374794999603,630.9202287000371,631.2216997999931,631.2216997999931,None,631.7224156999728,None,f,1,1.6750678999815136,631.7224156999728,None,None,None,633.4245064000133,None,,,,,,,,,,,,,,,,,,,,,11003,1,2,2024_Jun_14_1438,stroop_task_switching2_b,2021.2.3,59.75521872246126,
condition/block_mixed_b,instruction/instr_mixed,instruction/i10_b,蓝,yellow,f,diamond,color_mix,颜色,,incompatible,2,,,,,,,,0,2,2,2,1,0,1,0,0,15,15,15,,,,,,,,,,,,,,,,,,,,,,,,,,,,,,,,,,,634.4256365000037,634.6262285000412,634.6110565999988,634.9273347000126,634.9106315999525,None,635.4116900999798,None,f,1,2.5218968999106437,635.4116900999798,None,None,None,637.9648915999569,None,,,,,,,,,,,,,,,,,,,,,11003,1,2,2024_Jun_14_1438,stroop_task_switching2_b,2021.2.3,59.75521872246126,
condition/block_mixed_b,instruction/instr_mixed,instruction/i10_b,黄,red,k,diamond,color_mix,颜色,,incompatible,1,,,,,,,,0,2,2,2,1,0,1,0,0,16,16,16,,,,,,,,,,,,,,,,,,,,,,,,,,,,,,,,,,,638.9657660999801,639.1663802999537,639.1508988999994,639.4675341000548,639.4514079999644,None,639.9506052000215,None,k,1,1.7189820000203326,639.9506052000215,None,None,None,641.6864228999475,None,,,,,,,,,,,,,,,,,,,,,11003,1,2,2024_Jun_14_1438,stroop_task_switching2_b,2021.2.3,59.75521872246126,
condition/block_mixed_b,instruction/instr_mixed,instruction/i10_b,绿,red,d,square,color_mix,单词,,incompatible,2,,,,,,,,0,2,2,2,1,0,1,0,0,17,17,17,,,,,,,,,,,,,,,,,,,,,,,,,,,,,,,,,,,642.6887540000025,642.8888798999833,642.8723071999848,643.1734482999891,643.1734482999891,None,643.6729712999659,None,d,1,0.8366085999878123,643.6729712999659,None,None,None,644.5408395000268,None,,,,,,,,,,,,,,,,,,,,,11003,1,2,2024_Jun_14_1438,stroop_task_switching2_b,2021.2.3,59.75521872246126,
condition/block_mixed_b,instruction/instr_mixed,instruction/i10_b,红,green,k,square,color_mix,单词,,incompatible,1,,,,,,,,0,2,2,2,1,0,1,0,0,18,18,18,,,,,,,,,,,,,,,,,,,,,,,,,,,,,,,,,,,645.5432896000566,645.742807899951,645.7259406000376,646.0275032999925,646.0275032999925,None,646.527088599978,None,d,0,1.6309699000557885,646.527088599978,None,None,None,648.1796573000029,None,,,,,,,,,,,,,,,,,,,,,11003,1,2,2024_Jun_14_1438,stroop_task_switching2_b,2021.2.3,59.75521872246126,
condition/block_mixed_b,instruction/instr_mixed,instruction/i10_b,黄,blue,j,diamond,color_mix,颜色,,incompatible,2,,,,,,,,0,2,2,2,1,0,1,0,0,19,19,19,,,,,,,,,,,,,,,,,,,,,,,,,,,,,,,,,,,649.1821653000079,649.3823118000291,649.3656808000524,649.6664345000172,649.6664345000172,None,650.167284199968,653.1719645999838,None,0,,650.167284199968,653.1719645999838,653.1378911000211,None,653.6713117000181,None,,,,,,,,,,,,,,,,,,,,,11003,1,2,2024_Jun_14_1438,stroop_task_switching2_b,2021.2.3,59.75521872246126,
condition/block_mixed_b,instruction/instr_mixed,instruction/i10_b,黄,green,d,diamond,color_mix,颜色,,incompatible,1,,,,,,,,0,2,2,2,1,0,1,0,0,20,20,20,,,,,,,,,,,,,,,,,,,,,,,,,,,,,,,,,,,654.6732377000153,654.8728337000357,654.856840500026,655.1579366000369,655.1409563999623,None,655.6408334999578,None,d,1,1.8535298999631777,655.6408334999578,None,None,None,657.510424099979,None,,,,,,,,,,,,,,,,,,,,,11003,1,2,2024_Jun_14_1438,stroop_task_switching2_b,2021.2.3,59.75521872246126,
condition/block_mixed_b,instruction/instr_mixed,instruction/i10_b,黄,green,f,square,color_mix,单词,,incompatible,2,,,,,,,,0,2,2,2,1,0,1,0,0,21,21,21,,,,,,,,,,,,,,,,,,,,,,,,,,,,,,,,,,,658.5126999999629,658.7128365000244,658.6963331999723,658.997894500033,658.997894500033,None,659.4971643999452,None,f,1,1.308699999935925,659.4971643999452,None,None,None,660.8326514000073,None,,,,,,,,,,,,,,,,,,,,,11003,1,2,2024_Jun_14_1438,stroop_task_switching2_b,2021.2.3,59.75521872246126,
condition/block_mixed_b,instruction/instr_mixed,instruction/i10_b,黄,blue,f,square,color_mix,单词,,incompatible,1,,,,,,,,0,2,2,2,1,0,1,0,0,22,22,22,,,,,,,,,,,,,,,,,,,,,,,,,,,,,,,,,,,661.83443789999,662.0348144000163,662.0171654999722,662.3182256000582,662.3182256000582,None,662.8194970999612,None,f,1,2.2669053999707103,662.8194970999612,None,None,None,665.1051773000509,None,,,,,,,,,,,,,,,,,,,,,11003,1,2,2024_Jun_14_1438,stroop_task_switching2_b,2021.2.3,59.75521872246126,
condition/block_mixed_b,instruction/instr_mixed,instruction/i10_b,蓝,red,j,square,color_mix,单词,,incompatible,1,,,,,,,,0,2,2,2,1,0,1,0,0,23,23,23,,,,,,,,,,,,,,,,,,,,,,,,,,,,,,,,,,,666.1067698999541,666.308665300021,666.2901347000152,666.5916581000201,666.5916581000201,None,667.091560699977,None,j,1,0.8909439000999555,667.091560699977,None,None,None,668.0100809000432,None,,,,,,,,,,,,,,,,,,,,,11003,1,2,2024_Jun_14_1438,stroop_task_switching2_b,2021.2.3,59.75521872246126,
condition/block_mixed_b,instruction/instr_mixed,instruction/i10_b,绿,red,k,diamond,color_mix,颜色,,incompatible,2,,,,,,,,0,2,2,2,1,0,1,0,0,24,24,24,,,,,,,,,,,,,,,,,,,,,,,,,,,,,,,,,,,669.0110993999988,669.213440499967,669.1945646000095,669.4963279999793,669.4963279999793,None,669.9964908000547,None,d,0,1.6898457000497729,669.9964908000547,None,None,None,671.7152404000517,None,,,,,,,,,,,,,,,,,,,,,11003,1,2,2024_Jun_14_1438,stroop_task_switching2_b,2021.2.3,59.75521872246126,
condition/block_mixed_b,instruction/instr_mixed,instruction/i10_b,绿,green,d,diamond,color_mix,颜色,,compatible,1,,,,,,,,0,2,2,2,1,0,1,0,0,25,25,25,,,,,,,,,,,,,,,,,,,,,,,,,,,,,,,,,,,672.7180843000533,672.9334628999932,672.9003005999839,673.2028047000058,673.2028047000058,None,673.7014697999693,None,d,1,2.0251597999595106,673.7014697999693,None,None,None,675.7555431999499,None,,,,,,,,,,,,,,,,,,,,,11003,1,2,2024_Jun_14_1438,stroop_task_switching2_b,2021.2.3,59.75521872246126,
condition/block_mixed_b,instruction/instr_mixed,instruction/i10_b,蓝,blue,j,diamond,color_mix,颜色,,compatible,1,,,,,,,,0,2,2,2,1,0,1,0,0,26,26,26,,,,,,,,,,,,,,,,,,,,,,,,,,,,,,,,,,,676.7561687000562,676.9569071000442,676.9395901999669,677.2410840999801,677.2410840999801,None,677.7409679000266,None,j,1,1.2978039999725297,677.7409679000266,None,None,None,679.0598945999518,None,,,,,,,,,,,,,,,,,,,,,11003,1,2,2024_Jun_14_1438,stroop_task_switching2_b,2021.2.3,59.75521872246126,
condition/block_mixed_b,instruction/instr_mixed,instruction/i10_b,绿,green,d,square,color_mix,单词,,compatible,2,,,,,,,,0,2,2,2,1,0,1,0,0,27,27,27,,,,,,,,,,,,,,,,,,,,,,,,,,,,,,,,,,,680.0622589000268,680.263674100046,680.2451238000067,680.545840100036,680.545840100036,None,681.0458989000181,None,d,1,1.9608383000595495,681.0458989000181,None,None,None,683.0321913999505,None,,,,,,,,,,,,,,,,,,,,,11003,1,2,2024_Jun_14_1438,stroop_task_switching2_b,2021.2.3,59.75521872246126,
condition/block_mixed_b,instruction/instr_mixed,instruction/i10_b,绿,green,d,square,color_mix,单词,,compatible,1,,,,,,,,0,2,2,2,1,0,1,0,0,28,28,28,,,,,,,,,,,,,,,,,,,,,,,,,,,,,,,,,,,684.0344357000431,684.2348564000567,684.218069500057,684.5185869999696,684.5185869999696,None,685.0189348000567,None,d,1,0.5719847999280319,685.0189348000567,None,None,None,685.6195336000528,None,,,,,,,,,,,,,,,,,,,,,11003,1,2,2024_Jun_14_1438,stroop_task_switching2_b,2021.2.3,59.75521872246126,
condition/block_mixed_b,instruction/instr_mixed,instruction/i10_b,蓝,blue,j,square,color_mix,单词,,compatible,1,,,,,,,,0,2,2,2,1,0,1,0,0,29,29,29,,,,,,,,,,,,,,,,,,,,,,,,,,,,,,,,,,,686.6216021999717,686.8213222000049,686.8045815000078,687.1057266000425,687.1057266000425,None,687.6059038999956,None,j,1,0.8171392000513151,687.6059038999956,None,None,None,688.4403244999703,None,,,,,,,,,,,,,,,,,,,,,11003,1,2,2024_Jun_14_1438,stroop_task_switching2_b,2021.2.3,59.75521872246126,
condition/block_mixed_b,instruction/instr_mixed,instruction/i10_b,黄,yellow,f,diamond,color_mix,颜色,,compatible,2,,,,,,,,0,2,2,2,1,0,1,0,0,30,30,30,,,,,,,,,,,,,,,,,,,,,,,,,,,,,,,,,,,689.4428808999946,689.6436771999579,689.6259282999672,689.9259191999445,689.9259191999445,None,690.4275539000519,None,f,1,1.4431076999753714,690.4275539000519,None,None,None,691.895512899966,None,,,,,,,,,,,,,,,,,,,,,11003,1,2,2024_Jun_14_1438,stroop_task_switching2_b,2021.2.3,59.75521872246126,
condition/block_mixed_b,instruction/instr_mixed,instruction/i10_b,绿,green,d,square,color_mix,单词,,compatible,2,,,,,,,,0,2,2,2,1,0,1,0,0,31,31,31,,,,,,,,,,,,,,,,,,,,,,,,,,,,,,,,,,,692.8974958000472,693.0974726000568,693.081907200045,693.3819496999495,693.3819496999495,None,693.8829823000124,None,d,1,1.7563191000372171,693.8829823000124,None,None,None,695.6683139000088,None,,,,,,,,,,,,,,,,,,,,,11003,1,2,2024_Jun_14_1438,stroop_task_switching2_b,2021.2.3,59.75521872246126,
condition/block_mixed_b,instruction/instr_mixed,instruction/i10_b,黄,yellow,f,square,color_mix,单词,,compatible,1,,,,,,,,0,2,2,2,1,0,1,0,0,32,32,32,,,,,,,,,,,,,,,,,,,,,,,,,,,,,,,,,,,696.6696018000366,696.8723075999878,696.8539815000258,697.1539266000036,697.1539266000036,None,697.6542567999568,None,f,1,0.5294238000642508,697.6542567999568,None,None,None,698.2052342999959,None,,,,,,,,,,,,,,,,,,,,,11003,1,2,2024_Jun_14_1438,stroop_task_switching2_b,2021.2.3,59.75521872246126,
condition/block_mixed_b,instruction/instr_mixed,instruction/i10_b,绿,green,d,diamond,color_mix,颜色,,compatible,2,,,,,,,,0,2,2,2,1,0,1,0,0,33,33,33,,,,,,,,,,,,,,,,,,,,,,,,,,,,,,,,,,,699.2074312999612,699.4077566999476,699.3909544999478,699.6911077999976,699.6911077999976,None,700.1913262000307,None,d,1,1.3038162000011653,700.1913262000307,None,None,None,701.5267233999912,None,,,,,,,,,,,,,,,,,,,,,11003,1,2,2024_Jun_14_1438,stroop_task_switching2_b,2021.2.3,59.75521872246126,
condition/block_mixed_b,instruction/instr_mixed,instruction/i10_b,红,red,k,square,color_mix,单词,,compatible,2,,,,,,,,0,2,2,2,1,0,1,0,0,34,34,34,,,,,,,,,,,,,,,,,,,,,,,,,,,,,,,,,,,702.5290260999463,702.7302956000203,702.712616099976,703.0130035999464,703.0130035999464,None,703.5141348999459,None,k,1,1.5651643000310287,703.5141348999459,None,None,None,705.0987998000346,None,,,,,,,,,,,,,,,,,,,,,11003,1,2,2024_Jun_14_1438,stroop_task_switching2_b,2021.2.3,59.75521872246126,
condition/block_mixed_b,instruction/instr_mixed,instruction/i10_b,黄,yellow,f,square,color_mix,单词,,compatible,1,,,,,,,,0,2,2,2,1,0,1,0,0,35,35,35,,,,,,,,,,,,,,,,,,,,,,,,,,,,,,,,,,,706.1002610999858,706.3024520999752,706.2839864999987,706.5856479000067,706.5856479000067,None,707.0857370999875,None,f,1,1.425844700075686,707.0857370999875,None,None,None,708.5380698000081,None,,,,,,,,,,,,,,,,,,,,,11003,1,2,2024_Jun_14_1438,stroop_task_switching2_b,2021.2.3,59.75521872246126,
condition/block_mixed_b,instruction/instr_mixed,instruction/i10_b,绿,green,d,diamond,color_mix,颜色,,compatible,2,,,,,,,,0,2,2,2,1,0,1,0,0,36,36,36,,,,,,,,,,,,,,,,,,,,,,,,,,,,,,,,,,,709.5401888999622,709.7399693999905,709.7233994000126,710.0243431000272,710.0243431000272,None,710.5239088999806,None,d,1,1.8441649999003857,710.5239088999806,None,None,None,712.3931989000412,None,,,,,,,,,,,,,,,,,,,,,11003,1,2,2024_Jun_14_1438,stroop_task_switching2_b,2021.2.3,59.75521872246126,
condition/block_mixed_b,instruction/instr_mixed,instruction/i10_b,蓝,blue,j,square,color_mix,单词,,compatible,2,,,,,,,,0,2,2,2,1,0,1,0,0,37,37,37,,,,,,,,,,,,,,,,,,,,,,,,,,,,,,,,,,,713.3954158000415,713.5960525999544,713.5790744000115,713.8807552000508,713.8807552000508,None,714.379581599962,None,j,1,1.3561086000408977,714.379581599962,None,None,None,715.7657751999795,None,,,,,,,,,,,,,,,,,,,,,11003,1,2,2024_Jun_14_1438,stroop_task_switching2_b,2021.2.3,59.75521872246126,
condition/block_mixed_b,instruction/instr_mixed,instruction/i10_b,红,red,k,square,color_mix,单词,,compatible,1,,,,,,,,0,2,2,2,1,0,1,0,0,38,38,38,,,,,,,,,,,,,,,,,,,,,,,,,,,,,,,,,,,716.7664000999648,716.9667269999627,716.9509322999511,717.2502234999556,717.2502234999556,None,717.7513669000473,None,d,0,2.056519699981436,717.7513669000473,None,None,None,719.8386791000376,None,,,,,,,,,,,,,,,,,,,,,11003,1,2,2024_Jun_14_1438,stroop_task_switching2_b,2021.2.3,59.75521872246126,
condition/block_mixed_b,instruction/instr_mixed,instruction/i10_b,黄,yellow,f,diamond,color_mix,颜色,,compatible,2,,,,,,,,0,2,2,2,1,0,1,0,0,39,39,39,,,,,,,,,,,,,,,,,,,,,,,,,,,,,,,,,,,720.8401141000213,721.0404866000172,721.0229807000142,721.3244672999717,721.3244672999717,None,721.8247265999671,None,f,1,1.2629751999629661,721.8247265999671,None,None,None,723.1092343999771,None,,,,,,,,,,,,,,,,,,,,,11003,1,2,2024_Jun_14_1438,stroop_task_switching2_b,2021.2.3,59.75521872246126,
condition/block_mixed_b,instruction/instr_mixed,instruction/i10_b,黄,yellow,f,square,color_mix,单词,,compatible,2,,,,,,,,0,2,2,2,1,0,1,0,0,40,40,40,,,,,,,,,,,,,,,,,,,,,,,,,,,,,,,,,,,724.1108835999621,724.311964499997,724.2957399999723,724.5955510999775,724.5955510999775,None,725.0957621999551,None,f,1,1.3124376999912784,725.0957621999551,None,None,None,726.431204100023,None,,,,,,,,,,,,,,,,,,,,,11003,1,2,2024_Jun_14_1438,stroop_task_switching2_b,2021.2.3,59.75521872246126,
condition/block_mixed_b,instruction/instr_mixed,instruction/i10_b,蓝,blue,j,square,color_mix,单词,,compatible,1,,,,,,,,0,2,2,2,1,0,1,0,0,41,41,41,,,,,,,,,,,,,,,,,,,,,,,,,,,,,,,,,,,727.4324300000444,727.6333867999492,727.6169576999964,727.9185920000309,727.9185920000309,None,728.4176017000573,None,j,1,1.2467619000235572,728.4176017000573,None,None,None,729.6859008000465,None,,,,,,,,,,,,,,,,,,,,,11003,1,2,2024_Jun_14_1438,stroop_task_switching2_b,2021.2.3,59.75521872246126,
condition/block_mixed_b,instruction/instr_mixed,instruction/i10_b,蓝,blue,j,diamond,color_mix,颜色,,compatible,2,,,,,,,,0,2,2,2,1,0,1,0,0,42,42,42,,,,,,,,,,,,,,,,,,,,,,,,,,,,,,,,,,,730.6879926000256,730.8877703000326,730.872534199967,731.1723280999577,731.1723280999577,None,731.672868900001,None,j,1,0.631431799964048,731.672868900001,None,None,None,732.3238586999942,None,,,,,,,,,,,,,,,,,,,,,11003,1,2,2024_Jun_14_1438,stroop_task_switching2_b,2021.2.3,59.75521872246126,
condition/block_mixed_b,instruction/instr_mixed,instruction/i10_b,黄,yellow,f,diamond,color_mix,颜色,,compatible,1,,,,,,,,0,2,2,2,1,0,1,0,0,43,43,43,,,,,,,,,,,,,,,,,,,,,,,,,,,,,,,,,,,733.3254782999866,733.5270886999788,733.5086304000579,733.8095964000095,733.8095964000095,None,734.3094704999821,None,f,1,1.0508403000421822,734.3094704999821,None,None,None,735.3778587999986,None,,,,,,,,,,,,,,,,,,,,,11003,1,2,2024_Jun_14_1438,stroop_task_switching2_b,2021.2.3,59.75521872246126,
condition/block_mixed_b,instruction/instr_mixed,instruction/i10_b,红,red,k,diamond,color_mix,颜色,,compatible,1,,,,,,,,0,2,2,2,1,0,1,0,0,44,44,44,,,,,,,,,,,,,,,,,,,,,,,,,,,,,,,,,,,736.3791202000575,736.5809315999504,736.5630000999663,736.8630530999508,736.8630530999508,None,737.3641560999677,None,k,1,1.2922444000141695,737.3641560999677,None,None,None,738.6844152000267,None,,,,,,,,,,,,,,,,,,,,,11003,1,2,2024_Jun_14_1438,stroop_task_switching2_b,2021.2.3,59.75521872246126,
condition/block_mixed_b,instruction/instr_mixed,instruction/i10_b,蓝,blue,j,diamond,color_mix,颜色,,compatible,1,,,,,,,,0,2,2,2,1,0,1,0,0,45,45,45,,,,,,,,,,,,,,,,,,,,,,,,,,,,,,,,,,,739.6845525000244,739.8853187999921,739.8685049000196,740.1707550999708,740.1707550999708,None,740.6866471000249,None,j,1,0.657418500049971,740.6866471000249,None,None,None,741.3701601000503,None,,,,,,,,,,,,,,,,,,,,,11003,1,2,2024_Jun_14_1438,stroop_task_switching2_b,2021.2.3,59.75521872246126,
condition/block_mixed_b,instruction/instr_mixed,instruction/i10_b,红,red,k,diamond,color_mix,颜色,,compatible,1,,,,,,,,0,2,2,2,1,0,1,0,0,46,46,46,,,,,,,,,,,,,,,,,,,,,,,,,,,,,,,,,,,742.3716745000565,742.5730938999914,742.5561852999963,742.8580874999752,742.8580874999752,None,743.3566951999674,None,k,1,0.8198644000804052,743.3566951999674,None,None,None,744.2085972999921,None,,,,,,,,,,,,,,,,,,,,,11003,1,2,2024_Jun_14_1438,stroop_task_switching2_b,2021.2.3,59.75521872246126,
condition/block_mixed_b,instruction/instr_mixed,instruction/i10_b,红,red,k,square,color_mix,单词,,compatible,2,,,,,,,,0,2,2,2,1,0,1,0,0,47,47,47,,,,,,,,,,,,,,,,,,,,,,,,,,,,,,,,,,,745.2099778000265,745.4113963999553,745.3928950000554,745.6938342000358,745.6938342000358,None,746.194825500017,None,k,1,0.7894875999772921,746.194825500017,None,None,None,747.0120102999499,None,,,,,,,,,,,,,,,,,,,,,11003,1,2,2024_Jun_14_1438,stroop_task_switching2_b,2021.2.3,59.75521872246126,
condition/block_mixed_b,instruction/instr_mixed,instruction/i10_b,红,red,k,diamond,color_mix,颜色,,compatible,2,,,,,,,,0,2,2,2,1,0,1,0,0,48,48,48,,,,,,,,,,,,,,,,,,,,,,,,,,,,,,,,,,,748.0135521000484,748.2138844999718,748.1972707000095,748.4984767000424,748.4984767000424,None,748.9992803999921,None,k,1,0.7298230000305921,748.9992803999921,None,None,None,749.7495289000217,None,,,,,,,,,,,,,,,,,,,,,11003,1,2,2024_Jun_14_1438,stroop_task_switching2_b,2021.2.3,59.75521872246126,
condition/block_mixed_b,instruction/instr_mixed,instruction/i10_b,,,,,,,,,,,,,,,,,0,2,2,2,1,0,1,0,,,,,,,,,,,,,,,,,,,,,,,,,,,,,,,,,,,,,,,,,,,,,,,,,,,,,,,,750.751099199988,None,space,4.785817800089717,750.751099199988,None,,,,,,,,,,,,,,,11003,1,2,2024_Jun_14_1438,stroop_task_switching2_b,2021.2.3,59.75521872246126,
condition/block_mixed_b,instruction/instr_mixed,instruction/i10_b,,,,,,,,,,,,,,,,,0,2,2,2,,,,,,,,,,,,,,,,,,,,,,,,,,,,,,,,,,,,,,,,,,,,,,,,,,,,,,,,,,,,,,,,,,,,,,,,,,,,,,,,11003,1,2,2024_Jun_14_1438,stroop_task_switching2_b,2021.2.3,59.75521872246126,
,,,红,red,k,square,color_mix,单词,,compatible,0,block_switch1_b,instruction/ready_test.png,instruction/i11.png,,,,,,,,,,,,,,,,,0,0,0,0,0,0,0,0,,,,,,,,,,,,,,,,,,,771.8011516999686,772.8009601000231,772.8009601000231,773.8037326999474,773.8037326999474,None,770.815201499965,771.8160184000153,774.8390448000282,775.0386901999591,775.0218119999627,775.3225399999646,775.3225399999646,None,775.8235384,None,k,1,1.281880100024864,775.8235384,None,None,None,,,,,,,,,755.5920270000352,None,space,15.201263499911875,755.5920270000352,None,,,,,,,,,11003,1,2,2024_Jun_14_1438,stroop_task_switching2_b,2021.2.3,59.75521872246126,
,,,绿,green,d,diamond,color_mix,颜色,,compatible,2,block_switch1_b,instruction/ready_test.png,instruction/i11.png,,,,,,,,,,,,,,,,,0,0,0,0,0,1,1,1,,,,,,,,,,,,,,,,,,,,,,,,,,,777.1240207999945,777.3243256000569,777.3084159999853,777.6091028000228,777.6091028000228,None,778.1102569999639,None,d,1,1.451352300005965,778.1102569999639,None,None,None,,,,,,,,,,,,,,,,,,,,,,,11003,1,2,2024_Jun_14_1438,stroop_task_switching2_b,2021.2.3,59.75521872246126,
,,,绿,yellow,f,diamond,color_mix,颜色,,incompatible,1,block_switch1_b,instruction/ready_test.png,instruction/i11.png,,,,,,,,,,,,,,,,,0,0,0,0,0,2,2,2,,,,,,,,,,,,,,,,,,,,,,,,,,,779.5777052999474,779.77945859998,779.7614415000426,780.062203599955,780.062203599955,None,780.5638523000525,None,f,1,1.493635999970138,780.5638523000525,None,None,None,,,,,,,,,,,,,,,,,,,,,,,11003,1,2,2024_Jun_14_1438,stroop_task_switching2_b,2021.2.3,59.75521872246126,
,,,蓝,blue,j,diamond,color_mix,颜色,,compatible,1,block_switch1_b,instruction/ready_test.png,instruction/i11.png,,,,,,,,,,,,,,,,,0,0,0,0,0,3,3,3,,,,,,,,,,,,,,,,,,,,,,,,,,,782.0816081999801,782.2832400000188,782.265200600028,782.566582200001,782.566582200001,None,783.0664574999828,None,j,1,1.0711088000098243,783.0664574999828,None,None,None,,,,,,,,,,,,,,,,,,,,,,,11003,1,2,2024_Jun_14_1438,stroop_task_switching2_b,2021.2.3,59.75521872246126,
,,,绿,green,d,square,color_mix,单词,,compatible,2,block_switch1_b,instruction/ready_test.png,instruction/i11.png,,,,,,,,,,,,,,,,,0,0,0,0,0,4,4,4,,,,,,,,,,,,,,,,,,,,,,,,,,,784.1693199999863,784.3691440999974,784.3524029999971,784.6521177999675,784.6521177999675,None,785.1540454999777,None,d,1,1.4876008999999613,785.1540454999777,None,None,None,,,,,,,,,,,,,,,,,,,,,,,11003,1,2,2024_Jun_14_1438,stroop_task_switching2_b,2021.2.3,59.75521872246126,
,,,绿,blue,j,diamond,color_mix,颜色,,incompatible,2,block_switch1_b,instruction/ready_test.png,instruction/i11.png,,,,,,,,,,,,,,,,,0,0,0,0,0,5,5,5,,,,,,,,,,,,,,,,,,,,,,,,,,,786.6718270999845,786.8721778000472,786.8555336999707,787.1562906999607,787.1562906999607,None,787.6575358000118,None,j,1,0.9200644000666216,787.6575358000118,None,None,None,,,,,,,,,,,,,,,,,,,,,,,11003,1,2,2024_Jun_14_1438,stroop_task_switching2_b,2021.2.3,59.75521872246126,
,,,黄,red,f,square,color_mix,单词,,incompatible,2,block_switch1_b,instruction/ready_test.png,instruction/i11.png,,,,,,,,,,,,,,,,,0,0,0,0,0,6,6,6,,,,,,,,,,,,,,,,,,,,,,,,,,,788.5912886000006,788.7917021999601,788.7769424000289,789.0754696000367,789.0754696000367,None,789.5765063000144,None,f,1,1.6011388000333682,789.5765063000144,None,None,None,,,,,,,,,,,,,,,,,,,,,,,11003,1,2,2024_Jun_14_1438,stroop_task_switching2_b,2021.2.3,59.75521872246126,
,,,绿,green,d,square,color_mix,单词,,compatible,1,block_switch1_b,instruction/ready_test.png,instruction/i11.png,,,,,,,,,,,,,,,,,0,0,0,0,0,7,7,7,,,,,,,,,,,,,,,,,,,,,,,,,,,791.1953092999756,791.3962804999901,791.3800026000245,791.680383100058,791.680383100058,None,792.1808983000228,None,d,1,1.2207826999947429,792.1808983000228,None,None,None,,,,,,,,,,,,,,,,,,,,,,,11003,1,2,2024_Jun_14_1438,stroop_task_switching2_b,2021.2.3,59.75521872246126,
,,,蓝,blue,j,square,color_mix,单词,,compatible,1,block_switch1_b,instruction/ready_test.png,instruction/i11.png,,,,,,,,,,,,,,,,,0,0,0,0,0,8,8,8,,,,,,,,,,,,,,,,,,,,,,,,,,,793.4320171000436,793.6331112999469,793.6173449000344,793.9158915999578,793.9158915999578,None,794.4177061000373,None,j,1,2.1371043999679387,794.4177061000373,None,None,None,,,,,,,,,,,,,,,,,,,,,,,11003,1,2,2024_Jun_14_1438,stroop_task_switching2_b,2021.2.3,59.75521872246126,
,,,红,red,k,diamond,color_mix,颜色,,compatible,2,block_switch1_b,instruction/ready_test.png,instruction/i11.png,,,,,,,,,,,,,,,,,0,0,0,0,0,9,9,9,,,,,,,,,,,,,,,,,,,,,,,,,,,796.5701828999445,796.7702413999941,796.7548699999461,797.0561323000584,797.0561323000584,None,797.5555006000213,None,k,1,1.6944421000080183,797.5555006000213,None,None,None,,,,,,,,,,,,,,,,,,,,,,,11003,1,2,2024_Jun_14_1438,stroop_task_switching2_b,2021.2.3,59.75521872246126,
,,,黄,yellow,f,diamond,color_mix,颜色,,compatible,1,block_switch1_b,instruction/ready_test.png,instruction/i11.png,,,,,,,,,,,,,,,,,0,0,0,0,0,10,10,10,,,,,,,,,,,,,,,,,,,,,,,,,,,799.2742708000587,799.4748810000019,799.459371099947,799.7757879999699,799.7603122000583,None,800.2760765999556,None,f,1,1.2297803999390453,800.2760765999556,None,None,None,,,,,,,,,,,,,,,,,,,,,,,11003,1,2,2024_Jun_14_1438,stroop_task_switching2_b,2021.2.3,59.75521872246126,
,,,绿,green,d,square,color_mix,单词,,compatible,2,block_switch1_b,instruction/ready_test.png,instruction/i11.png,,,,,,,,,,,,,,,,,0,0,0,0,0,11,11,11,,,,,,,,,,,,,,,,,,,,,,,,,,,801.5275394000346,801.7279749000445,801.7124774999684,802.0115754000144,802.0115754000144,None,802.5123723000288,None,d,1,1.4656778000062332,802.5123723000288,None,None,None,,,,,,,,,,,,,,,,,,,,,,,11003,1,2,2024_Jun_14_1438,stroop_task_switching2_b,2021.2.3,59.75521872246126,
,,,红,red,k,diamond,color_mix,颜色,,compatible,2,block_switch1_b,instruction/ready_test.png,instruction/i11.png,,,,,,,,,,,,,,,,,0,0,0,0,0,12,12,12,,,,,,,,,,,,,,,,,,,,,,,,,,,803.9982633000473,804.1991319999797,804.1822821999667,804.4828692999436,804.4828692999436,None,804.9830284999916,None,k,1,1.1393699999898672,804.9830284999916,None,None,None,,,,,,,,,,,,,,,,,,,,,,,11003,1,2,2024_Jun_14_1438,stroop_task_switching2_b,2021.2.3,59.75521872246126,
,,,红,red,k,diamond,color_mix,颜色,,compatible,1,block_switch1_b,instruction/ready_test.png,instruction/i11.png,,,,,,,,,,,,,,,,,0,0,0,0,0,13,13,13,,,,,,,,,,,,,,,,,,,,,,,,,,,806.1512664000038,806.3536636000499,806.3354969000211,806.6361861999612,806.6361861999612,None,807.1359451999888,None,k,1,0.5861343999858946,807.1359451999888,None,None,None,,,,,,,,,,,,,,,,,,,,,,,11003,1,2,2024_Jun_14_1438,stroop_task_switching2_b,2021.2.3,59.75521872246126,
,,,黄,yellow,f,square,color_mix,单词,,compatible,2,block_switch1_b,instruction/ready_test.png,instruction/i11.png,,,,,,,,,,,,,,,,,0,0,0,0,0,14,14,14,,,,,,,,,,,,,,,,,,,,,,,,,,,807.7535818000324,807.9546522999881,807.9372040999588,808.2380264999811,808.2380264999811,None,808.7383963000029,None,f,1,1.13597300008405,808.7383963000029,None,None,None,,,,,,,,,,,,,,,,,,,,,,,11003,1,2,2024_Jun_14_1438,stroop_task_switching2_b,2021.2.3,59.75521872246126,
,,,红,green,d,diamond,color_mix,颜色,,incompatible,2,block_switch1_b,instruction/ready_test.png,instruction/i11.png,,,,,,,,,,,,,,,,,0,0,0,0,0,15,15,15,,,,,,,,,,,,,,,,,,,,,,,,,,,809.8899759999476,810.0919015000109,810.0736885999795,810.3749946999596,810.3749946999596,None,810.8758150000358,None,d,1,1.4544492999557406,810.8758150000358,None,None,None,,,,,,,,,,,,,,,,,,,,,,,11003,1,2,2024_Jun_14_1438,stroop_task_switching2_b,2021.2.3,59.75521872246126,
,,,蓝,red,k,diamond,color_mix,颜色,,incompatible,1,block_switch1_b,instruction/ready_test.png,instruction/i11.png,,,,,,,,,,,,,,,,,0,0,0,0,0,16,16,16,,,,,,,,,,,,,,,,,,,,,,,,,,,812.3604607000016,812.5616471000249,812.5440607999917,812.84529940004,812.84529940004,None,813.3462369999615,None,k,1,1.4158647999865934,813.3462369999615,None,None,None,,,,,,,,,,,,,,,,,,,,,,,11003,1,2,2024_Jun_14_1438,stroop_task_switching2_b,2021.2.3,59.75521872246126,
,,,黄,green,d,diamond,color_mix,颜色,,incompatible,1,block_switch1_b,instruction/ready_test.png,instruction/i11.png,,,,,,,,,,,,,,,,,0,0,0,0,0,17,17,17,,,,,,,,,,,,,,,,,,,,,,,,,,,814.7810699000256,814.9833127999445,814.9651476000436,815.2663567999844,815.2663567999844,None,815.7665571999969,None,d,1,2.108003000030294,815.7665571999969,None,None,None,,,,,,,,,,,,,,,,,,,,,,,11003,1,2,2024_Jun_14_1438,stroop_task_switching2_b,2021.2.3,59.75521872246126,
,,,绿,green,d,diamond,color_mix,颜色,,compatible,1,block_switch1_b,instruction/ready_test.png,instruction/i11.png,,,,,,,,,,,,,,,,,0,0,0,0,0,18,18,18,,,,,,,,,,,,,,,,,,,,,,,,,,,817.9027106000576,818.10433500004,818.0859808999812,818.3882415000116,818.3882415000116,None,818.8880562999984,None,d,1,1.1309540000511333,818.8880562999984,None,None,None,,,,,,,,,,,,,,,,,,,,,,,11003,1,2,2024_Jun_14_1438,stroop_task_switching2_b,2021.2.3,59.75521872246126,
,,,黄,red,k,diamond,color_mix,颜色,,incompatible,1,block_switch1_b,instruction/ready_test.png,instruction/i11.png,,,,,,,,,,,,,,,,,0,0,0,0,0,19,19,19,,,,,,,,,,,,,,,,,,,,,,,,,,,820.0387506999541,820.2402023000177,820.2224823000142,820.5235989999492,820.5235989999492,None,821.02372930001,None,k,1,1.5465488999616355,821.02372930001,None,None,None,,,,,,,,,,,,,,,,,,,,,,,11003,1,2,2024_Jun_14_1438,stroop_task_switching2_b,2021.2.3,59.75521872246126,
,,,绿,yellow,d,square,color_mix,单词,,incompatible,2,block_switch1_b,instruction/ready_test.png,instruction/i11.png,,,,,,,,,,,,,,,,,0,0,0,0,0,20,20,20,,,,,,,,,,,,,,,,,,,,,,,,,,,822.5926054000156,822.7937469000462,822.7773553000297,823.0775308000157,823.0775308000157,None,823.5775712999748,None,d,1,1.9609390998957679,823.5775712999748,None,None,None,,,,,,,,,,,,,,,,,,,,,,,11003,1,2,2024_Jun_14_1438,stroop_task_switching2_b,2021.2.3,59.75521872246126,
,,,绿,yellow,f,diamond,color_mix,颜色,,incompatible,2,block_switch1_b,instruction/ready_test.png,instruction/i11.png,,,,,,,,,,,,,,,,,0,0,0,0,0,21,21,21,,,,,,,,,,,,,,,,,,,,,,,,,,,825.564236599952,825.7650078999577,825.7481978000142,826.048420200008,826.048420200008,None,826.5497264000587,None,f,1,2.069216499920003,826.5497264000587,None,None,None,,,,,,,,,,,,,,,,,,,,,,,11003,1,2,2024_Jun_14_1438,stroop_task_switching2_b,2021.2.3,59.75521872246126,
,,,绿,green,d,square,color_mix,单词,,compatible,2,block_switch1_b,instruction/ready_test.png,instruction/i11.png,,,,,,,,,,,,,,,,,0,0,0,0,0,22,22,22,,,,,,,,,,,,,,,,,,,,,,,,,,,828.6349766999483,828.8362645000452,828.8198909000494,829.1201259000227,829.1201259000227,None,829.6199014999438,None,d,1,1.7350942000048235,829.6199014999438,None,None,None,,,,,,,,,,,,,,,,,,,,,,,11003,1,2,2024_Jun_14_1438,stroop_task_switching2_b,2021.2.3,59.75521872246126,
,,,红,red,k,square,color_mix,单词,,compatible,1,block_switch1_b,instruction/ready_test.png,instruction/i11.png,,,,,,,,,,,,,,,,,0,0,0,0,0,23,23,23,,,,,,,,,,,,,,,,,,,,,,,,,,,831.3728082999587,831.5741908999626,831.5561955999583,831.8585501000052,831.8585501000052,None,832.3748060000362,None,k,1,1.7802964000729844,832.3748060000362,None,None,None,,,,,,,,,,,,,,,,,,,,,,,11003,1,2,2024_Jun_14_1438,stroop_task_switching2_b,2021.2.3,59.75521872246126,
,,,黄,green,f,square,color_mix,单词,,incompatible,1,block_switch1_b,instruction/ready_test.png,instruction/i11.png,,,,,,,,,,,,,,,,,0,0,0,0,0,24,24,24,,,,,,,,,,,,,,,,,,,,,,,,,,,834.1774624000536,834.3792606999632,834.3612022999441,834.6609170000302,834.6609170000302,None,835.1617219999898,838.1662876999471,None,0,,835.1617219999898,838.1662876999471,838.1493352999678,None,,,,,,,,,,,,,,,,,,,,,,,11003,1,2,2024_Jun_14_1438,stroop_task_switching2_b,2021.2.3,59.75521872246126,
,,,红,blue,k,square,color_mix,单词,,incompatible,1,block_switch1_b,instruction/ready_test.png,instruction/i11.png,,,,,,,,,,,,,,,,,0,0,0,0,0,25,25,25,,,,,,,,,,,,,,,,,,,,,,,,,,,838.8009280000115,839.0014995000092,838.986339300056,839.302657400025,839.2845616999548,None,839.7862939999904,None,k,1,2.688529000035487,839.7862939999904,None,None,None,,,,,,,,,,,,,,,,,,,,,,,11003,1,2,2024_Jun_14_1438,stroop_task_switching2_b,2021.2.3,59.75521872246126,
,,,黄,yellow,f,square,color_mix,单词,,compatible,1,block_switch1_b,instruction/ready_test.png,instruction/i11.png,,,,,,,,,,,,,,,,,0,0,0,0,0,26,26,26,,,,,,,,,,,,,,,,,,,,,,,,,,,842.5062986999983,842.7061306999531,842.689595600008,842.9902179000201,842.9902179000201,None,843.4909681000281,None,f,1,2.8245580999646336,843.4909681000281,None,None,None,,,,,,,,,,,,,,,,,,,,,,,11003,1,2,2024_Jun_14_1438,stroop_task_switching2_b,2021.2.3,59.75521872246126,
,,,蓝,green,j,square,color_mix,单词,,incompatible,1,block_switch1_b,instruction/ready_test.png,instruction/i11.png,,,,,,,,,,,,,,,,,0,0,0,0,0,27,27,27,,,,,,,,,,,,,,,,,,,,,,,,,,,846.345239700051,846.5472005000338,846.5288337999955,846.8308736999752,846.8308736999752,None,847.3297995999455,850.3350395000307,None,0,,847.3297995999455,850.3350395000307,850.3196341999574,None,,,,,,,,,,,,,,,,,,,,,,,11003,1,2,2024_Jun_14_1438,stroop_task_switching2_b,2021.2.3,59.75521872246126,
,,,绿,green,d,diamond,color_mix,颜色,,compatible,2,block_switch1_b,instruction/ready_test.png,instruction/i11.png,,,,,,,,,,,,,,,,,0,0,0,0,0,28,28,28,,,,,,,,,,,,,,,,,,,,,,,,,,,850.9199064000277,851.1198117999593,851.1034964000573,851.4037369999569,851.4037369999569,None,851.9036142999539,None,j,0,1.7005191000644118,851.9036142999539,None,None,None,,,,,,,,,,,,,,,,,,,,,,,11003,1,2,2024_Jun_14_1438,stroop_task_switching2_b,2021.2.3,59.75521872246126,
,,,黄,blue,j,diamond,color_mix,颜色,,incompatible,1,block_switch1_b,instruction/ready_test.png,instruction/i11.png,,,,,,,,,,,,,,,,,0,0,0,0,0,29,29,29,,,,,,,,,,,,,,,,,,,,,,,,,,,853.6226894999854,853.8233643999556,853.8071969000157,854.108675800031,854.108675800031,None,854.6082864999771,None,j,1,2.051861999905668,854.6082864999771,None,None,None,,,,,,,,,,,,,,,,,,,,,,,11003,1,2,2024_Jun_14_1438,stroop_task_switching2_b,2021.2.3,59.75521872246126,
,,,绿,green,d,diamond,color_mix,颜色,,compatible,1,block_switch1_b,instruction/ready_test.png,instruction/i11.png,,,,,,,,,,,,,,,,,0,0,0,0,0,30,30,30,,,,,,,,,,,,,,,,,,,,,,,,,,,856.6773064000299,856.8786419000244,856.8610758000286,857.16146079998,857.16146079998,None,857.6622423999943,None,j,0,1.3734370999736711,857.6622423999943,None,None,None,,,,,,,,,,,,,,,,,,,,,,,11003,1,2,2024_Jun_14_1438,stroop_task_switching2_b,2021.2.3,59.75521872246126,
,,,蓝,blue,j,square,color_mix,单词,,compatible,2,block_switch1_b,instruction/ready_test.png,instruction/i11.png,,,,,,,,,,,,,,,,,0,0,0,0,0,31,31,31,,,,,,,,,,,,,,,,,,,,,,,,,,,859.0645530000329,859.2656650999561,859.2489634000231,859.5508990000235,859.5508990000235,None,860.0659361999715,None,j,1,1.7777315999846905,860.0659361999715,None,None,None,,,,,,,,,,,,,,,,,,,,,,,11003,1,2,2024_Jun_14_1438,stroop_task_switching2_b,2021.2.3,59.75521872246126,
,,,红,red,k,square,color_mix,单词,,compatible,1,block_switch1_b,instruction/ready_test.png,instruction/i11.png,,,,,,,,,,,,,,,,,0,0,0,0,0,32,32,32,,,,,,,,,,,,,,,,,,,,,,,,,,,861.8685877999524,862.0707594000269,862.0522662999574,862.35347490001,862.35347490001,None,862.8542512999848,None,k,1,0.7977881000842899,862.8542512999848,None,None,None,,,,,,,,,,,,,,,,,,,,,,,11003,1,2,2024_Jun_14_1438,stroop_task_switching2_b,2021.2.3,59.75521872246126,
,,,红,green,k,square,color_mix,单词,,incompatible,1,block_switch1_b,instruction/ready_test.png,instruction/i11.png,,,,,,,,,,,,,,,,,0,0,0,0,0,33,33,33,,,,,,,,,,,,,,,,,,,,,,,,,,,863.6714215000393,863.8715775000164,863.8562105000019,864.1561192000518,864.1561192000518,None,864.6562665000092,None,k,1,1.3474755000788718,864.6562665000092,None,None,None,,,,,,,,,,,,,,,,,,,,,,,11003,1,2,2024_Jun_14_1438,stroop_task_switching2_b,2021.2.3,59.75521872246126,
,,,黄,yellow,f,diamond,color_mix,颜色,,compatible,2,block_switch1_b,instruction/ready_test.png,instruction/i11.png,,,,,,,,,,,,,,,,,0,0,0,0,0,34,34,34,,,,,,,,,,,,,,,,,,,,,,,,,,,866.0248651000438,866.226210599998,866.2093167999992,866.5099168999586,866.5099168999586,None,867.0103348999983,None,f,1,1.1700154000427574,867.0103348999983,None,None,None,,,,,,,,,,,,,,,,,,,,,,,11003,1,2,2024_Jun_14_1438,stroop_task_switching2_b,2021.2.3,59.75521872246126,
,,,红,green,d,diamond,color_mix,颜色,,incompatible,1,block_switch1_b,instruction/ready_test.png,instruction/i11.png,,,,,,,,,,,,,,,,,0,0,0,0,0,35,35,35,,,,,,,,,,,,,,,,,,,,,,,,,,,868.2113613999682,868.4116800000193,868.3951529000187,868.697463999968,868.697463999968,None,869.212943200022,None,f,0,2.070915100048296,869.212943200022,None,None,None,,,,,,,,,,,,,,,,,,,,,,,11003,1,2,2024_Jun_14_1438,stroop_task_switching2_b,2021.2.3,59.75521872246126,
,,,黄,yellow,f,square,color_mix,单词,,compatible,2,block_switch1_b,instruction/ready_test.png,instruction/i11.png,,,,,,,,,,,,,,,,,0,0,0,0,0,36,36,36,,,,,,,,,,,,,,,,,,,,,,,,,,,871.2994555999758,871.5006975999568,871.4846663000062,871.7835248999763,871.7835248999763,None,872.2845965999877,None,f,1,2.2551144000608474,872.2845965999877,None,None,None,,,,,,,,,,,,,,,,,,,,,,,11003,1,2,2024_Jun_14_1438,stroop_task_switching2_b,2021.2.3,59.75521872246126,
,,,蓝,blue,j,square,color_mix,单词,,compatible,1,block_switch1_b,instruction/ready_test.png,instruction/i11.png,,,,,,,,,,,,,,,,,0,0,0,0,0,37,37,37,,,,,,,,,,,,,,,,,,,,,,,,,,,874.5710930000059,874.7724601000082,874.7547504999675,875.0563250000123,875.0563250000123,None,875.5556159999687,None,j,1,1.6724815000779927,875.5556159999687,None,None,None,,,,,,,,,,,,,,,,,,,,,,,11003,1,2,2024_Jun_14_1438,stroop_task_switching2_b,2021.2.3,59.75521872246126,
,,,绿,red,k,diamond,color_mix,颜色,,incompatible,2,block_switch1_b,instruction/ready_test.png,instruction/i11.png,,,,,,,,,,,,,,,,,0,0,0,0,0,38,38,38,,,,,,,,,,,,,,,,,,,,,,,,,,,877.2583005999913,877.4596064999932,877.4434123999672,877.7439854999539,877.7439854999539,None,878.244487100048,None,k,1,1.2718853999394923,878.244487100048,None,None,None,,,,,,,,,,,,,,,,,,,,,,,11003,1,2,2024_Jun_14_1438,stroop_task_switching2_b,2021.2.3,59.75521872246126,
,,,黄,yellow,f,diamond,color_mix,颜色,,compatible,1,block_switch1_b,instruction/ready_test.png,instruction/i11.png,,,,,,,,,,,,,,,,,0,0,0,0,0,39,39,39,,,,,,,,,,,,,,,,,,,,,,,,,,,879.5452941999538,879.7473386999918,879.728859600029,880.0299973000074,880.0299973000074,None,880.5315553999972,None,f,1,0.9605256000068039,880.5315553999972,None,None,None,,,,,,,,,,,,,,,,,,,,,,,11003,1,2,2024_Jun_14_1438,stroop_task_switching2_b,2021.2.3,59.75521872246126,
,,,红,blue,j,diamond,color_mix,颜色,,incompatible,1,block_switch1_b,instruction/ready_test.png,instruction/i11.png,,,,,,,,,,,,,,,,,0,0,0,0,0,40,40,40,,,,,,,,,,,,,,,,,,,,,,,,,,,881.5148515000474,881.7159992000088,881.6994271000149,881.9997171000578,881.9997171000578,None,882.4997099000029,None,j,1,1.5444004000164568,882.4997099000029,None,None,None,,,,,,,,,,,,,,,,,,,,,,,11003,1,2,2024_Jun_14_1438,stroop_task_switching2_b,2021.2.3,59.75521872246126,
,,,绿,blue,d,square,color_mix,单词,,incompatible,2,block_switch1_b,instruction/ready_test.png,instruction/i11.png,,,,,,,,,,,,,,,,,0,0,0,0,0,41,41,41,,,,,,,,,,,,,,,,,,,,,,,,,,,884.0686696999473,884.2700243999716,884.2528710999759,884.5533164000371,884.5533164000371,None,885.0535992999794,888.058128100005,None,0,,885.0535992999794,888.058128100005,888.0412801000057,None,,,,,,,,,,,,,,,,,,,,,,,11003,1,2,2024_Jun_14_1438,stroop_task_switching2_b,2021.2.3,59.75521872246126,
,,,蓝,blue,j,diamond,color_mix,颜色,,compatible,2,block_switch1_b,instruction/ready_test.png,instruction/i11.png,,,,,,,,,,,,,,,,,0,0,0,0,0,42,42,42,,,,,,,,,,,,,,,,,,,,,,,,,,,888.6757443000097,888.8764546000166,888.860370600014,889.1602045999607,889.1602045999607,None,889.6604088000022,None,d,0,1.2321933000348508,889.6604088000022,None,None,None,,,,,,,,,,,,,,,,,,,,,,,11003,1,2,2024_Jun_14_1438,stroop_task_switching2_b,2021.2.3,59.75521872246126,
,,,红,blue,k,square,color_mix,单词,,incompatible,2,block_switch1_b,instruction/ready_test.png,instruction/i11.png,,,,,,,,,,,,,,,,,0,0,0,0,0,43,43,43,,,,,,,,,,,,,,,,,,,,,,,,,,,890.9124294000212,891.1135013999883,891.0981737000402,891.3968854000559,891.3968854000559,None,891.8971442000475,894.9017454000423,None,0,,891.8971442000475,894.9017454000423,894.8856658999575,None,,,,,,,,,,,,,,,,,,,,,,,11003,1,2,2024_Jun_14_1438,stroop_task_switching2_b,2021.2.3,59.75521872246126,
,,,蓝,green,d,diamond,color_mix,颜色,,incompatible,2,block_switch1_b,instruction/ready_test.png,instruction/i11.png,,,,,,,,,,,,,,,,,0,0,0,0,0,44,44,44,,,,,,,,,,,,,,,,,,,,,,,,,,,895.5194694000529,895.7207760999445,895.7027262999909,896.0040205999976,896.0040205999976,None,896.5042450999608,899.5095678999787,None,0,,896.5042450999608,899.5095678999787,899.4925825999817,None,,,,,,,,,,,,,,,,,,,,,,,11003,1,2,2024_Jun_14_1438,stroop_task_switching2_b,2021.2.3,59.75521872246126,
,,,黄,yellow,f,square,color_mix,单词,,compatible,2,block_switch1_b,instruction/ready_test.png,instruction/i11.png,,,,,,,,,,,,,,,,,0,0,0,0,0,45,45,45,,,,,,,,,,,,,,,,,,,,,,,,,,,900.0264525000239,900.2274614999769,900.2096580000361,900.5120019000024,900.5120019000024,None,901.012215099996,None,f,1,2.1368349000113085,901.012215099996,None,None,None,,,,,,,,,,,,,,,,,,,,,,,11003,1,2,2024_Jun_14_1438,stroop_task_switching2_b,2021.2.3,59.75521872246126,
,,,黄,yellow,f,diamond,color_mix,颜色,,compatible,2,block_switch1_b,instruction/ready_test.png,instruction/i11.png,,,,,,,,,,,,,,,,,0,0,0,0,0,46,46,46,,,,,,,,,,,,,,,,,,,,,,,,,,,903.1642078000586,903.3657782999799,903.3478699000552,903.6489862999879,903.6489862999879,None,904.149524700013,None,f,1,1.0556568000465631,904.149524700013,None,None,None,,,,,,,,,,,,,,,,,,,,,,,11003,1,2,2024_Jun_14_1438,stroop_task_switching2_b,2021.2.3,59.75521872246126,
,,,绿,red,d,square,color_mix,单词,,incompatible,2,block_switch1_b,instruction/ready_test.png,instruction/i11.png,,,,,,,,,,,,,,,,,0,0,0,0,0,47,47,47,,,,,,,,,,,,,,,,,,,,,,,,,,,905.2341058000457,905.4351303000003,905.4183903000085,905.7191183000105,905.7191183000105,None,906.2193681000499,None,d,1,1.4655460000503808,906.2193681000499,None,None,None,,,,,,,,,,,,,,,,,,,,,,,11003,1,2,2024_Jun_14_1438,stroop_task_switching2_b,2021.2.3,59.75521872246126,
,,,红,red,k,diamond,color_mix,颜色,,compatible,2,block_switch1_b,instruction/ready_test.png,instruction/i11.png,,,,,,,,,,,,,,,,,0,0,0,0,0,48,48,48,,,,,,,,,,,,,,,,,,,,,,,,,,,907.7042169000488,907.9049072000198,907.8871636999538,908.188791600056,908.188791600056,None,908.6892661999445,None,k,1,1.7400040000211447,908.6892661999445,None,None,None,,,,,,,,,,,,,,,,,,,,,,,11003,1,2,2024_Jun_14_1438,stroop_task_switching2_b,2021.2.3,59.75521872246126,
,,,蓝,blue,j,diamond,color_mix,颜色,,compatible,1,block_switch1_b,instruction/ready_test.png,instruction/i11.png,,,,,,,,,,,,,,,,,0,0,0,0,0,49,49,49,,,,,,,,,,,,,,,,,,,,,,,,,,,910.4585254000267,910.6594753999962,910.6421402000124,910.9450656999834,910.9450656999834,None,911.4608644000255,None,j,1,2.127943400060758,911.4608644000255,None,None,None,,,,,,,,,,,,,,,,,,,,,,,11003,1,2,2024_Jun_14_1438,stroop_task_switching2_b,2021.2.3,59.75521872246126,
,,,黄,yellow,f,diamond,color_mix,颜色,,compatible,1,block_switch1_b,instruction/ready_test.png,instruction/i11.png,,,,,,,,,,,,,,,,,0,0,0,0,0,50,50,50,,,,,,,,,,,,,,,,,,,,,,,,,,,913.6135769999819,913.8137484999606,913.7976556000067,914.0983082000166,914.0983082000166,None,914.5987308999756,None,f,1,1.2704141999129206,914.5987308999756,None,None,None,,,,,,,,,,,,,,,,,,,,,,,11003,1,2,2024_Jun_14_1438,stroop_task_switching2_b,2021.2.3,59.75521872246126,
,,,红,blue,j,diamond,color_mix,颜色,,incompatible,1,block_switch1_b,instruction/ready_test.png,instruction/i11.png,,,,,,,,,,,,,,,,,0,0,0,0,0,51,51,51,,,,,,,,,,,,,,,,,,,,,,,,,,,915.9000708999811,916.1014196999604,916.0846399000147,916.3852657000534,916.3852657000534,None,916.8848390999483,None,j,1,1.2883254999760538,916.8848390999483,None,None,None,,,,,,,,,,,,,,,,,,,,,,,11003,1,2,2024_Jun_14_1438,stroop_task_switching2_b,2021.2.3,59.75521872246126,
,,,蓝,yellow,f,diamond,color_mix,颜色,,incompatible,1,block_switch1_b,instruction/ready_test.png,instruction/i11.png,,,,,,,,,,,,,,,,,0,0,0,0,0,52,52,52,,,,,,,,,,,,,,,,,,,,,,,,,,,918.2035853000125,918.4044386999449,918.387217200012,918.6883380999789,918.6883380999789,None,919.1892851999728,None,f,1,1.2081033999565989,919.1892851999728,None,None,None,,,,,,,,,,,,,,,,,,,,,,,11003,1,2,2024_Jun_14_1438,stroop_task_switching2_b,2021.2.3,59.75521872246126,
