b_pra,ins_blocks,ins_blocks2,stim_word,stim_color,corrAns,cue_type,trial_type,task_type,rand,compatibility,switch,b_test,w_pic,w_pic2,trials_instr.thisRepN,trials_instr.thisTrialN,trials_instr.thisN,trials_instr.thisIndex,block_pra.thisRepN,block_pra.thisTrialN,block_pra.thisN,block_pra.thisIndex,trials_rep.thisRepN,trials_rep.thisTrialN,trials_rep.thisN,trials_rep.thisIndex,trials_pra.thisRepN,trials_pra.thisTrialN,trials_pra.thisN,trials_pra.thisIndex,trials_3.thisRepN,trials_3.thisTrialN,trials_3.thisN,trials_3.thisIndex,trials_2.thisRepN,trials_2.thisTrialN,trials_2.thisN,trials_2.thisIndex,instr_image.started,instr_image.stopped,instr_key_resp.keys,instr_key_resp.rt,instr_key_resp.started,instr_key_resp.stopped,instr_pra_image.started,instr_pra_image.stopped,ip_key_resp.keys,ip_key_resp.rt,ip_key_resp.started,ip_key_resp.stopped,block_image.started,block_image.stopped,ib_key_resp.keys,ib_key_resp.rt,ib_key_resp.started,ib_key_resp.stopped,cd3.started,cd3.stopped,cd2.started,cd2.stopped,cd1.started,cd1.stopped,cd_text.started,cd_text.stopped,text_fix.started,text_fix.stopped,text_2.started,text_2.stopped,text_4.started,text_4.stopped,text_target.started,text_target.stopped,key_resp.keys,key_resp.corr,key_resp.rt,key_resp.started,key_resp.stopped,sceen_black.started,sceen_black.stopped,text_fb.started,text_fb.stopped,text.started,text.stopped,key_bf.keys,key_bf.rt,key_bf.started,key_bf.stopped,instr_test_image.started,instr_test_image.stopped,instr_exp_key_resp.keys,instr_exp_key_resp.rt,instr_exp_key_resp.started,instr_exp_key_resp.stopped,text_rest.started,text_rest.stopped,key_resp_rest.keys,key_resp_rest.rt,key_resp_rest.started,key_resp_rest.stopped,text_3.started,text_3.stopped,participant,session,balance,date,expName,psychopyVersion,frameRate,
,,,,,,,,,,,,,,,0,0,0,0,,,,,,,,,,,,,,,,,,,,,8.728086599963717,None,right,1.0041800999315456,8.728086599963717,None,,,,,,,,,,,,,,,,,,,,,,,,,,,,,,,,,,,,,,,,,,,,,,,,,,,,,,,,,,11009,2,1,2024_Jun_04_1613,stroop_task_switching2,2021.2.3,59.84042949387417,
,,,,,,,,,,,,,,,1,0,1,0,,,,,,,,,,,,,,,,,,,,,9.7794820999261,None,right,4.657532399985939,9.7794820999261,None,,,,,,,,,,,,,,,,,,,,,,,,,,,,,,,,,,,,,,,,,,,,,,,,,,,,,,,,,,11009,2,1,2024_Jun_04_1613,stroop_task_switching2,2021.2.3,59.84042949387417,
,,,,,,,,,,,,,,,2,0,2,0,,,,,,,,,,,,,,,,,,,,,14.469754299963824,None,right,11.131818800000474,14.469754299963824,None,,,,,,,,,,,,,,,,,,,,,,,,,,,,,,,,,,,,,,,,,,,,,,,,,,,,,,,,,,11009,2,1,2024_Jun_04_1613,stroop_task_switching2,2021.2.3,59.84042949387417,
,,,,,,,,,,,,,,,3,0,3,0,,,,,,,,,,,,,,,,,,,,,25.636693299980834,None,right,7.400384500040673,25.636693299980834,None,,,,,,,,,,,,,,,,,,,,,,,,,,,,,,,,,,,,,,,,,,,,,,,,,,,,,,,,,,11009,2,1,2024_Jun_04_1613,stroop_task_switching2,2021.2.3,59.84042949387417,
,,,,,,,,,,,,,,,4,0,4,0,,,,,,,,,,,,,,,,,,,,,33.08136780001223,None,right,17.723531499970704,33.08136780001223,None,,,,,,,,,,,,,,,,,,,,,,,,,,,,,,,,,,,,,,,,,,,,,,,,,,,,,,,,,,11009,2,1,2024_Jun_04_1613,stroop_task_switching2,2021.2.3,59.84042949387417,
,,,,,,,,,,,,,,,5,0,5,0,,,,,,,,,,,,,,,,,,,,,50.8413401999278,None,right,0.9199712999397889,50.8413401999278,None,,,,,,,,,,,,,,,,,,,,,,,,,,,,,,,,,,,,,,,,,,,,,,,,,,,,,,,,,,11009,2,1,2024_Jun_04_1613,stroop_task_switching2,2021.2.3,59.84042949387417,
,,,,,,,,,,,,,,,,,,,,,,,,,,,,,,,,,,,,,,,,,,,,,51.809789999970235,None,space,1.8228007999714464,51.809789999970235,None,,,,,,,,,,,,,,,,,,,,,,,,,,,,,,,,,,,,,,,,,,,,,,,,,,,,11009,2,1,2024_Jun_04_1613,stroop_task_switching2,2021.2.3,59.84042949387417,
condition/block_color,instruction/instr_color,instruction/i8,XX,red,d,diamond,color_single,颜色,,,,,,,,,,,0,0,0,0,0,0,0,0,0,0,0,0,,,,,,,,,,,,,,,,,,,,,53.67893809999805,None,space,19.591440099989995,53.67893809999805,None,74.32673700002488,75.32824509998318,75.32824509998318,76.32988430000842,76.32988430000842,None,73.35876420000568,74.36031339992769,77.3147970000282,77.51557309995405,77.49816959991585,77.7988125999691,77.7988125999691,None,78.29941139998846,None,d,1,0.6588764999760315,78.29941139998846,None,None,None,78.98374729999341,None,,,,,,,,,,,,,,,,,,,,,11009,2,1,2024_Jun_04_1613,stroop_task_switching2,2021.2.3,59.84042949387417,
condition/block_color,instruction/instr_color,instruction/i8,XX,green,k,diamond,color_single,颜色,,,,,,,,,,,0,0,0,0,0,0,0,0,0,1,1,1,,,,,,,,,,,,,,,,,,,,,,,,,,,,,,,,,,,79.98527369997464,80.18560760002583,80.16892399999779,80.47104959993158,80.47104959993158,None,80.97029139997903,None,k,1,0.8276500999927521,80.97029139997903,None,None,None,81.8215020999778,None,,,,,,,,,,,,,,,,,,,,,11009,2,1,2024_Jun_04_1613,stroop_task_switching2,2021.2.3,59.84042949387417,
condition/block_color,instruction/instr_color,instruction/i8,XX,yellow,j,diamond,color_single,颜色,,,,,,,,,,,0,0,0,0,0,0,0,0,0,2,2,2,,,,,,,,,,,,,,,,,,,,,,,,,,,,,,,,,,,82.82305509992875,83.02365679992363,83.00652529997751,83.30751810001675,83.30751810001675,None,83.8077948000282,None,j,1,0.7425755999283865,83.8077948000282,None,None,None,84.57551499991678,None,,,,,,,,,,,,,,,,,,,,,11009,2,1,2024_Jun_04_1613,stroop_task_switching2,2021.2.3,59.84042949387417,
condition/block_color,instruction/instr_color,instruction/i8,XX,blue,f,diamond,color_single,颜色,,,,,,,,,,,0,0,0,0,0,0,0,0,0,3,3,3,,,,,,,,,,,,,,,,,,,,,,,,,,,,,,,,,,,85.57701439992525,85.77863950002939,85.7606100999983,86.06120769993868,86.06120769993868,None,86.56184260000009,None,f,1,0.4445833000354469,86.56184260000009,None,None,None,87.0293692999985,None,,,,,,,,,,,,,,,,,,,,,11009,2,1,2024_Jun_04_1613,stroop_task_switching2,2021.2.3,59.84042949387417,
condition/block_color,instruction/instr_color,instruction/i8,XX,green,k,diamond,color_single,颜色,,,,,,,,,,,0,0,0,0,0,0,0,0,0,4,4,4,,,,,,,,,,,,,,,,,,,,,,,,,,,,,,,,,,,88.03096210001968,88.2312769999262,88.21442829992156,88.51583219994791,88.51583219994791,None,89.01573609991465,None,k,1,0.9510031000245363,89.01573609991465,None,None,None,89.98384889995214,None,,,,,,,,,,,,,,,,,,,,,11009,2,1,2024_Jun_04_1613,stroop_task_switching2,2021.2.3,59.84042949387417,
condition/block_color,instruction/instr_color,instruction/i8,XX,yellow,j,diamond,color_single,颜色,,,,,,,,,,,0,0,0,0,0,0,0,0,0,5,5,5,,,,,,,,,,,,,,,,,,,,,,,,,,,,,,,,,,,90.98521579999942,91.18761799996719,91.1691721000243,91.46946269995533,91.46946269995533,None,91.97019239992369,None,j,1,0.5084067999850959,91.97019239992369,None,None,None,92.50433279993013,None,,,,,,,,,,,,,,,,,,,,,11009,2,1,2024_Jun_04_1613,stroop_task_switching2,2021.2.3,59.84042949387417,
condition/block_color,instruction/instr_color,instruction/i8,XX,blue,f,diamond,color_single,颜色,,,,,,,,,,,0,0,0,0,0,0,0,0,0,6,6,6,,,,,,,,,,,,,,,,,,,,,,,,,,,,,,,,,,,93.50569319992792,93.70747749996372,93.68939509999473,93.99085820000619,93.99085820000619,None,94.49052340001799,None,f,1,0.4441615999676287,94.49052340001799,None,None,None,94.95802599994931,None,,,,,,,,,,,,,,,,,,,,,11009,2,1,2024_Jun_04_1613,stroop_task_switching2,2021.2.3,59.84042949387417,
condition/block_color,instruction/instr_color,instruction/i8,XX,red,d,diamond,color_single,颜色,,,,,,,,,,,0,0,0,0,0,0,0,0,0,7,7,7,,,,,,,,,,,,,,,,,,,,,,,,,,,,,,,,,,,95.95953599992208,96.16044140001759,96.1430873000063,96.44464769994374,96.44464769994374,None,96.9442255999893,None,d,1,0.6146117000607774,96.9442255999893,None,None,None,97.57871329993941,None,,,,,,,,,,,,,,,,,,,,,11009,2,1,2024_Jun_04_1613,stroop_task_switching2,2021.2.3,59.84042949387417,
condition/block_color,instruction/instr_color,instruction/i8,XX,yellow,j,diamond,color_single,颜色,,,,,,,,,,,0,0,0,0,0,0,0,0,0,8,8,8,,,,,,,,,,,,,,,,,,,,,,,,,,,,,,,,,,,98.5803463999182,98.7815055999672,98.76381709997077,99.06447250000201,99.06447250000201,None,99.56489379995037,None,j,1,0.6736436999635771,99.56489379995037,None,None,None,100.2659845999442,None,,,,,,,,,,,,,,,,,,,,,11009,2,1,2024_Jun_04_1613,stroop_task_switching2,2021.2.3,59.84042949387417,
condition/block_color,instruction/instr_color,instruction/i8,XX,blue,f,diamond,color_single,颜色,,,,,,,,,,,0,0,0,0,0,0,0,0,0,9,9,9,,,,,,,,,,,,,,,,,,,,,,,,,,,,,,,,,,,101.2674960999284,101.46798810001928,101.45214249996934,101.75284640002064,101.75284640002064,None,102.25224499998149,None,f,1,0.5466064000502229,102.25224499998149,None,None,None,102.82028179999907,None,,,,,,,,,,,,,,,,,,,,,11009,2,1,2024_Jun_04_1613,stroop_task_switching2,2021.2.3,59.84042949387417,
condition/block_color,instruction/instr_color,instruction/i8,XX,red,d,diamond,color_single,颜色,,,,,,,,,,,0,0,0,0,0,0,0,0,0,10,10,10,,,,,,,,,,,,,,,,,,,,,,,,,,,,,,,,,,,103.82130009995308,104.02416489995085,104.00498999992851,104.30534959991928,104.30534959991928,None,104.806199499988,None,d,1,0.43325370003003627,104.806199499988,None,None,None,105.25687649997417,None,,,,,,,,,,,,,,,,,,,,,11009,2,1,2024_Jun_04_1613,stroop_task_switching2,2021.2.3,59.84042949387417,
condition/block_color,instruction/instr_color,instruction/i8,XX,green,k,diamond,color_single,颜色,,,,,,,,,,,0,0,0,0,0,0,0,0,0,11,11,11,,,,,,,,,,,,,,,,,,,,,,,,,,,,,,,,,,,106.25845169997774,106.45925529999658,106.44201809994411,106.74287169997115,106.74287169997115,None,107.24319279997144,None,k,1,0.5637529999949038,107.24319279997144,None,None,None,107.82731879991479,None,,,,,,,,,,,,,,,,,,,,,11009,2,1,2024_Jun_04_1613,stroop_task_switching2,2021.2.3,59.84042949387417,
condition/block_color,instruction/instr_color,instruction/i8,XX,blue,f,diamond,color_single,颜色,,,,,,,,,,,0,0,0,0,0,0,0,0,0,12,12,12,,,,,,,,,,,,,,,,,,,,,,,,,,,,,,,,,,,108.82898019999266,109.02992000000086,109.01252969994675,109.31321499997284,109.31321499997284,None,109.81374050001614,None,f,1,0.5771300999913365,109.81374050001614,None,None,None,110.41451309993863,None,,,,,,,,,,,,,,,,,,,,,11009,2,1,2024_Jun_04_1613,stroop_task_switching2,2021.2.3,59.84042949387417,
condition/block_color,instruction/instr_color,instruction/i8,XX,red,d,diamond,color_single,颜色,,,,,,,,,,,0,0,0,0,0,0,0,0,0,13,13,13,,,,,,,,,,,,,,,,,,,,,,,,,,,,,,,,,,,111.41652079997584,111.61611319996882,111.60101230000146,111.90030340000521,111.90030340000521,None,112.40078609995544,None,d,1,0.43839730008039623,112.40078609995544,None,None,None,112.86836189997848,None,,,,,,,,,,,,,,,,,,,,,11009,2,1,2024_Jun_04_1613,stroop_task_switching2,2021.2.3,59.84042949387417,
condition/block_color,instruction/instr_color,instruction/i8,XX,green,k,diamond,color_single,颜色,,,,,,,,,,,0,0,0,0,0,0,0,0,0,14,14,14,,,,,,,,,,,,,,,,,,,,,,,,,,,,,,,,,,,113.86994879995473,114.06995079992339,114.05333139991853,114.35536529996898,114.35536529996898,None,114.8546865999233,None,k,1,1.3042800000403076,114.8546865999233,None,None,None,116.18991940002888,None,,,,,,,,,,,,,,,,,,,,,11009,2,1,2024_Jun_04_1613,stroop_task_switching2,2021.2.3,59.84042949387417,
condition/block_color,instruction/instr_color,instruction/i8,XX,yellow,j,diamond,color_single,颜色,,,,,,,,,,,0,0,0,0,0,0,0,0,0,15,15,15,,,,,,,,,,,,,,,,,,,,,,,,,,,,,,,,,,,117.19143080001231,117.39236669999082,117.3751114999177,117.67690349998884,117.67690349998884,None,118.17637459991965,None,j,1,0.6387283999938518,118.17637459991965,None,None,None,118.84419299999718,None,,,,,,,,,,,,,,,,,,,,,11009,2,1,2024_Jun_04_1613,stroop_task_switching2,2021.2.3,59.84042949387417,
condition/block_color,instruction/instr_color,instruction/i8,XX,red,d,diamond,color_single,颜色,,,,,,,,,,,0,0,0,0,0,0,0,0,0,16,16,16,,,,,,,,,,,,,,,,,,,,,,,,,,,,,,,,,,,119.84580429992639,120.0473155999789,120.02919279993512,120.3297185000265,120.3297185000265,None,120.83047279994935,None,d,1,0.4728441999759525,120.83047279994935,None,None,None,121.33107870002277,None,,,,,,,,,,,,,,,,,,,,,11009,2,1,2024_Jun_04_1613,stroop_task_switching2,2021.2.3,59.84042949387417,
condition/block_color,instruction/instr_color,instruction/i8,XX,green,k,diamond,color_single,颜色,,,,,,,,,,,0,0,0,0,0,0,0,0,0,17,17,17,,,,,,,,,,,,,,,,,,,,,,,,,,,,,,,,,,,122.33257839991711,122.53288139996585,122.51627679995727,122.81780560000334,122.81780560000334,None,123.31752789998427,None,k,1,0.5940970000810921,123.31752789998427,None,None,None,123.93523039994761,None,,,,,,,,,,,,,,,,,,,,,11009,2,1,2024_Jun_04_1613,stroop_task_switching2,2021.2.3,59.84042949387417,
condition/block_color,instruction/instr_color,instruction/i8,XX,yellow,j,diamond,color_single,颜色,,,,,,,,,,,0,0,0,0,0,0,0,0,0,18,18,18,,,,,,,,,,,,,,,,,,,,,,,,,,,,,,,,,,,124.93653479998466,125.13764560001437,125.12035500002094,125.42038589995354,125.42038589995354,None,125.92140500003006,None,j,1,0.4378527000080794,125.92140500003006,None,None,None,126.3888609999558,None,,,,,,,,,,,,,,,,,,,,,11009,2,1,2024_Jun_04_1613,stroop_task_switching2,2021.2.3,59.84042949387417,
condition/block_color,instruction/instr_color,instruction/i8,XX,blue,f,diamond,color_single,颜色,,,,,,,,,,,0,0,0,0,0,0,0,0,0,19,19,19,,,,,,,,,,,,,,,,,,,,,,,,,,,,,,,,,,,127.39027139998507,127.59088709997013,127.57549259997904,127.87416529993061,127.87416529993061,None,128.37498259998392,None,f,1,0.641205899999477,128.37498259998392,None,None,None,129.0425849999301,None,,,,,,,,,,,,,,,,,,,,,11009,2,1,2024_Jun_04_1613,stroop_task_switching2,2021.2.3,59.84042949387417,
condition/block_color,instruction/instr_color,instruction/i8,XX,green,k,diamond,color_single,颜色,,,,,,,,,,,0,0,0,0,0,0,0,0,0,20,20,20,,,,,,,,,,,,,,,,,,,,,,,,,,,,,,,,,,,130.04412430000957,130.24451069999486,130.22810429998208,130.52929939993192,130.52929939993192,None,131.02912850002758,None,k,1,0.8183316000504419,131.02912850002758,None,None,None,131.8637445999775,None,,,,,,,,,,,,,,,,,,,,,11009,2,1,2024_Jun_04_1613,stroop_task_switching2,2021.2.3,59.84042949387417,
condition/block_color,instruction/instr_color,instruction/i8,XX,yellow,j,diamond,color_single,颜色,,,,,,,,,,,0,0,0,0,0,0,0,0,0,21,21,21,,,,,,,,,,,,,,,,,,,,,,,,,,,,,,,,,,,132.86518620001152,133.06816619995516,133.0496557999868,133.34953939996194,133.34953939996194,None,133.84981960000005,None,j,1,0.4298852999927476,133.84981960000005,None,None,None,134.300659099943,None,,,,,,,,,,,,,,,,,,,,,11009,2,1,2024_Jun_04_1613,stroop_task_switching2,2021.2.3,59.84042949387417,
condition/block_color,instruction/instr_color,instruction/i8,XX,blue,f,diamond,color_single,颜色,,,,,,,,,,,0,0,0,0,0,0,0,0,0,22,22,22,,,,,,,,,,,,,,,,,,,,,,,,,,,,,,,,,,,135.30213710002135,135.50262739998288,135.48563609994017,135.78617879992817,135.78617879992817,None,136.28712009999435,None,f,1,0.5447314999764785,136.28712009999435,None,None,None,136.85479200002737,None,,,,,,,,,,,,,,,,,,,,,11009,2,1,2024_Jun_04_1613,stroop_task_switching2,2021.2.3,59.84042949387417,
condition/block_color,instruction/instr_color,instruction/i8,XX,red,d,diamond,color_single,颜色,,,,,,,,,,,0,0,0,0,0,0,0,0,0,23,23,23,,,,,,,,,,,,,,,,,,,,,,,,,,,,,,,,,,,137.85569809994195,138.05602090002503,138.0406616999535,138.33999260002747,138.33999260002747,None,138.840821199934,None,d,1,0.5028094999724999,138.840821199934,None,None,None,139.37516439997125,None,,,,,,,,,,,,,,,,,,,,,11009,2,1,2024_Jun_04_1613,stroop_task_switching2,2021.2.3,59.84042949387417,
condition/block_color,instruction/instr_color,instruction/i8,,,,,,,,,,,,,,,,,0,0,0,0,0,0,0,0,,,,,,,,,,,,,,,,,,,,,,,,,,,,,,,,,,,,,,,,,,,,,,,,,,,,,,,,140.40991970000323,None,space,5.654106299974956,140.40991970000323,None,,,,,,,,,,,,,,,11009,2,1,2024_Jun_04_1613,stroop_task_switching2,2021.2.3,59.84042949387417,
condition/block_color,instruction/instr_color,instruction/i8,,,,,,,,,,,,,,,,,0,0,0,0,,,,,,,,,,,,,,,,,,,,,,,,,,,,,,,,,,,,,,,,,,,,,,,,,,,,,,,,,,,,,,,,,,,,,,,,,,,,,,,,11009,2,1,2024_Jun_04_1613,stroop_task_switching2,2021.2.3,59.84042949387417,
condition/block_word,instruction/instr_word,instruction/i9,黄,white,j,square,word_single,单词,0.0032461461866890584,,,,,,,,,,0,1,1,1,0,0,0,0,0,0,0,0,,,,,,,,,,,,,,,,,,,,,146.1017872999655,None,space,6.610333000076935,146.1017872999655,None,153.7307121999329,154.73121529992204,154.73121529992204,155.73309180000797,155.73309180000797,None,152.74549879995175,153.74669379997067,156.75053079996724,156.95332770003006,156.95332770003006,157.2698848999571,157.23521259997506,None,157.73589669994544,None,j,1,0.7604770000325516,157.73589669994544,None,None,None,158.52043819997925,None,,,,,,,,,,,,,,,,,,,,,11009,2,1,2024_Jun_04_1613,stroop_task_switching2,2021.2.3,59.84042949387417,
condition/block_word,instruction/instr_word,instruction/i9,蓝,white,f,square,word_single,单词,0.060540570646362424,,,,,,,,,,0,1,1,1,0,0,0,0,0,1,1,1,,,,,,,,,,,,,,,,,,,,,,,,,,,,,,,,,,,159.52193990000524,159.72279429994524,159.70547099993564,160.00715489999857,160.00715489999857,None,160.5068005999783,None,f,1,0.5099968999857083,160.5068005999783,None,None,None,161.04114659992047,None,,,,,,,,,,,,,,,,,,,,,11009,2,1,2024_Jun_04_1613,stroop_task_switching2,2021.2.3,59.84042949387417,
condition/block_word,instruction/instr_word,instruction/i9,黄,white,j,square,word_single,单词,0.06994067193778963,,,,,,,,,,0,1,1,1,0,0,0,0,0,2,2,2,,,,,,,,,,,,,,,,,,,,,,,,,,,,,,,,,,,162.04242760001216,162.24295619991608,162.22620589996222,162.52643480000552,162.52643480000552,None,163.02713800000492,None,j,1,0.7575455999467522,163.02713800000492,None,None,None,163.81196459999774,None,,,,,,,,,,,,,,,,,,,,,11009,2,1,2024_Jun_04_1613,stroop_task_switching2,2021.2.3,59.84042949387417,
condition/block_word,instruction/instr_word,instruction/i9,蓝,white,f,square,word_single,单词,0.08193765152950094,,,,,,,,,,0,1,1,1,0,0,0,0,0,3,3,3,,,,,,,,,,,,,,,,,,,,,,,,,,,,,,,,,,,164.81302449991927,165.01469829992857,164.99695619998965,165.29875529999845,165.29875529999845,None,165.79802119999658,None,f,1,0.7384433000115678,165.79802119999658,None,None,None,166.56634199991822,None,,,,,,,,,,,,,,,,,,,,,11009,2,1,2024_Jun_04_1613,stroop_task_switching2,2021.2.3,59.84042949387417,
condition/block_word,instruction/instr_word,instruction/i9,红,white,d,square,word_single,单词,0.1279694370605574,,,,,,,,,,0,1,1,1,0,0,0,0,0,4,4,4,,,,,,,,,,,,,,,,,,,,,,,,,,,,,,,,,,,167.56743639998604,167.7681726999581,167.75090560002718,168.0522026999388,168.0522026999388,None,168.55235050001647,None,d,1,0.5601734999800101,168.55235050001647,None,None,None,169.1367349999491,None,,,,,,,,,,,,,,,,,,,,,11009,2,1,2024_Jun_04_1613,stroop_task_switching2,2021.2.3,59.84042949387417,
condition/block_word,instruction/instr_word,instruction/i9,红,white,d,square,word_single,单词,0.18345028784879092,,,,,,,,,,0,1,1,1,0,0,0,0,0,5,5,5,,,,,,,,,,,,,,,,,,,,,,,,,,,,,,,,,,,170.13841839996167,170.33863489993382,170.3213913999498,170.62205070001073,170.62205070001073,None,171.1228072999511,None,d,1,0.5098658999195322,171.1228072999511,None,None,None,171.65689610003028,None,,,,,,,,,,,,,,,,,,,,,11009,2,1,2024_Jun_04_1613,stroop_task_switching2,2021.2.3,59.84042949387417,
condition/block_word,instruction/instr_word,instruction/i9,蓝,white,f,square,word_single,单词,0.19920386223101294,,,,,,,,,,0,1,1,1,0,0,0,0,0,6,6,6,,,,,,,,,,,,,,,,,,,,,,,,,,,,,,,,,,,172.65838129993062,172.85877089994028,172.84237430000212,173.143530500005,173.143530500005,None,173.64303569996264,None,f,1,0.5817779999924824,173.64303569996264,None,None,None,174.24415369995404,None,,,,,,,,,,,,,,,,,,,,,11009,2,1,2024_Jun_04_1613,stroop_task_switching2,2021.2.3,59.84042949387417,
condition/block_word,instruction/instr_word,instruction/i9,蓝,white,f,square,word_single,单词,0.26360599864925405,,,,,,,,,,0,1,1,1,0,0,0,0,0,7,7,7,,,,,,,,,,,,,,,,,,,,,,,,,,,,,,,,,,,175.24575669993646,175.44641460001003,175.42927750002127,175.73089629993774,175.73089629993774,None,176.23064249998424,None,f,1,0.5540561000816524,176.23064249998424,None,None,None,176.8146341999527,None,,,,,,,,,,,,,,,,,,,,,11009,2,1,2024_Jun_04_1613,stroop_task_switching2,2021.2.3,59.84042949387417,
condition/block_word,instruction/instr_word,instruction/i9,蓝,white,f,square,word_single,单词,0.358985675745526,,,,,,,,,,0,1,1,1,0,0,0,0,0,8,8,8,,,,,,,,,,,,,,,,,,,,,,,,,,,,,,,,,,,177.8163663999876,178.01763299992308,178.00074699998368,178.30041609995533,178.30041609995533,None,178.80106780002825,None,f,1,0.5519662000006065,178.80106780002825,None,None,None,179.36877289996482,None,,,,,,,,,,,,,,,,,,,,,11009,2,1,2024_Jun_04_1613,stroop_task_switching2,2021.2.3,59.84042949387417,
condition/block_word,instruction/instr_word,instruction/i9,绿,white,k,square,word_single,单词,0.36496733802487347,,,,,,,,,,0,1,1,1,0,0,0,0,0,9,9,9,,,,,,,,,,,,,,,,,,,,,,,,,,,,,,,,,,,180.37018550001085,180.5710901999846,180.55366079998203,180.85411499999464,180.85411499999464,None,181.3547046999447,None,k,1,0.6622816999442875,181.3547046999447,None,None,None,182.0396159000229,None,,,,,,,,,,,,,,,,,,,,,11009,2,1,2024_Jun_04_1613,stroop_task_switching2,2021.2.3,59.84042949387417,
condition/block_word,instruction/instr_word,instruction/i9,黄,white,j,square,word_single,单词,0.3743513623756727,,,,,,,,,,0,1,1,1,0,0,0,0,0,10,10,10,,,,,,,,,,,,,,,,,,,,,,,,,,,,,,,,,,,183.0406595999375,183.24159929994494,183.22450040001422,183.5248218999477,183.5248218999477,None,184.02609990001656,None,j,1,0.6069720999803394,184.02609990001656,None,None,None,184.65974859998096,None,,,,,,,,,,,,,,,,,,,,,11009,2,1,2024_Jun_04_1613,stroop_task_switching2,2021.2.3,59.84042949387417,
condition/block_word,instruction/instr_word,instruction/i9,红,white,d,square,word_single,单词,0.3894803852598544,,,,,,,,,,0,1,1,1,0,0,0,0,0,11,11,11,,,,,,,,,,,,,,,,,,,,,,,,,,,,,,,,,,,185.66151729994453,185.86247519997414,185.84503009996843,186.14614219998475,186.14614219998475,None,186.64770249999128,None,d,1,0.5455110999755561,186.64770249999128,None,None,None,187.21345809998456,None,,,,,,,,,,,,,,,,,,,,,11009,2,1,2024_Jun_04_1613,stroop_task_switching2,2021.2.3,59.84042949387417,
condition/block_word,instruction/instr_word,instruction/i9,绿,white,k,square,word_single,单词,0.5393759672408067,,,,,,,,,,0,1,1,1,0,0,0,0,0,12,12,12,,,,,,,,,,,,,,,,,,,,,,,,,,,,,,,,,,,188.21553940000013,188.41590529994573,188.39919459994417,188.6991144999629,188.6991144999629,None,189.19991949992254,None,k,1,0.6092787000816315,189.19991949992254,None,None,None,189.83449309994467,None,,,,,,,,,,,,,,,,,,,,,11009,2,1,2024_Jun_04_1613,stroop_task_switching2,2021.2.3,59.84042949387417,
condition/block_word,instruction/instr_word,instruction/i9,蓝,white,f,square,word_single,单词,0.5995731954831104,,,,,,,,,,0,1,1,1,0,0,0,0,0,13,13,13,,,,,,,,,,,,,,,,,,,,,,,,,,,,,,,,,,,190.83580569992773,191.036277599982,191.01953709998634,191.32042290002573,191.32042290002573,None,191.82057009998243,None,f,1,0.7087836000137031,191.82057009998243,None,None,None,192.5551107999636,None,,,,,,,,,,,,,,,,,,,,,11009,2,1,2024_Jun_04_1613,stroop_task_switching2,2021.2.3,59.84042949387417,
condition/block_word,instruction/instr_word,instruction/i9,红,white,d,square,word_single,单词,0.6298674479151414,,,,,,,,,,0,1,1,1,0,0,0,0,0,14,14,14,,,,,,,,,,,,,,,,,,,,,,,,,,,,,,,,,,,193.55666469992138,193.75704419997055,193.74083989998326,194.0408642999828,194.0408642999828,None,194.54137659992557,None,d,1,0.5719212999101728,194.54137659992557,None,None,None,195.14242429996375,None,,,,,,,,,,,,,,,,,,,,,11009,2,1,2024_Jun_04_1613,stroop_task_switching2,2021.2.3,59.84042949387417,
condition/block_word,instruction/instr_word,instruction/i9,红,white,d,square,word_single,单词,0.7389942282348904,,,,,,,,,,0,1,1,1,0,0,0,0,0,15,15,15,,,,,,,,,,,,,,,,,,,,,,,,,,,,,,,,,,,196.1439895000076,196.34424409992062,196.32801639998797,196.62792679993436,196.62792679993436,None,197.12897989992052,None,d,1,0.6162912999279797,197.12897989992052,None,None,None,197.76303349994123,None,,,,,,,,,,,,,,,,,,,,,11009,2,1,2024_Jun_04_1613,stroop_task_switching2,2021.2.3,59.84042949387417,
condition/block_word,instruction/instr_word,instruction/i9,绿,white,k,square,word_single,单词,0.7550853947239682,,,,,,,,,,0,1,1,1,0,0,0,0,0,16,16,16,,,,,,,,,,,,,,,,,,,,,,,,,,,,,,,,,,,198.7642580999527,198.96546199999284,198.94791829993483,199.24853620002978,199.24853620002978,None,199.74924429995008,None,k,1,0.6203534998930991,199.74924429995008,None,None,None,200.4016817000229,None,,,,,,,,,,,,,,,,,,,,,11009,2,1,2024_Jun_04_1613,stroop_task_switching2,2021.2.3,59.84042949387417,
condition/block_word,instruction/instr_word,instruction/i9,绿,white,k,square,word_single,单词,0.8019302780428206,,,,,,,,,,0,1,1,1,0,0,0,0,0,17,17,17,,,,,,,,,,,,,,,,,,,,,,,,,,,,,,,,,,,201.40199569996912,201.60258509998675,201.5853946999414,201.8867308999179,201.8867308999179,None,202.38667689997237,None,k,1,0.5269179000752047,202.38667689997237,None,None,None,202.9375115999719,None,,,,,,,,,,,,,,,,,,,,,11009,2,1,2024_Jun_04_1613,stroop_task_switching2,2021.2.3,59.84042949387417,
condition/block_word,instruction/instr_word,instruction/i9,绿,white,k,square,word_single,单词,0.8110702914095343,,,,,,,,,,0,1,1,1,0,0,0,0,0,18,18,18,,,,,,,,,,,,,,,,,,,,,,,,,,,,,,,,,,,203.9390041999286,204.1405092999339,204.12274419993628,204.4230280999327,204.4230280999327,None,204.92384189995937,None,k,1,0.4618632000638172,204.92384189995937,None,None,None,205.40804080001544,None,,,,,,,,,,,,,,,,,,,,,11009,2,1,2024_Jun_04_1613,stroop_task_switching2,2021.2.3,59.84042949387417,
condition/block_word,instruction/instr_word,instruction/i9,黄,white,j,square,word_single,单词,0.8176594937590999,,,,,,,,,,0,1,1,1,0,0,0,0,0,19,19,19,,,,,,,,,,,,,,,,,,,,,,,,,,,,,,,,,,,206.40947339998093,206.61041129997466,206.59306029998697,206.89338309993036,206.89338309993036,None,207.39399989997037,None,j,1,0.6479752999730408,207.39399989997037,None,None,None,208.06226669996977,None,,,,,,,,,,,,,,,,,,,,,11009,2,1,2024_Jun_04_1613,stroop_task_switching2,2021.2.3,59.84042949387417,
condition/block_word,instruction/instr_word,instruction/i9,红,white,d,square,word_single,单词,0.8955794421104841,,,,,,,,,,0,1,1,1,0,0,0,0,0,20,20,20,,,,,,,,,,,,,,,,,,,,,,,,,,,,,,,,,,,209.06359329994302,209.26468439993914,209.2469050999498,209.54754189995583,209.54754189995583,None,210.0481724999845,None,d,1,0.5373964000027627,210.0481724999845,None,None,None,210.61562099994626,None,,,,,,,,,,,,,,,,,,,,,11009,2,1,2024_Jun_04_1613,stroop_task_switching2,2021.2.3,59.84042949387417,
condition/block_word,instruction/instr_word,instruction/i9,绿,white,k,square,word_single,单词,0.9113598052474129,,,,,,,,,,0,1,1,1,0,0,0,0,0,21,21,21,,,,,,,,,,,,,,,,,,,,,,,,,,,,,,,,,,,211.6171430000104,211.81730879994575,211.80068380001467,212.10217780002858,212.10217780002858,None,212.60233080002945,None,k,1,0.5034188999561593,212.60233080002945,None,None,None,213.13611449999735,None,,,,,,,,,,,,,,,,,,,,,11009,2,1,2024_Jun_04_1613,stroop_task_switching2,2021.2.3,59.84042949387417,
condition/block_word,instruction/instr_word,instruction/i9,黄,white,j,square,word_single,单词,0.9215930958042953,,,,,,,,,,0,1,1,1,0,0,0,0,0,22,22,22,,,,,,,,,,,,,,,,,,,,,,,,,,,,,,,,,,,214.13775969995186,214.33856740000192,214.32135909993667,214.62163830001373,214.62163830001373,None,215.1224895999767,None,j,1,0.8156154000898823,215.1224895999767,None,None,None,215.95711389998905,None,,,,,,,,,,,,,,,,,,,,,11009,2,1,2024_Jun_04_1613,stroop_task_switching2,2021.2.3,59.84042949387417,
condition/block_word,instruction/instr_word,instruction/i9,黄,white,j,square,word_single,单词,0.9493525498837774,,,,,,,,,,0,1,1,1,0,0,0,0,0,23,23,23,,,,,,,,,,,,,,,,,,,,,,,,,,,,,,,,,,,216.95850870001595,217.1587976999581,217.1434442999307,217.4428065000102,217.4428065000102,None,217.9433616999304,None,j,1,0.6266195999924093,217.9433616999304,None,None,None,218.59415209991857,None,,,,,,,,,,,,,,,,,,,,,11009,2,1,2024_Jun_04_1613,stroop_task_switching2,2021.2.3,59.84042949387417,
condition/block_word,instruction/instr_word,instruction/i9,,,,,,,,,,,,,,,,,0,1,1,1,0,0,0,0,,,,,,,,,,,,,,,,,,,,,,,,,,,,,,,,,,,,,,,,,,,,,,,,,,,,,,,,219.59597669995856,None,space,6.4301652000285685,219.59597669995856,None,,,,,,,,,,,,,,,11009,2,1,2024_Jun_04_1613,stroop_task_switching2,2021.2.3,59.84042949387417,
condition/block_word,instruction/instr_word,instruction/i9,,,,,,,,,,,,,,,,,0,1,1,1,,,,,,,,,,,,,,,,,,,,,,,,,,,,,,,,,,,,,,,,,,,,,,,,,,,,,,,,,,,,,,,,,,,,,,,,,,,,,,,,11009,2,1,2024_Jun_04_1613,stroop_task_switching2,2021.2.3,59.84042949387417,
condition/block_mixed,instruction/instr_mixed,instruction/i10,蓝,red,d,diamond,color_mix,颜色,,incompatible,0,,,,,,,,0,2,2,2,0,0,0,0,0,0,0,0,,,,,,,,,,,,,,,,,,,,,226.07243579998612,None,space,22.31429130001925,226.07243579998612,None,249.40887909999583,250.40907429996878,250.40907429996878,251.41216850001365,251.41216850001365,None,248.42281020001974,249.42415089998394,252.44622589997016,252.6464383000275,252.62898679997306,252.92983069992624,252.92983069992624,None,253.41342739993706,None,d,1,1.253283700090833,253.41342739993706,None,None,None,254.68197829998098,None,,,,,,,,,,,,,,,,,,,,,11009,2,1,2024_Jun_04_1613,stroop_task_switching2,2021.2.3,59.84042949387417,
condition/block_mixed,instruction/instr_mixed,instruction/i10,绿,yellow,j,diamond,color_mix,颜色,,incompatible,1,,,,,,,,0,2,2,2,0,0,0,0,0,1,1,1,,,,,,,,,,,,,,,,,,,,,,,,,,,,,,,,,,,255.68358840001747,255.8853079000255,255.86731020000298,256.16838799999095,256.16838799999095,None,256.66884019994177,None,j,1,0.9423290999839082,256.66884019994177,None,None,None,257.6363518999424,None,,,,,,,,,,,,,,,,,,,,,11009,2,1,2024_Jun_04_1613,stroop_task_switching2,2021.2.3,59.84042949387417,
condition/block_mixed,instruction/instr_mixed,instruction/i10,红,green,k,diamond,color_mix,颜色,,incompatible,1,,,,,,,,0,2,2,2,0,0,0,0,0,2,2,2,,,,,,,,,,,,,,,,,,,,,,,,,,,,,,,,,,,258.638100399985,258.8395538999466,258.8218769999221,259.1229532000143,259.1229532000143,None,259.6230235999683,None,k,1,1.684156300034374,259.6230235999683,None,None,None,261.3252706999192,None,,,,,,,,,,,,,,,,,,,,,11009,2,1,2024_Jun_04_1613,stroop_task_switching2,2021.2.3,59.84042949387417,
condition/block_mixed,instruction/instr_mixed,instruction/i10,蓝,red,d,diamond,color_mix,颜色,,incompatible,1,,,,,,,,0,2,2,2,0,0,0,0,0,3,3,3,,,,,,,,,,,,,,,,,,,,,,,,,,,,,,,,,,,262.3269251999445,262.52722379995976,262.51088399998844,262.81084629998077,262.81084629998077,None,263.3118154000258,None,d,1,0.4915325000183657,263.3118154000258,None,None,None,263.83002470002975,None,,,,,,,,,,,,,,,,,,,,,11009,2,1,2024_Jun_04_1613,stroop_task_switching2,2021.2.3,59.84042949387417,
condition/block_mixed,instruction/instr_mixed,instruction/i10,红,blue,f,diamond,color_mix,颜色,,incompatible,1,,,,,,,,0,2,2,2,0,0,0,0,0,4,4,4,,,,,,,,,,,,,,,,,,,,,,,,,,,,,,,,,,,264.83078560000286,265.03123099997174,265.0144264999544,265.31453759991564,265.31453759991564,None,265.8156411999371,None,f,1,0.45144850003998727,265.8156411999371,None,None,None,266.2829146999866,None,,,,,,,,,,,,,,,,,,,,,11009,2,1,2024_Jun_04_1613,stroop_task_switching2,2021.2.3,59.84042949387417,
condition/block_mixed,instruction/instr_mixed,instruction/i10,红,blue,d,square,color_mix,单词,,incompatible,2,,,,,,,,0,2,2,2,0,0,0,0,0,5,5,5,,,,,,,,,,,,,,,,,,,,,,,,,,,,,,,,,,,267.28452540002763,267.4871750000166,267.46869709994644,267.76847289991565,267.76847289991565,None,268.2693839999847,None,d,1,1.8701100000180304,268.2693839999847,None,None,None,270.15536139998585,None,,,,,,,,,,,,,,,,,,,,,11009,2,1,2024_Jun_04_1613,stroop_task_switching2,2021.2.3,59.84042949387417,
condition/block_mixed,instruction/instr_mixed,instruction/i10,红,yellow,j,diamond,color_mix,颜色,,incompatible,2,,,,,,,,0,2,2,2,0,0,0,0,0,6,6,6,,,,,,,,,,,,,,,,,,,,,,,,,,,,,,,,,,,271.1569632999599,271.3573806999484,271.3411352999974,271.64287829992827,271.64287829992827,None,272.15855099994224,None,j,1,1.0527280999813229,272.15855099994224,None,None,None,273.2267222999362,None,,,,,,,,,,,,,,,,,,,,,11009,2,1,2024_Jun_04_1613,stroop_task_switching2,2021.2.3,59.84042949387417,
condition/block_mixed,instruction/instr_mixed,instruction/i10,红,yellow,d,square,color_mix,单词,,incompatible,2,,,,,,,,0,2,2,2,0,0,0,0,0,7,7,7,,,,,,,,,,,,,,,,,,,,,,,,,,,,,,,,,,,274.228359599947,274.42899789998773,274.41180110001005,274.71216989995446,274.71216989995446,None,275.21291170001496,None,d,1,2.1906935999868438,275.21291170001496,None,None,None,277.43321869999636,None,,,,,,,,,,,,,,,,,,,,,11009,2,1,2024_Jun_04_1613,stroop_task_switching2,2021.2.3,59.84042949387417,
condition/block_mixed,instruction/instr_mixed,instruction/i10,绿,blue,k,square,color_mix,单词,,incompatible,1,,,,,,,,0,2,2,2,0,0,0,0,0,8,8,8,,,,,,,,,,,,,,,,,,,,,,,,,,,,,,,,,,,278.4345750999637,278.6356297999155,278.6180910000112,278.9190550999483,278.9190550999483,None,279.42005059996154,None,k,1,2.1921867000637576,279.42005059996154,None,None,None,281.63947659998666,None,,,,,,,,,,,,,,,,,,,,,11009,2,1,2024_Jun_04_1613,stroop_task_switching2,2021.2.3,59.84042949387417,
condition/block_mixed,instruction/instr_mixed,instruction/i10,蓝,green,k,diamond,color_mix,颜色,,incompatible,2,,,,,,,,0,2,2,2,0,0,0,0,0,9,9,9,,,,,,,,,,,,,,,,,,,,,,,,,,,,,,,,,,,282.6409184000222,282.84168730000965,282.82452779996675,283.12480729992967,283.12480729992967,None,283.62579810002353,None,k,1,0.8502399999415502,283.62579810002353,None,None,None,284.49385999992955,None,,,,,,,,,,,,,,,,,,,,,11009,2,1,2024_Jun_04_1613,stroop_task_switching2,2021.2.3,59.84042949387417,
condition/block_mixed,instruction/instr_mixed,instruction/i10,蓝,yellow,f,square,color_mix,单词,,incompatible,2,,,,,,,,0,2,2,2,0,0,0,0,0,10,10,10,,,,,,,,,,,,,,,,,,,,,,,,,,,,,,,,,,,285.4952241999563,285.6970250000013,285.6788427999709,285.97922290000133,285.97922290000133,None,286.47998840000946,None,f,1,1.8760560000082478,286.47998840000946,None,None,None,288.3830261999974,None,,,,,,,,,,,,,,,,,,,,,11009,2,1,2024_Jun_04_1613,stroop_task_switching2,2021.2.3,59.84042949387417,
condition/block_mixed,instruction/instr_mixed,instruction/i10,蓝,green,f,square,color_mix,单词,,incompatible,1,,,,,,,,0,2,2,2,0,0,0,0,0,11,11,11,,,,,,,,,,,,,,,,,,,,,,,,,,,,,,,,,,,289.3845258000074,289.58588999998756,289.5678949999856,289.8688390000025,289.8688390000025,None,290.3692634999752,None,f,1,0.6108504999428988,290.3692634999752,None,None,None,291.0035861999495,None,,,,,,,,,,,,,,,,,,,,,11009,2,1,2024_Jun_04_1613,stroop_task_switching2,2021.2.3,59.84042949387417,
condition/block_mixed,instruction/instr_mixed,instruction/i10,绿,yellow,k,square,color_mix,单词,,incompatible,1,,,,,,,,0,2,2,2,0,0,0,0,0,12,12,12,,,,,,,,,,,,,,,,,,,,,,,,,,,,,,,,,,,292.00518610002473,292.20600290002767,292.18872370000463,292.4889582999749,292.4889582999749,None,292.98991779994685,None,k,1,0.7822245999705046,292.98991779994685,None,None,None,293.79094069998246,None,,,,,,,,,,,,,,,,,,,,,11009,2,1,2024_Jun_04_1613,stroop_task_switching2,2021.2.3,59.84042949387417,
condition/block_mixed,instruction/instr_mixed,instruction/i10,绿,blue,f,diamond,color_mix,颜色,,incompatible,2,,,,,,,,0,2,2,2,0,0,0,0,0,13,13,13,,,,,,,,,,,,,,,,,,,,,,,,,,,,,,,,,,,294.7925268999534,294.9934378999751,294.9770007999614,295.27765059995,295.27765059995,None,295.77729190001264,None,f,1,1.082920099957846,295.77729190001264,None,None,None,296.8791703999741,None,,,,,,,,,,,,,,,,,,,,,11009,2,1,2024_Jun_04_1613,stroop_task_switching2,2021.2.3,59.84042949387417,
condition/block_mixed,instruction/instr_mixed,instruction/i10,黄,red,j,square,color_mix,单词,,incompatible,2,,,,,,,,0,2,2,2,0,0,0,0,0,14,14,14,,,,,,,,,,,,,,,,,,,,,,,,,,,,,,,,,,,297.88060959998984,298.0809038999723,298.06465269997716,298.36445959995035,298.36445959995035,None,298.865490199998,None,j,1,1.8107592000160366,298.865490199998,None,None,None,300.70204979996197,None,,,,,,,,,,,,,,,,,,,,,11009,2,1,2024_Jun_04_1613,stroop_task_switching2,2021.2.3,59.84042949387417,
condition/block_mixed,instruction/instr_mixed,instruction/i10,蓝,yellow,j,diamond,color_mix,颜色,,incompatible,2,,,,,,,,0,2,2,2,0,0,0,0,0,15,15,15,,,,,,,,,,,,,,,,,,,,,,,,,,,,,,,,,,,301.7030147999758,301.90333220001776,301.88657779991627,302.18833549995907,302.18833549995907,None,302.68821990001015,None,j,1,1.668390000006184,302.68821990001015,None,None,None,304.3737636000151,None,,,,,,,,,,,,,,,,,,,,,11009,2,1,2024_Jun_04_1613,stroop_task_switching2,2021.2.3,59.84042949387417,
condition/block_mixed,instruction/instr_mixed,instruction/i10,黄,red,d,diamond,color_mix,颜色,,incompatible,1,,,,,,,,0,2,2,2,0,0,0,0,0,16,16,16,,,,,,,,,,,,,,,,,,,,,,,,,,,,,,,,,,,305.3753369000042,305.57746429997496,305.5589929999551,305.8593305000104,305.8593305000104,None,306.36006099998485,None,d,1,0.7402012000093237,306.36006099998485,None,None,None,307.127988299937,None,,,,,,,,,,,,,,,,,,,,,11009,2,1,2024_Jun_04_1613,stroop_task_switching2,2021.2.3,59.84042949387417,
condition/block_mixed,instruction/instr_mixed,instruction/i10,绿,red,k,square,color_mix,单词,,incompatible,2,,,,,,,,0,2,2,2,0,0,0,0,0,17,17,17,,,,,,,,,,,,,,,,,,,,,,,,,,,,,,,,,,,308.1294148999732,308.3297522999346,308.3142362999497,308.6138610999333,308.6138610999333,None,309.1142024999717,None,k,1,0.9862443999154493,309.1142024999717,None,None,None,310.11553229996935,None,,,,,,,,,,,,,,,,,,,,,11009,2,1,2024_Jun_04_1613,stroop_task_switching2,2021.2.3,59.84042949387417,
condition/block_mixed,instruction/instr_mixed,instruction/i10,红,green,d,square,color_mix,单词,,incompatible,1,,,,,,,,0,2,2,2,0,0,0,0,0,18,18,18,,,,,,,,,,,,,,,,,,,,,,,,,,,,,,,,,,,311.11729399999604,311.3174864000175,311.3017227000091,311.6015300999861,311.6015300999861,None,312.1019187999191,None,d,1,1.2147656999295577,312.1019187999191,None,None,None,313.3373139000032,None,,,,,,,,,,,,,,,,,,,,,11009,2,1,2024_Jun_04_1613,stroop_task_switching2,2021.2.3,59.84042949387417,
condition/block_mixed,instruction/instr_mixed,instruction/i10,黄,blue,f,diamond,color_mix,颜色,,incompatible,2,,,,,,,,0,2,2,2,0,0,0,0,0,19,19,19,,,,,,,,,,,,,,,,,,,,,,,,,,,,,,,,,,,314.33893289999105,314.53970480000135,314.5225722999312,314.8228753999574,314.8228753999574,None,315.3235014999518,None,f,1,0.8090818000491709,315.3235014999518,None,None,None,316.1580504999729,None,,,,,,,,,,,,,,,,,,,,,11009,2,1,2024_Jun_04_1613,stroop_task_switching2,2021.2.3,59.84042949387417,
condition/block_mixed,instruction/instr_mixed,instruction/i10,黄,green,k,diamond,color_mix,颜色,,incompatible,1,,,,,,,,0,2,2,2,0,0,0,0,0,20,20,20,,,,,,,,,,,,,,,,,,,,,,,,,,,,,,,,,,,317.15970780001953,317.3605422999244,317.34334030002356,317.64383700001054,317.64383700001054,None,318.1448704999639,None,k,1,2.115662800031714,318.1448704999639,None,None,None,320.28096909995656,None,,,,,,,,,,,,,,,,,,,,,11009,2,1,2024_Jun_04_1613,stroop_task_switching2,2021.2.3,59.84042949387417,
condition/block_mixed,instruction/instr_mixed,instruction/i10,黄,green,j,square,color_mix,单词,,incompatible,2,,,,,,,,0,2,2,2,0,0,0,0,0,21,21,21,,,,,,,,,,,,,,,,,,,,,,,,,,,,,,,,,,,321.28237759997137,321.48476289992686,321.46605519996956,321.76752959995065,321.76752959995065,None,322.26755240000784,None,j,1,1.51386820001062,322.26755240000784,None,None,None,323.8031174999196,None,,,,,,,,,,,,,,,,,,,,,11009,2,1,2024_Jun_04_1613,stroop_task_switching2,2021.2.3,59.84042949387417,
condition/block_mixed,instruction/instr_mixed,instruction/i10,黄,blue,j,square,color_mix,单词,,incompatible,1,,,,,,,,0,2,2,2,0,0,0,0,0,22,22,22,,,,,,,,,,,,,,,,,,,,,,,,,,,,,,,,,,,324.8044178999262,325.00488070002757,324.9894020999782,325.28910639998503,325.28910639998503,None,325.7893829999957,None,j,1,0.687356400070712,325.7893829999957,None,None,None,326.5073880000273,None,,,,,,,,,,,,,,,,,,,,,11009,2,1,2024_Jun_04_1613,stroop_task_switching2,2021.2.3,59.84042949387417,
condition/block_mixed,instruction/instr_mixed,instruction/i10,蓝,red,f,square,color_mix,单词,,incompatible,1,,,,,,,,0,2,2,2,0,0,0,0,0,23,23,23,,,,,,,,,,,,,,,,,,,,,,,,,,,,,,,,,,,327.50862269999925,327.70875679992605,327.6921967000235,327.99282689997926,327.99282689997926,None,328.4933049000101,None,f,1,1.327962400042452,328.4933049000101,None,None,None,329.8454663999146,None,,,,,,,,,,,,,,,,,,,,,11009,2,1,2024_Jun_04_1613,stroop_task_switching2,2021.2.3,59.84042949387417,
condition/block_mixed,instruction/instr_mixed,instruction/i10,绿,red,d,diamond,color_mix,颜色,,incompatible,2,,,,,,,,0,2,2,2,0,0,0,0,0,24,24,24,,,,,,,,,,,,,,,,,,,,,,,,,,,,,,,,,,,330.84714199998416,331.04726679995656,331.03178079996724,331.3311774999602,331.3311774999602,None,331.83174419996794,None,d,1,0.7574793000239879,331.83174419996794,None,None,None,332.6162590999156,None,,,,,,,,,,,,,,,,,,,,,11009,2,1,2024_Jun_04_1613,stroop_task_switching2,2021.2.3,59.84042949387417,
condition/block_mixed,instruction/instr_mixed,instruction/i10,绿,green,k,diamond,color_mix,颜色,,compatible,1,,,,,,,,0,2,2,2,0,0,0,0,0,25,25,25,,,,,,,,,,,,,,,,,,,,,,,,,,,,,,,,,,,333.6178755000001,333.8181389999809,333.802508499939,334.1020544000203,334.1020544000203,None,334.6026255999459,None,k,1,0.6585890999995172,334.6026255999459,None,None,None,335.2872058999492,None,,,,,,,,,,,,,,,,,,,,,11009,2,1,2024_Jun_04_1613,stroop_task_switching2,2021.2.3,59.84042949387417,
condition/block_mixed,instruction/instr_mixed,instruction/i10,蓝,blue,f,diamond,color_mix,颜色,,compatible,1,,,,,,,,0,2,2,2,0,0,0,0,0,26,26,26,,,,,,,,,,,,,,,,,,,,,,,,,,,,,,,,,,,336.2888019999955,336.4891202999279,336.4734620000236,336.7736948999809,336.7736948999809,None,337.2735628000228,None,f,1,1.0994941999670118,337.2735628000228,None,None,None,338.39153479994275,None,,,,,,,,,,,,,,,,,,,,,11009,2,1,2024_Jun_04_1613,stroop_task_switching2,2021.2.3,59.84042949387417,
condition/block_mixed,instruction/instr_mixed,instruction/i10,绿,green,k,square,color_mix,单词,,compatible,2,,,,,,,,0,2,2,2,0,0,0,0,0,27,27,27,,,,,,,,,,,,,,,,,,,,,,,,,,,,,,,,,,,339.3931376999244,339.59432709997054,339.57687079999596,339.87733509996906,339.87733509996906,None,340.3782660999568,None,k,1,0.9950661000330001,340.3782660999568,None,None,None,341.39621879998595,None,,,,,,,,,,,,,,,,,,,,,11009,2,1,2024_Jun_04_1613,stroop_task_switching2,2021.2.3,59.84042949387417,
condition/block_mixed,instruction/instr_mixed,instruction/i10,绿,green,k,square,color_mix,单词,,compatible,1,,,,,,,,0,2,2,2,0,0,0,0,0,28,28,28,,,,,,,,,,,,,,,,,,,,,,,,,,,,,,,,,,,342.39759960002266,342.5994951999746,342.58123090001754,342.8824369999347,342.8824369999347,None,343.38247940002475,None,k,1,0.6228050999343395,343.38247940002475,None,None,None,344.0333265999798,None,,,,,,,,,,,,,,,,,,,,,11009,2,1,2024_Jun_04_1613,stroop_task_switching2,2021.2.3,59.84042949387417,
condition/block_mixed,instruction/instr_mixed,instruction/i10,蓝,blue,f,square,color_mix,单词,,compatible,1,,,,,,,,0,2,2,2,0,0,0,0,0,29,29,29,,,,,,,,,,,,,,,,,,,,,,,,,,,,,,,,,,,345.03523369994946,345.23603099992033,345.21862129995134,345.52091500000097,345.52091500000097,None,346.0364933999954,None,f,1,1.8967842999845743,346.0364933999954,None,None,None,347.9560964999255,None,,,,,,,,,,,,,,,,,,,,,11009,2,1,2024_Jun_04_1613,stroop_task_switching2,2021.2.3,59.84042949387417,
condition/block_mixed,instruction/instr_mixed,instruction/i10,黄,yellow,j,diamond,color_mix,颜色,,compatible,2,,,,,,,,0,2,2,2,0,0,0,0,0,30,30,30,,,,,,,,,,,,,,,,,,,,,,,,,,,,,,,,,,,348.9577403999865,349.15888010000344,349.1413089999696,349.4421356000239,349.4421356000239,None,349.9423498000251,None,j,1,0.9910612000385299,349.9423498000251,None,None,None,350.9606782000046,None,,,,,,,,,,,,,,,,,,,,,11009,2,1,2024_Jun_04_1613,stroop_task_switching2,2021.2.3,59.84042949387417,
condition/block_mixed,instruction/instr_mixed,instruction/i10,绿,green,k,square,color_mix,单词,,compatible,2,,,,,,,,0,2,2,2,0,0,0,0,0,31,31,31,,,,,,,,,,,,,,,,,,,,,,,,,,,,,,,,,,,351.96236320002936,352.1633305000141,352.14579470001627,352.44628849998116,352.44628849998116,None,352.94703519996256,None,k,1,0.7544163001002744,352.94703519996256,None,None,None,353.73147200001404,None,,,,,,,,,,,,,,,,,,,,,11009,2,1,2024_Jun_04_1613,stroop_task_switching2,2021.2.3,59.84042949387417,
condition/block_mixed,instruction/instr_mixed,instruction/i10,黄,yellow,j,square,color_mix,单词,,compatible,1,,,,,,,,0,2,2,2,0,0,0,0,0,32,32,32,,,,,,,,,,,,,,,,,,,,,,,,,,,,,,,,,,,354.73299709998537,354.9338371999329,354.9166593999835,355.2180163000012,355.2180163000012,None,355.7177736000158,None,j,1,1.8961935000261292,355.7177736000158,None,None,None,357.6374249999644,None,,,,,,,,,,,,,,,,,,,,,11009,2,1,2024_Jun_04_1613,stroop_task_switching2,2021.2.3,59.84042949387417,
condition/block_mixed,instruction/instr_mixed,instruction/i10,绿,green,k,diamond,color_mix,颜色,,compatible,2,,,,,,,,0,2,2,2,0,0,0,0,0,33,33,33,,,,,,,,,,,,,,,,,,,,,,,,,,,,,,,,,,,358.6388398000272,358.8392599999206,358.8232319999952,359.1233533999184,359.1233533999184,None,359.6250103999628,None,k,1,0.7489898001076654,359.6250103999628,None,None,None,360.3915053999517,None,,,,,,,,,,,,,,,,,,,,,11009,2,1,2024_Jun_04_1613,stroop_task_switching2,2021.2.3,59.84042949387417,
condition/block_mixed,instruction/instr_mixed,instruction/i10,红,red,d,square,color_mix,单词,,compatible,2,,,,,,,,0,2,2,2,0,0,0,0,0,34,34,34,,,,,,,,,,,,,,,,,,,,,,,,,,,,,,,,,,,361.3930752000306,361.59371409995947,361.57815149996895,361.877278400003,361.877278400003,None,362.377990799956,None,d,1,0.6681124999886379,362.377990799956,None,None,None,363.06225379998796,None,,,,,,,,,,,,,,,,,,,,,11009,2,1,2024_Jun_04_1613,stroop_task_switching2,2021.2.3,59.84042949387417,
condition/block_mixed,instruction/instr_mixed,instruction/i10,黄,yellow,j,square,color_mix,单词,,compatible,1,,,,,,,,0,2,2,2,0,0,0,0,0,35,35,35,,,,,,,,,,,,,,,,,,,,,,,,,,,,,,,,,,,364.063585099997,364.2642286999617,364.247888199985,364.5488229999319,364.5488229999319,None,365.0488488000119,None,j,1,1.1490777999861166,365.0488488000119,None,None,None,366.21675769996364,None,,,,,,,,,,,,,,,,,,,,,11009,2,1,2024_Jun_04_1613,stroop_task_switching2,2021.2.3,59.84042949387417,
condition/block_mixed,instruction/instr_mixed,instruction/i10,绿,green,k,diamond,color_mix,颜色,,compatible,2,,,,,,,,0,2,2,2,0,0,0,0,0,36,36,36,,,,,,,,,,,,,,,,,,,,,,,,,,,,,,,,,,,367.21865169995,367.4188866999466,367.4027055000188,367.702554199961,367.702554199961,None,368.20322319993284,None,k,1,0.6746168999234214,368.20322319993284,None,None,None,368.90434769995045,None,,,,,,,,,,,,,,,,,,,,,11009,2,1,2024_Jun_04_1613,stroop_task_switching2,2021.2.3,59.84042949387417,
condition/block_mixed,instruction/instr_mixed,instruction/i10,蓝,blue,f,square,color_mix,单词,,compatible,2,,,,,,,,0,2,2,2,0,0,0,0,0,37,37,37,,,,,,,,,,,,,,,,,,,,,,,,,,,,,,,,,,,369.90573140000924,370.10746500000823,370.0893483000109,370.3914702999173,370.3914702999173,None,370.8906450999202,None,f,1,1.0675906999967992,370.8906450999202,None,None,None,371.97577090002596,None,,,,,,,,,,,,,,,,,,,,,11009,2,1,2024_Jun_04_1613,stroop_task_switching2,2021.2.3,59.84042949387417,
condition/block_mixed,instruction/instr_mixed,instruction/i10,红,red,d,square,color_mix,单词,,compatible,1,,,,,,,,0,2,2,2,0,0,0,0,0,38,38,38,,,,,,,,,,,,,,,,,,,,,,,,,,,,,,,,,,,372.977688999963,373.17848399991635,373.16079899994656,373.4611528000096,373.4611528000096,None,373.9621399999596,None,d,1,0.604159599984996,373.9621399999596,None,None,None,374.5963986000279,None,,,,,,,,,,,,,,,,,,,,,11009,2,1,2024_Jun_04_1613,stroop_task_switching2,2021.2.3,59.84042949387417,
condition/block_mixed,instruction/instr_mixed,instruction/i10,黄,yellow,j,diamond,color_mix,颜色,,compatible,2,,,,,,,,0,2,2,2,0,0,0,0,0,39,39,39,,,,,,,,,,,,,,,,,,,,,,,,,,,,,,,,,,,375.5975346999476,375.79845210001804,375.78134889993817,376.0828862999333,376.0828862999333,None,376.5825271999929,None,j,1,1.8715540999546647,376.5825271999929,None,None,None,378.4856230999576,None,,,,,,,,,,,,,,,,,,,,,11009,2,1,2024_Jun_04_1613,stroop_task_switching2,2021.2.3,59.84042949387417,
condition/block_mixed,instruction/instr_mixed,instruction/i10,黄,yellow,j,square,color_mix,单词,,compatible,2,,,,,,,,0,2,2,2,0,0,0,0,0,40,40,40,,,,,,,,,,,,,,,,,,,,,,,,,,,,,,,,,,,379.48698329995386,379.6879069999559,379.6706246000249,379.97138240002096,379.97138240002096,None,380.47176330001093,None,j,1,1.0624625999480486,380.47176330001093,None,None,None,381.55678849993274,None,,,,,,,,,,,,,,,,,,,,,11009,2,1,2024_Jun_04_1613,stroop_task_switching2,2021.2.3,59.84042949387417,
condition/block_mixed,instruction/instr_mixed,instruction/i10,蓝,blue,f,square,color_mix,单词,,compatible,1,,,,,,,,0,2,2,2,0,0,0,0,0,41,41,41,,,,,,,,,,,,,,,,,,,,,,,,,,,,,,,,,,,382.5580604999559,382.75854399998207,382.74162230000366,383.0425162999891,383.0425162999891,None,383.5429557999596,None,f,1,0.9674989000195637,383.5429557999596,None,None,None,384.527908799937,None,,,,,,,,,,,,,,,,,,,,,11009,2,1,2024_Jun_04_1613,stroop_task_switching2,2021.2.3,59.84042949387417,
condition/block_mixed,instruction/instr_mixed,instruction/i10,蓝,blue,f,diamond,color_mix,颜色,,compatible,2,,,,,,,,0,2,2,2,0,0,0,0,0,42,42,42,,,,,,,,,,,,,,,,,,,,,,,,,,,,,,,,,,,385.5293714000145,385.7317534999456,385.7131782999495,386.0144397999393,386.0144397999393,None,386.5145270000212,None,f,1,0.44408729998394847,386.5145270000212,None,None,None,386.98161070002243,None,,,,,,,,,,,,,,,,,,,,,11009,2,1,2024_Jun_04_1613,stroop_task_switching2,2021.2.3,59.84042949387417,
condition/block_mixed,instruction/instr_mixed,instruction/i10,黄,yellow,j,diamond,color_mix,颜色,,compatible,1,,,,,,,,0,2,2,2,0,0,0,0,0,43,43,43,,,,,,,,,,,,,,,,,,,,,,,,,,,,,,,,,,,387.9832094999729,388.18471409997437,388.1667711000191,388.46749920002185,388.46749920002185,None,388.9677468999289,None,j,1,1.19866890006233,388.9677468999289,None,None,None,390.18639219994657,None,,,,,,,,,,,,,,,,,,,,,11009,2,1,2024_Jun_04_1613,stroop_task_switching2,2021.2.3,59.84042949387417,
condition/block_mixed,instruction/instr_mixed,instruction/i10,红,red,d,diamond,color_mix,颜色,,compatible,1,,,,,,,,0,2,2,2,0,0,0,0,0,44,44,44,,,,,,,,,,,,,,,,,,,,,,,,,,,,,,,,,,,391.18781969998963,391.38863910001237,391.3716707000276,391.6724442000268,391.6724442000268,None,392.17301139992196,None,d,1,0.6978929999750108,392.17301139992196,None,None,None,392.89042229996994,None,,,,,,,,,,,,,,,,,,,,,11009,2,1,2024_Jun_04_1613,stroop_task_switching2,2021.2.3,59.84042949387417,
condition/block_mixed,instruction/instr_mixed,instruction/i10,蓝,blue,f,diamond,color_mix,颜色,,compatible,1,,,,,,,,0,2,2,2,0,0,0,0,0,45,45,45,,,,,,,,,,,,,,,,,,,,,,,,,,,,,,,,,,,393.8923706000205,394.093895399943,394.07566849992145,394.37655970000196,394.37655970000196,None,394.8768965000054,None,f,1,0.8981339000165462,394.8768965000054,None,None,None,395.7948669999605,None,,,,,,,,,,,,,,,,,,,,,11009,2,1,2024_Jun_04_1613,stroop_task_switching2,2021.2.3,59.84042949387417,
condition/block_mixed,instruction/instr_mixed,instruction/i10,红,red,d,diamond,color_mix,颜色,,compatible,1,,,,,,,,0,2,2,2,0,0,0,0,0,46,46,46,,,,,,,,,,,,,,,,,,,,,,,,,,,,,,,,,,,396.7965112000238,396.99775360000785,396.98085880000144,397.28114380000625,397.28114380000625,None,397.78108809993137,None,d,1,0.6898789000697434,397.78108809993137,None,None,None,398.49887959996704,None,,,,,,,,,,,,,,,,,,,,,11009,2,1,2024_Jun_04_1613,stroop_task_switching2,2021.2.3,59.84042949387417,
condition/block_mixed,instruction/instr_mixed,instruction/i10,红,red,d,square,color_mix,单词,,compatible,2,,,,,,,,0,2,2,2,0,0,0,0,0,47,47,47,,,,,,,,,,,,,,,,,,,,,,,,,,,,,,,,,,,399.50051679997705,399.7020251000067,399.68405489996076,399.98471789993346,399.98471789993346,None,400.48536839999724,None,d,1,0.6018256000243127,400.48536839999724,None,None,None,401.103124700021,None,,,,,,,,,,,,,,,,,,,,,11009,2,1,2024_Jun_04_1613,stroop_task_switching2,2021.2.3,59.84042949387417,
condition/block_mixed,instruction/instr_mixed,instruction/i10,红,red,d,diamond,color_mix,颜色,,compatible,2,,,,,,,,0,2,2,2,0,0,0,0,0,48,48,48,,,,,,,,,,,,,,,,,,,,,,,,,,,,,,,,,,,402.1044227000093,402.30560329998843,402.2880614999449,402.58854169992264,402.58854169992264,None,403.0893730999669,None,d,1,0.5176879999926314,403.0893730999669,None,None,None,403.62342790002003,None,,,,,,,,,,,,,,,,,,,,,11009,2,1,2024_Jun_04_1613,stroop_task_switching2,2021.2.3,59.84042949387417,
condition/block_mixed,instruction/instr_mixed,instruction/i10,,,,,,,,,,,,,,,,,0,2,2,2,0,0,0,0,,,,,,,,,,,,,,,,,,,,,,,,,,,,,,,,,,,,,,,,,,,,,,,,,,,,,,,,404.6249142999295,None,space,23.214926699991338,404.6249142999295,None,,,,,,,,,,,,,,,11009,2,1,2024_Jun_04_1613,stroop_task_switching2,2021.2.3,59.84042949387417,
condition/block_mixed,instruction/instr_mixed,instruction/i10,,,,,,,,,,,,,,,,,0,2,2,2,,,,,,,,,,,,,,,,,,,,,,,,,,,,,,,,,,,,,,,,,,,,,,,,,,,,,,,,,,,,,,,,,,,,,,,,,,,,,,,,11009,2,1,2024_Jun_04_1613,stroop_task_switching2,2021.2.3,59.84042949387417,
,,,红,red,d,square,color_mix,单词,,compatible,0,block_switch1,instruction/ready_test.png,instruction/i11.png,,,,,,,,,,,,,,,,,0,0,0,0,0,0,0,0,,,,,,,,,,,,,,,,,,,430.5819134999765,431.58220960001927,431.58220960001927,432.5838494999334,432.5838494999334,None,429.5957475999603,430.5974829000188,433.61889599997085,433.81885309994686,433.80241729994304,434.10300060000736,434.10300060000736,None,434.60342649999075,None,d,1,0.548587299999781,434.60342649999075,None,None,None,,,,,,,,,427.8758882000111,None,space,1.691956799943,427.8758882000111,None,,,,,,,,,11009,2,1,2024_Jun_04_1613,stroop_task_switching2,2021.2.3,59.84042949387417,
,,,绿,green,k,diamond,color_mix,颜色,,compatible,2,block_switch1,instruction/ready_test.png,instruction/i11.png,,,,,,,,,,,,,,,,,0,0,0,0,0,1,1,1,,,,,,,,,,,,,,,,,,,,,,,,,,,435.17070719995536,435.3721131000202,435.35489189997315,435.65488970000297,435.65488970000297,None,436.15585380000994,None,k,1,0.9013982999604195,436.15585380000994,None,None,None,,,,,,,,,,,,,,,,,,,,,,,11009,2,1,2024_Jun_04_1613,stroop_task_switching2,2021.2.3,59.84042949387417,
,,,绿,yellow,j,diamond,color_mix,颜色,,incompatible,1,block_switch1,instruction/ready_test.png,instruction/i11.png,,,,,,,,,,,,,,,,,0,0,0,0,0,2,2,2,,,,,,,,,,,,,,,,,,,,,,,,,,,437.07398059999105,437.2752389999805,437.25738700001966,437.55794829991646,437.55794829991646,None,438.0592287000036,None,j,1,1.604608100024052,438.0592287000036,None,None,None,,,,,,,,,,,,,,,,,,,,,,,11009,2,1,2024_Jun_04_1613,stroop_task_switching2,2021.2.3,59.84042949387417,
,,,蓝,blue,f,diamond,color_mix,颜色,,compatible,1,block_switch1,instruction/ready_test.png,instruction/i11.png,,,,,,,,,,,,,,,,,0,0,0,0,0,3,3,3,,,,,,,,,,,,,,,,,,,,,,,,,,,439.69437339995056,439.8959538999479,439.87838529993314,440.1787303999299,440.1787303999299,None,440.67963789997157,None,f,1,1.176454700063914,440.67963789997157,None,None,None,,,,,,,,,,,,,,,,,,,,,,,11009,2,1,2024_Jun_04_1613,stroop_task_switching2,2021.2.3,59.84042949387417,
,,,绿,green,k,square,color_mix,单词,,compatible,2,block_switch1,instruction/ready_test.png,instruction/i11.png,,,,,,,,,,,,,,,,,0,0,0,0,0,4,4,4,,,,,,,,,,,,,,,,,,,,,,,,,,,441.8810102000134,442.08225849992596,442.0646853999933,442.365714799962,442.365714799962,None,442.86595809995197,None,k,1,0.8620089000323787,442.86595809995197,None,None,None,,,,,,,,,,,,,,,,,,,,,,,11009,2,1,2024_Jun_04_1613,stroop_task_switching2,2021.2.3,59.84042949387417,
,,,绿,blue,f,diamond,color_mix,颜色,,incompatible,2,block_switch1,instruction/ready_test.png,instruction/i11.png,,,,,,,,,,,,,,,,,0,0,0,0,0,5,5,5,,,,,,,,,,,,,,,,,,,,,,,,,,,443.7506427000044,443.95151559996884,443.9341524000047,444.2349485999439,444.2349485999439,None,444.735801099916,None,f,1,1.616595600033179,444.735801099916,None,None,None,,,,,,,,,,,,,,,,,,,,,,,11009,2,1,2024_Jun_04_1613,stroop_task_switching2,2021.2.3,59.84042949387417,
,,,黄,red,j,square,color_mix,单词,,incompatible,2,block_switch1,instruction/ready_test.png,instruction/i11.png,,,,,,,,,,,,,,,,,0,0,0,0,0,6,6,6,,,,,,,,,,,,,,,,,,,,,,,,,,,446.3710090999957,446.5716699999757,446.5565955999773,446.85526610002853,446.85526610002853,None,447.3559657000005,None,j,1,1.5643090999219567,447.3559657000005,None,None,None,,,,,,,,,,,,,,,,,,,,,,,11009,2,1,2024_Jun_04_1613,stroop_task_switching2,2021.2.3,59.84042949387417,
,,,绿,green,k,square,color_mix,单词,,compatible,1,block_switch1,instruction/ready_test.png,instruction/i11.png,,,,,,,,,,,,,,,,,0,0,0,0,0,7,7,7,,,,,,,,,,,,,,,,,,,,,,,,,,,448.9419311999809,449.1419875000138,449.125297499937,449.4271619999781,449.4271619999781,None,449.9264945000177,None,k,1,1.2498743999749422,449.9264945000177,None,None,None,,,,,,,,,,,,,,,,,,,,,,,11009,2,1,2024_Jun_04_1613,stroop_task_switching2,2021.2.3,59.84042949387417,
,,,蓝,blue,f,square,color_mix,单词,,compatible,1,block_switch1,instruction/ready_test.png,instruction/i11.png,,,,,,,,,,,,,,,,,0,0,0,0,0,8,8,8,,,,,,,,,,,,,,,,,,,,,,,,,,,451.1952591999434,451.39577509998344,451.3786111000227,451.6796904000221,451.6796904000221,None,452.1802199999802,None,f,1,1.2282603000057861,452.1802199999802,None,None,None,,,,,,,,,,,,,,,,,,,,,,,11009,2,1,2024_Jun_04_1613,stroop_task_switching2,2021.2.3,59.84042949387417,
,,,红,red,d,diamond,color_mix,颜色,,compatible,2,block_switch1,instruction/ready_test.png,instruction/i11.png,,,,,,,,,,,,,,,,,0,0,0,0,0,9,9,9,,,,,,,,,,,,,,,,,,,,,,,,,,,453.43202960002236,453.6320230999263,453.6154058999382,453.91623620002065,453.91623620002065,None,454.41730879992247,None,d,1,0.9512631999095902,454.41730879992247,None,None,None,,,,,,,,,,,,,,,,,,,,,,,11009,2,1,2024_Jun_04_1613,stroop_task_switching2,2021.2.3,59.84042949387417,
,,,黄,yellow,j,diamond,color_mix,颜色,,compatible,1,block_switch1,instruction/ready_test.png,instruction/i11.png,,,,,,,,,,,,,,,,,0,0,0,0,0,10,10,10,,,,,,,,,,,,,,,,,,,,,,,,,,,455.3845503999619,455.5862004000228,455.56826460000593,455.86893280001823,455.86893280001823,None,456.3696048000129,None,j,1,0.8147981000365689,456.3696048000129,None,None,None,,,,,,,,,,,,,,,,,,,,,,,11009,2,1,2024_Jun_04_1613,stroop_task_switching2,2021.2.3,59.84042949387417,
,,,绿,green,k,square,color_mix,单词,,compatible,2,block_switch1,instruction/ready_test.png,instruction/i11.png,,,,,,,,,,,,,,,,,0,0,0,0,0,11,11,11,,,,,,,,,,,,,,,,,,,,,,,,,,,457.2040213999571,457.40434509993065,457.38771419995464,457.68812209996395,457.68812209996395,None,458.1889330999693,None,k,1,0.868490899913013,458.1889330999693,None,None,None,,,,,,,,,,,,,,,,,,,,,,,11009,2,1,2024_Jun_04_1613,stroop_task_switching2,2021.2.3,59.84042949387417,
,,,红,red,d,diamond,color_mix,颜色,,compatible,2,block_switch1,instruction/ready_test.png,instruction/i11.png,,,,,,,,,,,,,,,,,0,0,0,0,0,12,12,12,,,,,,,,,,,,,,,,,,,,,,,,,,,459.0736399999587,459.2757932000095,459.2574380999431,459.5580314999679,459.5580314999679,None,460.058419900015,None,d,1,1.4942752999486402,460.058419900015,None,None,None,,,,,,,,,,,,,,,,,,,,,,,11009,2,1,2024_Jun_04_1613,stroop_task_switching2,2021.2.3,59.84042949387417,
,,,红,red,d,diamond,color_mix,颜色,,compatible,1,block_switch1,instruction/ready_test.png,instruction/i11.png,,,,,,,,,,,,,,,,,0,0,0,0,0,13,13,13,,,,,,,,,,,,,,,,,,,,,,,,,,,461.57749149994925,461.77865069999825,461.7610439999262,462.0636719999602,462.0636719999602,None,462.5791031999979,None,d,1,0.6374472000170499,462.5791031999979,None,None,None,,,,,,,,,,,,,,,,,,,,,,,11009,2,1,2024_Jun_04_1613,stroop_task_switching2,2021.2.3,59.84042949387417,
,,,黄,yellow,j,square,color_mix,单词,,compatible,2,block_switch1,instruction/ready_test.png,instruction/i11.png,,,,,,,,,,,,,,,,,0,0,0,0,0,14,14,14,,,,,,,,,,,,,,,,,,,,,,,,,,,463.2466434999369,463.44822249992285,463.4303037999198,463.7323261999991,463.7323261999991,None,464.23149259993806,None,j,1,0.9454547999193892,464.23149259993806,None,None,None,,,,,,,,,,,,,,,,,,,,,,,11009,2,1,2024_Jun_04_1613,stroop_task_switching2,2021.2.3,59.84042949387417,
,,,红,green,k,diamond,color_mix,颜色,,incompatible,2,block_switch1,instruction/ready_test.png,instruction/i11.png,,,,,,,,,,,,,,,,,0,0,0,0,0,15,15,15,,,,,,,,,,,,,,,,,,,,,,,,,,,465.1995853999397,465.40031619998626,465.38452099997085,465.6835905999178,465.6835905999178,None,466.1843766999664,None,k,1,2.128383200033568,466.1843766999664,None,None,None,,,,,,,,,,,,,,,,,,,,,,,11009,2,1,2024_Jun_04_1613,stroop_task_switching2,2021.2.3,59.84042949387417,
,,,蓝,red,d,diamond,color_mix,颜色,,incompatible,1,block_switch1,instruction/ready_test.png,instruction/i11.png,,,,,,,,,,,,,,,,,0,0,0,0,0,16,16,16,,,,,,,,,,,,,,,,,,,,,,,,,,,468.3376078000292,468.53794780001044,468.52264280000236,468.8221052000299,468.8221052000299,None,469.3223274999764,None,d,1,1.134597000083886,469.3223274999764,None,None,None,,,,,,,,,,,,,,,,,,,,,,,11009,2,1,2024_Jun_04_1613,stroop_task_switching2,2021.2.3,59.84042949387417,
,,,黄,green,k,diamond,color_mix,颜色,,incompatible,1,block_switch1,instruction/ready_test.png,instruction/i11.png,,,,,,,,,,,,,,,,,0,0,0,0,0,17,17,17,,,,,,,,,,,,,,,,,,,,,,,,,,,470.4740788999479,470.6750257000094,470.6576336999424,470.9580247999402,470.9580247999402,None,471.45894849998876,None,k,1,1.3504031000193208,471.45894849998876,None,None,None,,,,,,,,,,,,,,,,,,,,,,,11009,2,1,2024_Jun_04_1613,stroop_task_switching2,2021.2.3,59.84042949387417,
,,,绿,green,k,diamond,color_mix,颜色,,compatible,1,block_switch1,instruction/ready_test.png,instruction/i11.png,,,,,,,,,,,,,,,,,0,0,0,0,0,18,18,18,,,,,,,,,,,,,,,,,,,,,,,,,,,472.82761719997507,473.02788069995586,473.011328099994,473.3117173999781,473.3117173999781,None,473.8125237999484,None,k,1,0.6362435000482947,473.8125237999484,None,None,None,,,,,,,,,,,,,,,,,,,,,,,11009,2,1,2024_Jun_04_1613,stroop_task_switching2,2021.2.3,59.84042949387417,
,,,黄,red,d,diamond,color_mix,颜色,,incompatible,1,block_switch1,instruction/ready_test.png,instruction/i11.png,,,,,,,,,,,,,,,,,0,0,0,0,0,19,19,19,,,,,,,,,,,,,,,,,,,,,,,,,,,474.4802349000238,474.68172380002216,474.6637733000098,474.96431680000387,474.96431680000387,None,475.46530649997294,None,d,1,1.063945300062187,475.46530649997294,None,None,None,,,,,,,,,,,,,,,,,,,,,,,11009,2,1,2024_Jun_04_1613,stroop_task_switching2,2021.2.3,59.84042949387417,
,,,绿,yellow,k,square,color_mix,单词,,incompatible,2,block_switch1,instruction/ready_test.png,instruction/i11.png,,,,,,,,,,,,,,,,,0,0,0,0,0,20,20,20,,,,,,,,,,,,,,,,,,,,,,,,,,,476.54996229999233,476.75167849997524,476.73362299997825,477.0339543999871,477.0339543999871,None,477.5348555999808,None,k,1,1.4023441000608727,477.5348555999808,None,None,None,,,,,,,,,,,,,,,,,,,,,,,11009,2,1,2024_Jun_04_1613,stroop_task_switching2,2021.2.3,59.84042949387417,
,,,绿,yellow,j,diamond,color_mix,颜色,,incompatible,2,block_switch1,instruction/ready_test.png,instruction/i11.png,,,,,,,,,,,,,,,,,0,0,0,0,0,21,21,21,,,,,,,,,,,,,,,,,,,,,,,,,,,478.95395330002066,479.1546054999344,479.1372496000258,479.43793529993854,479.43793529993854,None,479.9383582000155,None,j,1,1.878898199996911,479.9383582000155,None,None,None,,,,,,,,,,,,,,,,,,,,,,,11009,2,1,2024_Jun_04_1613,stroop_task_switching2,2021.2.3,59.84042949387417,
,,,绿,green,k,square,color_mix,单词,,compatible,2,block_switch1,instruction/ready_test.png,instruction/i11.png,,,,,,,,,,,,,,,,,0,0,0,0,0,22,22,22,,,,,,,,,,,,,,,,,,,,,,,,,,,481.8416103000054,482.04205219994765,482.0248255999759,482.3253122000024,482.3253122000024,None,482.82616759999655,None,k,1,2.070987300015986,482.82616759999655,None,None,None,,,,,,,,,,,,,,,,,,,,,,,11009,2,1,2024_Jun_04_1613,stroop_task_switching2,2021.2.3,59.84042949387417,
,,,红,red,d,square,color_mix,单词,,compatible,1,block_switch1,instruction/ready_test.png,instruction/i11.png,,,,,,,,,,,,,,,,,0,0,0,0,0,23,23,23,,,,,,,,,,,,,,,,,,,,,,,,,,,484.9124655999476,485.1130527999485,485.0961623999756,485.3991741000209,485.3991741000209,None,485.9141827999847,None,d,1,1.6471883000340313,485.9141827999847,None,None,None,,,,,,,,,,,,,,,,,,,,,,,11009,2,1,2024_Jun_04_1613,stroop_task_switching2,2021.2.3,59.84042949387417,
,,,黄,green,j,square,color_mix,单词,,incompatible,1,block_switch1,instruction/ready_test.png,instruction/i11.png,,,,,,,,,,,,,,,,,0,0,0,0,0,24,24,24,,,,,,,,,,,,,,,,,,,,,,,,,,,487.58329939993564,487.78457709995564,487.76696349994745,488.0691877999343,488.0691877999343,None,488.5845723999664,None,j,1,1.9686728999949992,488.5845723999664,None,None,None,,,,,,,,,,,,,,,,,,,,,,,11009,2,1,2024_Jun_04_1613,stroop_task_switching2,2021.2.3,59.84042949387417,
,,,红,blue,d,square,color_mix,单词,,incompatible,1,block_switch1,instruction/ready_test.png,instruction/i11.png,,,,,,,,,,,,,,,,,0,0,0,0,0,25,25,25,,,,,,,,,,,,,,,,,,,,,,,,,,,490.57120320003014,490.77217679994646,490.75454669992905,491.0558397999266,491.0558397999266,None,491.5559136000229,None,d,1,1.4615358000155538,491.5559136000229,None,None,None,,,,,,,,,,,,,,,,,,,,,,,11009,2,1,2024_Jun_04_1613,stroop_task_switching2,2021.2.3,59.84042949387417,
,,,黄,yellow,j,square,color_mix,单词,,compatible,1,block_switch1,instruction/ready_test.png,instruction/i11.png,,,,,,,,,,,,,,,,,0,0,0,0,0,26,26,26,,,,,,,,,,,,,,,,,,,,,,,,,,,493.04139529995155,493.24194630002603,493.2250934999902,493.52536819991656,493.52536819991656,None,494.0266657000175,None,j,1,1.8947054999880493,494.0266657000175,None,None,None,,,,,,,,,,,,,,,,,,,,,,,11009,2,1,2024_Jun_04_1613,stroop_task_switching2,2021.2.3,59.84042949387417,
,,,蓝,green,f,square,color_mix,单词,,incompatible,1,block_switch1,instruction/ready_test.png,instruction/i11.png,,,,,,,,,,,,,,,,,0,0,0,0,0,27,27,27,,,,,,,,,,,,,,,,,,,,,,,,,,,495.94578950002324,496.14627359993756,496.1293103999924,496.4301091999514,496.4301091999514,None,496.930678899982,None,f,1,1.6069442000007257,496.930678899982,None,None,None,,,,,,,,,,,,,,,,,,,,,,,11009,2,1,2024_Jun_04_1613,stroop_task_switching2,2021.2.3,59.84042949387417,
,,,绿,green,k,diamond,color_mix,颜色,,compatible,2,block_switch1,instruction/ready_test.png,instruction/i11.png,,,,,,,,,,,,,,,,,0,0,0,0,0,28,28,28,,,,,,,,,,,,,,,,,,,,,,,,,,,498.566409299965,498.7689282000065,498.7501875999151,499.05096509994473,499.05096509994473,None,499.551415199996,None,k,1,0.8504517000401393,499.551415199996,None,None,None,,,,,,,,,,,,,,,,,,,,,,,11009,2,1,2024_Jun_04_1613,stroop_task_switching2,2021.2.3,59.84042949387417,
,,,黄,blue,f,diamond,color_mix,颜色,,incompatible,1,block_switch1,instruction/ready_test.png,instruction/i11.png,,,,,,,,,,,,,,,,,0,0,0,0,0,29,29,29,,,,,,,,,,,,,,,,,,,,,,,,,,,500.4196285000071,500.6198378999252,500.60289039998315,500.903158799978,500.903158799978,None,501.40559059998486,None,f,1,1.3401899000164121,501.40559059998486,None,None,None,,,,,,,,,,,,,,,,,,,,,,,11009,2,1,2024_Jun_04_1613,stroop_task_switching2,2021.2.3,59.84042949387417,
,,,绿,green,k,diamond,color_mix,颜色,,compatible,1,block_switch1,instruction/ready_test.png,instruction/i11.png,,,,,,,,,,,,,,,,,0,0,0,0,0,30,30,30,,,,,,,,,,,,,,,,,,,,,,,,,,,502.77304150001146,502.97399760002736,502.95648029993754,503.25679809995927,503.25679809995927,None,503.75807550002355,None,k,1,2.139510699897073,503.75807550002355,None,None,None,,,,,,,,,,,,,,,,,,,,,,,11009,2,1,2024_Jun_04_1613,stroop_task_switching2,2021.2.3,59.84042949387417,
,,,蓝,blue,f,square,color_mix,单词,,compatible,2,block_switch1,instruction/ready_test.png,instruction/i11.png,,,,,,,,,,,,,,,,,0,0,0,0,0,31,31,31,,,,,,,,,,,,,,,,,,,,,,,,,,,505.9276913999347,506.1289764000103,506.11177459999453,506.4120315000182,506.4120315000182,None,506.912261200021,None,f,1,2.5219502999680117,506.912261200021,None,None,None,,,,,,,,,,,,,,,,,,,,,,,11009,2,1,2024_Jun_04_1613,stroop_task_switching2,2021.2.3,59.84042949387417,
,,,红,red,d,square,color_mix,单词,,compatible,1,block_switch1,instruction/ready_test.png,instruction/i11.png,,,,,,,,,,,,,,,,,0,0,0,0,0,32,32,32,,,,,,,,,,,,,,,,,,,,,,,,,,,509.46631109993905,509.6663572000107,509.6502531999722,509.9512304000091,509.9512304000091,None,510.4513535000151,None,d,1,2.3106909999623895,510.4513535000151,None,None,None,,,,,,,,,,,,,,,,,,,,,,,11009,2,1,2024_Jun_04_1613,stroop_task_switching2,2021.2.3,59.84042949387417,
,,,红,green,d,square,color_mix,单词,,incompatible,1,block_switch1,instruction/ready_test.png,instruction/i11.png,,,,,,,,,,,,,,,,,0,0,0,0,0,33,33,33,,,,,,,,,,,,,,,,,,,,,,,,,,,512.7880927999504,512.9889962000307,512.9715608999832,513.2726539999712,513.2726539999712,None,513.7728486999404,None,d,1,1.3330348000163212,513.7728486999404,None,None,None,,,,,,,,,,,,,,,,,,,,,,,11009,2,1,2024_Jun_04_1613,stroop_task_switching2,2021.2.3,59.84042949387417,
,,,黄,yellow,j,diamond,color_mix,颜色,,compatible,2,block_switch1,instruction/ready_test.png,instruction/i11.png,,,,,,,,,,,,,,,,,0,0,0,0,0,34,34,34,,,,,,,,,,,,,,,,,,,,,,,,,,,515.1248756999848,515.3249999999534,515.3084787999978,515.6089889999712,515.6089889999712,None,516.1095889999997,None,j,1,1.3489808000158519,516.1095889999997,None,None,None,,,,,,,,,,,,,,,,,,,,,,,11009,2,1,2024_Jun_04_1613,stroop_task_switching2,2021.2.3,59.84042949387417,
,,,红,green,k,diamond,color_mix,颜色,,incompatible,1,block_switch1,instruction/ready_test.png,instruction/i11.png,,,,,,,,,,,,,,,,,0,0,0,0,0,35,35,35,,,,,,,,,,,,,,,,,,,,,,,,,,,517.4784419999924,517.6794388999697,517.6619247000199,517.962999099982,517.962999099982,None,518.4636093999725,None,k,1,1.1065279999747872,518.4636093999725,None,None,None,,,,,,,,,,,,,,,,,,,,,,,11009,2,1,2024_Jun_04_1613,stroop_task_switching2,2021.2.3,59.84042949387417,
,,,黄,yellow,j,square,color_mix,单词,,compatible,2,block_switch1,instruction/ready_test.png,instruction/i11.png,,,,,,,,,,,,,,,,,0,0,0,0,0,36,36,36,,,,,,,,,,,,,,,,,,,,,,,,,,,519.5982146000024,519.8001226999331,519.7820236999542,520.0825637999224,520.0825637999224,None,520.582969399984,None,j,1,0.8352861000457779,520.582969399984,None,None,None,,,,,,,,,,,,,,,,,,,,,,,11009,2,1,2024_Jun_04_1613,stroop_task_switching2,2021.2.3,59.84042949387417,
,,,蓝,blue,f,square,color_mix,单词,,compatible,1,block_switch1,instruction/ready_test.png,instruction/i11.png,,,,,,,,,,,,,,,,,0,0,0,0,0,37,37,37,,,,,,,,,,,,,,,,,,,,,,,,,,,521.4341305999551,521.6345447999192,521.6180786999175,521.919131899951,521.919131899951,None,522.4190582999727,None,f,1,1.007282100035809,522.4190582999727,None,None,None,,,,,,,,,,,,,,,,,,,,,,,11009,2,1,2024_Jun_04_1613,stroop_task_switching2,2021.2.3,59.84042949387417,
,,,绿,red,d,diamond,color_mix,颜色,,incompatible,2,block_switch1,instruction/ready_test.png,instruction/i11.png,,,,,,,,,,,,,,,,,0,0,0,0,0,38,38,38,,,,,,,,,,,,,,,,,,,,,,,,,,,523.453863499919,523.6554717000108,523.6378107999917,523.9386794000166,523.9386794000166,None,524.4388472000137,None,d,1,1.8680499999318272,524.4388472000137,None,None,None,,,,,,,,,,,,,,,,,,,,,,,11009,2,1,2024_Jun_04_1613,stroop_task_switching2,2021.2.3,59.84042949387417,
,,,黄,yellow,j,diamond,color_mix,颜色,,compatible,1,block_switch1,instruction/ready_test.png,instruction/i11.png,,,,,,,,,,,,,,,,,0,0,0,0,0,39,39,39,,,,,,,,,,,,,,,,,,,,,,,,,,,526.3251628000289,526.525534800021,526.5089904000051,526.8089911999414,526.8089911999414,None,527.3100724000251,None,j,1,1.196403899928555,527.3100724000251,None,None,None,,,,,,,,,,,,,,,,,,,,,,,11009,2,1,2024_Jun_04_1613,stroop_task_switching2,2021.2.3,59.84042949387417,
,,,红,blue,f,diamond,color_mix,颜色,,incompatible,1,block_switch1,instruction/ready_test.png,instruction/i11.png,,,,,,,,,,,,,,,,,0,0,0,0,0,40,40,40,,,,,,,,,,,,,,,,,,,,,,,,,,,528.5284290999407,528.7291842999402,528.711685199989,529.0129613999743,529.0129613999743,None,529.5132179999491,None,f,1,1.2491511000553146,529.5132179999491,None,None,None,,,,,,,,,,,,,,,,,,,,,,,11009,2,1,2024_Jun_04_1613,stroop_task_switching2,2021.2.3,59.84042949387417,
,,,绿,blue,k,square,color_mix,单词,,incompatible,2,block_switch1,instruction/ready_test.png,instruction/i11.png,,,,,,,,,,,,,,,,,0,0,0,0,0,41,41,41,,,,,,,,,,,,,,,,,,,,,,,,,,,530.7816459999885,530.9833807999967,530.9652350000106,531.2659572999692,531.2659572999692,None,531.7668569999514,None,k,1,1.8035100999986753,531.7668569999514,None,None,None,,,,,,,,,,,,,,,,,,,,,,,11009,2,1,2024_Jun_04_1613,stroop_task_switching2,2021.2.3,59.84042949387417,
,,,蓝,blue,f,diamond,color_mix,颜色,,compatible,2,block_switch1,instruction/ready_test.png,instruction/i11.png,,,,,,,,,,,,,,,,,0,0,0,0,0,42,42,42,,,,,,,,,,,,,,,,,,,,,,,,,,,533.6026754999766,533.8036075999262,533.7864017999964,534.088353900006,534.088353900006,None,534.5878163999878,None,f,1,1.7268696000101045,534.5878163999878,None,None,None,,,,,,,,,,,,,,,,,,,,,,,11009,2,1,2024_Jun_04_1613,stroop_task_switching2,2021.2.3,59.84042949387417,
,,,红,blue,d,square,color_mix,单词,,incompatible,2,block_switch1,instruction/ready_test.png,instruction/i11.png,,,,,,,,,,,,,,,,,0,0,0,0,0,43,43,43,,,,,,,,,,,,,,,,,,,,,,,,,,,536.3400791999884,536.5405166000128,536.5238678000169,536.8244638999458,536.8244638999458,None,537.3253084999742,None,d,1,1.5254900000290945,537.3253084999742,None,None,None,,,,,,,,,,,,,,,,,,,,,,,11009,2,1,2024_Jun_04_1613,stroop_task_switching2,2021.2.3,59.84042949387417,
,,,蓝,green,k,diamond,color_mix,颜色,,incompatible,2,block_switch1,instruction/ready_test.png,instruction/i11.png,,,,,,,,,,,,,,,,,0,0,0,0,0,44,44,44,,,,,,,,,,,,,,,,,,,,,,,,,,,538.8774972999236,539.0786214999389,539.0611616999377,539.3625363999745,539.3625363999745,None,539.8621449000202,None,k,1,2.052629300043918,539.8621449000202,None,None,None,,,,,,,,,,,,,,,,,,,,,,,11009,2,1,2024_Jun_04_1613,stroop_task_switching2,2021.2.3,59.84042949387417,
,,,黄,yellow,j,square,color_mix,单词,,compatible,2,block_switch1,instruction/ready_test.png,instruction/i11.png,,,,,,,,,,,,,,,,,0,0,0,0,0,45,45,45,,,,,,,,,,,,,,,,,,,,,,,,,,,541.9319222000195,542.1320642000064,542.1155280999374,542.417299099965,542.417299099965,None,542.917020099936,None,j,1,1.5583622000413015,542.917020099936,None,None,None,,,,,,,,,,,,,,,,,,,,,,,11009,2,1,2024_Jun_04_1613,stroop_task_switching2,2021.2.3,59.84042949387417,
,,,黄,yellow,j,diamond,color_mix,颜色,,compatible,2,block_switch1,instruction/ready_test.png,instruction/i11.png,,,,,,,,,,,,,,,,,0,0,0,0,0,46,46,46,,,,,,,,,,,,,,,,,,,,,,,,,,,544.5024209999247,544.7042144000297,544.6860168999992,544.9884558999911,544.9884558999911,None,545.5041301000165,None,j,1,2.2346577000571415,545.5041301000165,None,None,None,,,,,,,,,,,,,,,,,,,,,,,11009,2,1,2024_Jun_04_1613,stroop_task_switching2,2021.2.3,59.84042949387417,
,,,绿,red,k,square,color_mix,单词,,incompatible,2,block_switch1,instruction/ready_test.png,instruction/i11.png,,,,,,,,,,,,,,,,,0,0,0,0,0,47,47,47,,,,,,,,,,,,,,,,,,,,,,,,,,,547.7573548000073,547.9586750000017,547.9410284999758,548.2422421999509,548.2422421999509,None,548.7419714999851,551.7479195999913,None,0,,548.7419714999851,551.7479195999913,551.7300950000063,None,,,,,,,,,,,,,,,,,,,,,,,11009,2,1,2024_Jun_04_1613,stroop_task_switching2,2021.2.3,59.84042949387417,
,,,红,red,d,diamond,color_mix,颜色,,compatible,2,block_switch1,instruction/ready_test.png,instruction/i11.png,,,,,,,,,,,,,,,,,0,0,0,0,0,48,48,48,,,,,,,,,,,,,,,,,,,,,,,,,,,552.3309156999458,552.5320393999573,552.515070799971,552.8149561999599,552.8149561999599,None,553.31555509998,None,d,1,1.895586800063029,553.31555509998,None,None,None,,,,,,,,,,,,,,,,,,,,,,,11009,2,1,2024_Jun_04_1613,stroop_task_switching2,2021.2.3,59.84042949387417,
,,,蓝,blue,f,diamond,color_mix,颜色,,compatible,1,block_switch1,instruction/ready_test.png,instruction/i11.png,,,,,,,,,,,,,,,,,0,0,0,0,0,49,49,49,,,,,,,,,,,,,,,,,,,,,,,,,,,555.2355583999306,555.4358204000164,555.4191948999651,555.7205602999311,555.7205602999311,None,556.2202173999976,559.2250282999594,None,0,,556.2202173999976,559.2250282999594,559.207779899938,None,,,,,,,,,,,,,,,,,,,,,,,11009,2,1,2024_Jun_04_1613,stroop_task_switching2,2021.2.3,59.84042949387417,
,,,黄,yellow,j,diamond,color_mix,颜色,,compatible,1,block_switch1,instruction/ready_test.png,instruction/i11.png,,,,,,,,,,,,,,,,,0,0,0,0,0,50,50,50,,,,,,,,,,,,,,,,,,,,,,,,,,,559.8257692999905,560.0274135000072,560.0092269999441,560.3094622999197,560.3094622999197,None,560.8108239999274,None,j,1,1.7044226999860257,560.8108239999274,None,None,None,,,,,,,,,,,,,,,,,,,,,,,11009,2,1,2024_Jun_04_1613,stroop_task_switching2,2021.2.3,59.84042949387417,
,,,红,blue,f,diamond,color_mix,颜色,,incompatible,1,block_switch1,instruction/ready_test.png,instruction/i11.png,,,,,,,,,,,,,,,,,0,0,0,0,0,51,51,51,,,,,,,,,,,,,,,,,,,,,,,,,,,562.546339499997,562.748573299963,562.7301092999987,563.0304653999628,563.0304653999628,None,563.5311189999338,None,f,1,1.5603456000098959,563.5311189999338,None,None,None,,,,,,,,,,,,,,,,,,,,,,,11009,2,1,2024_Jun_04_1613,stroop_task_switching2,2021.2.3,59.84042949387417,
,,,蓝,yellow,j,diamond,color_mix,颜色,,incompatible,1,block_switch1,instruction/ready_test.png,instruction/i11.png,,,,,,,,,,,,,,,,,0,0,0,0,0,52,52,52,,,,,,,,,,,,,,,,,,,,,,,,,,,565.1168353999965,565.3171385999303,565.3009326999309,565.6006706999615,565.6006706999615,None,566.1023234999739,None,j,1,1.5969859000761062,566.1023234999739,None,None,None,,,,,,,,,,,,,,,,,,,,,,,11009,2,1,2024_Jun_04_1613,stroop_task_switching2,2021.2.3,59.84042949387417,
,,,黄,blue,j,square,color_mix,单词,,incompatible,2,block_switch1,instruction/ready_test.png,instruction/i11.png,,,,,,,,,,,,,,,,,0,0,0,0,0,53,53,53,,,,,,,,,,,,,,,,,,,,,,,,,,,567.7210060999496,567.9211137000239,567.9048226999585,568.2047173000174,568.2047173000174,None,568.7056469999952,None,j,1,1.714052899973467,568.7056469999952,None,None,None,,,,,,,,,,,,,,,,,,,,,,,11009,2,1,2024_Jun_04_1613,stroop_task_switching2,2021.2.3,59.84042949387417,
,,,蓝,blue,f,diamond,color_mix,颜色,,compatible,2,block_switch1,instruction/ready_test.png,instruction/i11.png,,,,,,,,,,,,,,,,,0,0,0,0,0,54,54,54,,,,,,,,,,,,,,,,,,,,,,,,,,,570.441507600015,570.6431720999535,570.6251706000185,570.9259863999905,570.9259863999905,None,571.426488099969,None,f,1,1.0251793999923393,571.426488099969,None,None,None,,,,,,,,,,,,,,,,,,,,,,,11009,2,1,2024_Jun_04_1613,stroop_task_switching2,2021.2.3,59.84042949387417,
,,,红,yellow,d,square,color_mix,单词,,incompatible,2,block_switch1,instruction/ready_test.png,instruction/i11.png,,,,,,,,,,,,,,,,,0,0,0,0,0,55,55,55,,,,,,,,,,,,,,,,,,,,,,,,,,,572.4778358999174,572.6794605000177,572.6615406000055,572.962059799931,572.962059799931,None,573.4628357000183,None,d,1,2.093238399946131,573.4628357000183,None,None,None,,,,,,,,,,,,,,,,,,,,,,,11009,2,1,2024_Jun_04_1613,stroop_task_switching2,2021.2.3,59.84042949387417,
,,,蓝,red,f,square,color_mix,单词,,incompatible,1,block_switch1,instruction/ready_test.png,instruction/i11.png,,,,,,,,,,,,,,,,,0,0,0,0,0,56,56,56,,,,,,,,,,,,,,,,,,,,,,,,,,,575.582911400008,575.7829974999186,575.7663080999628,576.0666573999915,576.0666573999915,None,576.5676225000061,None,f,1,1.6041521000443026,576.5676225000061,None,None,None,,,,,,,,,,,,,,,,,,,,,,,11009,2,1,2024_Jun_04_1613,stroop_task_switching2,2021.2.3,59.84042949387417,
,,,蓝,blue,f,square,color_mix,单词,,compatible,1,block_switch1,instruction/ready_test.png,instruction/i11.png,,,,,,,,,,,,,,,,,0,0,0,0,0,57,57,57,,,,,,,,,,,,,,,,,,,,,,,,,,,578.2033779999474,578.4046841999516,578.3869082999881,578.6886997999391,578.6886997999391,None,579.1878880999284,None,f,1,0.9840302999364212,579.1878880999284,None,None,None,,,,,,,,,,,,,,,,,,,,,,,11009,2,1,2024_Jun_04_1613,stroop_task_switching2,2021.2.3,59.84042949387417,
,,,蓝,red,d,diamond,color_mix,颜色,,incompatible,2,block_switch1,instruction/ready_test.png,instruction/i11.png,,,,,,,,,,,,,,,,,0,0,0,0,0,58,58,58,,,,,,,,,,,,,,,,,,,,,,,,,,,580.190169599955,580.3912337999791,580.3731656000018,580.6739667999791,580.6739667999791,None,581.1749103999464,None,d,1,1.3890489999903366,581.1749103999464,None,None,None,,,,,,,,,,,,,,,,,,,,,,,11009,2,1,2024_Jun_04_1613,stroop_task_switching2,2021.2.3,59.84042949387417,
,,,绿,green,k,diamond,color_mix,颜色,,compatible,1,block_switch1,instruction/ready_test.png,instruction/i11.png,,,,,,,,,,,,,,,,,0,0,0,0,0,59,59,59,,,,,,,,,,,,,,,,,,,,,,,,,,,582.5932780000148,582.7945499999914,582.7767772999359,583.0793293999741,583.0793293999741,None,583.594697499997,None,k,1,1.561271599959582,583.594697499997,None,None,None,,,,,,,,,,,,,,,,,,,,,,,11009,2,1,2024_Jun_04_1613,stroop_task_switching2,2021.2.3,59.84042949387417,
,,,蓝,blue,f,diamond,color_mix,颜色,,compatible,1,block_switch1,instruction/ready_test.png,instruction/i11.png,,,,,,,,,,,,,,,,,0,0,0,0,0,60,60,60,,,,,,,,,,,,,,,,,,,,,,,,,,,585.1804072000086,585.38148979994,585.3641330000246,585.6648485999322,585.6648485999322,None,586.1655233999481,None,f,1,1.622365500079468,586.1655233999481,None,None,None,,,,,,,,,,,,,,,,,,,,,,,11009,2,1,2024_Jun_04_1613,stroop_task_switching2,2021.2.3,59.84042949387417,
,,,黄,yellow,j,square,color_mix,单词,,compatible,2,block_switch1,instruction/ready_test.png,instruction/i11.png,,,,,,,,,,,,,,,,,0,0,0,0,0,61,61,61,,,,,,,,,,,,,,,,,,,,,,,,,,,587.8175908999983,588.0198533999501,588.0013728999766,588.3018891999964,588.3018891999964,None,588.8025949000148,None,j,1,1.1693977999966592,588.8025949000148,None,None,None,,,,,,,,,,,,,,,,,,,,,,,11009,2,1,2024_Jun_04_1613,stroop_task_switching2,2021.2.3,59.84042949387417,
,,,绿,blue,k,square,color_mix,单词,,incompatible,1,block_switch1,instruction/ready_test.png,instruction/i11.png,,,,,,,,,,,,,,,,,0,0,0,0,0,62,62,62,,,,,,,,,,,,,,,,,,,,,,,,,,,589.9878562999656,590.1895099999383,590.172849799972,590.4718746999279,590.4718746999279,None,590.9725607000291,None,k,1,1.5838985000737011,590.9725607000291,None,None,None,,,,,,,,,,,,,,,,,,,,,,,11009,2,1,2024_Jun_04_1613,stroop_task_switching2,2021.2.3,59.84042949387417,
,,,蓝,yellow,f,square,color_mix,单词,,incompatible,1,block_switch1,instruction/ready_test.png,instruction/i11.png,,,,,,,,,,,,,,,,,0,0,0,0,0,63,63,63,,,,,,,,,,,,,,,,,,,,,,,,,,,592.5753602000186,592.775051799952,592.758415899938,593.0602674999973,593.0602674999973,None,593.5596023999387,None,f,1,1.8047602000879124,593.5596023999387,None,None,None,,,,,,,,,,,,,,,,,,,,,,,11009,2,1,2024_Jun_04_1613,stroop_task_switching2,2021.2.3,59.84042949387417,
,,,黄,yellow,j,diamond,color_mix,颜色,,compatible,2,block_switch1,instruction/ready_test.png,instruction/i11.png,,,,,,,,,,,,,,,,,0,0,0,0,0,64,64,64,,,,,,,,,,,,,,,,,,,,,,,,,,,595.3960101000266,595.5982012000168,595.5795561999548,595.8817516999552,595.8817516999552,None,596.3811299999943,None,j,1,1.463154700002633,596.3811299999943,None,None,None,,,,,,,,,,,,,,,,,,,,,,,11009,2,1,2024_Jun_04_1613,stroop_task_switching2,2021.2.3,59.84042949387417,
,,,蓝,green,k,diamond,color_mix,颜色,,incompatible,1,block_switch1,instruction/ready_test.png,instruction/i11.png,,,,,,,,,,,,,,,,,0,0,0,0,0,65,65,65,,,,,,,,,,,,,,,,,,,,,,,,,,,597.8673474999378,598.0664016000228,598.0501959000248,598.3502226999262,598.3502226999262,None,598.8509005999658,None,k,1,0.6492444999748841,598.8509005999658,None,None,None,,,,,,,,,,,,,,,,,,,,,,,11009,2,1,2024_Jun_04_1613,stroop_task_switching2,2021.2.3,59.84042949387417,
,,,红,red,d,diamond,color_mix,颜色,,compatible,1,block_switch1,instruction/ready_test.png,instruction/i11.png,,,,,,,,,,,,,,,,,0,0,0,0,0,66,66,66,,,,,,,,,,,,,,,,,,,,,,,,,,,599.5188731999369,599.7189654000103,599.7040376999648,600.0028296000091,600.0028296000091,None,600.5034446999198,None,d,1,0.6207658000057563,600.5034446999198,None,None,None,,,,,,,,,,,,,,,,,,,,,,,11009,2,1,2024_Jun_04_1613,stroop_task_switching2,2021.2.3,59.84042949387417,
,,,蓝,yellow,f,square,color_mix,单词,,incompatible,2,block_switch1,instruction/ready_test.png,instruction/i11.png,,,,,,,,,,,,,,,,,0,0,0,0,0,67,67,67,,,,,,,,,,,,,,,,,,,,,,,,,,,601.1545793999685,601.355357500026,601.3384749999968,601.6396514999215,601.6396514999215,None,602.1394251999445,None,f,1,1.161146300029941,602.1394251999445,None,None,None,,,,,,,,,,,,,,,,,,,,,,,11009,2,1,2024_Jun_04_1613,stroop_task_switching2,2021.2.3,59.84042949387417,
,,,红,yellow,d,square,color_mix,单词,,incompatible,1,block_switch1,instruction/ready_test.png,instruction/i11.png,,,,,,,,,,,,,,,,,0,0,0,0,0,68,68,68,,,,,,,,,,,,,,,,,,,,,,,,,,,603.3247948000208,603.5257179000182,603.5080866999924,603.8098114000168,603.8098114000168,None,604.3095451999689,None,d,1,0.8069913000799716,604.3095451999689,None,None,None,,,,,,,,,,,,,,,,,,,,,,,11009,2,1,2024_Jun_04_1613,stroop_task_switching2,2021.2.3,59.84042949387417,
,,,红,yellow,j,diamond,color_mix,颜色,,incompatible,2,block_switch1,instruction/ready_test.png,instruction/i11.png,,,,,,,,,,,,,,,,,0,0,0,0,0,69,69,69,,,,,,,,,,,,,,,,,,,,,,,,,,,605.1437872999813,605.3449227999663,605.3274507999886,605.6278668999439,605.6278668999439,None,606.128836799995,None,d,0,0.9956657000584528,606.128836799995,None,None,None,,,,,,,,,,,,,,,,,,,,,,,11009,2,1,2024_Jun_04_1613,stroop_task_switching2,2021.2.3,59.84042949387417,
,,,蓝,green,f,square,color_mix,单词,,incompatible,2,block_switch1,instruction/ready_test.png,instruction/i11.png,,,,,,,,,,,,,,,,,0,0,0,0,0,70,70,70,,,,,,,,,,,,,,,,,,,,,,,,,,,607.1469633999513,607.34724059992,607.3316012999276,607.6308842999861,607.6308842999861,None,608.1317508999491,None,f,1,2.288861699984409,608.1317508999491,None,None,None,,,,,,,,,,,,,,,,,,,,,,,11009,2,1,2024_Jun_04_1613,stroop_task_switching2,2021.2.3,59.84042949387417,
,,,绿,yellow,k,square,color_mix,单词,,incompatible,1,block_switch1,instruction/ready_test.png,instruction/i11.png,,,,,,,,,,,,,,,,,0,0,0,0,0,71,71,71,,,,,,,,,,,,,,,,,,,,,,,,,,,610.4517667000182,610.6543284999207,610.6354442000156,610.9359958999557,610.9359958999557,None,611.4366606000112,None,k,1,2.768203299958259,611.4366606000112,None,None,None,,,,,,,,,,,,,,,,,,,,,,,11009,2,1,2024_Jun_04_1613,stroop_task_switching2,2021.2.3,59.84042949387417,
,,,蓝,yellow,j,diamond,color_mix,颜色,,incompatible,2,block_switch1,instruction/ready_test.png,instruction/i11.png,,,,,,,,,,,,,,,,,0,0,0,0,0,72,72,72,,,,,,,,,,,,,,,,,,,,,,,,,,,614.224140199949,614.4249982999172,614.4079108999576,614.7089725999394,614.7089725999394,None,615.209069399978,None,j,1,1.0035796000156552,615.209069399978,None,None,None,,,,,,,,,,,,,,,,,,,,,,,11009,2,1,2024_Jun_04_1613,stroop_task_switching2,2021.2.3,59.84042949387417,
,,,红,green,d,square,color_mix,单词,,incompatible,2,block_switch1,instruction/ready_test.png,instruction/i11.png,,,,,,,,,,,,,,,,,0,0,0,0,0,73,73,73,,,,,,,,,,,,,,,,,,,,,,,,,,,616.2437900999794,616.4442126000067,616.4274746000301,616.7293563999701,616.7293563999701,None,617.2288334999466,None,d,1,1.208160899928771,617.2288334999466,None,None,None,,,,,,,,,,,,,,,,,,,,,,,11009,2,1,2024_Jun_04_1613,stroop_task_switching2,2021.2.3,59.84042949387417,
,,,绿,blue,f,diamond,color_mix,颜色,,incompatible,2,block_switch1,instruction/ready_test.png,instruction/i11.png,,,,,,,,,,,,,,,,,0,0,0,0,0,74,74,74,,,,,,,,,,,,,,,,,,,,,,,,,,,618.4638760000234,618.6643092000159,618.6478158999234,618.9479312999174,618.9479312999174,None,619.4486942000221,None,f,1,0.7641364999581128,619.4486942000221,None,None,None,,,,,,,,,,,,,,,,,,,,,,,11009,2,1,2024_Jun_04_1613,stroop_task_switching2,2021.2.3,59.84042949387417,
,,,红,red,d,square,color_mix,单词,,compatible,2,block_switch1,instruction/ready_test.png,instruction/i11.png,,,,,,,,,,,,,,,,,0,0,0,0,0,75,75,75,,,,,,,,,,,,,,,,,,,,,,,,,,,620.2332968999399,620.4337221999886,620.4169996000128,620.7188464999199,620.7188464999199,None,621.2182172000175,None,d,1,0.9467825999017805,621.2182172000175,None,None,None,,,,,,,,,,,,,,,,,,,,,,,11009,2,1,2024_Jun_04_1613,stroop_task_switching2,2021.2.3,59.84042949387417,
,,,绿,green,k,diamond,color_mix,颜色,,compatible,2,block_switch1,instruction/ready_test.png,instruction/i11.png,,,,,,,,,,,,,,,,,0,0,0,0,0,76,76,76,,,,,,,,,,,,,,,,,,,,,,,,,,,622.186316999956,622.3866662000073,622.3708182999399,622.6701864999486,622.6701864999486,None,623.171125599998,None,k,1,0.7618539000395685,623.171125599998,None,None,None,,,,,,,,,,,,,,,,,,,,,,,11009,2,1,2024_Jun_04_1613,stroop_task_switching2,2021.2.3,59.84042949387417,
,,,黄,red,j,square,color_mix,单词,,incompatible,2,block_switch1,instruction/ready_test.png,instruction/i11.png,,,,,,,,,,,,,,,,,0,0,0,0,0,77,77,77,,,,,,,,,,,,,,,,,,,,,,,,,,,623.9553950999398,624.1567212999798,624.1390593999531,624.4407621999271,624.4407621999271,None,624.9405709999846,None,j,1,1.5365453999256715,624.9405709999846,None,None,None,,,,,,,,,,,,,,,,,,,,,,,11009,2,1,2024_Jun_04_1613,stroop_task_switching2,2021.2.3,59.84042949387417,
,,,红,red,d,square,color_mix,单词,,compatible,1,block_switch1,instruction/ready_test.png,instruction/i11.png,,,,,,,,,,,,,,,,,0,0,0,0,0,78,78,78,,,,,,,,,,,,,,,,,,,,,,,,,,,626.4928137999959,626.6940532999579,626.6764724999666,626.9790784999495,626.9790784999495,None,627.4946815000148,None,d,1,1.030306600034237,627.4946815000148,None,None,None,,,,,,,,,,,,,,,,,,,,,,,11009,2,1,2024_Jun_04_1613,stroop_task_switching2,2021.2.3,59.84042949387417,
,,,黄,yellow,j,square,color_mix,单词,,compatible,1,block_switch1,instruction/ready_test.png,instruction/i11.png,,,,,,,,,,,,,,,,,0,0,0,0,0,79,79,79,,,,,,,,,,,,,,,,,,,,,,,,,,,628.5456395000219,628.7461590999737,628.7307186999824,629.0299166999757,629.0299166999757,None,629.5306098000146,None,j,1,1.666727100033313,629.5306098000146,None,None,None,,,,,,,,,,,,,,,,,,,,,,,11009,2,1,2024_Jun_04_1613,stroop_task_switching2,2021.2.3,59.84042949387417,
,,,红,red,d,diamond,color_mix,颜色,,compatible,2,block_switch1,instruction/ready_test.png,instruction/i11.png,,,,,,,,,,,,,,,,,0,0,0,0,0,80,80,80,,,,,,,,,,,,,,,,,,,,,,,,,,,631.2165431999601,631.4168358999304,631.400765899918,631.7011477999622,631.7011477999622,None,632.2014641999267,None,d,1,1.091561199980788,632.2014641999267,None,None,None,,,,,,,,,,,,,,,,,,,,,,,11009,2,1,2024_Jun_04_1613,stroop_task_switching2,2021.2.3,59.84042949387417,
,,,红,red,d,square,color_mix,单词,,compatible,2,block_switch1,instruction/ready_test.png,instruction/i11.png,,,,,,,,,,,,,,,,,0,0,0,0,0,81,81,81,,,,,,,,,,,,,,,,,,,,,,,,,,,633.319554299931,633.5198796999175,633.5041259999853,633.804801799939,633.804801799939,None,634.304497999954,None,d,1,1.0526381999952719,634.304497999954,None,None,None,,,,,,,,,,,,,,,,,,,,,,,11009,2,1,2024_Jun_04_1613,stroop_task_switching2,2021.2.3,59.84042949387417,
,,,黄,blue,f,diamond,color_mix,颜色,,incompatible,2,block_switch1,instruction/ready_test.png,instruction/i11.png,,,,,,,,,,,,,,,,,0,0,0,0,0,82,82,82,,,,,,,,,,,,,,,,,,,,,,,,,,,635.3726895999862,635.5740085999714,635.5566036999226,635.8575840999838,635.8575840999838,None,636.3575778999366,None,f,1,1.295804399996996,636.3575778999366,None,None,None,,,,,,,,,,,,,,,,,,,,,,,11009,2,1,2024_Jun_04_1613,stroop_task_switching2,2021.2.3,59.84042949387417,
,,,红,yellow,j,diamond,color_mix,颜色,,incompatible,1,block_switch1,instruction/ready_test.png,instruction/i11.png,,,,,,,,,,,,,,,,,0,0,0,0,0,83,83,83,,,,,,,,,,,,,,,,,,,,,,,,,,,637.67630739999,637.8763515999308,637.8601176999509,638.1612375000259,638.1612375000259,None,638.6610141999554,None,j,1,0.9361561000114307,638.6610141999554,None,None,None,,,,,,,,,,,,,,,,,,,,,,,11009,2,1,2024_Jun_04_1613,stroop_task_switching2,2021.2.3,59.84042949387417,
,,,黄,red,d,diamond,color_mix,颜色,,incompatible,1,block_switch1,instruction/ready_test.png,instruction/i11.png,,,,,,,,,,,,,,,,,0,0,0,0,0,84,84,84,,,,,,,,,,,,,,,,,,,,,,,,,,,639.6124761999818,639.8133369999705,639.7961264000041,640.0972827000078,640.0972827000078,None,640.5976888999576,None,d,1,0.8319941000081599,640.5976888999576,None,None,None,,,,,,,,,,,,,,,,,,,,,,,11009,2,1,2024_Jun_04_1613,stroop_task_switching2,2021.2.3,59.84042949387417,
,,,蓝,blue,f,square,color_mix,单词,,compatible,2,block_switch1,instruction/ready_test.png,instruction/i11.png,,,,,,,,,,,,,,,,,0,0,0,0,0,85,85,85,,,,,,,,,,,,,,,,,,,,,,,,,,,641.4487316999584,641.6488884999417,641.6322695999406,641.9337228999939,641.9337228999939,None,642.4335250000004,None,f,1,1.3558005000231788,642.4335250000004,None,None,None,,,,,,,,,,,,,,,,,,,,,,,11009,2,1,2024_Jun_04_1613,stroop_task_switching2,2021.2.3,59.84042949387417,
,,,绿,green,k,square,color_mix,单词,,compatible,1,block_switch1,instruction/ready_test.png,instruction/i11.png,,,,,,,,,,,,,,,,,0,0,0,0,0,86,86,86,,,,,,,,,,,,,,,,,,,,,,,,,,,643.8189223000081,644.0198247999651,644.0025086000096,644.3043842000188,644.3043842000188,None,644.8037663999712,None,k,1,1.01799469999969,644.8037663999712,None,None,None,,,,,,,,,,,,,,,,,,,,,,,11009,2,1,2024_Jun_04_1613,stroop_task_switching2,2021.2.3,59.84042949387417,
,,,红,red,d,square,color_mix,单词,,compatible,1,block_switch1,instruction/ready_test.png,instruction/i11.png,,,,,,,,,,,,,,,,,0,0,0,0,0,87,87,87,,,,,,,,,,,,,,,,,,,,,,,,,,,645.8385147999506,646.038884599926,646.0240972000174,646.3225374999456,646.3225374999456,None,646.823425999959,None,d,1,1.2304083000635728,646.823425999959,None,None,None,,,,,,,,,,,,,,,,,,,,,,,11009,2,1,2024_Jun_04_1613,stroop_task_switching2,2021.2.3,59.84042949387417,
,,,黄,green,k,diamond,color_mix,颜色,,incompatible,2,block_switch1,instruction/ready_test.png,instruction/i11.png,,,,,,,,,,,,,,,,,0,0,0,0,0,88,88,88,,,,,,,,,,,,,,,,,,,,,,,,,,,648.0752637999831,648.2756484999554,648.2593331999378,648.56053170003,648.56053170003,None,649.0602030999726,None,k,1,0.857620200025849,649.0602030999726,None,None,None,,,,,,,,,,,,,,,,,,,,,,,11009,2,1,2024_Jun_04_1613,stroop_task_switching2,2021.2.3,59.84042949387417,
,,,绿,red,k,square,color_mix,单词,,incompatible,2,block_switch1,instruction/ready_test.png,instruction/i11.png,,,,,,,,,,,,,,,,,0,0,0,0,0,89,89,89,,,,,,,,,,,,,,,,,,,,,,,,,,,649.9449487000238,650.1461716999765,650.1284740000265,650.4289219999919,650.4289219999919,None,650.9294002000242,None,k,1,2.1322005999973044,650.9294002000242,None,None,None,,,,,,,,,,,,,,,,,,,,,,,11009,2,1,2024_Jun_04_1613,stroop_task_switching2,2021.2.3,59.84042949387417,
,,,黄,green,j,square,color_mix,单词,,incompatible,1,block_switch1,instruction/ready_test.png,instruction/i11.png,,,,,,,,,,,,,,,,,0,0,0,0,0,90,90,90,,,,,,,,,,,,,,,,,,,,,,,,,,,653.0828265999444,653.2838912999723,653.2665379999671,653.5671118999599,653.5671118999599,None,654.0676210999954,None,j,1,1.3304008999839425,654.0676210999954,None,None,None,,,,,,,,,,,,,,,,,,,,,,,11009,2,1,2024_Jun_04_1613,stroop_task_switching2,2021.2.3,59.84042949387417,
,,,蓝,blue,f,square,color_mix,单词,,compatible,1,block_switch1,instruction/ready_test.png,instruction/i11.png,,,,,,,,,,,,,,,,,0,0,0,0,0,91,91,91,,,,,,,,,,,,,,,,,,,,,,,,,,,655.4198384999763,655.6208608000306,655.6039522999199,655.904933199985,655.904933199985,None,656.4044084999477,None,f,1,0.9214412000728771,656.4044084999477,None,None,None,,,,,,,,,,,,,,,,,,,,,,,11009,2,1,2024_Jun_04_1613,stroop_task_switching2,2021.2.3,59.84042949387417,
,,,蓝,red,f,square,color_mix,单词,,incompatible,1,block_switch1,instruction/ready_test.png,instruction/i11.png,,,,,,,,,,,,,,,,,0,0,0,0,0,92,92,92,,,,,,,,,,,,,,,,,,,,,,,,,,,657.356115099974,657.5560876999516,657.5396844999632,657.8403109000064,657.8403109000064,None,658.3408551999601,None,f,1,0.8011709999991581,658.3408551999601,None,None,None,,,,,,,,,,,,,,,,,,,,,,,11009,2,1,2024_Jun_04_1613,stroop_task_switching2,2021.2.3,59.84042949387417,
,,,黄,blue,j,square,color_mix,单词,,incompatible,1,block_switch1,instruction/ready_test.png,instruction/i11.png,,,,,,,,,,,,,,,,,0,0,0,0,0,93,93,93,,,,,,,,,,,,,,,,,,,,,,,,,,,659.1585219999542,659.3588968999684,659.3432860999601,659.6433416999644,659.6433416999644,None,660.1435378999449,None,j,1,0.742618199903518,660.1435378999449,None,None,None,,,,,,,,,,,,,,,,,,,,,,,11009,2,1,2024_Jun_04_1613,stroop_task_switching2,2021.2.3,59.84042949387417,
,,,绿,red,d,diamond,color_mix,颜色,,incompatible,2,block_switch1,instruction/ready_test.png,instruction/i11.png,,,,,,,,,,,,,,,,,0,0,0,0,0,94,94,94,,,,,,,,,,,,,,,,,,,,,,,,,,,660.9113205999602,661.1122817000141,661.0950416999403,661.3958594999276,661.3958594999276,None,661.8962096999167,None,d,1,0.694107300019823,661.8962096999167,None,None,None,,,,,,,,,,,,,,,,,,,,,,,11009,2,1,2024_Jun_04_1613,stroop_task_switching2,2021.2.3,59.84042949387417,
,,,蓝,blue,f,diamond,color_mix,颜色,,compatible,1,block_switch1,instruction/ready_test.png,instruction/i11.png,,,,,,,,,,,,,,,,,0,0,0,0,0,95,95,95,,,,,,,,,,,,,,,,,,,,,,,,,,,662.6141829999397,662.8149000999983,662.7975269999588,663.1000940999947,663.1000940999947,None,663.5986724999966,None,f,1,1.015301699982956,663.5986724999966,None,None,None,,,,,,,,,,,,,,,,,,,,,,,11009,2,1,2024_Jun_04_1613,stroop_task_switching2,2021.2.3,59.84042949387417,
,,,绿,green,k,square,color_mix,单词,,compatible,2,block_switch1,instruction/ready_test.png,instruction/i11.png,,,,,,,,,,,,,,,,,0,0,0,0,0,96,96,96,,,,,,,,,,,,,,,,,,,,,,,,,,,664.6336187999696,664.83395869995,664.8172144999262,665.117942999932,665.117942999932,None,665.6184314999264,None,k,1,0.9646122999256477,665.6184314999264,None,None,None,,,,,,,,,,,,,,,,,,,,,,,11009,2,1,2024_Jun_04_1613,stroop_task_switching2,2021.2.3,59.84042949387417,
,,,,,,,,,,,,block_switch1,instruction/ready_test.png,instruction/i11.png,,,,,,,,,,,,,,,,,0,0,0,0,,,,,,,,,,,,,,,,,,,,,,,,,,,,,,,,,,,,,,,,,,,,,,,,,,,,,,,,,,,,666.603284599958,None,space,9.787173200049438,666.603284599958,None,,,11009,2,1,2024_Jun_04_1613,stroop_task_switching2,2021.2.3,59.84042949387417,
,,,蓝,blue,f,square,color_mix,单词,,compatible,0,block_switch2,instruction/ready_2.png,instruction/i12.png,,,,,,,,,,,,,,,,,0,1,1,1,0,0,0,0,,,,,,,,,,,,,,,,,,,680.0411533999722,681.0421186999884,681.0421186999884,682.0437779999338,682.0437779999338,None,679.0552352999803,680.0581414999906,683.0615760999499,683.2636284999317,683.2450807000278,683.5451979999198,683.5451979999198,None,684.0459152000258,None,f,1,0.8328048000112176,684.0459152000258,None,None,None,,,,,,,,,676.4348957999609,None,space,2.5956913999980316,676.4348957999609,None,,,,,,,,,11009,2,1,2024_Jun_04_1613,stroop_task_switching2,2021.2.3,59.84042949387417,
,,,黄,red,d,diamond,color_mix,颜色,,incompatible,2,block_switch2,instruction/ready_2.png,instruction/i12.png,,,,,,,,,,,,,,,,,0,1,1,1,0,1,1,1,,,,,,,,,,,,,,,,,,,,,,,,,,,684.8975990000181,685.0983494999819,685.0810659999261,685.3833452999825,685.3833452999825,None,685.8828948999289,None,d,1,0.8758943999418989,685.8828948999289,None,None,None,,,,,,,,,,,,,,,,,,,,,,,11009,2,1,2024_Jun_04_1613,stroop_task_switching2,2021.2.3,59.84042949387417,
,,,蓝,green,k,diamond,color_mix,颜色,,incompatible,1,block_switch2,instruction/ready_2.png,instruction/i12.png,,,,,,,,,,,,,,,,,0,1,1,1,0,2,2,2,,,,,,,,,,,,,,,,,,,,,,,,,,,686.783582199947,686.9846299999626,686.9673099999782,687.2682198999682,687.2682198999682,None,687.7685350999236,None,k,1,0.6860249999444932,687.7685350999236,None,None,None,,,,,,,,,,,,,,,,,,,,,,,11009,2,1,2024_Jun_04_1613,stroop_task_switching2,2021.2.3,59.84042949387417,
,,,红,yellow,j,diamond,color_mix,颜色,,incompatible,1,block_switch2,instruction/ready_2.png,instruction/i12.png,,,,,,,,,,,,,,,,,0,1,1,1,0,3,3,3,,,,,,,,,,,,,,,,,,,,,,,,,,,688.4861888999585,688.6874317999464,688.6698043999495,688.9704631000059,688.9704631000059,None,689.471074800007,None,j,1,0.8557806999888271,689.471074800007,None,None,None,,,,,,,,,,,,,,,,,,,,,,,11009,2,1,2024_Jun_04_1613,stroop_task_switching2,2021.2.3,59.84042949387417,
,,,红,red,d,diamond,color_mix,颜色,,compatible,1,block_switch2,instruction/ready_2.png,instruction/i12.png,,,,,,,,,,,,,,,,,0,1,1,1,0,4,4,4,,,,,,,,,,,,,,,,,,,,,,,,,,,690.3557354999939,690.5559160999255,690.5394711999688,690.8397804999258,690.8397804999258,None,691.3405410000123,None,d,1,0.9382173999911174,691.3405410000123,None,None,None,,,,,,,,,,,,,,,,,,,,,,,11009,2,1,2024_Jun_04_1613,stroop_task_switching2,2021.2.3,59.84042949387417,
,,,绿,green,k,square,color_mix,单词,,compatible,2,block_switch2,instruction/ready_2.png,instruction/i12.png,,,,,,,,,,,,,,,,,0,1,1,1,0,5,5,5,,,,,,,,,,,,,,,,,,,,,,,,,,,692.3086758999852,692.5096880999627,692.4923849999905,692.7929055999266,692.7929055999266,None,693.2933667999459,None,f,0,1.1854474000865594,693.2933667999459,None,None,None,,,,,,,,,,,,,,,,,,,,,,,11009,2,1,2024_Jun_04_1613,stroop_task_switching2,2021.2.3,59.84042949387417,
,,,黄,blue,f,diamond,color_mix,颜色,,incompatible,2,block_switch2,instruction/ready_2.png,instruction/i12.png,,,,,,,,,,,,,,,,,0,1,1,1,0,6,6,6,,,,,,,,,,,,,,,,,,,,,,,,,,,694.4952480000211,694.6964677999495,694.67891649995,694.9802609999897,694.9802609999897,None,695.4799766999204,None,f,1,1.7989421000238508,695.4799766999204,None,None,None,,,,,,,,,,,,,,,,,,,,,,,11009,2,1,2024_Jun_04_1613,stroop_task_switching2,2021.2.3,59.84042949387417,
,,,绿,yellow,k,square,color_mix,单词,,incompatible,2,block_switch2,instruction/ready_2.png,instruction/i12.png,,,,,,,,,,,,,,,,,0,1,1,1,0,7,7,7,,,,,,,,,,,,,,,,,,,,,,,,,,,697.2992874999763,697.5010304999305,697.4830661999295,697.7843392000068,697.7843392000068,None,698.2844102999661,None,k,1,1.3705143999541178,698.2844102999661,None,None,None,,,,,,,,,,,,,,,,,,,,,,,11009,2,1,2024_Jun_04_1613,stroop_task_switching2,2021.2.3,59.84042949387417,
,,,红,green,d,square,color_mix,单词,,incompatible,1,block_switch2,instruction/ready_2.png,instruction/i12.png,,,,,,,,,,,,,,,,,0,1,1,1,0,8,8,8,,,,,,,,,,,,,,,,,,,,,,,,,,,699.6701017000014,699.8710044999607,699.8533919999609,700.1537531999638,700.1537531999638,None,700.6545482999645,None,d,1,1.5048772000009194,700.6545482999645,None,None,None,,,,,,,,,,,,,,,,,,,,,,,11009,2,1,2024_Jun_04_1613,stroop_task_switching2,2021.2.3,59.84042949387417,
,,,黄,yellow,j,square,color_mix,单词,,compatible,1,block_switch2,instruction/ready_2.png,instruction/i12.png,,,,,,,,,,,,,,,,,0,1,1,1,0,9,9,9,,,,,,,,,,,,,,,,,,,,,,,,,,,702.1735565999988,702.3751616999507,702.3572261999361,702.6587661999511,702.6587661999511,None,703.1584278999362,None,j,1,1.1607903999974951,703.1584278999362,None,None,None,,,,,,,,,,,,,,,,,,,,,,,11009,2,1,2024_Jun_04_1613,stroop_task_switching2,2021.2.3,59.84042949387417,
