b_pra,ins_blocks,ins_blocks2,stim_word,stim_color,corrAns,cue_type,trial_type,task_type,rand,compatibility,switch,b_test,w_pic,w_pic2,trials_instr.thisRepN,trials_instr.thisTrialN,trials_instr.thisN,trials_instr.thisIndex,block_pra.thisRepN,block_pra.thisTrialN,block_pra.thisN,block_pra.thisIndex,trials_rep.thisRepN,trials_rep.thisTrialN,trials_rep.thisN,trials_rep.thisIndex,trials_pra.thisRepN,trials_pra.thisTrialN,trials_pra.thisN,trials_pra.thisIndex,trials_3.thisRepN,trials_3.thisTrialN,trials_3.thisN,trials_3.thisIndex,trials_2.thisRepN,trials_2.thisTrialN,trials_2.thisN,trials_2.thisIndex,instr_image.started,instr_image.stopped,instr_key_resp.keys,instr_key_resp.rt,instr_key_resp.started,instr_key_resp.stopped,instr_pra_image.started,instr_pra_image.stopped,ip_key_resp.keys,ip_key_resp.rt,ip_key_resp.started,ip_key_resp.stopped,block_image.started,block_image.stopped,ib_key_resp.keys,ib_key_resp.rt,ib_key_resp.started,ib_key_resp.stopped,cd3.started,cd3.stopped,cd2.started,cd2.stopped,cd1.started,cd1.stopped,cd_text.started,cd_text.stopped,text_fix.started,text_fix.stopped,text_2.started,text_2.stopped,text_4.started,text_4.stopped,text_target.started,text_target.stopped,key_resp.keys,key_resp.corr,key_resp.rt,key_resp.started,key_resp.stopped,sceen_black.started,sceen_black.stopped,text_fb.started,text_fb.stopped,text.started,text.stopped,key_bf.keys,key_bf.rt,key_bf.started,key_bf.stopped,instr_test_image.started,instr_test_image.stopped,instr_exp_key_resp.keys,instr_exp_key_resp.rt,instr_exp_key_resp.started,instr_exp_key_resp.stopped,text_rest.started,text_rest.stopped,key_resp_rest.keys,key_resp_rest.rt,key_resp_rest.started,key_resp_rest.stopped,text_3.started,text_3.stopped,participant,session,balance,date,expName,psychopyVersion,frameRate,
,,,,,,,,,,,,,,,0,0,0,0,,,,,,,,,,,,,,,,,,,,,11.283121400047094,None,right,1.2817788999527693,11.283121400047094,None,,,,,,,,,,,,,,,,,,,,,,,,,,,,,,,,,,,,,,,,,,,,,,,,,,,,,,,,,,11006,2,1,2024_Jun_06_1454,stroop_task_switching2,2021.2.3,59.99977202706977,
,,,,,,,,,,,,,,,1,0,1,0,,,,,,,,,,,,,,,,,,,,,12.60244209994562,None,right,55.74008620006498,12.60244209994562,None,,,,,,,,,,,,,,,,,,,,,,,,,,,,,,,,,,,,,,,,,,,,,,,,,,,,,,,,,,11006,2,1,2024_Jun_06_1454,stroop_task_switching2,2021.2.3,59.99977202706977,
,,,,,,,,,,,,,,,2,0,2,0,,,,,,,,,,,,,,,,,,,,,68.3865330000408,None,right,1.9638653999427333,68.3865330000408,None,,,,,,,,,,,,,,,,,,,,,,,,,,,,,,,,,,,,,,,,,,,,,,,,,,,,,,,,,,11006,2,1,2024_Jun_06_1454,stroop_task_switching2,2021.2.3,59.99977202706977,
,,,,,,,,,,,,,,,3,0,3,0,,,,,,,,,,,,,,,,,,,,,70.38958810002077,None,right,0.16872919991146773,70.38958810002077,None,,,,,,,,,,,,,,,,,,,,,,,,,,,,,,,,,,,,,,,,,,,,,,,,,,,,,,,,,,11006,2,1,2024_Jun_06_1454,stroop_task_switching2,2021.2.3,59.99977202706977,
,,,,,,,,,,,,,,,4,0,4,0,,,,,,,,,,,,,,,,,,,,,70.58990410005208,None,right,0.5932286999886855,70.58990410005208,None,,,,,,,,,,,,,,,,,,,,,,,,,,,,,,,,,,,,,,,,,,,,,,,,,,,,,,,,,,11006,2,1,2024_Jun_06_1454,stroop_task_switching2,2021.2.3,59.99977202706977,
,,,,,,,,,,,,,,,5,0,5,0,,,,,,,,,,,,,,,,,,,,,71.22445780003909,None,right,0.7663063999498263,71.22445780003909,None,,,,,,,,,,,,,,,,,,,,,,,,,,,,,,,,,,,,,,,,,,,,,,,,,,,,,,,,,,11006,2,1,2024_Jun_06_1454,stroop_task_switching2,2021.2.3,59.99977202706977,
,,,,,,,,,,,,,,,,,,,,,,,,,,,,,,,,,,,,,,,,,,,,,72.02727029996458,None,space,0.93006200005766,72.02727029996458,None,,,,,,,,,,,,,,,,,,,,,,,,,,,,,,,,,,,,,,,,,,,,,,,,,,,,11006,2,1,2024_Jun_06_1454,stroop_task_switching2,2021.2.3,59.99977202706977,
condition/block_color,instruction/instr_color,instruction/i8,XX,red,d,diamond,color_single,颜色,,,,,,,,,,,0,0,0,0,0,0,0,0,0,0,0,0,,,,,,,,,,,,,,,,,,,,,72.99356430000626,None,space,4.61239799996838,72.99356430000626,None,78.68566119996831,79.68826109997462,79.68826109997462,80.68899980001152,80.67179860000033,None,77.70050939999055,78.70272159995511,81.65651240001898,81.85722789994907,81.85722789994907,82.15903460001573,82.15903460001573,None,82.6414524000138,None,d,1,0.5011739999754354,82.6414524000138,None,None,None,83.22553759999573,None,,,,,,,,,,,,,,,,,,,,,11006,2,1,2024_Jun_06_1454,stroop_task_switching2,2021.2.3,59.99977202706977,
condition/block_color,instruction/instr_color,instruction/i8,XX,green,k,diamond,color_single,颜色,,,,,,,,,,,0,0,0,0,0,0,0,0,0,1,1,1,,,,,,,,,,,,,,,,,,,,,,,,,,,,,,,,,,,84.1774688999867,84.37946960004047,84.36110630002804,84.66246300004423,84.66246300004423,None,85.16211220005061,None,k,1,1.092700200038962,85.16211220005061,None,None,None,86.2804173999466,None,,,,,,,,,,,,,,,,,,,,,11006,2,1,2024_Jun_06_1454,stroop_task_switching2,2021.2.3,59.99977202706977,
condition/block_color,instruction/instr_color,instruction/i8,XX,yellow,j,diamond,color_single,颜色,,,,,,,,,,,0,0,0,0,0,0,0,0,0,2,2,2,,,,,,,,,,,,,,,,,,,,,,,,,,,,,,,,,,,87.28177040000446,87.48385670001153,87.46570489997976,87.76593520003371,87.76593520003371,None,88.2668053000234,None,j,1,0.40395369997713715,88.2668053000234,None,None,None,88.71747959998902,None,,,,,,,,,,,,,,,,,,,,,11006,2,1,2024_Jun_06_1454,stroop_task_switching2,2021.2.3,59.99977202706977,
condition/block_color,instruction/instr_color,instruction/i8,XX,blue,f,diamond,color_single,颜色,,,,,,,,,,,0,0,0,0,0,0,0,0,0,3,3,3,,,,,,,,,,,,,,,,,,,,,,,,,,,,,,,,,,,89.71889160003047,89.920144099975,89.88570570002776,90.18664800003171,90.20429250004236,None,90.70351609995123,None,f,1,0.5993841999443248,90.70351609995123,None,None,None,91.32149180001579,None,,,,,,,,,,,,,,,,,,,,,11006,2,1,2024_Jun_06_1454,stroop_task_switching2,2021.2.3,59.99977202706977,
condition/block_color,instruction/instr_color,instruction/i8,XX,green,k,diamond,color_single,颜色,,,,,,,,,,,0,0,0,0,0,0,0,0,0,4,4,4,,,,,,,,,,,,,,,,,,,,,,,,,,,,,,,,,,,92.3231964999577,92.52334870002232,92.5065123999957,92.80731579998974,92.80731579998974,None,93.30782069999259,None,k,1,0.6673489999957383,93.30782069999259,None,None,None,93.99193090002518,None,,,,,,,,,,,,,,,,,,,,,11006,2,1,2024_Jun_06_1454,stroop_task_switching2,2021.2.3,59.99977202706977,
condition/block_color,instruction/instr_color,instruction/i8,XX,yellow,j,diamond,color_single,颜色,,,,,,,,,,,0,0,0,0,0,0,0,0,0,5,5,5,,,,,,,,,,,,,,,,,,,,,,,,,,,,,,,,,,,94.99362149997614,95.19589980004821,95.1771591999568,95.4783313999651,95.4783313999651,None,95.97826869995333,None,j,1,0.6128305000020191,95.97826869995333,None,None,None,96.61271410004701,None,,,,,,,,,,,,,,,,,,,,,11006,2,1,2024_Jun_06_1454,stroop_task_switching2,2021.2.3,59.99977202706977,
condition/block_color,instruction/instr_color,instruction/i8,XX,blue,f,diamond,color_single,颜色,,,,,,,,,,,0,0,0,0,0,0,0,0,0,6,6,6,,,,,,,,,,,,,,,,,,,,,,,,,,,,,,,,,,,97.61408219998702,97.81503789999988,97.79778949997853,98.09807990002446,98.09807990002446,None,98.59882079996169,None,f,1,0.6402461000252515,98.59882079996169,None,None,None,99.26660760003142,None,,,,,,,,,,,,,,,,,,,,,11006,2,1,2024_Jun_06_1454,stroop_task_switching2,2021.2.3,59.99977202706977,
condition/block_color,instruction/instr_color,instruction/i8,XX,red,d,diamond,color_single,颜色,,,,,,,,,,,0,0,0,0,0,0,0,0,0,7,7,7,,,,,,,,,,,,,,,,,,,,,,,,,,,,,,,,,,,100.26894930005074,100.46832490002271,100.45172060001642,100.75221439998131,100.75221439998131,None,101.25322790001519,None,d,1,0.3858315000543371,101.25322790001519,None,None,None,101.68726060003974,None,,,,,,,,,,,,,,,,,,,,,11006,2,1,2024_Jun_06_1454,stroop_task_switching2,2021.2.3,59.99977202706977,
condition/block_color,instruction/instr_color,instruction/i8,XX,yellow,j,diamond,color_single,颜色,,,,,,,,,,,0,0,0,0,0,0,0,0,0,8,8,8,,,,,,,,,,,,,,,,,,,,,,,,,,,,,,,,,,,102.68843029998243,102.8907879999606,102.85541690001264,103.15573770005722,103.17237060004845,None,103.67321110004559,None,k,0,0.6781923999078572,103.67321110004559,None,None,None,104.37357739999425,None,,,,,,,,,,,,,,,,,,,,,11006,2,1,2024_Jun_06_1454,stroop_task_switching2,2021.2.3,59.99977202706977,
condition/block_color,instruction/instr_color,instruction/i8,XX,blue,f,diamond,color_single,颜色,,,,,,,,,,,0,0,0,0,0,0,0,0,0,9,9,9,,,,,,,,,,,,,,,,,,,,,,,,,,,,,,,,,,,105.37564260000363,105.577814499964,105.55934180004988,105.860590999946,105.860590999946,None,106.36067349999212,None,f,1,0.5508475999813527,106.36067349999212,None,None,None,106.92798499995843,None,,,,,,,,,,,,,,,,,,,,,11006,2,1,2024_Jun_06_1454,stroop_task_switching2,2021.2.3,59.99977202706977,
condition/block_color,instruction/instr_color,instruction/i8,XX,red,d,diamond,color_single,颜色,,,,,,,,,,,0,0,0,0,0,0,0,0,0,10,10,10,,,,,,,,,,,,,,,,,,,,,,,,,,,,,,,,,,,107.92966959998012,108.13189690001309,108.11329480004497,108.41373170004226,108.41373170004226,None,108.91438169998582,None,d,1,0.4849626000504941,108.91438169998582,None,None,None,109.414914199966,None,,,,,,,,,,,,,,,,,,,,,11006,2,1,2024_Jun_06_1454,stroop_task_switching2,2021.2.3,59.99977202706977,
condition/block_color,instruction/instr_color,instruction/i8,XX,green,k,diamond,color_single,颜色,,,,,,,,,,,0,0,0,0,0,0,0,0,0,11,11,11,,,,,,,,,,,,,,,,,,,,,,,,,,,,,,,,,,,110.41682419995777,110.61719240003731,110.6007795999758,110.90081939997617,110.90081939997617,None,111.40171320002992,None,k,1,0.7815948000643402,111.40171320002992,None,None,None,112.20256230002269,None,,,,,,,,,,,,,,,,,,,,,11006,2,1,2024_Jun_06_1454,stroop_task_switching2,2021.2.3,59.99977202706977,
condition/block_color,instruction/instr_color,instruction/i8,XX,blue,f,diamond,color_single,颜色,,,,,,,,,,,0,0,0,0,0,0,0,0,0,12,12,12,,,,,,,,,,,,,,,,,,,,,,,,,,,,,,,,,,,113.2047198000364,113.40508179995231,113.3878789000446,113.68849149998277,113.68849149998277,None,114.18898400000762,None,f,1,0.6185659000184387,114.18898400000762,None,None,None,114.82346890005283,None,,,,,,,,,,,,,,,,,,,,,11006,2,1,2024_Jun_06_1454,stroop_task_switching2,2021.2.3,59.99977202706977,
condition/block_color,instruction/instr_color,instruction/i8,XX,red,d,diamond,color_single,颜色,,,,,,,,,,,0,0,0,0,0,0,0,0,0,13,13,13,,,,,,,,,,,,,,,,,,,,,,,,,,,,,,,,,,,115.82467879995238,116.02525069995318,116.00915209995583,116.30969000002369,116.30969000002369,None,116.8099063000409,None,d,1,0.5418744999915361,116.8099063000409,None,None,None,117.37708779994864,None,,,,,,,,,,,,,,,,,,,,,11006,2,1,2024_Jun_06_1454,stroop_task_switching2,2021.2.3,59.99977202706977,
condition/block_color,instruction/instr_color,instruction/i8,XX,green,k,diamond,color_single,颜色,,,,,,,,,,,0,0,0,0,0,0,0,0,0,14,14,14,,,,,,,,,,,,,,,,,,,,,,,,,,,,,,,,,,,118.37874339998234,118.58051869994961,118.56245900003705,118.86405340000056,118.86405340000056,None,119.36354659998324,None,k,1,0.6442053000209853,119.36354659998324,None,None,None,120.03125600004569,None,,,,,,,,,,,,,,,,,,,,,11006,2,1,2024_Jun_06_1454,stroop_task_switching2,2021.2.3,59.99977202706977,
condition/block_color,instruction/instr_color,instruction/i8,XX,yellow,j,diamond,color_single,颜色,,,,,,,,,,,0,0,0,0,0,0,0,0,0,15,15,15,,,,,,,,,,,,,,,,,,,,,,,,,,,,,,,,,,,121.03291379997972,121.23322819999885,121.21782959997654,121.51682030002121,121.51682030002121,None,122.01748140004929,None,j,1,0.454211900010705,122.01748140004929,None,None,None,122.50136560003739,None,,,,,,,,,,,,,,,,,,,,,11006,2,1,2024_Jun_06_1454,stroop_task_switching2,2021.2.3,59.99977202706977,
condition/block_color,instruction/instr_color,instruction/i8,XX,red,d,diamond,color_single,颜色,,,,,,,,,,,0,0,0,0,0,0,0,0,0,16,16,16,,,,,,,,,,,,,,,,,,,,,,,,,,,,,,,,,,,123.50313490000553,123.70348400005605,123.68707350001205,123.98821630002931,123.98821630002931,None,124.48886359995231,None,d,1,0.4467774999793619,124.48886359995231,None,None,None,124.95529489999171,None,,,,,,,,,,,,,,,,,,,,,11006,2,1,2024_Jun_06_1454,stroop_task_switching2,2021.2.3,59.99977202706977,
condition/block_color,instruction/instr_color,instruction/i8,XX,green,k,diamond,color_single,颜色,,,,,,,,,,,0,0,0,0,0,0,0,0,0,17,17,17,,,,,,,,,,,,,,,,,,,,,,,,,,,,,,,,,,,125.95694209996145,126.15930389997084,126.14034210005775,126.4409747000318,126.4409747000318,None,126.94197100005113,None,k,1,0.5858823000453413,126.94197100005113,None,None,None,127.55878980003763,None,,,,,,,,,,,,,,,,,,,,,11006,2,1,2024_Jun_06_1454,stroop_task_switching2,2021.2.3,59.99977202706977,
condition/block_color,instruction/instr_color,instruction/i8,XX,yellow,j,diamond,color_single,颜色,,,,,,,,,,,0,0,0,0,0,0,0,0,0,18,18,18,,,,,,,,,,,,,,,,,,,,,,,,,,,,,,,,,,,128.56086470000446,128.7612522999989,128.74453989998437,129.04584250005428,129.04584250005428,None,129.5461596000241,None,j,1,0.6141085000708699,129.5461596000241,None,None,None,130.17989030003082,None,,,,,,,,,,,,,,,,,,,,,11006,2,1,2024_Jun_06_1454,stroop_task_switching2,2021.2.3,59.99977202706977,
condition/block_color,instruction/instr_color,instruction/i8,XX,blue,f,diamond,color_single,颜色,,,,,,,,,,,0,0,0,0,0,0,0,0,0,19,19,19,,,,,,,,,,,,,,,,,,,,,,,,,,,,,,,,,,,131.181484599947,131.38183239998762,131.36502669996116,131.66575849999208,131.66575849999208,None,132.16643169999588,None,f,1,0.6096734999446198,132.16643169999588,None,None,None,132.80045229999814,None,,,,,,,,,,,,,,,,,,,,,11006,2,1,2024_Jun_06_1454,stroop_task_switching2,2021.2.3,59.99977202706977,
condition/block_color,instruction/instr_color,instruction/i8,XX,green,k,diamond,color_single,颜色,,,,,,,,,,,0,0,0,0,0,0,0,0,0,20,20,20,,,,,,,,,,,,,,,,,,,,,,,,,,,,,,,,,,,133.80200420005713,134.00207160005812,133.98567920003552,134.2868702999549,134.2868702999549,None,134.7871239000233,None,k,1,0.6849634000100195,134.7871239000233,None,None,None,135.50397990003694,None,,,,,,,,,,,,,,,,,,,,,11006,2,1,2024_Jun_06_1454,stroop_task_switching2,2021.2.3,59.99977202706977,
condition/block_color,instruction/instr_color,instruction/i8,XX,yellow,j,diamond,color_single,颜色,,,,,,,,,,,0,0,0,0,0,0,0,0,0,21,21,21,,,,,,,,,,,,,,,,,,,,,,,,,,,,,,,,,,,136.50615240004845,136.7064887000015,136.69081419997383,136.99138010002207,136.99138010002207,None,137.4907368000131,None,j,1,0.6774649999570101,137.4907368000131,None,None,None,138.1919232000364,None,,,,,,,,,,,,,,,,,,,,,11006,2,1,2024_Jun_06_1454,stroop_task_switching2,2021.2.3,59.99977202706977,
condition/block_color,instruction/instr_color,instruction/i8,XX,blue,f,diamond,color_single,颜色,,,,,,,,,,,0,0,0,0,0,0,0,0,0,22,22,22,,,,,,,,,,,,,,,,,,,,,,,,,,,,,,,,,,,139.19346870004665,139.3936423000414,139.3770696000429,139.67749379994348,139.67749379994348,None,140.17832559999079,None,f,1,0.4698373000137508,140.17832559999079,None,None,None,140.69626780005638,None,,,,,,,,,,,,,,,,,,,,,11006,2,1,2024_Jun_06_1454,stroop_task_switching2,2021.2.3,59.99977202706977,
condition/block_color,instruction/instr_color,instruction/i8,XX,red,d,diamond,color_single,颜色,,,,,,,,,,,0,0,0,0,0,0,0,0,0,23,23,23,,,,,,,,,,,,,,,,,,,,,,,,,,,,,,,,,,,141.6973013000097,141.89785269997083,141.88077960000373,142.18192150001414,142.16493980004452,None,142.6655463000061,None,d,1,0.5588672000449151,142.6655463000061,None,None,None,143.24982010002714,None,,,,,,,,,,,,,,,,,,,,,11006,2,1,2024_Jun_06_1454,stroop_task_switching2,2021.2.3,59.99977202706977,
condition/block_color,instruction/instr_color,instruction/i8,,,,,,,,,,,,,,,,,0,0,0,0,0,0,0,0,,,,,,,,,,,,,,,,,,,,,,,,,,,,,,,,,,,,,,,,,,,,,,,,,,,,,,,,144.284669799963,None,space,3.5072126999730244,144.284669799963,None,,,,,,,,,,,,,,,11006,2,1,2024_Jun_06_1454,stroop_task_switching2,2021.2.3,59.99977202706977,
condition/block_color,instruction/instr_color,instruction/i8,,,,,,,,,,,,,,,,,0,0,0,0,,,,,,,,,,,,,,,,,,,,,,,,,,,,,,,,,,,,,,,,,,,,,,,,,,,,,,,,,,,,,,,,,,,,,,,,,,,,,,,,11006,2,1,2024_Jun_06_1454,stroop_task_switching2,2021.2.3,59.99977202706977,
condition/block_word,instruction/instr_word,instruction/i9,黄,white,j,square,word_single,单词,0.0032461461866890584,,,,,,,,,,0,1,1,1,0,0,0,0,0,0,0,0,,,,,,,,,,,,,,,,,,,,,147.83981749997474,None,space,8.227518899948336,147.83981749997474,None,157.08970420004334,158.08877020003274,158.08877020003274,159.09111619996838,159.09111619996838,None,156.10371579998173,157.1035687000258,160.1255726000527,160.32757850002963,160.30900390003808,160.60886809998192,160.60886809998192,None,161.09346250002272,None,j,1,0.9798986000241712,161.09346250002272,None,None,None,162.12841500004288,None,,,,,,,,,,,,,,,,,,,,,11006,2,1,2024_Jun_06_1454,stroop_task_switching2,2021.2.3,59.99977202706977,
condition/block_word,instruction/instr_word,instruction/i9,蓝,white,f,square,word_single,单词,0.060540570646362424,,,,,,,,,,0,1,1,1,0,0,0,0,0,1,1,1,,,,,,,,,,,,,,,,,,,,,,,,,,,,,,,,,,,163.11296289996244,163.31370920001063,163.29639230004977,163.59879109996837,163.58025210001506,None,164.08079389994964,None,f,1,0.5683589999098331,164.08079389994964,None,None,None,164.6651802000124,None,,,,,,,,,,,,,,,,,,,,,11006,2,1,2024_Jun_06_1454,stroop_task_switching2,2021.2.3,59.99977202706977,
condition/block_word,instruction/instr_word,instruction/i9,黄,white,j,square,word_single,单词,0.06994067193778963,,,,,,,,,,0,1,1,1,0,0,0,0,0,2,2,2,,,,,,,,,,,,,,,,,,,,,,,,,,,,,,,,,,,165.6667866000207,165.86710869998205,165.85070129996166,166.1509082999546,166.1509082999546,None,166.65140360000078,None,j,1,0.669501299969852,166.65140360000078,None,None,None,167.33633499999996,None,,,,,,,,,,,,,,,,,,,,,11006,2,1,2024_Jun_06_1454,stroop_task_switching2,2021.2.3,59.99977202706977,
condition/block_word,instruction/instr_word,instruction/i9,蓝,white,f,square,word_single,单词,0.08193765152950094,,,,,,,,,,0,1,1,1,0,0,0,0,0,3,3,3,,,,,,,,,,,,,,,,,,,,,,,,,,,,,,,,,,,168.3372784999665,168.53882999997586,168.52131330000702,168.8215962999966,168.8215962999966,None,169.3222610000521,None,f,1,0.7591783000389114,169.3222610000521,None,None,None,170.10671419999562,None,,,,,,,,,,,,,,,,,,,,,11006,2,1,2024_Jun_06_1454,stroop_task_switching2,2021.2.3,59.99977202706977,
condition/block_word,instruction/instr_word,instruction/i9,红,white,d,square,word_single,单词,0.1279694370605574,,,,,,,,,,0,1,1,1,0,0,0,0,0,4,4,4,,,,,,,,,,,,,,,,,,,,,,,,,,,,,,,,,,,171.10822179995012,171.30850180005655,171.2933783000335,171.60880869999528,171.59508490003645,None,172.109712400008,None,d,1,0.5316027000080794,172.109712400008,None,None,None,172.66069709998555,None,,,,,,,,,,,,,,,,,,,,,11006,2,1,2024_Jun_06_1454,stroop_task_switching2,2021.2.3,59.99977202706977,
condition/block_word,instruction/instr_word,instruction/i9,红,white,d,square,word_single,单词,0.18345028784879092,,,,,,,,,,0,1,1,1,0,0,0,0,0,5,5,5,,,,,,,,,,,,,,,,,,,,,,,,,,,,,,,,,,,173.662071299972,173.86347019998357,173.84560230001807,174.14633260003757,174.14633260003757,None,174.64697540004272,None,d,1,0.45086119999177754,174.64697540004272,None,None,None,175.1141643000301,None,,,,,,,,,,,,,,,,,,,,,11006,2,1,2024_Jun_06_1454,stroop_task_switching2,2021.2.3,59.99977202706977,
condition/block_word,instruction/instr_word,instruction/i9,蓝,white,f,square,word_single,单词,0.19920386223101294,,,,,,,,,,0,1,1,1,0,0,0,0,0,6,6,6,,,,,,,,,,,,,,,,,,,,,,,,,,,,,,,,,,,176.115846300032,176.31625200004783,176.29938470001798,176.60015820001718,176.60015820001718,None,177.10045699996408,None,f,1,0.7009955999674276,177.10045699996408,None,None,None,177.81849640002474,None,,,,,,,,,,,,,,,,,,,,,11006,2,1,2024_Jun_06_1454,stroop_task_switching2,2021.2.3,59.99977202706977,
condition/block_word,instruction/instr_word,instruction/i9,蓝,white,f,square,word_single,单词,0.26360599864925405,,,,,,,,,,0,1,1,1,0,0,0,0,0,7,7,7,,,,,,,,,,,,,,,,,,,,,,,,,,,,,,,,,,,178.82022949995007,179.02123740001116,179.00353440002073,179.30471199995372,179.30471199995372,None,179.8046553999884,None,f,1,0.613288399996236,179.8046553999884,None,None,None,180.43884920002893,None,,,,,,,,,,,,,,,,,,,,,11006,2,1,2024_Jun_06_1454,stroop_task_switching2,2021.2.3,59.99977202706977,
condition/block_word,instruction/instr_word,instruction/i9,蓝,white,f,square,word_single,单词,0.358985675745526,,,,,,,,,,0,1,1,1,0,0,0,0,0,8,8,8,,,,,,,,,,,,,,,,,,,,,,,,,,,,,,,,,,,181.44059350003954,181.64316680002958,181.62419660005253,181.9249963000184,181.9249963000184,None,182.42609399999492,None,f,1,0.6233486999990419,182.42609399999492,None,None,None,183.07625509996433,None,,,,,,,,,,,,,,,,,,,,,11006,2,1,2024_Jun_06_1454,stroop_task_switching2,2021.2.3,59.99977202706977,
condition/block_word,instruction/instr_word,instruction/i9,绿,white,k,square,word_single,单词,0.36496733802487347,,,,,,,,,,0,1,1,1,0,0,0,0,0,9,9,9,,,,,,,,,,,,,,,,,,,,,,,,,,,,,,,,,,,184.07767090003472,184.27918800001498,184.26128320000134,184.5623642000137,184.5623642000137,None,185.06271780002862,None,k,1,0.7466567999217659,185.06271780002862,None,None,None,185.83047869999427,None,,,,,,,,,,,,,,,,,,,,,11006,2,1,2024_Jun_06_1454,stroop_task_switching2,2021.2.3,59.99977202706977,
condition/block_word,instruction/instr_word,instruction/i9,黄,white,j,square,word_single,单词,0.3743513623756727,,,,,,,,,,0,1,1,1,0,0,0,0,0,10,10,10,,,,,,,,,,,,,,,,,,,,,,,,,,,,,,,,,,,186.83194629999343,187.03386490000412,187.01549300004262,187.31680739996955,187.31680739996955,None,187.8167861000402,None,j,1,0.8808055000845343,187.8167861000402,None,None,None,188.71805569995195,None,,,,,,,,,,,,,,,,,,,,,11006,2,1,2024_Jun_06_1454,stroop_task_switching2,2021.2.3,59.99977202706977,
condition/block_word,instruction/instr_word,instruction/i9,红,white,d,square,word_single,单词,0.3894803852598544,,,,,,,,,,0,1,1,1,0,0,0,0,0,11,11,11,,,,,,,,,,,,,,,,,,,,,,,,,,,,,,,,,,,189.7197571999859,189.91993340000045,189.90336500003468,190.20359759998973,190.20359759998973,None,190.70466449996457,None,d,1,0.4969965999480337,190.70466449996457,None,None,None,191.22171199996956,None,,,,,,,,,,,,,,,,,,,,,11006,2,1,2024_Jun_06_1454,stroop_task_switching2,2021.2.3,59.99977202706977,
condition/block_word,instruction/instr_word,instruction/i9,绿,white,k,square,word_single,单词,0.5393759672408067,,,,,,,,,,0,1,1,1,0,0,0,0,0,12,12,12,,,,,,,,,,,,,,,,,,,,,,,,,,,,,,,,,,,192.2233353999909,192.42432430002373,192.40724149998277,192.7075358000584,192.7075358000584,None,193.20826159999706,None,k,1,0.7698343000374734,193.20826159999706,None,None,None,193.9926535000559,None,,,,,,,,,,,,,,,,,,,,,11006,2,1,2024_Jun_06_1454,stroop_task_switching2,2021.2.3,59.99977202706977,
condition/block_word,instruction/instr_word,instruction/i9,蓝,white,f,square,word_single,单词,0.5995731954831104,,,,,,,,,,0,1,1,1,0,0,0,0,0,13,13,13,,,,,,,,,,,,,,,,,,,,,,,,,,,,,,,,,,,194.99420940002892,195.1955798000563,195.17787829996087,195.48012349999044,195.48012349999044,None,195.99575470003765,None,j,0,0.7260134000098333,195.99575470003765,None,None,None,196.74672769999597,None,,,,,,,,,,,,,,,,,,,,,11006,2,1,2024_Jun_06_1454,stroop_task_switching2,2021.2.3,59.99977202706977,
condition/block_word,instruction/instr_word,instruction/i9,红,white,d,square,word_single,单词,0.6298674479151414,,,,,,,,,,0,1,1,1,0,0,0,0,0,14,14,14,,,,,,,,,,,,,,,,,,,,,,,,,,,,,,,,,,,197.7484369999729,197.94939329999033,197.93274049996398,198.23409899999388,198.23409899999388,None,198.73338430002332,None,d,1,0.4683476999634877,198.73338430002332,None,None,None,199.2507203000132,None,,,,,,,,,,,,,,,,,,,,,11006,2,1,2024_Jun_06_1454,stroop_task_switching2,2021.2.3,59.99977202706977,
condition/block_word,instruction/instr_word,instruction/i9,红,white,d,square,word_single,单词,0.7389942282348904,,,,,,,,,,0,1,1,1,0,0,0,0,0,15,15,15,,,,,,,,,,,,,,,,,,,,,,,,,,,,,,,,,,,200.25211710005533,200.4524447999429,200.4188986000372,200.7197669999441,200.7197669999441,None,201.22034999995958,None,d,1,0.5339744000229985,201.22034999995958,None,None,None,201.77101509994827,None,,,,,,,,,,,,,,,,,,,,,11006,2,1,2024_Jun_06_1454,stroop_task_switching2,2021.2.3,59.99977202706977,
condition/block_word,instruction/instr_word,instruction/i9,绿,white,k,square,word_single,单词,0.7550853947239682,,,,,,,,,,0,1,1,1,0,0,0,0,0,16,16,16,,,,,,,,,,,,,,,,,,,,,,,,,,,,,,,,,,,202.77275929995812,202.9735419000499,202.9561125000473,203.2574679000536,203.2574679000536,None,203.75771120004356,None,k,1,0.5401432999642566,203.75771120004356,None,None,None,204.32497469999362,None,,,,,,,,,,,,,,,,,,,,,11006,2,1,2024_Jun_06_1454,stroop_task_switching2,2021.2.3,59.99977202706977,
condition/block_word,instruction/instr_word,instruction/i9,绿,white,k,square,word_single,单词,0.8019302780428206,,,,,,,,,,0,1,1,1,0,0,0,0,0,17,17,17,,,,,,,,,,,,,,,,,,,,,,,,,,,,,,,,,,,205.32790759997442,205.54337760002818,205.51018910005223,205.81159059994388,205.81159059994388,None,206.31145789998118,None,k,1,0.6991410000482574,206.31145789998118,None,None,None,207.029269700055,None,,,,,,,,,,,,,,,,,,,,,11006,2,1,2024_Jun_06_1454,stroop_task_switching2,2021.2.3,59.99977202706977,
condition/block_word,instruction/instr_word,instruction/i9,绿,white,k,square,word_single,单词,0.8110702914095343,,,,,,,,,,0,1,1,1,0,0,0,0,0,18,18,18,,,,,,,,,,,,,,,,,,,,,,,,,,,,,,,,,,,208.03053370001726,208.23176440002862,208.2154250999447,208.51449339999817,208.51449339999817,None,209.0154183000559,None,k,1,0.7865285000298172,209.0154183000559,None,None,None,209.8507342999801,None,,,,,,,,,,,,,,,,,,,,,11006,2,1,2024_Jun_06_1454,stroop_task_switching2,2021.2.3,59.99977202706977,
condition/block_word,instruction/instr_word,instruction/i9,黄,white,j,square,word_single,单词,0.8176594937590999,,,,,,,,,,0,1,1,1,0,0,0,0,0,19,19,19,,,,,,,,,,,,,,,,,,,,,,,,,,,,,,,,,,,210.85167989996262,211.0523270999547,211.03496590000577,211.33567059994675,211.33567059994675,None,211.83658730005845,None,j,1,0.7497782999416813,211.83658730005845,None,None,None,212.6041635000147,None,,,,,,,,,,,,,,,,,,,,,11006,2,1,2024_Jun_06_1454,stroop_task_switching2,2021.2.3,59.99977202706977,
condition/block_word,instruction/instr_word,instruction/i9,红,white,d,square,word_single,单词,0.8955794421104841,,,,,,,,,,0,1,1,1,0,0,0,0,0,20,20,20,,,,,,,,,,,,,,,,,,,,,,,,,,,,,,,,,,,213.6054770000046,213.80571610003244,213.7910353000043,214.1064126000274,214.07312299998011,None,214.57395170000382,None,d,1,0.6846536999801174,214.57395170000382,None,None,None,215.27472770004533,None,,,,,,,,,,,,,,,,,,,,,11006,2,1,2024_Jun_06_1454,stroop_task_switching2,2021.2.3,59.99977202706977,
condition/block_word,instruction/instr_word,instruction/i9,绿,white,k,square,word_single,单词,0.9113598052474129,,,,,,,,,,0,1,1,1,0,0,0,0,0,21,21,21,,,,,,,,,,,,,,,,,,,,,,,,,,,,,,,,,,,216.27701399999205,216.47719530004542,216.46002690005116,216.7611162000103,216.7611162000103,None,217.26112579996698,None,k,1,0.749243599944748,217.26112579996698,None,None,None,218.0288437999552,None,,,,,,,,,,,,,,,,,,,,,11006,2,1,2024_Jun_06_1454,stroop_task_switching2,2021.2.3,59.99977202706977,
condition/block_word,instruction/instr_word,instruction/i9,黄,white,j,square,word_single,单词,0.9215930958042953,,,,,,,,,,0,1,1,1,0,0,0,0,0,22,22,22,,,,,,,,,,,,,,,,,,,,,,,,,,,,,,,,,,,219.0305362000363,219.2313973000273,219.21425269998144,219.5143904000288,219.5143904000288,None,220.01517410005908,None,j,1,1.563351200078614,220.01517410005908,None,None,None,221.60104680003133,None,,,,,,,,,,,,,,,,,,,,,11006,2,1,2024_Jun_06_1454,stroop_task_switching2,2021.2.3,59.99977202706977,
condition/block_word,instruction/instr_word,instruction/i9,黄,white,j,square,word_single,单词,0.9493525498837774,,,,,,,,,,0,1,1,1,0,0,0,0,0,23,23,23,,,,,,,,,,,,,,,,,,,,,,,,,,,,,,,,,,,222.60266109998338,222.803498400026,222.78627090004738,223.0880844000494,223.0880844000494,None,223.5875905000139,None,j,1,0.5996205999981612,223.5875905000139,None,None,None,224.20487360004336,None,,,,,,,,,,,,,,,,,,,,,11006,2,1,2024_Jun_06_1454,stroop_task_switching2,2021.2.3,59.99977202706977,
condition/block_word,instruction/instr_word,instruction/i9,,,,,,,,,,,,,,,,,0,1,1,1,0,0,0,0,,,,,,,,,,,,,,,,,,,,,,,,,,,,,,,,,,,,,,,,,,,,,,,,,,,,,,,,225.20607129996642,None,space,3.2054115999490023,225.20607129996642,None,,,,,,,,,,,,,,,11006,2,1,2024_Jun_06_1454,stroop_task_switching2,2021.2.3,59.99977202706977,
condition/block_word,instruction/instr_word,instruction/i9,,,,,,,,,,,,,,,,,0,1,1,1,,,,,,,,,,,,,,,,,,,,,,,,,,,,,,,,,,,,,,,,,,,,,,,,,,,,,,,,,,,,,,,,,,,,,,,,,,,,,,,,11006,2,1,2024_Jun_06_1454,stroop_task_switching2,2021.2.3,59.99977202706977,
condition/block_mixed,instruction/instr_mixed,instruction/i10,蓝,red,d,diamond,color_mix,颜色,,incompatible,0,,,,,,,,0,2,2,2,0,0,0,0,0,0,0,0,,,,,,,,,,,,,,,,,,,,,228.46136369998567,None,space,24.371526399976574,228.46136369998567,None,253.8505963999778,254.8517696999479,254.8517696999479,255.85308729996905,255.85308729996905,None,252.8648975000251,253.86680930003058,256.88850490003824,257.0879091999959,257.07149500004016,257.3722737999633,257.3722737999633,None,257.8568456999492,None,f,0,1.3304499000078067,257.8568456999492,None,None,None,259.24221109994687,None,,,,,,,,,,,,,,,,,,,,,11006,2,1,2024_Jun_06_1454,stroop_task_switching2,2021.2.3,59.99977202706977,
condition/block_mixed,instruction/instr_mixed,instruction/i10,绿,yellow,j,diamond,color_mix,颜色,,incompatible,1,,,,,,,,0,2,2,2,0,0,0,0,0,1,1,1,,,,,,,,,,,,,,,,,,,,,,,,,,,,,,,,,,,260.2259123000549,260.42617540003266,260.409724200028,260.7101580000017,260.7101580000017,None,261.2107877000235,None,j,1,1.872649799915962,261.2107877000235,None,None,None,263.1310530999908,None,,,,,,,,,,,,,,,,,,,,,11006,2,1,2024_Jun_06_1454,stroop_task_switching2,2021.2.3,59.99977202706977,
condition/block_mixed,instruction/instr_mixed,instruction/i10,红,green,k,diamond,color_mix,颜色,,incompatible,1,,,,,,,,0,2,2,2,0,0,0,0,0,2,2,2,,,,,,,,,,,,,,,,,,,,,,,,,,,,,,,,,,,264.1318376000272,264.3328059000196,264.3154144999571,264.6175656999694,264.5993125999812,None,265.1011298999656,None,k,1,1.2066234000958502,265.1011298999656,None,None,None,266.33519040001556,None,,,,,,,,,,,,,,,,,,,,,11006,2,1,2024_Jun_06_1454,stroop_task_switching2,2021.2.3,59.99977202706977,
condition/block_mixed,instruction/instr_mixed,instruction/i10,蓝,red,d,diamond,color_mix,颜色,,incompatible,1,,,,,,,,0,2,2,2,0,0,0,0,0,3,3,3,,,,,,,,,,,,,,,,,,,,,,,,,,,,,,,,,,,267.33659840002656,267.53684740001336,267.52155619999394,267.8210105999606,267.8210105999606,None,268.3213692000136,None,d,1,1.0664551999652758,268.3213692000136,None,None,None,269.40646430000197,None,,,,,,,,,,,,,,,,,,,,,11006,2,1,2024_Jun_06_1454,stroop_task_switching2,2021.2.3,59.99977202706977,
condition/block_mixed,instruction/instr_mixed,instruction/i10,红,blue,f,diamond,color_mix,颜色,,incompatible,1,,,,,,,,0,2,2,2,0,0,0,0,0,4,4,4,,,,,,,,,,,,,,,,,,,,,,,,,,,,,,,,,,,270.40804570005275,270.6088784999447,270.5915781999938,270.8937665000558,270.8937665000558,None,271.39277899998706,None,f,1,1.035584400058724,271.39277899998706,None,None,None,272.4444298000308,None,,,,,,,,,,,,,,,,,,,,,11006,2,1,2024_Jun_06_1454,stroop_task_switching2,2021.2.3,59.99977202706977,
condition/block_mixed,instruction/instr_mixed,instruction/i10,红,blue,d,square,color_mix,单词,,incompatible,2,,,,,,,,0,2,2,2,0,0,0,0,0,5,5,5,,,,,,,,,,,,,,,,,,,,,,,,,,,,,,,,,,,273.4460349000292,273.6462198999943,273.6310054999776,273.9317283000564,273.9317283000564,None,274.43075719999615,None,f,0,0.6370641000103205,274.43075719999615,None,None,None,275.11568110005464,None,,,,,,,,,,,,,,,,,,,,,11006,2,1,2024_Jun_06_1454,stroop_task_switching2,2021.2.3,59.99977202706977,
condition/block_mixed,instruction/instr_mixed,instruction/i10,红,yellow,j,diamond,color_mix,颜色,,incompatible,2,,,,,,,,0,2,2,2,0,0,0,0,0,6,6,6,,,,,,,,,,,,,,,,,,,,,,,,,,,,,,,,,,,276.1170304999687,276.31804160005413,276.3005437999964,276.601130999974,276.601130999974,None,277.1013018999947,None,j,1,1.0628924000775442,277.1013018999947,None,None,None,278.18788230000064,None,,,,,,,,,,,,,,,,,,,,,11006,2,1,2024_Jun_06_1454,stroop_task_switching2,2021.2.3,59.99977202706977,
condition/block_mixed,instruction/instr_mixed,instruction/i10,红,yellow,d,square,color_mix,单词,,incompatible,2,,,,,,,,0,2,2,2,0,0,0,0,0,7,7,7,,,,,,,,,,,,,,,,,,,,,,,,,,,,,,,,,,,279.1878723000409,279.38881609996315,279.3714552000165,279.67204950004816,279.67204950004816,None,280.17270280001685,None,d,1,1.143516100011766,280.17270280001685,None,None,None,281.34111140004825,None,,,,,,,,,,,,,,,,,,,,,11006,2,1,2024_Jun_06_1454,stroop_task_switching2,2021.2.3,59.99977202706977,
condition/block_mixed,instruction/instr_mixed,instruction/i10,绿,blue,k,square,color_mix,单词,,incompatible,1,,,,,,,,0,2,2,2,0,0,0,0,0,8,8,8,,,,,,,,,,,,,,,,,,,,,,,,,,,,,,,,,,,282.34260319999885,282.5435180000495,282.5262153999647,282.82684760005213,282.82684760005213,None,283.32726769999135,None,k,1,1.284885200089775,283.32726769999135,None,None,None,284.62944449996576,None,,,,,,,,,,,,,,,,,,,,,11006,2,1,2024_Jun_06_1454,stroop_task_switching2,2021.2.3,59.99977202706977,
condition/block_mixed,instruction/instr_mixed,instruction/i10,蓝,green,k,diamond,color_mix,颜色,,incompatible,2,,,,,,,,0,2,2,2,0,0,0,0,0,9,9,9,,,,,,,,,,,,,,,,,,,,,,,,,,,,,,,,,,,285.63097619998734,285.8313713000389,285.8149470000062,286.11522719997447,286.11522719997447,None,286.6163137999829,None,k,1,0.9801084999926388,286.6163137999829,None,None,None,287.6172922999831,None,,,,,,,,,,,,,,,,,,,,,11006,2,1,2024_Jun_06_1454,stroop_task_switching2,2021.2.3,59.99977202706977,
condition/block_mixed,instruction/instr_mixed,instruction/i10,蓝,yellow,f,square,color_mix,单词,,incompatible,2,,,,,,,,0,2,2,2,0,0,0,0,0,10,10,10,,,,,,,,,,,,,,,,,,,,,,,,,,,,,,,,,,,288.6192571000429,288.81976209999993,288.8020804000553,289.10289330000523,289.10289330000523,None,289.60349839995615,None,f,1,1.2008778000017628,289.60349839995615,None,None,None,290.82189270004164,None,,,,,,,,,,,,,,,,,,,,,11006,2,1,2024_Jun_06_1454,stroop_task_switching2,2021.2.3,59.99977202706977,
condition/block_mixed,instruction/instr_mixed,instruction/i10,蓝,green,f,square,color_mix,单词,,incompatible,1,,,,,,,,0,2,2,2,0,0,0,0,0,11,11,11,,,,,,,,,,,,,,,,,,,,,,,,,,,,,,,,,,,291.82366959995124,292.0244835000485,292.00714769994374,292.30765189998783,292.30765189998783,None,292.8084014999913,None,f,1,1.2525898000458255,292.8084014999913,None,None,None,294.07749159995,None,,,,,,,,,,,,,,,,,,,,,11006,2,1,2024_Jun_06_1454,stroop_task_switching2,2021.2.3,59.99977202706977,
condition/block_mixed,instruction/instr_mixed,instruction/i10,绿,yellow,k,square,color_mix,单词,,incompatible,1,,,,,,,,0,2,2,2,0,0,0,0,0,12,12,12,,,,,,,,,,,,,,,,,,,,,,,,,,,,,,,,,,,295.07859259995166,295.2796943000285,295.261867800029,295.562920599943,295.562920599943,None,296.0633548999904,None,j,0,1.197315700002946,296.0633548999904,None,None,None,297.2818079000572,None,,,,,,,,,,,,,,,,,,,,,11006,2,1,2024_Jun_06_1454,stroop_task_switching2,2021.2.3,59.99977202706977,
condition/block_mixed,instruction/instr_mixed,instruction/i10,绿,blue,f,diamond,color_mix,颜色,,incompatible,2,,,,,,,,0,2,2,2,0,0,0,0,0,13,13,13,,,,,,,,,,,,,,,,,,,,,,,,,,,,,,,,,,,298.2834475999698,298.4846007999731,298.4670627999585,298.7673531000037,298.7673531000037,None,299.2680407000007,None,f,1,0.9442883000010625,299.2680407000007,None,None,None,300.23628840001766,None,,,,,,,,,,,,,,,,,,,,,11006,2,1,2024_Jun_06_1454,stroop_task_switching2,2021.2.3,59.99977202706977,
condition/block_mixed,instruction/instr_mixed,instruction/i10,黄,red,j,square,color_mix,单词,,incompatible,2,,,,,,,,0,2,2,2,0,0,0,0,0,14,14,14,,,,,,,,,,,,,,,,,,,,,,,,,,,,,,,,,,,301.2377403000137,301.4385139000369,301.4218655000441,301.7223203999456,301.7223203999456,None,302.2234227999579,None,j,1,1.0691667000064626,302.2234227999579,None,None,None,303.307544899988,None,,,,,,,,,,,,,,,,,,,,,11006,2,1,2024_Jun_06_1454,stroop_task_switching2,2021.2.3,59.99977202706977,
condition/block_mixed,instruction/instr_mixed,instruction/i10,蓝,yellow,j,diamond,color_mix,颜色,,incompatible,2,,,,,,,,0,2,2,2,0,0,0,0,0,15,15,15,,,,,,,,,,,,,,,,,,,,,,,,,,,,,,,,,,,304.30902619997505,304.5096225000452,304.49280030000955,304.7930643999716,304.7930643999716,None,305.29392800002825,None,j,1,1.4631783000659198,305.29392800002825,None,None,None,306.779594099964,None,,,,,,,,,,,,,,,,,,,,,11006,2,1,2024_Jun_06_1454,stroop_task_switching2,2021.2.3,59.99977202706977,
condition/block_mixed,instruction/instr_mixed,instruction/i10,黄,red,d,diamond,color_mix,颜色,,incompatible,1,,,,,,,,0,2,2,2,0,0,0,0,0,16,16,16,,,,,,,,,,,,,,,,,,,,,,,,,,,,,,,,,,,307.7810373000102,307.98290890001226,307.96492900000885,308.26490149996243,308.26490149996243,None,308.7659540999448,None,d,1,1.1671274999389425,308.7659540999448,None,None,None,309.950858999975,None,,,,,,,,,,,,,,,,,,,,,11006,2,1,2024_Jun_06_1454,stroop_task_switching2,2021.2.3,59.99977202706977,
condition/block_mixed,instruction/instr_mixed,instruction/i10,绿,red,k,square,color_mix,单词,,incompatible,2,,,,,,,,0,2,2,2,0,0,0,0,0,17,17,17,,,,,,,,,,,,,,,,,,,,,,,,,,,,,,,,,,,310.9524348999839,311.15288900001906,311.1376079999609,311.43666580005083,311.43666580005083,None,311.9372786999447,None,k,1,1.0195212999824435,311.9372786999447,None,None,None,312.9722313999664,None,,,,,,,,,,,,,,,,,,,,,11006,2,1,2024_Jun_06_1454,stroop_task_switching2,2021.2.3,59.99977202706977,
condition/block_mixed,instruction/instr_mixed,instruction/i10,红,green,d,square,color_mix,单词,,incompatible,1,,,,,,,,0,2,2,2,0,0,0,0,0,18,18,18,,,,,,,,,,,,,,,,,,,,,,,,,,,,,,,,,,,313.974064799957,314.1738388000522,314.15750620001927,314.45792139996774,314.45792139996774,None,314.9585223000031,None,d,1,1.3984066999983042,314.9585223000031,None,None,None,316.3773114000214,None,,,,,,,,,,,,,,,,,,,,,11006,2,1,2024_Jun_06_1454,stroop_task_switching2,2021.2.3,59.99977202706977,
condition/block_mixed,instruction/instr_mixed,instruction/i10,黄,blue,f,diamond,color_mix,颜色,,incompatible,2,,,,,,,,0,2,2,2,0,0,0,0,0,19,19,19,,,,,,,,,,,,,,,,,,,,,,,,,,,,,,,,,,,317.3796435999684,317.5799764000112,317.5634606999811,317.86341260001063,317.86341260001063,None,318.3635598999681,None,f,1,1.0182342999614775,318.3635598999681,None,None,None,319.3985462000128,None,,,,,,,,,,,,,,,,,,,,,11006,2,1,2024_Jun_06_1454,stroop_task_switching2,2021.2.3,59.99977202706977,
condition/block_mixed,instruction/instr_mixed,instruction/i10,黄,green,k,diamond,color_mix,颜色,,incompatible,1,,,,,,,,0,2,2,2,0,0,0,0,0,20,20,20,,,,,,,,,,,,,,,,,,,,,,,,,,,,,,,,,,,320.39996509999037,320.6001615000423,320.5836165000219,320.8845155000454,320.8845155000454,None,321.3849393000128,None,j,0,1.0844431000296026,321.3849393000128,None,None,None,322.4864922000561,None,,,,,,,,,,,,,,,,,,,,,11006,2,1,2024_Jun_06_1454,stroop_task_switching2,2021.2.3,59.99977202706977,
condition/block_mixed,instruction/instr_mixed,instruction/i10,黄,green,j,square,color_mix,单词,,incompatible,2,,,,,,,,0,2,2,2,0,0,0,0,0,21,21,21,,,,,,,,,,,,,,,,,,,,,,,,,,,,,,,,,,,323.48796729999594,323.6889988000039,323.67162309994455,323.9725366999628,323.9725366999628,None,324.47287810000125,None,j,1,2.5722471999470145,324.47287810000125,None,None,None,327.07677559996955,None,,,,,,,,,,,,,,,,,,,,,11006,2,1,2024_Jun_06_1454,stroop_task_switching2,2021.2.3,59.99977202706977,
condition/block_mixed,instruction/instr_mixed,instruction/i10,黄,blue,j,square,color_mix,单词,,incompatible,1,,,,,,,,0,2,2,2,0,0,0,0,0,22,22,22,,,,,,,,,,,,,,,,,,,,,,,,,,,,,,,,,,,328.0782866999507,328.2785265999846,328.2618209000211,328.56301599997096,328.56301599997096,None,329.0629540999653,None,j,1,0.7104765999829397,329.0629540999653,None,None,None,329.79752090002876,None,,,,,,,,,,,,,,,,,,,,,11006,2,1,2024_Jun_06_1454,stroop_task_switching2,2021.2.3,59.99977202706977,
condition/block_mixed,instruction/instr_mixed,instruction/i10,蓝,red,f,square,color_mix,单词,,incompatible,1,,,,,,,,0,2,2,2,0,0,0,0,0,23,23,23,,,,,,,,,,,,,,,,,,,,,,,,,,,,,,,,,,,330.79899619997013,330.99978309997823,330.9826000999892,331.2835204999428,331.2835204999428,None,331.7838989000302,None,d,0,2.0702719000400975,331.7838989000302,None,None,None,333.87025659997016,None,,,,,,,,,,,,,,,,,,,,,11006,2,1,2024_Jun_06_1454,stroop_task_switching2,2021.2.3,59.99977202706977,
condition/block_mixed,instruction/instr_mixed,instruction/i10,绿,red,d,diamond,color_mix,颜色,,incompatible,2,,,,,,,,0,2,2,2,0,0,0,0,0,24,24,24,,,,,,,,,,,,,,,,,,,,,,,,,,,,,,,,,,,334.87163559999317,335.07255110004917,335.055495699984,335.35592680005357,335.35592680005357,None,335.85658809996676,None,d,1,1.3415091000497341,335.85658809996676,None,None,None,337.22547930001747,None,,,,,,,,,,,,,,,,,,,,,11006,2,1,2024_Jun_06_1454,stroop_task_switching2,2021.2.3,59.99977202706977,
condition/block_mixed,instruction/instr_mixed,instruction/i10,绿,green,k,diamond,color_mix,颜色,,compatible,1,,,,,,,,0,2,2,2,0,0,0,0,0,25,25,25,,,,,,,,,,,,,,,,,,,,,,,,,,,,,,,,,,,338.22737610002514,338.4273641000036,338.41080029995646,338.7109393000137,338.7109393000137,None,339.21195310004987,None,k,1,1.7937496000668034,339.21195310004987,None,None,None,341.03110649995506,None,,,,,,,,,,,,,,,,,,,,,11006,2,1,2024_Jun_06_1454,stroop_task_switching2,2021.2.3,59.99977202706977,
condition/block_mixed,instruction/instr_mixed,instruction/i10,蓝,blue,f,diamond,color_mix,颜色,,compatible,1,,,,,,,,0,2,2,2,0,0,0,0,0,26,26,26,,,,,,,,,,,,,,,,,,,,,,,,,,,,,,,,,,,342.0328459000448,342.2332959000487,342.21610650001094,342.5176775000291,342.5176775000291,None,343.0175491999835,None,f,1,1.3563027000054717,343.0175491999835,None,None,None,344.40279900003225,None,,,,,,,,,,,,,,,,,,,,,11006,2,1,2024_Jun_06_1454,stroop_task_switching2,2021.2.3,59.99977202706977,
condition/block_mixed,instruction/instr_mixed,instruction/i10,绿,green,k,square,color_mix,单词,,compatible,2,,,,,,,,0,2,2,2,0,0,0,0,0,27,27,27,,,,,,,,,,,,,,,,,,,,,,,,,,,,,,,,,,,345.4042932000011,345.6048428999493,345.5901701999828,345.9069261000259,345.88833200000226,None,346.38932169997133,None,k,1,2.0810412000864744,346.38932169997133,None,None,None,348.49250119994394,None,,,,,,,,,,,,,,,,,,,,,11006,2,1,2024_Jun_06_1454,stroop_task_switching2,2021.2.3,59.99977202706977,
condition/block_mixed,instruction/instr_mixed,instruction/i10,绿,green,k,square,color_mix,单词,,compatible,1,,,,,,,,0,2,2,2,0,0,0,0,0,28,28,28,,,,,,,,,,,,,,,,,,,,,,,,,,,,,,,,,,,349.49438599997666,349.6953522999538,349.67785350000486,349.97907440003473,349.97907440003473,None,350.4789248999441,None,k,1,1.047488300013356,350.4789248999441,None,None,None,351.54693099996075,None,,,,,,,,,,,,,,,,,,,,,11006,2,1,2024_Jun_06_1454,stroop_task_switching2,2021.2.3,59.99977202706977,
condition/block_mixed,instruction/instr_mixed,instruction/i10,蓝,blue,f,square,color_mix,单词,,compatible,1,,,,,,,,0,2,2,2,0,0,0,0,0,29,29,29,,,,,,,,,,,,,,,,,,,,,,,,,,,,,,,,,,,352.5486194000114,352.7494886999484,352.7320837000152,353.0334217000054,353.0334217000054,None,353.53464490000624,None,f,1,1.567810400039889,353.53464490000624,None,None,None,355.11906549998093,None,,,,,,,,,,,,,,,,,,,,,11006,2,1,2024_Jun_06_1454,stroop_task_switching2,2021.2.3,59.99977202706977,
condition/block_mixed,instruction/instr_mixed,instruction/i10,黄,yellow,j,diamond,color_mix,颜色,,compatible,2,,,,,,,,0,2,2,2,0,0,0,0,0,30,30,30,,,,,,,,,,,,,,,,,,,,,,,,,,,,,,,,,,,356.1205427000532,356.3209064999828,356.30557870003395,356.60473619995173,356.60473619995173,None,357.1054028000217,None,j,1,0.9726798000046983,357.1054028000217,None,None,None,358.1068934999639,None,,,,,,,,,,,,,,,,,,,,,11006,2,1,2024_Jun_06_1454,stroop_task_switching2,2021.2.3,59.99977202706977,
condition/block_mixed,instruction/instr_mixed,instruction/i10,绿,green,k,square,color_mix,单词,,compatible,2,,,,,,,,0,2,2,2,0,0,0,0,0,31,31,31,,,,,,,,,,,,,,,,,,,,,,,,,,,,,,,,,,,359.10834619996604,359.3088184000226,359.29346559999976,359.59248860005755,359.59248860005755,None,360.093222699943,None,k,1,1.488889400032349,360.093222699943,None,None,None,361.612594599952,None,,,,,,,,,,,,,,,,,,,,,11006,2,1,2024_Jun_06_1454,stroop_task_switching2,2021.2.3,59.99977202706977,
condition/block_mixed,instruction/instr_mixed,instruction/i10,黄,yellow,j,square,color_mix,单词,,compatible,1,,,,,,,,0,2,2,2,0,0,0,0,0,32,32,32,,,,,,,,,,,,,,,,,,,,,,,,,,,,,,,,,,,362.6136811999604,362.8143273999449,362.7975708999438,363.0992215999868,363.0992215999868,None,363.5985796999885,None,j,1,1.1835274000186473,363.5985796999885,None,None,None,364.8002327999566,None,,,,,,,,,,,,,,,,,,,,,11006,2,1,2024_Jun_06_1454,stroop_task_switching2,2021.2.3,59.99977202706977,
condition/block_mixed,instruction/instr_mixed,instruction/i10,绿,green,k,diamond,color_mix,颜色,,compatible,2,,,,,,,,0,2,2,2,0,0,0,0,0,33,33,33,,,,,,,,,,,,,,,,,,,,,,,,,,,,,,,,,,,365.80188349995296,366.0030707999831,365.9855671999976,366.2873394000344,366.2873394000344,None,366.78650150005706,None,k,1,0.7245797000359744,366.78650150005706,None,None,None,367.5380150000565,None,,,,,,,,,,,,,,,,,,,,,11006,2,1,2024_Jun_06_1454,stroop_task_switching2,2021.2.3,59.99977202706977,
condition/block_mixed,instruction/instr_mixed,instruction/i10,红,red,d,square,color_mix,单词,,compatible,2,,,,,,,,0,2,2,2,0,0,0,0,0,34,34,34,,,,,,,,,,,,,,,,,,,,,,,,,,,,,,,,,,,368.53938289999496,368.7396270999452,368.7230040000286,369.023970499984,369.023970499984,None,369.5241022000555,None,d,1,1.4828282999806106,369.5241022000555,None,None,None,371.0262916999636,None,,,,,,,,,,,,,,,,,,,,,11006,2,1,2024_Jun_06_1454,stroop_task_switching2,2021.2.3,59.99977202706977,
condition/block_mixed,instruction/instr_mixed,instruction/i10,黄,yellow,j,square,color_mix,单词,,compatible,1,,,,,,,,0,2,2,2,0,0,0,0,0,35,35,35,,,,,,,,,,,,,,,,,,,,,,,,,,,,,,,,,,,372.02792809996754,372.22892010002397,372.2116412000032,372.51282229996286,372.51282229996286,None,373.0126536999596,None,j,1,0.9618215999798849,373.0126536999596,None,None,None,373.9975032999646,None,,,,,,,,,,,,,,,,,,,,,11006,2,1,2024_Jun_06_1454,stroop_task_switching2,2021.2.3,59.99977202706977,
condition/block_mixed,instruction/instr_mixed,instruction/i10,绿,green,k,diamond,color_mix,颜色,,compatible,2,,,,,,,,0,2,2,2,0,0,0,0,0,36,36,36,,,,,,,,,,,,,,,,,,,,,,,,,,,,,,,,,,,374.9989043000387,375.20075930003077,375.18251209997106,375.4836901000235,375.4836901000235,None,375.9836767000379,None,k,1,0.6791739999316633,375.9836767000379,None,None,None,376.68476750003174,None,,,,,,,,,,,,,,,,,,,,,11006,2,1,2024_Jun_06_1454,stroop_task_switching2,2021.2.3,59.99977202706977,
condition/block_mixed,instruction/instr_mixed,instruction/i10,蓝,blue,f,square,color_mix,单词,,compatible,2,,,,,,,,0,2,2,2,0,0,0,0,0,37,37,37,,,,,,,,,,,,,,,,,,,,,,,,,,,,,,,,,,,377.68639559997246,377.88737040001433,377.8700409999583,378.1706056999974,378.1706056999974,None,378.67126069997903,None,f,1,1.1033820000011474,378.67126069997903,None,None,None,379.80616190005094,None,,,,,,,,,,,,,,,,,,,,,11006,2,1,2024_Jun_06_1454,stroop_task_switching2,2021.2.3,59.99977202706977,
condition/block_mixed,instruction/instr_mixed,instruction/i10,红,red,d,square,color_mix,单词,,compatible,1,,,,,,,,0,2,2,2,0,0,0,0,0,38,38,38,,,,,,,,,,,,,,,,,,,,,,,,,,,,,,,,,,,380.80846349999774,381.00877429998945,380.9916960999835,381.2931123999879,381.2931123999879,None,381.79293630004395,None,d,1,1.0939904999686405,381.79293630004395,None,None,None,382.9108416000381,None,,,,,,,,,,,,,,,,,,,,,11006,2,1,2024_Jun_06_1454,stroop_task_switching2,2021.2.3,59.99977202706977,
condition/block_mixed,instruction/instr_mixed,instruction/i10,黄,yellow,j,diamond,color_mix,颜色,,compatible,2,,,,,,,,0,2,2,2,0,0,0,0,0,39,39,39,,,,,,,,,,,,,,,,,,,,,,,,,,,,,,,,,,,383.9134675000096,384.11313309997786,384.0959893000545,384.3981495000189,384.3981495000189,None,384.8974421999883,None,j,1,0.7495200000703335,384.8974421999883,None,None,None,385.66490630002227,None,,,,,,,,,,,,,,,,,,,,,11006,2,1,2024_Jun_06_1454,stroop_task_switching2,2021.2.3,59.99977202706977,
condition/block_mixed,instruction/instr_mixed,instruction/i10,黄,yellow,j,square,color_mix,单词,,compatible,2,,,,,,,,0,2,2,2,0,0,0,0,0,40,40,40,,,,,,,,,,,,,,,,,,,,,,,,,,,,,,,,,,,386.66656969999894,386.8669850999722,386.85020119999535,387.15067839995027,387.15067839995027,None,387.6514603999676,None,j,1,0.9478495999937877,387.6514603999676,None,None,None,388.6194336999906,None,,,,,,,,,,,,,,,,,,,,,11006,2,1,2024_Jun_06_1454,stroop_task_switching2,2021.2.3,59.99977202706977,
condition/block_mixed,instruction/instr_mixed,instruction/i10,蓝,blue,f,square,color_mix,单词,,compatible,1,,,,,,,,0,2,2,2,0,0,0,0,0,41,41,41,,,,,,,,,,,,,,,,,,,,,,,,,,,,,,,,,,,389.6214783999603,389.82231099996716,389.8047033000039,390.1064366999781,390.1064366999781,None,390.60562619997654,None,f,1,0.9458582000806928,390.60562619997654,None,None,None,391.57414619997144,None,,,,,,,,,,,,,,,,,,,,,11006,2,1,2024_Jun_06_1454,stroop_task_switching2,2021.2.3,59.99977202706977,
condition/block_mixed,instruction/instr_mixed,instruction/i10,蓝,blue,f,diamond,color_mix,颜色,,compatible,2,,,,,,,,0,2,2,2,0,0,0,0,0,42,42,42,,,,,,,,,,,,,,,,,,,,,,,,,,,,,,,,,,,392.57587729999796,392.775857700035,392.76073239999823,393.0595079000341,393.0595079000341,None,393.56035889999475,None,f,1,0.766693799989298,393.56035889999475,None,None,None,394.3448408000404,None,,,,,,,,,,,,,,,,,,,,,11006,2,1,2024_Jun_06_1454,stroop_task_switching2,2021.2.3,59.99977202706977,
condition/block_mixed,instruction/instr_mixed,instruction/i10,黄,yellow,j,diamond,color_mix,颜色,,compatible,1,,,,,,,,0,2,2,2,0,0,0,0,0,43,43,43,,,,,,,,,,,,,,,,,,,,,,,,,,,,,,,,,,,395.3465535000432,395.54666820005514,395.5309520000592,395.83040550001897,395.83040550001897,None,396.3313949999865,None,j,1,0.515924800070934,396.3313949999865,None,None,None,396.86523420002777,None,,,,,,,,,,,,,,,,,,,,,11006,2,1,2024_Jun_06_1454,stroop_task_switching2,2021.2.3,59.99977202706977,
condition/block_mixed,instruction/instr_mixed,instruction/i10,红,red,d,diamond,color_mix,颜色,,compatible,1,,,,,,,,0,2,2,2,0,0,0,0,0,44,44,44,,,,,,,,,,,,,,,,,,,,,,,,,,,,,,,,,,,397.86685410002246,398.0675728999777,398.05257049994543,398.3687576999655,398.35113339999225,None,398.85171239997726,None,d,1,0.7802272000117227,398.85171239997726,None,None,None,399.65313740004785,None,,,,,,,,,,,,,,,,,,,,,11006,2,1,2024_Jun_06_1454,stroop_task_switching2,2021.2.3,59.99977202706977,
condition/block_mixed,instruction/instr_mixed,instruction/i10,蓝,blue,f,diamond,color_mix,颜色,,compatible,1,,,,,,,,0,2,2,2,0,0,0,0,0,45,45,45,,,,,,,,,,,,,,,,,,,,,,,,,,,,,,,,,,,400.65454360004514,400.8558358999435,400.8379788999446,401.1386413000291,401.1386413000291,None,401.63909790001344,None,f,1,0.7848231999669224,401.63909790001344,None,None,None,402.4405518999556,None,,,,,,,,,,,,,,,,,,,,,11006,2,1,2024_Jun_06_1454,stroop_task_switching2,2021.2.3,59.99977202706977,
condition/block_mixed,instruction/instr_mixed,instruction/i10,红,red,d,diamond,color_mix,颜色,,compatible,1,,,,,,,,0,2,2,2,0,0,0,0,0,46,46,46,,,,,,,,,,,,,,,,,,,,,,,,,,,,,,,,,,,403.44194319995586,403.64324340003077,403.6252766000107,403.9259582000086,403.9259582000086,None,404.4269064000109,None,d,1,0.9248632000526413,404.4269064000109,None,None,None,405.37805000005756,None,,,,,,,,,,,,,,,,,,,,,11006,2,1,2024_Jun_06_1454,stroop_task_switching2,2021.2.3,59.99977202706977,
condition/block_mixed,instruction/instr_mixed,instruction/i10,红,red,d,square,color_mix,单词,,compatible,2,,,,,,,,0,2,2,2,0,0,0,0,0,47,47,47,,,,,,,,,,,,,,,,,,,,,,,,,,,,,,,,,,,406.37956869998015,406.57979160000104,406.563441199949,406.8638692999957,406.8638692999957,None,407.36452609999105,None,d,1,1.2911787999328226,407.36452609999105,None,None,None,408.6831030000467,None,,,,,,,,,,,,,,,,,,,,,11006,2,1,2024_Jun_06_1454,stroop_task_switching2,2021.2.3,59.99977202706977,
condition/block_mixed,instruction/instr_mixed,instruction/i10,红,red,d,diamond,color_mix,颜色,,compatible,2,,,,,,,,0,2,2,2,0,0,0,0,0,48,48,48,,,,,,,,,,,,,,,,,,,,,,,,,,,,,,,,,,,409.68451129994355,409.8848561999621,409.8691710999701,410.1688780999975,410.1688780999975,None,410.66964540001936,None,d,1,0.601938100066036,410.66964540001936,None,None,None,411.28702359995805,None,,,,,,,,,,,,,,,,,,,,,11006,2,1,2024_Jun_06_1454,stroop_task_switching2,2021.2.3,59.99977202706977,
condition/block_mixed,instruction/instr_mixed,instruction/i10,,,,,,,,,,,,,,,,,0,2,2,2,0,0,0,0,,,,,,,,,,,,,,,,,,,,,,,,,,,,,,,,,,,,,,,,,,,,,,,,,,,,,,,,412.28853200003505,None,space,12.023427700041793,412.28853200003505,None,,,,,,,,,,,,,,,11006,2,1,2024_Jun_06_1454,stroop_task_switching2,2021.2.3,59.99977202706977,
condition/block_mixed,instruction/instr_mixed,instruction/i10,,,,,,,,,,,,,,,,,0,2,2,2,,,,,,,,,,,,,,,,,,,,,,,,,,,,,,,,,,,,,,,,,,,,,,,,,,,,,,,,,,,,,,,,,,,,,,,,,,,,,,,,11006,2,1,2024_Jun_06_1454,stroop_task_switching2,2021.2.3,59.99977202706977,
,,,红,red,d,square,color_mix,单词,,compatible,0,block_switch1,instruction/ready_test.png,instruction/i11.png,,,,,,,,,,,,,,,,,0,0,0,0,0,0,0,0,,,,,,,,,,,,,,,,,,,428.8806963999523,429.881675099954,429.881675099954,430.8832377999788,430.8832377999788,None,427.8955306999851,428.8978460000362,431.91853270004503,432.1196274999529,432.10196500003804,432.40311249997467,432.40311249997467,None,432.90408899995964,None,d,1,1.0721783000044525,432.90408899995964,None,None,None,,,,,,,,,424.37322349997703,None,space,3.4907160999719054,424.37322349997703,None,,,,,,,,,11006,2,1,2024_Jun_06_1454,stroop_task_switching2,2021.2.3,59.99977202706977,
,,,绿,green,k,diamond,color_mix,颜色,,compatible,2,block_switch1,instruction/ready_test.png,instruction/i11.png,,,,,,,,,,,,,,,,,0,0,0,0,0,1,1,1,,,,,,,,,,,,,,,,,,,,,,,,,,,434.0381693999516,434.2390108000254,434.2224871000508,434.5222927000141,434.5222927000141,None,435.0228056999622,None,k,1,0.6494584999745712,435.0228056999622,None,None,None,,,,,,,,,,,,,,,,,,,,,,,11006,2,1,2024_Jun_06_1454,stroop_task_switching2,2021.2.3,59.99977202706977,
,,,绿,yellow,j,diamond,color_mix,颜色,,incompatible,1,block_switch1,instruction/ready_test.png,instruction/i11.png,,,,,,,,,,,,,,,,,0,0,0,0,0,2,2,2,,,,,,,,,,,,,,,,,,,,,,,,,,,435.6905241999775,435.8915393999778,435.87413959996775,436.1746022000443,436.1746022000443,None,436.67523829999845,None,j,1,1.1651246999390423,436.67523829999845,None,None,None,,,,,,,,,,,,,,,,,,,,,,,11006,2,1,2024_Jun_06_1454,stroop_task_switching2,2021.2.3,59.99977202706977,
,,,蓝,blue,f,diamond,color_mix,颜色,,compatible,1,block_switch1,instruction/ready_test.png,instruction/i11.png,,,,,,,,,,,,,,,,,0,0,0,0,0,3,3,3,,,,,,,,,,,,,,,,,,,,,,,,,,,437.86054769996554,438.06082619994413,438.04438640002627,438.34605279995594,438.34605279995594,None,438.84508340002503,None,f,1,0.8275475999107584,438.84508340002503,None,None,None,,,,,,,,,,,,,,,,,,,,,,,11006,2,1,2024_Jun_06_1454,stroop_task_switching2,2021.2.3,59.99977202706977,
,,,绿,green,k,square,color_mix,单词,,compatible,2,block_switch1,instruction/ready_test.png,instruction/i11.png,,,,,,,,,,,,,,,,,0,0,0,0,0,4,4,4,,,,,,,,,,,,,,,,,,,,,,,,,,,439.6965797999874,439.8967859999975,439.8805856000399,440.1808257000521,440.1808257000521,None,440.68119829997886,None,k,1,0.7273776000365615,440.68119829997886,None,None,None,,,,,,,,,,,,,,,,,,,,,,,11006,2,1,2024_Jun_06_1454,stroop_task_switching2,2021.2.3,59.99977202706977,
,,,绿,blue,f,diamond,color_mix,颜色,,incompatible,2,block_switch1,instruction/ready_test.png,instruction/i11.png,,,,,,,,,,,,,,,,,0,0,0,0,0,5,5,5,,,,,,,,,,,,,,,,,,,,,,,,,,,441.43244670005515,441.63446740002837,441.6161966000218,441.9173440999584,441.9173440999584,None,442.4175493000075,None,f,1,1.3511223000241444,442.4175493000075,None,None,None,,,,,,,,,,,,,,,,,,,,,,,11006,2,1,2024_Jun_06_1454,stroop_task_switching2,2021.2.3,59.99977202706977,
,,,黄,red,j,square,color_mix,单词,,incompatible,2,block_switch1,instruction/ready_test.png,instruction/i11.png,,,,,,,,,,,,,,,,,0,0,0,0,0,6,6,6,,,,,,,,,,,,,,,,,,,,,,,,,,,443.786034299992,443.9874131999677,443.96964020002633,444.270500499988,444.270500499988,None,444.7709839999443,None,j,1,1.0775685999542475,444.7709839999443,None,None,None,,,,,,,,,,,,,,,,,,,,,,,11006,2,1,2024_Jun_06_1454,stroop_task_switching2,2021.2.3,59.99977202706977,
,,,绿,green,k,square,color_mix,单词,,compatible,1,block_switch1,instruction/ready_test.png,instruction/i11.png,,,,,,,,,,,,,,,,,0,0,0,0,0,7,7,7,,,,,,,,,,,,,,,,,,,,,,,,,,,445.87243430002127,446.0727311000228,446.0568677999545,446.3577888000291,446.3577888000291,None,446.8574784999946,None,k,1,1.623140300041996,446.8574784999946,None,None,None,,,,,,,,,,,,,,,,,,,,,,,11006,2,1,2024_Jun_06_1454,stroop_task_switching2,2021.2.3,59.99977202706977,
,,,蓝,blue,f,square,color_mix,单词,,compatible,1,block_switch1,instruction/ready_test.png,instruction/i11.png,,,,,,,,,,,,,,,,,0,0,0,0,0,8,8,8,,,,,,,,,,,,,,,,,,,,,,,,,,,448.5273801999865,448.7276975000277,448.69348779995926,448.9940464999527,448.9940464999527,None,449.49453939998057,None,f,1,0.8101587999844924,449.49453939998057,None,None,None,,,,,,,,,,,,,,,,,,,,,,,11006,2,1,2024_Jun_06_1454,stroop_task_switching2,2021.2.3,59.99977202706977,
,,,红,red,d,diamond,color_mix,颜色,,compatible,2,block_switch1,instruction/ready_test.png,instruction/i11.png,,,,,,,,,,,,,,,,,0,0,0,0,0,9,9,9,,,,,,,,,,,,,,,,,,,,,,,,,,,450.32932639995124,450.5301464999793,450.51422150002327,450.81312649999745,450.81312649999745,None,451.3140981999459,None,d,1,0.5507187000475824,451.3140981999459,None,None,None,,,,,,,,,,,,,,,,,,,,,,,11006,2,1,2024_Jun_06_1454,stroop_task_switching2,2021.2.3,59.99977202706977,
,,,黄,yellow,j,diamond,color_mix,颜色,,compatible,1,block_switch1,instruction/ready_test.png,instruction/i11.png,,,,,,,,,,,,,,,,,0,0,0,0,0,10,10,10,,,,,,,,,,,,,,,,,,,,,,,,,,,451.88148360000923,452.0823611000087,452.06540620001033,452.3666355999885,452.3666355999885,None,452.86644150002394,None,f,0,1.5104893998941407,452.86644150002394,None,None,None,,,,,,,,,,,,,,,,,,,,,,,11006,2,1,2024_Jun_06_1454,stroop_task_switching2,2021.2.3,59.99977202706977,
,,,绿,green,k,square,color_mix,单词,,compatible,2,block_switch1,instruction/ready_test.png,instruction/i11.png,,,,,,,,,,,,,,,,,0,0,0,0,0,11,11,11,,,,,,,,,,,,,,,,,,,,,,,,,,,454.40202899998985,454.60252039995976,454.5873065999476,454.8860816999804,454.8860816999804,None,455.3870231000474,None,k,1,1.1581417999695987,455.3870231000474,None,None,None,,,,,,,,,,,,,,,,,,,,,,,11006,2,1,2024_Jun_06_1454,stroop_task_switching2,2021.2.3,59.99977202706977,
,,,红,red,d,diamond,color_mix,颜色,,compatible,2,block_switch1,instruction/ready_test.png,instruction/i11.png,,,,,,,,,,,,,,,,,0,0,0,0,0,12,12,12,,,,,,,,,,,,,,,,,,,,,,,,,,,456.57215450005606,456.7723179999739,456.75737360003404,457.0732358000241,457.05686330003664,None,457.55825260002166,None,d,1,0.5788467000238597,457.55825260002166,None,None,None,,,,,,,,,,,,,,,,,,,,,,,11006,2,1,2024_Jun_06_1454,stroop_task_switching2,2021.2.3,59.99977202706977,
,,,红,red,d,diamond,color_mix,颜色,,compatible,1,block_switch1,instruction/ready_test.png,instruction/i11.png,,,,,,,,,,,,,,,,,0,0,0,0,0,13,13,13,,,,,,,,,,,,,,,,,,,,,,,,,,,458.1576632000506,458.35845820000395,458.34166449995246,458.6443368999753,458.6443368999753,None,459.1426925000269,None,d,1,0.8021644999971613,459.1426925000269,None,None,None,,,,,,,,,,,,,,,,,,,,,,,11006,2,1,2024_Jun_06_1454,stroop_task_switching2,2021.2.3,59.99977202706977,
,,,黄,yellow,j,square,color_mix,单词,,compatible,2,block_switch1,instruction/ready_test.png,instruction/i11.png,,,,,,,,,,,,,,,,,0,0,0,0,0,14,14,14,,,,,,,,,,,,,,,,,,,,,,,,,,,459.96022150001954,460.1617746000411,460.14398860000074,460.4445109999506,460.4445109999506,None,460.9453970999457,None,j,1,2.343479899922386,460.9453970999457,None,None,None,,,,,,,,,,,,,,,,,,,,,,,11006,2,1,2024_Jun_06_1454,stroop_task_switching2,2021.2.3,59.99977202706977,
,,,红,green,k,diamond,color_mix,颜色,,incompatible,2,block_switch1,instruction/ready_test.png,instruction/i11.png,,,,,,,,,,,,,,,,,0,0,0,0,0,15,15,15,,,,,,,,,,,,,,,,,,,,,,,,,,,463.3154125000583,463.5157000999898,463.4999889000319,463.79932939994615,463.79932939994615,None,464.30043730000034,None,k,1,0.8123839000472799,464.30043730000034,None,None,None,,,,,,,,,,,,,,,,,,,,,,,11006,2,1,2024_Jun_06_1454,stroop_task_switching2,2021.2.3,59.99977202706977,
,,,蓝,red,d,diamond,color_mix,颜色,,incompatible,1,block_switch1,instruction/ready_test.png,instruction/i11.png,,,,,,,,,,,,,,,,,0,0,0,0,0,16,16,16,,,,,,,,,,,,,,,,,,,,,,,,,,,465.13498309999704,465.3354898999678,465.3185316999443,465.62032650003675,465.62032650003675,None,466.1196557000512,None,d,1,1.0574968999717385,466.1196557000512,None,None,None,,,,,,,,,,,,,,,,,,,,,,,11006,2,1,2024_Jun_06_1454,stroop_task_switching2,2021.2.3,59.99977202706977,
,,,黄,green,k,diamond,color_mix,颜色,,incompatible,1,block_switch1,instruction/ready_test.png,instruction/i11.png,,,,,,,,,,,,,,,,,0,0,0,0,0,17,17,17,,,,,,,,,,,,,,,,,,,,,,,,,,,467.20471970003564,467.40583119995426,467.38832999998704,467.6903555999743,467.6903555999743,None,468.189593099989,None,k,1,2.1075371999759227,468.189593099989,None,None,None,,,,,,,,,,,,,,,,,,,,,,,11006,2,1,2024_Jun_06_1454,stroop_task_switching2,2021.2.3,59.99977202706977,
,,,绿,green,k,diamond,color_mix,颜色,,compatible,1,block_switch1,instruction/ready_test.png,instruction/i11.png,,,,,,,,,,,,,,,,,0,0,0,0,0,18,18,18,,,,,,,,,,,,,,,,,,,,,,,,,,,470.34308320004493,470.5431586999912,470.5097406000132,470.8109504999593,470.8109504999593,None,471.31099360005464,None,k,1,0.6741617999505252,471.31099360005464,None,None,None,,,,,,,,,,,,,,,,,,,,,,,11006,2,1,2024_Jun_06_1454,stroop_task_switching2,2021.2.3,59.99977202706977,
,,,黄,red,d,diamond,color_mix,颜色,,incompatible,1,block_switch1,instruction/ready_test.png,instruction/i11.png,,,,,,,,,,,,,,,,,0,0,0,0,0,19,19,19,,,,,,,,,,,,,,,,,,,,,,,,,,,472.0120563999517,472.2141230000416,472.195387499989,472.4961247999454,472.4961247999454,None,472.99663179996423,None,d,1,1.1011107000522316,472.99663179996423,None,None,None,,,,,,,,,,,,,,,,,,,,,,,11006,2,1,2024_Jun_06_1454,stroop_task_switching2,2021.2.3,59.99977202706977,
,,,绿,yellow,k,square,color_mix,单词,,incompatible,2,block_switch1,instruction/ready_test.png,instruction/i11.png,,,,,,,,,,,,,,,,,0,0,0,0,0,20,20,20,,,,,,,,,,,,,,,,,,,,,,,,,,,474.1154815000482,474.3166489000432,474.2986652000109,474.5989809000166,474.5989809000166,None,475.10001209995244,None,k,1,1.6297598000383005,475.10001209995244,None,None,None,,,,,,,,,,,,,,,,,,,,,,,11006,2,1,2024_Jun_06_1454,stroop_task_switching2,2021.2.3,59.99977202706977,
,,,蓝,blue,f,diamond,color_mix,颜色,,compatible,2,block_switch1,instruction/ready_test.png,instruction/i11.png,,,,,,,,,,,,,,,,,0,0,0,0,0,21,21,21,,,,,,,,,,,,,,,,,,,,,,,,,,,476.7524822000414,476.95278439996764,476.93825590005144,477.2533320999937,477.23760170000605,None,477.7372195000062,None,f,1,0.7443831000709906,477.7372195000062,None,None,None,,,,,,,,,,,,,,,,,,,,,,,11006,2,1,2024_Jun_06_1454,stroop_task_switching2,2021.2.3,59.99977202706977,
,,,绿,green,k,square,color_mix,单词,,compatible,2,block_switch1,instruction/ready_test.png,instruction/i11.png,,,,,,,,,,,,,,,,,0,0,0,0,0,22,22,22,,,,,,,,,,,,,,,,,,,,,,,,,,,478.50528749998193,478.7051709999796,478.69045350002125,478.9891730999807,478.9891730999807,None,479.4899909000378,None,k,1,1.4235228000907227,479.4899909000378,None,None,None,,,,,,,,,,,,,,,,,,,,,,,11006,2,1,2024_Jun_06_1454,stroop_task_switching2,2021.2.3,59.99977202706977,
,,,红,red,d,square,color_mix,单词,,compatible,1,block_switch1,instruction/ready_test.png,instruction/i11.png,,,,,,,,,,,,,,,,,0,0,0,0,0,23,23,23,,,,,,,,,,,,,,,,,,,,,,,,,,,480.94199399999343,481.1445017999504,481.12568910000846,481.42602949996945,481.42602949996945,None,481.9269785999786,None,d,1,0.8185482999542728,481.9269785999786,None,None,None,,,,,,,,,,,,,,,,,,,,,,,11006,2,1,2024_Jun_06_1454,stroop_task_switching2,2021.2.3,59.99977202706977,
,,,黄,green,j,square,color_mix,单词,,incompatible,1,block_switch1,instruction/ready_test.png,instruction/i11.png,,,,,,,,,,,,,,,,,0,0,0,0,0,24,24,24,,,,,,,,,,,,,,,,,,,,,,,,,,,482.7614072000142,482.96182900003623,482.94524529995397,483.24647110002115,483.24647110002115,None,483.7463827000465,None,j,1,0.8233171000611037,483.7463827000465,None,None,None,,,,,,,,,,,,,,,,,,,,,,,11006,2,1,2024_Jun_06_1454,stroop_task_switching2,2021.2.3,59.99977202706977,
,,,红,blue,d,square,color_mix,单词,,incompatible,1,block_switch1,instruction/ready_test.png,instruction/i11.png,,,,,,,,,,,,,,,,,0,0,0,0,0,25,25,25,,,,,,,,,,,,,,,,,,,,,,,,,,,484.5978958000196,484.7982011999702,484.7811938000377,485.0827095999848,485.0827095999848,None,485.5823787000263,None,f,0,0.8435207000002265,485.5823787000263,None,None,None,,,,,,,,,,,,,,,,,,,,,,,11006,2,1,2024_Jun_06_1454,stroop_task_switching2,2021.2.3,59.99977202706977,
,,,黄,yellow,j,square,color_mix,单词,,compatible,1,block_switch1,instruction/ready_test.png,instruction/i11.png,,,,,,,,,,,,,,,,,0,0,0,0,0,26,26,26,,,,,,,,,,,,,,,,,,,,,,,,,,,486.45040750002954,486.65142590005416,486.6339947000379,486.93455380003434,486.93455380003434,None,487.4353019000264,None,k,0,0.9584596999920905,487.4353019000264,None,None,None,,,,,,,,,,,,,,,,,,,,,,,11006,2,1,2024_Jun_06_1454,stroop_task_switching2,2021.2.3,59.99977202706977,
,,,蓝,green,f,square,color_mix,单词,,incompatible,1,block_switch1,instruction/ready_test.png,instruction/i11.png,,,,,,,,,,,,,,,,,0,0,0,0,0,27,27,27,,,,,,,,,,,,,,,,,,,,,,,,,,,488.4200838999823,488.62081710004713,488.60355740005616,488.90426440001465,488.90426440001465,None,489.40495760005433,None,f,1,1.2847211000043899,489.40495760005433,None,None,None,,,,,,,,,,,,,,,,,,,,,,,11006,2,1,2024_Jun_06_1454,stroop_task_switching2,2021.2.3,59.99977202706977,
,,,绿,green,k,diamond,color_mix,颜色,,compatible,2,block_switch1,instruction/ready_test.png,instruction/i11.png,,,,,,,,,,,,,,,,,0,0,0,0,0,28,28,28,,,,,,,,,,,,,,,,,,,,,,,,,,,490.7067602999741,490.90737499995157,490.8917530999752,491.19077820004895,491.19077820004895,None,491.6914484000299,None,k,1,0.8702884999802336,491.6914484000299,None,None,None,,,,,,,,,,,,,,,,,,,,,,,11006,2,1,2024_Jun_06_1454,stroop_task_switching2,2021.2.3,59.99977202706977,
,,,黄,blue,f,diamond,color_mix,颜色,,incompatible,1,block_switch1,instruction/ready_test.png,instruction/i11.png,,,,,,,,,,,,,,,,,0,0,0,0,0,29,29,29,,,,,,,,,,,,,,,,,,,,,,,,,,,492.5927548999898,492.79305580002256,492.77755470003467,493.07780820003245,493.07780820003245,None,493.5776907999534,None,f,1,0.624281800002791,493.5776907999534,None,None,None,,,,,,,,,,,,,,,,,,,,,,,11006,2,1,2024_Jun_06_1454,stroop_task_switching2,2021.2.3,59.99977202706977,
,,,绿,green,k,diamond,color_mix,颜色,,compatible,1,block_switch1,instruction/ready_test.png,instruction/i11.png,,,,,,,,,,,,,,,,,0,0,0,0,0,30,30,30,,,,,,,,,,,,,,,,,,,,,,,,,,,494.2291406999575,494.4290311000077,494.4134621999692,494.712905399967,494.712905399967,None,495.2136766000185,None,k,1,0.9080829999875277,495.2136766000185,None,None,None,,,,,,,,,,,,,,,,,,,,,,,11006,2,1,2024_Jun_06_1454,stroop_task_switching2,2021.2.3,59.99977202706977,
,,,蓝,blue,f,square,color_mix,单词,,compatible,2,block_switch1,instruction/ready_test.png,instruction/i11.png,,,,,,,,,,,,,,,,,0,0,0,0,0,31,31,31,,,,,,,,,,,,,,,,,,,,,,,,,,,496.1486067000078,496.34860799997114,496.3320145000471,496.63328349997755,496.63328349997755,None,497.13319289998617,None,f,1,0.6768233000766486,497.13319289998617,None,None,None,,,,,,,,,,,,,,,,,,,,,,,11006,2,1,2024_Jun_06_1454,stroop_task_switching2,2021.2.3,59.99977202706977,
,,,红,red,d,square,color_mix,单词,,compatible,1,block_switch1,instruction/ready_test.png,instruction/i11.png,,,,,,,,,,,,,,,,,0,0,0,0,0,32,32,32,,,,,,,,,,,,,,,,,,,,,,,,,,,497.83416900003795,498.03593020001426,498.01777020003647,498.3184222000418,498.3184222000418,None,498.81941330002155,None,d,1,0.5745921999914572,498.81941330002155,None,None,None,,,,,,,,,,,,,,,,,,,,,,,11006,2,1,2024_Jun_06_1454,stroop_task_switching2,2021.2.3,59.99977202706977,
,,,红,green,d,square,color_mix,单词,,incompatible,1,block_switch1,instruction/ready_test.png,instruction/i11.png,,,,,,,,,,,,,,,,,0,0,0,0,0,33,33,33,,,,,,,,,,,,,,,,,,,,,,,,,,,499.4199354000157,499.620420500054,499.60373520001303,499.9041684999829,499.9041684999829,None,500.4047301999526,None,k,0,0.7251348999561742,500.4047301999526,None,None,None,,,,,,,,,,,,,,,,,,,,,,,11006,2,1,2024_Jun_06_1454,stroop_task_switching2,2021.2.3,59.99977202706977,
,,,黄,yellow,j,diamond,color_mix,颜色,,compatible,2,block_switch1,instruction/ready_test.png,instruction/i11.png,,,,,,,,,,,,,,,,,0,0,0,0,0,34,34,34,,,,,,,,,,,,,,,,,,,,,,,,,,,501.1558902000543,501.35639850003645,501.33997740002815,501.6409805000294,501.6409805000294,None,502.14088830002584,None,j,1,0.6211081999354064,502.14088830002584,None,None,None,,,,,,,,,,,,,,,,,,,,,,,11006,2,1,2024_Jun_06_1454,stroop_task_switching2,2021.2.3,59.99977202706977,
,,,红,green,k,diamond,color_mix,颜色,,incompatible,1,block_switch1,instruction/ready_test.png,instruction/i11.png,,,,,,,,,,,,,,,,,0,0,0,0,0,35,35,35,,,,,,,,,,,,,,,,,,,,,,,,,,,502.79174440004863,502.9921866999939,502.97651189996395,503.2774525999557,503.2774525999557,None,503.7763290000148,None,k,1,0.7221646000398323,503.7763290000148,None,None,None,,,,,,,,,,,,,,,,,,,,,,,11006,2,1,2024_Jun_06_1454,stroop_task_switching2,2021.2.3,59.99977202706977,
,,,黄,yellow,j,square,color_mix,单词,,compatible,2,block_switch1,instruction/ready_test.png,instruction/i11.png,,,,,,,,,,,,,,,,,0,0,0,0,0,36,36,36,,,,,,,,,,,,,,,,,,,,,,,,,,,504.52762039995287,504.7286183000542,504.7112228999613,505.01166249997914,505.01166249997914,None,505.5124005000107,None,j,1,1.4819977000588551,505.5124005000107,None,None,None,,,,,,,,,,,,,,,,,,,,,,,11006,2,1,2024_Jun_06_1454,stroop_task_switching2,2021.2.3,59.99977202706977,
,,,蓝,blue,f,square,color_mix,单词,,compatible,1,block_switch1,instruction/ready_test.png,instruction/i11.png,,,,,,,,,,,,,,,,,0,0,0,0,0,37,37,37,,,,,,,,,,,,,,,,,,,,,,,,,,,507.0147267000284,507.21511370001826,507.1984193000244,507.4988298000535,507.4988298000535,None,507.9993936000392,None,f,1,0.7708966999780387,507.9993936000392,None,None,None,,,,,,,,,,,,,,,,,,,,,,,11006,2,1,2024_Jun_06_1454,stroop_task_switching2,2021.2.3,59.99977202706977,
,,,绿,red,d,diamond,color_mix,颜色,,incompatible,2,block_switch1,instruction/ready_test.png,instruction/i11.png,,,,,,,,,,,,,,,,,0,0,0,0,0,38,38,38,,,,,,,,,,,,,,,,,,,,,,,,,,,508.80100390000734,509.00215580000076,508.98427270003594,509.2846634000307,509.2846634000307,None,509.7856490999693,None,d,1,1.3206842999206856,509.7856490999693,None,None,None,,,,,,,,,,,,,,,,,,,,,,,11006,2,1,2024_Jun_06_1454,stroop_task_switching2,2021.2.3,59.99977202706977,
,,,黄,yellow,j,diamond,color_mix,颜色,,compatible,1,block_switch1,instruction/ready_test.png,instruction/i11.png,,,,,,,,,,,,,,,,,0,0,0,0,0,39,39,39,,,,,,,,,,,,,,,,,,,,,,,,,,,511.12080429994967,511.3210507000331,511.3061128000263,511.6051003000466,511.6051003000466,None,512.1063938000007,None,j,1,1.0804038000060245,512.1063938000007,None,None,None,,,,,,,,,,,,,,,,,,,,,,,11006,2,1,2024_Jun_06_1454,stroop_task_switching2,2021.2.3,59.99977202706977,
,,,红,blue,f,diamond,color_mix,颜色,,incompatible,1,block_switch1,instruction/ready_test.png,instruction/i11.png,,,,,,,,,,,,,,,,,0,0,0,0,0,40,40,40,,,,,,,,,,,,,,,,,,,,,,,,,,,513.2073798000347,513.4082608999452,513.391585299978,513.6943902999628,513.6943902999628,None,514.1923534000525,None,f,1,0.6904206000035629,514.1923534000525,None,None,None,,,,,,,,,,,,,,,,,,,,,,,11006,2,1,2024_Jun_06_1454,stroop_task_switching2,2021.2.3,59.99977202706977,
,,,绿,blue,k,square,color_mix,单词,,incompatible,2,block_switch1,instruction/ready_test.png,instruction/i11.png,,,,,,,,,,,,,,,,,0,0,0,0,0,41,41,41,,,,,,,,,,,,,,,,,,,,,,,,,,,514.9100390999811,515.1116778999567,515.0936969999457,515.3941782000475,515.3941782000475,None,515.8954774000449,None,k,1,1.451559599954635,515.8954774000449,None,None,None,,,,,,,,,,,,,,,,,,,,,,,11006,2,1,2024_Jun_06_1454,stroop_task_switching2,2021.2.3,59.99977202706977,
,,,绿,yellow,j,diamond,color_mix,颜色,,incompatible,2,block_switch1,instruction/ready_test.png,instruction/i11.png,,,,,,,,,,,,,,,,,0,0,0,0,0,42,42,42,,,,,,,,,,,,,,,,,,,,,,,,,,,517.3635362000205,517.5656821000157,517.5472059999593,517.8499535999727,517.8499535999727,None,518.3484092999715,None,j,1,1.358159799943678,518.3484092999715,None,None,None,,,,,,,,,,,,,,,,,,,,,,,11006,2,1,2024_Jun_06_1454,stroop_task_switching2,2021.2.3,59.99977202706977,
,,,红,blue,d,square,color_mix,单词,,incompatible,2,block_switch1,instruction/ready_test.png,instruction/i11.png,,,,,,,,,,,,,,,,,0,0,0,0,0,43,43,43,,,,,,,,,,,,,,,,,,,,,,,,,,,519.7336807999527,519.935525799985,519.917532499996,520.2181802999694,520.2181802999694,None,520.7185886000516,None,d,1,1.1801256000762805,520.7185886000516,None,None,None,,,,,,,,,,,,,,,,,,,,,,,11006,2,1,2024_Jun_06_1454,stroop_task_switching2,2021.2.3,59.99977202706977,
,,,蓝,green,k,diamond,color_mix,颜色,,incompatible,2,block_switch1,instruction/ready_test.png,instruction/i11.png,,,,,,,,,,,,,,,,,0,0,0,0,0,44,44,44,,,,,,,,,,,,,,,,,,,,,,,,,,,521.9205473000184,522.1205975000048,522.1045285,522.4046201000456,522.4046201000456,None,522.9054131000303,None,k,1,1.6972498999675736,522.9054131000303,None,None,None,,,,,,,,,,,,,,,,,,,,,,,11006,2,1,2024_Jun_06_1454,stroop_task_switching2,2021.2.3,59.99977202706977,
,,,黄,yellow,j,square,color_mix,单词,,compatible,2,block_switch1,instruction/ready_test.png,instruction/i11.png,,,,,,,,,,,,,,,,,0,0,0,0,0,45,45,45,,,,,,,,,,,,,,,,,,,,,,,,,,,524.6247482999461,524.8256253000582,524.8082306999713,525.1086886000121,525.1086886000121,None,525.60913170001,None,j,1,1.2817196999676526,525.60913170001,None,None,None,,,,,,,,,,,,,,,,,,,,,,,11006,2,1,2024_Jun_06_1454,stroop_task_switching2,2021.2.3,59.99977202706977,
,,,黄,yellow,j,diamond,color_mix,颜色,,compatible,2,block_switch1,instruction/ready_test.png,instruction/i11.png,,,,,,,,,,,,,,,,,0,0,0,0,0,46,46,46,,,,,,,,,,,,,,,,,,,,,,,,,,,526.9111251999857,527.1120200000005,527.0948566000443,527.3960630999645,527.3960630999645,None,527.8964129999513,None,j,1,0.5551211000420153,527.8964129999513,None,None,None,,,,,,,,,,,,,,,,,,,,,,,11006,2,1,2024_Jun_06_1454,stroop_task_switching2,2021.2.3,59.99977202706977,
,,,绿,red,k,square,color_mix,单词,,incompatible,2,block_switch1,instruction/ready_test.png,instruction/i11.png,,,,,,,,,,,,,,,,,0,0,0,0,0,47,47,47,,,,,,,,,,,,,,,,,,,,,,,,,,,528.4804327000165,528.6812337000156,528.6647947999882,528.9649672999512,528.9649672999512,None,529.4653131000232,None,k,1,2.0174659000476822,529.4653131000232,None,None,None,,,,,,,,,,,,,,,,,,,,,,,11006,2,1,2024_Jun_06_1454,stroop_task_switching2,2021.2.3,59.99977202706977,
,,,红,red,d,diamond,color_mix,颜色,,compatible,2,block_switch1,instruction/ready_test.png,instruction/i11.png,,,,,,,,,,,,,,,,,0,0,0,0,0,48,48,48,,,,,,,,,,,,,,,,,,,,,,,,,,,531.5014840000076,531.7034358000383,531.6862895999802,531.9865099999588,531.9865099999588,None,532.4865102999611,None,k,0,0.9646512999897823,532.4865102999611,None,None,None,,,,,,,,,,,,,,,,,,,,,,,11006,2,1,2024_Jun_06_1454,stroop_task_switching2,2021.2.3,59.99977202706977,
,,,蓝,blue,f,diamond,color_mix,颜色,,compatible,1,block_switch1,instruction/ready_test.png,instruction/i11.png,,,,,,,,,,,,,,,,,0,0,0,0,0,49,49,49,,,,,,,,,,,,,,,,,,,,,,,,,,,533.4716975999763,533.6724259000039,533.6548751000082,533.9560060000513,533.9560060000513,None,534.4559888000367,None,f,1,1.2428010000148788,534.4559888000367,None,None,None,,,,,,,,,,,,,,,,,,,,,,,11006,2,1,2024_Jun_06_1454,stroop_task_switching2,2021.2.3,59.99977202706977,
,,,黄,yellow,j,diamond,color_mix,颜色,,compatible,1,block_switch1,instruction/ready_test.png,instruction/i11.png,,,,,,,,,,,,,,,,,0,0,0,0,0,50,50,50,,,,,,,,,,,,,,,,,,,,,,,,,,,535.7245234999573,535.9251229000511,535.9099604999647,536.2087041999912,536.2087041999912,None,536.709792300011,None,j,1,1.1013627999927849,536.709792300011,None,None,None,,,,,,,,,,,,,,,,,,,,,,,11006,2,1,2024_Jun_06_1454,stroop_task_switching2,2021.2.3,59.99977202706977,
,,,红,blue,f,diamond,color_mix,颜色,,incompatible,1,block_switch1,instruction/ready_test.png,instruction/i11.png,,,,,,,,,,,,,,,,,0,0,0,0,0,51,51,51,,,,,,,,,,,,,,,,,,,,,,,,,,,537.8278078000294,538.0289589000167,538.0129096000455,538.3288428999949,538.313612399972,None,538.8140099999728,None,f,1,1.1090419000247493,538.8140099999728,None,None,None,,,,,,,,,,,,,,,,,,,,,,,11006,2,1,2024_Jun_06_1454,stroop_task_switching2,2021.2.3,59.99977202706977,
,,,蓝,yellow,j,diamond,color_mix,颜色,,incompatible,1,block_switch1,instruction/ready_test.png,instruction/i11.png,,,,,,,,,,,,,,,,,0,0,0,0,0,52,52,52,,,,,,,,,,,,,,,,,,,,,,,,,,,539.9476085000206,540.1484471999574,540.1311938000144,540.4326769999461,540.4326769999461,None,540.9324580000248,None,j,1,1.0945566999725997,540.9324580000248,None,None,None,,,,,,,,,,,,,,,,,,,,,,,11006,2,1,2024_Jun_06_1454,stroop_task_switching2,2021.2.3,59.99977202706977,
,,,黄,blue,j,square,color_mix,单词,,incompatible,2,block_switch1,instruction/ready_test.png,instruction/i11.png,,,,,,,,,,,,,,,,,0,0,0,0,0,53,53,53,,,,,,,,,,,,,,,,,,,,,,,,,,,542.0509497999446,542.2512501999736,542.2345589000033,542.534884499968,542.534884499968,None,543.0361263999948,None,j,1,0.991269399994053,543.0361263999948,None,None,None,,,,,,,,,,,,,,,,,,,,,,,11006,2,1,2024_Jun_06_1454,stroop_task_switching2,2021.2.3,59.99977202706977,
,,,蓝,blue,f,diamond,color_mix,颜色,,compatible,2,block_switch1,instruction/ready_test.png,instruction/i11.png,,,,,,,,,,,,,,,,,0,0,0,0,0,54,54,54,,,,,,,,,,,,,,,,,,,,,,,,,,,544.0539345999714,544.2542324999813,544.237576100044,544.5383690999588,544.5383690999588,None,545.0387571000028,None,f,1,1.004350799950771,545.0387571000028,None,None,None,,,,,,,,,,,,,,,,,,,,,,,11006,2,1,2024_Jun_06_1454,stroop_task_switching2,2021.2.3,59.99977202706977,
,,,红,yellow,d,square,color_mix,单词,,incompatible,2,block_switch1,instruction/ready_test.png,instruction/i11.png,,,,,,,,,,,,,,,,,0,0,0,0,0,55,55,55,,,,,,,,,,,,,,,,,,,,,,,,,,,546.0735038999701,546.2751720000524,546.2572396999458,546.5574662999716,546.5574662999716,None,547.0583954999456,None,d,1,0.7051057999487966,547.0583954999456,None,None,None,,,,,,,,,,,,,,,,,,,,,,,11006,2,1,2024_Jun_06_1454,stroop_task_switching2,2021.2.3,59.99977202706977,
,,,蓝,red,f,square,color_mix,单词,,incompatible,1,block_switch1,instruction/ready_test.png,instruction/i11.png,,,,,,,,,,,,,,,,,0,0,0,0,0,56,56,56,,,,,,,,,,,,,,,,,,,,,,,,,,,547.792920100037,547.9931841000216,547.9774780999869,548.277519700001,548.277519700001,None,548.7777360000182,551.7825116999447,None,0,,548.7777360000182,551.7825116999447,551.7655750999693,None,,,,,,,,,,,,,,,,,,,,,,,11006,2,1,2024_Jun_06_1454,stroop_task_switching2,2021.2.3,59.99977202706977,
,,,蓝,blue,f,square,color_mix,单词,,compatible,1,block_switch1,instruction/ready_test.png,instruction/i11.png,,,,,,,,,,,,,,,,,0,0,0,0,0,57,57,57,,,,,,,,,,,,,,,,,,,,,,,,,,,552.4836163000436,552.6850046999753,552.6669398000231,552.9671166000189,552.9671166000189,None,553.4681676999899,None,f,1,0.8554512000409886,553.4681676999899,None,None,None,,,,,,,,,,,,,,,,,,,,,,,11006,2,1,2024_Jun_06_1454,stroop_task_switching2,2021.2.3,59.99977202706977,
,,,蓝,red,d,diamond,color_mix,颜色,,incompatible,2,block_switch1,instruction/ready_test.png,instruction/i11.png,,,,,,,,,,,,,,,,,0,0,0,0,0,58,58,58,,,,,,,,,,,,,,,,,,,,,,,,,,,554.3532017000252,554.5540487000253,554.5362898999592,554.8367610999849,554.8367610999849,None,555.3374812999973,None,d,1,1.0501642000162974,555.3374812999973,None,None,None,,,,,,,,,,,,,,,,,,,,,,,11006,2,1,2024_Jun_06_1454,stroop_task_switching2,2021.2.3,59.99977202706977,
,,,绿,green,k,diamond,color_mix,颜色,,compatible,1,block_switch1,instruction/ready_test.png,instruction/i11.png,,,,,,,,,,,,,,,,,0,0,0,0,0,59,59,59,,,,,,,,,,,,,,,,,,,,,,,,,,,556.4059013000224,556.6061961000087,556.5894124000333,556.8899221000029,556.8899221000029,None,557.3907055000309,None,k,1,0.7089842000277713,557.3907055000309,None,None,None,,,,,,,,,,,,,,,,,,,,,,,11006,2,1,2024_Jun_06_1454,stroop_task_switching2,2021.2.3,59.99977202706977,
,,,蓝,blue,f,diamond,color_mix,颜色,,compatible,1,block_switch1,instruction/ready_test.png,instruction/i11.png,,,,,,,,,,,,,,,,,0,0,0,0,0,60,60,60,,,,,,,,,,,,,,,,,,,,,,,,,,,558.1250935000135,558.3253693999723,558.3097105999477,558.6093153000111,558.6093153000111,None,559.1099968999624,None,f,1,0.5819660000270233,559.1099968999624,None,None,None,,,,,,,,,,,,,,,,,,,,,,,11006,2,1,2024_Jun_06_1454,stroop_task_switching2,2021.2.3,59.99977202706977,
,,,黄,yellow,j,square,color_mix,单词,,compatible,2,block_switch1,instruction/ready_test.png,instruction/i11.png,,,,,,,,,,,,,,,,,0,0,0,0,0,61,61,61,,,,,,,,,,,,,,,,,,,,,,,,,,,559.710956600029,559.9118012000108,559.8945135000395,560.1950566000305,560.1950566000305,None,560.6958939000033,None,j,1,0.5078439000062644,560.6958939000033,None,None,None,,,,,,,,,,,,,,,,,,,,,,,11006,2,1,2024_Jun_06_1454,stroop_task_switching2,2021.2.3,59.99977202706977,
,,,绿,blue,k,square,color_mix,单词,,incompatible,1,block_switch1,instruction/ready_test.png,instruction/i11.png,,,,,,,,,,,,,,,,,0,0,0,0,0,62,62,62,,,,,,,,,,,,,,,,,,,,,,,,,,,561.2297770000296,561.4302689000033,561.4146339000436,561.7149097999791,561.7149097999791,None,562.2146378000034,None,k,1,0.8771880000131205,562.2146378000034,None,None,None,,,,,,,,,,,,,,,,,,,,,,,11006,2,1,2024_Jun_06_1454,stroop_task_switching2,2021.2.3,59.99977202706977,
,,,蓝,yellow,f,square,color_mix,单词,,incompatible,1,block_switch1,instruction/ready_test.png,instruction/i11.png,,,,,,,,,,,,,,,,,0,0,0,0,0,63,63,63,,,,,,,,,,,,,,,,,,,,,,,,,,,563.1161999000469,563.3179320000345,563.2996226999676,563.5999842999736,563.5999842999736,None,564.1010506999446,None,j,0,0.7827776999911293,564.1010506999446,None,None,None,,,,,,,,,,,,,,,,,,,,,,,11006,2,1,2024_Jun_06_1454,stroop_task_switching2,2021.2.3,59.99977202706977,
,,,黄,yellow,j,diamond,color_mix,颜色,,compatible,2,block_switch1,instruction/ready_test.png,instruction/i11.png,,,,,,,,,,,,,,,,,0,0,0,0,0,64,64,64,,,,,,,,,,,,,,,,,,,,,,,,,,,564.9019750000443,565.1034278000006,565.0856205000309,565.3869047999615,565.3869047999615,None,565.8868934999919,None,j,1,0.5567558000329882,565.8868934999919,None,None,None,,,,,,,,,,,,,,,,,,,,,,,11006,2,1,2024_Jun_06_1454,stroop_task_switching2,2021.2.3,59.99977202706977,
,,,蓝,green,k,diamond,color_mix,颜色,,incompatible,1,block_switch1,instruction/ready_test.png,instruction/i11.png,,,,,,,,,,,,,,,,,0,0,0,0,0,65,65,65,,,,,,,,,,,,,,,,,,,,,,,,,,,566.471128599951,566.6724664999638,566.6546462000115,566.955659899977,566.955659899977,None,567.4556129999692,None,k,1,0.6283870000625029,567.4556129999692,None,None,None,,,,,,,,,,,,,,,,,,,,,,,11006,2,1,2024_Jun_06_1454,stroop_task_switching2,2021.2.3,59.99977202706977,
,,,红,red,d,diamond,color_mix,颜色,,compatible,1,block_switch1,instruction/ready_test.png,instruction/i11.png,,,,,,,,,,,,,,,,,0,0,0,0,0,66,66,66,,,,,,,,,,,,,,,,,,,,,,,,,,,568.1068286000518,568.3079460000154,568.2904180999612,568.5909139000578,568.5909139000578,None,569.0915157999843,None,d,1,0.4405989000806585,569.0915157999843,None,None,None,,,,,,,,,,,,,,,,,,,,,,,11006,2,1,2024_Jun_06_1454,stroop_task_switching2,2021.2.3,59.99977202706977,
,,,蓝,yellow,f,square,color_mix,单词,,incompatible,2,block_switch1,instruction/ready_test.png,instruction/i11.png,,,,,,,,,,,,,,,,,0,0,0,0,0,67,67,67,,,,,,,,,,,,,,,,,,,,,,,,,,,569.5593393000308,569.7600093999645,569.7427303000586,570.0443215999985,570.0443215999985,None,570.5443109000335,None,f,1,0.7075335000408813,570.5443109000335,None,None,None,,,,,,,,,,,,,,,,,,,,,,,11006,2,1,2024_Jun_06_1454,stroop_task_switching2,2021.2.3,59.99977202706977,
,,,红,yellow,d,square,color_mix,单词,,incompatible,1,block_switch1,instruction/ready_test.png,instruction/i11.png,,,,,,,,,,,,,,,,,0,0,0,0,0,68,68,68,,,,,,,,,,,,,,,,,,,,,,,,,,,571.2783950000303,571.4789571999572,571.4624857000308,571.7631330000004,571.7631330000004,None,572.2631660000188,None,j,0,0.7967500999802724,572.2631660000188,None,None,None,,,,,,,,,,,,,,,,,,,,,,,11006,2,1,2024_Jun_06_1454,stroop_task_switching2,2021.2.3,59.99977202706977,
,,,红,yellow,j,diamond,color_mix,颜色,,incompatible,2,block_switch1,instruction/ready_test.png,instruction/i11.png,,,,,,,,,,,,,,,,,0,0,0,0,0,69,69,69,,,,,,,,,,,,,,,,,,,,,,,,,,,573.0811310999561,573.2828286000295,573.264819300035,573.5651408999693,573.5651408999693,None,574.0659114000155,None,d,0,0.5701592999976128,574.0659114000155,None,None,None,,,,,,,,,,,,,,,,,,,,,,,11006,2,1,2024_Jun_06_1454,stroop_task_switching2,2021.2.3,59.99977202706977,
,,,蓝,green,f,square,color_mix,单词,,incompatible,2,block_switch1,instruction/ready_test.png,instruction/i11.png,,,,,,,,,,,,,,,,,0,0,0,0,0,70,70,70,,,,,,,,,,,,,,,,,,,,,,,,,,,574.6666826000437,574.8680344000459,574.8504658000311,575.1514032999985,575.1514032999985,None,575.6516937999986,None,k,0,0.9844745000591502,575.6516937999986,None,None,None,,,,,,,,,,,,,,,,,,,,,,,11006,2,1,2024_Jun_06_1454,stroop_task_switching2,2021.2.3,59.99977202706977,
,,,绿,yellow,k,square,color_mix,单词,,incompatible,1,block_switch1,instruction/ready_test.png,instruction/i11.png,,,,,,,,,,,,,,,,,0,0,0,0,0,71,71,71,,,,,,,,,,,,,,,,,,,,,,,,,,,576.6532438000431,576.8535749999573,576.8383443000494,577.1370707999449,577.1370707999449,None,577.638004599954,None,j,0,1.182225099997595,577.638004599954,None,None,None,,,,,,,,,,,,,,,,,,,,,,,11006,2,1,2024_Jun_06_1454,stroop_task_switching2,2021.2.3,59.99977202706977,
,,,蓝,yellow,j,diamond,color_mix,颜色,,incompatible,2,block_switch1,instruction/ready_test.png,instruction/i11.png,,,,,,,,,,,,,,,,,0,0,0,0,0,72,72,72,,,,,,,,,,,,,,,,,,,,,,,,,,,578.8395708999597,579.040278899949,579.0245130000403,579.3239157999633,579.3239157999633,None,579.8245486000087,None,j,1,1.2999249999411404,579.8245486000087,None,None,None,,,,,,,,,,,,,,,,,,,,,,,11006,2,1,2024_Jun_06_1454,stroop_task_switching2,2021.2.3,59.99977202706977,
,,,红,green,d,square,color_mix,单词,,incompatible,2,block_switch1,instruction/ready_test.png,instruction/i11.png,,,,,,,,,,,,,,,,,0,0,0,0,0,73,73,73,,,,,,,,,,,,,,,,,,,,,,,,,,,581.143260300043,581.344645199948,581.3267287999624,581.6276834999444,581.6276834999444,None,582.1277934999671,None,d,1,0.8446157000726089,582.1277934999671,None,None,None,,,,,,,,,,,,,,,,,,,,,,,11006,2,1,2024_Jun_06_1454,stroop_task_switching2,2021.2.3,59.99977202706977,
,,,绿,blue,f,diamond,color_mix,颜色,,incompatible,2,block_switch1,instruction/ready_test.png,instruction/i11.png,,,,,,,,,,,,,,,,,0,0,0,0,0,74,74,74,,,,,,,,,,,,,,,,,,,,,,,,,,,582.9959264999488,583.1982100999448,583.1795820000116,583.4800773999887,583.4800773999887,None,583.9807767999591,None,f,1,0.8159575000172481,583.9807767999591,None,None,None,,,,,,,,,,,,,,,,,,,,,,,11006,2,1,2024_Jun_06_1454,stroop_task_switching2,2021.2.3,59.99977202706977,
,,,红,red,d,square,color_mix,单词,,compatible,2,block_switch1,instruction/ready_test.png,instruction/i11.png,,,,,,,,,,,,,,,,,0,0,0,0,0,75,75,75,,,,,,,,,,,,,,,,,,,,,,,,,,,584.8154488999862,585.0167813999578,584.9990404000273,585.2993092000252,585.2993092000252,None,585.8003588999854,None,d,1,0.7243168000131845,585.8003588999854,None,None,None,,,,,,,,,,,,,,,,,,,,,,,11006,2,1,2024_Jun_06_1454,stroop_task_switching2,2021.2.3,59.99977202706977,
,,,绿,green,k,diamond,color_mix,颜色,,compatible,2,block_switch1,instruction/ready_test.png,instruction/i11.png,,,,,,,,,,,,,,,,,0,0,0,0,0,76,76,76,,,,,,,,,,,,,,,,,,,,,,,,,,,586.5513288000366,586.7516675000079,586.7371574999997,587.0548222999787,587.0355538999429,None,587.5362877999432,None,k,1,1.460247699986212,587.5362877999432,None,None,None,,,,,,,,,,,,,,,,,,,,,,,11006,2,1,2024_Jun_06_1454,stroop_task_switching2,2021.2.3,59.99977202706977,
,,,黄,red,j,square,color_mix,单词,,incompatible,2,block_switch1,instruction/ready_test.png,instruction/i11.png,,,,,,,,,,,,,,,,,0,0,0,0,0,77,77,77,,,,,,,,,,,,,,,,,,,,,,,,,,,589.0217789999442,589.2225053999573,589.2063085000264,589.5059765999904,589.5059765999904,None,590.006319200038,None,j,1,1.2142823999747634,590.006319200038,None,None,None,,,,,,,,,,,,,,,,,,,,,,,11006,2,1,2024_Jun_06_1454,stroop_task_switching2,2021.2.3,59.99977202706977,
,,,红,red,d,square,color_mix,单词,,compatible,1,block_switch1,instruction/ready_test.png,instruction/i11.png,,,,,,,,,,,,,,,,,0,0,0,0,0,78,78,78,,,,,,,,,,,,,,,,,,,,,,,,,,,591.2420795999933,591.4421531000407,591.4254455999471,591.7258730999893,591.7258730999893,None,592.2266245000064,None,d,1,0.5857385999988765,592.2266245000064,None,None,None,,,,,,,,,,,,,,,,,,,,,,,11006,2,1,2024_Jun_06_1454,stroop_task_switching2,2021.2.3,59.99977202706977,
,,,黄,yellow,j,square,color_mix,单词,,compatible,1,block_switch1,instruction/ready_test.png,instruction/i11.png,,,,,,,,,,,,,,,,,0,0,0,0,0,79,79,79,,,,,,,,,,,,,,,,,,,,,,,,,,,592.8440602000337,593.0444782000268,593.0277212000219,593.3298527000006,593.3298527000006,None,593.8290287000127,None,j,1,1.0156873000087216,593.8290287000127,None,None,None,,,,,,,,,,,,,,,,,,,,,,,11006,2,1,2024_Jun_06_1454,stroop_task_switching2,2021.2.3,59.99977202706977,
,,,红,red,d,diamond,color_mix,颜色,,compatible,2,block_switch1,instruction/ready_test.png,instruction/i11.png,,,,,,,,,,,,,,,,,0,0,0,0,0,80,80,80,,,,,,,,,,,,,,,,,,,,,,,,,,,594.8637740999693,595.0646604000358,595.0491276000394,595.3477015000535,595.3477015000535,None,595.8487133999588,None,d,1,0.780325600062497,595.8487133999588,None,None,None,,,,,,,,,,,,,,,,,,,,,,,11006,2,1,2024_Jun_06_1454,stroop_task_switching2,2021.2.3,59.99977202706977,
,,,红,red,d,square,color_mix,单词,,compatible,2,block_switch1,instruction/ready_test.png,instruction/i11.png,,,,,,,,,,,,,,,,,0,0,0,0,0,81,81,81,,,,,,,,,,,,,,,,,,,,,,,,,,,596.650033300044,596.8515064000385,596.8335703000193,597.135022399947,597.135022399947,None,597.6348319000099,None,d,1,0.7619872000068426,597.6348319000099,None,None,None,,,,,,,,,,,,,,,,,,,,,,,11006,2,1,2024_Jun_06_1454,stroop_task_switching2,2021.2.3,59.99977202706977,
,,,黄,blue,f,diamond,color_mix,颜色,,incompatible,2,block_switch1,instruction/ready_test.png,instruction/i11.png,,,,,,,,,,,,,,,,,0,0,0,0,0,82,82,82,,,,,,,,,,,,,,,,,,,,,,,,,,,598.4193929999601,598.6213416999672,598.6027567000128,598.903286100016,598.903286100016,None,599.4041661999654,None,f,1,1.0246894999872893,599.4041661999654,None,None,None,,,,,,,,,,,,,,,,,,,,,,,11006,2,1,2024_Jun_06_1454,stroop_task_switching2,2021.2.3,59.99977202706977,
,,,红,yellow,j,diamond,color_mix,颜色,,incompatible,1,block_switch1,instruction/ready_test.png,instruction/i11.png,,,,,,,,,,,,,,,,,0,0,0,0,0,83,83,83,,,,,,,,,,,,,,,,,,,,,,,,,,,600.4555589000229,600.6569881000323,600.6392539000371,600.9396076999838,600.9396076999838,None,601.4404761999613,None,j,1,0.9164035000139847,601.4404761999613,None,None,None,,,,,,,,,,,,,,,,,,,,,,,11006,2,1,2024_Jun_06_1454,stroop_task_switching2,2021.2.3,59.99977202706977,
,,,黄,red,d,diamond,color_mix,颜色,,incompatible,1,block_switch1,instruction/ready_test.png,instruction/i11.png,,,,,,,,,,,,,,,,,0,0,0,0,0,84,84,84,,,,,,,,,,,,,,,,,,,,,,,,,,,602.3752347000409,602.5755983999697,602.5594589000102,602.8593443999998,602.8593443999998,None,603.3601885000244,None,d,1,1.860847800038755,603.3601885000244,None,None,None,,,,,,,,,,,,,,,,,,,,,,,11006,2,1,2024_Jun_06_1454,stroop_task_switching2,2021.2.3,59.99977202706977,
,,,蓝,blue,f,square,color_mix,单词,,compatible,2,block_switch1,instruction/ready_test.png,instruction/i11.png,,,,,,,,,,,,,,,,,0,0,0,0,0,85,85,85,,,,,,,,,,,,,,,,,,,,,,,,,,,605.2460885000182,605.4468316000421,605.4296643000562,605.7308454000158,605.7308454000158,None,606.2321702999761,None,f,1,0.805051299976185,606.2321702999761,None,None,None,,,,,,,,,,,,,,,,,,,,,,,11006,2,1,2024_Jun_06_1454,stroop_task_switching2,2021.2.3,59.99977202706977,
,,,绿,green,k,square,color_mix,单词,,compatible,1,block_switch1,instruction/ready_test.png,instruction/i11.png,,,,,,,,,,,,,,,,,0,0,0,0,0,86,86,86,,,,,,,,,,,,,,,,,,,,,,,,,,,607.065468500019,607.2660492999712,607.249212799943,607.5499832000351,607.5499832000351,None,608.0505751000019,None,k,1,0.826571200042963,608.0505751000019,None,None,None,,,,,,,,,,,,,,,,,,,,,,,11006,2,1,2024_Jun_06_1454,stroop_task_switching2,2021.2.3,59.99977202706977,
,,,红,red,d,square,color_mix,单词,,compatible,1,block_switch1,instruction/ready_test.png,instruction/i11.png,,,,,,,,,,,,,,,,,0,0,0,0,0,87,87,87,,,,,,,,,,,,,,,,,,,,,,,,,,,608.90158039995,609.1020700000226,609.0870404000161,609.4021756000584,609.3862486999715,None,609.8868815000169,None,d,1,0.5344498999183998,609.8868815000169,None,None,None,,,,,,,,,,,,,,,,,,,,,,,11006,2,1,2024_Jun_06_1454,stroop_task_switching2,2021.2.3,59.99977202706977,
,,,黄,green,k,diamond,color_mix,颜色,,incompatible,2,block_switch1,instruction/ready_test.png,instruction/i11.png,,,,,,,,,,,,,,,,,0,0,0,0,0,88,88,88,,,,,,,,,,,,,,,,,,,,,,,,,,,610.43719159998,610.6384654999711,610.6207934999838,610.9213757000398,610.9213757000398,None,611.4225008999929,None,j,0,0.9189063999801874,611.4225008999929,None,None,None,,,,,,,,,,,,,,,,,,,,,,,11006,2,1,2024_Jun_06_1454,stroop_task_switching2,2021.2.3,59.99977202706977,
,,,绿,red,k,square,color_mix,单词,,incompatible,2,block_switch1,instruction/ready_test.png,instruction/i11.png,,,,,,,,,,,,,,,,,0,0,0,0,0,89,89,89,,,,,,,,,,,,,,,,,,,,,,,,,,,612.3570448999526,612.5572085999884,612.540674500051,612.8430739999749,612.8430739999749,None,613.3582531999564,None,d,0,0.8950437000021338,613.3582531999564,None,None,None,,,,,,,,,,,,,,,,,,,,,,,11006,2,1,2024_Jun_06_1454,stroop_task_switching2,2021.2.3,59.99977202706977,
,,,黄,green,j,square,color_mix,单词,,incompatible,1,block_switch1,instruction/ready_test.png,instruction/i11.png,,,,,,,,,,,,,,,,,0,0,0,0,0,90,90,90,,,,,,,,,,,,,,,,,,,,,,,,,,,614.2765671999659,614.4788456000388,614.4601235999726,614.761403099983,614.761403099983,None,615.2612487999722,None,k,0,0.8564520000945777,615.2612487999722,None,None,None,,,,,,,,,,,,,,,,,,,,,,,11006,2,1,2024_Jun_06_1454,stroop_task_switching2,2021.2.3,59.99977202706977,
,,,蓝,blue,f,square,color_mix,单词,,compatible,1,block_switch1,instruction/ready_test.png,instruction/i11.png,,,,,,,,,,,,,,,,,0,0,0,0,0,91,91,91,,,,,,,,,,,,,,,,,,,,,,,,,,,616.1459442999912,616.3469448999967,616.3296446000459,616.6301893000491,616.6301893000491,None,617.1311971000396,None,f,1,0.698041999945417,617.1311971000396,None,None,None,,,,,,,,,,,,,,,,,,,,,,,11006,2,1,2024_Jun_06_1454,stroop_task_switching2,2021.2.3,59.99977202706977,
,,,蓝,red,f,square,color_mix,单词,,incompatible,1,block_switch1,instruction/ready_test.png,instruction/i11.png,,,,,,,,,,,,,,,,,0,0,0,0,0,92,92,92,,,,,,,,,,,,,,,,,,,,,,,,,,,617.8484609000152,618.0496285000117,618.0322748000035,618.3330322999973,618.3330322999973,None,618.8332025000127,None,d,0,0.7719363999785855,618.8332025000127,None,None,None,,,,,,,,,,,,,,,,,,,,,,,11006,2,1,2024_Jun_06_1454,stroop_task_switching2,2021.2.3,59.99977202706977,
,,,黄,blue,j,square,color_mix,单词,,incompatible,1,block_switch1,instruction/ready_test.png,instruction/i11.png,,,,,,,,,,,,,,,,,0,0,0,0,0,93,93,93,,,,,,,,,,,,,,,,,,,,,,,,,,,619.6346321000019,619.8353678999702,619.8182826000266,620.1186572000152,620.1186572000152,None,620.6194857000373,None,f,0,1.0341869000112638,620.6194857000373,None,None,None,,,,,,,,,,,,,,,,,,,,,,,11006,2,1,2024_Jun_06_1454,stroop_task_switching2,2021.2.3,59.99977202706977,
,,,绿,red,d,diamond,color_mix,颜色,,incompatible,2,block_switch1,instruction/ready_test.png,instruction/i11.png,,,,,,,,,,,,,,,,,0,0,0,0,0,94,94,94,,,,,,,,,,,,,,,,,,,,,,,,,,,621.6709975999547,621.871165300021,621.8545791000361,622.1569253000198,622.1569253000198,None,622.6571966999909,None,d,1,1.9244163000257686,622.6571966999909,None,None,None,,,,,,,,,,,,,,,,,,,,,,,11006,2,1,2024_Jun_06_1454,stroop_task_switching2,2021.2.3,59.99977202706977,
,,,蓝,blue,f,diamond,color_mix,颜色,,compatible,1,block_switch1,instruction/ready_test.png,instruction/i11.png,,,,,,,,,,,,,,,,,0,0,0,0,0,95,95,95,,,,,,,,,,,,,,,,,,,,,,,,,,,624.6086901000235,624.8105881999945,624.7925115999533,625.0927913000342,625.0927913000342,None,625.5933498999802,None,f,1,0.6442607000935823,625.5933498999802,None,None,None,,,,,,,,,,,,,,,,,,,,,,,11006,2,1,2024_Jun_06_1454,stroop_task_switching2,2021.2.3,59.99977202706977,
,,,绿,green,k,square,color_mix,单词,,compatible,2,block_switch1,instruction/ready_test.png,instruction/i11.png,,,,,,,,,,,,,,,,,0,0,0,0,0,96,96,96,,,,,,,,,,,,,,,,,,,,,,,,,,,626.2611834000563,626.4623627000256,626.4449453999987,626.7453676000005,626.7453676000005,None,627.2461016000016,None,k,1,0.6314163999632001,627.2461016000016,None,None,None,,,,,,,,,,,,,,,,,,,,,,,11006,2,1,2024_Jun_06_1454,stroop_task_switching2,2021.2.3,59.99977202706977,
,,,,,,,,,,,,block_switch1,instruction/ready_test.png,instruction/i11.png,,,,,,,,,,,,,,,,,0,0,0,0,,,,,,,,,,,,,,,,,,,,,,,,,,,,,,,,,,,,,,,,,,,,,,,,,,,,,,,,,,,,627.8971147000557,None,space,12.692848999984562,627.8971147000557,None,,,11006,2,1,2024_Jun_06_1454,stroop_task_switching2,2021.2.3,59.99977202706977,
,,,蓝,blue,f,square,color_mix,单词,,compatible,0,block_switch2,instruction/ready_2.png,instruction/i12.png,,,,,,,,,,,,,,,,,0,1,1,1,0,0,0,0,,,,,,,,,,,,,,,,,,,642.2523287000367,643.2547498999629,643.2547498999629,644.2556850999827,644.2556850999827,None,641.2670771999983,642.2695765000535,645.2907642000355,645.4908723999979,645.4736669999547,645.7738594999537,645.7738594999537,None,646.2746899999911,None,f,1,0.619145100004971,646.2746899999911,None,None,None,,,,,,,,,640.632629300002,None,space,0.6138110000174493,640.632629300002,None,,,,,,,,,11006,2,1,2024_Jun_06_1454,stroop_task_switching2,2021.2.3,59.99977202706977,
,,,黄,red,d,diamond,color_mix,颜色,,incompatible,2,block_switch2,instruction/ready_2.png,instruction/i12.png,,,,,,,,,,,,,,,,,0,1,1,1,0,1,1,1,,,,,,,,,,,,,,,,,,,,,,,,,,,646.9435335999588,647.1432919000508,647.0926082000369,647.3938113000477,647.3938113000477,None,647.8937961000483,None,d,1,1.240376599947922,647.8937961000483,None,None,None,,,,,,,,,,,,,,,,,,,,,,,11006,2,1,2024_Jun_06_1454,stroop_task_switching2,2021.2.3,59.99977202706977,
,,,蓝,green,k,diamond,color_mix,颜色,,incompatible,1,block_switch2,instruction/ready_2.png,instruction/i12.png,,,,,,,,,,,,,,,,,0,1,1,1,0,2,2,2,,,,,,,,,,,,,,,,,,,,,,,,,,,649.1797108999453,649.3794997000368,649.3461383000249,649.6467897000257,649.6467897000257,None,650.1486845000181,None,k,1,0.6812041000230238,650.1486845000181,None,None,None,,,,,,,,,,,,,,,,,,,,,,,11006,2,1,2024_Jun_06_1454,stroop_task_switching2,2021.2.3,59.99977202706977,
,,,红,yellow,j,diamond,color_mix,颜色,,incompatible,1,block_switch2,instruction/ready_2.png,instruction/i12.png,,,,,,,,,,,,,,,,,0,1,1,1,0,3,3,3,,,,,,,,,,,,,,,,,,,,,,,,,,,650.84831999999,651.0496045999462,651.0320891999872,651.3322952999733,651.3322952999733,None,651.8330096000573,None,j,1,1.1094607000704855,651.8330096000573,None,None,None,,,,,,,,,,,,,,,,,,,,,,,11006,2,1,2024_Jun_06_1454,stroop_task_switching2,2021.2.3,59.99977202706977,
,,,红,red,d,diamond,color_mix,颜色,,compatible,1,block_switch2,instruction/ready_2.png,instruction/i12.png,,,,,,,,,,,,,,,,,0,1,1,1,0,4,4,4,,,,,,,,,,,,,,,,,,,,,,,,,,,652.968039899948,653.1686120999511,653.1517429000232,653.4519735999638,653.4519735999638,None,653.9533441000385,None,d,1,0.5569066000171006,653.9533441000385,None,None,None,,,,,,,,,,,,,,,,,,,,,,,11006,2,1,2024_Jun_06_1454,stroop_task_switching2,2021.2.3,59.99977202706977,
,,,绿,green,k,square,color_mix,单词,,compatible,2,block_switch2,instruction/ready_2.png,instruction/i12.png,,,,,,,,,,,,,,,,,0,1,1,1,0,5,5,5,,,,,,,,,,,,,,,,,,,,,,,,,,,654.5371756999521,654.7392288000556,654.7210942000384,655.0220948000206,655.0220948000206,None,655.5220099999569,None,k,1,0.6204268999863416,655.5220099999569,None,None,None,,,,,,,,,,,,,,,,,,,,,,,11006,2,1,2024_Jun_06_1454,stroop_task_switching2,2021.2.3,59.99977202706977,
,,,黄,blue,f,diamond,color_mix,颜色,,incompatible,2,block_switch2,instruction/ready_2.png,instruction/i12.png,,,,,,,,,,,,,,,,,0,1,1,1,0,6,6,6,,,,,,,,,,,,,,,,,,,,,,,,,,,656.1725488000084,656.3732648000587,656.3584704999812,656.674896499957,656.6570312000113,None,657.1580715000164,None,f,1,1.2162306000245735,657.1580715000164,None,None,None,,,,,,,,,,,,,,,,,,,,,,,11006,2,1,2024_Jun_06_1454,stroop_task_switching2,2021.2.3,59.99977202706977,
,,,绿,yellow,k,square,color_mix,单词,,incompatible,2,block_switch2,instruction/ready_2.png,instruction/i12.png,,,,,,,,,,,,,,,,,0,1,1,1,0,7,7,7,,,,,,,,,,,,,,,,,,,,,,,,,,,658.3929679000285,658.5941458999878,658.576923100045,658.8769427000079,658.8769427000079,None,659.3780075999675,None,k,1,0.9564849999733269,659.3780075999675,None,None,None,,,,,,,,,,,,,,,,,,,,,,,11006,2,1,2024_Jun_06_1454,stroop_task_switching2,2021.2.3,59.99977202706977,
,,,红,green,d,square,color_mix,单词,,incompatible,1,block_switch2,instruction/ready_2.png,instruction/i12.png,,,,,,,,,,,,,,,,,0,1,1,1,0,8,8,8,,,,,,,,,,,,,,,,,,,,,,,,,,,660.3626049000304,660.5631285000127,660.546166599961,660.8476610999787,660.8476610999787,None,661.3472701000283,None,d,1,1.39527870004531,661.3472701000283,None,None,None,,,,,,,,,,,,,,,,,,,,,,,11006,2,1,2024_Jun_06_1454,stroop_task_switching2,2021.2.3,59.99977202706977,
,,,黄,yellow,j,square,color_mix,单词,,compatible,1,block_switch2,instruction/ready_2.png,instruction/i12.png,,,,,,,,,,,,,,,,,0,1,1,1,0,9,9,9,,,,,,,,,,,,,,,,,,,,,,,,,,,662.7662152999546,662.9674900999526,662.9503389999736,663.2522717999527,663.2522717999527,None,663.7508352999575,None,j,1,0.6958536999300122,663.7508352999575,None,None,None,,,,,,,,,,,,,,,,,,,,,,,11006,2,1,2024_Jun_06_1454,stroop_task_switching2,2021.2.3,59.99977202706977,
