b_pra,ins_blocks,ins_blocks2,stim_word,stim_color,corrAns,cue_type,trial_type,task_type,rand,compatibility,switch,b_test,w_pic,w_pic2,trials_instr.thisRepN,trials_instr.thisTrialN,trials_instr.thisN,trials_instr.thisIndex,block_pra.thisRepN,block_pra.thisTrialN,block_pra.thisN,block_pra.thisIndex,trials_rep.thisRepN,trials_rep.thisTrialN,trials_rep.thisN,trials_rep.thisIndex,trials_pra.thisRepN,trials_pra.thisTrialN,trials_pra.thisN,trials_pra.thisIndex,trials_3.thisRepN,trials_3.thisTrialN,trials_3.thisN,trials_3.thisIndex,trials_2.thisRepN,trials_2.thisTrialN,trials_2.thisN,trials_2.thisIndex,instr_image.started,instr_image.stopped,instr_key_resp.keys,instr_key_resp.rt,instr_key_resp.started,instr_key_resp.stopped,instr_pra_image.started,instr_pra_image.stopped,ip_key_resp.keys,ip_key_resp.rt,ip_key_resp.started,ip_key_resp.stopped,block_image.started,block_image.stopped,ib_key_resp.keys,ib_key_resp.rt,ib_key_resp.started,ib_key_resp.stopped,cd3.started,cd3.stopped,cd2.started,cd2.stopped,cd1.started,cd1.stopped,cd_text.started,cd_text.stopped,text_fix.started,text_fix.stopped,text_2.started,text_2.stopped,text_4.started,text_4.stopped,text_target.started,text_target.stopped,key_resp.keys,key_resp.corr,key_resp.rt,key_resp.started,key_resp.stopped,sceen_black.started,sceen_black.stopped,text_fb.started,text_fb.stopped,text.started,text.stopped,key_bf.keys,key_bf.rt,key_bf.started,key_bf.stopped,instr_test_image.started,instr_test_image.stopped,instr_exp_key_resp.keys,instr_exp_key_resp.rt,instr_exp_key_resp.started,instr_exp_key_resp.stopped,text_rest.started,text_rest.stopped,key_resp_rest.keys,key_resp_rest.rt,key_resp_rest.started,key_resp_rest.stopped,text_3.started,text_3.stopped,participant,session,balance,date,expName,psychopyVersion,frameRate,
,,,,,,,,,,,,,,,0,0,0,0,,,,,,,,,,,,,,,,,,,,,8.982423100038432,None,right,1.7961629000492394,8.982423100038432,None,,,,,,,,,,,,,,,,,,,,,,,,,,,,,,,,,,,,,,,,,,,,,,,,,,,,,,,,,,11013,2,1,2024_Jun_04_1927,stroop_task_switching2,2021.2.3,60.005460482598394,
,,,,,,,,,,,,,,,1,0,1,0,,,,,,,,,,,,,,,,,,,,,10.817830000072718,None,right,46.29823089996353,10.817830000072718,None,,,,,,,,,,,,,,,,,,,,,,,,,,,,,,,,,,,,,,,,,,,,,,,,,,,,,,,,,,11013,2,1,2024_Jun_04_1927,stroop_task_switching2,2021.2.3,60.005460482598394,
,,,,,,,,,,,,,,,2,0,2,0,,,,,,,,,,,,,,,,,,,,,57.15487110009417,None,right,0.1686168999876827,57.15487110009417,None,,,,,,,,,,,,,,,,,,,,,,,,,,,,,,,,,,,,,,,,,,,,,,,,,,,,,,,,,,11013,2,1,2024_Jun_04_1927,stroop_task_switching2,2021.2.3,60.005460482598394,
,,,,,,,,,,,,,,,3,0,3,0,,,,,,,,,,,,,,,,,,,,,57.35549730004277,None,right,0.35195430007297546,57.35549730004277,None,,,,,,,,,,,,,,,,,,,,,,,,,,,,,,,,,,,,,,,,,,,,,,,,,,,,,,,,,,11013,2,1,2024_Jun_04_1927,stroop_task_switching2,2021.2.3,60.005460482598394,
,,,,,,,,,,,,,,,4,0,4,0,,,,,,,,,,,,,,,,,,,,,57.75606590008829,None,right,0.3275358999380842,57.75606590008829,None,,,,,,,,,,,,,,,,,,,,,,,,,,,,,,,,,,,,,,,,,,,,,,,,,,,,,,,,,,11013,2,1,2024_Jun_04_1927,stroop_task_switching2,2021.2.3,60.005460482598394,
,,,,,,,,,,,,,,,5,0,5,0,,,,,,,,,,,,,,,,,,,,,58.12320280005224,None,right,0.744449199992232,58.12320280005224,None,,,,,,,,,,,,,,,,,,,,,,,,,,,,,,,,,,,,,,,,,,,,,,,,,,,,,,,,,,11013,2,1,2024_Jun_04_1927,stroop_task_switching2,2021.2.3,60.005460482598394,
,,,,,,,,,,,,,,,,,,,,,,,,,,,,,,,,,,,,,,,,,,,,,58.89080150006339,None,space,1.545123100047931,58.89080150006339,None,,,,,,,,,,,,,,,,,,,,,,,,,,,,,,,,,,,,,,,,,,,,,,,,,,,,11013,2,1,2024_Jun_04_1927,stroop_task_switching2,2021.2.3,60.005460482598394,
condition/block_color,instruction/instr_color,instruction/i8,XX,red,d,diamond,color_single,颜色,,,,,,,,,,,0,0,0,0,0,0,0,0,0,0,0,0,,,,,,,,,,,,,,,,,,,,,60.47693160001654,None,space,6.643795000039972,60.47693160001654,None,68.18843750003725,69.19044750009198,69.19044750009198,70.19175930006895,70.19175930006895,None,67.20444150001276,68.2054943999974,71.15943740005605,71.35976040002424,71.3440473000519,71.64396010001656,71.64396010001656,None,72.14451850007754,None,d,1,0.6680163000710309,72.14451850007754,None,None,None,72.82869600004051,None,,,,,,,,,,,,,,,,,,,,,11013,2,1,2024_Jun_04_1927,stroop_task_switching2,2021.2.3,60.005460482598394,
condition/block_color,instruction/instr_color,instruction/i8,XX,green,k,diamond,color_single,颜色,,,,,,,,,,,0,0,0,0,0,0,0,0,0,1,1,1,,,,,,,,,,,,,,,,,,,,,,,,,,,,,,,,,,,73.83038830000442,74.03148950007744,74.01395570009481,74.31495920009911,74.31495920009911,None,74.814901500009,77.82032040006015,None,0,,74.814901500009,77.82032040006015,77.78612599999178,None,78.33699139999226,None,,,,,,,,,,,,,,,,,,,,,11013,2,1,2024_Jun_04_1927,stroop_task_switching2,2021.2.3,60.005460482598394,
condition/block_color,instruction/instr_color,instruction/i8,XX,yellow,j,diamond,color_single,颜色,,,,,,,,,,,0,0,0,0,0,0,0,0,0,2,2,2,,,,,,,,,,,,,,,,,,,,,,,,,,,,,,,,,,,79.33861960005015,79.54050220001955,79.52233050006907,79.82271780003794,79.82271780003794,None,80.32333200005814,None,f,0,0.9048748000059277,80.32333200005814,None,None,None,81.25811799999792,None,,,,,,,,,,,,,,,,,,,,,11013,2,1,2024_Jun_04_1927,stroop_task_switching2,2021.2.3,60.005460482598394,
condition/block_color,instruction/instr_color,instruction/i8,XX,blue,f,diamond,color_single,颜色,,,,,,,,,,,0,0,0,0,0,0,0,0,0,3,3,3,,,,,,,,,,,,,,,,,,,,,,,,,,,,,,,,,,,82.25966119999066,82.4600034999894,82.44463200005703,82.74492130009457,82.74492130009457,None,83.2443404000951,None,f,1,0.6801009000046179,83.2443404000951,None,None,None,83.94557300000452,None,,,,,,,,,,,,,,,,,,,,,11013,2,1,2024_Jun_04_1927,stroop_task_switching2,2021.2.3,60.005460482598394,
condition/block_color,instruction/instr_color,instruction/i8,XX,green,k,diamond,color_single,颜色,,,,,,,,,,,0,0,0,0,0,0,0,0,0,4,4,4,,,,,,,,,,,,,,,,,,,,,,,,,,,,,,,,,,,84.94720809999853,85.1478373000864,85.13056000007782,85.43105560005642,85.43105560005642,None,85.93181530002039,None,k,1,0.7924433000152931,85.93181530002039,None,None,None,86.74964380008169,None,,,,,,,,,,,,,,,,,,,,,11013,2,1,2024_Jun_04_1927,stroop_task_switching2,2021.2.3,60.005460482598394,
condition/block_color,instruction/instr_color,instruction/i8,XX,yellow,j,diamond,color_single,颜色,,,,,,,,,,,0,0,0,0,0,0,0,0,0,5,5,5,,,,,,,,,,,,,,,,,,,,,,,,,,,,,,,,,,,87.75121000001673,87.95211640000343,87.93494170007762,88.23532640002668,88.23532640002668,None,88.73626540007535,None,j,1,0.43628639995586127,88.73626540007535,None,None,None,89.20342250005342,None,,,,,,,,,,,,,,,,,,,,,11013,2,1,2024_Jun_04_1927,stroop_task_switching2,2021.2.3,60.005460482598394,
condition/block_color,instruction/instr_color,instruction/i8,XX,blue,f,diamond,color_single,颜色,,,,,,,,,,,0,0,0,0,0,0,0,0,0,6,6,6,,,,,,,,,,,,,,,,,,,,,,,,,,,,,,,,,,,90.20502029999625,90.40720210003201,90.38843210006598,90.68983330007177,90.68983330007177,None,91.18973159999587,None,f,1,0.5827679999638349,91.18973159999587,None,None,None,91.79071090009529,None,,,,,,,,,,,,,,,,,,,,,11013,2,1,2024_Jun_04_1927,stroop_task_switching2,2021.2.3,60.005460482598394,
condition/block_color,instruction/instr_color,instruction/i8,XX,red,d,diamond,color_single,颜色,,,,,,,,,,,0,0,0,0,0,0,0,0,0,7,7,7,,,,,,,,,,,,,,,,,,,,,,,,,,,,,,,,,,,92.7920855000848,92.99352110002656,92.97582729998976,93.27697240002453,93.27697240002453,None,93.77703009999823,None,d,1,0.5074706999585032,93.77703009999823,None,None,None,94.31107779999729,None,,,,,,,,,,,,,,,,,,,,,11013,2,1,2024_Jun_04_1927,stroop_task_switching2,2021.2.3,60.005460482598394,
condition/block_color,instruction/instr_color,instruction/i8,XX,yellow,j,diamond,color_single,颜色,,,,,,,,,,,0,0,0,0,0,0,0,0,0,8,8,8,,,,,,,,,,,,,,,,,,,,,,,,,,,,,,,,,,,95.31277980003506,95.5132239999948,95.496255200007,95.79777380009182,95.79777380009182,None,96.29768190009054,None,j,1,0.7869016999611631,96.29768190009054,None,None,None,97.11540430004243,None,,,,,,,,,,,,,,,,,,,,,11013,2,1,2024_Jun_04_1927,stroop_task_switching2,2021.2.3,60.005460482598394,
condition/block_color,instruction/instr_color,instruction/i8,XX,blue,f,diamond,color_single,颜色,,,,,,,,,,,0,0,0,0,0,0,0,0,0,9,9,9,,,,,,,,,,,,,,,,,,,,,,,,,,,,,,,,,,,98.11679770005867,98.31734529999085,98.30048149998765,98.60171270009596,98.60171270009596,None,99.10166310006753,None,f,1,0.7111956999870017,99.10166310006753,None,None,None,99.8361251000315,None,,,,,,,,,,,,,,,,,,,,,11013,2,1,2024_Jun_04_1927,stroop_task_switching2,2021.2.3,60.005460482598394,
condition/block_color,instruction/instr_color,instruction/i8,XX,red,d,diamond,color_single,颜色,,,,,,,,,,,0,0,0,0,0,0,0,0,0,10,10,10,,,,,,,,,,,,,,,,,,,,,,,,,,,,,,,,,,,100.837508500088,101.03887330007274,101.0213659000583,101.32265230000485,101.32265230000485,None,101.82243880000897,None,d,1,0.5346229999559,101.82243880000897,None,None,None,102.37327420001384,None,,,,,,,,,,,,,,,,,,,,,11013,2,1,2024_Jun_04_1927,stroop_task_switching2,2021.2.3,60.005460482598394,
condition/block_color,instruction/instr_color,instruction/i8,XX,green,k,diamond,color_single,颜色,,,,,,,,,,,0,0,0,0,0,0,0,0,0,11,11,11,,,,,,,,,,,,,,,,,,,,,,,,,,,,,,,,,,,103.37489380000625,103.57545770006254,103.55850560008548,103.85950080002658,103.85950080002658,None,104.35991630004719,None,k,1,1.0687230000039563,104.35991630004719,None,None,None,105.44447460002266,None,,,,,,,,,,,,,,,,,,,,,11013,2,1,2024_Jun_04_1927,stroop_task_switching2,2021.2.3,60.005460482598394,
condition/block_color,instruction/instr_color,instruction/i8,XX,blue,f,diamond,color_single,颜色,,,,,,,,,,,0,0,0,0,0,0,0,0,0,12,12,12,,,,,,,,,,,,,,,,,,,,,,,,,,,,,,,,,,,106.44616190006491,106.6464210000122,106.63105900003575,106.93012860009912,106.93012860009912,None,107.43100620002951,None,f,1,0.5420599000062793,107.43100620002951,None,None,None,107.99829780007713,None,,,,,,,,,,,,,,,,,,,,,11013,2,1,2024_Jun_04_1927,stroop_task_switching2,2021.2.3,60.005460482598394,
condition/block_color,instruction/instr_color,instruction/i8,XX,red,d,diamond,color_single,颜色,,,,,,,,,,,0,0,0,0,0,0,0,0,0,13,13,13,,,,,,,,,,,,,,,,,,,,,,,,,,,,,,,,,,,108.99992120009847,109.20107310009189,109.18357270001434,109.48447390005458,109.48447390005458,None,109.98617220006417,None,d,1,0.586985299945809,109.98617220006417,None,None,None,110.6022466000868,None,,,,,,,,,,,,,,,,,,,,,11013,2,1,2024_Jun_04_1927,stroop_task_switching2,2021.2.3,60.005460482598394,
condition/block_color,instruction/instr_color,instruction/i8,XX,green,k,diamond,color_single,颜色,,,,,,,,,,,0,0,0,0,0,0,0,0,0,14,14,14,,,,,,,,,,,,,,,,,,,,,,,,,,,,,,,,,,,111.60399950004648,111.80424389999826,111.78815690008923,112.08846590004396,112.08846590004396,None,112.58850479999091,None,k,1,0.8885012000100687,112.58850479999091,None,None,None,113.50657430000138,None,,,,,,,,,,,,,,,,,,,,,11013,2,1,2024_Jun_04_1927,stroop_task_switching2,2021.2.3,60.005460482598394,
condition/block_color,instruction/instr_color,instruction/i8,XX,yellow,j,diamond,color_single,颜色,,,,,,,,,,,0,0,0,0,0,0,0,0,0,15,15,15,,,,,,,,,,,,,,,,,,,,,,,,,,,,,,,,,,,114.50825140008237,114.70922160008922,114.69179220008664,114.99368290009443,114.99368290009443,None,115.49326240003575,None,j,1,0.4405036000534892,115.49326240003575,None,None,None,115.96059969998896,None,,,,,,,,,,,,,,,,,,,,,11013,2,1,2024_Jun_04_1927,stroop_task_switching2,2021.2.3,60.005460482598394,
condition/block_color,instruction/instr_color,instruction/i8,XX,red,d,diamond,color_single,颜色,,,,,,,,,,,0,0,0,0,0,0,0,0,0,16,16,16,,,,,,,,,,,,,,,,,,,,,,,,,,,,,,,,,,,116.96187270001974,117.162656600005,117.14555380004458,117.44627150008455,117.44627150008455,None,117.94704070000444,None,d,1,0.6584834000095725,117.94704070000444,None,None,None,118.63126230007038,None,,,,,,,,,,,,,,,,,,,,,11013,2,1,2024_Jun_04_1927,stroop_task_switching2,2021.2.3,60.005460482598394,
condition/block_color,instruction/instr_color,instruction/i8,XX,green,k,diamond,color_single,颜色,,,,,,,,,,,0,0,0,0,0,0,0,0,0,17,17,17,,,,,,,,,,,,,,,,,,,,,,,,,,,,,,,,,,,119.63264810002875,119.83407900005113,119.81638259999454,120.11789360002149,120.11789360002149,None,120.61750040005427,None,k,1,0.8837800000328571,120.61750040005427,None,None,None,121.51892450009473,None,,,,,,,,,,,,,,,,,,,,,11013,2,1,2024_Jun_04_1927,stroop_task_switching2,2021.2.3,60.005460482598394,
condition/block_color,instruction/instr_color,instruction/i8,XX,yellow,j,diamond,color_single,颜色,,,,,,,,,,,0,0,0,0,0,0,0,0,0,18,18,18,,,,,,,,,,,,,,,,,,,,,,,,,,,,,,,,,,,122.52029590005986,122.72127340000588,122.70520790002774,123.0054167000344,123.0054167000344,None,123.50512630003504,None,j,1,0.9162757999729365,123.50512630003504,None,None,None,124.43989570008125,None,,,,,,,,,,,,,,,,,,,,,11013,2,1,2024_Jun_04_1927,stroop_task_switching2,2021.2.3,60.005460482598394,
condition/block_color,instruction/instr_color,instruction/i8,XX,blue,f,diamond,color_single,颜色,,,,,,,,,,,0,0,0,0,0,0,0,0,0,19,19,19,,,,,,,,,,,,,,,,,,,,,,,,,,,,,,,,,,,125.44127320009284,125.64206980005838,125.62480490002781,125.92567330005113,125.92567330005113,None,126.42613010003697,None,f,1,1.203236100031063,126.42613010003697,None,None,None,127.64468740008306,None,,,,,,,,,,,,,,,,,,,,,11013,2,1,2024_Jun_04_1927,stroop_task_switching2,2021.2.3,60.005460482598394,
condition/block_color,instruction/instr_color,instruction/i8,XX,green,k,diamond,color_single,颜色,,,,,,,,,,,0,0,0,0,0,0,0,0,0,20,20,20,,,,,,,,,,,,,,,,,,,,,,,,,,,,,,,,,,,128.64624100003857,128.84707720007282,128.82977060007397,129.1320463999873,129.1320463999873,None,129.63146410009358,None,k,1,1.0540951000293717,129.63146410009358,None,None,None,130.71637070004363,None,,,,,,,,,,,,,,,,,,,,,11013,2,1,2024_Jun_04_1927,stroop_task_switching2,2021.2.3,60.005460482598394,
condition/block_color,instruction/instr_color,instruction/i8,XX,yellow,j,diamond,color_single,颜色,,,,,,,,,,,0,0,0,0,0,0,0,0,0,21,21,21,,,,,,,,,,,,,,,,,,,,,,,,,,,,,,,,,,,131.71764829999302,131.91989360004663,131.9012232000241,132.20269539998844,132.20269539998844,None,132.7023864000803,None,j,1,0.9835878999438137,132.7023864000803,None,None,None,133.70384000008926,None,,,,,,,,,,,,,,,,,,,,,11013,2,1,2024_Jun_04_1927,stroop_task_switching2,2021.2.3,60.005460482598394,
condition/block_color,instruction/instr_color,instruction/i8,XX,blue,f,diamond,color_single,颜色,,,,,,,,,,,0,0,0,0,0,0,0,0,0,22,22,22,,,,,,,,,,,,,,,,,,,,,,,,,,,,,,,,,,,134.70538709999528,134.9062710000435,134.88901190005708,135.18942900002003,135.18942900002003,None,135.69005560001824,None,f,1,0.7401690999977291,135.69005560001824,None,None,None,136.45792549999896,None,,,,,,,,,,,,,,,,,,,,,11013,2,1,2024_Jun_04_1927,stroop_task_switching2,2021.2.3,60.005460482598394,
condition/block_color,instruction/instr_color,instruction/i8,XX,red,d,diamond,color_single,颜色,,,,,,,,,,,0,0,0,0,0,0,0,0,0,23,23,23,,,,,,,,,,,,,,,,,,,,,,,,,,,,,,,,,,,137.45958370005246,137.65991390007548,137.645584300044,137.9612274999963,137.94361770001706,None,138.4445022,None,d,1,0.5051677000010386,138.4445022,None,None,None,138.97858140000608,None,,,,,,,,,,,,,,,,,,,,,11013,2,1,2024_Jun_04_1927,stroop_task_switching2,2021.2.3,60.005460482598394,
condition/block_color,instruction/instr_color,instruction/i8,,,,,,,,,,,,,,,,,0,0,0,0,0,0,0,0,,,,,,,,,,,,,,,,,,,,,,,,,,,,,,,,,,,,,,,,,,,,,,,,,,,,,,,,139.99599349999335,None,space,3.449566699913703,139.99599349999335,None,,,,,,,,,,,,,,,11013,2,1,2024_Jun_04_1927,stroop_task_switching2,2021.2.3,60.005460482598394,
condition/block_color,instruction/instr_color,instruction/i8,,,,,,,,,,,,,,,,,0,0,0,0,,,,,,,,,,,,,,,,,,,,,,,,,,,,,,,,,,,,,,,,,,,,,,,,,,,,,,,,,,,,,,,,,,,,,,,,,,,,,,,,11013,2,1,2024_Jun_04_1927,stroop_task_switching2,2021.2.3,60.005460482598394,
condition/block_word,instruction/instr_word,instruction/i9,黄,white,j,square,word_single,单词,0.0032461461866890584,,,,,,,,,,0,1,1,1,0,0,0,0,0,0,0,0,,,,,,,,,,,,,,,,,,,,,143.4852216000436,None,space,6.44129690004047,143.4852216000436,None,150.9466112999944,151.9490299000172,151.9490299000172,152.95071560004726,152.95071560004726,None,149.9618565000128,150.963618400041,153.96751940005925,154.1692126999842,154.15188200003468,154.45229720009957,154.45229720009957,None,154.95242950005922,None,j,1,0.782470399979502,154.95242950005922,None,None,None,155.75376330001745,None,,,,,,,,,,,,,,,,,,,,,11013,2,1,2024_Jun_04_1927,stroop_task_switching2,2021.2.3,60.005460482598394,
condition/block_word,instruction/instr_word,instruction/i9,蓝,white,f,square,word_single,单词,0.060540570646362424,,,,,,,,,,0,1,1,1,0,0,0,0,0,1,1,1,,,,,,,,,,,,,,,,,,,,,,,,,,,,,,,,,,,156.75539840001147,156.95674930000678,156.93900900008157,157.23933030001353,157.23933030001353,None,157.74013080005534,None,f,1,0.6582705000182614,157.74013080005534,None,None,None,158.42482740001287,None,,,,,,,,,,,,,,,,,,,,,11013,2,1,2024_Jun_04_1927,stroop_task_switching2,2021.2.3,60.005460482598394,
condition/block_word,instruction/instr_word,instruction/i9,黄,white,j,square,word_single,单词,0.06994067193778963,,,,,,,,,,0,1,1,1,0,0,0,0,0,2,2,2,,,,,,,,,,,,,,,,,,,,,,,,,,,,,,,,,,,159.42596350004897,159.62737680005375,159.60953350004274,159.91000760009047,159.91000760009047,None,160.4108934000833,None,j,1,0.6192728000460193,160.4108934000833,None,None,None,161.06199459999334,None,,,,,,,,,,,,,,,,,,,,,11013,2,1,2024_Jun_04_1927,stroop_task_switching2,2021.2.3,60.005460482598394,
condition/block_word,instruction/instr_word,instruction/i9,蓝,white,f,square,word_single,单词,0.08193765152950094,,,,,,,,,,0,1,1,1,0,0,0,0,0,3,3,3,,,,,,,,,,,,,,,,,,,,,,,,,,,,,,,,,,,162.06337260000873,162.2637226000661,162.24862020008732,162.5479720000876,162.5479720000876,None,163.0480608000653,None,f,1,0.5903733999002725,163.0480608000653,None,None,None,163.6657670000568,None,,,,,,,,,,,,,,,,,,,,,11013,2,1,2024_Jun_04_1927,stroop_task_switching2,2021.2.3,60.005460482598394,
condition/block_word,instruction/instr_word,instruction/i9,红,white,d,square,word_single,单词,0.1279694370605574,,,,,,,,,,0,1,1,1,0,0,0,0,0,4,4,4,,,,,,,,,,,,,,,,,,,,,,,,,,,,,,,,,,,164.6673605000833,164.86777470004745,164.8508748000022,165.1526289000176,165.1526289000176,None,165.65271290007513,None,d,1,0.6255651001119986,165.65271290007513,None,None,None,166.30308169999626,None,,,,,,,,,,,,,,,,,,,,,11013,2,1,2024_Jun_04_1927,stroop_task_switching2,2021.2.3,60.005460482598394,
condition/block_word,instruction/instr_word,instruction/i9,红,white,d,square,word_single,单词,0.18345028784879092,,,,,,,,,,0,1,1,1,0,0,0,0,0,5,5,5,,,,,,,,,,,,,,,,,,,,,,,,,,,,,,,,,,,167.3047602000879,167.50527279998641,167.48816780000925,167.7885950000491,167.7885950000491,None,168.28956010006368,None,d,1,0.5091414999915287,168.28956010006368,None,None,None,168.82394910010044,None,,,,,,,,,,,,,,,,,,,,,11013,2,1,2024_Jun_04_1927,stroop_task_switching2,2021.2.3,60.005460482598394,
condition/block_word,instruction/instr_word,instruction/i9,蓝,white,f,square,word_single,单词,0.19920386223101294,,,,,,,,,,0,1,1,1,0,0,0,0,0,6,6,6,,,,,,,,,,,,,,,,,,,,,,,,,,,,,,,,,,,169.82485299999826,170.02605410001706,170.00869729998522,170.30958280002233,170.30958280002233,None,170.80972630006727,None,f,1,0.5568356999428943,170.80972630006727,None,None,None,171.3940639999928,None,,,,,,,,,,,,,,,,,,,,,11013,2,1,2024_Jun_04_1927,stroop_task_switching2,2021.2.3,60.005460482598394,
condition/block_word,instruction/instr_word,instruction/i9,蓝,white,f,square,word_single,单词,0.26360599864925405,,,,,,,,,,0,1,1,1,0,0,0,0,0,7,7,7,,,,,,,,,,,,,,,,,,,,,,,,,,,,,,,,,,,172.39518150000367,172.5967494000215,172.5790774000343,172.87961270008236,172.87961270008236,None,173.38058970007114,None,f,1,0.5701036000391468,173.38058970007114,None,None,None,173.98145329998806,None,,,,,,,,,,,,,,,,,,,,,11013,2,1,2024_Jun_04_1927,stroop_task_switching2,2021.2.3,60.005460482598394,
condition/block_word,instruction/instr_word,instruction/i9,蓝,white,f,square,word_single,单词,0.358985675745526,,,,,,,,,,0,1,1,1,0,0,0,0,0,8,8,8,,,,,,,,,,,,,,,,,,,,,,,,,,,,,,,,,,,174.98269060009625,175.18394990009256,175.1665300000459,175.46762330003548,175.46762330003548,None,175.96757740003522,None,f,1,1.0157336000120267,175.96757740003522,None,None,None,177.0026701000752,None,,,,,,,,,,,,,,,,,,,,,11013,2,1,2024_Jun_04_1927,stroop_task_switching2,2021.2.3,60.005460482598394,
condition/block_word,instruction/instr_word,instruction/i9,绿,white,k,square,word_single,单词,0.36496733802487347,,,,,,,,,,0,1,1,1,0,0,0,0,0,9,9,9,,,,,,,,,,,,,,,,,,,,,,,,,,,,,,,,,,,178.00401230005082,178.20524969999678,178.18800460000057,178.4894937000936,178.4894937000936,None,178.98859940003604,None,j,0,0.6343125000130385,178.98859940003604,None,None,None,179.6401552000316,None,,,,,,,,,,,,,,,,,,,,,11013,2,1,2024_Jun_04_1927,stroop_task_switching2,2021.2.3,60.005460482598394,
condition/block_word,instruction/instr_word,instruction/i9,黄,white,j,square,word_single,单词,0.3743513623756727,,,,,,,,,,0,1,1,1,0,0,0,0,0,10,10,10,,,,,,,,,,,,,,,,,,,,,,,,,,,,,,,,,,,180.6412527000066,180.84236730006523,180.82497820002027,181.1258678000886,181.1258678000886,None,181.62605439999606,None,j,1,0.7010251999599859,181.62605439999606,None,None,None,182.34382619999815,None,,,,,,,,,,,,,,,,,,,,,11013,2,1,2024_Jun_04_1927,stroop_task_switching2,2021.2.3,60.005460482598394,
condition/block_word,instruction/instr_word,instruction/i9,红,white,d,square,word_single,单词,0.3894803852598544,,,,,,,,,,0,1,1,1,0,0,0,0,0,11,11,11,,,,,,,,,,,,,,,,,,,,,,,,,,,,,,,,,,,183.34556640009396,183.54650649998803,183.529004800017,183.8295108000748,183.8295108000748,None,184.33015390008222,None,d,1,0.6213672000449151,184.33015390008222,None,None,None,184.98121370002627,None,,,,,,,,,,,,,,,,,,,,,11013,2,1,2024_Jun_04_1927,stroop_task_switching2,2021.2.3,60.005460482598394,
condition/block_word,instruction/instr_word,instruction/i9,绿,white,k,square,word_single,单词,0.5393759672408067,,,,,,,,,,0,1,1,1,0,0,0,0,0,12,12,12,,,,,,,,,,,,,,,,,,,,,,,,,,,,,,,,,,,185.9827595000388,186.1832411000505,186.1662389000412,186.4678331000032,186.4678331000032,None,186.96764040004928,None,k,1,0.6953744000056759,186.96764040004928,None,None,None,187.68539440003224,None,,,,,,,,,,,,,,,,,,,,,11013,2,1,2024_Jun_04_1927,stroop_task_switching2,2021.2.3,60.005460482598394,
condition/block_word,instruction/instr_word,instruction/i9,蓝,white,f,square,word_single,单词,0.5995731954831104,,,,,,,,,,0,1,1,1,0,0,0,0,0,13,13,13,,,,,,,,,,,,,,,,,,,,,,,,,,,,,,,,,,,188.6868372000754,188.8869617000455,188.8719868999906,189.17104050004855,189.17104050004855,None,189.67151220003143,None,f,1,0.8319150999886915,189.67151220003143,None,None,None,190.52287490002345,None,,,,,,,,,,,,,,,,,,,,,11013,2,1,2024_Jun_04_1927,stroop_task_switching2,2021.2.3,60.005460482598394,
condition/block_word,instruction/instr_word,instruction/i9,红,white,d,square,word_single,单词,0.6298674479151414,,,,,,,,,,0,1,1,1,0,0,0,0,0,14,14,14,,,,,,,,,,,,,,,,,,,,,,,,,,,,,,,,,,,191.52437430003192,191.72465590003412,191.71024740010034,192.0259292999981,192.00861700007226,None,192.50967190007214,None,d,1,0.5377312999917194,192.50967190007214,None,None,None,193.07681500003673,None,,,,,,,,,,,,,,,,,,,,,11013,2,1,2024_Jun_04_1927,stroop_task_switching2,2021.2.3,60.005460482598394,
condition/block_word,instruction/instr_word,instruction/i9,红,white,d,square,word_single,单词,0.7389942282348904,,,,,,,,,,0,1,1,1,0,0,0,0,0,15,15,15,,,,,,,,,,,,,,,,,,,,,,,,,,,,,,,,,,,194.07844370009843,194.27878270007204,194.26187540008686,194.56341140007135,194.56341140007135,None,195.06311129999813,None,d,1,0.5361810999456793,195.06311129999813,None,None,None,195.63064590003341,None,,,,,,,,,,,,,,,,,,,,,11013,2,1,2024_Jun_04_1927,stroop_task_switching2,2021.2.3,60.005460482598394,
condition/block_word,instruction/instr_word,instruction/i9,绿,white,k,square,word_single,单词,0.7550853947239682,,,,,,,,,,0,1,1,1,0,0,0,0,0,16,16,16,,,,,,,,,,,,,,,,,,,,,,,,,,,,,,,,,,,196.6319600000279,196.8330385000445,196.81560770003125,197.11618270003237,197.11618270003237,None,197.61691370001063,None,k,1,0.7985991999739781,197.61691370001063,None,None,None,198.4346416000044,None,,,,,,,,,,,,,,,,,,,,,11013,2,1,2024_Jun_04_1927,stroop_task_switching2,2021.2.3,60.005460482598394,
condition/block_word,instruction/instr_word,instruction/i9,绿,white,k,square,word_single,单词,0.8019302780428206,,,,,,,,,,0,1,1,1,0,0,0,0,0,17,17,17,,,,,,,,,,,,,,,,,,,,,,,,,,,,,,,,,,,199.43646570004057,199.63670490006916,199.61996280006133,199.92204950004816,199.92204950004816,None,200.42123169999104,None,k,1,0.595539900008589,200.42123169999104,None,None,None,201.03870280005503,None,,,,,,,,,,,,,,,,,,,,,11013,2,1,2024_Jun_04_1927,stroop_task_switching2,2021.2.3,60.005460482598394,
condition/block_word,instruction/instr_word,instruction/i9,绿,white,k,square,word_single,单词,0.8110702914095343,,,,,,,,,,0,1,1,1,0,0,0,0,0,18,18,18,,,,,,,,,,,,,,,,,,,,,,,,,,,,,,,,,,,202.04038470005617,202.2405428000493,202.22401700005867,202.52644769998733,202.52644769998733,None,203.0250463000266,None,k,1,0.5824559000320733,203.0250463000266,None,None,None,203.62621520005632,None,,,,,,,,,,,,,,,,,,,,,11013,2,1,2024_Jun_04_1927,stroop_task_switching2,2021.2.3,60.005460482598394,
condition/block_word,instruction/instr_word,instruction/i9,黄,white,j,square,word_single,单词,0.8176594937590999,,,,,,,,,,0,1,1,1,0,0,0,0,0,19,19,19,,,,,,,,,,,,,,,,,,,,,,,,,,,,,,,,,,,204.62773340009153,204.82853530009743,204.81114640005399,205.11145040008705,205.11145040008705,None,205.61218689999077,None,j,1,0.5799870999762788,205.61218689999077,None,None,None,206.21315570001025,None,,,,,,,,,,,,,,,,,,,,,11013,2,1,2024_Jun_04_1927,stroop_task_switching2,2021.2.3,60.005460482598394,
condition/block_word,instruction/instr_word,instruction/i9,红,white,d,square,word_single,单词,0.8955794421104841,,,,,,,,,,0,1,1,1,0,0,0,0,0,20,20,20,,,,,,,,,,,,,,,,,,,,,,,,,,,,,,,,,,,207.21485820005182,207.4164468999952,207.39843790000305,207.6987945000874,207.6987945000874,None,208.19957130006514,None,d,1,0.5041226999601349,208.19957130006514,None,None,None,208.73368840001058,None,,,,,,,,,,,,,,,,,,,,,11013,2,1,2024_Jun_04_1927,stroop_task_switching2,2021.2.3,60.005460482598394,
condition/block_word,instruction/instr_word,instruction/i9,绿,white,k,square,word_single,单词,0.9113598052474129,,,,,,,,,,0,1,1,1,0,0,0,0,0,21,21,21,,,,,,,,,,,,,,,,,,,,,,,,,,,,,,,,,,,209.73535329999868,209.93624060007278,209.92180810007267,210.23632560006808,210.21914100006688,None,210.71993310004473,None,k,1,0.6076666000299156,210.71993310004473,None,None,None,211.35431220009923,None,,,,,,,,,,,,,,,,,,,,,11013,2,1,2024_Jun_04_1927,stroop_task_switching2,2021.2.3,60.005460482598394,
condition/block_word,instruction/instr_word,instruction/i9,黄,white,j,square,word_single,单词,0.9215930958042953,,,,,,,,,,0,1,1,1,0,0,0,0,0,22,22,22,,,,,,,,,,,,,,,,,,,,,,,,,,,,,,,,,,,212.35544090007897,212.5569652999984,212.53933920001145,212.84114770009182,212.84114770009182,None,213.34081520000473,None,j,1,0.4996806000126526,213.34081520000473,None,None,None,213.85829490004107,None,,,,,,,,,,,,,,,,,,,,,11013,2,1,2024_Jun_04_1927,stroop_task_switching2,2021.2.3,60.005460482598394,
condition/block_word,instruction/instr_word,instruction/i9,黄,white,j,square,word_single,单词,0.9493525498837774,,,,,,,,,,0,1,1,1,0,0,0,0,0,23,23,23,,,,,,,,,,,,,,,,,,,,,,,,,,,,,,,,,,,214.85995569999795,215.06225540000014,215.0431525000604,215.34439440001734,215.34439440001734,None,215.84454100008588,None,j,1,0.6755190000403672,215.84454100008588,None,None,None,216.54545340000186,None,,,,,,,,,,,,,,,,,,,,,11013,2,1,2024_Jun_04_1927,stroop_task_switching2,2021.2.3,60.005460482598394,
condition/block_word,instruction/instr_word,instruction/i9,,,,,,,,,,,,,,,,,0,1,1,1,0,0,0,0,,,,,,,,,,,,,,,,,,,,,,,,,,,,,,,,,,,,,,,,,,,,,,,,,,,,,,,,217.54677340004127,None,space,5.553405100014061,217.54677340004127,None,,,,,,,,,,,,,,,11013,2,1,2024_Jun_04_1927,stroop_task_switching2,2021.2.3,60.005460482598394,
condition/block_word,instruction/instr_word,instruction/i9,,,,,,,,,,,,,,,,,0,1,1,1,,,,,,,,,,,,,,,,,,,,,,,,,,,,,,,,,,,,,,,,,,,,,,,,,,,,,,,,,,,,,,,,,,,,,,,,,,,,,,,,11013,2,1,2024_Jun_04_1927,stroop_task_switching2,2021.2.3,60.005460482598394,
condition/block_mixed,instruction/instr_mixed,instruction/i10,蓝,red,d,diamond,color_mix,颜色,,incompatible,0,,,,,,,,0,2,2,2,0,0,0,0,0,0,0,0,,,,,,,,,,,,,,,,,,,,,223.1387500000419,None,space,17.86162510002032,223.1387500000419,None,242.01725020003505,243.0187460000161,243.0187460000161,244.02060410007834,244.02060410007834,None,241.0328082999913,242.03431690006983,245.0554959999863,245.25538700004108,245.2406833000714,245.5391660000896,245.5391660000896,None,246.02323729998898,None,d,1,0.6573783999774605,246.02323729998898,None,None,None,246.7074532000115,None,,,,,,,,,,,,,,,,,,,,,11013,2,1,2024_Jun_04_1927,stroop_task_switching2,2021.2.3,60.005460482598394,
condition/block_mixed,instruction/instr_mixed,instruction/i10,绿,yellow,j,diamond,color_mix,颜色,,incompatible,1,,,,,,,,0,2,2,2,0,0,0,0,0,1,1,1,,,,,,,,,,,,,,,,,,,,,,,,,,,,,,,,,,,247.70912470004987,247.9104714000132,247.89285130007192,248.19392920006067,248.19392920006067,None,248.6937528999988,None,j,1,0.8591804999159649,248.6937528999988,None,None,None,249.57874550006818,None,,,,,,,,,,,,,,,,,,,,,11013,2,1,2024_Jun_04_1927,stroop_task_switching2,2021.2.3,60.005460482598394,
condition/block_mixed,instruction/instr_mixed,instruction/i10,红,green,k,diamond,color_mix,颜色,,incompatible,1,,,,,,,,0,2,2,2,0,0,0,0,0,2,2,2,,,,,,,,,,,,,,,,,,,,,,,,,,,,,,,,,,,250.58029429998714,250.78036970004905,250.7649359999923,251.0650099000195,251.0650099000195,None,251.5649590000976,None,d,0,0.7879754999885336,251.5649590000976,None,None,None,252.38267170009203,None,,,,,,,,,,,,,,,,,,,,,11013,2,1,2024_Jun_04_1927,stroop_task_switching2,2021.2.3,60.005460482598394,
condition/block_mixed,instruction/instr_mixed,instruction/i10,蓝,red,d,diamond,color_mix,颜色,,incompatible,1,,,,,,,,0,2,2,2,0,0,0,0,0,3,3,3,,,,,,,,,,,,,,,,,,,,,,,,,,,,,,,,,,,253.38441290007904,253.5854964000173,253.56793760007713,253.8684030000586,253.8684030000586,None,254.36955880001187,None,d,1,0.7755724999587983,254.36955880001187,None,None,None,255.17061820009258,None,,,,,,,,,,,,,,,,,,,,,11013,2,1,2024_Jun_04_1927,stroop_task_switching2,2021.2.3,60.005460482598394,
condition/block_mixed,instruction/instr_mixed,instruction/i10,红,blue,f,diamond,color_mix,颜色,,incompatible,1,,,,,,,,0,2,2,2,0,0,0,0,0,4,4,4,,,,,,,,,,,,,,,,,,,,,,,,,,,,,,,,,,,256.1719091000268,256.3727920000674,256.35552300000563,256.655952500063,256.655952500063,None,257.1566004999913,None,f,1,1.2765436000190675,257.1566004999913,None,None,None,258.4586309000151,None,,,,,,,,,,,,,,,,,,,,,11013,2,1,2024_Jun_04_1927,stroop_task_switching2,2021.2.3,60.005460482598394,
condition/block_mixed,instruction/instr_mixed,instruction/i10,红,blue,d,square,color_mix,单词,,incompatible,2,,,,,,,,0,2,2,2,0,0,0,0,0,5,5,5,,,,,,,,,,,,,,,,,,,,,,,,,,,,,,,,,,,259.46025330002885,259.66167180007324,259.64382840006147,259.94454729999416,259.94454729999416,None,260.4448216999881,None,f,0,0.6280704999808222,260.4448216999881,None,None,None,261.09596820001025,None,,,,,,,,,,,,,,,,,,,,,11013,2,1,2024_Jun_04_1927,stroop_task_switching2,2021.2.3,60.005460482598394,
condition/block_mixed,instruction/instr_mixed,instruction/i10,红,yellow,j,diamond,color_mix,颜色,,incompatible,2,,,,,,,,0,2,2,2,0,0,0,0,0,6,6,6,,,,,,,,,,,,,,,,,,,,,,,,,,,,,,,,,,,262.09746910003014,262.29807950009126,262.28091169998515,262.58163630007766,262.58163630007766,None,263.0824134000577,None,j,1,0.9510809000348672,263.0824134000577,None,None,None,264.0504385000095,None,,,,,,,,,,,,,,,,,,,,,11013,2,1,2024_Jun_04_1927,stroop_task_switching2,2021.2.3,60.005460482598394,
condition/block_mixed,instruction/instr_mixed,instruction/i10,红,yellow,d,square,color_mix,单词,,incompatible,2,,,,,,,,0,2,2,2,0,0,0,0,0,7,7,7,,,,,,,,,,,,,,,,,,,,,,,,,,,,,,,,,,,265.0519319000887,265.25315740006045,265.2354592999909,265.536088700057,265.536088700057,None,266.0367462000577,None,j,0,1.0285803000442684,266.0367462000577,None,None,None,267.0884655000409,None,,,,,,,,,,,,,,,,,,,,,11013,2,1,2024_Jun_04_1927,stroop_task_switching2,2021.2.3,60.005460482598394,
condition/block_mixed,instruction/instr_mixed,instruction/i10,绿,blue,k,square,color_mix,单词,,incompatible,1,,,,,,,,0,2,2,2,0,0,0,0,0,8,8,8,,,,,,,,,,,,,,,,,,,,,,,,,,,,,,,,,,,268.090280000004,268.2902421000181,268.27363630000036,268.57383550005034,268.57383550005034,None,269.0748956000898,None,f,0,1.75859710003715,269.0748956000898,None,None,None,270.8607426000526,None,,,,,,,,,,,,,,,,,,,,,11013,2,1,2024_Jun_04_1927,stroop_task_switching2,2021.2.3,60.005460482598394,
condition/block_mixed,instruction/instr_mixed,instruction/i10,蓝,green,k,diamond,color_mix,颜色,,incompatible,2,,,,,,,,0,2,2,2,0,0,0,0,0,9,9,9,,,,,,,,,,,,,,,,,,,,,,,,,,,,,,,,,,,271.8623075000942,272.06270200002473,272.04700760007836,272.3464051000774,272.3464051000774,None,272.84704100003,None,k,1,0.9545557999517769,272.84704100003,None,None,None,273.83205210010055,None,,,,,,,,,,,,,,,,,,,,,11013,2,1,2024_Jun_04_1927,stroop_task_switching2,2021.2.3,60.005460482598394,
condition/block_mixed,instruction/instr_mixed,instruction/i10,蓝,yellow,f,square,color_mix,单词,,incompatible,2,,,,,,,,0,2,2,2,0,0,0,0,0,10,10,10,,,,,,,,,,,,,,,,,,,,,,,,,,,,,,,,,,,274.8333792000776,275.0337048000656,275.0170382000506,275.3173235000577,275.3173235000577,None,275.8182192000095,None,f,1,1.8153642000397667,275.8182192000095,None,None,None,277.6542244000593,None,,,,,,,,,,,,,,,,,,,,,11013,2,1,2024_Jun_04_1927,stroop_task_switching2,2021.2.3,60.005460482598394,
condition/block_mixed,instruction/instr_mixed,instruction/i10,蓝,green,f,square,color_mix,单词,,incompatible,1,,,,,,,,0,2,2,2,0,0,0,0,0,11,11,11,,,,,,,,,,,,,,,,,,,,,,,,,,,,,,,,,,,278.6557451999979,278.85653119999915,278.83948239998426,279.13987660000566,279.13987660000566,None,279.6406530000968,None,k,0,2.6970984999788925,279.6406530000968,None,None,None,282.36136890004855,None,,,,,,,,,,,,,,,,,,,,,11013,2,1,2024_Jun_04_1927,stroop_task_switching2,2021.2.3,60.005460482598394,
condition/block_mixed,instruction/instr_mixed,instruction/i10,绿,yellow,k,square,color_mix,单词,,incompatible,1,,,,,,,,0,2,2,2,0,0,0,0,0,12,12,12,,,,,,,,,,,,,,,,,,,,,,,,,,,,,,,,,,,283.36280710005667,283.56409340002574,283.54643240000587,283.8477326000575,283.8477326000575,None,284.34768750006333,None,j,0,0.942174999974668,284.34768750006333,None,None,None,285.31588070001453,None,,,,,,,,,,,,,,,,,,,,,11013,2,1,2024_Jun_04_1927,stroop_task_switching2,2021.2.3,60.005460482598394,
condition/block_mixed,instruction/instr_mixed,instruction/i10,绿,blue,f,diamond,color_mix,颜色,,incompatible,2,,,,,,,,0,2,2,2,0,0,0,0,0,13,13,13,,,,,,,,,,,,,,,,,,,,,,,,,,,,,,,,,,,286.31724730005953,286.51743780006655,286.5019511000719,286.8015529999975,286.8015529999975,None,287.3028667999897,None,f,1,2.346962600015104,287.3028667999897,None,None,None,289.6724797000643,None,,,,,,,,,,,,,,,,,,,,,11013,2,1,2024_Jun_04_1927,stroop_task_switching2,2021.2.3,60.005460482598394,
condition/block_mixed,instruction/instr_mixed,instruction/i10,黄,red,j,square,color_mix,单词,,incompatible,2,,,,,,,,0,2,2,2,0,0,0,0,0,14,14,14,,,,,,,,,,,,,,,,,,,,,,,,,,,,,,,,,,,290.67443140002433,290.8759002999868,290.85760049999226,291.1590930999955,291.1590930999955,None,291.6586275000591,None,j,1,1.8555001000640914,291.6586275000591,None,None,None,293.54483969998546,None,,,,,,,,,,,,,,,,,,,,,11013,2,1,2024_Jun_04_1927,stroop_task_switching2,2021.2.3,60.005460482598394,
condition/block_mixed,instruction/instr_mixed,instruction/i10,蓝,yellow,j,diamond,color_mix,颜色,,incompatible,2,,,,,,,,0,2,2,2,0,0,0,0,0,15,15,15,,,,,,,,,,,,,,,,,,,,,,,,,,,,,,,,,,,294.546390100033,294.74668480001856,294.7298227000283,295.0311041000532,295.0311041000532,None,295.5311726999935,None,j,1,1.0391055000945926,295.5311726999935,None,None,None,296.59931580000557,None,,,,,,,,,,,,,,,,,,,,,11013,2,1,2024_Jun_04_1927,stroop_task_switching2,2021.2.3,60.005460482598394,
condition/block_mixed,instruction/instr_mixed,instruction/i10,黄,red,d,diamond,color_mix,颜色,,incompatible,1,,,,,,,,0,2,2,2,0,0,0,0,0,16,16,16,,,,,,,,,,,,,,,,,,,,,,,,,,,,,,,,,,,297.6015666000312,297.8020227000816,297.78470260009635,298.0849908000091,298.0849908000091,None,298.5858948000241,None,d,1,0.9284471999853849,298.5858948000241,None,None,None,299.5372185000451,None,,,,,,,,,,,,,,,,,,,,,11013,2,1,2024_Jun_04_1927,stroop_task_switching2,2021.2.3,60.005460482598394,
condition/block_mixed,instruction/instr_mixed,instruction/i10,绿,red,k,square,color_mix,单词,,incompatible,2,,,,,,,,0,2,2,2,0,0,0,0,0,17,17,17,,,,,,,,,,,,,,,,,,,,,,,,,,,,,,,,,,,300.5388964000158,300.74001380009577,300.7225165000418,301.0227196000051,301.0227196000051,None,301.52349150006194,None,k,1,0.9831497999839485,301.52349150006194,None,None,None,302.5253778999904,None,,,,,,,,,,,,,,,,,,,,,11013,2,1,2024_Jun_04_1927,stroop_task_switching2,2021.2.3,60.005460482598394,
condition/block_mixed,instruction/instr_mixed,instruction/i10,红,green,d,square,color_mix,单词,,incompatible,1,,,,,,,,0,2,2,2,0,0,0,0,0,18,18,18,,,,,,,,,,,,,,,,,,,,,,,,,,,,,,,,,,,303.52673180005513,303.72887560003437,303.7100235000253,304.01125320000574,304.01125320000574,None,304.5116442000726,None,d,1,1.5307396999560297,304.5116442000726,None,None,None,306.06402890000027,None,,,,,,,,,,,,,,,,,,,,,11013,2,1,2024_Jun_04_1927,stroop_task_switching2,2021.2.3,60.005460482598394,
condition/block_mixed,instruction/instr_mixed,instruction/i10,黄,blue,f,diamond,color_mix,颜色,,incompatible,2,,,,,,,,0,2,2,2,0,0,0,0,0,19,19,19,,,,,,,,,,,,,,,,,,,,,,,,,,,,,,,,,,,307.06541859998833,307.266747900052,307.24893600004725,307.5495401000371,307.5495401000371,None,308.05007790005766,None,f,1,1.6082777000265196,308.05007790005766,None,None,None,309.68600810004864,None,,,,,,,,,,,,,,,,,,,,,11013,2,1,2024_Jun_04_1927,stroop_task_switching2,2021.2.3,60.005460482598394,
condition/block_mixed,instruction/instr_mixed,instruction/i10,黄,green,k,diamond,color_mix,颜色,,incompatible,1,,,,,,,,0,2,2,2,0,0,0,0,0,20,20,20,,,,,,,,,,,,,,,,,,,,,,,,,,,,,,,,,,,310.6872781000566,310.887607700075,310.87082770001143,311.17217170004733,311.17217170004733,None,311.6723254000535,None,k,1,1.2103323999326676,311.6723254000535,None,None,None,312.90727470000274,None,,,,,,,,,,,,,,,,,,,,,11013,2,1,2024_Jun_04_1927,stroop_task_switching2,2021.2.3,60.005460482598394,
condition/block_mixed,instruction/instr_mixed,instruction/i10,黄,green,j,square,color_mix,单词,,incompatible,2,,,,,,,,0,2,2,2,0,0,0,0,0,21,21,21,,,,,,,,,,,,,,,,,,,,,,,,,,,,,,,,,,,313.9089190000668,314.1091998000629,314.09295510000084,314.39289080002345,314.39289080002345,None,314.8938765000785,317.8990575000644,None,0,,314.8938765000785,317.8990575000644,317.864777800045,None,318.4992388000246,None,,,,,,,,,,,,,,,,,,,,,11013,2,1,2024_Jun_04_1927,stroop_task_switching2,2021.2.3,60.005460482598394,
condition/block_mixed,instruction/instr_mixed,instruction/i10,黄,blue,j,square,color_mix,单词,,incompatible,1,,,,,,,,0,2,2,2,0,0,0,0,0,22,22,22,,,,,,,,,,,,,,,,,,,,,,,,,,,,,,,,,,,319.5006860999856,319.7026368000079,319.6840939000249,319.98556579998694,319.98556579998694,None,320.485473100096,None,j,1,1.6052038000198081,320.485473100096,None,None,None,322.1215215000557,None,,,,,,,,,,,,,,,,,,,,,11013,2,1,2024_Jun_04_1927,stroop_task_switching2,2021.2.3,60.005460482598394,
condition/block_mixed,instruction/instr_mixed,instruction/i10,蓝,red,f,square,color_mix,单词,,incompatible,1,,,,,,,,0,2,2,2,0,0,0,0,0,23,23,23,,,,,,,,,,,,,,,,,,,,,,,,,,,,,,,,,,,323.1228523000609,323.3231275000144,323.3065902000526,323.6069815000519,323.6069815000519,None,324.1078985000495,None,f,1,1.6472429999848828,324.1078985000495,None,None,None,325.7767065000953,None,,,,,,,,,,,,,,,,,,,,,11013,2,1,2024_Jun_04_1927,stroop_task_switching2,2021.2.3,60.005460482598394,
condition/block_mixed,instruction/instr_mixed,instruction/i10,绿,red,d,diamond,color_mix,颜色,,incompatible,2,,,,,,,,0,2,2,2,0,0,0,0,0,24,24,24,,,,,,,,,,,,,,,,,,,,,,,,,,,,,,,,,,,326.7784270000411,326.97942440002225,326.96203950000927,327.26261119998526,327.26261119998526,None,327.76332270004787,None,k,0,2.448152400087565,327.76332270004787,None,None,None,330.2335927000968,None,,,,,,,,,,,,,,,,,,,,,11013,2,1,2024_Jun_04_1927,stroop_task_switching2,2021.2.3,60.005460482598394,
condition/block_mixed,instruction/instr_mixed,instruction/i10,绿,green,k,diamond,color_mix,颜色,,compatible,1,,,,,,,,0,2,2,2,0,0,0,0,0,25,25,25,,,,,,,,,,,,,,,,,,,,,,,,,,,,,,,,,,,331.2348759000888,331.4354266000446,331.41865320003126,331.7190755000338,331.7190755000338,None,332.21993360004853,None,k,1,1.2796647000359371,332.21993360004853,None,None,None,333.5218415000709,None,,,,,,,,,,,,,,,,,,,,,11013,2,1,2024_Jun_04_1927,stroop_task_switching2,2021.2.3,60.005460482598394,
condition/block_mixed,instruction/instr_mixed,instruction/i10,蓝,blue,f,diamond,color_mix,颜色,,compatible,1,,,,,,,,0,2,2,2,0,0,0,0,0,26,26,26,,,,,,,,,,,,,,,,,,,,,,,,,,,,,,,,,,,334.52349480008706,334.72361240000464,334.7080166999949,335.0085887000896,335.0085887000896,None,335.5083459999878,None,f,1,1.062681999988854,335.5083459999878,None,None,None,336.5931127000367,None,,,,,,,,,,,,,,,,,,,,,11013,2,1,2024_Jun_04_1927,stroop_task_switching2,2021.2.3,60.005460482598394,
condition/block_mixed,instruction/instr_mixed,instruction/i10,绿,green,k,square,color_mix,单词,,compatible,2,,,,,,,,0,2,2,2,0,0,0,0,0,27,27,27,,,,,,,,,,,,,,,,,,,,,,,,,,,,,,,,,,,337.59477880003396,337.7952903000405,337.779648500029,338.07965710002463,338.07965710002463,None,338.57931679999456,None,k,1,2.0641095999162644,338.57931679999456,None,None,None,340.6659683000762,None,,,,,,,,,,,,,,,,,,,,,11013,2,1,2024_Jun_04_1927,stroop_task_switching2,2021.2.3,60.005460482598394,
condition/block_mixed,instruction/instr_mixed,instruction/i10,绿,green,k,square,color_mix,单词,,compatible,1,,,,,,,,0,2,2,2,0,0,0,0,0,28,28,28,,,,,,,,,,,,,,,,,,,,,,,,,,,,,,,,,,,341.6675093000522,341.8678491000319,341.85120820009615,342.15232240001205,342.15232240001205,None,342.65235350001603,None,k,1,1.0868498000781983,342.65235350001603,None,None,None,343.77060070005246,None,,,,,,,,,,,,,,,,,,,,,11013,2,1,2024_Jun_04_1927,stroop_task_switching2,2021.2.3,60.005460482598394,
condition/block_mixed,instruction/instr_mixed,instruction/i10,蓝,blue,f,square,color_mix,单词,,compatible,1,,,,,,,,0,2,2,2,0,0,0,0,0,29,29,29,,,,,,,,,,,,,,,,,,,,,,,,,,,,,,,,,,,344.7722117000958,344.97250939998776,344.9566680000862,345.2561905999901,345.2561905999901,None,345.7569545999868,None,f,1,1.8865661999443546,345.7569545999868,None,None,None,347.6598492000485,None,,,,,,,,,,,,,,,,,,,,,11013,2,1,2024_Jun_04_1927,stroop_task_switching2,2021.2.3,60.005460482598394,
condition/block_mixed,instruction/instr_mixed,instruction/i10,黄,yellow,j,diamond,color_mix,颜色,,compatible,2,,,,,,,,0,2,2,2,0,0,0,0,0,30,30,30,,,,,,,,,,,,,,,,,,,,,,,,,,,,,,,,,,,348.66113210003823,348.8619527000701,348.8447732999921,349.14646790002007,349.14646790002007,None,349.6463965000585,None,j,1,0.6541998999891803,349.6463965000585,None,None,None,350.3143785999855,None,,,,,,,,,,,,,,,,,,,,,11013,2,1,2024_Jun_04_1927,stroop_task_switching2,2021.2.3,60.005460482598394,
condition/block_mixed,instruction/instr_mixed,instruction/i10,绿,green,k,square,color_mix,单词,,compatible,2,,,,,,,,0,2,2,2,0,0,0,0,0,31,31,31,,,,,,,,,,,,,,,,,,,,,,,,,,,,,,,,,,,351.3157938000513,351.5179799000034,351.4990282000508,351.7992859000806,351.7992859000806,None,352.3002005000599,None,k,1,1.1357355000218377,352.3002005000599,None,None,None,353.4517921000952,None,,,,,,,,,,,,,,,,,,,,,11013,2,1,2024_Jun_04_1927,stroop_task_switching2,2021.2.3,60.005460482598394,
condition/block_mixed,instruction/instr_mixed,instruction/i10,黄,yellow,j,square,color_mix,单词,,compatible,1,,,,,,,,0,2,2,2,0,0,0,0,0,32,32,32,,,,,,,,,,,,,,,,,,,,,,,,,,,,,,,,,,,354.45367850002367,354.6546252000844,354.63758020009845,354.9375427000923,354.9375427000923,None,355.43827380007133,None,j,1,0.9495159999933094,355.43827380007133,None,None,None,356.4062802999979,None,,,,,,,,,,,,,,,,,,,,,11013,2,1,2024_Jun_04_1927,stroop_task_switching2,2021.2.3,60.005460482598394,
condition/block_mixed,instruction/instr_mixed,instruction/i10,绿,green,k,diamond,color_mix,颜色,,compatible,2,,,,,,,,0,2,2,2,0,0,0,0,0,33,33,33,,,,,,,,,,,,,,,,,,,,,,,,,,,,,,,,,,,357.40781410003547,357.6083340999903,357.593883600086,357.9087672000751,357.89332240005024,None,358.392891400028,None,k,1,1.9232394000282511,358.392891400028,None,None,None,360.34562250005547,None,,,,,,,,,,,,,,,,,,,,,11013,2,1,2024_Jun_04_1927,stroop_task_switching2,2021.2.3,60.005460482598394,
condition/block_mixed,instruction/instr_mixed,instruction/i10,红,red,d,square,color_mix,单词,,compatible,2,,,,,,,,0,2,2,2,0,0,0,0,0,34,34,34,,,,,,,,,,,,,,,,,,,,,,,,,,,,,,,,,,,361.34710510005243,361.5473334999988,361.53111920005176,361.83230070001446,361.83230070001446,None,362.3323189000366,None,d,1,1.0795552000636235,362.3323189000366,None,None,None,363.4342115999898,None,,,,,,,,,,,,,,,,,,,,,11013,2,1,2024_Jun_04_1927,stroop_task_switching2,2021.2.3,60.005460482598394,
condition/block_mixed,instruction/instr_mixed,instruction/i10,黄,yellow,j,square,color_mix,单词,,compatible,1,,,,,,,,0,2,2,2,0,0,0,0,0,35,35,35,,,,,,,,,,,,,,,,,,,,,,,,,,,,,,,,,,,364.43517270009033,364.6358181000687,364.61858810007107,364.92000500008,364.92000500008,None,365.41995750006754,None,f,0,0.6402313999133185,365.41995750006754,None,None,None,366.08738550008275,None,,,,,,,,,,,,,,,,,,,,,11013,2,1,2024_Jun_04_1927,stroop_task_switching2,2021.2.3,60.005460482598394,
condition/block_mixed,instruction/instr_mixed,instruction/i10,绿,green,k,diamond,color_mix,颜色,,compatible,2,,,,,,,,0,2,2,2,0,0,0,0,0,36,36,36,,,,,,,,,,,,,,,,,,,,,,,,,,,,,,,,,,,367.0891279000789,367.28948510007467,367.272881800076,367.57306750002317,367.57306750002317,None,368.07401450001635,None,k,1,2.4665827999124303,368.07401450001635,None,None,None,370.5609438000247,None,,,,,,,,,,,,,,,,,,,,,11013,2,1,2024_Jun_04_1927,stroop_task_switching2,2021.2.3,60.005460482598394,
condition/block_mixed,instruction/instr_mixed,instruction/i10,蓝,blue,f,square,color_mix,单词,,compatible,2,,,,,,,,0,2,2,2,0,0,0,0,0,37,37,37,,,,,,,,,,,,,,,,,,,,,,,,,,,,,,,,,,,371.56253820005804,371.76286760007497,371.74651180009823,372.046570800012,372.046570800012,None,372.54725990002044,375.5532071000198,None,0,,372.54725990002044,375.5532071000198,375.5185443999944,None,376.08597590005957,None,,,,,,,,,,,,,,,,,,,,,11013,2,1,2024_Jun_04_1927,stroop_task_switching2,2021.2.3,60.005460482598394,
condition/block_mixed,instruction/instr_mixed,instruction/i10,红,red,d,square,color_mix,单词,,compatible,1,,,,,,,,0,2,2,2,0,0,0,0,0,38,38,38,,,,,,,,,,,,,,,,,,,,,,,,,,,,,,,,,,,377.08743590000086,377.2880705000134,377.27108890004456,377.57159900001716,377.57159900001716,None,378.07240679999813,None,d,1,0.8440496999537572,378.07240679999813,None,None,None,378.9401201000437,None,,,,,,,,,,,,,,,,,,,,,11013,2,1,2024_Jun_04_1927,stroop_task_switching2,2021.2.3,60.005460482598394,
condition/block_mixed,instruction/instr_mixed,instruction/i10,黄,yellow,j,diamond,color_mix,颜色,,compatible,2,,,,,,,,0,2,2,2,0,0,0,0,0,39,39,39,,,,,,,,,,,,,,,,,,,,,,,,,,,,,,,,,,,379.9418105999939,380.14297150005586,380.12552330002654,380.4259103999939,380.4259103999939,None,380.926605100045,None,j,1,0.8217093999264762,380.926605100045,None,None,None,381.7779318999965,None,,,,,,,,,,,,,,,,,,,,,11013,2,1,2024_Jun_04_1927,stroop_task_switching2,2021.2.3,60.005460482598394,
condition/block_mixed,instruction/instr_mixed,instruction/i10,黄,yellow,j,square,color_mix,单词,,compatible,2,,,,,,,,0,2,2,2,0,0,0,0,0,40,40,40,,,,,,,,,,,,,,,,,,,,,,,,,,,,,,,,,,,382.77932239999063,382.98084560001735,382.9628834000323,383.2659554000711,383.2659554000711,None,383.7811475000344,None,j,1,0.8717662000562996,383.7811475000344,None,None,None,384.68246949999593,None,,,,,,,,,,,,,,,,,,,,,11013,2,1,2024_Jun_04_1927,stroop_task_switching2,2021.2.3,60.005460482598394,
condition/block_mixed,instruction/instr_mixed,instruction/i10,蓝,blue,f,square,color_mix,单词,,compatible,1,,,,,,,,0,2,2,2,0,0,0,0,0,41,41,41,,,,,,,,,,,,,,,,,,,,,,,,,,,,,,,,,,,385.68391860008705,385.88515490002465,385.867406400037,386.167901000008,386.167901000008,None,386.66860980005004,None,f,1,0.9520325999474153,386.66860980005004,None,None,None,387.6368502000114,None,,,,,,,,,,,,,,,,,,,,,11013,2,1,2024_Jun_04_1927,stroop_task_switching2,2021.2.3,60.005460482598394,
condition/block_mixed,instruction/instr_mixed,instruction/i10,蓝,blue,f,diamond,color_mix,颜色,,compatible,2,,,,,,,,0,2,2,2,0,0,0,0,0,42,42,42,,,,,,,,,,,,,,,,,,,,,,,,,,,,,,,,,,,388.6380407999968,388.83874320006,388.82345880009234,389.1391558999894,389.124587600003,None,389.6230386000825,None,f,1,1.1097900999011472,389.6230386000825,None,None,None,390.75812680006493,None,,,,,,,,,,,,,,,,,,,,,11013,2,1,2024_Jun_04_1927,stroop_task_switching2,2021.2.3,60.005460482598394,
condition/block_mixed,instruction/instr_mixed,instruction/i10,黄,yellow,j,diamond,color_mix,颜色,,compatible,1,,,,,,,,0,2,2,2,0,0,0,0,0,43,43,43,,,,,,,,,,,,,,,,,,,,,,,,,,,,,,,,,,,391.75965970009565,391.9609243000159,391.94340500002727,392.2449588000309,392.2449588000309,None,392.74449260008987,None,j,1,1.8765307000139728,392.74449260008987,None,None,None,394.64735330000985,None,,,,,,,,,,,,,,,,,,,,,11013,2,1,2024_Jun_04_1927,stroop_task_switching2,2021.2.3,60.005460482598394,
condition/block_mixed,instruction/instr_mixed,instruction/i10,红,red,d,diamond,color_mix,颜色,,compatible,1,,,,,,,,0,2,2,2,0,0,0,0,0,44,44,44,,,,,,,,,,,,,,,,,,,,,,,,,,,,,,,,,,,395.64872970001306,395.84926330007147,395.83313819998875,396.1329795999918,396.1329795999918,None,396.63362450001296,None,d,1,0.7711461998987943,396.63362450001296,None,None,None,397.434707300039,None,,,,,,,,,,,,,,,,,,,,,11013,2,1,2024_Jun_04_1927,stroop_task_switching2,2021.2.3,60.005460482598394,
condition/block_mixed,instruction/instr_mixed,instruction/i10,蓝,blue,f,diamond,color_mix,颜色,,compatible,1,,,,,,,,0,2,2,2,0,0,0,0,0,45,45,45,,,,,,,,,,,,,,,,,,,,,,,,,,,,,,,,,,,398.43646760005504,398.6380911000306,398.62007220007945,398.92038180003874,398.92038180003874,None,399.4213385999901,None,f,1,0.7996197000611573,399.4213385999901,None,None,None,400.2391485000262,None,,,,,,,,,,,,,,,,,,,,,11013,2,1,2024_Jun_04_1927,stroop_task_switching2,2021.2.3,60.005460482598394,
condition/block_mixed,instruction/instr_mixed,instruction/i10,红,red,d,diamond,color_mix,颜色,,compatible,1,,,,,,,,0,2,2,2,0,0,0,0,0,46,46,46,,,,,,,,,,,,,,,,,,,,,,,,,,,,,,,,,,,401.2406817000592,401.44193860003725,401.42428360006306,401.7246138000628,401.7246138000628,None,402.2253584000282,None,d,1,1.2757358000380918,402.2253584000282,None,None,None,403.52739150007255,None,,,,,,,,,,,,,,,,,,,,,11013,2,1,2024_Jun_04_1927,stroop_task_switching2,2021.2.3,60.005460482598394,
condition/block_mixed,instruction/instr_mixed,instruction/i10,红,red,d,square,color_mix,单词,,compatible,2,,,,,,,,0,2,2,2,0,0,0,0,0,47,47,47,,,,,,,,,,,,,,,,,,,,,,,,,,,,,,,,,,,404.5292425000807,404.73001120006666,404.71367030008696,405.0136641000863,405.0136641000863,None,405.51414179999847,None,d,1,0.6837877000216395,405.51414179999847,None,None,None,406.2147465000162,None,,,,,,,,,,,,,,,,,,,,,11013,2,1,2024_Jun_04_1927,stroop_task_switching2,2021.2.3,60.005460482598394,
condition/block_mixed,instruction/instr_mixed,instruction/i10,红,red,d,diamond,color_mix,颜色,,compatible,2,,,,,,,,0,2,2,2,0,0,0,0,0,48,48,48,,,,,,,,,,,,,,,,,,,,,,,,,,,,,,,,,,,407.21623900008854,407.4165517000947,407.40026740008034,407.7009041000856,407.7009041000856,None,408.20120640005916,None,d,1,0.8438207000726834,408.20120640005916,None,None,None,409.06901020009536,None,,,,,,,,,,,,,,,,,,,,,11013,2,1,2024_Jun_04_1927,stroop_task_switching2,2021.2.3,60.005460482598394,
condition/block_mixed,instruction/instr_mixed,instruction/i10,,,,,,,,,,,,,,,,,0,2,2,2,0,0,0,0,,,,,,,,,,,,,,,,,,,,,,,,,,,,,,,,,,,,,,,,,,,,,,,,,,,,,,,,410.0705244001001,None,q,9.479023599997163,410.0705244001001,None,,,,,,,,,,,,,,,11013,2,1,2024_Jun_04_1927,stroop_task_switching2,2021.2.3,60.005460482598394,
condition/block_mixed,instruction/instr_mixed,instruction/i10,蓝,red,d,diamond,color_mix,颜色,,incompatible,0,,,,,,,,0,2,2,2,1,0,1,0,0,0,0,0,,,,,,,,,,,,,,,,,,,,,,,,,,,420.56966889998876,421.5712793000275,421.5712793000275,422.57309860002715,422.57309860002715,None,419.58508119999897,420.58712130005006,423.60798760002945,423.8085513000842,423.7917965000961,424.09173159999773,424.09173159999773,None,424.5925844000885,None,d,1,0.9010427999310195,424.5925844000885,None,None,None,425.51042780000716,None,,,,,,,,,,,,,,,,,,,,,11013,2,1,2024_Jun_04_1927,stroop_task_switching2,2021.2.3,60.005460482598394,
condition/block_mixed,instruction/instr_mixed,instruction/i10,绿,yellow,j,diamond,color_mix,颜色,,incompatible,1,,,,,,,,0,2,2,2,1,0,1,0,0,1,1,1,,,,,,,,,,,,,,,,,,,,,,,,,,,,,,,,,,,426.5122686000541,426.7135439000558,426.69579030002933,426.99671020009555,426.99671020009555,None,427.4969941000454,None,j,1,1.2529214000096545,427.4969941000454,None,None,None,428.7659357000375,None,,,,,,,,,,,,,,,,,,,,,11013,2,1,2024_Jun_04_1927,stroop_task_switching2,2021.2.3,60.005460482598394,
condition/block_mixed,instruction/instr_mixed,instruction/i10,红,green,k,diamond,color_mix,颜色,,incompatible,1,,,,,,,,0,2,2,2,1,0,1,0,0,2,2,2,,,,,,,,,,,,,,,,,,,,,,,,,,,,,,,,,,,429.766943500028,429.9675303000258,429.9522973001003,430.2510240999982,430.2510240999982,None,430.7518261000514,433.7574040000327,None,0,,430.7518261000514,433.7574040000327,433.7396249000449,None,434.4905837000115,None,,,,,,,,,,,,,,,,,,,,,11013,2,1,2024_Jun_04_1927,stroop_task_switching2,2021.2.3,60.005460482598394,
condition/block_mixed,instruction/instr_mixed,instruction/i10,蓝,red,d,diamond,color_mix,颜色,,incompatible,1,,,,,,,,0,2,2,2,1,0,1,0,0,3,3,3,,,,,,,,,,,,,,,,,,,,,,,,,,,,,,,,,,,435.49228540004697,435.6931244999869,435.6758535000263,435.97687260003295,435.97687260003295,None,436.4772138000699,None,d,1,1.0486292999703437,436.4772138000699,None,None,None,437.54532560007647,None,,,,,,,,,,,,,,,,,,,,,11013,2,1,2024_Jun_04_1927,stroop_task_switching2,2021.2.3,60.005460482598394,
condition/block_mixed,instruction/instr_mixed,instruction/i10,红,blue,f,diamond,color_mix,颜色,,incompatible,1,,,,,,,,0,2,2,2,1,0,1,0,0,4,4,4,,,,,,,,,,,,,,,,,,,,,,,,,,,,,,,,,,,438.5467881000368,438.74893630004954,438.7304804000305,439.0327287000837,439.0327287000837,None,439.53178339998703,None,f,1,1.3303608000278473,439.53178339998703,None,None,None,440.88374200009275,None,,,,,,,,,,,,,,,,,,,,,11013,2,1,2024_Jun_04_1927,stroop_task_switching2,2021.2.3,60.005460482598394,
condition/block_mixed,instruction/instr_mixed,instruction/i10,红,blue,d,square,color_mix,单词,,incompatible,2,,,,,,,,0,2,2,2,1,0,1,0,0,5,5,5,,,,,,,,,,,,,,,,,,,,,,,,,,,,,,,,,,,441.8851488000946,442.0854089000495,442.0708670000313,442.38663020008244,442.36922950006556,None,442.8700534000527,None,d,1,0.6483186000259593,442.8700534000527,None,None,None,443.53759830002673,None,,,,,,,,,,,,,,,,,,,,,11013,2,1,2024_Jun_04_1927,stroop_task_switching2,2021.2.3,60.005460482598394,
condition/block_mixed,instruction/instr_mixed,instruction/i10,红,yellow,j,diamond,color_mix,颜色,,incompatible,2,,,,,,,,0,2,2,2,1,0,1,0,0,6,6,6,,,,,,,,,,,,,,,,,,,,,,,,,,,,,,,,,,,444.53971200005617,444.740277600009,444.7230606999947,445.0252567999996,445.0252567999996,None,445.523987099994,None,d,0,1.3621122000040486,445.523987099994,None,None,None,446.9094489000272,None,,,,,,,,,,,,,,,,,,,,,11013,2,1,2024_Jun_04_1927,stroop_task_switching2,2021.2.3,60.005460482598394,
condition/block_mixed,instruction/instr_mixed,instruction/i10,红,yellow,d,square,color_mix,单词,,incompatible,2,,,,,,,,0,2,2,2,1,0,1,0,0,7,7,7,,,,,,,,,,,,,,,,,,,,,,,,,,,,,,,,,,,447.910891000065,448.11124760005623,448.0945854000747,448.3951555000385,448.3951555000385,None,448.89588349999394,None,d,1,1.598501899978146,448.89588349999394,None,None,None,450.5148331000237,None,,,,,,,,,,,,,,,,,,,,,11013,2,1,2024_Jun_04_1927,stroop_task_switching2,2021.2.3,60.005460482598394,
condition/block_mixed,instruction/instr_mixed,instruction/i10,绿,blue,k,square,color_mix,单词,,incompatible,1,,,,,,,,0,2,2,2,1,0,1,0,0,8,8,8,,,,,,,,,,,,,,,,,,,,,,,,,,,,,,,,,,,451.51628720003646,451.71681700006593,451.7009911000496,452.0014605000615,452.0014605000615,None,452.5012443000451,None,k,1,1.1208926999242976,452.5012443000451,None,None,None,453.65311590000056,None,,,,,,,,,,,,,,,,,,,,,11013,2,1,2024_Jun_04_1927,stroop_task_switching2,2021.2.3,60.005460482598394,
condition/block_mixed,instruction/instr_mixed,instruction/i10,蓝,green,k,diamond,color_mix,颜色,,incompatible,2,,,,,,,,0,2,2,2,1,0,1,0,0,9,9,9,,,,,,,,,,,,,,,,,,,,,,,,,,,,,,,,,,,454.6548919000197,454.85484670009464,454.838116500061,455.13855200004764,455.13855200004764,None,455.6391885000048,None,k,1,1.4871727999998257,455.6391885000048,None,None,None,457.1582145000575,None,,,,,,,,,,,,,,,,,,,,,11013,2,1,2024_Jun_04_1927,stroop_task_switching2,2021.2.3,60.005460482598394,
condition/block_mixed,instruction/instr_mixed,instruction/i10,蓝,yellow,f,square,color_mix,单词,,incompatible,2,,,,,,,,0,2,2,2,1,0,1,0,0,10,10,10,,,,,,,,,,,,,,,,,,,,,,,,,,,,,,,,,,,458.1596228000708,458.35991640004795,458.344839300029,458.6605707000708,458.6452487000497,None,459.1448386000702,None,j,0,1.6777990000555292,459.1448386000702,None,None,None,460.84717700001784,None,,,,,,,,,,,,,,,,,,,,,11013,2,1,2024_Jun_04_1927,stroop_task_switching2,2021.2.3,60.005460482598394,
condition/block_mixed,instruction/instr_mixed,instruction/i10,蓝,green,f,square,color_mix,单词,,incompatible,1,,,,,,,,0,2,2,2,1,0,1,0,0,11,11,11,,,,,,,,,,,,,,,,,,,,,,,,,,,,,,,,,,,461.84854020003695,462.0488106000703,462.0333590999944,462.33360760007054,462.33360760007054,None,462.83353410009295,None,f,1,1.3972107999725267,462.83353410009295,None,None,None,464.25249890005216,None,,,,,,,,,,,,,,,,,,,,,11013,2,1,2024_Jun_04_1927,stroop_task_switching2,2021.2.3,60.005460482598394,
condition/block_mixed,instruction/instr_mixed,instruction/i10,绿,yellow,k,square,color_mix,单词,,incompatible,1,,,,,,,,0,2,2,2,1,0,1,0,0,12,12,12,,,,,,,,,,,,,,,,,,,,,,,,,,,,,,,,,,,465.25393330003135,465.4555068000918,465.4380960999988,465.7380437999964,465.7380437999964,None,466.2384063000791,None,k,1,1.8644395000301301,466.2384063000791,None,None,None,468.1247549999971,None,,,,,,,,,,,,,,,,,,,,,11013,2,1,2024_Jun_04_1927,stroop_task_switching2,2021.2.3,60.005460482598394,
condition/block_mixed,instruction/instr_mixed,instruction/i10,绿,blue,f,diamond,color_mix,颜色,,incompatible,2,,,,,,,,0,2,2,2,1,0,1,0,0,13,13,13,,,,,,,,,,,,,,,,,,,,,,,,,,,,,,,,,,,469.12633490003645,469.32696209999267,469.31000030005816,469.61056430009194,469.61056430009194,None,470.1112846999895,None,f,1,0.8476087999297306,470.1112846999895,None,None,None,470.979507900076,None,,,,,,,,,,,,,,,,,,,,,11013,2,1,2024_Jun_04_1927,stroop_task_switching2,2021.2.3,60.005460482598394,
condition/block_mixed,instruction/instr_mixed,instruction/i10,黄,red,j,square,color_mix,单词,,incompatible,2,,,,,,,,0,2,2,2,1,0,1,0,0,14,14,14,,,,,,,,,,,,,,,,,,,,,,,,,,,,,,,,,,,471.9806475000223,472.1815126000438,472.1641150000505,472.46629850007594,472.46629850007594,None,472.96546460001264,None,j,1,1.018109199940227,472.96546460001264,None,None,None,474.00036730000284,None,,,,,,,,,,,,,,,,,,,,,11013,2,1,2024_Jun_04_1927,stroop_task_switching2,2021.2.3,60.005460482598394,
condition/block_mixed,instruction/instr_mixed,instruction/i10,蓝,yellow,j,diamond,color_mix,颜色,,incompatible,2,,,,,,,,0,2,2,2,1,0,1,0,0,15,15,15,,,,,,,,,,,,,,,,,,,,,,,,,,,,,,,,,,,475.00192250008695,475.20221440005116,475.18809140007943,475.5025707000168,475.4871843000874,None,475.986554000061,None,f,0,2.2444271999411285,475.986554000061,None,None,None,478.2567557999864,None,,,,,,,,,,,,,,,,,,,,,11013,2,1,2024_Jun_04_1927,stroop_task_switching2,2021.2.3,60.005460482598394,
condition/block_mixed,instruction/instr_mixed,instruction/i10,黄,red,d,diamond,color_mix,颜色,,incompatible,1,,,,,,,,0,2,2,2,1,0,1,0,0,16,16,16,,,,,,,,,,,,,,,,,,,,,,,,,,,,,,,,,,,479.2597561000148,479.47520300000906,479.44174530007876,479.7422940999968,479.7422940999968,None,480.243081200053,None,d,1,0.8523317000363022,480.243081200053,None,None,None,481.1108884999994,None,,,,,,,,,,,,,,,,,,,,,11013,2,1,2024_Jun_04_1927,stroop_task_switching2,2021.2.3,60.005460482598394,
condition/block_mixed,instruction/instr_mixed,instruction/i10,绿,red,k,square,color_mix,单词,,incompatible,2,,,,,,,,0,2,2,2,1,0,1,0,0,17,17,17,,,,,,,,,,,,,,,,,,,,,,,,,,,,,,,,,,,482.1126326000085,482.3142702000914,482.2968566000927,482.5966760000447,482.5966760000447,None,483.0974301000824,None,k,1,2.069917800021358,483.0974301000824,None,None,None,485.18408110004384,None,,,,,,,,,,,,,,,,,,,,,11013,2,1,2024_Jun_04_1927,stroop_task_switching2,2021.2.3,60.005460482598394,
condition/block_mixed,instruction/instr_mixed,instruction/i10,红,green,d,square,color_mix,单词,,incompatible,1,,,,,,,,0,2,2,2,1,0,1,0,0,18,18,18,,,,,,,,,,,,,,,,,,,,,,,,,,,,,,,,,,,486.18535710009746,486.38678719999734,486.36910190002527,486.66933679999784,486.66933679999784,None,487.1700016000541,None,d,1,0.7732626999495551,487.1700016000541,None,None,None,487.97138030000497,None,,,,,,,,,,,,,,,,,,,,,11013,2,1,2024_Jun_04_1927,stroop_task_switching2,2021.2.3,60.005460482598394,
condition/block_mixed,instruction/instr_mixed,instruction/i10,黄,blue,f,diamond,color_mix,颜色,,incompatible,2,,,,,,,,0,2,2,2,1,0,1,0,0,19,19,19,,,,,,,,,,,,,,,,,,,,,,,,,,,,,,,,,,,488.97273040004075,489.17327740008477,489.15804260002915,489.45693900005426,489.45693900005426,None,489.957775900024,None,f,1,1.1218451000750065,489.957775900024,None,None,None,491.10951720003504,None,,,,,,,,,,,,,,,,,,,,,11013,2,1,2024_Jun_04_1927,stroop_task_switching2,2021.2.3,60.005460482598394,
condition/block_mixed,instruction/instr_mixed,instruction/i10,黄,green,k,diamond,color_mix,颜色,,incompatible,1,,,,,,,,0,2,2,2,1,0,1,0,0,20,20,20,,,,,,,,,,,,,,,,,,,,,,,,,,,,,,,,,,,492.110886999988,492.3112025000155,492.2954940000782,492.59588909999,492.59588909999,None,493.0957942000823,None,k,1,1.0478420000290498,493.0957942000823,None,None,None,494.16402800008655,None,,,,,,,,,,,,,,,,,,,,,11013,2,1,2024_Jun_04_1927,stroop_task_switching2,2021.2.3,60.005460482598394,
condition/block_mixed,instruction/instr_mixed,instruction/i10,黄,green,j,square,color_mix,单词,,incompatible,2,,,,,,,,0,2,2,2,1,0,1,0,0,21,21,21,,,,,,,,,,,,,,,,,,,,,,,,,,,,,,,,,,,495.16565920005087,495.3669619000284,495.34925760002807,495.65075090003666,495.65075090003666,None,496.15042309998535,None,f,0,0.9372588000260293,496.15042309998535,None,None,None,497.1017319000093,None,,,,,,,,,,,,,,,,,,,,,11013,2,1,2024_Jun_04_1927,stroop_task_switching2,2021.2.3,60.005460482598394,
condition/block_mixed,instruction/instr_mixed,instruction/i10,黄,blue,j,square,color_mix,单词,,incompatible,1,,,,,,,,0,2,2,2,1,0,1,0,0,22,22,22,,,,,,,,,,,,,,,,,,,,,,,,,,,,,,,,,,,498.1034921000246,498.3053170000203,498.28711500007194,498.58783510001376,498.58783510001376,None,499.0881167000625,None,j,1,2.4957813000073656,499.0881167000625,None,None,None,501.6086726000067,None,,,,,,,,,,,,,,,,,,,,,11013,2,1,2024_Jun_04_1927,stroop_task_switching2,2021.2.3,60.005460482598394,
condition/block_mixed,instruction/instr_mixed,instruction/i10,蓝,red,f,square,color_mix,单词,,incompatible,1,,,,,,,,0,2,2,2,1,0,1,0,0,23,23,23,,,,,,,,,,,,,,,,,,,,,,,,,,,,,,,,,,,502.61037440004293,502.81110460008495,502.7937847999856,503.0952258000616,503.0952258000616,None,503.5953497000737,None,j,0,1.860334899974987,503.5953497000737,None,None,None,505.4809486999875,None,,,,,,,,,,,,,,,,,,,,,11013,2,1,2024_Jun_04_1927,stroop_task_switching2,2021.2.3,60.005460482598394,
condition/block_mixed,instruction/instr_mixed,instruction/i10,绿,red,d,diamond,color_mix,颜色,,incompatible,2,,,,,,,,0,2,2,2,1,0,1,0,0,24,24,24,,,,,,,,,,,,,,,,,,,,,,,,,,,,,,,,,,,506.4825935000554,506.68356470006984,506.6663034000667,506.9670034000883,506.9670034000883,None,507.4674261000473,None,d,1,1.2043150999816135,507.4674261000473,None,None,None,508.7029574000044,None,,,,,,,,,,,,,,,,,,,,,11013,2,1,2024_Jun_04_1927,stroop_task_switching2,2021.2.3,60.005460482598394,
condition/block_mixed,instruction/instr_mixed,instruction/i10,绿,green,k,diamond,color_mix,颜色,,compatible,1,,,,,,,,0,2,2,2,1,0,1,0,0,25,25,25,,,,,,,,,,,,,,,,,,,,,,,,,,,,,,,,,,,509.70457090006676,509.9044390000636,509.88922080001794,510.1882334999973,510.1882334999973,None,510.6889331000857,None,k,1,1.191138399997726,510.6889331000857,None,None,None,511.90747259999625,None,,,,,,,,,,,,,,,,,,,,,11013,2,1,2024_Jun_04_1927,stroop_task_switching2,2021.2.3,60.005460482598394,
condition/block_mixed,instruction/instr_mixed,instruction/i10,蓝,blue,f,diamond,color_mix,颜色,,compatible,1,,,,,,,,0,2,2,2,1,0,1,0,0,26,26,26,,,,,,,,,,,,,,,,,,,,,,,,,,,,,,,,,,,512.9093782000709,513.1094032000983,513.0930717000738,513.3934207999846,513.3934207999846,None,513.8939388000872,None,f,1,1.2261895999545231,513.8939388000872,None,None,None,515.1456923000515,None,,,,,,,,,,,,,,,,,,,,,11013,2,1,2024_Jun_04_1927,stroop_task_switching2,2021.2.3,60.005460482598394,
condition/block_mixed,instruction/instr_mixed,instruction/i10,绿,green,k,square,color_mix,单词,,compatible,2,,,,,,,,0,2,2,2,1,0,1,0,0,27,27,27,,,,,,,,,,,,,,,,,,,,,,,,,,,,,,,,,,,516.1471447000513,516.3492718000198,516.3315541000338,516.63197950006,516.63197950006,None,517.1319885000121,None,k,1,1.436199700110592,517.1319885000121,None,None,None,518.5845693000592,None,,,,,,,,,,,,,,,,,,,,,11013,2,1,2024_Jun_04_1927,stroop_task_switching2,2021.2.3,60.005460482598394,
condition/block_mixed,instruction/instr_mixed,instruction/i10,绿,green,k,square,color_mix,单词,,compatible,1,,,,,,,,0,2,2,2,1,0,1,0,0,28,28,28,,,,,,,,,,,,,,,,,,,,,,,,,,,,,,,,,,,519.5858144999947,519.7861692000879,519.7697256000247,520.0707617000444,520.0707617000444,None,520.5705712999916,None,k,1,0.7015018000965938,520.5705712999916,None,None,None,521.2882604000624,None,,,,,,,,,,,,,,,,,,,,,11013,2,1,2024_Jun_04_1927,stroop_task_switching2,2021.2.3,60.005460482598394,
condition/block_mixed,instruction/instr_mixed,instruction/i10,蓝,blue,f,square,color_mix,单词,,compatible,1,,,,,,,,0,2,2,2,1,0,1,0,0,29,29,29,,,,,,,,,,,,,,,,,,,,,,,,,,,,,,,,,,,522.2898328000447,522.4901812000899,522.4741027000127,522.7737711000955,522.7737711000955,None,523.2746309000067,None,f,1,0.9017626000568271,523.2746309000067,None,None,None,524.1929211000679,None,,,,,,,,,,,,,,,,,,,,,11013,2,1,2024_Jun_04_1927,stroop_task_switching2,2021.2.3,60.005460482598394,
condition/block_mixed,instruction/instr_mixed,instruction/i10,黄,yellow,j,diamond,color_mix,颜色,,compatible,2,,,,,,,,0,2,2,2,1,0,1,0,0,30,30,30,,,,,,,,,,,,,,,,,,,,,,,,,,,,,,,,,,,525.1941459000809,525.3957321000053,525.3788326000795,525.6784328999929,525.6784328999929,None,526.179021100048,None,j,1,1.4615162999834865,526.179021100048,None,None,None,527.6647712000413,None,,,,,,,,,,,,,,,,,,,,,11013,2,1,2024_Jun_04_1927,stroop_task_switching2,2021.2.3,60.005460482598394,
condition/block_mixed,instruction/instr_mixed,instruction/i10,绿,green,k,square,color_mix,单词,,compatible,2,,,,,,,,0,2,2,2,1,0,1,0,0,31,31,31,,,,,,,,,,,,,,,,,,,,,,,,,,,,,,,,,,,528.6663004000438,528.8668403000338,528.8497621000279,529.1501267000567,529.1501267000567,None,529.6511546000838,None,k,1,1.4372619000496343,529.6511546000838,None,None,None,531.1031478000805,None,,,,,,,,,,,,,,,,,,,,,11013,2,1,2024_Jun_04_1927,stroop_task_switching2,2021.2.3,60.005460482598394,
condition/block_mixed,instruction/instr_mixed,instruction/i10,黄,yellow,j,square,color_mix,单词,,compatible,1,,,,,,,,0,2,2,2,1,0,1,0,0,32,32,32,,,,,,,,,,,,,,,,,,,,,,,,,,,,,,,,,,,532.1045505000511,532.306107499986,532.2882375000045,532.5886553000892,532.5886553000892,None,533.0898373000091,None,j,1,1.5831750999204814,533.0898373000091,None,None,None,534.6917438000673,None,,,,,,,,,,,,,,,,,,,,,11013,2,1,2024_Jun_04_1927,stroop_task_switching2,2021.2.3,60.005460482598394,
condition/block_mixed,instruction/instr_mixed,instruction/i10,绿,green,k,diamond,color_mix,颜色,,compatible,2,,,,,,,,0,2,2,2,1,0,1,0,0,33,33,33,,,,,,,,,,,,,,,,,,,,,,,,,,,,,,,,,,,535.6937132000457,535.8938362000044,535.8770282000769,536.1776487000752,536.1776487000752,None,536.678021700005,None,f,0,1.0913675999036059,536.678021700005,None,None,None,537.796702300082,None,,,,,,,,,,,,,,,,,,,,,11013,2,1,2024_Jun_04_1927,stroop_task_switching2,2021.2.3,60.005460482598394,
condition/block_mixed,instruction/instr_mixed,instruction/i10,红,red,d,square,color_mix,单词,,compatible,2,,,,,,,,0,2,2,2,1,0,1,0,0,34,34,34,,,,,,,,,,,,,,,,,,,,,,,,,,,,,,,,,,,538.7981076000724,538.9989145,538.9819751000032,539.2838975000195,539.2838975000195,None,539.7826437000185,None,d,1,0.7301489999517798,539.7826437000185,None,None,None,540.5338464000961,None,,,,,,,,,,,,,,,,,,,,,11013,2,1,2024_Jun_04_1927,stroop_task_switching2,2021.2.3,60.005460482598394,
condition/block_mixed,instruction/instr_mixed,instruction/i10,黄,yellow,j,square,color_mix,单词,,compatible,1,,,,,,,,0,2,2,2,1,0,1,0,0,35,35,35,,,,,,,,,,,,,,,,,,,,,,,,,,,,,,,,,,,541.5359861000907,541.736335100024,541.7191147000995,542.0195919000544,542.0195919000544,None,542.52039900003,None,j,1,1.3684544001007453,542.52039900003,None,None,None,543.9058726000367,None,,,,,,,,,,,,,,,,,,,,,11013,2,1,2024_Jun_04_1927,stroop_task_switching2,2021.2.3,60.005460482598394,
condition/block_mixed,instruction/instr_mixed,instruction/i10,绿,green,k,diamond,color_mix,颜色,,compatible,2,,,,,,,,0,2,2,2,1,0,1,0,0,36,36,36,,,,,,,,,,,,,,,,,,,,,,,,,,,,,,,,,,,544.9073302000761,545.1080933000194,545.090957700042,545.3914057000075,545.3914057000075,None,545.8919623000547,None,k,1,1.5091310000279918,545.8919623000547,None,None,None,547.4277381000575,None,,,,,,,,,,,,,,,,,,,,,11013,2,1,2024_Jun_04_1927,stroop_task_switching2,2021.2.3,60.005460482598394,
condition/block_mixed,instruction/instr_mixed,instruction/i10,蓝,blue,f,square,color_mix,单词,,compatible,2,,,,,,,,0,2,2,2,1,0,1,0,0,37,37,37,,,,,,,,,,,,,,,,,,,,,,,,,,,,,,,,,,,548.429042300093,548.6302473000251,548.6133715000469,548.9138219000306,548.9138219000306,None,549.4140165999997,None,f,1,0.8991048999596387,549.4140165999997,None,None,None,550.3323057000525,None,,,,,,,,,,,,,,,,,,,,,11013,2,1,2024_Jun_04_1927,stroop_task_switching2,2021.2.3,60.005460482598394,
condition/block_mixed,instruction/instr_mixed,instruction/i10,红,red,d,square,color_mix,单词,,compatible,1,,,,,,,,0,2,2,2,1,0,1,0,0,38,38,38,,,,,,,,,,,,,,,,,,,,,,,,,,,,,,,,,,,551.3336756000062,551.5337546000956,551.5183428000892,551.818490200094,551.818490200094,None,552.3182645000052,None,d,1,0.7161189999897033,552.3182645000052,None,None,None,553.0527323000133,None,,,,,,,,,,,,,,,,,,,,,11013,2,1,2024_Jun_04_1927,stroop_task_switching2,2021.2.3,60.005460482598394,
condition/block_mixed,instruction/instr_mixed,instruction/i10,黄,yellow,j,diamond,color_mix,颜色,,compatible,2,,,,,,,,0,2,2,2,1,0,1,0,0,39,39,39,,,,,,,,,,,,,,,,,,,,,,,,,,,,,,,,,,,554.054568600026,554.2558910000371,554.2389761999948,554.5385199000593,554.5385199000593,None,555.0390647000168,None,j,1,1.4025886999443173,555.0390647000168,None,None,None,556.4580836000387,None,,,,,,,,,,,,,,,,,,,,,11013,2,1,2024_Jun_04_1927,stroop_task_switching2,2021.2.3,60.005460482598394,
condition/block_mixed,instruction/instr_mixed,instruction/i10,黄,yellow,j,square,color_mix,单词,,compatible,2,,,,,,,,0,2,2,2,1,0,1,0,0,40,40,40,,,,,,,,,,,,,,,,,,,,,,,,,,,,,,,,,,,557.4596712000202,557.6595762000652,557.6430152000394,557.9436884000897,557.9436884000897,None,558.4443772000959,None,j,1,0.7410018999362364,558.4443772000959,None,None,None,559.2136118999915,None,,,,,,,,,,,,,,,,,,,,,11013,2,1,2024_Jun_04_1927,stroop_task_switching2,2021.2.3,60.005460482598394,
condition/block_mixed,instruction/instr_mixed,instruction/i10,蓝,blue,f,square,color_mix,单词,,compatible,1,,,,,,,,0,2,2,2,1,0,1,0,0,41,41,41,,,,,,,,,,,,,,,,,,,,,,,,,,,,,,,,,,,560.2137187999906,560.4145963999908,560.3971492000856,560.6975868000882,560.6975868000882,None,561.1985976999858,None,f,1,0.9627595000201836,561.1985976999858,None,None,None,562.1831129000057,None,,,,,,,,,,,,,,,,,,,,,11013,2,1,2024_Jun_04_1927,stroop_task_switching2,2021.2.3,60.005460482598394,
condition/block_mixed,instruction/instr_mixed,instruction/i10,蓝,blue,f,diamond,color_mix,颜色,,compatible,2,,,,,,,,0,2,2,2,1,0,1,0,0,42,42,42,,,,,,,,,,,,,,,,,,,,,,,,,,,,,,,,,,,563.1847863000585,563.3855965000112,563.3684572000057,563.6690940000117,563.6690940000117,None,564.1698203000706,None,f,1,1.1279075000202283,564.1698203000706,None,None,None,565.3212383000646,None,,,,,,,,,,,,,,,,,,,,,11013,2,1,2024_Jun_04_1927,stroop_task_switching2,2021.2.3,60.005460482598394,
condition/block_mixed,instruction/instr_mixed,instruction/i10,黄,yellow,j,diamond,color_mix,颜色,,compatible,1,,,,,,,,0,2,2,2,1,0,1,0,0,43,43,43,,,,,,,,,,,,,,,,,,,,,,,,,,,,,,,,,,,566.3229597000172,566.5240934999892,566.5065938000334,566.8084027000004,566.8084027000004,None,567.3075176000129,None,j,1,1.125970899942331,567.3075176000129,None,None,None,568.4594584000297,None,,,,,,,,,,,,,,,,,,,,,11013,2,1,2024_Jun_04_1927,stroop_task_switching2,2021.2.3,60.005460482598394,
condition/block_mixed,instruction/instr_mixed,instruction/i10,红,red,d,diamond,color_mix,颜色,,compatible,1,,,,,,,,0,2,2,2,1,0,1,0,0,44,44,44,,,,,,,,,,,,,,,,,,,,,,,,,,,,,,,,,,,569.4611158000771,569.6613198000705,569.6449159000767,569.9463759000646,569.9463759000646,None,570.445683500031,None,d,1,1.0519546999130398,570.445683500031,None,None,None,571.5140348999994,None,,,,,,,,,,,,,,,,,,,,,11013,2,1,2024_Jun_04_1927,stroop_task_switching2,2021.2.3,60.005460482598394,
condition/block_mixed,instruction/instr_mixed,instruction/i10,蓝,blue,f,diamond,color_mix,颜色,,compatible,1,,,,,,,,0,2,2,2,1,0,1,0,0,45,45,45,,,,,,,,,,,,,,,,,,,,,,,,,,,,,,,,,,,572.5155849000439,572.7161360000027,572.6992014000425,573.0006076000864,573.0006076000864,None,573.5004157000221,None,f,1,0.8531279000453651,573.5004157000221,None,None,None,574.3683549000416,None,,,,,,,,,,,,,,,,,,,,,11013,2,1,2024_Jun_04_1927,stroop_task_switching2,2021.2.3,60.005460482598394,
condition/block_mixed,instruction/instr_mixed,instruction/i10,红,red,d,diamond,color_mix,颜色,,compatible,1,,,,,,,,0,2,2,2,1,0,1,0,0,46,46,46,,,,,,,,,,,,,,,,,,,,,,,,,,,,,,,,,,,575.3696376000298,575.5699909999967,575.5553911000025,575.8715807000408,575.8539807000197,None,576.354665699997,None,d,1,0.6720655000535771,576.354665699997,None,None,None,577.0556426000549,None,,,,,,,,,,,,,,,,,,,,,11013,2,1,2024_Jun_04_1927,stroop_task_switching2,2021.2.3,60.005460482598394,
condition/block_mixed,instruction/instr_mixed,instruction/i10,红,red,d,square,color_mix,单词,,compatible,2,,,,,,,,0,2,2,2,1,0,1,0,0,47,47,47,,,,,,,,,,,,,,,,,,,,,,,,,,,,,,,,,,,578.0572192000691,578.2583477000007,578.2409153000917,578.542738600052,578.542738600052,None,579.0417963000946,None,d,1,0.5039365999400616,579.0417963000946,None,None,None,579.5762308000121,None,,,,,,,,,,,,,,,,,,,,,11013,2,1,2024_Jun_04_1927,stroop_task_switching2,2021.2.3,60.005460482598394,
condition/block_mixed,instruction/instr_mixed,instruction/i10,红,red,d,diamond,color_mix,颜色,,compatible,2,,,,,,,,0,2,2,2,1,0,1,0,0,48,48,48,,,,,,,,,,,,,,,,,,,,,,,,,,,,,,,,,,,580.5776489001,580.7786481000949,580.7615298000164,581.0625922000036,581.0625922000036,None,581.5625201000366,None,d,1,0.4794339000945911,581.5625201000366,None,None,None,582.0632159000961,None,,,,,,,,,,,,,,,,,,,,,11013,2,1,2024_Jun_04_1927,stroop_task_switching2,2021.2.3,60.005460482598394,
condition/block_mixed,instruction/instr_mixed,instruction/i10,,,,,,,,,,,,,,,,,0,2,2,2,1,0,1,0,,,,,,,,,,,,,,,,,,,,,,,,,,,,,,,,,,,,,,,,,,,,,,,,,,,,,,,,583.0648049000883,None,space,11.785524799954146,583.0648049000883,None,,,,,,,,,,,,,,,11013,2,1,2024_Jun_04_1927,stroop_task_switching2,2021.2.3,60.005460482598394,
condition/block_mixed,instruction/instr_mixed,instruction/i10,,,,,,,,,,,,,,,,,0,2,2,2,,,,,,,,,,,,,,,,,,,,,,,,,,,,,,,,,,,,,,,,,,,,,,,,,,,,,,,,,,,,,,,,,,,,,,,,,,,,,,,,11013,2,1,2024_Jun_04_1927,stroop_task_switching2,2021.2.3,60.005460482598394,
,,,红,red,d,square,color_mix,单词,,compatible,0,block_switch1,instruction/ready_test.png,instruction/i11.png,,,,,,,,,,,,,,,,,0,0,0,0,0,0,0,0,,,,,,,,,,,,,,,,,,,597.854238800006,598.8559436000651,598.8559436000651,599.8574827000266,599.8574827000266,None,596.8689132999862,597.8709421000676,600.8745495000621,601.0764709000941,601.0764709000941,601.3762834999943,601.3762834999943,None,601.8764569000341,None,d,1,0.837881000014022,601.8764569000341,None,None,None,,,,,,,,,594.8997113000369,None,space,1.9427166000241414,594.8997113000369,None,,,,,,,,,11013,2,1,2024_Jun_04_1927,stroop_task_switching2,2021.2.3,60.005460482598394,
,,,绿,green,k,diamond,color_mix,颜色,,compatible,2,block_switch1,instruction/ready_test.png,instruction/i11.png,,,,,,,,,,,,,,,,,0,0,0,0,0,1,1,1,,,,,,,,,,,,,,,,,,,,,,,,,,,602.7444755000761,602.9450553000206,602.9282628000947,603.2285473000957,603.2285473000957,None,603.7293250000803,None,k,1,2.065667499904521,603.7293250000803,None,None,None,,,,,,,,,,,,,,,,,,,,,,,11013,2,1,2024_Jun_04_1927,stroop_task_switching2,2021.2.3,60.005460482598394,
,,,绿,yellow,j,diamond,color_mix,颜色,,incompatible,1,block_switch1,instruction/ready_test.png,instruction/i11.png,,,,,,,,,,,,,,,,,0,0,0,0,0,2,2,2,,,,,,,,,,,,,,,,,,,,,,,,,,,605.8159351000795,606.0162785000866,605.9991688000737,606.3004591000499,606.3004591000499,None,606.8004189000931,None,k,0,1.9865789999021217,606.8004189000931,None,None,None,,,,,,,,,,,,,,,,,,,,,,,11013,2,1,2024_Jun_04_1927,stroop_task_switching2,2021.2.3,60.005460482598394,
,,,蓝,blue,f,diamond,color_mix,颜色,,compatible,1,block_switch1,instruction/ready_test.png,instruction/i11.png,,,,,,,,,,,,,,,,,0,0,0,0,0,3,3,3,,,,,,,,,,,,,,,,,,,,,,,,,,,608.8034826000221,609.0041226000758,608.9889289001003,609.2893288000487,609.2893288000487,None,609.7888295000885,None,f,1,1.1099330999422818,609.7888295000885,None,None,None,,,,,,,,,,,,,,,,,,,,,,,11013,2,1,2024_Jun_04_1927,stroop_task_switching2,2021.2.3,60.005460482598394,
,,,绿,green,k,square,color_mix,单词,,compatible,2,block_switch1,instruction/ready_test.png,instruction/i11.png,,,,,,,,,,,,,,,,,0,0,0,0,0,4,4,4,,,,,,,,,,,,,,,,,,,,,,,,,,,610.9237828000914,611.1249598000431,611.107216100092,611.407720200019,611.407720200019,None,611.9083893999923,None,k,1,1.2624372999416664,611.9083893999923,None,None,None,,,,,,,,,,,,,,,,,,,,,,,11013,2,1,2024_Jun_04_1927,stroop_task_switching2,2021.2.3,60.005460482598394,
,,,绿,blue,f,diamond,color_mix,颜色,,incompatible,2,block_switch1,instruction/ready_test.png,instruction/i11.png,,,,,,,,,,,,,,,,,0,0,0,0,0,5,5,5,,,,,,,,,,,,,,,,,,,,,,,,,,,613.1934059000341,613.3944088000571,613.3771634000586,613.6787000000477,613.6787000000477,None,614.1783015000401,None,f,1,1.7683470000047237,614.1783015000401,None,None,None,,,,,,,,,,,,,,,,,,,,,,,11013,2,1,2024_Jun_04_1927,stroop_task_switching2,2021.2.3,60.005460482598394,
,,,黄,red,j,square,color_mix,单词,,incompatible,2,block_switch1,instruction/ready_test.png,instruction/i11.png,,,,,,,,,,,,,,,,,0,0,0,0,0,6,6,6,,,,,,,,,,,,,,,,,,,,,,,,,,,615.9643160999985,616.165983300074,616.1480304000434,616.4495217000367,616.4495217000367,None,616.9491421000566,None,d,0,0.7098240000195801,616.9491421000566,None,None,None,,,,,,,,,,,,,,,,,,,,,,,11013,2,1,2024_Jun_04_1927,stroop_task_switching2,2021.2.3,60.005460482598394,
,,,绿,green,k,square,color_mix,单词,,compatible,1,block_switch1,instruction/ready_test.png,instruction/i11.png,,,,,,,,,,,,,,,,,0,0,0,0,0,7,7,7,,,,,,,,,,,,,,,,,,,,,,,,,,,617.6836560000665,617.8844805000117,617.867356600007,618.1676609000424,618.1676609000424,None,618.6683142000111,None,k,1,1.7184721999801695,618.6683142000111,None,None,None,,,,,,,,,,,,,,,,,,,,,,,11013,2,1,2024_Jun_04_1927,stroop_task_switching2,2021.2.3,60.005460482598394,
,,,蓝,blue,f,square,color_mix,单词,,compatible,1,block_switch1,instruction/ready_test.png,instruction/i11.png,,,,,,,,,,,,,,,,,0,0,0,0,0,8,8,8,,,,,,,,,,,,,,,,,,,,,,,,,,,620.4043688999955,620.6047461000271,620.5880194000201,620.8883887000848,620.8883887000848,None,621.389477699995,None,f,1,1.0373833000194281,621.389477699995,None,None,None,,,,,,,,,,,,,,,,,,,,,,,11013,2,1,2024_Jun_04_1927,stroop_task_switching2,2021.2.3,60.005460482598394,
,,,红,red,d,diamond,color_mix,颜色,,compatible,2,block_switch1,instruction/ready_test.png,instruction/i11.png,,,,,,,,,,,,,,,,,0,0,0,0,0,9,9,9,,,,,,,,,,,,,,,,,,,,,,,,,,,622.4408050000202,622.6413770000217,622.6259980000323,622.9414978000568,622.9258909000782,None,623.4257464000257,None,d,1,1.2012899999972433,623.4257464000257,None,None,None,,,,,,,,,,,,,,,,,,,,,,,11013,2,1,2024_Jun_04_1927,stroop_task_switching2,2021.2.3,60.005460482598394,
,,,黄,yellow,j,diamond,color_mix,颜色,,compatible,1,block_switch1,instruction/ready_test.png,instruction/i11.png,,,,,,,,,,,,,,,,,0,0,0,0,0,10,10,10,,,,,,,,,,,,,,,,,,,,,,,,,,,624.6441552999895,624.8444453000557,624.8277346000541,625.1292846000288,625.1292846000288,None,625.6290663999971,None,j,1,1.365853999974206,625.6290663999971,None,None,None,,,,,,,,,,,,,,,,,,,,,,,11013,2,1,2024_Jun_04_1927,stroop_task_switching2,2021.2.3,60.005460482598394,
,,,绿,green,k,square,color_mix,单词,,compatible,2,block_switch1,instruction/ready_test.png,instruction/i11.png,,,,,,,,,,,,,,,,,0,0,0,0,0,11,11,11,,,,,,,,,,,,,,,,,,,,,,,,,,,627.0143743000226,627.2155592000345,627.1979563999921,627.5001186000882,627.5001186000882,None,627.9991892999969,None,k,1,2.7882843000115827,627.9991892999969,None,None,None,,,,,,,,,,,,,,,,,,,,,,,11013,2,1,2024_Jun_04_1927,stroop_task_switching2,2021.2.3,60.005460482598394,
,,,红,red,d,diamond,color_mix,颜色,,compatible,2,block_switch1,instruction/ready_test.png,instruction/i11.png,,,,,,,,,,,,,,,,,0,0,0,0,0,12,12,12,,,,,,,,,,,,,,,,,,,,,,,,,,,630.803392700036,631.005731799989,630.9876724000787,631.2876050000777,631.2876050000777,None,631.7882356999908,None,d,1,0.6868483999278396,631.7882356999908,None,None,None,,,,,,,,,,,,,,,,,,,,,,,11013,2,1,2024_Jun_04_1927,stroop_task_switching2,2021.2.3,60.005460482598394,
,,,红,red,d,diamond,color_mix,颜色,,compatible,1,block_switch1,instruction/ready_test.png,instruction/i11.png,,,,,,,,,,,,,,,,,0,0,0,0,0,13,13,13,,,,,,,,,,,,,,,,,,,,,,,,,,,632.5059143000981,632.7062921000179,632.6897381000454,632.9907539000269,632.9907539000269,None,633.4908852000954,None,d,1,0.9925086000002921,633.4908852000954,None,None,None,,,,,,,,,,,,,,,,,,,,,,,11013,2,1,2024_Jun_04_1927,stroop_task_switching2,2021.2.3,60.005460482598394,
,,,黄,yellow,j,square,color_mix,单词,,compatible,2,block_switch1,instruction/ready_test.png,instruction/i11.png,,,,,,,,,,,,,,,,,0,0,0,0,0,14,14,14,,,,,,,,,,,,,,,,,,,,,,,,,,,634.5089871000964,634.7099494000431,634.6925706000766,634.9943505000556,634.9943505000556,None,635.4938676999882,None,j,1,1.5494540999643505,635.4938676999882,None,None,None,,,,,,,,,,,,,,,,,,,,,,,11013,2,1,2024_Jun_04_1927,stroop_task_switching2,2021.2.3,60.005460482598394,
,,,红,green,k,diamond,color_mix,颜色,,incompatible,2,block_switch1,instruction/ready_test.png,instruction/i11.png,,,,,,,,,,,,,,,,,0,0,0,0,0,15,15,15,,,,,,,,,,,,,,,,,,,,,,,,,,,637.0627660000464,637.2640233000275,637.2464294000529,637.5469506999943,637.5469506999943,None,638.0477112000808,None,k,1,1.9322486999444664,638.0477112000808,None,None,None,,,,,,,,,,,,,,,,,,,,,,,11013,2,1,2024_Jun_04_1927,stroop_task_switching2,2021.2.3,60.005460482598394,
,,,蓝,red,d,diamond,color_mix,颜色,,incompatible,1,block_switch1,instruction/ready_test.png,instruction/i11.png,,,,,,,,,,,,,,,,,0,0,0,0,0,16,16,16,,,,,,,,,,,,,,,,,,,,,,,,,,,640.0005930000916,640.201573300059,640.1841748000588,640.4851410000119,640.4851410000119,None,640.9854331000242,None,d,1,1.2579036999959499,640.9854331000242,None,None,None,,,,,,,,,,,,,,,,,,,,,,,11013,2,1,2024_Jun_04_1927,stroop_task_switching2,2021.2.3,60.005460482598394,
,,,黄,green,k,diamond,color_mix,颜色,,incompatible,1,block_switch1,instruction/ready_test.png,instruction/i11.png,,,,,,,,,,,,,,,,,0,0,0,0,0,17,17,17,,,,,,,,,,,,,,,,,,,,,,,,,,,642.2708582000341,642.4711643999908,642.457098599989,642.7718529000413,642.756890800083,None,643.2556980000809,None,k,1,2.596029300009832,643.2556980000809,None,None,None,,,,,,,,,,,,,,,,,,,,,,,11013,2,1,2024_Jun_04_1927,stroop_task_switching2,2021.2.3,60.005460482598394,
,,,绿,green,k,diamond,color_mix,颜色,,compatible,1,block_switch1,instruction/ready_test.png,instruction/i11.png,,,,,,,,,,,,,,,,,0,0,0,0,0,18,18,18,,,,,,,,,,,,,,,,,,,,,,,,,,,645.8762140000472,646.0770977000939,646.0598204000853,646.3618779000826,646.3618779000826,None,646.8610856999876,None,k,1,1.3987018999177963,646.8610856999876,None,None,None,,,,,,,,,,,,,,,,,,,,,,,11013,2,1,2024_Jun_04_1927,stroop_task_switching2,2021.2.3,60.005460482598394,
,,,黄,red,d,diamond,color_mix,颜色,,incompatible,1,block_switch1,instruction/ready_test.png,instruction/i11.png,,,,,,,,,,,,,,,,,0,0,0,0,0,19,19,19,,,,,,,,,,,,,,,,,,,,,,,,,,,648.2797126000514,648.4808125999989,648.4635197999887,648.7649083000142,648.7649083000142,None,649.2645835999865,None,d,1,0.8112408999586478,649.2645835999865,None,None,None,,,,,,,,,,,,,,,,,,,,,,,11013,2,1,2024_Jun_04_1927,stroop_task_switching2,2021.2.3,60.005460482598394,
,,,绿,yellow,k,square,color_mix,单词,,incompatible,2,block_switch1,instruction/ready_test.png,instruction/i11.png,,,,,,,,,,,,,,,,,0,0,0,0,0,20,20,20,,,,,,,,,,,,,,,,,,,,,,,,,,,650.0991344000213,650.2995055000065,650.2841039000778,650.5832483000122,650.5832483000122,None,651.0840627000434,None,j,0,2.263780500041321,651.0840627000434,None,None,None,,,,,,,,,,,,,,,,,,,,,,,11013,2,1,2024_Jun_04_1927,stroop_task_switching2,2021.2.3,60.005460482598394,
,,,绿,yellow,j,diamond,color_mix,颜色,,incompatible,2,block_switch1,instruction/ready_test.png,instruction/i11.png,,,,,,,,,,,,,,,,,0,0,0,0,0,21,21,21,,,,,,,,,,,,,,,,,,,,,,,,,,,653.3707482999889,653.5716299000196,653.5542844000738,653.8548949999968,653.8548949999968,None,654.3556223000633,None,k,0,1.488165899994783,654.3556223000633,None,None,None,,,,,,,,,,,,,,,,,,,,,,,11013,2,1,2024_Jun_04_1927,stroop_task_switching2,2021.2.3,60.005460482598394,
,,,绿,green,k,square,color_mix,单词,,compatible,2,block_switch1,instruction/ready_test.png,instruction/i11.png,,,,,,,,,,,,,,,,,0,0,0,0,0,22,22,22,,,,,,,,,,,,,,,,,,,,,,,,,,,655.8747026000638,656.0748570000287,656.0590383000672,656.3589040000224,656.3589040000224,None,656.8592548000161,None,k,1,1.1925661000423133,656.8592548000161,None,None,None,,,,,,,,,,,,,,,,,,,,,,,11013,2,1,2024_Jun_04_1927,stroop_task_switching2,2021.2.3,60.005460482598394,
,,,红,red,d,square,color_mix,单词,,compatible,1,block_switch1,instruction/ready_test.png,instruction/i11.png,,,,,,,,,,,,,,,,,0,0,0,0,0,23,23,23,,,,,,,,,,,,,,,,,,,,,,,,,,,658.0779301000293,658.2789933000458,658.2618599000853,658.5619199000066,658.5619199000066,None,659.0626727000345,None,d,1,0.869222000008449,659.0626727000345,None,None,None,,,,,,,,,,,,,,,,,,,,,,,11013,2,1,2024_Jun_04_1927,stroop_task_switching2,2021.2.3,60.005460482598394,
,,,黄,green,j,square,color_mix,单词,,incompatible,1,block_switch1,instruction/ready_test.png,instruction/i11.png,,,,,,,,,,,,,,,,,0,0,0,0,0,24,24,24,,,,,,,,,,,,,,,,,,,,,,,,,,,659.9472173000686,660.1478729000082,660.1309919999912,660.4316248000832,660.4316248000832,None,660.9322532000951,None,j,1,1.2796574000967667,660.9322532000951,None,None,None,,,,,,,,,,,,,,,,,,,,,,,11013,2,1,2024_Jun_04_1927,stroop_task_switching2,2021.2.3,60.005460482598394,
,,,红,blue,d,square,color_mix,单词,,incompatible,1,block_switch1,instruction/ready_test.png,instruction/i11.png,,,,,,,,,,,,,,,,,0,0,0,0,0,25,25,25,,,,,,,,,,,,,,,,,,,,,,,,,,,662.234259000048,662.4351093000732,662.4177456999896,662.7180635000113,662.7180635000113,None,663.2189873000607,None,d,1,0.65762780001387,663.2189873000607,None,None,None,,,,,,,,,,,,,,,,,,,,,,,11013,2,1,2024_Jun_04_1927,stroop_task_switching2,2021.2.3,60.005460482598394,
,,,黄,yellow,j,square,color_mix,单词,,compatible,1,block_switch1,instruction/ready_test.png,instruction/i11.png,,,,,,,,,,,,,,,,,0,0,0,0,0,26,26,26,,,,,,,,,,,,,,,,,,,,,,,,,,,663.9033988000592,664.104687300045,664.0870895000407,664.3894935999997,664.3894935999997,None,664.8879899000749,None,j,1,1.8766255000373349,664.8879899000749,None,None,None,,,,,,,,,,,,,,,,,,,,,,,11013,2,1,2024_Jun_04_1927,stroop_task_switching2,2021.2.3,60.005460482598394,
,,,蓝,green,f,square,color_mix,单词,,incompatible,1,block_switch1,instruction/ready_test.png,instruction/i11.png,,,,,,,,,,,,,,,,,0,0,0,0,0,27,27,27,,,,,,,,,,,,,,,,,,,,,,,,,,,666.7910115000559,666.9936874000123,666.9748786001,667.2763532000827,667.2763532000827,None,667.7758288000477,None,f,1,0.764854000066407,667.7758288000477,None,None,None,,,,,,,,,,,,,,,,,,,,,,,11013,2,1,2024_Jun_04_1927,stroop_task_switching2,2021.2.3,60.005460482598394,
,,,绿,green,k,diamond,color_mix,颜色,,compatible,2,block_switch1,instruction/ready_test.png,instruction/i11.png,,,,,,,,,,,,,,,,,0,0,0,0,0,28,28,28,,,,,,,,,,,,,,,,,,,,,,,,,,,668.5601752999937,668.7609381000511,668.7439326000167,669.0452955000801,669.0452955000801,None,669.5454038000898,None,k,1,1.819466600078158,669.5454038000898,None,None,None,,,,,,,,,,,,,,,,,,,,,,,11013,2,1,2024_Jun_04_1927,stroop_task_switching2,2021.2.3,60.005460482598394,
,,,黄,blue,f,diamond,color_mix,颜色,,incompatible,1,block_switch1,instruction/ready_test.png,instruction/i11.png,,,,,,,,,,,,,,,,,0,0,0,0,0,29,29,29,,,,,,,,,,,,,,,,,,,,,,,,,,,671.3812226000009,671.5816846000962,671.5668191000586,671.865198799991,671.865198799991,None,672.366225500009,None,j,0,0.9983090999303386,672.366225500009,None,None,None,,,,,,,,,,,,,,,,,,,,,,,11013,2,1,2024_Jun_04_1927,stroop_task_switching2,2021.2.3,60.005460482598394,
,,,绿,green,k,diamond,color_mix,颜色,,compatible,1,block_switch1,instruction/ready_test.png,instruction/i11.png,,,,,,,,,,,,,,,,,0,0,0,0,0,30,30,30,,,,,,,,,,,,,,,,,,,,,,,,,,,673.3842302000849,673.58457549999,673.5679900000105,673.8690889000427,673.8690889000427,None,674.3692155000754,None,k,1,1.115181199973449,674.3692155000754,None,None,None,,,,,,,,,,,,,,,,,,,,,,,11013,2,1,2024_Jun_04_1927,stroop_task_switching2,2021.2.3,60.005460482598394,
,,,蓝,blue,f,square,color_mix,单词,,compatible,2,block_switch1,instruction/ready_test.png,instruction/i11.png,,,,,,,,,,,,,,,,,0,0,0,0,0,31,31,31,,,,,,,,,,,,,,,,,,,,,,,,,,,675.5040920000756,675.7049073000671,675.6878559000324,675.988157200045,675.988157200045,None,676.4891306000063,None,f,1,1.1873992999317124,676.4891306000063,None,None,None,,,,,,,,,,,,,,,,,,,,,,,11013,2,1,2024_Jun_04_1927,stroop_task_switching2,2021.2.3,60.005460482598394,
,,,红,red,d,square,color_mix,单词,,compatible,1,block_switch1,instruction/ready_test.png,instruction/i11.png,,,,,,,,,,,,,,,,,0,0,0,0,0,32,32,32,,,,,,,,,,,,,,,,,,,,,,,,,,,677.7075549000874,677.9088940999936,677.8909548000665,678.191554900026,678.191554900026,None,678.692326300079,None,d,1,0.7361141999717802,678.692326300079,None,None,None,,,,,,,,,,,,,,,,,,,,,,,11013,2,1,2024_Jun_04_1927,stroop_task_switching2,2021.2.3,60.005460482598394,
,,,红,green,d,square,color_mix,单词,,incompatible,1,block_switch1,instruction/ready_test.png,instruction/i11.png,,,,,,,,,,,,,,,,,0,0,0,0,0,33,33,33,,,,,,,,,,,,,,,,,,,,,,,,,,,679.4600915000774,679.6604576000245,679.6437166000251,679.9454883000581,679.9454883000581,None,680.4451490000356,None,d,1,1.3275216999463737,680.4451490000356,None,None,None,,,,,,,,,,,,,,,,,,,,,,,11013,2,1,2024_Jun_04_1927,stroop_task_switching2,2021.2.3,60.005460482598394,
,,,黄,yellow,j,diamond,color_mix,颜色,,compatible,2,block_switch1,instruction/ready_test.png,instruction/i11.png,,,,,,,,,,,,,,,,,0,0,0,0,0,34,34,34,,,,,,,,,,,,,,,,,,,,,,,,,,,681.7969575000461,681.9975446000462,681.9805023000808,682.2819995000027,682.2819995000027,None,682.7823317000875,None,j,1,0.9662511999486014,682.7823317000875,None,None,None,,,,,,,,,,,,,,,,,,,,,,,11013,2,1,2024_Jun_04_1927,stroop_task_switching2,2021.2.3,60.005460482598394,
,,,红,green,k,diamond,color_mix,颜色,,incompatible,1,block_switch1,instruction/ready_test.png,instruction/i11.png,,,,,,,,,,,,,,,,,0,0,0,0,0,35,35,35,,,,,,,,,,,,,,,,,,,,,,,,,,,683.7667399999918,683.9678045000182,683.9506353000179,684.2506595000159,684.2506595000159,None,684.7514275000431,None,k,1,1.6453693000366911,684.7514275000431,None,None,None,,,,,,,,,,,,,,,,,,,,,,,11013,2,1,2024_Jun_04_1927,stroop_task_switching2,2021.2.3,60.005460482598394,
,,,黄,yellow,j,square,color_mix,单词,,compatible,2,block_switch1,instruction/ready_test.png,instruction/i11.png,,,,,,,,,,,,,,,,,0,0,0,0,0,36,36,36,,,,,,,,,,,,,,,,,,,,,,,,,,,686.4207230000757,686.6214772000676,686.6042065999936,686.9047386000166,686.9047386000166,None,687.4054031000705,None,d,0,2.2876248999964446,687.4054031000705,None,None,None,,,,,,,,,,,,,,,,,,,,,,,11013,2,1,2024_Jun_04_1927,stroop_task_switching2,2021.2.3,60.005460482598394,
,,,蓝,blue,f,square,color_mix,单词,,compatible,1,block_switch1,instruction/ready_test.png,instruction/i11.png,,,,,,,,,,,,,,,,,0,0,0,0,0,37,37,37,,,,,,,,,,,,,,,,,,,,,,,,,,,689.7088538000826,689.9097130000591,689.8925925000804,690.1940987000708,690.1940987000708,None,690.6941441000672,None,f,1,2.1345878000138327,690.6941441000672,None,None,None,,,,,,,,,,,,,,,,,,,,,,,11013,2,1,2024_Jun_04_1927,stroop_task_switching2,2021.2.3,60.005460482598394,
,,,绿,red,d,diamond,color_mix,颜色,,incompatible,2,block_switch1,instruction/ready_test.png,instruction/i11.png,,,,,,,,,,,,,,,,,0,0,0,0,0,38,38,38,,,,,,,,,,,,,,,,,,,,,,,,,,,692.8469695000676,693.0481254000915,693.0308541000122,693.3308861000696,693.3308861000696,None,693.8318264000118,None,d,1,0.7017343000043184,693.8318264000118,None,None,None,,,,,,,,,,,,,,,,,,,,,,,11013,2,1,2024_Jun_04_1927,stroop_task_switching2,2021.2.3,60.005460482598394,
,,,黄,yellow,j,diamond,color_mix,颜色,,compatible,1,block_switch1,instruction/ready_test.png,instruction/i11.png,,,,,,,,,,,,,,,,,0,0,0,0,0,39,39,39,,,,,,,,,,,,,,,,,,,,,,,,,,,694.5500880000181,694.7502272001002,694.7332173000323,695.0341713000089,695.0341713000089,None,695.5341489000712,None,j,1,1.110774000058882,695.5341489000712,None,None,None,,,,,,,,,,,,,,,,,,,,,,,11013,2,1,2024_Jun_04_1927,stroop_task_switching2,2021.2.3,60.005460482598394,
,,,红,blue,f,diamond,color_mix,颜色,,incompatible,1,block_switch1,instruction/ready_test.png,instruction/i11.png,,,,,,,,,,,,,,,,,0,0,0,0,0,40,40,40,,,,,,,,,,,,,,,,,,,,,,,,,,,696.6694298000075,696.8710418000119,696.8528859000653,697.1555371000431,697.1555371000431,None,697.6541890000226,None,f,1,1.590899300063029,697.6541890000226,None,None,None,,,,,,,,,,,,,,,,,,,,,,,11013,2,1,2024_Jun_04_1927,stroop_task_switching2,2021.2.3,60.005460482598394,
,,,绿,blue,k,square,color_mix,单词,,incompatible,2,block_switch1,instruction/ready_test.png,instruction/i11.png,,,,,,,,,,,,,,,,,0,0,0,0,0,41,41,41,,,,,,,,,,,,,,,,,,,,,,,,,,,699.273434300092,699.4744656000985,699.4573031000327,699.7583569000708,699.7583569000708,None,700.2582636000589,None,k,1,1.6031027999706566,700.2582636000589,None,None,None,,,,,,,,,,,,,,,,,,,,,,,11013,2,1,2024_Jun_04_1927,stroop_task_switching2,2021.2.3,60.005460482598394,
,,,蓝,blue,f,diamond,color_mix,颜色,,compatible,2,block_switch1,instruction/ready_test.png,instruction/i11.png,,,,,,,,,,,,,,,,,0,0,0,0,0,42,42,42,,,,,,,,,,,,,,,,,,,,,,,,,,,701.8773295000428,702.0779416000005,702.0608845000388,702.3616785000777,702.3616785000777,None,702.8621001000283,None,f,1,2.023642100044526,702.8621001000283,None,None,None,,,,,,,,,,,,,,,,,,,,,,,11013,2,1,2024_Jun_04_1927,stroop_task_switching2,2021.2.3,60.005460482598394,
,,,红,blue,d,square,color_mix,单词,,incompatible,2,block_switch1,instruction/ready_test.png,instruction/i11.png,,,,,,,,,,,,,,,,,0,0,0,0,0,43,43,43,,,,,,,,,,,,,,,,,,,,,,,,,,,704.9152221000986,705.1162656000815,705.0988431000151,705.3997473000782,705.3997473000782,None,705.9000988000771,None,d,1,1.065352899953723,705.9000988000771,None,None,None,,,,,,,,,,,,,,,,,,,,,,,11013,2,1,2024_Jun_04_1927,stroop_task_switching2,2021.2.3,60.005460482598394,
,,,蓝,green,k,diamond,color_mix,颜色,,incompatible,2,block_switch1,instruction/ready_test.png,instruction/i11.png,,,,,,,,,,,,,,,,,0,0,0,0,0,44,44,44,,,,,,,,,,,,,,,,,,,,,,,,,,,706.9853907000506,707.1861731000245,707.1686739000725,707.4697014000267,707.4697014000267,None,707.9698017000919,None,k,1,0.9075941999908537,707.9698017000919,None,None,None,,,,,,,,,,,,,,,,,,,,,,,11013,2,1,2024_Jun_04_1927,stroop_task_switching2,2021.2.3,60.005460482598394,
,,,黄,yellow,j,square,color_mix,单词,,compatible,2,block_switch1,instruction/ready_test.png,instruction/i11.png,,,,,,,,,,,,,,,,,0,0,0,0,0,45,45,45,,,,,,,,,,,,,,,,,,,,,,,,,,,708.9045387000078,709.1054719000822,709.0881753000431,709.3887128999922,709.3887128999922,None,709.8892751000822,None,j,1,1.8040632000193,709.8892751000822,None,None,None,,,,,,,,,,,,,,,,,,,,,,,11013,2,1,2024_Jun_04_1927,stroop_task_switching2,2021.2.3,60.005460482598394,
,,,黄,yellow,j,diamond,color_mix,颜色,,compatible,2,block_switch1,instruction/ready_test.png,instruction/i11.png,,,,,,,,,,,,,,,,,0,0,0,0,0,46,46,46,,,,,,,,,,,,,,,,,,,,,,,,,,,711.7087696000235,711.9094210000476,711.8924339000368,712.1931628000457,712.1931628000457,None,712.6937101000221,None,j,1,0.6958581999642774,712.6937101000221,None,None,None,,,,,,,,,,,,,,,,,,,,,,,11013,2,1,2024_Jun_04_1927,stroop_task_switching2,2021.2.3,60.005460482598394,
,,,绿,red,k,square,color_mix,单词,,incompatible,2,block_switch1,instruction/ready_test.png,instruction/i11.png,,,,,,,,,,,,,,,,,0,0,0,0,0,47,47,47,,,,,,,,,,,,,,,,,,,,,,,,,,,713.4113209000789,713.6120923000854,713.5948885000544,713.8965247999877,713.8965247999877,None,714.3961909000063,None,d,0,1.9133658000500873,714.3961909000063,None,None,None,,,,,,,,,,,,,,,,,,,,,,,11013,2,1,2024_Jun_04_1927,stroop_task_switching2,2021.2.3,60.005460482598394,
,,,红,red,d,diamond,color_mix,颜色,,compatible,2,block_switch1,instruction/ready_test.png,instruction/i11.png,,,,,,,,,,,,,,,,,0,0,0,0,0,48,48,48,,,,,,,,,,,,,,,,,,,,,,,,,,,716.3323086000746,716.5335144000128,716.5160312000662,716.8166767000221,716.8166767000221,None,717.3172344000777,None,d,1,0.8403349999571219,717.3172344000777,None,None,None,,,,,,,,,,,,,,,,,,,,,,,11013,2,1,2024_Jun_04_1927,stroop_task_switching2,2021.2.3,60.005460482598394,
,,,蓝,blue,f,diamond,color_mix,颜色,,compatible,1,block_switch1,instruction/ready_test.png,instruction/i11.png,,,,,,,,,,,,,,,,,0,0,0,0,0,49,49,49,,,,,,,,,,,,,,,,,,,,,,,,,,,718.1853371000616,718.3865369000705,718.3688688999973,718.6704118000343,718.6704118000343,None,719.1699812000152,None,f,1,0.7882717000320554,719.1699812000152,None,None,None,,,,,,,,,,,,,,,,,,,,,,,11013,2,1,2024_Jun_04_1927,stroop_task_switching2,2021.2.3,60.005460482598394,
,,,黄,yellow,j,diamond,color_mix,颜色,,compatible,1,block_switch1,instruction/ready_test.png,instruction/i11.png,,,,,,,,,,,,,,,,,0,0,0,0,0,50,50,50,,,,,,,,,,,,,,,,,,,,,,,,,,,719.9879743000492,720.1886331000132,720.1714501000242,720.472889100085,720.472889100085,None,720.972836800036,None,j,1,1.2409088000422344,720.972836800036,None,None,None,,,,,,,,,,,,,,,,,,,,,,,11013,2,1,2024_Jun_04_1927,stroop_task_switching2,2021.2.3,60.005460482598394,
,,,红,blue,f,diamond,color_mix,颜色,,incompatible,1,block_switch1,instruction/ready_test.png,instruction/i11.png,,,,,,,,,,,,,,,,,0,0,0,0,0,51,51,51,,,,,,,,,,,,,,,,,,,,,,,,,,,722.2413706000661,722.4424404000165,722.4249967000214,722.7259000000777,722.7259000000777,None,723.2265885000816,None,d,0,1.123145200079307,723.2265885000816,None,None,None,,,,,,,,,,,,,,,,,,,,,,,11013,2,1,2024_Jun_04_1927,stroop_task_switching2,2021.2.3,60.005460482598394,
,,,蓝,yellow,j,diamond,color_mix,颜色,,incompatible,1,block_switch1,instruction/ready_test.png,instruction/i11.png,,,,,,,,,,,,,,,,,0,0,0,0,0,52,52,52,,,,,,,,,,,,,,,,,,,,,,,,,,,724.3777367000002,724.5786482000258,724.5616978000617,724.8619340000441,724.8619340000441,None,725.3627320000669,None,j,1,2.155093500041403,725.3627320000669,None,None,None,,,,,,,,,,,,,,,,,,,,,,,11013,2,1,2024_Jun_04_1927,stroop_task_switching2,2021.2.3,60.005460482598394,
,,,黄,blue,j,square,color_mix,单词,,incompatible,2,block_switch1,instruction/ready_test.png,instruction/i11.png,,,,,,,,,,,,,,,,,0,0,0,0,0,53,53,53,,,,,,,,,,,,,,,,,,,,,,,,,,,727.5492841000669,727.7502281999914,727.7329073000001,728.0353855000576,728.0353855000576,None,728.5506650999887,None,f,0,1.1594993999460712,728.5506650999887,None,None,None,,,,,,,,,,,,,,,,,,,,,,,11013,2,1,2024_Jun_04_1927,stroop_task_switching2,2021.2.3,60.005460482598394,
,,,蓝,blue,f,diamond,color_mix,颜色,,compatible,2,block_switch1,instruction/ready_test.png,instruction/i11.png,,,,,,,,,,,,,,,,,0,0,0,0,0,54,54,54,,,,,,,,,,,,,,,,,,,,,,,,,,,729.7360347000649,729.9367058000062,729.9201475000009,730.2208503000438,730.2208503000438,None,730.7210909000132,None,f,1,2.1887059999862686,730.7210909000132,None,None,None,,,,,,,,,,,,,,,,,,,,,,,11013,2,1,2024_Jun_04_1927,stroop_task_switching2,2021.2.3,60.005460482598394,
