b_pra,ins_blocks,ins_blocks2,stim_word,stim_color,corrAns,cue_type,trial_type,task_type,rand,compatibility,switch,b_test,w_pic,w_pic2,trials_instr.thisRepN,trials_instr.thisTrialN,trials_instr.thisN,trials_instr.thisIndex,block_pra.thisRepN,block_pra.thisTrialN,block_pra.thisN,block_pra.thisIndex,trials_rep.thisRepN,trials_rep.thisTrialN,trials_rep.thisN,trials_rep.thisIndex,trials_pra.thisRepN,trials_pra.thisTrialN,trials_pra.thisN,trials_pra.thisIndex,trials_3.thisRepN,trials_3.thisTrialN,trials_3.thisN,trials_3.thisIndex,trials_2.thisRepN,trials_2.thisTrialN,trials_2.thisN,trials_2.thisIndex,instr_image.started,instr_image.stopped,instr_key_resp.keys,instr_key_resp.rt,instr_key_resp.started,instr_key_resp.stopped,instr_pra_image.started,instr_pra_image.stopped,ip_key_resp.keys,ip_key_resp.rt,ip_key_resp.started,ip_key_resp.stopped,block_image.started,block_image.stopped,ib_key_resp.keys,ib_key_resp.rt,ib_key_resp.started,ib_key_resp.stopped,cd3.started,cd3.stopped,cd2.started,cd2.stopped,cd1.started,cd1.stopped,cd_text.started,cd_text.stopped,text_fix.started,text_fix.stopped,text_2.started,text_2.stopped,text_4.started,text_4.stopped,text_target.started,text_target.stopped,key_resp.keys,key_resp.corr,key_resp.rt,key_resp.started,key_resp.stopped,sceen_black.started,sceen_black.stopped,text_fb.started,text_fb.stopped,text.started,text.stopped,key_bf.keys,key_bf.rt,key_bf.started,key_bf.stopped,instr_test_image.started,instr_test_image.stopped,instr_exp_key_resp.keys,instr_exp_key_resp.rt,instr_exp_key_resp.started,instr_exp_key_resp.stopped,text_rest.started,text_rest.stopped,key_resp_rest.keys,key_resp_rest.rt,key_resp_rest.started,key_resp_rest.stopped,text_3.started,text_3.stopped,participant,session,balance,date,expName,psychopyVersion,frameRate,
,,,,,,,,,,,,,,,0,0,0,0,,,,,,,,,,,,,,,,,,,,,23.036167499958538,None,right,8.107078700035345,23.036167499958538,None,,,,,,,,,,,,,,,,,,,,,,,,,,,,,,,,,,,,,,,,,,,,,,,,,,,,,,,,,,11016,2,1,2024_Jun_02_1959,stroop_task_switching2,2021.2.3,59.90979979511829,
,,,,,,,,,,,,,,,1,0,1,0,,,,,,,,,,,,,,,,,,,,,31.18067669996526,None,right,46.05970280000474,31.18067669996526,None,,,,,,,,,,,,,,,,,,,,,,,,,,,,,,,,,,,,,,,,,,,,,,,,,,,,,,,,,,11016,2,1,2024_Jun_02_1959,stroop_task_switching2,2021.2.3,59.90979979511829,
,,,,,,,,,,,,,,,2,0,2,0,,,,,,,,,,,,,,,,,,,,,77.28344989998732,None,right,1.1492583000217564,77.28344989998732,None,,,,,,,,,,,,,,,,,,,,,,,,,,,,,,,,,,,,,,,,,,,,,,,,,,,,,,,,,,11016,2,1,2024_Jun_02_1959,stroop_task_switching2,2021.2.3,59.90979979511829,
,,,,,,,,,,,,,,,3,0,3,0,,,,,,,,,,,,,,,,,,,,,78.46839819999877,None,right,0.37176290003117174,78.46839819999877,None,,,,,,,,,,,,,,,,,,,,,,,,,,,,,,,,,,,,,,,,,,,,,,,,,,,,,,,,,,11016,2,1,2024_Jun_02_1959,stroop_task_switching2,2021.2.3,59.90979979511829,
,,,,,,,,,,,,,,,4,0,4,0,,,,,,,,,,,,,,,,,,,,,78.88591379998252,None,right,0.2823261000448838,78.88591379998252,None,,,,,,,,,,,,,,,,,,,,,,,,,,,,,,,,,,,,,,,,,,,,,,,,,,,,,,,,,,11016,2,1,2024_Jun_02_1959,stroop_task_switching2,2021.2.3,59.90979979511829,
,,,,,,,,,,,,,,,5,0,5,0,,,,,,,,,,,,,,,,,,,,,79.20291299995733,None,right,2.1812547000008635,79.20291299995733,None,,,,,,,,,,,,,,,,,,,,,,,,,,,,,,,,,,,,,,,,,,,,,,,,,,,,,,,,,,11016,2,1,2024_Jun_02_1959,stroop_task_switching2,2021.2.3,59.90979979511829,
,,,,,,,,,,,,,,,,,,,,,,,,,,,,,,,,,,,,,,,,,,,,,81.42304199998034,None,space,1.6985456999973394,81.42304199998034,None,,,,,,,,,,,,,,,,,,,,,,,,,,,,,,,,,,,,,,,,,,,,,,,,,,,,11016,2,1,2024_Jun_02_1959,stroop_task_switching2,2021.2.3,59.90979979511829,
condition/block_color,instruction/instr_color,instruction/i8,XX,red,d,diamond,color_single,颜色,,,,,,,,,,,0,0,0,0,0,0,0,0,0,0,0,0,,,,,,,,,,,,,,,,,,,,,83.15976509999018,None,space,4.329394100001082,83.15976509999018,None,88.56791339995107,89.56872609996935,89.56872609996935,90.57133189996239,90.57133189996239,None,87.58374559995718,88.5848528999486,91.53826609998941,91.74047539994353,91.72184369998286,92.02287399995839,92.02287399995839,None,92.52304529998219,None,d,1,0.5661764999968,92.52304529998219,None,None,None,93.10718469996937,None,,,,,,,,,,,,,,,,,,,,,11016,2,1,2024_Jun_02_1959,stroop_task_switching2,2021.2.3,59.90979979511829,
condition/block_color,instruction/instr_color,instruction/i8,XX,green,k,diamond,color_single,颜色,,,,,,,,,,,0,0,0,0,0,0,0,0,0,1,1,1,,,,,,,,,,,,,,,,,,,,,,,,,,,,,,,,,,,94.110299699998,94.31055249995552,94.29320249997545,94.59383889997844,94.59383889997844,None,95.0943936999538,None,k,1,1.0583408999955282,95.0943936999538,None,None,None,96.17933649994666,None,,,,,,,,,,,,,,,,,,,,,11016,2,1,2024_Jun_02_1959,stroop_task_switching2,2021.2.3,59.90979979511829,
condition/block_color,instruction/instr_color,instruction/i8,XX,yellow,j,diamond,color_single,颜色,,,,,,,,,,,0,0,0,0,0,0,0,0,0,2,2,2,,,,,,,,,,,,,,,,,,,,,,,,,,,,,,,,,,,97.18016889999853,97.38115849997848,97.36370369995711,97.66579959995579,97.66579959995579,None,98.16591689997585,None,j,1,0.47493619995657355,98.16591689997585,None,None,None,98.6671164999716,None,,,,,,,,,,,,,,,,,,,,,11016,2,1,2024_Jun_02_1959,stroop_task_switching2,2021.2.3,59.90979979511829,
condition/block_color,instruction/instr_color,instruction/i8,XX,blue,f,diamond,color_single,颜色,,,,,,,,,,,0,0,0,0,0,0,0,0,0,3,3,3,,,,,,,,,,,,,,,,,,,,,,,,,,,,,,,,,,,99.66760069999145,99.86931199999526,99.85091569996439,100.15242759999819,100.15242759999819,None,100.65199089999078,None,f,1,0.4450677999993786,100.65199089999078,None,None,None,101.12037619994953,None,,,,,,,,,,,,,,,,,,,,,11016,2,1,2024_Jun_02_1959,stroop_task_switching2,2021.2.3,59.90979979511829,
condition/block_color,instruction/instr_color,instruction/i8,XX,green,k,diamond,color_single,颜色,,,,,,,,,,,0,0,0,0,0,0,0,0,0,4,4,4,,,,,,,,,,,,,,,,,,,,,,,,,,,,,,,,,,,102.12083339999663,102.32245829998283,102.30693379999138,102.62276419997215,102.60499829996843,None,103.10582379996777,None,k,1,0.7189436999615282,103.10582379996777,None,None,None,103.85768649994861,None,,,,,,,,,,,,,,,,,,,,,11016,2,1,2024_Jun_02_1959,stroop_task_switching2,2021.2.3,59.90979979511829,
condition/block_color,instruction/instr_color,instruction/i8,XX,yellow,j,diamond,color_single,颜色,,,,,,,,,,,0,0,0,0,0,0,0,0,0,5,5,5,,,,,,,,,,,,,,,,,,,,,,,,,,,,,,,,,,,104.85831279994454,105.05888399999822,105.04308229999151,105.34256939997431,105.34256939997431,None,105.84308889997192,None,j,1,0.5191602999693714,105.84308889997192,None,None,None,106.37736349995248,None,,,,,,,,,,,,,,,,,,,,,11016,2,1,2024_Jun_02_1959,stroop_task_switching2,2021.2.3,59.90979979511829,
condition/block_color,instruction/instr_color,instruction/i8,XX,blue,f,diamond,color_single,颜色,,,,,,,,,,,0,0,0,0,0,0,0,0,0,6,6,6,,,,,,,,,,,,,,,,,,,,,,,,,,,,,,,,,,,107.37910309998551,107.57931989995996,107.56339939997997,107.86346229998162,107.86346229998162,None,108.36354699998628,None,d,0,0.7179879000177607,108.36354699998628,None,None,None,109.0979881999665,None,,,,,,,,,,,,,,,,,,,,,11016,2,1,2024_Jun_02_1959,stroop_task_switching2,2021.2.3,59.90979979511829,
condition/block_color,instruction/instr_color,instruction/i8,XX,red,d,diamond,color_single,颜色,,,,,,,,,,,0,0,0,0,0,0,0,0,0,7,7,7,,,,,,,,,,,,,,,,,,,,,,,,,,,,,,,,,,,110.10022519994527,110.29995999997482,110.28395879996242,110.58479809999699,110.58479809999699,None,111.08522679994348,None,d,1,1.0041146000148728,111.08522679994348,None,None,None,112.11932569998316,None,,,,,,,,,,,,,,,,,,,,,11016,2,1,2024_Jun_02_1959,stroop_task_switching2,2021.2.3,59.90979979511829,
condition/block_color,instruction/instr_color,instruction/i8,XX,yellow,j,diamond,color_single,颜色,,,,,,,,,,,0,0,0,0,0,0,0,0,0,8,8,8,,,,,,,,,,,,,,,,,,,,,,,,,,,,,,,,,,,113.12171349994605,113.32149179995758,113.30446479999227,113.60490899998695,113.60490899998695,None,114.10585809999611,None,j,1,0.6712566000060178,114.10585809999611,None,None,None,114.80690049997065,None,,,,,,,,,,,,,,,,,,,,,11016,2,1,2024_Jun_02_1959,stroop_task_switching2,2021.2.3,59.90979979511829,
condition/block_color,instruction/instr_color,instruction/i8,XX,blue,f,diamond,color_single,颜色,,,,,,,,,,,0,0,0,0,0,0,0,0,0,9,9,9,,,,,,,,,,,,,,,,,,,,,,,,,,,,,,,,,,,115.8082578999456,116.01006619998952,115.99196049995953,116.29347199999029,116.29347199999029,None,116.79305939999176,None,f,1,1.3682557999854907,116.79305939999176,None,None,None,118.17844419996254,None,,,,,,,,,,,,,,,,,,,,,11016,2,1,2024_Jun_02_1959,stroop_task_switching2,2021.2.3,59.90979979511829,
condition/block_color,instruction/instr_color,instruction/i8,XX,red,d,diamond,color_single,颜色,,,,,,,,,,,0,0,0,0,0,0,0,0,0,10,10,10,,,,,,,,,,,,,,,,,,,,,,,,,,,,,,,,,,,119.18087019998347,119.380488099996,119.36366469995119,119.66485999996075,119.66485999996075,None,120.1651211999706,None,d,1,0.4680979000404477,120.1651211999706,None,None,None,120.66575339995325,None,,,,,,,,,,,,,,,,,,,,,11016,2,1,2024_Jun_02_1959,stroop_task_switching2,2021.2.3,59.90979979511829,
condition/block_color,instruction/instr_color,instruction/i8,XX,green,k,diamond,color_single,颜色,,,,,,,,,,,0,0,0,0,0,0,0,0,0,11,11,11,,,,,,,,,,,,,,,,,,,,,,,,,,,,,,,,,,,121.66711719997693,121.86736499995459,121.85137999994913,122.15110019996064,122.15110019996064,None,122.65170049999142,None,k,1,0.5255609999876469,122.65170049999142,None,None,None,123.20267649996094,None,,,,,,,,,,,,,,,,,,,,,11016,2,1,2024_Jun_02_1959,stroop_task_switching2,2021.2.3,59.90979979511829,
condition/block_color,instruction/instr_color,instruction/i8,XX,blue,f,diamond,color_single,颜色,,,,,,,,,,,0,0,0,0,0,0,0,0,0,12,12,12,,,,,,,,,,,,,,,,,,,,,,,,,,,,,,,,,,,124.20494989998406,124.40671359997941,124.3893196999561,124.68837150000036,124.68837150000036,None,125.18925999995554,None,f,1,0.6528026000014506,125.18925999995554,None,None,None,125.85676089994377,None,,,,,,,,,,,,,,,,,,,,,11016,2,1,2024_Jun_02_1959,stroop_task_switching2,2021.2.3,59.90979979511829,
condition/block_color,instruction/instr_color,instruction/i8,XX,red,d,diamond,color_single,颜色,,,,,,,,,,,0,0,0,0,0,0,0,0,0,13,13,13,,,,,,,,,,,,,,,,,,,,,,,,,,,,,,,,,,,126.85888269997668,127.0608531999751,127.04185349994805,127.34233249997487,127.34233249997487,None,127.84300409996649,None,d,1,0.5504256000276655,127.84300409996649,None,None,None,128.4107098999666,None,,,,,,,,,,,,,,,,,,,,,11016,2,1,2024_Jun_02_1959,stroop_task_switching2,2021.2.3,59.90979979511829,
condition/block_color,instruction/instr_color,instruction/i8,XX,green,k,diamond,color_single,颜色,,,,,,,,,,,0,0,0,0,0,0,0,0,0,14,14,14,,,,,,,,,,,,,,,,,,,,,,,,,,,,,,,,,,,129.4128259999561,129.61385719996179,129.59575859998586,129.89664849999826,129.89664849999826,None,130.39679179998348,None,k,1,0.5967401000089012,130.39679179998348,None,None,None,131.01455139997415,None,,,,,,,,,,,,,,,,,,,,,11016,2,1,2024_Jun_02_1959,stroop_task_switching2,2021.2.3,59.90979979511829,
condition/block_color,instruction/instr_color,instruction/i8,XX,yellow,j,diamond,color_single,颜色,,,,,,,,,,,0,0,0,0,0,0,0,0,0,15,15,15,,,,,,,,,,,,,,,,,,,,,,,,,,,,,,,,,,,132.01681059994735,132.217356499983,132.20057519996772,132.50061739998637,132.50061739998637,None,133.00167379999766,None,f,0,0.8242387999780476,133.00167379999766,None,None,None,133.8530265999725,None,,,,,,,,,,,,,,,,,,,,,11016,2,1,2024_Jun_02_1959,stroop_task_switching2,2021.2.3,59.90979979511829,
condition/block_color,instruction/instr_color,instruction/i8,XX,red,d,diamond,color_single,颜色,,,,,,,,,,,0,0,0,0,0,0,0,0,0,16,16,16,,,,,,,,,,,,,,,,,,,,,,,,,,,,,,,,,,,134.85386549995746,135.05493799998658,135.03830009995727,135.3376667999546,135.3376667999546,None,135.8389228999731,None,d,1,2.0990285000298172,135.8389228999731,None,None,None,137.95832009997685,None,,,,,,,,,,,,,,,,,,,,,11016,2,1,2024_Jun_02_1959,stroop_task_switching2,2021.2.3,59.90979979511829,
condition/block_color,instruction/instr_color,instruction/i8,XX,green,k,diamond,color_single,颜色,,,,,,,,,,,0,0,0,0,0,0,0,0,0,17,17,17,,,,,,,,,,,,,,,,,,,,,,,,,,,,,,,,,,,138.96086279995507,139.16008679999504,139.1440372999641,139.44470069999807,139.44470069999807,None,139.94576639996376,None,k,1,0.7518440000130795,139.94576639996376,None,None,None,140.7291696999455,None,,,,,,,,,,,,,,,,,,,,,11016,2,1,2024_Jun_02_1959,stroop_task_switching2,2021.2.3,59.90979979511829,
condition/block_color,instruction/instr_color,instruction/i8,XX,yellow,j,diamond,color_single,颜色,,,,,,,,,,,0,0,0,0,0,0,0,0,0,18,18,18,,,,,,,,,,,,,,,,,,,,,,,,,,,,,,,,,,,141.73157209996134,141.93108289997326,141.915180699958,142.21565339999506,142.21565339999506,None,142.71570669999346,None,j,1,0.8942119000130333,142.71570669999346,None,None,None,143.633874799998,None,,,,,,,,,,,,,,,,,,,,,11016,2,1,2024_Jun_02_1959,stroop_task_switching2,2021.2.3,59.90979979511829,
condition/block_color,instruction/instr_color,instruction/i8,XX,blue,f,diamond,color_single,颜色,,,,,,,,,,,0,0,0,0,0,0,0,0,0,19,19,19,,,,,,,,,,,,,,,,,,,,,,,,,,,,,,,,,,,144.635780099954,144.83531949995086,144.8192904999596,145.12003949994687,145.12003949994687,None,145.62000719999196,None,f,1,0.5659854999976233,145.62000719999196,None,None,None,146.2041723000002,None,,,,,,,,,,,,,,,,,,,,,11016,2,1,2024_Jun_02_1959,stroop_task_switching2,2021.2.3,59.90979979511829,
condition/block_color,instruction/instr_color,instruction/i8,XX,green,k,diamond,color_single,颜色,,,,,,,,,,,0,0,0,0,0,0,0,0,0,20,20,20,,,,,,,,,,,,,,,,,,,,,,,,,,,,,,,,,,,147.2066464999807,147.40796499996213,147.3891561999917,147.6902279999922,147.6902279999922,None,148.19025999994483,None,k,1,0.5957970999879763,148.19025999994483,None,None,None,148.80809599999338,None,,,,,,,,,,,,,,,,,,,,,11016,2,1,2024_Jun_02_1959,stroop_task_switching2,2021.2.3,59.90979979511829,
condition/block_color,instruction/instr_color,instruction/i8,XX,yellow,j,diamond,color_single,颜色,,,,,,,,,,,0,0,0,0,0,0,0,0,0,21,21,21,,,,,,,,,,,,,,,,,,,,,,,,,,,,,,,,,,,149.80935969995335,150.0095332999481,149.9929364999989,150.29419939999934,150.29419939999934,None,150.794167199987,None,j,1,0.959914300008677,150.794167199987,None,None,None,151.77925939997658,None,,,,,,,,,,,,,,,,,,,,,11016,2,1,2024_Jun_02_1959,stroop_task_switching2,2021.2.3,59.90979979511829,
condition/block_color,instruction/instr_color,instruction/i8,XX,blue,f,diamond,color_single,颜色,,,,,,,,,,,0,0,0,0,0,0,0,0,0,22,22,22,,,,,,,,,,,,,,,,,,,,,,,,,,,,,,,,,,,152.78053989994805,152.98102179996204,152.96503219997976,153.26455109997187,153.26455109997187,None,153.7662171999691,None,f,1,0.45199289999436587,153.7662171999691,None,None,None,154.23311529995408,None,,,,,,,,,,,,,,,,,,,,,11016,2,1,2024_Jun_02_1959,stroop_task_switching2,2021.2.3,59.90979979511829,
condition/block_color,instruction/instr_color,instruction/i8,XX,red,d,diamond,color_single,颜色,,,,,,,,,,,0,0,0,0,0,0,0,0,0,23,23,23,,,,,,,,,,,,,,,,,,,,,,,,,,,,,,,,,,,155.23536579997744,155.43566939997254,155.4179601999931,155.71843399998033,155.71843399998033,None,156.21898589999182,None,d,1,0.3751951999729499,156.21898589999182,None,None,None,156.62013399996795,None,,,,,,,,,,,,,,,,,,,,,11016,2,1,2024_Jun_02_1959,stroop_task_switching2,2021.2.3,59.90979979511829,
condition/block_color,instruction/instr_color,instruction/i8,,,,,,,,,,,,,,,,,0,0,0,0,0,0,0,0,,,,,,,,,,,,,,,,,,,,,,,,,,,,,,,,,,,,,,,,,,,,,,,,,,,,,,,,157.6379952999996,None,q,4.44421779998811,157.6379952999996,None,,,,,,,,,,,,,,,11016,2,1,2024_Jun_02_1959,stroop_task_switching2,2021.2.3,59.90979979511829,
condition/block_color,instruction/instr_color,instruction/i8,XX,red,d,diamond,color_single,颜色,,,,,,,,,,,0,0,0,0,1,0,1,0,0,0,0,0,,,,,,,,,,,,,,,,,,,,,,,,,,,163.09675349999452,164.09888889995636,164.09888889995636,165.1000522999675,165.1000522999675,None,162.12940959999105,163.1304872999899,166.11722699995153,166.32041459996253,166.30162499996368,166.60388339997735,166.60388339997735,None,167.1021598999505,None,d,1,0.4923220000346191,167.1021598999505,None,None,None,167.6197263999493,None,,,,,,,,,,,,,,,,,,,,,11016,2,1,2024_Jun_02_1959,stroop_task_switching2,2021.2.3,59.90979979511829,
condition/block_color,instruction/instr_color,instruction/i8,XX,green,k,diamond,color_single,颜色,,,,,,,,,,,0,0,0,0,1,0,1,0,0,1,1,1,,,,,,,,,,,,,,,,,,,,,,,,,,,,,,,,,,,168.62128219997976,168.82169029995566,168.80488249997143,169.10740599996643,169.10740599996643,None,169.60617409995757,None,k,1,0.7087366000050679,169.60617409995757,None,None,None,170.34055689995876,None,,,,,,,,,,,,,,,,,,,,,11016,2,1,2024_Jun_02_1959,stroop_task_switching2,2021.2.3,59.90979979511829,
condition/block_color,instruction/instr_color,instruction/i8,XX,yellow,j,diamond,color_single,颜色,,,,,,,,,,,0,0,0,0,1,0,1,0,0,2,2,2,,,,,,,,,,,,,,,,,,,,,,,,,,,,,,,,,,,171.3420444999938,171.54256879998138,171.5261657999945,171.82682119996753,171.82682119996753,None,172.3275376999518,None,j,1,0.5389416999532841,172.3275376999518,None,None,None,172.89445599995088,None,,,,,,,,,,,,,,,,,,,,,11016,2,1,2024_Jun_02_1959,stroop_task_switching2,2021.2.3,59.90979979511829,
condition/block_color,instruction/instr_color,instruction/i8,XX,blue,f,diamond,color_single,颜色,,,,,,,,,,,0,0,0,0,1,0,1,0,0,3,3,3,,,,,,,,,,,,,,,,,,,,,,,,,,,,,,,,,,,173.89650229999097,174.09716710000066,174.08132339996519,174.39766889996827,174.38212319999002,None,174.88121499994304,None,f,1,0.39360409998334944,174.88121499994304,None,None,None,175.2979103999678,None,,,,,,,,,,,,,,,,,,,,,11016,2,1,2024_Jun_02_1959,stroop_task_switching2,2021.2.3,59.90979979511829,
condition/block_color,instruction/instr_color,instruction/i8,XX,green,k,diamond,color_single,颜色,,,,,,,,,,,0,0,0,0,1,0,1,0,0,4,4,4,,,,,,,,,,,,,,,,,,,,,,,,,,,,,,,,,,,176.30018009996274,176.50146869994933,176.4830836999463,176.78382519999286,176.78382519999286,None,177.28557299997192,None,k,1,0.5973262999905273,177.28557299997192,None,None,None,177.9019506999757,None,,,,,,,,,,,,,,,,,,,,,11016,2,1,2024_Jun_02_1959,stroop_task_switching2,2021.2.3,59.90979979511829,
condition/block_color,instruction/instr_color,instruction/i8,XX,yellow,j,diamond,color_single,颜色,,,,,,,,,,,0,0,0,0,1,0,1,0,0,5,5,5,,,,,,,,,,,,,,,,,,,,,,,,,,,,,,,,,,,178.90347459999612,179.10362929996336,179.08893909998005,179.38754759996664,179.38754759996664,None,179.88898819999304,None,j,1,0.4898819000227377,179.88898819999304,None,None,None,180.40552999998908,None,,,,,,,,,,,,,,,,,,,,,11016,2,1,2024_Jun_02_1959,stroop_task_switching2,2021.2.3,59.90979979511829,
condition/block_color,instruction/instr_color,instruction/i8,XX,blue,f,diamond,color_single,颜色,,,,,,,,,,,0,0,0,0,1,0,1,0,0,6,6,6,,,,,,,,,,,,,,,,,,,,,,,,,,,,,,,,,,,181.40785139997024,181.60913889994845,181.59071609994862,181.8929529999732,181.8929529999732,None,182.3922505999799,None,f,1,0.6428187999990769,182.3922505999799,None,None,None,183.05964679998579,None,,,,,,,,,,,,,,,,,,,,,11016,2,1,2024_Jun_02_1959,stroop_task_switching2,2021.2.3,59.90979979511829,
condition/block_color,instruction/instr_color,instruction/i8,XX,red,d,diamond,color_single,颜色,,,,,,,,,,,0,0,0,0,1,0,1,0,0,7,7,7,,,,,,,,,,,,,,,,,,,,,,,,,,,,,,,,,,,184.06193229998462,184.26139699999476,184.2459330999991,184.54674969997723,184.54674969997723,None,185.04630779998843,None,d,1,0.32487399998353794,185.04630779998843,None,None,None,185.39646059996448,None,,,,,,,,,,,,,,,,,,,,,11016,2,1,2024_Jun_02_1959,stroop_task_switching2,2021.2.3,59.90979979511829,
condition/block_color,instruction/instr_color,instruction/i8,XX,yellow,j,diamond,color_single,颜色,,,,,,,,,,,0,0,0,0,1,0,1,0,0,8,8,8,,,,,,,,,,,,,,,,,,,,,,,,,,,,,,,,,,,186.39858479995746,186.59835519996705,186.58221869997215,186.88223479996668,186.88223479996668,None,187.3832028999459,None,j,1,0.4121214000042528,187.3832028999459,None,None,None,187.8169329999946,None,,,,,,,,,,,,,,,,,,,,,11016,2,1,2024_Jun_02_1959,stroop_task_switching2,2021.2.3,59.90979979511829,
condition/block_color,instruction/instr_color,instruction/i8,XX,blue,f,diamond,color_single,颜色,,,,,,,,,,,0,0,0,0,1,0,1,0,0,9,9,9,,,,,,,,,,,,,,,,,,,,,,,,,,,,,,,,,,,188.8198402999551,189.0353432999691,189.0020397999906,189.3038137999829,189.3038137999829,None,189.8043738999986,None,f,1,0.6546078000101261,189.8043738999986,None,None,None,190.4878703999566,None,,,,,,,,,,,,,,,,,,,,,11016,2,1,2024_Jun_02_1959,stroop_task_switching2,2021.2.3,59.90979979511829,
condition/block_color,instruction/instr_color,instruction/i8,XX,red,d,diamond,color_single,颜色,,,,,,,,,,,0,0,0,0,1,0,1,0,0,10,10,10,,,,,,,,,,,,,,,,,,,,,,,,,,,,,,,,,,,191.48880039999494,191.68996759998845,191.67346319998614,191.97404629999073,191.97404629999073,None,192.47390269994503,None,d,1,0.49752400000579655,192.47390269994503,None,None,None,192.99128539999947,None,,,,,,,,,,,,,,,,,,,,,11016,2,1,2024_Jun_02_1959,stroop_task_switching2,2021.2.3,59.90979979511829,
condition/block_color,instruction/instr_color,instruction/i8,XX,green,k,diamond,color_single,颜色,,,,,,,,,,,0,0,0,0,1,0,1,0,0,11,11,11,,,,,,,,,,,,,,,,,,,,,,,,,,,,,,,,,,,193.99361909995787,194.1941186999902,194.1771578999469,194.47876159998123,194.47876159998123,None,194.97781929996563,None,k,1,0.4179143999936059,194.97781929996563,None,None,None,195.41170919995056,None,,,,,,,,,,,,,,,,,,,,,11016,2,1,2024_Jun_02_1959,stroop_task_switching2,2021.2.3,59.90979979511829,
condition/block_color,instruction/instr_color,instruction/i8,XX,blue,f,diamond,color_single,颜色,,,,,,,,,,,0,0,0,0,1,0,1,0,0,12,12,12,,,,,,,,,,,,,,,,,,,,,,,,,,,,,,,,,,,196.41324109997367,196.61330289999023,196.59788229997503,196.89830799994525,196.89830799994525,None,197.39800199994352,None,d,0,0.5571955000050366,197.39800199994352,None,None,None,197.9830679000006,None,,,,,,,,,,,,,,,,,,,,,11016,2,1,2024_Jun_02_1959,stroop_task_switching2,2021.2.3,59.90979979511829,
condition/block_color,instruction/instr_color,instruction/i8,XX,red,d,diamond,color_single,颜色,,,,,,,,,,,0,0,0,0,1,0,1,0,0,13,13,13,,,,,,,,,,,,,,,,,,,,,,,,,,,,,,,,,,,198.98466309998184,199.18421499995748,199.16824809997343,199.46838819998084,199.46838819998084,None,199.96951079997234,None,d,1,0.5462845000438392,199.96951079997234,None,None,None,200.5360539999674,None,,,,,,,,,,,,,,,,,,,,,11016,2,1,2024_Jun_02_1959,stroop_task_switching2,2021.2.3,59.90979979511829,
condition/block_color,instruction/instr_color,instruction/i8,XX,green,k,diamond,color_single,颜色,,,,,,,,,,,0,0,0,0,1,0,1,0,0,14,14,14,,,,,,,,,,,,,,,,,,,,,,,,,,,,,,,,,,,201.53758599999128,201.73924639995676,201.72363069996936,202.03892029996496,202.02296639996348,None,202.52285569999367,None,k,1,0.5290830000303686,202.52285569999367,None,None,None,203.07315079995897,None,,,,,,,,,,,,,,,,,,,,,11016,2,1,2024_Jun_02_1959,stroop_task_switching2,2021.2.3,59.90979979511829,
condition/block_color,instruction/instr_color,instruction/i8,XX,yellow,j,diamond,color_single,颜色,,,,,,,,,,,0,0,0,0,1,0,1,0,0,15,15,15,,,,,,,,,,,,,,,,,,,,,,,,,,,,,,,,,,,204.07461599999806,204.27587219997076,204.2591809000005,204.55923889996484,204.55923889996484,None,205.0601297999965,None,j,1,0.32780780002940446,205.0601297999965,None,None,None,205.41014749999158,None,,,,,,,,,,,,,,,,,,,,,11016,2,1,2024_Jun_02_1959,stroop_task_switching2,2021.2.3,59.90979979511829,
condition/block_color,instruction/instr_color,instruction/i8,XX,red,d,diamond,color_single,颜色,,,,,,,,,,,0,0,0,0,1,0,1,0,0,16,16,16,,,,,,,,,,,,,,,,,,,,,,,,,,,,,,,,,,,206.41231329995207,206.61295439995592,206.59619799995562,206.89682209998136,206.89682209998136,None,207.39717969996855,None,d,1,0.42263739998452365,207.39717969996855,None,None,None,207.84705669997493,None,,,,,,,,,,,,,,,,,,,,,11016,2,1,2024_Jun_02_1959,stroop_task_switching2,2021.2.3,59.90979979511829,
condition/block_color,instruction/instr_color,instruction/i8,XX,green,k,diamond,color_single,颜色,,,,,,,,,,,0,0,0,0,1,0,1,0,0,17,17,17,,,,,,,,,,,,,,,,,,,,,,,,,,,,,,,,,,,208.84898049995536,209.0488425999647,209.03307149995817,209.33522429998266,209.33522429998266,None,209.8334655999788,None,k,1,0.6900871000252664,209.8334655999788,None,None,None,210.55099219997646,None,,,,,,,,,,,,,,,,,,,,,11016,2,1,2024_Jun_02_1959,stroop_task_switching2,2021.2.3,59.90979979511829,
condition/block_color,instruction/instr_color,instruction/i8,XX,yellow,j,diamond,color_single,颜色,,,,,,,,,,,0,0,0,0,1,0,1,0,0,18,18,18,,,,,,,,,,,,,,,,,,,,,,,,,,,,,,,,,,,211.55252889997791,211.75508969998918,211.73635989998002,212.03660179994768,212.03660179994768,None,212.53750889998628,None,j,1,0.5860934999655001,212.53750889998628,None,None,None,213.13853129994823,None,,,,,,,,,,,,,,,,,,,,,11016,2,1,2024_Jun_02_1959,stroop_task_switching2,2021.2.3,59.90979979511829,
condition/block_color,instruction/instr_color,instruction/i8,XX,blue,f,diamond,color_single,颜色,,,,,,,,,,,0,0,0,0,1,0,1,0,0,19,19,19,,,,,,,,,,,,,,,,,,,,,,,,,,,,,,,,,,,214.14066419994924,214.3410294999485,214.32463169994298,214.62490719999187,214.62490719999187,None,215.12576279998757,None,f,1,0.3739487000275403,215.12576279998757,None,None,None,215.52603629999794,None,,,,,,,,,,,,,,,,,,,,,11016,2,1,2024_Jun_02_1959,stroop_task_switching2,2021.2.3,59.90979979511829,
condition/block_color,instruction/instr_color,instruction/i8,XX,green,k,diamond,color_single,颜色,,,,,,,,,,,0,0,0,0,1,0,1,0,0,20,20,20,,,,,,,,,,,,,,,,,,,,,,,,,,,,,,,,,,,216.5273289999459,216.7279450999922,216.71054209995782,217.0117859999882,217.0117859999882,None,217.51201849995414,None,k,1,0.6358041999628767,217.51201849995414,None,None,None,218.16234009998152,None,,,,,,,,,,,,,,,,,,,,,11016,2,1,2024_Jun_02_1959,stroop_task_switching2,2021.2.3,59.90979979511829,
condition/block_color,instruction/instr_color,instruction/i8,XX,yellow,j,diamond,color_single,颜色,,,,,,,,,,,0,0,0,0,1,0,1,0,0,21,21,21,,,,,,,,,,,,,,,,,,,,,,,,,,,,,,,,,,,219.1642293999903,219.36560909997206,219.34871929994551,219.64867089997279,219.64867089997279,None,220.1497551999637,None,j,1,0.670312299975194,220.1497551999637,None,None,None,220.85044359997846,None,,,,,,,,,,,,,,,,,,,,,11016,2,1,2024_Jun_02_1959,stroop_task_switching2,2021.2.3,59.90979979511829,
condition/block_color,instruction/instr_color,instruction/i8,XX,blue,f,diamond,color_single,颜色,,,,,,,,,,,0,0,0,0,1,0,1,0,0,22,22,22,,,,,,,,,,,,,,,,,,,,,,,,,,,,,,,,,,,221.85182669997448,222.052523499995,222.03567129996372,222.3369848000002,222.3369848000002,None,222.83730129996547,None,f,1,0.8390392999863252,222.83730129996547,None,None,None,223.70436649996554,None,,,,,,,,,,,,,,,,,,,,,11016,2,1,2024_Jun_02_1959,stroop_task_switching2,2021.2.3,59.90979979511829,
condition/block_color,instruction/instr_color,instruction/i8,XX,red,d,diamond,color_single,颜色,,,,,,,,,,,0,0,0,0,1,0,1,0,0,23,23,23,,,,,,,,,,,,,,,,,,,,,,,,,,,,,,,,,,,224.7063044999959,224.9077782999957,224.88933569996152,225.18971049995162,225.18971049995162,None,225.69078229996376,None,d,1,0.3936996999545954,225.69078229996376,None,None,None,226.1080070999451,None,,,,,,,,,,,,,,,,,,,,,11016,2,1,2024_Jun_02_1959,stroop_task_switching2,2021.2.3,59.90979979511829,
condition/block_color,instruction/instr_color,instruction/i8,,,,,,,,,,,,,,,,,0,0,0,0,1,0,1,0,,,,,,,,,,,,,,,,,,,,,,,,,,,,,,,,,,,,,,,,,,,,,,,,,,,,,,,,227.1090675999876,None,space,7.647468400013167,227.1090675999876,None,,,,,,,,,,,,,,,11016,2,1,2024_Jun_02_1959,stroop_task_switching2,2021.2.3,59.90979979511829,
condition/block_color,instruction/instr_color,instruction/i8,,,,,,,,,,,,,,,,,0,0,0,0,,,,,,,,,,,,,,,,,,,,,,,,,,,,,,,,,,,,,,,,,,,,,,,,,,,,,,,,,,,,,,,,,,,,,,,,,,,,,,,,11016,2,1,2024_Jun_02_1959,stroop_task_switching2,2021.2.3,59.90979979511829,
condition/block_word,instruction/instr_word,instruction/i9,黄,white,j,square,word_single,单词,0.0032461461866890584,,,,,,,,,,0,1,1,1,0,0,0,0,0,0,0,0,,,,,,,,,,,,,,,,,,,,,234.78747279994423,None,space,1.5367437999811955,234.78747279994423,None,237.3426984999678,238.34302019997267,238.34302019997267,239.34469859994715,239.34469859994715,None,236.3569623999647,237.35798779997276,240.36270489997696,240.56324869999662,240.54703949997202,240.84847009996884,240.84847009996884,None,241.34750999999233,None,j,1,1.337024200009182,241.34750999999233,None,None,None,242.71633869997459,None,,,,,,,,,,,,,,,,,,,,,11016,2,1,2024_Jun_02_1959,stroop_task_switching2,2021.2.3,59.90979979511829,
condition/block_word,instruction/instr_word,instruction/i9,蓝,white,f,square,word_single,单词,0.060540570646362424,,,,,,,,,,0,1,1,1,0,0,0,0,0,1,1,1,,,,,,,,,,,,,,,,,,,,,,,,,,,,,,,,,,,243.71933199994965,243.9351209999877,243.90139789995737,244.20351639995351,244.20351639995351,None,244.70269899995765,None,f,1,1.181905600009486,244.70269899995765,None,None,None,245.90449729998363,None,,,,,,,,,,,,,,,,,,,,,11016,2,1,2024_Jun_02_1959,stroop_task_switching2,2021.2.3,59.90979979511829,
condition/block_word,instruction/instr_word,instruction/i9,黄,white,j,square,word_single,单词,0.06994067193778963,,,,,,,,,,0,1,1,1,0,0,0,0,0,2,2,2,,,,,,,,,,,,,,,,,,,,,,,,,,,,,,,,,,,246.9062031999929,247.10845749999862,247.0898100999766,247.39020449999953,247.39020449999953,None,247.89074499998242,None,j,1,0.7780480000074022,247.89074499998242,None,None,None,248.69180629996117,None,,,,,,,,,,,,,,,,,,,,,11016,2,1,2024_Jun_02_1959,stroop_task_switching2,2021.2.3,59.90979979511829,
condition/block_word,instruction/instr_word,instruction/i9,蓝,white,f,square,word_single,单词,0.08193765152950094,,,,,,,,,,0,1,1,1,0,0,0,0,0,3,3,3,,,,,,,,,,,,,,,,,,,,,,,,,,,,,,,,,,,249.69343789998675,249.89475829998264,249.87752139999066,250.1786597999744,250.1786597999744,None,250.67871559999185,None,f,1,1.358087299973704,250.67871559999185,None,None,None,252.0636696999427,None,,,,,,,,,,,,,,,,,,,,,11016,2,1,2024_Jun_02_1959,stroop_task_switching2,2021.2.3,59.90979979511829,
condition/block_word,instruction/instr_word,instruction/i9,红,white,d,square,word_single,单词,0.1279694370605574,,,,,,,,,,0,1,1,1,0,0,0,0,0,4,4,4,,,,,,,,,,,,,,,,,,,,,,,,,,,,,,,,,,,253.06504359998507,253.2658376999898,253.24881209997693,253.54931649996433,253.54931649996433,None,254.05000669998117,None,d,1,0.39467960002366453,254.05000669998117,None,None,None,254.4674081999692,None,,,,,,,,,,,,,,,,,,,,,11016,2,1,2024_Jun_02_1959,stroop_task_switching2,2021.2.3,59.90979979511829,
condition/block_word,instruction/instr_word,instruction/i9,红,white,d,square,word_single,单词,0.18345028784879092,,,,,,,,,,0,1,1,1,0,0,0,0,0,5,5,5,,,,,,,,,,,,,,,,,,,,,,,,,,,,,,,,,,,255.46906339999987,255.6711463999818,255.65275439998368,255.9546933999518,255.9546933999518,None,256.4539034999907,None,d,1,0.6550242999801412,256.4539034999907,None,None,None,257.1384342999663,None,,,,,,,,,,,,,,,,,,,,,11016,2,1,2024_Jun_02_1959,stroop_task_switching2,2021.2.3,59.90979979511829,
condition/block_word,instruction/instr_word,instruction/i9,蓝,white,f,square,word_single,单词,0.19920386223101294,,,,,,,,,,0,1,1,1,0,0,0,0,0,6,6,6,,,,,,,,,,,,,,,,,,,,,,,,,,,,,,,,,,,258.140160299954,258.3405073999893,258.3255531999748,258.62388969998574,258.62388969998574,None,259.12597659998573,None,f,1,0.41562000004341826,259.12597659998573,None,None,None,259.5586377999862,None,,,,,,,,,,,,,,,,,,,,,11016,2,1,2024_Jun_02_1959,stroop_task_switching2,2021.2.3,59.90979979511829,
condition/block_word,instruction/instr_word,instruction/i9,蓝,white,f,square,word_single,单词,0.26360599864925405,,,,,,,,,,0,1,1,1,0,0,0,0,0,7,7,7,,,,,,,,,,,,,,,,,,,,,,,,,,,,,,,,,,,260.55996509996476,260.76217659999384,260.74355419998756,261.0443140999996,261.0443140999996,None,261.54487209999934,None,f,1,0.7882858999655582,261.54487209999934,None,None,None,262.3625019999454,None,,,,,,,,,,,,,,,,,,,,,11016,2,1,2024_Jun_02_1959,stroop_task_switching2,2021.2.3,59.90979979511829,
condition/block_word,instruction/instr_word,instruction/i9,蓝,white,f,square,word_single,单词,0.358985675745526,,,,,,,,,,0,1,1,1,0,0,0,0,0,8,8,8,,,,,,,,,,,,,,,,,,,,,,,,,,,,,,,,,,,263.3643223999534,263.56531349994475,263.5475422999589,263.8484476999729,263.8484476999729,None,264.3491224999889,None,f,1,0.5760579000343569,264.3491224999889,None,None,None,264.9496864999528,None,,,,,,,,,,,,,,,,,,,,,11016,2,1,2024_Jun_02_1959,stroop_task_switching2,2021.2.3,59.90979979511829,
condition/block_word,instruction/instr_word,instruction/i9,绿,white,k,square,word_single,单词,0.36496733802487347,,,,,,,,,,0,1,1,1,0,0,0,0,0,9,9,9,,,,,,,,,,,,,,,,,,,,,,,,,,,,,,,,,,,265.952343699988,266.1532104999642,266.13555999996606,266.4370647999458,266.4370647999458,None,266.9359894999652,None,k,1,1.221307700034231,266.9359894999652,None,None,None,268.1879925999674,None,,,,,,,,,,,,,,,,,,,,,11016,2,1,2024_Jun_02_1959,stroop_task_switching2,2021.2.3,59.90979979511829,
condition/block_word,instruction/instr_word,instruction/i9,黄,white,j,square,word_single,单词,0.3743513623756727,,,,,,,,,,0,1,1,1,0,0,0,0,0,10,10,10,,,,,,,,,,,,,,,,,,,,,,,,,,,,,,,,,,,269.1894341999432,269.39103489997797,269.3731890999479,269.67454879998695,269.67454879998695,None,270.1749793999479,None,j,1,0.7585367999854498,270.1749793999479,None,None,None,270.9590075999731,None,,,,,,,,,,,,,,,,,,,,,11016,2,1,2024_Jun_02_1959,stroop_task_switching2,2021.2.3,59.90979979511829,
condition/block_word,instruction/instr_word,instruction/i9,红,white,d,square,word_single,单词,0.3894803852598544,,,,,,,,,,0,1,1,1,0,0,0,0,0,11,11,11,,,,,,,,,,,,,,,,,,,,,,,,,,,,,,,,,,,271.96111459995154,272.16068209998775,272.14469979994465,272.4456187999458,272.4456187999458,None,272.9459774999996,None,d,1,0.45956539997132495,272.9459774999996,None,None,None,273.4292419999838,None,,,,,,,,,,,,,,,,,,,,,11016,2,1,2024_Jun_02_1959,stroop_task_switching2,2021.2.3,59.90979979511829,
condition/block_word,instruction/instr_word,instruction/i9,绿,white,k,square,word_single,单词,0.5393759672408067,,,,,,,,,,0,1,1,1,0,0,0,0,0,12,12,12,,,,,,,,,,,,,,,,,,,,,,,,,,,,,,,,,,,274.4308382999734,274.63266149995616,274.6142987999483,274.9170561999781,274.9170561999781,None,275.43216309999116,None,k,1,0.7651571999886073,275.43216309999116,None,None,None,276.2170268999762,None,,,,,,,,,,,,,,,,,,,,,11016,2,1,2024_Jun_02_1959,stroop_task_switching2,2021.2.3,59.90979979511829,
condition/block_word,instruction/instr_word,instruction/i9,蓝,white,f,square,word_single,单词,0.5995731954831104,,,,,,,,,,0,1,1,1,0,0,0,0,0,13,13,13,,,,,,,,,,,,,,,,,,,,,,,,,,,,,,,,,,,277.21842589997686,277.41870939999353,277.40214339998784,277.70283789996756,277.70283789996756,None,278.20382389996666,None,f,1,0.6817784000304528,278.20382389996666,None,None,None,278.904131999996,None,,,,,,,,,,,,,,,,,,,,,11016,2,1,2024_Jun_02_1959,stroop_task_switching2,2021.2.3,59.90979979511829,
condition/block_word,instruction/instr_word,instruction/i9,红,white,d,square,word_single,单词,0.6298674479151414,,,,,,,,,,0,1,1,1,0,0,0,0,0,14,14,14,,,,,,,,,,,,,,,,,,,,,,,,,,,,,,,,,,,279.9059027999756,280.10652139998274,280.0895776999532,280.3901745999465,280.3901745999465,None,280.89119249995565,None,d,1,0.6745273999986239,280.89119249995565,None,None,None,281.59148829994956,None,,,,,,,,,,,,,,,,,,,,,11016,2,1,2024_Jun_02_1959,stroop_task_switching2,2021.2.3,59.90979979511829,
condition/block_word,instruction/instr_word,instruction/i9,红,white,d,square,word_single,单词,0.7389942282348904,,,,,,,,,,0,1,1,1,0,0,0,0,0,15,15,15,,,,,,,,,,,,,,,,,,,,,,,,,,,,,,,,,,,282.59274909994565,282.79310989996884,282.77712519996567,283.0788193999906,283.0788193999906,None,283.57874349999474,None,d,1,0.4512887999881059,283.57874349999474,None,None,None,284.0452544,None,,,,,,,,,,,,,,,,,,,,,11016,2,1,2024_Jun_02_1959,stroop_task_switching2,2021.2.3,59.90979979511829,
condition/block_word,instruction/instr_word,instruction/i9,绿,white,k,square,word_single,单词,0.7550853947239682,,,,,,,,,,0,1,1,1,0,0,0,0,0,16,16,16,,,,,,,,,,,,,,,,,,,,,,,,,,,,,,,,,,,285.0472348999465,285.24760740000056,285.2319291999447,285.53166359994793,285.53166359994793,None,286.0326884999522,None,k,1,0.6133756999624893,286.0326884999522,None,None,None,286.66576939995866,None,,,,,,,,,,,,,,,,,,,,,11016,2,1,2024_Jun_02_1959,stroop_task_switching2,2021.2.3,59.90979979511829,
condition/block_word,instruction/instr_word,instruction/i9,绿,white,k,square,word_single,单词,0.8019302780428206,,,,,,,,,,0,1,1,1,0,0,0,0,0,17,17,17,,,,,,,,,,,,,,,,,,,,,,,,,,,,,,,,,,,287.6682108999812,287.8698419999564,287.8517143999925,288.15229209995596,288.15229209995596,None,288.6536342999898,None,k,1,0.5608841000357643,288.6536342999898,None,None,None,289.23762079997687,None,,,,,,,,,,,,,,,,,,,,,11016,2,1,2024_Jun_02_1959,stroop_task_switching2,2021.2.3,59.90979979511829,
condition/block_word,instruction/instr_word,instruction/i9,绿,white,k,square,word_single,单词,0.8110702914095343,,,,,,,,,,0,1,1,1,0,0,0,0,0,18,18,18,,,,,,,,,,,,,,,,,,,,,,,,,,,,,,,,,,,290.2385970999603,290.4388021999621,290.4224702999927,290.7226914999774,290.7226914999774,None,291.2226026999997,None,k,1,0.4794597000000067,291.2226026999997,None,None,None,291.72451759997057,None,,,,,,,,,,,,,,,,,,,,,11016,2,1,2024_Jun_02_1959,stroop_task_switching2,2021.2.3,59.90979979511829,
condition/block_word,instruction/instr_word,instruction/i9,黄,white,j,square,word_single,单词,0.8176594937590999,,,,,,,,,,0,1,1,1,0,0,0,0,0,19,19,19,,,,,,,,,,,,,,,,,,,,,,,,,,,,,,,,,,,292.72476629994344,292.9259565999964,292.90963009995176,293.2094094999484,293.2094094999484,None,293.70988099998794,None,f,0,0.6082201999961399,293.70988099998794,None,None,None,294.3440026999451,None,,,,,,,,,,,,,,,,,,,,,11016,2,1,2024_Jun_02_1959,stroop_task_switching2,2021.2.3,59.90979979511829,
condition/block_word,instruction/instr_word,instruction/i9,红,white,d,square,word_single,单词,0.8955794421104841,,,,,,,,,,0,1,1,1,0,0,0,0,0,20,20,20,,,,,,,,,,,,,,,,,,,,,,,,,,,,,,,,,,,295.3465380999842,295.547807899944,295.52924909995636,295.83238299994264,295.83238299994264,None,296.34831119998125,None,d,1,0.5539922000025399,296.34831119998125,None,None,None,296.9312020999496,None,,,,,,,,,,,,,,,,,,,,,11016,2,1,2024_Jun_02_1959,stroop_task_switching2,2021.2.3,59.90979979511829,
condition/block_word,instruction/instr_word,instruction/i9,绿,white,k,square,word_single,单词,0.9113598052474129,,,,,,,,,,0,1,1,1,0,0,0,0,0,21,21,21,,,,,,,,,,,,,,,,,,,,,,,,,,,,,,,,,,,297.93355269997846,298.13482219999423,298.11669809999876,298.4180623999564,298.4180623999564,None,298.918833899952,None,k,1,0.5834851000108756,298.918833899952,None,None,None,299.51854529994307,None,,,,,,,,,,,,,,,,,,,,,11016,2,1,2024_Jun_02_1959,stroop_task_switching2,2021.2.3,59.90979979511829,
condition/block_word,instruction/instr_word,instruction/i9,黄,white,j,square,word_single,单词,0.9215930958042953,,,,,,,,,,0,1,1,1,0,0,0,0,0,22,22,22,,,,,,,,,,,,,,,,,,,,,,,,,,,,,,,,,,,300.52080889994977,300.7204647999606,300.70447329996387,301.00425509997876,301.00425509997876,None,301.504750699969,None,j,1,0.5818297999794595,301.504750699969,None,None,None,302.1057938999729,None,,,,,,,,,,,,,,,,,,,,,11016,2,1,2024_Jun_02_1959,stroop_task_switching2,2021.2.3,59.90979979511829,
condition/block_word,instruction/instr_word,instruction/i9,黄,white,j,square,word_single,单词,0.9493525498837774,,,,,,,,,,0,1,1,1,0,0,0,0,0,23,23,23,,,,,,,,,,,,,,,,,,,,,,,,,,,,,,,,,,,303.10739119997015,303.3082963999477,303.29095419996884,303.59133229998406,303.59133229998406,None,304.09304149996024,None,j,1,0.4812584000173956,304.09304149996024,None,None,None,304.5928630999988,None,,,,,,,,,,,,,,,,,,,,,11016,2,1,2024_Jun_02_1959,stroop_task_switching2,2021.2.3,59.90979979511829,
condition/block_word,instruction/instr_word,instruction/i9,,,,,,,,,,,,,,,,,0,1,1,1,0,0,0,0,,,,,,,,,,,,,,,,,,,,,,,,,,,,,,,,,,,,,,,,,,,,,,,,,,,,,,,,305.59430379996775,None,space,2.3239326999755576,305.59430379996775,None,,,,,,,,,,,,,,,11016,2,1,2024_Jun_02_1959,stroop_task_switching2,2021.2.3,59.90979979511829,
condition/block_word,instruction/instr_word,instruction/i9,,,,,,,,,,,,,,,,,0,1,1,1,,,,,,,,,,,,,,,,,,,,,,,,,,,,,,,,,,,,,,,,,,,,,,,,,,,,,,,,,,,,,,,,,,,,,,,,,,,,,,,,11016,2,1,2024_Jun_02_1959,stroop_task_switching2,2021.2.3,59.90979979511829,
condition/block_mixed,instruction/instr_mixed,instruction/i10,蓝,red,d,diamond,color_mix,颜色,,incompatible,0,,,,,,,,0,2,2,2,0,0,0,0,0,0,0,0,,,,,,,,,,,,,,,,,,,,,307.9647622999619,None,space,5.985839599976316,307.9647622999619,None,314.9755229000002,315.9784066999564,315.9784066999564,316.9801101999474,316.9801101999474,None,313.99176799994893,314.9937364999787,318.01464069995563,318.2316280999803,318.1964894999983,318.49787179997656,318.49787179997656,None,318.98154719994636,321.9883331999881,None,0,,318.98154719994636,321.9883331999881,321.9532343999599,None,322.5366751999827,None,,,,,,,,,,,,,,,,,,,,,11016,2,1,2024_Jun_02_1959,stroop_task_switching2,2021.2.3,59.90979979511829,
condition/block_mixed,instruction/instr_mixed,instruction/i10,绿,yellow,j,diamond,color_mix,颜色,,incompatible,1,,,,,,,,0,2,2,2,0,0,0,0,0,1,1,1,,,,,,,,,,,,,,,,,,,,,,,,,,,,,,,,,,,323.5382257999736,323.7396465999773,323.7227622999926,324.02327049995074,324.02327049995074,None,324.5230154999881,None,j,1,1.6918484999914654,324.5230154999881,None,None,None,326.2430303999572,None,,,,,,,,,,,,,,,,,,,,,11016,2,1,2024_Jun_02_1959,stroop_task_switching2,2021.2.3,59.90979979511829,
condition/block_mixed,instruction/instr_mixed,instruction/i10,红,green,k,diamond,color_mix,颜色,,incompatible,1,,,,,,,,0,2,2,2,0,0,0,0,0,2,2,2,,,,,,,,,,,,,,,,,,,,,,,,,,,,,,,,,,,327.24395029997686,327.44422389997635,327.4271661999519,327.72760579996975,327.72760579996975,None,328.2285994999693,None,j,0,0.8985641000326723,328.2285994999693,None,None,None,329.1465593999601,None,,,,,,,,,,,,,,,,,,,,,11016,2,1,2024_Jun_02_1959,stroop_task_switching2,2021.2.3,59.90979979511829,
condition/block_mixed,instruction/instr_mixed,instruction/i10,蓝,red,d,diamond,color_mix,颜色,,incompatible,1,,,,,,,,0,2,2,2,0,0,0,0,0,3,3,3,,,,,,,,,,,,,,,,,,,,,,,,,,,,,,,,,,,330.1482328999555,330.3496157999616,330.33171699999366,330.6330437999568,330.6330437999568,None,331.1330289999605,None,d,1,0.7780833999859169,331.1330289999605,None,None,None,331.93386009999085,None,,,,,,,,,,,,,,,,,,,,,11016,2,1,2024_Jun_02_1959,stroop_task_switching2,2021.2.3,59.90979979511829,
condition/block_mixed,instruction/instr_mixed,instruction/i10,红,blue,f,diamond,color_mix,颜色,,incompatible,1,,,,,,,,0,2,2,2,0,0,0,0,0,4,4,4,,,,,,,,,,,,,,,,,,,,,,,,,,,,,,,,,,,332.9356379999663,333.1359601999866,333.120053199993,333.4210025999928,333.4210025999928,None,333.92094499996165,None,f,1,1.078612899989821,333.92094499996165,None,None,None,335.02273699996294,None,,,,,,,,,,,,,,,,,,,,,11016,2,1,2024_Jun_02_1959,stroop_task_switching2,2021.2.3,59.90979979511829,
condition/block_mixed,instruction/instr_mixed,instruction/i10,红,blue,d,square,color_mix,单词,,incompatible,2,,,,,,,,0,2,2,2,0,0,0,0,0,5,5,5,,,,,,,,,,,,,,,,,,,,,,,,,,,,,,,,,,,336.02346579998266,336.2240248999442,336.2095763999969,336.52483029995346,336.5083418999566,None,337.0084825999802,None,d,1,1.5589320000144653,337.0084825999802,None,None,None,338.59420929994667,None,,,,,,,,,,,,,,,,,,,,,11016,2,1,2024_Jun_02_1959,stroop_task_switching2,2021.2.3,59.90979979511829,
condition/block_mixed,instruction/instr_mixed,instruction/i10,红,yellow,j,diamond,color_mix,颜色,,incompatible,2,,,,,,,,0,2,2,2,0,0,0,0,0,6,6,6,,,,,,,,,,,,,,,,,,,,,,,,,,,,,,,,,,,339.5967889999738,339.7959836999653,339.779273299966,340.0807598999818,340.0807598999818,None,340.58054519997677,None,j,1,2.0674592000432312,340.58054519997677,None,None,None,342.66700179997133,None,,,,,,,,,,,,,,,,,,,,,11016,2,1,2024_Jun_02_1959,stroop_task_switching2,2021.2.3,59.90979979511829,
condition/block_mixed,instruction/instr_mixed,instruction/i10,红,yellow,d,square,color_mix,单词,,incompatible,2,,,,,,,,0,2,2,2,0,0,0,0,0,7,7,7,,,,,,,,,,,,,,,,,,,,,,,,,,,,,,,,,,,343.668375499954,343.8704357999959,343.8523828999605,344.15326729998924,344.15326729998924,None,344.65466829994693,None,f,0,1.4651889000087976,344.65466829994693,None,None,None,346.13881399994716,None,,,,,,,,,,,,,,,,,,,,,11016,2,1,2024_Jun_02_1959,stroop_task_switching2,2021.2.3,59.90979979511829,
condition/block_mixed,instruction/instr_mixed,instruction/i10,绿,blue,k,square,color_mix,单词,,incompatible,1,,,,,,,,0,2,2,2,0,0,0,0,0,8,8,8,,,,,,,,,,,,,,,,,,,,,,,,,,,,,,,,,,,347.1410971999867,347.34135069994954,347.324819499976,347.62549089995446,347.62549089995446,None,348.1252126999898,None,k,1,1.7065254999906756,348.1252126999898,None,None,None,349.8611769999843,None,,,,,,,,,,,,,,,,,,,,,11016,2,1,2024_Jun_02_1959,stroop_task_switching2,2021.2.3,59.90979979511829,
condition/block_mixed,instruction/instr_mixed,instruction/i10,蓝,green,k,diamond,color_mix,颜色,,incompatible,2,,,,,,,,0,2,2,2,0,0,0,0,0,9,9,9,,,,,,,,,,,,,,,,,,,,,,,,,,,,,,,,,,,350.8627337999642,351.0631043999456,351.0472780999844,351.34752519999165,351.34752519999165,None,351.8476822999655,None,k,1,2.103897099965252,351.8476822999655,None,None,None,353.9673367999494,None,,,,,,,,,,,,,,,,,,,,,11016,2,1,2024_Jun_02_1959,stroop_task_switching2,2021.2.3,59.90979979511829,
condition/block_mixed,instruction/instr_mixed,instruction/i10,蓝,yellow,f,square,color_mix,单词,,incompatible,2,,,,,,,,0,2,2,2,0,0,0,0,0,10,10,10,,,,,,,,,,,,,,,,,,,,,,,,,,,,,,,,,,,354.96895119996043,355.171300099988,355.15242429997306,355.45307569997385,355.45307569997385,None,355.95393849996617,358.9596526999958,None,0,,355.95393849996617,358.9596526999958,358.941727599944,None,359.5102741999435,None,,,,,,,,,,,,,,,,,,,,,11016,2,1,2024_Jun_02_1959,stroop_task_switching2,2021.2.3,59.90979979511829,
condition/block_mixed,instruction/instr_mixed,instruction/i10,蓝,green,f,square,color_mix,单词,,incompatible,1,,,,,,,,0,2,2,2,0,0,0,0,0,11,11,11,,,,,,,,,,,,,,,,,,,,,,,,,,,,,,,,,,,360.51151709997794,360.7118781999452,360.6947360999766,360.99534099997254,360.99534099997254,None,361.49520849995315,None,f,1,1.824800000002142,361.49520849995315,None,None,None,363.34804209996946,None,,,,,,,,,,,,,,,,,,,,,11016,2,1,2024_Jun_02_1959,stroop_task_switching2,2021.2.3,59.90979979511829,
condition/block_mixed,instruction/instr_mixed,instruction/i10,绿,yellow,k,square,color_mix,单词,,incompatible,1,,,,,,,,0,2,2,2,0,0,0,0,0,12,12,12,,,,,,,,,,,,,,,,,,,,,,,,,,,,,,,,,,,364.34988889994565,364.55069649999496,364.5331903999904,364.83495709998533,364.83495709998533,None,365.33455059997505,None,j,0,1.0976447999710217,365.33455059997505,None,None,None,366.45270239998354,None,,,,,,,,,,,,,,,,,,,,,11016,2,1,2024_Jun_02_1959,stroop_task_switching2,2021.2.3,59.90979979511829,
condition/block_mixed,instruction/instr_mixed,instruction/i10,绿,blue,f,diamond,color_mix,颜色,,incompatible,2,,,,,,,,0,2,2,2,0,0,0,0,0,13,13,13,,,,,,,,,,,,,,,,,,,,,,,,,,,,,,,,,,,367.45508519996656,367.65467339998577,367.637954899983,367.9384771999903,367.9384771999903,None,368.4391389999655,371.44417579995934,None,0,,368.4391389999655,371.44417579995934,371.42822059994796,None,372.011213699996,None,,,,,,,,,,,,,,,,,,,,,11016,2,1,2024_Jun_02_1959,stroop_task_switching2,2021.2.3,59.90979979511829,
condition/block_mixed,instruction/instr_mixed,instruction/i10,黄,red,j,square,color_mix,单词,,incompatible,2,,,,,,,,0,2,2,2,0,0,0,0,0,14,14,14,,,,,,,,,,,,,,,,,,,,,,,,,,,,,,,,,,,373.01280089997454,373.21405269997194,373.19846339995274,373.4968369999551,373.4968369999551,None,373.99734039994655,None,f,0,2.147134799975902,373.99734039994655,None,None,None,376.1675272999564,None,,,,,,,,,,,,,,,,,,,,,11016,2,1,2024_Jun_02_1959,stroop_task_switching2,2021.2.3,59.90979979511829,
condition/block_mixed,instruction/instr_mixed,instruction/i10,蓝,yellow,j,diamond,color_mix,颜色,,incompatible,2,,,,,,,,0,2,2,2,0,0,0,0,0,15,15,15,,,,,,,,,,,,,,,,,,,,,,,,,,,,,,,,,,,377.1689691999927,377.36938009998994,377.35354579996783,377.6530826999806,377.6530826999806,None,378.1548267999897,381.159019899962,None,0,,378.1548267999897,381.159019899962,381.1424310999573,None,381.8761158999987,None,,,,,,,,,,,,,,,,,,,,,11016,2,1,2024_Jun_02_1959,stroop_task_switching2,2021.2.3,59.90979979511829,
condition/block_mixed,instruction/instr_mixed,instruction/i10,黄,red,d,diamond,color_mix,颜色,,incompatible,1,,,,,,,,0,2,2,2,0,0,0,0,0,16,16,16,,,,,,,,,,,,,,,,,,,,,,,,,,,,,,,,,,,382.87879459996475,383.0799836999504,383.06124839995755,383.3624496999546,383.3624496999546,None,383.86220969998976,None,d,1,2.418748099997174,383.86220969998976,None,None,None,386.29948199994396,None,,,,,,,,,,,,,,,,,,,,,11016,2,1,2024_Jun_02_1959,stroop_task_switching2,2021.2.3,59.90979979511829,
condition/block_mixed,instruction/instr_mixed,instruction/i10,绿,red,k,square,color_mix,单词,,incompatible,2,,,,,,,,0,2,2,2,0,0,0,0,0,17,17,17,,,,,,,,,,,,,,,,,,,,,,,,,,,,,,,,,,,387.3011276999605,387.50271229998907,387.48473629995715,387.78500469995197,387.78500469995197,None,388.28599149995716,None,j,0,1.6106734000495635,388.28599149995716,None,None,None,389.92165859998204,None,,,,,,,,,,,,,,,,,,,,,11016,2,1,2024_Jun_02_1959,stroop_task_switching2,2021.2.3,59.90979979511829,
condition/block_mixed,instruction/instr_mixed,instruction/i10,红,green,d,square,color_mix,单词,,incompatible,1,,,,,,,,0,2,2,2,0,0,0,0,0,18,18,18,,,,,,,,,,,,,,,,,,,,,,,,,,,,,,,,,,,390.9231408999767,391.1241236999631,391.10672629997134,391.4076714999974,391.4076714999974,None,391.9086129999487,None,d,1,1.4685581999947317,391.9086129999487,None,None,None,393.39347709994763,None,,,,,,,,,,,,,,,,,,,,,11016,2,1,2024_Jun_02_1959,stroop_task_switching2,2021.2.3,59.90979979511829,
condition/block_mixed,instruction/instr_mixed,instruction/i10,黄,blue,f,diamond,color_mix,颜色,,incompatible,2,,,,,,,,0,2,2,2,0,0,0,0,0,19,19,19,,,,,,,,,,,,,,,,,,,,,,,,,,,,,,,,,,,394.39572509995196,394.5962510999525,394.5792729999521,394.88036919996375,394.88036919996375,None,395.3800388999516,None,f,1,1.652749800006859,395.3800388999516,None,None,None,397.0489827999845,None,,,,,,,,,,,,,,,,,,,,,11016,2,1,2024_Jun_02_1959,stroop_task_switching2,2021.2.3,59.90979979511829,
condition/block_mixed,instruction/instr_mixed,instruction/i10,黄,green,k,diamond,color_mix,颜色,,incompatible,1,,,,,,,,0,2,2,2,0,0,0,0,0,20,20,20,,,,,,,,,,,,,,,,,,,,,,,,,,,,,,,,,,,398.0512740999693,398.2525900999899,398.234158199979,398.53670919995056,398.53670919995056,None,399.0353510999703,None,k,1,1.0862922999658622,399.0353510999703,None,None,None,400.13695429998916,None,,,,,,,,,,,,,,,,,,,,,11016,2,1,2024_Jun_02_1959,stroop_task_switching2,2021.2.3,59.90979979511829,
condition/block_mixed,instruction/instr_mixed,instruction/i10,黄,green,j,square,color_mix,单词,,incompatible,2,,,,,,,,0,2,2,2,0,0,0,0,0,21,21,21,,,,,,,,,,,,,,,,,,,,,,,,,,,,,,,,,,,401.1392153999768,401.33935279998695,401.3229739999515,401.6234835999785,401.6234835999785,None,402.1232895999565,None,k,0,0.918820999970194,402.1232895999565,None,None,None,403.05810099997325,None,,,,,,,,,,,,,,,,,,,,,11016,2,1,2024_Jun_02_1959,stroop_task_switching2,2021.2.3,59.90979979511829,
condition/block_mixed,instruction/instr_mixed,instruction/i10,黄,blue,j,square,color_mix,单词,,incompatible,1,,,,,,,,0,2,2,2,0,0,0,0,0,22,22,22,,,,,,,,,,,,,,,,,,,,,,,,,,,,,,,,,,,404.0595431999536,404.2611160999513,404.24466749996645,404.5613595999894,404.5453241999494,None,405.0445872999844,None,f,0,1.964722200005781,405.0445872999844,None,None,None,407.0318747999845,None,,,,,,,,,,,,,,,,,,,,,11016,2,1,2024_Jun_02_1959,stroop_task_switching2,2021.2.3,59.90979979511829,
condition/block_mixed,instruction/instr_mixed,instruction/i10,蓝,red,f,square,color_mix,单词,,incompatible,1,,,,,,,,0,2,2,2,0,0,0,0,0,23,23,23,,,,,,,,,,,,,,,,,,,,,,,,,,,,,,,,,,,408.0333161999588,408.2336660999572,408.21768369997153,408.5180183999473,408.5180183999473,None,409.0188471999718,None,f,1,2.710150500002783,409.0188471999718,None,None,None,411.7543452999671,None,,,,,,,,,,,,,,,,,,,,,11016,2,1,2024_Jun_02_1959,stroop_task_switching2,2021.2.3,59.90979979511829,
condition/block_mixed,instruction/instr_mixed,instruction/i10,绿,red,d,diamond,color_mix,颜色,,incompatible,2,,,,,,,,0,2,2,2,0,0,0,0,0,24,24,24,,,,,,,,,,,,,,,,,,,,,,,,,,,,,,,,,,,412.75673119997373,412.9583600999904,412.93971509998664,413.24080959998537,413.24080959998537,None,413.7414026999613,None,d,1,0.6757132000057027,413.7414026999613,None,None,None,414.4419528999715,None,,,,,,,,,,,,,,,,,,,,,11016,2,1,2024_Jun_02_1959,stroop_task_switching2,2021.2.3,59.90979979511829,
condition/block_mixed,instruction/instr_mixed,instruction/i10,绿,green,k,diamond,color_mix,颜色,,compatible,1,,,,,,,,0,2,2,2,0,0,0,0,0,25,25,25,,,,,,,,,,,,,,,,,,,,,,,,,,,,,,,,,,,415.4435751999845,415.6443169999984,415.62772529997164,415.92814899998484,415.92814899998484,None,416.4282848999719,None,k,1,0.5655138999572955,416.4282848999719,None,None,None,417.0125140999444,None,,,,,,,,,,,,,,,,,,,,,11016,2,1,2024_Jun_02_1959,stroop_task_switching2,2021.2.3,59.90979979511829,
condition/block_mixed,instruction/instr_mixed,instruction/i10,蓝,blue,f,diamond,color_mix,颜色,,compatible,1,,,,,,,,0,2,2,2,0,0,0,0,0,26,26,26,,,,,,,,,,,,,,,,,,,,,,,,,,,,,,,,,,,418.01489009999204,418.2148247999721,418.1974094999605,418.4998480999493,418.4998480999493,None,418.9999702999485,None,f,1,0.9774944999953732,418.9999702999485,None,None,None,420.00012849998893,None,,,,,,,,,,,,,,,,,,,,,11016,2,1,2024_Jun_02_1959,stroop_task_switching2,2021.2.3,59.90979979511829,
condition/block_mixed,instruction/instr_mixed,instruction/i10,绿,green,k,square,color_mix,单词,,compatible,2,,,,,,,,0,2,2,2,0,0,0,0,0,27,27,27,,,,,,,,,,,,,,,,,,,,,,,,,,,,,,,,,,,421.0023610999924,421.20364779996453,421.1854215999483,421.48734969994985,421.48734969994985,None,421.986938499962,None,k,1,0.7105008999933489,421.986938499962,None,None,None,422.7208802999812,None,,,,,,,,,,,,,,,,,,,,,11016,2,1,2024_Jun_02_1959,stroop_task_switching2,2021.2.3,59.90979979511829,
condition/block_mixed,instruction/instr_mixed,instruction/i10,绿,green,k,square,color_mix,单词,,compatible,1,,,,,,,,0,2,2,2,0,0,0,0,0,28,28,28,,,,,,,,,,,,,,,,,,,,,,,,,,,,,,,,,,,423.72254169994267,423.92285489995265,423.906755999953,424.2063960999949,424.2063960999949,None,424.70833459997084,None,k,1,0.5018066000193357,424.70833459997084,None,None,None,425.22479239996755,None,,,,,,,,,,,,,,,,,,,,,11016,2,1,2024_Jun_02_1959,stroop_task_switching2,2021.2.3,59.90979979511829,
condition/block_mixed,instruction/instr_mixed,instruction/i10,蓝,blue,f,square,color_mix,单词,,compatible,1,,,,,,,,0,2,2,2,0,0,0,0,0,29,29,29,,,,,,,,,,,,,,,,,,,,,,,,,,,,,,,,,,,426.22713129996555,426.42897299997276,426.4098535999656,426.71103469998343,426.71103469998343,None,427.21129099995596,None,f,1,0.9907343999948353,427.21129099995596,None,None,None,428.22927609999897,None,,,,,,,,,,,,,,,,,,,,,11016,2,1,2024_Jun_02_1959,stroop_task_switching2,2021.2.3,59.90979979511829,
condition/block_mixed,instruction/instr_mixed,instruction/i10,黄,yellow,j,diamond,color_mix,颜色,,compatible,2,,,,,,,,0,2,2,2,0,0,0,0,0,30,30,30,,,,,,,,,,,,,,,,,,,,,,,,,,,,,,,,,,,429.23070709995227,429.4324936999474,429.4144388999557,429.7164723999449,429.7164723999449,None,430.2167264999589,None,j,1,1.10566999996081,430.2167264999589,None,None,None,431.35240169998724,None,,,,,,,,,,,,,,,,,,,,,11016,2,1,2024_Jun_02_1959,stroop_task_switching2,2021.2.3,59.90979979511829,
condition/block_mixed,instruction/instr_mixed,instruction/i10,绿,green,k,square,color_mix,单词,,compatible,2,,,,,,,,0,2,2,2,0,0,0,0,0,31,31,31,,,,,,,,,,,,,,,,,,,,,,,,,,,,,,,,,,,432.3524778999854,432.5533066999633,432.535775599943,432.83719120000023,432.83719120000023,None,433.3371382999467,None,k,1,0.5685836000484414,433.3371382999467,None,None,None,433.92124749999493,None,,,,,,,,,,,,,,,,,,,,,11016,2,1,2024_Jun_02_1959,stroop_task_switching2,2021.2.3,59.90979979511829,
condition/block_mixed,instruction/instr_mixed,instruction/i10,黄,yellow,j,square,color_mix,单词,,compatible,1,,,,,,,,0,2,2,2,0,0,0,0,0,32,32,32,,,,,,,,,,,,,,,,,,,,,,,,,,,,,,,,,,,434.92343729996355,435.1239681999432,435.10715579998214,435.4078760999837,435.4078760999837,None,435.9076571999467,None,j,1,0.870530600019265,435.9076571999467,None,None,None,436.7922851999756,None,,,,,,,,,,,,,,,,,,,,,11016,2,1,2024_Jun_02_1959,stroop_task_switching2,2021.2.3,59.90979979511829,
condition/block_mixed,instruction/instr_mixed,instruction/i10,绿,green,k,diamond,color_mix,颜色,,compatible,2,,,,,,,,0,2,2,2,0,0,0,0,0,33,33,33,,,,,,,,,,,,,,,,,,,,,,,,,,,,,,,,,,,437.7935916999704,437.99596089997794,437.9774410999962,438.2779258999508,438.2779258999508,None,438.77881089999573,None,k,1,0.8869982999749482,438.77881089999573,None,None,None,439.6966809000005,None,,,,,,,,,,,,,,,,,,,,,11016,2,1,2024_Jun_02_1959,stroop_task_switching2,2021.2.3,59.90979979511829,
condition/block_mixed,instruction/instr_mixed,instruction/i10,红,red,d,square,color_mix,单词,,compatible,2,,,,,,,,0,2,2,2,0,0,0,0,0,34,34,34,,,,,,,,,,,,,,,,,,,,,,,,,,,,,,,,,,,440.69789569999557,440.8991351999575,440.88244139996823,441.18230569997104,441.18230569997104,None,441.68351779994555,None,d,1,0.5507856999756768,441.68351779994555,None,None,None,442.2505091999774,None,,,,,,,,,,,,,,,,,,,,,11016,2,1,2024_Jun_02_1959,stroop_task_switching2,2021.2.3,59.90979979511829,
condition/block_mixed,instruction/instr_mixed,instruction/i10,黄,yellow,j,square,color_mix,单词,,compatible,1,,,,,,,,0,2,2,2,0,0,0,0,0,35,35,35,,,,,,,,,,,,,,,,,,,,,,,,,,,,,,,,,,,443.25196079997113,443.4530257000006,443.4354200999951,443.7360758999712,443.7360758999712,None,444.2366354999831,None,j,1,1.2213504000101238,444.2366354999831,None,None,None,445.4886723999516,None,,,,,,,,,,,,,,,,,,,,,11016,2,1,2024_Jun_02_1959,stroop_task_switching2,2021.2.3,59.90979979511829,
condition/block_mixed,instruction/instr_mixed,instruction/i10,绿,green,k,diamond,color_mix,颜色,,compatible,2,,,,,,,,0,2,2,2,0,0,0,0,0,36,36,36,,,,,,,,,,,,,,,,,,,,,,,,,,,,,,,,,,,446.4912607999868,446.6905735999462,446.67474409996066,446.975400299998,446.975400299998,None,447.47494969994295,None,k,1,0.5995428999885917,447.47494969994295,None,None,None,448.092743999965,None,,,,,,,,,,,,,,,,,,,,,11016,2,1,2024_Jun_02_1959,stroop_task_switching2,2021.2.3,59.90979979511829,
condition/block_mixed,instruction/instr_mixed,instruction/i10,蓝,blue,f,square,color_mix,单词,,compatible,2,,,,,,,,0,2,2,2,0,0,0,0,0,37,37,37,,,,,,,,,,,,,,,,,,,,,,,,,,,,,,,,,,,449.09513279999373,449.29530459997477,449.27812879998237,449.57828319998225,449.57828319998225,None,450.0797442999901,None,f,1,1.3066143000032753,450.0797442999901,None,None,None,451.4143387999502,None,,,,,,,,,,,,,,,,,,,,,11016,2,1,2024_Jun_02_1959,stroop_task_switching2,2021.2.3,59.90979979511829,
condition/block_mixed,instruction/instr_mixed,instruction/i10,红,red,d,square,color_mix,单词,,compatible,1,,,,,,,,0,2,2,2,0,0,0,0,0,38,38,38,,,,,,,,,,,,,,,,,,,,,,,,,,,,,,,,,,,452.4161531999707,452.6164365999866,452.5994747999939,452.8997944999719,452.8997944999719,None,453.40060079999967,None,d,1,0.44173269998282194,453.40060079999967,None,None,None,453.868022599956,None,,,,,,,,,,,,,,,,,,,,,11016,2,1,2024_Jun_02_1959,stroop_task_switching2,2021.2.3,59.90979979511829,
condition/block_mixed,instruction/instr_mixed,instruction/i10,黄,yellow,j,diamond,color_mix,颜色,,compatible,2,,,,,,,,0,2,2,2,0,0,0,0,0,39,39,39,,,,,,,,,,,,,,,,,,,,,,,,,,,,,,,,,,,454.8695323999855,455.0697106999578,455.0532403999823,455.3556493999786,455.3556493999786,None,455.85506939998595,None,j,1,0.7472353000193834,455.85506939998595,None,None,None,456.6222594999708,None,,,,,,,,,,,,,,,,,,,,,11016,2,1,2024_Jun_02_1959,stroop_task_switching2,2021.2.3,59.90979979511829,
condition/block_mixed,instruction/instr_mixed,instruction/i10,黄,yellow,j,square,color_mix,单词,,compatible,2,,,,,,,,0,2,2,2,0,0,0,0,0,40,40,40,,,,,,,,,,,,,,,,,,,,,,,,,,,,,,,,,,,457.62369919999037,457.8250936999684,457.80837109999266,458.10765179997543,458.10765179997543,None,458.6084559999872,None,j,1,0.6500372000155039,458.6084559999872,None,None,None,459.27612369996496,None,,,,,,,,,,,,,,,,,,,,,11016,2,1,2024_Jun_02_1959,stroop_task_switching2,2021.2.3,59.90979979511829,
condition/block_mixed,instruction/instr_mixed,instruction/i10,蓝,blue,f,square,color_mix,单词,,compatible,1,,,,,,,,0,2,2,2,0,0,0,0,0,41,41,41,,,,,,,,,,,,,,,,,,,,,,,,,,,,,,,,,,,460.27808539994294,460.47877419996075,460.46205249999184,460.7635797999683,460.7635797999683,None,461.2800349999452,None,f,1,1.4187588000204414,461.2800349999452,None,None,None,462.7145133999875,None,,,,,,,,,,,,,,,,,,,,,11016,2,1,2024_Jun_02_1959,stroop_task_switching2,2021.2.3,59.90979979511829,
condition/block_mixed,instruction/instr_mixed,instruction/i10,蓝,blue,f,diamond,color_mix,颜色,,compatible,2,,,,,,,,0,2,2,2,0,0,0,0,0,42,42,42,,,,,,,,,,,,,,,,,,,,,,,,,,,,,,,,,,,463.7166462999885,463.9180043999804,463.8998254999751,464.20004469994456,464.20004469994456,None,464.7011200999841,None,f,1,0.566129099985119,464.7011200999841,None,None,None,465.28519159997813,None,,,,,,,,,,,,,,,,,,,,,11016,2,1,2024_Jun_02_1959,stroop_task_switching2,2021.2.3,59.90979979511829,
condition/block_mixed,instruction/instr_mixed,instruction/i10,黄,yellow,j,diamond,color_mix,颜色,,compatible,1,,,,,,,,0,2,2,2,0,0,0,0,0,43,43,43,,,,,,,,,,,,,,,,,,,,,,,,,,,,,,,,,,,466.28674499999033,466.4882180999848,466.4705224999925,466.7719389999984,466.7719389999984,None,467.2715512999566,None,j,1,0.5954650000203401,467.2715512999566,None,None,None,467.88965899997856,None,,,,,,,,,,,,,,,,,,,,,11016,2,1,2024_Jun_02_1959,stroop_task_switching2,2021.2.3,59.90979979511829,
condition/block_mixed,instruction/instr_mixed,instruction/i10,红,red,d,diamond,color_mix,颜色,,compatible,1,,,,,,,,0,2,2,2,0,0,0,0,0,44,44,44,,,,,,,,,,,,,,,,,,,,,,,,,,,,,,,,,,,468.8905595999677,469.09182749997126,469.0748383999453,469.37453339999774,469.37453339999774,None,469.87547389999963,None,d,1,0.5432738999952562,469.87547389999963,None,None,None,470.4430113999988,None,,,,,,,,,,,,,,,,,,,,,11016,2,1,2024_Jun_02_1959,stroop_task_switching2,2021.2.3,59.90979979511829,
condition/block_mixed,instruction/instr_mixed,instruction/i10,蓝,blue,f,diamond,color_mix,颜色,,compatible,1,,,,,,,,0,2,2,2,0,0,0,0,0,45,45,45,,,,,,,,,,,,,,,,,,,,,,,,,,,,,,,,,,,471.4452862999751,471.64523869997356,471.6287930999533,471.92958549998,471.92958549998,None,472.4292982999468,None,f,1,0.5823282000492327,472.4292982999468,None,None,None,473.03035489999456,None,,,,,,,,,,,,,,,,,,,,,11016,2,1,2024_Jun_02_1959,stroop_task_switching2,2021.2.3,59.90979979511829,
condition/block_mixed,instruction/instr_mixed,instruction/i10,红,red,d,diamond,color_mix,颜色,,compatible,1,,,,,,,,0,2,2,2,0,0,0,0,0,46,46,46,,,,,,,,,,,,,,,,,,,,,,,,,,,,,,,,,,,474.0317896999768,474.2329394999542,474.21721279999474,474.5163076999597,474.5163076999597,None,475.01734819996636,None,d,1,0.5775555000291206,475.01734819996636,None,None,None,475.6175537999952,None,,,,,,,,,,,,,,,,,,,,,11016,2,1,2024_Jun_02_1959,stroop_task_switching2,2021.2.3,59.90979979511829,
condition/block_mixed,instruction/instr_mixed,instruction/i10,红,red,d,square,color_mix,单词,,compatible,2,,,,,,,,0,2,2,2,0,0,0,0,0,47,47,47,,,,,,,,,,,,,,,,,,,,,,,,,,,,,,,,,,,476.62008409999544,476.82054259994766,476.8025969999726,477.10385979997227,477.10385979997227,None,477.6037236999837,None,d,1,0.6231886000023223,477.6037236999837,None,None,None,478.25535909994505,None,,,,,,,,,,,,,,,,,,,,,11016,2,1,2024_Jun_02_1959,stroop_task_switching2,2021.2.3,59.90979979511829,
condition/block_mixed,instruction/instr_mixed,instruction/i10,红,red,d,diamond,color_mix,颜色,,compatible,2,,,,,,,,0,2,2,2,0,0,0,0,0,48,48,48,,,,,,,,,,,,,,,,,,,,,,,,,,,,,,,,,,,479.25612339994404,479.4563525999547,479.4409521999769,479.7404356999905,479.7404356999905,None,480.24122719996376,None,d,1,0.5780071999761276,480.24122719996376,None,None,None,480.842125199968,None,,,,,,,,,,,,,,,,,,,,,11016,2,1,2024_Jun_02_1959,stroop_task_switching2,2021.2.3,59.90979979511829,
condition/block_mixed,instruction/instr_mixed,instruction/i10,,,,,,,,,,,,,,,,,0,2,2,2,0,0,0,0,,,,,,,,,,,,,,,,,,,,,,,,,,,,,,,,,,,,,,,,,,,,,,,,,,,,,,,,481.84341509995284,None,q,19.97663150000153,481.84341509995284,None,,,,,,,,,,,,,,,11016,2,1,2024_Jun_02_1959,stroop_task_switching2,2021.2.3,59.90979979511829,
condition/block_mixed,instruction/instr_mixed,instruction/i10,蓝,red,d,diamond,color_mix,颜色,,incompatible,0,,,,,,,,0,2,2,2,1,0,1,0,0,0,0,0,,,,,,,,,,,,,,,,,,,,,,,,,,,502.841854499944,503.8433693999541,503.8433693999541,504.8460052999435,504.8460052999435,None,501.8587985999766,502.85978859994793,505.8802800999838,506.08071059995564,506.06453759997385,506.36591860000044,506.36591860000044,None,506.86470669996925,None,d,1,1.0030802999972366,506.86470669996925,None,None,None,507.882889099943,None,,,,,,,,,,,,,,,,,,,,,11016,2,1,2024_Jun_02_1959,stroop_task_switching2,2021.2.3,59.90979979511829,
condition/block_mixed,instruction/instr_mixed,instruction/i10,绿,yellow,j,diamond,color_mix,颜色,,incompatible,1,,,,,,,,0,2,2,2,1,0,1,0,0,1,1,1,,,,,,,,,,,,,,,,,,,,,,,,,,,,,,,,,,,508.88432949996786,509.08471849997295,509.06810439995024,509.3689850999508,509.3689850999508,None,509.8690813999856,None,k,0,0.7588631000253372,509.8690813999856,None,None,None,510.6536608999595,None,,,,,,,,,,,,,,,,,,,,,11016,2,1,2024_Jun_02_1959,stroop_task_switching2,2021.2.3,59.90979979511829,
condition/block_mixed,instruction/instr_mixed,instruction/i10,红,green,k,diamond,color_mix,颜色,,incompatible,1,,,,,,,,0,2,2,2,1,0,1,0,0,2,2,2,,,,,,,,,,,,,,,,,,,,,,,,,,,,,,,,,,,511.65565579995746,511.8557835999527,511.8393443999812,512.1410415999708,512.1410415999708,None,512.6398785999627,None,k,1,0.8842331999912858,512.6398785999627,None,None,None,513.5413392999908,None,,,,,,,,,,,,,,,,,,,,,11016,2,1,2024_Jun_02_1959,stroop_task_switching2,2021.2.3,59.90979979511829,
condition/block_mixed,instruction/instr_mixed,instruction/i10,蓝,red,d,diamond,color_mix,颜色,,incompatible,1,,,,,,,,0,2,2,2,1,0,1,0,0,3,3,3,,,,,,,,,,,,,,,,,,,,,,,,,,,,,,,,,,,514.5434108999907,514.7450695000007,514.7271426999941,515.0283501999802,515.0283501999802,None,515.5276563999942,None,d,1,0.6530685999896377,515.5276563999942,None,None,None,516.1952151999576,None,,,,,,,,,,,,,,,,,,,,,11016,2,1,2024_Jun_02_1959,stroop_task_switching2,2021.2.3,59.90979979511829,
condition/block_mixed,instruction/instr_mixed,instruction/i10,红,blue,f,diamond,color_mix,颜色,,incompatible,1,,,,,,,,0,2,2,2,1,0,1,0,0,4,4,4,,,,,,,,,,,,,,,,,,,,,,,,,,,,,,,,,,,517.1976690999581,517.3979301999789,517.3812248999602,517.6810253000003,517.6810253000003,None,518.1818394999718,None,k,0,1.4543990000383928,518.1818394999718,None,None,None,519.6503156999825,None,,,,,,,,,,,,,,,,,,,,,11016,2,1,2024_Jun_02_1959,stroop_task_switching2,2021.2.3,59.90979979511829,
condition/block_mixed,instruction/instr_mixed,instruction/i10,红,blue,d,square,color_mix,单词,,incompatible,2,,,,,,,,0,2,2,2,1,0,1,0,0,5,5,5,,,,,,,,,,,,,,,,,,,,,,,,,,,,,,,,,,,520.6523609999567,520.8529967999784,520.8364011999802,521.1371319999453,521.1371319999453,None,521.6367040999467,None,f,0,0.6077890999731608,521.6367040999467,None,None,None,522.2711870999774,None,,,,,,,,,,,,,,,,,,,,,11016,2,1,2024_Jun_02_1959,stroop_task_switching2,2021.2.3,59.90979979511829,
condition/block_mixed,instruction/instr_mixed,instruction/i10,红,yellow,j,diamond,color_mix,颜色,,incompatible,2,,,,,,,,0,2,2,2,1,0,1,0,0,6,6,6,,,,,,,,,,,,,,,,,,,,,,,,,,,,,,,,,,,523.2737340999884,523.4743739999831,523.4562033999828,523.7572265999625,523.7572265999625,None,524.2573864999576,None,j,1,1.0747599999886006,524.2573864999576,None,None,None,525.3591368999914,None,,,,,,,,,,,,,,,,,,,,,11016,2,1,2024_Jun_02_1959,stroop_task_switching2,2021.2.3,59.90979979511829,
condition/block_mixed,instruction/instr_mixed,instruction/i10,红,yellow,d,square,color_mix,单词,,incompatible,2,,,,,,,,0,2,2,2,1,0,1,0,0,7,7,7,,,,,,,,,,,,,,,,,,,,,,,,,,,,,,,,,,,526.3616664999863,526.5628785999725,526.5442441999912,526.844720299996,526.844720299996,None,527.3460944999824,None,d,1,1.0582499000011012,527.3460944999824,None,None,None,528.4303262999747,None,,,,,,,,,,,,,,,,,,,,,11016,2,1,2024_Jun_02_1959,stroop_task_switching2,2021.2.3,59.90979979511829,
condition/block_mixed,instruction/instr_mixed,instruction/i10,绿,blue,k,square,color_mix,单词,,incompatible,1,,,,,,,,0,2,2,2,1,0,1,0,0,8,8,8,,,,,,,,,,,,,,,,,,,,,,,,,,,,,,,,,,,529.431973699946,529.632229299983,529.6157672999543,529.9159374999581,529.9159374999581,None,530.4166946999612,None,j,0,0.9719861000194214,530.4166946999612,None,None,None,531.4182123999926,None,,,,,,,,,,,,,,,,,,,,,11016,2,1,2024_Jun_02_1959,stroop_task_switching2,2021.2.3,59.90979979511829,
condition/block_mixed,instruction/instr_mixed,instruction/i10,蓝,green,k,diamond,color_mix,颜色,,incompatible,2,,,,,,,,0,2,2,2,1,0,1,0,0,9,9,9,,,,,,,,,,,,,,,,,,,,,,,,,,,,,,,,,,,532.4196660999442,532.6212216999847,532.6042363999877,532.9047803999856,532.9047803999856,None,533.4048150999588,536.4098712999839,None,0,,533.4048150999588,536.4098712999839,536.3928457999718,None,537.0108734999667,None,,,,,,,,,,,,,,,,,,,,,11016,2,1,2024_Jun_02_1959,stroop_task_switching2,2021.2.3,59.90979979511829,
condition/block_mixed,instruction/instr_mixed,instruction/i10,蓝,yellow,f,square,color_mix,单词,,incompatible,2,,,,,,,,0,2,2,2,1,0,1,0,0,10,10,10,,,,,,,,,,,,,,,,,,,,,,,,,,,,,,,,,,,538.0118590999627,538.2117180999485,538.1964924999629,538.4965208999929,538.4965208999929,None,538.9972044999595,None,f,1,1.9840016000089236,538.9972044999595,None,None,None,540.9993870999897,None,,,,,,,,,,,,,,,,,,,,,11016,2,1,2024_Jun_02_1959,stroop_task_switching2,2021.2.3,59.90979979511829,
condition/block_mixed,instruction/instr_mixed,instruction/i10,蓝,green,f,square,color_mix,单词,,incompatible,1,,,,,,,,0,2,2,2,1,0,1,0,0,11,11,11,,,,,,,,,,,,,,,,,,,,,,,,,,,,,,,,,,,542.0008498999523,542.2021772999433,542.1843671999522,542.4852569999639,542.4852569999639,None,542.9867570999777,None,k,0,0.9624775999691337,542.9867570999777,None,None,None,543.9719333999674,None,,,,,,,,,,,,,,,,,,,,,11016,2,1,2024_Jun_02_1959,stroop_task_switching2,2021.2.3,59.90979979511829,
condition/block_mixed,instruction/instr_mixed,instruction/i10,绿,yellow,k,square,color_mix,单词,,incompatible,1,,,,,,,,0,2,2,2,1,0,1,0,0,12,12,12,,,,,,,,,,,,,,,,,,,,,,,,,,,,,,,,,,,544.9719912,545.1729152999469,545.1555744999787,545.4560315999552,545.4560315999552,None,545.9568543999922,None,j,0,1.5680944999912754,545.9568543999922,None,None,None,547.542523799988,None,,,,,,,,,,,,,,,,,,,,,11016,2,1,2024_Jun_02_1959,stroop_task_switching2,2021.2.3,59.90979979511829,
condition/block_mixed,instruction/instr_mixed,instruction/i10,绿,blue,f,diamond,color_mix,颜色,,incompatible,2,,,,,,,,0,2,2,2,1,0,1,0,0,13,13,13,,,,,,,,,,,,,,,,,,,,,,,,,,,,,,,,,,,548.5439781999448,548.7457728999434,548.7277673999779,549.0280927999993,549.0280927999993,None,549.529323099996,None,f,1,2.5237852999707684,549.529323099996,None,None,None,552.0827556999866,None,,,,,,,,,,,,,,,,,,,,,11016,2,1,2024_Jun_02_1959,stroop_task_switching2,2021.2.3,59.90979979511829,
condition/block_mixed,instruction/instr_mixed,instruction/i10,黄,red,j,square,color_mix,单词,,incompatible,2,,,,,,,,0,2,2,2,1,0,1,0,0,14,14,14,,,,,,,,,,,,,,,,,,,,,,,,,,,,,,,,,,,553.0853207999608,553.2845797999762,553.2689193999977,553.5683912999812,553.5683912999812,None,554.0689324999694,None,d,0,1.8407827999908477,554.0689324999694,None,None,None,555.9385740999714,None,,,,,,,,,,,,,,,,,,,,,11016,2,1,2024_Jun_02_1959,stroop_task_switching2,2021.2.3,59.90979979511829,
condition/block_mixed,instruction/instr_mixed,instruction/i10,蓝,yellow,j,diamond,color_mix,颜色,,incompatible,2,,,,,,,,0,2,2,2,1,0,1,0,0,15,15,15,,,,,,,,,,,,,,,,,,,,,,,,,,,,,,,,,,,556.9400950999698,557.140435099951,557.1236842999933,557.4241279999842,557.4241279999842,None,557.9246251999866,None,j,1,1.504369099973701,557.9246251999866,None,None,None,559.4606039999635,None,,,,,,,,,,,,,,,,,,,,,11016,2,1,2024_Jun_02_1959,stroop_task_switching2,2021.2.3,59.90979979511829,
condition/block_mixed,instruction/instr_mixed,instruction/i10,黄,red,d,diamond,color_mix,颜色,,incompatible,1,,,,,,,,0,2,2,2,1,0,1,0,0,16,16,16,,,,,,,,,,,,,,,,,,,,,,,,,,,,,,,,,,,560.4620315999491,560.663206199999,560.6464913999662,560.9483698999975,560.9483698999975,None,561.4635291999439,None,d,1,0.5262348999967799,561.4635291999439,None,None,None,562.0142509999569,None,,,,,,,,,,,,,,,,,,,,,11016,2,1,2024_Jun_02_1959,stroop_task_switching2,2021.2.3,59.90979979511829,
condition/block_mixed,instruction/instr_mixed,instruction/i10,绿,red,k,square,color_mix,单词,,incompatible,2,,,,,,,,0,2,2,2,1,0,1,0,0,17,17,17,,,,,,,,,,,,,,,,,,,,,,,,,,,,,,,,,,,563.0159682999947,563.216523799987,563.200331799977,563.4999753999873,563.4999753999873,None,564.0018491999945,None,k,1,0.9318019999773242,564.0018491999945,None,None,None,564.9522244999534,None,,,,,,,,,,,,,,,,,,,,,11016,2,1,2024_Jun_02_1959,stroop_task_switching2,2021.2.3,59.90979979511829,
condition/block_mixed,instruction/instr_mixed,instruction/i10,红,green,d,square,color_mix,单词,,incompatible,1,,,,,,,,0,2,2,2,1,0,1,0,0,18,18,18,,,,,,,,,,,,,,,,,,,,,,,,,,,,,,,,,,,565.9543398999958,566.1538195999456,566.1384972999804,566.4378053999972,566.4378053999972,None,566.9383755999734,None,d,1,0.5631520999595523,566.9383755999734,None,None,None,567.5230333999498,None,,,,,,,,,,,,,,,,,,,,,11016,2,1,2024_Jun_02_1959,stroop_task_switching2,2021.2.3,59.90979979511829,
condition/block_mixed,instruction/instr_mixed,instruction/i10,黄,blue,f,diamond,color_mix,颜色,,incompatible,2,,,,,,,,0,2,2,2,1,0,1,0,0,19,19,19,,,,,,,,,,,,,,,,,,,,,,,,,,,,,,,,,,,568.5252608999726,568.7247849999694,568.7099035999854,569.0255012999987,569.010219799995,None,569.5089624999673,None,j,0,1.6085257999948226,569.5089624999673,None,None,None,571.1464185999939,None,,,,,,,,,,,,,,,,,,,,,11016,2,1,2024_Jun_02_1959,stroop_task_switching2,2021.2.3,59.90979979511829,
condition/block_mixed,instruction/instr_mixed,instruction/i10,黄,green,k,diamond,color_mix,颜色,,incompatible,1,,,,,,,,0,2,2,2,1,0,1,0,0,20,20,20,,,,,,,,,,,,,,,,,,,,,,,,,,,,,,,,,,,572.1469365999801,572.3470279999892,572.3306046999642,572.6313835999463,572.6313835999463,None,573.1319153999793,None,k,1,1.0020908000296913,573.1319153999793,None,None,None,574.149592999951,None,,,,,,,,,,,,,,,,,,,,,11016,2,1,2024_Jun_02_1959,stroop_task_switching2,2021.2.3,59.90979979511829,
condition/block_mixed,instruction/instr_mixed,instruction/i10,黄,green,j,square,color_mix,单词,,incompatible,2,,,,,,,,0,2,2,2,1,0,1,0,0,21,21,21,,,,,,,,,,,,,,,,,,,,,,,,,,,,,,,,,,,575.1515030999435,575.3520230999566,575.3358908999944,575.6355240999837,575.6355240999837,None,576.1363413999788,None,k,0,0.7978554999572225,576.1363413999788,None,None,None,576.9537413999788,None,,,,,,,,,,,,,,,,,,,,,11016,2,1,2024_Jun_02_1959,stroop_task_switching2,2021.2.3,59.90979979511829,
condition/block_mixed,instruction/instr_mixed,instruction/i10,黄,blue,j,square,color_mix,单词,,incompatible,1,,,,,,,,0,2,2,2,1,0,1,0,0,22,22,22,,,,,,,,,,,,,,,,,,,,,,,,,,,,,,,,,,,577.9566702999873,578.1727360999794,578.1389343999908,578.4404121999978,578.4404121999978,None,578.9406521999626,None,j,1,2.521276899962686,578.9406521999626,None,None,None,581.4938299999922,None,,,,,,,,,,,,,,,,,,,,,11016,2,1,2024_Jun_02_1959,stroop_task_switching2,2021.2.3,59.90979979511829,
condition/block_mixed,instruction/instr_mixed,instruction/i10,蓝,red,f,square,color_mix,单词,,incompatible,1,,,,,,,,0,2,2,2,1,0,1,0,0,23,23,23,,,,,,,,,,,,,,,,,,,,,,,,,,,,,,,,,,,582.4961501999642,582.6964218999492,582.6796313999803,582.9804126999807,582.9804126999807,None,583.4808702999726,None,d,0,0.7174720999901183,583.4808702999726,None,None,None,584.2145871999674,None,,,,,,,,,,,,,,,,,,,,,11016,2,1,2024_Jun_02_1959,stroop_task_switching2,2021.2.3,59.90979979511829,
condition/block_mixed,instruction/instr_mixed,instruction/i10,绿,red,d,diamond,color_mix,颜色,,incompatible,2,,,,,,,,0,2,2,2,1,0,1,0,0,24,24,24,,,,,,,,,,,,,,,,,,,,,,,,,,,,,,,,,,,585.2170183999697,585.4168828999973,585.401049499982,585.700127899996,585.700127899996,None,586.2008543999982,None,d,1,0.6857321999850683,586.2008543999982,None,None,None,586.9017516999738,None,,,,,,,,,,,,,,,,,,,,,11016,2,1,2024_Jun_02_1959,stroop_task_switching2,2021.2.3,59.90979979511829,
condition/block_mixed,instruction/instr_mixed,instruction/i10,绿,green,k,diamond,color_mix,颜色,,compatible,1,,,,,,,,0,2,2,2,1,0,1,0,0,25,25,25,,,,,,,,,,,,,,,,,,,,,,,,,,,,,,,,,,,587.9033490999718,588.1036847999785,588.088035099965,588.3874896999914,588.3874896999914,None,588.8892738999566,None,k,1,0.5086885999771766,588.8892738999566,None,None,None,589.4225748999743,None,,,,,,,,,,,,,,,,,,,,,11016,2,1,2024_Jun_02_1959,stroop_task_switching2,2021.2.3,59.90979979511829,
condition/block_mixed,instruction/instr_mixed,instruction/i10,蓝,blue,f,diamond,color_mix,颜色,,compatible,1,,,,,,,,0,2,2,2,1,0,1,0,0,26,26,26,,,,,,,,,,,,,,,,,,,,,,,,,,,,,,,,,,,590.4249776999932,590.6241811999935,590.6088991999859,590.9087596999598,590.9087596999598,None,591.4096135999425,None,f,1,1.260514100024011,591.4096135999425,None,None,None,592.6946220999816,None,,,,,,,,,,,,,,,,,,,,,11016,2,1,2024_Jun_02_1959,stroop_task_switching2,2021.2.3,59.90979979511829,
condition/block_mixed,instruction/instr_mixed,instruction/i10,绿,green,k,square,color_mix,单词,,compatible,2,,,,,,,,0,2,2,2,1,0,1,0,0,27,27,27,,,,,,,,,,,,,,,,,,,,,,,,,,,,,,,,,,,593.6962469999562,593.8975532999611,593.8800383999478,594.1794724999927,594.1794724999927,None,594.6809641,None,k,1,0.8058075000299141,594.6809641,None,None,None,595.514880999981,None,,,,,,,,,,,,,,,,,,,,,11016,2,1,2024_Jun_02_1959,stroop_task_switching2,2021.2.3,59.90979979511829,
condition/block_mixed,instruction/instr_mixed,instruction/i10,绿,green,k,square,color_mix,单词,,compatible,1,,,,,,,,0,2,2,2,1,0,1,0,0,28,28,28,,,,,,,,,,,,,,,,,,,,,,,,,,,,,,,,,,,596.5171264999663,596.7172500999877,596.7005657999543,597.0032683999743,597.0032683999743,None,597.5185338999727,None,k,1,0.6396497000241652,597.5185338999727,None,None,None,598.1855240999721,None,,,,,,,,,,,,,,,,,,,,,11016,2,1,2024_Jun_02_1959,stroop_task_switching2,2021.2.3,59.90979979511829,
condition/block_mixed,instruction/instr_mixed,instruction/i10,蓝,blue,f,square,color_mix,单词,,compatible,1,,,,,,,,0,2,2,2,1,0,1,0,0,29,29,29,,,,,,,,,,,,,,,,,,,,,,,,,,,,,,,,,,,599.1871045999578,599.388649999979,599.3705963999964,599.6725505999639,599.6725505999639,None,600.1718294999446,None,f,1,0.778657499991823,600.1718294999446,None,None,None,600.9739055999671,None,,,,,,,,,,,,,,,,,,,,,11016,2,1,2024_Jun_02_1959,stroop_task_switching2,2021.2.3,59.90979979511829,
condition/block_mixed,instruction/instr_mixed,instruction/i10,黄,yellow,j,diamond,color_mix,颜色,,compatible,2,,,,,,,,0,2,2,2,1,0,1,0,0,30,30,30,,,,,,,,,,,,,,,,,,,,,,,,,,,,,,,,,,,601.9752393999952,602.1760375999729,602.1592572999652,602.4591005999828,602.4591005999828,None,602.9595630999538,None,j,1,0.4226572999614291,602.9595630999538,None,None,None,603.4101365999668,None,,,,,,,,,,,,,,,,,,,,,11016,2,1,2024_Jun_02_1959,stroop_task_switching2,2021.2.3,59.90979979511829,
condition/block_mixed,instruction/instr_mixed,instruction/i10,绿,green,k,square,color_mix,单词,,compatible,2,,,,,,,,0,2,2,2,1,0,1,0,0,31,31,31,,,,,,,,,,,,,,,,,,,,,,,,,,,,,,,,,,,604.4125000999775,604.6120778999757,604.5954288999783,604.8965218999656,604.8965218999656,None,605.3965200999519,None,k,1,0.6979941999888979,605.3965200999519,None,None,None,606.114371099975,None,,,,,,,,,,,,,,,,,,,,,11016,2,1,2024_Jun_02_1959,stroop_task_switching2,2021.2.3,59.90979979511829,
condition/block_mixed,instruction/instr_mixed,instruction/i10,黄,yellow,j,square,color_mix,单词,,compatible,1,,,,,,,,0,2,2,2,1,0,1,0,0,32,32,32,,,,,,,,,,,,,,,,,,,,,,,,,,,,,,,,,,,607.1156996999634,607.3180521999602,607.2994621999678,607.600510499964,607.600510499964,None,608.1005589999841,None,j,1,0.8181558000505902,608.1005589999841,None,None,None,608.9352154999506,None,,,,,,,,,,,,,,,,,,,,,11016,2,1,2024_Jun_02_1959,stroop_task_switching2,2021.2.3,59.90979979511829,
condition/block_mixed,instruction/instr_mixed,instruction/i10,绿,green,k,diamond,color_mix,颜色,,compatible,2,,,,,,,,0,2,2,2,1,0,1,0,0,33,33,33,,,,,,,,,,,,,,,,,,,,,,,,,,,,,,,,,,,609.9366783999722,610.1380002999795,610.1208768999786,610.422099599964,610.422099599964,None,610.9213072999846,None,k,1,0.6371264000190422,610.9213072999846,None,None,None,611.5726728999871,None,,,,,,,,,,,,,,,,,,,,,11016,2,1,2024_Jun_02_1959,stroop_task_switching2,2021.2.3,59.90979979511829,
condition/block_mixed,instruction/instr_mixed,instruction/i10,红,red,d,square,color_mix,单词,,compatible,2,,,,,,,,0,2,2,2,1,0,1,0,0,34,34,34,,,,,,,,,,,,,,,,,,,,,,,,,,,,,,,,,,,612.5739663999993,612.7752282999572,612.7584967999719,613.0584194999537,613.0584194999537,None,613.5589522999944,None,d,1,0.5838916999637149,613.5589522999944,None,None,None,614.1596478999709,None,,,,,,,,,,,,,,,,,,,,,11016,2,1,2024_Jun_02_1959,stroop_task_switching2,2021.2.3,59.90979979511829,
condition/block_mixed,instruction/instr_mixed,instruction/i10,黄,yellow,j,square,color_mix,单词,,compatible,1,,,,,,,,0,2,2,2,1,0,1,0,0,35,35,35,,,,,,,,,,,,,,,,,,,,,,,,,,,,,,,,,,,615.1612938999897,615.3623899999657,615.3456086999504,615.6458643999649,615.6458643999649,None,616.1466767999809,None,j,1,1.268939500034321,616.1466767999809,None,None,None,617.431557599979,None,,,,,,,,,,,,,,,,,,,,,11016,2,1,2024_Jun_02_1959,stroop_task_switching2,2021.2.3,59.90979979511829,
condition/block_mixed,instruction/instr_mixed,instruction/i10,绿,green,k,diamond,color_mix,颜色,,compatible,2,,,,,,,,0,2,2,2,1,0,1,0,0,36,36,36,,,,,,,,,,,,,,,,,,,,,,,,,,,,,,,,,,,618.4327315999544,618.6331193999504,618.6163326999522,618.9169593999977,618.9169593999977,None,619.4174823999638,None,k,1,2.0220374999917112,619.4174823999638,None,None,None,621.4541948999977,None,,,,,,,,,,,,,,,,,,,,,11016,2,1,2024_Jun_02_1959,stroop_task_switching2,2021.2.3,59.90979979511829,
condition/block_mixed,instruction/instr_mixed,instruction/i10,蓝,blue,f,square,color_mix,单词,,compatible,2,,,,,,,,0,2,2,2,1,0,1,0,0,37,37,37,,,,,,,,,,,,,,,,,,,,,,,,,,,,,,,,,,,622.4568570999545,622.6558787999675,622.6397230999428,622.9397130999714,622.9397130999714,None,623.4403353999951,626.4458413999528,None,0,,623.4403353999951,626.4458413999528,626.4293199999956,None,626.9973280999693,None,,,,,,,,,,,,,,,,,,,,,11016,2,1,2024_Jun_02_1959,stroop_task_switching2,2021.2.3,59.90979979511829,
condition/block_mixed,instruction/instr_mixed,instruction/i10,红,red,d,square,color_mix,单词,,compatible,1,,,,,,,,0,2,2,2,1,0,1,0,0,38,38,38,,,,,,,,,,,,,,,,,,,,,,,,,,,,,,,,,,,627.9982905999641,628.1975278999889,628.1808702999842,628.4813849999919,628.4813849999919,None,628.9818558999687,None,d,1,0.6096080999705009,628.9818558999687,None,None,None,629.6165171999601,None,,,,,,,,,,,,,,,,,,,,,11016,2,1,2024_Jun_02_1959,stroop_task_switching2,2021.2.3,59.90979979511829,
condition/block_mixed,instruction/instr_mixed,instruction/i10,黄,yellow,j,diamond,color_mix,颜色,,compatible,2,,,,,,,,0,2,2,2,1,0,1,0,0,39,39,39,,,,,,,,,,,,,,,,,,,,,,,,,,,,,,,,,,,630.6181530999602,630.8187582999817,630.8022676999681,631.1025565999444,631.1025565999444,None,631.6033779999707,None,k,0,0.9172607999644242,631.6033779999707,None,None,None,632.5373956999974,None,,,,,,,,,,,,,,,,,,,,,11016,2,1,2024_Jun_02_1959,stroop_task_switching2,2021.2.3,59.90979979511829,
condition/block_mixed,instruction/instr_mixed,instruction/i10,黄,yellow,j,square,color_mix,单词,,compatible,2,,,,,,,,0,2,2,2,1,0,1,0,0,40,40,40,,,,,,,,,,,,,,,,,,,,,,,,,,,,,,,,,,,633.5389480999438,633.7396645999979,633.7225355999544,634.023274599982,634.023274599982,None,634.524538699945,None,j,1,1.4032252000179142,634.524538699945,None,None,None,635.9424648999702,None,,,,,,,,,,,,,,,,,,,,,11016,2,1,2024_Jun_02_1959,stroop_task_switching2,2021.2.3,59.90979979511829,
condition/block_mixed,instruction/instr_mixed,instruction/i10,蓝,blue,f,square,color_mix,单词,,compatible,1,,,,,,,,0,2,2,2,1,0,1,0,0,41,41,41,,,,,,,,,,,,,,,,,,,,,,,,,,,,,,,,,,,636.9447771999985,637.145882199984,637.1277067999472,637.4281676999526,637.4281676999526,None,637.9289841999998,None,f,1,0.8864643000415526,637.9289841999998,None,None,None,638.8468180999625,None,,,,,,,,,,,,,,,,,,,,,11016,2,1,2024_Jun_02_1959,stroop_task_switching2,2021.2.3,59.90979979511829,
condition/block_mixed,instruction/instr_mixed,instruction/i10,蓝,blue,f,diamond,color_mix,颜色,,compatible,2,,,,,,,,0,2,2,2,1,0,1,0,0,42,42,42,,,,,,,,,,,,,,,,,,,,,,,,,,,,,,,,,,,639.8493761999998,640.0494153999607,640.0326787999948,640.3336960999877,640.3336960999877,None,640.834050299949,None,f,1,1.101358700019773,640.834050299949,None,None,None,641.9515563999885,None,,,,,,,,,,,,,,,,,,,,,11016,2,1,2024_Jun_02_1959,stroop_task_switching2,2021.2.3,59.90979979511829,
condition/block_mixed,instruction/instr_mixed,instruction/i10,黄,yellow,j,diamond,color_mix,颜色,,compatible,1,,,,,,,,0,2,2,2,1,0,1,0,0,43,43,43,,,,,,,,,,,,,,,,,,,,,,,,,,,,,,,,,,,642.9531021000003,643.1535641999799,643.1376140999491,643.4385274999659,643.4385274999659,None,643.9379655999946,None,j,1,0.70969150000019,643.9379655999946,None,None,None,644.6720798999886,None,,,,,,,,,,,,,,,,,,,,,11016,2,1,2024_Jun_02_1959,stroop_task_switching2,2021.2.3,59.90979979511829,
condition/block_mixed,instruction/instr_mixed,instruction/i10,红,red,d,diamond,color_mix,颜色,,compatible,1,,,,,,,,0,2,2,2,1,0,1,0,0,44,44,44,,,,,,,,,,,,,,,,,,,,,,,,,,,,,,,,,,,645.6738436999731,645.8761088999454,645.8578969999799,646.1598997999681,646.1598997999681,None,646.6761417999514,None,d,1,0.5234669999917969,646.6761417999514,None,None,None,647.2260527999606,None,,,,,,,,,,,,,,,,,,,,,11016,2,1,2024_Jun_02_1959,stroop_task_switching2,2021.2.3,59.90979979511829,
condition/block_mixed,instruction/instr_mixed,instruction/i10,蓝,blue,f,diamond,color_mix,颜色,,compatible,1,,,,,,,,0,2,2,2,1,0,1,0,0,45,45,45,,,,,,,,,,,,,,,,,,,,,,,,,,,,,,,,,,,648.2276213999721,648.4286996999872,648.4125036999467,648.7115103999968,648.7115103999968,None,649.2133121999796,None,f,1,0.8423513000016101,649.2133121999796,None,None,None,650.0804370999685,None,,,,,,,,,,,,,,,,,,,,,11016,2,1,2024_Jun_02_1959,stroop_task_switching2,2021.2.3,59.90979979511829,
condition/block_mixed,instruction/instr_mixed,instruction/i10,红,red,d,diamond,color_mix,颜色,,compatible,1,,,,,,,,0,2,2,2,1,0,1,0,0,46,46,46,,,,,,,,,,,,,,,,,,,,,,,,,,,,,,,,,,,651.0826254999847,651.2822569999844,651.2663113999879,651.5665011999663,651.5665011999663,None,652.066873899952,None,d,1,0.5493551000254229,652.066873899952,None,None,None,652.6355463999789,None,,,,,,,,,,,,,,,,,,,,,11016,2,1,2024_Jun_02_1959,stroop_task_switching2,2021.2.3,59.90979979511829,
condition/block_mixed,instruction/instr_mixed,instruction/i10,红,red,d,square,color_mix,单词,,compatible,2,,,,,,,,0,2,2,2,1,0,1,0,0,47,47,47,,,,,,,,,,,,,,,,,,,,,,,,,,,,,,,,,,,653.6359773000004,653.8366518999683,653.8203623999725,654.1220083999797,654.1220083999797,None,654.6372878999682,None,d,1,0.5066449000150897,654.6372878999682,None,None,None,655.1716507999809,None,,,,,,,,,,,,,,,,,,,,,11016,2,1,2024_Jun_02_1959,stroop_task_switching2,2021.2.3,59.90979979511829,
condition/block_mixed,instruction/instr_mixed,instruction/i10,红,red,d,diamond,color_mix,颜色,,compatible,2,,,,,,,,0,2,2,2,1,0,1,0,0,48,48,48,,,,,,,,,,,,,,,,,,,,,,,,,,,,,,,,,,,656.1729328999645,656.3739348999807,656.3573393999832,656.6575584999518,656.6575584999518,None,657.1586631999817,None,d,1,0.5052472000243142,657.1586631999817,None,None,None,657.6925446999958,None,,,,,,,,,,,,,,,,,,,,,11016,2,1,2024_Jun_02_1959,stroop_task_switching2,2021.2.3,59.90979979511829,
condition/block_mixed,instruction/instr_mixed,instruction/i10,,,,,,,,,,,,,,,,,0,2,2,2,1,0,1,0,,,,,,,,,,,,,,,,,,,,,,,,,,,,,,,,,,,,,,,,,,,,,,,,,,,,,,,,658.693414999987,None,space,30.67519760003779,658.693414999987,None,,,,,,,,,,,,,,,11016,2,1,2024_Jun_02_1959,stroop_task_switching2,2021.2.3,59.90979979511829,
condition/block_mixed,instruction/instr_mixed,instruction/i10,,,,,,,,,,,,,,,,,0,2,2,2,,,,,,,,,,,,,,,,,,,,,,,,,,,,,,,,,,,,,,,,,,,,,,,,,,,,,,,,,,,,,,,,,,,,,,,,,,,,,,,,11016,2,1,2024_Jun_02_1959,stroop_task_switching2,2021.2.3,59.90979979511829,
,,,红,red,d,square,color_mix,单词,,compatible,0,block_switch1,instruction/ready_test.png,instruction/i11.png,,,,,,,,,,,,,,,,,0,0,0,0,0,0,0,0,,,,,,,,,,,,,,,,,,,696.116489499982,697.1207522999612,697.1207522999612,698.119865799963,698.119865799963,None,695.1317647999967,696.1337152999477,699.1389818999451,699.3399052999448,699.321484999964,699.6223821999738,699.6223821999738,None,700.1238510999829,None,d,1,0.5409798999899067,700.1238510999829,None,None,None,,,,,,,,,689.4243083999609,None,space,5.680340800026897,689.4243083999609,None,,,,,,,,,11016,2,1,2024_Jun_02_1959,stroop_task_switching2,2021.2.3,59.90979979511829,
,,,绿,green,k,diamond,color_mix,颜色,,compatible,2,block_switch1,instruction/ready_test.png,instruction/i11.png,,,,,,,,,,,,,,,,,0,0,0,0,0,1,1,1,,,,,,,,,,,,,,,,,,,,,,,,,,,700.6900722999708,700.8904036999447,700.8742052999442,701.1750648999587,701.1750648999587,None,701.6749741999665,None,k,1,0.7101074999663979,701.6749741999665,None,None,None,,,,,,,,,,,,,,,,,,,,,,,11016,2,1,2024_Jun_02_1959,stroop_task_switching2,2021.2.3,59.90979979511829,
,,,绿,yellow,j,diamond,color_mix,颜色,,incompatible,1,block_switch1,instruction/ready_test.png,instruction/i11.png,,,,,,,,,,,,,,,,,0,0,0,0,0,2,2,2,,,,,,,,,,,,,,,,,,,,,,,,,,,702.4097365999478,702.6107080999645,702.5930679999874,702.8937795999809,702.8937795999809,None,703.3940962999477,None,j,1,1.5111630000174046,703.3940962999477,None,None,None,,,,,,,,,,,,,,,,,,,,,,,11016,2,1,2024_Jun_02_1959,stroop_task_switching2,2021.2.3,59.90979979511829,
,,,蓝,blue,f,diamond,color_mix,颜色,,compatible,1,block_switch1,instruction/ready_test.png,instruction/i11.png,,,,,,,,,,,,,,,,,0,0,0,0,0,3,3,3,,,,,,,,,,,,,,,,,,,,,,,,,,,704.9297712999978,705.130234399985,705.1141895999899,705.4142961999751,705.4142961999751,None,705.9148732999456,None,f,1,1.6065993999945931,705.9148732999456,None,None,None,,,,,,,,,,,,,,,,,,,,,,,11016,2,1,2024_Jun_02_1959,stroop_task_switching2,2021.2.3,59.90979979511829,
,,,绿,green,k,square,color_mix,单词,,compatible,2,block_switch1,instruction/ready_test.png,instruction/i11.png,,,,,,,,,,,,,,,,,0,0,0,0,0,4,4,4,,,,,,,,,,,,,,,,,,,,,,,,,,,707.5505749000004,707.7518695999752,707.7351754999836,708.0355930999503,708.0355930999503,None,708.5364654999576,None,k,1,1.3529107999638654,708.5364654999576,None,None,None,,,,,,,,,,,,,,,,,,,,,,,11016,2,1,2024_Jun_02_1959,stroop_task_switching2,2021.2.3,59.90979979511829,
,,,绿,blue,f,diamond,color_mix,颜色,,incompatible,2,block_switch1,instruction/ready_test.png,instruction/i11.png,,,,,,,,,,,,,,,,,0,0,0,0,0,5,5,5,,,,,,,,,,,,,,,,,,,,,,,,,,,709.9217843999504,710.1221848999849,710.1054884999758,710.4059078999562,710.4059078999562,None,710.9065823999699,None,f,1,1.0307227000012062,710.9065823999699,None,None,None,,,,,,,,,,,,,,,,,,,,,,,11016,2,1,2024_Jun_02_1959,stroop_task_switching2,2021.2.3,59.90979979511829,
,,,黄,red,j,square,color_mix,单词,,incompatible,2,block_switch1,instruction/ready_test.png,instruction/i11.png,,,,,,,,,,,,,,,,,0,0,0,0,0,6,6,6,,,,,,,,,,,,,,,,,,,,,,,,,,,711.958240399952,712.1584994999575,712.1419034999562,712.4423465999425,712.4423465999425,None,712.9429844999686,None,d,0,1.2425914999912493,712.9429844999686,None,None,None,,,,,,,,,,,,,,,,,,,,,,,11016,2,1,2024_Jun_02_1959,stroop_task_switching2,2021.2.3,59.90979979511829,
,,,绿,green,k,square,color_mix,单词,,compatible,1,block_switch1,instruction/ready_test.png,instruction/i11.png,,,,,,,,,,,,,,,,,0,0,0,0,0,7,7,7,,,,,,,,,,,,,,,,,,,,,,,,,,,714.211585299985,714.4120502999867,714.3952634999878,714.6963076999527,714.6963076999527,None,715.1964855999686,None,k,1,0.5413885999587364,715.1964855999686,None,None,None,,,,,,,,,,,,,,,,,,,,,,,11016,2,1,2024_Jun_02_1959,stroop_task_switching2,2021.2.3,59.90979979511829,
,,,蓝,blue,f,square,color_mix,单词,,compatible,1,block_switch1,instruction/ready_test.png,instruction/i11.png,,,,,,,,,,,,,,,,,0,0,0,0,0,8,8,8,,,,,,,,,,,,,,,,,,,,,,,,,,,715.7640592999524,715.9633069999982,715.9467702999827,716.2485323999426,716.2485323999426,None,716.7477271999815,None,f,1,0.9660470000235364,716.7477271999815,None,None,None,,,,,,,,,,,,,,,,,,,,,,,11016,2,1,2024_Jun_02_1959,stroop_task_switching2,2021.2.3,59.90979979511829,
,,,红,red,d,diamond,color_mix,颜色,,compatible,2,block_switch1,instruction/ready_test.png,instruction/i11.png,,,,,,,,,,,,,,,,,0,0,0,0,0,9,9,9,,,,,,,,,,,,,,,,,,,,,,,,,,,717.7327210999792,717.9327791999676,717.9176293999772,718.2183364999946,718.2183364999946,None,718.7345208999468,None,d,1,0.5794320999993943,718.7345208999468,None,None,None,,,,,,,,,,,,,,,,,,,,,,,11016,2,1,2024_Jun_02_1959,stroop_task_switching2,2021.2.3,59.90979979511829,
,,,黄,yellow,j,diamond,color_mix,颜色,,compatible,1,block_switch1,instruction/ready_test.png,instruction/i11.png,,,,,,,,,,,,,,,,,0,0,0,0,0,10,10,10,,,,,,,,,,,,,,,,,,,,,,,,,,,719.3349864999764,719.5360749999527,719.5183135999832,719.8212981999968,719.8212981999968,None,720.3364290999598,None,j,1,0.8332341999630444,720.3364290999598,None,None,None,,,,,,,,,,,,,,,,,,,,,,,11016,2,1,2024_Jun_02_1959,stroop_task_switching2,2021.2.3,59.90979979511829,
,,,绿,green,k,square,color_mix,单词,,compatible,2,block_switch1,instruction/ready_test.png,instruction/i11.png,,,,,,,,,,,,,,,,,0,0,0,0,0,11,11,11,,,,,,,,,,,,,,,,,,,,,,,,,,,721.1876931999577,721.3896280999761,721.3712946999585,721.6728549999534,721.6728549999534,None,722.1727214999846,None,k,1,0.7408113999990746,722.1727214999846,None,None,None,,,,,,,,,,,,,,,,,,,,,,,11016,2,1,2024_Jun_02_1959,stroop_task_switching2,2021.2.3,59.90979979511829,
,,,红,red,d,diamond,color_mix,颜色,,compatible,2,block_switch1,instruction/ready_test.png,instruction/i11.png,,,,,,,,,,,,,,,,,0,0,0,0,0,12,12,12,,,,,,,,,,,,,,,,,,,,,,,,,,,722.9404135999503,723.1424710999709,723.1258372999728,723.4264630999533,723.4264630999533,None,723.926223699993,None,d,1,0.6357116000144742,723.926223699993,None,None,None,,,,,,,,,,,,,,,,,,,,,,,11016,2,1,2024_Jun_02_1959,stroop_task_switching2,2021.2.3,59.90979979511829,
,,,红,red,d,diamond,color_mix,颜色,,compatible,1,block_switch1,instruction/ready_test.png,instruction/i11.png,,,,,,,,,,,,,,,,,0,0,0,0,0,13,13,13,,,,,,,,,,,,,,,,,,,,,,,,,,,724.5772232999443,724.7775907999603,724.7612858999637,725.0613578999764,725.0613578999764,None,725.5621112999506,None,d,1,0.5033078000415117,725.5621112999506,None,None,None,,,,,,,,,,,,,,,,,,,,,,,11016,2,1,2024_Jun_02_1959,stroop_task_switching2,2021.2.3,59.90979979511829,
,,,黄,yellow,j,square,color_mix,单词,,compatible,2,block_switch1,instruction/ready_test.png,instruction/i11.png,,,,,,,,,,,,,,,,,0,0,0,0,0,14,14,14,,,,,,,,,,,,,,,,,,,,,,,,,,,726.0962087999796,726.2966600999935,726.2799814999453,726.5791718999972,726.5791718999972,None,727.0810554999625,None,j,1,1.2336405999958515,727.0810554999625,None,None,None,,,,,,,,,,,,,,,,,,,,,,,11016,2,1,2024_Jun_02_1959,stroop_task_switching2,2021.2.3,59.90979979511829,
,,,红,green,k,diamond,color_mix,颜色,,incompatible,2,block_switch1,instruction/ready_test.png,instruction/i11.png,,,,,,,,,,,,,,,,,0,0,0,0,0,15,15,15,,,,,,,,,,,,,,,,,,,,,,,,,,,728.3315827999613,728.5330821999814,728.5162879999843,728.8160467999987,728.8160467999987,None,729.3166361999465,None,k,1,0.9972152999835089,729.3166361999465,None,None,None,,,,,,,,,,,,,,,,,,,,,,,11016,2,1,2024_Jun_02_1959,stroop_task_switching2,2021.2.3,59.90979979511829,
,,,蓝,red,d,diamond,color_mix,颜色,,incompatible,1,block_switch1,instruction/ready_test.png,instruction/i11.png,,,,,,,,,,,,,,,,,0,0,0,0,0,16,16,16,,,,,,,,,,,,,,,,,,,,,,,,,,,730.334760699945,730.5351050999598,730.5193722999538,730.8194473999902,730.8194473999902,None,731.319854399946,None,d,1,0.5059965999680571,731.319854399946,None,None,None,,,,,,,,,,,,,,,,,,,,,,,11016,2,1,2024_Jun_02_1959,stroop_task_switching2,2021.2.3,59.90979979511829,
,,,黄,green,k,diamond,color_mix,颜色,,incompatible,1,block_switch1,instruction/ready_test.png,instruction/i11.png,,,,,,,,,,,,,,,,,0,0,0,0,0,17,17,17,,,,,,,,,,,,,,,,,,,,,,,,,,,731.8536694999784,732.0552781999577,732.0372844999656,732.3384454999468,732.3384454999468,None,732.8398202999961,None,j,0,2.0582399999839254,732.8398202999961,None,None,None,,,,,,,,,,,,,,,,,,,,,,,11016,2,1,2024_Jun_02_1959,stroop_task_switching2,2021.2.3,59.90979979511829,
,,,绿,green,k,diamond,color_mix,颜色,,compatible,1,block_switch1,instruction/ready_test.png,instruction/i11.png,,,,,,,,,,,,,,,,,0,0,0,0,0,18,18,18,,,,,,,,,,,,,,,,,,,,,,,,,,,734.9261221999768,735.1266399999731,735.1098885999527,735.4103613999905,735.4103613999905,None,735.9110782999778,None,k,1,0.8427044999552891,735.9110782999778,None,None,None,,,,,,,,,,,,,,,,,,,,,,,11016,2,1,2024_Jun_02_1959,stroop_task_switching2,2021.2.3,59.90979979511829,
,,,黄,red,d,diamond,color_mix,颜色,,incompatible,1,block_switch1,instruction/ready_test.png,instruction/i11.png,,,,,,,,,,,,,,,,,0,0,0,0,0,19,19,19,,,,,,,,,,,,,,,,,,,,,,,,,,,736.7790747999679,736.9793062999961,736.9625758999609,737.2630248999922,737.2630248999922,None,737.7639076999621,None,d,1,0.5899436000036076,737.7639076999621,None,None,None,,,,,,,,,,,,,,,,,,,,,,,11016,2,1,2024_Jun_02_1959,stroop_task_switching2,2021.2.3,59.90979979511829,
,,,绿,yellow,k,square,color_mix,单词,,incompatible,2,block_switch1,instruction/ready_test.png,instruction/i11.png,,,,,,,,,,,,,,,,,0,0,0,0,0,20,20,20,,,,,,,,,,,,,,,,,,,,,,,,,,,738.3813548999606,738.5817450999748,738.5650351999793,738.8655193999875,738.8655193999875,None,739.3662614999921,None,k,1,0.8119145999662578,739.3662614999921,None,None,None,,,,,,,,,,,,,,,,,,,,,,,11016,2,1,2024_Jun_02_1959,stroop_task_switching2,2021.2.3,59.90979979511829,
,,,绿,yellow,j,diamond,color_mix,颜色,,incompatible,2,block_switch1,instruction/ready_test.png,instruction/i11.png,,,,,,,,,,,,,,,,,0,0,0,0,0,21,21,21,,,,,,,,,,,,,,,,,,,,,,,,,,,740.2008372999844,740.4019397999509,740.3845455999835,740.6849676999846,740.6849676999846,None,741.1857117999461,None,j,1,1.1284338000114076,741.1857117999461,None,None,None,,,,,,,,,,,,,,,,,,,,,,,11016,2,1,2024_Jun_02_1959,stroop_task_switching2,2021.2.3,59.90979979511829,
,,,绿,green,k,square,color_mix,单词,,compatible,2,block_switch1,instruction/ready_test.png,instruction/i11.png,,,,,,,,,,,,,,,,,0,0,0,0,0,22,22,22,,,,,,,,,,,,,,,,,,,,,,,,,,,742.3374035999877,742.5377717999509,742.5210862999666,742.8215524999541,742.8215524999541,None,743.3222079999978,None,k,1,1.0557188999955542,743.3222079999978,None,None,None,,,,,,,,,,,,,,,,,,,,,,,11016,2,1,2024_Jun_02_1959,stroop_task_switching2,2021.2.3,59.90979979511829,
,,,红,red,d,square,color_mix,单词,,compatible,1,block_switch1,instruction/ready_test.png,instruction/i11.png,,,,,,,,,,,,,,,,,0,0,0,0,0,23,23,23,,,,,,,,,,,,,,,,,,,,,,,,,,,744.4072109999834,744.6075781999971,744.5908246999606,744.8912698999629,744.8912698999629,None,745.3920153999934,None,d,1,0.5700617000111379,745.3920153999934,None,None,None,,,,,,,,,,,,,,,,,,,,,,,11016,2,1,2024_Jun_02_1959,stroop_task_switching2,2021.2.3,59.90979979511829,
,,,黄,green,j,square,color_mix,单词,,incompatible,1,block_switch1,instruction/ready_test.png,instruction/i11.png,,,,,,,,,,,,,,,,,0,0,0,0,0,24,24,24,,,,,,,,,,,,,,,,,,,,,,,,,,,745.9929915999528,746.1932345999521,746.1765909999958,746.4774126999546,746.4774126999546,None,746.9777487999527,None,k,0,1.5769988999818452,746.9777487999527,None,None,None,,,,,,,,,,,,,,,,,,,,,,,11016,2,1,2024_Jun_02_1959,stroop_task_switching2,2021.2.3,59.90979979511829,
,,,红,blue,d,square,color_mix,单词,,incompatible,1,block_switch1,instruction/ready_test.png,instruction/i11.png,,,,,,,,,,,,,,,,,0,0,0,0,0,25,25,25,,,,,,,,,,,,,,,,,,,,,,,,,,,748.580078799976,748.7805310999975,748.763839799969,749.0642164999736,749.0642164999736,None,749.5649396999506,None,f,0,2.0214572999975644,749.5649396999506,None,None,None,,,,,,,,,,,,,,,,,,,,,,,11016,2,1,2024_Jun_02_1959,stroop_task_switching2,2021.2.3,59.90979979511829,
,,,黄,yellow,j,square,color_mix,单词,,compatible,1,block_switch1,instruction/ready_test.png,instruction/i11.png,,,,,,,,,,,,,,,,,0,0,0,0,0,26,26,26,,,,,,,,,,,,,,,,,,,,,,,,,,,751.601312499959,751.801669599954,751.7850062999642,752.0855173999444,752.0855173999444,None,752.5861366999452,None,j,1,1.856417800008785,752.5861366999452,None,None,None,,,,,,,,,,,,,,,,,,,,,,,11016,2,1,2024_Jun_02_1959,stroop_task_switching2,2021.2.3,59.90979979511829,
,,,蓝,green,f,square,color_mix,单词,,incompatible,1,block_switch1,instruction/ready_test.png,instruction/i11.png,,,,,,,,,,,,,,,,,0,0,0,0,0,27,27,27,,,,,,,,,,,,,,,,,,,,,,,,,,,754.4723933999776,754.6726783999475,754.6559918999556,754.9567904999712,754.9567904999712,None,755.457263499964,None,k,0,1.0894677999895066,755.457263499964,None,None,None,,,,,,,,,,,,,,,,,,,,,,,11016,2,1,2024_Jun_02_1959,stroop_task_switching2,2021.2.3,59.90979979511829,
,,,绿,green,k,diamond,color_mix,颜色,,compatible,2,block_switch1,instruction/ready_test.png,instruction/i11.png,,,,,,,,,,,,,,,,,0,0,0,0,0,28,28,28,,,,,,,,,,,,,,,,,,,,,,,,,,,756.5745790999499,756.7746912000002,756.7599063999951,757.0752656999975,757.0595681999694,None,757.55924219999,None,k,1,0.7711940999724902,757.55924219999,None,None,None,,,,,,,,,,,,,,,,,,,,,,,11016,2,1,2024_Jun_02_1959,stroop_task_switching2,2021.2.3,59.90979979511829,
