b_pra,ins_blocks,ins_blocks2,stim_word,stim_color,corrAns,cue_type,trial_type,task_type,rand,compatibility,switch,b_test,w_pic,w_pic2,trials_instr.thisRepN,trials_instr.thisTrialN,trials_instr.thisN,trials_instr.thisIndex,block_pra.thisRepN,block_pra.thisTrialN,block_pra.thisN,block_pra.thisIndex,trials_rep.thisRepN,trials_rep.thisTrialN,trials_rep.thisN,trials_rep.thisIndex,trials_pra.thisRepN,trials_pra.thisTrialN,trials_pra.thisN,trials_pra.thisIndex,trials_3.thisRepN,trials_3.thisTrialN,trials_3.thisN,trials_3.thisIndex,trials_2.thisRepN,trials_2.thisTrialN,trials_2.thisN,trials_2.thisIndex,instr_image.started,instr_image.stopped,instr_key_resp.keys,instr_key_resp.rt,instr_key_resp.started,instr_key_resp.stopped,instr_pra_image.started,instr_pra_image.stopped,ip_key_resp.keys,ip_key_resp.rt,ip_key_resp.started,ip_key_resp.stopped,block_image.started,block_image.stopped,ib_key_resp.keys,ib_key_resp.rt,ib_key_resp.started,ib_key_resp.stopped,cd3.started,cd3.stopped,cd2.started,cd2.stopped,cd1.started,cd1.stopped,cd_text.started,cd_text.stopped,text_fix.started,text_fix.stopped,text_2.started,text_2.stopped,text_4.started,text_4.stopped,text_target.started,text_target.stopped,key_resp.keys,key_resp.corr,key_resp.rt,key_resp.started,key_resp.stopped,sceen_black.started,sceen_black.stopped,text_fb.started,text_fb.stopped,text.started,text.stopped,key_bf.keys,key_bf.rt,key_bf.started,key_bf.stopped,instr_test_image.started,instr_test_image.stopped,instr_exp_key_resp.keys,instr_exp_key_resp.rt,instr_exp_key_resp.started,instr_exp_key_resp.stopped,text_rest.started,text_rest.stopped,key_resp_rest.keys,key_resp_rest.rt,key_resp_rest.started,key_resp_rest.stopped,text_3.started,text_3.stopped,participant,session,balance,date,expName,psychopyVersion,frameRate,
,,,,,,,,,,,,,,,0,0,0,0,,,,,,,,,,,,,,,,,,,,,43.157269099960104,None,right,15.553029200003948,43.157269099960104,None,,,,,,,,,,,,,,,,,,,,,,,,,,,,,,,,,,,,,,,,,,,,,,,,,,,,,,,,,,11011,1,2,2024_Jun_18_1900,stroop_task_switching2_b,2021.2.3,59.83752914368472,
,,,,,,,,,,,,,,,1,0,1,0,,,,,,,,,,,,,,,,,,,,,58.747107599978335,None,right,53.83982340001967,58.747107599978335,None,,,,,,,,,,,,,,,,,,,,,,,,,,,,,,,,,,,,,,,,,,,,,,,,,,,,,,,,,,11011,1,2,2024_Jun_18_1900,stroop_task_switching2_b,2021.2.3,59.83752914368472,
,,,,,,,,,,,,,,,2,0,2,0,,,,,,,,,,,,,,,,,,,,,112.62857289996464,None,right,0.15827259997604415,112.62857289996464,None,,,,,,,,,,,,,,,,,,,,,,,,,,,,,,,,,,,,,,,,,,,,,,,,,,,,,,,,,,11011,1,2,2024_Jun_18_1900,stroop_task_switching2_b,2021.2.3,59.83752914368472,
,,,,,,,,,,,,,,,3,0,3,0,,,,,,,,,,,,,,,,,,,,,112.82889109995449,None,right,0.15793460002169013,112.82889109995449,None,,,,,,,,,,,,,,,,,,,,,,,,,,,,,,,,,,,,,,,,,,,,,,,,,,,,,,,,,,11011,1,2,2024_Jun_18_1900,stroop_task_switching2_b,2021.2.3,59.83752914368472,
,,,,,,,,,,,,,,,4,0,4,0,,,,,,,,,,,,,,,,,,,,,113.0294494999689,None,right,0.1338104999740608,113.0294494999689,None,,,,,,,,,,,,,,,,,,,,,,,,,,,,,,,,,,,,,,,,,,,,,,,,,,,,,,,,,,11011,1,2,2024_Jun_18_1900,stroop_task_switching2_b,2021.2.3,59.83752914368472,
,,,,,,,,,,,,,,,5,0,5,0,,,,,,,,,,,,,,,,,,,,,113.19602289999602,None,right,0.6392029999988154,113.19602289999602,None,,,,,,,,,,,,,,,,,,,,,,,,,,,,,,,,,,,,,,,,,,,,,,,,,,,,,,,,,,11011,1,2,2024_Jun_18_1900,stroop_task_switching2_b,2021.2.3,59.83752914368472,
,,,,,,,,,,,,,,,,,,,,,,,,,,,,,,,,,,,,,,,,,,,,,113.8805092999828,None,space,1.399234299955424,113.8805092999828,None,,,,,,,,,,,,,,,,,,,,,,,,,,,,,,,,,,,,,,,,,,,,,,,,,,,,11011,1,2,2024_Jun_18_1900,stroop_task_switching2_b,2021.2.3,59.83752914368472,
condition/block_color_b,instruction/instr_color,instruction/i8_b,XX,red,k,diamond,color_single,颜色,,,,,,,,,,,0,0,0,0,0,0,0,0,0,0,0,0,,,,,,,,,,,,,,,,,,,,,115.3159725999576,None,space,8.055978899996262,115.3159725999576,None,124.43062090000603,125.43208449997474,125.43208449997474,126.4328899999964,126.4328899999964,None,123.46148559998255,124.46503309998661,127.41752949997317,127.61857759999111,127.60126659995876,127.90227109997068,127.90227109997068,None,128.4022492999793,None,k,1,1.2976055000326596,128.4022492999793,None,None,None,129.7877817999688,None,,,,,,,,,,,,,,,,,,,,,11011,1,2,2024_Jun_18_1900,stroop_task_switching2_b,2021.2.3,59.83752914368472,
condition/block_color_b,instruction/instr_color,instruction/i8_b,XX,green,d,diamond,color_single,颜色,,,,,,,,,,,0,0,0,0,0,0,0,0,0,1,1,1,,,,,,,,,,,,,,,,,,,,,,,,,,,,,,,,,,,130.74078930000542,130.94114869995974,130.9244389999658,131.22331430000486,131.22331430000486,None,131.72407229995588,None,d,1,0.7754992000409402,131.72407229995588,None,None,None,132.52565749996575,None,,,,,,,,,,,,,,,,,,,,,11011,1,2,2024_Jun_18_1900,stroop_task_switching2_b,2021.2.3,59.83752914368472,
condition/block_color_b,instruction/instr_color,instruction/i8_b,XX,yellow,f,diamond,color_single,颜色,,,,,,,,,,,0,0,0,0,0,0,0,0,0,2,2,2,,,,,,,,,,,,,,,,,,,,,,,,,,,,,,,,,,,133.5268165000016,133.72725499997614,133.71127379999962,134.01105269999243,134.01105269999243,None,134.5115885999985,None,f,1,0.4037817000062205,134.5115885999985,None,None,None,134.9451759000076,None,,,,,,,,,,,,,,,,,,,,,11011,1,2,2024_Jun_18_1900,stroop_task_switching2_b,2021.2.3,59.83752914368472,
condition/block_color_b,instruction/instr_color,instruction/i8_b,XX,blue,j,diamond,color_single,颜色,,,,,,,,,,,0,0,0,0,0,0,0,0,0,3,3,3,,,,,,,,,,,,,,,,,,,,,,,,,,,,,,,,,,,135.9472350999713,136.1481089000008,136.13191219995497,136.43201220000628,136.43201220000628,None,136.932803099975,None,j,1,0.35047480004141107,136.932803099975,None,None,None,137.2992477999651,None,,,,,,,,,,,,,,,,,,,,,11011,1,2,2024_Jun_18_1900,stroop_task_switching2_b,2021.2.3,59.83752914368472,
condition/block_color_b,instruction/instr_color,instruction/i8_b,XX,green,d,diamond,color_single,颜色,,,,,,,,,,,0,0,0,0,0,0,0,0,0,4,4,4,,,,,,,,,,,,,,,,,,,,,,,,,,,,,,,,,,,138.30152599996654,138.50107969995588,138.4853218999924,138.78552360000322,138.78552360000322,None,139.28552450001007,None,d,1,0.6543466000002809,139.28552450001007,None,None,None,139.98699529998703,None,,,,,,,,,,,,,,,,,,,,,11011,1,2,2024_Jun_18_1900,stroop_task_switching2_b,2021.2.3,59.83752914368472,
condition/block_color_b,instruction/instr_color,instruction/i8_b,XX,yellow,f,diamond,color_single,颜色,,,,,,,,,,,0,0,0,0,0,0,0,0,0,5,5,5,,,,,,,,,,,,,,,,,,,,,,,,,,,,,,,,,,,140.9882285000058,141.18918310001027,141.17240879999008,141.47412769997027,141.45565389998956,None,141.95754959998885,None,f,1,0.49438499996904284,141.95754959998885,None,None,None,142.47366069996497,None,,,,,,,,,,,,,,,,,,,,,11011,1,2,2024_Jun_18_1900,stroop_task_switching2_b,2021.2.3,59.83752914368472,
condition/block_color_b,instruction/instr_color,instruction/i8_b,XX,blue,j,diamond,color_single,颜色,,,,,,,,,,,0,0,0,0,0,0,0,0,0,6,6,6,,,,,,,,,,,,,,,,,,,,,,,,,,,,,,,,,,,143.4765034999582,143.69209969998337,143.65873419999843,143.95910119998734,143.95910119998734,None,144.4599833000102,None,j,1,0.38397029996849597,144.4599833000102,None,None,None,144.86063329997705,None,,,,,,,,,,,,,,,,,,,,,11011,1,2,2024_Jun_18_1900,stroop_task_switching2_b,2021.2.3,59.83752914368472,
condition/block_color_b,instruction/instr_color,instruction/i8_b,XX,red,k,diamond,color_single,颜色,,,,,,,,,,,0,0,0,0,0,0,0,0,0,7,7,7,,,,,,,,,,,,,,,,,,,,,,,,,,,,,,,,,,,145.86216650001006,146.0632673999644,146.04586680000648,146.34760559996357,146.34760559996357,None,146.84762329998193,None,k,1,0.3488744999631308,146.84762329998193,None,None,None,147.21416839997983,None,,,,,,,,,,,,,,,,,,,,,11011,1,2,2024_Jun_18_1900,stroop_task_switching2_b,2021.2.3,59.83752914368472,
condition/block_color_b,instruction/instr_color,instruction/i8_b,XX,yellow,f,diamond,color_single,颜色,,,,,,,,,,,0,0,0,0,0,0,0,0,0,8,8,8,,,,,,,,,,,,,,,,,,,,,,,,,,,,,,,,,,,148.21569929999532,148.4162096999935,148.39904280001065,148.70132200000808,148.70132200000808,None,149.200477699982,None,f,1,1.3631768000195734,149.200477699982,None,None,None,150.58575969998492,None,,,,,,,,,,,,,,,,,,,,,11011,1,2,2024_Jun_18_1900,stroop_task_switching2_b,2021.2.3,59.83752914368472,
condition/block_color_b,instruction/instr_color,instruction/i8_b,XX,blue,j,diamond,color_single,颜色,,,,,,,,,,,0,0,0,0,0,0,0,0,0,9,9,9,,,,,,,,,,,,,,,,,,,,,,,,,,,,,,,,,,,151.5882633999572,151.7885963000008,151.7712250999757,152.07140519999666,152.07140519999666,None,152.57289389998186,None,j,1,0.3750037999707274,152.57289389998186,None,None,None,152.97270379995462,None,,,,,,,,,,,,,,,,,,,,,11011,1,2,2024_Jun_18_1900,stroop_task_switching2_b,2021.2.3,59.83752914368472,
condition/block_color_b,instruction/instr_color,instruction/i8_b,XX,red,k,diamond,color_single,颜色,,,,,,,,,,,0,0,0,0,0,0,0,0,0,10,10,10,,,,,,,,,,,,,,,,,,,,,,,,,,,,,,,,,,,153.97475150000537,154.17493009997997,154.1601568000042,154.4597118999809,154.4597118999809,None,154.9590130999568,None,k,1,0.33302129997173324,154.9590130999568,None,None,None,155.30966420000186,None,,,,,,,,,,,,,,,,,,,,,11011,1,2,2024_Jun_18_1900,stroop_task_switching2_b,2021.2.3,59.83752914368472,
condition/block_color_b,instruction/instr_color,instruction/i8_b,XX,green,d,diamond,color_single,颜色,,,,,,,,,,,0,0,0,0,0,0,0,0,0,11,11,11,,,,,,,,,,,,,,,,,,,,,,,,,,,,,,,,,,,156.31126940000104,156.51278639998054,156.49603310000384,156.79609939997317,156.79609939997317,None,157.2965657999739,None,d,1,0.6676805999595672,157.2965657999739,None,None,None,157.98057519999566,None,,,,,,,,,,,,,,,,,,,,,11011,1,2,2024_Jun_18_1900,stroop_task_switching2_b,2021.2.3,59.83752914368472,
condition/block_color_b,instruction/instr_color,instruction/i8_b,XX,blue,j,diamond,color_single,颜色,,,,,,,,,,,0,0,0,0,0,0,0,0,0,12,12,12,,,,,,,,,,,,,,,,,,,,,,,,,,,,,,,,,,,158.98192529997323,159.18359929998405,159.16560680000111,159.4672053999966,159.4672053999966,None,159.96654240001226,None,j,1,0.6297972000320442,159.96654240001226,None,None,None,160.61766599997645,None,,,,,,,,,,,,,,,,,,,,,11011,1,2,2024_Jun_18_1900,stroop_task_switching2_b,2021.2.3,59.83752914368472,
condition/block_color_b,instruction/instr_color,instruction/i8_b,XX,red,k,diamond,color_single,颜色,,,,,,,,,,,0,0,0,0,0,0,0,0,0,13,13,13,,,,,,,,,,,,,,,,,,,,,,,,,,,,,,,,,,,161.6194445999572,161.82020169997122,161.80271949997405,162.1040656999685,162.1040656999685,None,162.60450209997362,None,k,1,0.7837411999935284,162.60450209997362,None,None,None,163.40515329997288,None,,,,,,,,,,,,,,,,,,,,,11011,1,2,2024_Jun_18_1900,stroop_task_switching2_b,2021.2.3,59.83752914368472,
condition/block_color_b,instruction/instr_color,instruction/i8_b,XX,green,d,diamond,color_single,颜色,,,,,,,,,,,0,0,0,0,0,0,0,0,0,14,14,14,,,,,,,,,,,,,,,,,,,,,,,,,,,,,,,,,,,164.40668590000132,164.60774700000184,164.59020679997047,164.8917426999542,164.8917426999542,None,165.3916373999673,None,d,1,0.5175814999965951,165.3916373999673,None,None,None,165.92572449997533,None,,,,,,,,,,,,,,,,,,,,,11011,1,2,2024_Jun_18_1900,stroop_task_switching2_b,2021.2.3,59.83752914368472,
condition/block_color_b,instruction/instr_color,instruction/i8_b,XX,yellow,f,diamond,color_single,颜色,,,,,,,,,,,0,0,0,0,0,0,0,0,0,15,15,15,,,,,,,,,,,,,,,,,,,,,,,,,,,,,,,,,,,166.9272520999657,167.12743259995477,167.1110372999683,167.41223779995926,167.41223779995926,None,167.9128213999793,None,f,1,0.6440592000144534,167.9128213999793,None,None,None,168.57960890000686,None,,,,,,,,,,,,,,,,,,,,,11011,1,2,2024_Jun_18_1900,stroop_task_switching2_b,2021.2.3,59.83752914368472,
condition/block_color_b,instruction/instr_color,instruction/i8_b,XX,red,k,diamond,color_single,颜色,,,,,,,,,,,0,0,0,0,0,0,0,0,0,16,16,16,,,,,,,,,,,,,,,,,,,,,,,,,,,,,,,,,,,169.58116780000273,169.7814155999804,169.76527019997593,170.065230600012,170.065230600012,None,170.56576599995606,None,k,1,0.8466470999992453,170.56576599995606,None,None,None,171.43455840001116,None,,,,,,,,,,,,,,,,,,,,,11011,1,2,2024_Jun_18_1900,stroop_task_switching2_b,2021.2.3,59.83752914368472,
condition/block_color_b,instruction/instr_color,instruction/i8_b,XX,green,d,diamond,color_single,颜色,,,,,,,,,,,0,0,0,0,0,0,0,0,0,17,17,17,,,,,,,,,,,,,,,,,,,,,,,,,,,,,,,,,,,172.43655699997908,172.6361545000109,172.62127810000675,172.9368241999764,172.919569199963,None,173.42028179997578,None,d,1,0.5844836999895051,173.42028179997578,None,None,None,174.02157230000012,None,,,,,,,,,,,,,,,,,,,,,11011,1,2,2024_Jun_18_1900,stroop_task_switching2_b,2021.2.3,59.83752914368472,
condition/block_color_b,instruction/instr_color,instruction/i8_b,XX,yellow,f,diamond,color_single,颜色,,,,,,,,,,,0,0,0,0,0,0,0,0,0,18,18,18,,,,,,,,,,,,,,,,,,,,,,,,,,,,,,,,,,,175.0227329999907,175.22304439998697,175.20798429998104,175.5074869999662,175.5074869999662,None,176.00759589998052,None,f,1,0.40489419997902587,176.00759589998052,None,None,None,176.45836459996644,None,,,,,,,,,,,,,,,,,,,,,11011,1,2,2024_Jun_18_1900,stroop_task_switching2_b,2021.2.3,59.83752914368472,
condition/block_color_b,instruction/instr_color,instruction/i8_b,XX,blue,j,diamond,color_single,颜色,,,,,,,,,,,0,0,0,0,0,0,0,0,0,19,19,19,,,,,,,,,,,,,,,,,,,,,,,,,,,,,,,,,,,177.46048459998565,177.66058619995601,177.6266667000018,177.92808230000082,177.9451381000108,None,178.44463689997792,None,j,1,0.471901600016281,178.44463689997792,None,None,None,178.9453002999653,None,,,,,,,,,,,,,,,,,,,,,11011,1,2,2024_Jun_18_1900,stroop_task_switching2_b,2021.2.3,59.83752914368472,
condition/block_color_b,instruction/instr_color,instruction/i8_b,XX,green,d,diamond,color_single,颜色,,,,,,,,,,,0,0,0,0,0,0,0,0,0,20,20,20,,,,,,,,,,,,,,,,,,,,,,,,,,,,,,,,,,,179.94675209996058,180.14785730000585,180.1322898999788,180.43101519998163,180.43101519998163,None,180.93158079998102,None,d,1,0.6892161999712698,180.93158079998102,None,None,None,181.64928569999756,None,,,,,,,,,,,,,,,,,,,,,11011,1,2,2024_Jun_18_1900,stroop_task_switching2_b,2021.2.3,59.83752914368472,
condition/block_color_b,instruction/instr_color,instruction/i8_b,XX,yellow,f,diamond,color_single,颜色,,,,,,,,,,,0,0,0,0,0,0,0,0,0,21,21,21,,,,,,,,,,,,,,,,,,,,,,,,,,,,,,,,,,,182.65174499998102,182.851548000006,182.83443009998882,183.13577629998326,183.13577629998326,None,183.63638539996464,None,f,1,0.6084880999987945,183.63638539996464,None,None,None,184.270131999976,None,,,,,,,,,,,,,,,,,,,,,11011,1,2,2024_Jun_18_1900,stroop_task_switching2_b,2021.2.3,59.83752914368472,
condition/block_color_b,instruction/instr_color,instruction/i8_b,XX,blue,j,diamond,color_single,颜色,,,,,,,,,,,0,0,0,0,0,0,0,0,0,22,22,22,,,,,,,,,,,,,,,,,,,,,,,,,,,,,,,,,,,185.27162349998252,185.4720269999816,185.45607899996685,185.7568696999806,185.7568696999806,None,186.25646179995965,None,j,1,0.4046894999919459,186.25646179995965,None,None,None,186.69219659996452,None,,,,,,,,,,,,,,,,,,,,,11011,1,2,2024_Jun_18_1900,stroop_task_switching2_b,2021.2.3,59.83752914368472,
condition/block_color_b,instruction/instr_color,instruction/i8_b,XX,red,k,diamond,color_single,颜色,,,,,,,,,,,0,0,0,0,0,0,0,0,0,23,23,23,,,,,,,,,,,,,,,,,,,,,,,,,,,,,,,,,,,187.69195519998902,187.89219739998225,187.87613960000454,188.1770559999859,188.1770559999859,None,188.67675980000058,None,k,1,0.4644230999983847,188.67675980000058,None,None,None,189.16060870001093,None,,,,,,,,,,,,,,,,,,,,,11011,1,2,2024_Jun_18_1900,stroop_task_switching2_b,2021.2.3,59.83752914368472,
condition/block_color_b,instruction/instr_color,instruction/i8_b,,,,,,,,,,,,,,,,,0,0,0,0,0,0,0,0,,,,,,,,,,,,,,,,,,,,,,,,,,,,,,,,,,,,,,,,,,,,,,,,,,,,,,,,190.17880769999465,None,space,3.1233701999881305,190.17880769999465,None,,,,,,,,,,,,,,,11011,1,2,2024_Jun_18_1900,stroop_task_switching2_b,2021.2.3,59.83752914368472,
condition/block_color_b,instruction/instr_color,instruction/i8_b,,,,,,,,,,,,,,,,,0,0,0,0,,,,,,,,,,,,,,,,,,,,,,,,,,,,,,,,,,,,,,,,,,,,,,,,,,,,,,,,,,,,,,,,,,,,,,,,,,,,,,,,11011,1,2,2024_Jun_18_1900,stroop_task_switching2_b,2021.2.3,59.83752914368472,
condition/block_word_b,instruction/instr_word,instruction/i9_b,黄,white,f,square,word_single,单词,0.0032461461866890584,,,,,,,,,,0,1,1,1,0,0,0,0,0,0,0,0,,,,,,,,,,,,,,,,,,,,,193.35031469998648,None,space,4.687203700013924,193.35031469998648,None,199.06024989997968,200.06063610001002,200.06063610001002,201.0623620999977,201.0623620999977,None,198.076312899997,199.07762090000324,202.08042989997193,202.28150909999385,202.26605229999404,202.58184449997498,202.56425629998557,None,203.06519819999812,None,f,1,0.5239507000078447,203.06519819999812,None,None,None,203.6496613000054,None,,,,,,,,,,,,,,,,,,,,,11011,1,2,2024_Jun_18_1900,stroop_task_switching2_b,2021.2.3,59.83752914368472,
condition/block_word_b,instruction/instr_word,instruction/i9_b,蓝,white,j,square,word_single,单词,0.060540570646362424,,,,,,,,,,0,1,1,1,0,0,0,0,0,1,1,1,,,,,,,,,,,,,,,,,,,,,,,,,,,,,,,,,,,204.63592819997575,204.8511135999579,204.81773129996145,205.1186405000044,205.10136719996808,None,205.60236749995966,None,j,1,0.48299089999636635,205.60236749995966,None,None,None,206.1030993000022,None,,,,,,,,,,,,,,,,,,,,,11011,1,2,2024_Jun_18_1900,stroop_task_switching2_b,2021.2.3,59.83752914368472,
condition/block_word_b,instruction/instr_word,instruction/i9_b,黄,white,f,square,word_single,单词,0.06994067193778963,,,,,,,,,,0,1,1,1,0,0,0,0,0,2,2,2,,,,,,,,,,,,,,,,,,,,,,,,,,,,,,,,,,,207.10429639997892,207.3054460999556,207.289658099995,207.588813499955,207.588813499955,None,208.08940920000896,None,f,1,0.7012182999751531,208.08940920000896,None,None,None,208.80694599996787,None,,,,,,,,,,,,,,,,,,,,,11011,1,2,2024_Jun_18_1900,stroop_task_switching2_b,2021.2.3,59.83752914368472,
condition/block_word_b,instruction/instr_word,instruction/i9_b,蓝,white,j,square,word_single,单词,0.08193765152950094,,,,,,,,,,0,1,1,1,0,0,0,0,0,3,3,3,,,,,,,,,,,,,,,,,,,,,,,,,,,,,,,,,,,209.80874239996774,210.00992669997504,209.9919711999828,210.29266839998309,210.29266839998309,None,210.79344209999545,None,j,1,0.6047723999945447,210.79344209999545,None,None,None,211.4271555999876,None,,,,,,,,,,,,,,,,,,,,,11011,1,2,2024_Jun_18_1900,stroop_task_switching2_b,2021.2.3,59.83752914368472,
condition/block_word_b,instruction/instr_word,instruction/i9_b,红,white,k,square,word_single,单词,0.1279694370605574,,,,,,,,,,0,1,1,1,0,0,0,0,0,4,4,4,,,,,,,,,,,,,,,,,,,,,,,,,,,,,,,,,,,212.42929179995554,212.63155849999748,212.61270979995606,212.91401429998223,212.91401429998223,None,213.41384769999422,None,k,1,0.38361659995280206,213.41384769999422,None,None,None,213.8146983999759,None,,,,,,,,,,,,,,,,,,,,,11011,1,2,2024_Jun_18_1900,stroop_task_switching2_b,2021.2.3,59.83752914368472,
condition/block_word_b,instruction/instr_word,instruction/i9_b,红,white,k,square,word_single,单词,0.18345028784879092,,,,,,,,,,0,1,1,1,0,0,0,0,0,5,5,5,,,,,,,,,,,,,,,,,,,,,,,,,,,,,,,,,,,214.8160690999939,215.0169379999861,214.999664700008,215.30148849997204,215.30148849997204,None,215.80093999998644,None,k,1,0.6372541000018828,215.80093999998644,None,None,None,216.46831829997245,None,,,,,,,,,,,,,,,,,,,,,11011,1,2,2024_Jun_18_1900,stroop_task_switching2_b,2021.2.3,59.83752914368472,
condition/block_word_b,instruction/instr_word,instruction/i9_b,蓝,white,j,square,word_single,单词,0.19920386223101294,,,,,,,,,,0,1,1,1,0,0,0,0,0,6,6,6,,,,,,,,,,,,,,,,,,,,,,,,,,,,,,,,,,,217.4707876999746,217.67159059998812,217.65466339996783,217.95500819996232,217.95500819996232,None,218.4547357999836,None,j,1,0.6074539000401273,218.4547357999836,None,None,None,219.08909789996687,None,,,,,,,,,,,,,,,,,,,,,11011,1,2,2024_Jun_18_1900,stroop_task_switching2_b,2021.2.3,59.83752914368472,
condition/block_word_b,instruction/instr_word,instruction/i9_b,蓝,white,j,square,word_single,单词,0.26360599864925405,,,,,,,,,,0,1,1,1,0,0,0,0,0,7,7,7,,,,,,,,,,,,,,,,,,,,,,,,,,,,,,,,,,,220.09063109999988,220.2910111999954,220.2743732999661,220.5756758999778,220.5756758999778,None,221.07635799999116,None,j,1,0.6011447999626398,221.07635799999116,None,None,None,221.69323219999205,None,,,,,,,,,,,,,,,,,,,,,11011,1,2,2024_Jun_18_1900,stroop_task_switching2_b,2021.2.3,59.83752914368472,
condition/block_word_b,instruction/instr_word,instruction/i9_b,蓝,white,j,square,word_single,单词,0.358985675745526,,,,,,,,,,0,1,1,1,0,0,0,0,0,8,8,8,,,,,,,,,,,,,,,,,,,,,,,,,,,,,,,,,,,222.69486960000359,222.89463749999413,222.8782588999602,223.18029789999127,223.18029789999127,None,223.6800962999696,None,j,1,0.5823509999900125,223.6800962999696,None,None,None,224.2802913999767,None,,,,,,,,,,,,,,,,,,,,,11011,1,2,2024_Jun_18_1900,stroop_task_switching2_b,2021.2.3,59.83752914368472,
condition/block_word_b,instruction/instr_word,instruction/i9_b,绿,white,d,square,word_single,单词,0.36496733802487347,,,,,,,,,,0,1,1,1,0,0,0,0,0,9,9,9,,,,,,,,,,,,,,,,,,,,,,,,,,,,,,,,,,,225.2817909999867,225.48265199997695,225.46553310001036,225.76721929997439,225.76721929997439,None,226.26766750001116,None,d,1,0.9307020999840461,226.26766750001116,None,None,None,227.21847769996384,None,,,,,,,,,,,,,,,,,,,,,11011,1,2,2024_Jun_18_1900,stroop_task_switching2_b,2021.2.3,59.83752914368472,
condition/block_word_b,instruction/instr_word,instruction/i9_b,黄,white,f,square,word_single,单词,0.3743513623756727,,,,,,,,,,0,1,1,1,0,0,0,0,0,10,10,10,,,,,,,,,,,,,,,,,,,,,,,,,,,,,,,,,,,228.21980269998312,228.42087229999015,228.4033022999647,228.7051652999944,228.7051652999944,None,229.2053343000007,None,f,1,0.5136042000376619,229.2053343000007,None,None,None,229.7388629000052,None,,,,,,,,,,,,,,,,,,,,,11011,1,2,2024_Jun_18_1900,stroop_task_switching2_b,2021.2.3,59.83752914368472,
condition/block_word_b,instruction/instr_word,instruction/i9_b,红,white,k,square,word_single,单词,0.3894803852598544,,,,,,,,,,0,1,1,1,0,0,0,0,0,11,11,11,,,,,,,,,,,,,,,,,,,,,,,,,,,,,,,,,,,230.74098349997075,230.94104259996675,230.92450309998821,231.2242755999905,231.2242755999905,None,231.72493729996495,None,k,1,0.46512670000083745,231.72493729996495,None,None,None,232.20879349997267,None,,,,,,,,,,,,,,,,,,,,,11011,1,2,2024_Jun_18_1900,stroop_task_switching2_b,2021.2.3,59.83752914368472,
condition/block_word_b,instruction/instr_word,instruction/i9_b,绿,white,d,square,word_single,单词,0.5393759672408067,,,,,,,,,,0,1,1,1,0,0,0,0,0,12,12,12,,,,,,,,,,,,,,,,,,,,,,,,,,,,,,,,,,,233.2105514999712,233.41084450000199,233.3961658999906,233.69655249995412,233.69655249995412,None,234.19522130000405,None,d,1,0.5069828000268899,234.19522130000405,None,None,None,234.7294733999879,None,,,,,,,,,,,,,,,,,,,,,11011,1,2,2024_Jun_18_1900,stroop_task_switching2_b,2021.2.3,59.83752914368472,
condition/block_word_b,instruction/instr_word,instruction/i9_b,蓝,white,j,square,word_single,单词,0.5995731954831104,,,,,,,,,,0,1,1,1,0,0,0,0,0,13,13,13,,,,,,,,,,,,,,,,,,,,,,,,,,,,,,,,,,,235.7311217999668,235.93142089998582,235.9161582000088,236.23287509998772,236.2149744000053,None,236.71581159997731,None,j,1,0.8022562999976799,236.71581159997731,None,None,None,237.54977139999392,None,,,,,,,,,,,,,,,,,,,,,11011,1,2,2024_Jun_18_1900,stroop_task_switching2_b,2021.2.3,59.83752914368472,
condition/block_word_b,instruction/instr_word,instruction/i9_b,红,white,k,square,word_single,单词,0.6298674479151414,,,,,,,,,,0,1,1,1,0,0,0,0,0,14,14,14,,,,,,,,,,,,,,,,,,,,,,,,,,,,,,,,,,,238.5520983999595,238.7529781999765,238.73552459996426,239.0372059000074,239.0372059000074,None,239.53645379998488,None,k,1,0.36600500001804903,239.53645379998488,None,None,None,239.9204801999731,None,,,,,,,,,,,,,,,,,,,,,11011,1,2,2024_Jun_18_1900,stroop_task_switching2_b,2021.2.3,59.83752914368472,
condition/block_word_b,instruction/instr_word,instruction/i9_b,红,white,k,square,word_single,单词,0.7389942282348904,,,,,,,,,,0,1,1,1,0,0,0,0,0,15,15,15,,,,,,,,,,,,,,,,,,,,,,,,,,,,,,,,,,,240.92216019995976,241.12307639996288,241.10764959995868,241.40712509996956,241.40712509996956,None,241.90674399997806,None,k,1,0.5396134000038728,241.90674399997806,None,None,None,242.47433029999956,None,,,,,,,,,,,,,,,,,,,,,11011,1,2,2024_Jun_18_1900,stroop_task_switching2_b,2021.2.3,59.83752914368472,
condition/block_word_b,instruction/instr_word,instruction/i9_b,绿,white,d,square,word_single,单词,0.7550853947239682,,,,,,,,,,0,1,1,1,0,0,0,0,0,16,16,16,,,,,,,,,,,,,,,,,,,,,,,,,,,,,,,,,,,243.47649589995854,243.6778290999937,243.659590700001,243.96000379999168,243.96000379999168,None,244.46075849997578,None,d,1,0.6894593999604695,244.46075849997578,None,None,None,245.17851559998235,None,,,,,,,,,,,,,,,,,,,,,11011,1,2,2024_Jun_18_1900,stroop_task_switching2_b,2021.2.3,59.83752914368472,
condition/block_word_b,instruction/instr_word,instruction/i9_b,绿,white,d,square,word_single,单词,0.8019302780428206,,,,,,,,,,0,1,1,1,0,0,0,0,0,17,17,17,,,,,,,,,,,,,,,,,,,,,,,,,,,,,,,,,,,246.1812690999941,246.3807497000089,246.36479879997205,246.66407090000575,246.66407090000575,None,247.16490549995797,None,d,1,0.8577979999827221,247.16490549995797,None,None,None,248.04944729997078,None,,,,,,,,,,,,,,,,,,,,,11011,1,2,2024_Jun_18_1900,stroop_task_switching2_b,2021.2.3,59.83752914368472,
condition/block_word_b,instruction/instr_word,instruction/i9_b,绿,white,d,square,word_single,单词,0.8110702914095343,,,,,,,,,,0,1,1,1,0,0,0,0,0,18,18,18,,,,,,,,,,,,,,,,,,,,,,,,,,,,,,,,,,,249.05163439997705,249.25234840001212,249.23468659998616,249.5354920999962,249.5354920999962,None,250.0365584999672,None,d,1,0.554007200000342,250.0365584999672,None,None,None,250.62027499999385,None,,,,,,,,,,,,,,,,,,,,,11011,1,2,2024_Jun_18_1900,stroop_task_switching2_b,2021.2.3,59.83752914368472,
condition/block_word_b,instruction/instr_word,instruction/i9_b,黄,white,f,square,word_single,单词,0.8176594937590999,,,,,,,,,,0,1,1,1,0,0,0,0,0,19,19,19,,,,,,,,,,,,,,,,,,,,,,,,,,,,,,,,,,,251.6221355999587,251.82180699997116,251.80587569996715,252.10642049997114,252.10642049997114,None,252.6063698999933,None,f,1,0.6401875999872573,252.6063698999933,None,None,None,253.27407459996175,None,,,,,,,,,,,,,,,,,,,,,11011,1,2,2024_Jun_18_1900,stroop_task_switching2_b,2021.2.3,59.83752914368472,
condition/block_word_b,instruction/instr_word,instruction/i9_b,红,white,k,square,word_single,单词,0.8955794421104841,,,,,,,,,,0,1,1,1,0,0,0,0,0,20,20,20,,,,,,,,,,,,,,,,,,,,,,,,,,,,,,,,,,,254.27578919997904,254.4772898000083,254.4592571000103,254.76043399999617,254.76043399999617,None,255.26058559998637,None,k,1,1.338060799986124,255.26058559998637,None,None,None,256.62938890000805,None,,,,,,,,,,,,,,,,,,,,,11011,1,2,2024_Jun_18_1900,stroop_task_switching2_b,2021.2.3,59.83752914368472,
condition/block_word_b,instruction/instr_word,instruction/i9_b,绿,white,d,square,word_single,单词,0.9113598052474129,,,,,,,,,,0,1,1,1,0,0,0,0,0,21,21,21,,,,,,,,,,,,,,,,,,,,,,,,,,,,,,,,,,,257.63063729996793,257.83109479997074,257.8142924999702,258.11547819996485,258.11547819996485,None,258.6153245999594,None,d,1,0.5998389999731444,258.6153245999594,None,None,None,259.23298189998604,None,,,,,,,,,,,,,,,,,,,,,11011,1,2,2024_Jun_18_1900,stroop_task_switching2_b,2021.2.3,59.83752914368472,
condition/block_word_b,instruction/instr_word,instruction/i9_b,黄,white,f,square,word_single,单词,0.9215930958042953,,,,,,,,,,0,1,1,1,0,0,0,0,0,22,22,22,,,,,,,,,,,,,,,,,,,,,,,,,,,,,,,,,,,260.23461549996864,260.43601349997334,260.4181668999954,260.71905359998345,260.71905359998345,None,261.2195633999654,None,f,1,0.5635908999829553,261.2195633999654,None,None,None,261.8035697999876,None,,,,,,,,,,,,,,,,,,,,,11011,1,2,2024_Jun_18_1900,stroop_task_switching2_b,2021.2.3,59.83752914368472,
condition/block_word_b,instruction/instr_word,instruction/i9_b,黄,white,f,square,word_single,单词,0.9493525498837774,,,,,,,,,,0,1,1,1,0,0,0,0,0,23,23,23,,,,,,,,,,,,,,,,,,,,,,,,,,,,,,,,,,,262.8059477999923,263.00652830000035,262.98961899999995,263.28960359998746,263.28960359998746,None,263.78988539997954,None,d,0,0.6092558999662288,263.78988539997954,None,None,None,264.4242029999732,None,,,,,,,,,,,,,,,,,,,,,11011,1,2,2024_Jun_18_1900,stroop_task_switching2_b,2021.2.3,59.83752914368472,
condition/block_word_b,instruction/instr_word,instruction/i9_b,,,,,,,,,,,,,,,,,0,1,1,1,0,0,0,0,,,,,,,,,,,,,,,,,,,,,,,,,,,,,,,,,,,,,,,,,,,,,,,,,,,,,,,,265.4253228000016,None,space,4.336705400026403,265.4253228000016,None,,,,,,,,,,,,,,,11011,1,2,2024_Jun_18_1900,stroop_task_switching2_b,2021.2.3,59.83752914368472,
condition/block_word_b,instruction/instr_word,instruction/i9_b,,,,,,,,,,,,,,,,,0,1,1,1,,,,,,,,,,,,,,,,,,,,,,,,,,,,,,,,,,,,,,,,,,,,,,,,,,,,,,,,,,,,,,,,,,,,,,,,,,,,,,,,11011,1,2,2024_Jun_18_1900,stroop_task_switching2_b,2021.2.3,59.83752914368472,
condition/block_mixed_b,instruction/instr_mixed,instruction/i10_b,蓝,red,k,diamond,color_mix,颜色,,incompatible,0,,,,,,,,0,2,2,2,0,0,0,0,0,0,0,0,,,,,,,,,,,,,,,,,,,,,269.81618749996414,None,space,24.32009829999879,269.81618749996414,None,295.15376660000766,296.156245399965,296.156245399965,297.15698410000186,297.15698410000186,None,294.16940299997805,295.17055819998495,298.1924477999564,298.39273109997157,298.376012099965,298.6770971000078,298.6770971000078,None,299.161173600005,None,j,0,0.9985999999917112,299.161173600005,None,None,None,300.21159319998696,None,,,,,,,,,,,,,,,,,,,,,11011,1,2,2024_Jun_18_1900,stroop_task_switching2_b,2021.2.3,59.83752914368472,
condition/block_mixed_b,instruction/instr_mixed,instruction/i10_b,绿,yellow,f,diamond,color_mix,颜色,,incompatible,1,,,,,,,,0,2,2,2,0,0,0,0,0,1,1,1,,,,,,,,,,,,,,,,,,,,,,,,,,,,,,,,,,,301.19646730000386,301.3971598999924,301.3800393999554,301.6804175999714,301.6640220999834,None,302.16443599999184,None,f,1,1.1158905000193045,302.16443599999184,None,None,None,303.2995548999752,None,,,,,,,,,,,,,,,,,,,,,11011,1,2,2024_Jun_18_1900,stroop_task_switching2_b,2021.2.3,59.83752914368472,
condition/block_mixed_b,instruction/instr_mixed,instruction/i10_b,红,green,d,diamond,color_mix,颜色,,incompatible,1,,,,,,,,0,2,2,2,0,0,0,0,0,2,2,2,,,,,,,,,,,,,,,,,,,,,,,,,,,,,,,,,,,304.3024305999861,304.51879249996273,304.4845289000077,304.7856646999717,304.7856646999717,None,305.2858220000053,None,d,1,0.9461903999908827,305.2858220000053,None,None,None,306.2539700999623,None,,,,,,,,,,,,,,,,,,,,,11011,1,2,2024_Jun_18_1900,stroop_task_switching2_b,2021.2.3,59.83752914368472,
condition/block_mixed_b,instruction/instr_mixed,instruction/i10_b,蓝,red,k,diamond,color_mix,颜色,,incompatible,1,,,,,,,,0,2,2,2,0,0,0,0,0,3,3,3,,,,,,,,,,,,,,,,,,,,,,,,,,,,,,,,,,,307.25551019998966,307.4565277000074,307.43977019999875,307.7395761999651,307.7395761999651,None,308.2406143999542,None,k,1,1.3202055000001565,308.2406143999542,None,None,None,309.575652599975,None,,,,,,,,,,,,,,,,,,,,,11011,1,2,2024_Jun_18_1900,stroop_task_switching2_b,2021.2.3,59.83752914368472,
condition/block_mixed_b,instruction/instr_mixed,instruction/i10_b,红,blue,j,diamond,color_mix,颜色,,incompatible,1,,,,,,,,0,2,2,2,0,0,0,0,0,4,4,4,,,,,,,,,,,,,,,,,,,,,,,,,,,,,,,,,,,310.57773550000275,310.777396999998,310.7613393999636,311.0614529000013,311.0614529000013,None,311.56226129998686,None,j,1,0.629926199966576,311.56226129998686,None,None,None,312.21285640000133,None,,,,,,,,,,,,,,,,,,,,,11011,1,2,2024_Jun_18_1900,stroop_task_switching2_b,2021.2.3,59.83752914368472,
condition/block_mixed_b,instruction/instr_mixed,instruction/i10_b,红,blue,k,square,color_mix,单词,,incompatible,2,,,,,,,,0,2,2,2,0,0,0,0,0,5,5,5,,,,,,,,,,,,,,,,,,,,,,,,,,,,,,,,,,,313.2145137999905,313.415853399958,313.3983512999839,313.69902,313.69902,None,314.1992450999678,None,k,1,2.713485500018578,314.1992450999678,None,None,None,316.9366010999656,None,,,,,,,,,,,,,,,,,,,,,11011,1,2,2024_Jun_18_1900,stroop_task_switching2_b,2021.2.3,59.83752914368472,
condition/block_mixed_b,instruction/instr_mixed,instruction/i10_b,红,yellow,f,diamond,color_mix,颜色,,incompatible,2,,,,,,,,0,2,2,2,0,0,0,0,0,6,6,6,,,,,,,,,,,,,,,,,,,,,,,,,,,,,,,,,,,317.9382385999779,318.1393034000066,318.1226136999903,318.4229994000052,318.4229994000052,None,318.9230458000093,None,k,0,2.181653300009202,318.9230458000093,None,None,None,321.1263292999938,None,,,,,,,,,,,,,,,,,,,,,11011,1,2,2024_Jun_18_1900,stroop_task_switching2_b,2021.2.3,59.83752914368472,
condition/block_mixed_b,instruction/instr_mixed,instruction/i10_b,红,yellow,k,square,color_mix,单词,,incompatible,2,,,,,,,,0,2,2,2,0,0,0,0,0,7,7,7,,,,,,,,,,,,,,,,,,,,,,,,,,,,,,,,,,,322.1277301000082,322.32882970001083,322.31149140000343,322.6123089999892,322.6123089999892,None,323.1128128999844,None,k,1,1.559968299989123,323.1128128999844,None,None,None,324.69829450000543,None,,,,,,,,,,,,,,,,,,,,,11011,1,2,2024_Jun_18_1900,stroop_task_switching2_b,2021.2.3,59.83752914368472,
condition/block_mixed_b,instruction/instr_mixed,instruction/i10_b,绿,blue,d,square,color_mix,单词,,incompatible,1,,,,,,,,0,2,2,2,0,0,0,0,0,8,8,8,,,,,,,,,,,,,,,,,,,,,,,,,,,,,,,,,,,325.70013419998577,325.9006250000093,325.8833277999656,326.18400660000043,326.18400660000043,None,326.6847933999961,None,d,1,1.6765282000415027,326.6847933999961,None,None,None,328.38756699999794,None,,,,,,,,,,,,,,,,,,,,,11011,1,2,2024_Jun_18_1900,stroop_task_switching2_b,2021.2.3,59.83752914368472,
condition/block_mixed_b,instruction/instr_mixed,instruction/i10_b,蓝,green,d,diamond,color_mix,颜色,,incompatible,2,,,,,,,,0,2,2,2,0,0,0,0,0,9,9,9,,,,,,,,,,,,,,,,,,,,,,,,,,,,,,,,,,,329.3888764999574,329.58912749995943,329.57246989995474,329.87382889998844,329.87382889998844,None,330.37349039997207,None,j,0,1.307437999988906,330.37349039997207,None,None,None,331.7093605999835,None,,,,,,,,,,,,,,,,,,,,,11011,1,2,2024_Jun_18_1900,stroop_task_switching2_b,2021.2.3,59.83752914368472,
condition/block_mixed_b,instruction/instr_mixed,instruction/i10_b,蓝,yellow,j,square,color_mix,单词,,incompatible,2,,,,,,,,0,2,2,2,0,0,0,0,0,10,10,10,,,,,,,,,,,,,,,,,,,,,,,,,,,,,,,,,,,332.71156809997046,332.9111313999747,332.89414639997995,333.19623110000975,333.19623110000975,None,333.69663389999187,None,j,1,2.8087426999700256,333.69663389999187,None,None,None,336.5330939999549,None,,,,,,,,,,,,,,,,,,,,,11011,1,2,2024_Jun_18_1900,stroop_task_switching2_b,2021.2.3,59.83752914368472,
condition/block_mixed_b,instruction/instr_mixed,instruction/i10_b,蓝,green,j,square,color_mix,单词,,incompatible,1,,,,,,,,0,2,2,2,0,0,0,0,0,11,11,11,,,,,,,,,,,,,,,,,,,,,,,,,,,,,,,,,,,337.5356901999912,337.7360878000036,337.71938089997275,338.019261199981,338.019261199981,None,338.5196910999948,None,j,1,0.7051220999564976,338.5196910999948,None,None,None,339.253765499976,None,,,,,,,,,,,,,,,,,,,,,11011,1,2,2024_Jun_18_1900,stroop_task_switching2_b,2021.2.3,59.83752914368472,
condition/block_mixed_b,instruction/instr_mixed,instruction/i10_b,绿,yellow,d,square,color_mix,单词,,incompatible,1,,,,,,,,0,2,2,2,0,0,0,0,0,12,12,12,,,,,,,,,,,,,,,,,,,,,,,,,,,,,,,,,,,340.2550474999589,340.45726970001124,340.4391592000029,340.73939519998385,340.73939519998385,None,341.24004619999323,None,d,1,0.84125800000038,341.24004619999323,None,None,None,342.10791069996776,None,,,,,,,,,,,,,,,,,,,,,11011,1,2,2024_Jun_18_1900,stroop_task_switching2_b,2021.2.3,59.83752914368472,
condition/block_mixed_b,instruction/instr_mixed,instruction/i10_b,绿,blue,j,diamond,color_mix,颜色,,incompatible,2,,,,,,,,0,2,2,2,0,0,0,0,0,13,13,13,,,,,,,,,,,,,,,,,,,,,,,,,,,,,,,,,,,343.10996169998543,343.3104259999818,343.2940758999903,343.5934008999611,343.5934008999611,None,344.0942115999642,None,j,1,0.8109293999732472,344.0942115999642,None,None,None,344.92898419999983,None,,,,,,,,,,,,,,,,,,,,,11011,1,2,2024_Jun_18_1900,stroop_task_switching2_b,2021.2.3,59.83752914368472,
condition/block_mixed_b,instruction/instr_mixed,instruction/i10_b,黄,red,f,square,color_mix,单词,,incompatible,2,,,,,,,,0,2,2,2,0,0,0,0,0,14,14,14,,,,,,,,,,,,,,,,,,,,,,,,,,,,,,,,,,,345.9310637000017,346.1308538999874,346.1154583999887,346.4145721999812,346.4145721999812,None,346.91652179998346,None,f,1,2.108467899961397,346.91652179998346,None,None,None,349.05210919998353,None,,,,,,,,,,,,,,,,,,,,,11011,1,2,2024_Jun_18_1900,stroop_task_switching2_b,2021.2.3,59.83752914368472,
condition/block_mixed_b,instruction/instr_mixed,instruction/i10_b,蓝,yellow,f,diamond,color_mix,颜色,,incompatible,2,,,,,,,,0,2,2,2,0,0,0,0,0,15,15,15,,,,,,,,,,,,,,,,,,,,,,,,,,,,,,,,,,,350.053989499982,350.2546626999974,350.2371514000115,350.5373435000074,350.5373435000074,None,351.03826910001226,None,f,1,1.1950070000020787,351.03826910001226,None,None,None,352.2566739000031,None,,,,,,,,,,,,,,,,,,,,,11011,1,2,2024_Jun_18_1900,stroop_task_switching2_b,2021.2.3,59.83752914368472,
condition/block_mixed_b,instruction/instr_mixed,instruction/i10_b,黄,red,k,diamond,color_mix,颜色,,incompatible,1,,,,,,,,0,2,2,2,0,0,0,0,0,16,16,16,,,,,,,,,,,,,,,,,,,,,,,,,,,,,,,,,,,353.25803440000163,353.45843439997407,353.4416018999764,353.74238010001136,353.74238010001136,None,354.2430216000066,None,k,1,2.1746831000200473,354.2430216000066,None,None,None,356.4631342999637,None,,,,,,,,,,,,,,,,,,,,,11011,1,2,2024_Jun_18_1900,stroop_task_switching2_b,2021.2.3,59.83752914368472,
condition/block_mixed_b,instruction/instr_mixed,instruction/i10_b,绿,red,d,square,color_mix,单词,,incompatible,2,,,,,,,,0,2,2,2,0,0,0,0,0,17,17,17,,,,,,,,,,,,,,,,,,,,,,,,,,,,,,,,,,,357.4642792000086,357.6655575999757,357.63242169999285,357.9319481999846,357.95030839997344,None,358.4493757999735,None,d,1,1.831978700007312,358.4493757999735,None,None,None,360.30205100000603,None,,,,,,,,,,,,,,,,,,,,,11011,1,2,2024_Jun_18_1900,stroop_task_switching2_b,2021.2.3,59.83752914368472,
condition/block_mixed_b,instruction/instr_mixed,instruction/i10_b,红,green,k,square,color_mix,单词,,incompatible,1,,,,,,,,0,2,2,2,0,0,0,0,0,18,18,18,,,,,,,,,,,,,,,,,,,,,,,,,,,,,,,,,,,361.304733500001,361.50404400000116,361.4872674999642,361.79038729995955,361.79038729995955,None,362.30526819999795,None,k,1,1.26428709999891,362.30526819999795,None,None,None,363.59038539999165,None,,,,,,,,,,,,,,,,,,,,,11011,1,2,2024_Jun_18_1900,stroop_task_switching2_b,2021.2.3,59.83752914368472,
condition/block_mixed_b,instruction/instr_mixed,instruction/i10_b,黄,blue,j,diamond,color_mix,颜色,,incompatible,2,,,,,,,,0,2,2,2,0,0,0,0,0,19,19,19,,,,,,,,,,,,,,,,,,,,,,,,,,,,,,,,,,,364.5920536000049,364.79237169999396,364.77613359998213,365.0760076000006,365.0760076000006,None,365.5766308999737,None,j,1,1.025123200030066,365.5766308999737,None,None,None,366.6283424999565,None,,,,,,,,,,,,,,,,,,,,,11011,1,2,2024_Jun_18_1900,stroop_task_switching2_b,2021.2.3,59.83752914368472,
condition/block_mixed_b,instruction/instr_mixed,instruction/i10_b,黄,green,d,diamond,color_mix,颜色,,incompatible,1,,,,,,,,0,2,2,2,0,0,0,0,0,20,20,20,,,,,,,,,,,,,,,,,,,,,,,,,,,,,,,,,,,367.629706799984,367.8323957999819,367.8137192999711,368.1150726999622,368.1150726999622,None,368.61487359995954,None,d,1,2.235340700019151,368.61487359995954,None,None,None,370.86803439998766,None,,,,,,,,,,,,,,,,,,,,,11011,1,2,2024_Jun_18_1900,stroop_task_switching2_b,2021.2.3,59.83752914368472,
condition/block_mixed_b,instruction/instr_mixed,instruction/i10_b,黄,green,f,square,color_mix,单词,,incompatible,2,,,,,,,,0,2,2,2,0,0,0,0,0,21,21,21,,,,,,,,,,,,,,,,,,,,,,,,,,,,,,,,,,,371.8696455999743,372.07056749996264,372.0549495999585,372.3714214999927,372.3553127999767,None,372.8548912999686,None,f,1,1.2994306000182405,372.8548912999686,None,None,None,374.17292380001163,None,,,,,,,,,,,,,,,,,,,,,11011,1,2,2024_Jun_18_1900,stroop_task_switching2_b,2021.2.3,59.83752914368472,
condition/block_mixed_b,instruction/instr_mixed,instruction/i10_b,黄,blue,f,square,color_mix,单词,,incompatible,1,,,,,,,,0,2,2,2,0,0,0,0,0,22,22,22,,,,,,,,,,,,,,,,,,,,,,,,,,,,,,,,,,,375.1748445999692,375.3755964000011,375.3581666999962,375.65931109996745,375.65931109996745,None,376.15926089999266,None,f,1,1.4832984999520704,376.15926089999266,None,None,None,377.6615431999671,None,,,,,,,,,,,,,,,,,,,,,11011,1,2,2024_Jun_18_1900,stroop_task_switching2_b,2021.2.3,59.83752914368472,
condition/block_mixed_b,instruction/instr_mixed,instruction/i10_b,蓝,red,j,square,color_mix,单词,,incompatible,1,,,,,,,,0,2,2,2,0,0,0,0,0,23,23,23,,,,,,,,,,,,,,,,,,,,,,,,,,,,,,,,,,,378.6631403999636,378.8636765999836,378.84742040000856,379.14704279997386,379.14704279997386,None,379.6480176000041,None,j,1,1.410100599983707,379.6480176000041,None,None,None,381.0834622000111,None,,,,,,,,,,,,,,,,,,,,,11011,1,2,2024_Jun_18_1900,stroop_task_switching2_b,2021.2.3,59.83752914368472,
condition/block_mixed_b,instruction/instr_mixed,instruction/i10_b,绿,red,k,diamond,color_mix,颜色,,incompatible,2,,,,,,,,0,2,2,2,0,0,0,0,0,24,24,24,,,,,,,,,,,,,,,,,,,,,,,,,,,,,,,,,,,382.0864380999701,382.28637599997455,382.27026899997145,382.5867478,382.5691681999597,None,383.06987459998345,None,d,0,1.0208428999758326,383.06987459998345,None,None,None,384.1045160999638,None,,,,,,,,,,,,,,,,,,,,,11011,1,2,2024_Jun_18_1900,stroop_task_switching2_b,2021.2.3,59.83752914368472,
condition/block_mixed_b,instruction/instr_mixed,instruction/i10_b,绿,green,d,diamond,color_mix,颜色,,compatible,1,,,,,,,,0,2,2,2,0,0,0,0,0,25,25,25,,,,,,,,,,,,,,,,,,,,,,,,,,,,,,,,,,,385.10633689997485,385.3084785999963,385.2899436999578,385.5902382999775,385.5902382999775,None,386.090958899993,None,d,1,1.0154106999980286,386.090958899993,None,None,None,387.126024600002,None,,,,,,,,,,,,,,,,,,,,,11011,1,2,2024_Jun_18_1900,stroop_task_switching2_b,2021.2.3,59.83752914368472,
condition/block_mixed_b,instruction/instr_mixed,instruction/i10_b,蓝,blue,j,diamond,color_mix,颜色,,compatible,1,,,,,,,,0,2,2,2,0,0,0,0,0,26,26,26,,,,,,,,,,,,,,,,,,,,,,,,,,,,,,,,,,,388.12763269996503,388.32947669998975,388.31089580000844,388.6131979000056,388.6131979000056,None,389.11227539996617,None,j,1,0.6502890000119805,389.11227539996617,None,None,None,389.7799175999826,None,,,,,,,,,,,,,,,,,,,,,11011,1,2,2024_Jun_18_1900,stroop_task_switching2_b,2021.2.3,59.83752914368472,
condition/block_mixed_b,instruction/instr_mixed,instruction/i10_b,绿,green,d,square,color_mix,单词,,compatible,2,,,,,,,,0,2,2,2,0,0,0,0,0,27,27,27,,,,,,,,,,,,,,,,,,,,,,,,,,,,,,,,,,,390.7814520999673,390.9817431999836,390.96546479995595,391.26694880001014,391.26694880001014,None,391.7661292999983,None,d,1,1.3404050000244752,391.7661292999983,None,None,None,393.13485319999745,None,,,,,,,,,,,,,,,,,,,,,11011,1,2,2024_Jun_18_1900,stroop_task_switching2_b,2021.2.3,59.83752914368472,
condition/block_mixed_b,instruction/instr_mixed,instruction/i10_b,绿,green,d,square,color_mix,单词,,compatible,1,,,,,,,,0,2,2,2,0,0,0,0,0,28,28,28,,,,,,,,,,,,,,,,,,,,,,,,,,,,,,,,,,,394.1365249999799,394.33714670001063,394.32157179998467,394.6382769999909,394.6205265999888,None,395.12165689998074,None,d,1,0.5687380000017583,395.12165689998074,None,None,None,395.70554659998743,None,,,,,,,,,,,,,,,,,,,,,11011,1,2,2024_Jun_18_1900,stroop_task_switching2_b,2021.2.3,59.83752914368472,
condition/block_mixed_b,instruction/instr_mixed,instruction/i10_b,蓝,blue,j,square,color_mix,单词,,compatible,1,,,,,,,,0,2,2,2,0,0,0,0,0,29,29,29,,,,,,,,,,,,,,,,,,,,,,,,,,,,,,,,,,,396.7079027,396.9082330999663,396.89170039998135,397.1922227999894,397.1922227999894,None,397.6919691999792,None,j,1,1.09465879999334,397.6919691999792,None,None,None,398.8102912000031,None,,,,,,,,,,,,,,,,,,,,,11011,1,2,2024_Jun_18_1900,stroop_task_switching2_b,2021.2.3,59.83752914368472,
condition/block_mixed_b,instruction/instr_mixed,instruction/i10_b,黄,yellow,f,diamond,color_mix,颜色,,compatible,2,,,,,,,,0,2,2,2,0,0,0,0,0,30,30,30,,,,,,,,,,,,,,,,,,,,,,,,,,,,,,,,,,,399.81177079997724,400.01194419997046,399.99562449997757,400.29621199995745,400.29621199995745,None,400.7965368999867,None,f,1,1.0225616999669,400.7965368999867,None,None,None,401.8480700000073,None,,,,,,,,,,,,,,,,,,,,,11011,1,2,2024_Jun_18_1900,stroop_task_switching2_b,2021.2.3,59.83752914368472,
condition/block_mixed_b,instruction/instr_mixed,instruction/i10_b,绿,green,d,square,color_mix,单词,,compatible,2,,,,,,,,0,2,2,2,0,0,0,0,0,31,31,31,,,,,,,,,,,,,,,,,,,,,,,,,,,,,,,,,,,402.8498154999688,403.0514404999558,403.0332090999582,403.3343864000053,403.3343864000053,None,403.83448749996023,None,d,1,1.1203185000340454,403.83448749996023,None,None,None,404.98613079998177,None,,,,,,,,,,,,,,,,,,,,,11011,1,2,2024_Jun_18_1900,stroop_task_switching2_b,2021.2.3,59.83752914368472,
condition/block_mixed_b,instruction/instr_mixed,instruction/i10_b,黄,yellow,f,square,color_mix,单词,,compatible,1,,,,,,,,0,2,2,2,0,0,0,0,0,32,32,32,,,,,,,,,,,,,,,,,,,,,,,,,,,,,,,,,,,405.98769119998906,406.1880751999561,406.17133669997565,406.47173529997235,406.47173529997235,None,406.97278339997865,None,f,1,1.150270799989812,406.97278339997865,None,None,None,408.141001699958,None,,,,,,,,,,,,,,,,,,,,,11011,1,2,2024_Jun_18_1900,stroop_task_switching2_b,2021.2.3,59.83752914368472,
condition/block_mixed_b,instruction/instr_mixed,instruction/i10_b,绿,green,d,diamond,color_mix,颜色,,compatible,2,,,,,,,,0,2,2,2,0,0,0,0,0,33,33,33,,,,,,,,,,,,,,,,,,,,,,,,,,,,,,,,,,,409.1428106999956,409.3440524999751,409.32627139997203,409.6268470999785,409.6268470999785,None,410.12729789997684,None,d,1,0.8117658999981359,410.12729789997684,None,None,None,410.961953799997,None,,,,,,,,,,,,,,,,,,,,,11011,1,2,2024_Jun_18_1900,stroop_task_switching2_b,2021.2.3,59.83752914368472,
condition/block_mixed_b,instruction/instr_mixed,instruction/i10_b,红,red,k,square,color_mix,单词,,compatible,2,,,,,,,,0,2,2,2,0,0,0,0,0,34,34,34,,,,,,,,,,,,,,,,,,,,,,,,,,,,,,,,,,,411.9647727999836,412.18154839996714,412.14705939998385,412.4481853999896,412.4481853999896,None,412.9483249000041,None,k,1,1.2390203000395559,412.9483249000041,None,None,None,414.2168077999959,None,,,,,,,,,,,,,,,,,,,,,11011,1,2,2024_Jun_18_1900,stroop_task_switching2_b,2021.2.3,59.83752914368472,
condition/block_mixed_b,instruction/instr_mixed,instruction/i10_b,黄,yellow,f,square,color_mix,单词,,compatible,1,,,,,,,,0,2,2,2,0,0,0,0,0,35,35,35,,,,,,,,,,,,,,,,,,,,,,,,,,,,,,,,,,,415.21895740000764,415.41944649996003,415.40193920000456,415.70268869999563,415.70268869999563,None,416.2031324999989,None,f,1,1.6164223999949172,416.2031324999989,None,None,None,417.8386850999668,None,,,,,,,,,,,,,,,,,,,,,11011,1,2,2024_Jun_18_1900,stroop_task_switching2_b,2021.2.3,59.83752914368472,
condition/block_mixed_b,instruction/instr_mixed,instruction/i10_b,绿,green,d,diamond,color_mix,颜色,,compatible,2,,,,,,,,0,2,2,2,0,0,0,0,0,36,36,36,,,,,,,,,,,,,,,,,,,,,,,,,,,,,,,,,,,418.8403709999984,419.0423899999587,419.0244073999929,419.32450549997156,419.32450549997156,None,419.8252372999559,None,d,1,0.6344023999990895,419.8252372999559,None,None,None,420.4761504000053,None,,,,,,,,,,,,,,,,,,,,,11011,1,2,2024_Jun_18_1900,stroop_task_switching2_b,2021.2.3,59.83752914368472,
condition/block_mixed_b,instruction/instr_mixed,instruction/i10_b,蓝,blue,j,square,color_mix,单词,,compatible,2,,,,,,,,0,2,2,2,0,0,0,0,0,37,37,37,,,,,,,,,,,,,,,,,,,,,,,,,,,,,,,,,,,421.4783484999789,421.67805769998813,421.6624373999657,421.9623392999638,421.9623392999638,None,422.4626929999795,None,j,1,1.908564599987585,422.4626929999795,None,None,None,424.3988135000109,None,,,,,,,,,,,,,,,,,,,,,11011,1,2,2024_Jun_18_1900,stroop_task_switching2_b,2021.2.3,59.83752914368472,
condition/block_mixed_b,instruction/instr_mixed,instruction/i10_b,红,red,k,square,color_mix,单词,,compatible,1,,,,,,,,0,2,2,2,0,0,0,0,0,38,38,38,,,,,,,,,,,,,,,,,,,,,,,,,,,,,,,,,,,425.40035559999524,425.6004527999903,425.5855262000114,425.9015542999841,425.88428219995694,None,426.38508729997557,None,k,1,0.7386973999673501,426.38508729997557,None,None,None,427.1528970999643,None,,,,,,,,,,,,,,,,,,,,,11011,1,2,2024_Jun_18_1900,stroop_task_switching2_b,2021.2.3,59.83752914368472,
condition/block_mixed_b,instruction/instr_mixed,instruction/i10_b,黄,yellow,f,diamond,color_mix,颜色,,compatible,2,,,,,,,,0,2,2,2,0,0,0,0,0,39,39,39,,,,,,,,,,,,,,,,,,,,,,,,,,,,,,,,,,,428.15442919998895,428.3554399999557,428.3380191999604,428.6393892999622,428.6393892999622,None,429.13940290000755,None,f,1,1.3204323000391014,429.13940290000755,None,None,None,430.47508870001184,None,,,,,,,,,,,,,,,,,,,,,11011,1,2,2024_Jun_18_1900,stroop_task_switching2_b,2021.2.3,59.83752914368472,
condition/block_mixed_b,instruction/instr_mixed,instruction/i10_b,黄,yellow,f,square,color_mix,单词,,compatible,2,,,,,,,,0,2,2,2,0,0,0,0,0,40,40,40,,,,,,,,,,,,,,,,,,,,,,,,,,,,,,,,,,,431.47732669999823,431.6769496999914,431.6598376999609,431.9616597999702,431.9616597999702,None,432.4610166999628,None,f,1,0.89457720000064,432.4610166999628,None,None,None,433.3790516000008,None,,,,,,,,,,,,,,,,,,,,,11011,1,2,2024_Jun_18_1900,stroop_task_switching2_b,2021.2.3,59.83752914368472,
condition/block_mixed_b,instruction/instr_mixed,instruction/i10_b,蓝,blue,j,square,color_mix,单词,,compatible,1,,,,,,,,0,2,2,2,0,0,0,0,0,41,41,41,,,,,,,,,,,,,,,,,,,,,,,,,,,,,,,,,,,434.3805813000072,434.58067019999726,434.5643662000075,434.8660004999838,434.8660004999838,None,435.3654175999691,None,j,1,0.8141309000202455,435.3654175999691,None,None,None,436.2005990999751,None,,,,,,,,,,,,,,,,,,,,,11011,1,2,2024_Jun_18_1900,stroop_task_switching2_b,2021.2.3,59.83752914368472,
condition/block_mixed_b,instruction/instr_mixed,instruction/i10_b,蓝,blue,j,diamond,color_mix,颜色,,compatible,2,,,,,,,,0,2,2,2,0,0,0,0,0,42,42,42,,,,,,,,,,,,,,,,,,,,,,,,,,,,,,,,,,,437.2013694999623,437.402544499957,437.38515849999385,437.68720519996714,437.68720519996714,None,438.18741219997173,None,j,1,0.600289799971506,438.18741219997173,None,None,None,438.8037739999709,None,,,,,,,,,,,,,,,,,,,,,11011,1,2,2024_Jun_18_1900,stroop_task_switching2_b,2021.2.3,59.83752914368472,
condition/block_mixed_b,instruction/instr_mixed,instruction/i10_b,黄,yellow,f,diamond,color_mix,颜色,,compatible,1,,,,,,,,0,2,2,2,0,0,0,0,0,43,43,43,,,,,,,,,,,,,,,,,,,,,,,,,,,,,,,,,,,439.8055252999766,440.00753679999616,439.98893389996374,440.28946239996003,440.28946239996003,None,440.7901131999679,None,f,1,0.7019008999923244,440.7901131999679,None,None,None,441.507844000007,None,,,,,,,,,,,,,,,,,,,,,11011,1,2,2024_Jun_18_1900,stroop_task_switching2_b,2021.2.3,59.83752914368472,
condition/block_mixed_b,instruction/instr_mixed,instruction/i10_b,红,red,k,diamond,color_mix,颜色,,compatible,1,,,,,,,,0,2,2,2,0,0,0,0,0,44,44,44,,,,,,,,,,,,,,,,,,,,,,,,,,,,,,,,,,,442.50955719995545,442.7104460999835,442.69301429996267,442.9934063999681,442.9934063999681,None,443.4957689999719,None,k,1,0.8043729999917559,443.4957689999719,None,None,None,444.328741299978,None,,,,,,,,,,,,,,,,,,,,,11011,1,2,2024_Jun_18_1900,stroop_task_switching2_b,2021.2.3,59.83752914368472,
condition/block_mixed_b,instruction/instr_mixed,instruction/i10_b,蓝,blue,j,diamond,color_mix,颜色,,compatible,1,,,,,,,,0,2,2,2,0,0,0,0,0,45,45,45,,,,,,,,,,,,,,,,,,,,,,,,,,,,,,,,,,,445.33015200000955,445.5320812999853,445.5137186999782,445.8150965999812,445.8150965999812,None,446.31515179999406,None,j,1,0.4410325000062585,446.31515179999406,None,None,None,446.7823686999618,None,,,,,,,,,,,,,,,,,,,,,11011,1,2,2024_Jun_18_1900,stroop_task_switching2_b,2021.2.3,59.83752914368472,
condition/block_mixed_b,instruction/instr_mixed,instruction/i10_b,红,red,k,diamond,color_mix,颜色,,compatible,1,,,,,,,,0,2,2,2,0,0,0,0,0,46,46,46,,,,,,,,,,,,,,,,,,,,,,,,,,,,,,,,,,,447.7848276000004,447.9849979999708,447.9685491999844,448.2691537999781,448.2691537999781,None,448.7688861999777,None,k,1,1.2356617999612354,448.7688861999777,None,None,None,450.0207891999744,None,,,,,,,,,,,,,,,,,,,,,11011,1,2,2024_Jun_18_1900,stroop_task_switching2_b,2021.2.3,59.83752914368472,
condition/block_mixed_b,instruction/instr_mixed,instruction/i10_b,红,red,k,square,color_mix,单词,,compatible,2,,,,,,,,0,2,2,2,0,0,0,0,0,47,47,47,,,,,,,,,,,,,,,,,,,,,,,,,,,,,,,,,,,451.0222261999734,451.22368019999703,451.2058304999955,451.50633889995515,451.50633889995515,None,452.0077713999781,None,k,1,0.8200842999503948,452.0077713999781,None,None,None,452.8582424999913,None,,,,,,,,,,,,,,,,,,,,,11011,1,2,2024_Jun_18_1900,stroop_task_switching2_b,2021.2.3,59.83752914368472,
condition/block_mixed_b,instruction/instr_mixed,instruction/i10_b,红,red,k,diamond,color_mix,颜色,,compatible,2,,,,,,,,0,2,2,2,0,0,0,0,0,48,48,48,,,,,,,,,,,,,,,,,,,,,,,,,,,,,,,,,,,453.8597741999547,454.0615548999631,454.0434973000083,454.3438038000022,454.3438038000022,None,454.8460415999871,None,k,1,0.5740653999964707,454.8460415999871,None,None,None,455.44575059995987,None,,,,,,,,,,,,,,,,,,,,,11011,1,2,2024_Jun_18_1900,stroop_task_switching2_b,2021.2.3,59.83752914368472,
condition/block_mixed_b,instruction/instr_mixed,instruction/i10_b,,,,,,,,,,,,,,,,,0,2,2,2,0,0,0,0,,,,,,,,,,,,,,,,,,,,,,,,,,,,,,,,,,,,,,,,,,,,,,,,,,,,,,,,456.44716069998685,None,space,5.5391162999439985,456.44716069998685,None,,,,,,,,,,,,,,,11011,1,2,2024_Jun_18_1900,stroop_task_switching2_b,2021.2.3,59.83752914368472,
condition/block_mixed_b,instruction/instr_mixed,instruction/i10_b,,,,,,,,,,,,,,,,,0,2,2,2,,,,,,,,,,,,,,,,,,,,,,,,,,,,,,,,,,,,,,,,,,,,,,,,,,,,,,,,,,,,,,,,,,,,,,,,,,,,,,,,11011,1,2,2024_Jun_18_1900,stroop_task_switching2_b,2021.2.3,59.83752914368472,
,,,红,red,k,square,color_mix,单词,,compatible,0,block_switch1_b,instruction/ready_test.png,instruction/i11.png,,,,,,,,,,,,,,,,,0,0,0,0,0,0,0,0,,,,,,,,,,,,,,,,,,,480.90106090001063,481.9038950999966,481.9038950999966,482.9042740999721,482.9042740999721,None,479.9159212000086,480.9187338000047,483.9213355999673,484.1227810999844,484.1227810999844,484.4236502999556,484.4057868999662,None,484.90668269997695,None,k,1,0.5860514999949373,484.90668269997695,None,None,None,,,,,,,,,462.0386679999647,None,space,17.846077899972443,462.0386679999647,None,,,,,,,,,11011,1,2,2024_Jun_18_1900,stroop_task_switching2_b,2021.2.3,59.83752914368472,
,,,绿,green,d,diamond,color_mix,颜色,,compatible,2,block_switch1_b,instruction/ready_test.png,instruction/i11.png,,,,,,,,,,,,,,,,,0,0,0,0,0,1,1,1,,,,,,,,,,,,,,,,,,,,,,,,,,,485.54100639995886,485.74121249996824,485.6925912000006,485.99171859998023,485.99171859998023,None,486.49254549999023,None,d,1,0.9286573999561369,486.49254549999023,None,None,None,,,,,,,,,,,,,,,,,,,,,,,11011,1,2,2024_Jun_18_1900,stroop_task_switching2_b,2021.2.3,59.83752914368472,
,,,绿,yellow,f,diamond,color_mix,颜色,,incompatible,1,block_switch1_b,instruction/ready_test.png,instruction/i11.png,,,,,,,,,,,,,,,,,0,0,0,0,0,2,2,2,,,,,,,,,,,,,,,,,,,,,,,,,,,487.44445289997384,487.6452323999838,487.62749009998515,487.9278176999651,487.9278176999651,None,488.4290726999752,None,f,1,1.440154999960214,488.4290726999752,None,None,None,,,,,,,,,,,,,,,,,,,,,,,11011,1,2,2024_Jun_18_1900,stroop_task_switching2_b,2021.2.3,59.83752914368472,
,,,蓝,blue,j,diamond,color_mix,颜色,,compatible,1,block_switch1_b,instruction/ready_test.png,instruction/i11.png,,,,,,,,,,,,,,,,,0,0,0,0,0,3,3,3,,,,,,,,,,,,,,,,,,,,,,,,,,,489.8979493000079,490.09951639996143,490.08113020000746,490.38264419999905,490.38264419999905,None,490.8823473000084,None,j,1,1.1153098000213504,490.8823473000084,None,None,None,,,,,,,,,,,,,,,,,,,,,,,11011,1,2,2024_Jun_18_1900,stroop_task_switching2_b,2021.2.3,59.83752914368472,
,,,绿,green,d,square,color_mix,单词,,compatible,2,block_switch1_b,instruction/ready_test.png,instruction/i11.png,,,,,,,,,,,,,,,,,0,0,0,0,0,4,4,4,,,,,,,,,,,,,,,,,,,,,,,,,,,492.0175025999779,492.218816699984,492.2017968999571,492.50159050000366,492.50159050000366,None,493.0022941000061,None,d,1,1.8346841000020504,493.0022941000061,None,None,None,,,,,,,,,,,,,,,,,,,,,,,11011,1,2,2024_Jun_18_1900,stroop_task_switching2_b,2021.2.3,59.83752914368472,
,,,绿,blue,j,diamond,color_mix,颜色,,incompatible,2,block_switch1_b,instruction/ready_test.png,instruction/i11.png,,,,,,,,,,,,,,,,,0,0,0,0,0,5,5,5,,,,,,,,,,,,,,,,,,,,,,,,,,,494.8548969000112,495.0570439999574,495.03856849996373,495.3394249000121,495.3394249000121,None,495.83990489999996,None,j,1,0.5978409000090323,495.83990489999996,None,None,None,,,,,,,,,,,,,,,,,,,,,,,11011,1,2,2024_Jun_18_1900,stroop_task_switching2_b,2021.2.3,59.83752914368472,
,,,黄,red,f,square,color_mix,单词,,incompatible,2,block_switch1_b,instruction/ready_test.png,instruction/i11.png,,,,,,,,,,,,,,,,,0,0,0,0,0,6,6,6,,,,,,,,,,,,,,,,,,,,,,,,,,,496.4574847999611,496.6589571000077,496.64122639998095,496.9425432999851,496.9425432999851,None,497.4421635000035,None,f,1,1.475211200013291,497.4421635000035,None,None,None,,,,,,,,,,,,,,,,,,,,,,,11011,1,2,2024_Jun_18_1900,stroop_task_switching2_b,2021.2.3,59.83752914368472,
,,,绿,green,d,square,color_mix,单词,,compatible,1,block_switch1_b,instruction/ready_test.png,instruction/i11.png,,,,,,,,,,,,,,,,,0,0,0,0,0,7,7,7,,,,,,,,,,,,,,,,,,,,,,,,,,,498.94446379999863,499.1457749999827,499.1284854999976,499.42890649999026,499.42890649999026,None,499.92934349999996,None,d,1,1.4439851000206545,499.92934349999996,None,None,None,,,,,,,,,,,,,,,,,,,,,,,11011,1,2,2024_Jun_18_1900,stroop_task_switching2_b,2021.2.3,59.83752914368472,
,,,蓝,blue,j,square,color_mix,单词,,compatible,1,block_switch1_b,instruction/ready_test.png,instruction/i11.png,,,,,,,,,,,,,,,,,0,0,0,0,0,8,8,8,,,,,,,,,,,,,,,,,,,,,,,,,,,501.3982778000063,501.598602699989,501.5835017999634,501.88348709995626,501.88348709995626,None,502.3833917999873,None,j,1,0.5502799000241794,502.3833917999873,None,None,None,,,,,,,,,,,,,,,,,,,,,,,11011,1,2,2024_Jun_18_1900,stroop_task_switching2_b,2021.2.3,59.83752914368472,
,,,红,red,k,diamond,color_mix,颜色,,compatible,2,block_switch1_b,instruction/ready_test.png,instruction/i11.png,,,,,,,,,,,,,,,,,0,0,0,0,0,9,9,9,,,,,,,,,,,,,,,,,,,,,,,,,,,502.950406799966,503.15123289998155,503.1354933999828,503.43513299996266,503.43513299996266,None,503.9354860999738,None,k,1,0.8473771999706514,503.9354860999738,None,None,None,,,,,,,,,,,,,,,,,,,,,,,11011,1,2,2024_Jun_18_1900,stroop_task_switching2_b,2021.2.3,59.83752914368472,
,,,黄,yellow,f,diamond,color_mix,颜色,,compatible,1,block_switch1_b,instruction/ready_test.png,instruction/i11.png,,,,,,,,,,,,,,,,,0,0,0,0,0,10,10,10,,,,,,,,,,,,,,,,,,,,,,,,,,,504.8033604999655,505.00394279998727,504.98679140000604,505.28869729995495,505.28869729995495,None,505.7889995999867,None,f,1,1.553198200010229,505.7889995999867,None,None,None,,,,,,,,,,,,,,,,,,,,,,,11011,1,2,2024_Jun_18_1900,stroop_task_switching2_b,2021.2.3,59.83752914368472,
,,,绿,green,d,square,color_mix,单词,,compatible,2,block_switch1_b,instruction/ready_test.png,instruction/i11.png,,,,,,,,,,,,,,,,,0,0,0,0,0,11,11,11,,,,,,,,,,,,,,,,,,,,,,,,,,,507.357058900001,507.5585750999744,507.54061580001144,507.8413474999834,507.8413474999834,None,508.3419665999827,None,d,1,1.0000119999749586,508.3419665999827,None,None,None,,,,,,,,,,,,,,,,,,,,,,,11011,1,2,2024_Jun_18_1900,stroop_task_switching2_b,2021.2.3,59.83752914368472,
,,,红,red,k,diamond,color_mix,颜色,,compatible,2,block_switch1_b,instruction/ready_test.png,instruction/i11.png,,,,,,,,,,,,,,,,,0,0,0,0,0,12,12,12,,,,,,,,,,,,,,,,,,,,,,,,,,,509.3600399999996,509.56110579997767,509.543665300007,509.8452963999589,509.8452963999589,None,510.34506649995456,None,k,1,1.1484698000131175,510.34506649995456,None,None,None,,,,,,,,,,,,,,,,,,,,,,,11011,1,2,2024_Jun_18_1900,stroop_task_switching2_b,2021.2.3,59.83752914368472,
,,,红,red,k,diamond,color_mix,颜色,,compatible,1,block_switch1_b,instruction/ready_test.png,instruction/i11.png,,,,,,,,,,,,,,,,,0,0,0,0,0,13,13,13,,,,,,,,,,,,,,,,,,,,,,,,,,,511.5135197999771,511.71472150000045,511.6983424999635,511.9976411999669,511.9976411999669,None,512.4985013999976,None,k,1,0.45164480002131313,512.4985013999976,None,None,None,,,,,,,,,,,,,,,,,,,,,,,11011,1,2,2024_Jun_18_1900,stroop_task_switching2_b,2021.2.3,59.83752914368472,
,,,黄,yellow,f,square,color_mix,单词,,compatible,2,block_switch1_b,instruction/ready_test.png,instruction/i11.png,,,,,,,,,,,,,,,,,0,0,0,0,0,14,14,14,,,,,,,,,,,,,,,,,,,,,,,,,,,512.9656784000108,513.1670898000011,513.1499447000097,513.450062799966,513.450062799966,None,513.9514070999576,None,f,1,0.8383007000084035,513.9514070999576,None,None,None,,,,,,,,,,,,,,,,,,,,,,,11011,1,2,2024_Jun_18_1900,stroop_task_switching2_b,2021.2.3,59.83752914368472,
,,,红,green,d,diamond,color_mix,颜色,,incompatible,2,block_switch1_b,instruction/ready_test.png,instruction/i11.png,,,,,,,,,,,,,,,,,0,0,0,0,0,15,15,15,,,,,,,,,,,,,,,,,,,,,,,,,,,514.8185135999811,515.019223899988,515.0033642000053,515.3026468000025,515.3026468000025,None,515.803175500012,None,d,1,1.8990160999819636,515.803175500012,None,None,None,,,,,,,,,,,,,,,,,,,,,,,11011,1,2,2024_Jun_18_1900,stroop_task_switching2_b,2021.2.3,59.83752914368472,
,,,蓝,red,k,diamond,color_mix,颜色,,incompatible,1,block_switch1_b,instruction/ready_test.png,instruction/i11.png,,,,,,,,,,,,,,,,,0,0,0,0,0,16,16,16,,,,,,,,,,,,,,,,,,,,,,,,,,,517.7237968000118,517.9241160000092,517.906479199999,518.2070389,518.2070389,None,518.708543899993,None,k,1,0.8498975999536924,518.708543899993,None,None,None,,,,,,,,,,,,,,,,,,,,,,,11011,1,2,2024_Jun_18_1900,stroop_task_switching2_b,2021.2.3,59.83752914368472,
,,,黄,green,d,diamond,color_mix,颜色,,incompatible,1,block_switch1_b,instruction/ready_test.png,instruction/i11.png,,,,,,,,,,,,,,,,,0,0,0,0,0,17,17,17,,,,,,,,,,,,,,,,,,,,,,,,,,,519.5757370999781,519.7769908999908,519.7592897999566,520.0595453999704,520.0595453999704,None,520.5603489999776,None,d,1,1.4374854000052437,520.5603489999776,None,None,None,,,,,,,,,,,,,,,,,,,,,,,11011,1,2,2024_Jun_18_1900,stroop_task_switching2_b,2021.2.3,59.83752914368472,
,,,绿,green,d,diamond,color_mix,颜色,,compatible,1,block_switch1_b,instruction/ready_test.png,instruction/i11.png,,,,,,,,,,,,,,,,,0,0,0,0,0,18,18,18,,,,,,,,,,,,,,,,,,,,,,,,,,,522.028734099993,522.2295755000087,522.2135913000093,522.5140516000101,522.5140516000101,None,523.0141054999549,None,d,1,0.6318494000006467,523.0141054999549,None,None,None,,,,,,,,,,,,,,,,,,,,,,,11011,1,2,2024_Jun_18_1900,stroop_task_switching2_b,2021.2.3,59.83752914368472,
,,,黄,red,k,diamond,color_mix,颜色,,incompatible,1,block_switch1_b,instruction/ready_test.png,instruction/i11.png,,,,,,,,,,,,,,,,,0,0,0,0,0,19,19,19,,,,,,,,,,,,,,,,,,,,,,,,,,,523.6649199000094,523.8657018999802,523.8512714999961,524.1496338999714,524.1496338999714,None,524.6499925999669,None,k,1,0.8199343000305817,524.6499925999669,None,None,None,,,,,,,,,,,,,,,,,,,,,,,11011,1,2,2024_Jun_18_1900,stroop_task_switching2_b,2021.2.3,59.83752914368472,
,,,绿,yellow,d,square,color_mix,单词,,incompatible,2,block_switch1_b,instruction/ready_test.png,instruction/i11.png,,,,,,,,,,,,,,,,,0,0,0,0,0,20,20,20,,,,,,,,,,,,,,,,,,,,,,,,,,,525.5010292999796,525.702460600005,525.6848389999941,525.9853692000033,525.9853692000033,None,526.4860828999663,None,d,1,0.8159969000262208,526.4860828999663,None,None,None,,,,,,,,,,,,,,,,,,,,,,,11011,1,2,2024_Jun_18_1900,stroop_task_switching2_b,2021.2.3,59.83752914368472,
,,,绿,yellow,f,diamond,color_mix,颜色,,incompatible,2,block_switch1_b,instruction/ready_test.png,instruction/i11.png,,,,,,,,,,,,,,,,,0,0,0,0,0,21,21,21,,,,,,,,,,,,,,,,,,,,,,,,,,,527.32114309998,527.5208412999636,527.5061005000025,527.8063535999972,527.8063535999972,None,528.305393699964,None,f,1,1.0768905999721028,528.305393699964,None,None,None,,,,,,,,,,,,,,,,,,,,,,,11011,1,2,2024_Jun_18_1900,stroop_task_switching2_b,2021.2.3,59.83752914368472,
,,,绿,green,d,square,color_mix,单词,,compatible,2,block_switch1_b,instruction/ready_test.png,instruction/i11.png,,,,,,,,,,,,,,,,,0,0,0,0,0,22,22,22,,,,,,,,,,,,,,,,,,,,,,,,,,,529.4075632999884,529.6076831999817,529.5927429999574,529.9090363999712,529.8910962999798,None,530.3927211999544,None,d,1,1.0057059000246227,530.3927211999544,None,None,None,,,,,,,,,,,,,,,,,,,,,,,11011,1,2,2024_Jun_18_1900,stroop_task_switching2_b,2021.2.3,59.83752914368472,
,,,红,red,k,square,color_mix,单词,,compatible,1,block_switch1_b,instruction/ready_test.png,instruction/i11.png,,,,,,,,,,,,,,,,,0,0,0,0,0,23,23,23,,,,,,,,,,,,,,,,,,,,,,,,,,,531.4269343999913,531.6276858999627,531.6104943999671,531.9123870999902,531.9123870999902,None,532.4119972999906,None,k,1,1.2826774999848567,532.4119972999906,None,None,None,,,,,,,,,,,,,,,,,,,,,,,11011,1,2,2024_Jun_18_1900,stroop_task_switching2_b,2021.2.3,59.83752914368472,
,,,黄,green,f,square,color_mix,单词,,incompatible,1,block_switch1_b,instruction/ready_test.png,instruction/i11.png,,,,,,,,,,,,,,,,,0,0,0,0,0,24,24,24,,,,,,,,,,,,,,,,,,,,,,,,,,,533.7137828999548,533.9160151999677,533.8979134999681,534.1983868000098,534.1983868000098,None,534.6994725000113,None,f,1,1.1233560999971814,534.6994725000113,None,None,None,,,,,,,,,,,,,,,,,,,,,,,11011,1,2,2024_Jun_18_1900,stroop_task_switching2_b,2021.2.3,59.83752914368472,
,,,红,blue,k,square,color_mix,单词,,incompatible,1,block_switch1_b,instruction/ready_test.png,instruction/i11.png,,,,,,,,,,,,,,,,,0,0,0,0,0,25,25,25,,,,,,,,,,,,,,,,,,,,,,,,,,,535.8503346999642,536.0504582999856,536.0337880000006,536.3359035999747,536.3359035999747,None,536.8360719999764,None,k,1,1.1151872999616899,536.8360719999764,None,None,None,,,,,,,,,,,,,,,,,,,,,,,11011,1,2,2024_Jun_18_1900,stroop_task_switching2_b,2021.2.3,59.83752914368472,
,,,黄,yellow,f,square,color_mix,单词,,compatible,1,block_switch1_b,instruction/ready_test.png,instruction/i11.png,,,,,,,,,,,,,,,,,0,0,0,0,0,26,26,26,,,,,,,,,,,,,,,,,,,,,,,,,,,537.969999199966,538.170695799985,538.1554580999655,538.471971699968,538.4547717999667,None,538.9547099999618,None,f,1,1.40380740002729,538.9547099999618,None,None,None,,,,,,,,,,,,,,,,,,,,,,,11011,1,2,2024_Jun_18_1900,stroop_task_switching2_b,2021.2.3,59.83752914368472,
,,,蓝,green,j,square,color_mix,单词,,incompatible,1,block_switch1_b,instruction/ready_test.png,instruction/i11.png,,,,,,,,,,,,,,,,,0,0,0,0,0,27,27,27,,,,,,,,,,,,,,,,,,,,,,,,,,,540.3902320999769,540.5919546000077,540.5752105999854,540.8746864999994,540.8746864999994,None,541.3752274999861,None,j,1,1.4233249999815598,541.3752274999861,None,None,None,,,,,,,,,,,,,,,,,,,,,,,11011,1,2,2024_Jun_18_1900,stroop_task_switching2_b,2021.2.3,59.83752914368472,
,,,绿,green,d,diamond,color_mix,颜色,,compatible,2,block_switch1_b,instruction/ready_test.png,instruction/i11.png,,,,,,,,,,,,,,,,,0,0,0,0,0,28,28,28,,,,,,,,,,,,,,,,,,,,,,,,,,,542.8273396999575,543.0276844999753,543.0108711000066,543.3114407999674,543.3114407999674,None,543.8135558000067,None,d,1,0.7055596000282094,543.8135558000067,None,None,None,,,,,,,,,,,,,,,,,,,,,,,11011,1,2,2024_Jun_18_1900,stroop_task_switching2_b,2021.2.3,59.83752914368472,
,,,黄,blue,j,diamond,color_mix,颜色,,incompatible,1,block_switch1_b,instruction/ready_test.png,instruction/i11.png,,,,,,,,,,,,,,,,,0,0,0,0,0,29,29,29,,,,,,,,,,,,,,,,,,,,,,,,,,,544.5463350999635,544.7484142999747,544.7307762999553,545.0305936000077,545.0305936000077,None,545.5316414000117,None,j,1,1.4509067999897525,545.5316414000117,None,None,None,,,,,,,,,,,,,,,,,,,,,,,11011,1,2,2024_Jun_18_1900,stroop_task_switching2_b,2021.2.3,59.83752914368472,
,,,绿,green,d,diamond,color_mix,颜色,,compatible,1,block_switch1_b,instruction/ready_test.png,instruction/i11.png,,,,,,,,,,,,,,,,,0,0,0,0,0,30,30,30,,,,,,,,,,,,,,,,,,,,,,,,,,,547.0005112999934,547.2015435000067,547.1854008999653,547.4850757999811,547.4850757999811,None,547.9857722999877,None,d,1,0.7652043999987654,547.9857722999877,None,None,None,,,,,,,,,,,,,,,,,,,,,,,11011,1,2,2024_Jun_18_1900,stroop_task_switching2_b,2021.2.3,59.83752914368472,
,,,蓝,blue,j,square,color_mix,单词,,compatible,2,block_switch1_b,instruction/ready_test.png,instruction/i11.png,,,,,,,,,,,,,,,,,0,0,0,0,0,31,31,31,,,,,,,,,,,,,,,,,,,,,,,,,,,548.7696605999954,548.9706319000106,548.953474799986,549.2541237999685,549.2541237999685,None,549.7558018999989,None,j,1,0.5953706000000238,549.7558018999989,None,None,None,,,,,,,,,,,,,,,,,,,,,,,11011,1,2,2024_Jun_18_1900,stroop_task_switching2_b,2021.2.3,59.83752914368472,
,,,红,red,k,square,color_mix,单词,,compatible,1,block_switch1_b,instruction/ready_test.png,instruction/i11.png,,,,,,,,,,,,,,,,,0,0,0,0,0,32,32,32,,,,,,,,,,,,,,,,,,,,,,,,,,,550.3726465000072,550.5732598999748,550.5557717999909,550.8579085000092,550.8579085000092,None,551.3734930999926,None,k,1,0.7934499999973923,551.3734930999926,None,None,None,,,,,,,,,,,,,,,,,,,,,,,11011,1,2,2024_Jun_18_1900,stroop_task_switching2_b,2021.2.3,59.83752914368472,
,,,红,green,k,square,color_mix,单词,,incompatible,1,block_switch1_b,instruction/ready_test.png,instruction/i11.png,,,,,,,,,,,,,,,,,0,0,0,0,0,33,33,33,,,,,,,,,,,,,,,,,,,,,,,,,,,552.1915000999579,552.3927411999903,552.3751858999603,552.6773320999928,552.6773320999928,None,553.1771160999779,None,k,1,0.7016019000438973,553.1771160999779,None,None,None,,,,,,,,,,,,,,,,,,,,,,,11011,1,2,2024_Jun_18_1900,stroop_task_switching2_b,2021.2.3,59.83752914368472,
,,,黄,yellow,f,diamond,color_mix,颜色,,compatible,2,block_switch1_b,instruction/ready_test.png,instruction/i11.png,,,,,,,,,,,,,,,,,0,0,0,0,0,34,34,34,,,,,,,,,,,,,,,,,,,,,,,,,,,553.8940498000011,554.0942388999974,554.0779623999842,554.379767299979,554.379767299979,None,554.8790770999622,None,f,1,0.7118244000012055,554.8790770999622,None,None,None,,,,,,,,,,,,,,,,,,,,,,,11011,1,2,2024_Jun_18_1900,stroop_task_switching2_b,2021.2.3,59.83752914368472,
,,,红,green,d,diamond,color_mix,颜色,,incompatible,1,block_switch1_b,instruction/ready_test.png,instruction/i11.png,,,,,,,,,,,,,,,,,0,0,0,0,0,35,35,35,,,,,,,,,,,,,,,,,,,,,,,,,,,555.6134183999966,555.8148265999625,555.7970158999669,556.0975381999742,556.0975381999742,None,556.5981401999597,None,k,0,1.5927995000383817,556.5981401999597,None,None,None,,,,,,,,,,,,,,,,,,,,,,,11011,1,2,2024_Jun_18_1900,stroop_task_switching2_b,2021.2.3,59.83752914368472,
,,,黄,yellow,f,square,color_mix,单词,,compatible,2,block_switch1_b,instruction/ready_test.png,instruction/i11.png,,,,,,,,,,,,,,,,,0,0,0,0,0,36,36,36,,,,,,,,,,,,,,,,,,,,,,,,,,,558.2175040000002,558.4181423999835,558.4010261999792,558.7011993000051,558.7011993000051,None,559.2022402999573,None,f,1,1.7493144000181928,559.2022402999573,None,None,None,,,,,,,,,,,,,,,,,,,,,,,11011,1,2,2024_Jun_18_1900,stroop_task_switching2_b,2021.2.3,59.83752914368472,
,,,蓝,blue,j,square,color_mix,单词,,compatible,1,block_switch1_b,instruction/ready_test.png,instruction/i11.png,,,,,,,,,,,,,,,,,0,0,0,0,0,37,37,37,,,,,,,,,,,,,,,,,,,,,,,,,,,560.9715404000017,561.1731585999951,561.1560558999772,561.4571498999721,561.4571498999721,None,561.9564678999595,None,j,1,0.5788458000170067,561.9564678999595,None,None,None,,,,,,,,,,,,,,,,,,,,,,,11011,1,2,2024_Jun_18_1900,stroop_task_switching2_b,2021.2.3,59.83752914368472,
,,,绿,red,k,diamond,color_mix,颜色,,incompatible,2,block_switch1_b,instruction/ready_test.png,instruction/i11.png,,,,,,,,,,,,,,,,,0,0,0,0,0,38,38,38,,,,,,,,,,,,,,,,,,,,,,,,,,,562.5569748999551,562.757586999971,562.7425898999791,563.041301899997,563.041301899997,None,563.5419134999975,None,k,1,0.6092914000037126,563.5419134999975,None,None,None,,,,,,,,,,,,,,,,,,,,,,,11011,1,2,2024_Jun_18_1900,stroop_task_switching2_b,2021.2.3,59.83752914368472,
,,,黄,yellow,f,diamond,color_mix,颜色,,compatible,1,block_switch1_b,instruction/ready_test.png,instruction/i11.png,,,,,,,,,,,,,,,,,0,0,0,0,0,39,39,39,,,,,,,,,,,,,,,,,,,,,,,,,,,564.1763915999909,564.3765550999669,564.3612290999736,564.6603631000035,564.6603631000035,None,565.1610476999776,None,f,1,1.9023053999990225,565.1610476999776,None,None,None,,,,,,,,,,,,,,,,,,,,,,,11011,1,2,2024_Jun_18_1900,stroop_task_switching2_b,2021.2.3,59.83752914368472,
,,,红,blue,j,diamond,color_mix,颜色,,incompatible,1,block_switch1_b,instruction/ready_test.png,instruction/i11.png,,,,,,,,,,,,,,,,,0,0,0,0,0,40,40,40,,,,,,,,,,,,,,,,,,,,,,,,,,,567.0810742999893,567.2820922000101,567.2643175999983,567.5650477999588,567.5650477999588,None,568.0655273000011,None,j,1,0.6938596999971196,568.0655273000011,None,None,None,,,,,,,,,,,,,,,,,,,,,,,11011,1,2,2024_Jun_18_1900,stroop_task_switching2_b,2021.2.3,59.83752914368472,
,,,绿,blue,d,square,color_mix,单词,,incompatible,2,block_switch1_b,instruction/ready_test.png,instruction/i11.png,,,,,,,,,,,,,,,,,0,0,0,0,0,41,41,41,,,,,,,,,,,,,,,,,,,,,,,,,,,568.7830638999585,568.98355179996,568.9670096999616,569.2681187999551,569.2681187999551,None,569.768026500009,None,d,1,1.1193823000066914,569.768026500009,None,None,None,,,,,,,,,,,,,,,,,,,,,,,11011,1,2,2024_Jun_18_1900,stroop_task_switching2_b,2021.2.3,59.83752914368472,
,,,蓝,blue,j,diamond,color_mix,颜色,,compatible,2,block_switch1_b,instruction/ready_test.png,instruction/i11.png,,,,,,,,,,,,,,,,,0,0,0,0,0,42,42,42,,,,,,,,,,,,,,,,,,,,,,,,,,,570.9029717000085,571.1033721999847,571.0880106000113,571.3879086999805,571.3879086999805,None,571.8888250999735,None,j,1,0.6784894000156783,571.8888250999735,None,None,None,,,,,,,,,,,,,,,,,,,,,,,11011,1,2,2024_Jun_18_1900,stroop_task_switching2_b,2021.2.3,59.83752914368472,
,,,红,blue,k,square,color_mix,单词,,incompatible,2,block_switch1_b,instruction/ready_test.png,instruction/i11.png,,,,,,,,,,,,,,,,,0,0,0,0,0,43,43,43,,,,,,,,,,,,,,,,,,,,,,,,,,,572.5891754999757,572.7899266000022,572.7733453999972,573.0729550999822,573.0729550999822,None,573.5738827000023,None,k,1,0.9693909999914467,573.5738827000023,None,None,None,,,,,,,,,,,,,,,,,,,,,,,11011,1,2,2024_Jun_18_1900,stroop_task_switching2_b,2021.2.3,59.83752914368472,
,,,蓝,green,d,diamond,color_mix,颜色,,incompatible,2,block_switch1_b,instruction/ready_test.png,instruction/i11.png,,,,,,,,,,,,,,,,,0,0,0,0,0,44,44,44,,,,,,,,,,,,,,,,,,,,,,,,,,,574.5752481999807,574.7763185999938,574.759605499974,575.0591951999813,575.0591951999813,None,575.5600175999571,None,d,1,1.7916968000354245,575.5600175999571,None,None,None,,,,,,,,,,,,,,,,,,,,,,,11011,1,2,2024_Jun_18_1900,stroop_task_switching2_b,2021.2.3,59.83752914368472,
,,,黄,yellow,f,square,color_mix,单词,,compatible,2,block_switch1_b,instruction/ready_test.png,instruction/i11.png,,,,,,,,,,,,,,,,,0,0,0,0,0,45,45,45,,,,,,,,,,,,,,,,,,,,,,,,,,,577.3797907999833,577.5815459999721,577.5630432000034,577.8656655999948,577.8656655999948,None,578.3643856999697,None,f,1,0.8830191000015475,578.3643856999697,None,None,None,,,,,,,,,,,,,,,,,,,,,,,11011,1,2,2024_Jun_18_1900,stroop_task_switching2_b,2021.2.3,59.83752914368472,
,,,黄,yellow,f,diamond,color_mix,颜色,,compatible,2,block_switch1_b,instruction/ready_test.png,instruction/i11.png,,,,,,,,,,,,,,,,,0,0,0,0,0,46,46,46,,,,,,,,,,,,,,,,,,,,,,,,,,,579.265895599965,579.4661277999985,579.4491930999793,579.749756300007,579.749756300007,None,580.2507856999873,None,f,1,0.8127395000192337,580.2507856999873,None,None,None,,,,,,,,,,,,,,,,,,,,,,,11011,1,2,2024_Jun_18_1900,stroop_task_switching2_b,2021.2.3,59.83752914368472,
,,,绿,red,d,square,color_mix,单词,,incompatible,2,block_switch1_b,instruction/ready_test.png,instruction/i11.png,,,,,,,,,,,,,,,,,0,0,0,0,0,47,47,47,,,,,,,,,,,,,,,,,,,,,,,,,,,581.084975100006,581.2862060999614,581.2686424999847,581.5691426999983,581.5691426999983,None,582.0697672999813,None,d,1,2.266105599992443,582.0697672999813,None,None,None,,,,,,,,,,,,,,,,,,,,,,,11011,1,2,2024_Jun_18_1900,stroop_task_switching2_b,2021.2.3,59.83752914368472,
,,,红,red,k,diamond,color_mix,颜色,,compatible,2,block_switch1_b,instruction/ready_test.png,instruction/i11.png,,,,,,,,,,,,,,,,,0,0,0,0,0,48,48,48,,,,,,,,,,,,,,,,,,,,,,,,,,,584.3579953999724,584.5750324999681,584.5402158999932,584.8411140000098,584.8411140000098,None,585.3413866999908,None,k,1,0.5862790999817662,585.3413866999908,None,None,None,,,,,,,,,,,,,,,,,,,,,,,11011,1,2,2024_Jun_18_1900,stroop_task_switching2_b,2021.2.3,59.83752914368472,
,,,蓝,blue,j,diamond,color_mix,颜色,,compatible,1,block_switch1_b,instruction/ready_test.png,instruction/i11.png,,,,,,,,,,,,,,,,,0,0,0,0,0,49,49,49,,,,,,,,,,,,,,,,,,,,,,,,,,,585.9596446999931,586.1600941999932,586.1451393999741,586.4434192999615,586.4434192999615,None,586.9454576999997,None,j,1,1.0943709000130184,586.9454576999997,None,None,None,,,,,,,,,,,,,,,,,,,,,,,11011,1,2,2024_Jun_18_1900,stroop_task_switching2_b,2021.2.3,59.83752914368472,
,,,黄,yellow,f,diamond,color_mix,颜色,,compatible,1,block_switch1_b,instruction/ready_test.png,instruction/i11.png,,,,,,,,,,,,,,,,,0,0,0,0,0,50,50,50,,,,,,,,,,,,,,,,,,,,,,,,,,,588.0621265000082,588.2645010999986,588.2461680999841,588.5469090999686,588.5469090999686,None,589.0473679999704,None,f,1,0.9686502999975346,589.0473679999704,None,None,None,,,,,,,,,,,,,,,,,,,,,,,11011,1,2,2024_Jun_18_1900,stroop_task_switching2_b,2021.2.3,59.83752914368472,
,,,红,blue,j,diamond,color_mix,颜色,,incompatible,1,block_switch1_b,instruction/ready_test.png,instruction/i11.png,,,,,,,,,,,,,,,,,0,0,0,0,0,51,51,51,,,,,,,,,,,,,,,,,,,,,,,,,,,590.0319743999862,590.2341508999816,590.2155913999886,590.5171016000095,590.5171016000095,None,591.016497900011,None,j,1,0.823325700010173,591.016497900011,None,None,None,,,,,,,,,,,,,,,,,,,,,,,11011,1,2,2024_Jun_18_1900,stroop_task_switching2_b,2021.2.3,59.83752914368472,
,,,蓝,yellow,f,diamond,color_mix,颜色,,incompatible,1,block_switch1_b,instruction/ready_test.png,instruction/i11.png,,,,,,,,,,,,,,,,,0,0,0,0,0,52,52,52,,,,,,,,,,,,,,,,,,,,,,,,,,,591.8679639999755,592.069325199991,592.0517249999684,592.3521113999886,592.3521113999886,None,592.8534699999727,None,f,1,1.2426161000039428,592.8534699999727,None,None,None,,,,,,,,,,,,,,,,,,,,,,,11011,1,2,2024_Jun_18_1900,stroop_task_switching2_b,2021.2.3,59.83752914368472,
,,,黄,blue,f,square,color_mix,单词,,incompatible,2,block_switch1_b,instruction/ready_test.png,instruction/i11.png,,,,,,,,,,,,,,,,,0,0,0,0,0,53,53,53,,,,,,,,,,,,,,,,,,,,,,,,,,,594.1211564000114,594.3219854999916,594.3054632999701,594.6063405000023,594.6063405000023,None,595.1060747999582,None,f,1,0.8379468999919482,595.1060747999582,None,None,None,,,,,,,,,,,,,,,,,,,,,,,11011,1,2,2024_Jun_18_1900,stroop_task_switching2_b,2021.2.3,59.83752914368472,
,,,蓝,blue,j,diamond,color_mix,颜色,,compatible,2,block_switch1_b,instruction/ready_test.png,instruction/i11.png,,,,,,,,,,,,,,,,,0,0,0,0,0,54,54,54,,,,,,,,,,,,,,,,,,,,,,,,,,,595.974196199968,596.1749892999651,596.1576423000079,596.4592548999935,596.4592548999935,None,596.9590878000017,None,j,1,0.520930300001055,596.9590878000017,None,None,None,,,,,,,,,,,,,,,,,,,,,,,11011,1,2,2024_Jun_18_1900,stroop_task_switching2_b,2021.2.3,59.83752914368472,
,,,红,yellow,k,square,color_mix,单词,,incompatible,2,block_switch1_b,instruction/ready_test.png,instruction/i11.png,,,,,,,,,,,,,,,,,0,0,0,0,0,55,55,55,,,,,,,,,,,,,,,,,,,,,,,,,,,597.5099022999639,597.7107284999802,597.6961909999955,597.9937466999982,597.9937466999982,None,598.494719499955,None,k,1,1.0974223999655806,598.494719499955,None,None,None,,,,,,,,,,,,,,,,,,,,,,,11011,1,2,2024_Jun_18_1900,stroop_task_switching2_b,2021.2.3,59.83752914368472,
,,,蓝,red,j,square,color_mix,单词,,incompatible,1,block_switch1_b,instruction/ready_test.png,instruction/i11.png,,,,,,,,,,,,,,,,,0,0,0,0,0,56,56,56,,,,,,,,,,,,,,,,,,,,,,,,,,,599.6128291999921,599.815542700002,599.7968973999959,600.0988874000032,600.0988874000032,None,600.5981737999828,None,j,1,1.6989087999681942,600.5981737999828,None,None,None,,,,,,,,,,,,,,,,,,,,,,,11011,1,2,2024_Jun_18_1900,stroop_task_switching2_b,2021.2.3,59.83752914368472,
,,,蓝,blue,j,square,color_mix,单词,,compatible,1,block_switch1_b,instruction/ready_test.png,instruction/i11.png,,,,,,,,,,,,,,,,,0,0,0,0,0,57,57,57,,,,,,,,,,,,,,,,,,,,,,,,,,,602.3170414000051,602.5191389999818,602.5007254999946,602.8018124999944,602.8018124999944,None,603.3021217999631,None,j,1,0.5228994999779388,603.3021217999631,None,None,None,,,,,,,,,,,,,,,,,,,,,,,11011,1,2,2024_Jun_18_1900,stroop_task_switching2_b,2021.2.3,59.83752914368472,
,,,蓝,red,k,diamond,color_mix,颜色,,incompatible,2,block_switch1_b,instruction/ready_test.png,instruction/i11.png,,,,,,,,,,,,,,,,,0,0,0,0,0,58,58,58,,,,,,,,,,,,,,,,,,,,,,,,,,,603.8526261000079,604.0552884999779,604.03659470001,604.3378615999827,604.3378615999827,None,604.8379793000058,None,k,1,0.9305453000124544,604.8379793000058,None,None,None,,,,,,,,,,,,,,,,,,,,,,,11011,1,2,2024_Jun_18_1900,stroop_task_switching2_b,2021.2.3,59.83752914368472,
,,,绿,green,d,diamond,color_mix,颜色,,compatible,1,block_switch1_b,instruction/ready_test.png,instruction/i11.png,,,,,,,,,,,,,,,,,0,0,0,0,0,59,59,59,,,,,,,,,,,,,,,,,,,,,,,,,,,605.789059999981,605.9897612999775,605.9725965000107,606.2745207999833,606.2745207999833,None,606.7740613999777,None,d,1,0.8506738999858499,606.7740613999777,None,None,None,,,,,,,,,,,,,,,,,,,,,,,11011,1,2,2024_Jun_18_1900,stroop_task_switching2_b,2021.2.3,59.83752914368472,
,,,蓝,blue,j,diamond,color_mix,颜色,,compatible,1,block_switch1_b,instruction/ready_test.png,instruction/i11.png,,,,,,,,,,,,,,,,,0,0,0,0,0,60,60,60,,,,,,,,,,,,,,,,,,,,,,,,,,,607.641836899973,607.8428985999781,607.8261133999913,608.1260655999649,608.1260655999649,None,608.6264297000016,None,j,1,1.4862072999821976,608.6264297000016,None,None,None,,,,,,,,,,,,,,,,,,,,,,,11011,1,2,2024_Jun_18_1900,stroop_task_switching2_b,2021.2.3,59.83752914368472,
,,,黄,yellow,f,square,color_mix,单词,,compatible,2,block_switch1_b,instruction/ready_test.png,instruction/i11.png,,,,,,,,,,,,,,,,,0,0,0,0,0,61,61,61,,,,,,,,,,,,,,,,,,,,,,,,,,,610.1289554999676,610.3290929999785,610.3128385999589,610.6133676999598,610.6133676999598,None,611.1138458999922,None,f,1,0.7266156999976374,611.1138458999922,None,None,None,,,,,,,,,,,,,,,,,,,,,,,11011,1,2,2024_Jun_18_1900,stroop_task_switching2_b,2021.2.3,59.83752914368472,
,,,绿,blue,d,square,color_mix,单词,,incompatible,1,block_switch1_b,instruction/ready_test.png,instruction/i11.png,,,,,,,,,,,,,,,,,0,0,0,0,0,62,62,62,,,,,,,,,,,,,,,,,,,,,,,,,,,611.8649289999739,612.0657148999744,612.0488046999671,612.3492546000052,612.3492546000052,None,612.8498690999695,None,d,1,0.8066545000183396,612.8498690999695,None,None,None,,,,,,,,,,,,,,,,,,,,,,,11011,1,2,2024_Jun_18_1900,stroop_task_switching2_b,2021.2.3,59.83752914368472,
,,,蓝,yellow,j,square,color_mix,单词,,incompatible,1,block_switch1_b,instruction/ready_test.png,instruction/i11.png,,,,,,,,,,,,,,,,,0,0,0,0,0,63,63,63,,,,,,,,,,,,,,,,,,,,,,,,,,,613.6847224999801,613.8849310000078,613.8679099999717,614.1688130999682,614.1688130999682,None,614.6699643000029,None,j,1,1.1703935000114143,614.6699643000029,None,None,None,,,,,,,,,,,,,,,,,,,,,,,11011,1,2,2024_Jun_18_1900,stroop_task_switching2_b,2021.2.3,59.83752914368472,
,,,黄,yellow,f,diamond,color_mix,颜色,,compatible,2,block_switch1_b,instruction/ready_test.png,instruction/i11.png,,,,,,,,,,,,,,,,,0,0,0,0,0,64,64,64,,,,,,,,,,,,,,,,,,,,,,,,,,,615.870919799956,616.0713659999892,616.0545977999573,616.3557494999841,616.3557494999841,None,616.855599100003,None,f,1,0.9371396999922581,616.855599100003,None,None,None,,,,,,,,,,,,,,,,,,,,,,,11011,1,2,2024_Jun_18_1900,stroop_task_switching2_b,2021.2.3,59.83752914368472,
,,,蓝,green,d,diamond,color_mix,颜色,,incompatible,1,block_switch1_b,instruction/ready_test.png,instruction/i11.png,,,,,,,,,,,,,,,,,0,0,0,0,0,65,65,65,,,,,,,,,,,,,,,,,,,,,,,,,,,617.8238042999874,618.025615599996,618.0074193999753,618.3088898999849,618.3088898999849,None,618.8086718999548,None,d,1,1.3759293999755755,618.8086718999548,None,None,None,,,,,,,,,,,,,,,,,,,,,,,11011,1,2,2024_Jun_18_1900,stroop_task_switching2_b,2021.2.3,59.83752914368472,
,,,红,red,k,diamond,color_mix,颜色,,compatible,1,block_switch1_b,instruction/ready_test.png,instruction/i11.png,,,,,,,,,,,,,,,,,0,0,0,0,0,66,66,66,,,,,,,,,,,,,,,,,,,,,,,,,,,620.2106330000097,620.4121307999594,620.394571999961,620.6947201999719,620.6947201999719,None,621.1957053999649,None,k,1,0.6610576999955811,621.1957053999649,None,None,None,,,,,,,,,,,,,,,,,,,,,,,11011,1,2,2024_Jun_18_1900,stroop_task_switching2_b,2021.2.3,59.83752914368472,
,,,蓝,yellow,j,square,color_mix,单词,,incompatible,2,block_switch1_b,instruction/ready_test.png,instruction/i11.png,,,,,,,,,,,,,,,,,0,0,0,0,0,67,67,67,,,,,,,,,,,,,,,,,,,,,,,,,,,621.8799398999545,622.0803251999896,622.0635641999543,622.3651553000091,622.3651553000091,None,622.8660139999702,None,j,1,1.286799900000915,622.8660139999702,None,None,None,,,,,,,,,,,,,,,,,,,,,,,11011,1,2,2024_Jun_18_1900,stroop_task_switching2_b,2021.2.3,59.83752914368472,
,,,红,yellow,k,square,color_mix,单词,,incompatible,1,block_switch1_b,instruction/ready_test.png,instruction/i11.png,,,,,,,,,,,,,,,,,0,0,0,0,0,68,68,68,,,,,,,,,,,,,,,,,,,,,,,,,,,624.1833941999939,624.384967799997,624.3670316999778,624.6681029999745,624.6681029999745,None,625.1681676000007,None,k,1,0.7925760999787599,625.1681676000007,None,None,None,,,,,,,,,,,,,,,,,,,,,,,11011,1,2,2024_Jun_18_1900,stroop_task_switching2_b,2021.2.3,59.83752914368472,
,,,红,yellow,f,diamond,color_mix,颜色,,incompatible,2,block_switch1_b,instruction/ready_test.png,instruction/i11.png,,,,,,,,,,,,,,,,,0,0,0,0,0,69,69,69,,,,,,,,,,,,,,,,,,,,,,,,,,,625.9866334999679,626.1878832000075,626.1698050000123,626.4700298999669,626.4700298999669,None,626.9708385000122,None,f,1,2.6541173000005074,626.9708385000122,None,None,None,,,,,,,,,,,,,,,,,,,,,,,11011,1,2,2024_Jun_18_1900,stroop_task_switching2_b,2021.2.3,59.83752914368472,
,,,蓝,green,j,square,color_mix,单词,,incompatible,2,block_switch1_b,instruction/ready_test.png,instruction/i11.png,,,,,,,,,,,,,,,,,0,0,0,0,0,70,70,70,,,,,,,,,,,,,,,,,,,,,,,,,,,629.6416062999633,629.8419426999753,629.8260494999704,630.1257300999714,630.1257300999714,None,630.6266179999802,None,j,1,1.206628699961584,630.6266179999802,None,None,None,,,,,,,,,,,,,,,,,,,,,,,11011,1,2,2024_Jun_18_1900,stroop_task_switching2_b,2021.2.3,59.83752914368472,
,,,绿,yellow,d,square,color_mix,单词,,incompatible,1,block_switch1_b,instruction/ready_test.png,instruction/i11.png,,,,,,,,,,,,,,,,,0,0,0,0,0,71,71,71,,,,,,,,,,,,,,,,,,,,,,,,,,,631.861659599992,632.0617502999958,632.0451825999771,632.3472386999638,632.3472386999638,None,632.8474938999861,None,d,1,0.9693761999951676,632.8474938999861,None,None,None,,,,,,,,,,,,,,,,,,,,,,,11011,1,2,2024_Jun_18_1900,stroop_task_switching2_b,2021.2.3,59.83752914368472,
,,,蓝,yellow,f,diamond,color_mix,颜色,,incompatible,2,block_switch1_b,instruction/ready_test.png,instruction/i11.png,,,,,,,,,,,,,,,,,0,0,0,0,0,72,72,72,,,,,,,,,,,,,,,,,,,,,,,,,,,633.8485043999972,634.0493508999934,634.0316504999646,634.3325949999853,634.3325949999853,None,634.8328420000034,None,f,1,0.7125888000009581,634.8328420000034,None,None,None,,,,,,,,,,,,,,,,,,,,,,,11011,1,2,2024_Jun_18_1900,stroop_task_switching2_b,2021.2.3,59.83752914368472,
,,,红,green,k,square,color_mix,单词,,incompatible,2,block_switch1_b,instruction/ready_test.png,instruction/i11.png,,,,,,,,,,,,,,,,,0,0,0,0,0,73,73,73,,,,,,,,,,,,,,,,,,,,,,,,,,,635.5669833999709,635.7680276999599,635.7508617999847,636.0519567999872,636.0519567999872,None,636.5527851000079,None,k,1,0.6888013000134379,636.5527851000079,None,None,None,,,,,,,,,,,,,,,,,,,,,,,11011,1,2,2024_Jun_18_1900,stroop_task_switching2_b,2021.2.3,59.83752914368472,
,,,绿,blue,j,diamond,color_mix,颜色,,incompatible,2,block_switch1_b,instruction/ready_test.png,instruction/i11.png,,,,,,,,,,,,,,,,,0,0,0,0,0,74,74,74,,,,,,,,,,,,,,,,,,,,,,,,,,,637.2697872999706,637.4700732000056,637.4537947999779,637.7538080000086,637.7538080000086,None,638.2546702999971,None,j,1,0.826835400017444,638.2546702999971,None,None,None,,,,,,,,,,,,,,,,,,,,,,,11011,1,2,2024_Jun_18_1900,stroop_task_switching2_b,2021.2.3,59.83752914368472,
,,,红,red,k,square,color_mix,单词,,compatible,2,block_switch1_b,instruction/ready_test.png,instruction/i11.png,,,,,,,,,,,,,,,,,0,0,0,0,0,75,75,75,,,,,,,,,,,,,,,,,,,,,,,,,,,639.1058812999981,639.3061561000068,639.2894754000008,639.5911178999813,639.5911178999813,None,640.0909155999543,None,k,1,1.4381293000187725,640.0909155999543,None,None,None,,,,,,,,,,,,,,,,,,,,,,,11011,1,2,2024_Jun_18_1900,stroop_task_switching2_b,2021.2.3,59.83752914368472,
,,,绿,green,d,diamond,color_mix,颜色,,compatible,2,block_switch1_b,instruction/ready_test.png,instruction/i11.png,,,,,,,,,,,,,,,,,0,0,0,0,0,76,76,76,,,,,,,,,,,,,,,,,,,,,,,,,,,641.5597588999663,641.7598592999857,641.7439196999767,642.0436387999798,642.0436387999798,None,642.5452461999957,None,d,1,2.152281300048344,642.5452461999957,None,None,None,,,,,,,,,,,,,,,,,,,,,,,11011,1,2,2024_Jun_18_1900,stroop_task_switching2_b,2021.2.3,59.83752914368472,
,,,黄,red,f,square,color_mix,单词,,incompatible,2,block_switch1_b,instruction/ready_test.png,instruction/i11.png,,,,,,,,,,,,,,,,,0,0,0,0,0,77,77,77,,,,,,,,,,,,,,,,,,,,,,,,,,,644.7142457999871,644.9164918999886,644.8986717999796,645.2002864999813,645.2002864999813,None,645.6991837999667,None,f,1,1.6543060999829322,645.6991837999667,None,None,None,,,,,,,,,,,,,,,,,,,,,,,11011,1,2,2024_Jun_18_1900,stroop_task_switching2_b,2021.2.3,59.83752914368472,
,,,红,red,k,square,color_mix,单词,,compatible,1,block_switch1_b,instruction/ready_test.png,instruction/i11.png,,,,,,,,,,,,,,,,,0,0,0,0,0,78,78,78,,,,,,,,,,,,,,,,,,,,,,,,,,,647.3850226000068,647.5869128999766,647.5686399000115,647.869361399964,647.869361399964,None,648.3699355999706,None,k,1,0.6719321999698877,648.3699355999706,None,None,None,,,,,,,,,,,,,,,,,,,,,,,11011,1,2,2024_Jun_18_1900,stroop_task_switching2_b,2021.2.3,59.83752914368472,
,,,黄,yellow,f,square,color_mix,单词,,compatible,1,block_switch1_b,instruction/ready_test.png,instruction/i11.png,,,,,,,,,,,,,,,,,0,0,0,0,0,79,79,79,,,,,,,,,,,,,,,,,,,,,,,,,,,649.0710208999808,649.2733442999888,649.2549638999626,649.5564445999917,649.5564445999917,None,650.055791199964,None,f,1,0.9695650000358,650.055791199964,None,None,None,,,,,,,,,,,,,,,,,,,,,,,11011,1,2,2024_Jun_18_1900,stroop_task_switching2_b,2021.2.3,59.83752914368472,
,,,红,red,k,diamond,color_mix,颜色,,compatible,2,block_switch1_b,instruction/ready_test.png,instruction/i11.png,,,,,,,,,,,,,,,,,0,0,0,0,0,80,80,80,,,,,,,,,,,,,,,,,,,,,,,,,,,651.0405077000032,651.2418045999948,651.2241154999938,651.5245234000031,651.5245234000031,None,652.0254236999899,None,k,1,1.456614599970635,652.0254236999899,None,None,None,,,,,,,,,,,,,,,,,,,,,,,11011,1,2,2024_Jun_18_1900,stroop_task_switching2_b,2021.2.3,59.83752914368472,
,,,红,red,k,square,color_mix,单词,,compatible,2,block_switch1_b,instruction/ready_test.png,instruction/i11.png,,,,,,,,,,,,,,,,,0,0,0,0,0,81,81,81,,,,,,,,,,,,,,,,,,,,,,,,,,,653.5107366999728,653.7111718999804,653.6954419999965,653.9959866999998,653.9959866999998,None,654.4962802999653,None,k,1,0.9456266000051983,654.4962802999653,None,None,None,,,,,,,,,,,,,,,,,,,,,,,11011,1,2,2024_Jun_18_1900,stroop_task_switching2_b,2021.2.3,59.83752914368472,
,,,黄,blue,j,diamond,color_mix,颜色,,incompatible,2,block_switch1_b,instruction/ready_test.png,instruction/i11.png,,,,,,,,,,,,,,,,,0,0,0,0,0,82,82,82,,,,,,,,,,,,,,,,,,,,,,,,,,,655.4643298999872,655.6659131000051,655.6475403999793,655.9479139999603,655.9479139999603,None,656.4484661999741,None,j,1,1.0574689999921247,656.4484661999741,None,None,None,,,,,,,,,,,,,,,,,,,,,,,11011,1,2,2024_Jun_18_1900,stroop_task_switching2_b,2021.2.3,59.83752914368472,
,,,红,yellow,f,diamond,color_mix,颜色,,incompatible,1,block_switch1_b,instruction/ready_test.png,instruction/i11.png,,,,,,,,,,,,,,,,,0,0,0,0,0,83,83,83,,,,,,,,,,,,,,,,,,,,,,,,,,,657.5337324999855,657.7348473999882,657.7176132999593,658.0185694000102,658.0185694000102,None,658.5191126999562,None,f,1,1.099523600016255,658.5191126999562,None,None,None,,,,,,,,,,,,,,,,,,,,,,,11011,1,2,2024_Jun_18_1900,stroop_task_switching2_b,2021.2.3,59.83752914368472,
,,,黄,red,k,diamond,color_mix,颜色,,incompatible,1,block_switch1_b,instruction/ready_test.png,instruction/i11.png,,,,,,,,,,,,,,,,,0,0,0,0,0,84,84,84,,,,,,,,,,,,,,,,,,,,,,,,,,,659.6368240999873,659.8389897999587,659.8206109000021,660.1208490999998,660.1208490999998,None,660.6216967999935,None,k,1,0.9486213999916799,660.6216967999935,None,None,None,,,,,,,,,,,,,,,,,,,,,,,11011,1,2,2024_Jun_18_1900,stroop_task_switching2_b,2021.2.3,59.83752914368472,
,,,蓝,blue,j,square,color_mix,单词,,compatible,2,block_switch1_b,instruction/ready_test.png,instruction/i11.png,,,,,,,,,,,,,,,,,0,0,0,0,0,85,85,85,,,,,,,,,,,,,,,,,,,,,,,,,,,661.5895361999865,661.7901330000022,661.7744934000075,662.0743392999866,662.0743392999866,None,662.5746516999789,None,j,1,0.48333229997660965,662.5746516999789,None,None,None,,,,,,,,,,,,,,,,,,,,,,,11011,1,2,2024_Jun_18_1900,stroop_task_switching2_b,2021.2.3,59.83752914368472,
,,,绿,green,d,square,color_mix,单词,,compatible,1,block_switch1_b,instruction/ready_test.png,instruction/i11.png,,,,,,,,,,,,,,,,,0,0,0,0,0,86,86,86,,,,,,,,,,,,,,,,,,,,,,,,,,,663.0752790999832,663.2776827999623,663.2590394999715,663.5600288999849,663.5600288999849,None,664.0605251999805,None,f,0,0.6774607999832369,664.0605251999805,None,None,None,,,,,,,,,,,,,,,,,,,,,,,11011,1,2,2024_Jun_18_1900,stroop_task_switching2_b,2021.2.3,59.83752914368472,
,,,红,red,k,square,color_mix,单词,,compatible,1,block_switch1_b,instruction/ready_test.png,instruction/i11.png,,,,,,,,,,,,,,,,,0,0,0,0,0,87,87,87,,,,,,,,,,,,,,,,,,,,,,,,,,,664.7613763999543,664.9630267999601,664.9451569999801,665.2461316999979,665.2461316999979,None,665.7466119999881,None,k,1,1.2074132999987341,665.7466119999881,None,None,None,,,,,,,,,,,,,,,,,,,,,,,11011,1,2,2024_Jun_18_1900,stroop_task_switching2_b,2021.2.3,59.83752914368472,
,,,黄,green,d,diamond,color_mix,颜色,,incompatible,2,block_switch1_b,instruction/ready_test.png,instruction/i11.png,,,,,,,,,,,,,,,,,0,0,0,0,0,88,88,88,,,,,,,,,,,,,,,,,,,,,,,,,,,666.9811353000114,667.182110099995,667.1651089999941,667.4659785999684,667.4659785999684,None,667.9661111999885,None,d,1,0.7803919999860227,667.9661111999885,None,None,None,,,,,,,,,,,,,,,,,,,,,,,11011,1,2,2024_Jun_18_1900,stroop_task_switching2_b,2021.2.3,59.83752914368472,
,,,绿,red,d,square,color_mix,单词,,incompatible,2,block_switch1_b,instruction/ready_test.png,instruction/i11.png,,,,,,,,,,,,,,,,,0,0,0,0,0,89,89,89,,,,,,,,,,,,,,,,,,,,,,,,,,,668.7673468999565,668.969722699956,668.9509061999852,669.2514330999693,669.2514330999693,None,669.7521000999841,None,d,1,1.2578448000131175,669.7521000999841,None,None,None,,,,,,,,,,,,,,,,,,,,,,,11011,1,2,2024_Jun_18_1900,stroop_task_switching2_b,2021.2.3,59.83752914368472,
,,,黄,green,f,square,color_mix,单词,,incompatible,1,block_switch1_b,instruction/ready_test.png,instruction/i11.png,,,,,,,,,,,,,,,,,0,0,0,0,0,90,90,90,,,,,,,,,,,,,,,,,,,,,,,,,,,671.0373835999635,671.2384398999857,671.2213736000122,671.5214083999745,671.5214083999745,None,672.0222317999578,None,f,1,1.3963388999691233,672.0222317999578,None,None,None,,,,,,,,,,,,,,,,,,,,,,,11011,1,2,2024_Jun_18_1900,stroop_task_switching2_b,2021.2.3,59.83752914368472,
,,,蓝,blue,j,square,color_mix,单词,,compatible,1,block_switch1_b,instruction/ready_test.png,instruction/i11.png,,,,,,,,,,,,,,,,,0,0,0,0,0,91,91,91,,,,,,,,,,,,,,,,,,,,,,,,,,,673.4409091999987,673.6413611999596,673.624746299989,673.9264267999679,673.9264267999679,None,674.4256401999737,None,j,1,0.8328979999641888,674.4256401999737,None,None,None,,,,,,,,,,,,,,,,,,,,,,,11011,1,2,2024_Jun_18_1900,stroop_task_switching2_b,2021.2.3,59.83752914368472,
,,,蓝,red,j,square,color_mix,单词,,incompatible,1,block_switch1_b,instruction/ready_test.png,instruction/i11.png,,,,,,,,,,,,,,,,,0,0,0,0,0,92,92,92,,,,,,,,,,,,,,,,,,,,,,,,,,,675.2771444999962,675.4780716999667,675.4607313000015,675.7625892999931,675.7625892999931,None,676.2618832999724,None,j,1,0.6445331000140868,676.2618832999724,None,None,None,,,,,,,,,,,,,,,,,,,,,,,11011,1,2,2024_Jun_18_1900,stroop_task_switching2_b,2021.2.3,59.83752914368472,
,,,黄,blue,f,square,color_mix,单词,,incompatible,1,block_switch1_b,instruction/ready_test.png,instruction/i11.png,,,,,,,,,,,,,,,,,0,0,0,0,0,93,93,93,,,,,,,,,,,,,,,,,,,,,,,,,,,676.9295455999672,677.129998199991,677.1150000999914,677.4309154999792,677.4136553999851,None,677.9153021000093,None,f,1,0.9353886999888346,677.9153021000093,None,None,None,,,,,,,,,,,,,,,,,,,,,,,11011,1,2,2024_Jun_18_1900,stroop_task_switching2_b,2021.2.3,59.83752914368472,
,,,绿,red,k,diamond,color_mix,颜色,,incompatible,2,block_switch1_b,instruction/ready_test.png,instruction/i11.png,,,,,,,,,,,,,,,,,0,0,0,0,0,94,94,94,,,,,,,,,,,,,,,,,,,,,,,,,,,678.8657558999839,679.0660361999762,679.050724199973,679.3500425000093,679.3500425000093,None,679.8507138999994,None,k,1,0.8396206000470556,679.8507138999994,None,None,None,,,,,,,,,,,,,,,,,,,,,,,11011,1,2,2024_Jun_18_1900,stroop_task_switching2_b,2021.2.3,59.83752914368472,
,,,蓝,blue,j,diamond,color_mix,颜色,,compatible,1,block_switch1_b,instruction/ready_test.png,instruction/i11.png,,,,,,,,,,,,,,,,,0,0,0,0,0,95,95,95,,,,,,,,,,,,,,,,,,,,,,,,,,,680.7186404999811,680.9200074999826,680.9022437999956,681.2033620000002,681.2033620000002,None,681.7035692000063,None,j,1,0.7229108000174165,681.7035692000063,None,None,None,,,,,,,,,,,,,,,,,,,,,,,11011,1,2,2024_Jun_18_1900,stroop_task_switching2_b,2021.2.3,59.83752914368472,
,,,绿,green,d,square,color_mix,单词,,compatible,2,block_switch1_b,instruction/ready_test.png,instruction/i11.png,,,,,,,,,,,,,,,,,0,0,0,0,0,96,96,96,,,,,,,,,,,,,,,,,,,,,,,,,,,682.4545736999717,682.6549952999922,682.6386368999956,682.9400356999831,682.9400356999831,None,683.4395346000092,None,d,1,0.7632205000263639,683.4395346000092,None,None,None,,,,,,,,,,,,,,,,,,,,,,,11011,1,2,2024_Jun_18_1900,stroop_task_switching2_b,2021.2.3,59.83752914368472,
,,,,,,,,,,,,block_switch1_b,instruction/ready_test.png,instruction/i11.png,,,,,,,,,,,,,,,,,0,0,0,0,,,,,,,,,,,,,,,,,,,,,,,,,,,,,,,,,,,,,,,,,,,,,,,,,,,,,,,,,,,,684.2239572000108,None,space,4.082704800006468,684.2239572000108,None,,,11011,1,2,2024_Jun_18_1900,stroop_task_switching2_b,2021.2.3,59.83752914368472,
,,,蓝,blue,j,square,color_mix,单词,,compatible,0,block_switch2_b,instruction/ready_2.png,instruction/i12.png,,,,,,,,,,,,,,,,,0,1,1,1,0,0,0,0,,,,,,,,,,,,,,,,,,,692.3529118999722,693.3551003999892,693.3551003999892,694.3570057000034,694.3570057000034,None,691.3679444000009,692.3705481999787,695.3735211999738,695.5755932999891,695.5755932999891,695.8769861999899,695.8583011999726,None,696.3589625000022,None,j,1,0.4998986999853514,696.3589625000022,None,None,None,,,,,,,,,688.3468714999617,None,space,3.008060200023465,688.3468714999617,None,,,,,,,,,11011,1,2,2024_Jun_18_1900,stroop_task_switching2_b,2021.2.3,59.83752914368472,
,,,黄,red,k,diamond,color_mix,颜色,,incompatible,2,block_switch2_b,instruction/ready_2.png,instruction/i12.png,,,,,,,,,,,,,,,,,0,1,1,1,0,1,1,1,,,,,,,,,,,,,,,,,,,,,,,,,,,696.9096936999704,697.1108524999581,697.0607853999827,697.3615696000052,697.3615696000052,None,697.8612417000113,None,k,1,0.9741854000021704,697.8612417000113,None,None,None,,,,,,,,,,,,,,,,,,,,,,,11011,1,2,2024_Jun_18_1900,stroop_task_switching2_b,2021.2.3,59.83752914368472,
,,,蓝,green,d,diamond,color_mix,颜色,,incompatible,1,block_switch2_b,instruction/ready_2.png,instruction/i12.png,,,,,,,,,,,,,,,,,0,1,1,1,0,2,2,2,,,,,,,,,,,,,,,,,,,,,,,,,,,698.8630293000024,699.0644980999641,699.0462893999647,699.3475830999669,699.3475830999669,None,699.8482755000005,None,d,1,1.5863537000259385,699.8482755000005,None,None,None,,,,,,,,,,,,,,,,,,,,,,,11011,1,2,2024_Jun_18_1900,stroop_task_switching2_b,2021.2.3,59.83752914368472,
,,,红,yellow,f,diamond,color_mix,颜色,,incompatible,1,block_switch2_b,instruction/ready_2.png,instruction/i12.png,,,,,,,,,,,,,,,,,0,1,1,1,0,3,3,3,,,,,,,,,,,,,,,,,,,,,,,,,,,701.4842731999815,701.6842503999942,701.651786900009,701.968598300009,701.9506005999865,None,702.4515075999661,None,f,1,1.063809700019192,702.4515075999661,None,None,None,,,,,,,,,,,,,,,,,,,,,,,11011,1,2,2024_Jun_18_1900,stroop_task_switching2_b,2021.2.3,59.83752914368472,
,,,红,red,k,diamond,color_mix,颜色,,compatible,1,block_switch2_b,instruction/ready_2.png,instruction/i12.png,,,,,,,,,,,,,,,,,0,1,1,1,0,4,4,4,,,,,,,,,,,,,,,,,,,,,,,,,,,703.5363707999932,703.7385144999716,703.7205736999749,704.0217445999733,704.0217445999733,None,704.5225842999644,None,k,1,0.6244835999677889,704.5225842999644,None,None,None,,,,,,,,,,,,,,,,,,,,,,,11011,1,2,2024_Jun_18_1900,stroop_task_switching2_b,2021.2.3,59.83752914368472,
,,,绿,green,d,square,color_mix,单词,,compatible,2,block_switch2_b,instruction/ready_2.png,instruction/i12.png,,,,,,,,,,,,,,,,,0,1,1,1,0,5,5,5,,,,,,,,,,,,,,,,,,,,,,,,,,,705.1721443999559,705.3733133999631,705.355708899966,705.6578146999818,705.6578146999818,None,706.1569245999563,None,d,1,0.6781499999924563,706.1569245999563,None,None,None,,,,,,,,,,,,,,,,,,,,,,,11011,1,2,2024_Jun_18_1900,stroop_task_switching2_b,2021.2.3,59.83752914368472,
,,,黄,blue,j,diamond,color_mix,颜色,,incompatible,2,block_switch2_b,instruction/ready_2.png,instruction/i12.png,,,,,,,,,,,,,,,,,0,1,1,1,0,6,6,6,,,,,,,,,,,,,,,,,,,,,,,,,,,706.8581278999918,707.0599594999803,707.0418305000057,707.3433875999763,707.3433875999763,None,707.8441761999857,None,j,1,0.526782099972479,707.8441761999857,None,None,None,,,,,,,,,,,,,,,,,,,,,,,11011,1,2,2024_Jun_18_1900,stroop_task_switching2_b,2021.2.3,59.83752914368472,
,,,绿,yellow,d,square,color_mix,单词,,incompatible,2,block_switch2_b,instruction/ready_2.png,instruction/i12.png,,,,,,,,,,,,,,,,,0,1,1,1,0,7,7,7,,,,,,,,,,,,,,,,,,,,,,,,,,,708.3935782999615,708.5942185999593,708.5776383999619,708.8778439000016,708.8778439000016,None,709.3792776999762,None,d,1,0.7041530999704264,709.3792776999762,None,None,None,,,,,,,,,,,,,,,,,,,,,,,11011,1,2,2024_Jun_18_1900,stroop_task_switching2_b,2021.2.3,59.83752914368472,
