b_pra,ins_blocks,ins_blocks2,stim_word,stim_color,corrAns,cue_type,trial_type,task_type,rand,compatibility,switch,b_test,w_pic,w_pic2,trials_instr.thisRepN,trials_instr.thisTrialN,trials_instr.thisN,trials_instr.thisIndex,block_pra.thisRepN,block_pra.thisTrialN,block_pra.thisN,block_pra.thisIndex,trials_rep.thisRepN,trials_rep.thisTrialN,trials_rep.thisN,trials_rep.thisIndex,trials_pra.thisRepN,trials_pra.thisTrialN,trials_pra.thisN,trials_pra.thisIndex,trials_3.thisRepN,trials_3.thisTrialN,trials_3.thisN,trials_3.thisIndex,trials_2.thisRepN,trials_2.thisTrialN,trials_2.thisN,trials_2.thisIndex,instr_image.started,instr_image.stopped,instr_key_resp.keys,instr_key_resp.rt,instr_key_resp.started,instr_key_resp.stopped,instr_pra_image.started,instr_pra_image.stopped,ip_key_resp.keys,ip_key_resp.rt,ip_key_resp.started,ip_key_resp.stopped,block_image.started,block_image.stopped,ib_key_resp.keys,ib_key_resp.rt,ib_key_resp.started,ib_key_resp.stopped,cd3.started,cd3.stopped,cd2.started,cd2.stopped,cd1.started,cd1.stopped,cd_text.started,cd_text.stopped,text_fix.started,text_fix.stopped,text_2.started,text_2.stopped,text_4.started,text_4.stopped,text_target.started,text_target.stopped,key_resp.keys,key_resp.corr,key_resp.rt,key_resp.started,key_resp.stopped,sceen_black.started,sceen_black.stopped,text_fb.started,text_fb.stopped,text.started,text.stopped,key_bf.keys,key_bf.rt,key_bf.started,key_bf.stopped,instr_test_image.started,instr_test_image.stopped,instr_exp_key_resp.keys,instr_exp_key_resp.rt,instr_exp_key_resp.started,instr_exp_key_resp.stopped,text_rest.started,text_rest.stopped,key_resp_rest.keys,key_resp_rest.rt,key_resp_rest.started,key_resp_rest.stopped,text_3.started,text_3.stopped,participant,session,balance,date,expName,psychopyVersion,frameRate,
,,,,,,,,,,,,,,,0,0,0,0,,,,,,,,,,,,,,,,,,,,,8.528503399982583,None,right,2.323091200029012,8.528503399982583,None,,,,,,,,,,,,,,,,,,,,,,,,,,,,,,,,,,,,,,,,,,,,,,,,,,,,,,,,,,11019,2,1,2024_Jun_01_1041,stroop_task_switching2,2021.2.3,59.8381020174731,
,,,,,,,,,,,,,,,1,0,1,0,,,,,,,,,,,,,,,,,,,,,10.898991899972316,None,right,28.137680600048043,10.898991899972316,None,,,,,,,,,,,,,,,,,,,,,,,,,,,,,,,,,,,,,,,,,,,,,,,,,,,,,,,,,,11019,2,1,2024_Jun_01_1041,stroop_task_switching2,2021.2.3,59.8381020174731,
,,,,,,,,,,,,,,,2,0,2,0,,,,,,,,,,,,,,,,,,,,,39.07484630000545,None,right,20.330560299975332,39.07484630000545,None,,,,,,,,,,,,,,,,,,,,,,,,,,,,,,,,,,,,,,,,,,,,,,,,,,,,,,,,,,11019,2,1,2024_Jun_01_1041,stroop_task_switching2,2021.2.3,59.8381020174731,
,,,,,,,,,,,,,,,3,0,3,0,,,,,,,,,,,,,,,,,,,,,59.438761900004465,None,right,6.65441599994665,59.438761900004465,None,,,,,,,,,,,,,,,,,,,,,,,,,,,,,,,,,,,,,,,,,,,,,,,,,,,,,,,,,,11019,2,1,2024_Jun_01_1041,stroop_task_switching2,2021.2.3,59.8381020174731,
,,,,,,,,,,,,,,,4,0,4,0,,,,,,,,,,,,,,,,,,,,,66.13238660001662,None,right,24.521551800018642,66.13238660001662,None,,,,,,,,,,,,,,,,,,,,,,,,,,,,,,,,,,,,,,,,,,,,,,,,,,,,,,,,,,11019,2,1,2024_Jun_01_1041,stroop_task_switching2,2021.2.3,59.8381020174731,
,,,,,,,,,,,,,,,5,0,5,0,,,,,,,,,,,,,,,,,,,,,90.68586959998356,None,right,1.8639982999884523,90.68586959998356,None,,,,,,,,,,,,,,,,,,,,,,,,,,,,,,,,,,,,,,,,,,,,,,,,,,,,,,,,,,11019,2,1,2024_Jun_01_1041,stroop_task_switching2,2021.2.3,59.8381020174731,
,,,,,,,,,,,,,,,,,,,,,,,,,,,,,,,,,,,,,,,,,,,,,92.58980549999978,None,space,3.776381900010165,92.58980549999978,None,,,,,,,,,,,,,,,,,,,,,,,,,,,,,,,,,,,,,,,,,,,,,,,,,,,,11019,2,1,2024_Jun_01_1041,stroop_task_switching2,2021.2.3,59.8381020174731,
condition/block_color,instruction/instr_color,instruction/i8,XX,red,d,diamond,color_single,颜色,,,,,,,,,,,0,0,0,0,0,0,0,0,0,0,0,0,,,,,,,,,,,,,,,,,,,,,96.41110179998213,None,space,6.875309099967126,96.41110179998213,None,104.35656200000085,105.35809320001863,105.35809320001863,106.3607319999719,106.3607319999719,None,103.37160750001203,104.3738271999755,107.32757269998547,107.5305816999753,107.51207589998376,107.81231359997764,107.81231359997764,None,108.31369450001512,None,d,1,0.9730633000144735,108.31369450001512,None,None,None,109.3138044999796,None,,,,,,,,,,,,,,,,,,,,,11019,2,1,2024_Jun_01_1041,stroop_task_switching2,2021.2.3,59.8381020174731,
condition/block_color,instruction/instr_color,instruction/i8,XX,green,k,diamond,color_single,颜色,,,,,,,,,,,0,0,0,0,0,0,0,0,0,1,1,1,,,,,,,,,,,,,,,,,,,,,,,,,,,,,,,,,,,110.31556469999487,110.51640139997471,110.49987820000388,110.80041089997394,110.80041089997394,None,111.30026109999744,None,k,1,2.778148599958513,111.30026109999744,None,None,None,114.10441799997352,None,,,,,,,,,,,,,,,,,,,,,11019,2,1,2024_Jun_01_1041,stroop_task_switching2,2021.2.3,59.8381020174731,
condition/block_color,instruction/instr_color,instruction/i8,XX,yellow,j,diamond,color_single,颜色,,,,,,,,,,,0,0,0,0,0,0,0,0,0,2,2,2,,,,,,,,,,,,,,,,,,,,,,,,,,,,,,,,,,,115.10625229997095,115.30663669999922,115.29029520001495,115.59082179999677,115.59082179999677,None,116.09144170000218,None,j,1,1.1868803999968804,116.09144170000218,None,None,None,117.29259189998265,None,,,,,,,,,,,,,,,,,,,,,11019,2,1,2024_Jun_01_1041,stroop_task_switching2,2021.2.3,59.8381020174731,
condition/block_color,instruction/instr_color,instruction/i8,XX,blue,f,diamond,color_single,颜色,,,,,,,,,,,0,0,0,0,0,0,0,0,0,3,3,3,,,,,,,,,,,,,,,,,,,,,,,,,,,,,,,,,,,118.2942346999771,118.49454529996729,118.47963680000976,118.79583069996443,118.77827169996453,None,119.27894509996986,None,f,1,1.0958134999964386,119.27894509996986,None,None,None,120.39738380000927,None,,,,,,,,,,,,,,,,,,,,,11019,2,1,2024_Jun_01_1041,stroop_task_switching2,2021.2.3,59.8381020174731,
condition/block_color,instruction/instr_color,instruction/i8,XX,green,k,diamond,color_single,颜色,,,,,,,,,,,0,0,0,0,0,0,0,0,0,4,4,4,,,,,,,,,,,,,,,,,,,,,,,,,,,,,,,,,,,121.39890610001748,121.60007230000338,121.58244089997606,121.88438020000467,121.88438020000467,None,122.3833896999713,None,k,1,1.055191699997522,122.3833896999713,None,None,None,123.4686565999873,None,,,,,,,,,,,,,,,,,,,,,11019,2,1,2024_Jun_01_1041,stroop_task_switching2,2021.2.3,59.8381020174731,
condition/block_color,instruction/instr_color,instruction/i8,XX,yellow,j,diamond,color_single,颜色,,,,,,,,,,,0,0,0,0,0,0,0,0,0,5,5,5,,,,,,,,,,,,,,,,,,,,,,,,,,,,,,,,,,,124.47004469996318,124.67121000000043,124.6537946999888,124.95544340001652,124.95544340001652,None,125.45501629996579,None,j,1,1.6004669000394642,125.45501629996579,None,None,None,127.07412349997321,None,,,,,,,,,,,,,,,,,,,,,11019,2,1,2024_Jun_01_1041,stroop_task_switching2,2021.2.3,59.8381020174731,
condition/block_color,instruction/instr_color,instruction/i8,XX,blue,f,diamond,color_single,颜色,,,,,,,,,,,0,0,0,0,0,0,0,0,0,6,6,6,,,,,,,,,,,,,,,,,,,,,,,,,,,,,,,,,,,128.07635370001663,128.27852619998157,128.25924569997005,128.5613937000162,128.5613937000162,None,129.06093999999575,None,f,1,1.0899158000247553,129.06093999999575,None,None,None,130.1787038000184,None,,,,,,,,,,,,,,,,,,,,,11019,2,1,2024_Jun_01_1041,stroop_task_switching2,2021.2.3,59.8381020174731,
condition/block_color,instruction/instr_color,instruction/i8,XX,red,d,diamond,color_single,颜色,,,,,,,,,,,0,0,0,0,0,0,0,0,0,7,7,7,,,,,,,,,,,,,,,,,,,,,,,,,,,,,,,,,,,131.1801761999959,131.38043449999532,131.36452429997735,131.66524920001393,131.66524920001393,None,132.16509829997085,None,d,1,0.7537715000216849,132.16509829997085,None,None,None,132.94956979999552,None,,,,,,,,,,,,,,,,,,,,,11019,2,1,2024_Jun_01_1041,stroop_task_switching2,2021.2.3,59.8381020174731,
condition/block_color,instruction/instr_color,instruction/i8,XX,yellow,j,diamond,color_single,颜色,,,,,,,,,,,0,0,0,0,0,0,0,0,0,8,8,8,,,,,,,,,,,,,,,,,,,,,,,,,,,,,,,,,,,133.95100170001388,134.15270169998985,134.13470290001715,134.43525260000024,134.43525260000024,None,134.9367416999885,None,j,1,1.5662220000522211,134.9367416999885,None,None,None,136.52157169999555,None,,,,,,,,,,,,,,,,,,,,,11019,2,1,2024_Jun_01_1041,stroop_task_switching2,2021.2.3,59.8381020174731,
condition/block_color,instruction/instr_color,instruction/i8,XX,blue,f,diamond,color_single,颜色,,,,,,,,,,,0,0,0,0,0,0,0,0,0,9,9,9,,,,,,,,,,,,,,,,,,,,,,,,,,,,,,,,,,,137.52389720000792,137.7243143999949,137.7072521999944,138.00885350001045,138.00885350001045,None,138.50778859999264,None,f,1,0.9636181000387296,138.50778859999264,None,None,None,139.4929378000088,None,,,,,,,,,,,,,,,,,,,,,11019,2,1,2024_Jun_01_1041,stroop_task_switching2,2021.2.3,59.8381020174731,
condition/block_color,instruction/instr_color,instruction/i8,XX,red,d,diamond,color_single,颜色,,,,,,,,,,,0,0,0,0,0,0,0,0,0,10,10,10,,,,,,,,,,,,,,,,,,,,,,,,,,,,,,,,,,,140.4947666999651,140.69456370000262,140.6790054999874,140.9786978000193,140.9786978000193,None,141.47888619999867,None,d,1,0.6882341000018641,141.47888619999867,None,None,None,142.1966597000137,None,,,,,,,,,,,,,,,,,,,,,11019,2,1,2024_Jun_01_1041,stroop_task_switching2,2021.2.3,59.8381020174731,
condition/block_color,instruction/instr_color,instruction/i8,XX,green,k,diamond,color_single,颜色,,,,,,,,,,,0,0,0,0,0,0,0,0,0,11,11,11,,,,,,,,,,,,,,,,,,,,,,,,,,,,,,,,,,,143.198401200003,143.39937009999994,143.38284400000703,143.68460909998976,143.68460909998976,None,144.1833031999995,None,f,0,0.9849727000109851,144.1833031999995,None,None,None,145.18461479997495,None,,,,,,,,,,,,,,,,,,,,,11019,2,1,2024_Jun_01_1041,stroop_task_switching2,2021.2.3,59.8381020174731,
condition/block_color,instruction/instr_color,instruction/i8,XX,blue,f,diamond,color_single,颜色,,,,,,,,,,,0,0,0,0,0,0,0,0,0,12,12,12,,,,,,,,,,,,,,,,,,,,,,,,,,,,,,,,,,,146.1870048000128,146.38837319996674,146.37016350001795,146.67082749999827,146.67082749999827,None,147.17215399997076,None,f,1,1.4271153000299819,147.17215399997076,None,None,None,148.62308399996255,None,,,,,,,,,,,,,,,,,,,,,11019,2,1,2024_Jun_01_1041,stroop_task_switching2,2021.2.3,59.8381020174731,
condition/block_color,instruction/instr_color,instruction/i8,XX,red,d,diamond,color_single,颜色,,,,,,,,,,,0,0,0,0,0,0,0,0,0,13,13,13,,,,,,,,,,,,,,,,,,,,,,,,,,,,,,,,,,,149.6251379000023,149.82592819997808,149.80854729999555,150.11019039998064,150.11019039998064,None,150.61056499998085,None,d,1,0.7650578999891877,150.61056499998085,None,None,None,151.39401699998416,None,,,,,,,,,,,,,,,,,,,,,11019,2,1,2024_Jun_01_1041,stroop_task_switching2,2021.2.3,59.8381020174731,
condition/block_color,instruction/instr_color,instruction/i8,XX,green,k,diamond,color_single,颜色,,,,,,,,,,,0,0,0,0,0,0,0,0,0,14,14,14,,,,,,,,,,,,,,,,,,,,,,,,,,,,,,,,,,,152.39561940002022,152.5967920999974,152.57929009996587,152.88007630000357,152.88007630000357,None,153.38040439999895,None,k,1,1.3158137999707833,153.38040439999895,None,None,None,154.71587239997461,None,,,,,,,,,,,,,,,,,,,,,11019,2,1,2024_Jun_01_1041,stroop_task_switching2,2021.2.3,59.8381020174731,
condition/block_color,instruction/instr_color,instruction/i8,XX,yellow,j,diamond,color_single,颜色,,,,,,,,,,,0,0,0,0,0,0,0,0,0,15,15,15,,,,,,,,,,,,,,,,,,,,,,,,,,,,,,,,,,,155.71810280001955,155.91902749997098,155.90128370001912,156.20127349998802,156.20127349998802,None,156.70280189998448,None,f,0,0.9287133999750949,156.70280189998448,None,None,None,157.65361169999233,None,,,,,,,,,,,,,,,,,,,,,11019,2,1,2024_Jun_01_1041,stroop_task_switching2,2021.2.3,59.8381020174731,
condition/block_color,instruction/instr_color,instruction/i8,XX,red,d,diamond,color_single,颜色,,,,,,,,,,,0,0,0,0,0,0,0,0,0,16,16,16,,,,,,,,,,,,,,,,,,,,,,,,,,,,,,,,,,,158.65563980001025,158.85661740001524,158.83864899998298,159.1389921999653,159.1389921999653,None,159.6405277000158,None,d,1,0.8076638999627903,159.6405277000158,None,None,None,160.4745112999808,None,,,,,,,,,,,,,,,,,,,,,11019,2,1,2024_Jun_01_1041,stroop_task_switching2,2021.2.3,59.8381020174731,
condition/block_color,instruction/instr_color,instruction/i8,XX,green,k,diamond,color_single,颜色,,,,,,,,,,,0,0,0,0,0,0,0,0,0,17,17,17,,,,,,,,,,,,,,,,,,,,,,,,,,,,,,,,,,,161.47587939997902,161.67649320000783,161.66020450001815,161.9621326000197,161.9621326000197,None,162.46093190001557,None,k,1,1.0748606999986805,162.46093190001557,None,None,None,163.56289539998397,None,,,,,,,,,,,,,,,,,,,,,11019,2,1,2024_Jun_01_1041,stroop_task_switching2,2021.2.3,59.8381020174731,
condition/block_color,instruction/instr_color,instruction/i8,XX,yellow,j,diamond,color_single,颜色,,,,,,,,,,,0,0,0,0,0,0,0,0,0,18,18,18,,,,,,,,,,,,,,,,,,,,,,,,,,,,,,,,,,,164.56388899998274,164.7652329999837,164.74827360000927,165.0485848999815,165.0485848999815,None,165.54889129998628,None,j,1,0.6750537999905646,165.54889129998628,None,None,None,166.25008309999248,None,,,,,,,,,,,,,,,,,,,,,11019,2,1,2024_Jun_01_1041,stroop_task_switching2,2021.2.3,59.8381020174731,
condition/block_color,instruction/instr_color,instruction/i8,XX,blue,f,diamond,color_single,颜色,,,,,,,,,,,0,0,0,0,0,0,0,0,0,19,19,19,,,,,,,,,,,,,,,,,,,,,,,,,,,,,,,,,,,167.25151059997734,167.4516476999852,167.435364999983,167.73610290000215,167.73610290000215,None,168.23656029999256,None,f,1,0.5313674000208266,168.23656029999256,None,None,None,168.7869111999753,None,,,,,,,,,,,,,,,,,,,,,11019,2,1,2024_Jun_01_1041,stroop_task_switching2,2021.2.3,59.8381020174731,
condition/block_color,instruction/instr_color,instruction/i8,XX,green,k,diamond,color_single,颜色,,,,,,,,,,,0,0,0,0,0,0,0,0,0,20,20,20,,,,,,,,,,,,,,,,,,,,,,,,,,,,,,,,,,,169.78903549996903,169.99082629999612,169.97242509998614,170.2733627000125,170.2733627000125,None,170.7740868999972,None,k,1,1.034276599995792,170.7740868999972,None,None,None,171.82551769999554,None,,,,,,,,,,,,,,,,,,,,,11019,2,1,2024_Jun_01_1041,stroop_task_switching2,2021.2.3,59.8381020174731,
condition/block_color,instruction/instr_color,instruction/i8,XX,yellow,j,diamond,color_single,颜色,,,,,,,,,,,0,0,0,0,0,0,0,0,0,21,21,21,,,,,,,,,,,,,,,,,,,,,,,,,,,,,,,,,,,172.82664539996767,173.02900829998543,173.01068349997513,173.31146240001544,173.31146240001544,None,173.8114505999838,None,k,0,1.4690934999962337,173.8114505999838,None,None,None,175.29709790000925,None,,,,,,,,,,,,,,,,,,,,,11019,2,1,2024_Jun_01_1041,stroop_task_switching2,2021.2.3,59.8381020174731,
condition/block_color,instruction/instr_color,instruction/i8,XX,blue,f,diamond,color_single,颜色,,,,,,,,,,,0,0,0,0,0,0,0,0,0,22,22,22,,,,,,,,,,,,,,,,,,,,,,,,,,,,,,,,,,,176.2993636999745,176.50012059998699,176.48312709998572,176.78413669997826,176.78413669997826,None,177.28353289997904,None,f,1,0.8766738999984227,177.28353289997904,None,None,None,178.18479819997447,None,,,,,,,,,,,,,,,,,,,,,11019,2,1,2024_Jun_01_1041,stroop_task_switching2,2021.2.3,59.8381020174731,
condition/block_color,instruction/instr_color,instruction/i8,XX,red,d,diamond,color_single,颜色,,,,,,,,,,,0,0,0,0,0,0,0,0,0,23,23,23,,,,,,,,,,,,,,,,,,,,,,,,,,,,,,,,,,,179.18613280000864,179.3883075999911,179.37009129999205,179.67006769997533,179.67006769997533,None,180.17184039996937,None,d,1,0.6763664999743924,180.17184039996937,None,None,None,180.87303590000374,None,,,,,,,,,,,,,,,,,,,,,11019,2,1,2024_Jun_01_1041,stroop_task_switching2,2021.2.3,59.8381020174731,
condition/block_color,instruction/instr_color,instruction/i8,,,,,,,,,,,,,,,,,0,0,0,0,0,0,0,0,,,,,,,,,,,,,,,,,,,,,,,,,,,,,,,,,,,,,,,,,,,,,,,,,,,,,,,,181.89033379999455,None,space,8.851246499980334,181.89033379999455,None,,,,,,,,,,,,,,,11019,2,1,2024_Jun_01_1041,stroop_task_switching2,2021.2.3,59.8381020174731,
condition/block_color,instruction/instr_color,instruction/i8,,,,,,,,,,,,,,,,,0,0,0,0,,,,,,,,,,,,,,,,,,,,,,,,,,,,,,,,,,,,,,,,,,,,,,,,,,,,,,,,,,,,,,,,,,,,,,,,,,,,,,,,11019,2,1,2024_Jun_01_1041,stroop_task_switching2,2021.2.3,59.8381020174731,
condition/block_word,instruction/instr_word,instruction/i9,黄,white,j,square,word_single,单词,0.0032461461866890584,,,,,,,,,,0,1,1,1,0,0,0,0,0,0,0,0,,,,,,,,,,,,,,,,,,,,,190.7864847999881,None,space,20.11879770003725,190.7864847999881,None,211.93740699999034,212.93891409999924,212.93891409999924,213.93990649998887,213.93990649998887,None,210.95112199999858,211.9526526000118,214.95659339998383,215.1572129999986,215.14185660000658,215.44058200001018,215.44058200001018,None,215.94213320000563,None,j,1,1.6108071000198834,215.94213320000563,None,None,None,217.57725430000573,None,,,,,,,,,,,,,,,,,,,,,11019,2,1,2024_Jun_01_1041,stroop_task_switching2,2021.2.3,59.8381020174731,
condition/block_word,instruction/instr_word,instruction/i9,蓝,white,f,square,word_single,单词,0.060540570646362424,,,,,,,,,,0,1,1,1,0,0,0,0,0,1,1,1,,,,,,,,,,,,,,,,,,,,,,,,,,,,,,,,,,,218.57932799996343,218.7790215999703,218.76257939997595,219.06432880001375,219.06432880001375,None,219.5642531000194,222.5678408999811,None,0,,219.5642531000194,222.5678408999811,222.5526305999956,None,223.10218950000126,None,,,,,,,,,,,,,,,,,,,,,11019,2,1,2024_Jun_01_1041,stroop_task_switching2,2021.2.3,59.8381020174731,
condition/block_word,instruction/instr_word,instruction/i9,黄,white,j,square,word_single,单词,0.06994067193778963,,,,,,,,,,0,1,1,1,0,0,0,0,0,2,2,2,,,,,,,,,,,,,,,,,,,,,,,,,,,,,,,,,,,224.10438370000338,224.3043886999949,224.28919410001254,224.58823130000383,224.58823130000383,None,225.0894649999682,None,j,1,1.2884404000360519,225.0894649999682,None,None,None,226.40703489998123,None,,,,,,,,,,,,,,,,,,,,,11019,2,1,2024_Jun_01_1041,stroop_task_switching2,2021.2.3,59.8381020174731,
condition/block_word,instruction/instr_word,instruction/i9,蓝,white,f,square,word_single,单词,0.08193765152950094,,,,,,,,,,0,1,1,1,0,0,0,0,0,3,3,3,,,,,,,,,,,,,,,,,,,,,,,,,,,,,,,,,,,227.40912789996946,227.60970129998168,227.59227819996886,227.89282140001887,227.89282140001887,None,228.39445329998853,None,f,1,0.7111326000303961,228.39445329998853,None,None,None,229.12767069996335,None,,,,,,,,,,,,,,,,,,,,,11019,2,1,2024_Jun_01_1041,stroop_task_switching2,2021.2.3,59.8381020174731,
condition/block_word,instruction/instr_word,instruction/i9,红,white,d,square,word_single,单词,0.1279694370605574,,,,,,,,,,0,1,1,1,0,0,0,0,0,4,4,4,,,,,,,,,,,,,,,,,,,,,,,,,,,,,,,,,,,230.1302784999716,230.33033329999307,230.31370950001292,230.61478509998415,230.61478509998415,None,231.11442669999087,None,d,1,0.7836985000176355,231.11442669999087,None,None,None,231.9157713999739,None,,,,,,,,,,,,,,,,,,,,,11019,2,1,2024_Jun_01_1041,stroop_task_switching2,2021.2.3,59.8381020174731,
condition/block_word,instruction/instr_word,instruction/i9,红,white,d,square,word_single,单词,0.18345028784879092,,,,,,,,,,0,1,1,1,0,0,0,0,0,5,5,5,,,,,,,,,,,,,,,,,,,,,,,,,,,,,,,,,,,232.91744029999245,233.11828749999404,233.10238709999248,233.40117179998197,233.40117179998197,None,233.90155640000012,None,d,1,0.7079871000023559,233.90155640000012,None,None,None,234.6364392999676,None,,,,,,,,,,,,,,,,,,,,,11019,2,1,2024_Jun_01_1041,stroop_task_switching2,2021.2.3,59.8381020174731,
condition/block_word,instruction/instr_word,instruction/i9,蓝,white,f,square,word_single,单词,0.19920386223101294,,,,,,,,,,0,1,1,1,0,0,0,0,0,6,6,6,,,,,,,,,,,,,,,,,,,,,,,,,,,,,,,,,,,235.638098299969,235.83876010001404,235.82182219997048,236.12341950001428,236.12341950001428,None,236.62300379999215,None,f,1,0.5161525000003166,236.62300379999215,None,None,None,237.15678069996648,None,,,,,,,,,,,,,,,,,,,,,11019,2,1,2024_Jun_01_1041,stroop_task_switching2,2021.2.3,59.8381020174731,
condition/block_word,instruction/instr_word,instruction/i9,蓝,white,f,square,word_single,单词,0.26360599864925405,,,,,,,,,,0,1,1,1,0,0,0,0,0,7,7,7,,,,,,,,,,,,,,,,,,,,,,,,,,,,,,,,,,,238.15939410001738,238.35946199996397,238.34304399997927,238.6425260999822,238.6425260999822,None,239.1437925999635,None,f,1,0.626147500006482,239.1437925999635,None,None,None,239.79430359997787,None,,,,,,,,,,,,,,,,,,,,,11019,2,1,2024_Jun_01_1041,stroop_task_switching2,2021.2.3,59.8381020174731,
condition/block_word,instruction/instr_word,instruction/i9,蓝,white,f,square,word_single,单词,0.358985675745526,,,,,,,,,,0,1,1,1,0,0,0,0,0,8,8,8,,,,,,,,,,,,,,,,,,,,,,,,,,,,,,,,,,,240.7960408999934,240.9963548000087,240.9796619999688,241.27986060001422,241.27986060001422,None,241.7804688999895,None,f,1,0.5664606999489479,241.7804688999895,None,None,None,242.36462130001746,None,,,,,,,,,,,,,,,,,,,,,11019,2,1,2024_Jun_01_1041,stroop_task_switching2,2021.2.3,59.8381020174731,
condition/block_word,instruction/instr_word,instruction/i9,绿,white,k,square,word_single,单词,0.36496733802487347,,,,,,,,,,0,1,1,1,0,0,0,0,0,9,9,9,,,,,,,,,,,,,,,,,,,,,,,,,,,,,,,,,,,243.36637060000794,243.56900139997015,243.55016019998584,243.8503883999656,243.8503883999656,None,244.35129510000115,None,k,1,1.3387569999904372,244.35129510000115,None,None,None,245.71985340001993,None,,,,,,,,,,,,,,,,,,,,,11019,2,1,2024_Jun_01_1041,stroop_task_switching2,2021.2.3,59.8381020174731,
condition/block_word,instruction/instr_word,instruction/i9,黄,white,j,square,word_single,单词,0.3743513623756727,,,,,,,,,,0,1,1,1,0,0,0,0,0,10,10,10,,,,,,,,,,,,,,,,,,,,,,,,,,,,,,,,,,,246.72179480001796,246.92243480001343,246.90523019997636,247.20581690000836,247.20581690000836,None,247.70636279997416,None,j,1,0.5435569999972358,247.70636279997416,None,None,None,248.2735031999764,None,,,,,,,,,,,,,,,,,,,,,11019,2,1,2024_Jun_01_1041,stroop_task_switching2,2021.2.3,59.8381020174731,
condition/block_word,instruction/instr_word,instruction/i9,红,white,d,square,word_single,单词,0.3894803852598544,,,,,,,,,,0,1,1,1,0,0,0,0,0,11,11,11,,,,,,,,,,,,,,,,,,,,,,,,,,,,,,,,,,,249.27565719996346,249.47556340001756,249.44286299997475,249.74296999996295,249.75929050002014,None,250.26131630002055,None,d,1,0.8525607000337914,250.26131630002055,None,None,None,251.1443794000079,None,,,,,,,,,,,,,,,,,,,,,11019,2,1,2024_Jun_01_1041,stroop_task_switching2,2021.2.3,59.8381020174731,
condition/block_word,instruction/instr_word,instruction/i9,绿,white,k,square,word_single,单词,0.5393759672408067,,,,,,,,,,0,1,1,1,0,0,0,0,0,12,12,12,,,,,,,,,,,,,,,,,,,,,,,,,,,,,,,,,,,252.14603760000318,252.3471868999768,252.3300230000168,252.63163650000934,252.63163650000934,None,253.13084820000222,None,k,1,1.8955072000389919,253.13084820000222,None,None,None,255.0503209999879,None,,,,,,,,,,,,,,,,,,,,,11019,2,1,2024_Jun_01_1041,stroop_task_switching2,2021.2.3,59.8381020174731,
condition/block_word,instruction/instr_word,instruction/i9,蓝,white,f,square,word_single,单词,0.5995731954831104,,,,,,,,,,0,1,1,1,0,0,0,0,0,13,13,13,,,,,,,,,,,,,,,,,,,,,,,,,,,,,,,,,,,256.0524756999803,256.25302639999427,256.23558829998365,256.53751619998366,256.53751619998366,None,257.0370525000035,None,f,1,0.7972117000026628,257.0370525000035,None,None,None,257.8546568999882,None,,,,,,,,,,,,,,,,,,,,,11019,2,1,2024_Jun_01_1041,stroop_task_switching2,2021.2.3,59.8381020174731,
condition/block_word,instruction/instr_word,instruction/i9,红,white,d,square,word_single,单词,0.6298674479151414,,,,,,,,,,0,1,1,1,0,0,0,0,0,14,14,14,,,,,,,,,,,,,,,,,,,,,,,,,,,,,,,,,,,258.85727869998664,259.0578923000139,259.0396732999943,259.34048399998574,259.34048399998574,None,259.84134059998905,None,d,1,0.62485610001022,259.84134059998905,None,None,None,260.49207969999406,None,,,,,,,,,,,,,,,,,,,,,11019,2,1,2024_Jun_01_1041,stroop_task_switching2,2021.2.3,59.8381020174731,
condition/block_word,instruction/instr_word,instruction/i9,红,white,d,square,word_single,单词,0.7389942282348904,,,,,,,,,,0,1,1,1,0,0,0,0,0,15,15,15,,,,,,,,,,,,,,,,,,,,,,,,,,,,,,,,,,,261.49411689996487,261.69531909999205,261.67736249999143,261.97745239996584,261.97745239996584,None,262.4791272999719,None,d,1,0.5716543999733403,262.4791272999719,None,None,None,263.07900919998065,None,,,,,,,,,,,,,,,,,,,,,11019,2,1,2024_Jun_01_1041,stroop_task_switching2,2021.2.3,59.8381020174731,
condition/block_word,instruction/instr_word,instruction/i9,绿,white,k,square,word_single,单词,0.7550853947239682,,,,,,,,,,0,1,1,1,0,0,0,0,0,16,16,16,,,,,,,,,,,,,,,,,,,,,,,,,,,,,,,,,,,264.08092999999644,264.28099659999134,264.26429029996507,264.5655986999627,264.5655986999627,None,265.0653782999725,None,k,1,0.8411581999971531,265.0653782999725,None,None,None,265.9334792000009,None,,,,,,,,,,,,,,,,,,,,,11019,2,1,2024_Jun_01_1041,stroop_task_switching2,2021.2.3,59.8381020174731,
condition/block_word,instruction/instr_word,instruction/i9,绿,white,k,square,word_single,单词,0.8019302780428206,,,,,,,,,,0,1,1,1,0,0,0,0,0,17,17,17,,,,,,,,,,,,,,,,,,,,,,,,,,,,,,,,,,,266.9349374999874,267.135841100011,267.11982169997646,267.4210897000157,267.4210897000157,None,267.93688539997675,None,k,1,0.641802900005132,267.93688539997675,None,None,None,268.6041269999696,None,,,,,,,,,,,,,,,,,,,,,11019,2,1,2024_Jun_01_1041,stroop_task_switching2,2021.2.3,59.8381020174731,
condition/block_word,instruction/instr_word,instruction/i9,绿,white,k,square,word_single,单词,0.8110702914095343,,,,,,,,,,0,1,1,1,0,0,0,0,0,18,18,18,,,,,,,,,,,,,,,,,,,,,,,,,,,,,,,,,,,269.6055569999735,269.80663559999084,269.7898961000028,270.09102990000974,270.09102990000974,None,270.5914079999784,None,k,1,0.6834221000317484,270.5914079999784,None,None,None,271.29193189996295,None,,,,,,,,,,,,,,,,,,,,,11019,2,1,2024_Jun_01_1041,stroop_task_switching2,2021.2.3,59.8381020174731,
condition/block_word,instruction/instr_word,instruction/i9,黄,white,j,square,word_single,单词,0.8176594937590999,,,,,,,,,,0,1,1,1,0,0,0,0,0,19,19,19,,,,,,,,,,,,,,,,,,,,,,,,,,,,,,,,,,,272.29428919998463,272.4954274999909,272.4785029999912,272.77707349997945,272.77707349997945,None,273.27795730001526,None,k,0,0.41311229998245835,273.27795730001526,None,None,None,273.7121640999685,None,,,,,,,,,,,,,,,,,,,,,11019,2,1,2024_Jun_01_1041,stroop_task_switching2,2021.2.3,59.8381020174731,
condition/block_word,instruction/instr_word,instruction/i9,红,white,d,square,word_single,单词,0.8955794421104841,,,,,,,,,,0,1,1,1,0,0,0,0,0,20,20,20,,,,,,,,,,,,,,,,,,,,,,,,,,,,,,,,,,,274.7139070999692,274.91376660001697,274.8976528000203,275.19780439999886,275.19780439999886,None,275.6985104000196,None,j,0,0.36022299999604,275.6985104000196,None,None,None,276.08288619999075,None,,,,,,,,,,,,,,,,,,,,,11019,2,1,2024_Jun_01_1041,stroop_task_switching2,2021.2.3,59.8381020174731,
condition/block_word,instruction/instr_word,instruction/i9,绿,white,k,square,word_single,单词,0.9113598052474129,,,,,,,,,,0,1,1,1,0,0,0,0,0,21,21,21,,,,,,,,,,,,,,,,,,,,,,,,,,,,,,,,,,,277.083825699985,277.28476209996734,277.26713350001955,277.56931439996697,277.56931439996697,None,278.06846759998007,None,k,1,1.151516400044784,278.06846759998007,None,None,None,279.23658959998284,None,,,,,,,,,,,,,,,,,,,,,11019,2,1,2024_Jun_01_1041,stroop_task_switching2,2021.2.3,59.8381020174731,
condition/block_word,instruction/instr_word,instruction/i9,黄,white,j,square,word_single,单词,0.9215930958042953,,,,,,,,,,0,1,1,1,0,0,0,0,0,22,22,22,,,,,,,,,,,,,,,,,,,,,,,,,,,,,,,,,,,280.2393036999856,280.43935860000784,280.4240909999935,280.7398907999741,280.7242594999843,None,281.2232229000074,None,j,1,2.1482327000121586,281.2232229000074,None,None,None,283.39325560000725,None,,,,,,,,,,,,,,,,,,,,,11019,2,1,2024_Jun_01_1041,stroop_task_switching2,2021.2.3,59.8381020174731,
condition/block_word,instruction/instr_word,instruction/i9,黄,white,j,square,word_single,单词,0.9493525498837774,,,,,,,,,,0,1,1,1,0,0,0,0,0,23,23,23,,,,,,,,,,,,,,,,,,,,,,,,,,,,,,,,,,,284.39466260001063,284.5952290999703,284.5790033999947,284.8790289000026,284.8790289000026,None,285.38002849998884,None,j,1,0.5748697000090033,285.38002849998884,None,None,None,285.98018219997175,None,,,,,,,,,,,,,,,,,,,,,11019,2,1,2024_Jun_01_1041,stroop_task_switching2,2021.2.3,59.8381020174731,
condition/block_word,instruction/instr_word,instruction/i9,,,,,,,,,,,,,,,,,0,1,1,1,0,0,0,0,,,,,,,,,,,,,,,,,,,,,,,,,,,,,,,,,,,,,,,,,,,,,,,,,,,,,,,,286.98116409999784,None,space,3.061465999984648,286.98116409999784,None,,,,,,,,,,,,,,,11019,2,1,2024_Jun_01_1041,stroop_task_switching2,2021.2.3,59.8381020174731,
condition/block_word,instruction/instr_word,instruction/i9,,,,,,,,,,,,,,,,,0,1,1,1,,,,,,,,,,,,,,,,,,,,,,,,,,,,,,,,,,,,,,,,,,,,,,,,,,,,,,,,,,,,,,,,,,,,,,,,,,,,,,,,11019,2,1,2024_Jun_01_1041,stroop_task_switching2,2021.2.3,59.8381020174731,
condition/block_mixed,instruction/instr_mixed,instruction/i10,蓝,red,d,diamond,color_mix,颜色,,incompatible,0,,,,,,,,0,2,2,2,0,0,0,0,0,0,0,0,,,,,,,,,,,,,,,,,,,,,290.0866188000073,None,space,20.373220999957994,290.0866188000073,None,311.4864780000062,312.4869099999778,312.4869099999778,313.4897404999938,313.4897404999938,None,310.50068910000846,311.50321639998583,314.5249243999715,314.725979299983,314.70726039999863,315.00746459997026,315.00746459997026,None,315.49192120000953,None,d,1,1.3681148000177927,315.49192120000953,None,None,None,316.8769924999797,None,,,,,,,,,,,,,,,,,,,,,11019,2,1,2024_Jun_01_1041,stroop_task_switching2,2021.2.3,59.8381020174731,
condition/block_mixed,instruction/instr_mixed,instruction/i10,绿,yellow,j,diamond,color_mix,颜色,,incompatible,1,,,,,,,,0,2,2,2,0,0,0,0,0,1,1,1,,,,,,,,,,,,,,,,,,,,,,,,,,,,,,,,,,,317.8787985999952,318.08136179996654,318.0621179000009,318.3624372999766,318.3624372999766,None,318.86315609997837,None,k,0,1.0771494999644347,318.86315609997837,None,None,None,319.96496439998737,None,,,,,,,,,,,,,,,,,,,,,11019,2,1,2024_Jun_01_1041,stroop_task_switching2,2021.2.3,59.8381020174731,
condition/block_mixed,instruction/instr_mixed,instruction/i10,红,green,k,diamond,color_mix,颜色,,incompatible,1,,,,,,,,0,2,2,2,0,0,0,0,0,2,2,2,,,,,,,,,,,,,,,,,,,,,,,,,,,,,,,,,,,320.96723790001124,321.1667910999968,321.15140179998707,321.4519826999749,321.4519826999749,None,321.9511248000199,None,k,1,1.5728116999962367,321.9511248000199,None,None,None,323.553862700006,None,,,,,,,,,,,,,,,,,,,,,11019,2,1,2024_Jun_01_1041,stroop_task_switching2,2021.2.3,59.8381020174731,
condition/block_mixed,instruction/instr_mixed,instruction/i10,蓝,red,d,diamond,color_mix,颜色,,incompatible,1,,,,,,,,0,2,2,2,0,0,0,0,0,3,3,3,,,,,,,,,,,,,,,,,,,,,,,,,,,,,,,,,,,324.5563448999892,324.756687999994,324.74045470001874,325.05666120001115,325.0400873000035,None,325.5400800000061,None,d,1,0.8242716999957338,325.5400800000061,None,None,None,326.3912256999756,None,,,,,,,,,,,,,,,,,,,,,11019,2,1,2024_Jun_01_1041,stroop_task_switching2,2021.2.3,59.8381020174731,
condition/block_mixed,instruction/instr_mixed,instruction/i10,红,blue,f,diamond,color_mix,颜色,,incompatible,1,,,,,,,,0,2,2,2,0,0,0,0,0,4,4,4,,,,,,,,,,,,,,,,,,,,,,,,,,,,,,,,,,,327.39327469997806,327.5942247000057,327.57638539996697,327.8781713999924,327.8781713999924,None,328.3787439999869,None,f,1,1.1933392999926582,328.3787439999869,None,None,None,329.59613139997236,None,,,,,,,,,,,,,,,,,,,,,11019,2,1,2024_Jun_01_1041,stroop_task_switching2,2021.2.3,59.8381020174731,
condition/block_mixed,instruction/instr_mixed,instruction/i10,红,blue,d,square,color_mix,单词,,incompatible,2,,,,,,,,0,2,2,2,0,0,0,0,0,5,5,5,,,,,,,,,,,,,,,,,,,,,,,,,,,,,,,,,,,330.598725799995,330.79782540001906,330.7818742999807,331.0822720999713,331.0822720999713,None,331.5830228999839,None,d,1,0.9013165000360459,331.5830228999839,None,None,None,332.50048499996774,None,,,,,,,,,,,,,,,,,,,,,11019,2,1,2024_Jun_01_1041,stroop_task_switching2,2021.2.3,59.8381020174731,
condition/block_mixed,instruction/instr_mixed,instruction/i10,红,yellow,j,diamond,color_mix,颜色,,incompatible,2,,,,,,,,0,2,2,2,0,0,0,0,0,6,6,6,,,,,,,,,,,,,,,,,,,,,,,,,,,,,,,,,,,333.50194129999727,333.7022921000025,333.6855513000046,333.98666349996347,333.98666349996347,None,334.48726739996346,None,d,0,1.9334682999760844,334.48726739996346,None,None,None,336.439538799983,None,,,,,,,,,,,,,,,,,,,,,11019,2,1,2024_Jun_01_1041,stroop_task_switching2,2021.2.3,59.8381020174731,
condition/block_mixed,instruction/instr_mixed,instruction/i10,红,yellow,d,square,color_mix,单词,,incompatible,2,,,,,,,,0,2,2,2,0,0,0,0,0,7,7,7,,,,,,,,,,,,,,,,,,,,,,,,,,,,,,,,,,,337.4417587000062,337.64195239997935,337.62556309998035,337.9251111000194,337.9251111000194,None,338.4261398999952,341.4317366000032,None,0,,338.4261398999952,341.4317366000032,341.3982178000151,None,341.9813613999868,None,,,,,,,,,,,,,,,,,,,,,11019,2,1,2024_Jun_01_1041,stroop_task_switching2,2021.2.3,59.8381020174731,
condition/block_mixed,instruction/instr_mixed,instruction/i10,绿,blue,k,square,color_mix,单词,,incompatible,1,,,,,,,,0,2,2,2,0,0,0,0,0,8,8,8,,,,,,,,,,,,,,,,,,,,,,,,,,,,,,,,,,,342.9829560999642,343.18338970001787,343.1671074000187,343.4680850000004,343.4680850000004,None,343.96776069997577,None,f,0,1.461072999984026,343.96776069997577,None,None,None,345.45304779999424,None,,,,,,,,,,,,,,,,,,,,,11019,2,1,2024_Jun_01_1041,stroop_task_switching2,2021.2.3,59.8381020174731,
condition/block_mixed,instruction/instr_mixed,instruction/i10,蓝,green,k,diamond,color_mix,颜色,,incompatible,2,,,,,,,,0,2,2,2,0,0,0,0,0,9,9,9,,,,,,,,,,,,,,,,,,,,,,,,,,,,,,,,,,,346.45553079998353,346.655818499974,346.63841349998256,346.9395981999696,346.9395981999696,None,347.439695500012,None,k,1,0.9730925999465398,347.439695500012,None,None,None,348.4412431999808,None,,,,,,,,,,,,,,,,,,,,,11019,2,1,2024_Jun_01_1041,stroop_task_switching2,2021.2.3,59.8381020174731,
condition/block_mixed,instruction/instr_mixed,instruction/i10,蓝,yellow,f,square,color_mix,单词,,incompatible,2,,,,,,,,0,2,2,2,0,0,0,0,0,10,10,10,,,,,,,,,,,,,,,,,,,,,,,,,,,,,,,,,,,349.4427880999865,349.64564780000364,349.6269758999697,349.92722740001045,349.92722740001045,None,350.42740559997037,None,f,1,2.3376052000094205,350.42740559997037,None,None,None,352.7813828999642,None,,,,,,,,,,,,,,,,,,,,,11019,2,1,2024_Jun_01_1041,stroop_task_switching2,2021.2.3,59.8381020174731,
condition/block_mixed,instruction/instr_mixed,instruction/i10,蓝,green,f,square,color_mix,单词,,incompatible,1,,,,,,,,0,2,2,2,0,0,0,0,0,11,11,11,,,,,,,,,,,,,,,,,,,,,,,,,,,,,,,,,,,353.78267049998976,353.98427839996293,353.9661274999962,354.26748039998347,354.26748039998347,None,354.76732470002025,None,f,1,0.8376241000369191,354.76732470002025,None,None,None,355.6358612999902,None,,,,,,,,,,,,,,,,,,,,,11019,2,1,2024_Jun_01_1041,stroop_task_switching2,2021.2.3,59.8381020174731,
condition/block_mixed,instruction/instr_mixed,instruction/i10,绿,yellow,k,square,color_mix,单词,,incompatible,1,,,,,,,,0,2,2,2,0,0,0,0,0,12,12,12,,,,,,,,,,,,,,,,,,,,,,,,,,,,,,,,,,,356.6370961999637,356.83733319997555,356.8226622999646,357.12332899996545,357.12332899996545,None,357.63842719997047,None,k,1,1.703411899972707,357.63842719997047,None,None,None,359.3573405999923,None,,,,,,,,,,,,,,,,,,,,,11019,2,1,2024_Jun_01_1041,stroop_task_switching2,2021.2.3,59.8381020174731,
condition/block_mixed,instruction/instr_mixed,instruction/i10,绿,blue,f,diamond,color_mix,颜色,,incompatible,2,,,,,,,,0,2,2,2,0,0,0,0,0,13,13,13,,,,,,,,,,,,,,,,,,,,,,,,,,,,,,,,,,,360.35911249998026,360.55986839998513,360.5433787999791,360.84455869998783,360.84455869998783,None,361.3445669999928,None,f,1,0.8847066999878734,361.3445669999928,None,None,None,362.2454546999652,None,,,,,,,,,,,,,,,,,,,,,11019,2,1,2024_Jun_01_1041,stroop_task_switching2,2021.2.3,59.8381020174731,
condition/block_mixed,instruction/instr_mixed,instruction/i10,黄,red,j,square,color_mix,单词,,incompatible,2,,,,,,,,0,2,2,2,0,0,0,0,0,14,14,14,,,,,,,,,,,,,,,,,,,,,,,,,,,,,,,,,,,363.24789429997327,363.44750900001964,363.43029459996615,363.73091129999375,363.73091129999375,None,364.23169079999207,None,j,1,1.261717299988959,364.23169079999207,None,None,None,365.51729909999995,None,,,,,,,,,,,,,,,,,,,,,11019,2,1,2024_Jun_01_1041,stroop_task_switching2,2021.2.3,59.8381020174731,
condition/block_mixed,instruction/instr_mixed,instruction/i10,蓝,yellow,j,diamond,color_mix,颜色,,incompatible,2,,,,,,,,0,2,2,2,0,0,0,0,0,15,15,15,,,,,,,,,,,,,,,,,,,,,,,,,,,,,,,,,,,366.5187845000182,366.71883520000847,366.70262529997854,367.00365069997497,367.00365069997497,None,367.5034542999929,None,k,0,1.141984899993986,367.5034542999929,None,None,None,368.67223450000165,None,,,,,,,,,,,,,,,,,,,,,11019,2,1,2024_Jun_01_1041,stroop_task_switching2,2021.2.3,59.8381020174731,
condition/block_mixed,instruction/instr_mixed,instruction/i10,黄,red,d,diamond,color_mix,颜色,,incompatible,1,,,,,,,,0,2,2,2,0,0,0,0,0,16,16,16,,,,,,,,,,,,,,,,,,,,,,,,,,,,,,,,,,,369.67335009999806,369.87348159996327,369.8578778000083,370.1573146000155,370.1573146000155,None,370.65806039999006,None,d,1,1.7953395000076853,370.65806039999006,None,None,None,372.47771890001604,None,,,,,,,,,,,,,,,,,,,,,11019,2,1,2024_Jun_01_1041,stroop_task_switching2,2021.2.3,59.8381020174731,
condition/block_mixed,instruction/instr_mixed,instruction/i10,绿,red,k,square,color_mix,单词,,incompatible,2,,,,,,,,0,2,2,2,0,0,0,0,0,17,17,17,,,,,,,,,,,,,,,,,,,,,,,,,,,,,,,,,,,373.4788356999634,373.6804815999931,373.6627269000164,373.96348059998127,373.96348059998127,None,374.4639226999716,None,k,1,1.8860829999903217,374.4639226999716,None,None,None,376.36663910001516,None,,,,,,,,,,,,,,,,,,,,,11019,2,1,2024_Jun_01_1041,stroop_task_switching2,2021.2.3,59.8381020174731,
condition/block_mixed,instruction/instr_mixed,instruction/i10,红,green,d,square,color_mix,单词,,incompatible,1,,,,,,,,0,2,2,2,0,0,0,0,0,18,18,18,,,,,,,,,,,,,,,,,,,,,,,,,,,,,,,,,,,377.3680621999665,377.5697743999772,377.55237930000294,377.8522871999885,377.8522871999885,None,378.35301540000364,None,d,1,1.3007562999846414,378.35301540000364,None,None,None,379.6716866000206,None,,,,,,,,,,,,,,,,,,,,,11019,2,1,2024_Jun_01_1041,stroop_task_switching2,2021.2.3,59.8381020174731,
condition/block_mixed,instruction/instr_mixed,instruction/i10,黄,blue,f,diamond,color_mix,颜色,,incompatible,2,,,,,,,,0,2,2,2,0,0,0,0,0,19,19,19,,,,,,,,,,,,,,,,,,,,,,,,,,,,,,,,,,,380.67365179996705,380.8741211000015,380.8582074000151,381.1574685999658,381.1574685999658,None,381.6579441999784,None,f,1,1.1720373000134714,381.6579441999784,None,None,None,382.8597287000157,None,,,,,,,,,,,,,,,,,,,,,11019,2,1,2024_Jun_01_1041,stroop_task_switching2,2021.2.3,59.8381020174731,
condition/block_mixed,instruction/instr_mixed,instruction/i10,黄,green,k,diamond,color_mix,颜色,,incompatible,1,,,,,,,,0,2,2,2,0,0,0,0,0,20,20,20,,,,,,,,,,,,,,,,,,,,,,,,,,,,,,,,,,,383.86116369999945,384.06197929999325,384.04522339999676,384.34798059996683,384.34798059996683,None,384.86291969998274,None,k,1,1.3116369000053965,384.86291969998274,None,None,None,386.1981323999935,None,,,,,,,,,,,,,,,,,,,,,11019,2,1,2024_Jun_01_1041,stroop_task_switching2,2021.2.3,59.8381020174731,
condition/block_mixed,instruction/instr_mixed,instruction/i10,黄,green,j,square,color_mix,单词,,incompatible,2,,,,,,,,0,2,2,2,0,0,0,0,0,21,21,21,,,,,,,,,,,,,,,,,,,,,,,,,,,,,,,,,,,387.1997415999649,387.4011556999758,387.38324699999066,387.6837287999806,387.6837287999806,None,388.1845052000135,None,k,0,1.6774386999895796,388.1845052000135,None,None,None,389.88714529998833,None,,,,,,,,,,,,,,,,,,,,,11019,2,1,2024_Jun_01_1041,stroop_task_switching2,2021.2.3,59.8381020174731,
condition/block_mixed,instruction/instr_mixed,instruction/i10,黄,blue,j,square,color_mix,单词,,incompatible,1,,,,,,,,0,2,2,2,0,0,0,0,0,22,22,22,,,,,,,,,,,,,,,,,,,,,,,,,,,,,,,,,,,390.88889499998186,391.08994939998956,391.0722052999772,391.37262320000445,391.37262320000445,None,391.8732641999959,None,j,1,2.485522100003436,391.8732641999959,None,None,None,394.37723599997116,None,,,,,,,,,,,,,,,,,,,,,11019,2,1,2024_Jun_01_1041,stroop_task_switching2,2021.2.3,59.8381020174731,
condition/block_mixed,instruction/instr_mixed,instruction/i10,蓝,red,f,square,color_mix,单词,,incompatible,1,,,,,,,,0,2,2,2,0,0,0,0,0,23,23,23,,,,,,,,,,,,,,,,,,,,,,,,,,,,,,,,,,,395.3786417999654,395.58059979998507,395.562314299983,395.86335279996274,395.86335279996274,None,396.36385710001923,None,f,1,1.4828480000142008,396.36385710001923,None,None,None,397.8664467000053,None,,,,,,,,,,,,,,,,,,,,,11019,2,1,2024_Jun_01_1041,stroop_task_switching2,2021.2.3,59.8381020174731,
condition/block_mixed,instruction/instr_mixed,instruction/i10,绿,red,d,diamond,color_mix,颜色,,incompatible,2,,,,,,,,0,2,2,2,0,0,0,0,0,24,24,24,,,,,,,,,,,,,,,,,,,,,,,,,,,,,,,,,,,398.86722020001616,399.0690783999744,399.05131770001026,399.3513716000016,399.3513716000016,None,399.8520946999779,None,k,0,1.7462650999659672,399.8520946999779,None,None,None,401.6216623999644,None,,,,,,,,,,,,,,,,,,,,,11019,2,1,2024_Jun_01_1041,stroop_task_switching2,2021.2.3,59.8381020174731,
condition/block_mixed,instruction/instr_mixed,instruction/i10,绿,green,k,diamond,color_mix,颜色,,compatible,1,,,,,,,,0,2,2,2,0,0,0,0,0,25,25,25,,,,,,,,,,,,,,,,,,,,,,,,,,,,,,,,,,,402.62327420001384,402.8241917999694,402.80690779996803,403.10736640001414,403.10736640001414,None,403.60765690001426,None,k,1,2.719053699984215,403.60765690001426,None,None,None,406.3452038000105,None,,,,,,,,,,,,,,,,,,,,,11019,2,1,2024_Jun_01_1041,stroop_task_switching2,2021.2.3,59.8381020174731,
condition/block_mixed,instruction/instr_mixed,instruction/i10,蓝,blue,f,diamond,color_mix,颜色,,compatible,1,,,,,,,,0,2,2,2,0,0,0,0,0,26,26,26,,,,,,,,,,,,,,,,,,,,,,,,,,,,,,,,,,,407.34734869998647,407.54758949996904,407.5320106999716,407.83204279997153,407.83204279997153,None,408.3325013999711,None,f,1,2.7545395000488497,408.3325013999711,None,None,None,411.1023051000084,None,,,,,,,,,,,,,,,,,,,,,11019,2,1,2024_Jun_01_1041,stroop_task_switching2,2021.2.3,59.8381020174731,
condition/block_mixed,instruction/instr_mixed,instruction/i10,绿,green,k,square,color_mix,单词,,compatible,2,,,,,,,,0,2,2,2,0,0,0,0,0,27,27,27,,,,,,,,,,,,,,,,,,,,,,,,,,,,,,,,,,,412.103789100016,412.3056367000099,412.2874800999998,412.5878916999791,412.5878916999791,None,413.08916939998744,None,k,1,2.413828300021123,413.08916939998744,None,None,None,415.5265900999657,None,,,,,,,,,,,,,,,,,,,,,11019,2,1,2024_Jun_01_1041,stroop_task_switching2,2021.2.3,59.8381020174731,
condition/block_mixed,instruction/instr_mixed,instruction/i10,绿,green,k,square,color_mix,单词,,compatible,1,,,,,,,,0,2,2,2,0,0,0,0,0,28,28,28,,,,,,,,,,,,,,,,,,,,,,,,,,,,,,,,,,,416.5278132999665,416.7275734000141,416.7115469999844,417.0126161999651,417.0126161999651,None,417.5135825999896,None,k,1,1.404824000026565,417.5135825999896,None,None,None,418.94787689996883,None,,,,,,,,,,,,,,,,,,,,,11019,2,1,2024_Jun_01_1041,stroop_task_switching2,2021.2.3,59.8381020174731,
condition/block_mixed,instruction/instr_mixed,instruction/i10,蓝,blue,f,square,color_mix,单词,,compatible,1,,,,,,,,0,2,2,2,0,0,0,0,0,29,29,29,,,,,,,,,,,,,,,,,,,,,,,,,,,,,,,,,,,419.94926600001054,420.15108420001343,420.13257489999523,420.43287879996933,420.43287879996933,None,420.93388229998527,None,f,1,1.7456657000002451,420.93388229998527,None,None,None,422.70329899998615,None,,,,,,,,,,,,,,,,,,,,,11019,2,1,2024_Jun_01_1041,stroop_task_switching2,2021.2.3,59.8381020174731,
condition/block_mixed,instruction/instr_mixed,instruction/i10,黄,yellow,j,diamond,color_mix,颜色,,compatible,2,,,,,,,,0,2,2,2,0,0,0,0,0,30,30,30,,,,,,,,,,,,,,,,,,,,,,,,,,,,,,,,,,,423.70474989997456,423.90597610000987,423.8884056999814,424.1898672999814,424.1898672999814,None,424.68942840001546,None,j,1,1.7733954999712296,424.68942840001546,None,None,None,426.4924017000012,None,,,,,,,,,,,,,,,,,,,,,11019,2,1,2024_Jun_01_1041,stroop_task_switching2,2021.2.3,59.8381020174731,
condition/block_mixed,instruction/instr_mixed,instruction/i10,绿,green,k,square,color_mix,单词,,compatible,2,,,,,,,,0,2,2,2,0,0,0,0,0,31,31,31,,,,,,,,,,,,,,,,,,,,,,,,,,,,,,,,,,,427.4938949000207,427.69602769997437,427.67787369998405,427.97861409996403,427.97861409996403,None,428.4791603999911,None,k,1,2.327811600000132,428.4791603999911,None,None,None,430.83254059997853,None,,,,,,,,,,,,,,,,,,,,,11019,2,1,2024_Jun_01_1041,stroop_task_switching2,2021.2.3,59.8381020174731,
condition/block_mixed,instruction/instr_mixed,instruction/i10,黄,yellow,j,square,color_mix,单词,,compatible,1,,,,,,,,0,2,2,2,0,0,0,0,0,32,32,32,,,,,,,,,,,,,,,,,,,,,,,,,,,,,,,,,,,431.8334797999705,432.03570800001035,432.01723080000374,432.3186856000102,432.3186856000102,None,432.8183413000079,None,j,1,1.8768584000063129,432.8183413000079,None,None,None,434.7215627999976,None,,,,,,,,,,,,,,,,,,,,,11019,2,1,2024_Jun_01_1041,stroop_task_switching2,2021.2.3,59.8381020174731,
condition/block_mixed,instruction/instr_mixed,instruction/i10,绿,green,k,diamond,color_mix,颜色,,compatible,2,,,,,,,,0,2,2,2,0,0,0,0,0,33,33,33,,,,,,,,,,,,,,,,,,,,,,,,,,,,,,,,,,,435.7227553999983,435.92380910000065,435.9071605000063,436.20776429999387,436.20776429999387,None,436.70841189997736,None,k,1,1.970902599976398,436.70841189997736,None,None,None,438.7115422000061,None,,,,,,,,,,,,,,,,,,,,,11019,2,1,2024_Jun_01_1041,stroop_task_switching2,2021.2.3,59.8381020174731,
condition/block_mixed,instruction/instr_mixed,instruction/i10,红,red,d,square,color_mix,单词,,compatible,2,,,,,,,,0,2,2,2,0,0,0,0,0,34,34,34,,,,,,,,,,,,,,,,,,,,,,,,,,,,,,,,,,,439.712047500012,439.9131083000102,439.89747670001816,440.21396630001254,440.19617780001136,None,440.69682379998267,None,d,1,2.054647399985697,440.69682379998267,None,None,None,442.76739559997804,None,,,,,,,,,,,,,,,,,,,,,11019,2,1,2024_Jun_01_1041,stroop_task_switching2,2021.2.3,59.8381020174731,
condition/block_mixed,instruction/instr_mixed,instruction/i10,黄,yellow,j,square,color_mix,单词,,compatible,1,,,,,,,,0,2,2,2,0,0,0,0,0,35,35,35,,,,,,,,,,,,,,,,,,,,,,,,,,,,,,,,,,,443.7685538000078,443.9705101000145,443.9521035999642,444.2544338000007,444.2544338000007,None,444.7696817999822,None,j,1,2.5742888000095263,444.7696817999822,None,None,None,447.37377629999537,None,,,,,,,,,,,,,,,,,,,,,11019,2,1,2024_Jun_01_1041,stroop_task_switching2,2021.2.3,59.8381020174731,
condition/block_mixed,instruction/instr_mixed,instruction/i10,绿,green,k,diamond,color_mix,颜色,,compatible,2,,,,,,,,0,2,2,2,0,0,0,0,0,36,36,36,,,,,,,,,,,,,,,,,,,,,,,,,,,,,,,,,,,448.37596209999174,448.5763592000003,448.5595828999649,448.86114739999175,448.86114739999175,None,449.3600437999703,None,k,1,1.3040114999748766,449.3600437999703,None,None,None,450.6787726000184,None,,,,,,,,,,,,,,,,,,,,,11019,2,1,2024_Jun_01_1041,stroop_task_switching2,2021.2.3,59.8381020174731,
condition/block_mixed,instruction/instr_mixed,instruction/i10,蓝,blue,f,square,color_mix,单词,,compatible,2,,,,,,,,0,2,2,2,0,0,0,0,0,37,37,37,,,,,,,,,,,,,,,,,,,,,,,,,,,,,,,,,,,451.68055769999046,451.88208539999323,451.86372299998766,452.1643126999843,452.1643126999843,None,452.66534539998975,None,f,1,1.6941922000260092,452.66534539998975,None,None,None,454.3844369999715,None,,,,,,,,,,,,,,,,,,,,,11019,2,1,2024_Jun_01_1041,stroop_task_switching2,2021.2.3,59.8381020174731,
condition/block_mixed,instruction/instr_mixed,instruction/i10,红,red,d,square,color_mix,单词,,compatible,1,,,,,,,,0,2,2,2,0,0,0,0,0,38,38,38,,,,,,,,,,,,,,,,,,,,,,,,,,,,,,,,,,,455.3856970000197,455.58726180001395,455.569531199988,455.870282399992,455.870282399992,None,456.37063259998104,None,d,1,1.4612226999597624,456.37063259998104,None,None,None,457.85635969997384,None,,,,,,,,,,,,,,,,,,,,,11019,2,1,2024_Jun_01_1041,stroop_task_switching2,2021.2.3,59.8381020174731,
condition/block_mixed,instruction/instr_mixed,instruction/i10,黄,yellow,j,diamond,color_mix,颜色,,compatible,2,,,,,,,,0,2,2,2,0,0,0,0,0,39,39,39,,,,,,,,,,,,,,,,,,,,,,,,,,,,,,,,,,,458.8575858999975,459.058511500014,459.04161760001443,459.3428534999839,459.3428534999839,None,459.8425576000009,None,j,1,2.0699003000045195,459.8425576000009,None,None,None,461.92911580001237,None,,,,,,,,,,,,,,,,,,,,,11019,2,1,2024_Jun_01_1041,stroop_task_switching2,2021.2.3,59.8381020174731,
condition/block_mixed,instruction/instr_mixed,instruction/i10,黄,yellow,j,square,color_mix,单词,,compatible,2,,,,,,,,0,2,2,2,0,0,0,0,0,40,40,40,,,,,,,,,,,,,,,,,,,,,,,,,,,,,,,,,,,462.93052559997886,463.1329286000109,463.11436080001295,463.414560300007,463.414560300007,None,463.91597099998035,None,j,1,1.2850709999911487,463.91597099998035,None,None,None,465.21742289996473,None,,,,,,,,,,,,,,,,,,,,,11019,2,1,2024_Jun_01_1041,stroop_task_switching2,2021.2.3,59.8381020174731,
condition/block_mixed,instruction/instr_mixed,instruction/i10,蓝,blue,f,square,color_mix,单词,,compatible,1,,,,,,,,0,2,2,2,0,0,0,0,0,41,41,41,,,,,,,,,,,,,,,,,,,,,,,,,,,,,,,,,,,466.2190711000003,466.4190569000202,466.4028429000173,466.7033075999934,466.7033075999934,None,467.2044173000031,None,f,1,1.1481750999810174,467.2044173000031,None,None,None,468.37196939997375,None,,,,,,,,,,,,,,,,,,,,,11019,2,1,2024_Jun_01_1041,stroop_task_switching2,2021.2.3,59.8381020174731,
condition/block_mixed,instruction/instr_mixed,instruction/i10,蓝,blue,f,diamond,color_mix,颜色,,compatible,2,,,,,,,,0,2,2,2,0,0,0,0,0,42,42,42,,,,,,,,,,,,,,,,,,,,,,,,,,,,,,,,,,,469.3736693999963,469.57390630000737,469.55910000001313,469.87485339998966,469.8591483999626,None,470.3586988999741,None,f,1,2.177436599973589,470.3586988999741,None,None,None,472.5622782999999,None,,,,,,,,,,,,,,,,,,,,,11019,2,1,2024_Jun_01_1041,stroop_task_switching2,2021.2.3,59.8381020174731,
condition/block_mixed,instruction/instr_mixed,instruction/i10,黄,yellow,j,diamond,color_mix,颜色,,compatible,1,,,,,,,,0,2,2,2,0,0,0,0,0,43,43,43,,,,,,,,,,,,,,,,,,,,,,,,,,,,,,,,,,,473.56327629997395,473.76452610001434,473.7472101000021,474.04879410000285,474.04879410000285,None,474.5480982000008,None,j,1,1.580245700024534,474.5480982000008,None,None,None,476.15050980000524,None,,,,,,,,,,,,,,,,,,,,,11019,2,1,2024_Jun_01_1041,stroop_task_switching2,2021.2.3,59.8381020174731,
condition/block_mixed,instruction/instr_mixed,instruction/i10,红,red,d,diamond,color_mix,颜色,,compatible,1,,,,,,,,0,2,2,2,0,0,0,0,0,44,44,44,,,,,,,,,,,,,,,,,,,,,,,,,,,,,,,,,,,477.1521613000077,477.35230929998215,477.3359311000095,477.6379348000046,477.6379348000046,None,478.1369712000014,None,d,1,0.8075158999999985,478.1369712000014,None,None,None,478.97127059998456,None,,,,,,,,,,,,,,,,,,,,,11019,2,1,2024_Jun_01_1041,stroop_task_switching2,2021.2.3,59.8381020174731,
condition/block_mixed,instruction/instr_mixed,instruction/i10,蓝,blue,f,diamond,color_mix,颜色,,compatible,1,,,,,,,,0,2,2,2,0,0,0,0,0,45,45,45,,,,,,,,,,,,,,,,,,,,,,,,,,,,,,,,,,,479.972978100006,480.17392779997317,480.15689049998764,480.457046800002,480.457046800002,None,480.9579832999734,None,f,1,1.066735400003381,480.9579832999734,None,None,None,482.0429005000042,None,,,,,,,,,,,,,,,,,,,,,11019,2,1,2024_Jun_01_1041,stroop_task_switching2,2021.2.3,59.8381020174731,
condition/block_mixed,instruction/instr_mixed,instruction/i10,红,red,d,diamond,color_mix,颜色,,compatible,1,,,,,,,,0,2,2,2,0,0,0,0,0,46,46,46,,,,,,,,,,,,,,,,,,,,,,,,,,,,,,,,,,,483.04492099996423,483.24532210000325,483.22780270001385,483.5282138999901,483.5282138999901,None,484.02919480000855,None,d,1,0.7475189000251703,484.02919480000855,None,None,None,484.79714809998404,None,,,,,,,,,,,,,,,,,,,,,11019,2,1,2024_Jun_01_1041,stroop_task_switching2,2021.2.3,59.8381020174731,
condition/block_mixed,instruction/instr_mixed,instruction/i10,红,red,d,square,color_mix,单词,,compatible,2,,,,,,,,0,2,2,2,0,0,0,0,0,47,47,47,,,,,,,,,,,,,,,,,,,,,,,,,,,,,,,,,,,485.79834959999425,486.0007666000165,485.98276739998255,486.28244290000293,486.28244290000293,None,486.78342240001075,None,d,1,0.8654203999903984,486.78342240001075,None,None,None,487.6680602999986,None,,,,,,,,,,,,,,,,,,,,,11019,2,1,2024_Jun_01_1041,stroop_task_switching2,2021.2.3,59.8381020174731,
condition/block_mixed,instruction/instr_mixed,instruction/i10,红,red,d,diamond,color_mix,颜色,,compatible,2,,,,,,,,0,2,2,2,0,0,0,0,0,48,48,48,,,,,,,,,,,,,,,,,,,,,,,,,,,,,,,,,,,488.66990649997024,488.8694880999974,488.85328599996865,489.15337590000127,489.15337590000127,None,489.65524029999506,None,d,1,0.5855021000024863,489.65524029999506,None,None,None,490.2720173000125,None,,,,,,,,,,,,,,,,,,,,,11019,2,1,2024_Jun_01_1041,stroop_task_switching2,2021.2.3,59.8381020174731,
condition/block_mixed,instruction/instr_mixed,instruction/i10,,,,,,,,,,,,,,,,,0,2,2,2,0,0,0,0,,,,,,,,,,,,,,,,,,,,,,,,,,,,,,,,,,,,,,,,,,,,,,,,,,,,,,,,491.273175099981,None,space,29.768382899987046,491.273175099981,None,,,,,,,,,,,,,,,11019,2,1,2024_Jun_01_1041,stroop_task_switching2,2021.2.3,59.8381020174731,
condition/block_mixed,instruction/instr_mixed,instruction/i10,,,,,,,,,,,,,,,,,0,2,2,2,,,,,,,,,,,,,,,,,,,,,,,,,,,,,,,,,,,,,,,,,,,,,,,,,,,,,,,,,,,,,,,,,,,,,,,,,,,,,,,,11019,2,1,2024_Jun_01_1041,stroop_task_switching2,2021.2.3,59.8381020174731,
,,,红,red,d,square,color_mix,单词,,compatible,0,block_switch1,instruction/ready_test.png,instruction/i11.png,,,,,,,,,,,,,,,,,0,0,0,0,0,0,0,0,,,,,,,,,,,,,,,,,,,525.0741731000016,526.0767457999755,526.0767457999755,527.0789461999666,527.0605707999784,None,524.0896152000059,525.0916052999673,528.0968168000109,528.2965898999828,528.2796763000078,528.5804987999727,528.5804987999727,None,529.0804145999718,None,d,1,0.7215156999882311,529.0804145999718,None,None,None,,,,,,,,,521.1026804000139,None,space,2.9633045000373386,521.1026804000139,None,,,,,,,,,11019,2,1,2024_Jun_01_1041,stroop_task_switching2,2021.2.3,59.8381020174731,
,,,绿,green,k,diamond,color_mix,颜色,,compatible,2,block_switch1,instruction/ready_test.png,instruction/i11.png,,,,,,,,,,,,,,,,,0,0,0,0,0,1,1,1,,,,,,,,,,,,,,,,,,,,,,,,,,,529.8313271999941,530.0322694000206,530.0156812000205,530.3153129999992,530.3153129999992,None,530.816439999966,None,k,1,1.0735688999993727,530.816439999966,None,None,None,,,,,,,,,,,,,,,,,,,,,,,11019,2,1,2024_Jun_01_1041,stroop_task_switching2,2021.2.3,59.8381020174731,
,,,绿,yellow,j,diamond,color_mix,颜色,,incompatible,1,block_switch1,instruction/ready_test.png,instruction/i11.png,,,,,,,,,,,,,,,,,0,0,0,0,0,2,2,2,,,,,,,,,,,,,,,,,,,,,,,,,,,531.9183965999982,532.1186540999915,532.1023378999671,532.4028315999894,532.4028315999894,None,532.9025570999947,None,j,1,1.435623899975326,532.9025570999947,None,None,None,,,,,,,,,,,,,,,,,,,,,,,11019,2,1,2024_Jun_01_1041,stroop_task_switching2,2021.2.3,59.8381020174731,
,,,蓝,blue,f,diamond,color_mix,颜色,,compatible,1,block_switch1,instruction/ready_test.png,instruction/i11.png,,,,,,,,,,,,,,,,,0,0,0,0,0,3,3,3,,,,,,,,,,,,,,,,,,,,,,,,,,,534.3549757999717,534.5562709000078,534.5385482999845,534.8393903999822,534.8393903999822,None,535.3400651999982,None,f,1,0.9578606999712065,535.3400651999982,None,None,None,,,,,,,,,,,,,,,,,,,,,,,11019,2,1,2024_Jun_01_1041,stroop_task_switching2,2021.2.3,59.8381020174731,
,,,绿,green,k,square,color_mix,单词,,compatible,2,block_switch1,instruction/ready_test.png,instruction/i11.png,,,,,,,,,,,,,,,,,0,0,0,0,0,4,4,4,,,,,,,,,,,,,,,,,,,,,,,,,,,536.324986499967,536.5254413000075,536.5086878999718,536.809377699974,536.809377699974,None,537.3096120000118,None,k,1,1.0923811999964528,537.3096120000118,None,None,None,,,,,,,,,,,,,,,,,,,,,,,11019,2,1,2024_Jun_01_1041,stroop_task_switching2,2021.2.3,59.8381020174731,
,,,绿,blue,f,diamond,color_mix,颜色,,incompatible,2,block_switch1,instruction/ready_test.png,instruction/i11.png,,,,,,,,,,,,,,,,,0,0,0,0,0,5,5,5,,,,,,,,,,,,,,,,,,,,,,,,,,,538.4278501999797,538.6280142000178,538.6123857999919,538.9129833999905,538.9129833999905,None,539.4129758999916,None,f,1,0.9810299000237137,539.4129758999916,None,None,None,,,,,,,,,,,,,,,,,,,,,,,11019,2,1,2024_Jun_01_1041,stroop_task_switching2,2021.2.3,59.8381020174731,
,,,黄,red,j,square,color_mix,单词,,incompatible,2,block_switch1,instruction/ready_test.png,instruction/i11.png,,,,,,,,,,,,,,,,,0,0,0,0,0,6,6,6,,,,,,,,,,,,,,,,,,,,,,,,,,,540.413885099988,540.6151181000168,540.5984200999956,540.8998425999889,540.8998425999889,None,541.4158536000177,None,j,1,1.5221076000016183,541.4158536000177,None,None,None,,,,,,,,,,,,,,,,,,,,,,,11019,2,1,2024_Jun_01_1041,stroop_task_switching2,2021.2.3,59.8381020174731,
,,,绿,green,k,square,color_mix,单词,,compatible,1,block_switch1,instruction/ready_test.png,instruction/i11.png,,,,,,,,,,,,,,,,,0,0,0,0,0,7,7,7,,,,,,,,,,,,,,,,,,,,,,,,,,,542.9680009000003,543.1686560999951,543.1535083000199,543.4540521000163,543.4540521000163,None,543.9528799999971,None,k,1,1.313594600011129,543.9528799999971,None,None,None,,,,,,,,,,,,,,,,,,,,,,,11019,2,1,2024_Jun_01_1041,stroop_task_switching2,2021.2.3,59.8381020174731,
,,,蓝,blue,f,square,color_mix,单词,,compatible,1,block_switch1,instruction/ready_test.png,instruction/i11.png,,,,,,,,,,,,,,,,,0,0,0,0,0,8,8,8,,,,,,,,,,,,,,,,,,,,,,,,,,,545.2881769000087,545.4889057999826,545.4723227999639,545.7736983000068,545.7736983000068,None,546.2736673000036,None,f,1,1.1285296000423841,546.2736673000036,None,None,None,,,,,,,,,,,,,,,,,,,,,,,11019,2,1,2024_Jun_01_1041,stroop_task_switching2,2021.2.3,59.8381020174731,
,,,红,red,d,diamond,color_mix,颜色,,compatible,2,block_switch1,instruction/ready_test.png,instruction/i11.png,,,,,,,,,,,,,,,,,0,0,0,0,0,9,9,9,,,,,,,,,,,,,,,,,,,,,,,,,,,547.4249069999787,547.6263841000036,547.6082172999741,547.9107300000032,547.9107300000032,None,548.4094345999765,None,d,1,0.7611545999534428,548.4094345999765,None,None,None,,,,,,,,,,,,,,,,,,,,,,,11019,2,1,2024_Jun_01_1041,stroop_task_switching2,2021.2.3,59.8381020174731,
,,,黄,yellow,j,diamond,color_mix,颜色,,compatible,1,block_switch1,instruction/ready_test.png,instruction/i11.png,,,,,,,,,,,,,,,,,0,0,0,0,0,10,10,10,,,,,,,,,,,,,,,,,,,,,,,,,,,549.1951960999868,549.4108074000105,549.3774906999897,549.6779496999807,549.6779496999807,None,550.1785392999882,None,j,1,1.4326263999682851,550.1785392999882,None,None,None,,,,,,,,,,,,,,,,,,,,,,,11019,2,1,2024_Jun_01_1041,stroop_task_switching2,2021.2.3,59.8381020174731,
,,,绿,green,k,square,color_mix,单词,,compatible,2,block_switch1,instruction/ready_test.png,instruction/i11.png,,,,,,,,,,,,,,,,,0,0,0,0,0,11,11,11,,,,,,,,,,,,,,,,,,,,,,,,,,,551.6309959999635,551.8311822999967,551.8155261999927,552.117291099974,552.117291099974,None,552.6324686000007,None,k,1,1.5138646000414155,552.6324686000007,None,None,None,,,,,,,,,,,,,,,,,,,,,,,11019,2,1,2024_Jun_01_1041,stroop_task_switching2,2021.2.3,59.8381020174731,
,,,红,red,d,diamond,color_mix,颜色,,compatible,2,block_switch1,instruction/ready_test.png,instruction/i11.png,,,,,,,,,,,,,,,,,0,0,0,0,0,12,12,12,,,,,,,,,,,,,,,,,,,,,,,,,,,554.1679475000128,554.3698990999837,554.3515644000145,554.6539665000164,554.6539665000164,None,555.1529546999955,None,d,1,0.8094795999932103,555.1529546999955,None,None,None,,,,,,,,,,,,,,,,,,,,,,,11019,2,1,2024_Jun_01_1041,stroop_task_switching2,2021.2.3,59.8381020174731,
,,,红,red,d,diamond,color_mix,颜色,,compatible,1,block_switch1,instruction/ready_test.png,instruction/i11.png,,,,,,,,,,,,,,,,,0,0,0,0,0,13,13,13,,,,,,,,,,,,,,,,,,,,,,,,,,,555.9874186000088,556.1892099999823,556.1716438999865,556.4735522000119,556.4735522000119,None,556.9891911000013,None,d,1,0.46124069998040795,556.9891911000013,None,None,None,,,,,,,,,,,,,,,,,,,,,,,11019,2,1,2024_Jun_01_1041,stroop_task_switching2,2021.2.3,59.8381020174731,
,,,黄,yellow,j,square,color_mix,单词,,compatible,2,block_switch1,instruction/ready_test.png,instruction/i11.png,,,,,,,,,,,,,,,,,0,0,0,0,0,14,14,14,,,,,,,,,,,,,,,,,,,,,,,,,,,557.4736118000001,557.6754682000028,557.657091400004,557.9586599000031,557.9586599000031,None,558.4583335000207,None,j,1,1.3921420999686234,558.4583335000207,None,None,None,,,,,,,,,,,,,,,,,,,,,,,11019,2,1,2024_Jun_01_1041,stroop_task_switching2,2021.2.3,59.8381020174731,
,,,红,green,k,diamond,color_mix,颜色,,incompatible,2,block_switch1,instruction/ready_test.png,instruction/i11.png,,,,,,,,,,,,,,,,,0,0,0,0,0,15,15,15,,,,,,,,,,,,,,,,,,,,,,,,,,,559.8765996000147,560.077327499981,560.0602264999761,560.3629213999957,560.3629213999957,None,560.8613648000173,None,d,0,0.9732161000138149,560.8613648000173,None,None,None,,,,,,,,,,,,,,,,,,,,,,,11019,2,1,2024_Jun_01_1041,stroop_task_switching2,2021.2.3,59.8381020174731,
,,,蓝,red,d,diamond,color_mix,颜色,,incompatible,1,block_switch1,instruction/ready_test.png,instruction/i11.png,,,,,,,,,,,,,,,,,0,0,0,0,0,16,16,16,,,,,,,,,,,,,,,,,,,,,,,,,,,561.863045200007,562.063155699987,562.0476200999692,562.3475136000197,562.3475136000197,None,562.8481067999965,None,d,1,1.1628515000338666,562.8481067999965,None,None,None,,,,,,,,,,,,,,,,,,,,,,,11019,2,1,2024_Jun_01_1041,stroop_task_switching2,2021.2.3,59.8381020174731,
,,,黄,green,k,diamond,color_mix,颜色,,incompatible,1,block_switch1,instruction/ready_test.png,instruction/i11.png,,,,,,,,,,,,,,,,,0,0,0,0,0,17,17,17,,,,,,,,,,,,,,,,,,,,,,,,,,,564.0346093999688,564.2349507000181,564.2170353999827,564.5174601000035,564.5174601000035,None,565.0178340999992,None,k,1,2.4172786999843083,565.0178340999992,None,None,None,,,,,,,,,,,,,,,,,,,,,,,11019,2,1,2024_Jun_01_1041,stroop_task_switching2,2021.2.3,59.8381020174731,
,,,绿,green,k,diamond,color_mix,颜色,,compatible,1,block_switch1,instruction/ready_test.png,instruction/i11.png,,,,,,,,,,,,,,,,,0,0,0,0,0,18,18,18,,,,,,,,,,,,,,,,,,,,,,,,,,,567.4550093999715,567.6551248999895,567.6384549000068,567.939118099981,567.939118099981,None,568.4403519000043,None,k,1,1.1064085999969393,568.4403519000043,None,None,None,,,,,,,,,,,,,,,,,,,,,,,11019,2,1,2024_Jun_01_1041,stroop_task_switching2,2021.2.3,59.8381020174731,
,,,黄,red,d,diamond,color_mix,颜色,,incompatible,1,block_switch1,instruction/ready_test.png,instruction/i11.png,,,,,,,,,,,,,,,,,0,0,0,0,0,19,19,19,,,,,,,,,,,,,,,,,,,,,,,,,,,569.5745062999777,569.7763801999972,569.7581338000018,570.0603693000157,570.0603693000157,None,570.5594588000095,None,d,1,1.0355218999902718,570.5594588000095,None,None,None,,,,,,,,,,,,,,,,,,,,,,,11019,2,1,2024_Jun_01_1041,stroop_task_switching2,2021.2.3,59.8381020174731,
,,,绿,yellow,k,square,color_mix,单词,,incompatible,2,block_switch1,instruction/ready_test.png,instruction/i11.png,,,,,,,,,,,,,,,,,0,0,0,0,0,20,20,20,,,,,,,,,,,,,,,,,,,,,,,,,,,571.6108983000158,571.8113577999757,571.794636000006,572.0960246999748,572.0960246999748,None,572.5969006000087,None,k,1,2.7020885999663733,572.5969006000087,None,None,None,,,,,,,,,,,,,,,,,,,,,,,11019,2,1,2024_Jun_01_1041,stroop_task_switching2,2021.2.3,59.8381020174731,
,,,绿,yellow,j,diamond,color_mix,颜色,,incompatible,2,block_switch1,instruction/ready_test.png,instruction/i11.png,,,,,,,,,,,,,,,,,0,0,0,0,0,21,21,21,,,,,,,,,,,,,,,,,,,,,,,,,,,575.3164851000183,575.5172216999927,575.5002700000186,575.8010817000177,575.8010817000177,None,576.302100299974,None,j,1,2.173339900036808,576.302100299974,None,None,None,,,,,,,,,,,,,,,,,,,,,,,11019,2,1,2024_Jun_01_1041,stroop_task_switching2,2021.2.3,59.8381020174731,
,,,绿,green,k,square,color_mix,单词,,compatible,2,block_switch1,instruction/ready_test.png,instruction/i11.png,,,,,,,,,,,,,,,,,0,0,0,0,0,22,22,22,,,,,,,,,,,,,,,,,,,,,,,,,,,578.504677799996,578.7051379000186,578.689040999976,578.9887283999706,578.9887283999706,None,579.4899575000163,None,k,1,2.2574091000133194,579.4899575000163,None,None,None,,,,,,,,,,,,,,,,,,,,,,,11019,2,1,2024_Jun_01_1041,stroop_task_switching2,2021.2.3,59.8381020174731,
,,,红,red,d,square,color_mix,单词,,compatible,1,block_switch1,instruction/ready_test.png,instruction/i11.png,,,,,,,,,,,,,,,,,0,0,0,0,0,23,23,23,,,,,,,,,,,,,,,,,,,,,,,,,,,581.7763096999843,581.9771930999705,581.9600569999893,582.2610061999876,582.2610061999876,None,582.7620562000084,None,d,1,0.7611685000010766,582.7620562000084,None,None,None,,,,,,,,,,,,,,,,,,,,,,,11019,2,1,2024_Jun_01_1041,stroop_task_switching2,2021.2.3,59.8381020174731,
,,,黄,green,j,square,color_mix,单词,,incompatible,1,block_switch1,instruction/ready_test.png,instruction/i11.png,,,,,,,,,,,,,,,,,0,0,0,0,0,24,24,24,,,,,,,,,,,,,,,,,,,,,,,,,,,583.5456415999797,583.7474672999815,583.7323191000032,584.0297978000017,584.0297978000017,None,584.530727299978,None,j,1,2.496646499959752,584.530727299978,None,None,None,,,,,,,,,,,,,,,,,,,,,,,11019,2,1,2024_Jun_01_1041,stroop_task_switching2,2021.2.3,59.8381020174731,
,,,红,blue,d,square,color_mix,单词,,incompatible,1,block_switch1,instruction/ready_test.png,instruction/i11.png,,,,,,,,,,,,,,,,,0,0,0,0,0,25,25,25,,,,,,,,,,,,,,,,,,,,,,,,,,,587.0509654000052,587.2527000000118,587.2346577999997,587.5353496000171,587.5353496000171,None,588.0358550999663,None,d,1,1.039510499977041,588.0358550999663,None,None,None,,,,,,,,,,,,,,,,,,,,,,,11019,2,1,2024_Jun_01_1041,stroop_task_switching2,2021.2.3,59.8381020174731,
,,,黄,yellow,j,square,color_mix,单词,,compatible,1,block_switch1,instruction/ready_test.png,instruction/i11.png,,,,,,,,,,,,,,,,,0,0,0,0,0,26,26,26,,,,,,,,,,,,,,,,,,,,,,,,,,,589.1040801000199,589.3060103000025,589.2877139999764,589.5881687999936,589.5881687999936,None,590.0896954999771,None,j,1,0.961483400024008,590.0896954999771,None,None,None,,,,,,,,,,,,,,,,,,,,,,,11019,2,1,2024_Jun_01_1041,stroop_task_switching2,2021.2.3,59.8381020174731,
,,,蓝,green,f,square,color_mix,单词,,incompatible,1,block_switch1,instruction/ready_test.png,instruction/i11.png,,,,,,,,,,,,,,,,,0,0,0,0,0,27,27,27,,,,,,,,,,,,,,,,,,,,,,,,,,,591.0752398999757,591.2752168999868,591.2580224999692,591.5598384999903,591.5598384999903,None,592.0589197999798,None,f,1,2.0565274999826215,592.0589197999798,None,None,None,,,,,,,,,,,,,,,,,,,,,,,11019,2,1,2024_Jun_01_1041,stroop_task_switching2,2021.2.3,59.8381020174731,
,,,绿,green,k,diamond,color_mix,颜色,,compatible,2,block_switch1,instruction/ready_test.png,instruction/i11.png,,,,,,,,,,,,,,,,,0,0,0,0,0,28,28,28,,,,,,,,,,,,,,,,,,,,,,,,,,,594.1456552000018,594.3463768999791,594.3287386000156,594.6307514999644,594.6307514999644,None,595.1299324000138,None,k,1,1.218555900035426,595.1299324000138,None,None,None,,,,,,,,,,,,,,,,,,,,,,,11019,2,1,2024_Jun_01_1041,stroop_task_switching2,2021.2.3,59.8381020174731,
,,,黄,blue,f,diamond,color_mix,颜色,,incompatible,1,block_switch1,instruction/ready_test.png,instruction/i11.png,,,,,,,,,,,,,,,,,0,0,0,0,0,29,29,29,,,,,,,,,,,,,,,,,,,,,,,,,,,596.3649475999991,596.5671465999912,596.5484672000166,596.8498415999929,596.8498415999929,None,597.3507302000071,None,f,1,1.605435200035572,597.3507302000071,None,None,None,,,,,,,,,,,,,,,,,,,,,,,11019,2,1,2024_Jun_01_1041,stroop_task_switching2,2021.2.3,59.8381020174731,
,,,绿,green,k,diamond,color_mix,颜色,,compatible,1,block_switch1,instruction/ready_test.png,instruction/i11.png,,,,,,,,,,,,,,,,,0,0,0,0,0,30,30,30,,,,,,,,,,,,,,,,,,,,,,,,,,,598.9856574999867,599.1866178999771,599.1695926999673,599.4695615000091,599.4695615000091,None,599.9710675000097,None,k,1,1.1691553000127897,599.9710675000097,None,None,None,,,,,,,,,,,,,,,,,,,,,,,11019,2,1,2024_Jun_01_1041,stroop_task_switching2,2021.2.3,59.8381020174731,
,,,蓝,blue,f,square,color_mix,单词,,compatible,2,block_switch1,instruction/ready_test.png,instruction/i11.png,,,,,,,,,,,,,,,,,0,0,0,0,0,31,31,31,,,,,,,,,,,,,,,,,,,,,,,,,,,601.1557907999959,601.3561340000015,601.3414146999712,601.6562451999635,601.6406956000137,None,602.1403195000021,None,f,1,1.743353100027889,602.1403195000021,None,None,None,,,,,,,,,,,,,,,,,,,,,,,11019,2,1,2024_Jun_01_1041,stroop_task_switching2,2021.2.3,59.8381020174731,
,,,红,red,d,square,color_mix,单词,,compatible,1,block_switch1,instruction/ready_test.png,instruction/i11.png,,,,,,,,,,,,,,,,,0,0,0,0,0,32,32,32,,,,,,,,,,,,,,,,,,,,,,,,,,,603.9097538000206,604.1103025000193,604.0932483999641,604.3947952999733,604.3947952999733,None,604.8956470999983,None,d,1,1.0919867000193335,604.8956470999983,None,None,None,,,,,,,,,,,,,,,,,,,,,,,11019,2,1,2024_Jun_01_1041,stroop_task_switching2,2021.2.3,59.8381020174731,
,,,红,green,d,square,color_mix,单词,,incompatible,1,block_switch1,instruction/ready_test.png,instruction/i11.png,,,,,,,,,,,,,,,,,0,0,0,0,0,33,33,33,,,,,,,,,,,,,,,,,,,,,,,,,,,606.0126578999916,606.2137937999796,606.1966671000118,606.4978061000002,606.4978061000002,None,606.997669400007,None,d,1,1.4226987999863923,606.997669400007,None,None,None,,,,,,,,,,,,,,,,,,,,,,,11019,2,1,2024_Jun_01_1041,stroop_task_switching2,2021.2.3,59.8381020174731,
,,,黄,yellow,j,diamond,color_mix,颜色,,compatible,2,block_switch1,instruction/ready_test.png,instruction/i11.png,,,,,,,,,,,,,,,,,0,0,0,0,0,34,34,34,,,,,,,,,,,,,,,,,,,,,,,,,,,608.449630499992,608.6509745999938,608.6341358000063,608.935754599981,608.935754599981,None,609.4346041000099,None,j,1,1.6413439000025392,609.4346041000099,None,None,None,,,,,,,,,,,,,,,,,,,,,,,11019,2,1,2024_Jun_01_1041,stroop_task_switching2,2021.2.3,59.8381020174731,
,,,红,green,k,diamond,color_mix,颜色,,incompatible,1,block_switch1,instruction/ready_test.png,instruction/i11.png,,,,,,,,,,,,,,,,,0,0,0,0,0,35,35,35,,,,,,,,,,,,,,,,,,,,,,,,,,,611.1041256000171,611.3042694000178,611.2877199999639,611.587914099975,611.587914099975,None,612.089849299984,None,k,1,1.570153400010895,612.089849299984,None,None,None,,,,,,,,,,,,,,,,,,,,,,,11019,2,1,2024_Jun_01_1041,stroop_task_switching2,2021.2.3,59.8381020174731,
,,,黄,yellow,j,square,color_mix,单词,,compatible,2,block_switch1,instruction/ready_test.png,instruction/i11.png,,,,,,,,,,,,,,,,,0,0,0,0,0,36,36,36,,,,,,,,,,,,,,,,,,,,,,,,,,,613.6743613000144,613.8755173999816,613.8580919000087,614.1599012999795,614.1599012999795,None,614.6595344999805,None,j,1,1.7285849999752827,614.6595344999805,None,None,None,,,,,,,,,,,,,,,,,,,,,,,11019,2,1,2024_Jun_01_1041,stroop_task_switching2,2021.2.3,59.8381020174731,
,,,蓝,blue,f,square,color_mix,单词,,compatible,1,block_switch1,instruction/ready_test.png,instruction/i11.png,,,,,,,,,,,,,,,,,0,0,0,0,0,37,37,37,,,,,,,,,,,,,,,,,,,,,,,,,,,616.4132409999729,616.6138053999748,616.5957720999722,616.8970299999928,616.8970299999928,None,617.3968104000087,None,f,1,1.383981799997855,617.3968104000087,None,None,None,,,,,,,,,,,,,,,,,,,,,,,11019,2,1,2024_Jun_01_1041,stroop_task_switching2,2021.2.3,59.8381020174731,
,,,绿,red,d,diamond,color_mix,颜色,,incompatible,2,block_switch1,instruction/ready_test.png,instruction/i11.png,,,,,,,,,,,,,,,,,0,0,0,0,0,38,38,38,,,,,,,,,,,,,,,,,,,,,,,,,,,618.7987029000069,619.0008631999954,618.9831101999735,619.282672500005,619.282672500005,None,619.7836618999718,None,d,1,1.1085854999837466,619.7836618999718,None,None,None,,,,,,,,,,,,,,,,,,,,,,,11019,2,1,2024_Jun_01_1041,stroop_task_switching2,2021.2.3,59.8381020174731,
,,,黄,yellow,j,diamond,color_mix,颜色,,compatible,1,block_switch1,instruction/ready_test.png,instruction/i11.png,,,,,,,,,,,,,,,,,0,0,0,0,0,39,39,39,,,,,,,,,,,,,,,,,,,,,,,,,,,620.9187483999995,621.1200271999696,621.1027375999838,621.4027638999978,621.4027638999978,None,621.9039287000196,None,j,1,1.3325881999917328,621.9039287000196,None,None,None,,,,,,,,,,,,,,,,,,,,,,,11019,2,1,2024_Jun_01_1041,stroop_task_switching2,2021.2.3,59.8381020174731,
,,,红,blue,f,diamond,color_mix,颜色,,incompatible,1,block_switch1,instruction/ready_test.png,instruction/i11.png,,,,,,,,,,,,,,,,,0,0,0,0,0,40,40,40,,,,,,,,,,,,,,,,,,,,,,,,,,,623.2560593999806,623.4564078999683,623.4398994999938,623.7398591999663,623.7398591999663,None,624.2413355999743,None,f,1,1.5316246000002138,624.2413355999743,None,None,None,,,,,,,,,,,,,,,,,,,,,,,11019,2,1,2024_Jun_01_1041,stroop_task_switching2,2021.2.3,59.8381020174731,
,,,绿,blue,k,square,color_mix,单词,,incompatible,2,block_switch1,instruction/ready_test.png,instruction/i11.png,,,,,,,,,,,,,,,,,0,0,0,0,0,41,41,41,,,,,,,,,,,,,,,,,,,,,,,,,,,625.7927526999847,625.9938405000139,625.9762430000119,626.2765732000116,626.2765732000116,None,626.7775700999773,None,k,1,1.274920199997723,626.7775700999773,None,None,None,,,,,,,,,,,,,,,,,,,,,,,11019,2,1,2024_Jun_01_1041,stroop_task_switching2,2021.2.3,59.8381020174731,
,,,蓝,blue,f,diamond,color_mix,颜色,,compatible,2,block_switch1,instruction/ready_test.png,instruction/i11.png,,,,,,,,,,,,,,,,,0,0,0,0,0,42,42,42,,,,,,,,,,,,,,,,,,,,,,,,,,,628.0794777999981,628.2816127999686,628.2629919999745,628.564033099974,628.564033099974,None,629.064197300002,None,f,1,1.58822150004562,629.064197300002,None,None,None,,,,,,,,,,,,,,,,,,,,,,,11019,2,1,2024_Jun_01_1041,stroop_task_switching2,2021.2.3,59.8381020174731,
,,,红,blue,d,square,color_mix,单词,,incompatible,2,block_switch1,instruction/ready_test.png,instruction/i11.png,,,,,,,,,,,,,,,,,0,0,0,0,0,43,43,43,,,,,,,,,,,,,,,,,,,,,,,,,,,630.683480000007,630.8855513000162,630.8670011999784,631.1679603999946,631.1679603999946,None,631.6681932999636,None,d,1,1.5442357999854721,631.6681932999636,None,None,None,,,,,,,,,,,,,,,,,,,,,,,11019,2,1,2024_Jun_01_1041,stroop_task_switching2,2021.2.3,59.8381020174731,
,,,蓝,green,k,diamond,color_mix,颜色,,incompatible,2,block_switch1,instruction/ready_test.png,instruction/i11.png,,,,,,,,,,,,,,,,,0,0,0,0,0,44,44,44,,,,,,,,,,,,,,,,,,,,,,,,,,,633.2372364000184,633.4375765000004,633.4207907000091,633.7214378999779,633.7214378999779,None,634.221915400005,None,k,1,1.4384350000182167,634.221915400005,None,None,None,,,,,,,,,,,,,,,,,,,,,,,11019,2,1,2024_Jun_01_1041,stroop_task_switching2,2021.2.3,59.8381020174731,
,,,黄,yellow,j,square,color_mix,单词,,compatible,2,block_switch1,instruction/ready_test.png,instruction/i11.png,,,,,,,,,,,,,,,,,0,0,0,0,0,45,45,45,,,,,,,,,,,,,,,,,,,,,,,,,,,635.6910629000049,635.8911620000144,635.8752591999946,636.1750058999751,636.1750058999751,None,636.6758881999995,None,j,1,2.1211300999857485,636.6758881999995,None,None,None,,,,,,,,,,,,,,,,,,,,,,,11019,2,1,2024_Jun_01_1041,stroop_task_switching2,2021.2.3,59.8381020174731,
,,,黄,yellow,j,diamond,color_mix,颜色,,compatible,2,block_switch1,instruction/ready_test.png,instruction/i11.png,,,,,,,,,,,,,,,,,0,0,0,0,0,46,46,46,,,,,,,,,,,,,,,,,,,,,,,,,,,638.8295095000067,639.0295939999633,639.013291899988,639.3131048000068,639.3131048000068,None,639.8139716999722,None,j,1,1.350868699955754,639.8139716999722,None,None,None,,,,,,,,,,,,,,,,,,,,,,,11019,2,1,2024_Jun_01_1041,stroop_task_switching2,2021.2.3,59.8381020174731,
,,,绿,red,k,square,color_mix,单词,,incompatible,2,block_switch1,instruction/ready_test.png,instruction/i11.png,,,,,,,,,,,,,,,,,0,0,0,0,0,47,47,47,,,,,,,,,,,,,,,,,,,,,,,,,,,641.1825080999988,641.3829324999824,641.3664128999808,641.6670948999817,641.6670948999817,None,642.1681521999999,None,k,1,1.65279720001854,642.1681521999999,None,None,None,,,,,,,,,,,,,,,,,,,,,,,11019,2,1,2024_Jun_01_1041,stroop_task_switching2,2021.2.3,59.8381020174731,
,,,红,red,d,diamond,color_mix,颜色,,compatible,2,block_switch1,instruction/ready_test.png,instruction/i11.png,,,,,,,,,,,,,,,,,0,0,0,0,0,48,48,48,,,,,,,,,,,,,,,,,,,,,,,,,,,643.8366683999775,644.0368036999716,644.0211038999842,644.3211993000004,644.3211993000004,None,644.8213265999802,None,d,1,1.4874602000345476,644.8213265999802,None,None,None,,,,,,,,,,,,,,,,,,,,,,,11019,2,1,2024_Jun_01_1041,stroop_task_switching2,2021.2.3,59.8381020174731,
,,,蓝,blue,f,diamond,color_mix,颜色,,compatible,1,block_switch1,instruction/ready_test.png,instruction/i11.png,,,,,,,,,,,,,,,,,0,0,0,0,0,49,49,49,,,,,,,,,,,,,,,,,,,,,,,,,,,646.3235808999743,646.5250740000047,646.5073485000175,646.8081577999983,646.8081577999983,None,647.3085918999859,None,f,1,1.4487131999921985,647.3085918999859,None,None,None,,,,,,,,,,,,,,,,,,,,,,,11019,2,1,2024_Jun_01_1041,stroop_task_switching2,2021.2.3,59.8381020174731,
,,,黄,yellow,j,diamond,color_mix,颜色,,compatible,1,block_switch1,instruction/ready_test.png,instruction/i11.png,,,,,,,,,,,,,,,,,0,0,0,0,0,50,50,50,,,,,,,,,,,,,,,,,,,,,,,,,,,648.7774786999798,648.9777874000138,648.9618587999721,649.2621945000137,649.2621945000137,None,649.7621074999915,None,j,1,1.2516071999561973,649.7621074999915,None,None,None,,,,,,,,,,,,,,,,,,,,,,,11019,2,1,2024_Jun_01_1041,stroop_task_switching2,2021.2.3,59.8381020174731,
,,,红,blue,f,diamond,color_mix,颜色,,incompatible,1,block_switch1,instruction/ready_test.png,instruction/i11.png,,,,,,,,,,,,,,,,,0,0,0,0,0,51,51,51,,,,,,,,,,,,,,,,,,,,,,,,,,,651.0306498999707,651.2311353000114,651.2144731999724,651.5153578000027,651.5153578000027,None,652.0156724000117,None,f,1,2.293440899986308,652.0156724000117,None,None,None,,,,,,,,,,,,,,,,,,,,,,,11019,2,1,2024_Jun_01_1041,stroop_task_switching2,2021.2.3,59.8381020174731,
,,,蓝,yellow,j,diamond,color_mix,颜色,,incompatible,1,block_switch1,instruction/ready_test.png,instruction/i11.png,,,,,,,,,,,,,,,,,0,0,0,0,0,52,52,52,,,,,,,,,,,,,,,,,,,,,,,,,,,654.3356326000066,654.5365702999989,654.5196259999648,654.8204239999759,654.8204239999759,None,655.3205814000103,None,j,1,2.2446533999755047,655.3205814000103,None,None,None,,,,,,,,,,,,,,,,,,,,,,,11019,2,1,2024_Jun_01_1041,stroop_task_switching2,2021.2.3,59.8381020174731,
,,,黄,blue,j,square,color_mix,单词,,incompatible,2,block_switch1,instruction/ready_test.png,instruction/i11.png,,,,,,,,,,,,,,,,,0,0,0,0,0,53,53,53,,,,,,,,,,,,,,,,,,,,,,,,,,,657.5907593999873,657.7912519999663,657.7752187000006,658.0760284999851,658.0760284999851,None,658.5762759000063,661.5820582999731,None,0,,658.5762759000063,661.5820582999731,661.5638754999964,None,,,,,,,,,,,,,,,,,,,,,,,11019,2,1,2024_Jun_01_1041,stroop_task_switching2,2021.2.3,59.8381020174731,
,,,蓝,blue,f,diamond,color_mix,颜色,,compatible,2,block_switch1,instruction/ready_test.png,instruction/i11.png,,,,,,,,,,,,,,,,,0,0,0,0,0,54,54,54,,,,,,,,,,,,,,,,,,,,,,,,,,,662.0810977999936,662.2829280999722,662.2645019000047,662.5648380999919,662.5648380999919,None,663.0656022999901,None,f,1,1.2040462999721058,663.0656022999901,None,None,None,,,,,,,,,,,,,,,,,,,,,,,11019,2,1,2024_Jun_01_1041,stroop_task_switching2,2021.2.3,59.8381020174731,
,,,红,yellow,d,square,color_mix,单词,,incompatible,2,block_switch1,instruction/ready_test.png,instruction/i11.png,,,,,,,,,,,,,,,,,0,0,0,0,0,55,55,55,,,,,,,,,,,,,,,,,,,,,,,,,,,664.2842357999762,664.4848190000048,664.4675140000181,664.7690435000113,664.7690435000113,None,665.2695056999801,None,d,1,0.7919313000165857,665.2695056999801,None,None,None,,,,,,,,,,,,,,,,,,,,,,,11019,2,1,2024_Jun_01_1041,stroop_task_switching2,2021.2.3,59.8381020174731,
,,,蓝,red,f,square,color_mix,单词,,incompatible,1,block_switch1,instruction/ready_test.png,instruction/i11.png,,,,,,,,,,,,,,,,,0,0,0,0,0,56,56,56,,,,,,,,,,,,,,,,,,,,,,,,,,,666.0868813999696,666.2876843999838,666.2704353000154,666.5716613999684,666.5716613999684,None,667.0722380999941,None,f,1,1.1496196000371128,667.0722380999941,None,None,None,,,,,,,,,,,,,,,,,,,,,,,11019,2,1,2024_Jun_01_1041,stroop_task_switching2,2021.2.3,59.8381020174731,
,,,蓝,blue,f,square,color_mix,单词,,compatible,1,block_switch1,instruction/ready_test.png,instruction/i11.png,,,,,,,,,,,,,,,,,0,0,0,0,0,57,57,57,,,,,,,,,,,,,,,,,,,,,,,,,,,668.2400852999999,668.4409473999985,668.4250033000135,668.7240936000017,668.7240936000017,None,669.2251472999924,None,f,1,1.5327476999955252,669.2251472999924,None,None,None,,,,,,,,,,,,,,,,,,,,,,,11019,2,1,2024_Jun_01_1041,stroop_task_switching2,2021.2.3,59.8381020174731,
,,,蓝,red,d,diamond,color_mix,颜色,,incompatible,2,block_switch1,instruction/ready_test.png,instruction/i11.png,,,,,,,,,,,,,,,,,0,0,0,0,0,58,58,58,,,,,,,,,,,,,,,,,,,,,,,,,,,670.7772620000178,670.9783610000159,670.9610166000202,671.2612482999684,671.2612482999684,None,671.7630989999743,None,d,1,1.0834285000455566,671.7630989999743,None,None,None,,,,,,,,,,,,,,,,,,,,,,,11019,2,1,2024_Jun_01_1041,stroop_task_switching2,2021.2.3,59.8381020174731,
,,,绿,green,k,diamond,color_mix,颜色,,compatible,1,block_switch1,instruction/ready_test.png,instruction/i11.png,,,,,,,,,,,,,,,,,0,0,0,0,0,59,59,59,,,,,,,,,,,,,,,,,,,,,,,,,,,672.864038700005,673.0653963999939,673.0473555999924,673.3485473999754,673.3485473999754,None,673.8485382999643,None,k,1,0.845190999971237,673.8485382999643,None,None,None,,,,,,,,,,,,,,,,,,,,,,,11019,2,1,2024_Jun_01_1041,stroop_task_switching2,2021.2.3,59.8381020174731,
,,,蓝,blue,f,diamond,color_mix,颜色,,compatible,1,block_switch1,instruction/ready_test.png,instruction/i11.png,,,,,,,,,,,,,,,,,0,0,0,0,0,60,60,60,,,,,,,,,,,,,,,,,,,,,,,,,,,674.7166120000184,674.9183897000039,674.9002576000057,675.201067099988,675.201067099988,None,675.7012701999629,None,f,1,1.1925351999816485,675.7012701999629,None,None,None,,,,,,,,,,,,,,,,,,,,,,,11019,2,1,2024_Jun_01_1041,stroop_task_switching2,2021.2.3,59.8381020174731,
,,,黄,yellow,j,square,color_mix,单词,,compatible,2,block_switch1,instruction/ready_test.png,instruction/i11.png,,,,,,,,,,,,,,,,,0,0,0,0,0,61,61,61,,,,,,,,,,,,,,,,,,,,,,,,,,,676.9198478999897,677.1215134999948,677.1048099999898,677.4041457999847,677.4041457999847,None,677.9048661999987,None,j,1,2.5728247000370175,677.9048661999987,None,None,None,,,,,,,,,,,,,,,,,,,,,,,11019,2,1,2024_Jun_01_1041,stroop_task_switching2,2021.2.3,59.8381020174731,
,,,绿,blue,k,square,color_mix,单词,,incompatible,1,block_switch1,instruction/ready_test.png,instruction/i11.png,,,,,,,,,,,,,,,,,0,0,0,0,0,62,62,62,,,,,,,,,,,,,,,,,,,,,,,,,,,680.5085366999847,680.7099975000019,680.6926702999626,680.9938589999801,680.9938589999801,None,681.494511500001,None,k,1,1.4875655999640003,681.494511500001,None,None,None,,,,,,,,,,,,,,,,,,,,,,,11019,2,1,2024_Jun_01_1041,stroop_task_switching2,2021.2.3,59.8381020174731,
,,,蓝,yellow,f,square,color_mix,单词,,incompatible,1,block_switch1,instruction/ready_test.png,instruction/i11.png,,,,,,,,,,,,,,,,,0,0,0,0,0,63,63,63,,,,,,,,,,,,,,,,,,,,,,,,,,,683.012370100012,683.2125924999709,683.1963256999734,683.4985451999819,683.4985451999819,None,684.0144721000106,None,f,1,0.9681605000514537,684.0144721000106,None,None,None,,,,,,,,,,,,,,,,,,,,,,,11019,2,1,2024_Jun_01_1041,stroop_task_switching2,2021.2.3,59.8381020174731,
,,,黄,yellow,j,diamond,color_mix,颜色,,compatible,2,block_switch1,instruction/ready_test.png,instruction/i11.png,,,,,,,,,,,,,,,,,0,0,0,0,0,64,64,64,,,,,,,,,,,,,,,,,,,,,,,,,,,684.9987300999928,685.1996878999635,685.1830627999734,685.4834432000061,685.4834432000061,None,685.9843978999997,None,j,1,1.1577520999708213,685.9843978999997,None,None,None,,,,,,,,,,,,,,,,,,,,,,,11019,2,1,2024_Jun_01_1041,stroop_task_switching2,2021.2.3,59.8381020174731,
,,,蓝,green,k,diamond,color_mix,颜色,,incompatible,1,block_switch1,instruction/ready_test.png,instruction/i11.png,,,,,,,,,,,,,,,,,0,0,0,0,0,65,65,65,,,,,,,,,,,,,,,,,,,,,,,,,,,687.1686163999839,687.3702042999794,687.3532865999732,687.6539338000002,687.6539338000002,None,688.1534094999661,None,k,1,2.580743499973323,688.1534094999661,None,None,None,,,,,,,,,,,,,,,,,,,,,,,11019,2,1,2024_Jun_01_1041,stroop_task_switching2,2021.2.3,59.8381020174731,
,,,红,red,d,diamond,color_mix,颜色,,compatible,1,block_switch1,instruction/ready_test.png,instruction/i11.png,,,,,,,,,,,,,,,,,0,0,0,0,0,66,66,66,,,,,,,,,,,,,,,,,,,,,,,,,,,690.757896199997,690.957723599975,690.9411441999837,691.242489599972,691.242489599972,None,691.7420349000022,None,d,1,1.7283437000005506,691.7420349000022,None,None,None,,,,,,,,,,,,,,,,,,,,,,,11019,2,1,2024_Jun_01_1041,stroop_task_switching2,2021.2.3,59.8381020174731,
,,,蓝,yellow,f,square,color_mix,单词,,incompatible,2,block_switch1,instruction/ready_test.png,instruction/i11.png,,,,,,,,,,,,,,,,,0,0,0,0,0,67,67,67,,,,,,,,,,,,,,,,,,,,,,,,,,,693.4953120999853,693.6969562000013,693.6793371000094,693.9793201999855,693.9793201999855,None,694.4795687000151,697.4856084999628,None,0,,694.4795687000151,697.4856084999628,697.4677298999741,None,,,,,,,,,,,,,,,,,,,,,,,11019,2,1,2024_Jun_01_1041,stroop_task_switching2,2021.2.3,59.8381020174731,
,,,红,yellow,d,square,color_mix,单词,,incompatible,1,block_switch1,instruction/ready_test.png,instruction/i11.png,,,,,,,,,,,,,,,,,0,0,0,0,0,68,68,68,,,,,,,,,,,,,,,,,,,,,,,,,,,698.0187481999747,698.2193209999823,698.2019577000174,698.5030828000163,698.5030828000163,None,699.0034891999676,None,d,1,2.3066814999911003,699.0034891999676,None,None,None,,,,,,,,,,,,,,,,,,,,,,,11019,2,1,2024_Jun_01_1041,stroop_task_switching2,2021.2.3,59.8381020174731,
,,,红,yellow,j,diamond,color_mix,颜色,,incompatible,2,block_switch1,instruction/ready_test.png,instruction/i11.png,,,,,,,,,,,,,,,,,0,0,0,0,0,69,69,69,,,,,,,,,,,,,,,,,,,,,,,,,,,701.3398762000143,701.5402612999897,701.5237919999636,701.825902600016,701.825902600016,None,702.3250025999732,None,k,0,1.2256274999817833,702.3250025999732,None,None,None,,,,,,,,,,,,,,,,,,,,,,,11019,2,1,2024_Jun_01_1041,stroop_task_switching2,2021.2.3,59.8381020174731,
,,,蓝,green,f,square,color_mix,单词,,incompatible,2,block_switch1,instruction/ready_test.png,instruction/i11.png,,,,,,,,,,,,,,,,,0,0,0,0,0,70,70,70,,,,,,,,,,,,,,,,,,,,,,,,,,,703.5767222999712,703.7779468999943,703.7624777000165,704.060819700011,704.060819700011,None,704.5613922000048,None,f,1,1.661320600018371,704.5613922000048,None,None,None,,,,,,,,,,,,,,,,,,,,,,,11019,2,1,2024_Jun_01_1041,stroop_task_switching2,2021.2.3,59.8381020174731,
,,,绿,yellow,k,square,color_mix,单词,,incompatible,1,block_switch1,instruction/ready_test.png,instruction/i11.png,,,,,,,,,,,,,,,,,0,0,0,0,0,71,71,71,,,,,,,,,,,,,,,,,,,,,,,,,,,706.247550799977,706.4474285999895,706.4316725999815,706.7322196000023,706.7322196000023,None,707.2321455000201,None,j,0,1.5189610999659635,707.2321455000201,None,None,None,,,,,,,,,,,,,,,,,,,,,,,11019,2,1,2024_Jun_01_1041,stroop_task_switching2,2021.2.3,59.8381020174731,
,,,蓝,yellow,j,diamond,color_mix,颜色,,incompatible,2,block_switch1,instruction/ready_test.png,instruction/i11.png,,,,,,,,,,,,,,,,,0,0,0,0,0,72,72,72,,,,,,,,,,,,,,,,,,,,,,,,,,,708.7678394999821,708.9688765999745,708.9521305999951,709.2522632000037,709.2522632000037,None,709.7526408999693,None,j,1,1.2867216999875382,709.7526408999693,None,None,None,,,,,,,,,,,,,,,,,,,,,,,11019,2,1,2024_Jun_01_1041,stroop_task_switching2,2021.2.3,59.8381020174731,
,,,红,green,d,square,color_mix,单词,,incompatible,2,block_switch1,instruction/ready_test.png,instruction/i11.png,,,,,,,,,,,,,,,,,0,0,0,0,0,73,73,73,,,,,,,,,,,,,,,,,,,,,,,,,,,711.0545220999629,711.2556075999746,711.2381917000166,711.5398550999817,711.5398550999817,None,712.0394896999933,None,d,1,1.2072449999977835,712.0394896999933,None,None,None,,,,,,,,,,,,,,,,,,,,,,,11019,2,1,2024_Jun_01_1041,stroop_task_switching2,2021.2.3,59.8381020174731,
,,,绿,blue,f,diamond,color_mix,颜色,,incompatible,2,block_switch1,instruction/ready_test.png,instruction/i11.png,,,,,,,,,,,,,,,,,0,0,0,0,0,74,74,74,,,,,,,,,,,,,,,,,,,,,,,,,,,713.2745190999703,713.4757422999828,713.4585028999718,713.7586243000114,713.7586243000114,None,714.260330799967,None,f,1,1.5704052000073716,714.260330799967,None,None,None,,,,,,,,,,,,,,,,,,,,,,,11019,2,1,2024_Jun_01_1041,stroop_task_switching2,2021.2.3,59.8381020174731,
,,,红,red,d,square,color_mix,单词,,compatible,2,block_switch1,instruction/ready_test.png,instruction/i11.png,,,,,,,,,,,,,,,,,0,0,0,0,0,75,75,75,,,,,,,,,,,,,,,,,,,,,,,,,,,715.8619222000125,716.0622440999723,716.0459793999908,716.3466435999726,716.3466435999726,None,716.8474473999813,None,d,1,1.5198182000312954,716.8474473999813,None,None,None,,,,,,,,,,,,,,,,,,,,,,,11019,2,1,2024_Jun_01_1041,stroop_task_switching2,2021.2.3,59.8381020174731,
,,,绿,green,k,diamond,color_mix,颜色,,compatible,2,block_switch1,instruction/ready_test.png,instruction/i11.png,,,,,,,,,,,,,,,,,0,0,0,0,0,76,76,76,,,,,,,,,,,,,,,,,,,,,,,,,,,718.3826866999734,718.584366999974,718.5659685999854,718.867316799995,718.867316799995,None,719.368021000002,None,k,1,2.238835000025574,719.368021000002,None,None,None,,,,,,,,,,,,,,,,,,,,,,,11019,2,1,2024_Jun_01_1041,stroop_task_switching2,2021.2.3,59.8381020174731,
,,,黄,red,j,square,color_mix,单词,,incompatible,2,block_switch1,instruction/ready_test.png,instruction/i11.png,,,,,,,,,,,,,,,,,0,0,0,0,0,77,77,77,,,,,,,,,,,,,,,,,,,,,,,,,,,721.6371989999898,721.8385856999666,721.8205701999832,722.1219380999682,722.1219380999682,None,722.6221470999881,None,j,1,1.473325000028126,722.6221470999881,None,None,None,,,,,,,,,,,,,,,,,,,,,,,11019,2,1,2024_Jun_01_1041,stroop_task_switching2,2021.2.3,59.8381020174731,
,,,红,red,d,square,color_mix,单词,,compatible,1,block_switch1,instruction/ready_test.png,instruction/i11.png,,,,,,,,,,,,,,,,,0,0,0,0,0,78,78,78,,,,,,,,,,,,,,,,,,,,,,,,,,,724.1250526999938,724.3250649999827,724.3083078999771,724.6082218000083,724.6082218000083,None,725.109176900005,None,d,1,1.746333200018853,725.109176900005,None,None,None,,,,,,,,,,,,,,,,,,,,,,,11019,2,1,2024_Jun_01_1041,stroop_task_switching2,2021.2.3,59.8381020174731,
,,,黄,yellow,j,square,color_mix,单词,,compatible,1,block_switch1,instruction/ready_test.png,instruction/i11.png,,,,,,,,,,,,,,,,,0,0,0,0,0,79,79,79,,,,,,,,,,,,,,,,,,,,,,,,,,,726.8788345999783,727.0796990999952,727.0626004000078,727.3638527999865,727.3638527999865,None,727.8630665999954,None,j,1,1.672185699979309,727.8630665999954,None,None,None,,,,,,,,,,,,,,,,,,,,,,,11019,2,1,2024_Jun_01_1041,stroop_task_switching2,2021.2.3,59.8381020174731,
,,,红,red,d,diamond,color_mix,颜色,,compatible,2,block_switch1,instruction/ready_test.png,instruction/i11.png,,,,,,,,,,,,,,,,,0,0,0,0,0,80,80,80,,,,,,,,,,,,,,,,,,,,,,,,,,,729.5658373999759,729.7667828999693,729.7494291000185,730.0500489000115,730.0500489000115,None,730.5514465000015,None,d,1,1.487615399993956,730.5514465000015,None,None,None,,,,,,,,,,,,,,,,,,,,,,,11019,2,1,2024_Jun_01_1041,stroop_task_switching2,2021.2.3,59.8381020174731,
,,,红,red,d,square,color_mix,单词,,compatible,2,block_switch1,instruction/ready_test.png,instruction/i11.png,,,,,,,,,,,,,,,,,0,0,0,0,0,81,81,81,,,,,,,,,,,,,,,,,,,,,,,,,,,732.0697450999869,732.2713458999642,732.2544502000092,732.554337300011,732.554337300011,None,733.0551398000098,None,d,1,2.064029400004074,733.0551398000098,None,None,None,,,,,,,,,,,,,,,,,,,,,,,11019,2,1,2024_Jun_01_1041,stroop_task_switching2,2021.2.3,59.8381020174731,
,,,黄,blue,f,diamond,color_mix,颜色,,incompatible,2,block_switch1,instruction/ready_test.png,instruction/i11.png,,,,,,,,,,,,,,,,,0,0,0,0,0,82,82,82,,,,,,,,,,,,,,,,,,,,,,,,,,,735.1410871999688,735.3420044999802,735.3250178999733,735.6258547999896,735.6258547999896,None,736.1263965999824,None,f,1,1.5049698000075296,736.1263965999824,None,None,None,,,,,,,,,,,,,,,,,,,,,,,11019,2,1,2024_Jun_01_1041,stroop_task_switching2,2021.2.3,59.8381020174731,
,,,红,yellow,j,diamond,color_mix,颜色,,incompatible,1,block_switch1,instruction/ready_test.png,instruction/i11.png,,,,,,,,,,,,,,,,,0,0,0,0,0,83,83,83,,,,,,,,,,,,,,,,,,,,,,,,,,,737.6625519999652,737.8624630999984,737.8449637999875,738.146464999998,738.146464999998,None,738.6463635999826,None,j,1,1.9610338999773376,738.6463635999826,None,None,None,,,,,,,,,,,,,,,,,,,,,,,11019,2,1,2024_Jun_01_1041,stroop_task_switching2,2021.2.3,59.8381020174731,
,,,黄,red,d,diamond,color_mix,颜色,,incompatible,1,block_switch1,instruction/ready_test.png,instruction/i11.png,,,,,,,,,,,,,,,,,0,0,0,0,0,84,84,84,,,,,,,,,,,,,,,,,,,,,,,,,,,740.6324759999989,740.8336082000169,740.8162272999762,741.116664399975,741.116664399975,None,741.6173848999897,None,d,1,1.9662519000121392,741.6173848999897,None,None,None,,,,,,,,,,,,,,,,,,,,,,,11019,2,1,2024_Jun_01_1041,stroop_task_switching2,2021.2.3,59.8381020174731,
,,,蓝,blue,f,square,color_mix,单词,,compatible,2,block_switch1,instruction/ready_test.png,instruction/i11.png,,,,,,,,,,,,,,,,,0,0,0,0,0,85,85,85,,,,,,,,,,,,,,,,,,,,,,,,,,,743.6041949999635,743.8039797999663,743.7879159000004,744.0886615999625,744.0886615999625,None,744.5885362999979,None,f,1,2.1715953999664634,744.5885362999979,None,None,None,,,,,,,,,,,,,,,,,,,,,,,11019,2,1,2024_Jun_01_1041,stroop_task_switching2,2021.2.3,59.8381020174731,
,,,绿,green,k,square,color_mix,单词,,compatible,1,block_switch1,instruction/ready_test.png,instruction/i11.png,,,,,,,,,,,,,,,,,0,0,0,0,0,86,86,86,,,,,,,,,,,,,,,,,,,,,,,,,,,746.7751610999694,746.9754797000205,746.959425900015,747.2601652999874,747.2601652999874,None,747.7600767000113,None,k,1,1.2796718999743462,747.7600767000113,None,None,None,,,,,,,,,,,,,,,,,,,,,,,11019,2,1,2024_Jun_01_1041,stroop_task_switching2,2021.2.3,59.8381020174731,
,,,红,red,d,square,color_mix,单词,,compatible,1,block_switch1,instruction/ready_test.png,instruction/i11.png,,,,,,,,,,,,,,,,,0,0,0,0,0,87,87,87,,,,,,,,,,,,,,,,,,,,,,,,,,,749.0619545999798,749.2629390999791,749.2456562999869,749.5470497999922,749.5470497999922,None,750.0470703999745,None,d,1,0.9849202000186779,750.0470703999745,None,None,None,,,,,,,,,,,,,,,,,,,,,,,11019,2,1,2024_Jun_01_1041,stroop_task_switching2,2021.2.3,59.8381020174731,
,,,黄,green,k,diamond,color_mix,颜色,,incompatible,2,block_switch1,instruction/ready_test.png,instruction/i11.png,,,,,,,,,,,,,,,,,0,0,0,0,0,88,88,88,,,,,,,,,,,,,,,,,,,,,,,,,,,751.0481919000158,751.2485172000015,751.233144400001,751.5335800999892,751.5335800999892,None,752.0330836999929,None,k,1,2.158669699972961,752.0330836999929,None,None,None,,,,,,,,,,,,,,,,,,,,,,,11019,2,1,2024_Jun_01_1041,stroop_task_switching2,2021.2.3,59.8381020174731,
,,,绿,red,k,square,color_mix,单词,,incompatible,2,block_switch1,instruction/ready_test.png,instruction/i11.png,,,,,,,,,,,,,,,,,0,0,0,0,0,89,89,89,,,,,,,,,,,,,,,,,,,,,,,,,,,754.2196972999955,754.4207431999967,754.4040529999766,754.7037823999999,754.7037823999999,None,755.2042376999743,None,k,1,1.98779480002122,755.2042376999743,None,None,None,,,,,,,,,,,,,,,,,,,,,,,11019,2,1,2024_Jun_01_1041,stroop_task_switching2,2021.2.3,59.8381020174731,
,,,黄,green,j,square,color_mix,单词,,incompatible,1,block_switch1,instruction/ready_test.png,instruction/i11.png,,,,,,,,,,,,,,,,,0,0,0,0,0,90,90,90,,,,,,,,,,,,,,,,,,,,,,,,,,,757.2077053000103,757.4077118000132,757.3925333999796,757.6919624999864,757.6919624999864,None,758.192336499982,None,j,1,2.679550200002268,758.192336499982,None,None,None,,,,,,,,,,,,,,,,,,,,,,,11019,2,1,2024_Jun_01_1041,stroop_task_switching2,2021.2.3,59.8381020174731,
,,,蓝,blue,f,square,color_mix,单词,,compatible,1,block_switch1,instruction/ready_test.png,instruction/i11.png,,,,,,,,,,,,,,,,,0,0,0,0,0,91,91,91,,,,,,,,,,,,,,,,,,,,,,,,,,,760.8963822000078,761.096782299981,761.0811556999688,761.3814290000009,761.3814290000009,None,761.8815391999669,None,f,1,1.7986791000002995,761.8815391999669,None,None,None,,,,,,,,,,,,,,,,,,,,,,,11019,2,1,2024_Jun_01_1041,stroop_task_switching2,2021.2.3,59.8381020174731,
,,,蓝,red,f,square,color_mix,单词,,incompatible,1,block_switch1,instruction/ready_test.png,instruction/i11.png,,,,,,,,,,,,,,,,,0,0,0,0,0,92,92,92,,,,,,,,,,,,,,,,,,,,,,,,,,,763.7007088999962,763.9011863999767,763.8853526000166,764.1846419000067,764.1846419000067,None,764.6862426999724,None,f,1,2.8666967000463046,764.6862426999724,None,None,None,,,,,,,,,,,,,,,,,,,,,,,11019,2,1,2024_Jun_01_1041,stroop_task_switching2,2021.2.3,59.8381020174731,
,,,黄,blue,j,square,color_mix,单词,,incompatible,1,block_switch1,instruction/ready_test.png,instruction/i11.png,,,,,,,,,,,,,,,,,0,0,0,0,0,93,93,93,,,,,,,,,,,,,,,,,,,,,,,,,,,767.5730981999659,767.7742334000068,767.756831799983,768.0593036999926,768.0593036999926,None,768.55813640001,None,j,1,1.7388178000110202,768.55813640001,None,None,None,,,,,,,,,,,,,,,,,,,,,,,11019,2,1,2024_Jun_01_1041,stroop_task_switching2,2021.2.3,59.8381020174731,
,,,绿,red,d,diamond,color_mix,颜色,,incompatible,2,block_switch1,instruction/ready_test.png,instruction/i11.png,,,,,,,,,,,,,,,,,0,0,0,0,0,94,94,94,,,,,,,,,,,,,,,,,,,,,,,,,,,770.3274049999891,770.5291093999986,770.5110234000022,770.8125572999706,770.8125572999706,None,771.312901999976,None,k,0,1.6476184999919496,771.312901999976,None,None,None,,,,,,,,,,,,,,,,,,,,,,,11019,2,1,2024_Jun_01_1041,stroop_task_switching2,2021.2.3,59.8381020174731,
,,,蓝,blue,f,diamond,color_mix,颜色,,compatible,1,block_switch1,instruction/ready_test.png,instruction/i11.png,,,,,,,,,,,,,,,,,0,0,0,0,0,95,95,95,,,,,,,,,,,,,,,,,,,,,,,,,,,772.9812140999711,773.1821684999741,773.1655369999935,773.4654622999951,773.4654622999951,None,773.9661980000092,None,f,1,1.9864661000319757,773.9661980000092,None,None,None,,,,,,,,,,,,,,,,,,,,,,,11019,2,1,2024_Jun_01_1041,stroop_task_switching2,2021.2.3,59.8381020174731,
,,,绿,green,k,square,color_mix,单词,,compatible,2,block_switch1,instruction/ready_test.png,instruction/i11.png,,,,,,,,,,,,,,,,,0,0,0,0,0,96,96,96,,,,,,,,,,,,,,,,,,,,,,,,,,,775.9690441999701,776.1695375000127,776.152803200006,776.4548362999922,776.4548362999922,None,776.9540165999788,None,k,1,2.262606699950993,776.9540165999788,None,None,None,,,,,,,,,,,,,,,,,,,,,,,11019,2,1,2024_Jun_01_1041,stroop_task_switching2,2021.2.3,59.8381020174731,
,,,,,,,,,,,,block_switch1,instruction/ready_test.png,instruction/i11.png,,,,,,,,,,,,,,,,,0,0,0,0,,,,,,,,,,,,,,,,,,,,,,,,,,,,,,,,,,,,,,,,,,,,,,,,,,,,,,,,,,,,779.2406872999854,None,space,44.39328580000438,779.2406872999854,None,,,11019,2,1,2024_Jun_01_1041,stroop_task_switching2,2021.2.3,59.8381020174731,
,,,蓝,blue,f,square,color_mix,单词,,compatible,0,block_switch2,instruction/ready_2.png,instruction/i12.png,,,,,,,,,,,,,,,,,0,1,1,1,0,0,0,0,,,,,,,,,,,,,,,,,,,825.9113913999754,826.9137323999894,826.9137323999894,827.9145063000033,827.9145063000033,None,824.9263433999731,825.9291783999652,828.9320946999942,829.1335296999896,829.1159019999905,829.4170371000073,829.4170371000073,None,829.917835899978,None,f,1,1.0283154999488033,829.917835899978,None,None,None,,,,,,,,,823.6755949999788,None,space,1.2307469000224955,823.6755949999788,None,,,,,,,,,11019,2,1,2024_Jun_01_1041,stroop_task_switching2,2021.2.3,59.8381020174731,
,,,黄,red,d,diamond,color_mix,颜色,,incompatible,2,block_switch2,instruction/ready_2.png,instruction/i12.png,,,,,,,,,,,,,,,,,0,1,1,1,0,1,1,1,,,,,,,,,,,,,,,,,,,,,,,,,,,830.9686592000071,831.169775599963,831.1531299999915,831.4543860999984,831.4543860999984,None,831.9539000999648,None,d,1,0.985042100015562,831.9539000999648,None,None,None,,,,,,,,,,,,,,,,,,,,,,,11019,2,1,2024_Jun_01_1041,stroop_task_switching2,2021.2.3,59.8381020174731,
,,,蓝,green,k,diamond,color_mix,颜色,,incompatible,1,block_switch2,instruction/ready_2.png,instruction/i12.png,,,,,,,,,,,,,,,,,0,1,1,1,0,2,2,2,,,,,,,,,,,,,,,,,,,,,,,,,,,832.9554814000148,833.1556346999714,833.1397636000183,833.4398542999988,833.4398542999988,None,833.9399323000107,None,k,1,1.038278000021819,833.9399323000107,None,None,None,,,,,,,,,,,,,,,,,,,,,,,11019,2,1,2024_Jun_01_1041,stroop_task_switching2,2021.2.3,59.8381020174731,
,,,红,yellow,j,diamond,color_mix,颜色,,incompatible,1,block_switch2,instruction/ready_2.png,instruction/i12.png,,,,,,,,,,,,,,,,,0,1,1,1,0,3,3,3,,,,,,,,,,,,,,,,,,,,,,,,,,,835.0083177000051,835.208256700018,835.1919593000202,835.4938709000126,835.4938709000126,None,835.99293269997,None,j,1,1.5378858000040054,835.99293269997,None,None,None,,,,,,,,,,,,,,,,,,,,,,,11019,2,1,2024_Jun_01_1041,stroop_task_switching2,2021.2.3,59.8381020174731,
,,,红,red,d,diamond,color_mix,颜色,,compatible,1,block_switch2,instruction/ready_2.png,instruction/i12.png,,,,,,,,,,,,,,,,,0,1,1,1,0,4,4,4,,,,,,,,,,,,,,,,,,,,,,,,,,,837.5454334999667,837.7461113000172,837.7314856000012,838.046620499983,838.0304489000118,None,838.5308941999683,None,d,1,0.7031939000007696,838.5308941999683,None,None,None,,,,,,,,,,,,,,,,,,,,,,,11019,2,1,2024_Jun_01_1041,stroop_task_switching2,2021.2.3,59.8381020174731,
,,,绿,green,k,square,color_mix,单词,,compatible,2,block_switch2,instruction/ready_2.png,instruction/i12.png,,,,,,,,,,,,,,,,,0,1,1,1,0,5,5,5,,,,,,,,,,,,,,,,,,,,,,,,,,,839.2648116999771,839.4653145999764,839.4492540999781,839.7496249999967,839.7496249999967,None,840.2495594999637,None,k,1,1.457078699953854,840.2495594999637,None,None,None,,,,,,,,,,,,,,,,,,,,,,,11019,2,1,2024_Jun_01_1041,stroop_task_switching2,2021.2.3,59.8381020174731,
,,,黄,blue,f,diamond,color_mix,颜色,,incompatible,2,block_switch2,instruction/ready_2.png,instruction/i12.png,,,,,,,,,,,,,,,,,0,1,1,1,0,6,6,6,,,,,,,,,,,,,,,,,,,,,,,,,,,841.7357205000008,841.9373860000051,841.9190911999904,842.2208516999963,842.2208516999963,None,842.7197835000115,None,f,1,1.0191309000365436,842.7197835000115,None,None,None,,,,,,,,,,,,,,,,,,,,,,,11019,2,1,2024_Jun_01_1041,stroop_task_switching2,2021.2.3,59.8381020174731,
,,,绿,yellow,k,square,color_mix,单词,,incompatible,2,block_switch2,instruction/ready_2.png,instruction/i12.png,,,,,,,,,,,,,,,,,0,1,1,1,0,7,7,7,,,,,,,,,,,,,,,,,,,,,,,,,,,843.7554493999924,843.9550622999668,843.9405980000156,844.2554775999743,844.2392911000061,None,844.7399267000146,None,k,1,1.2382790999836288,844.7399267000146,None,None,None,,,,,,,,,,,,,,,,,,,,,,,11019,2,1,2024_Jun_01_1041,stroop_task_switching2,2021.2.3,59.8381020174731,
,,,红,green,d,square,color_mix,单词,,incompatible,1,block_switch2,instruction/ready_2.png,instruction/i12.png,,,,,,,,,,,,,,,,,0,1,1,1,0,8,8,8,,,,,,,,,,,,,,,,,,,,,,,,,,,846.0086651999736,846.2082643000176,846.1915892999968,846.4927463000058,846.4927463000058,None,846.993186799984,None,d,1,1.1692900999914855,846.993186799984,None,None,None,,,,,,,,,,,,,,,,,,,,,,,11019,2,1,2024_Jun_01_1041,stroop_task_switching2,2021.2.3,59.8381020174731,
,,,黄,yellow,j,square,color_mix,单词,,compatible,1,block_switch2,instruction/ready_2.png,instruction/i12.png,,,,,,,,,,,,,,,,,0,1,1,1,0,9,9,9,,,,,,,,,,,,,,,,,,,,,,,,,,,848.1783790999907,848.3793585000094,848.3617017999641,848.663910800009,848.663910800009,None,849.1639555000002,None,j,1,1.6709624000359327,849.1639555000002,None,None,None,,,,,,,,,,,,,,,,,,,,,,,11019,2,1,2024_Jun_01_1041,stroop_task_switching2,2021.2.3,59.8381020174731,
,,,蓝,blue,f,square,color_mix,单词,,compatible,1,block_switch2,instruction/ready_2.png,instruction/i12.png,,,,,,,,,,,,,,,,,0,1,1,1,0,10,10,10,,,,,,,,,,,,,,,,,,,,,,,,,,,850.8658925999771,851.0675129999872,851.0494092999725,851.3493675999925,851.3493675999925,None,851.8505853000097,None,f,1,1.6004667999804951,851.8505853000097,None,None,None,,,,,,,,,,,,,,,,,,,,,,,11019,2,1,2024_Jun_01_1041,stroop_task_switching2,2021.2.3,59.8381020174731,
