b_pra,ins_blocks,ins_blocks2,stim_word,stim_color,corrAns,cue_type,trial_type,task_type,rand,compatibility,switch,b_test,w_pic,w_pic2,trials_instr.thisRepN,trials_instr.thisTrialN,trials_instr.thisN,trials_instr.thisIndex,block_pra.thisRepN,block_pra.thisTrialN,block_pra.thisN,block_pra.thisIndex,trials_rep.thisRepN,trials_rep.thisTrialN,trials_rep.thisN,trials_rep.thisIndex,trials_pra.thisRepN,trials_pra.thisTrialN,trials_pra.thisN,trials_pra.thisIndex,trials_3.thisRepN,trials_3.thisTrialN,trials_3.thisN,trials_3.thisIndex,trials_2.thisRepN,trials_2.thisTrialN,trials_2.thisN,trials_2.thisIndex,instr_image.started,instr_image.stopped,instr_key_resp.keys,instr_key_resp.rt,instr_key_resp.started,instr_key_resp.stopped,instr_pra_image.started,instr_pra_image.stopped,ip_key_resp.keys,ip_key_resp.rt,ip_key_resp.started,ip_key_resp.stopped,block_image.started,block_image.stopped,ib_key_resp.keys,ib_key_resp.rt,ib_key_resp.started,ib_key_resp.stopped,cd3.started,cd3.stopped,cd2.started,cd2.stopped,cd1.started,cd1.stopped,cd_text.started,cd_text.stopped,text_fix.started,text_fix.stopped,text_2.started,text_2.stopped,text_4.started,text_4.stopped,text_target.started,text_target.stopped,key_resp.keys,key_resp.corr,key_resp.rt,key_resp.started,key_resp.stopped,sceen_black.started,sceen_black.stopped,text_fb.started,text_fb.stopped,text.started,text.stopped,key_bf.keys,key_bf.rt,key_bf.started,key_bf.stopped,instr_test_image.started,instr_test_image.stopped,instr_exp_key_resp.keys,instr_exp_key_resp.rt,instr_exp_key_resp.started,instr_exp_key_resp.stopped,text_rest.started,text_rest.stopped,key_resp_rest.keys,key_resp_rest.rt,key_resp_rest.started,key_resp_rest.stopped,text_3.started,text_3.stopped,participant,session,balance,date,expName,psychopyVersion,frameRate,
,,,,,,,,,,,,,,,0,0,0,0,,,,,,,,,,,,,,,,,,,,,8.142727500002366,None,right,1.0028323000005912,8.142727500002366,None,,,,,,,,,,,,,,,,,,,,,,,,,,,,,,,,,,,,,,,,,,,,,,,,,,,,,,,,,,11017,1,2,2024_Jun_17_1428,stroop_task_switching2_b,2021.2.3,60.15750438674803,
,,,,,,,,,,,,,,,1,0,1,0,,,,,,,,,,,,,,,,,,,,,9.177247000014177,None,right,39.9138268000097,9.177247000014177,None,,,,,,,,,,,,,,,,,,,,,,,,,,,,,,,,,,,,,,,,,,,,,,,,,,,,,,,,,,11017,1,2,2024_Jun_17_1428,stroop_task_switching2_b,2021.2.3,60.15750438674803,
,,,,,,,,,,,,,,,2,0,2,0,,,,,,,,,,,,,,,,,,,,,49.137445400003344,None,right,0.18535369998426177,49.137445400003344,None,,,,,,,,,,,,,,,,,,,,,,,,,,,,,,,,,,,,,,,,,,,,,,,,,,,,,,,,,,11017,1,2,2024_Jun_17_1428,stroop_task_switching2_b,2021.2.3,60.15750438674803,
,,,,,,,,,,,,,,,3,0,3,0,,,,,,,,,,,,,,,,,,,,,49.355089500022586,None,right,0.1521082999825012,49.355089500022586,None,,,,,,,,,,,,,,,,,,,,,,,,,,,,,,,,,,,,,,,,,,,,,,,,,,,,,,,,,,11017,1,2,2024_Jun_17_1428,stroop_task_switching2_b,2021.2.3,60.15750438674803,
,,,,,,,,,,,,,,,4,0,4,0,,,,,,,,,,,,,,,,,,,,,49.53873830000521,None,right,0.15212419998715632,49.53873830000521,None,,,,,,,,,,,,,,,,,,,,,,,,,,,,,,,,,,,,,,,,,,,,,,,,,,,,,,,,,,11017,1,2,2024_Jun_17_1428,stroop_task_switching2_b,2021.2.3,60.15750438674803,
,,,,,,,,,,,,,,,5,0,5,0,,,,,,,,,,,,,,,,,,,,,49.73907790001249,None,right,0.11996510002063587,49.73907790001249,None,,,,,,,,,,,,,,,,,,,,,,,,,,,,,,,,,,,,,,,,,,,,,,,,,,,,,,,,,,11017,1,2,2024_Jun_17_1428,stroop_task_switching2_b,2021.2.3,60.15750438674803,
,,,,,,,,,,,,,,,,,,,,,,,,,,,,,,,,,,,,,,,,,,,,,49.90793159999885,None,space,1.4930584000248928,49.90793159999885,None,,,,,,,,,,,,,,,,,,,,,,,,,,,,,,,,,,,,,,,,,,,,,,,,,,,,11017,1,2,2024_Jun_17_1428,stroop_task_switching2_b,2021.2.3,60.15750438674803,
condition/block_color_b,instruction/instr_color,instruction/i8_b,XX,red,k,diamond,color_single,颜色,,,,,,,,,,,0,0,0,0,0,0,0,0,0,0,0,0,,,,,,,,,,,,,,,,,,,,,51.44132250000257,None,space,4.846407100005308,51.44132250000257,None,57.367518400016706,58.37062140001217,58.37062140001217,59.37144860002445,59.37144860002445,None,56.384620700002415,57.38575110002421,60.33808950000093,60.5393559000222,60.523690600006375,60.839852200006135,60.82465480000246,None,61.323540900019,None,k,1,2.0636593000090215,61.323540900019,None,None,None,63.40962170000421,None,,,,,,,,,,,,,,,,,,,,,11017,1,2,2024_Jun_17_1428,stroop_task_switching2_b,2021.2.3,60.15750438674803,
condition/block_color_b,instruction/instr_color,instruction/i8_b,XX,green,d,diamond,color_single,颜色,,,,,,,,,,,0,0,0,0,0,0,0,0,0,1,1,1,,,,,,,,,,,,,,,,,,,,,,,,,,,,,,,,,,,64.41129040002124,64.61374690002413,64.59487990001799,64.89524939999683,64.89524939999683,None,65.3967055999965,None,d,1,0.9264891000057105,65.3967055999965,None,None,None,66.34735860000364,None,,,,,,,,,,,,,,,,,,,,,11017,1,2,2024_Jun_17_1428,stroop_task_switching2_b,2021.2.3,60.15750438674803,
condition/block_color_b,instruction/instr_color,instruction/i8_b,XX,yellow,f,diamond,color_single,颜色,,,,,,,,,,,0,0,0,0,0,0,0,0,0,2,2,2,,,,,,,,,,,,,,,,,,,,,,,,,,,,,,,,,,,67.35035030002473,67.5500387000211,67.5158131000062,67.81681080002454,67.83427059999667,None,68.33354829999735,None,f,1,0.6296346000162885,68.33354829999735,None,None,None,68.98478340002475,None,,,,,,,,,,,,,,,,,,,,,11017,1,2,2024_Jun_17_1428,stroop_task_switching2_b,2021.2.3,60.15750438674803,
condition/block_color_b,instruction/instr_color,instruction/i8_b,XX,blue,j,diamond,color_single,颜色,,,,,,,,,,,0,0,0,0,0,0,0,0,0,3,3,3,,,,,,,,,,,,,,,,,,,,,,,,,,,,,,,,,,,69.98717619999661,70.18793360001291,70.16982790001202,70.47034640001948,70.47034640001948,None,70.97108879999723,None,j,1,0.4802108000149019,70.97108879999723,None,None,None,71.47190600002068,None,,,,,,,,,,,,,,,,,,,,,11017,1,2,2024_Jun_17_1428,stroop_task_switching2_b,2021.2.3,60.15750438674803,
condition/block_color_b,instruction/instr_color,instruction/i8_b,XX,green,d,diamond,color_single,颜色,,,,,,,,,,,0,0,0,0,0,0,0,0,0,4,4,4,,,,,,,,,,,,,,,,,,,,,,,,,,,,,,,,,,,72.4734006000217,72.67364940000698,72.65708150001592,72.95731590001378,72.95731590001378,None,73.45791130000725,None,d,1,0.7380367000005208,73.45791130000725,None,None,None,74.225966900005,None,,,,,,,,,,,,,,,,,,,,,11017,1,2,2024_Jun_17_1428,stroop_task_switching2_b,2021.2.3,60.15750438674803,
condition/block_color_b,instruction/instr_color,instruction/i8_b,XX,yellow,f,diamond,color_single,颜色,,,,,,,,,,,0,0,0,0,0,0,0,0,0,5,5,5,,,,,,,,,,,,,,,,,,,,,,,,,,,,,,,,,,,75.22766740000225,75.4287579000229,75.41120750000118,75.71194880001713,75.71194880001713,None,76.21224419999635,None,f,1,0.3593688999826554,76.21224419999635,None,None,None,76.5963313000102,None,,,,,,,,,,,,,,,,,,,,,11017,1,2,2024_Jun_17_1428,stroop_task_switching2_b,2021.2.3,60.15750438674803,
condition/block_color_b,instruction/instr_color,instruction/i8_b,XX,blue,j,diamond,color_single,颜色,,,,,,,,,,,0,0,0,0,0,0,0,0,0,6,6,6,,,,,,,,,,,,,,,,,,,,,,,,,,,,,,,,,,,77.59773200002383,77.79923120001331,77.78138400000171,78.08283180001308,78.08283180001308,None,78.58251220002421,None,j,1,0.5571121000102721,78.58251220002421,None,None,None,79.16676960000768,None,,,,,,,,,,,,,,,,,,,,,11017,1,2,2024_Jun_17_1428,stroop_task_switching2_b,2021.2.3,60.15750438674803,
condition/block_color_b,instruction/instr_color,instruction/i8_b,XX,red,k,diamond,color_single,颜色,,,,,,,,,,,0,0,0,0,0,0,0,0,0,7,7,7,,,,,,,,,,,,,,,,,,,,,,,,,,,,,,,,,,,80.16841630000272,80.36919090000447,80.35248580001644,80.65336430000025,80.65336430000025,None,81.15294770000037,None,k,1,0.6508146999985911,81.15294770000037,None,None,None,81.82081900001504,None,,,,,,,,,,,,,,,,,,,,,11017,1,2,2024_Jun_17_1428,stroop_task_switching2_b,2021.2.3,60.15750438674803,
condition/block_color_b,instruction/instr_color,instruction/i8_b,XX,yellow,f,diamond,color_single,颜色,,,,,,,,,,,0,0,0,0,0,0,0,0,0,8,8,8,,,,,,,,,,,,,,,,,,,,,,,,,,,,,,,,,,,82.82314439999755,83.02364040000248,83.00579670001753,83.30644290000782,83.30644290000782,None,83.80730320001021,None,f,1,0.6127097000135109,83.80730320001021,None,None,None,84.44152540000505,None,,,,,,,,,,,,,,,,,,,,,11017,1,2,2024_Jun_17_1428,stroop_task_switching2_b,2021.2.3,60.15750438674803,
condition/block_color_b,instruction/instr_color,instruction/i8_b,XX,blue,j,diamond,color_single,颜色,,,,,,,,,,,0,0,0,0,0,0,0,0,0,9,9,9,,,,,,,,,,,,,,,,,,,,,,,,,,,,,,,,,,,85.44297040000674,85.64322600001469,85.62659100000747,85.92784730001586,85.92784730001586,None,86.42787450001924,None,j,1,0.7121176999935415,86.42787450001924,None,None,None,87.16303680001874,None,,,,,,,,,,,,,,,,,,,,,11017,1,2,2024_Jun_17_1428,stroop_task_switching2_b,2021.2.3,60.15750438674803,
condition/block_color_b,instruction/instr_color,instruction/i8_b,XX,red,k,diamond,color_single,颜色,,,,,,,,,,,0,0,0,0,0,0,0,0,0,10,10,10,,,,,,,,,,,,,,,,,,,,,,,,,,,,,,,,,,,88.1637285000179,88.36403470000369,88.34730950000812,88.64780150001752,88.64780150001752,None,89.1486031000095,None,k,1,0.35959099998581223,89.1486031000095,None,None,None,89.5331369000196,None,,,,,,,,,,,,,,,,,,,,,11017,1,2,2024_Jun_17_1428,stroop_task_switching2_b,2021.2.3,60.15750438674803,
condition/block_color_b,instruction/instr_color,instruction/i8_b,XX,green,d,diamond,color_single,颜色,,,,,,,,,,,0,0,0,0,0,0,0,0,0,11,11,11,,,,,,,,,,,,,,,,,,,,,,,,,,,,,,,,,,,90.53397840002435,90.73538379999809,90.71969430000172,91.03574870000011,91.01802330001374,None,91.5187486000068,None,d,1,0.4293197999941185,91.5187486000068,None,None,None,91.96944760001497,None,,,,,,,,,,,,,,,,,,,,,11017,1,2,2024_Jun_17_1428,stroop_task_switching2_b,2021.2.3,60.15750438674803,
condition/block_color_b,instruction/instr_color,instruction/i8_b,XX,blue,j,diamond,color_single,颜色,,,,,,,,,,,0,0,0,0,0,0,0,0,0,12,12,12,,,,,,,,,,,,,,,,,,,,,,,,,,,,,,,,,,,92.97092790002353,93.17132330001914,93.15596000000369,93.45488299999852,93.45488299999852,None,93.95663600001717,None,j,1,0.8560117000015453,93.95663600001717,None,None,None,94.84045980000519,None,,,,,,,,,,,,,,,,,,,,,11017,1,2,2024_Jun_17_1428,stroop_task_switching2_b,2021.2.3,60.15750438674803,
condition/block_color_b,instruction/instr_color,instruction/i8_b,XX,red,k,diamond,color_single,颜色,,,,,,,,,,,0,0,0,0,0,0,0,0,0,13,13,13,,,,,,,,,,,,,,,,,,,,,,,,,,,,,,,,,,,95.84190790000139,96.04416720001609,96.02547510000295,96.3278435000102,96.3278435000102,None,96.82843789999606,None,k,1,0.3919150000147056,96.82843789999606,None,None,None,97.24424110000837,None,,,,,,,,,,,,,,,,,,,,,11017,1,2,2024_Jun_17_1428,stroop_task_switching2_b,2021.2.3,60.15750438674803,
condition/block_color_b,instruction/instr_color,instruction/i8_b,XX,green,d,diamond,color_single,颜色,,,,,,,,,,,0,0,0,0,0,0,0,0,0,14,14,14,,,,,,,,,,,,,,,,,,,,,,,,,,,,,,,,,,,98.24658310000086,98.44653939999989,98.42898530000821,98.73061810000218,98.73061810000218,None,99.23113000000012,None,d,1,0.6369623000209685,99.23113000000012,None,None,None,99.89808660000563,None,,,,,,,,,,,,,,,,,,,,,11017,1,2,2024_Jun_17_1428,stroop_task_switching2_b,2021.2.3,60.15750438674803,
condition/block_color_b,instruction/instr_color,instruction/i8_b,XX,yellow,f,diamond,color_single,颜色,,,,,,,,,,,0,0,0,0,0,0,0,0,0,15,15,15,,,,,,,,,,,,,,,,,,,,,,,,,,,,,,,,,,,100.89948480000021,101.1001219000027,101.08309420000296,101.38355130000855,101.38355130000855,None,101.88410490000388,None,f,1,0.5048280000046361,101.88410490000388,None,None,None,102.41855699999724,None,,,,,,,,,,,,,,,,,,,,,11017,1,2,2024_Jun_17_1428,stroop_task_switching2_b,2021.2.3,60.15750438674803,
condition/block_color_b,instruction/instr_color,instruction/i8_b,XX,red,k,diamond,color_single,颜色,,,,,,,,,,,0,0,0,0,0,0,0,0,0,16,16,16,,,,,,,,,,,,,,,,,,,,,,,,,,,,,,,,,,,103.42019800000708,103.62022850001813,103.60376150000957,103.90473470001598,103.90473470001598,None,104.40491400001338,None,k,1,0.5681332999956794,104.40491400001338,None,None,None,104.98913910001284,None,,,,,,,,,,,,,,,,,,,,,11017,1,2,2024_Jun_17_1428,stroop_task_switching2_b,2021.2.3,60.15750438674803,
condition/block_color_b,instruction/instr_color,instruction/i8_b,XX,green,d,diamond,color_single,颜色,,,,,,,,,,,0,0,0,0,0,0,0,0,0,17,17,17,,,,,,,,,,,,,,,,,,,,,,,,,,,,,,,,,,,105.99201780001749,106.19160440002452,106.17471390002174,106.47487750000437,106.47487750000437,None,106.97636290002265,None,d,1,0.7164944000251126,106.97636290002265,None,None,None,107.70986319999793,None,,,,,,,,,,,,,,,,,,,,,11017,1,2,2024_Jun_17_1428,stroop_task_switching2_b,2021.2.3,60.15750438674803,
condition/block_color_b,instruction/instr_color,instruction/i8_b,XX,yellow,f,diamond,color_single,颜色,,,,,,,,,,,0,0,0,0,0,0,0,0,0,18,18,18,,,,,,,,,,,,,,,,,,,,,,,,,,,,,,,,,,,108.7113833000185,108.91172730000108,108.8950306000188,109.196182100015,109.196182100015,None,109.69703420001315,None,f,1,0.5166360999864992,109.69703420001315,None,None,None,110.23059540000395,None,,,,,,,,,,,,,,,,,,,,,11017,1,2,2024_Jun_17_1428,stroop_task_switching2_b,2021.2.3,60.15750438674803,
condition/block_color_b,instruction/instr_color,instruction/i8_b,XX,blue,j,diamond,color_single,颜色,,,,,,,,,,,0,0,0,0,0,0,0,0,0,19,19,19,,,,,,,,,,,,,,,,,,,,,,,,,,,,,,,,,,,111.23171120000188,111.43198520000442,111.41601850002189,111.71790670001064,111.71790670001064,None,112.21786820000852,None,j,1,0.5551916999975219,112.21786820000852,None,None,None,112.80083310001646,None,,,,,,,,,,,,,,,,,,,,,11017,1,2,2024_Jun_17_1428,stroop_task_switching2_b,2021.2.3,60.15750438674803,
condition/block_color_b,instruction/instr_color,instruction/i8_b,XX,green,d,diamond,color_single,颜色,,,,,,,,,,,0,0,0,0,0,0,0,0,0,20,20,20,,,,,,,,,,,,,,,,,,,,,,,,,,,,,,,,,,,113.80328530000406,114.00337180000497,113.98699659999693,114.28649260001839,114.28649260001839,None,114.78710330001195,None,d,1,0.6897170999727678,114.78710330001195,None,None,None,115.50494460001937,None,,,,,,,,,,,,,,,,,,,,,11017,1,2,2024_Jun_17_1428,stroop_task_switching2_b,2021.2.3,60.15750438674803,
condition/block_color_b,instruction/instr_color,instruction/i8_b,XX,yellow,f,diamond,color_single,颜色,,,,,,,,,,,0,0,0,0,0,0,0,0,0,21,21,21,,,,,,,,,,,,,,,,,,,,,,,,,,,,,,,,,,,116.50642740001786,116.70684500000789,116.69000490001054,116.99116410000715,116.99116410000715,None,117.49200540001038,None,f,1,0.5447970999812242,117.49200540001038,None,None,None,118.05904439999722,None,,,,,,,,,,,,,,,,,,,,,11017,1,2,2024_Jun_17_1428,stroop_task_switching2_b,2021.2.3,60.15750438674803,
condition/block_color_b,instruction/instr_color,instruction/i8_b,XX,blue,j,diamond,color_single,颜色,,,,,,,,,,,0,0,0,0,0,0,0,0,0,22,22,22,,,,,,,,,,,,,,,,,,,,,,,,,,,,,,,,,,,119.06037700001616,119.26255840001977,119.24401070000022,119.54441420000512,119.54441420000512,None,120.04577340002288,None,j,1,0.5591613000142388,120.04577340002288,None,None,None,120.62930920001236,None,,,,,,,,,,,,,,,,,,,,,11017,1,2,2024_Jun_17_1428,stroop_task_switching2_b,2021.2.3,60.15750438674803,
condition/block_color_b,instruction/instr_color,instruction/i8_b,XX,red,k,diamond,color_single,颜色,,,,,,,,,,,0,0,0,0,0,0,0,0,0,23,23,23,,,,,,,,,,,,,,,,,,,,,,,,,,,,,,,,,,,121.63111300001037,121.83181040000636,121.81447320000734,122.11528720002389,122.11528720002389,None,122.61702510001487,None,k,1,0.38773329998366535,122.61702510001487,None,None,None,123.03309840001748,None,,,,,,,,,,,,,,,,,,,,,11017,1,2,2024_Jun_17_1428,stroop_task_switching2_b,2021.2.3,60.15750438674803,
condition/block_color_b,instruction/instr_color,instruction/i8_b,,,,,,,,,,,,,,,,,0,0,0,0,0,0,0,0,,,,,,,,,,,,,,,,,,,,,,,,,,,,,,,,,,,,,,,,,,,,,,,,,,,,,,,,124.05130740001914,None,space,2.387782000005245,124.05130740001914,None,,,,,,,,,,,,,,,11017,1,2,2024_Jun_17_1428,stroop_task_switching2_b,2021.2.3,60.15750438674803,
condition/block_color_b,instruction/instr_color,instruction/i8_b,,,,,,,,,,,,,,,,,0,0,0,0,,,,,,,,,,,,,,,,,,,,,,,,,,,,,,,,,,,,,,,,,,,,,,,,,,,,,,,,,,,,,,,,,,,,,,,,,,,,,,,,11017,1,2,2024_Jun_17_1428,stroop_task_switching2_b,2021.2.3,60.15750438674803,
condition/block_word_b,instruction/instr_word,instruction/i9_b,黄,white,f,square,word_single,单词,0.0032461461866890584,,,,,,,,,,0,1,1,1,0,0,0,0,0,0,0,0,,,,,,,,,,,,,,,,,,,,,126.47073749999981,None,space,4.818634199997177,126.47073749999981,None,132.31435329999658,133.31658080001944,133.31658080001944,134.31686610000907,134.31686610000907,None,131.32959970002412,132.33064749999903,135.3341061999963,135.53516620001756,135.53516620001756,135.83584320000955,135.81880609999644,None,136.3197379000194,None,f,1,0.8935899999924004,136.3197379000194,None,None,None,137.23775160001242,None,,,,,,,,,,,,,,,,,,,,,11017,1,2,2024_Jun_17_1428,stroop_task_switching2_b,2021.2.3,60.15750438674803,
condition/block_word_b,instruction/instr_word,instruction/i9_b,蓝,white,j,square,word_single,单词,0.060540570646362424,,,,,,,,,,0,1,1,1,0,0,0,0,0,1,1,1,,,,,,,,,,,,,,,,,,,,,,,,,,,,,,,,,,,138.23925890002283,138.44032390002394,138.422834099998,138.72343770001316,138.72343770001316,None,139.22405770001933,None,j,1,0.6614971999952104,139.22405770001933,None,None,None,139.90839360002428,None,,,,,,,,,,,,,,,,,,,,,11017,1,2,2024_Jun_17_1428,stroop_task_switching2_b,2021.2.3,60.15750438674803,
condition/block_word_b,instruction/instr_word,instruction/i9_b,黄,white,f,square,word_single,单词,0.06994067193778963,,,,,,,,,,0,1,1,1,0,0,0,0,0,2,2,2,,,,,,,,,,,,,,,,,,,,,,,,,,,,,,,,,,,140.90993560000788,141.11087910001515,141.0944597000198,141.39466900000116,141.39466900000116,None,141.8956743000017,None,f,1,0.757808299997123,141.8956743000017,None,None,None,142.67923660000088,None,,,,,,,,,,,,,,,,,,,,,11017,1,2,2024_Jun_17_1428,stroop_task_switching2_b,2021.2.3,60.15750438674803,
condition/block_word_b,instruction/instr_word,instruction/i9_b,蓝,white,j,square,word_single,单词,0.08193765152950094,,,,,,,,,,0,1,1,1,0,0,0,0,0,3,3,3,,,,,,,,,,,,,,,,,,,,,,,,,,,,,,,,,,,143.68254500001785,143.8834808000247,143.86519599999883,144.16584140001214,144.16584140001214,None,144.66566230001627,None,j,1,0.7400591000041459,144.66566230001627,None,None,None,145.4335940000019,None,,,,,,,,,,,,,,,,,,,,,11017,1,2,2024_Jun_17_1428,stroop_task_switching2_b,2021.2.3,60.15750438674803,
condition/block_word_b,instruction/instr_word,instruction/i9_b,红,white,k,square,word_single,单词,0.1279694370605574,,,,,,,,,,0,1,1,1,0,0,0,0,0,4,4,4,,,,,,,,,,,,,,,,,,,,,,,,,,,,,,,,,,,146.4356276000035,146.63515080002253,146.61933149999822,146.91992529999698,146.91992529999698,None,147.41989089999697,None,k,1,0.7621717000147328,147.41989089999697,None,None,None,148.20430540002417,None,,,,,,,,,,,,,,,,,,,,,11017,1,2,2024_Jun_17_1428,stroop_task_switching2_b,2021.2.3,60.15750438674803,
condition/block_word_b,instruction/instr_word,instruction/i9_b,红,white,k,square,word_single,单词,0.18345028784879092,,,,,,,,,,0,1,1,1,0,0,0,0,0,5,5,5,,,,,,,,,,,,,,,,,,,,,,,,,,,,,,,,,,,149.20551990001695,149.40714890000527,149.3895240999991,149.69141880000825,149.69141880000825,None,150.1914751000004,None,k,1,0.6942197000025772,150.1914751000004,None,None,None,150.90844470000593,None,,,,,,,,,,,,,,,,,,,,,11017,1,2,2024_Jun_17_1428,stroop_task_switching2_b,2021.2.3,60.15750438674803,
condition/block_word_b,instruction/instr_word,instruction/i9_b,蓝,white,j,square,word_single,单词,0.19920386223101294,,,,,,,,,,0,1,1,1,0,0,0,0,0,6,6,6,,,,,,,,,,,,,,,,,,,,,,,,,,,,,,,,,,,151.91002100001788,152.1102694000001,152.09468770000967,152.39375109999673,152.39375109999673,None,152.8945423999976,None,j,1,0.5195488999888767,152.8945423999976,None,None,None,153.447181800002,None,,,,,,,,,,,,,,,,,,,,,11017,1,2,2024_Jun_17_1428,stroop_task_switching2_b,2021.2.3,60.15750438674803,
condition/block_word_b,instruction/instr_word,instruction/i9_b,蓝,white,j,square,word_single,单词,0.26360599864925405,,,,,,,,,,0,1,1,1,0,0,0,0,0,7,7,7,,,,,,,,,,,,,,,,,,,,,,,,,,,,,,,,,,,154.4474118000071,154.6473511000222,154.6313102999993,154.93101860000752,154.93101860000752,None,155.43174940001336,None,j,1,0.5184710999892559,155.43174940001336,None,None,None,155.9659992000088,None,,,,,,,,,,,,,,,,,,,,,11017,1,2,2024_Jun_17_1428,stroop_task_switching2_b,2021.2.3,60.15750438674803,
condition/block_word_b,instruction/instr_word,instruction/i9_b,蓝,white,j,square,word_single,单词,0.358985675745526,,,,,,,,,,0,1,1,1,0,0,0,0,0,8,8,8,,,,,,,,,,,,,,,,,,,,,,,,,,,,,,,,,,,156.96728979999898,157.16856730001746,157.15108950002468,157.45145740002044,157.45145740002044,None,157.9523977000208,None,j,1,0.5499431999924127,157.9523977000208,None,None,None,158.51976530000684,None,,,,,,,,,,,,,,,,,,,,,11017,1,2,2024_Jun_17_1428,stroop_task_switching2_b,2021.2.3,60.15750438674803,
condition/block_word_b,instruction/instr_word,instruction/i9_b,绿,white,d,square,word_single,单词,0.36496733802487347,,,,,,,,,,0,1,1,1,0,0,0,0,0,9,9,9,,,,,,,,,,,,,,,,,,,,,,,,,,,,,,,,,,,159.5213478000078,159.72196510000504,159.70639820001088,160.00627760001225,160.00627760001225,None,160.5066226000199,None,d,1,0.6594149000011384,160.5066226000199,None,None,None,161.19071890000487,None,,,,,,,,,,,,,,,,,,,,,11017,1,2,2024_Jun_17_1428,stroop_task_switching2_b,2021.2.3,60.15750438674803,
condition/block_word_b,instruction/instr_word,instruction/i9_b,黄,white,f,square,word_single,单词,0.3743513623756727,,,,,,,,,,0,1,1,1,0,0,0,0,0,10,10,10,,,,,,,,,,,,,,,,,,,,,,,,,,,,,,,,,,,162.19281590002356,162.39356660001795,162.37582620000467,162.67758620000677,162.67758620000677,None,163.17663699999684,None,f,1,0.6131352999946102,163.17663699999684,None,None,None,163.81200910001644,None,,,,,,,,,,,,,,,,,,,,,11017,1,2,2024_Jun_17_1428,stroop_task_switching2_b,2021.2.3,60.15750438674803,
condition/block_word_b,instruction/instr_word,instruction/i9_b,红,white,k,square,word_single,单词,0.3894803852598544,,,,,,,,,,0,1,1,1,0,0,0,0,0,11,11,11,,,,,,,,,,,,,,,,,,,,,,,,,,,,,,,,,,,164.8134093999979,165.01472370000556,164.99675750001916,165.29726990000927,165.29726990000927,None,165.7982610000181,None,k,1,0.5278922000143211,165.7982610000181,None,None,None,166.34849490001216,None,,,,,,,,,,,,,,,,,,,,,11017,1,2,2024_Jun_17_1428,stroop_task_switching2_b,2021.2.3,60.15750438674803,
condition/block_word_b,instruction/instr_word,instruction/i9_b,绿,white,d,square,word_single,单词,0.5393759672408067,,,,,,,,,,0,1,1,1,0,0,0,0,0,12,12,12,,,,,,,,,,,,,,,,,,,,,,,,,,,,,,,,,,,167.34971170002245,167.55031650001183,167.53345670001,167.83380860000034,167.83380860000034,None,168.33448340001632,None,d,1,0.6719410000077914,168.33448340001632,None,None,None,169.03628160001244,None,,,,,,,,,,,,,,,,,,,,,11017,1,2,2024_Jun_17_1428,stroop_task_switching2_b,2021.2.3,60.15750438674803,
condition/block_word_b,instruction/instr_word,instruction/i9_b,蓝,white,j,square,word_single,单词,0.5995731954831104,,,,,,,,,,0,1,1,1,0,0,0,0,0,13,13,13,,,,,,,,,,,,,,,,,,,,,,,,,,,,,,,,,,,170.0380307000014,170.23909040002036,170.22088130001794,170.52113100001588,170.52113100001588,None,171.02201100002276,None,j,1,0.632592999987537,171.02201100002276,None,None,None,171.6728866000194,None,,,,,,,,,,,,,,,,,,,,,11017,1,2,2024_Jun_17_1428,stroop_task_switching2_b,2021.2.3,60.15750438674803,
condition/block_word_b,instruction/instr_word,instruction/i9_b,红,white,k,square,word_single,单词,0.6298674479151414,,,,,,,,,,0,1,1,1,0,0,0,0,0,14,14,14,,,,,,,,,,,,,,,,,,,,,,,,,,,,,,,,,,,172.67448020001757,172.87480300001334,172.8584550000087,173.15987420000602,173.15987420000602,None,173.65953699999955,None,k,1,0.6188378999941051,173.65953699999955,None,None,None,174.31026860000566,None,,,,,,,,,,,,,,,,,,,,,11017,1,2,2024_Jun_17_1428,stroop_task_switching2_b,2021.2.3,60.15750438674803,
condition/block_word_b,instruction/instr_word,instruction/i9_b,红,white,k,square,word_single,单词,0.7389942282348904,,,,,,,,,,0,1,1,1,0,0,0,0,0,15,15,15,,,,,,,,,,,,,,,,,,,,,,,,,,,,,,,,,,,175.31344210001407,175.52952330000699,175.4955458000186,175.79653670001426,175.79653670001426,None,176.2972005000047,None,k,1,0.5412739999883343,176.2972005000047,None,None,None,176.8641045000113,None,,,,,,,,,,,,,,,,,,,,,11017,1,2,2024_Jun_17_1428,stroop_task_switching2_b,2021.2.3,60.15750438674803,
condition/block_word_b,instruction/instr_word,instruction/i9_b,绿,white,d,square,word_single,单词,0.7550853947239682,,,,,,,,,,0,1,1,1,0,0,0,0,0,16,16,16,,,,,,,,,,,,,,,,,,,,,,,,,,,,,,,,,,,177.86568090002402,178.0665729000175,178.04955890000565,178.34969040000578,178.34969040000578,None,178.8504544000025,None,d,1,0.5960764999908861,178.8504544000025,None,None,None,179.46807430000626,None,,,,,,,,,,,,,,,,,,,,,11017,1,2,2024_Jun_17_1428,stroop_task_switching2_b,2021.2.3,60.15750438674803,
condition/block_word_b,instruction/instr_word,instruction/i9_b,绿,white,d,square,word_single,单词,0.8019302780428206,,,,,,,,,,0,1,1,1,0,0,0,0,0,17,17,17,,,,,,,,,,,,,,,,,,,,,,,,,,,,,,,,,,,180.4697536000167,180.67196030000923,180.65404520000448,180.95459090001532,180.95459090001532,None,181.4549167000223,None,d,1,0.5596124999865424,181.4549167000223,None,None,None,182.03859280000324,None,,,,,,,,,,,,,,,,,,,,,11017,1,2,2024_Jun_17_1428,stroop_task_switching2_b,2021.2.3,60.15750438674803,
condition/block_word_b,instruction/instr_word,instruction/i9_b,绿,white,d,square,word_single,单词,0.8110702914095343,,,,,,,,,,0,1,1,1,0,0,0,0,0,18,18,18,,,,,,,,,,,,,,,,,,,,,,,,,,,,,,,,,,,183.0401455000101,183.24221170000965,183.22368510000524,183.5252468000108,183.5252468000108,None,184.02545149999787,None,d,1,0.5020628999918699,184.02545149999787,None,None,None,184.54317499999888,None,,,,,,,,,,,,,,,,,,,,,11017,1,2,2024_Jun_17_1428,stroop_task_switching2_b,2021.2.3,60.15750438674803,
condition/block_word_b,instruction/instr_word,instruction/i9_b,黄,white,f,square,word_single,单词,0.8176594937590999,,,,,,,,,,0,1,1,1,0,0,0,0,0,19,19,19,,,,,,,,,,,,,,,,,,,,,,,,,,,,,,,,,,,185.544733000017,185.74576420002268,185.72752939999918,186.02871220000088,186.02871220000088,None,186.52869780000765,None,f,1,0.5340390000201296,186.52869780000765,None,None,None,187.07944420000422,None,,,,,,,,,,,,,,,,,,,,,11017,1,2,2024_Jun_17_1428,stroop_task_switching2_b,2021.2.3,60.15750438674803,
condition/block_word_b,instruction/instr_word,instruction/i9_b,红,white,k,square,word_single,单词,0.8955794421104841,,,,,,,,,,0,1,1,1,0,0,0,0,0,20,20,20,,,,,,,,,,,,,,,,,,,,,,,,,,,,,,,,,,,188.08182600000873,188.28177050000522,188.2646117999975,188.5650430000096,188.5650430000096,None,189.06589779999922,None,k,1,0.6691017000121064,189.06589779999922,None,None,None,189.7499575999973,None,,,,,,,,,,,,,,,,,,,,,11017,1,2,2024_Jun_17_1428,stroop_task_switching2_b,2021.2.3,60.15750438674803,
condition/block_word_b,instruction/instr_word,instruction/i9_b,绿,white,d,square,word_single,单词,0.9113598052474129,,,,,,,,,,0,1,1,1,0,0,0,0,0,21,21,21,,,,,,,,,,,,,,,,,,,,,,,,,,,,,,,,,,,190.75175799999852,190.9527500999975,190.93587710001157,191.23573120002402,191.23573120002402,None,191.73652720000246,None,d,1,0.6702665000048,191.73652720000246,None,None,None,192.43782230000943,None,,,,,,,,,,,,,,,,,,,,,11017,1,2,2024_Jun_17_1428,stroop_task_switching2_b,2021.2.3,60.15750438674803,
condition/block_word_b,instruction/instr_word,instruction/i9_b,黄,white,f,square,word_single,单词,0.9215930958042953,,,,,,,,,,0,1,1,1,0,0,0,0,0,22,22,22,,,,,,,,,,,,,,,,,,,,,,,,,,,,,,,,,,,193.4394922000065,193.63957650001976,193.6225341000245,193.92390640001395,193.92390640001395,None,194.4239919000247,None,f,1,0.7269133999943733,194.4239919000247,None,None,None,195.1762382000161,None,,,,,,,,,,,,,,,,,,,,,11017,1,2,2024_Jun_17_1428,stroop_task_switching2_b,2021.2.3,60.15750438674803,
condition/block_word_b,instruction/instr_word,instruction/i9_b,黄,white,f,square,word_single,单词,0.9493525498837774,,,,,,,,,,0,1,1,1,0,0,0,0,0,23,23,23,,,,,,,,,,,,,,,,,,,,,,,,,,,,,,,,,,,196.17695490000187,196.37774710002122,196.3609442000161,196.66079370002262,196.66079370002262,None,197.161499800015,None,f,1,0.5573318999959156,197.161499800015,None,None,None,197.7455861000053,None,,,,,,,,,,,,,,,,,,,,,11017,1,2,2024_Jun_17_1428,stroop_task_switching2_b,2021.2.3,60.15750438674803,
condition/block_word_b,instruction/instr_word,instruction/i9_b,,,,,,,,,,,,,,,,,0,1,1,1,0,0,0,0,,,,,,,,,,,,,,,,,,,,,,,,,,,,,,,,,,,,,,,,,,,,,,,,,,,,,,,,198.74675079999724,None,space,2.2473016000003554,198.74675079999724,None,,,,,,,,,,,,,,,11017,1,2,2024_Jun_17_1428,stroop_task_switching2_b,2021.2.3,60.15750438674803,
condition/block_word_b,instruction/instr_word,instruction/i9_b,,,,,,,,,,,,,,,,,0,1,1,1,,,,,,,,,,,,,,,,,,,,,,,,,,,,,,,,,,,,,,,,,,,,,,,,,,,,,,,,,,,,,,,,,,,,,,,,,,,,,,,,11017,1,2,2024_Jun_17_1428,stroop_task_switching2_b,2021.2.3,60.15750438674803,
condition/block_mixed_b,instruction/instr_mixed,instruction/i10_b,蓝,red,k,diamond,color_mix,颜色,,incompatible,0,,,,,,,,0,2,2,2,0,0,0,0,0,0,0,0,,,,,,,,,,,,,,,,,,,,,201.0342995999963,None,space,12.34210370000801,201.0342995999963,None,214.40527340001427,215.40710160002345,215.40710160002345,216.4077809000155,216.4077809000155,None,213.42014689999633,214.42277810000814,217.44229930001893,217.64370870002313,217.6255710000114,217.92602919999626,217.92602919999626,None,218.40990690002218,None,k,1,1.0935036000155378,218.40990690002218,None,None,None,219.52922870000475,None,,,,,,,,,,,,,,,,,,,,,11017,1,2,2024_Jun_17_1428,stroop_task_switching2_b,2021.2.3,60.15750438674803,
condition/block_mixed_b,instruction/instr_mixed,instruction/i10_b,绿,yellow,f,diamond,color_mix,颜色,,incompatible,1,,,,,,,,0,2,2,2,0,0,0,0,0,1,1,1,,,,,,,,,,,,,,,,,,,,,,,,,,,,,,,,,,,220.53116210000007,220.73061630001757,220.7137977000093,221.0148931000149,221.0148931000149,None,221.51612500002375,None,f,1,0.7956585999927483,221.51612500002375,None,None,None,222.33259620002354,None,,,,,,,,,,,,,,,,,,,,,11017,1,2,2024_Jun_17_1428,stroop_task_switching2_b,2021.2.3,60.15750438674803,
condition/block_mixed_b,instruction/instr_mixed,instruction/i10_b,红,green,d,diamond,color_mix,颜色,,incompatible,1,,,,,,,,0,2,2,2,0,0,0,0,0,2,2,2,,,,,,,,,,,,,,,,,,,,,,,,,,,,,,,,,,,223.33411960001104,223.53446370002348,223.5181489000097,223.81930180001655,223.81930180001655,None,224.31990339999902,None,d,1,0.8237557000247762,224.31990339999902,None,None,None,225.17042670000228,None,,,,,,,,,,,,,,,,,,,,,11017,1,2,2024_Jun_17_1428,stroop_task_switching2_b,2021.2.3,60.15750438674803,
condition/block_mixed_b,instruction/instr_mixed,instruction/i10_b,蓝,red,k,diamond,color_mix,颜色,,incompatible,1,,,,,,,,0,2,2,2,0,0,0,0,0,3,3,3,,,,,,,,,,,,,,,,,,,,,,,,,,,,,,,,,,,226.17336340001202,226.38903469999786,226.35551409999607,226.65642290000687,226.65642290000687,None,227.15661340000224,None,k,1,1.1551250999909826,227.15661340000224,None,None,None,228.34173500002362,None,,,,,,,,,,,,,,,,,,,,,11017,1,2,2024_Jun_17_1428,stroop_task_switching2_b,2021.2.3,60.15750438674803,
condition/block_mixed_b,instruction/instr_mixed,instruction/i10_b,红,blue,j,diamond,color_mix,颜色,,incompatible,1,,,,,,,,0,2,2,2,0,0,0,0,0,4,4,4,,,,,,,,,,,,,,,,,,,,,,,,,,,,,,,,,,,229.3434701000224,229.54411040002014,229.52906860000803,229.82740450001438,229.82740450001438,None,230.3279118000064,None,j,1,0.9440811999957077,230.3279118000064,None,None,None,231.29653120000148,None,,,,,,,,,,,,,,,,,,,,,11017,1,2,2024_Jun_17_1428,stroop_task_switching2_b,2021.2.3,60.15750438674803,
condition/block_mixed_b,instruction/instr_mixed,instruction/i10_b,红,blue,k,square,color_mix,单词,,incompatible,2,,,,,,,,0,2,2,2,0,0,0,0,0,5,5,5,,,,,,,,,,,,,,,,,,,,,,,,,,,,,,,,,,,232.29747150000185,232.49931990000186,232.48201810001046,232.78424649999943,232.78424649999943,None,233.29994720002287,None,k,1,0.9802251000073738,233.29994720002287,None,None,None,234.3009657000075,None,,,,,,,,,,,,,,,,,,,,,11017,1,2,2024_Jun_17_1428,stroop_task_switching2_b,2021.2.3,60.15750438674803,
condition/block_mixed_b,instruction/instr_mixed,instruction/i10_b,红,yellow,f,diamond,color_mix,颜色,,incompatible,2,,,,,,,,0,2,2,2,0,0,0,0,0,6,6,6,,,,,,,,,,,,,,,,,,,,,,,,,,,,,,,,,,,235.30261980000068,235.50352560001193,235.48589650000213,235.78614860001835,235.78614860001835,None,236.28724430000875,None,f,1,0.7926725000143051,236.28724430000875,None,None,None,237.10529210002278,None,,,,,,,,,,,,,,,,,,,,,11017,1,2,2024_Jun_17_1428,stroop_task_switching2_b,2021.2.3,60.15750438674803,
condition/block_mixed_b,instruction/instr_mixed,instruction/i10_b,红,yellow,k,square,color_mix,单词,,incompatible,2,,,,,,,,0,2,2,2,0,0,0,0,0,7,7,7,,,,,,,,,,,,,,,,,,,,,,,,,,,,,,,,,,,238.10648640000727,238.30694249999942,238.2910547000065,238.59066320001148,238.59066320001148,None,239.09116390001145,None,k,1,0.7490110000071581,239.09116390001145,None,None,None,239.85913110000547,None,,,,,,,,,,,,,,,,,,,,,11017,1,2,2024_Jun_17_1428,stroop_task_switching2_b,2021.2.3,60.15750438674803,
condition/block_mixed_b,instruction/instr_mixed,instruction/i10_b,绿,blue,d,square,color_mix,单词,,incompatible,1,,,,,,,,0,2,2,2,0,0,0,0,0,8,8,8,,,,,,,,,,,,,,,,,,,,,,,,,,,,,,,,,,,240.86070479999762,241.0628626999969,241.0442135000194,241.34588700000313,241.34588700000313,None,241.84540520000155,None,d,1,1.2669555000029504,241.84540520000155,None,None,None,243.13050060000387,None,,,,,,,,,,,,,,,,,,,,,11017,1,2,2024_Jun_17_1428,stroop_task_switching2_b,2021.2.3,60.15750438674803,
condition/block_mixed_b,instruction/instr_mixed,instruction/i10_b,蓝,green,d,diamond,color_mix,颜色,,incompatible,2,,,,,,,,0,2,2,2,0,0,0,0,0,9,9,9,,,,,,,,,,,,,,,,,,,,,,,,,,,,,,,,,,,244.1323165000067,244.3332677000144,244.31639240001095,244.61878650001017,244.61878650001017,None,245.13359730000957,None,d,1,0.818495100014843,245.13359730000957,None,None,None,245.9682640999963,None,,,,,,,,,,,,,,,,,,,,,11017,1,2,2024_Jun_17_1428,stroop_task_switching2_b,2021.2.3,60.15750438674803,
condition/block_mixed_b,instruction/instr_mixed,instruction/i10_b,蓝,yellow,j,square,color_mix,单词,,incompatible,2,,,,,,,,0,2,2,2,0,0,0,0,0,10,10,10,,,,,,,,,,,,,,,,,,,,,,,,,,,,,,,,,,,246.97054130001925,247.17188370000804,247.1532022000174,247.45389750000322,247.45389750000322,None,247.95508650000556,None,j,1,0.6932521999988239,247.95508650000556,None,None,None,248.67246060000616,None,,,,,,,,,,,,,,,,,,,,,11017,1,2,2024_Jun_17_1428,stroop_task_switching2_b,2021.2.3,60.15750438674803,
condition/block_mixed_b,instruction/instr_mixed,instruction/i10_b,蓝,green,j,square,color_mix,单词,,incompatible,1,,,,,,,,0,2,2,2,0,0,0,0,0,11,11,11,,,,,,,,,,,,,,,,,,,,,,,,,,,,,,,,,,,249.67410120001296,249.8763678999967,249.85765330001595,250.15996650001034,250.15996650001034,None,250.6586908000172,None,j,1,0.6057440000004135,250.6586908000172,None,None,None,251.2929605000245,None,,,,,,,,,,,,,,,,,,,,,11017,1,2,2024_Jun_17_1428,stroop_task_switching2_b,2021.2.3,60.15750438674803,
condition/block_mixed_b,instruction/instr_mixed,instruction/i10_b,绿,yellow,d,square,color_mix,单词,,incompatible,1,,,,,,,,0,2,2,2,0,0,0,0,0,12,12,12,,,,,,,,,,,,,,,,,,,,,,,,,,,,,,,,,,,252.2944621000206,252.49623290001182,252.47813820000738,252.77949880002416,252.77949880002416,None,253.27958990001935,None,d,1,1.1855995999940205,253.27958990001935,None,None,None,254.4815091000055,None,,,,,,,,,,,,,,,,,,,,,11017,1,2,2024_Jun_17_1428,stroop_task_switching2_b,2021.2.3,60.15750438674803,
condition/block_mixed_b,instruction/instr_mixed,instruction/i10_b,绿,blue,j,diamond,color_mix,颜色,,incompatible,2,,,,,,,,0,2,2,2,0,0,0,0,0,13,13,13,,,,,,,,,,,,,,,,,,,,,,,,,,,,,,,,,,,255.48273889999837,255.68422360002296,255.66649100001086,255.9667151000176,255.9667151000176,None,256.4683417000051,None,j,1,1.0200191000185441,256.4683417000051,None,None,None,257.519102100021,None,,,,,,,,,,,,,,,,,,,,,11017,1,2,2024_Jun_17_1428,stroop_task_switching2_b,2021.2.3,60.15750438674803,
condition/block_mixed_b,instruction/instr_mixed,instruction/i10_b,黄,red,f,square,color_mix,单词,,incompatible,2,,,,,,,,0,2,2,2,0,0,0,0,0,14,14,14,,,,,,,,,,,,,,,,,,,,,,,,,,,,,,,,,,,258.5205477999989,258.7218330000178,258.7050597000052,259.0050560000236,259.0050560000236,None,259.50613010002417,None,k,0,0.6631392000126652,259.50613010002417,None,None,None,260.189405800018,None,,,,,,,,,,,,,,,,,,,,,11017,1,2,2024_Jun_17_1428,stroop_task_switching2_b,2021.2.3,60.15750438674803,
condition/block_mixed_b,instruction/instr_mixed,instruction/i10_b,蓝,yellow,f,diamond,color_mix,颜色,,incompatible,2,,,,,,,,0,2,2,2,0,0,0,0,0,15,15,15,,,,,,,,,,,,,,,,,,,,,,,,,,,,,,,,,,,261.19151070000953,261.391538099997,261.3750648999994,261.67633610000485,261.67633610000485,None,262.1767373000039,None,f,1,1.3200714999984484,262.1767373000039,None,None,None,263.5282133000146,None,,,,,,,,,,,,,,,,,,,,,11017,1,2,2024_Jun_17_1428,stroop_task_switching2_b,2021.2.3,60.15750438674803,
condition/block_mixed_b,instruction/instr_mixed,instruction/i10_b,黄,red,k,diamond,color_mix,颜色,,incompatible,1,,,,,,,,0,2,2,2,0,0,0,0,0,16,16,16,,,,,,,,,,,,,,,,,,,,,,,,,,,,,,,,,,,264.5304001000186,264.73090740002226,264.7139713000215,265.014946100011,265.014946100011,None,265.51451670000097,None,k,1,0.7742336000083014,265.51451670000097,None,None,None,266.31561370001873,None,,,,,,,,,,,,,,,,,,,,,11017,1,2,2024_Jun_17_1428,stroop_task_switching2_b,2021.2.3,60.15750438674803,
condition/block_mixed_b,instruction/instr_mixed,instruction/i10_b,绿,red,d,square,color_mix,单词,,incompatible,2,,,,,,,,0,2,2,2,0,0,0,0,0,17,17,17,,,,,,,,,,,,,,,,,,,,,,,,,,,,,,,,,,,267.3171649000142,267.51851850000094,267.501403000002,267.8025553000043,267.8025553000043,None,268.3021937000158,None,d,1,1.1787863000063226,268.3021937000158,None,None,None,269.5039738000196,None,,,,,,,,,,,,,,,,,,,,,11017,1,2,2024_Jun_17_1428,stroop_task_switching2_b,2021.2.3,60.15750438674803,
condition/block_mixed_b,instruction/instr_mixed,instruction/i10_b,红,green,k,square,color_mix,单词,,incompatible,1,,,,,,,,0,2,2,2,0,0,0,0,0,18,18,18,,,,,,,,,,,,,,,,,,,,,,,,,,,,,,,,,,,270.5054713000136,270.7056831000082,270.6900577000051,270.9905682000099,270.9905682000099,None,271.49020090000704,None,k,1,1.1195290999894496,271.49020090000704,None,None,None,272.62533979999716,None,,,,,,,,,,,,,,,,,,,,,11017,1,2,2024_Jun_17_1428,stroop_task_switching2_b,2021.2.3,60.15750438674803,
condition/block_mixed_b,instruction/instr_mixed,instruction/i10_b,黄,blue,j,diamond,color_mix,颜色,,incompatible,2,,,,,,,,0,2,2,2,0,0,0,0,0,19,19,19,,,,,,,,,,,,,,,,,,,,,,,,,,,,,,,,,,,273.6265827000025,273.8271408000146,273.81115550000686,274.11086950000026,274.11086950000026,None,274.6115758000233,None,j,1,1.3896089000045322,274.6115758000233,None,None,None,276.0310109000129,None,,,,,,,,,,,,,,,,,,,,,11017,1,2,2024_Jun_17_1428,stroop_task_switching2_b,2021.2.3,60.15750438674803,
condition/block_mixed_b,instruction/instr_mixed,instruction/i10_b,黄,green,d,diamond,color_mix,颜色,,incompatible,1,,,,,,,,0,2,2,2,0,0,0,0,0,20,20,20,,,,,,,,,,,,,,,,,,,,,,,,,,,,,,,,,,,277.03261520000524,277.23299250000855,277.2160170999996,277.5158879000228,277.5158879000228,None,278.01670090001426,None,d,1,1.176932600006694,278.01670090001426,None,None,None,279.21859830000903,None,,,,,,,,,,,,,,,,,,,,,11017,1,2,2024_Jun_17_1428,stroop_task_switching2_b,2021.2.3,60.15750438674803,
condition/block_mixed_b,instruction/instr_mixed,instruction/i10_b,黄,green,f,square,color_mix,单词,,incompatible,2,,,,,,,,0,2,2,2,0,0,0,0,0,21,21,21,,,,,,,,,,,,,,,,,,,,,,,,,,,,,,,,,,,280.22021970001515,280.42027470000903,280.40426420001313,280.704141299997,280.704141299997,None,281.20483349999995,None,f,1,0.9565355999802705,281.20483349999995,None,None,None,282.1903457000153,None,,,,,,,,,,,,,,,,,,,,,11017,1,2,2024_Jun_17_1428,stroop_task_switching2_b,2021.2.3,60.15750438674803,
condition/block_mixed_b,instruction/instr_mixed,instruction/i10_b,黄,blue,f,square,color_mix,单词,,incompatible,1,,,,,,,,0,2,2,2,0,0,0,0,0,22,22,22,,,,,,,,,,,,,,,,,,,,,,,,,,,,,,,,,,,283.191470699996,283.3921406000154,283.3747294000059,283.6750592000026,283.6750592000026,None,284.17602949999855,None,f,1,0.8971451999968849,284.17602949999855,None,None,None,285.09412240001257,None,,,,,,,,,,,,,,,,,,,,,11017,1,2,2024_Jun_17_1428,stroop_task_switching2_b,2021.2.3,60.15750438674803,
condition/block_mixed_b,instruction/instr_mixed,instruction/i10_b,蓝,red,j,square,color_mix,单词,,incompatible,1,,,,,,,,0,2,2,2,0,0,0,0,0,23,23,23,,,,,,,,,,,,,,,,,,,,,,,,,,,,,,,,,,,286.09538740001153,286.29721430002246,286.2798653000209,286.5796205000079,286.5796205000079,None,287.08093640001607,None,j,1,0.9202403000090271,287.08093640001607,None,None,None,288.03199970000423,None,,,,,,,,,,,,,,,,,,,,,11017,1,2,2024_Jun_17_1428,stroop_task_switching2_b,2021.2.3,60.15750438674803,
condition/block_mixed_b,instruction/instr_mixed,instruction/i10_b,绿,red,k,diamond,color_mix,颜色,,incompatible,2,,,,,,,,0,2,2,2,0,0,0,0,0,24,24,24,,,,,,,,,,,,,,,,,,,,,,,,,,,,,,,,,,,289.0346261000086,289.2512756000215,289.21688580000773,289.51902269999846,289.51902269999846,None,290.0181391000224,None,d,0,0.9359723999805283,290.0181391000224,None,None,None,290.9695815000159,None,,,,,,,,,,,,,,,,,,,,,11017,1,2,2024_Jun_17_1428,stroop_task_switching2_b,2021.2.3,60.15750438674803,
condition/block_mixed_b,instruction/instr_mixed,instruction/i10_b,绿,green,d,diamond,color_mix,颜色,,compatible,1,,,,,,,,0,2,2,2,0,0,0,0,0,25,25,25,,,,,,,,,,,,,,,,,,,,,,,,,,,,,,,,,,,291.9711226000218,292.1730482999992,292.15462970000226,292.4565792000212,292.4565792000212,None,292.9563311000238,None,d,1,0.6452516999852378,292.9563311000238,None,None,None,293.6237198000017,None,,,,,,,,,,,,,,,,,,,,,11017,1,2,2024_Jun_17_1428,stroop_task_switching2_b,2021.2.3,60.15750438674803,
condition/block_mixed_b,instruction/instr_mixed,instruction/i10_b,蓝,blue,j,diamond,color_mix,颜色,,compatible,1,,,,,,,,0,2,2,2,0,0,0,0,0,26,26,26,,,,,,,,,,,,,,,,,,,,,,,,,,,,,,,,,,,294.62543250000454,294.8262182000035,294.8098335000104,295.1092576000083,295.1092576000083,None,295.6098200000124,None,j,1,0.7037748000002466,295.6098200000124,None,None,None,296.3274044000136,None,,,,,,,,,,,,,,,,,,,,,11017,1,2,2024_Jun_17_1428,stroop_task_switching2_b,2021.2.3,60.15750438674803,
condition/block_mixed_b,instruction/instr_mixed,instruction/i10_b,绿,green,d,square,color_mix,单词,,compatible,2,,,,,,,,0,2,2,2,0,0,0,0,0,27,27,27,,,,,,,,,,,,,,,,,,,,,,,,,,,,,,,,,,,297.32911550000426,297.5309238000191,297.51270620001014,297.8136893000046,297.8136893000046,None,298.3141985000111,None,d,1,0.8635542999836616,298.3141985000111,None,None,None,299.1990834000171,None,,,,,,,,,,,,,,,,,,,,,11017,1,2,2024_Jun_17_1428,stroop_task_switching2_b,2021.2.3,60.15750438674803,
condition/block_mixed_b,instruction/instr_mixed,instruction/i10_b,绿,green,d,square,color_mix,单词,,compatible,1,,,,,,,,0,2,2,2,0,0,0,0,0,28,28,28,,,,,,,,,,,,,,,,,,,,,,,,,,,,,,,,,,,300.20097620002343,300.40187760000117,300.38374170000316,300.6855218000128,300.6855218000128,None,301.18578170001274,None,d,1,0.6160404999973252,301.18578170001274,None,None,None,301.8193974000169,None,,,,,,,,,,,,,,,,,,,,,11017,1,2,2024_Jun_17_1428,stroop_task_switching2_b,2021.2.3,60.15750438674803,
condition/block_mixed_b,instruction/instr_mixed,instruction/i10_b,蓝,blue,j,square,color_mix,单词,,compatible,1,,,,,,,,0,2,2,2,0,0,0,0,0,29,29,29,,,,,,,,,,,,,,,,,,,,,,,,,,,,,,,,,,,302.82059210000443,303.0218901000044,303.0056632000196,303.3215274999966,303.3058676000219,None,303.805600599997,None,j,1,0.6127402999845799,303.805600599997,None,None,None,304.4398943000124,None,,,,,,,,,,,,,,,,,,,,,11017,1,2,2024_Jun_17_1428,stroop_task_switching2_b,2021.2.3,60.15750438674803,
condition/block_mixed_b,instruction/instr_mixed,instruction/i10_b,黄,yellow,f,diamond,color_mix,颜色,,compatible,2,,,,,,,,0,2,2,2,0,0,0,0,0,30,30,30,,,,,,,,,,,,,,,,,,,,,,,,,,,,,,,,,,,305.44148999999743,305.6426894000033,305.6250960000034,305.9268180000072,305.9268180000072,None,306.4270619000017,None,f,1,0.9114735000184737,306.4270619000017,None,None,None,307.3614540999988,None,,,,,,,,,,,,,,,,,,,,,11017,1,2,2024_Jun_17_1428,stroop_task_switching2_b,2021.2.3,60.15750438674803,
condition/block_mixed_b,instruction/instr_mixed,instruction/i10_b,绿,green,d,square,color_mix,单词,,compatible,2,,,,,,,,0,2,2,2,0,0,0,0,0,31,31,31,,,,,,,,,,,,,,,,,,,,,,,,,,,,,,,,,,,308.3625268000178,308.56268360000104,308.54643370001577,308.8477263000095,308.8477263000095,None,309.34724940001615,None,d,1,0.574708100000862,309.34724940001615,None,None,None,309.94801580000785,None,,,,,,,,,,,,,,,,,,,,,11017,1,2,2024_Jun_17_1428,stroop_task_switching2_b,2021.2.3,60.15750438674803,
condition/block_mixed_b,instruction/instr_mixed,instruction/i10_b,黄,yellow,f,square,color_mix,单词,,compatible,1,,,,,,,,0,2,2,2,0,0,0,0,0,32,32,32,,,,,,,,,,,,,,,,,,,,,,,,,,,,,,,,,,,310.95076300000073,311.15037499999744,311.13327760001994,311.43385110000963,311.43385110000963,None,311.9345544000098,None,f,1,0.6121344999992289,311.9345544000098,None,None,None,312.5693289000192,None,,,,,,,,,,,,,,,,,,,,,11017,1,2,2024_Jun_17_1428,stroop_task_switching2_b,2021.2.3,60.15750438674803,
condition/block_mixed_b,instruction/instr_mixed,instruction/i10_b,绿,green,d,diamond,color_mix,颜色,,compatible,2,,,,,,,,0,2,2,2,0,0,0,0,0,33,33,33,,,,,,,,,,,,,,,,,,,,,,,,,,,,,,,,,,,313.5702224000124,313.7709670000186,313.7561862000148,314.07177470001625,314.0543336000119,None,314.55527569999686,None,d,1,0.6391096999868751,314.55527569999686,None,None,None,315.2226588000194,None,,,,,,,,,,,,,,,,,,,,,11017,1,2,2024_Jun_17_1428,stroop_task_switching2_b,2021.2.3,60.15750438674803,
condition/block_mixed_b,instruction/instr_mixed,instruction/i10_b,红,red,k,square,color_mix,单词,,compatible,2,,,,,,,,0,2,2,2,0,0,0,0,0,34,34,34,,,,,,,,,,,,,,,,,,,,,,,,,,,,,,,,,,,316.22455620000255,316.4252335000201,316.4088311000087,316.70966990001034,316.70966990001034,None,317.2093269000179,None,k,1,0.6409291999880224,317.2093269000179,None,None,None,317.87728800001787,None,,,,,,,,,,,,,,,,,,,,,11017,1,2,2024_Jun_17_1428,stroop_task_switching2_b,2021.2.3,60.15750438674803,
condition/block_mixed_b,instruction/instr_mixed,instruction/i10_b,黄,yellow,f,square,color_mix,单词,,compatible,1,,,,,,,,0,2,2,2,0,0,0,0,0,35,35,35,,,,,,,,,,,,,,,,,,,,,,,,,,,,,,,,,,,318.87832290001097,319.07983689999674,319.0625534999999,319.3631666000001,319.3631666000001,None,319.8644998000236,None,f,1,0.5222012999875005,319.8644998000236,None,None,None,320.41403159999754,None,,,,,,,,,,,,,,,,,,,,,11017,1,2,2024_Jun_17_1428,stroop_task_switching2_b,2021.2.3,60.15750438674803,
condition/block_mixed_b,instruction/instr_mixed,instruction/i10_b,绿,green,d,diamond,color_mix,颜色,,compatible,2,,,,,,,,0,2,2,2,0,0,0,0,0,36,36,36,,,,,,,,,,,,,,,,,,,,,,,,,,,,,,,,,,,321.4161668000161,321.6163896000071,321.5997470000002,321.9004649000126,321.9004649000126,None,322.40017840001383,None,d,1,0.6193444000091404,322.40017840001383,None,None,None,323.03431400001864,None,,,,,,,,,,,,,,,,,,,,,11017,1,2,2024_Jun_17_1428,stroop_task_switching2_b,2021.2.3,60.15750438674803,
condition/block_mixed_b,instruction/instr_mixed,instruction/i10_b,蓝,blue,j,square,color_mix,单词,,compatible,2,,,,,,,,0,2,2,2,0,0,0,0,0,37,37,37,,,,,,,,,,,,,,,,,,,,,,,,,,,,,,,,,,,324.0366856000037,324.23647630002233,324.21942570002284,324.52157090001856,324.52157090001856,None,325.02113649999956,None,j,1,0.5335070000146516,325.02113649999956,None,None,None,325.5717397000117,None,,,,,,,,,,,,,,,,,,,,,11017,1,2,2024_Jun_17_1428,stroop_task_switching2_b,2021.2.3,60.15750438674803,
condition/block_mixed_b,instruction/instr_mixed,instruction/i10_b,红,red,k,square,color_mix,单词,,compatible,1,,,,,,,,0,2,2,2,0,0,0,0,0,38,38,38,,,,,,,,,,,,,,,,,,,,,,,,,,,,,,,,,,,326.5739792000095,326.774270599999,326.7576482000004,327.0572877000086,327.0572877000086,None,327.55783659999724,None,k,1,0.7806992999976501,327.55783659999724,None,None,None,328.3593461000128,None,,,,,,,,,,,,,,,,,,,,,11017,1,2,2024_Jun_17_1428,stroop_task_switching2_b,2021.2.3,60.15750438674803,
condition/block_mixed_b,instruction/instr_mixed,instruction/i10_b,黄,yellow,f,diamond,color_mix,颜色,,compatible,2,,,,,,,,0,2,2,2,0,0,0,0,0,39,39,39,,,,,,,,,,,,,,,,,,,,,,,,,,,,,,,,,,,329.36069719999796,329.5627256000007,329.54426120000426,329.8456822000153,329.8456822000153,None,330.3456686999998,None,f,1,0.5531772000249475,330.3456686999998,None,None,None,330.91359360000934,None,,,,,,,,,,,,,,,,,,,,,11017,1,2,2024_Jun_17_1428,stroop_task_switching2_b,2021.2.3,60.15750438674803,
condition/block_mixed_b,instruction/instr_mixed,instruction/i10_b,黄,yellow,f,square,color_mix,单词,,compatible,2,,,,,,,,0,2,2,2,0,0,0,0,0,40,40,40,,,,,,,,,,,,,,,,,,,,,,,,,,,,,,,,,,,331.9155077000032,332.1152238000068,332.0990461000183,332.39949270000216,332.39949270000216,None,332.90040600000066,None,f,1,0.5832120999984909,332.90040600000066,None,None,None,333.50097580000875,None,,,,,,,,,,,,,,,,,,,,,11017,1,2,2024_Jun_17_1428,stroop_task_switching2_b,2021.2.3,60.15750438674803,
condition/block_mixed_b,instruction/instr_mixed,instruction/i10_b,蓝,blue,j,square,color_mix,单词,,compatible,1,,,,,,,,0,2,2,2,0,0,0,0,0,41,41,41,,,,,,,,,,,,,,,,,,,,,,,,,,,,,,,,,,,334.5016046000237,334.70212329999777,334.6862775000045,334.98681290002423,334.98681290002423,None,335.48664680001093,None,j,1,0.516561999975238,335.48664680001093,None,None,None,336.02103850001004,None,,,,,,,,,,,,,,,,,,,,,11017,1,2,2024_Jun_17_1428,stroop_task_switching2_b,2021.2.3,60.15750438674803,
condition/block_mixed_b,instruction/instr_mixed,instruction/i10_b,蓝,blue,j,diamond,color_mix,颜色,,compatible,2,,,,,,,,0,2,2,2,0,0,0,0,0,42,42,42,,,,,,,,,,,,,,,,,,,,,,,,,,,,,,,,,,,337.02313830002095,337.2226157000114,337.2061511000211,337.5071572000161,337.5071572000161,None,338.0075900000229,None,j,1,0.5793485000031069,338.0075900000229,None,None,None,338.60799920000136,None,,,,,,,,,,,,,,,,,,,,,11017,1,2,2024_Jun_17_1428,stroop_task_switching2_b,2021.2.3,60.15750438674803,
condition/block_mixed_b,instruction/instr_mixed,instruction/i10_b,黄,yellow,f,diamond,color_mix,颜色,,compatible,1,,,,,,,,0,2,2,2,0,0,0,0,0,43,43,43,,,,,,,,,,,,,,,,,,,,,,,,,,,,,,,,,,,339.609383300005,339.8107455999998,339.7951271000202,340.1110910999996,340.0955956999969,None,340.594322799996,None,f,1,0.5766825999889988,340.594322799996,None,None,None,341.19526730000507,None,,,,,,,,,,,,,,,,,,,,,11017,1,2,2024_Jun_17_1428,stroop_task_switching2_b,2021.2.3,60.15750438674803,
condition/block_mixed_b,instruction/instr_mixed,instruction/i10_b,红,red,k,diamond,color_mix,颜色,,compatible,1,,,,,,,,0,2,2,2,0,0,0,0,0,44,44,44,,,,,,,,,,,,,,,,,,,,,,,,,,,,,,,,,,,342.1976330000034,342.39771089999704,342.3803249000048,342.6814106000238,342.6814106000238,None,343.18180890000076,None,k,1,0.5811468999891076,343.18180890000076,None,None,None,343.7826219999988,None,,,,,,,,,,,,,,,,,,,,,11017,1,2,2024_Jun_17_1428,stroop_task_switching2_b,2021.2.3,60.15750438674803,
condition/block_mixed_b,instruction/instr_mixed,instruction/i10_b,蓝,blue,j,diamond,color_mix,颜色,,compatible,1,,,,,,,,0,2,2,2,0,0,0,0,0,45,45,45,,,,,,,,,,,,,,,,,,,,,,,,,,,,,,,,,,,344.783942900016,344.9844479000021,344.96846110001206,345.26923330000136,345.26923330000136,None,345.7696317000082,None,j,1,0.5376269999833312,345.7696317000082,None,None,None,346.33646290001343,None,,,,,,,,,,,,,,,,,,,,,11017,1,2,2024_Jun_17_1428,stroop_task_switching2_b,2021.2.3,60.15750438674803,
condition/block_mixed_b,instruction/instr_mixed,instruction/i10_b,红,red,k,diamond,color_mix,颜色,,compatible,1,,,,,,,,0,2,2,2,0,0,0,0,0,46,46,46,,,,,,,,,,,,,,,,,,,,,,,,,,,,,,,,,,,347.33881360001396,347.5381314000115,347.52149850002024,347.8225613000104,347.8225613000104,None,348.32273400001577,None,k,1,0.560404899995774,348.32273400001577,None,None,None,348.9070210000209,None,,,,,,,,,,,,,,,,,,,,,11017,1,2,2024_Jun_17_1428,stroop_task_switching2_b,2021.2.3,60.15750438674803,
condition/block_mixed_b,instruction/instr_mixed,instruction/i10_b,红,red,k,square,color_mix,单词,,compatible,2,,,,,,,,0,2,2,2,0,0,0,0,0,47,47,47,,,,,,,,,,,,,,,,,,,,,,,,,,,,,,,,,,,349.9086429000017,350.10909650000394,350.0936733999988,350.3928783000156,350.3928783000156,None,350.8933079999988,None,k,1,0.5580642999848351,350.8933079999988,None,None,None,351.4778847999987,None,,,,,,,,,,,,,,,,,,,,,11017,1,2,2024_Jun_17_1428,stroop_task_switching2_b,2021.2.3,60.15750438674803,
condition/block_mixed_b,instruction/instr_mixed,instruction/i10_b,红,red,k,diamond,color_mix,颜色,,compatible,2,,,,,,,,0,2,2,2,0,0,0,0,0,48,48,48,,,,,,,,,,,,,,,,,,,,,,,,,,,,,,,,,,,352.4796605000156,352.6791177999985,352.6634434000007,352.9629853000224,352.9629853000224,None,353.4640156000096,None,k,1,0.5076954000105616,353.4640156000096,None,None,None,353.99810759999673,None,,,,,,,,,,,,,,,,,,,,,11017,1,2,2024_Jun_17_1428,stroop_task_switching2_b,2021.2.3,60.15750438674803,
condition/block_mixed_b,instruction/instr_mixed,instruction/i10_b,,,,,,,,,,,,,,,,,0,2,2,2,0,0,0,0,,,,,,,,,,,,,,,,,,,,,,,,,,,,,,,,,,,,,,,,,,,,,,,,,,,,,,,,354.99895540002035,None,space,9.316407300007995,354.99895540002035,None,,,,,,,,,,,,,,,11017,1,2,2024_Jun_17_1428,stroop_task_switching2_b,2021.2.3,60.15750438674803,
condition/block_mixed_b,instruction/instr_mixed,instruction/i10_b,,,,,,,,,,,,,,,,,0,2,2,2,,,,,,,,,,,,,,,,,,,,,,,,,,,,,,,,,,,,,,,,,,,,,,,,,,,,,,,,,,,,,,,,,,,,,,,,,,,,,,,,11017,1,2,2024_Jun_17_1428,stroop_task_switching2_b,2021.2.3,60.15750438674803,
,,,红,red,k,square,color_mix,单词,,compatible,0,block_switch1_b,instruction/ready_test.png,instruction/i11.png,,,,,,,,,,,,,,,,,0,0,0,0,0,0,0,0,,,,,,,,,,,,,,,,,,,368.18722150000394,369.1874527000182,369.1874527000182,370.18905400001677,370.18905400001677,None,367.2019144000078,368.20337640002253,371.2074760000105,371.4075489999959,371.4075489999959,371.7094380000199,371.7094380000199,None,372.20891230000416,None,k,1,0.5154235000081826,372.20891230000416,None,None,None,,,,,,,,,364.3805575000006,None,space,2.7913946000044234,364.3805575000006,None,,,,,,,,,11017,1,2,2024_Jun_17_1428,stroop_task_switching2_b,2021.2.3,60.15750438674803,
,,,绿,green,d,diamond,color_mix,颜色,,compatible,2,block_switch1_b,instruction/ready_test.png,instruction/i11.png,,,,,,,,,,,,,,,,,0,0,0,0,0,1,1,1,,,,,,,,,,,,,,,,,,,,,,,,,,,372.7433572000009,372.94387950000237,372.92637339999783,373.22725600001286,373.22725600001286,None,373.7276705999975,None,d,1,0.5965115999861155,373.7276705999975,None,None,None,,,,,,,,,,,,,,,,,,,,,,,11017,1,2,2024_Jun_17_1428,stroop_task_switching2_b,2021.2.3,60.15750438674803,
,,,绿,yellow,f,diamond,color_mix,颜色,,incompatible,1,block_switch1_b,instruction/ready_test.png,instruction/i11.png,,,,,,,,,,,,,,,,,0,0,0,0,0,2,2,2,,,,,,,,,,,,,,,,,,,,,,,,,,,374.34531080001034,374.5474983000022,374.52879300000495,374.8298251000233,374.8298251000233,None,375.3306804000167,None,d,0,0.6572346000175457,375.3306804000167,None,None,None,,,,,,,,,,,,,,,,,,,,,,,11017,1,2,2024_Jun_17_1428,stroop_task_switching2_b,2021.2.3,60.15750438674803,
,,,蓝,blue,j,diamond,color_mix,颜色,,compatible,1,block_switch1_b,instruction/ready_test.png,instruction/i11.png,,,,,,,,,,,,,,,,,0,0,0,0,0,3,3,3,,,,,,,,,,,,,,,,,,,,,,,,,,,376.014474399999,376.21633750002366,376.19803810000303,376.4991721000115,376.4991721000115,None,376.9993868000165,None,j,1,0.7012693000142463,376.9993868000165,None,None,None,,,,,,,,,,,,,,,,,,,,,,,11017,1,2,2024_Jun_17_1428,stroop_task_switching2_b,2021.2.3,60.15750438674803,
,,,绿,green,d,square,color_mix,单词,,compatible,2,block_switch1_b,instruction/ready_test.png,instruction/i11.png,,,,,,,,,,,,,,,,,0,0,0,0,0,4,4,4,,,,,,,,,,,,,,,,,,,,,,,,,,,377.71698070000275,377.9181840000092,377.9012425999972,378.20138990000123,378.20138990000123,None,378.7017936000193,None,d,1,0.6227844000095502,378.7017936000193,None,None,None,,,,,,,,,,,,,,,,,,,,,,,11017,1,2,2024_Jun_17_1428,stroop_task_switching2_b,2021.2.3,60.15750438674803,
,,,绿,blue,j,diamond,color_mix,颜色,,incompatible,2,block_switch1_b,instruction/ready_test.png,instruction/i11.png,,,,,,,,,,,,,,,,,0,0,0,0,0,5,5,5,,,,,,,,,,,,,,,,,,,,,,,,,,,379.3528496000217,379.5532330000133,379.53662260001875,379.8371960000077,379.8371960000077,None,380.33845890001976,None,j,1,1.834115900011966,380.33845890001976,None,None,None,,,,,,,,,,,,,,,,,,,,,,,11017,1,2,2024_Jun_17_1428,stroop_task_switching2_b,2021.2.3,60.15750438674803,
,,,黄,red,f,square,color_mix,单词,,incompatible,2,block_switch1_b,instruction/ready_test.png,instruction/i11.png,,,,,,,,,,,,,,,,,0,0,0,0,0,6,6,6,,,,,,,,,,,,,,,,,,,,,,,,,,,382.1903750000056,382.3923214999959,382.374055399996,382.6746348000015,382.6746348000015,None,383.1758066000184,None,f,1,1.4603208000189625,383.1758066000184,None,None,None,,,,,,,,,,,,,,,,,,,,,,,11017,1,2,2024_Jun_17_1428,stroop_task_switching2_b,2021.2.3,60.15750438674803,
,,,绿,green,d,square,color_mix,单词,,compatible,1,block_switch1_b,instruction/ready_test.png,instruction/i11.png,,,,,,,,,,,,,,,,,0,0,0,0,0,7,7,7,,,,,,,,,,,,,,,,,,,,,,,,,,,384.66067820001626,384.8616763000027,384.8443613999989,385.1450637000089,385.1450637000089,None,385.64550140002393,None,d,1,0.7107959999993909,385.64550140002393,None,None,None,,,,,,,,,,,,,,,,,,,,,,,11017,1,2,2024_Jun_17_1428,stroop_task_switching2_b,2021.2.3,60.15750438674803,
,,,蓝,blue,j,square,color_mix,单词,,compatible,1,block_switch1_b,instruction/ready_test.png,instruction/i11.png,,,,,,,,,,,,,,,,,0,0,0,0,0,8,8,8,,,,,,,,,,,,,,,,,,,,,,,,,,,386.38006470000255,386.5811254,386.5645385000098,386.8649011000234,386.8649011000234,None,387.36508630000753,None,j,1,0.7354682000004686,387.36508630000753,None,None,None,,,,,,,,,,,,,,,,,,,,,,,11017,1,2,2024_Jun_17_1428,stroop_task_switching2_b,2021.2.3,60.15750438674803,
,,,红,red,k,diamond,color_mix,颜色,,compatible,2,block_switch1_b,instruction/ready_test.png,instruction/i11.png,,,,,,,,,,,,,,,,,0,0,0,0,0,9,9,9,,,,,,,,,,,,,,,,,,,,,,,,,,,388.11589310001,388.31698750000214,388.3005072000087,388.60101650000433,388.60101650000433,None,389.10086820001015,None,k,1,0.599789600004442,389.10086820001015,None,None,None,,,,,,,,,,,,,,,,,,,,,,,11017,1,2,2024_Jun_17_1428,stroop_task_switching2_b,2021.2.3,60.15750438674803,
,,,黄,yellow,f,diamond,color_mix,颜色,,compatible,1,block_switch1_b,instruction/ready_test.png,instruction/i11.png,,,,,,,,,,,,,,,,,0,0,0,0,0,10,10,10,,,,,,,,,,,,,,,,,,,,,,,,,,,389.7185097000038,389.9189471999998,389.9021111000038,390.2041081000061,390.2041081000061,None,390.70321310000145,None,f,1,0.5569530999928247,390.70321310000145,None,None,None,,,,,,,,,,,,,,,,,,,,,,,11017,1,2,2024_Jun_17_1428,stroop_task_switching2_b,2021.2.3,60.15750438674803,
,,,绿,green,d,square,color_mix,单词,,compatible,2,block_switch1_b,instruction/ready_test.png,instruction/i11.png,,,,,,,,,,,,,,,,,0,0,0,0,0,11,11,11,,,,,,,,,,,,,,,,,,,,,,,,,,,391.28752370001166,391.48806100001093,391.4733520000009,391.7892320000101,391.772930600011,None,392.27310849999776,None,d,1,0.4595129999797791,392.27310849999776,None,None,None,,,,,,,,,,,,,,,,,,,,,,,11017,1,2,2024_Jun_17_1428,stroop_task_switching2_b,2021.2.3,60.15750438674803,
,,,红,red,k,diamond,color_mix,颜色,,compatible,2,block_switch1_b,instruction/ready_test.png,instruction/i11.png,,,,,,,,,,,,,,,,,0,0,0,0,0,12,12,12,,,,,,,,,,,,,,,,,,,,,,,,,,,392.75750990002416,392.9573825999978,392.93987709999783,393.2406007999962,393.2406007999962,None,393.7412768000213,None,k,1,1.0708927999949083,393.7412768000213,None,None,None,,,,,,,,,,,,,,,,,,,,,,,11017,1,2,2024_Jun_17_1428,stroop_task_switching2_b,2021.2.3,60.15750438674803,
,,,红,red,k,diamond,color_mix,颜色,,compatible,1,block_switch1_b,instruction/ready_test.png,instruction/i11.png,,,,,,,,,,,,,,,,,0,0,0,0,0,13,13,13,,,,,,,,,,,,,,,,,,,,,,,,,,,394.84269220000715,395.0442078000051,395.02729680002085,395.3279861000192,395.3279861000192,None,395.82842659999733,None,k,1,0.5686576000007335,395.82842659999733,None,None,None,,,,,,,,,,,,,,,,,,,,,,,11017,1,2,2024_Jun_17_1428,stroop_task_switching2_b,2021.2.3,60.15750438674803,
,,,黄,yellow,f,square,color_mix,单词,,compatible,2,block_switch1_b,instruction/ready_test.png,instruction/i11.png,,,,,,,,,,,,,,,,,0,0,0,0,0,14,14,14,,,,,,,,,,,,,,,,,,,,,,,,,,,396.411944499996,396.6143694000202,396.5960837000166,396.8968248000019,396.8968248000019,None,397.39730880002026,None,f,1,0.6473221999767702,397.39730880002026,None,None,None,,,,,,,,,,,,,,,,,,,,,,,11017,1,2,2024_Jun_17_1428,stroop_task_switching2_b,2021.2.3,60.15750438674803,
,,,红,green,d,diamond,color_mix,颜色,,incompatible,2,block_switch1_b,instruction/ready_test.png,instruction/i11.png,,,,,,,,,,,,,,,,,0,0,0,0,0,15,15,15,,,,,,,,,,,,,,,,,,,,,,,,,,,398.0642842000234,398.26588360001915,398.2480365000083,398.5482316999987,398.5482316999987,None,399.04898089999915,None,d,1,2.107369599980302,399.04898089999915,None,None,None,,,,,,,,,,,,,,,,,,,,,,,11017,1,2,2024_Jun_17_1428,stroop_task_switching2_b,2021.2.3,60.15750438674803,
,,,蓝,red,k,diamond,color_mix,颜色,,incompatible,1,block_switch1_b,instruction/ready_test.png,instruction/i11.png,,,,,,,,,,,,,,,,,0,0,0,0,0,16,16,16,,,,,,,,,,,,,,,,,,,,,,,,,,,401.1856752000167,401.38682320000953,401.36941060001845,401.6712582000182,401.6712582000182,None,402.17086450001807,None,k,1,1.545887699990999,402.17086450001807,None,None,None,,,,,,,,,,,,,,,,,,,,,,,11017,1,2,2024_Jun_17_1428,stroop_task_switching2_b,2021.2.3,60.15750438674803,
,,,黄,green,d,diamond,color_mix,颜色,,incompatible,1,block_switch1_b,instruction/ready_test.png,instruction/i11.png,,,,,,,,,,,,,,,,,0,0,0,0,0,17,17,17,,,,,,,,,,,,,,,,,,,,,,,,,,,403.7395801000239,403.9403775999963,403.9231135000009,404.22501419999753,404.22501419999753,None,404.7243907000229,None,d,1,0.7923178000201005,404.7243907000229,None,None,None,,,,,,,,,,,,,,,,,,,,,,,11017,1,2,2024_Jun_17_1428,stroop_task_switching2_b,2021.2.3,60.15750438674803,
,,,绿,green,d,diamond,color_mix,颜色,,compatible,1,block_switch1_b,instruction/ready_test.png,instruction/i11.png,,,,,,,,,,,,,,,,,0,0,0,0,0,18,18,18,,,,,,,,,,,,,,,,,,,,,,,,,,,405.5423609999998,405.74306140001863,405.7258746000007,406.02642080001533,406.02642080001533,None,406.52827380000963,None,d,1,0.6204328000021633,406.52827380000963,None,None,None,,,,,,,,,,,,,,,,,,,,,,,11017,1,2,2024_Jun_17_1428,stroop_task_switching2_b,2021.2.3,60.15750438674803,
,,,黄,red,k,diamond,color_mix,颜色,,incompatible,1,block_switch1_b,instruction/ready_test.png,instruction/i11.png,,,,,,,,,,,,,,,,,0,0,0,0,0,19,19,19,,,,,,,,,,,,,,,,,,,,,,,,,,,407.17804389999947,407.38043730001664,407.3624176000012,407.664440499997,407.664440499997,None,408.18087550002383,None,k,1,1.640354600007413,408.18087550002383,None,None,None,,,,,,,,,,,,,,,,,,,,,,,11017,1,2,2024_Jun_17_1428,stroop_task_switching2_b,2021.2.3,60.15750438674803,
,,,绿,yellow,d,square,color_mix,单词,,incompatible,2,block_switch1_b,instruction/ready_test.png,instruction/i11.png,,,,,,,,,,,,,,,,,0,0,0,0,0,20,20,20,,,,,,,,,,,,,,,,,,,,,,,,,,,409.84881320002023,410.0494166999997,410.0330789000145,410.3336980000022,410.3336980000022,None,410.8348847000161,None,d,1,0.769844499998726,410.8348847000161,None,None,None,,,,,,,,,,,,,,,,,,,,,,,11017,1,2,2024_Jun_17_1428,stroop_task_switching2_b,2021.2.3,60.15750438674803,
,,,绿,yellow,f,diamond,color_mix,颜色,,incompatible,2,block_switch1_b,instruction/ready_test.png,instruction/i11.png,,,,,,,,,,,,,,,,,0,0,0,0,0,21,21,21,,,,,,,,,,,,,,,,,,,,,,,,,,,411.6347907000163,411.8351820000098,411.82002260000445,412.1195566000242,412.1195566000242,None,412.6193191000202,None,f,1,0.6655783000169322,412.6193191000202,None,None,None,,,,,,,,,,,,,,,,,,,,,,,11017,1,2,2024_Jun_17_1428,stroop_task_switching2_b,2021.2.3,60.15750438674803,
,,,绿,green,d,square,color_mix,单词,,compatible,2,block_switch1_b,instruction/ready_test.png,instruction/i11.png,,,,,,,,,,,,,,,,,0,0,0,0,0,22,22,22,,,,,,,,,,,,,,,,,,,,,,,,,,,413.3039998000022,413.5063497000083,413.4875899000035,413.7895960000169,413.7895960000169,None,414.28874440002255,None,d,1,0.7647715999919455,414.28874440002255,None,None,None,,,,,,,,,,,,,,,,,,,,,,,11017,1,2,2024_Jun_17_1428,stroop_task_switching2_b,2021.2.3,60.15750438674803,
,,,红,red,k,square,color_mix,单词,,compatible,1,block_switch1_b,instruction/ready_test.png,instruction/i11.png,,,,,,,,,,,,,,,,,0,0,0,0,0,23,23,23,,,,,,,,,,,,,,,,,,,,,,,,,,,415.0732646000106,415.27372710002237,415.25775730001624,415.55885030000354,415.55885030000354,None,416.0590954000072,None,k,1,0.5378730999946129,416.0590954000072,None,None,None,,,,,,,,,,,,,,,,,,,,,,,11017,1,2,2024_Jun_17_1428,stroop_task_switching2_b,2021.2.3,60.15750438674803,
,,,黄,green,f,square,color_mix,单词,,incompatible,1,block_switch1_b,instruction/ready_test.png,instruction/i11.png,,,,,,,,,,,,,,,,,0,0,0,0,0,24,24,24,,,,,,,,,,,,,,,,,,,,,,,,,,,416.62560450000456,416.82666720001725,416.8101347000047,417.1098744000192,417.1098744000192,None,417.61039370001527,None,f,1,1.0035189000191167,417.61039370001527,None,None,None,,,,,,,,,,,,,,,,,,,,,,,11017,1,2,2024_Jun_17_1428,stroop_task_switching2_b,2021.2.3,60.15750438674803,
,,,红,blue,k,square,color_mix,单词,,incompatible,1,block_switch1_b,instruction/ready_test.png,instruction/i11.png,,,,,,,,,,,,,,,,,0,0,0,0,0,25,25,25,,,,,,,,,,,,,,,,,,,,,,,,,,,418.6286705000093,418.8296699000057,418.8134200000204,419.11278100000345,419.11278100000345,None,419.61440479999874,None,j,0,0.8073186000110582,419.61440479999874,None,None,None,,,,,,,,,,,,,,,,,,,,,,,11017,1,2,2024_Jun_17_1428,stroop_task_switching2_b,2021.2.3,60.15750438674803,
,,,黄,yellow,f,square,color_mix,单词,,compatible,1,block_switch1_b,instruction/ready_test.png,instruction/i11.png,,,,,,,,,,,,,,,,,0,0,0,0,0,26,26,26,,,,,,,,,,,,,,,,,,,,,,,,,,,420.44828750001034,420.648585500021,420.63254820002476,420.9320908000227,420.9320908000227,None,421.43290700000944,None,f,1,0.6201110999973025,421.43290700000944,None,None,None,,,,,,,,,,,,,,,,,,,,,,,11017,1,2,2024_Jun_17_1428,stroop_task_switching2_b,2021.2.3,60.15750438674803,
,,,蓝,green,j,square,color_mix,单词,,incompatible,1,block_switch1_b,instruction/ready_test.png,instruction/i11.png,,,,,,,,,,,,,,,,,0,0,0,0,0,27,27,27,,,,,,,,,,,,,,,,,,,,,,,,,,,422.08396950000315,422.28429950002464,422.26828980000573,422.56797400000505,422.56797400000505,None,423.06873880000785,None,j,1,1.1364060000050813,423.06873880000785,None,None,None,,,,,,,,,,,,,,,,,,,,,,,11017,1,2,2024_Jun_17_1428,stroop_task_switching2_b,2021.2.3,60.15750438674803,
,,,绿,green,d,diamond,color_mix,颜色,,compatible,2,block_switch1_b,instruction/ready_test.png,instruction/i11.png,,,,,,,,,,,,,,,,,0,0,0,0,0,28,28,28,,,,,,,,,,,,,,,,,,,,,,,,,,,424.2203458000149,424.421983600012,424.4041191000142,424.70545619999757,424.70545619999757,None,425.20530719999806,None,d,1,0.7600527000031434,425.20530719999806,None,None,None,,,,,,,,,,,,,,,,,,,,,,,11017,1,2,2024_Jun_17_1428,stroop_task_switching2_b,2021.2.3,60.15750438674803,
,,,黄,blue,j,diamond,color_mix,颜色,,incompatible,1,block_switch1_b,instruction/ready_test.png,instruction/i11.png,,,,,,,,,,,,,,,,,0,0,0,0,0,29,29,29,,,,,,,,,,,,,,,,,,,,,,,,,,,425.9898054000223,426.1915052999975,426.17337990002125,426.47588710000855,426.47588710000855,None,426.9749776000099,None,j,1,0.9827557999815326,426.9749776000099,None,None,None,,,,,,,,,,,,,,,,,,,,,,,11017,1,2,2024_Jun_17_1428,stroop_task_switching2_b,2021.2.3,60.15750438674803,
,,,绿,green,d,diamond,color_mix,颜色,,compatible,1,block_switch1_b,instruction/ready_test.png,instruction/i11.png,,,,,,,,,,,,,,,,,0,0,0,0,0,30,30,30,,,,,,,,,,,,,,,,,,,,,,,,,,,427.9763954000082,428.176492300001,428.1598820000072,428.4602840000007,428.4602840000007,None,428.9611251000024,None,d,1,0.7966350000060629,428.9611251000024,None,None,None,,,,,,,,,,,,,,,,,,,,,,,11017,1,2,2024_Jun_17_1428,stroop_task_switching2_b,2021.2.3,60.15750438674803,
,,,蓝,blue,j,square,color_mix,单词,,compatible,2,block_switch1_b,instruction/ready_test.png,instruction/i11.png,,,,,,,,,,,,,,,,,0,0,0,0,0,31,31,31,,,,,,,,,,,,,,,,,,,,,,,,,,,429.7789008000109,429.9790721000172,429.96272780001163,430.262733200012,430.262733200012,None,430.7645595000067,None,j,1,0.9849552000232507,430.7645595000067,None,None,None,,,,,,,,,,,,,,,,,,,,,,,11017,1,2,2024_Jun_17_1428,stroop_task_switching2_b,2021.2.3,60.15750438674803,
,,,红,red,k,square,color_mix,单词,,compatible,1,block_switch1_b,instruction/ready_test.png,instruction/i11.png,,,,,,,,,,,,,,,,,0,0,0,0,0,32,32,32,,,,,,,,,,,,,,,,,,,,,,,,,,,431.7654506000108,431.9653806000133,431.9487266000069,432.2491988000111,432.2491988000111,None,432.7501090000151,None,k,1,0.6234139000007417,432.7501090000151,None,None,None,,,,,,,,,,,,,,,,,,,,,,,11017,1,2,2024_Jun_17_1428,stroop_task_switching2_b,2021.2.3,60.15750438674803,
,,,红,green,k,square,color_mix,单词,,incompatible,1,block_switch1_b,instruction/ready_test.png,instruction/i11.png,,,,,,,,,,,,,,,,,0,0,0,0,0,33,33,33,,,,,,,,,,,,,,,,,,,,,,,,,,,433.40110050002113,433.60261100000935,433.58589960000245,433.8859208000067,433.8859208000067,None,434.38603200000944,None,k,1,1.7156186000211164,434.38603200000944,None,None,None,,,,,,,,,,,,,,,,,,,,,,,11017,1,2,2024_Jun_17_1428,stroop_task_switching2_b,2021.2.3,60.15750438674803,
,,,黄,yellow,f,diamond,color_mix,颜色,,compatible,2,block_switch1_b,instruction/ready_test.png,instruction/i11.png,,,,,,,,,,,,,,,,,0,0,0,0,0,34,34,34,,,,,,,,,,,,,,,,,,,,,,,,,,,436.1216876000108,436.3221681000141,436.3058452999976,436.6076082000218,436.6076082000218,None,437.1071931000042,None,f,1,0.7785102000052575,437.1071931000042,None,None,None,,,,,,,,,,,,,,,,,,,,,,,11017,1,2,2024_Jun_17_1428,stroop_task_switching2_b,2021.2.3,60.15750438674803,
,,,红,green,d,diamond,color_mix,颜色,,incompatible,1,block_switch1_b,instruction/ready_test.png,instruction/i11.png,,,,,,,,,,,,,,,,,0,0,0,0,0,35,35,35,,,,,,,,,,,,,,,,,,,,,,,,,,,437.90789280002355,438.10853190001217,438.09124639999936,438.3918218000035,438.3918218000035,None,438.8932994000206,None,d,1,1.3444184999971185,438.8932994000206,None,None,None,,,,,,,,,,,,,,,,,,,,,,,11017,1,2,2024_Jun_17_1428,stroop_task_switching2_b,2021.2.3,60.15750438674803,
,,,黄,yellow,f,square,color_mix,单词,,compatible,2,block_switch1_b,instruction/ready_test.png,instruction/i11.png,,,,,,,,,,,,,,,,,0,0,0,0,0,36,36,36,,,,,,,,,,,,,,,,,,,,,,,,,,,440.2614455000148,440.4626399000117,440.4449955000018,440.7467116000189,440.7467116000189,None,441.24609800000326,None,f,1,0.7999946999771055,441.24609800000326,None,None,None,,,,,,,,,,,,,,,,,,,,,,,11017,1,2,2024_Jun_17_1428,stroop_task_switching2_b,2021.2.3,60.15750438674803,
,,,蓝,blue,j,square,color_mix,单词,,compatible,1,block_switch1_b,instruction/ready_test.png,instruction/i11.png,,,,,,,,,,,,,,,,,0,0,0,0,0,37,37,37,,,,,,,,,,,,,,,,,,,,,,,,,,,442.06407990001026,442.26504510000814,442.24841359999846,442.54960260001826,442.54960260001826,None,443.0493781999976,None,j,1,0.8360257000022102,443.0493781999976,None,None,None,,,,,,,,,,,,,,,,,,,,,,,11017,1,2,2024_Jun_17_1428,stroop_task_switching2_b,2021.2.3,60.15750438674803,
,,,绿,red,k,diamond,color_mix,颜色,,incompatible,2,block_switch1_b,instruction/ready_test.png,instruction/i11.png,,,,,,,,,,,,,,,,,0,0,0,0,0,38,38,38,,,,,,,,,,,,,,,,,,,,,,,,,,,443.9169135999982,444.11926750000566,444.1005762999994,444.40200630002073,444.40200630002073,None,444.9015789999976,None,k,1,0.6488079999980982,444.9015789999976,None,None,None,,,,,,,,,,,,,,,,,,,,,,,11017,1,2,2024_Jun_17_1428,stroop_task_switching2_b,2021.2.3,60.15750438674803,
,,,黄,yellow,f,diamond,color_mix,颜色,,compatible,1,block_switch1_b,instruction/ready_test.png,instruction/i11.png,,,,,,,,,,,,,,,,,0,0,0,0,0,39,39,39,,,,,,,,,,,,,,,,,,,,,,,,,,,445.56938170001376,445.77153260001796,445.75353539999924,446.054990500008,446.054990500008,None,446.55411070000264,None,f,1,0.6519273000012618,446.55411070000264,None,None,None,,,,,,,,,,,,,,,,,,,,,,,11017,1,2,2024_Jun_17_1428,stroop_task_switching2_b,2021.2.3,60.15750438674803,
,,,红,blue,j,diamond,color_mix,颜色,,incompatible,1,block_switch1_b,instruction/ready_test.png,instruction/i11.png,,,,,,,,,,,,,,,,,0,0,0,0,0,40,40,40,,,,,,,,,,,,,,,,,,,,,,,,,,,447.2219336999988,447.4222340999986,447.40624080001726,447.70652999999584,447.70652999999584,None,448.2065195000032,None,j,1,1.2957508999970742,448.2065195000032,None,None,None,,,,,,,,,,,,,,,,,,,,,,,11017,1,2,2024_Jun_17_1428,stroop_task_switching2_b,2021.2.3,60.15750438674803,
,,,绿,blue,d,square,color_mix,单词,,incompatible,2,block_switch1_b,instruction/ready_test.png,instruction/i11.png,,,,,,,,,,,,,,,,,0,0,0,0,0,41,41,41,,,,,,,,,,,,,,,,,,,,,,,,,,,449.5252905000234,449.7256512000167,449.71005980001064,450.01008239999646,450.01008239999646,None,450.5108155000198,None,d,1,1.5271704999904614,450.5108155000198,None,None,None,,,,,,,,,,,,,,,,,,,,,,,11017,1,2,2024_Jun_17_1428,stroop_task_switching2_b,2021.2.3,60.15750438674803,
,,,蓝,blue,j,diamond,color_mix,颜色,,compatible,2,block_switch1_b,instruction/ready_test.png,instruction/i11.png,,,,,,,,,,,,,,,,,0,0,0,0,0,42,42,42,,,,,,,,,,,,,,,,,,,,,,,,,,,452.06183370001963,452.26418480000575,452.24606770000537,452.5466044000059,452.5466044000059,None,453.0478450000228,None,j,1,1.2624418000050355,453.0478450000228,None,None,None,,,,,,,,,,,,,,,,,,,,,,,11017,1,2,2024_Jun_17_1428,stroop_task_switching2_b,2021.2.3,60.15750438674803,
,,,红,blue,k,square,color_mix,单词,,incompatible,2,block_switch1_b,instruction/ready_test.png,instruction/i11.png,,,,,,,,,,,,,,,,,0,0,0,0,0,43,43,43,,,,,,,,,,,,,,,,,,,,,,,,,,,454.33276950000436,454.5329582999984,454.51632530000643,454.8172220000124,454.8172220000124,None,455.3174388000043,None,k,1,1.0016139000072144,455.3174388000043,None,None,None,,,,,,,,,,,,,,,,,,,,,,,11017,1,2,2024_Jun_17_1428,stroop_task_switching2_b,2021.2.3,60.15750438674803,
,,,蓝,green,d,diamond,color_mix,颜色,,incompatible,2,block_switch1_b,instruction/ready_test.png,instruction/i11.png,,,,,,,,,,,,,,,,,0,0,0,0,0,44,44,44,,,,,,,,,,,,,,,,,,,,,,,,,,,456.33538580001914,456.5375428000116,456.519778100017,456.82103710001684,456.82103710001684,None,457.3204713000159,None,d,1,1.149654200009536,457.3204713000159,None,None,None,,,,,,,,,,,,,,,,,,,,,,,11017,1,2,2024_Jun_17_1428,stroop_task_switching2_b,2021.2.3,60.15750438674803,
,,,黄,yellow,f,square,color_mix,单词,,compatible,2,block_switch1_b,instruction/ready_test.png,instruction/i11.png,,,,,,,,,,,,,,,,,0,0,0,0,0,45,45,45,,,,,,,,,,,,,,,,,,,,,,,,,,,458.4887878000154,458.6891809000226,458.67284220000147,458.9729088000022,458.9729088000022,None,459.47365120000904,None,f,1,0.660419699997874,459.47365120000904,None,None,None,,,,,,,,,,,,,,,,,,,,,,,11017,1,2,2024_Jun_17_1428,stroop_task_switching2_b,2021.2.3,60.15750438674803,
,,,黄,yellow,f,diamond,color_mix,颜色,,compatible,2,block_switch1_b,instruction/ready_test.png,instruction/i11.png,,,,,,,,,,,,,,,,,0,0,0,0,0,46,46,46,,,,,,,,,,,,,,,,,,,,,,,,,,,460.1579352999979,460.35917979999795,460.341702500009,460.64215320002404,460.64215320002404,None,461.1431792000076,None,f,1,0.58410529998946,461.1431792000076,None,None,None,,,,,,,,,,,,,,,,,,,,,,,11017,1,2,2024_Jun_17_1428,stroop_task_switching2_b,2021.2.3,60.15750438674803,
,,,绿,red,d,square,color_mix,单词,,incompatible,2,block_switch1_b,instruction/ready_test.png,instruction/i11.png,,,,,,,,,,,,,,,,,0,0,0,0,0,47,47,47,,,,,,,,,,,,,,,,,,,,,,,,,,,461.74382410000544,461.9448145000206,461.9274516000005,462.2279164000065,462.2279164000065,None,462.7285329000151,None,d,1,1.5336337000189815,462.7285329000151,None,None,None,,,,,,,,,,,,,,,,,,,,,,,11017,1,2,2024_Jun_17_1428,stroop_task_switching2_b,2021.2.3,60.15750438674803,
,,,红,red,k,diamond,color_mix,颜色,,compatible,2,block_switch1_b,instruction/ready_test.png,instruction/i11.png,,,,,,,,,,,,,,,,,0,0,0,0,0,48,48,48,,,,,,,,,,,,,,,,,,,,,,,,,,,464.28094840000267,464.48128000000725,464.46451320001506,464.7649135000247,464.7649135000247,None,465.2656493000104,None,k,1,0.7889389999909326,465.2656493000104,None,None,None,,,,,,,,,,,,,,,,,,,,,,,11017,1,2,2024_Jun_17_1428,stroop_task_switching2_b,2021.2.3,60.15750438674803,
,,,蓝,blue,j,diamond,color_mix,颜色,,compatible,1,block_switch1_b,instruction/ready_test.png,instruction/i11.png,,,,,,,,,,,,,,,,,0,0,0,0,0,49,49,49,,,,,,,,,,,,,,,,,,,,,,,,,,,466.0835294999997,466.28552580001997,466.2671949000214,466.5693886000081,466.5693886000081,None,467.0694347000099,None,j,1,0.633373999997275,467.0694347000099,None,None,None,,,,,,,,,,,,,,,,,,,,,,,11017,1,2,2024_Jun_17_1428,stroop_task_switching2_b,2021.2.3,60.15750438674803,
,,,黄,yellow,f,diamond,color_mix,颜色,,compatible,1,block_switch1_b,instruction/ready_test.png,instruction/i11.png,,,,,,,,,,,,,,,,,0,0,0,0,0,50,50,50,,,,,,,,,,,,,,,,,,,,,,,,,,,467.7194126000104,467.92090440000175,467.90311520002433,468.2040031000215,468.2040031000215,None,468.70441310000024,None,f,1,0.42240599999786355,468.70441310000024,None,None,None,,,,,,,,,,,,,,,,,,,,,,,11017,1,2,2024_Jun_17_1428,stroop_task_switching2_b,2021.2.3,60.15750438674803,
,,,红,blue,j,diamond,color_mix,颜色,,incompatible,1,block_switch1_b,instruction/ready_test.png,instruction/i11.png,,,,,,,,,,,,,,,,,0,0,0,0,0,51,51,51,,,,,,,,,,,,,,,,,,,,,,,,,,,469.15507190002245,469.3551961000194,469.3398349000199,469.63941900001373,469.63941900001373,None,470.1397808000038,None,j,1,1.3071504999825265,470.1397808000038,None,None,None,,,,,,,,,,,,,,,,,,,,,,,11017,1,2,2024_Jun_17_1428,stroop_task_switching2_b,2021.2.3,60.15750438674803,
,,,蓝,yellow,f,diamond,color_mix,颜色,,incompatible,1,block_switch1_b,instruction/ready_test.png,instruction/i11.png,,,,,,,,,,,,,,,,,0,0,0,0,0,52,52,52,,,,,,,,,,,,,,,,,,,,,,,,,,,471.4754494000226,471.67831529999967,471.6589598999999,471.95906390002347,471.95906390002347,None,472.4601879999973,None,f,1,1.3542047999799252,472.4601879999973,None,None,None,,,,,,,,,,,,,,,,,,,,,,,11017,1,2,2024_Jun_17_1428,stroop_task_switching2_b,2021.2.3,60.15750438674803,
,,,黄,blue,f,square,color_mix,单词,,incompatible,2,block_switch1_b,instruction/ready_test.png,instruction/i11.png,,,,,,,,,,,,,,,,,0,0,0,0,0,53,53,53,,,,,,,,,,,,,,,,,,,,,,,,,,,473.84531669999706,474.0458903000108,474.03088570002,474.3293920000142,474.3293920000142,None,474.8303896000143,None,f,1,1.288167099992279,474.8303896000143,None,None,None,,,,,,,,,,,,,,,,,,,,,,,11017,1,2,2024_Jun_17_1428,stroop_task_switching2_b,2021.2.3,60.15750438674803,
,,,蓝,blue,j,diamond,color_mix,颜色,,compatible,2,block_switch1_b,instruction/ready_test.png,instruction/i11.png,,,,,,,,,,,,,,,,,0,0,0,0,0,54,54,54,,,,,,,,,,,,,,,,,,,,,,,,,,,476.148904200003,476.34901990002254,476.33295060001547,476.63490490001277,476.63490490001277,None,477.15149600000586,None,j,1,0.8313346000213642,477.15149600000586,None,None,None,,,,,,,,,,,,,,,,,,,,,,,11017,1,2,2024_Jun_17_1428,stroop_task_switching2_b,2021.2.3,60.15750438674803,
,,,红,yellow,k,square,color_mix,单词,,incompatible,2,block_switch1_b,instruction/ready_test.png,instruction/i11.png,,,,,,,,,,,,,,,,,0,0,0,0,0,55,55,55,,,,,,,,,,,,,,,,,,,,,,,,,,,478.0014651000092,478.202534800017,478.1859132000245,478.4866798000003,478.4866798000003,None,478.98648760002106,None,k,1,1.3402141999977175,478.98648760002106,None,None,None,,,,,,,,,,,,,,,,,,,,,,,11017,1,2,2024_Jun_17_1428,stroop_task_switching2_b,2021.2.3,60.15750438674803,
,,,蓝,red,j,square,color_mix,单词,,incompatible,1,block_switch1_b,instruction/ready_test.png,instruction/i11.png,,,,,,,,,,,,,,,,,0,0,0,0,0,56,56,56,,,,,,,,,,,,,,,,,,,,,,,,,,,480.35537240002304,480.5559933000186,480.5392534999992,480.8402039000066,480.8402039000066,None,481.3400370000163,None,j,1,1.0349438000121154,481.3400370000163,None,None,None,,,,,,,,,,,,,,,,,,,,,,,11017,1,2,2024_Jun_17_1428,stroop_task_switching2_b,2021.2.3,60.15750438674803,
,,,蓝,blue,j,square,color_mix,单词,,compatible,1,block_switch1_b,instruction/ready_test.png,instruction/i11.png,,,,,,,,,,,,,,,,,0,0,0,0,0,57,57,57,,,,,,,,,,,,,,,,,,,,,,,,,,,482.39164610000444,482.59222290001344,482.5755160000117,482.87577530002454,482.87577530002454,None,483.3770132000209,None,j,1,0.6537981000146829,483.3770132000209,None,None,None,,,,,,,,,,,,,,,,,,,,,,,11017,1,2,2024_Jun_17_1428,stroop_task_switching2_b,2021.2.3,60.15750438674803,
,,,蓝,red,k,diamond,color_mix,颜色,,incompatible,2,block_switch1_b,instruction/ready_test.png,instruction/i11.png,,,,,,,,,,,,,,,,,0,0,0,0,0,58,58,58,,,,,,,,,,,,,,,,,,,,,,,,,,,484.06077750000986,484.2610864000162,484.2447152000095,484.54574349999893,484.54574349999893,None,485.0469821000006,None,k,1,0.9357839000003878,485.0469821000006,None,None,None,,,,,,,,,,,,,,,,,,,,,,,11017,1,2,2024_Jun_17_1428,stroop_task_switching2_b,2021.2.3,60.15750438674803,
,,,绿,green,d,diamond,color_mix,颜色,,compatible,1,block_switch1_b,instruction/ready_test.png,instruction/i11.png,,,,,,,,,,,,,,,,,0,0,0,0,0,59,59,59,,,,,,,,,,,,,,,,,,,,,,,,,,,486.013686899998,486.2149346000224,486.19728980000946,486.4977669000218,486.4977669000218,None,486.998576300015,None,d,1,0.6487479999777861,486.998576300015,None,None,None,,,,,,,,,,,,,,,,,,,,,,,11017,1,2,2024_Jun_17_1428,stroop_task_switching2_b,2021.2.3,60.15750438674803,
,,,蓝,blue,j,diamond,color_mix,颜色,,compatible,1,block_switch1_b,instruction/ready_test.png,instruction/i11.png,,,,,,,,,,,,,,,,,0,0,0,0,0,60,60,60,,,,,,,,,,,,,,,,,,,,,,,,,,,487.6662249000219,487.8676829000178,487.8507948000042,488.15091990001383,488.15091990001383,None,488.651391100022,None,j,1,1.0357371000282,488.651391100022,None,None,None,,,,,,,,,,,,,,,,,,,,,,,11017,1,2,2024_Jun_17_1428,stroop_task_switching2_b,2021.2.3,60.15750438674803,
,,,黄,yellow,f,square,color_mix,单词,,compatible,2,block_switch1_b,instruction/ready_test.png,instruction/i11.png,,,,,,,,,,,,,,,,,0,0,0,0,0,61,61,61,,,,,,,,,,,,,,,,,,,,,,,,,,,489.7025515999994,489.9040879000095,489.8863050000218,490.1873903000087,490.1873903000087,None,490.6878643000091,None,f,1,1.3191667000064626,490.6878643000091,None,None,None,,,,,,,,,,,,,,,,,,,,,,,11017,1,2,2024_Jun_17_1428,stroop_task_switching2_b,2021.2.3,60.15750438674803,
,,,绿,blue,d,square,color_mix,单词,,incompatible,1,block_switch1_b,instruction/ready_test.png,instruction/i11.png,,,,,,,,,,,,,,,,,0,0,0,0,0,62,62,62,,,,,,,,,,,,,,,,,,,,,,,,,,,492.0227853000106,492.2242277000041,492.20694830000866,492.5068788000208,492.5068788000208,None,493.0079310000001,None,d,1,2.0472600999928545,493.0079310000001,None,None,None,,,,,,,,,,,,,,,,,,,,,,,11017,1,2,2024_Jun_17_1428,stroop_task_switching2_b,2021.2.3,60.15750438674803,
,,,蓝,yellow,j,square,color_mix,单词,,incompatible,1,block_switch1_b,instruction/ready_test.png,instruction/i11.png,,,,,,,,,,,,,,,,,0,0,0,0,0,63,63,63,,,,,,,,,,,,,,,,,,,,,,,,,,,495.0773476000177,495.27867759999936,495.2610507000063,495.5628394000232,495.5628394000232,None,496.06205510001746,None,j,1,1.0173353000136558,496.06205510001746,None,None,None,,,,,,,,,,,,,,,,,,,,,,,11017,1,2,2024_Jun_17_1428,stroop_task_switching2_b,2021.2.3,60.15750438674803,
,,,黄,yellow,f,diamond,color_mix,颜色,,compatible,2,block_switch1_b,instruction/ready_test.png,instruction/i11.png,,,,,,,,,,,,,,,,,0,0,0,0,0,64,64,64,,,,,,,,,,,,,,,,,,,,,,,,,,,497.098030299996,497.29827670002123,497.28155230000266,497.58201949999784,497.58201949999784,None,498.0817485000007,None,f,1,1.3819443999964278,498.0817485000007,None,None,None,,,,,,,,,,,,,,,,,,,,,,,11017,1,2,2024_Jun_17_1428,stroop_task_switching2_b,2021.2.3,60.15750438674803,
,,,蓝,green,d,diamond,color_mix,颜色,,incompatible,1,block_switch1_b,instruction/ready_test.png,instruction/i11.png,,,,,,,,,,,,,,,,,0,0,0,0,0,65,65,65,,,,,,,,,,,,,,,,,,,,,,,,,,,499.48397670002305,499.6860022000037,499.6675028000027,499.96812450001016,499.96812450001016,None,500.4686776000017,None,d,1,1.0191011000133585,500.4686776000017,None,None,None,,,,,,,,,,,,,,,,,,,,,,,11017,1,2,2024_Jun_17_1428,stroop_task_switching2_b,2021.2.3,60.15750438674803,
,,,红,red,k,diamond,color_mix,颜色,,compatible,1,block_switch1_b,instruction/ready_test.png,instruction/i11.png,,,,,,,,,,,,,,,,,0,0,0,0,0,66,66,66,,,,,,,,,,,,,,,,,,,,,,,,,,,501.50376750002033,501.7040761000244,501.6881729000015,501.9890973000147,501.9890973000147,None,502.48850000000675,None,k,1,0.8468150999979116,502.48850000000675,None,None,None,,,,,,,,,,,,,,,,,,,,,,,11017,1,2,2024_Jun_17_1428,stroop_task_switching2_b,2021.2.3,60.15750438674803,
,,,蓝,yellow,j,square,color_mix,单词,,incompatible,2,block_switch1_b,instruction/ready_test.png,instruction/i11.png,,,,,,,,,,,,,,,,,0,0,0,0,0,67,67,67,,,,,,,,,,,,,,,,,,,,,,,,,,,503.3569099000015,503.5586303000164,503.54018730000826,503.84231830001227,503.84231830001227,None,504.34110130000045,None,j,1,0.8661653000162914,504.34110130000045,None,None,None,,,,,,,,,,,,,,,,,,,,,,,11017,1,2,2024_Jun_17_1428,stroop_task_switching2_b,2021.2.3,60.15750438674803,
,,,红,yellow,k,square,color_mix,单词,,incompatible,1,block_switch1_b,instruction/ready_test.png,instruction/i11.png,,,,,,,,,,,,,,,,,0,0,0,0,0,68,68,68,,,,,,,,,,,,,,,,,,,,,,,,,,,505.2276080000156,505.4277745000145,505.4104309999966,505.7117618000193,505.7117618000193,None,506.2108995000017,None,d,0,1.2133096000179648,506.2108995000017,None,None,None,,,,,,,,,,,,,,,,,,,,,,,11017,1,2,2024_Jun_17_1428,stroop_task_switching2_b,2021.2.3,60.15750438674803,
,,,红,yellow,f,diamond,color_mix,颜色,,incompatible,2,block_switch1_b,instruction/ready_test.png,instruction/i11.png,,,,,,,,,,,,,,,,,0,0,0,0,0,69,69,69,,,,,,,,,,,,,,,,,,,,,,,,,,,507.44589660002384,507.6466580000124,507.6294480000215,507.9309022000234,507.9309022000234,None,508.43066540002474,None,f,1,1.9608401999867056,508.43066540002474,None,None,None,,,,,,,,,,,,,,,,,,,,,,,11017,1,2,2024_Jun_17_1428,stroop_task_switching2_b,2021.2.3,60.15750438674803,
,,,蓝,green,j,square,color_mix,单词,,incompatible,2,block_switch1_b,instruction/ready_test.png,instruction/i11.png,,,,,,,,,,,,,,,,,0,0,0,0,0,70,70,70,,,,,,,,,,,,,,,,,,,,,,,,,,,510.4172065000166,510.61967300000833,510.6008707000001,510.901274200005,510.901274200005,None,511.40270659999806,514.4065046000178,None,0,,511.40270659999806,514.4065046000178,514.3899328999978,None,,,,,,,,,,,,,,,,,,,,,,,11017,1,2,2024_Jun_17_1428,stroop_task_switching2_b,2021.2.3,60.15750438674803,
,,,绿,yellow,d,square,color_mix,单词,,incompatible,1,block_switch1_b,instruction/ready_test.png,instruction/i11.png,,,,,,,,,,,,,,,,,0,0,0,0,0,71,71,71,,,,,,,,,,,,,,,,,,,,,,,,,,,514.9905167999968,515.1915251000028,515.1742356000177,515.474778600008,515.474778600008,None,515.9754465000005,None,d,1,1.32837030000519,515.9754465000005,None,None,None,,,,,,,,,,,,,,,,,,,,,,,11017,1,2,2024_Jun_17_1428,stroop_task_switching2_b,2021.2.3,60.15750438674803,
,,,蓝,yellow,f,diamond,color_mix,颜色,,incompatible,2,block_switch1_b,instruction/ready_test.png,instruction/i11.png,,,,,,,,,,,,,,,,,0,0,0,0,0,72,72,72,,,,,,,,,,,,,,,,,,,,,,,,,,,517.327626400016,517.5299641000165,517.5120401000022,517.8122747000016,517.8122747000016,None,518.3129244000011,None,f,1,1.6314422999857925,518.3129244000011,None,None,None,,,,,,,,,,,,,,,,,,,,,,,11017,1,2,2024_Jun_17_1428,stroop_task_switching2_b,2021.2.3,60.15750438674803,
,,,红,green,k,square,color_mix,单词,,incompatible,2,block_switch1_b,instruction/ready_test.png,instruction/i11.png,,,,,,,,,,,,,,,,,0,0,0,0,0,73,73,73,,,,,,,,,,,,,,,,,,,,,,,,,,,519.9647968000208,520.165722500009,520.1482864000136,520.4494365999999,520.4494365999999,None,520.9504663000116,None,k,1,0.8254385000036564,520.9504663000116,None,None,None,,,,,,,,,,,,,,,,,,,,,,,11017,1,2,2024_Jun_17_1428,stroop_task_switching2_b,2021.2.3,60.15750438674803,
,,,绿,blue,j,diamond,color_mix,颜色,,incompatible,2,block_switch1_b,instruction/ready_test.png,instruction/i11.png,,,,,,,,,,,,,,,,,0,0,0,0,0,74,74,74,,,,,,,,,,,,,,,,,,,,,,,,,,,521.8008724000247,522.0023832000152,521.9846876000229,522.2863658000133,522.2863658000133,None,522.7862252000195,None,j,1,1.5256231000239495,522.7862252000195,None,None,None,,,,,,,,,,,,,,,,,,,,,,,11017,1,2,2024_Jun_17_1428,stroop_task_switching2_b,2021.2.3,60.15750438674803,
,,,红,red,k,square,color_mix,单词,,compatible,2,block_switch1_b,instruction/ready_test.png,instruction/i11.png,,,,,,,,,,,,,,,,,0,0,0,0,0,75,75,75,,,,,,,,,,,,,,,,,,,,,,,,,,,524.3379406000022,524.5396897000028,524.5232790000155,524.8390491000027,524.8245618000219,None,525.3237392000156,None,k,1,0.5560088999918662,525.3237392000156,None,None,None,,,,,,,,,,,,,,,,,,,,,,,11017,1,2,2024_Jun_17_1428,stroop_task_switching2_b,2021.2.3,60.15750438674803,
,,,绿,green,d,diamond,color_mix,颜色,,compatible,2,block_switch1_b,instruction/ready_test.png,instruction/i11.png,,,,,,,,,,,,,,,,,0,0,0,0,0,76,76,76,,,,,,,,,,,,,,,,,,,,,,,,,,,525.907230700017,526.1074974000221,526.09154210001,526.3928107999964,526.3928107999964,None,526.8919529000123,None,d,1,1.6040674999821931,526.8919529000123,None,None,None,,,,,,,,,,,,,,,,,,,,,,,11017,1,2,2024_Jun_17_1428,stroop_task_switching2_b,2021.2.3,60.15750438674803,
,,,黄,red,f,square,color_mix,单词,,incompatible,2,block_switch1_b,instruction/ready_test.png,instruction/i11.png,,,,,,,,,,,,,,,,,0,0,0,0,0,77,77,77,,,,,,,,,,,,,,,,,,,,,,,,,,,528.5111091000144,528.7114379999985,528.6954890000052,528.9955394999997,528.9955394999997,None,529.4957608999975,None,f,1,2.184448700019857,529.4957608999975,None,None,None,,,,,,,,,,,,,,,,,,,,,,,11017,1,2,2024_Jun_17_1428,stroop_task_switching2_b,2021.2.3,60.15750438674803,
,,,红,red,k,square,color_mix,单词,,compatible,1,block_switch1_b,instruction/ready_test.png,instruction/i11.png,,,,,,,,,,,,,,,,,0,0,0,0,0,78,78,78,,,,,,,,,,,,,,,,,,,,,,,,,,,531.6992585000116,531.8995147000242,531.883883500006,532.183279799996,532.183279799996,None,532.6840720000037,None,k,1,1.1960028000175953,532.6840720000037,None,None,None,,,,,,,,,,,,,,,,,,,,,,,11017,1,2,2024_Jun_17_1428,stroop_task_switching2_b,2021.2.3,60.15750438674803,
,,,黄,yellow,f,square,color_mix,单词,,compatible,1,block_switch1_b,instruction/ready_test.png,instruction/i11.png,,,,,,,,,,,,,,,,,0,0,0,0,0,79,79,79,,,,,,,,,,,,,,,,,,,,,,,,,,,533.9025535999972,534.1033285000012,534.0863589000073,534.3868208000204,534.3868208000204,None,534.8881619000167,None,f,1,0.5999410999938846,534.8881619000167,None,None,None,,,,,,,,,,,,,,,,,,,,,,,11017,1,2,2024_Jun_17_1428,stroop_task_switching2_b,2021.2.3,60.15750438674803,
,,,红,red,k,diamond,color_mix,颜色,,compatible,2,block_switch1_b,instruction/ready_test.png,instruction/i11.png,,,,,,,,,,,,,,,,,0,0,0,0,0,80,80,80,,,,,,,,,,,,,,,,,,,,,,,,,,,535.5047710000072,535.70610760001,535.6906177000201,535.9894375000149,535.9894375000149,None,536.4899463000183,None,k,1,0.5586965999973472,536.4899463000183,None,None,None,,,,,,,,,,,,,,,,,,,,,,,11017,1,2,2024_Jun_17_1428,stroop_task_switching2_b,2021.2.3,60.15750438674803,
,,,红,red,k,square,color_mix,单词,,compatible,2,block_switch1_b,instruction/ready_test.png,instruction/i11.png,,,,,,,,,,,,,,,,,0,0,0,0,0,81,81,81,,,,,,,,,,,,,,,,,,,,,,,,,,,537.0741357000079,537.2762136000092,537.2579440000118,537.5581438000081,537.5581438000081,None,538.0594136000145,None,f,0,0.9174329000234138,538.0594136000145,None,None,None,,,,,,,,,,,,,,,,,,,,,,,11017,1,2,2024_Jun_17_1428,stroop_task_switching2_b,2021.2.3,60.15750438674803,
,,,黄,blue,j,diamond,color_mix,颜色,,incompatible,2,block_switch1_b,instruction/ready_test.png,instruction/i11.png,,,,,,,,,,,,,,,,,0,0,0,0,0,82,82,82,,,,,,,,,,,,,,,,,,,,,,,,,,,538.9935400999966,539.1948036999966,539.1770956999972,539.4776840000122,539.4776840000122,None,539.9783930999984,None,j,1,1.5022253000061028,539.9783930999984,None,None,None,,,,,,,,,,,,,,,,,,,,,,,11017,1,2,2024_Jun_17_1428,stroop_task_switching2_b,2021.2.3,60.15750438674803,
,,,红,yellow,f,diamond,color_mix,颜色,,incompatible,1,block_switch1_b,instruction/ready_test.png,instruction/i11.png,,,,,,,,,,,,,,,,,0,0,0,0,0,83,83,83,,,,,,,,,,,,,,,,,,,,,,,,,,,541.4973114000168,541.6977360000019,541.6819749000133,541.9822365000146,541.9822365000146,None,542.4819138000021,None,f,1,0.8626649000216275,542.4819138000021,None,None,None,,,,,,,,,,,,,,,,,,,,,,,11017,1,2,2024_Jun_17_1428,stroop_task_switching2_b,2021.2.3,60.15750438674803,
,,,黄,red,k,diamond,color_mix,颜色,,incompatible,1,block_switch1_b,instruction/ready_test.png,instruction/i11.png,,,,,,,,,,,,,,,,,0,0,0,0,0,84,84,84,,,,,,,,,,,,,,,,,,,,,,,,,,,543.3671905000228,543.5669902000227,543.5504803000076,543.8517839999986,543.8517839999986,None,544.3523354000063,None,k,1,1.8964163000055123,544.3523354000063,None,None,None,,,,,,,,,,,,,,,,,,,,,,,11017,1,2,2024_Jun_17_1428,stroop_task_switching2_b,2021.2.3,60.15750438674803,
,,,蓝,blue,j,square,color_mix,单词,,compatible,2,block_switch1_b,instruction/ready_test.png,instruction/i11.png,,,,,,,,,,,,,,,,,0,0,0,0,0,85,85,85,,,,,,,,,,,,,,,,,,,,,,,,,,,546.2718591000012,546.473834000004,546.4556106000091,546.7566047,546.7566047,None,547.2562167000142,None,j,1,1.6968274000100791,547.2562167000142,None,None,None,,,,,,,,,,,,,,,,,,,,,,,11017,1,2,2024_Jun_17_1428,stroop_task_switching2_b,2021.2.3,60.15750438674803,
,,,绿,green,d,square,color_mix,单词,,compatible,1,block_switch1_b,instruction/ready_test.png,instruction/i11.png,,,,,,,,,,,,,,,,,0,0,0,0,0,86,86,86,,,,,,,,,,,,,,,,,,,,,,,,,,,548.9753165000002,549.175453600008,549.1601590000209,549.4609873000009,549.4609873000009,None,549.9606062000094,None,d,1,0.6006157999800052,549.9606062000094,None,None,None,,,,,,,,,,,,,,,,,,,,,,,11017,1,2,2024_Jun_17_1428,stroop_task_switching2_b,2021.2.3,60.15750438674803,
,,,红,red,k,square,color_mix,单词,,compatible,1,block_switch1_b,instruction/ready_test.png,instruction/i11.png,,,,,,,,,,,,,,,,,0,0,0,0,0,87,87,87,,,,,,,,,,,,,,,,,,,,,,,,,,,550.5779859000177,550.7791950000101,550.7632104000077,551.0618223000201,551.0618223000201,None,551.5625720000244,None,k,1,0.7582264999800827,551.5625720000244,None,None,None,,,,,,,,,,,,,,,,,,,,,,,11017,1,2,2024_Jun_17_1428,stroop_task_switching2_b,2021.2.3,60.15750438674803,
,,,黄,green,d,diamond,color_mix,颜色,,incompatible,2,block_switch1_b,instruction/ready_test.png,instruction/i11.png,,,,,,,,,,,,,,,,,0,0,0,0,0,88,88,88,,,,,,,,,,,,,,,,,,,,,,,,,,,552.3476686000067,552.5484654000029,552.5307636000216,552.8317565000034,552.8317565000034,None,553.332043500006,None,d,1,0.9645223999978043,553.332043500006,None,None,None,,,,,,,,,,,,,,,,,,,,,,,11017,1,2,2024_Jun_17_1428,stroop_task_switching2_b,2021.2.3,60.15750438674803,
,,,绿,red,d,square,color_mix,单词,,incompatible,2,block_switch1_b,instruction/ready_test.png,instruction/i11.png,,,,,,,,,,,,,,,,,0,0,0,0,0,89,89,89,,,,,,,,,,,,,,,,,,,,,,,,,,,554.3167616999999,554.518612600019,554.5002303000074,554.8009884000057,554.8009884000057,None,555.3015399000142,None,d,1,1.7875575000070967,555.3015399000142,None,None,None,,,,,,,,,,,,,,,,,,,,,,,11017,1,2,2024_Jun_17_1428,stroop_task_switching2_b,2021.2.3,60.15750438674803,
,,,黄,green,f,square,color_mix,单词,,incompatible,1,block_switch1_b,instruction/ready_test.png,instruction/i11.png,,,,,,,,,,,,,,,,,0,0,0,0,0,90,90,90,,,,,,,,,,,,,,,,,,,,,,,,,,,557.1042556000175,557.3060190000106,557.287860100012,557.5891360999958,557.5891360999958,None,558.089011300006,None,f,1,1.391943499998888,558.089011300006,None,None,None,,,,,,,,,,,,,,,,,,,,,,,11017,1,2,2024_Jun_17_1428,stroop_task_switching2_b,2021.2.3,60.15750438674803,
,,,蓝,blue,j,square,color_mix,单词,,compatible,1,block_switch1_b,instruction/ready_test.png,instruction/i11.png,,,,,,,,,,,,,,,,,0,0,0,0,0,91,91,91,,,,,,,,,,,,,,,,,,,,,,,,,,,559.5079351000022,559.7082593000086,559.6916074000183,559.9924296000099,559.9924296000099,None,560.4927705000155,None,j,1,0.8450683999981266,560.4927705000155,None,None,None,,,,,,,,,,,,,,,,,,,,,,,11017,1,2,2024_Jun_17_1428,stroop_task_switching2_b,2021.2.3,60.15750438674803,
,,,蓝,red,j,square,color_mix,单词,,incompatible,1,block_switch1_b,instruction/ready_test.png,instruction/i11.png,,,,,,,,,,,,,,,,,0,0,0,0,0,92,92,92,,,,,,,,,,,,,,,,,,,,,,,,,,,561.3605243000202,561.5608859000204,561.5448678999965,561.845092100004,561.845092100004,None,562.3457402000204,None,j,1,1.079476999992039,562.3457402000204,None,None,None,,,,,,,,,,,,,,,,,,,,,,,11017,1,2,2024_Jun_17_1428,stroop_task_switching2_b,2021.2.3,60.15750438674803,
,,,黄,blue,f,square,color_mix,单词,,incompatible,1,block_switch1_b,instruction/ready_test.png,instruction/i11.png,,,,,,,,,,,,,,,,,0,0,0,0,0,93,93,93,,,,,,,,,,,,,,,,,,,,,,,,,,,563.4471606000152,563.6488493000215,563.6304993000231,563.9319358000066,563.9319358000066,None,564.4324051000003,None,f,1,1.569256700022379,564.4324051000003,None,None,None,,,,,,,,,,,,,,,,,,,,,,,11017,1,2,2024_Jun_17_1428,stroop_task_switching2_b,2021.2.3,60.15750438674803,
,,,绿,red,k,diamond,color_mix,颜色,,incompatible,2,block_switch1_b,instruction/ready_test.png,instruction/i11.png,,,,,,,,,,,,,,,,,0,0,0,0,0,94,94,94,,,,,,,,,,,,,,,,,,,,,,,,,,,566.0176475000044,566.2190032000071,566.2012680000043,566.5015584000212,566.5015584000212,None,567.0026868999994,None,k,1,1.2143993000208866,567.0026868999994,None,None,None,,,,,,,,,,,,,,,,,,,,,,,11017,1,2,2024_Jun_17_1428,stroop_task_switching2_b,2021.2.3,60.15750438674803,
,,,蓝,blue,j,diamond,color_mix,颜色,,compatible,1,block_switch1_b,instruction/ready_test.png,instruction/i11.png,,,,,,,,,,,,,,,,,0,0,0,0,0,95,95,95,,,,,,,,,,,,,,,,,,,,,,,,,,,568.2378122000082,568.4392323000066,568.4212636000011,568.7228348000208,568.7228348000208,None,569.2233912000083,None,j,1,0.5456912000081502,569.2233912000083,None,None,None,,,,,,,,,,,,,,,,,,,,,,,11017,1,2,2024_Jun_17_1428,stroop_task_switching2_b,2021.2.3,60.15750438674803,
,,,绿,green,d,square,color_mix,单词,,compatible,2,block_switch1_b,instruction/ready_test.png,instruction/i11.png,,,,,,,,,,,,,,,,,0,0,0,0,0,96,96,96,,,,,,,,,,,,,,,,,,,,,,,,,,,569.790098700003,569.991851800005,569.973650800006,570.2757536999998,570.2757536999998,None,570.774943700002,None,d,1,1.3621959000010975,570.774943700002,None,None,None,,,,,,,,,,,,,,,,,,,,,,,11017,1,2,2024_Jun_17_1428,stroop_task_switching2_b,2021.2.3,60.15750438674803,
,,,,,,,,,,,,block_switch1_b,instruction/ready_test.png,instruction/i11.png,,,,,,,,,,,,,,,,,0,0,0,0,,,,,,,,,,,,,,,,,,,,,,,,,,,,,,,,,,,,,,,,,,,,,,,,,,,,,,,,,,,,572.1603773000243,None,space,9.945495699997991,572.1603773000243,None,,,11017,1,2,2024_Jun_17_1428,stroop_task_switching2_b,2021.2.3,60.15750438674803,
,,,蓝,blue,j,square,color_mix,单词,,compatible,0,block_switch2_b,instruction/ready_2.png,instruction/i12.png,,,,,,,,,,,,,,,,,0,1,1,1,0,0,0,0,,,,,,,,,,,,,,,,,,,584.8794497000054,585.8831037000054,585.8831037000054,586.8833333000075,586.8833333000075,None,583.8947417000018,584.8960795000021,587.9191492999962,588.1182706000109,588.1015975000046,588.4016620000184,588.4016620000184,None,588.9020342000003,None,j,1,0.6675506999890786,588.9020342000003,None,None,None,,,,,,,,,582.1431915000139,None,space,1.723073100001784,582.1431915000139,None,,,,,,,,,11017,1,2,2024_Jun_17_1428,stroop_task_switching2_b,2021.2.3,60.15750438674803,
,,,黄,red,k,diamond,color_mix,颜色,,incompatible,2,block_switch2_b,instruction/ready_2.png,instruction/i12.png,,,,,,,,,,,,,,,,,0,1,1,1,0,1,1,1,,,,,,,,,,,,,,,,,,,,,,,,,,,589.5865450999991,589.7881579000095,589.7701025000133,590.0709018000052,590.0709018000052,None,590.5713456000085,None,k,1,0.894517500011716,590.5713456000085,None,None,None,,,,,,,,,,,,,,,,,,,,,,,11017,1,2,2024_Jun_17_1428,stroop_task_switching2_b,2021.2.3,60.15750438674803,
,,,蓝,green,d,diamond,color_mix,颜色,,incompatible,1,block_switch2_b,instruction/ready_2.png,instruction/i12.png,,,,,,,,,,,,,,,,,0,1,1,1,0,2,2,2,,,,,,,,,,,,,,,,,,,,,,,,,,,591.4897188000032,591.6898105000146,591.6754087000154,591.9911659000209,591.9735300000175,None,592.4746502000198,None,d,1,1.199465500016231,592.4746502000198,None,None,None,,,,,,,,,,,,,,,,,,,,,,,11017,1,2,2024_Jun_17_1428,stroop_task_switching2_b,2021.2.3,60.15750438674803,
,,,红,yellow,f,diamond,color_mix,颜色,,incompatible,1,block_switch2_b,instruction/ready_2.png,instruction/i12.png,,,,,,,,,,,,,,,,,0,1,1,1,0,3,3,3,,,,,,,,,,,,,,,,,,,,,,,,,,,593.6929346999968,593.8927922000003,593.8763961000077,594.1770408000157,594.1770408000157,None,594.6774353000219,None,f,1,0.7085738999885507,594.6774353000219,None,None,None,,,,,,,,,,,,,,,,,,,,,,,11017,1,2,2024_Jun_17_1428,stroop_task_switching2_b,2021.2.3,60.15750438674803,
,,,红,red,k,diamond,color_mix,颜色,,compatible,1,block_switch2_b,instruction/ready_2.png,instruction/i12.png,,,,,,,,,,,,,,,,,0,1,1,1,0,4,4,4,,,,,,,,,,,,,,,,,,,,,,,,,,,595.4119745000207,595.6135466000123,595.5956185999967,595.8959247000166,595.8959247000166,None,596.3967504000175,None,k,1,0.6450040000199806,596.3967504000175,None,None,None,,,,,,,,,,,,,,,,,,,,,,,11017,1,2,2024_Jun_17_1428,stroop_task_switching2_b,2021.2.3,60.15750438674803,
,,,绿,green,d,square,color_mix,单词,,compatible,2,block_switch2_b,instruction/ready_2.png,instruction/i12.png,,,,,,,,,,,,,,,,,0,1,1,1,0,5,5,5,,,,,,,,,,,,,,,,,,,,,,,,,,,597.0644621000101,597.2647931000101,597.2483035000041,597.5504634999961,597.5504634999961,None,598.0658509000205,None,d,1,0.6322388999979012,598.0658509000205,None,None,None,,,,,,,,,,,,,,,,,,,,,,,11017,1,2,2024_Jun_17_1428,stroop_task_switching2_b,2021.2.3,60.15750438674803,
,,,黄,blue,j,diamond,color_mix,颜色,,incompatible,2,block_switch2_b,instruction/ready_2.png,instruction/i12.png,,,,,,,,,,,,,,,,,0,1,1,1,0,6,6,6,,,,,,,,,,,,,,,,,,,,,,,,,,,598.7168470000033,598.9180565999995,598.9004626999958,599.2010508000094,599.2010508000094,None,599.7024442999973,None,j,1,0.5956781999848317,599.7024442999973,None,None,None,,,,,,,,,,,,,,,,,,,,,,,11017,1,2,2024_Jun_17_1428,stroop_task_switching2_b,2021.2.3,60.15750438674803,
,,,绿,yellow,d,square,color_mix,单词,,incompatible,2,block_switch2_b,instruction/ready_2.png,instruction/i12.png,,,,,,,,,,,,,,,,,0,1,1,1,0,7,7,7,,,,,,,,,,,,,,,,,,,,,,,,,,,600.3192853000073,600.5201348999981,600.503467100003,600.8045309000008,600.8045309000008,None,601.3041655000125,None,d,1,0.9698322000040207,601.3041655000125,None,None,None,,,,,,,,,,,,,,,,,,,,,,,11017,1,2,2024_Jun_17_1428,stroop_task_switching2_b,2021.2.3,60.15750438674803,
