b_pra,ins_blocks,ins_blocks2,stim_word,stim_color,corrAns,cue_type,trial_type,task_type,rand,compatibility,switch,b_test,w_pic,w_pic2,trials_instr.thisRepN,trials_instr.thisTrialN,trials_instr.thisN,trials_instr.thisIndex,block_pra.thisRepN,block_pra.thisTrialN,block_pra.thisN,block_pra.thisIndex,trials_rep.thisRepN,trials_rep.thisTrialN,trials_rep.thisN,trials_rep.thisIndex,trials_pra.thisRepN,trials_pra.thisTrialN,trials_pra.thisN,trials_pra.thisIndex,trials_3.thisRepN,trials_3.thisTrialN,trials_3.thisN,trials_3.thisIndex,trials_2.thisRepN,trials_2.thisTrialN,trials_2.thisN,trials_2.thisIndex,instr_image.started,instr_image.stopped,instr_key_resp.keys,instr_key_resp.rt,instr_key_resp.started,instr_key_resp.stopped,instr_pra_image.started,instr_pra_image.stopped,ip_key_resp.keys,ip_key_resp.rt,ip_key_resp.started,ip_key_resp.stopped,block_image.started,block_image.stopped,ib_key_resp.keys,ib_key_resp.rt,ib_key_resp.started,ib_key_resp.stopped,cd3.started,cd3.stopped,cd2.started,cd2.stopped,cd1.started,cd1.stopped,cd_text.started,cd_text.stopped,text_fix.started,text_fix.stopped,text_2.started,text_2.stopped,text_4.started,text_4.stopped,text_target.started,text_target.stopped,key_resp.keys,key_resp.corr,key_resp.rt,key_resp.started,key_resp.stopped,sceen_black.started,sceen_black.stopped,text_fb.started,text_fb.stopped,text.started,text.stopped,key_bf.keys,key_bf.rt,key_bf.started,key_bf.stopped,instr_test_image.started,instr_test_image.stopped,instr_exp_key_resp.keys,instr_exp_key_resp.rt,instr_exp_key_resp.started,instr_exp_key_resp.stopped,text_rest.started,text_rest.stopped,key_resp_rest.keys,key_resp_rest.rt,key_resp_rest.started,key_resp_rest.stopped,text_3.started,text_3.stopped,participant,session,balance,date,expName,psychopyVersion,frameRate,
,,,,,,,,,,,,,,,0,0,0,0,,,,,,,,,,,,,,,,,,,,,6.606001200038008,None,right,1.1794579999987036,6.606001200038008,None,,,,,,,,,,,,,,,,,,,,,,,,,,,,,,,,,,,,,,,,,,,,,,,,,,,,,,,,,,11014,1,1,2024_Jun_03_2057,stroop_task_switching2,2021.2.3,59.80950671884122,
,,,,,,,,,,,,,,,1,0,1,0,,,,,,,,,,,,,,,,,,,,,7.824824700015597,None,right,29.53769770002691,7.824824700015597,None,,,,,,,,,,,,,,,,,,,,,,,,,,,,,,,,,,,,,,,,,,,,,,,,,,,,,,,,,,11014,1,1,2024_Jun_03_2057,stroop_task_switching2,2021.2.3,59.80950671884122,
,,,,,,,,,,,,,,,2,0,2,0,,,,,,,,,,,,,,,,,,,,,37.402350899996236,None,right,4.007599900010973,37.402350899996236,None,,,,,,,,,,,,,,,,,,,,,,,,,,,,,,,,,,,,,,,,,,,,,,,,,,,,,,,,,,11014,1,1,2024_Jun_03_2057,stroop_task_switching2,2021.2.3,59.80950671884122,
,,,,,,,,,,,,,,,3,0,3,0,,,,,,,,,,,,,,,,,,,,,41.442158100020606,None,right,2.93622289999621,41.442158100020606,None,,,,,,,,,,,,,,,,,,,,,,,,,,,,,,,,,,,,,,,,,,,,,,,,,,,,,,,,,,11014,1,1,2024_Jun_03_2057,stroop_task_switching2,2021.2.3,59.80950671884122,
,,,,,,,,,,,,,,,4,0,4,0,,,,,,,,,,,,,,,,,,,,,44.41319950000616,None,left,11.613301700039301,44.41319950000616,None,,,,,,,,,,,,,,,,,,,,,,,,,,,,,,,,,,,,,,,,,,,,,,,,,,,,,,,,,,11014,1,1,2024_Jun_03_2057,stroop_task_switching2,2021.2.3,59.80950671884122,
,,,,,,,,,,,,,,,5,0,5,0,,,,,,,,,,,,,,,,,,,,,56.06412310001906,None,left,0.30687519995262846,56.06412310001906,None,,,,,,,,,,,,,,,,,,,,,,,,,,,,,,,,,,,,,,,,,,,,,,,,,,,,,,,,,,11014,1,1,2024_Jun_03_2057,stroop_task_switching2,2021.2.3,59.80950671884122,
,,,,,,,,,,,,,,,6,0,6,0,,,,,,,,,,,,,,,,,,,,,56.414604200050235,None,right,1.4839442999800667,56.414604200050235,None,,,,,,,,,,,,,,,,,,,,,,,,,,,,,,,,,,,,,,,,,,,,,,,,,,,,,,,,,,11014,1,1,2024_Jun_03_2057,stroop_task_switching2,2021.2.3,59.80950671884122,
,,,,,,,,,,,,,,,7,0,7,0,,,,,,,,,,,,,,,,,,,,,57.93348460004199,None,left,1.0209593999898061,57.93348460004199,None,,,,,,,,,,,,,,,,,,,,,,,,,,,,,,,,,,,,,,,,,,,,,,,,,,,,,,,,,,11014,1,1,2024_Jun_03_2057,stroop_task_switching2,2021.2.3,59.80950671884122,
,,,,,,,,,,,,,,,8,0,8,0,,,,,,,,,,,,,,,,,,,,,59.00201850000303,None,right,1.6008428999921307,59.00201850000303,None,,,,,,,,,,,,,,,,,,,,,,,,,,,,,,,,,,,,,,,,,,,,,,,,,,,,,,,,,,11014,1,1,2024_Jun_03_2057,stroop_task_switching2,2021.2.3,59.80950671884122,
,,,,,,,,,,,,,,,9,0,9,0,,,,,,,,,,,,,,,,,,,,,60.63778430002276,None,right,2.140891700051725,60.63778430002276,None,,,,,,,,,,,,,,,,,,,,,,,,,,,,,,,,,,,,,,,,,,,,,,,,,,,,,,,,,,11014,1,1,2024_Jun_03_2057,stroop_task_switching2,2021.2.3,59.80950671884122,
,,,,,,,,,,,,,,,10,0,10,0,,,,,,,,,,,,,,,,,,,,,62.824226600001566,None,right,22.45126420003362,62.824226600001566,None,,,,,,,,,,,,,,,,,,,,,,,,,,,,,,,,,,,,,,,,,,,,,,,,,,,,,,,,,,11014,1,1,2024_Jun_03_2057,stroop_task_switching2,2021.2.3,59.80950671884122,
,,,,,,,,,,,,,,,11,0,11,0,,,,,,,,,,,,,,,,,,,,,85.30825150001328,None,left,1.4550255000358447,85.30825150001328,None,,,,,,,,,,,,,,,,,,,,,,,,,,,,,,,,,,,,,,,,,,,,,,,,,,,,,,,,,,11014,1,1,2024_Jun_03_2057,stroop_task_switching2,2021.2.3,59.80950671884122,
,,,,,,,,,,,,,,,12,0,12,0,,,,,,,,,,,,,,,,,,,,,86.81043720000889,None,right,3.184874100028537,86.81043720000889,None,,,,,,,,,,,,,,,,,,,,,,,,,,,,,,,,,,,,,,,,,,,,,,,,,,,,,,,,,,11014,1,1,2024_Jun_03_2057,stroop_task_switching2,2021.2.3,59.80950671884122,
,,,,,,,,,,,,,,,13,0,13,0,,,,,,,,,,,,,,,,,,,,,90.03209990001051,None,right,0.9155411000247113,90.03209990001051,None,,,,,,,,,,,,,,,,,,,,,,,,,,,,,,,,,,,,,,,,,,,,,,,,,,,,,,,,,,11014,1,1,2024_Jun_03_2057,stroop_task_switching2,2021.2.3,59.80950671884122,
,,,,,,,,,,,,,,,,,,,,,,,,,,,,,,,,,,,,,,,,,,,,,90.98355440003797,None,space,4.1061440000194125,90.98355440003797,None,,,,,,,,,,,,,,,,,,,,,,,,,,,,,,,,,,,,,,,,,,,,,,,,,,,,11014,1,1,2024_Jun_03_2057,stroop_task_switching2,2021.2.3,59.80950671884122,
condition/block_color,instruction/instr_color,instruction/i8,XX,red,d,diamond,color_single,颜色,,,,,,,,,,,0,0,0,0,0,0,0,0,0,0,0,0,,,,,,,,,,,,,,,,,,,,,95.1230937000364,None,space,10.345609000010882,95.1230937000364,None,106.54005020001205,107.54329729999881,107.54329729999881,108.54380949999904,108.54380949999904,None,105.55757520004408,106.55834700004198,109.51130980002927,109.71266429999378,109.69500930001959,109.99613010004396,109.99613010004396,None,110.49626490002265,None,d,1,0.747812400048133,110.49626490002265,None,None,None,111.26401300000725,None,,,,,,,,,,,,,,,,,,,,,11014,1,1,2024_Jun_03_2057,stroop_task_switching2,2021.2.3,59.80950671884122,
condition/block_color,instruction/instr_color,instruction/i8,XX,green,k,diamond,color_single,颜色,,,,,,,,,,,0,0,0,0,0,0,0,0,0,1,1,1,,,,,,,,,,,,,,,,,,,,,,,,,,,,,,,,,,,112.26538520003669,112.46660790004535,112.44920490001095,112.75065600004746,112.75065600004746,None,113.25038520002272,None,k,1,1.7701266999938525,113.25038520002272,None,None,None,115.0365609000437,None,,,,,,,,,,,,,,,,,,,,,11014,1,1,2024_Jun_03_2057,stroop_task_switching2,2021.2.3,59.80950671884122,
condition/block_color,instruction/instr_color,instruction/i8,XX,yellow,j,diamond,color_single,颜色,,,,,,,,,,,0,0,0,0,0,0,0,0,0,2,2,2,,,,,,,,,,,,,,,,,,,,,,,,,,,,,,,,,,,116.03794730000664,116.23820690001594,116.22233370004687,116.52266010001767,116.52266010001767,None,117.02274520002538,None,j,1,2.653489599993918,117.02274520002538,None,None,None,119.69347739999648,None,,,,,,,,,,,,,,,,,,,,,11014,1,1,2024_Jun_03_2057,stroop_task_switching2,2021.2.3,59.80950671884122,
condition/block_color,instruction/instr_color,instruction/i8,XX,blue,f,diamond,color_single,颜色,,,,,,,,,,,0,0,0,0,0,0,0,0,0,3,3,3,,,,,,,,,,,,,,,,,,,,,,,,,,,,,,,,,,,120.6948419000255,120.8959659000393,120.8784113000147,121.17893970001023,121.17893970001023,None,121.67966970003909,None,f,1,0.6771836000261828,121.67966970003909,None,None,None,122.3809709000052,None,,,,,,,,,,,,,,,,,,,,,11014,1,1,2024_Jun_03_2057,stroop_task_switching2,2021.2.3,59.80950671884122,
condition/block_color,instruction/instr_color,instruction/i8,XX,green,k,diamond,color_single,颜色,,,,,,,,,,,0,0,0,0,0,0,0,0,0,4,4,4,,,,,,,,,,,,,,,,,,,,,,,,,,,,,,,,,,,123.38230860000476,123.58339119999437,123.56596350000473,123.86644900002284,123.86644900002284,None,124.3670032999944,None,k,1,0.9733015000238083,124.3670032999944,None,None,None,125.36861350003164,None,,,,,,,,,,,,,,,,,,,,,11014,1,1,2024_Jun_03_2057,stroop_task_switching2,2021.2.3,59.80950671884122,
condition/block_color,instruction/instr_color,instruction/i8,XX,yellow,j,diamond,color_single,颜色,,,,,,,,,,,0,0,0,0,0,0,0,0,0,5,5,5,,,,,,,,,,,,,,,,,,,,,,,,,,,,,,,,,,,126.3699494000175,126.57041750004282,126.55385460000252,126.85672630002955,126.85672630002955,None,127.37154530000407,None,j,1,0.9289683999959379,127.37154530000407,None,None,None,128.32353809999768,None,,,,,,,,,,,,,,,,,,,,,11014,1,1,2024_Jun_03_2057,stroop_task_switching2,2021.2.3,59.80950671884122,
condition/block_color,instruction/instr_color,instruction/i8,XX,blue,f,diamond,color_single,颜色,,,,,,,,,,,0,0,0,0,0,0,0,0,0,6,6,6,,,,,,,,,,,,,,,,,,,,,,,,,,,,,,,,,,,129.32462230004603,129.52516980003566,129.50829250004608,129.80873560003238,129.80873560003238,None,130.3097164000501,None,f,1,1.6151329000131227,130.3097164000501,None,None,None,131.9451345000416,None,,,,,,,,,,,,,,,,,,,,,11014,1,1,2024_Jun_03_2057,stroop_task_switching2,2021.2.3,59.80950671884122,
condition/block_color,instruction/instr_color,instruction/i8,XX,red,d,diamond,color_single,颜色,,,,,,,,,,,0,0,0,0,0,0,0,0,0,7,7,7,,,,,,,,,,,,,,,,,,,,,,,,,,,,,,,,,,,132.94679900002666,133.14794039999833,133.13007890002336,133.4313959000283,133.4313959000283,None,133.93178780004382,None,d,1,0.5685916999937035,133.93178780004382,None,None,None,134.51560420001624,None,,,,,,,,,,,,,,,,,,,,,11014,1,1,2024_Jun_03_2057,stroop_task_switching2,2021.2.3,59.80950671884122,
condition/block_color,instruction/instr_color,instruction/i8,XX,yellow,j,diamond,color_single,颜色,,,,,,,,,,,0,0,0,0,0,0,0,0,0,8,8,8,,,,,,,,,,,,,,,,,,,,,,,,,,,,,,,,,,,135.517130799999,135.71925490000285,135.70088310004212,136.00205490004737,136.00205490004737,None,136.502170199994,None,j,1,1.0946477000252344,136.502170199994,None,None,None,137.62036380002974,None,,,,,,,,,,,,,,,,,,,,,11014,1,1,2024_Jun_03_2057,stroop_task_switching2,2021.2.3,59.80950671884122,
condition/block_color,instruction/instr_color,instruction/i8,XX,blue,f,diamond,color_single,颜色,,,,,,,,,,,0,0,0,0,0,0,0,0,0,9,9,9,,,,,,,,,,,,,,,,,,,,,,,,,,,,,,,,,,,138.62196469999617,138.82231020001927,138.8055612000171,139.10672969999723,139.10672969999723,None,139.60683100001188,None,f,1,0.5420598000055179,139.60683100001188,None,None,None,140.17447300005006,None,,,,,,,,,,,,,,,,,,,,,11014,1,1,2024_Jun_03_2057,stroop_task_switching2,2021.2.3,59.80950671884122,
condition/block_color,instruction/instr_color,instruction/i8,XX,red,d,diamond,color_single,颜色,,,,,,,,,,,0,0,0,0,0,0,0,0,0,10,10,10,,,,,,,,,,,,,,,,,,,,,,,,,,,,,,,,,,,141.17586960003246,141.37724000000162,141.35941570001887,141.6602357000229,141.64318940002704,None,142.1439173000399,None,d,1,0.6451366000110283,142.1439173000399,None,None,None,142.81159480003407,None,,,,,,,,,,,,,,,,,,,,,11014,1,1,2024_Jun_03_2057,stroop_task_switching2,2021.2.3,59.80950671884122,
condition/block_color,instruction/instr_color,instruction/i8,XX,green,k,diamond,color_single,颜色,,,,,,,,,,,0,0,0,0,0,0,0,0,0,11,11,11,,,,,,,,,,,,,,,,,,,,,,,,,,,,,,,,,,,143.81297260004794,144.0132975000306,143.9966293000034,144.29727100004675,144.29727100004675,None,144.7978657000349,None,k,1,0.7511126000317745,144.7978657000349,None,None,None,145.566113900044,None,,,,,,,,,,,,,,,,,,,,,11014,1,1,2024_Jun_03_2057,stroop_task_switching2,2021.2.3,59.80950671884122,
condition/block_color,instruction/instr_color,instruction/i8,XX,blue,f,diamond,color_single,颜色,,,,,,,,,,,0,0,0,0,0,0,0,0,0,12,12,12,,,,,,,,,,,,,,,,,,,,,,,,,,,,,,,,,,,146.56722250004532,146.76781390001997,146.75214340002276,147.05128340004012,147.05128340004012,None,147.55210240004817,None,f,1,0.8614316000021063,147.55210240004817,None,None,None,148.43660030001774,None,,,,,,,,,,,,,,,,,,,,,11014,1,1,2024_Jun_03_2057,stroop_task_switching2,2021.2.3,59.80950671884122,
condition/block_color,instruction/instr_color,instruction/i8,XX,red,d,diamond,color_single,颜色,,,,,,,,,,,0,0,0,0,0,0,0,0,0,13,13,13,,,,,,,,,,,,,,,,,,,,,,,,,,,,,,,,,,,149.43839429999935,149.63957240001764,149.62184780003736,149.9233244000352,149.9233244000352,None,150.42300430004252,None,d,1,0.6779739999910817,150.42300430004252,None,None,None,151.12427800003206,None,,,,,,,,,,,,,,,,,,,,,11014,1,1,2024_Jun_03_2057,stroop_task_switching2,2021.2.3,59.80950671884122,
condition/block_color,instruction/instr_color,instruction/i8,XX,green,k,diamond,color_single,颜色,,,,,,,,,,,0,0,0,0,0,0,0,0,0,14,14,14,,,,,,,,,,,,,,,,,,,,,,,,,,,,,,,,,,,152.1257867999957,152.32631130004302,152.30932450003456,152.60951169999316,152.60951169999316,None,153.11054020002484,None,k,1,0.6546247999649495,153.11054020002484,None,None,None,153.7948290000204,None,,,,,,,,,,,,,,,,,,,,,11014,1,1,2024_Jun_03_2057,stroop_task_switching2,2021.2.3,59.80950671884122,
condition/block_color,instruction/instr_color,instruction/i8,XX,yellow,j,diamond,color_single,颜色,,,,,,,,,,,0,0,0,0,0,0,0,0,0,15,15,15,,,,,,,,,,,,,,,,,,,,,,,,,,,,,,,,,,,154.79627340001753,154.99825550004607,154.98011699999915,155.28045240003848,155.28045240003848,None,155.78123780002352,None,j,1,0.49625840003136545,155.78123780002352,None,None,None,156.29853130003903,None,,,,,,,,,,,,,,,,,,,,,11014,1,1,2024_Jun_03_2057,stroop_task_switching2,2021.2.3,59.80950671884122,
condition/block_color,instruction/instr_color,instruction/i8,XX,red,d,diamond,color_single,颜色,,,,,,,,,,,0,0,0,0,0,0,0,0,0,16,16,16,,,,,,,,,,,,,,,,,,,,,,,,,,,,,,,,,,,157.30021290003788,157.50225550000323,157.4842423000373,157.7842970000347,157.7842970000347,None,158.28483630000846,None,d,1,0.5605926999705844,158.28483630000846,None,None,None,158.86902880005073,None,,,,,,,,,,,,,,,,,,,,,11014,1,1,2024_Jun_03_2057,stroop_task_switching2,2021.2.3,59.80950671884122,
condition/block_color,instruction/instr_color,instruction/i8,XX,green,k,diamond,color_single,颜色,,,,,,,,,,,0,0,0,0,0,0,0,0,0,17,17,17,,,,,,,,,,,,,,,,,,,,,,,,,,,,,,,,,,,159.8706868000445,160.07199339999352,160.05657010001596,160.3552530000452,160.3552530000452,None,160.8553179000155,None,k,1,0.854143499978818,160.8553179000155,None,None,None,161.74009969999315,None,,,,,,,,,,,,,,,,,,,,,11014,1,1,2024_Jun_03_2057,stroop_task_switching2,2021.2.3,59.80950671884122,
condition/block_color,instruction/instr_color,instruction/i8,XX,yellow,j,diamond,color_single,颜色,,,,,,,,,,,0,0,0,0,0,0,0,0,0,18,18,18,,,,,,,,,,,,,,,,,,,,,,,,,,,,,,,,,,,162.74158770003123,162.94193550001364,162.9253078000038,163.22756940004183,163.22756940004183,None,163.72666750004282,None,j,1,0.750885899993591,163.72666750004282,None,None,None,164.49427200003993,None,,,,,,,,,,,,,,,,,,,,,11014,1,1,2024_Jun_03_2057,stroop_task_switching2,2021.2.3,59.80950671884122,
condition/block_color,instruction/instr_color,instruction/i8,XX,blue,f,diamond,color_single,颜色,,,,,,,,,,,0,0,0,0,0,0,0,0,0,19,19,19,,,,,,,,,,,,,,,,,,,,,,,,,,,,,,,,,,,165.49598410003819,165.69658760004677,165.67929699999513,165.98131490004016,165.98131490004016,None,166.48120080004446,None,f,1,0.6204123999923468,166.48120080004446,None,None,None,167.13178140000673,None,,,,,,,,,,,,,,,,,,,,,11014,1,1,2024_Jun_03_2057,stroop_task_switching2,2021.2.3,59.80950671884122,
condition/block_color,instruction/instr_color,instruction/i8,XX,green,k,diamond,color_single,颜色,,,,,,,,,,,0,0,0,0,0,0,0,0,0,20,20,20,,,,,,,,,,,,,,,,,,,,,,,,,,,,,,,,,,,168.1332451000344,168.33349910000106,168.31701420003083,168.61706340004457,168.61706340004457,None,169.118048000033,None,k,1,0.8158383000409231,169.118048000033,None,None,None,169.952494200028,None,,,,,,,,,,,,,,,,,,,,,11014,1,1,2024_Jun_03_2057,stroop_task_switching2,2021.2.3,59.80950671884122,
condition/block_color,instruction/instr_color,instruction/i8,XX,yellow,j,diamond,color_single,颜色,,,,,,,,,,,0,0,0,0,0,0,0,0,0,21,21,21,,,,,,,,,,,,,,,,,,,,,,,,,,,,,,,,,,,170.95416220003972,171.1551693000365,171.13745620002737,171.43811520002782,171.43811520002782,None,171.93869030004134,None,j,1,0.5311377000180073,171.93869030004134,None,None,None,172.48957510001492,None,,,,,,,,,,,,,,,,,,,,,11014,1,1,2024_Jun_03_2057,stroop_task_switching2,2021.2.3,59.80950671884122,
condition/block_color,instruction/instr_color,instruction/i8,XX,blue,f,diamond,color_single,颜色,,,,,,,,,,,0,0,0,0,0,0,0,0,0,22,22,22,,,,,,,,,,,,,,,,,,,,,,,,,,,,,,,,,,,173.4911371000344,173.69220119999954,173.67455960001098,173.97572460002266,173.97572460002266,None,174.4760839000228,None,f,1,0.6499168999725953,174.4760839000228,None,None,None,175.14490990003105,None,,,,,,,,,,,,,,,,,,,,,11014,1,1,2024_Jun_03_2057,stroop_task_switching2,2021.2.3,59.80950671884122,
condition/block_color,instruction/instr_color,instruction/i8,XX,red,d,diamond,color_single,颜色,,,,,,,,,,,0,0,0,0,0,0,0,0,0,23,23,23,,,,,,,,,,,,,,,,,,,,,,,,,,,,,,,,,,,176.14508050004952,176.3455487000174,176.32890700001735,176.62919210002292,176.62919210002292,None,177.13004710001405,None,d,1,0.5079977000132203,177.13004710001405,None,None,None,177.66421840002295,None,,,,,,,,,,,,,,,,,,,,,11014,1,1,2024_Jun_03_2057,stroop_task_switching2,2021.2.3,59.80950671884122,
condition/block_color,instruction/instr_color,instruction/i8,,,,,,,,,,,,,,,,,0,0,0,0,0,0,0,0,,,,,,,,,,,,,,,,,,,,,,,,,,,,,,,,,,,,,,,,,,,,,,,,,,,,,,,,178.68233989999862,None,space,2.4915436999872327,178.68233989999862,None,,,,,,,,,,,,,,,11014,1,1,2024_Jun_03_2057,stroop_task_switching2,2021.2.3,59.80950671884122,
condition/block_color,instruction/instr_color,instruction/i8,,,,,,,,,,,,,,,,,0,0,0,0,,,,,,,,,,,,,,,,,,,,,,,,,,,,,,,,,,,,,,,,,,,,,,,,,,,,,,,,,,,,,,,,,,,,,,,,,,,,,,,,11014,1,1,2024_Jun_03_2057,stroop_task_switching2,2021.2.3,59.80950671884122,
condition/block_word,instruction/instr_word,instruction/i9,黄,white,j,square,word_single,单词,0.0032461461866890584,,,,,,,,,,0,1,1,1,0,0,0,0,0,0,0,0,,,,,,,,,,,,,,,,,,,,,181.21922960004304,None,space,9.164519099984318,181.21922960004304,None,191.40201760001946,192.40282050002133,192.40282050002133,193.40455670002848,193.40455670002848,None,190.4171120999963,191.41905010002665,194.4227847000002,194.62411249999423,194.60624890000327,194.90692430001218,194.90692430001218,None,195.40750030003255,None,j,1,1.055107299995143,195.40750030003255,None,None,None,196.49277020001318,None,,,,,,,,,,,,,,,,,,,,,11014,1,1,2024_Jun_03_2057,stroop_task_switching2,2021.2.3,59.80950671884122,
condition/block_word,instruction/instr_word,instruction/i9,蓝,white,f,square,word_single,单词,0.060540570646362424,,,,,,,,,,0,1,1,1,0,0,0,0,0,1,1,1,,,,,,,,,,,,,,,,,,,,,,,,,,,,,,,,,,,197.49404200003482,197.69438300002366,197.67799380002543,197.98020930000348,197.98020930000348,None,198.47869270003866,None,f,1,0.856254100042861,198.47869270003866,None,None,None,199.3633690000279,None,,,,,,,,,,,,,,,,,,,,,11014,1,1,2024_Jun_03_2057,stroop_task_switching2,2021.2.3,59.80950671884122,
condition/block_word,instruction/instr_word,instruction/i9,黄,white,j,square,word_single,单词,0.06994067193778963,,,,,,,,,,0,1,1,1,0,0,0,0,0,2,2,2,,,,,,,,,,,,,,,,,,,,,,,,,,,,,,,,,,,200.3649557000026,200.5660495000193,200.54856530000689,200.84926919999998,200.84926919999998,None,201.35009490000084,None,j,1,0.8884726999676786,201.35009490000084,None,None,None,202.26817250001477,None,,,,,,,,,,,,,,,,,,,,,11014,1,1,2024_Jun_03_2057,stroop_task_switching2,2021.2.3,59.80950671884122,
condition/block_word,instruction/instr_word,instruction/i9,蓝,white,f,square,word_single,单词,0.08193765152950094,,,,,,,,,,0,1,1,1,0,0,0,0,0,3,3,3,,,,,,,,,,,,,,,,,,,,,,,,,,,,,,,,,,,203.26955510000698,203.46975320001366,203.45521470002132,203.76994150003884,203.7533280000207,None,204.25443570001516,None,f,1,0.8160778000019491,204.25443570001516,None,None,None,205.08883840002818,None,,,,,,,,,,,,,,,,,,,,,11014,1,1,2024_Jun_03_2057,stroop_task_switching2,2021.2.3,59.80950671884122,
condition/block_word,instruction/instr_word,instruction/i9,红,white,d,square,word_single,单词,0.1279694370605574,,,,,,,,,,0,1,1,1,0,0,0,0,0,4,4,4,,,,,,,,,,,,,,,,,,,,,,,,,,,,,,,,,,,206.0902872000006,206.29071590001695,206.27373410004657,206.574563400005,206.574563400005,None,207.07512100000167,None,d,1,0.5075586999882944,207.07512100000167,None,None,None,207.6094049999956,None,,,,,,,,,,,,,,,,,,,,,11014,1,1,2024_Jun_03_2057,stroop_task_switching2,2021.2.3,59.80950671884122,
condition/block_word,instruction/instr_word,instruction/i9,红,white,d,square,word_single,单词,0.18345028784879092,,,,,,,,,,0,1,1,1,0,0,0,0,0,5,5,5,,,,,,,,,,,,,,,,,,,,,,,,,,,,,,,,,,,208.61083429999417,208.81109470000956,208.7946000000229,209.0948268000502,209.0948268000502,None,209.5953738000244,None,d,1,0.5875202000024728,209.5953738000244,None,None,None,210.2131871000165,None,,,,,,,,,,,,,,,,,,,,,11014,1,1,2024_Jun_03_2057,stroop_task_switching2,2021.2.3,59.80950671884122,
condition/block_word,instruction/instr_word,instruction/i9,蓝,white,f,square,word_single,单词,0.19920386223101294,,,,,,,,,,0,1,1,1,0,0,0,0,0,6,6,6,,,,,,,,,,,,,,,,,,,,,,,,,,,,,,,,,,,211.21480790001806,211.41587120003533,211.3983110000263,211.69899430003716,211.69899430003716,None,212.19966450001812,None,f,1,0.7911127000115812,212.19966450001812,None,None,None,213.01750770001672,None,,,,,,,,,,,,,,,,,,,,,11014,1,1,2024_Jun_03_2057,stroop_task_switching2,2021.2.3,59.80950671884122,
condition/block_word,instruction/instr_word,instruction/i9,蓝,white,f,square,word_single,单词,0.26360599864925405,,,,,,,,,,0,1,1,1,0,0,0,0,0,7,7,7,,,,,,,,,,,,,,,,,,,,,,,,,,,,,,,,,,,214.0187727000448,214.21934730000794,214.20290620002197,214.50447840004927,214.50447840004927,None,215.00364110001829,None,f,1,0.6677090000011958,215.00364110001829,None,None,None,215.68794990004972,None,,,,,,,,,,,,,,,,,,,,,11014,1,1,2024_Jun_03_2057,stroop_task_switching2,2021.2.3,59.80950671884122,
condition/block_word,instruction/instr_word,instruction/i9,蓝,white,f,square,word_single,单词,0.358985675745526,,,,,,,,,,0,1,1,1,0,0,0,0,0,8,8,8,,,,,,,,,,,,,,,,,,,,,,,,,,,,,,,,,,,216.68967710004654,216.89063959999476,216.8732735000085,217.17390570003772,217.17390570003772,None,217.67484400002286,None,f,1,0.48444459994789213,217.67484400002286,None,None,None,218.1751272000256,None,,,,,,,,,,,,,,,,,,,,,11014,1,1,2024_Jun_03_2057,stroop_task_switching2,2021.2.3,59.80950671884122,
condition/block_word,instruction/instr_word,instruction/i9,绿,white,k,square,word_single,单词,0.36496733802487347,,,,,,,,,,0,1,1,1,0,0,0,0,0,9,9,9,,,,,,,,,,,,,,,,,,,,,,,,,,,,,,,,,,,219.1765660000383,219.37722330004908,219.36139299999923,219.66299030004302,219.66299030004302,None,220.17828490003012,None,k,1,1.0930088000022806,220.17828490003012,None,None,None,221.2968370000017,None,,,,,,,,,,,,,,,,,,,,,11014,1,1,2024_Jun_03_2057,stroop_task_switching2,2021.2.3,59.80950671884122,
condition/block_word,instruction/instr_word,instruction/i9,黄,white,j,square,word_single,单词,0.3743513623756727,,,,,,,,,,0,1,1,1,0,0,0,0,0,10,10,10,,,,,,,,,,,,,,,,,,,,,,,,,,,,,,,,,,,222.2987551999977,222.49822599999607,222.4827520000399,222.78222340001957,222.78222340001957,None,223.28312620002544,None,j,1,0.47612019994994625,223.28312620002544,None,None,None,223.78367340000113,None,,,,,,,,,,,,,,,,,,,,,11014,1,1,2024_Jun_03_2057,stroop_task_switching2,2021.2.3,59.80950671884122,
condition/block_word,instruction/instr_word,instruction/i9,红,white,d,square,word_single,单词,0.3894803852598544,,,,,,,,,,0,1,1,1,0,0,0,0,0,11,11,11,,,,,,,,,,,,,,,,,,,,,,,,,,,,,,,,,,,224.7852688000421,224.98610750003718,224.96878420002759,225.26947749999817,225.26947749999817,None,225.77017800003523,None,d,1,0.6050029000034556,225.77017800003523,None,None,None,226.4042541999952,None,,,,,,,,,,,,,,,,,,,,,11014,1,1,2024_Jun_03_2057,stroop_task_switching2,2021.2.3,59.80950671884122,
condition/block_word,instruction/instr_word,instruction/i9,绿,white,k,square,word_single,单词,0.5393759672408067,,,,,,,,,,0,1,1,1,0,0,0,0,0,12,12,12,,,,,,,,,,,,,,,,,,,,,,,,,,,,,,,,,,,227.40585949999513,227.60600990004605,227.59030929999426,227.8902827000129,227.8902827000129,None,228.39057580003282,None,k,1,0.9454327000421472,228.39057580003282,None,None,None,229.35882250004215,None,,,,,,,,,,,,,,,,,,,,,11014,1,1,2024_Jun_03_2057,stroop_task_switching2,2021.2.3,59.80950671884122,
condition/block_word,instruction/instr_word,instruction/i9,蓝,white,f,square,word_single,单词,0.5995731954831104,,,,,,,,,,0,1,1,1,0,0,0,0,0,13,13,13,,,,,,,,,,,,,,,,,,,,,,,,,,,,,,,,,,,230.36018260003766,230.5603032000363,230.5442973000463,230.84440860000905,230.84440860000905,None,231.34519100002944,None,f,1,0.6139945999602787,231.34519100002944,None,None,None,231.9792905000504,None,,,,,,,,,,,,,,,,,,,,,11014,1,1,2024_Jun_03_2057,stroop_task_switching2,2021.2.3,59.80950671884122,
condition/block_word,instruction/instr_word,instruction/i9,红,white,d,square,word_single,单词,0.6298674479151414,,,,,,,,,,0,1,1,1,0,0,0,0,0,14,14,14,,,,,,,,,,,,,,,,,,,,,,,,,,,,,,,,,,,232.98071130004246,233.18225160002476,233.1647437000065,233.46608909999486,233.46608909999486,None,233.96571290004067,None,d,1,0.5536915000411682,233.96571290004067,None,None,None,234.55018090002704,None,,,,,,,,,,,,,,,,,,,,,11014,1,1,2024_Jun_03_2057,stroop_task_switching2,2021.2.3,59.80950671884122,
condition/block_word,instruction/instr_word,instruction/i9,红,white,d,square,word_single,单词,0.7389942282348904,,,,,,,,,,0,1,1,1,0,0,0,0,0,15,15,15,,,,,,,,,,,,,,,,,,,,,,,,,,,,,,,,,,,235.55130350001855,235.75212220003596,235.73503979999805,236.0363596000243,236.0363596000243,None,236.53622720000567,None,d,1,0.6315977000049315,236.53622720000567,None,None,None,237.18732180004008,None,,,,,,,,,,,,,,,,,,,,,11014,1,1,2024_Jun_03_2057,stroop_task_switching2,2021.2.3,59.80950671884122,
condition/block_word,instruction/instr_word,instruction/i9,绿,white,k,square,word_single,单词,0.7550853947239682,,,,,,,,,,0,1,1,1,0,0,0,0,0,16,16,16,,,,,,,,,,,,,,,,,,,,,,,,,,,,,,,,,,,238.18876330001513,238.3895953000174,238.37249600002542,238.67463230004068,238.67463230004068,None,239.19028920005076,None,k,1,0.6811408000066876,239.19028920005076,None,None,None,239.89124580001226,None,,,,,,,,,,,,,,,,,,,,,11014,1,1,2024_Jun_03_2057,stroop_task_switching2,2021.2.3,59.80950671884122,
condition/block_word,instruction/instr_word,instruction/i9,绿,white,k,square,word_single,单词,0.8019302780428206,,,,,,,,,,0,1,1,1,0,0,0,0,0,17,17,17,,,,,,,,,,,,,,,,,,,,,,,,,,,,,,,,,,,240.8929727000068,241.09443080000347,241.07667920005042,241.37887940002838,241.37887940002838,None,241.89439090003725,None,k,1,0.7776505000074394,241.89439090003725,None,None,None,242.69573570002103,None,,,,,,,,,,,,,,,,,,,,,11014,1,1,2024_Jun_03_2057,stroop_task_switching2,2021.2.3,59.80950671884122,
condition/block_word,instruction/instr_word,instruction/i9,绿,white,k,square,word_single,单词,0.8110702914095343,,,,,,,,,,0,1,1,1,0,0,0,0,0,18,18,18,,,,,,,,,,,,,,,,,,,,,,,,,,,,,,,,,,,243.69700280000689,243.89725550002186,243.88303120003548,244.19778240000596,244.18130830000155,None,244.68204410001636,None,k,1,0.6455281999660656,244.68204410001636,None,None,None,245.35007520002546,None,,,,,,,,,,,,,,,,,,,,,11014,1,1,2024_Jun_03_2057,stroop_task_switching2,2021.2.3,59.80950671884122,
condition/block_word,instruction/instr_word,instruction/i9,黄,white,j,square,word_single,单词,0.8176594937590999,,,,,,,,,,0,1,1,1,0,0,0,0,0,19,19,19,,,,,,,,,,,,,,,,,,,,,,,,,,,,,,,,,,,246.35095290001482,246.55308149999473,246.5345498000388,246.83612769999309,246.83612769999309,None,247.33586110000033,None,j,1,0.543978400004562,247.33586110000033,None,None,None,247.90352440002607,None,,,,,,,,,,,,,,,,,,,,,11014,1,1,2024_Jun_03_2057,stroop_task_switching2,2021.2.3,59.80950671884122,
condition/block_word,instruction/instr_word,instruction/i9,红,white,d,square,word_single,单词,0.8955794421104841,,,,,,,,,,0,1,1,1,0,0,0,0,0,20,20,20,,,,,,,,,,,,,,,,,,,,,,,,,,,,,,,,,,,248.90476010000566,249.10565770004177,249.0884600999998,249.3900591999991,249.3900591999991,None,249.8900302000111,None,d,1,0.6457389999995939,249.8900302000111,None,None,None,250.55715310003143,None,,,,,,,,,,,,,,,,,,,,,11014,1,1,2024_Jun_03_2057,stroop_task_switching2,2021.2.3,59.80950671884122,
condition/block_word,instruction/instr_word,instruction/i9,绿,white,k,square,word_single,单词,0.9113598052474129,,,,,,,,,,0,1,1,1,0,0,0,0,0,21,21,21,,,,,,,,,,,,,,,,,,,,,,,,,,,,,,,,,,,251.55903820000822,251.7600991000072,251.74248210003134,252.04300350003177,252.04300350003177,None,252.54347670002608,None,k,1,0.6807131999521516,252.54347670002608,None,None,None,253.24489260005066,None,,,,,,,,,,,,,,,,,,,,,11014,1,1,2024_Jun_03_2057,stroop_task_switching2,2021.2.3,59.80950671884122,
condition/block_word,instruction/instr_word,instruction/i9,黄,white,j,square,word_single,单词,0.9215930958042953,,,,,,,,,,0,1,1,1,0,0,0,0,0,22,22,22,,,,,,,,,,,,,,,,,,,,,,,,,,,,,,,,,,,254.24637690000236,254.44645230000606,254.43140900001163,254.73105510004098,254.73105510004098,None,255.23120030004065,None,j,1,0.5366143999854103,255.23120030004065,None,None,None,255.79862800001865,None,,,,,,,,,,,,,,,,,,,,,11014,1,1,2024_Jun_03_2057,stroop_task_switching2,2021.2.3,59.80950671884122,
condition/block_word,instruction/instr_word,instruction/i9,黄,white,j,square,word_single,单词,0.9493525498837774,,,,,,,,,,0,1,1,1,0,0,0,0,0,23,23,23,,,,,,,,,,,,,,,,,,,,,,,,,,,,,,,,,,,256.7999355000211,257.001459799998,256.9836971000186,257.2843984000501,257.2843984000501,None,257.78513329999987,None,j,1,0.8631863000337034,257.78513329999987,None,None,None,258.66979270003503,None,,,,,,,,,,,,,,,,,,,,,11014,1,1,2024_Jun_03_2057,stroop_task_switching2,2021.2.3,59.80950671884122,
condition/block_word,instruction/instr_word,instruction/i9,,,,,,,,,,,,,,,,,0,1,1,1,0,0,0,0,,,,,,,,,,,,,,,,,,,,,,,,,,,,,,,,,,,,,,,,,,,,,,,,,,,,,,,,259.67116210004315,None,space,3.111604699981399,259.67116210004315,None,,,,,,,,,,,,,,,11014,1,1,2024_Jun_03_2057,stroop_task_switching2,2021.2.3,59.80950671884122,
condition/block_word,instruction/instr_word,instruction/i9,,,,,,,,,,,,,,,,,0,1,1,1,,,,,,,,,,,,,,,,,,,,,,,,,,,,,,,,,,,,,,,,,,,,,,,,,,,,,,,,,,,,,,,,,,,,,,,,,,,,,,,,11014,1,1,2024_Jun_03_2057,stroop_task_switching2,2021.2.3,59.80950671884122,
condition/block_mixed,instruction/instr_mixed,instruction/i10,蓝,red,d,diamond,color_mix,颜色,,incompatible,0,,,,,,,,0,2,2,2,0,0,0,0,0,0,0,0,,,,,,,,,,,,,,,,,,,,,262.82576630002586,None,space,26.367214999976568,262.82576630002586,None,290.2181608999963,291.2196304000099,291.2196304000099,292.2200807000045,292.2200807000045,None,289.2325308000436,290.2342995000072,293.2559996000491,293.4560401000199,293.4389998000115,293.7397061000229,293.7397061000229,None,294.2229642000166,None,d,1,0.8900333000347018,294.2229642000166,None,None,None,295.1415072000236,None,,,,,,,,,,,,,,,,,,,,,11014,1,1,2024_Jun_03_2057,stroop_task_switching2,2021.2.3,59.80950671884122,
condition/block_mixed,instruction/instr_mixed,instruction/i10,绿,yellow,j,diamond,color_mix,颜色,,incompatible,1,,,,,,,,0,2,2,2,0,0,0,0,0,1,1,1,,,,,,,,,,,,,,,,,,,,,,,,,,,,,,,,,,,296.14283310004976,296.34478990000207,296.32643380004447,296.62786190002225,296.62786190002225,None,297.1274810000323,None,j,1,1.1297555000055581,297.1274810000323,None,None,None,298.27958309999667,None,,,,,,,,,,,,,,,,,,,,,11014,1,1,2024_Jun_03_2057,stroop_task_switching2,2021.2.3,59.80950671884122,
condition/block_mixed,instruction/instr_mixed,instruction/i10,红,green,k,diamond,color_mix,颜色,,incompatible,1,,,,,,,,0,2,2,2,0,0,0,0,0,2,2,2,,,,,,,,,,,,,,,,,,,,,,,,,,,,,,,,,,,299.28095540002687,299.4817306000041,299.4644637000165,299.76481530000456,299.76481530000456,None,300.26559640001506,None,k,1,1.9362625000067055,300.26559640001506,None,None,None,302.2187299000216,None,,,,,,,,,,,,,,,,,,,,,11014,1,1,2024_Jun_03_2057,stroop_task_switching2,2021.2.3,59.80950671884122,
condition/block_mixed,instruction/instr_mixed,instruction/i10,蓝,red,d,diamond,color_mix,颜色,,incompatible,1,,,,,,,,0,2,2,2,0,0,0,0,0,3,3,3,,,,,,,,,,,,,,,,,,,,,,,,,,,,,,,,,,,303.22023810003884,303.42044489999535,303.40543280000566,303.7042008000426,303.7042008000426,None,304.20491500000935,None,d,1,0.5722808999707922,304.20491500000935,None,None,None,304.8059560999973,None,,,,,,,,,,,,,,,,,,,,,11014,1,1,2024_Jun_03_2057,stroop_task_switching2,2021.2.3,59.80950671884122,
condition/block_mixed,instruction/instr_mixed,instruction/i10,红,blue,f,diamond,color_mix,颜色,,incompatible,1,,,,,,,,0,2,2,2,0,0,0,0,0,4,4,4,,,,,,,,,,,,,,,,,,,,,,,,,,,,,,,,,,,305.80734010000015,306.00870760000544,305.9908072000253,306.29176300001564,306.29176300001564,None,306.7926849000505,None,f,1,0.7767996999900788,306.7926849000505,None,None,None,307.5932996000047,None,,,,,,,,,,,,,,,,,,,,,11014,1,1,2024_Jun_03_2057,stroop_task_switching2,2021.2.3,59.80950671884122,
condition/block_mixed,instruction/instr_mixed,instruction/i10,红,blue,d,square,color_mix,单词,,incompatible,2,,,,,,,,0,2,2,2,0,0,0,0,0,5,5,5,,,,,,,,,,,,,,,,,,,,,,,,,,,,,,,,,,,308.59517050004797,308.79673280002316,308.7785297000082,309.0802585000056,309.0802585000056,None,309.5796732000308,None,f,0,0.6300768000073731,309.5796732000308,None,None,None,310.2306602000026,None,,,,,,,,,,,,,,,,,,,,,11014,1,1,2024_Jun_03_2057,stroop_task_switching2,2021.2.3,59.80950671884122,
condition/block_mixed,instruction/instr_mixed,instruction/i10,红,yellow,j,diamond,color_mix,颜色,,incompatible,2,,,,,,,,0,2,2,2,0,0,0,0,0,6,6,6,,,,,,,,,,,,,,,,,,,,,,,,,,,,,,,,,,,311.23222050000913,311.43240430002334,311.4171361000044,311.71621750004124,311.71621750004124,None,312.2169897000422,None,j,1,0.736451999982819,312.2169897000422,None,None,None,312.9850210000295,None,,,,,,,,,,,,,,,,,,,,,11014,1,1,2024_Jun_03_2057,stroop_task_switching2,2021.2.3,59.80950671884122,
condition/block_mixed,instruction/instr_mixed,instruction/i10,红,yellow,d,square,color_mix,单词,,incompatible,2,,,,,,,,0,2,2,2,0,0,0,0,0,7,7,7,,,,,,,,,,,,,,,,,,,,,,,,,,,,,,,,,,,313.9863791000098,314.1869217000203,314.169854900043,314.4716245000018,314.4716245000018,None,314.9709918000153,None,d,1,1.2469551999820396,314.9709918000153,None,None,None,316.2396522000199,None,,,,,,,,,,,,,,,,,,,,,11014,1,1,2024_Jun_03_2057,stroop_task_switching2,2021.2.3,59.80950671884122,
condition/block_mixed,instruction/instr_mixed,instruction/i10,绿,blue,k,square,color_mix,单词,,incompatible,1,,,,,,,,0,2,2,2,0,0,0,0,0,8,8,8,,,,,,,,,,,,,,,,,,,,,,,,,,,,,,,,,,,317.24138280004263,317.44232870003907,317.4249386000447,317.7271573000471,317.7271573000471,None,318.2257956000394,None,k,1,0.8001994999940507,318.2257956000394,None,None,None,319.0440326000098,None,,,,,,,,,,,,,,,,,,,,,11014,1,1,2024_Jun_03_2057,stroop_task_switching2,2021.2.3,59.80950671884122,
condition/block_mixed,instruction/instr_mixed,instruction/i10,蓝,green,k,diamond,color_mix,颜色,,incompatible,2,,,,,,,,0,2,2,2,0,0,0,0,0,9,9,9,,,,,,,,,,,,,,,,,,,,,,,,,,,,,,,,,,,320.0454213000485,320.2471494000056,320.229080500023,320.52958600001875,320.52958600001875,None,321.0302012000466,None,k,1,0.8038046000292525,321.0302012000466,None,None,None,321.86608780000824,None,,,,,,,,,,,,,,,,,,,,,11014,1,1,2024_Jun_03_2057,stroop_task_switching2,2021.2.3,59.80950671884122,
condition/block_mixed,instruction/instr_mixed,instruction/i10,蓝,yellow,f,square,color_mix,单词,,incompatible,2,,,,,,,,0,2,2,2,0,0,0,0,0,10,10,10,,,,,,,,,,,,,,,,,,,,,,,,,,,,,,,,,,,322.8664453999954,323.06674630002817,323.05017850000877,323.35219780000625,323.35219780000625,None,323.8512391000404,None,f,1,0.6864984999992885,323.8512391000404,None,None,None,324.56898480001837,None,,,,,,,,,,,,,,,,,,,,,11014,1,1,2024_Jun_03_2057,stroop_task_switching2,2021.2.3,59.80950671884122,
condition/block_mixed,instruction/instr_mixed,instruction/i10,蓝,green,f,square,color_mix,单词,,incompatible,1,,,,,,,,0,2,2,2,0,0,0,0,0,11,11,11,,,,,,,,,,,,,,,,,,,,,,,,,,,,,,,,,,,325.57045490003657,325.772085900011,325.75412630004575,326.05463740002597,326.05463740002597,None,326.5553361000493,None,f,1,1.238854800001718,326.5553361000493,None,None,None,327.82393020001473,None,,,,,,,,,,,,,,,,,,,,,11014,1,1,2024_Jun_03_2057,stroop_task_switching2,2021.2.3,59.80950671884122,
condition/block_mixed,instruction/instr_mixed,instruction/i10,绿,yellow,k,square,color_mix,单词,,incompatible,1,,,,,,,,0,2,2,2,0,0,0,0,0,12,12,12,,,,,,,,,,,,,,,,,,,,,,,,,,,,,,,,,,,328.82560380001087,329.02728020003997,329.008991300012,329.310102700023,329.310102700023,None,329.8105559000396,None,k,1,1.0241248999955133,329.8105559000396,None,None,None,330.8616956000333,None,,,,,,,,,,,,,,,,,,,,,11014,1,1,2024_Jun_03_2057,stroop_task_switching2,2021.2.3,59.80950671884122,
condition/block_mixed,instruction/instr_mixed,instruction/i10,绿,blue,f,diamond,color_mix,颜色,,incompatible,2,,,,,,,,0,2,2,2,0,0,0,0,0,13,13,13,,,,,,,,,,,,,,,,,,,,,,,,,,,,,,,,,,,331.8635133000207,332.065701500047,332.0469100000337,332.3477662000223,332.3477662000223,None,332.84817770001246,None,f,1,0.8421369999996386,332.84817770001246,None,None,None,333.7163625000394,None,,,,,,,,,,,,,,,,,,,,,11014,1,1,2024_Jun_03_2057,stroop_task_switching2,2021.2.3,59.80950671884122,
condition/block_mixed,instruction/instr_mixed,instruction/i10,黄,red,j,square,color_mix,单词,,incompatible,2,,,,,,,,0,2,2,2,0,0,0,0,0,14,14,14,,,,,,,,,,,,,,,,,,,,,,,,,,,,,,,,,,,334.71752639999613,334.9189268000191,334.9012824000092,335.20299650001107,335.20299650001107,None,335.7023186000297,None,j,1,0.7076470000320114,335.7023186000297,None,None,None,336.4370827000239,None,,,,,,,,,,,,,,,,,,,,,11014,1,1,2024_Jun_03_2057,stroop_task_switching2,2021.2.3,59.80950671884122,
condition/block_mixed,instruction/instr_mixed,instruction/i10,蓝,yellow,j,diamond,color_mix,颜色,,incompatible,2,,,,,,,,0,2,2,2,0,0,0,0,0,15,15,15,,,,,,,,,,,,,,,,,,,,,,,,,,,,,,,,,,,337.4384679000359,337.63933620002354,337.6220714999945,337.92274390003877,337.92274390003877,None,338.4233823000104,None,j,1,2.78706040000543,338.4233823000104,None,None,None,341.22737450001296,None,,,,,,,,,,,,,,,,,,,,,11014,1,1,2024_Jun_03_2057,stroop_task_switching2,2021.2.3,59.80950671884122,
condition/block_mixed,instruction/instr_mixed,instruction/i10,黄,red,d,diamond,color_mix,颜色,,incompatible,1,,,,,,,,0,2,2,2,0,0,0,0,0,16,16,16,,,,,,,,,,,,,,,,,,,,,,,,,,,,,,,,,,,342.2292947000242,342.4302996000042,342.41264900000533,342.71310400002403,342.71310400002403,None,343.2137010000297,None,d,1,0.9086719000479206,343.2137010000297,None,None,None,344.1484597999952,None,,,,,,,,,,,,,,,,,,,,,11014,1,1,2024_Jun_03_2057,stroop_task_switching2,2021.2.3,59.80950671884122,
condition/block_mixed,instruction/instr_mixed,instruction/i10,绿,red,k,square,color_mix,单词,,incompatible,2,,,,,,,,0,2,2,2,0,0,0,0,0,17,17,17,,,,,,,,,,,,,,,,,,,,,,,,,,,,,,,,,,,345.15008930000477,345.3512308000354,345.3336118000443,345.6351180000347,345.6351180000347,None,346.1346623999998,None,k,1,0.6840420999797061,346.1346623999998,None,None,None,346.8356573000201,None,,,,,,,,,,,,,,,,,,,,,11014,1,1,2024_Jun_03_2057,stroop_task_switching2,2021.2.3,59.80950671884122,
condition/block_mixed,instruction/instr_mixed,instruction/i10,红,green,d,square,color_mix,单词,,incompatible,1,,,,,,,,0,2,2,2,0,0,0,0,0,18,18,18,,,,,,,,,,,,,,,,,,,,,,,,,,,,,,,,,,,347.8373285999987,348.03830770001514,348.0209268000326,348.3217257000506,348.3217257000506,None,348.8224400000181,None,d,1,0.6600429000100121,348.8224400000181,None,None,None,349.5065828000079,None,,,,,,,,,,,,,,,,,,,,,11014,1,1,2024_Jun_03_2057,stroop_task_switching2,2021.2.3,59.80950671884122,
condition/block_mixed,instruction/instr_mixed,instruction/i10,黄,blue,f,diamond,color_mix,颜色,,incompatible,2,,,,,,,,0,2,2,2,0,0,0,0,0,19,19,19,,,,,,,,,,,,,,,,,,,,,,,,,,,,,,,,,,,350.5096036000177,350.70816300000297,350.69318800000474,350.99272740003653,350.99272740003653,None,351.49279280001065,None,f,1,1.5899272999959067,351.49279280001065,None,None,None,353.1120852000313,None,,,,,,,,,,,,,,,,,,,,,11014,1,1,2024_Jun_03_2057,stroop_task_switching2,2021.2.3,59.80950671884122,
condition/block_mixed,instruction/instr_mixed,instruction/i10,黄,green,k,diamond,color_mix,颜色,,incompatible,1,,,,,,,,0,2,2,2,0,0,0,0,0,20,20,20,,,,,,,,,,,,,,,,,,,,,,,,,,,,,,,,,,,354.11365340003977,354.31657280004583,354.2980576000409,354.59845200000564,354.59845200000564,None,355.09810810000636,None,k,1,0.800793899979908,355.09810810000636,None,None,None,355.916103800002,None,,,,,,,,,,,,,,,,,,,,,11014,1,1,2024_Jun_03_2057,stroop_task_switching2,2021.2.3,59.80950671884122,
condition/block_mixed,instruction/instr_mixed,instruction/i10,黄,green,j,square,color_mix,单词,,incompatible,2,,,,,,,,0,2,2,2,0,0,0,0,0,21,21,21,,,,,,,,,,,,,,,,,,,,,,,,,,,,,,,,,,,356.9176350000198,357.11991100001615,357.10144540003967,357.4026239000377,357.4026239000377,None,357.90283340000315,None,j,1,0.9080724999657832,357.90283340000315,None,None,None,358.8373880000436,None,,,,,,,,,,,,,,,,,,,,,11014,1,1,2024_Jun_03_2057,stroop_task_switching2,2021.2.3,59.80950671884122,
condition/block_mixed,instruction/instr_mixed,instruction/i10,黄,blue,j,square,color_mix,单词,,incompatible,1,,,,,,,,0,2,2,2,0,0,0,0,0,22,22,22,,,,,,,,,,,,,,,,,,,,,,,,,,,,,,,,,,,359.83897660003277,360.03903960000025,360.0224186000414,360.32358369999565,360.32358369999565,None,360.82355500000995,None,j,1,2.483562699984759,360.82355500000995,None,None,None,363.3277532000211,None,,,,,,,,,,,,,,,,,,,,,11014,1,1,2024_Jun_03_2057,stroop_task_switching2,2021.2.3,59.80950671884122,
condition/block_mixed,instruction/instr_mixed,instruction/i10,蓝,red,f,square,color_mix,单词,,incompatible,1,,,,,,,,0,2,2,2,0,0,0,0,0,23,23,23,,,,,,,,,,,,,,,,,,,,,,,,,,,,,,,,,,,364.32915689999936,364.5294236000045,364.51244150003185,364.8127300000051,364.8127300000051,None,365.3137295000488,None,f,1,1.2983305000234395,365.3137295000488,None,None,None,366.6327385000186,None,,,,,,,,,,,,,,,,,,,,,11014,1,1,2024_Jun_03_2057,stroop_task_switching2,2021.2.3,59.80950671884122,
condition/block_mixed,instruction/instr_mixed,instruction/i10,绿,red,d,diamond,color_mix,颜色,,incompatible,2,,,,,,,,0,2,2,2,0,0,0,0,0,24,24,24,,,,,,,,,,,,,,,,,,,,,,,,,,,,,,,,,,,367.6340962999966,367.8346252000192,367.8177191000432,368.11795400001574,368.11795400001574,None,368.61898450000444,None,d,1,0.7763413999928162,368.61898450000444,None,None,None,369.4201241999981,None,,,,,,,,,,,,,,,,,,,,,11014,1,1,2024_Jun_03_2057,stroop_task_switching2,2021.2.3,59.80950671884122,
condition/block_mixed,instruction/instr_mixed,instruction/i10,绿,green,k,diamond,color_mix,颜色,,compatible,1,,,,,,,,0,2,2,2,0,0,0,0,0,25,25,25,,,,,,,,,,,,,,,,,,,,,,,,,,,,,,,,,,,370.42155670002103,370.62205970002105,370.6074765000376,370.9229750999948,370.9055268000229,None,371.4066679000389,None,k,1,0.8049242999986745,371.4066679000389,None,None,None,372.24077160004526,None,,,,,,,,,,,,,,,,,,,,,11014,1,1,2024_Jun_03_2057,stroop_task_switching2,2021.2.3,59.80950671884122,
condition/block_mixed,instruction/instr_mixed,instruction/i10,蓝,blue,f,diamond,color_mix,颜色,,compatible,1,,,,,,,,0,2,2,2,0,0,0,0,0,26,26,26,,,,,,,,,,,,,,,,,,,,,,,,,,,,,,,,,,,373.2424137000344,373.44266560004326,373.41064800001914,373.71031570003834,373.72780320001766,None,374.2273620000342,None,f,1,0.6958117000176571,374.2273620000342,None,None,None,374.9449151000008,None,,,,,,,,,,,,,,,,,,,,,11014,1,1,2024_Jun_03_2057,stroop_task_switching2,2021.2.3,59.80950671884122,
condition/block_mixed,instruction/instr_mixed,instruction/i10,绿,green,k,square,color_mix,单词,,compatible,2,,,,,,,,0,2,2,2,0,0,0,0,0,27,27,27,,,,,,,,,,,,,,,,,,,,,,,,,,,,,,,,,,,375.94639230001485,376.14768090000143,376.1300788000226,376.43048239999916,376.43048239999916,None,376.93168170005083,None,k,1,0.6877636999706738,376.93168170005083,None,None,None,377.6489320000401,None,,,,,,,,,,,,,,,,,,,,,11014,1,1,2024_Jun_03_2057,stroop_task_switching2,2021.2.3,59.80950671884122,
condition/block_mixed,instruction/instr_mixed,instruction/i10,绿,green,k,square,color_mix,单词,,compatible,1,,,,,,,,0,2,2,2,0,0,0,0,0,28,28,28,,,,,,,,,,,,,,,,,,,,,,,,,,,,,,,,,,,378.65063680004096,378.8508393000229,378.8363849000307,379.13447500002803,379.13447500002803,None,379.6356029000017,None,k,1,1.2476307000033557,379.6356029000017,None,None,None,380.9039297000272,None,,,,,,,,,,,,,,,,,,,,,11014,1,1,2024_Jun_03_2057,stroop_task_switching2,2021.2.3,59.80950671884122,
condition/block_mixed,instruction/instr_mixed,instruction/i10,蓝,blue,f,square,color_mix,单词,,compatible,1,,,,,,,,0,2,2,2,0,0,0,0,0,29,29,29,,,,,,,,,,,,,,,,,,,,,,,,,,,,,,,,,,,381.9056656000321,382.10698270000285,382.0889568999992,382.38954390003346,382.38954390003346,None,382.8902284000069,None,f,1,1.1933201999636367,382.8902284000069,None,None,None,384.1086772000417,None,,,,,,,,,,,,,,,,,,,,,11014,1,1,2024_Jun_03_2057,stroop_task_switching2,2021.2.3,59.80950671884122,
condition/block_mixed,instruction/instr_mixed,instruction/i10,黄,yellow,j,diamond,color_mix,颜色,,compatible,2,,,,,,,,0,2,2,2,0,0,0,0,0,30,30,30,,,,,,,,,,,,,,,,,,,,,,,,,,,,,,,,,,,385.11022580001736,385.31128150003497,385.29386510001495,385.5942592000356,385.5942592000356,None,386.0949078000267,None,j,1,0.6927180999773555,386.0949078000267,None,None,None,386.8128861000296,None,,,,,,,,,,,,,,,,,,,,,11014,1,1,2024_Jun_03_2057,stroop_task_switching2,2021.2.3,59.80950671884122,
condition/block_mixed,instruction/instr_mixed,instruction/i10,绿,green,k,square,color_mix,单词,,compatible,2,,,,,,,,0,2,2,2,0,0,0,0,0,31,31,31,,,,,,,,,,,,,,,,,,,,,,,,,,,,,,,,,,,387.8145427000127,388.0151274999953,387.99781420000363,388.29935040004784,388.29935040004784,None,388.7994789000368,None,k,1,0.8199941000202671,388.7994789000368,None,None,None,389.65030310000293,None,,,,,,,,,,,,,,,,,,,,,11014,1,1,2024_Jun_03_2057,stroop_task_switching2,2021.2.3,59.80950671884122,
condition/block_mixed,instruction/instr_mixed,instruction/i10,黄,yellow,j,square,color_mix,单词,,compatible,1,,,,,,,,0,2,2,2,0,0,0,0,0,32,32,32,,,,,,,,,,,,,,,,,,,,,,,,,,,,,,,,,,,390.65195010002935,390.853172800038,390.83560099999886,391.1360298000509,391.1360298000509,None,391.63665990001755,None,j,1,0.7509649999556132,391.63665990001755,None,None,None,392.40456870000344,None,,,,,,,,,,,,,,,,,,,,,11014,1,1,2024_Jun_03_2057,stroop_task_switching2,2021.2.3,59.80950671884122,
condition/block_mixed,instruction/instr_mixed,instruction/i10,绿,green,k,diamond,color_mix,颜色,,compatible,2,,,,,,,,0,2,2,2,0,0,0,0,0,33,33,33,,,,,,,,,,,,,,,,,,,,,,,,,,,,,,,,,,,393.4061677000136,393.6065368000418,393.59010860003764,393.89056490000803,393.89056490000803,None,394.3920115000219,None,k,1,0.6034907000139356,394.3920115000219,None,None,None,395.02523369999835,None,,,,,,,,,,,,,,,,,,,,,11014,1,1,2024_Jun_03_2057,stroop_task_switching2,2021.2.3,59.80950671884122,
condition/block_mixed,instruction/instr_mixed,instruction/i10,红,red,d,square,color_mix,单词,,compatible,2,,,,,,,,0,2,2,2,0,0,0,0,0,34,34,34,,,,,,,,,,,,,,,,,,,,,,,,,,,,,,,,,,,396.02665970003,396.2269751999993,396.21020110003883,396.51255119999405,396.51255119999405,None,397.0115568000474,None,d,1,0.6643481000210159,397.0115568000474,None,None,None,397.69581659999676,None,,,,,,,,,,,,,,,,,,,,,11014,1,1,2024_Jun_03_2057,stroop_task_switching2,2021.2.3,59.80950671884122,
condition/block_mixed,instruction/instr_mixed,instruction/i10,黄,yellow,j,square,color_mix,单词,,compatible,1,,,,,,,,0,2,2,2,0,0,0,0,0,35,35,35,,,,,,,,,,,,,,,,,,,,,,,,,,,,,,,,,,,398.69762000004994,398.8980756000383,398.88354559999425,399.19806340005016,399.18247590004466,None,399.68203090003226,None,j,1,0.8178335000411607,399.68203090003226,None,None,None,400.5168239000486,None,,,,,,,,,,,,,,,,,,,,,11014,1,1,2024_Jun_03_2057,stroop_task_switching2,2021.2.3,59.80950671884122,
condition/block_mixed,instruction/instr_mixed,instruction/i10,绿,green,k,diamond,color_mix,颜色,,compatible,2,,,,,,,,0,2,2,2,0,0,0,0,0,36,36,36,,,,,,,,,,,,,,,,,,,,,,,,,,,,,,,,,,,401.51818650000496,401.71894630003953,401.7030451000319,402.00451440003235,402.00451440003235,None,402.5036090000067,None,k,1,0.6361776000121608,402.5036090000067,None,None,None,403.1709271,None,,,,,,,,,,,,,,,,,,,,,11014,1,1,2024_Jun_03_2057,stroop_task_switching2,2021.2.3,59.80950671884122,
condition/block_mixed,instruction/instr_mixed,instruction/i10,蓝,blue,f,square,color_mix,单词,,compatible,2,,,,,,,,0,2,2,2,0,0,0,0,0,37,37,37,,,,,,,,,,,,,,,,,,,,,,,,,,,,,,,,,,,404.17233640002087,404.3731582000037,404.3582270000479,404.6562901000143,404.6562901000143,None,405.159026600013,None,f,1,0.7407571999938227,405.159026600013,None,None,None,405.9252553000115,None,,,,,,,,,,,,,,,,,,,,,11014,1,1,2024_Jun_03_2057,stroop_task_switching2,2021.2.3,59.80950671884122,
condition/block_mixed,instruction/instr_mixed,instruction/i10,红,red,d,square,color_mix,单词,,compatible,1,,,,,,,,0,2,2,2,0,0,0,0,0,38,38,38,,,,,,,,,,,,,,,,,,,,,,,,,,,,,,,,,,,406.92704090004554,407.1271462000441,407.11056760000065,407.41051210003207,407.41051210003207,None,407.91146740003023,None,d,1,0.5007856999873184,407.91146740003023,None,None,None,408.4293871000409,None,,,,,,,,,,,,,,,,,,,,,11014,1,1,2024_Jun_03_2057,stroop_task_switching2,2021.2.3,59.80950671884122,
condition/block_mixed,instruction/instr_mixed,instruction/i10,黄,yellow,j,diamond,color_mix,颜色,,compatible,2,,,,,,,,0,2,2,2,0,0,0,0,0,39,39,39,,,,,,,,,,,,,,,,,,,,,,,,,,,,,,,,,,,409.43053630000213,409.6305080000311,409.6139325000113,409.91478089999873,409.91478089999873,None,410.41516269999556,None,j,1,0.5647812999668531,410.41516269999556,None,None,None,410.9993794000475,None,,,,,,,,,,,,,,,,,,,,,11014,1,1,2024_Jun_03_2057,stroop_task_switching2,2021.2.3,59.80950671884122,
condition/block_mixed,instruction/instr_mixed,instruction/i10,黄,yellow,j,square,color_mix,单词,,compatible,2,,,,,,,,0,2,2,2,0,0,0,0,0,40,40,40,,,,,,,,,,,,,,,,,,,,,,,,,,,,,,,,,,,412.001153899997,412.2015250000404,412.18472220003605,412.4859861000441,412.4859861000441,None,412.98613910004497,None,j,1,1.1461519000004046,412.98613910004497,None,None,None,414.15419510001084,None,,,,,,,,,,,,,,,,,,,,,11014,1,1,2024_Jun_03_2057,stroop_task_switching2,2021.2.3,59.80950671884122,
condition/block_mixed,instruction/instr_mixed,instruction/i10,蓝,blue,f,square,color_mix,单词,,compatible,1,,,,,,,,0,2,2,2,0,0,0,0,0,41,41,41,,,,,,,,,,,,,,,,,,,,,,,,,,,,,,,,,,,415.15573729999596,415.3569065000047,415.3391988000367,415.64129630004754,415.64129630004754,None,416.14154700003564,None,f,1,0.6711000999785028,416.14154700003564,None,None,None,416.84193700004835,None,,,,,,,,,,,,,,,,,,,,,11014,1,1,2024_Jun_03_2057,stroop_task_switching2,2021.2.3,59.80950671884122,
condition/block_mixed,instruction/instr_mixed,instruction/i10,蓝,blue,f,diamond,color_mix,颜色,,compatible,2,,,,,,,,0,2,2,2,0,0,0,0,0,42,42,42,,,,,,,,,,,,,,,,,,,,,,,,,,,,,,,,,,,417.8428496000124,418.0436223000288,418.0277678000275,418.3282344000181,418.3282344000181,None,418.82767389999935,None,f,1,0.7451386000029743,418.82767389999935,None,None,None,419.59610840003006,None,,,,,,,,,,,,,,,,,,,,,11014,1,1,2024_Jun_03_2057,stroop_task_switching2,2021.2.3,59.80950671884122,
condition/block_mixed,instruction/instr_mixed,instruction/i10,黄,yellow,j,diamond,color_mix,颜色,,compatible,1,,,,,,,,0,2,2,2,0,0,0,0,0,43,43,43,,,,,,,,,,,,,,,,,,,,,,,,,,,,,,,,,,,420.59713629999897,420.79867230000673,420.78073610004503,421.0836410000338,421.0836410000338,None,421.5818153000437,None,j,1,0.7266816000337712,421.5818153000437,None,None,None,422.3331586000277,None,,,,,,,,,,,,,,,,,,,,,11014,1,1,2024_Jun_03_2057,stroop_task_switching2,2021.2.3,59.80950671884122,
condition/block_mixed,instruction/instr_mixed,instruction/i10,红,red,d,diamond,color_mix,颜色,,compatible,1,,,,,,,,0,2,2,2,0,0,0,0,0,44,44,44,,,,,,,,,,,,,,,,,,,,,,,,,,,,,,,,,,,423.33441090001725,423.53577499999665,423.5180328999995,423.8186711000162,423.8186711000162,None,424.3194204000174,None,d,1,0.5012690000003204,424.3194204000174,None,None,None,424.8367164999945,None,,,,,,,,,,,,,,,,,,,,,11014,1,1,2024_Jun_03_2057,stroop_task_switching2,2021.2.3,59.80950671884122,
condition/block_mixed,instruction/instr_mixed,instruction/i10,蓝,blue,f,diamond,color_mix,颜色,,compatible,1,,,,,,,,0,2,2,2,0,0,0,0,0,45,45,45,,,,,,,,,,,,,,,,,,,,,,,,,,,,,,,,,,,425.83857100002933,426.03954180004075,426.02193370001623,426.32434570003534,426.32434570003534,None,426.82306190003874,None,f,1,0.6855230999644846,426.82306190003874,None,None,None,427.5243814000278,None,,,,,,,,,,,,,,,,,,,,,11014,1,1,2024_Jun_03_2057,stroop_task_switching2,2021.2.3,59.80950671884122,
condition/block_mixed,instruction/instr_mixed,instruction/i10,红,red,d,diamond,color_mix,颜色,,compatible,1,,,,,,,,0,2,2,2,0,0,0,0,0,46,46,46,,,,,,,,,,,,,,,,,,,,,,,,,,,,,,,,,,,428.5258429000387,428.72684850002406,428.7093296000385,429.0097574000247,429.0097574000247,None,429.51061150000896,None,d,1,0.6543267999659292,429.51061150000896,None,None,None,430.1950665000477,None,,,,,,,,,,,,,,,,,,,,,11014,1,1,2024_Jun_03_2057,stroop_task_switching2,2021.2.3,59.80950671884122,
condition/block_mixed,instruction/instr_mixed,instruction/i10,红,red,d,square,color_mix,单词,,compatible,2,,,,,,,,0,2,2,2,0,0,0,0,0,47,47,47,,,,,,,,,,,,,,,,,,,,,,,,,,,,,,,,,,,431.1967238000361,431.39659890002804,431.3804472000338,431.68103920004796,431.68103920004796,None,432.1812975000357,None,d,1,0.5036920999991708,432.1812975000357,None,None,None,432.7153550000512,None,,,,,,,,,,,,,,,,,,,,,11014,1,1,2024_Jun_03_2057,stroop_task_switching2,2021.2.3,59.80950671884122,
condition/block_mixed,instruction/instr_mixed,instruction/i10,红,red,d,diamond,color_mix,颜色,,compatible,2,,,,,,,,0,2,2,2,0,0,0,0,0,48,48,48,,,,,,,,,,,,,,,,,,,,,,,,,,,,,,,,,,,433.71685890003573,433.91786800004775,433.9005692000501,434.20194040000206,434.20194040000206,None,434.7032060000347,None,d,1,0.42162920004921034,434.7032060000347,None,None,None,435.15239330002805,None,,,,,,,,,,,,,,,,,,,,,11014,1,1,2024_Jun_03_2057,stroop_task_switching2,2021.2.3,59.80950671884122,
condition/block_mixed,instruction/instr_mixed,instruction/i10,,,,,,,,,,,,,,,,,0,2,2,2,0,0,0,0,,,,,,,,,,,,,,,,,,,,,,,,,,,,,,,,,,,,,,,,,,,,,,,,,,,,,,,,436.15359330002684,None,space,19.019805099989753,436.15359330002684,None,,,,,,,,,,,,,,,11014,1,1,2024_Jun_03_2057,stroop_task_switching2,2021.2.3,59.80950671884122,
condition/block_mixed,instruction/instr_mixed,instruction/i10,,,,,,,,,,,,,,,,,0,2,2,2,,,,,,,,,,,,,,,,,,,,,,,,,,,,,,,,,,,,,,,,,,,,,,,,,,,,,,,,,,,,,,,,,,,,,,,,,,,,,,,,11014,1,1,2024_Jun_03_2057,stroop_task_switching2,2021.2.3,59.80950671884122,
,,,红,red,d,square,color_mix,单词,,compatible,0,block_switch1,instruction/ready_test.png,instruction/i11.png,,,,,,,,,,,,,,,,,0,0,0,0,0,0,0,0,,,,,,,,,,,,,,,,,,,460.0230403000023,461.0248272000463,461.0248272000463,462.0273812999949,462.0273812999949,None,459.03849679999985,460.0408513000002,463.04420770000434,463.2455323000322,463.2455323000322,463.5453359000385,463.5453359000385,None,464.0461117000086,None,d,1,0.6555635000113398,464.0461117000086,None,None,None,,,,,,,,,455.232611000014,None,space,3.7890018000034615,455.232611000014,None,,,,,,,,,11014,1,1,2024_Jun_03_2057,stroop_task_switching2,2021.2.3,59.80950671884122,
,,,绿,green,k,diamond,color_mix,颜色,,compatible,2,block_switch1,instruction/ready_test.png,instruction/i11.png,,,,,,,,,,,,,,,,,0,0,0,0,0,1,1,1,,,,,,,,,,,,,,,,,,,,,,,,,,,464.73086010001134,464.93065090000164,464.9139384000446,465.2148037000443,465.2148037000443,None,465.715313600027,None,k,1,0.7704615000402555,465.715313600027,None,None,None,,,,,,,,,,,,,,,,,,,,,,,11014,1,1,2024_Jun_03_2057,stroop_task_switching2,2021.2.3,59.80950671884122,
,,,绿,yellow,j,diamond,color_mix,颜色,,incompatible,1,block_switch1,instruction/ready_test.png,instruction/i11.png,,,,,,,,,,,,,,,,,0,0,0,0,0,2,2,2,,,,,,,,,,,,,,,,,,,,,,,,,,,466.5165226000245,466.7171076000086,466.70003410003847,467.002832600032,467.002832600032,None,467.5178747000173,None,j,1,0.5682193000102416,467.5178747000173,None,None,None,,,,,,,,,,,,,,,,,,,,,,,11014,1,1,2024_Jun_03_2057,stroop_task_switching2,2021.2.3,59.80950671884122,
,,,蓝,blue,f,diamond,color_mix,颜色,,compatible,1,block_switch1,instruction/ready_test.png,instruction/i11.png,,,,,,,,,,,,,,,,,0,0,0,0,0,3,3,3,,,,,,,,,,,,,,,,,,,,,,,,,,,468.10230130003765,468.30228480004007,468.28692939999746,468.58682510000654,468.58682510000654,None,469.0871817000443,None,f,1,0.5106061000260524,469.0871817000443,None,None,None,,,,,,,,,,,,,,,,,,,,,,,11014,1,1,2024_Jun_03_2057,stroop_task_switching2,2021.2.3,59.80950671884122,
,,,绿,green,k,square,color_mix,单词,,compatible,2,block_switch1,instruction/ready_test.png,instruction/i11.png,,,,,,,,,,,,,,,,,0,0,0,0,0,4,4,4,,,,,,,,,,,,,,,,,,,,,,,,,,,469.62104500003625,469.82185930002015,469.8046174000483,470.1050286000245,470.1050286000245,None,470.6059296000167,None,k,1,0.6559287999989465,470.6059296000167,None,None,None,,,,,,,,,,,,,,,,,,,,,,,11014,1,1,2024_Jun_03_2057,stroop_task_switching2,2021.2.3,59.80950671884122,
,,,绿,blue,f,diamond,color_mix,颜色,,incompatible,2,block_switch1,instruction/ready_test.png,instruction/i11.png,,,,,,,,,,,,,,,,,0,0,0,0,0,5,5,5,,,,,,,,,,,,,,,,,,,,,,,,,,,471.29021470004227,471.4913176000118,471.47380700003123,471.77447820000816,471.77447820000816,None,472.275124900043,None,f,1,0.6428214000188746,472.275124900043,None,None,None,,,,,,,,,,,,,,,,,,,,,,,11014,1,1,2024_Jun_03_2057,stroop_task_switching2,2021.2.3,59.80950671884122,
,,,黄,red,j,square,color_mix,单词,,incompatible,2,block_switch1,instruction/ready_test.png,instruction/i11.png,,,,,,,,,,,,,,,,,0,0,0,0,0,6,6,6,,,,,,,,,,,,,,,,,,,,,,,,,,,472.9426916000084,473.1429504000116,473.12776380003197,473.44326480000746,473.4267513999948,None,473.9278513000463,None,j,1,1.0222497000358999,473.9278513000463,None,None,None,,,,,,,,,,,,,,,,,,,,,,,11014,1,1,2024_Jun_03_2057,stroop_task_switching2,2021.2.3,59.80950671884122,
,,,绿,green,k,square,color_mix,单词,,compatible,1,block_switch1,instruction/ready_test.png,instruction/i11.png,,,,,,,,,,,,,,,,,0,0,0,0,0,7,7,7,,,,,,,,,,,,,,,,,,,,,,,,,,,474.9790680000442,475.1794384000241,475.16316490003373,475.4631750000408,475.4631750000408,None,475.9640518000233,None,k,1,0.6183040000032634,475.9640518000233,None,None,None,,,,,,,,,,,,,,,,,,,,,,,11014,1,1,2024_Jun_03_2057,stroop_task_switching2,2021.2.3,59.80950671884122,
,,,蓝,blue,f,square,color_mix,单词,,compatible,1,block_switch1,instruction/ready_test.png,instruction/i11.png,,,,,,,,,,,,,,,,,0,0,0,0,0,8,8,8,,,,,,,,,,,,,,,,,,,,,,,,,,,476.59825969999656,476.7984198000049,476.78193660004763,477.08380880003097,477.08380880003097,None,477.5830172999995,None,f,1,0.5835037999786437,477.5830172999995,None,None,None,,,,,,,,,,,,,,,,,,,,,,,11014,1,1,2024_Jun_03_2057,stroop_task_switching2,2021.2.3,59.80950671884122,
,,,红,red,d,diamond,color_mix,颜色,,compatible,2,block_switch1,instruction/ready_test.png,instruction/i11.png,,,,,,,,,,,,,,,,,0,0,0,0,0,9,9,9,,,,,,,,,,,,,,,,,,,,,,,,,,,478.18390850001015,478.38630830001784,478.3672938999953,478.66867060004734,478.66867060004734,None,479.1693941000267,None,d,1,0.4927070999983698,479.1693941000267,None,None,None,,,,,,,,,,,,,,,,,,,,,,,11014,1,1,2024_Jun_03_2057,stroop_task_switching2,2021.2.3,59.80950671884122,
,,,黄,yellow,j,diamond,color_mix,颜色,,compatible,1,block_switch1,instruction/ready_test.png,instruction/i11.png,,,,,,,,,,,,,,,,,0,0,0,0,0,10,10,10,,,,,,,,,,,,,,,,,,,,,,,,,,,479.68599620001623,479.88648710004054,479.8699199000257,480.1707677000086,480.1707677000086,None,480.67109350004466,None,j,1,0.495288000034634,480.67109350004466,None,None,None,,,,,,,,,,,,,,,,,,,,,,,11014,1,1,2024_Jun_03_2057,stroop_task_switching2,2021.2.3,59.80950671884122,
,,,绿,green,k,square,color_mix,单词,,compatible,2,block_switch1,instruction/ready_test.png,instruction/i11.png,,,,,,,,,,,,,,,,,0,0,0,0,0,11,11,11,,,,,,,,,,,,,,,,,,,,,,,,,,,481.18841080000857,481.38919930002885,481.37224810000043,481.6737464000471,481.6737464000471,None,482.1733193999971,None,k,1,0.7207219999982044,482.1733193999971,None,None,None,,,,,,,,,,,,,,,,,,,,,,,11014,1,1,2024_Jun_03_2057,stroop_task_switching2,2021.2.3,59.80950671884122,
,,,红,red,d,diamond,color_mix,颜色,,compatible,2,block_switch1,instruction/ready_test.png,instruction/i11.png,,,,,,,,,,,,,,,,,0,0,0,0,0,12,12,12,,,,,,,,,,,,,,,,,,,,,,,,,,,482.924822400033,483.1253948000376,483.1083934000344,483.4093188000261,483.4093188000261,None,483.90943120000884,None,d,1,0.505123500013724,483.90943120000884,None,None,None,,,,,,,,,,,,,,,,,,,,,,,11014,1,1,2024_Jun_03_2057,stroop_task_switching2,2021.2.3,59.80950671884122,
,,,红,red,d,diamond,color_mix,颜色,,compatible,1,block_switch1,instruction/ready_test.png,instruction/i11.png,,,,,,,,,,,,,,,,,0,0,0,0,0,13,13,13,,,,,,,,,,,,,,,,,,,,,,,,,,,484.44333030004054,484.64555930002825,484.62730100000044,484.9275036000181,484.9275036000181,None,485.42838060000213,None,d,1,0.514373300014995,485.42838060000213,None,None,None,,,,,,,,,,,,,,,,,,,,,,,11014,1,1,2024_Jun_03_2057,stroop_task_switching2,2021.2.3,59.80950671884122,
,,,黄,yellow,j,square,color_mix,单词,,compatible,2,block_switch1,instruction/ready_test.png,instruction/i11.png,,,,,,,,,,,,,,,,,0,0,0,0,0,14,14,14,,,,,,,,,,,,,,,,,,,,,,,,,,,485.9622250000248,486.16519040003186,486.145957300032,486.44814600003883,486.44814600003883,None,486.9472036000225,None,j,1,0.5471386999706738,486.9472036000225,None,None,None,,,,,,,,,,,,,,,,,,,,,,,11014,1,1,2024_Jun_03_2057,stroop_task_switching2,2021.2.3,59.80950671884122,
,,,红,green,k,diamond,color_mix,颜色,,incompatible,2,block_switch1,instruction/ready_test.png,instruction/i11.png,,,,,,,,,,,,,,,,,0,0,0,0,0,15,15,15,,,,,,,,,,,,,,,,,,,,,,,,,,,487.51471210003365,487.714772300038,487.6992193000042,488.00053310004296,488.00053310004296,None,488.49971430003643,None,k,1,1.27484640001785,488.49971430003643,None,None,None,,,,,,,,,,,,,,,,,,,,,,,11014,1,1,2024_Jun_03_2057,stroop_task_switching2,2021.2.3,59.80950671884122,
,,,蓝,red,d,diamond,color_mix,颜色,,incompatible,1,block_switch1,instruction/ready_test.png,instruction/i11.png,,,,,,,,,,,,,,,,,0,0,0,0,0,16,16,16,,,,,,,,,,,,,,,,,,,,,,,,,,,489.8013981000404,490.00216130004264,489.98499820003053,490.28555590001633,490.28555590001633,None,490.7872031000443,None,d,1,1.4514293000102043,490.7872031000443,None,None,None,,,,,,,,,,,,,,,,,,,,,,,11014,1,1,2024_Jun_03_2057,stroop_task_switching2,2021.2.3,59.80950671884122,
,,,黄,green,k,diamond,color_mix,颜色,,incompatible,1,block_switch1,instruction/ready_test.png,instruction/i11.png,,,,,,,,,,,,,,,,,0,0,0,0,0,17,17,17,,,,,,,,,,,,,,,,,,,,,,,,,,,492.25529130001087,492.45558200002415,492.4403287000023,492.74040420004167,492.74040420004167,None,493.23977840004954,None,j,0,1.0309705000254326,493.23977840004954,None,None,None,,,,,,,,,,,,,,,,,,,,,,,11014,1,1,2024_Jun_03_2057,stroop_task_switching2,2021.2.3,59.80950671884122,
,,,绿,green,k,diamond,color_mix,颜色,,compatible,1,block_switch1,instruction/ready_test.png,instruction/i11.png,,,,,,,,,,,,,,,,,0,0,0,0,0,18,18,18,,,,,,,,,,,,,,,,,,,,,,,,,,,494.2918595999945,494.4933668000158,494.4751809000154,494.776593000046,494.776593000046,None,495.2764423000044,None,k,1,1.242128900019452,495.2764423000044,None,None,None,,,,,,,,,,,,,,,,,,,,,,,11014,1,1,2024_Jun_03_2057,stroop_task_switching2,2021.2.3,59.80950671884122,
,,,黄,red,d,diamond,color_mix,颜色,,incompatible,1,block_switch1,instruction/ready_test.png,instruction/i11.png,,,,,,,,,,,,,,,,,0,0,0,0,0,19,19,19,,,,,,,,,,,,,,,,,,,,,,,,,,,496.54515310004354,496.745201600017,496.72862569999415,497.02896399999736,497.02896399999736,None,497.5297300000093,None,d,1,0.9249121999600902,497.5297300000093,None,None,None,,,,,,,,,,,,,,,,,,,,,,,11014,1,1,2024_Jun_03_2057,stroop_task_switching2,2021.2.3,59.80950671884122,
,,,绿,yellow,k,square,color_mix,单词,,incompatible,2,block_switch1,instruction/ready_test.png,instruction/i11.png,,,,,,,,,,,,,,,,,0,0,0,0,0,20,20,20,,,,,,,,,,,,,,,,,,,,,,,,,,,498.4812171999947,498.6816535000107,498.6658845000202,498.96715640003094,498.96715640003094,None,499.465875599999,None,k,1,2.540991900023073,499.465875599999,None,None,None,,,,,,,,,,,,,,,,,,,,,,,11014,1,1,2024_Jun_03_2057,stroop_task_switching2,2021.2.3,59.80950671884122,
,,,绿,yellow,j,diamond,color_mix,颜色,,incompatible,2,block_switch1,instruction/ready_test.png,instruction/i11.png,,,,,,,,,,,,,,,,,0,0,0,0,0,21,21,21,,,,,,,,,,,,,,,,,,,,,,,,,,,502.0364582000184,502.23685710004065,502.2213504000101,502.52141230000416,502.52141230000416,None,503.0214052000083,None,j,1,0.8735777999972925,503.0214052000083,None,None,None,,,,,,,,,,,,,,,,,,,,,,,11014,1,1,2024_Jun_03_2057,stroop_task_switching2,2021.2.3,59.80950671884122,
,,,绿,green,k,square,color_mix,单词,,compatible,2,block_switch1,instruction/ready_test.png,instruction/i11.png,,,,,,,,,,,,,,,,,0,0,0,0,0,22,22,22,,,,,,,,,,,,,,,,,,,,,,,,,,,503.9230662000482,504.12421910004923,504.10668980004266,504.4069601999945,504.4069601999945,None,504.9075346000027,None,k,1,1.0432905000052415,504.9075346000027,None,None,None,,,,,,,,,,,,,,,,,,,,,,,11014,1,1,2024_Jun_03_2057,stroop_task_switching2,2021.2.3,59.80950671884122,
,,,红,red,d,square,color_mix,单词,,compatible,1,block_switch1,instruction/ready_test.png,instruction/i11.png,,,,,,,,,,,,,,,,,0,0,0,0,0,23,23,23,,,,,,,,,,,,,,,,,,,,,,,,,,,505.9758440000005,506.1769204000011,506.15954530000454,506.460699999996,506.460699999996,None,506.9605703999987,None,d,1,0.6545123999821953,506.9605703999987,None,None,None,,,,,,,,,,,,,,,,,,,,,,,11014,1,1,2024_Jun_03_2057,stroop_task_switching2,2021.2.3,59.80950671884122,
,,,黄,green,j,square,color_mix,单词,,incompatible,1,block_switch1,instruction/ready_test.png,instruction/i11.png,,,,,,,,,,,,,,,,,0,0,0,0,0,24,24,24,,,,,,,,,,,,,,,,,,,,,,,,,,,507.6450841000187,507.8454667000333,507.8295752000413,508.1301279000472,508.1301279000472,None,508.6296033000108,None,j,1,0.9935219999752007,508.6296033000108,None,None,None,,,,,,,,,,,,,,,,,,,,,,,11014,1,1,2024_Jun_03_2057,stroop_task_switching2,2021.2.3,59.80950671884122,
,,,红,blue,d,square,color_mix,单词,,incompatible,1,block_switch1,instruction/ready_test.png,instruction/i11.png,,,,,,,,,,,,,,,,,0,0,0,0,0,25,25,25,,,,,,,,,,,,,,,,,,,,,,,,,,,509.6480813000235,509.8492996999994,509.8316766000353,510.1322741000331,510.1322741000331,None,510.63284239999484,None,d,1,1.326156799972523,510.63284239999484,None,None,None,,,,,,,,,,,,,,,,,,,,,,,11014,1,1,2024_Jun_03_2057,stroop_task_switching2,2021.2.3,59.80950671884122,
,,,黄,yellow,j,square,color_mix,单词,,compatible,1,block_switch1,instruction/ready_test.png,instruction/i11.png,,,,,,,,,,,,,,,,,0,0,0,0,0,26,26,26,,,,,,,,,,,,,,,,,,,,,,,,,,,511.9850456000422,512.1851192000322,512.1686692000367,512.4688754000235,512.4688754000235,None,512.9698113000486,None,j,1,0.7012941000284627,512.9698113000486,None,None,None,,,,,,,,,,,,,,,,,,,,,,,11014,1,1,2024_Jun_03_2057,stroop_task_switching2,2021.2.3,59.80950671884122,
,,,蓝,green,f,square,color_mix,单词,,incompatible,1,block_switch1,instruction/ready_test.png,instruction/i11.png,,,,,,,,,,,,,,,,,0,0,0,0,0,27,27,27,,,,,,,,,,,,,,,,,,,,,,,,,,,513.6874738000333,513.8884535999969,513.8711271000211,514.172741700022,514.172741700022,None,514.6721280000056,None,f,1,0.84744550002506,514.6721280000056,None,None,None,,,,,,,,,,,,,,,,,,,,,,,11014,1,1,2024_Jun_03_2057,stroop_task_switching2,2021.2.3,59.80950671884122,
,,,绿,green,k,diamond,color_mix,颜色,,compatible,2,block_switch1,instruction/ready_test.png,instruction/i11.png,,,,,,,,,,,,,,,,,0,0,0,0,0,28,28,28,,,,,,,,,,,,,,,,,,,,,,,,,,,515.5402530000429,515.7413819000358,515.7239458000404,516.0242449000361,516.0242449000361,None,516.5250396000338,None,k,1,0.8261358000454493,516.5250396000338,None,None,None,,,,,,,,,,,,,,,,,,,,,,,11014,1,1,2024_Jun_03_2057,stroop_task_switching2,2021.2.3,59.80950671884122,
,,,黄,blue,f,diamond,color_mix,颜色,,incompatible,1,block_switch1,instruction/ready_test.png,instruction/i11.png,,,,,,,,,,,,,,,,,0,0,0,0,0,29,29,29,,,,,,,,,,,,,,,,,,,,,,,,,,,517.3764275000431,517.5769150000415,517.5608602000284,517.8605930000194,517.8605930000194,None,518.361129100027,None,j,0,0.6464482000446878,518.361129100027,None,None,None,,,,,,,,,,,,,,,,,,,,,,,11014,1,1,2024_Jun_03_2057,stroop_task_switching2,2021.2.3,59.80950671884122,
,,,绿,green,k,diamond,color_mix,颜色,,compatible,1,block_switch1,instruction/ready_test.png,instruction/i11.png,,,,,,,,,,,,,,,,,0,0,0,0,0,30,30,30,,,,,,,,,,,,,,,,,,,,,,,,,,,519.0288832000224,519.2302988000447,519.2126449000207,519.5128527000197,519.5128527000197,None,520.0136562000262,None,k,1,0.7456024000421166,520.0136562000262,None,None,None,,,,,,,,,,,,,,,,,,,,,,,11014,1,1,2024_Jun_03_2057,stroop_task_switching2,2021.2.3,59.80950671884122,
,,,蓝,blue,f,square,color_mix,单词,,compatible,2,block_switch1,instruction/ready_test.png,instruction/i11.png,,,,,,,,,,,,,,,,,0,0,0,0,0,31,31,31,,,,,,,,,,,,,,,,,,,,,,,,,,,520.7813989000279,520.9822379000252,520.9652163000428,521.2656038000132,521.2656038000132,None,521.7667297000298,None,f,1,1.392399000003934,521.7667297000298,None,None,None,,,,,,,,,,,,,,,,,,,,,,,11014,1,1,2024_Jun_03_2057,stroop_task_switching2,2021.2.3,59.80950671884122,
,,,红,red,d,square,color_mix,单词,,compatible,1,block_switch1,instruction/ready_test.png,instruction/i11.png,,,,,,,,,,,,,,,,,0,0,0,0,0,32,32,32,,,,,,,,,,,,,,,,,,,,,,,,,,,523.1851753999945,523.3861569000292,523.3688448000466,523.6707577000489,523.6707577000489,None,524.1700471999939,None,d,1,1.4373714000103064,524.1700471999939,None,None,None,,,,,,,,,,,,,,,,,,,,,,,11014,1,1,2024_Jun_03_2057,stroop_task_switching2,2021.2.3,59.80950671884122,
,,,红,green,d,square,color_mix,单词,,incompatible,1,block_switch1,instruction/ready_test.png,instruction/i11.png,,,,,,,,,,,,,,,,,0,0,0,0,0,33,33,33,,,,,,,,,,,,,,,,,,,,,,,,,,,525.6221958000096,525.8233234000509,525.8057781000389,526.1071524000145,526.1071524000145,None,526.6068414000329,None,d,1,1.2647039000294171,526.6068414000329,None,None,None,,,,,,,,,,,,,,,,,,,,,,,11014,1,1,2024_Jun_03_2057,stroop_task_switching2,2021.2.3,59.80950671884122,
,,,黄,yellow,j,diamond,color_mix,颜色,,compatible,2,block_switch1,instruction/ready_test.png,instruction/i11.png,,,,,,,,,,,,,,,,,0,0,0,0,0,34,34,34,,,,,,,,,,,,,,,,,,,,,,,,,,,527.8920338000171,528.0936940000392,528.0758239999996,528.3770788999973,528.3770788999973,None,528.8770861999947,None,j,1,0.5544376000179909,528.8770861999947,None,None,None,,,,,,,,,,,,,,,,,,,,,,,11014,1,1,2024_Jun_03_2057,stroop_task_switching2,2021.2.3,59.80950671884122,
,,,红,green,k,diamond,color_mix,颜色,,incompatible,1,block_switch1,instruction/ready_test.png,instruction/i11.png,,,,,,,,,,,,,,,,,0,0,0,0,0,35,35,35,,,,,,,,,,,,,,,,,,,,,,,,,,,529.4612232000218,529.661669299996,529.6459448999958,529.9463430000469,529.9463430000469,None,530.4458696999936,None,k,1,1.2017894000164233,530.4458696999936,None,None,None,,,,,,,,,,,,,,,,,,,,,,,11014,1,1,2024_Jun_03_2057,stroop_task_switching2,2021.2.3,59.80950671884122,
,,,黄,yellow,j,square,color_mix,单词,,compatible,2,block_switch1,instruction/ready_test.png,instruction/i11.png,,,,,,,,,,,,,,,,,0,0,0,0,0,36,36,36,,,,,,,,,,,,,,,,,,,,,,,,,,,531.6645677000051,531.8656964999973,531.8482422000379,532.1485856000218,532.1485856000218,None,532.6493314999971,None,j,1,1.982284699974116,532.6493314999971,None,None,None,,,,,,,,,,,,,,,,,,,,,,,11014,1,1,2024_Jun_03_2057,stroop_task_switching2,2021.2.3,59.80950671884122,
,,,蓝,blue,f,square,color_mix,单词,,compatible,1,block_switch1,instruction/ready_test.png,instruction/i11.png,,,,,,,,,,,,,,,,,0,0,0,0,0,37,37,37,,,,,,,,,,,,,,,,,,,,,,,,,,,534.6523830000078,534.8525652000098,534.8375691000256,535.1364961999934,535.1364961999934,None,535.6373018000158,None,f,1,1.026304800005164,535.6373018000158,None,None,None,,,,,,,,,,,,,,,,,,,,,,,11014,1,1,2024_Jun_03_2057,stroop_task_switching2,2021.2.3,59.80950671884122,
,,,绿,red,d,diamond,color_mix,颜色,,incompatible,2,block_switch1,instruction/ready_test.png,instruction/i11.png,,,,,,,,,,,,,,,,,0,0,0,0,0,38,38,38,,,,,,,,,,,,,,,,,,,,,,,,,,,536.6886633000104,536.8900531000108,536.8723199000233,537.1741633000202,537.1741633000202,None,537.6739266000222,None,d,1,1.2142503000213765,537.6739266000222,None,None,None,,,,,,,,,,,,,,,,,,,,,,,11014,1,1,2024_Jun_03_2057,stroop_task_switching2,2021.2.3,59.80950671884122,
,,,黄,yellow,j,diamond,color_mix,颜色,,compatible,1,block_switch1,instruction/ready_test.png,instruction/i11.png,,,,,,,,,,,,,,,,,0,0,0,0,0,39,39,39,,,,,,,,,,,,,,,,,,,,,,,,,,,538.9087588000111,539.1100044000195,539.0923108000425,539.3935499000363,539.3935499000363,None,539.8936194000416,None,j,1,1.0824486000346951,539.8936194000416,None,None,None,,,,,,,,,,,,,,,,,,,,,,,11014,1,1,2024_Jun_03_2057,stroop_task_switching2,2021.2.3,59.80950671884122,
,,,红,blue,f,diamond,color_mix,颜色,,incompatible,1,block_switch1,instruction/ready_test.png,instruction/i11.png,,,,,,,,,,,,,,,,,0,0,0,0,0,40,40,40,,,,,,,,,,,,,,,,,,,,,,,,,,,540.9956062000128,541.1955406000488,541.1790585000417,541.4797261000494,541.4797261000494,None,541.9815062000416,None,f,1,0.698538800003007,541.9815062000416,None,None,None,,,,,,,,,,,,,,,,,,,,,,,11014,1,1,2024_Jun_03_2057,stroop_task_switching2,2021.2.3,59.80950671884122,
,,,绿,blue,k,square,color_mix,单词,,incompatible,2,block_switch1,instruction/ready_test.png,instruction/i11.png,,,,,,,,,,,,,,,,,0,0,0,0,0,41,41,41,,,,,,,,,,,,,,,,,,,,,,,,,,,542.6979592000134,542.8996774000116,542.881510700041,543.1819782000384,543.1819782000384,None,543.6827381000039,None,k,1,1.6133692999719642,543.6827381000039,None,None,None,,,,,,,,,,,,,,,,,,,,,,,11014,1,1,2024_Jun_03_2057,stroop_task_switching2,2021.2.3,59.80950671884122,
,,,蓝,blue,f,diamond,color_mix,颜色,,compatible,2,block_switch1,instruction/ready_test.png,instruction/i11.png,,,,,,,,,,,,,,,,,0,0,0,0,0,42,42,42,,,,,,,,,,,,,,,,,,,,,,,,,,,545.318283700035,545.5199796000379,545.5020365000237,545.8032182000461,545.8032182000461,None,546.3032226000214,None,f,1,1.3770870000007562,546.3032226000214,None,None,None,,,,,,,,,,,,,,,,,,,,,,,11014,1,1,2024_Jun_03_2057,stroop_task_switching2,2021.2.3,59.80950671884122,
,,,红,blue,d,square,color_mix,单词,,incompatible,2,block_switch1,instruction/ready_test.png,instruction/i11.png,,,,,,,,,,,,,,,,,0,0,0,0,0,43,43,43,,,,,,,,,,,,,,,,,,,,,,,,,,,547.7053994000307,547.9065050000208,547.8889046999975,548.1895157000399,548.1895157000399,None,548.6901440000511,None,d,1,0.5736690000048839,548.6901440000511,None,None,None,,,,,,,,,,,,,,,,,,,,,,,11014,1,1,2024_Jun_03_2057,stroop_task_switching2,2021.2.3,59.80950671884122,
,,,蓝,green,k,diamond,color_mix,颜色,,incompatible,2,block_switch1,instruction/ready_test.png,instruction/i11.png,,,,,,,,,,,,,,,,,0,0,0,0,0,44,44,44,,,,,,,,,,,,,,,,,,,,,,,,,,,549.2911512000137,549.4927198000369,549.4749763000291,549.7752475000452,549.7752475000452,None,550.275890799996,None,k,1,1.5642154000233859,550.275890799996,None,None,None,,,,,,,,,,,,,,,,,,,,,,,11014,1,1,2024_Jun_03_2057,stroop_task_switching2,2021.2.3,59.80950671884122,
,,,黄,yellow,j,square,color_mix,单词,,compatible,2,block_switch1,instruction/ready_test.png,instruction/i11.png,,,,,,,,,,,,,,,,,0,0,0,0,0,45,45,45,,,,,,,,,,,,,,,,,,,,,,,,,,,551.8616691000061,552.0629215000081,552.0454915000009,552.3457735000411,552.3457735000411,None,552.8463601000258,None,j,1,1.5778238999773748,552.8463601000258,None,None,None,,,,,,,,,,,,,,,,,,,,,,,11014,1,1,2024_Jun_03_2057,stroop_task_switching2,2021.2.3,59.80950671884122,
,,,黄,yellow,j,diamond,color_mix,颜色,,compatible,2,block_switch1,instruction/ready_test.png,instruction/i11.png,,,,,,,,,,,,,,,,,0,0,0,0,0,46,46,46,,,,,,,,,,,,,,,,,,,,,,,,,,,554.449007200019,554.6493254000088,554.6326746999985,554.933622200042,554.933622200042,None,555.4337118000258,None,j,1,0.7104666999657638,555.4337118000258,None,None,None,,,,,,,,,,,,,,,,,,,,,,,11014,1,1,2024_Jun_03_2057,stroop_task_switching2,2021.2.3,59.80950671884122,
,,,绿,red,k,square,color_mix,单词,,incompatible,2,block_switch1,instruction/ready_test.png,instruction/i11.png,,,,,,,,,,,,,,,,,0,0,0,0,0,47,47,47,,,,,,,,,,,,,,,,,,,,,,,,,,,556.1683170000324,556.3688581000315,556.3516982000438,556.6530963000259,556.6530963000259,None,557.1530290000373,None,k,1,0.7510400000028312,557.1530290000373,None,None,None,,,,,,,,,,,,,,,,,,,,,,,11014,1,1,2024_Jun_03_2057,stroop_task_switching2,2021.2.3,59.80950671884122,
,,,红,red,d,diamond,color_mix,颜色,,compatible,2,block_switch1,instruction/ready_test.png,instruction/i11.png,,,,,,,,,,,,,,,,,0,0,0,0,0,48,48,48,,,,,,,,,,,,,,,,,,,,,,,,,,,557.9207845000201,558.1221031000023,558.1045229000156,558.4055478000082,558.4055478000082,None,558.9054404000053,None,d,1,0.6149753999779932,558.9054404000053,None,None,None,,,,,,,,,,,,,,,,,,,,,,,11014,1,1,2024_Jun_03_2057,stroop_task_switching2,2021.2.3,59.80950671884122,
,,,蓝,blue,f,diamond,color_mix,颜色,,compatible,1,block_switch1,instruction/ready_test.png,instruction/i11.png,,,,,,,,,,,,,,,,,0,0,0,0,0,49,49,49,,,,,,,,,,,,,,,,,,,,,,,,,,,559.5399220000254,559.7410167000489,559.7236541000311,560.0238802999957,560.0238802999957,None,560.5260178000317,None,f,1,0.6582981999963522,560.5260178000317,None,None,None,,,,,,,,,,,,,,,,,,,,,,,11014,1,1,2024_Jun_03_2057,stroop_task_switching2,2021.2.3,59.80950671884122,
,,,黄,yellow,j,diamond,color_mix,颜色,,compatible,1,block_switch1,instruction/ready_test.png,instruction/i11.png,,,,,,,,,,,,,,,,,0,0,0,0,0,50,50,50,,,,,,,,,,,,,,,,,,,,,,,,,,,561.2092501000152,561.4100780000445,561.392811800004,561.6938747999957,561.6938747999957,None,562.1937005000073,None,j,1,0.582859100017231,562.1937005000073,None,None,None,,,,,,,,,,,,,,,,,,,,,,,11014,1,1,2024_Jun_03_2057,stroop_task_switching2,2021.2.3,59.80950671884122,
,,,红,blue,f,diamond,color_mix,颜色,,incompatible,1,block_switch1,instruction/ready_test.png,instruction/i11.png,,,,,,,,,,,,,,,,,0,0,0,0,0,51,51,51,,,,,,,,,,,,,,,,,,,,,,,,,,,562.7949155000388,562.9953636000282,562.9792854000116,563.2787598000141,563.2787598000141,None,563.779806800012,None,f,1,1.4286688000429422,563.779806800012,None,None,None,,,,,,,,,,,,,,,,,,,,,,,11014,1,1,2024_Jun_03_2057,stroop_task_switching2,2021.2.3,59.80950671884122,
,,,蓝,yellow,j,diamond,color_mix,颜色,,incompatible,1,block_switch1,instruction/ready_test.png,instruction/i11.png,,,,,,,,,,,,,,,,,0,0,0,0,0,52,52,52,,,,,,,,,,,,,,,,,,,,,,,,,,,565.2318941000267,565.4328509000479,565.4154543000041,565.7177163000451,565.7177163000451,None,566.2333496000501,None,j,1,1.7668989999801852,566.2333496000501,None,None,None,,,,,,,,,,,,,,,,,,,,,,,11014,1,1,2024_Jun_03_2057,stroop_task_switching2,2021.2.3,59.80950671884122,
,,,黄,blue,j,square,color_mix,单词,,incompatible,2,block_switch1,instruction/ready_test.png,instruction/i11.png,,,,,,,,,,,,,,,,,0,0,0,0,0,53,53,53,,,,,,,,,,,,,,,,,,,,,,,,,,,568.0195314000011,568.220868000004,568.2031048000208,568.5058720000088,568.5058720000088,None,569.0041439000051,None,j,1,1.1245165999862365,569.0041439000051,None,None,None,,,,,,,,,,,,,,,,,,,,,,,11014,1,1,2024_Jun_03_2057,stroop_task_switching2,2021.2.3,59.80950671884122,
,,,蓝,blue,f,diamond,color_mix,颜色,,compatible,2,block_switch1,instruction/ready_test.png,instruction/i11.png,,,,,,,,,,,,,,,,,0,0,0,0,0,54,54,54,,,,,,,,,,,,,,,,,,,,,,,,,,,570.1558203000459,570.3567799000302,570.3395092000137,570.6400835000095,570.6400835000095,None,571.1410815000418,None,f,1,1.1234559000004083,571.1410815000418,None,None,None,,,,,,,,,,,,,,,,,,,,,,,11014,1,1,2024_Jun_03_2057,stroop_task_switching2,2021.2.3,59.80950671884122,
,,,红,yellow,d,square,color_mix,单词,,incompatible,2,block_switch1,instruction/ready_test.png,instruction/i11.png,,,,,,,,,,,,,,,,,0,0,0,0,0,55,55,55,,,,,,,,,,,,,,,,,,,,,,,,,,,572.2924048000132,572.4928236000123,572.4761763000279,572.7779154000455,572.7779154000455,None,573.2773790000356,None,d,1,0.7633373000426218,573.2773790000356,None,None,None,,,,,,,,,,,,,,,,,,,,,,,11014,1,1,2024_Jun_03_2057,stroop_task_switching2,2021.2.3,59.80950671884122,
,,,蓝,red,f,square,color_mix,单词,,incompatible,1,block_switch1,instruction/ready_test.png,instruction/i11.png,,,,,,,,,,,,,,,,,0,0,0,0,0,56,56,56,,,,,,,,,,,,,,,,,,,,,,,,,,,574.0619943000493,574.2635758999968,574.2456008000299,574.5463032000116,574.5463032000116,None,575.0468667999958,None,f,1,0.7458667000173591,575.0468667999958,None,None,None,,,,,,,,,,,,,,,,,,,,,,,11014,1,1,2024_Jun_03_2057,stroop_task_switching2,2021.2.3,59.80950671884122,
,,,蓝,blue,f,square,color_mix,单词,,compatible,1,block_switch1,instruction/ready_test.png,instruction/i11.png,,,,,,,,,,,,,,,,,0,0,0,0,0,57,57,57,,,,,,,,,,,,,,,,,,,,,,,,,,,575.8143663000083,576.0155911000329,575.9981977000134,576.29844340001,576.29844340001,None,576.7990428000339,None,f,1,0.9216905999928713,576.7990428000339,None,None,None,,,,,,,,,,,,,,,,,,,,,,,11014,1,1,2024_Jun_03_2057,stroop_task_switching2,2021.2.3,59.80950671884122,
,,,蓝,red,d,diamond,color_mix,颜色,,incompatible,2,block_switch1,instruction/ready_test.png,instruction/i11.png,,,,,,,,,,,,,,,,,0,0,0,0,0,58,58,58,,,,,,,,,,,,,,,,,,,,,,,,,,,577.7508613000391,577.9518884000136,577.9344744000118,578.2354039000347,578.2354039000347,None,578.7354859000188,None,d,1,0.601299999980256,578.7354859000188,None,None,None,,,,,,,,,,,,,,,,,,,,,,,11014,1,1,2024_Jun_03_2057,stroop_task_switching2,2021.2.3,59.80950671884122,
,,,绿,green,k,diamond,color_mix,颜色,,compatible,1,block_switch1,instruction/ready_test.png,instruction/i11.png,,,,,,,,,,,,,,,,,0,0,0,0,0,59,59,59,,,,,,,,,,,,,,,,,,,,,,,,,,,579.3532280999934,579.5536178000038,579.53690310003,579.8372376000043,579.8372376000043,None,580.3381087000016,None,k,1,0.9105566999642178,580.3381087000016,None,None,None,,,,,,,,,,,,,,,,,,,,,,,11014,1,1,2024_Jun_03_2057,stroop_task_switching2,2021.2.3,59.80950671884122,
,,,蓝,blue,f,diamond,color_mix,颜色,,compatible,1,block_switch1,instruction/ready_test.png,instruction/i11.png,,,,,,,,,,,,,,,,,0,0,0,0,0,60,60,60,,,,,,,,,,,,,,,,,,,,,,,,,,,581.2729790000012,581.4740056000301,581.4560696000117,581.7568328000489,581.7568328000489,None,582.2575230000075,None,f,1,1.3432360999868251,582.2575230000075,None,None,None,,,,,,,,,,,,,,,,,,,,,,,11014,1,1,2024_Jun_03_2057,stroop_task_switching2,2021.2.3,59.80950671884122,
,,,黄,yellow,j,square,color_mix,单词,,compatible,2,block_switch1,instruction/ready_test.png,instruction/i11.png,,,,,,,,,,,,,,,,,0,0,0,0,0,61,61,61,,,,,,,,,,,,,,,,,,,,,,,,,,,583.626318500028,583.8266617000336,583.8096912000328,584.1110050000134,584.1110050000134,None,584.611168500036,None,j,1,1.8939359999494627,584.611168500036,None,None,None,,,,,,,,,,,,,,,,,,,,,,,11014,1,1,2024_Jun_03_2057,stroop_task_switching2,2021.2.3,59.80950671884122,
,,,绿,blue,k,square,color_mix,单词,,incompatible,1,block_switch1,instruction/ready_test.png,instruction/i11.png,,,,,,,,,,,,,,,,,0,0,0,0,0,62,62,62,,,,,,,,,,,,,,,,,,,,,,,,,,,586.5306934000109,586.7336220000288,586.7148487000377,587.0145941000083,587.0145941000083,None,587.5153909000219,None,k,1,1.2057142999838106,587.5153909000219,None,None,None,,,,,,,,,,,,,,,,,,,,,,,11014,1,1,2024_Jun_03_2057,stroop_task_switching2,2021.2.3,59.80950671884122,
,,,蓝,yellow,f,square,color_mix,单词,,incompatible,1,block_switch1,instruction/ready_test.png,instruction/i11.png,,,,,,,,,,,,,,,,,0,0,0,0,0,63,63,63,,,,,,,,,,,,,,,,,,,,,,,,,,,588.7509056000272,588.9512232000125,588.9342697000247,589.2349125000183,589.2349125000183,None,589.7354258000269,None,f,1,0.8017783000250347,589.7354258000269,None,None,None,,,,,,,,,,,,,,,,,,,,,,,11014,1,1,2024_Jun_03_2057,stroop_task_switching2,2021.2.3,59.80950671884122,
,,,黄,yellow,j,diamond,color_mix,颜色,,compatible,2,block_switch1,instruction/ready_test.png,instruction/i11.png,,,,,,,,,,,,,,,,,0,0,0,0,0,64,64,64,,,,,,,,,,,,,,,,,,,,,,,,,,,590.553813400038,590.7545105000027,590.7371261999942,591.0374948999961,591.0374948999961,None,591.5380652000313,None,j,1,0.5829895000206307,591.5380652000313,None,None,None,,,,,,,,,,,,,,,,,,,,,,,11014,1,1,2024_Jun_03_2057,stroop_task_switching2,2021.2.3,59.80950671884122,
,,,蓝,green,k,diamond,color_mix,颜色,,incompatible,1,block_switch1,instruction/ready_test.png,instruction/i11.png,,,,,,,,,,,,,,,,,0,0,0,0,0,65,65,65,,,,,,,,,,,,,,,,,,,,,,,,,,,592.1391562000499,592.3398874000413,592.3226335000363,592.6246021999978,592.6246021999978,None,593.124423100031,None,k,1,0.8768786000437103,593.124423100031,None,None,None,,,,,,,,,,,,,,,,,,,,,,,11014,1,1,2024_Jun_03_2057,stroop_task_switching2,2021.2.3,59.80950671884122,
,,,红,red,d,diamond,color_mix,颜色,,compatible,1,block_switch1,instruction/ready_test.png,instruction/i11.png,,,,,,,,,,,,,,,,,0,0,0,0,0,66,66,66,,,,,,,,,,,,,,,,,,,,,,,,,,,594.0252907000249,594.2259140000097,594.2089601000189,594.5095105000073,594.5095105000073,None,595.0099486000254,None,d,1,0.5912985000177287,595.0099486000254,None,None,None,,,,,,,,,,,,,,,,,,,,,,,11014,1,1,2024_Jun_03_2057,stroop_task_switching2,2021.2.3,59.80950671884122,
,,,蓝,yellow,f,square,color_mix,单词,,incompatible,2,block_switch1,instruction/ready_test.png,instruction/i11.png,,,,,,,,,,,,,,,,,0,0,0,0,0,67,67,67,,,,,,,,,,,,,,,,,,,,,,,,,,,595.627624900022,595.829779200023,595.8114468000131,596.1120665000053,596.1120665000053,None,596.6126301000477,None,f,1,0.8847099999547936,596.6126301000477,None,None,None,,,,,,,,,,,,,,,,,,,,,,,11014,1,1,2024_Jun_03_2057,stroop_task_switching2,2021.2.3,59.80950671884122,
,,,红,yellow,d,square,color_mix,单词,,incompatible,1,block_switch1,instruction/ready_test.png,instruction/i11.png,,,,,,,,,,,,,,,,,0,0,0,0,0,68,68,68,,,,,,,,,,,,,,,,,,,,,,,,,,,597.5138514999999,597.7155174000072,597.6989089000272,597.9997681000386,597.9997681000386,None,598.5153249000432,None,d,1,0.6379298000247218,598.5153249000432,None,None,None,,,,,,,,,,,,,,,,,,,,,,,11014,1,1,2024_Jun_03_2057,stroop_task_switching2,2021.2.3,59.80950671884122,
,,,红,yellow,j,diamond,color_mix,颜色,,incompatible,2,block_switch1,instruction/ready_test.png,instruction/i11.png,,,,,,,,,,,,,,,,,0,0,0,0,0,69,69,69,,,,,,,,,,,,,,,,,,,,,,,,,,,599.1831673000124,599.3839380000136,599.3667800000403,599.667114300013,599.667114300013,None,600.1677460000501,None,j,1,2.4098224000190385,600.1677460000501,None,None,None,,,,,,,,,,,,,,,,,,,,,,,11014,1,1,2024_Jun_03_2057,stroop_task_switching2,2021.2.3,59.80950671884122,
,,,蓝,green,f,square,color_mix,单词,,incompatible,2,block_switch1,instruction/ready_test.png,instruction/i11.png,,,,,,,,,,,,,,,,,0,0,0,0,0,70,70,70,,,,,,,,,,,,,,,,,,,,,,,,,,,602.6049611000344,602.8051571000251,602.788735900016,603.08886420005,603.08886420005,None,603.5902803000063,None,f,1,1.3313212999491952,603.5902803000063,None,None,None,,,,,,,,,,,,,,,,,,,,,,,11014,1,1,2024_Jun_03_2057,stroop_task_switching2,2021.2.3,59.80950671884122,
,,,绿,yellow,k,square,color_mix,单词,,incompatible,1,block_switch1,instruction/ready_test.png,instruction/i11.png,,,,,,,,,,,,,,,,,0,0,0,0,0,71,71,71,,,,,,,,,,,,,,,,,,,,,,,,,,,604.9416024000384,605.1421996999998,605.1253888000501,605.4264957000269,605.4264957000269,None,605.9265213000472,None,k,1,0.7473552000010386,605.9265213000472,None,None,None,,,,,,,,,,,,,,,,,,,,,,,11014,1,1,2024_Jun_03_2057,stroop_task_switching2,2021.2.3,59.80950671884122,
,,,蓝,yellow,j,diamond,color_mix,颜色,,incompatible,2,block_switch1,instruction/ready_test.png,instruction/i11.png,,,,,,,,,,,,,,,,,0,0,0,0,0,72,72,72,,,,,,,,,,,,,,,,,,,,,,,,,,,606.6947366000386,606.8949695000192,606.8793545000372,607.1784211000195,607.1784211000195,None,607.6791114000371,None,j,1,0.6023933000396937,607.6791114000371,None,None,None,,,,,,,,,,,,,,,,,,,,,,,11014,1,1,2024_Jun_03_2057,stroop_task_switching2,2021.2.3,59.80950671884122,
,,,红,green,d,square,color_mix,单词,,incompatible,2,block_switch1,instruction/ready_test.png,instruction/i11.png,,,,,,,,,,,,,,,,,0,0,0,0,0,73,73,73,,,,,,,,,,,,,,,,,,,,,,,,,,,608.2967794000288,608.4981582000037,608.4806118000415,608.7812966000056,608.7812966000056,None,609.2817625000025,None,d,1,0.9516416999977082,609.2817625000025,None,None,None,,,,,,,,,,,,,,,,,,,,,,,11014,1,1,2024_Jun_03_2057,stroop_task_switching2,2021.2.3,59.80950671884122,
,,,绿,blue,f,diamond,color_mix,颜色,,incompatible,2,block_switch1,instruction/ready_test.png,instruction/i11.png,,,,,,,,,,,,,,,,,0,0,0,0,0,74,74,74,,,,,,,,,,,,,,,,,,,,,,,,,,,610.2496344000101,610.449865200033,610.4335680000368,610.7339210000355,610.7339210000355,None,611.2344960000482,None,f,1,0.6072988999658264,611.2344960000482,None,None,None,,,,,,,,,,,,,,,,,,,,,,,11014,1,1,2024_Jun_03_2057,stroop_task_switching2,2021.2.3,59.80950671884122,
,,,红,red,d,square,color_mix,单词,,compatible,2,block_switch1,instruction/ready_test.png,instruction/i11.png,,,,,,,,,,,,,,,,,0,0,0,0,0,75,75,75,,,,,,,,,,,,,,,,,,,,,,,,,,,611.8688794000191,612.0694140000269,612.0537658000248,612.354470500024,612.354470500024,None,612.8535249000415,None,d,1,0.6362271999823861,612.8535249000415,None,None,None,,,,,,,,,,,,,,,,,,,,,,,11014,1,1,2024_Jun_03_2057,stroop_task_switching2,2021.2.3,59.80950671884122,
,,,绿,green,k,diamond,color_mix,颜色,,compatible,2,block_switch1,instruction/ready_test.png,instruction/i11.png,,,,,,,,,,,,,,,,,0,0,0,0,0,76,76,76,,,,,,,,,,,,,,,,,,,,,,,,,,,613.521152500005,613.7226686000358,613.7047417000285,614.0065021000337,614.0065021000337,None,614.5063002000097,None,k,1,0.7275921999826096,614.5063002000097,None,None,None,,,,,,,,,,,,,,,,,,,,,,,11014,1,1,2024_Jun_03_2057,stroop_task_switching2,2021.2.3,59.80950671884122,
,,,黄,red,j,square,color_mix,单词,,incompatible,2,block_switch1,instruction/ready_test.png,instruction/i11.png,,,,,,,,,,,,,,,,,0,0,0,0,0,77,77,77,,,,,,,,,,,,,,,,,,,,,,,,,,,615.257364900026,615.4588240000303,615.4408296000329,615.7421434000134,615.7421434000134,None,616.2421712000505,None,d,0,0.9841052999836393,616.2421712000505,None,None,None,,,,,,,,,,,,,,,,,,,,,,,11014,1,1,2024_Jun_03_2057,stroop_task_switching2,2021.2.3,59.80950671884122,
,,,红,red,d,square,color_mix,单词,,compatible,1,block_switch1,instruction/ready_test.png,instruction/i11.png,,,,,,,,,,,,,,,,,0,0,0,0,0,78,78,78,,,,,,,,,,,,,,,,,,,,,,,,,,,617.2436048000236,617.4440626000287,617.4274453000398,617.730293200002,617.730293200002,None,618.2451209000428,None,d,1,2.460789000033401,618.2451209000428,None,None,None,,,,,,,,,,,,,,,,,,,,,,,11014,1,1,2024_Jun_03_2057,stroop_task_switching2,2021.2.3,59.80950671884122,
,,,黄,yellow,j,square,color_mix,单词,,compatible,1,block_switch1,instruction/ready_test.png,instruction/i11.png,,,,,,,,,,,,,,,,,0,0,0,0,0,79,79,79,,,,,,,,,,,,,,,,,,,,,,,,,,,620.7321384000243,620.933648700011,620.9158651000471,621.2169125000364,621.2169125000364,None,621.7172722000396,None,j,1,1.1810267000109889,621.7172722000396,None,None,None,,,,,,,,,,,,,,,,,,,,,,,11014,1,1,2024_Jun_03_2057,stroop_task_switching2,2021.2.3,59.80950671884122,
,,,红,red,d,diamond,color_mix,颜色,,compatible,2,block_switch1,instruction/ready_test.png,instruction/i11.png,,,,,,,,,,,,,,,,,0,0,0,0,0,80,80,80,,,,,,,,,,,,,,,,,,,,,,,,,,,622.9186841000337,623.1200556000113,623.1024320000433,623.4030807000236,623.4030807000236,None,623.903759400011,None,d,1,1.242295700008981,623.903759400011,None,None,None,,,,,,,,,,,,,,,,,,,,,,,11014,1,1,2024_Jun_03_2057,stroop_task_switching2,2021.2.3,59.80950671884122,
,,,红,red,d,square,color_mix,单词,,compatible,2,block_switch1,instruction/ready_test.png,instruction/i11.png,,,,,,,,,,,,,,,,,0,0,0,0,0,81,81,81,,,,,,,,,,,,,,,,,,,,,,,,,,,625.1720967000001,625.3724906000425,625.3577941000112,625.6730054999935,625.6578255000059,None,626.1570465000113,None,d,1,1.1015083999955095,626.1570465000113,None,None,None,,,,,,,,,,,,,,,,,,,,,,,11014,1,1,2024_Jun_03_2057,stroop_task_switching2,2021.2.3,59.80950671884122,
,,,黄,blue,f,diamond,color_mix,颜色,,incompatible,2,block_switch1,instruction/ready_test.png,instruction/i11.png,,,,,,,,,,,,,,,,,0,0,0,0,0,82,82,82,,,,,,,,,,,,,,,,,,,,,,,,,,,627.2755175000057,627.4758462000173,627.4606641000137,627.7595131000271,627.7595131000271,None,628.2602715000394,None,f,1,0.7578388000256382,628.2602715000394,None,None,None,,,,,,,,,,,,,,,,,,,,,,,11014,1,1,2024_Jun_03_2057,stroop_task_switching2,2021.2.3,59.80950671884122,
,,,红,yellow,j,diamond,color_mix,颜色,,incompatible,1,block_switch1,instruction/ready_test.png,instruction/i11.png,,,,,,,,,,,,,,,,,0,0,0,0,0,83,83,83,,,,,,,,,,,,,,,,,,,,,,,,,,,629.0446750000119,629.2455486000399,629.2283022000338,629.5290672000265,629.5290672000265,None,630.0295716000255,None,j,1,0.8928689999738708,630.0295716000255,None,None,None,,,,,,,,,,,,,,,,,,,,,,,11014,1,1,2024_Jun_03_2057,stroop_task_switching2,2021.2.3,59.80950671884122,
,,,黄,red,d,diamond,color_mix,颜色,,incompatible,1,block_switch1,instruction/ready_test.png,instruction/i11.png,,,,,,,,,,,,,,,,,0,0,0,0,0,84,84,84,,,,,,,,,,,,,,,,,,,,,,,,,,,630.9479833000223,631.149058400013,631.131259500049,631.4322151000379,631.4322151000379,None,631.9323299000389,None,d,1,0.6857535000308417,631.9323299000389,None,None,None,,,,,,,,,,,,,,,,,,,,,,,11014,1,1,2024_Jun_03_2057,stroop_task_switching2,2021.2.3,59.80950671884122,
,,,蓝,blue,f,square,color_mix,单词,,compatible,2,block_switch1,instruction/ready_test.png,instruction/i11.png,,,,,,,,,,,,,,,,,0,0,0,0,0,85,85,85,,,,,,,,,,,,,,,,,,,,,,,,,,,632.6333482000045,632.8339987000218,632.817233800015,633.1177139000501,633.1177139000501,None,633.6183405000484,None,f,1,0.6166309000109322,633.6183405000484,None,None,None,,,,,,,,,,,,,,,,,,,,,,,11014,1,1,2024_Jun_03_2057,stroop_task_switching2,2021.2.3,59.80950671884122,
,,,绿,green,k,square,color_mix,单词,,compatible,1,block_switch1,instruction/ready_test.png,instruction/i11.png,,,,,,,,,,,,,,,,,0,0,0,0,0,86,86,86,,,,,,,,,,,,,,,,,,,,,,,,,,,634.2527162000188,634.4533295000438,634.4361192000215,634.7366255000234,634.7366255000234,None,635.2374286000268,None,k,1,0.8450051000108942,635.2374286000268,None,None,None,,,,,,,,,,,,,,,,,,,,,,,11014,1,1,2024_Jun_03_2057,stroop_task_switching2,2021.2.3,59.80950671884122,
,,,红,red,d,square,color_mix,单词,,compatible,1,block_switch1,instruction/ready_test.png,instruction/i11.png,,,,,,,,,,,,,,,,,0,0,0,0,0,87,87,87,,,,,,,,,,,,,,,,,,,,,,,,,,,636.1053523000446,636.3056735999999,636.2900995000382,636.5895010000095,636.5895010000095,None,637.0900594000123,None,d,1,0.8723264999571256,637.0900594000123,None,None,None,,,,,,,,,,,,,,,,,,,,,,,11014,1,1,2024_Jun_03_2057,stroop_task_switching2,2021.2.3,59.80950671884122,
,,,黄,green,k,diamond,color_mix,颜色,,incompatible,2,block_switch1,instruction/ready_test.png,instruction/i11.png,,,,,,,,,,,,,,,,,0,0,0,0,0,88,88,88,,,,,,,,,,,,,,,,,,,,,,,,,,,637.9916137999971,638.1938930000179,638.1757468000287,638.4763363000238,638.4763363000238,None,638.9763436000212,None,k,1,0.6902839999529533,638.9763436000212,None,None,None,,,,,,,,,,,,,,,,,,,,,,,11014,1,1,2024_Jun_03_2057,stroop_task_switching2,2021.2.3,59.80950671884122,
,,,绿,red,k,square,color_mix,单词,,incompatible,2,block_switch1,instruction/ready_test.png,instruction/i11.png,,,,,,,,,,,,,,,,,0,0,0,0,0,89,89,89,,,,,,,,,,,,,,,,,,,,,,,,,,,639.6940569000435,639.8948909000028,639.8777778000222,640.1785366000258,640.1785366000258,None,640.6790303000016,None,k,1,0.8194136000238359,640.6790303000016,None,None,None,,,,,,,,,,,,,,,,,,,,,,,11014,1,1,2024_Jun_03_2057,stroop_task_switching2,2021.2.3,59.80950671884122,
,,,黄,green,j,square,color_mix,单词,,incompatible,1,block_switch1,instruction/ready_test.png,instruction/i11.png,,,,,,,,,,,,,,,,,0,0,0,0,0,90,90,90,,,,,,,,,,,,,,,,,,,,,,,,,,,641.5302478999947,641.731015300029,641.7139145000256,642.0144679000368,642.0144679000368,None,642.51508750004,None,j,1,0.7352255000150762,642.51508750004,None,None,None,,,,,,,,,,,,,,,,,,,,,,,11014,1,1,2024_Jun_03_2057,stroop_task_switching2,2021.2.3,59.80950671884122,
,,,蓝,blue,f,square,color_mix,单词,,compatible,1,block_switch1,instruction/ready_test.png,instruction/i11.png,,,,,,,,,,,,,,,,,0,0,0,0,0,91,91,91,,,,,,,,,,,,,,,,,,,,,,,,,,,643.265925500018,643.466811500024,643.449800900009,643.7502167000202,643.7502167000202,None,644.2511314000003,None,f,1,0.7992391000152566,644.2511314000003,None,None,None,,,,,,,,,,,,,,,,,,,,,,,11014,1,1,2024_Jun_03_2057,stroop_task_switching2,2021.2.3,59.80950671884122,
,,,蓝,red,f,square,color_mix,单词,,incompatible,1,block_switch1,instruction/ready_test.png,instruction/i11.png,,,,,,,,,,,,,,,,,0,0,0,0,0,92,92,92,,,,,,,,,,,,,,,,,,,,,,,,,,,645.0690132000018,645.2699293000042,645.2525849000085,645.55363390001,645.55363390001,None,646.0536210000282,None,d,0,0.5249620000249706,646.0536210000282,None,None,None,,,,,,,,,,,,,,,,,,,,,,,11014,1,1,2024_Jun_03_2057,stroop_task_switching2,2021.2.3,59.80950671884122,
,,,黄,blue,j,square,color_mix,单词,,incompatible,1,block_switch1,instruction/ready_test.png,instruction/i11.png,,,,,,,,,,,,,,,,,0,0,0,0,0,93,93,93,,,,,,,,,,,,,,,,,,,,,,,,,,,646.6049382000347,646.8054043000448,646.7881216999958,647.0886567000416,647.0886567000416,None,647.5897966000484,None,j,1,2.3170289999688976,647.5897966000484,None,None,None,,,,,,,,,,,,,,,,,,,,,,,11014,1,1,2024_Jun_03_2057,stroop_task_switching2,2021.2.3,59.80950671884122,
,,,绿,red,d,diamond,color_mix,颜色,,incompatible,2,block_switch1,instruction/ready_test.png,instruction/i11.png,,,,,,,,,,,,,,,,,0,0,0,0,0,94,94,94,,,,,,,,,,,,,,,,,,,,,,,,,,,649.9261379000382,650.1280490000499,650.109850400011,650.4114751000307,650.4114751000307,None,650.9111877999967,None,k,0,0.9635976999998093,650.9111877999967,None,None,None,,,,,,,,,,,,,,,,,,,,,,,11014,1,1,2024_Jun_03_2057,stroop_task_switching2,2021.2.3,59.80950671884122,
,,,蓝,blue,f,diamond,color_mix,颜色,,compatible,1,block_switch1,instruction/ready_test.png,instruction/i11.png,,,,,,,,,,,,,,,,,0,0,0,0,0,95,95,95,,,,,,,,,,,,,,,,,,,,,,,,,,,651.8956877000164,652.0965322999982,652.0795765999937,652.3804386000265,652.3804386000265,None,652.8807316000457,None,f,1,1.5221098000183702,652.8807316000457,None,None,None,,,,,,,,,,,,,,,,,,,,,,,11014,1,1,2024_Jun_03_2057,stroop_task_switching2,2021.2.3,59.80950671884122,
,,,绿,green,k,square,color_mix,单词,,compatible,2,block_switch1,instruction/ready_test.png,instruction/i11.png,,,,,,,,,,,,,,,,,0,0,0,0,0,96,96,96,,,,,,,,,,,,,,,,,,,,,,,,,,,654.4329068000079,654.6330973000149,654.6164844000014,654.9170374000096,654.9170374000096,None,655.4177950000158,None,k,1,0.9058635999681428,655.4177950000158,None,None,None,,,,,,,,,,,,,,,,,,,,,,,11014,1,1,2024_Jun_03_2057,stroop_task_switching2,2021.2.3,59.80950671884122,
,,,,,,,,,,,,block_switch1,instruction/ready_test.png,instruction/i11.png,,,,,,,,,,,,,,,,,0,0,0,0,,,,,,,,,,,,,,,,,,,,,,,,,,,,,,,,,,,,,,,,,,,,,,,,,,,,,,,,,,,,656.3525923000416,None,space,12.834723700012546,656.3525923000416,None,,,11014,1,1,2024_Jun_03_2057,stroop_task_switching2,2021.2.3,59.80950671884122,
,,,蓝,blue,f,square,color_mix,单词,,compatible,0,block_switch2,instruction/ready_2.png,instruction/i12.png,,,,,,,,,,,,,,,,,0,1,1,1,0,0,0,0,,,,,,,,,,,,,,,,,,,671.6923174000112,672.6939454000094,672.6939454000094,673.6963929000194,673.6963929000194,None,670.707578200032,671.7096147999982,674.7130619999953,674.9139196000178,674.8973727000412,675.1977838000166,675.1977838000166,None,675.6984965000302,None,f,1,0.9691201000241563,675.6984965000302,None,None,None,,,,,,,,,669.222363900044,None,space,1.4689664000179619,669.222363900044,None,,,,,,,,,11014,1,1,2024_Jun_03_2057,stroop_task_switching2,2021.2.3,59.80950671884122,
,,,黄,red,d,diamond,color_mix,颜色,,incompatible,2,block_switch2,instruction/ready_2.png,instruction/i12.png,,,,,,,,,,,,,,,,,0,1,1,1,0,1,1,1,,,,,,,,,,,,,,,,,,,,,,,,,,,676.683325799997,676.8837382000056,676.8670280000078,677.1672520000138,677.1672520000138,None,677.6681791000301,None,d,1,0.6636732000042684,677.6681791000301,None,None,None,,,,,,,,,,,,,,,,,,,,,,,11014,1,1,2024_Jun_03_2057,stroop_task_switching2,2021.2.3,59.80950671884122,
,,,蓝,green,k,diamond,color_mix,颜色,,incompatible,1,block_switch2,instruction/ready_2.png,instruction/i12.png,,,,,,,,,,,,,,,,,0,1,1,1,0,2,2,2,,,,,,,,,,,,,,,,,,,,,,,,,,,678.3523984000203,678.5529986000038,678.537169200019,678.8371049000416,678.8371049000416,None,679.3378206000198,None,k,1,1.225633900030516,679.3378206000198,None,None,None,,,,,,,,,,,,,,,,,,,,,,,11014,1,1,2024_Jun_03_2057,stroop_task_switching2,2021.2.3,59.80950671884122,
,,,红,yellow,j,diamond,color_mix,颜色,,incompatible,1,block_switch2,instruction/ready_2.png,instruction/i12.png,,,,,,,,,,,,,,,,,0,1,1,1,0,3,3,3,,,,,,,,,,,,,,,,,,,,,,,,,,,680.5892834000406,680.78947660001,680.7734630000195,681.0735850000056,681.0735850000056,None,681.5740679000155,None,j,1,0.6455503000179306,681.5740679000155,None,None,None,,,,,,,,,,,,,,,,,,,,,,,11014,1,1,2024_Jun_03_2057,stroop_task_switching2,2021.2.3,59.80950671884122,
,,,红,red,d,diamond,color_mix,颜色,,compatible,1,block_switch2,instruction/ready_2.png,instruction/i12.png,,,,,,,,,,,,,,,,,0,1,1,1,0,4,4,4,,,,,,,,,,,,,,,,,,,,,,,,,,,682.2415358000435,682.4426762000076,682.4251247000066,682.7266845999984,682.7266845999984,None,683.2264027000056,None,d,1,0.6174919999903068,683.2264027000056,None,None,None,,,,,,,,,,,,,,,,,,,,,,,11014,1,1,2024_Jun_03_2057,stroop_task_switching2,2021.2.3,59.80950671884122,
,,,绿,green,k,square,color_mix,单词,,compatible,2,block_switch2,instruction/ready_2.png,instruction/i12.png,,,,,,,,,,,,,,,,,0,1,1,1,0,5,5,5,,,,,,,,,,,,,,,,,,,,,,,,,,,683.8607243000297,684.0613336000242,684.0444942000322,684.3462359000114,684.3462359000114,None,684.8455860000104,None,k,1,0.7101901000132784,684.8455860000104,None,None,None,,,,,,,,,,,,,,,,,,,,,,,11014,1,1,2024_Jun_03_2057,stroop_task_switching2,2021.2.3,59.80950671884122,
