b_pra,ins_blocks,ins_blocks2,stim_word,stim_color,corrAns,cue_type,trial_type,task_type,rand,compatibility,switch,b_test,w_pic,w_pic2,trials_instr.thisRepN,trials_instr.thisTrialN,trials_instr.thisN,trials_instr.thisIndex,block_pra.thisRepN,block_pra.thisTrialN,block_pra.thisN,block_pra.thisIndex,trials_rep.thisRepN,trials_rep.thisTrialN,trials_rep.thisN,trials_rep.thisIndex,trials_pra.thisRepN,trials_pra.thisTrialN,trials_pra.thisN,trials_pra.thisIndex,trials_3.thisRepN,trials_3.thisTrialN,trials_3.thisN,trials_3.thisIndex,trials_2.thisRepN,trials_2.thisTrialN,trials_2.thisN,trials_2.thisIndex,instr_image.started,instr_image.stopped,instr_key_resp.keys,instr_key_resp.rt,instr_key_resp.started,instr_key_resp.stopped,instr_pra_image.started,instr_pra_image.stopped,ip_key_resp.keys,ip_key_resp.rt,ip_key_resp.started,ip_key_resp.stopped,block_image.started,block_image.stopped,ib_key_resp.keys,ib_key_resp.rt,ib_key_resp.started,ib_key_resp.stopped,cd3.started,cd3.stopped,cd2.started,cd2.stopped,cd1.started,cd1.stopped,cd_text.started,cd_text.stopped,text_fix.started,text_fix.stopped,text_2.started,text_2.stopped,text_4.started,text_4.stopped,text_target.started,text_target.stopped,key_resp.keys,key_resp.corr,key_resp.rt,key_resp.started,key_resp.stopped,sceen_black.started,sceen_black.stopped,text_fb.started,text_fb.stopped,text.started,text.stopped,key_bf.keys,key_bf.rt,key_bf.started,key_bf.stopped,instr_test_image.started,instr_test_image.stopped,instr_exp_key_resp.keys,instr_exp_key_resp.rt,instr_exp_key_resp.started,instr_exp_key_resp.stopped,text_rest.started,text_rest.stopped,key_resp_rest.keys,key_resp_rest.rt,key_resp_rest.started,key_resp_rest.stopped,text_3.started,text_3.stopped,participant,session,balance,date,expName,psychopyVersion,frameRate,
,,,,,,,,,,,,,,,0,0,0,0,,,,,,,,,,,,,,,,,,,,,22.988829200039618,None,right,1.5291393999941647,22.988829200039618,None,,,,,,,,,,,,,,,,,,,,,,,,,,,,,,,,,,,,,,,,,,,,,,,,,,,,,,,,,,11015,2,1,2024_Jun_03_1336,stroop_task_switching2,2021.2.3,59.85730020375173,
,,,,,,,,,,,,,,,1,0,1,0,,,,,,,,,,,,,,,,,,,,,24.557908400020096,None,right,0.19218710000859573,24.557908400020096,None,,,,,,,,,,,,,,,,,,,,,,,,,,,,,,,,,,,,,,,,,,,,,,,,,,,,,,,,,,11015,2,1,2024_Jun_03_1336,stroop_task_switching2,2021.2.3,59.85730020375173,
,,,,,,,,,,,,,,,2,0,2,0,,,,,,,,,,,,,,,,,,,,,24.791709700017236,None,right,0.15025919995969161,24.791709700017236,None,,,,,,,,,,,,,,,,,,,,,,,,,,,,,,,,,,,,,,,,,,,,,,,,,,,,,,,,,,11015,2,1,2024_Jun_03_1336,stroop_task_switching2,2021.2.3,59.85730020375173,
,,,,,,,,,,,,,,,3,0,3,0,,,,,,,,,,,,,,,,,,,,,24.97520580003038,None,right,0.12717290001455694,24.97520580003038,None,,,,,,,,,,,,,,,,,,,,,,,,,,,,,,,,,,,,,,,,,,,,,,,,,,,,,,,,,,11015,2,1,2024_Jun_03_1336,stroop_task_switching2,2021.2.3,59.85730020375173,
,,,,,,,,,,,,,,,4,0,4,0,,,,,,,,,,,,,,,,,,,,,25.142012000025716,None,right,0.5278982000309043,25.142012000025716,None,,,,,,,,,,,,,,,,,,,,,,,,,,,,,,,,,,,,,,,,,,,,,,,,,,,,,,,,,,11015,2,1,2024_Jun_03_1336,stroop_task_switching2,2021.2.3,59.85730020375173,
,,,,,,,,,,,,,,,5,0,5,0,,,,,,,,,,,,,,,,,,,,,25.709933800040744,None,right,0.40034039999591187,25.709933800040744,None,,,,,,,,,,,,,,,,,,,,,,,,,,,,,,,,,,,,,,,,,,,,,,,,,,,,,,,,,,11015,2,1,2024_Jun_03_1336,stroop_task_switching2,2021.2.3,59.85730020375173,
,,,,,,,,,,,,,,,,,,,,,,,,,,,,,,,,,,,,,,,,,,,,,26.145663300005253,None,space,2.0739023000351153,26.145663300005253,None,,,,,,,,,,,,,,,,,,,,,,,,,,,,,,,,,,,,,,,,,,,,,,,,,,,,11015,2,1,2024_Jun_03_1336,stroop_task_switching2,2021.2.3,59.85730020375173,
condition/block_color,instruction/instr_color,instruction/i8,XX,red,d,diamond,color_single,颜色,,,,,,,,,,,0,0,0,0,0,0,0,0,0,0,0,0,,,,,,,,,,,,,,,,,,,,,28.26346079999348,None,space,5.27860389999114,28.26346079999348,None,34.62329350004438,35.62483000004431,35.62483000004431,36.628428900032304,36.628428900032304,None,33.6389627000317,34.640182800008915,37.594326700025704,37.79492850002134,37.77937310002744,38.07911769999191,38.07911769999191,None,38.57915400003549,None,d,1,0.6354319000383839,38.57915400003549,None,None,None,39.296856600034516,None,,,,,,,,,,,,,,,,,,,,,11015,2,1,2024_Jun_03_1336,stroop_task_switching2,2021.2.3,59.85730020375173,
condition/block_color,instruction/instr_color,instruction/i8,XX,green,k,diamond,color_single,颜色,,,,,,,,,,,0,0,0,0,0,0,0,0,0,1,1,1,,,,,,,,,,,,,,,,,,,,,,,,,,,,,,,,,,,40.24856740003452,40.45070950000081,40.43198130000383,40.73334470001282,40.73334470001282,None,41.23324110003887,None,k,1,0.7493611000245437,41.23324110003887,None,None,None,42.00117050000699,None,,,,,,,,,,,,,,,,,,,,,11015,2,1,2024_Jun_03_1336,stroop_task_switching2,2021.2.3,59.85730020375173,
condition/block_color,instruction/instr_color,instruction/i8,XX,yellow,j,diamond,color_single,颜色,,,,,,,,,,,0,0,0,0,0,0,0,0,0,2,2,2,,,,,,,,,,,,,,,,,,,,,,,,,,,,,,,,,,,43.003313400025945,43.20477910002228,43.186120700032916,43.48706290003611,43.48706290003611,None,43.98741430003429,None,j,1,0.4994008000358008,43.98741430003429,None,None,None,44.504907900001854,None,,,,,,,,,,,,,,,,,,,,,11015,2,1,2024_Jun_03_1336,stroop_task_switching2,2021.2.3,59.85730020375173,
condition/block_color,instruction/instr_color,instruction/i8,XX,blue,f,diamond,color_single,颜色,,,,,,,,,,,0,0,0,0,0,0,0,0,0,3,3,3,,,,,,,,,,,,,,,,,,,,,,,,,,,,,,,,,,,45.50621580000734,45.70720950001851,45.6897592000314,45.99257750000106,45.99257750000106,None,46.491058800020255,None,f,1,0.4754704999504611,46.491058800020255,None,None,None,46.99206520000007,None,,,,,,,,,,,,,,,,,,,,,11015,2,1,2024_Jun_03_1336,stroop_task_switching2,2021.2.3,59.85730020375173,
condition/block_color,instruction/instr_color,instruction/i8,XX,green,k,diamond,color_single,颜色,,,,,,,,,,,0,0,0,0,0,0,0,0,0,4,4,4,,,,,,,,,,,,,,,,,,,,,,,,,,,,,,,,,,,47.993558900023345,48.19458060001489,48.177003999997396,48.477513000019826,48.477513000019826,None,48.97829920001095,None,k,1,0.9806051999912597,48.97829920001095,None,None,None,49.97967229998903,None,,,,,,,,,,,,,,,,,,,,,11015,2,1,2024_Jun_03_1336,stroop_task_switching2,2021.2.3,59.85730020375173,
condition/block_color,instruction/instr_color,instruction/i8,XX,yellow,j,diamond,color_single,颜色,,,,,,,,,,,0,0,0,0,0,0,0,0,0,5,5,5,,,,,,,,,,,,,,,,,,,,,,,,,,,,,,,,,,,50.98135820002062,51.181585900019854,51.16596290003508,51.466585999995004,51.466585999995004,None,51.966082700004335,None,j,1,0.47290689998771995,51.966082700004335,None,None,None,52.467015100002754,None,,,,,,,,,,,,,,,,,,,,,11015,2,1,2024_Jun_03_1336,stroop_task_switching2,2021.2.3,59.85730020375173,
condition/block_color,instruction/instr_color,instruction/i8,XX,blue,f,diamond,color_single,颜色,,,,,,,,,,,0,0,0,0,0,0,0,0,0,6,6,6,,,,,,,,,,,,,,,,,,,,,,,,,,,,,,,,,,,53.46850489999633,53.66854790004436,53.65294180001365,53.95353180001257,53.95353180001257,None,54.45323059998918,None,f,1,0.5214923999737948,54.45323059998918,None,None,None,55.021144600003026,None,,,,,,,,,,,,,,,,,,,,,11015,2,1,2024_Jun_03_1336,stroop_task_switching2,2021.2.3,59.85730020375173,
condition/block_color,instruction/instr_color,instruction/i8,XX,red,d,diamond,color_single,颜色,,,,,,,,,,,0,0,0,0,0,0,0,0,0,7,7,7,,,,,,,,,,,,,,,,,,,,,,,,,,,,,,,,,,,56.02281260001473,56.224501400021836,56.20580420002807,56.50740659999428,56.48959680000553,None,56.99040780001087,None,d,1,0.632582199992612,56.99040780001087,None,None,None,57.64122920000227,None,,,,,,,,,,,,,,,,,,,,,11015,2,1,2024_Jun_03_1336,stroop_task_switching2,2021.2.3,59.85730020375173,
condition/block_color,instruction/instr_color,instruction/i8,XX,yellow,j,diamond,color_single,颜色,,,,,,,,,,,0,0,0,0,0,0,0,0,0,8,8,8,,,,,,,,,,,,,,,,,,,,,,,,,,,,,,,,,,,58.642897700017784,58.84396259998903,58.82646479998948,59.12817800004268,59.110262600006536,None,59.61168720002752,None,j,1,0.9232574000488967,59.61168720002752,None,None,None,60.56223979999777,None,,,,,,,,,,,,,,,,,,,,,11015,2,1,2024_Jun_03_1336,stroop_task_switching2,2021.2.3,59.85730020375173,
condition/block_color,instruction/instr_color,instruction/i8,XX,blue,f,diamond,color_single,颜色,,,,,,,,,,,0,0,0,0,0,0,0,0,0,9,9,9,,,,,,,,,,,,,,,,,,,,,,,,,,,,,,,,,,,61.56386110000312,61.764656400016975,61.74734310002532,62.04812719998881,62.04812719998881,None,62.548764600011054,None,f,1,0.9782805999857374,62.548764600011054,None,None,None,63.550111300020944,None,,,,,,,,,,,,,,,,,,,,,11015,2,1,2024_Jun_03_1336,stroop_task_switching2,2021.2.3,59.85730020375173,
condition/block_color,instruction/instr_color,instruction/i8,XX,red,d,diamond,color_single,颜色,,,,,,,,,,,0,0,0,0,0,0,0,0,0,10,10,10,,,,,,,,,,,,,,,,,,,,,,,,,,,,,,,,,,,64.5520534000243,64.75288260000525,64.73541530000512,65.03587090002839,65.03587090002839,None,65.53668260003906,None,d,1,0.6303984999540262,65.53668260003906,None,None,None,66.18764320004266,None,,,,,,,,,,,,,,,,,,,,,11015,2,1,2024_Jun_03_1336,stroop_task_switching2,2021.2.3,59.85730020375173,
condition/block_color,instruction/instr_color,instruction/i8,XX,green,k,diamond,color_single,颜色,,,,,,,,,,,0,0,0,0,0,0,0,0,0,11,11,11,,,,,,,,,,,,,,,,,,,,,,,,,,,,,,,,,,,67.18888010003138,67.38929760002065,67.37422980001429,67.67323160002707,67.67323160002707,None,68.17381400003796,None,k,1,0.5932805000338703,68.17381400003796,None,None,None,68.79148990003159,None,,,,,,,,,,,,,,,,,,,,,11015,2,1,2024_Jun_03_1336,stroop_task_switching2,2021.2.3,59.85730020375173,
condition/block_color,instruction/instr_color,instruction/i8,XX,blue,f,diamond,color_single,颜色,,,,,,,,,,,0,0,0,0,0,0,0,0,0,12,12,12,,,,,,,,,,,,,,,,,,,,,,,,,,,,,,,,,,,69.79288110003108,69.99316430004546,69.97702839999693,70.27681760000996,70.27681760000996,None,70.77780380001059,None,f,1,0.445346399967093,70.77780380001059,None,None,None,71.24503520003054,None,,,,,,,,,,,,,,,,,,,,,11015,2,1,2024_Jun_03_1336,stroop_task_switching2,2021.2.3,59.85730020375173,
condition/block_color,instruction/instr_color,instruction/i8,XX,red,d,diamond,color_single,颜色,,,,,,,,,,,0,0,0,0,0,0,0,0,0,13,13,13,,,,,,,,,,,,,,,,,,,,,,,,,,,,,,,,,,,72.24672390002524,72.44785480003338,72.43029360001674,72.73140129999956,72.73140129999956,None,73.23137450002832,None,d,1,0.5118880000081845,73.23137450002832,None,None,None,73.76712830003817,None,,,,,,,,,,,,,,,,,,,,,11015,2,1,2024_Jun_03_1336,stroop_task_switching2,2021.2.3,59.85730020375173,
condition/block_color,instruction/instr_color,instruction/i8,XX,green,k,diamond,color_single,颜色,,,,,,,,,,,0,0,0,0,0,0,0,0,0,14,14,14,,,,,,,,,,,,,,,,,,,,,,,,,,,,,,,,,,,74.76718920003623,74.96758400002727,74.95127730001695,75.2513415000285,75.2513415000285,None,75.75194730004296,None,k,1,0.8156483999919146,75.75194730004296,None,None,None,76.58640740002738,None,,,,,,,,,,,,,,,,,,,,,11015,2,1,2024_Jun_03_1336,stroop_task_switching2,2021.2.3,59.85730020375173,
condition/block_color,instruction/instr_color,instruction/i8,XX,yellow,j,diamond,color_single,颜色,,,,,,,,,,,0,0,0,0,0,0,0,0,0,15,15,15,,,,,,,,,,,,,,,,,,,,,,,,,,,,,,,,,,,77.589186600002,77.78899750002893,77.77285320003284,78.07419170002686,78.07419170002686,None,78.58966009999858,None,j,1,0.32988059998024255,78.58966009999858,None,None,None,78.94017210003221,None,,,,,,,,,,,,,,,,,,,,,11015,2,1,2024_Jun_03_1336,stroop_task_switching2,2021.2.3,59.85730020375173,
condition/block_color,instruction/instr_color,instruction/i8,XX,red,d,diamond,color_single,颜色,,,,,,,,,,,0,0,0,0,0,0,0,0,0,16,16,16,,,,,,,,,,,,,,,,,,,,,,,,,,,,,,,,,,,79.94169040000997,80.14269700000295,80.12526810000418,80.42605100001674,80.42605100001674,None,80.92633930000011,None,d,1,0.38520690001314506,80.92633930000011,None,None,None,81.32727450004313,None,,,,,,,,,,,,,,,,,,,,,11015,2,1,2024_Jun_03_1336,stroop_task_switching2,2021.2.3,59.85730020375173,
condition/block_color,instruction/instr_color,instruction/i8,XX,green,k,diamond,color_single,颜色,,,,,,,,,,,0,0,0,0,0,0,0,0,0,17,17,17,,,,,,,,,,,,,,,,,,,,,,,,,,,,,,,,,,,82.32860200002324,82.52961690002121,82.51220699999249,82.81310720002512,82.81310720002512,None,83.31313200003933,None,k,1,0.5345317000173964,83.31313200003933,None,None,None,83.86420920002274,None,,,,,,,,,,,,,,,,,,,,,11015,2,1,2024_Jun_03_1336,stroop_task_switching2,2021.2.3,59.85730020375173,
condition/block_color,instruction/instr_color,instruction/i8,XX,yellow,j,diamond,color_single,颜色,,,,,,,,,,,0,0,0,0,0,0,0,0,0,18,18,18,,,,,,,,,,,,,,,,,,,,,,,,,,,,,,,,,,,84.86565680004423,85.06646960001672,85.04919839999638,85.3498566999915,85.3498566999915,None,85.85035100003006,None,j,1,0.9410303000477143,85.85035100003006,None,None,None,86.81878040003357,None,,,,,,,,,,,,,,,,,,,,,11015,2,1,2024_Jun_03_1336,stroop_task_switching2,2021.2.3,59.85730020375173,
condition/block_color,instruction/instr_color,instruction/i8,XX,blue,f,diamond,color_single,颜色,,,,,,,,,,,0,0,0,0,0,0,0,0,0,19,19,19,,,,,,,,,,,,,,,,,,,,,,,,,,,,,,,,,,,87.82011000002967,88.02142420003656,88.00380310002947,88.30418189999182,88.30418189999182,None,88.80498270003591,None,f,1,0.46724329999415204,88.80498270003591,None,None,None,89.28903790004551,None,,,,,,,,,,,,,,,,,,,,,11015,2,1,2024_Jun_03_1336,stroop_task_switching2,2021.2.3,59.85730020375173,
condition/block_color,instruction/instr_color,instruction/i8,XX,green,k,diamond,color_single,颜色,,,,,,,,,,,0,0,0,0,0,0,0,0,0,20,20,20,,,,,,,,,,,,,,,,,,,,,,,,,,,,,,,,,,,90.29081219999352,90.49237530003302,90.4756272000377,90.77466850000201,90.77466850000201,None,91.27539990004152,None,k,1,0.7643441000254825,91.27539990004152,None,None,None,92.05996530002449,None,,,,,,,,,,,,,,,,,,,,,11015,2,1,2024_Jun_03_1336,stroop_task_switching2,2021.2.3,59.85730020375173,
condition/block_color,instruction/instr_color,instruction/i8,XX,yellow,j,diamond,color_single,颜色,,,,,,,,,,,0,0,0,0,0,0,0,0,0,21,21,21,,,,,,,,,,,,,,,,,,,,,,,,,,,,,,,,,,,93.06139350001467,93.26162720000139,93.24506420001853,93.54551110003376,93.54551110003376,None,94.04691259999527,None,j,1,0.7929982999921776,94.04691259999527,None,None,None,94.8639930000063,None,,,,,,,,,,,,,,,,,,,,,11015,2,1,2024_Jun_03_1336,stroop_task_switching2,2021.2.3,59.85730020375173,
condition/block_color,instruction/instr_color,instruction/i8,XX,blue,f,diamond,color_single,颜色,,,,,,,,,,,0,0,0,0,0,0,0,0,0,22,22,22,,,,,,,,,,,,,,,,,,,,,,,,,,,,,,,,,,,95.86564470001031,96.06679519999307,96.04920860001585,96.3517356000375,96.3517356000375,None,96.85044670000207,None,f,1,0.3495322000235319,96.85044670000207,None,None,None,97.21762220002711,None,,,,,,,,,,,,,,,,,,,,,11015,2,1,2024_Jun_03_1336,stroop_task_switching2,2021.2.3,59.85730020375173,
condition/block_color,instruction/instr_color,instruction/i8,XX,red,d,diamond,color_single,颜色,,,,,,,,,,,0,0,0,0,0,0,0,0,0,23,23,23,,,,,,,,,,,,,,,,,,,,,,,,,,,,,,,,,,,98.2191637000069,98.42024639999727,98.4034462000127,98.70314550003968,98.70314550003968,None,99.20456849999027,None,d,1,0.3237608000054024,99.20456849999027,None,None,None,99.55454290000489,None,,,,,,,,,,,,,,,,,,,,,11015,2,1,2024_Jun_03_1336,stroop_task_switching2,2021.2.3,59.85730020375173,
condition/block_color,instruction/instr_color,instruction/i8,,,,,,,,,,,,,,,,,0,0,0,0,0,0,0,0,,,,,,,,,,,,,,,,,,,,,,,,,,,,,,,,,,,,,,,,,,,,,,,,,,,,,,,,100.57275520003168,None,space,4.27528549998533,100.57275520003168,None,,,,,,,,,,,,,,,11015,2,1,2024_Jun_03_1336,stroop_task_switching2,2021.2.3,59.85730020375173,
condition/block_color,instruction/instr_color,instruction/i8,,,,,,,,,,,,,,,,,0,0,0,0,,,,,,,,,,,,,,,,,,,,,,,,,,,,,,,,,,,,,,,,,,,,,,,,,,,,,,,,,,,,,,,,,,,,,,,,,,,,,,,,11015,2,1,2024_Jun_03_1336,stroop_task_switching2,2021.2.3,59.85730020375173,
condition/block_word,instruction/instr_word,instruction/i9,黄,white,j,square,word_single,单词,0.0032461461866890584,,,,,,,,,,0,1,1,1,0,0,0,0,0,0,0,0,,,,,,,,,,,,,,,,,,,,,104.8959566000267,None,space,1.632187300012447,104.8959566000267,None,107.5520917000249,108.55179280001903,108.55179280001903,109.55333399999654,109.55333399999654,None,106.56581250001909,107.56673080002656,110.5712129000458,110.77233150001848,110.7547523000394,111.05679589998908,111.05679589998908,None,111.55583820003085,None,j,1,0.6284381000441499,111.55583820003085,None,None,None,112.24068520002766,None,,,,,,,,,,,,,,,,,,,,,11015,2,1,2024_Jun_03_1336,stroop_task_switching2,2021.2.3,59.85730020375173,
condition/block_word,instruction/instr_word,instruction/i9,蓝,white,f,square,word_single,单词,0.060540570646362424,,,,,,,,,,0,1,1,1,0,0,0,0,0,1,1,1,,,,,,,,,,,,,,,,,,,,,,,,,,,,,,,,,,,113.22507620003307,113.42651160003152,113.41160360001959,113.7093880000175,113.7093880000175,None,114.20992809999734,None,f,1,0.5666568000451662,114.20992809999734,None,None,None,114.79413930000737,None,,,,,,,,,,,,,,,,,,,,,11015,2,1,2024_Jun_03_1336,stroop_task_switching2,2021.2.3,59.85730020375173,
condition/block_word,instruction/instr_word,instruction/i9,黄,white,j,square,word_single,单词,0.06994067193778963,,,,,,,,,,0,1,1,1,0,0,0,0,0,2,2,2,,,,,,,,,,,,,,,,,,,,,,,,,,,,,,,,,,,115.7956533000106,115.99669880000874,115.97921100002714,116.2805274000275,116.2805274000275,None,116.78045580000617,None,j,1,0.5804285999620333,116.78045580000617,None,None,None,117.38160960003734,None,,,,,,,,,,,,,,,,,,,,,11015,2,1,2024_Jun_03_1336,stroop_task_switching2,2021.2.3,59.85730020375173,
condition/block_word,instruction/instr_word,instruction/i9,蓝,white,f,square,word_single,单词,0.08193765152950094,,,,,,,,,,0,1,1,1,0,0,0,0,0,3,3,3,,,,,,,,,,,,,,,,,,,,,,,,,,,,,,,,,,,118.38310420000926,118.58410169999115,118.56787450000411,118.86882189998869,118.86882189998869,None,119.3678496000357,None,f,1,0.5044514000182971,119.3678496000357,None,None,None,119.91917010000907,None,,,,,,,,,,,,,,,,,,,,,11015,2,1,2024_Jun_03_1336,stroop_task_switching2,2021.2.3,59.85730020375173,
condition/block_word,instruction/instr_word,instruction/i9,红,white,d,square,word_single,单词,0.1279694370605574,,,,,,,,,,0,1,1,1,0,0,0,0,0,4,4,4,,,,,,,,,,,,,,,,,,,,,,,,,,,,,,,,,,,120.921623000002,121.12066620000405,121.0868851999985,121.38819050003076,121.38819050003076,None,121.88824910001131,None,d,1,0.6883427000138909,121.88824910001131,None,None,None,122.60532640002202,None,,,,,,,,,,,,,,,,,,,,,11015,2,1,2024_Jun_03_1336,stroop_task_switching2,2021.2.3,59.85730020375173,
condition/block_word,instruction/instr_word,instruction/i9,红,white,d,square,word_single,单词,0.18345028784879092,,,,,,,,,,0,1,1,1,0,0,0,0,0,5,5,5,,,,,,,,,,,,,,,,,,,,,,,,,,,,,,,,,,,123.60745000001043,123.80791570001747,123.7918006000109,124.09201600000961,124.09201600000961,None,124.5936967000016,None,d,1,0.44730359996901825,124.5936967000016,None,None,None,125.06020080001326,None,,,,,,,,,,,,,,,,,,,,,11015,2,1,2024_Jun_03_1336,stroop_task_switching2,2021.2.3,59.85730020375173,
condition/block_word,instruction/instr_word,instruction/i9,蓝,white,f,square,word_single,单词,0.19920386223101294,,,,,,,,,,0,1,1,1,0,0,0,0,0,6,6,6,,,,,,,,,,,,,,,,,,,,,,,,,,,,,,,,,,,126.06107009999687,126.26339209999423,126.2449023000081,126.54533310001716,126.54533310001716,None,127.04594690003432,None,f,1,0.5470109999878332,127.04594690003432,None,None,None,127.61361790000228,None,,,,,,,,,,,,,,,,,,,,,11015,2,1,2024_Jun_03_1336,stroop_task_switching2,2021.2.3,59.85730020375173,
condition/block_word,instruction/instr_word,instruction/i9,蓝,white,f,square,word_single,单词,0.26360599864925405,,,,,,,,,,0,1,1,1,0,0,0,0,0,7,7,7,,,,,,,,,,,,,,,,,,,,,,,,,,,,,,,,,,,128.6150392999989,128.81640440004412,128.79842200002167,129.10008720000042,129.10008720000042,None,129.59979260002729,None,f,1,0.4972110000089742,129.59979260002729,None,None,None,130.1174464999931,None,,,,,,,,,,,,,,,,,,,,,11015,2,1,2024_Jun_03_1336,stroop_task_switching2,2021.2.3,59.85730020375173,
condition/block_word,instruction/instr_word,instruction/i9,蓝,white,f,square,word_single,单词,0.358985675745526,,,,,,,,,,0,1,1,1,0,0,0,0,0,8,8,8,,,,,,,,,,,,,,,,,,,,,,,,,,,,,,,,,,,131.11883940000553,131.31898199999705,131.30364910000935,131.60278790001757,131.60278790001757,None,132.10375870001735,None,f,1,0.3770316999871284,132.10375870001735,None,None,None,132.50436830002582,None,,,,,,,,,,,,,,,,,,,,,11015,2,1,2024_Jun_03_1336,stroop_task_switching2,2021.2.3,59.85730020375173,
condition/block_word,instruction/instr_word,instruction/i9,绿,white,k,square,word_single,单词,0.36496733802487347,,,,,,,,,,0,1,1,1,0,0,0,0,0,9,9,9,,,,,,,,,,,,,,,,,,,,,,,,,,,,,,,,,,,133.5057520000264,133.70596630004002,133.68951300001936,133.99176180001814,133.99176180001814,None,134.50719100004062,None,j,0,0.445807300042361,134.50719100004062,None,None,None,134.9743745000451,None,,,,,,,,,,,,,,,,,,,,,11015,2,1,2024_Jun_03_1336,stroop_task_switching2,2021.2.3,59.85730020375173,
condition/block_word,instruction/instr_word,instruction/i9,黄,white,j,square,word_single,单词,0.3743513623756727,,,,,,,,,,0,1,1,1,0,0,0,0,0,10,10,10,,,,,,,,,,,,,,,,,,,,,,,,,,,,,,,,,,,135.97612380003557,136.1768389000208,136.15963430004194,136.4602322000428,136.4602322000428,None,136.96089260000736,None,j,1,0.3842437000130303,136.96089260000736,None,None,None,137.36161180003546,None,,,,,,,,,,,,,,,,,,,,,11015,2,1,2024_Jun_03_1336,stroop_task_switching2,2021.2.3,59.85730020375173,
condition/block_word,instruction/instr_word,instruction/i9,红,white,d,square,word_single,单词,0.3894803852598544,,,,,,,,,,0,1,1,1,0,0,0,0,0,11,11,11,,,,,,,,,,,,,,,,,,,,,,,,,,,,,,,,,,,138.36297980003292,138.56479890004266,138.5467785000219,138.84802870004205,138.84802870004205,None,139.3482542000129,None,d,1,0.5331405000179075,139.3482542000129,None,None,None,139.89903780003078,None,,,,,,,,,,,,,,,,,,,,,11015,2,1,2024_Jun_03_1336,stroop_task_switching2,2021.2.3,59.85730020375173,
condition/block_word,instruction/instr_word,instruction/i9,绿,white,k,square,word_single,单词,0.5393759672408067,,,,,,,,,,0,1,1,1,0,0,0,0,0,12,12,12,,,,,,,,,,,,,,,,,,,,,,,,,,,,,,,,,,,140.90065760002472,141.10084289999213,141.0859626000165,141.38440580002498,141.38440580002498,None,141.8848875000258,None,k,1,0.5641513000009581,141.8848875000258,None,None,None,142.46921260003,None,,,,,,,,,,,,,,,,,,,,,11015,2,1,2024_Jun_03_1336,stroop_task_switching2,2021.2.3,59.85730020375173,
condition/block_word,instruction/instr_word,instruction/i9,蓝,white,f,square,word_single,单词,0.5995731954831104,,,,,,,,,,0,1,1,1,0,0,0,0,0,13,13,13,,,,,,,,,,,,,,,,,,,,,,,,,,,,,,,,,,,143.47063049999997,143.67265469999984,143.65436290000798,143.9549480000278,143.9549480000278,None,144.4554793999996,None,f,1,0.5536242000525817,144.4554793999996,None,None,None,145.03928000002634,None,,,,,,,,,,,,,,,,,,,,,11015,2,1,2024_Jun_03_1336,stroop_task_switching2,2021.2.3,59.85730020375173,
condition/block_word,instruction/instr_word,instruction/i9,红,white,d,square,word_single,单词,0.6298674479151414,,,,,,,,,,0,1,1,1,0,0,0,0,0,14,14,14,,,,,,,,,,,,,,,,,,,,,,,,,,,,,,,,,,,146.04152210004395,146.2421658000094,146.2248244000366,146.52789289999055,146.52789289999055,None,147.0427913000458,None,d,1,0.5023531000479124,147.0427913000458,None,None,None,147.5602358999895,None,,,,,,,,,,,,,,,,,,,,,11015,2,1,2024_Jun_03_1336,stroop_task_switching2,2021.2.3,59.85730020375173,
condition/block_word,instruction/instr_word,instruction/i9,红,white,d,square,word_single,单词,0.7389942282348904,,,,,,,,,,0,1,1,1,0,0,0,0,0,15,15,15,,,,,,,,,,,,,,,,,,,,,,,,,,,,,,,,,,,148.56174730003113,148.76349820004543,148.7454319000244,149.0458849000279,149.0458849000279,None,149.54672990000108,None,d,1,0.4626204000087455,149.54672990000108,None,None,None,150.03101590002188,None,,,,,,,,,,,,,,,,,,,,,11015,2,1,2024_Jun_03_1336,stroop_task_switching2,2021.2.3,59.85730020375173,
condition/block_word,instruction/instr_word,instruction/i9,绿,white,k,square,word_single,单词,0.7550853947239682,,,,,,,,,,0,1,1,1,0,0,0,0,0,16,16,16,,,,,,,,,,,,,,,,,,,,,,,,,,,,,,,,,,,151.0323136000079,151.23450760002015,151.2159529000055,151.51713400002336,151.51713400002336,None,152.01753459998872,None,k,1,0.784484599949792,152.01753459998872,None,None,None,152.8179655999993,None,,,,,,,,,,,,,,,,,,,,,11015,2,1,2024_Jun_03_1336,stroop_task_switching2,2021.2.3,59.85730020375173,
condition/block_word,instruction/instr_word,instruction/i9,绿,white,k,square,word_single,单词,0.8019302780428206,,,,,,,,,,0,1,1,1,0,0,0,0,0,17,17,17,,,,,,,,,,,,,,,,,,,,,,,,,,,,,,,,,,,153.81997130002128,154.0199750000029,154.00461160001578,154.30388020002283,154.30388020002283,None,154.80449260002933,None,k,1,0.46108530001947656,154.80449260002933,None,None,None,155.28859150002245,None,,,,,,,,,,,,,,,,,,,,,11015,2,1,2024_Jun_03_1336,stroop_task_switching2,2021.2.3,59.85730020375173,
condition/block_word,instruction/instr_word,instruction/i9,绿,white,k,square,word_single,单词,0.8110702914095343,,,,,,,,,,0,1,1,1,0,0,0,0,0,18,18,18,,,,,,,,,,,,,,,,,,,,,,,,,,,,,,,,,,,156.2898739000084,156.49213080003392,156.47365040000295,156.77457750000758,156.77457750000758,None,157.27501919999486,None,j,0,0.6386940000229515,157.27501919999486,None,None,None,157.95944950002013,None,,,,,,,,,,,,,,,,,,,,,11015,2,1,2024_Jun_03_1336,stroop_task_switching2,2021.2.3,59.85730020375173,
condition/block_word,instruction/instr_word,instruction/i9,黄,white,j,square,word_single,单词,0.8176594937590999,,,,,,,,,,0,1,1,1,0,0,0,0,0,19,19,19,,,,,,,,,,,,,,,,,,,,,,,,,,,,,,,,,,,158.96133840002585,159.16108749998966,159.14440520002972,159.44659669999965,159.44659669999965,None,159.94562000001315,None,j,1,0.5919466999475844,159.94562000001315,None,None,None,160.56341570004588,None,,,,,,,,,,,,,,,,,,,,,11015,2,1,2024_Jun_03_1336,stroop_task_switching2,2021.2.3,59.85730020375173,
condition/block_word,instruction/instr_word,instruction/i9,红,white,d,square,word_single,单词,0.8955794421104841,,,,,,,,,,0,1,1,1,0,0,0,0,0,20,20,20,,,,,,,,,,,,,,,,,,,,,,,,,,,,,,,,,,,161.56517840002198,161.76487579999957,161.74926280003274,162.04887190001318,162.04887190001318,None,162.54984680004418,None,d,1,0.507950900006108,162.54984680004418,None,None,None,163.08359090000158,None,,,,,,,,,,,,,,,,,,,,,11015,2,1,2024_Jun_03_1336,stroop_task_switching2,2021.2.3,59.85730020375173,
condition/block_word,instruction/instr_word,instruction/i9,绿,white,k,square,word_single,单词,0.9113598052474129,,,,,,,,,,0,1,1,1,0,0,0,0,0,21,21,21,,,,,,,,,,,,,,,,,,,,,,,,,,,,,,,,,,,164.0850930000306,164.28665290004574,164.26872390002245,164.5691652999958,164.5691652999958,None,165.07011030003196,None,f,0,0.467783700034488,165.07011030003196,None,None,None,165.55399109999416,None,,,,,,,,,,,,,,,,,,,,,11015,2,1,2024_Jun_03_1336,stroop_task_switching2,2021.2.3,59.85730020375173,
condition/block_word,instruction/instr_word,instruction/i9,黄,white,j,square,word_single,单词,0.9215930958042953,,,,,,,,,,0,1,1,1,0,0,0,0,0,22,22,22,,,,,,,,,,,,,,,,,,,,,,,,,,,,,,,,,,,166.55549719999544,166.75713600002928,166.73919630004093,167.0405058999895,167.0405058999895,None,167.54058349999832,None,j,1,0.6453265000018291,167.54058349999832,None,None,None,168.20804810000118,None,,,,,,,,,,,,,,,,,,,,,11015,2,1,2024_Jun_03_1336,stroop_task_switching2,2021.2.3,59.85730020375173,
condition/block_word,instruction/instr_word,instruction/i9,黄,white,j,square,word_single,单词,0.9493525498837774,,,,,,,,,,0,1,1,1,0,0,0,0,0,23,23,23,,,,,,,,,,,,,,,,,,,,,,,,,,,,,,,,,,,169.20965790003538,169.41075380000984,169.39318210002966,169.69417860003887,169.69417860003887,None,170.1944828000269,None,j,1,0.6873351999674924,170.1944828000269,None,None,None,170.91220650001196,None,,,,,,,,,,,,,,,,,,,,,11015,2,1,2024_Jun_03_1336,stroop_task_switching2,2021.2.3,59.85730020375173,
condition/block_word,instruction/instr_word,instruction/i9,,,,,,,,,,,,,,,,,0,1,1,1,0,0,0,0,,,,,,,,,,,,,,,,,,,,,,,,,,,,,,,,,,,,,,,,,,,,,,,,,,,,,,,,171.91318959998898,None,space,1.961033099971246,171.91318959998898,None,,,,,,,,,,,,,,,11015,2,1,2024_Jun_03_1336,stroop_task_switching2,2021.2.3,59.85730020375173,
condition/block_word,instruction/instr_word,instruction/i9,,,,,,,,,,,,,,,,,0,1,1,1,,,,,,,,,,,,,,,,,,,,,,,,,,,,,,,,,,,,,,,,,,,,,,,,,,,,,,,,,,,,,,,,,,,,,,,,,,,,,,,,11015,2,1,2024_Jun_03_1336,stroop_task_switching2,2021.2.3,59.85730020375173,
condition/block_mixed,instruction/instr_mixed,instruction/i10,蓝,red,d,diamond,color_mix,颜色,,incompatible,0,,,,,,,,0,2,2,2,0,0,0,0,0,0,0,0,,,,,,,,,,,,,,,,,,,,,173.9339694000082,None,space,1.1961384999449365,173.9339694000082,None,176.15454360004514,177.15547880000668,177.15547880000668,178.15706590004265,178.15706590004265,None,175.16866640001535,176.17000530002406,179.19184959999984,179.39191450004,179.37497010000516,179.67589270003373,179.67589270003373,None,180.15933310001856,None,d,1,1.3708860999904573,180.15933310001856,None,None,None,181.5949399000383,None,,,,,,,,,,,,,,,,,,,,,11015,2,1,2024_Jun_03_1336,stroop_task_switching2,2021.2.3,59.85730020375173,
condition/block_mixed,instruction/instr_mixed,instruction/i10,绿,yellow,j,diamond,color_mix,颜色,,incompatible,1,,,,,,,,0,2,2,2,0,0,0,0,0,1,1,1,,,,,,,,,,,,,,,,,,,,,,,,,,,,,,,,,,,182.59627070004353,182.79687880002894,182.7808410000289,183.08046299999114,183.08046299999114,None,183.58133240003372,None,j,1,0.876960399968084,183.58133240003372,None,None,None,184.48261290002847,None,,,,,,,,,,,,,,,,,,,,,11015,2,1,2024_Jun_03_1336,stroop_task_switching2,2021.2.3,59.85730020375173,
condition/block_mixed,instruction/instr_mixed,instruction/i10,红,green,k,diamond,color_mix,颜色,,incompatible,1,,,,,,,,0,2,2,2,0,0,0,0,0,2,2,2,,,,,,,,,,,,,,,,,,,,,,,,,,,,,,,,,,,185.48393530002795,185.68613089999417,185.6676492000115,185.96824740001466,185.96824740001466,None,186.46894680004334,None,k,1,0.7094308999949135,186.46894680004334,None,None,None,187.20327130000805,None,,,,,,,,,,,,,,,,,,,,,11015,2,1,2024_Jun_03_1336,stroop_task_switching2,2021.2.3,59.85730020375173,
condition/block_mixed,instruction/instr_mixed,instruction/i10,蓝,red,d,diamond,color_mix,颜色,,incompatible,1,,,,,,,,0,2,2,2,0,0,0,0,0,3,3,3,,,,,,,,,,,,,,,,,,,,,,,,,,,,,,,,,,,188.20479290001094,188.40516480000224,188.3895270000212,188.6893864000449,188.6893864000449,None,189.18988970003556,None,d,1,0.7966997000039555,189.18988970003556,None,None,None,190.00764270004584,None,,,,,,,,,,,,,,,,,,,,,11015,2,1,2024_Jun_03_1336,stroop_task_switching2,2021.2.3,59.85730020375173,
condition/block_mixed,instruction/instr_mixed,instruction/i10,红,blue,f,diamond,color_mix,颜色,,incompatible,1,,,,,,,,0,2,2,2,0,0,0,0,0,4,4,4,,,,,,,,,,,,,,,,,,,,,,,,,,,,,,,,,,,191.00901540002087,191.21117710002,191.19269970001187,191.49324600002728,191.49324600002728,None,191.99390900001163,None,f,1,0.5765425999998115,191.99390900001163,None,None,None,192.59492599999066,None,,,,,,,,,,,,,,,,,,,,,11015,2,1,2024_Jun_03_1336,stroop_task_switching2,2021.2.3,59.85730020375173,
condition/block_mixed,instruction/instr_mixed,instruction/i10,红,blue,d,square,color_mix,单词,,incompatible,2,,,,,,,,0,2,2,2,0,0,0,0,0,5,5,5,,,,,,,,,,,,,,,,,,,,,,,,,,,,,,,,,,,193.59679360000882,193.7966494000284,193.78059560002293,194.08166379999602,194.08166379999602,None,194.58196899999166,None,d,1,1.3807592000230215,194.58196899999166,None,None,None,195.98327760002576,None,,,,,,,,,,,,,,,,,,,,,11015,2,1,2024_Jun_03_1336,stroop_task_switching2,2021.2.3,59.85730020375173,
condition/block_mixed,instruction/instr_mixed,instruction/i10,红,yellow,j,diamond,color_mix,颜色,,incompatible,2,,,,,,,,0,2,2,2,0,0,0,0,0,6,6,6,,,,,,,,,,,,,,,,,,,,,,,,,,,,,,,,,,,196.9854736000416,197.18597440002486,197.16836190002505,197.47092749999138,197.47092749999138,None,197.98642640002072,None,j,1,0.5284102999721654,197.98642640002072,None,None,None,198.53733570000622,None,,,,,,,,,,,,,,,,,,,,,11015,2,1,2024_Jun_03_1336,stroop_task_switching2,2021.2.3,59.85730020375173,
condition/block_mixed,instruction/instr_mixed,instruction/i10,红,yellow,d,square,color_mix,单词,,incompatible,2,,,,,,,,0,2,2,2,0,0,0,0,0,7,7,7,,,,,,,,,,,,,,,,,,,,,,,,,,,,,,,,,,,199.5386889000074,199.73901700001443,199.72263770003337,200.02271990000736,200.02271990000736,None,200.5232137000421,None,d,1,1.6395331000094302,200.5232137000421,None,None,None,202.20978370000375,None,,,,,,,,,,,,,,,,,,,,,11015,2,1,2024_Jun_03_1336,stroop_task_switching2,2021.2.3,59.85730020375173,
condition/block_mixed,instruction/instr_mixed,instruction/i10,绿,blue,k,square,color_mix,单词,,incompatible,1,,,,,,,,0,2,2,2,0,0,0,0,0,8,8,8,,,,,,,,,,,,,,,,,,,,,,,,,,,,,,,,,,,203.21078910003416,203.4112062000204,203.3777769000153,203.67898580001201,203.67898580001201,None,204.17891950003104,None,k,1,0.9120619000168517,204.17891950003104,None,None,None,205.11411190003855,None,,,,,,,,,,,,,,,,,,,,,11015,2,1,2024_Jun_03_1336,stroop_task_switching2,2021.2.3,59.85730020375173,
condition/block_mixed,instruction/instr_mixed,instruction/i10,蓝,green,k,diamond,color_mix,颜色,,incompatible,2,,,,,,,,0,2,2,2,0,0,0,0,0,9,9,9,,,,,,,,,,,,,,,,,,,,,,,,,,,,,,,,,,,206.11518180003623,206.31689539999934,206.29885600000853,206.59944960003486,206.59944960003486,None,207.10048810002627,None,k,1,1.4787417000043206,207.10048810002627,None,None,None,208.602145700017,None,,,,,,,,,,,,,,,,,,,,,11015,2,1,2024_Jun_03_1336,stroop_task_switching2,2021.2.3,59.85730020375173,
condition/block_mixed,instruction/instr_mixed,instruction/i10,蓝,yellow,f,square,color_mix,单词,,incompatible,2,,,,,,,,0,2,2,2,0,0,0,0,0,10,10,10,,,,,,,,,,,,,,,,,,,,,,,,,,,,,,,,,,,209.60380470001837,209.80504470004234,209.7874457000289,210.08883700001752,210.08883700001752,None,210.58843840000918,None,j,0,1.8786630000104196,210.58843840000918,None,None,None,212.49140860000625,None,,,,,,,,,,,,,,,,,,,,,11015,2,1,2024_Jun_03_1336,stroop_task_switching2,2021.2.3,59.85730020375173,
condition/block_mixed,instruction/instr_mixed,instruction/i10,蓝,green,f,square,color_mix,单词,,incompatible,1,,,,,,,,0,2,2,2,0,0,0,0,0,11,11,11,,,,,,,,,,,,,,,,,,,,,,,,,,,,,,,,,,,213.49304450000636,213.69512190000387,213.67689360002987,213.9784503999981,213.9784503999981,None,214.47805259999586,None,f,1,1.4450133999926038,214.47805259999586,None,None,None,215.94679509999696,None,,,,,,,,,,,,,,,,,,,,,11015,2,1,2024_Jun_03_1336,stroop_task_switching2,2021.2.3,59.85730020375173,
condition/block_mixed,instruction/instr_mixed,instruction/i10,绿,yellow,k,square,color_mix,单词,,incompatible,1,,,,,,,,0,2,2,2,0,0,0,0,0,12,12,12,,,,,,,,,,,,,,,,,,,,,,,,,,,,,,,,,,,216.948291000037,217.14863350003725,217.13191870000446,217.4330740000005,217.4330740000005,None,217.93285600002855,None,j,0,1.286327599955257,217.93285600002855,None,None,None,219.23484960000496,None,,,,,,,,,,,,,,,,,,,,,11015,2,1,2024_Jun_03_1336,stroop_task_switching2,2021.2.3,59.85730020375173,
condition/block_mixed,instruction/instr_mixed,instruction/i10,绿,blue,f,diamond,color_mix,颜色,,incompatible,2,,,,,,,,0,2,2,2,0,0,0,0,0,13,13,13,,,,,,,,,,,,,,,,,,,,,,,,,,,,,,,,,,,220.23684570001205,220.43713640002534,220.42004560003988,220.72173460002523,220.72173460002523,None,221.22131960000843,None,f,1,1.590017499984242,221.22131960000843,None,None,None,222.85733950004214,None,,,,,,,,,,,,,,,,,,,,,11015,2,1,2024_Jun_03_1336,stroop_task_switching2,2021.2.3,59.85730020375173,
condition/block_mixed,instruction/instr_mixed,instruction/i10,黄,red,j,square,color_mix,单词,,incompatible,2,,,,,,,,0,2,2,2,0,0,0,0,0,14,14,14,,,,,,,,,,,,,,,,,,,,,,,,,,,,,,,,,,,223.85978729999624,224.0592183000408,224.0422371000168,224.3426820000168,224.3426820000168,None,224.84367979998933,None,j,1,2.0957783000194468,224.84367979998933,None,None,None,226.96342740004184,None,,,,,,,,,,,,,,,,,,,,,11015,2,1,2024_Jun_03_1336,stroop_task_switching2,2021.2.3,59.85730020375173,
condition/block_mixed,instruction/instr_mixed,instruction/i10,蓝,yellow,j,diamond,color_mix,颜色,,incompatible,2,,,,,,,,0,2,2,2,0,0,0,0,0,15,15,15,,,,,,,,,,,,,,,,,,,,,,,,,,,,,,,,,,,227.96556899999268,228.16588690003846,228.1484264000319,228.44882140000118,228.44882140000118,None,228.94959760003258,None,j,1,1.438463500002399,228.94959760003258,None,None,None,230.40168509999057,None,,,,,,,,,,,,,,,,,,,,,11015,2,1,2024_Jun_03_1336,stroop_task_switching2,2021.2.3,59.85730020375173,
condition/block_mixed,instruction/instr_mixed,instruction/i10,黄,red,d,diamond,color_mix,颜色,,incompatible,1,,,,,,,,0,2,2,2,0,0,0,0,0,16,16,16,,,,,,,,,,,,,,,,,,,,,,,,,,,,,,,,,,,231.40330230002292,231.60441870003706,231.58696320001036,231.88864359998843,231.88864359998843,None,232.38856980000855,None,d,1,1.4149842000333592,232.38856980000855,None,None,None,233.82365610002307,None,,,,,,,,,,,,,,,,,,,,,11015,2,1,2024_Jun_03_1336,stroop_task_switching2,2021.2.3,59.85730020375173,
condition/block_mixed,instruction/instr_mixed,instruction/i10,绿,red,k,square,color_mix,单词,,incompatible,2,,,,,,,,0,2,2,2,0,0,0,0,0,17,17,17,,,,,,,,,,,,,,,,,,,,,,,,,,,,,,,,,,,234.8251664999989,235.02670789998956,235.00866230000975,235.30915590003133,235.30915590003133,None,235.8099715000135,None,d,0,1.1301531999488361,235.8099715000135,None,None,None,236.96184270002414,None,,,,,,,,,,,,,,,,,,,,,11015,2,1,2024_Jun_03_1336,stroop_task_switching2,2021.2.3,59.85730020375173,
condition/block_mixed,instruction/instr_mixed,instruction/i10,红,green,d,square,color_mix,单词,,incompatible,1,,,,,,,,0,2,2,2,0,0,0,0,0,18,18,18,,,,,,,,,,,,,,,,,,,,,,,,,,,,,,,,,,,237.96339520002948,238.16536380001344,238.14698300004238,238.44742929999484,238.44742929999484,None,238.94865910004592,None,d,1,1.239056000020355,238.94865910004592,None,None,None,240.21656289999373,None,,,,,,,,,,,,,,,,,,,,,11015,2,1,2024_Jun_03_1336,stroop_task_switching2,2021.2.3,59.85730020375173,
condition/block_mixed,instruction/instr_mixed,instruction/i10,黄,blue,f,diamond,color_mix,颜色,,incompatible,2,,,,,,,,0,2,2,2,0,0,0,0,0,19,19,19,,,,,,,,,,,,,,,,,,,,,,,,,,,,,,,,,,,241.2180376999895,241.41891320003197,241.4015253999969,241.70305760001065,241.70305760001065,None,242.20286389999092,None,j,0,2.70499340002425,242.20286389999092,None,None,None,244.9238959000213,None,,,,,,,,,,,,,,,,,,,,,11015,2,1,2024_Jun_03_1336,stroop_task_switching2,2021.2.3,59.85730020375173,
condition/block_mixed,instruction/instr_mixed,instruction/i10,黄,green,k,diamond,color_mix,颜色,,incompatible,1,,,,,,,,0,2,2,2,0,0,0,0,0,20,20,20,,,,,,,,,,,,,,,,,,,,,,,,,,,,,,,,,,,245.925278300012,246.1260577000212,246.10882220003987,246.40940940001747,246.40940940001747,None,246.90976489998866,None,k,1,1.5183029000181705,246.90976489998866,None,None,None,248.44574660004582,None,,,,,,,,,,,,,,,,,,,,,11015,2,1,2024_Jun_03_1336,stroop_task_switching2,2021.2.3,59.85730020375173,
condition/block_mixed,instruction/instr_mixed,instruction/i10,黄,green,j,square,color_mix,单词,,incompatible,2,,,,,,,,0,2,2,2,0,0,0,0,0,21,21,21,,,,,,,,,,,,,,,,,,,,,,,,,,,,,,,,,,,249.4472839999944,249.6475625000312,249.6310383999953,249.93268160003936,249.93268160003936,None,250.43199830001686,None,k,0,1.4600502999965101,250.43199830001686,None,None,None,251.91735070000868,None,,,,,,,,,,,,,,,,,,,,,11015,2,1,2024_Jun_03_1336,stroop_task_switching2,2021.2.3,59.85730020375173,
condition/block_mixed,instruction/instr_mixed,instruction/i10,黄,blue,j,square,color_mix,单词,,incompatible,1,,,,,,,,0,2,2,2,0,0,0,0,0,22,22,22,,,,,,,,,,,,,,,,,,,,,,,,,,,,,,,,,,,252.91982180002378,253.1209975000238,253.10283640003763,253.40348530001938,253.40348530001938,None,253.90489150001667,None,j,1,2.595287300006021,253.90489150001667,None,None,None,256.52473230002215,None,,,,,,,,,,,,,,,,,,,,,11015,2,1,2024_Jun_03_1336,stroop_task_switching2,2021.2.3,59.85730020375173,
condition/block_mixed,instruction/instr_mixed,instruction/i10,蓝,red,f,square,color_mix,单词,,incompatible,1,,,,,,,,0,2,2,2,0,0,0,0,0,23,23,23,,,,,,,,,,,,,,,,,,,,,,,,,,,,,,,,,,,257.52619440003764,257.7268034000299,257.70967690000543,258.0109118000255,258.0109118000255,None,258.51102630002424,None,d,0,1.525272099999711,258.51102630002424,None,None,None,260.06326700001955,None,,,,,,,,,,,,,,,,,,,,,11015,2,1,2024_Jun_03_1336,stroop_task_switching2,2021.2.3,59.85730020375173,
condition/block_mixed,instruction/instr_mixed,instruction/i10,绿,red,d,diamond,color_mix,颜色,,incompatible,2,,,,,,,,0,2,2,2,0,0,0,0,0,24,24,24,,,,,,,,,,,,,,,,,,,,,,,,,,,,,,,,,,,261.0647832000395,261.26693610002985,261.2482646999997,261.5490832999931,261.5490832999931,None,262.04963000002317,None,d,1,0.6675577000132762,262.04963000002317,None,None,None,262.7338471999974,None,,,,,,,,,,,,,,,,,,,,,11015,2,1,2024_Jun_03_1336,stroop_task_switching2,2021.2.3,59.85730020375173,
condition/block_mixed,instruction/instr_mixed,instruction/i10,绿,green,k,diamond,color_mix,颜色,,compatible,1,,,,,,,,0,2,2,2,0,0,0,0,0,25,25,25,,,,,,,,,,,,,,,,,,,,,,,,,,,,,,,,,,,263.735791300016,263.9364823999931,263.91981069999747,264.2197146000108,264.2197146000108,None,264.7201031000004,None,k,1,0.9165130999754183,264.7201031000004,None,None,None,265.6548552000313,None,,,,,,,,,,,,,,,,,,,,,11015,2,1,2024_Jun_03_1336,stroop_task_switching2,2021.2.3,59.85730020375173,
condition/block_mixed,instruction/instr_mixed,instruction/i10,蓝,blue,f,diamond,color_mix,颜色,,compatible,1,,,,,,,,0,2,2,2,0,0,0,0,0,26,26,26,,,,,,,,,,,,,,,,,,,,,,,,,,,,,,,,,,,266.6565157000441,266.8580609000055,266.84015870001167,267.1425166000263,267.1425166000263,None,267.6578595000319,None,f,1,0.4347033000085503,267.6578595000319,None,None,None,268.10903410002356,None,,,,,,,,,,,,,,,,,,,,,11015,2,1,2024_Jun_03_1336,stroop_task_switching2,2021.2.3,59.85730020375173,
condition/block_mixed,instruction/instr_mixed,instruction/i10,绿,green,k,square,color_mix,单词,,compatible,2,,,,,,,,0,2,2,2,0,0,0,0,0,27,27,27,,,,,,,,,,,,,,,,,,,,,,,,,,,,,,,,,,,269.10999450000236,269.31031030003214,269.295702500036,269.5942111000186,269.5942111000186,None,270.0948963999981,None,k,1,0.8938052000012249,270.0948963999981,None,None,None,271.013202800008,None,,,,,,,,,,,,,,,,,,,,,11015,2,1,2024_Jun_03_1336,stroop_task_switching2,2021.2.3,59.85730020375173,
condition/block_mixed,instruction/instr_mixed,instruction/i10,绿,green,k,square,color_mix,单词,,compatible,1,,,,,,,,0,2,2,2,0,0,0,0,0,28,28,28,,,,,,,,,,,,,,,,,,,,,,,,,,,,,,,,,,,272.0146261000191,272.21485759998905,272.1982865000027,272.4992138000089,272.4992138000089,None,272.99970520002535,None,k,1,0.9970519000198692,272.99970520002535,None,None,None,274.0176666000043,None,,,,,,,,,,,,,,,,,,,,,11015,2,1,2024_Jun_03_1336,stroop_task_switching2,2021.2.3,59.85730020375173,
condition/block_mixed,instruction/instr_mixed,instruction/i10,蓝,blue,f,square,color_mix,单词,,compatible,1,,,,,,,,0,2,2,2,0,0,0,0,0,29,29,29,,,,,,,,,,,,,,,,,,,,,,,,,,,,,,,,,,,275.01897750003263,275.21925830002874,275.2026559000369,275.50453919998836,275.50453919998836,None,276.00389009999344,None,j,0,0.7368764000129886,276.00389009999344,None,None,None,276.77186460001394,None,,,,,,,,,,,,,,,,,,,,,11015,2,1,2024_Jun_03_1336,stroop_task_switching2,2021.2.3,59.85730020375173,
condition/block_mixed,instruction/instr_mixed,instruction/i10,黄,yellow,j,diamond,color_mix,颜色,,compatible,2,,,,,,,,0,2,2,2,0,0,0,0,0,30,30,30,,,,,,,,,,,,,,,,,,,,,,,,,,,,,,,,,,,277.77333930000896,277.97562889999244,277.9569246000028,278.25743180001155,278.25743180001155,None,278.75811560003785,None,j,1,0.6466740000178106,278.75811560003785,None,None,None,279.425688599993,None,,,,,,,,,,,,,,,,,,,,,11015,2,1,2024_Jun_03_1336,stroop_task_switching2,2021.2.3,59.85730020375173,
condition/block_mixed,instruction/instr_mixed,instruction/i10,绿,green,k,square,color_mix,单词,,compatible,2,,,,,,,,0,2,2,2,0,0,0,0,0,31,31,31,,,,,,,,,,,,,,,,,,,,,,,,,,,,,,,,,,,280.4276829000446,280.6284734000219,280.6109409999917,280.91340359998867,280.91340359998867,None,281.41206160001457,None,k,1,0.6647491999901831,281.41206160001457,None,None,None,282.0964037000085,None,,,,,,,,,,,,,,,,,,,,,11015,2,1,2024_Jun_03_1336,stroop_task_switching2,2021.2.3,59.85730020375173,
condition/block_mixed,instruction/instr_mixed,instruction/i10,黄,yellow,j,square,color_mix,单词,,compatible,1,,,,,,,,0,2,2,2,0,0,0,0,0,32,32,32,,,,,,,,,,,,,,,,,,,,,,,,,,,,,,,,,,,283.09838730003685,283.3001440000371,283.28147440002067,283.58194470003946,283.58194470003946,None,284.08284400001867,None,j,1,0.706789200019557,284.08284400001867,None,None,None,284.8173190000234,None,,,,,,,,,,,,,,,,,,,,,11015,2,1,2024_Jun_03_1336,stroop_task_switching2,2021.2.3,59.85730020375173,
condition/block_mixed,instruction/instr_mixed,instruction/i10,绿,green,k,diamond,color_mix,颜色,,compatible,2,,,,,,,,0,2,2,2,0,0,0,0,0,33,33,33,,,,,,,,,,,,,,,,,,,,,,,,,,,,,,,,,,,285.81862340000225,286.02026820002357,286.0022874000133,286.3028071000008,286.3028071000008,None,286.8034095999901,None,k,1,1.2737802999909036,286.8034095999901,None,None,None,288.10542460001307,None,,,,,,,,,,,,,,,,,,,,,11015,2,1,2024_Jun_03_1336,stroop_task_switching2,2021.2.3,59.85730020375173,
condition/block_mixed,instruction/instr_mixed,instruction/i10,红,red,d,square,color_mix,单词,,compatible,2,,,,,,,,0,2,2,2,0,0,0,0,0,34,34,34,,,,,,,,,,,,,,,,,,,,,,,,,,,,,,,,,,,289.1067896000459,289.3088713000179,289.29068640002515,289.59133850003127,289.59133850003127,None,290.0920549000148,None,d,1,0.5689311000169255,290.0920549000148,None,None,None,290.6760622000438,None,,,,,,,,,,,,,,,,,,,,,11015,2,1,2024_Jun_03_1336,stroop_task_switching2,2021.2.3,59.85730020375173,
condition/block_mixed,instruction/instr_mixed,instruction/i10,黄,yellow,j,square,color_mix,单词,,compatible,1,,,,,,,,0,2,2,2,0,0,0,0,0,35,35,35,,,,,,,,,,,,,,,,,,,,,,,,,,,,,,,,,,,291.6774117000168,291.87972630001605,291.86111870000605,292.16296690003946,292.16296690003946,None,292.6632185000344,None,j,1,0.46235709998290986,292.6632185000344,None,None,None,293.14644099998986,None,,,,,,,,,,,,,,,,,,,,,11015,2,1,2024_Jun_03_1336,stroop_task_switching2,2021.2.3,59.85730020375173,
condition/block_mixed,instruction/instr_mixed,instruction/i10,绿,green,k,diamond,color_mix,颜色,,compatible,2,,,,,,,,0,2,2,2,0,0,0,0,0,36,36,36,,,,,,,,,,,,,,,,,,,,,,,,,,,,,,,,,,,294.14805389998946,294.34913779998897,294.33143890002975,294.6319360000198,294.6319360000198,None,295.1329986000201,None,k,1,0.800887799996417,295.1329986000201,None,None,None,295.950665500015,None,,,,,,,,,,,,,,,,,,,,,11015,2,1,2024_Jun_03_1336,stroop_task_switching2,2021.2.3,59.85730020375173,
condition/block_mixed,instruction/instr_mixed,instruction/i10,蓝,blue,f,square,color_mix,单词,,compatible,2,,,,,,,,0,2,2,2,0,0,0,0,0,37,37,37,,,,,,,,,,,,,,,,,,,,,,,,,,,,,,,,,,,296.95221409999067,297.15501879999647,297.1359145999886,297.43628409999656,297.43628409999656,None,297.9371029000031,None,f,1,1.284426199970767,297.9371029000031,None,None,None,299.23885449999943,None,,,,,,,,,,,,,,,,,,,,,11015,2,1,2024_Jun_03_1336,stroop_task_switching2,2021.2.3,59.85730020375173,
condition/block_mixed,instruction/instr_mixed,instruction/i10,红,red,d,square,color_mix,单词,,compatible,1,,,,,,,,0,2,2,2,0,0,0,0,0,38,38,38,,,,,,,,,,,,,,,,,,,,,,,,,,,,,,,,,,,300.24050539999735,300.4408270000131,300.42423130001407,300.7254382999963,300.7254382999963,None,301.225223299989,None,d,1,0.5561797000118531,301.225223299989,None,None,None,301.80931470001815,None,,,,,,,,,,,,,,,,,,,,,11015,2,1,2024_Jun_03_1336,stroop_task_switching2,2021.2.3,59.85730020375173,
condition/block_mixed,instruction/instr_mixed,instruction/i10,黄,yellow,j,diamond,color_mix,颜色,,compatible,2,,,,,,,,0,2,2,2,0,0,0,0,0,39,39,39,,,,,,,,,,,,,,,,,,,,,,,,,,,,,,,,,,,302.81106760003604,303.0126080000191,302.99565070000244,303.2952274000272,303.2952274000272,None,303.7958763000206,None,j,1,0.8255323999910615,303.7958763000206,None,None,None,304.64755440002773,None,,,,,,,,,,,,,,,,,,,,,11015,2,1,2024_Jun_03_1336,stroop_task_switching2,2021.2.3,59.85730020375173,
condition/block_mixed,instruction/instr_mixed,instruction/i10,黄,yellow,j,square,color_mix,单词,,compatible,2,,,,,,,,0,2,2,2,0,0,0,0,0,40,40,40,,,,,,,,,,,,,,,,,,,,,,,,,,,,,,,,,,,305.6485715000308,305.84877099998994,305.83282460004557,306.1337588999886,306.1337588999886,None,306.633470700006,None,j,1,0.915869299962651,306.633470700006,None,None,None,307.5680626000394,None,,,,,,,,,,,,,,,,,,,,,11015,2,1,2024_Jun_03_1336,stroop_task_switching2,2021.2.3,59.85730020375173,
condition/block_mixed,instruction/instr_mixed,instruction/i10,蓝,blue,f,square,color_mix,单词,,compatible,1,,,,,,,,0,2,2,2,0,0,0,0,0,41,41,41,,,,,,,,,,,,,,,,,,,,,,,,,,,,,,,,,,,308.56960919999983,308.7708021000144,308.7531291000196,309.0538596000406,309.0538596000406,None,309.55443479999667,None,f,1,0.5955678999889642,309.55443479999667,None,None,None,310.17205910000484,None,,,,,,,,,,,,,,,,,,,,,11015,2,1,2024_Jun_03_1336,stroop_task_switching2,2021.2.3,59.85730020375173,
condition/block_mixed,instruction/instr_mixed,instruction/i10,蓝,blue,f,diamond,color_mix,颜色,,compatible,2,,,,,,,,0,2,2,2,0,0,0,0,0,42,42,42,,,,,,,,,,,,,,,,,,,,,,,,,,,,,,,,,,,311.173541199998,311.3739526999998,311.35776330000954,311.6584913000115,311.6584913000115,None,312.15874730004,None,f,1,0.5267223999835551,312.15874730004,None,None,None,312.7092873000074,None,,,,,,,,,,,,,,,,,,,,,11015,2,1,2024_Jun_03_1336,stroop_task_switching2,2021.2.3,59.85730020375173,
condition/block_mixed,instruction/instr_mixed,instruction/i10,黄,yellow,j,diamond,color_mix,颜色,,compatible,1,,,,,,,,0,2,2,2,0,0,0,0,0,43,43,43,,,,,,,,,,,,,,,,,,,,,,,,,,,,,,,,,,,313.71075960004237,313.91147640004056,313.8943594000302,314.1957925000461,314.1957925000461,None,314.6957661000197,None,j,1,0.565933000005316,314.6957661000197,None,None,None,315.27981630002614,None,,,,,,,,,,,,,,,,,,,,,11015,2,1,2024_Jun_03_1336,stroop_task_switching2,2021.2.3,59.85730020375173,
condition/block_mixed,instruction/instr_mixed,instruction/i10,红,red,d,diamond,color_mix,颜色,,compatible,1,,,,,,,,0,2,2,2,0,0,0,0,0,44,44,44,,,,,,,,,,,,,,,,,,,,,,,,,,,,,,,,,,,316.2811566000455,316.48177260003285,316.4653715000022,316.7653172000428,316.7653172000428,None,317.26608620001934,None,d,1,0.603860099974554,317.26608620001934,None,None,None,317.9003886000137,None,,,,,,,,,,,,,,,,,,,,,11015,2,1,2024_Jun_03_1336,stroop_task_switching2,2021.2.3,59.85730020375173,
condition/block_mixed,instruction/instr_mixed,instruction/i10,蓝,blue,f,diamond,color_mix,颜色,,compatible,1,,,,,,,,0,2,2,2,0,0,0,0,0,45,45,45,,,,,,,,,,,,,,,,,,,,,,,,,,,,,,,,,,,318.90194290003274,319.10218869999517,319.0871307000052,319.3861215999932,319.3861215999932,None,319.8867923000362,None,f,1,0.7511318000033498,319.8867923000362,None,None,None,320.65446779999183,None,,,,,,,,,,,,,,,,,,,,,11015,2,1,2024_Jun_03_1336,stroop_task_switching2,2021.2.3,59.85730020375173,
condition/block_mixed,instruction/instr_mixed,instruction/i10,红,red,d,diamond,color_mix,颜色,,compatible,1,,,,,,,,0,2,2,2,0,0,0,0,0,46,46,46,,,,,,,,,,,,,,,,,,,,,,,,,,,,,,,,,,,321.6559285999974,321.8569223000086,321.8395899999887,322.13996820000466,322.13996820000466,None,322.64089189999504,None,d,1,0.6211304999887943,322.64089189999504,None,None,None,323.29227680002805,None,,,,,,,,,,,,,,,,,,,,,11015,2,1,2024_Jun_03_1336,stroop_task_switching2,2021.2.3,59.85730020375173,
condition/block_mixed,instruction/instr_mixed,instruction/i10,红,red,d,square,color_mix,单词,,compatible,2,,,,,,,,0,2,2,2,0,0,0,0,0,47,47,47,,,,,,,,,,,,,,,,,,,,,,,,,,,,,,,,,,,324.29389100003755,324.49432500003604,324.4782007000176,324.77769389998866,324.77769389998866,None,325.2782371999929,None,d,1,0.6483932000119239,325.2782371999929,None,None,None,325.94573130004574,None,,,,,,,,,,,,,,,,,,,,,11015,2,1,2024_Jun_03_1336,stroop_task_switching2,2021.2.3,59.85730020375173,
condition/block_mixed,instruction/instr_mixed,instruction/i10,红,red,d,diamond,color_mix,颜色,,compatible,2,,,,,,,,0,2,2,2,0,0,0,0,0,48,48,48,,,,,,,,,,,,,,,,,,,,,,,,,,,,,,,,,,,326.94750559999375,327.14774350001244,327.1329364000121,327.431491299998,327.431491299998,None,327.93225730000995,None,d,1,0.7538852000143379,327.93225730000995,None,None,None,328.7182435000432,None,,,,,,,,,,,,,,,,,,,,,11015,2,1,2024_Jun_03_1336,stroop_task_switching2,2021.2.3,59.85730020375173,
condition/block_mixed,instruction/instr_mixed,instruction/i10,,,,,,,,,,,,,,,,,0,2,2,2,0,0,0,0,,,,,,,,,,,,,,,,,,,,,,,,,,,,,,,,,,,,,,,,,,,,,,,,,,,,,,,,329.71835270000156,None,space,33.25687740003923,329.71835270000156,None,,,,,,,,,,,,,,,11015,2,1,2024_Jun_03_1336,stroop_task_switching2,2021.2.3,59.85730020375173,
condition/block_mixed,instruction/instr_mixed,instruction/i10,,,,,,,,,,,,,,,,,0,2,2,2,,,,,,,,,,,,,,,,,,,,,,,,,,,,,,,,,,,,,,,,,,,,,,,,,,,,,,,,,,,,,,,,,,,,,,,,,,,,,,,,11015,2,1,2024_Jun_03_1336,stroop_task_switching2,2021.2.3,59.85730020375173,
,,,红,red,d,square,color_mix,单词,,compatible,0,block_switch1,instruction/ready_test.png,instruction/i11.png,,,,,,,,,,,,,,,,,0,0,0,0,0,0,0,0,,,,,,,,,,,,,,,,,,,368.0092216000194,369.011813900026,369.011813900026,370.01284510002006,370.01284510002006,None,367.02441860002,368.02604269998847,371.0478628000128,371.24863149999874,371.2311464000377,371.53207960003056,371.53207960003056,None,372.03200480004307,None,d,1,0.45536770002217963,372.03200480004307,None,None,None,,,,,,,,,363.0349508000072,None,space,3.97219399997266,363.0349508000072,None,,,,,,,,,11015,2,1,2024_Jun_03_1336,stroop_task_switching2,2021.2.3,59.85730020375173,
,,,绿,green,k,diamond,color_mix,颜色,,compatible,2,block_switch1,instruction/ready_test.png,instruction/i11.png,,,,,,,,,,,,,,,,,0,0,0,0,0,1,1,1,,,,,,,,,,,,,,,,,,,,,,,,,,,372.5496322000399,372.75087019999046,372.7002174000372,373.0016567000421,373.0016567000421,None,373.5007819000166,None,k,1,0.6586664000060409,373.5007819000166,None,None,None,,,,,,,,,,,,,,,,,,,,,,,11015,2,1,2024_Jun_03_1336,stroop_task_switching2,2021.2.3,59.85730020375173,
,,,绿,yellow,j,diamond,color_mix,颜色,,incompatible,1,block_switch1,instruction/ready_test.png,instruction/i11.png,,,,,,,,,,,,,,,,,0,0,0,0,0,2,2,2,,,,,,,,,,,,,,,,,,,,,,,,,,,374.18540650000796,374.3857511000242,374.3692583999946,374.66996680002194,374.66996680002194,None,375.17021569999633,None,k,0,0.7251970999641344,375.17021569999633,None,None,None,,,,,,,,,,,,,,,,,,,,,,,11015,2,1,2024_Jun_03_1336,stroop_task_switching2,2021.2.3,59.85730020375173,
,,,蓝,blue,f,diamond,color_mix,颜色,,compatible,1,block_switch1,instruction/ready_test.png,instruction/i11.png,,,,,,,,,,,,,,,,,0,0,0,0,0,3,3,3,,,,,,,,,,,,,,,,,,,,,,,,,,,375.9212522000307,376.12340149999363,376.1051438000286,376.40530680003576,376.40530680003576,None,376.90610060002655,None,f,1,1.2614655999932438,376.90610060002655,None,None,None,,,,,,,,,,,,,,,,,,,,,,,11015,2,1,2024_Jun_03_1336,stroop_task_switching2,2021.2.3,59.85730020375173,
,,,绿,green,k,square,color_mix,单词,,compatible,2,block_switch1,instruction/ready_test.png,instruction/i11.png,,,,,,,,,,,,,,,,,0,0,0,0,0,4,4,4,,,,,,,,,,,,,,,,,,,,,,,,,,,378.1913400000194,378.3918198000174,378.37589580001077,378.67583860002924,378.67583860002924,None,379.1760273000109,None,k,1,1.2636342999758199,379.1760273000109,None,None,None,,,,,,,,,,,,,,,,,,,,,,,11015,2,1,2024_Jun_03_1336,stroop_task_switching2,2021.2.3,59.85730020375173,
,,,绿,blue,f,diamond,color_mix,颜色,,incompatible,2,block_switch1,instruction/ready_test.png,instruction/i11.png,,,,,,,,,,,,,,,,,0,0,0,0,0,5,5,5,,,,,,,,,,,,,,,,,,,,,,,,,,,380.4612641000422,380.66154550004285,380.64533020003,380.945646200038,380.945646200038,None,381.44613980001304,None,f,1,1.3856590999639593,381.44613980001304,None,None,None,,,,,,,,,,,,,,,,,,,,,,,11015,2,1,2024_Jun_03_1336,stroop_task_switching2,2021.2.3,59.85730020375173,
,,,黄,red,j,square,color_mix,单词,,incompatible,2,block_switch1,instruction/ready_test.png,instruction/i11.png,,,,,,,,,,,,,,,,,0,0,0,0,0,6,6,6,,,,,,,,,,,,,,,,,,,,,,,,,,,382.84828949999064,383.0497378000291,383.0317046000273,383.3327025999897,383.3327025999897,None,383.8332449000445,None,d,0,1.2702440000139177,383.8332449000445,None,None,None,,,,,,,,,,,,,,,,,,,,,,,11015,2,1,2024_Jun_03_1336,stroop_task_switching2,2021.2.3,59.85730020375173,
,,,绿,green,k,square,color_mix,单词,,compatible,1,block_switch1,instruction/ready_test.png,instruction/i11.png,,,,,,,,,,,,,,,,,0,0,0,0,0,7,7,7,,,,,,,,,,,,,,,,,,,,,,,,,,,385.13465860002907,385.3367822000291,385.3192512000096,385.61925460002385,385.61925460002385,None,386.12001990003046,None,j,0,1.6082605000119656,386.12001990003046,None,None,None,,,,,,,,,,,,,,,,,,,,,,,11015,2,1,2024_Jun_03_1336,stroop_task_switching2,2021.2.3,59.85730020375173,
,,,蓝,blue,f,square,color_mix,单词,,compatible,1,block_switch1,instruction/ready_test.png,instruction/i11.png,,,,,,,,,,,,,,,,,0,0,0,0,0,8,8,8,,,,,,,,,,,,,,,,,,,,,,,,,,,387.75586830003886,387.9561981000006,387.9395349000115,388.23981050000293,388.23981050000293,None,388.7403820999898,None,f,1,2.8197410999564454,388.7403820999898,None,None,None,,,,,,,,,,,,,,,,,,,,,,,11015,2,1,2024_Jun_03_1336,stroop_task_switching2,2021.2.3,59.85730020375173,
,,,红,red,d,diamond,color_mix,颜色,,compatible,2,block_switch1,instruction/ready_test.png,instruction/i11.png,,,,,,,,,,,,,,,,,0,0,0,0,0,9,9,9,,,,,,,,,,,,,,,,,,,,,,,,,,,391.5786378000048,391.77861400000984,391.76367980003124,392.06242930004373,392.06242930004373,None,392.5628732999903,None,d,1,0.49296980001963675,392.5628732999903,None,None,None,,,,,,,,,,,,,,,,,,,,,,,11015,2,1,2024_Jun_03_1336,stroop_task_switching2,2021.2.3,59.85730020375173,
,,,黄,yellow,j,diamond,color_mix,颜色,,compatible,1,block_switch1,instruction/ready_test.png,instruction/i11.png,,,,,,,,,,,,,,,,,0,0,0,0,0,10,10,10,,,,,,,,,,,,,,,,,,,,,,,,,,,393.0805425000144,393.28104010003153,393.26448240003083,393.56442430004245,393.56442430004245,None,394.0652206999948,None,j,1,0.5028646999853663,394.0652206999948,None,None,None,,,,,,,,,,,,,,,,,,,,,,,11015,2,1,2024_Jun_03_1336,stroop_task_switching2,2021.2.3,59.85730020375173,
,,,绿,green,k,square,color_mix,单词,,compatible,2,block_switch1,instruction/ready_test.png,instruction/i11.png,,,,,,,,,,,,,,,,,0,0,0,0,0,11,11,11,,,,,,,,,,,,,,,,,,,,,,,,,,,394.5823994000093,394.7832599999965,394.76785790000577,395.06684049998876,395.06684049998876,None,395.5675403000205,None,k,1,1.2732233999995515,395.5675403000205,None,None,None,,,,,,,,,,,,,,,,,,,,,,,11015,2,1,2024_Jun_03_1336,stroop_task_switching2,2021.2.3,59.85730020375173,
,,,红,red,d,diamond,color_mix,颜色,,compatible,2,block_switch1,instruction/ready_test.png,instruction/i11.png,,,,,,,,,,,,,,,,,0,0,0,0,0,12,12,12,,,,,,,,,,,,,,,,,,,,,,,,,,,396.88608369999565,397.08740000001853,397.0531388000236,397.35349430004135,397.35349430004135,None,397.85457289998885,None,d,1,1.6416373000247404,397.85457289998885,None,None,None,,,,,,,,,,,,,,,,,,,,,,,11015,2,1,2024_Jun_03_1336,stroop_task_switching2,2021.2.3,59.85730020375173,
,,,红,red,d,diamond,color_mix,颜色,,compatible,1,block_switch1,instruction/ready_test.png,instruction/i11.png,,,,,,,,,,,,,,,,,0,0,0,0,0,13,13,13,,,,,,,,,,,,,,,,,,,,,,,,,,,399.5232505000313,399.72506020002766,399.70702460000757,400.0075471000164,400.0075471000164,None,400.5084963000263,None,d,1,0.7243068999960087,400.5084963000263,None,None,None,,,,,,,,,,,,,,,,,,,,,,,11015,2,1,2024_Jun_03_1336,stroop_task_switching2,2021.2.3,59.85730020375173,
,,,黄,yellow,j,square,color_mix,单词,,compatible,2,block_switch1,instruction/ready_test.png,instruction/i11.png,,,,,,,,,,,,,,,,,0,0,0,0,0,14,14,14,,,,,,,,,,,,,,,,,,,,,,,,,,,401.2594645000063,401.4598191000405,401.44326150004053,401.7452544000116,401.7452544000116,None,402.24419769999804,None,j,1,0.7563434999901801,402.24419769999804,None,None,None,,,,,,,,,,,,,,,,,,,,,,,11015,2,1,2024_Jun_03_1336,stroop_task_switching2,2021.2.3,59.85730020375173,
,,,红,green,k,diamond,color_mix,颜色,,incompatible,2,block_switch1,instruction/ready_test.png,instruction/i11.png,,,,,,,,,,,,,,,,,0,0,0,0,0,15,15,15,,,,,,,,,,,,,,,,,,,,,,,,,,,403.04551470000297,403.24577800004045,403.2122282999917,403.5130960000097,403.5130960000097,None,404.0138038000441,None,k,1,2.122550299973227,404.0138038000441,None,None,None,,,,,,,,,,,,,,,,,,,,,,,11015,2,1,2024_Jun_03_1336,stroop_task_switching2,2021.2.3,59.85730020375173,
,,,蓝,red,d,diamond,color_mix,颜色,,incompatible,1,block_switch1,instruction/ready_test.png,instruction/i11.png,,,,,,,,,,,,,,,,,0,0,0,0,0,16,16,16,,,,,,,,,,,,,,,,,,,,,,,,,,,406.1841461000149,406.38447809999343,406.350712799991,406.6514987000264,406.6514987000264,None,407.15167170000495,None,d,1,1.7372561999945901,407.15167170000495,None,None,None,,,,,,,,,,,,,,,,,,,,,,,11015,2,1,2024_Jun_03_1336,stroop_task_switching2,2021.2.3,59.85730020375173,
,,,黄,green,k,diamond,color_mix,颜色,,incompatible,1,block_switch1,instruction/ready_test.png,instruction/i11.png,,,,,,,,,,,,,,,,,0,0,0,0,0,17,17,17,,,,,,,,,,,,,,,,,,,,,,,,,,,408.90407530002994,409.10584949998884,409.0878805000102,409.3884907999891,409.3884907999891,None,409.8890483000432,None,k,1,0.8633246999816038,409.8890483000432,None,None,None,,,,,,,,,,,,,,,,,,,,,,,11015,2,1,2024_Jun_03_1336,stroop_task_switching2,2021.2.3,59.85730020375173,
,,,绿,green,k,diamond,color_mix,颜色,,compatible,1,block_switch1,instruction/ready_test.png,instruction/i11.png,,,,,,,,,,,,,,,,,0,0,0,0,0,18,18,18,,,,,,,,,,,,,,,,,,,,,,,,,,,410.7736817999976,410.97463130002143,410.9574028000352,411.25782610004535,411.25782610004535,None,411.7587731000385,None,k,1,0.6898054999765009,411.7587731000385,None,None,None,,,,,,,,,,,,,,,,,,,,,,,11015,2,1,2024_Jun_03_1336,stroop_task_switching2,2021.2.3,59.85730020375173,
,,,黄,red,d,diamond,color_mix,颜色,,incompatible,1,block_switch1,instruction/ready_test.png,instruction/i11.png,,,,,,,,,,,,,,,,,0,0,0,0,0,19,19,19,,,,,,,,,,,,,,,,,,,,,,,,,,,412.4764305000426,412.6790699000121,412.66031420003856,412.960874899989,412.960874899989,None,413.46119709999766,None,d,1,0.5471134000108577,413.46119709999766,None,None,None,,,,,,,,,,,,,,,,,,,,,,,11015,2,1,2024_Jun_03_1336,stroop_task_switching2,2021.2.3,59.85730020375173,
,,,绿,yellow,k,square,color_mix,单词,,incompatible,2,block_switch1,instruction/ready_test.png,instruction/i11.png,,,,,,,,,,,,,,,,,0,0,0,0,0,20,20,20,,,,,,,,,,,,,,,,,,,,,,,,,,,414.02867500000866,414.2296880999929,414.2122520999983,414.51428619999206,414.51428619999206,None,415.0134419000242,None,k,1,1.3152169999666512,415.0134419000242,None,None,None,,,,,,,,,,,,,,,,,,,,,,,11015,2,1,2024_Jun_03_1336,stroop_task_switching2,2021.2.3,59.85730020375173,
,,,绿,yellow,j,diamond,color_mix,颜色,,incompatible,2,block_switch1,instruction/ready_test.png,instruction/i11.png,,,,,,,,,,,,,,,,,0,0,0,0,0,21,21,21,,,,,,,,,,,,,,,,,,,,,,,,,,,416.3488995000371,416.55020360002527,416.53245190001326,416.8348190000397,416.8348190000397,None,417.33352500002366,None,j,1,2.363146700023208,417.33352500002366,None,None,None,,,,,,,,,,,,,,,,,,,,,,,11015,2,1,2024_Jun_03_1336,stroop_task_switching2,2021.2.3,59.85730020375173,
,,,绿,green,k,square,color_mix,单词,,compatible,2,block_switch1,instruction/ready_test.png,instruction/i11.png,,,,,,,,,,,,,,,,,0,0,0,0,0,22,22,22,,,,,,,,,,,,,,,,,,,,,,,,,,,419.72056899999734,419.92108140001073,419.9062063000165,420.22212829999626,420.2047382000019,None,420.70535950001795,None,k,1,2.895482199965045,420.70535950001795,None,None,None,,,,,,,,,,,,,,,,,,,,,,,11015,2,1,2024_Jun_03_1336,stroop_task_switching2,2021.2.3,59.85730020375173,
,,,红,red,d,square,color_mix,单词,,compatible,1,block_switch1,instruction/ready_test.png,instruction/i11.png,,,,,,,,,,,,,,,,,0,0,0,0,0,23,23,23,,,,,,,,,,,,,,,,,,,,,,,,,,,423.6274839999969,423.8267175999936,423.81130220001796,424.1107321000309,424.1107321000309,None,424.611472300021,None,d,1,1.1818523000110872,424.611472300021,None,None,None,,,,,,,,,,,,,,,,,,,,,,,11015,2,1,2024_Jun_03_1336,stroop_task_switching2,2021.2.3,59.85730020375173,
,,,黄,green,j,square,color_mix,单词,,incompatible,1,block_switch1,instruction/ready_test.png,instruction/i11.png,,,,,,,,,,,,,,,,,0,0,0,0,0,24,24,24,,,,,,,,,,,,,,,,,,,,,,,,,,,425.81294670002535,426.013684000005,425.9967390000238,426.2987482000026,426.2987482000026,None,426.7980152000091,None,j,1,1.4427572000422515,426.7980152000091,None,None,None,,,,,,,,,,,,,,,,,,,,,,,11015,2,1,2024_Jun_03_1336,stroop_task_switching2,2021.2.3,59.85730020375173,
,,,红,blue,d,square,color_mix,单词,,incompatible,1,block_switch1,instruction/ready_test.png,instruction/i11.png,,,,,,,,,,,,,,,,,0,0,0,0,0,25,25,25,,,,,,,,,,,,,,,,,,,,,,,,,,,428.2668257000041,428.4678196000168,428.4505080000381,428.7512522999896,428.7512522999896,None,429.2514331000275,None,f,0,0.8773255000123754,429.2514331000275,None,None,None,,,,,,,,,,,,,,,,,,,,,,,11015,2,1,2024_Jun_03_1336,stroop_task_switching2,2021.2.3,59.85730020375173,
,,,黄,yellow,j,square,color_mix,单词,,compatible,1,block_switch1,instruction/ready_test.png,instruction/i11.png,,,,,,,,,,,,,,,,,0,0,0,0,0,26,26,26,,,,,,,,,,,,,,,,,,,,,,,,,,,430.1527063000249,430.35498740000185,430.3363975000102,430.63713570003165,430.63713570003165,None,431.1378377000219,None,j,1,0.7991813999833539,431.1378377000219,None,None,None,,,,,,,,,,,,,,,,,,,,,,,11015,2,1,2024_Jun_03_1336,stroop_task_switching2,2021.2.3,59.85730020375173,
,,,蓝,green,f,square,color_mix,单词,,incompatible,1,block_switch1,instruction/ready_test.png,instruction/i11.png,,,,,,,,,,,,,,,,,0,0,0,0,0,27,27,27,,,,,,,,,,,,,,,,,,,,,,,,,,,431.95577530004084,432.15679500001715,432.13928240002133,432.4408334000036,432.4408334000036,None,432.9406549000414,None,f,1,1.644563100009691,432.9406549000414,None,None,None,,,,,,,,,,,,,,,,,,,,,,,11015,2,1,2024_Jun_03_1336,stroop_task_switching2,2021.2.3,59.85730020375173,
,,,绿,green,k,diamond,color_mix,颜色,,compatible,2,block_switch1,instruction/ready_test.png,instruction/i11.png,,,,,,,,,,,,,,,,,0,0,0,0,0,28,28,28,,,,,,,,,,,,,,,,,,,,,,,,,,,434.6096762000234,434.81042900000466,434.79329800000414,435.0946928000194,435.0946928000194,None,435.5943366000429,None,k,1,0.9587845999631099,435.5943366000429,None,None,None,,,,,,,,,,,,,,,,,,,,,,,11015,2,1,2024_Jun_03_1336,stroop_task_switching2,2021.2.3,59.85730020375173,
,,,黄,blue,f,diamond,color_mix,颜色,,incompatible,1,block_switch1,instruction/ready_test.png,instruction/i11.png,,,,,,,,,,,,,,,,,0,0,0,0,0,29,29,29,,,,,,,,,,,,,,,,,,,,,,,,,,,436.57922420004616,436.7806480000145,436.762846800033,437.06347789999563,437.06347789999563,None,437.56409390002955,None,f,1,0.605451199982781,437.56409390002955,None,None,None,,,,,,,,,,,,,,,,,,,,,,,11015,2,1,2024_Jun_03_1336,stroop_task_switching2,2021.2.3,59.85730020375173,
,,,绿,green,k,diamond,color_mix,颜色,,compatible,1,block_switch1,instruction/ready_test.png,instruction/i11.png,,,,,,,,,,,,,,,,,0,0,0,0,0,30,30,30,,,,,,,,,,,,,,,,,,,,,,,,,,,438.1984635000117,438.39926919998834,438.3836219999939,438.68276180000976,438.68276180000976,None,439.1835027000052,None,k,1,1.249872799962759,439.1835027000052,None,None,None,,,,,,,,,,,,,,,,,,,,,,,11015,2,1,2024_Jun_03_1336,stroop_task_switching2,2021.2.3,59.85730020375173,
,,,蓝,blue,f,square,color_mix,单词,,compatible,2,block_switch1,instruction/ready_test.png,instruction/i11.png,,,,,,,,,,,,,,,,,0,0,0,0,0,31,31,31,,,,,,,,,,,,,,,,,,,,,,,,,,,440.4518485000008,440.65349630004494,440.6354220000212,440.9361140000401,440.9361140000401,None,441.4366882999893,None,f,1,2.772554900031537,441.4366882999893,None,None,None,,,,,,,,,,,,,,,,,,,,,,,11015,2,1,2024_Jun_03_1336,stroop_task_switching2,2021.2.3,59.85730020375173,
,,,红,red,d,square,color_mix,单词,,compatible,1,block_switch1,instruction/ready_test.png,instruction/i11.png,,,,,,,,,,,,,,,,,0,0,0,0,0,32,32,32,,,,,,,,,,,,,,,,,,,,,,,,,,,444.2243934000144,444.42466060002334,444.4088494000025,444.7082362000365,444.7082362000365,None,445.2090101999929,None,d,1,0.9124559999909252,445.2090101999929,None,None,None,,,,,,,,,,,,,,,,,,,,,,,11015,2,1,2024_Jun_03_1336,stroop_task_switching2,2021.2.3,59.85730020375173,
,,,红,green,d,square,color_mix,单词,,incompatible,1,block_switch1,instruction/ready_test.png,instruction/i11.png,,,,,,,,,,,,,,,,,0,0,0,0,0,33,33,33,,,,,,,,,,,,,,,,,,,,,,,,,,,446.14373320003506,446.3452462000423,446.32827649998944,446.6305399000412,446.6305399000412,None,447.1452373000211,None,d,1,1.224277200002689,447.1452373000211,None,None,None,,,,,,,,,,,,,,,,,,,,,,,11015,2,1,2024_Jun_03_1336,stroop_task_switching2,2021.2.3,59.85730020375173,
,,,黄,yellow,j,diamond,color_mix,颜色,,compatible,2,block_switch1,instruction/ready_test.png,instruction/i11.png,,,,,,,,,,,,,,,,,0,0,0,0,0,34,34,34,,,,,,,,,,,,,,,,,,,,,,,,,,,448.3972640000284,448.5978544999962,448.5808149999939,448.8810974000371,448.8810974000371,None,449.38232390000485,None,j,1,1.9470378999831155,449.38232390000485,None,None,None,,,,,,,,,,,,,,,,,,,,,,,11015,2,1,2024_Jun_03_1336,stroop_task_switching2,2021.2.3,59.85730020375173,
,,,红,green,k,diamond,color_mix,颜色,,incompatible,1,block_switch1,instruction/ready_test.png,instruction/i11.png,,,,,,,,,,,,,,,,,0,0,0,0,0,35,35,35,,,,,,,,,,,,,,,,,,,,,,,,,,,451.35162390000187,451.55402989999857,451.53541180002503,451.83555550000165,451.83555550000165,None,452.33637070003897,None,k,1,1.1773447000305168,452.33637070003897,None,None,None,,,,,,,,,,,,,,,,,,,,,,,11015,2,1,2024_Jun_03_1336,stroop_task_switching2,2021.2.3,59.85730020375173,
,,,黄,yellow,j,square,color_mix,单词,,compatible,2,block_switch1,instruction/ready_test.png,instruction/i11.png,,,,,,,,,,,,,,,,,0,0,0,0,0,36,36,36,,,,,,,,,,,,,,,,,,,,,,,,,,,453.5381674999953,453.7393893999979,453.7218871000223,454.0236911000102,454.0236911000102,None,454.52342060004594,None,j,1,0.8862068000016734,454.52342060004594,None,None,None,,,,,,,,,,,,,,,,,,,,,,,11015,2,1,2024_Jun_03_1336,stroop_task_switching2,2021.2.3,59.85730020375173,
,,,蓝,blue,f,square,color_mix,单词,,compatible,1,block_switch1,instruction/ready_test.png,instruction/i11.png,,,,,,,,,,,,,,,,,0,0,0,0,0,37,37,37,,,,,,,,,,,,,,,,,,,,,,,,,,,455.4411766999983,455.6433687999961,455.6249040000257,455.92569340002956,455.92569340002956,None,456.4269774000277,None,f,1,0.902528100006748,456.4269774000277,None,None,None,,,,,,,,,,,,,,,,,,,,,,,11015,2,1,2024_Jun_03_1336,stroop_task_switching2,2021.2.3,59.85730020375173,
,,,绿,red,d,diamond,color_mix,颜色,,incompatible,2,block_switch1,instruction/ready_test.png,instruction/i11.png,,,,,,,,,,,,,,,,,0,0,0,0,0,38,38,38,,,,,,,,,,,,,,,,,,,,,,,,,,,457.3606374000083,457.5607086000382,457.54422939999495,457.8458033000352,457.8458033000352,None,458.34602170001017,None,d,1,0.5117596999625675,458.34602170001017,None,None,None,,,,,,,,,,,,,,,,,,,,,,,11015,2,1,2024_Jun_03_1336,stroop_task_switching2,2021.2.3,59.85730020375173,
,,,黄,yellow,j,diamond,color_mix,颜色,,compatible,1,block_switch1,instruction/ready_test.png,instruction/i11.png,,,,,,,,,,,,,,,,,0,0,0,0,0,39,39,39,,,,,,,,,,,,,,,,,,,,,,,,,,,458.87989909999305,459.0802846000297,459.06430760002695,459.3636306000408,459.3636306000408,None,459.8656835000147,None,j,1,1.1920610000379384,459.8656835000147,None,None,None,,,,,,,,,,,,,,,,,,,,,,,11015,2,1,2024_Jun_03_1336,stroop_task_switching2,2021.2.3,59.85730020375173,
,,,红,blue,f,diamond,color_mix,颜色,,incompatible,1,block_switch1,instruction/ready_test.png,instruction/i11.png,,,,,,,,,,,,,,,,,0,0,0,0,0,40,40,40,,,,,,,,,,,,,,,,,,,,,,,,,,,461.0832781000063,461.28424850001466,461.2666234000353,461.56809590000194,461.56809590000194,None,462.06760070001474,None,f,1,0.5826046000001952,462.06760070001474,None,None,None,,,,,,,,,,,,,,,,,,,,,,,11015,2,1,2024_Jun_03_1336,stroop_task_switching2,2021.2.3,59.85730020375173,
,,,绿,blue,k,square,color_mix,单词,,incompatible,2,block_switch1,instruction/ready_test.png,instruction/i11.png,,,,,,,,,,,,,,,,,0,0,0,0,0,41,41,41,,,,,,,,,,,,,,,,,,,,,,,,,,,462.6687244999921,462.8699359000311,462.85225009999704,463.15388310002163,463.15388310002163,None,463.6535179000348,None,k,1,0.8524404999916442,463.6535179000348,None,None,None,,,,,,,,,,,,,,,,,,,,,,,11015,2,1,2024_Jun_03_1336,stroop_task_switching2,2021.2.3,59.85730020375173,
,,,蓝,blue,f,diamond,color_mix,颜色,,compatible,2,block_switch1,instruction/ready_test.png,instruction/i11.png,,,,,,,,,,,,,,,,,0,0,0,0,0,42,42,42,,,,,,,,,,,,,,,,,,,,,,,,,,,464.52150239999173,464.72195470001316,464.7057250000071,465.00537100003567,465.00537100003567,None,465.5064392000204,None,f,1,1.5593290000106208,465.5064392000204,None,None,None,,,,,,,,,,,,,,,,,,,,,,,11015,2,1,2024_Jun_03_1336,stroop_task_switching2,2021.2.3,59.85730020375173,
,,,红,blue,d,square,color_mix,单词,,incompatible,2,block_switch1,instruction/ready_test.png,instruction/i11.png,,,,,,,,,,,,,,,,,0,0,0,0,0,43,43,43,,,,,,,,,,,,,,,,,,,,,,,,,,,467.0918845999986,467.29235750000225,467.27577140001813,467.5787253000308,467.5787253000308,None,468.07662320003146,None,d,1,1.3817226000246592,468.07662320003146,None,None,None,,,,,,,,,,,,,,,,,,,,,,,11015,2,1,2024_Jun_03_1336,stroop_task_switching2,2021.2.3,59.85730020375173,
,,,蓝,green,k,diamond,color_mix,颜色,,incompatible,2,block_switch1,instruction/ready_test.png,instruction/i11.png,,,,,,,,,,,,,,,,,0,0,0,0,0,44,44,44,,,,,,,,,,,,,,,,,,,,,,,,,,,469.4790210000356,469.6793966999976,469.6645225000102,469.9640963000129,469.9640963000129,None,470.46403979999013,None,k,1,0.810026100021787,470.46403979999013,None,None,None,,,,,,,,,,,,,,,,,,,,,,,11015,2,1,2024_Jun_03_1336,stroop_task_switching2,2021.2.3,59.85730020375173,
,,,黄,yellow,j,square,color_mix,单词,,compatible,2,block_switch1,instruction/ready_test.png,instruction/i11.png,,,,,,,,,,,,,,,,,0,0,0,0,0,45,45,45,,,,,,,,,,,,,,,,,,,,,,,,,,,471.2984652000014,471.49867120001,471.4821546000312,471.78289620002033,471.78289620002033,None,472.2836981000146,None,j,1,1.0787911000079475,472.2836981000146,None,None,None,,,,,,,,,,,,,,,,,,,,,,,11015,2,1,2024_Jun_03_1336,stroop_task_switching2,2021.2.3,59.85730020375173,
,,,黄,yellow,j,diamond,color_mix,颜色,,compatible,2,block_switch1,instruction/ready_test.png,instruction/i11.png,,,,,,,,,,,,,,,,,0,0,0,0,0,46,46,46,,,,,,,,,,,,,,,,,,,,,,,,,,,473.3848677999922,473.58512000000337,473.5692185999942,473.8695796999964,473.8695796999964,None,474.369728700025,None,j,1,0.8322237000102177,474.369728700025,None,None,None,,,,,,,,,,,,,,,,,,,,,,,11015,2,1,2024_Jun_03_1336,stroop_task_switching2,2021.2.3,59.85730020375173,
,,,绿,red,k,square,color_mix,单词,,incompatible,2,block_switch1,instruction/ready_test.png,instruction/i11.png,,,,,,,,,,,,,,,,,0,0,0,0,0,47,47,47,,,,,,,,,,,,,,,,,,,,,,,,,,,475.2209940000321,475.4214122000267,475.40512990002753,475.70615660003386,475.70615660003386,None,476.2057787000085,None,d,0,2.6686174999922514,476.2057787000085,None,None,None,,,,,,,,,,,,,,,,,,,,,,,11015,2,1,2024_Jun_03_1336,stroop_task_switching2,2021.2.3,59.85730020375173,
,,,红,red,d,diamond,color_mix,颜色,,compatible,2,block_switch1,instruction/ready_test.png,instruction/i11.png,,,,,,,,,,,,,,,,,0,0,0,0,0,48,48,48,,,,,,,,,,,,,,,,,,,,,,,,,,,478.8935773000121,479.0935368000064,479.0791607000283,479.3944955000188,479.37853099999484,None,479.87784790003207,None,d,1,0.5968193000298925,479.87784790003207,None,None,None,,,,,,,,,,,,,,,,,,,,,,,11015,2,1,2024_Jun_03_1336,stroop_task_switching2,2021.2.3,59.85730020375173,
,,,蓝,blue,f,diamond,color_mix,颜色,,compatible,1,block_switch1,instruction/ready_test.png,instruction/i11.png,,,,,,,,,,,,,,,,,0,0,0,0,0,49,49,49,,,,,,,,,,,,,,,,,,,,,,,,,,,480.49564969999483,480.6965065000113,480.67971920000855,480.98080780002056,480.98080780002056,None,481.48046340001747,None,f,1,0.5857440000399947,481.48046340001747,None,None,None,,,,,,,,,,,,,,,,,,,,,,,11015,2,1,2024_Jun_03_1336,stroop_task_switching2,2021.2.3,59.85730020375173,
,,,黄,yellow,j,diamond,color_mix,颜色,,compatible,1,block_switch1,instruction/ready_test.png,instruction/i11.png,,,,,,,,,,,,,,,,,0,0,0,0,0,50,50,50,,,,,,,,,,,,,,,,,,,,,,,,,,,482.0980254000169,482.30012660002103,482.28172850003466,482.58220190001884,482.58220190001884,None,483.082838500035,None,j,1,0.48733850003918633,483.082838500035,None,None,None,,,,,,,,,,,,,,,,,,,,,,,11015,2,1,2024_Jun_03_1336,stroop_task_switching2,2021.2.3,59.85730020375173,
,,,红,blue,f,diamond,color_mix,颜色,,incompatible,1,block_switch1,instruction/ready_test.png,instruction/i11.png,,,,,,,,,,,,,,,,,0,0,0,0,0,51,51,51,,,,,,,,,,,,,,,,,,,,,,,,,,,483.600436000037,483.80261960002827,483.78396000002977,484.0844142000424,484.0844142000424,None,484.58526359999087,None,f,1,1.153068300045561,484.58526359999087,None,None,None,,,,,,,,,,,,,,,,,,,,,,,11015,2,1,2024_Jun_03_1336,stroop_task_switching2,2021.2.3,59.85730020375173,
,,,蓝,yellow,j,diamond,color_mix,颜色,,incompatible,1,block_switch1,instruction/ready_test.png,instruction/i11.png,,,,,,,,,,,,,,,,,0,0,0,0,0,52,52,52,,,,,,,,,,,,,,,,,,,,,,,,,,,485.77020740002627,485.97169959999155,485.9540670000133,486.25459379999666,486.25459379999666,None,486.75510660000145,None,j,1,0.6713585999677889,486.75510660000145,None,None,None,,,,,,,,,,,,,,,,,,,,,,,11015,2,1,2024_Jun_03_1336,stroop_task_switching2,2021.2.3,59.85730020375173,
,,,黄,blue,j,square,color_mix,单词,,incompatible,2,block_switch1,instruction/ready_test.png,instruction/i11.png,,,,,,,,,,,,,,,,,0,0,0,0,0,53,53,53,,,,,,,,,,,,,,,,,,,,,,,,,,,487.4562130999984,487.65636480000103,487.63988229999086,487.9406767000328,487.9406767000328,None,488.4411287000403,None,j,1,1.6254805999924429,488.4411287000403,None,None,None,,,,,,,,,,,,,,,,,,,,,,,11015,2,1,2024_Jun_03_1336,stroop_task_switching2,2021.2.3,59.85730020375173,
,,,蓝,blue,f,diamond,color_mix,颜色,,compatible,2,block_switch1,instruction/ready_test.png,instruction/i11.png,,,,,,,,,,,,,,,,,0,0,0,0,0,54,54,54,,,,,,,,,,,,,,,,,,,,,,,,,,,490.09341850003693,490.2950323999976,490.277001200011,490.57860890001757,490.57860890001757,None,491.0782300000428,None,f,1,0.9167033000267111,491.0782300000428,None,None,None,,,,,,,,,,,,,,,,,,,,,,,11015,2,1,2024_Jun_03_1336,stroop_task_switching2,2021.2.3,59.85730020375173,
,,,红,yellow,d,square,color_mix,单词,,incompatible,2,block_switch1,instruction/ready_test.png,instruction/i11.png,,,,,,,,,,,,,,,,,0,0,0,0,0,55,55,55,,,,,,,,,,,,,,,,,,,,,,,,,,,492.0131556999986,492.2148745000013,492.19652420002967,492.4978040000424,492.4978040000424,None,492.9977232000092,None,d,1,1.1569728999747895,492.9977232000092,None,None,None,,,,,,,,,,,,,,,,,,,,,,,11015,2,1,2024_Jun_03_1336,stroop_task_switching2,2021.2.3,59.85730020375173,
,,,蓝,red,f,square,color_mix,单词,,incompatible,1,block_switch1,instruction/ready_test.png,instruction/i11.png,,,,,,,,,,,,,,,,,0,0,0,0,0,56,56,56,,,,,,,,,,,,,,,,,,,,,,,,,,,494.1828078000108,494.3847051000339,494.3664921000018,494.6670443000039,494.6670443000039,None,495.1678314000019,None,f,1,1.2830361999804154,495.1678314000019,None,None,None,,,,,,,,,,,,,,,,,,,,,,,11015,2,1,2024_Jun_03_1336,stroop_task_switching2,2021.2.3,59.85730020375173,
,,,蓝,blue,f,square,color_mix,单词,,compatible,1,block_switch1,instruction/ready_test.png,instruction/i11.png,,,,,,,,,,,,,,,,,0,0,0,0,0,57,57,57,,,,,,,,,,,,,,,,,,,,,,,,,,,496.4696440999978,496.67074370000046,496.65329859999474,496.9555069000344,496.9555069000344,None,497.45447669998975,None,f,1,0.8524041000055149,497.45447669998975,None,None,None,,,,,,,,,,,,,,,,,,,,,,,11015,2,1,2024_Jun_03_1336,stroop_task_switching2,2021.2.3,59.85730020375173,
,,,蓝,red,d,diamond,color_mix,颜色,,incompatible,2,block_switch1,instruction/ready_test.png,instruction/i11.png,,,,,,,,,,,,,,,,,0,0,0,0,0,58,58,58,,,,,,,,,,,,,,,,,,,,,,,,,,,498.3228964000009,498.522727100004,498.50742949999403,498.8064735000371,498.8064735000371,None,499.3071271000081,None,d,1,0.9117380000534467,499.3071271000081,None,None,None,,,,,,,,,,,,,,,,,,,,,,,11015,2,1,2024_Jun_03_1336,stroop_task_switching2,2021.2.3,59.85730020375173,
,,,绿,green,k,diamond,color_mix,颜色,,compatible,1,block_switch1,instruction/ready_test.png,instruction/i11.png,,,,,,,,,,,,,,,,,0,0,0,0,0,59,59,59,,,,,,,,,,,,,,,,,,,,,,,,,,,500.24186810001265,500.44342240004335,500.4255691000144,500.72766900004353,500.72766900004353,None,501.226881300041,None,k,1,0.7919909000047483,501.226881300041,None,None,None,,,,,,,,,,,,,,,,,,,,,,,11015,2,1,2024_Jun_03_1336,stroop_task_switching2,2021.2.3,59.85730020375173,
,,,蓝,blue,f,diamond,color_mix,颜色,,compatible,1,block_switch1,instruction/ready_test.png,instruction/i11.png,,,,,,,,,,,,,,,,,0,0,0,0,0,60,60,60,,,,,,,,,,,,,,,,,,,,,,,,,,,502.04489250003826,502.2457941999892,502.2283019000315,502.528962899989,502.528962899989,None,503.0295246000169,None,f,1,0.7654396000434645,503.0295246000169,None,None,None,,,,,,,,,,,,,,,,,,,,,,,11015,2,1,2024_Jun_03_1336,stroop_task_switching2,2021.2.3,59.85730020375173,
,,,黄,yellow,j,square,color_mix,单词,,compatible,2,block_switch1,instruction/ready_test.png,instruction/i11.png,,,,,,,,,,,,,,,,,0,0,0,0,0,61,61,61,,,,,,,,,,,,,,,,,,,,,,,,,,,503.8140650000423,504.0148509000428,503.9989362999913,504.2995624000323,504.2995624000323,None,504.8002900000429,None,j,1,0.6508905999944545,504.8002900000429,None,None,None,,,,,,,,,,,,,,,,,,,,,,,11015,2,1,2024_Jun_03_1336,stroop_task_switching2,2021.2.3,59.85730020375173,
,,,绿,blue,k,square,color_mix,单词,,incompatible,1,block_switch1,instruction/ready_test.png,instruction/i11.png,,,,,,,,,,,,,,,,,0,0,0,0,0,62,62,62,,,,,,,,,,,,,,,,,,,,,,,,,,,505.483679500001,505.68355120002525,505.6676044000196,505.9692009999999,505.9692009999999,None,506.4681525999913,None,k,1,1.2073259000317194,506.4681525999913,None,None,None,,,,,,,,,,,,,,,,,,,,,,,11015,2,1,2024_Jun_03_1336,stroop_task_switching2,2021.2.3,59.85730020375173,
,,,蓝,yellow,f,square,color_mix,单词,,incompatible,1,block_switch1,instruction/ready_test.png,instruction/i11.png,,,,,,,,,,,,,,,,,0,0,0,0,0,63,63,63,,,,,,,,,,,,,,,,,,,,,,,,,,,507.70343410002533,507.9036606000154,507.88790540001355,508.18730650004,508.18730650004,None,508.6882723000017,None,f,1,0.9869633999769576,508.6882723000017,None,None,None,,,,,,,,,,,,,,,,,,,,,,,11015,2,1,2024_Jun_03_1336,stroop_task_switching2,2021.2.3,59.85730020375173,
,,,黄,yellow,j,diamond,color_mix,颜色,,compatible,2,block_switch1,instruction/ready_test.png,instruction/i11.png,,,,,,,,,,,,,,,,,0,0,0,0,0,64,64,64,,,,,,,,,,,,,,,,,,,,,,,,,,,509.7063586000004,509.9073449000134,509.88998710003216,510.1902264000382,510.1902264000382,None,510.69090909999795,None,j,1,1.4564170999801718,510.69090909999795,None,None,None,,,,,,,,,,,,,,,,,,,,,,,11015,2,1,2024_Jun_03_1336,stroop_task_switching2,2021.2.3,59.85730020375173,
,,,蓝,green,k,diamond,color_mix,颜色,,incompatible,1,block_switch1,instruction/ready_test.png,instruction/i11.png,,,,,,,,,,,,,,,,,0,0,0,0,0,65,65,65,,,,,,,,,,,,,,,,,,,,,,,,,,,512.1766676999978,512.3771322999964,512.36035610002,512.6615589000285,512.6615589000285,None,513.1615537999896,None,k,1,2.305946100037545,513.1615537999896,None,None,None,,,,,,,,,,,,,,,,,,,,,,,11015,2,1,2024_Jun_03_1336,stroop_task_switching2,2021.2.3,59.85730020375173,
,,,红,red,d,diamond,color_mix,颜色,,compatible,1,block_switch1,instruction/ready_test.png,instruction/i11.png,,,,,,,,,,,,,,,,,0,0,0,0,0,66,66,66,,,,,,,,,,,,,,,,,,,,,,,,,,,515.4814998999937,515.6819447000162,515.6655660000397,515.9662645999924,515.9662645999924,None,516.4664344000048,None,d,1,1.4411818999797106,516.4664344000048,None,None,None,,,,,,,,,,,,,,,,,,,,,,,11015,2,1,2024_Jun_03_1336,stroop_task_switching2,2021.2.3,59.85730020375173,
,,,蓝,yellow,f,square,color_mix,单词,,incompatible,2,block_switch1,instruction/ready_test.png,instruction/i11.png,,,,,,,,,,,,,,,,,0,0,0,0,0,67,67,67,,,,,,,,,,,,,,,,,,,,,,,,,,,517.9352807000396,518.1356392000453,518.1193106000428,518.4195264000446,518.4195264000446,None,518.9204848000081,None,f,1,1.8668401999748312,518.9204848000081,None,None,None,,,,,,,,,,,,,,,,,,,,,,,11015,2,1,2024_Jun_03_1336,stroop_task_switching2,2021.2.3,59.85730020375173,
,,,红,yellow,d,square,color_mix,单词,,incompatible,1,block_switch1,instruction/ready_test.png,instruction/i11.png,,,,,,,,,,,,,,,,,0,0,0,0,0,68,68,68,,,,,,,,,,,,,,,,,,,,,,,,,,,520.8064253000193,521.0066184000461,520.9906114999903,521.2912524000276,521.2912524000276,None,521.7912626999896,524.7975920999888,None,0,,521.7912626999896,524.7975920999888,524.7793892000336,None,,,,,,,,,,,,,,,,,,,,,,,11015,2,1,2024_Jun_03_1336,stroop_task_switching2,2021.2.3,59.85730020375173,
,,,红,yellow,j,diamond,color_mix,颜色,,incompatible,2,block_switch1,instruction/ready_test.png,instruction/i11.png,,,,,,,,,,,,,,,,,0,0,0,0,0,69,69,69,,,,,,,,,,,,,,,,,,,,,,,,,,,525.3631464000209,525.5633965000161,525.5480333000305,525.847365499998,525.847365499998,None,526.3480264000245,None,j,1,2.4233995000249706,526.3480264000245,None,None,None,,,,,,,,,,,,,,,,,,,,,,,11015,2,1,2024_Jun_03_1336,stroop_task_switching2,2021.2.3,59.85730020375173,
,,,蓝,green,f,square,color_mix,单词,,incompatible,2,block_switch1,instruction/ready_test.png,instruction/i11.png,,,,,,,,,,,,,,,,,0,0,0,0,0,70,70,70,,,,,,,,,,,,,,,,,,,,,,,,,,,528.7850439000176,528.9853792000213,528.9687099000439,529.2709463000065,529.2709463000065,None,529.7697244000155,None,k,0,1.4100695999804884,529.7697244000155,None,None,None,,,,,,,,,,,,,,,,,,,,,,,11015,2,1,2024_Jun_03_1336,stroop_task_switching2,2021.2.3,59.85730020375173,
,,,绿,yellow,k,square,color_mix,单词,,incompatible,1,block_switch1,instruction/ready_test.png,instruction/i11.png,,,,,,,,,,,,,,,,,0,0,0,0,0,71,71,71,,,,,,,,,,,,,,,,,,,,,,,,,,,531.2052468000329,531.4054348000209,531.3900244000251,531.6908347000135,531.6908347000135,None,532.1901790000265,None,k,1,0.8774145999923348,532.1901790000265,None,None,None,,,,,,,,,,,,,,,,,,,,,,,11015,2,1,2024_Jun_03_1336,stroop_task_switching2,2021.2.3,59.85730020375173,
,,,蓝,yellow,j,diamond,color_mix,颜色,,incompatible,2,block_switch1,instruction/ready_test.png,instruction/i11.png,,,,,,,,,,,,,,,,,0,0,0,0,0,72,72,72,,,,,,,,,,,,,,,,,,,,,,,,,,,533.091419000004,533.2921163000283,533.2750360000064,533.575725600007,533.575725600007,None,534.0763264000416,None,j,1,1.375555400038138,534.0763264000416,None,None,None,,,,,,,,,,,,,,,,,,,,,,,11015,2,1,2024_Jun_03_1336,stroop_task_switching2,2021.2.3,59.85730020375173,
,,,红,green,d,square,color_mix,单词,,incompatible,2,block_switch1,instruction/ready_test.png,instruction/i11.png,,,,,,,,,,,,,,,,,0,0,0,0,0,73,73,73,,,,,,,,,,,,,,,,,,,,,,,,,,,535.4784919000231,535.6787767999922,535.6621436999994,535.9626420999994,535.9626420999994,None,536.4633433000417,None,d,1,0.836444299959112,536.4633433000417,None,None,None,,,,,,,,,,,,,,,,,,,,,,,11015,2,1,2024_Jun_03_1336,stroop_task_switching2,2021.2.3,59.85730020375173,
,,,绿,blue,f,diamond,color_mix,颜色,,incompatible,2,block_switch1,instruction/ready_test.png,instruction/i11.png,,,,,,,,,,,,,,,,,0,0,0,0,0,74,74,74,,,,,,,,,,,,,,,,,,,,,,,,,,,537.3312681000098,537.5329717000131,537.5148419000325,537.816416000016,537.816416000016,None,538.3165352999931,None,f,1,1.7354464000090957,538.3165352999931,None,None,None,,,,,,,,,,,,,,,,,,,,,,,11015,2,1,2024_Jun_03_1336,stroop_task_switching2,2021.2.3,59.85730020375173,
,,,红,red,d,square,color_mix,单词,,compatible,2,block_switch1,instruction/ready_test.png,instruction/i11.png,,,,,,,,,,,,,,,,,0,0,0,0,0,75,75,75,,,,,,,,,,,,,,,,,,,,,,,,,,,540.068779800029,540.2699991000118,540.2523919999949,540.5526387999998,540.5526387999998,None,541.0534852000419,None,d,1,1.1185041000135243,541.0534852000419,None,None,None,,,,,,,,,,,,,,,,,,,,,,,11015,2,1,2024_Jun_03_1336,stroop_task_switching2,2021.2.3,59.85730020375173,
,,,绿,green,k,diamond,color_mix,颜色,,compatible,2,block_switch1,instruction/ready_test.png,instruction/i11.png,,,,,,,,,,,,,,,,,0,0,0,0,0,76,76,76,,,,,,,,,,,,,,,,,,,,,,,,,,,542.1885247000027,542.3897398000117,542.3722550999955,542.672681200027,542.672681200027,None,543.1733288000105,None,k,1,1.1425223999540322,543.1733288000105,None,None,None,,,,,,,,,,,,,,,,,,,,,,,11015,2,1,2024_Jun_03_1336,stroop_task_switching2,2021.2.3,59.85730020375173,
,,,黄,red,j,square,color_mix,单词,,incompatible,2,block_switch1,instruction/ready_test.png,instruction/i11.png,,,,,,,,,,,,,,,,,0,0,0,0,0,77,77,77,,,,,,,,,,,,,,,,,,,,,,,,,,,544.3417776999995,544.5431587999919,544.5255221000407,544.8271932000061,544.8271932000061,None,545.3267271000077,None,j,1,0.6531297999899834,545.3267271000077,None,None,None,,,,,,,,,,,,,,,,,,,,,,,11015,2,1,2024_Jun_03_1336,stroop_task_switching2,2021.2.3,59.85730020375173,
,,,红,red,d,square,color_mix,单词,,compatible,1,block_switch1,instruction/ready_test.png,instruction/i11.png,,,,,,,,,,,,,,,,,0,0,0,0,0,78,78,78,,,,,,,,,,,,,,,,,,,,,,,,,,,546.0110821000417,546.2113152000238,546.1946926999954,546.4960459000431,546.4960459000431,None,546.9958393000416,None,d,1,0.6564172999933362,546.9958393000416,None,None,None,,,,,,,,,,,,,,,,,,,,,,,11015,2,1,2024_Jun_03_1336,stroop_task_switching2,2021.2.3,59.85730020375173,
,,,黄,yellow,j,square,color_mix,单词,,compatible,1,block_switch1,instruction/ready_test.png,instruction/i11.png,,,,,,,,,,,,,,,,,0,0,0,0,0,79,79,79,,,,,,,,,,,,,,,,,,,,,,,,,,,547.6808028999949,547.8813227000064,547.8638158999966,548.1642848000047,548.1642848000047,None,548.6650343000074,None,j,1,0.9471334000118077,548.6650343000074,None,None,None,,,,,,,,,,,,,,,,,,,,,,,11015,2,1,2024_Jun_03_1336,stroop_task_switching2,2021.2.3,59.85730020375173,
,,,红,red,d,diamond,color_mix,颜色,,compatible,2,block_switch1,instruction/ready_test.png,instruction/i11.png,,,,,,,,,,,,,,,,,0,0,0,0,0,80,80,80,,,,,,,,,,,,,,,,,,,,,,,,,,,549.6329793999903,549.8348310000147,549.816727700003,550.1184330999968,550.1184330999968,None,550.6184201000142,None,d,1,1.2099059000029229,550.6184201000142,None,None,None,,,,,,,,,,,,,,,,,,,,,,,11015,2,1,2024_Jun_03_1336,stroop_task_switching2,2021.2.3,59.85730020375173,
,,,红,red,d,square,color_mix,单词,,compatible,2,block_switch1,instruction/ready_test.png,instruction/i11.png,,,,,,,,,,,,,,,,,0,0,0,0,0,81,81,81,,,,,,,,,,,,,,,,,,,,,,,,,,,551.85309769999,552.0539465000038,552.0368246000144,552.3372247000225,552.3372247000225,None,552.8394234000007,None,d,1,1.0929390999954194,552.8394234000007,None,None,None,,,,,,,,,,,,,,,,,,,,,,,11015,2,1,2024_Jun_03_1336,stroop_task_switching2,2021.2.3,59.85730020375173,
,,,黄,blue,f,diamond,color_mix,颜色,,incompatible,2,block_switch1,instruction/ready_test.png,instruction/i11.png,,,,,,,,,,,,,,,,,0,0,0,0,0,82,82,82,,,,,,,,,,,,,,,,,,,,,,,,,,,553.9564152000239,554.1567978000385,554.1413910000119,554.4404695000267,554.4404695000267,None,554.9411327000125,None,f,1,1.3832629999960773,554.9411327000125,None,None,None,,,,,,,,,,,,,,,,,,,,,,,11015,2,1,2024_Jun_03_1336,stroop_task_switching2,2021.2.3,59.85730020375173,
,,,红,yellow,j,diamond,color_mix,颜色,,incompatible,1,block_switch1,instruction/ready_test.png,instruction/i11.png,,,,,,,,,,,,,,,,,0,0,0,0,0,83,83,83,,,,,,,,,,,,,,,,,,,,,,,,,,,556.3433617000119,556.5433943000389,556.52789940004,556.8272805000306,556.8272805000306,None,557.3280682000332,None,j,1,1.436428099987097,557.3280682000332,None,None,None,,,,,,,,,,,,,,,,,,,,,,,11015,2,1,2024_Jun_03_1336,stroop_task_switching2,2021.2.3,59.85730020375173,
,,,黄,red,d,diamond,color_mix,颜色,,incompatible,1,block_switch1,instruction/ready_test.png,instruction/i11.png,,,,,,,,,,,,,,,,,0,0,0,0,0,84,84,84,,,,,,,,,,,,,,,,,,,,,,,,,,,558.7801762000308,558.9807114000432,558.9648380000144,559.2655048000161,559.2655048000161,None,559.765523500042,None,d,1,0.6875689000007696,559.765523500042,None,None,None,,,,,,,,,,,,,,,,,,,,,,,11015,2,1,2024_Jun_03_1336,stroop_task_switching2,2021.2.3,59.85730020375173,
,,,蓝,blue,f,square,color_mix,单词,,compatible,2,block_switch1,instruction/ready_test.png,instruction/i11.png,,,,,,,,,,,,,,,,,0,0,0,0,0,85,85,85,,,,,,,,,,,,,,,,,,,,,,,,,,,560.4829358000425,560.6835350000183,560.6665050000302,560.9669349000324,560.9669349000324,None,561.4677427000133,None,f,1,1.8248571999720298,561.4677427000133,None,None,None,,,,,,,,,,,,,,,,,,,,,,,11015,2,1,2024_Jun_03_1336,stroop_task_switching2,2021.2.3,59.85730020375173,
,,,绿,green,k,square,color_mix,单词,,compatible,1,block_switch1,instruction/ready_test.png,instruction/i11.png,,,,,,,,,,,,,,,,,0,0,0,0,0,86,86,86,,,,,,,,,,,,,,,,,,,,,,,,,,,563.3206318000448,563.5209076000028,563.5056093999883,563.8045803999994,563.8045803999994,None,564.305235900043,None,k,1,0.7558064999757335,564.305235900043,None,None,None,,,,,,,,,,,,,,,,,,,,,,,11015,2,1,2024_Jun_03_1336,stroop_task_switching2,2021.2.3,59.85730020375173,
,,,红,red,d,square,color_mix,单词,,compatible,1,block_switch1,instruction/ready_test.png,instruction/i11.png,,,,,,,,,,,,,,,,,0,0,0,0,0,87,87,87,,,,,,,,,,,,,,,,,,,,,,,,,,,565.0899607000174,565.2902010999969,565.2738509000046,565.5738253000309,565.5738253000309,None,566.0745333000086,None,d,1,0.9064958000089973,566.0745333000086,None,None,None,,,,,,,,,,,,,,,,,,,,,,,11015,2,1,2024_Jun_03_1336,stroop_task_switching2,2021.2.3,59.85730020375173,
,,,黄,green,k,diamond,color_mix,颜色,,incompatible,2,block_switch1,instruction/ready_test.png,instruction/i11.png,,,,,,,,,,,,,,,,,0,0,0,0,0,88,88,88,,,,,,,,,,,,,,,,,,,,,,,,,,,567.0092971000122,567.2102926000371,567.1927506999928,567.4934701000457,567.4934701000457,None,567.9942441000021,None,k,1,2.8503504999680445,567.9942441000021,None,None,None,,,,,,,,,,,,,,,,,,,,,,,11015,2,1,2024_Jun_03_1336,stroop_task_switching2,2021.2.3,59.85730020375173,
,,,绿,red,k,square,color_mix,单词,,incompatible,2,block_switch1,instruction/ready_test.png,instruction/i11.png,,,,,,,,,,,,,,,,,0,0,0,0,0,89,89,89,,,,,,,,,,,,,,,,,,,,,,,,,,,570.8650736000272,571.0656436000136,571.0500254000071,571.3502176000038,571.3502176000038,None,571.8501746000256,None,d,0,1.8667735999915749,571.8501746000256,None,None,None,,,,,,,,,,,,,,,,,,,,,,,11015,2,1,2024_Jun_03_1336,stroop_task_switching2,2021.2.3,59.85730020375173,
,,,黄,green,j,square,color_mix,单词,,incompatible,1,block_switch1,instruction/ready_test.png,instruction/i11.png,,,,,,,,,,,,,,,,,0,0,0,0,0,90,90,90,,,,,,,,,,,,,,,,,,,,,,,,,,,573.736176400038,573.9365073000081,573.9207220000098,574.2201243000454,574.2201243000454,None,574.7209164000233,None,j,1,1.9559899999876507,574.7209164000233,None,None,None,,,,,,,,,,,,,,,,,,,,,,,11015,2,1,2024_Jun_03_1336,stroop_task_switching2,2021.2.3,59.85730020375173,
,,,蓝,blue,f,square,color_mix,单词,,compatible,1,block_switch1,instruction/ready_test.png,instruction/i11.png,,,,,,,,,,,,,,,,,0,0,0,0,0,91,91,91,,,,,,,,,,,,,,,,,,,,,,,,,,,576.707113600045,576.9082429000409,576.890773400024,577.1919881000067,577.1919881000067,None,577.6921411000076,None,f,1,2.1449608000111766,577.6921411000076,None,None,None,,,,,,,,,,,,,,,,,,,,,,,11015,2,1,2024_Jun_03_1336,stroop_task_switching2,2021.2.3,59.85730020375173,
,,,蓝,red,f,square,color_mix,单词,,incompatible,1,block_switch1,instruction/ready_test.png,instruction/i11.png,,,,,,,,,,,,,,,,,0,0,0,0,0,92,92,92,,,,,,,,,,,,,,,,,,,,,,,,,,,579.8619553000317,580.0629482000368,580.0467657000409,580.3462388000335,580.3462388000335,None,580.8471586999949,None,f,1,0.5662896999856457,580.8471586999949,None,None,None,,,,,,,,,,,,,,,,,,,,,,,11015,2,1,2024_Jun_03_1336,stroop_task_switching2,2021.2.3,59.85730020375173,
,,,黄,blue,j,square,color_mix,单词,,incompatible,1,block_switch1,instruction/ready_test.png,instruction/i11.png,,,,,,,,,,,,,,,,,0,0,0,0,0,93,93,93,,,,,,,,,,,,,,,,,,,,,,,,,,,581.4311231999891,581.6331622000434,581.6148618000443,581.9156177000259,581.9156177000259,None,582.4158413000405,None,f,0,0.4450799999758601,582.4158413000405,None,None,None,,,,,,,,,,,,,,,,,,,,,,,11015,2,1,2024_Jun_03_1336,stroop_task_switching2,2021.2.3,59.85730020375173,
,,,绿,red,d,diamond,color_mix,颜色,,incompatible,2,block_switch1,instruction/ready_test.png,instruction/i11.png,,,,,,,,,,,,,,,,,0,0,0,0,0,94,94,94,,,,,,,,,,,,,,,,,,,,,,,,,,,582.8833884000196,583.0845256000175,583.0669473000453,583.3676381999976,583.3676381999976,None,583.8679450000054,None,d,1,2.793233099975623,583.8679450000054,None,None,None,,,,,,,,,,,,,,,,,,,,,,,11015,2,1,2024_Jun_03_1336,stroop_task_switching2,2021.2.3,59.85730020375173,
,,,蓝,blue,f,diamond,color_mix,颜色,,compatible,1,block_switch1,instruction/ready_test.png,instruction/i11.png,,,,,,,,,,,,,,,,,0,0,0,0,0,95,95,95,,,,,,,,,,,,,,,,,,,,,,,,,,,586.6892817000044,586.8893341000075,586.8727497000364,587.1740253000171,587.1740253000171,None,587.6749128000229,None,f,1,2.1303789000376128,587.6749128000229,None,None,None,,,,,,,,,,,,,,,,,,,,,,,11015,2,1,2024_Jun_03_1336,stroop_task_switching2,2021.2.3,59.85730020375173,
,,,绿,green,k,square,color_mix,单词,,compatible,2,block_switch1,instruction/ready_test.png,instruction/i11.png,,,,,,,,,,,,,,,,,0,0,0,0,0,96,96,96,,,,,,,,,,,,,,,,,,,,,,,,,,,589.8270732000237,590.0294800000265,590.0106804000097,590.311513099994,590.311513099994,None,590.8119508000091,None,k,1,1.753556000010576,590.8119508000091,None,None,None,,,,,,,,,,,,,,,,,,,,,,,11015,2,1,2024_Jun_03_1336,stroop_task_switching2,2021.2.3,59.85730020375173,
,,,,,,,,,,,,block_switch1,instruction/ready_test.png,instruction/i11.png,,,,,,,,,,,,,,,,,0,0,0,0,,,,,,,,,,,,,,,,,,,,,,,,,,,,,,,,,,,,,,,,,,,,,,,,,,,,,,,,,,,,592.5812665999983,None,space,9.888427299971227,592.5812665999983,None,,,11015,2,1,2024_Jun_03_1336,stroop_task_switching2,2021.2.3,59.85730020375173,
,,,蓝,blue,f,square,color_mix,单词,,compatible,0,block_switch2,instruction/ready_2.png,instruction/i12.png,,,,,,,,,,,,,,,,,0,1,1,1,0,0,0,0,,,,,,,,,,,,,,,,,,,610.6264377000043,611.6270511000184,611.6270511000184,612.6283279000199,612.6283279000199,None,609.6403919000295,610.6417662000167,613.6460805000388,613.8478742000298,613.8478742000298,614.1490024999948,614.1490024999948,None,614.6478803000064,None,f,1,0.5902237999835052,614.6478803000064,None,None,None,,,,,,,,,602.5126999000204,None,space,7.1093183000339195,602.5126999000204,None,,,,,,,,,11015,2,1,2024_Jun_03_1336,stroop_task_switching2,2021.2.3,59.85730020375173,
,,,黄,red,d,diamond,color_mix,颜色,,incompatible,2,block_switch2,instruction/ready_2.png,instruction/i12.png,,,,,,,,,,,,,,,,,0,1,1,1,0,1,1,1,,,,,,,,,,,,,,,,,,,,,,,,,,,615.2988217000384,615.4992151000188,615.448942499992,615.7500648000278,615.7500648000278,None,616.2503281999961,None,d,1,0.7716008999850601,616.2503281999961,None,None,None,,,,,,,,,,,,,,,,,,,,,,,11015,2,1,2024_Jun_03_1336,stroop_task_switching2,2021.2.3,59.85730020375173,
,,,蓝,green,k,diamond,color_mix,颜色,,incompatible,1,block_switch2,instruction/ready_2.png,instruction/i12.png,,,,,,,,,,,,,,,,,0,1,1,1,0,2,2,2,,,,,,,,,,,,,,,,,,,,,,,,,,,617.0688995000091,617.269460999989,617.2368594,617.5529970999924,617.5362259999965,None,618.0362246000441,None,k,1,0.6738207000307739,618.0362246000441,None,None,None,,,,,,,,,,,,,,,,,,,,,,,11015,2,1,2024_Jun_03_1336,stroop_task_switching2,2021.2.3,59.85730020375173,
,,,红,yellow,j,diamond,color_mix,颜色,,incompatible,1,block_switch2,instruction/ready_2.png,instruction/i12.png,,,,,,,,,,,,,,,,,0,1,1,1,0,3,3,3,,,,,,,,,,,,,,,,,,,,,,,,,,,618.7371219000197,618.9386918999953,618.9207891999977,619.2231549000135,619.2231549000135,None,619.7222249000333,None,j,1,0.5800675000064075,619.7222249000333,None,None,None,,,,,,,,,,,,,,,,,,,,,,,11015,2,1,2024_Jun_03_1336,stroop_task_switching2,2021.2.3,59.85730020375173,
,,,红,red,d,diamond,color_mix,颜色,,compatible,1,block_switch2,instruction/ready_2.png,instruction/i12.png,,,,,,,,,,,,,,,,,0,1,1,1,0,4,4,4,,,,,,,,,,,,,,,,,,,,,,,,,,,620.3233111000154,620.5243491000147,620.5067866999889,620.807234900014,620.807234900014,None,621.3079987000092,None,d,1,0.7943378000054508,621.3079987000092,None,None,None,,,,,,,,,,,,,,,,,,,,,,,11015,2,1,2024_Jun_03_1336,stroop_task_switching2,2021.2.3,59.85730020375173,
,,,绿,green,k,square,color_mix,单词,,compatible,2,block_switch2,instruction/ready_2.png,instruction/i12.png,,,,,,,,,,,,,,,,,0,1,1,1,0,5,5,5,,,,,,,,,,,,,,,,,,,,,,,,,,,622.125841400004,622.3272870000219,622.3095152000315,622.609855799994,622.609855799994,None,623.1107177000376,None,k,1,0.567574999993667,623.1107177000376,None,None,None,,,,,,,,,,,,,,,,,,,,,,,11015,2,1,2024_Jun_03_1336,stroop_task_switching2,2021.2.3,59.85730020375173,
,,,黄,blue,f,diamond,color_mix,颜色,,incompatible,2,block_switch2,instruction/ready_2.png,instruction/i12.png,,,,,,,,,,,,,,,,,0,1,1,1,0,6,6,6,,,,,,,,,,,,,,,,,,,,,,,,,,,623.6951493000379,623.8969546000008,623.8784689999884,624.1806275999988,624.1806275999988,None,624.6796977000195,None,f,1,0.5266898000263609,624.6796977000195,None,None,None,,,,,,,,,,,,,,,,,,,,,,,11015,2,1,2024_Jun_03_1336,stroop_task_switching2,2021.2.3,59.85730020375173,
,,,绿,yellow,k,square,color_mix,单词,,incompatible,2,block_switch2,instruction/ready_2.png,instruction/i12.png,,,,,,,,,,,,,,,,,0,1,1,1,0,7,7,7,,,,,,,,,,,,,,,,,,,,,,,,,,,625.2304219999933,625.4314462000038,625.4143066999968,625.7162267999956,625.7162267999956,None,626.2155413000146,None,j,0,0.782751000020653,626.2155413000146,None,None,None,,,,,,,,,,,,,,,,,,,,,,,11015,2,1,2024_Jun_03_1336,stroop_task_switching2,2021.2.3,59.85730020375173,
,,,红,green,d,square,color_mix,单词,,incompatible,1,block_switch2,instruction/ready_2.png,instruction/i12.png,,,,,,,,,,,,,,,,,0,1,1,1,0,8,8,8,,,,,,,,,,,,,,,,,,,,,,,,,,,627.0164985000156,627.2168630000087,627.2002371000126,627.501745800022,627.501745800022,None,628.0013030000264,None,d,1,0.7172809000476263,628.0013030000264,None,None,None,,,,,,,,,,,,,,,,,,,,,,,11015,2,1,2024_Jun_03_1336,stroop_task_switching2,2021.2.3,59.85730020375173,
,,,黄,yellow,j,square,color_mix,单词,,compatible,1,block_switch2,instruction/ready_2.png,instruction/i12.png,,,,,,,,,,,,,,,,,0,1,1,1,0,9,9,9,,,,,,,,,,,,,,,,,,,,,,,,,,,628.7358048000024,628.9370178999961,628.9193951000343,629.2200929000392,629.2200929000392,None,629.720547200006,None,j,1,0.6859362999675795,629.720547200006,None,None,None,,,,,,,,,,,,,,,,,,,,,,,11015,2,1,2024_Jun_03_1336,stroop_task_switching2,2021.2.3,59.85730020375173,
