b_pra,ins_blocks,ins_blocks2,stim_word,stim_color,corrAns,cue_type,trial_type,task_type,rand,compatibility,switch,b_test,w_pic,w_pic2,trials_instr.thisRepN,trials_instr.thisTrialN,trials_instr.thisN,trials_instr.thisIndex,block_pra.thisRepN,block_pra.thisTrialN,block_pra.thisN,block_pra.thisIndex,trials_rep.thisRepN,trials_rep.thisTrialN,trials_rep.thisN,trials_rep.thisIndex,trials_pra.thisRepN,trials_pra.thisTrialN,trials_pra.thisN,trials_pra.thisIndex,trials_3.thisRepN,trials_3.thisTrialN,trials_3.thisN,trials_3.thisIndex,trials_2.thisRepN,trials_2.thisTrialN,trials_2.thisN,trials_2.thisIndex,instr_image.started,instr_image.stopped,instr_key_resp.keys,instr_key_resp.rt,instr_key_resp.started,instr_key_resp.stopped,instr_pra_image.started,instr_pra_image.stopped,ip_key_resp.keys,ip_key_resp.rt,ip_key_resp.started,ip_key_resp.stopped,block_image.started,block_image.stopped,ib_key_resp.keys,ib_key_resp.rt,ib_key_resp.started,ib_key_resp.stopped,cd3.started,cd3.stopped,cd2.started,cd2.stopped,cd1.started,cd1.stopped,cd_text.started,cd_text.stopped,text_fix.started,text_fix.stopped,text_2.started,text_2.stopped,text_4.started,text_4.stopped,text_target.started,text_target.stopped,key_resp.keys,key_resp.corr,key_resp.rt,key_resp.started,key_resp.stopped,sceen_black.started,sceen_black.stopped,text_fb.started,text_fb.stopped,text.started,text.stopped,key_bf.keys,key_bf.rt,key_bf.started,key_bf.stopped,instr_test_image.started,instr_test_image.stopped,instr_exp_key_resp.keys,instr_exp_key_resp.rt,instr_exp_key_resp.started,instr_exp_key_resp.stopped,text_rest.started,text_rest.stopped,key_resp_rest.keys,key_resp_rest.rt,key_resp_rest.started,key_resp_rest.stopped,text_3.started,text_3.stopped,participant,session,balance,date,expName,psychopyVersion,frameRate,
,,,,,,,,,,,,,,,0,0,0,0,,,,,,,,,,,,,,,,,,,,,9.423858399997698,None,right,16.053467799996724,9.423858399997698,None,,,,,,,,,,,,,,,,,,,,,,,,,,,,,,,,,,,,,,,,,,,,,,,,,,,,,,,,,,11010,1,2,2024_Jun_18_0904,stroop_task_switching2_b,2021.2.3,59.97699282492041,
,,,,,,,,,,,,,,,1,0,1,0,,,,,,,,,,,,,,,,,,,,,25.532074099988677,None,right,72.48307829999248,25.532074099988677,None,,,,,,,,,,,,,,,,,,,,,,,,,,,,,,,,,,,,,,,,,,,,,,,,,,,,,,,,,,11010,1,2,2024_Jun_18_0904,stroop_task_switching2_b,2021.2.3,59.97699282492041,
,,,,,,,,,,,,,,,2,0,2,0,,,,,,,,,,,,,,,,,,,,,98.07644060000894,None,right,0.7950664000236429,98.07644060000894,None,,,,,,,,,,,,,,,,,,,,,,,,,,,,,,,,,,,,,,,,,,,,,,,,,,,,,,,,,,11010,1,2,2024_Jun_18_0904,stroop_task_switching2_b,2021.2.3,59.97699282492041,
,,,,,,,,,,,,,,,3,0,3,0,,,,,,,,,,,,,,,,,,,,,98.90853389998665,None,right,0.13119419998838566,98.90853389998665,None,,,,,,,,,,,,,,,,,,,,,,,,,,,,,,,,,,,,,,,,,,,,,,,,,,,,,,,,,,11010,1,2,2024_Jun_18_0904,stroop_task_switching2_b,2021.2.3,59.97699282492041,
,,,,,,,,,,,,,,,4,0,4,0,,,,,,,,,,,,,,,,,,,,,99.07514259999152,None,right,0.1322269999946002,99.07514259999152,None,,,,,,,,,,,,,,,,,,,,,,,,,,,,,,,,,,,,,,,,,,,,,,,,,,,,,,,,,,11010,1,2,2024_Jun_18_0904,stroop_task_switching2_b,2021.2.3,59.97699282492041,
,,,,,,,,,,,,,,,5,0,5,0,,,,,,,,,,,,,,,,,,,,,99.24254669999937,None,right,0.772664199990686,99.24254669999937,None,,,,,,,,,,,,,,,,,,,,,,,,,,,,,,,,,,,,,,,,,,,,,,,,,,,,,,,,,,11010,1,2,2024_Jun_18_0904,stroop_task_switching2_b,2021.2.3,59.97699282492041,
,,,,,,,,,,,,,,,,,,,,,,,,,,,,,,,,,,,,,,,,,,,,,100.060645199992,None,space,1.4410363000060897,100.060645199992,None,,,,,,,,,,,,,,,,,,,,,,,,,,,,,,,,,,,,,,,,,,,,,,,,,,,,11010,1,2,2024_Jun_18_0904,stroop_task_switching2_b,2021.2.3,59.97699282492041,
condition/block_color_b,instruction/instr_color,instruction/i8_b,XX,red,k,diamond,color_single,颜色,,,,,,,,,,,0,0,0,0,0,0,0,0,0,0,0,0,,,,,,,,,,,,,,,,,,,,,101.54594799998449,None,space,9.398178399977041,101.54594799998449,None,112.01325809999253,113.01539129999583,112.9971918000083,113.99917180000921,113.99917180000921,None,111.02697129998705,112.028484999988,114.98281079999288,115.18534200001159,115.1665718999866,115.46716739999829,115.46716739999829,None,115.96781179998652,None,k,1,1.1686195000074804,115.96781179998652,None,None,None,117.15264559999923,None,,,,,,,,,,,,,,,,,,,,,11010,1,2,2024_Jun_18_0904,stroop_task_switching2_b,2021.2.3,59.97699282492041,
condition/block_color_b,instruction/instr_color,instruction/i8_b,XX,green,d,diamond,color_single,颜色,,,,,,,,,,,0,0,0,0,0,0,0,0,0,1,1,1,,,,,,,,,,,,,,,,,,,,,,,,,,,,,,,,,,,118.1545155000058,118.35637419999694,118.33829429998877,118.63849610000034,118.63849610000034,None,119.13948009998421,None,d,1,0.9002023000211921,119.13948009998421,None,None,None,120.05743109999457,None,,,,,,,,,,,,,,,,,,,,,11010,1,2,2024_Jun_18_0904,stroop_task_switching2_b,2021.2.3,59.97699282492041,
condition/block_color_b,instruction/instr_color,instruction/i8_b,XX,yellow,f,diamond,color_single,颜色,,,,,,,,,,,0,0,0,0,0,0,0,0,0,2,2,2,,,,,,,,,,,,,,,,,,,,,,,,,,,,,,,,,,,121.05880379999871,121.26064299998689,121.24239169998327,121.5437733999861,121.5437733999861,None,122.04381030000513,None,f,1,0.4438887000142131,122.04381030000513,None,None,None,122.51099909999175,None,,,,,,,,,,,,,,,,,,,,,11010,1,2,2024_Jun_18_0904,stroop_task_switching2_b,2021.2.3,59.97699282492041,
condition/block_color_b,instruction/instr_color,instruction/i8_b,XX,blue,j,diamond,color_single,颜色,,,,,,,,,,,0,0,0,0,0,0,0,0,0,3,3,3,,,,,,,,,,,,,,,,,,,,,,,,,,,,,,,,,,,123.51272249998874,123.71297319998848,123.69628450000891,123.99668000001111,123.99668000001111,None,124.49718239999493,None,j,1,0.4070116999791935,124.49718239999493,None,None,None,124.9314744999865,None,,,,,,,,,,,,,,,,,,,,,11010,1,2,2024_Jun_18_0904,stroop_task_switching2_b,2021.2.3,59.97699282492041,
condition/block_color_b,instruction/instr_color,instruction/i8_b,XX,green,d,diamond,color_single,颜色,,,,,,,,,,,0,0,0,0,0,0,0,0,0,4,4,4,,,,,,,,,,,,,,,,,,,,,,,,,,,,,,,,,,,125.93284480000148,126.13451360000181,126.11648530000821,126.41761199999019,126.41761199999019,None,126.9179371999926,None,d,1,0.5460559999919496,126.9179371999926,None,None,None,127.48828520000097,None,,,,,,,,,,,,,,,,,,,,,11010,1,2,2024_Jun_18_0904,stroop_task_switching2_b,2021.2.3,59.97699282492041,
condition/block_color_b,instruction/instr_color,instruction/i8_b,XX,yellow,f,diamond,color_single,颜色,,,,,,,,,,,0,0,0,0,0,0,0,0,0,5,5,5,,,,,,,,,,,,,,,,,,,,,,,,,,,,,,,,,,,128.48741909998353,128.6868514000089,128.67105979999178,128.97112709999783,128.97112709999783,None,129.47225049999543,None,f,1,0.7519232000049669,129.47225049999543,None,None,None,130.25634520000312,None,,,,,,,,,,,,,,,,,,,,,11010,1,2,2024_Jun_18_0904,stroop_task_switching2_b,2021.2.3,59.97699282492041,
condition/block_color_b,instruction/instr_color,instruction/i8_b,XX,blue,j,diamond,color_single,颜色,,,,,,,,,,,0,0,0,0,0,0,0,0,0,6,6,6,,,,,,,,,,,,,,,,,,,,,,,,,,,,,,,,,,,131.25734250000096,131.4576439000084,131.4409839999862,131.74225959999603,131.74225959999603,None,132.2422224000038,None,j,1,0.7497494999843184,132.2422224000038,None,None,None,133.01009150000755,None,,,,,,,,,,,,,,,,,,,,,11010,1,2,2024_Jun_18_0904,stroop_task_switching2_b,2021.2.3,59.97699282492041,
condition/block_color_b,instruction/instr_color,instruction/i8_b,XX,red,k,diamond,color_single,颜色,,,,,,,,,,,0,0,0,0,0,0,0,0,0,7,7,7,,,,,,,,,,,,,,,,,,,,,,,,,,,,,,,,,,,134.01180189999286,134.21204569999827,134.19530970000778,134.49588380000205,134.49588380000205,None,134.9966970999958,None,k,1,0.5313751999929082,134.9966970999958,None,None,None,135.54733559998567,None,,,,,,,,,,,,,,,,,,,,,11010,1,2,2024_Jun_18_0904,stroop_task_switching2_b,2021.2.3,59.97699282492041,
condition/block_color_b,instruction/instr_color,instruction/i8_b,XX,yellow,f,diamond,color_single,颜色,,,,,,,,,,,0,0,0,0,0,0,0,0,0,8,8,8,,,,,,,,,,,,,,,,,,,,,,,,,,,,,,,,,,,136.54945980000775,136.75121519999811,136.7326083999942,137.034737399983,137.034737399983,None,137.53434519999428,None,f,1,0.6183484000212047,137.53434519999428,None,None,None,138.16809210000793,None,,,,,,,,,,,,,,,,,,,,,11010,1,2,2024_Jun_18_0904,stroop_task_switching2_b,2021.2.3,59.97699282492041,
condition/block_color_b,instruction/instr_color,instruction/i8_b,XX,blue,j,diamond,color_single,颜色,,,,,,,,,,,0,0,0,0,0,0,0,0,0,9,9,9,,,,,,,,,,,,,,,,,,,,,,,,,,,,,,,,,,,139.1693951000052,139.370345000003,139.3531806000101,139.6550370999903,139.6550370999903,None,140.1542375999852,None,k,0,0.9028392999898642,140.1542375999852,None,None,None,141.0895581000077,None,,,,,,,,,,,,,,,,,,,,,11010,1,2,2024_Jun_18_0904,stroop_task_switching2_b,2021.2.3,59.97699282492041,
condition/block_color_b,instruction/instr_color,instruction/i8_b,XX,red,k,diamond,color_single,颜色,,,,,,,,,,,0,0,0,0,0,0,0,0,0,10,10,10,,,,,,,,,,,,,,,,,,,,,,,,,,,,,,,,,,,142.09057450000546,142.29133999999613,142.27457169999252,142.5752489999868,142.5588679999928,None,143.06002959999023,None,k,1,0.7002906000125222,143.06002959999023,None,None,None,143.77652630000375,None,,,,,,,,,,,,,,,,,,,,,11010,1,2,2024_Jun_18_0904,stroop_task_switching2_b,2021.2.3,59.97699282492041,
condition/block_color_b,instruction/instr_color,instruction/i8_b,XX,green,d,diamond,color_single,颜色,,,,,,,,,,,0,0,0,0,0,0,0,0,0,11,11,11,,,,,,,,,,,,,,,,,,,,,,,,,,,,,,,,,,,144.77800630001002,144.97831310000038,144.96339940000325,145.26335799999651,145.26335799999651,None,145.76271889999043,None,d,1,0.6306191000039689,145.76271889999043,None,None,None,146.4142448999919,None,,,,,,,,,,,,,,,,,,,,,11010,1,2,2024_Jun_18_0904,stroop_task_switching2_b,2021.2.3,59.97699282492041,
condition/block_color_b,instruction/instr_color,instruction/i8_b,XX,blue,j,diamond,color_single,颜色,,,,,,,,,,,0,0,0,0,0,0,0,0,0,12,12,12,,,,,,,,,,,,,,,,,,,,,,,,,,,,,,,,,,,147.41634490000433,147.61745309998514,147.59900300001027,147.8994282000058,147.8994282000058,None,148.40054889998282,None,j,1,1.016517699987162,148.40054889998282,None,None,None,149.4351314000087,None,,,,,,,,,,,,,,,,,,,,,11010,1,2,2024_Jun_18_0904,stroop_task_switching2_b,2021.2.3,59.97699282492041,
condition/block_color_b,instruction/instr_color,instruction/i8_b,XX,red,k,diamond,color_single,颜色,,,,,,,,,,,0,0,0,0,0,0,0,0,0,13,13,13,,,,,,,,,,,,,,,,,,,,,,,,,,,,,,,,,,,150.4364987000008,150.6372669999837,150.62093649999588,150.9215153999976,150.9215153999976,None,151.4211656000116,None,k,1,0.5479240999848116,151.4211656000116,None,None,None,151.98874010000145,None,,,,,,,,,,,,,,,,,,,,,11010,1,2,2024_Jun_18_0904,stroop_task_switching2_b,2021.2.3,59.97699282492041,
condition/block_color_b,instruction/instr_color,instruction/i8_b,XX,green,d,diamond,color_single,颜色,,,,,,,,,,,0,0,0,0,0,0,0,0,0,14,14,14,,,,,,,,,,,,,,,,,,,,,,,,,,,,,,,,,,,152.99108989999513,153.19208350000554,153.17432039999403,153.475588900008,153.475588900008,None,153.97509689998697,None,d,1,0.7379328999959398,153.97509689998697,None,None,None,154.74304120001034,None,,,,,,,,,,,,,,,,,,,,,11010,1,2,2024_Jun_18_0904,stroop_task_switching2_b,2021.2.3,59.97699282492041,
condition/block_color_b,instruction/instr_color,instruction/i8_b,XX,yellow,f,diamond,color_single,颜色,,,,,,,,,,,0,0,0,0,0,0,0,0,0,15,15,15,,,,,,,,,,,,,,,,,,,,,,,,,,,,,,,,,,,155.74539580001147,155.94479370000772,155.92812019999838,156.22837599998456,156.22837599998456,None,156.7293559999962,None,f,1,0.6637424000073224,156.7293559999962,None,None,None,157.41369419998955,None,,,,,,,,,,,,,,,,,,,,,11010,1,2,2024_Jun_18_0904,stroop_task_switching2_b,2021.2.3,59.97699282492041,
condition/block_color_b,instruction/instr_color,instruction/i8_b,XX,red,k,diamond,color_single,颜色,,,,,,,,,,,0,0,0,0,0,0,0,0,0,16,16,16,,,,,,,,,,,,,,,,,,,,,,,,,,,,,,,,,,,158.41517379999277,158.61693839999498,158.6005356000096,158.9159481000097,158.90180259998306,None,159.39988029998494,None,k,1,0.529318399989279,159.39988029998494,None,None,None,159.95151369998348,None,,,,,,,,,,,,,,,,,,,,,11010,1,2,2024_Jun_18_0904,stroop_task_switching2_b,2021.2.3,59.97699282492041,
condition/block_color_b,instruction/instr_color,instruction/i8_b,XX,green,d,diamond,color_single,颜色,,,,,,,,,,,0,0,0,0,0,0,0,0,0,17,17,17,,,,,,,,,,,,,,,,,,,,,,,,,,,,,,,,,,,160.95222939999076,161.15387889998965,161.13662030000705,161.43779090000317,161.43779090000317,None,161.93833639999502,None,d,1,0.6470655000011902,161.93833639999502,None,None,None,162.60465210000984,None,,,,,,,,,,,,,,,,,,,,,11010,1,2,2024_Jun_18_0904,stroop_task_switching2_b,2021.2.3,59.97699282492041,
condition/block_color_b,instruction/instr_color,instruction/i8_b,XX,yellow,f,diamond,color_single,颜色,,,,,,,,,,,0,0,0,0,0,0,0,0,0,18,18,18,,,,,,,,,,,,,,,,,,,,,,,,,,,,,,,,,,,163.60724320000736,163.80709220000426,163.79068849998293,164.09045789999072,164.09045789999072,None,164.59121529999538,None,f,1,0.6498198000190314,164.59121529999538,None,None,None,165.25871639998513,None,,,,,,,,,,,,,,,,,,,,,11010,1,2,2024_Jun_18_0904,stroop_task_switching2_b,2021.2.3,59.97699282492041,
condition/block_color_b,instruction/instr_color,instruction/i8_b,XX,blue,j,diamond,color_single,颜色,,,,,,,,,,,0,0,0,0,0,0,0,0,0,19,19,19,,,,,,,,,,,,,,,,,,,,,,,,,,,,,,,,,,,166.26092619998963,166.4614895999839,166.42834660000517,166.7297094000096,166.74528229999123,None,167.2459780999925,None,j,1,0.6271513999963645,167.2459780999925,None,None,None,167.89619549998315,None,,,,,,,,,,,,,,,,,,,,,11010,1,2,2024_Jun_18_0904,stroop_task_switching2_b,2021.2.3,59.97699282492041,
condition/block_color_b,instruction/instr_color,instruction/i8_b,XX,green,d,diamond,color_single,颜色,,,,,,,,,,,0,0,0,0,0,0,0,0,0,20,20,20,,,,,,,,,,,,,,,,,,,,,,,,,,,,,,,,,,,168.89843820000533,169.0988146000018,169.08203970000613,169.38259120000293,169.38259120000293,None,169.88323609999497,None,d,1,0.6537391999736428,169.88323609999497,None,None,None,170.56678510000347,None,,,,,,,,,,,,,,,,,,,,,11010,1,2,2024_Jun_18_0904,stroop_task_switching2_b,2021.2.3,59.97699282492041,
condition/block_color_b,instruction/instr_color,instruction/i8_b,XX,yellow,f,diamond,color_single,颜色,,,,,,,,,,,0,0,0,0,0,0,0,0,0,21,21,21,,,,,,,,,,,,,,,,,,,,,,,,,,,,,,,,,,,171.5684604999842,171.7695362000086,171.7523138000106,172.05245059999288,172.05245059999288,None,172.55300159999751,None,f,1,0.6162582999968436,172.55300159999751,None,None,None,173.18786209999234,None,,,,,,,,,,,,,,,,,,,,,11010,1,2,2024_Jun_18_0904,stroop_task_switching2_b,2021.2.3,59.97699282492041,
condition/block_color_b,instruction/instr_color,instruction/i8_b,XX,blue,j,diamond,color_single,颜色,,,,,,,,,,,0,0,0,0,0,0,0,0,0,22,22,22,,,,,,,,,,,,,,,,,,,,,,,,,,,,,,,,,,,174.19066880000173,174.3902550000057,174.37356810001074,174.67299990000902,174.67299990000902,None,175.17435169999953,None,j,1,0.7877005999907851,175.17435169999953,None,None,None,175.99159729998792,None,,,,,,,,,,,,,,,,,,,,,11010,1,2,2024_Jun_18_0904,stroop_task_switching2_b,2021.2.3,59.97699282492041,
condition/block_color_b,instruction/instr_color,instruction/i8_b,XX,red,k,diamond,color_single,颜色,,,,,,,,,,,0,0,0,0,0,0,0,0,0,23,23,23,,,,,,,,,,,,,,,,,,,,,,,,,,,,,,,,,,,176.99320490000537,177.19415369999479,177.1776939999836,177.47772530000657,177.47772530000657,None,177.97802629999933,None,k,1,0.4395890000159852,177.97802629999933,None,None,None,178.4453905999835,None,,,,,,,,,,,,,,,,,,,,,11010,1,2,2024_Jun_18_0904,stroop_task_switching2_b,2021.2.3,59.97699282492041,
condition/block_color_b,instruction/instr_color,instruction/i8_b,,,,,,,,,,,,,,,,,0,0,0,0,0,0,0,0,,,,,,,,,,,,,,,,,,,,,,,,,,,,,,,,,,,,,,,,,,,,,,,,,,,,,,,,179.46299959998578,None,space,3.08118419998209,179.46299959998578,None,,,,,,,,,,,,,,,11010,1,2,2024_Jun_18_0904,stroop_task_switching2_b,2021.2.3,59.97699282492041,
condition/block_color_b,instruction/instr_color,instruction/i8_b,,,,,,,,,,,,,,,,,0,0,0,0,,,,,,,,,,,,,,,,,,,,,,,,,,,,,,,,,,,,,,,,,,,,,,,,,,,,,,,,,,,,,,,,,,,,,,,,,,,,,,,,11010,1,2,2024_Jun_18_0904,stroop_task_switching2_b,2021.2.3,59.97699282492041,
condition/block_word_b,instruction/instr_word,instruction/i9_b,黄,white,f,square,word_single,单词,0.0032461461866890584,,,,,,,,,,0,1,1,1,0,0,0,0,0,0,0,0,,,,,,,,,,,,,,,,,,,,,182.5844008999993,None,space,5.65463199999067,182.5844008999993,None,189.26293460000306,190.26346250000643,190.26346250000643,191.2650081999891,191.2650081999891,None,188.27821689998382,189.27973869998823,192.28254330001073,192.4851221999852,192.4851221999852,192.78426379998564,192.78426379998564,None,193.26766370001133,None,f,1,0.8543402999930549,193.26766370001133,None,None,None,194.15241350000724,None,,,,,,,,,,,,,,,,,,,,,11010,1,2,2024_Jun_18_0904,stroop_task_switching2_b,2021.2.3,59.97699282492041,
condition/block_word_b,instruction/instr_word,instruction/i9_b,蓝,white,j,square,word_single,单词,0.060540570646362424,,,,,,,,,,0,1,1,1,0,0,0,0,0,1,1,1,,,,,,,,,,,,,,,,,,,,,,,,,,,,,,,,,,,195.1539527999994,195.35425579998991,195.33821190000162,195.63848550000694,195.63848550000694,None,196.1391724999994,None,j,1,1.3508568000106607,196.1391724999994,None,None,None,197.5074548999837,None,,,,,,,,,,,,,,,,,,,,,11010,1,2,2024_Jun_18_0904,stroop_task_switching2_b,2021.2.3,59.97699282492041,
condition/block_word_b,instruction/instr_word,instruction/i9_b,黄,white,f,square,word_single,单词,0.06994067193778963,,,,,,,,,,0,1,1,1,0,0,0,0,0,2,2,2,,,,,,,,,,,,,,,,,,,,,,,,,,,,,,,,,,,198.50988209998468,198.71035599999595,198.69260479998775,198.99440930000856,198.99440930000856,None,199.4940448999987,None,f,1,1.0199250000005122,199.4940448999987,None,None,None,200.545735599997,None,,,,,,,,,,,,,,,,,,,,,11010,1,2,2024_Jun_18_0904,stroop_task_switching2_b,2021.2.3,59.97699282492041,
condition/block_word_b,instruction/instr_word,instruction/i9_b,蓝,white,j,square,word_single,单词,0.08193765152950094,,,,,,,,,,0,1,1,1,0,0,0,0,0,3,3,3,,,,,,,,,,,,,,,,,,,,,,,,,,,,,,,,,,,201.54703300000983,201.7484664999938,201.73165249999147,202.03179499998805,202.03179499998805,None,202.5316993999877,None,j,1,0.6464716999907978,202.5316993999877,None,None,None,203.2006001000118,None,,,,,,,,,,,,,,,,,,,,,11010,1,2,2024_Jun_18_0904,stroop_task_switching2_b,2021.2.3,59.97699282492041,
condition/block_word_b,instruction/instr_word,instruction/i9_b,红,white,k,square,word_single,单词,0.1279694370605574,,,,,,,,,,0,1,1,1,0,0,0,0,0,4,4,4,,,,,,,,,,,,,,,,,,,,,,,,,,,,,,,,,,,204.20093729998916,204.402182299993,204.38459649999277,204.68505229998846,204.68505229998846,None,205.185776600003,None,k,1,0.5844957000226714,205.185776600003,None,None,None,205.78647659998387,None,,,,,,,,,,,,,,,,,,,,,11010,1,2,2024_Jun_18_0904,stroop_task_switching2_b,2021.2.3,59.97699282492041,
condition/block_word_b,instruction/instr_word,instruction/i9_b,红,white,k,square,word_single,单词,0.18345028784879092,,,,,,,,,,0,1,1,1,0,0,0,0,0,5,5,5,,,,,,,,,,,,,,,,,,,,,,,,,,,,,,,,,,,206.7889889999933,206.98921020000125,206.97287369999685,207.27367920000688,207.27367920000688,None,207.7739244000113,None,k,1,0.5646573000121862,207.7739244000113,None,None,None,208.35746110000764,None,,,,,,,,,,,,,,,,,,,,,11010,1,2,2024_Jun_18_0904,stroop_task_switching2_b,2021.2.3,59.97699282492041,
condition/block_word_b,instruction/instr_word,instruction/i9_b,蓝,white,j,square,word_single,单词,0.19920386223101294,,,,,,,,,,0,1,1,1,0,0,0,0,0,6,6,6,,,,,,,,,,,,,,,,,,,,,,,,,,,,,,,,,,,209.35956189999706,209.55938409999362,209.54241540000658,209.84284900000785,209.84284900000785,None,210.34334130000207,None,j,1,1.0908549999876413,210.34334130000207,None,None,None,211.46187959998497,None,,,,,,,,,,,,,,,,,,,,,11010,1,2,2024_Jun_18_0904,stroop_task_switching2_b,2021.2.3,59.97699282492041,
condition/block_word_b,instruction/instr_word,instruction/i9_b,蓝,white,j,square,word_single,单词,0.26360599864925405,,,,,,,,,,0,1,1,1,0,0,0,0,0,7,7,7,,,,,,,,,,,,,,,,,,,,,,,,,,,,,,,,,,,212.46429440000793,212.6641124000016,212.64726249998785,212.9480523999955,212.9480523999955,None,213.44826699999976,None,j,1,0.6102181999885943,213.44826699999976,None,None,None,214.08259909998742,None,,,,,,,,,,,,,,,,,,,,,11010,1,2,2024_Jun_18_0904,stroop_task_switching2_b,2021.2.3,59.97699282492041,
condition/block_word_b,instruction/instr_word,instruction/i9_b,蓝,white,j,square,word_single,单词,0.358985675745526,,,,,,,,,,0,1,1,1,0,0,0,0,0,8,8,8,,,,,,,,,,,,,,,,,,,,,,,,,,,,,,,,,,,215.0839042000007,215.28437449998455,215.26849719998427,215.56911630000104,215.56911630000104,None,216.0696714000078,None,j,1,0.5088283999939449,216.0696714000078,None,None,None,216.60288349998882,None,,,,,,,,,,,,,,,,,,,,,11010,1,2,2024_Jun_18_0904,stroop_task_switching2_b,2021.2.3,59.97699282492041,
condition/block_word_b,instruction/instr_word,instruction/i9_b,绿,white,d,square,word_single,单词,0.36496733802487347,,,,,,,,,,0,1,1,1,0,0,0,0,0,9,9,9,,,,,,,,,,,,,,,,,,,,,,,,,,,,,,,,,,,217.6045993999869,217.80603279999923,217.78818010000396,218.08911529998295,218.08911529998295,None,218.59030670000357,None,d,1,0.5884946000005584,218.59030670000357,None,None,None,219.2075799999875,None,,,,,,,,,,,,,,,,,,,,,11010,1,2,2024_Jun_18_0904,stroop_task_switching2_b,2021.2.3,59.97699282492041,
condition/block_word_b,instruction/instr_word,instruction/i9_b,黄,white,f,square,word_single,单词,0.3743513623756727,,,,,,,,,,0,1,1,1,0,0,0,0,0,10,10,10,,,,,,,,,,,,,,,,,,,,,,,,,,,,,,,,,,,220.20865290000802,220.40878329999396,220.39202999998815,220.69460200000321,220.69460200000321,None,221.21038390000467,None,f,1,0.5848059999989346,221.21038390000467,None,None,None,221.81056509999325,None,,,,,,,,,,,,,,,,,,,,,11010,1,2,2024_Jun_18_0904,stroop_task_switching2_b,2021.2.3,59.97699282492041,
condition/block_word_b,instruction/instr_word,instruction/i9_b,红,white,k,square,word_single,单词,0.3894803852598544,,,,,,,,,,0,1,1,1,0,0,0,0,0,11,11,11,,,,,,,,,,,,,,,,,,,,,,,,,,,,,,,,,,,222.81335310000577,223.01374130000477,222.99731770000653,223.2972594999883,223.2972594999883,None,223.7974480999983,None,k,1,0.6138529000163544,223.7974480999983,None,None,None,224.4313148999936,None,,,,,,,,,,,,,,,,,,,,,11010,1,2,2024_Jun_18_0904,stroop_task_switching2_b,2021.2.3,59.97699282492041,
condition/block_word_b,instruction/instr_word,instruction/i9_b,绿,white,d,square,word_single,单词,0.5393759672408067,,,,,,,,,,0,1,1,1,0,0,0,0,0,12,12,12,,,,,,,,,,,,,,,,,,,,,,,,,,,,,,,,,,,225.43392400001176,225.6349695000099,225.61711379999178,225.91773779998766,225.91773779998766,None,226.41776000001119,None,d,1,0.5210865000262856,226.41776000001119,None,None,None,226.96935759999906,None,,,,,,,,,,,,,,,,,,,,,11010,1,2,2024_Jun_18_0904,stroop_task_switching2_b,2021.2.3,59.97699282492041,
condition/block_word_b,instruction/instr_word,instruction/i9_b,蓝,white,j,square,word_single,单词,0.5995731954831104,,,,,,,,,,0,1,1,1,0,0,0,0,0,13,13,13,,,,,,,,,,,,,,,,,,,,,,,,,,,,,,,,,,,227.9708324999956,228.17177529999753,228.15442790000816,228.45583550000447,228.45583550000447,None,228.95490539999446,None,j,1,0.5278860999969766,228.95490539999446,None,None,None,229.5057082999847,None,,,,,,,,,,,,,,,,,,,,,11010,1,2,2024_Jun_18_0904,stroop_task_switching2_b,2021.2.3,59.97699282492041,
condition/block_word_b,instruction/instr_word,instruction/i9_b,红,white,k,square,word_single,单词,0.6298674479151414,,,,,,,,,,0,1,1,1,0,0,0,0,0,14,14,14,,,,,,,,,,,,,,,,,,,,,,,,,,,,,,,,,,,230.50729129998945,230.7090950999991,230.69091380000464,230.99365439999383,230.99365439999383,None,231.50874459999613,None,k,1,0.3740379999799188,231.50874459999613,None,None,None,231.90931869999622,None,,,,,,,,,,,,,,,,,,,,,11010,1,2,2024_Jun_18_0904,stroop_task_switching2_b,2021.2.3,59.97699282492041,
condition/block_word_b,instruction/instr_word,instruction/i9_b,红,white,k,square,word_single,单词,0.7389942282348904,,,,,,,,,,0,1,1,1,0,0,0,0,0,15,15,15,,,,,,,,,,,,,,,,,,,,,,,,,,,,,,,,,,,232.91092840000056,233.1122858999879,233.09440790000372,233.39631149999332,233.39631149999332,None,233.89686529999017,None,k,1,0.9544041999906767,233.89686529999017,None,None,None,234.8802255000046,None,,,,,,,,,,,,,,,,,,,,,11010,1,2,2024_Jun_18_0904,stroop_task_switching2_b,2021.2.3,59.97699282492041,
condition/block_word_b,instruction/instr_word,instruction/i9_b,绿,white,d,square,word_single,单词,0.7550853947239682,,,,,,,,,,0,1,1,1,0,0,0,0,0,16,16,16,,,,,,,,,,,,,,,,,,,,,,,,,,,,,,,,,,,235.88196110000717,236.08283729999675,236.0669995000062,236.36700830000336,236.36700830000336,None,236.8668633000052,None,d,1,0.5203111000009812,236.8668633000052,None,None,None,237.41771239999798,None,,,,,,,,,,,,,,,,,,,,,11010,1,2,2024_Jun_18_0904,stroop_task_switching2_b,2021.2.3,59.97699282492041,
condition/block_word_b,instruction/instr_word,instruction/i9_b,绿,white,d,square,word_single,单词,0.8019302780428206,,,,,,,,,,0,1,1,1,0,0,0,0,0,17,17,17,,,,,,,,,,,,,,,,,,,,,,,,,,,,,,,,,,,238.42033629998332,238.62127919998602,238.60337190001155,238.90437360000215,238.90437360000215,None,239.40457310000784,None,d,1,0.654506399994716,239.40457310000784,None,None,None,240.08988509999472,None,,,,,,,,,,,,,,,,,,,,,11010,1,2,2024_Jun_18_0904,stroop_task_switching2_b,2021.2.3,59.97699282492041,
condition/block_word_b,instruction/instr_word,instruction/i9_b,绿,white,d,square,word_single,单词,0.8110702914095343,,,,,,,,,,0,1,1,1,0,0,0,0,0,18,18,18,,,,,,,,,,,,,,,,,,,,,,,,,,,,,,,,,,,241.09094629998435,241.2899775999831,241.27453719999176,241.57386929998756,241.57386929998756,None,242.07571249999455,None,d,1,0.4478584000025876,242.07571249999455,None,None,None,242.54216909999377,None,,,,,,,,,,,,,,,,,,,,,11010,1,2,2024_Jun_18_0904,stroop_task_switching2_b,2021.2.3,59.97699282492041,
condition/block_word_b,instruction/instr_word,instruction/i9_b,黄,white,f,square,word_single,单词,0.8176594937590999,,,,,,,,,,0,1,1,1,0,0,0,0,0,19,19,19,,,,,,,,,,,,,,,,,,,,,,,,,,,,,,,,,,,243.54465130000608,243.7458054999879,243.7273387000023,244.02818890000344,244.02818890000344,None,244.5283066999982,None,f,1,0.5308153000078164,244.5283066999982,None,None,None,245.0792691000097,None,,,,,,,,,,,,,,,,,,,,,11010,1,2,2024_Jun_18_0904,stroop_task_switching2_b,2021.2.3,59.97699282492041,
condition/block_word_b,instruction/instr_word,instruction/i9_b,红,white,k,square,word_single,单词,0.8955794421104841,,,,,,,,,,0,1,1,1,0,0,0,0,0,20,20,20,,,,,,,,,,,,,,,,,,,,,,,,,,,,,,,,,,,246.0806988000113,246.28108399998746,246.26439050000045,246.5653353999951,246.5480958999833,None,247.04866840000614,None,k,1,0.5867615999886766,247.04866840000614,None,None,None,247.65031589998398,None,,,,,,,,,,,,,,,,,,,,,11010,1,2,2024_Jun_18_0904,stroop_task_switching2_b,2021.2.3,59.97699282492041,
condition/block_word_b,instruction/instr_word,instruction/i9_b,绿,white,d,square,word_single,单词,0.9113598052474129,,,,,,,,,,0,1,1,1,0,0,0,0,0,21,21,21,,,,,,,,,,,,,,,,,,,,,,,,,,,,,,,,,,,248.65193180000642,248.85170420000213,248.83496770000784,249.13710079999873,249.13710079999873,None,249.63612499999,None,d,1,0.4958213000209071,249.63612499999,None,None,None,250.15368119999766,None,,,,,,,,,,,,,,,,,,,,,11010,1,2,2024_Jun_18_0904,stroop_task_switching2_b,2021.2.3,59.97699282492041,
condition/block_word_b,instruction/instr_word,instruction/i9_b,黄,white,f,square,word_single,单词,0.9215930958042953,,,,,,,,,,0,1,1,1,0,0,0,0,0,22,22,22,,,,,,,,,,,,,,,,,,,,,,,,,,,,,,,,,,,251.15587960000266,251.3560473000107,251.33979259998887,251.6392009999836,251.6392009999836,None,252.14106530000572,None,f,1,0.48652030000812374,252.14106530000572,None,None,None,252.65746519999811,None,,,,,,,,,,,,,,,,,,,,,11010,1,2,2024_Jun_18_0904,stroop_task_switching2_b,2021.2.3,59.97699282492041,
condition/block_word_b,instruction/instr_word,instruction/i9_b,黄,white,f,square,word_single,单词,0.9493525498837774,,,,,,,,,,0,1,1,1,0,0,0,0,0,23,23,23,,,,,,,,,,,,,,,,,,,,,,,,,,,,,,,,,,,253.6596409000049,253.85908609998296,253.84322909999173,254.14460959998542,254.14460959998542,None,254.6438799999887,None,f,1,0.8715301000047475,254.6438799999887,None,None,None,255.54637860000366,None,,,,,,,,,,,,,,,,,,,,,11010,1,2,2024_Jun_18_0904,stroop_task_switching2_b,2021.2.3,59.97699282492041,
condition/block_word_b,instruction/instr_word,instruction/i9_b,,,,,,,,,,,,,,,,,0,1,1,1,0,0,0,0,,,,,,,,,,,,,,,,,,,,,,,,,,,,,,,,,,,,,,,,,,,,,,,,,,,,,,,,256.54622679998283,None,space,2.3878079000278376,256.54622679998283,None,,,,,,,,,,,,,,,11010,1,2,2024_Jun_18_0904,stroop_task_switching2_b,2021.2.3,59.97699282492041,
condition/block_word_b,instruction/instr_word,instruction/i9_b,,,,,,,,,,,,,,,,,0,1,1,1,,,,,,,,,,,,,,,,,,,,,,,,,,,,,,,,,,,,,,,,,,,,,,,,,,,,,,,,,,,,,,,,,,,,,,,,,,,,,,,,11010,1,2,2024_Jun_18_0904,stroop_task_switching2_b,2021.2.3,59.97699282492041,
condition/block_mixed_b,instruction/instr_mixed,instruction/i10_b,蓝,red,k,diamond,color_mix,颜色,,incompatible,0,,,,,,,,0,2,2,2,0,0,0,0,0,0,0,0,,,,,,,,,,,,,,,,,,,,,258.9667109999864,None,space,11.209969099989394,258.9667109999864,None,271.2019643000094,272.203877699998,272.203877699998,273.2055805999844,273.2055805999844,None,270.2171362999943,271.22075149999,274.2410138999985,274.4410368000099,274.4243284999975,274.72367549999035,274.72367549999035,None,275.2079691000108,None,k,1,0.7803547000221442,275.2079691000108,None,None,None,276.01019959998666,None,,,,,,,,,,,,,,,,,,,,,11010,1,2,2024_Jun_18_0904,stroop_task_switching2_b,2021.2.3,59.97699282492041,
condition/block_mixed_b,instruction/instr_mixed,instruction/i10_b,绿,yellow,f,diamond,color_mix,颜色,,incompatible,1,,,,,,,,0,2,2,2,0,0,0,0,0,1,1,1,,,,,,,,,,,,,,,,,,,,,,,,,,,,,,,,,,,277.01060740000685,277.21299159998307,277.19460839999374,277.49527909999597,277.49527909999597,None,277.9957441999868,None,f,1,0.9043843999970704,277.9957441999868,None,None,None,278.9312023000093,None,,,,,,,,,,,,,,,,,,,,,11010,1,2,2024_Jun_18_0904,stroop_task_switching2_b,2021.2.3,59.97699282492041,
condition/block_mixed_b,instruction/instr_mixed,instruction/i10_b,红,green,d,diamond,color_mix,颜色,,incompatible,1,,,,,,,,0,2,2,2,0,0,0,0,0,2,2,2,,,,,,,,,,,,,,,,,,,,,,,,,,,,,,,,,,,279.93221279999125,280.1322400000063,280.1153823999921,280.4156498000084,280.4156498000084,None,280.9164488000097,None,d,1,0.7758127999841236,280.9164488000097,None,None,None,281.71770589999505,None,,,,,,,,,,,,,,,,,,,,,11010,1,2,2024_Jun_18_0904,stroop_task_switching2_b,2021.2.3,59.97699282492041,
condition/block_mixed_b,instruction/instr_mixed,instruction/i10_b,蓝,red,k,diamond,color_mix,颜色,,incompatible,1,,,,,,,,0,2,2,2,0,0,0,0,0,3,3,3,,,,,,,,,,,,,,,,,,,,,,,,,,,,,,,,,,,282.7192989999894,282.92066999999224,282.90379559999565,283.2038956999895,283.2038956999895,None,283.70502729999134,None,k,1,0.5155930000182707,283.70502729999134,None,None,None,284.23827309999615,None,,,,,,,,,,,,,,,,,,,,,11010,1,2,2024_Jun_18_0904,stroop_task_switching2_b,2021.2.3,59.97699282492041,
condition/block_mixed_b,instruction/instr_mixed,instruction/i10_b,红,blue,j,diamond,color_mix,颜色,,incompatible,1,,,,,,,,0,2,2,2,0,0,0,0,0,4,4,4,,,,,,,,,,,,,,,,,,,,,,,,,,,,,,,,,,,285.2403432999854,285.4406051999831,285.4254297000007,285.723871299997,285.723871299997,None,286.2261482999893,None,j,1,1.4665736999886576,286.2261482999893,None,None,None,287.71160619999864,None,,,,,,,,,,,,,,,,,,,,,11010,1,2,2024_Jun_18_0904,stroop_task_switching2_b,2021.2.3,59.97699282492041,
condition/block_mixed_b,instruction/instr_mixed,instruction/i10_b,红,blue,k,square,color_mix,单词,,incompatible,2,,,,,,,,0,2,2,2,0,0,0,0,0,5,5,5,,,,,,,,,,,,,,,,,,,,,,,,,,,,,,,,,,,288.7124955999898,288.9132944000012,288.89527629999793,289.1982655999891,289.1982655999891,None,289.69654959999025,None,j,0,1.7321960999979638,289.69654959999025,None,None,None,291.4490545000008,None,,,,,,,,,,,,,,,,,,,,,11010,1,2,2024_Jun_18_0904,stroop_task_switching2_b,2021.2.3,59.97699282492041,
condition/block_mixed_b,instruction/instr_mixed,instruction/i10_b,红,yellow,f,diamond,color_mix,颜色,,incompatible,2,,,,,,,,0,2,2,2,0,0,0,0,0,6,6,6,,,,,,,,,,,,,,,,,,,,,,,,,,,,,,,,,,,292.4513338000106,292.65166420000605,292.6349041000067,292.93551390001085,292.93551390001085,None,293.4366645999835,None,f,1,0.8239066999813076,293.4366645999835,None,None,None,294.28686580000794,None,,,,,,,,,,,,,,,,,,,,,11010,1,2,2024_Jun_18_0904,stroop_task_switching2_b,2021.2.3,59.97699282492041,
condition/block_mixed_b,instruction/instr_mixed,instruction/i10_b,红,yellow,k,square,color_mix,单词,,incompatible,2,,,,,,,,0,2,2,2,0,0,0,0,0,7,7,7,,,,,,,,,,,,,,,,,,,,,,,,,,,,,,,,,,,295.28827250000904,295.4900043999951,295.4731337999983,295.7724906000076,295.7724906000076,None,296.2732963000017,None,f,0,1.9475174999970477,296.2732963000017,None,None,None,298.24276610001107,None,,,,,,,,,,,,,,,,,,,,,11010,1,2,2024_Jun_18_0904,stroop_task_switching2_b,2021.2.3,59.97699282492041,
condition/block_mixed_b,instruction/instr_mixed,instruction/i10_b,绿,blue,d,square,color_mix,单词,,incompatible,1,,,,,,,,0,2,2,2,0,0,0,0,0,8,8,8,,,,,,,,,,,,,,,,,,,,,,,,,,,,,,,,,,,299.2453183000034,299.4451715000032,299.4293389999948,299.7283477000019,299.7283477000019,None,300.2289133000013,None,d,1,0.9119027999986429,300.2289133000013,None,None,None,301.16377359998296,None,,,,,,,,,,,,,,,,,,,,,11010,1,2,2024_Jun_18_0904,stroop_task_switching2_b,2021.2.3,59.97699282492041,
condition/block_mixed_b,instruction/instr_mixed,instruction/i10_b,蓝,green,d,diamond,color_mix,颜色,,incompatible,2,,,,,,,,0,2,2,2,0,0,0,0,0,9,9,9,,,,,,,,,,,,,,,,,,,,,,,,,,,,,,,,,,,302.16546230000677,302.36567020000075,302.35016080000787,302.6510550999956,302.6510550999956,None,303.1499501999933,None,d,1,0.830979100021068,303.1499501999933,None,None,None,304.00143609999213,None,,,,,,,,,,,,,,,,,,,,,11010,1,2,2024_Jun_18_0904,stroop_task_switching2_b,2021.2.3,59.97699282492041,
condition/block_mixed_b,instruction/instr_mixed,instruction/i10_b,蓝,yellow,j,square,color_mix,单词,,incompatible,2,,,,,,,,0,2,2,2,0,0,0,0,0,10,10,10,,,,,,,,,,,,,,,,,,,,,,,,,,,,,,,,,,,305.00309039998683,305.2051363000064,305.1866715000069,305.48698129999684,305.48698129999684,None,305.98818640000536,None,f,0,1.2491577000182588,305.98818640000536,None,None,None,307.2571544999955,None,,,,,,,,,,,,,,,,,,,,,11010,1,2,2024_Jun_18_0904,stroop_task_switching2_b,2021.2.3,59.97699282492041,
condition/block_mixed_b,instruction/instr_mixed,instruction/i10_b,蓝,green,j,square,color_mix,单词,,incompatible,1,,,,,,,,0,2,2,2,0,0,0,0,0,11,11,11,,,,,,,,,,,,,,,,,,,,,,,,,,,,,,,,,,,308.25776760000736,308.45879979999154,308.44243950000964,308.74261610000394,308.74261610000394,None,309.2433600999939,None,j,1,2.0340594000008423,309.2433600999939,None,None,None,311.29667000001064,None,,,,,,,,,,,,,,,,,,,,,11010,1,2,2024_Jun_18_0904,stroop_task_switching2_b,2021.2.3,59.97699282492041,
condition/block_mixed_b,instruction/instr_mixed,instruction/i10_b,绿,yellow,d,square,color_mix,单词,,incompatible,1,,,,,,,,0,2,2,2,0,0,0,0,0,12,12,12,,,,,,,,,,,,,,,,,,,,,,,,,,,,,,,,,,,312.29731009999523,312.4984612999833,312.4817516999901,312.782318499987,312.782318499987,None,313.28305239998735,None,d,1,1.2744561999861617,313.28305239998735,None,None,None,314.58432289998746,None,,,,,,,,,,,,,,,,,,,,,11010,1,2,2024_Jun_18_0904,stroop_task_switching2_b,2021.2.3,59.97699282492041,
condition/block_mixed_b,instruction/instr_mixed,instruction/i10_b,绿,blue,j,diamond,color_mix,颜色,,incompatible,2,,,,,,,,0,2,2,2,0,0,0,0,0,13,13,13,,,,,,,,,,,,,,,,,,,,,,,,,,,,,,,,,,,315.585505199997,315.7867983999895,315.769123999984,316.0705281999835,316.0705281999835,None,316.5702570999856,None,j,1,1.051872399984859,316.5702570999856,None,None,None,317.63859280000906,None,,,,,,,,,,,,,,,,,,,,,11010,1,2,2024_Jun_18_0904,stroop_task_switching2_b,2021.2.3,59.97699282492041,
condition/block_mixed_b,instruction/instr_mixed,instruction/i10_b,黄,red,f,square,color_mix,单词,,incompatible,2,,,,,,,,0,2,2,2,0,0,0,0,0,14,14,14,,,,,,,,,,,,,,,,,,,,,,,,,,,,,,,,,,,318.64019979999284,318.84110799999326,318.82372029998805,319.1241322999995,319.1241322999995,None,319.6257055999886,None,k,0,1.6199625000008382,319.6257055999886,None,None,None,321.27784679998877,None,,,,,,,,,,,,,,,,,,,,,11010,1,2,2024_Jun_18_0904,stroop_task_switching2_b,2021.2.3,59.97699282492041,
condition/block_mixed_b,instruction/instr_mixed,instruction/i10_b,蓝,yellow,f,diamond,color_mix,颜色,,incompatible,2,,,,,,,,0,2,2,2,0,0,0,0,0,15,15,15,,,,,,,,,,,,,,,,,,,,,,,,,,,,,,,,,,,322.2789824999927,322.4792596999905,322.4625936000084,322.7630358999886,322.7630358999886,None,323.26441579998937,None,f,1,1.4855528000043705,323.26441579998937,None,None,None,324.76583809999283,None,,,,,,,,,,,,,,,,,,,,,11010,1,2,2024_Jun_18_0904,stroop_task_switching2_b,2021.2.3,59.97699282492041,
condition/block_mixed_b,instruction/instr_mixed,instruction/i10_b,黄,red,k,diamond,color_mix,颜色,,incompatible,1,,,,,,,,0,2,2,2,0,0,0,0,0,16,16,16,,,,,,,,,,,,,,,,,,,,,,,,,,,,,,,,,,,325.7675392999954,325.969373800006,325.951095299999,326.2517613999953,326.2517613999953,None,326.7524523999891,None,k,1,0.5411282000131905,326.7524523999891,None,None,None,327.31986119999783,None,,,,,,,,,,,,,,,,,,,,,11010,1,2,2024_Jun_18_0904,stroop_task_switching2_b,2021.2.3,59.97699282492041,
condition/block_mixed_b,instruction/instr_mixed,instruction/i10_b,绿,red,d,square,color_mix,单词,,incompatible,2,,,,,,,,0,2,2,2,0,0,0,0,0,17,17,17,,,,,,,,,,,,,,,,,,,,,,,,,,,,,,,,,,,328.3224157000077,328.5223304000101,328.5064013999945,328.8066627999942,328.8066627999942,None,329.3075161000015,None,d,1,1.3860416999959853,329.3075161000015,None,None,None,330.72505139998975,None,,,,,,,,,,,,,,,,,,,,,11010,1,2,2024_Jun_18_0904,stroop_task_switching2_b,2021.2.3,59.97699282492041,
condition/block_mixed_b,instruction/instr_mixed,instruction/i10_b,红,green,k,square,color_mix,单词,,incompatible,1,,,,,,,,0,2,2,2,0,0,0,0,0,18,18,18,,,,,,,,,,,,,,,,,,,,,,,,,,,,,,,,,,,331.7272698000015,331.9270961000002,331.9114919999847,332.21266849999665,332.21266849999665,None,332.71282839999185,None,d,0,1.884933599998476,332.71282839999185,None,None,None,334.6143730999902,None,,,,,,,,,,,,,,,,,,,,,11010,1,2,2024_Jun_18_0904,stroop_task_switching2_b,2021.2.3,59.97699282492041,
condition/block_mixed_b,instruction/instr_mixed,instruction/i10_b,黄,blue,j,diamond,color_mix,颜色,,incompatible,2,,,,,,,,0,2,2,2,0,0,0,0,0,19,19,19,,,,,,,,,,,,,,,,,,,,,,,,,,,,,,,,,,,335.61561639999854,335.8173733000003,335.7993700999941,336.1019577999832,336.1019577999832,None,336.6005811000068,None,j,1,0.8691799999796785,336.6005811000068,None,None,None,337.4851711000083,None,,,,,,,,,,,,,,,,,,,,,11010,1,2,2024_Jun_18_0904,stroop_task_switching2_b,2021.2.3,59.97699282492041,
condition/block_mixed_b,instruction/instr_mixed,instruction/i10_b,黄,green,d,diamond,color_mix,颜色,,incompatible,1,,,,,,,,0,2,2,2,0,0,0,0,0,20,20,20,,,,,,,,,,,,,,,,,,,,,,,,,,,,,,,,,,,338.4868186000094,338.6871201999893,338.6718455000082,338.97163729998283,338.97163729998283,None,339.4716214000073,None,d,1,1.5340392000216525,339.4716214000073,None,None,None,341.0239295999927,None,,,,,,,,,,,,,,,,,,,,,11010,1,2,2024_Jun_18_0904,stroop_task_switching2_b,2021.2.3,59.97699282492041,
condition/block_mixed_b,instruction/instr_mixed,instruction/i10_b,黄,green,f,square,color_mix,单词,,incompatible,2,,,,,,,,0,2,2,2,0,0,0,0,0,21,21,21,,,,,,,,,,,,,,,,,,,,,,,,,,,,,,,,,,,342.02543290000176,342.22819160000654,342.20901659998344,342.51053500000853,342.51053500000853,None,343.01036729998305,None,f,1,1.2202697999891825,343.01036729998305,None,None,None,344.2453694999858,None,,,,,,,,,,,,,,,,,,,,,11010,1,2,2024_Jun_18_0904,stroop_task_switching2_b,2021.2.3,59.97699282492041,
condition/block_mixed_b,instruction/instr_mixed,instruction/i10_b,黄,blue,f,square,color_mix,单词,,incompatible,1,,,,,,,,0,2,2,2,0,0,0,0,0,22,22,22,,,,,,,,,,,,,,,,,,,,,,,,,,,,,,,,,,,345.24705969999195,345.44752970000263,345.43054629999097,345.73256820000825,345.73256820000825,None,346.2316322000115,None,f,1,1.4543471000215504,346.2316322000115,None,None,None,347.7188890000107,None,,,,,,,,,,,,,,,,,,,,,11010,1,2,2024_Jun_18_0904,stroop_task_switching2_b,2021.2.3,59.97699282492041,
condition/block_mixed_b,instruction/instr_mixed,instruction/i10_b,蓝,red,j,square,color_mix,单词,,incompatible,1,,,,,,,,0,2,2,2,0,0,0,0,0,23,23,23,,,,,,,,,,,,,,,,,,,,,,,,,,,,,,,,,,,348.7194448999944,348.91984210000373,348.903298899997,349.2030192000093,349.2030192000093,None,349.7051117999945,None,j,1,1.189582299994072,349.7051117999945,None,None,None,350.9222322999849,None,,,,,,,,,,,,,,,,,,,,,11010,1,2,2024_Jun_18_0904,stroop_task_switching2_b,2021.2.3,59.97699282492041,
condition/block_mixed_b,instruction/instr_mixed,instruction/i10_b,绿,red,k,diamond,color_mix,颜色,,incompatible,2,,,,,,,,0,2,2,2,0,0,0,0,0,24,24,24,,,,,,,,,,,,,,,,,,,,,,,,,,,,,,,,,,,351.9237135000003,352.12452409998514,352.10811589998775,352.4079616999952,352.4079616999952,None,352.9084426999907,None,k,1,0.6420248999784235,352.9084426999907,None,None,None,353.57691740000155,None,,,,,,,,,,,,,,,,,,,,,11010,1,2,2024_Jun_18_0904,stroop_task_switching2_b,2021.2.3,59.97699282492041,
condition/block_mixed_b,instruction/instr_mixed,instruction/i10_b,绿,green,d,diamond,color_mix,颜色,,compatible,1,,,,,,,,0,2,2,2,0,0,0,0,0,25,25,25,,,,,,,,,,,,,,,,,,,,,,,,,,,,,,,,,,,354.57857069998863,354.77980570000364,354.76172069998574,355.06160210000235,355.06160210000235,None,355.5625868999923,None,d,1,1.3477310999878682,355.5625868999923,None,None,None,356.9313534999965,None,,,,,,,,,,,,,,,,,,,,,11010,1,2,2024_Jun_18_0904,stroop_task_switching2_b,2021.2.3,59.97699282492041,
condition/block_mixed_b,instruction/instr_mixed,instruction/i10_b,蓝,blue,j,diamond,color_mix,颜色,,compatible,1,,,,,,,,0,2,2,2,0,0,0,0,0,26,26,26,,,,,,,,,,,,,,,,,,,,,,,,,,,,,,,,,,,357.93391469999915,358.1339444000041,358.1172925999854,358.41690809998545,358.41690809998545,None,358.9187459000095,None,j,1,0.767687500017928,358.9187459000095,None,None,None,359.70198849998997,None,,,,,,,,,,,,,,,,,,,,,11010,1,2,2024_Jun_18_0904,stroop_task_switching2_b,2021.2.3,59.97699282492041,
condition/block_mixed_b,instruction/instr_mixed,instruction/i10_b,绿,green,d,square,color_mix,单词,,compatible,2,,,,,,,,0,2,2,2,0,0,0,0,0,27,27,27,,,,,,,,,,,,,,,,,,,,,,,,,,,,,,,,,,,360.703542800009,360.9037687999953,360.8879566999967,361.18766779999714,361.18766779999714,None,361.6894370999944,None,d,1,1.0292072000156622,361.6894370999944,None,None,None,362.73998169999686,None,,,,,,,,,,,,,,,,,,,,,11010,1,2,2024_Jun_18_0904,stroop_task_switching2_b,2021.2.3,59.97699282492041,
condition/block_mixed_b,instruction/instr_mixed,instruction/i10_b,绿,green,d,square,color_mix,单词,,compatible,1,,,,,,,,0,2,2,2,0,0,0,0,0,28,28,28,,,,,,,,,,,,,,,,,,,,,,,,,,,,,,,,,,,363.7415189000021,363.9418943999917,363.9261617999873,364.22555410000496,364.22555410000496,None,364.72669589999714,None,d,1,1.2482522000209428,364.72669589999714,None,None,None,365.9949998999946,None,,,,,,,,,,,,,,,,,,,,,11010,1,2,2024_Jun_18_0904,stroop_task_switching2_b,2021.2.3,59.97699282492041,
condition/block_mixed_b,instruction/instr_mixed,instruction/i10_b,蓝,blue,j,square,color_mix,单词,,compatible,1,,,,,,,,0,2,2,2,0,0,0,0,0,29,29,29,,,,,,,,,,,,,,,,,,,,,,,,,,,,,,,,,,,366.9975049000059,367.19794909999473,367.1814197000058,367.48120079998625,367.48120079998625,None,367.9812392999884,None,j,1,0.8338577999966219,367.9812392999884,None,None,None,368.83261949999724,None,,,,,,,,,,,,,,,,,,,,,11010,1,2,2024_Jun_18_0904,stroop_task_switching2_b,2021.2.3,59.97699282492041,
condition/block_mixed_b,instruction/instr_mixed,instruction/i10_b,黄,yellow,f,diamond,color_mix,颜色,,compatible,2,,,,,,,,0,2,2,2,0,0,0,0,0,30,30,30,,,,,,,,,,,,,,,,,,,,,,,,,,,,,,,,,,,369.8340915000008,370.0352558000013,370.0176812999998,370.31999600000563,370.31999600000563,None,370.8187844000058,None,f,1,0.6197513999941293,370.8187844000058,None,None,None,371.4698899000068,None,,,,,,,,,,,,,,,,,,,,,11010,1,2,2024_Jun_18_0904,stroop_task_switching2_b,2021.2.3,59.97699282492041,
condition/block_mixed_b,instruction/instr_mixed,instruction/i10_b,绿,green,d,square,color_mix,单词,,compatible,2,,,,,,,,0,2,2,2,0,0,0,0,0,31,31,31,,,,,,,,,,,,,,,,,,,,,,,,,,,,,,,,,,,372.4721467999916,372.6722480999888,372.6556789999886,372.95773870000266,372.95773870000266,None,373.4568733999913,None,d,1,0.9986078999936581,373.4568733999913,None,None,None,374.47419370000716,None,,,,,,,,,,,,,,,,,,,,,11010,1,2,2024_Jun_18_0904,stroop_task_switching2_b,2021.2.3,59.97699282492041,
condition/block_mixed_b,instruction/instr_mixed,instruction/i10_b,黄,yellow,f,square,color_mix,单词,,compatible,1,,,,,,,,0,2,2,2,0,0,0,0,0,32,32,32,,,,,,,,,,,,,,,,,,,,,,,,,,,,,,,,,,,375.4766011000029,375.678356599994,375.659484600008,375.9600904000108,375.9600904000108,None,376.46065279998584,None,f,1,1.8826988999790046,376.46065279998584,None,None,None,378.3635760000034,None,,,,,,,,,,,,,,,,,,,,,11010,1,2,2024_Jun_18_0904,stroop_task_switching2_b,2021.2.3,59.97699282492041,
condition/block_mixed_b,instruction/instr_mixed,instruction/i10_b,绿,green,d,diamond,color_mix,颜色,,compatible,2,,,,,,,,0,2,2,2,0,0,0,0,0,33,33,33,,,,,,,,,,,,,,,,,,,,,,,,,,,,,,,,,,,379.36582589999307,379.56601750000846,379.5495818000054,379.85032409999985,379.85032409999985,None,380.34975180000765,None,d,1,0.8091928999929223,380.34975180000765,None,None,None,381.18450539998594,None,,,,,,,,,,,,,,,,,,,,,11010,1,2,2024_Jun_18_0904,stroop_task_switching2_b,2021.2.3,59.97699282492041,
condition/block_mixed_b,instruction/instr_mixed,instruction/i10_b,红,red,k,square,color_mix,单词,,compatible,2,,,,,,,,0,2,2,2,0,0,0,0,0,34,34,34,,,,,,,,,,,,,,,,,,,,,,,,,,,,,,,,,,,382.18601239999407,382.38716049998766,382.3700353000022,382.6701747000043,382.6701747000043,None,383.1707757000113,None,k,1,1.3486847000021953,383.1707757000113,None,None,None,384.5397127000033,None,,,,,,,,,,,,,,,,,,,,,11010,1,2,2024_Jun_18_0904,stroop_task_switching2_b,2021.2.3,59.97699282492041,
condition/block_mixed_b,instruction/instr_mixed,instruction/i10_b,黄,yellow,f,square,color_mix,单词,,compatible,1,,,,,,,,0,2,2,2,0,0,0,0,0,35,35,35,,,,,,,,,,,,,,,,,,,,,,,,,,,,,,,,,,,385.54222400000435,385.743246500002,385.72483019999345,386.026466899988,386.026466899988,None,386.52668700000504,None,f,1,1.032431900006486,386.52668700000504,None,None,None,387.57747779999045,None,,,,,,,,,,,,,,,,,,,,,11010,1,2,2024_Jun_18_0904,stroop_task_switching2_b,2021.2.3,59.97699282492041,
condition/block_mixed_b,instruction/instr_mixed,instruction/i10_b,绿,green,d,diamond,color_mix,颜色,,compatible,2,,,,,,,,0,2,2,2,0,0,0,0,0,36,36,36,,,,,,,,,,,,,,,,,,,,,,,,,,,,,,,,,,,388.5790516999841,388.7799301999912,388.76297529999283,389.06363309998414,389.06363309998414,None,389.564913899987,None,d,1,1.3221909999847412,389.564913899987,None,None,None,390.91588720001164,None,,,,,,,,,,,,,,,,,,,,,11010,1,2,2024_Jun_18_0904,stroop_task_switching2_b,2021.2.3,59.97699282492041,
condition/block_mixed_b,instruction/instr_mixed,instruction/i10_b,蓝,blue,j,square,color_mix,单词,,compatible,2,,,,,,,,0,2,2,2,0,0,0,0,0,37,37,37,,,,,,,,,,,,,,,,,,,,,,,,,,,,,,,,,,,391.91708889999427,392.11769079999067,392.1018989000004,392.40159359999234,392.40159359999234,None,392.9033623999858,None,j,1,1.4081156000029296,392.9033623999858,None,None,None,394.3376427000039,None,,,,,,,,,,,,,,,,,,,,,11010,1,2,2024_Jun_18_0904,stroop_task_switching2_b,2021.2.3,59.97699282492041,
condition/block_mixed_b,instruction/instr_mixed,instruction/i10_b,红,red,k,square,color_mix,单词,,compatible,1,,,,,,,,0,2,2,2,0,0,0,0,0,38,38,38,,,,,,,,,,,,,,,,,,,,,,,,,,,,,,,,,,,395.33998930000234,395.53959949998534,395.5230731999909,395.82386909998604,395.82386909998604,None,396.32483259998844,None,k,1,1.0351772000140045,396.32483259998844,None,None,None,397.3759804999863,None,,,,,,,,,,,,,,,,,,,,,11010,1,2,2024_Jun_18_0904,stroop_task_switching2_b,2021.2.3,59.97699282492041,
condition/block_mixed_b,instruction/instr_mixed,instruction/i10_b,黄,yellow,f,diamond,color_mix,颜色,,compatible,2,,,,,,,,0,2,2,2,0,0,0,0,0,39,39,39,,,,,,,,,,,,,,,,,,,,,,,,,,,,,,,,,,,398.377072400006,398.5774269000103,398.56188200000906,398.86205110000446,398.86205110000446,None,399.36279439998907,None,f,1,1.2447731000138447,399.36279439998907,None,None,None,400.63048379999236,None,,,,,,,,,,,,,,,,,,,,,11010,1,2,2024_Jun_18_0904,stroop_task_switching2_b,2021.2.3,59.97699282492041,
condition/block_mixed_b,instruction/instr_mixed,instruction/i10_b,黄,yellow,f,square,color_mix,单词,,compatible,2,,,,,,,,0,2,2,2,0,0,0,0,0,40,40,40,,,,,,,,,,,,,,,,,,,,,,,,,,,,,,,,,,,401.6317330999882,401.8321128000098,401.8177122999914,402.1349954000034,402.1175099000102,None,402.61692040000344,None,f,1,1.0470041999942623,402.61692040000344,None,None,None,403.68516689998796,None,,,,,,,,,,,,,,,,,,,,,11010,1,2,2024_Jun_18_0904,stroop_task_switching2_b,2021.2.3,59.97699282492041,
condition/block_mixed_b,instruction/instr_mixed,instruction/i10_b,蓝,blue,j,square,color_mix,单词,,compatible,1,,,,,,,,0,2,2,2,0,0,0,0,0,41,41,41,,,,,,,,,,,,,,,,,,,,,,,,,,,,,,,,,,,404.6876412999991,404.8875743999961,404.87129439998535,405.1714509000012,405.1714509000012,None,405.6711668999924,None,j,1,0.8724747999804094,405.6711668999924,None,None,None,406.5726596000022,None,,,,,,,,,,,,,,,,,,,,,11010,1,2,2024_Jun_18_0904,stroop_task_switching2_b,2021.2.3,59.97699282492041,
condition/block_mixed_b,instruction/instr_mixed,instruction/i10_b,蓝,blue,j,diamond,color_mix,颜色,,compatible,2,,,,,,,,0,2,2,2,0,0,0,0,0,42,42,42,,,,,,,,,,,,,,,,,,,,,,,,,,,,,,,,,,,407.5752921999956,407.7759507999872,407.7577961999923,408.0599738000019,408.0599738000019,None,408.55977449999773,None,j,1,0.5520199000020511,408.55977449999773,None,None,None,409.1269628999871,None,,,,,,,,,,,,,,,,,,,,,11010,1,2,2024_Jun_18_0904,stroop_task_switching2_b,2021.2.3,59.97699282492041,
condition/block_mixed_b,instruction/instr_mixed,instruction/i10_b,黄,yellow,f,diamond,color_mix,颜色,,compatible,1,,,,,,,,0,2,2,2,0,0,0,0,0,43,43,43,,,,,,,,,,,,,,,,,,,,,,,,,,,,,,,,,,,410.1288275999832,410.32829639999545,410.3130761999928,410.61216570000397,410.61216570000397,None,411.11288030000287,None,f,1,1.2630328999948688,411.11288030000287,None,None,None,412.39828600001056,None,,,,,,,,,,,,,,,,,,,,,11010,1,2,2024_Jun_18_0904,stroop_task_switching2_b,2021.2.3,59.97699282492041,
condition/block_mixed_b,instruction/instr_mixed,instruction/i10_b,红,red,k,diamond,color_mix,颜色,,compatible,1,,,,,,,,0,2,2,2,0,0,0,0,0,44,44,44,,,,,,,,,,,,,,,,,,,,,,,,,,,,,,,,,,,413.40069469998707,413.59989230000065,413.5836883999873,413.88475800000015,413.88475800000015,None,414.3844271999842,None,k,1,0.9273082000145223,414.3844271999842,None,None,None,415.3365480999928,None,,,,,,,,,,,,,,,,,,,,,11010,1,2,2024_Jun_18_0904,stroop_task_switching2_b,2021.2.3,59.97699282492041,
condition/block_mixed_b,instruction/instr_mixed,instruction/i10_b,蓝,blue,j,diamond,color_mix,颜色,,compatible,1,,,,,,,,0,2,2,2,0,0,0,0,0,45,45,45,,,,,,,,,,,,,,,,,,,,,,,,,,,,,,,,,,,416.3377618000086,416.5391277000017,416.5211052999948,416.823238699988,416.823238699988,None,417.32275920000393,None,j,1,1.0690647000155877,417.32275920000393,None,None,None,418.4071740999934,None,,,,,,,,,,,,,,,,,,,,,11010,1,2,2024_Jun_18_0904,stroop_task_switching2_b,2021.2.3,59.97699282492041,
condition/block_mixed_b,instruction/instr_mixed,instruction/i10_b,红,red,k,diamond,color_mix,颜色,,compatible,1,,,,,,,,0,2,2,2,0,0,0,0,0,46,46,46,,,,,,,,,,,,,,,,,,,,,,,,,,,,,,,,,,,419.4089045999863,419.6107405000075,419.5923807999934,419.8929209999915,419.8929209999915,None,420.3934651000018,None,k,1,0.526655399997253,420.3934651000018,None,None,None,420.94445780001115,None,,,,,,,,,,,,,,,,,,,,,11010,1,2,2024_Jun_18_0904,stroop_task_switching2_b,2021.2.3,59.97699282492041,
condition/block_mixed_b,instruction/instr_mixed,instruction/i10_b,红,red,k,square,color_mix,单词,,compatible,2,,,,,,,,0,2,2,2,0,0,0,0,0,47,47,47,,,,,,,,,,,,,,,,,,,,,,,,,,,,,,,,,,,421.94597780000186,422.147223100008,422.1309561000089,422.43103279999923,422.43103279999923,None,422.93226430000504,None,k,1,1.0920099999930244,422.93226430000504,None,None,None,424.0491466000094,None,,,,,,,,,,,,,,,,,,,,,11010,1,2,2024_Jun_18_0904,stroop_task_switching2_b,2021.2.3,59.97699282492041,
condition/block_mixed_b,instruction/instr_mixed,instruction/i10_b,红,red,k,diamond,color_mix,颜色,,compatible,2,,,,,,,,0,2,2,2,0,0,0,0,0,48,48,48,,,,,,,,,,,,,,,,,,,,,,,,,,,,,,,,,,,425.05110219999915,425.25096830000984,425.23440849999315,425.5350077000039,425.5350077000039,None,426.0352862,None,k,1,0.708920200006105,426.0352862,None,None,None,426.76985559999594,None,,,,,,,,,,,,,,,,,,,,,11010,1,2,2024_Jun_18_0904,stroop_task_switching2_b,2021.2.3,59.97699282492041,
condition/block_mixed_b,instruction/instr_mixed,instruction/i10_b,,,,,,,,,,,,,,,,,0,2,2,2,0,0,0,0,,,,,,,,,,,,,,,,,,,,,,,,,,,,,,,,,,,,,,,,,,,,,,,,,,,,,,,,427.78989879999426,None,space,4.127489300008165,427.78989879999426,None,,,,,,,,,,,,,,,11010,1,2,2024_Jun_18_0904,stroop_task_switching2_b,2021.2.3,59.97699282492041,
condition/block_mixed_b,instruction/instr_mixed,instruction/i10_b,,,,,,,,,,,,,,,,,0,2,2,2,,,,,,,,,,,,,,,,,,,,,,,,,,,,,,,,,,,,,,,,,,,,,,,,,,,,,,,,,,,,,,,,,,,,,,,,,,,,,,,,11010,1,2,2024_Jun_18_0904,stroop_task_switching2_b,2021.2.3,59.97699282492041,
,,,红,red,k,square,color_mix,单词,,compatible,0,block_switch1_b,instruction/ready_test.png,instruction/i11.png,,,,,,,,,,,,,,,,,0,0,0,0,0,0,0,0,,,,,,,,,,,,,,,,,,,445.966156200011,446.9680224999902,446.9680224999902,447.9692581999989,447.9692581999989,None,444.98120549999294,445.98312779999105,449.00375289999647,449.20438310000463,449.1881965000066,449.4888812999998,449.4888812999998,None,449.98831600000267,None,k,1,0.740692699997453,449.98831600000267,None,None,None,,,,,,,,,431.97827309998684,None,space,12.974492000008468,431.97827309998684,None,,,,,,,,,11010,1,2,2024_Jun_18_0904,stroop_task_switching2_b,2021.2.3,59.97699282492041,
,,,绿,green,d,diamond,color_mix,颜色,,compatible,2,block_switch1_b,instruction/ready_test.png,instruction/i11.png,,,,,,,,,,,,,,,,,0,0,0,0,0,1,1,1,,,,,,,,,,,,,,,,,,,,,,,,,,,450.75683930001105,450.95722360000946,450.9398034999904,451.2400602999842,451.2400602999842,None,451.74109500000486,None,d,1,1.2846850999922026,451.74109500000486,None,None,None,,,,,,,,,,,,,,,,,,,,,,,11010,1,2,2024_Jun_18_0904,stroop_task_switching2_b,2021.2.3,59.97699282492041,
,,,绿,yellow,f,diamond,color_mix,颜色,,incompatible,1,block_switch1_b,instruction/ready_test.png,instruction/i11.png,,,,,,,,,,,,,,,,,0,0,0,0,0,2,2,2,,,,,,,,,,,,,,,,,,,,,,,,,,,453.04312509999727,453.2432235000015,453.22651919999043,453.527428100002,453.527428100002,None,454.02808260000893,None,f,1,0.7971100999857299,454.02808260000893,None,None,None,,,,,,,,,,,,,,,,,,,,,,,11010,1,2,2024_Jun_18_0904,stroop_task_switching2_b,2021.2.3,59.97699282492041,
,,,蓝,blue,j,diamond,color_mix,颜色,,compatible,1,block_switch1_b,instruction/ready_test.png,instruction/i11.png,,,,,,,,,,,,,,,,,0,0,0,0,0,3,3,3,,,,,,,,,,,,,,,,,,,,,,,,,,,454.8455291999853,455.04729349998524,455.02912679998553,455.33027000000584,455.33027000000584,None,455.8306639000075,None,j,1,1.338671700010309,455.8306639000075,None,None,None,,,,,,,,,,,,,,,,,,,,,,,11010,1,2,2024_Jun_18_0904,stroop_task_switching2_b,2021.2.3,59.97699282492041,
,,,绿,green,d,square,color_mix,单词,,compatible,2,block_switch1_b,instruction/ready_test.png,instruction/i11.png,,,,,,,,,,,,,,,,,0,0,0,0,0,4,4,4,,,,,,,,,,,,,,,,,,,,,,,,,,,457.1991672999866,457.3994302999927,457.3834991999902,457.6838082000031,457.6838082000031,None,458.1844199000043,None,d,1,0.6809068000002299,458.1844199000043,None,None,None,,,,,,,,,,,,,,,,,,,,,,,11010,1,2,2024_Jun_18_0904,stroop_task_switching2_b,2021.2.3,59.97699282492041,
,,,绿,blue,j,diamond,color_mix,颜色,,incompatible,2,block_switch1_b,instruction/ready_test.png,instruction/i11.png,,,,,,,,,,,,,,,,,0,0,0,0,0,5,5,5,,,,,,,,,,,,,,,,,,,,,,,,,,,458.88518409998505,459.0854076000105,459.0689125999925,459.37080070000957,459.37080070000957,None,459.8704227999842,None,j,1,1.8027466999774333,459.8704227999842,None,None,None,,,,,,,,,,,,,,,,,,,,,,,11010,1,2,2024_Jun_18_0904,stroop_task_switching2_b,2021.2.3,59.97699282492041,
,,,黄,red,f,square,color_mix,单词,,incompatible,2,block_switch1_b,instruction/ready_test.png,instruction/i11.png,,,,,,,,,,,,,,,,,0,0,0,0,0,6,6,6,,,,,,,,,,,,,,,,,,,,,,,,,,,461.6891387999931,461.89017530001,461.8733130999899,462.17331680000643,462.17331680000643,None,462.6747476999881,None,f,1,1.3827478000021074,462.6747476999881,None,None,None,,,,,,,,,,,,,,,,,,,,,,,11010,1,2,2024_Jun_18_0904,stroop_task_switching2_b,2021.2.3,59.97699282492041,
,,,绿,green,d,square,color_mix,单词,,compatible,1,block_switch1_b,instruction/ready_test.png,instruction/i11.png,,,,,,,,,,,,,,,,,0,0,0,0,0,7,7,7,,,,,,,,,,,,,,,,,,,,,,,,,,,464.0762034000072,464.2769425000006,464.26044029998593,464.5610578999913,464.5610578999913,None,465.06222279998474,None,d,1,0.8908646999916527,465.06222279998474,None,None,None,,,,,,,,,,,,,,,,,,,,,,,11010,1,2,2024_Jun_18_0904,stroop_task_switching2_b,2021.2.3,59.97699282492041,
,,,蓝,blue,j,square,color_mix,单词,,compatible,1,block_switch1_b,instruction/ready_test.png,instruction/i11.png,,,,,,,,,,,,,,,,,0,0,0,0,0,8,8,8,,,,,,,,,,,,,,,,,,,,,,,,,,,465.98038689998793,466.1802047000092,466.16326909998315,466.46309460001066,466.46309460001066,None,466.9638854000077,None,j,1,1.0453603999922052,466.9638854000077,None,None,None,,,,,,,,,,,,,,,,,,,,,,,11010,1,2,2024_Jun_18_0904,stroop_task_switching2_b,2021.2.3,59.97699282492041,
,,,红,red,k,diamond,color_mix,颜色,,compatible,2,block_switch1_b,instruction/ready_test.png,instruction/i11.png,,,,,,,,,,,,,,,,,0,0,0,0,0,9,9,9,,,,,,,,,,,,,,,,,,,,,,,,,,,468.0323137000087,468.2327067999868,468.2159080999845,468.5169069999829,468.5169069999829,None,469.01696660000016,None,k,1,1.1443888999929186,469.01696660000016,None,None,None,,,,,,,,,,,,,,,,,,,,,,,11010,1,2,2024_Jun_18_0904,stroop_task_switching2_b,2021.2.3,59.97699282492041,
,,,黄,yellow,f,diamond,color_mix,颜色,,compatible,1,block_switch1_b,instruction/ready_test.png,instruction/i11.png,,,,,,,,,,,,,,,,,0,0,0,0,0,10,10,10,,,,,,,,,,,,,,,,,,,,,,,,,,,470.18559119998827,470.3858138000069,470.3690432999865,470.6708284000051,470.6708284000051,None,471.1711582999851,None,f,1,0.6384652999986429,471.1711582999851,None,None,None,,,,,,,,,,,,,,,,,,,,,,,11010,1,2,2024_Jun_18_0904,stroop_task_switching2_b,2021.2.3,59.97699282492041,
,,,绿,green,d,square,color_mix,单词,,compatible,2,block_switch1_b,instruction/ready_test.png,instruction/i11.png,,,,,,,,,,,,,,,,,0,0,0,0,0,11,11,11,,,,,,,,,,,,,,,,,,,,,,,,,,,471.83797249998315,472.0388355999894,472.02145450000535,472.3219640000025,472.3219640000025,None,472.8232183000073,None,d,1,0.5946117000130471,472.8232183000073,None,None,None,,,,,,,,,,,,,,,,,,,,,,,11010,1,2,2024_Jun_18_0904,stroop_task_switching2_b,2021.2.3,59.97699282492041,
,,,红,red,k,diamond,color_mix,颜色,,compatible,2,block_switch1_b,instruction/ready_test.png,instruction/i11.png,,,,,,,,,,,,,,,,,0,0,0,0,0,12,12,12,,,,,,,,,,,,,,,,,,,,,,,,,,,473.4402916000108,473.6407179000089,473.6249269999971,473.9253010000102,473.9253010000102,None,474.425734199991,None,k,1,2.159815699997125,474.425734199991,None,None,None,,,,,,,,,,,,,,,,,,,,,,,11010,1,2,2024_Jun_18_0904,stroop_task_switching2_b,2021.2.3,59.97699282492041,
,,,红,red,k,diamond,color_mix,颜色,,compatible,1,block_switch1_b,instruction/ready_test.png,instruction/i11.png,,,,,,,,,,,,,,,,,0,0,0,0,0,13,13,13,,,,,,,,,,,,,,,,,,,,,,,,,,,476.6129547999881,476.8128657999914,476.7959254999878,477.09699479999836,477.09699479999836,None,477.5963413999998,None,k,1,0.6853492000082042,477.5963413999998,None,None,None,,,,,,,,,,,,,,,,,,,,,,,11010,1,2,2024_Jun_18_0904,stroop_task_switching2_b,2021.2.3,59.97699282492041,
,,,黄,yellow,f,square,color_mix,单词,,compatible,2,block_switch1_b,instruction/ready_test.png,instruction/i11.png,,,,,,,,,,,,,,,,,0,0,0,0,0,14,14,14,,,,,,,,,,,,,,,,,,,,,,,,,,,478.2974228000094,478.4986864000093,478.48104009998497,478.78223869999056,478.78223869999056,None,479.2824941999861,None,f,1,0.5832954999932554,479.2824941999861,None,None,None,,,,,,,,,,,,,,,,,,,,,,,11010,1,2,2024_Jun_18_0904,stroop_task_switching2_b,2021.2.3,59.97699282492041,
,,,红,green,d,diamond,color_mix,颜色,,incompatible,2,block_switch1_b,instruction/ready_test.png,instruction/i11.png,,,,,,,,,,,,,,,,,0,0,0,0,0,15,15,15,,,,,,,,,,,,,,,,,,,,,,,,,,,479.8834041999944,480.08408199998667,480.0677081999893,480.3677165999834,480.3677165999834,None,480.86882639999385,None,d,1,1.8049768000200856,480.86882639999385,None,None,None,,,,,,,,,,,,,,,,,,,,,,,11010,1,2,2024_Jun_18_0904,stroop_task_switching2_b,2021.2.3,59.97699282492041,
,,,蓝,red,k,diamond,color_mix,颜色,,incompatible,1,block_switch1_b,instruction/ready_test.png,instruction/i11.png,,,,,,,,,,,,,,,,,0,0,0,0,0,16,16,16,,,,,,,,,,,,,,,,,,,,,,,,,,,482.7043236999889,482.90575209999224,482.88874190000934,483.18847160000587,483.18847160000587,None,483.6897607999854,None,k,1,1.1043437999906018,483.6897607999854,None,None,None,,,,,,,,,,,,,,,,,,,,,,,11010,1,2,2024_Jun_18_0904,stroop_task_switching2_b,2021.2.3,59.97699282492041,
,,,黄,green,d,diamond,color_mix,颜色,,incompatible,1,block_switch1_b,instruction/ready_test.png,instruction/i11.png,,,,,,,,,,,,,,,,,0,0,0,0,0,17,17,17,,,,,,,,,,,,,,,,,,,,,,,,,,,484.8240647999919,485.02492369999527,485.00797800000873,485.3079813999939,485.3079813999939,None,485.8094454999955,None,d,1,2.041030399996089,485.8094454999955,None,None,None,,,,,,,,,,,,,,,,,,,,,,,11010,1,2,2024_Jun_18_0904,stroop_task_switching2_b,2021.2.3,59.97699282492041,
,,,绿,green,d,diamond,color_mix,颜色,,compatible,1,block_switch1_b,instruction/ready_test.png,instruction/i11.png,,,,,,,,,,,,,,,,,0,0,0,0,0,18,18,18,,,,,,,,,,,,,,,,,,,,,,,,,,,487.879126099986,488.079501900007,488.06247400000575,488.3634025999927,488.3634025999927,None,488.8636867000023,None,d,1,1.4026791999931447,488.8636867000023,None,None,None,,,,,,,,,,,,,,,,,,,,,,,11010,1,2,2024_Jun_18_0904,stroop_task_switching2_b,2021.2.3,59.97699282492041,
,,,黄,red,k,diamond,color_mix,颜色,,incompatible,1,block_switch1_b,instruction/ready_test.png,instruction/i11.png,,,,,,,,,,,,,,,,,0,0,0,0,0,19,19,19,,,,,,,,,,,,,,,,,,,,,,,,,,,490.2822776999965,490.48270200000843,490.4671997000114,490.7679201999854,490.7679201999854,None,491.26802640000824,None,k,1,1.229755300009856,491.26802640000824,None,None,None,,,,,,,,,,,,,,,,,,,,,,,11010,1,2,2024_Jun_18_0904,stroop_task_switching2_b,2021.2.3,59.97699282492041,
,,,绿,yellow,d,square,color_mix,单词,,incompatible,2,block_switch1_b,instruction/ready_test.png,instruction/i11.png,,,,,,,,,,,,,,,,,0,0,0,0,0,20,20,20,,,,,,,,,,,,,,,,,,,,,,,,,,,492.51913189998595,492.71993739999016,492.703250999999,493.0041577999946,493.0041577999946,None,493.50472810000065,None,d,1,0.9455802000011317,493.50472810000065,None,None,None,,,,,,,,,,,,,,,,,,,,,,,11010,1,2,2024_Jun_18_0904,stroop_task_switching2_b,2021.2.3,59.97699282492041,
,,,绿,yellow,f,diamond,color_mix,颜色,,incompatible,2,block_switch1_b,instruction/ready_test.png,instruction/i11.png,,,,,,,,,,,,,,,,,0,0,0,0,0,21,21,21,,,,,,,,,,,,,,,,,,,,,,,,,,,494.4725247999886,494.67244329999085,494.65655779998633,494.95614779999596,494.95614779999596,None,495.457215500006,498.46223279999685,None,0,,495.457215500006,498.46223279999685,498.44540209998377,None,,,,,,,,,,,,,,,,,,,,,,,11010,1,2,2024_Jun_18_0904,stroop_task_switching2_b,2021.2.3,59.97699282492041,
,,,绿,green,d,square,color_mix,单词,,compatible,2,block_switch1_b,instruction/ready_test.png,instruction/i11.png,,,,,,,,,,,,,,,,,0,0,0,0,0,22,22,22,,,,,,,,,,,,,,,,,,,,,,,,,,,498.99661699999706,499.19617599999765,499.1799264999863,499.4799282999884,499.4799282999884,None,499.98095789999934,None,d,1,1.125307399983285,499.98095789999934,None,None,None,,,,,,,,,,,,,,,,,,,,,,,11010,1,2,2024_Jun_18_0904,stroop_task_switching2_b,2021.2.3,59.97699282492041,
,,,红,red,k,square,color_mix,单词,,compatible,1,block_switch1_b,instruction/ready_test.png,instruction/i11.png,,,,,,,,,,,,,,,,,0,0,0,0,0,23,23,23,,,,,,,,,,,,,,,,,,,,,,,,,,,501.13201939998544,501.3330112999829,501.3155248000112,501.6161329000024,501.6161329000024,None,502.1174647999869,None,k,1,1.3733814999868628,502.1174647999869,None,None,None,,,,,,,,,,,,,,,,,,,,,,,11010,1,2,2024_Jun_18_0904,stroop_task_switching2_b,2021.2.3,59.97699282492041,
,,,黄,green,f,square,color_mix,单词,,incompatible,1,block_switch1_b,instruction/ready_test.png,instruction/i11.png,,,,,,,,,,,,,,,,,0,0,0,0,0,24,24,24,,,,,,,,,,,,,,,,,,,,,,,,,,,503.51977019998594,503.72127919999184,503.70291429999634,504.0045034000068,504.0045034000068,None,504.50447300000815,None,f,1,1.713910799997393,504.50447300000815,None,None,None,,,,,,,,,,,,,,,,,,,,,,,11010,1,2,2024_Jun_18_0904,stroop_task_switching2_b,2021.2.3,59.97699282492041,
,,,红,blue,k,square,color_mix,单词,,incompatible,1,block_switch1_b,instruction/ready_test.png,instruction/i11.png,,,,,,,,,,,,,,,,,0,0,0,0,0,25,25,25,,,,,,,,,,,,,,,,,,,,,,,,,,,506.2397394999862,506.43996449999395,506.4234387000033,506.72376550000627,506.72376550000627,None,507.22473839999293,None,k,1,1.5056225000007544,507.22473839999293,None,None,None,,,,,,,,,,,,,,,,,,,,,,,11010,1,2,2024_Jun_18_0904,stroop_task_switching2_b,2021.2.3,59.97699282492041,
,,,黄,yellow,f,square,color_mix,单词,,compatible,1,block_switch1_b,instruction/ready_test.png,instruction/i11.png,,,,,,,,,,,,,,,,,0,0,0,0,0,26,26,26,,,,,,,,,,,,,,,,,,,,,,,,,,,508.76085940000485,508.9615474999882,508.94494549999945,509.24521339999046,509.24521339999046,None,509.7456981999858,None,f,1,2.017091599991545,509.7456981999858,None,None,None,,,,,,,,,,,,,,,,,,,,,,,11010,1,2,2024_Jun_18_0904,stroop_task_switching2_b,2021.2.3,59.97699282492041,
,,,蓝,green,j,square,color_mix,单词,,incompatible,1,block_switch1_b,instruction/ready_test.png,instruction/i11.png,,,,,,,,,,,,,,,,,0,0,0,0,0,27,27,27,,,,,,,,,,,,,,,,,,,,,,,,,,,511.7814725000062,511.9818903999985,511.96627979999175,512.2668193999853,512.2668193999853,None,512.7662570000102,None,j,1,2.1804401999979746,512.7662570000102,None,None,None,,,,,,,,,,,,,,,,,,,,,,,11010,1,2,2024_Jun_18_0904,stroop_task_switching2_b,2021.2.3,59.97699282492041,
,,,绿,green,d,diamond,color_mix,颜色,,compatible,2,block_switch1_b,instruction/ready_test.png,instruction/i11.png,,,,,,,,,,,,,,,,,0,0,0,0,0,28,28,28,,,,,,,,,,,,,,,,,,,,,,,,,,,514.9693676999887,515.1706517999992,515.153945500002,515.454499799991,515.454499799991,None,515.9542721000034,None,d,1,1.5284003000124358,515.9542721000034,None,None,None,,,,,,,,,,,,,,,,,,,,,,,11010,1,2,2024_Jun_18_0904,stroop_task_switching2_b,2021.2.3,59.97699282492041,
,,,黄,blue,j,diamond,color_mix,颜色,,incompatible,1,block_switch1_b,instruction/ready_test.png,instruction/i11.png,,,,,,,,,,,,,,,,,0,0,0,0,0,29,29,29,,,,,,,,,,,,,,,,,,,,,,,,,,,517.5066514000064,517.707559500006,517.6905644999933,517.9907249000098,517.9907249000098,None,518.4924156999914,None,j,1,2.2304657000058796,518.4924156999914,None,None,None,,,,,,,,,,,,,,,,,,,,,,,11010,1,2,2024_Jun_18_0904,stroop_task_switching2_b,2021.2.3,59.97699282492041,
,,,绿,green,d,diamond,color_mix,颜色,,compatible,1,block_switch1_b,instruction/ready_test.png,instruction/i11.png,,,,,,,,,,,,,,,,,0,0,0,0,0,30,30,30,,,,,,,,,,,,,,,,,,,,,,,,,,,520.7449901000073,520.9463662999915,520.928633500007,521.2303435000067,521.2303435000067,None,521.7308942000091,None,d,1,1.5286644999869168,521.7308942000091,None,None,None,,,,,,,,,,,,,,,,,,,,,,,11010,1,2,2024_Jun_18_0904,stroop_task_switching2_b,2021.2.3,59.97699282492041,
,,,蓝,blue,j,square,color_mix,单词,,compatible,2,block_switch1_b,instruction/ready_test.png,instruction/i11.png,,,,,,,,,,,,,,,,,0,0,0,0,0,31,31,31,,,,,,,,,,,,,,,,,,,,,,,,,,,523.282265899994,523.482283099991,523.4657658000069,523.7669725999876,523.7669725999876,None,524.2676510000019,None,j,1,1.1516902000003029,524.2676510000019,None,None,None,,,,,,,,,,,,,,,,,,,,,,,11010,1,2,2024_Jun_18_0904,stroop_task_switching2_b,2021.2.3,59.97699282492041,
,,,红,red,k,square,color_mix,单词,,compatible,1,block_switch1_b,instruction/ready_test.png,instruction/i11.png,,,,,,,,,,,,,,,,,0,0,0,0,0,32,32,32,,,,,,,,,,,,,,,,,,,,,,,,,,,525.4358369999973,525.6364956999896,525.6194328999845,525.9200026000035,525.9200026000035,None,526.4204129999853,None,k,1,0.958550200011814,526.4204129999853,None,None,None,,,,,,,,,,,,,,,,,,,,,,,11010,1,2,2024_Jun_18_0904,stroop_task_switching2_b,2021.2.3,59.97699282492041,
,,,红,green,k,square,color_mix,单词,,incompatible,1,block_switch1_b,instruction/ready_test.png,instruction/i11.png,,,,,,,,,,,,,,,,,0,0,0,0,0,33,33,33,,,,,,,,,,,,,,,,,,,,,,,,,,,527.4051832999976,527.6052676000108,527.5910256000061,527.9076457000047,527.889834200003,None,528.3897244000109,None,k,1,0.6215255999995861,528.3897244000109,None,None,None,,,,,,,,,,,,,,,,,,,,,,,11010,1,2,2024_Jun_18_0904,stroop_task_switching2_b,2021.2.3,59.97699282492041,
,,,黄,yellow,f,diamond,color_mix,颜色,,compatible,2,block_switch1_b,instruction/ready_test.png,instruction/i11.png,,,,,,,,,,,,,,,,,0,0,0,0,0,34,34,34,,,,,,,,,,,,,,,,,,,,,,,,,,,529.0408229999884,529.241431100003,529.2250615000085,529.5260639000044,529.5260639000044,None,530.0255089999991,None,f,1,1.2096286000160035,530.0255089999991,None,None,None,,,,,,,,,,,,,,,,,,,,,,,11010,1,2,2024_Jun_18_0904,stroop_task_switching2_b,2021.2.3,59.97699282492041,
,,,红,green,d,diamond,color_mix,颜色,,incompatible,1,block_switch1_b,instruction/ready_test.png,instruction/i11.png,,,,,,,,,,,,,,,,,0,0,0,0,0,35,35,35,,,,,,,,,,,,,,,,,,,,,,,,,,,531.2615285000065,531.4625835999905,531.4445720000076,531.7454183000082,531.7454183000082,None,532.2457318000088,None,d,1,1.3499726000009105,532.2457318000088,None,None,None,,,,,,,,,,,,,,,,,,,,,,,11010,1,2,2024_Jun_18_0904,stroop_task_switching2_b,2021.2.3,59.97699282492041,
,,,黄,yellow,f,square,color_mix,单词,,compatible,2,block_switch1_b,instruction/ready_test.png,instruction/i11.png,,,,,,,,,,,,,,,,,0,0,0,0,0,36,36,36,,,,,,,,,,,,,,,,,,,,,,,,,,,533.6144788000092,533.8167900000117,533.7980895999935,534.099509599997,534.099509599997,None,534.599933999998,None,f,1,2.0594780999817885,534.599933999998,None,None,None,,,,,,,,,,,,,,,,,,,,,,,11010,1,2,2024_Jun_18_0904,stroop_task_switching2_b,2021.2.3,59.97699282492041,
,,,蓝,blue,j,square,color_mix,单词,,compatible,1,block_switch1_b,instruction/ready_test.png,instruction/i11.png,,,,,,,,,,,,,,,,,0,0,0,0,0,37,37,37,,,,,,,,,,,,,,,,,,,,,,,,,,,536.6854651999893,536.8867092999863,536.8706070999906,537.1697126000072,537.1697126000072,None,537.6704547000118,None,j,1,1.0768863999983296,537.6704547000118,None,None,None,,,,,,,,,,,,,,,,,,,,,,,11010,1,2,2024_Jun_18_0904,stroop_task_switching2_b,2021.2.3,59.97699282492041,
,,,绿,red,k,diamond,color_mix,颜色,,incompatible,2,block_switch1_b,instruction/ready_test.png,instruction/i11.png,,,,,,,,,,,,,,,,,0,0,0,0,0,38,38,38,,,,,,,,,,,,,,,,,,,,,,,,,,,538.7721565999964,538.9732707999938,538.9563827000093,539.2566114999936,539.2566114999936,None,539.7567181999912,None,k,1,0.7347203999815974,539.7567181999912,None,None,None,,,,,,,,,,,,,,,,,,,,,,,11010,1,2,2024_Jun_18_0904,stroop_task_switching2_b,2021.2.3,59.97699282492041,
,,,黄,yellow,f,diamond,color_mix,颜色,,compatible,1,block_switch1_b,instruction/ready_test.png,instruction/i11.png,,,,,,,,,,,,,,,,,0,0,0,0,0,39,39,39,,,,,,,,,,,,,,,,,,,,,,,,,,,540.5081927999854,540.7085134999943,540.6915541999915,540.9940271000087,540.9940271000087,None,541.5097208000079,None,f,1,0.6538881000014953,541.5097208000079,None,None,None,,,,,,,,,,,,,,,,,,,,,,,11010,1,2,2024_Jun_18_0904,stroop_task_switching2_b,2021.2.3,59.97699282492041,
,,,红,blue,j,diamond,color_mix,颜色,,incompatible,1,block_switch1_b,instruction/ready_test.png,instruction/i11.png,,,,,,,,,,,,,,,,,0,0,0,0,0,40,40,40,,,,,,,,,,,,,,,,,,,,,,,,,,,542.1770891000051,542.3774383999989,542.361318899988,542.6619636999967,542.6619636999967,None,543.1621147999831,None,j,1,2.4020184999972116,543.1621147999831,None,None,None,,,,,,,,,,,,,,,,,,,,,,,11010,1,2,2024_Jun_18_0904,stroop_task_switching2_b,2021.2.3,59.97699282492041,
,,,绿,blue,d,square,color_mix,单词,,incompatible,2,block_switch1_b,instruction/ready_test.png,instruction/i11.png,,,,,,,,,,,,,,,,,0,0,0,0,0,41,41,41,,,,,,,,,,,,,,,,,,,,,,,,,,,545.5824176000024,545.7836132000084,545.7668753000034,546.0670161999878,546.0670161999878,None,546.5673030999897,None,d,1,1.6922210000047926,546.5673030999897,None,None,None,,,,,,,,,,,,,,,,,,,,,,,11010,1,2,2024_Jun_18_0904,stroop_task_switching2_b,2021.2.3,59.97699282492041,
,,,蓝,blue,j,diamond,color_mix,颜色,,compatible,2,block_switch1_b,instruction/ready_test.png,instruction/i11.png,,,,,,,,,,,,,,,,,0,0,0,0,0,42,42,42,,,,,,,,,,,,,,,,,,,,,,,,,,,548.2865578999917,548.4868308999867,548.4708663999918,548.7714913999953,548.7714913999953,None,549.2711224000086,None,j,1,1.452689300000202,549.2711224000086,None,None,None,,,,,,,,,,,,,,,,,,,,,,,11010,1,2,2024_Jun_18_0904,stroop_task_switching2_b,2021.2.3,59.97699282492041,
,,,红,blue,k,square,color_mix,单词,,incompatible,2,block_switch1_b,instruction/ready_test.png,instruction/i11.png,,,,,,,,,,,,,,,,,0,0,0,0,0,43,43,43,,,,,,,,,,,,,,,,,,,,,,,,,,,550.7400626000017,550.9424765000003,550.9238459999906,551.2242868999892,551.2242868999892,None,551.7251664999931,None,k,1,1.0065472999995109,551.7251664999931,None,None,None,,,,,,,,,,,,,,,,,,,,,,,11010,1,2,2024_Jun_18_0904,stroop_task_switching2_b,2021.2.3,59.97699282492041,
,,,蓝,green,d,diamond,color_mix,颜色,,incompatible,2,block_switch1_b,instruction/ready_test.png,instruction/i11.png,,,,,,,,,,,,,,,,,0,0,0,0,0,44,44,44,,,,,,,,,,,,,,,,,,,,,,,,,,,552.7596645999874,552.9614130999835,552.9434735999967,553.2457576000015,553.2457576000015,None,553.7453483999998,None,d,1,1.7623779000132345,553.7453483999998,None,None,None,,,,,,,,,,,,,,,,,,,,,,,11010,1,2,2024_Jun_18_0904,stroop_task_switching2_b,2021.2.3,59.97699282492041,
,,,黄,yellow,f,square,color_mix,单词,,compatible,2,block_switch1_b,instruction/ready_test.png,instruction/i11.png,,,,,,,,,,,,,,,,,0,0,0,0,0,45,45,45,,,,,,,,,,,,,,,,,,,,,,,,,,,555.5315864000004,555.7311332999961,555.7150783000106,556.0157548999996,556.0157548999996,None,556.515707899991,None,f,1,0.6560719000117388,556.515707899991,None,None,None,,,,,,,,,,,,,,,,,,,,,,,11010,1,2,2024_Jun_18_0904,stroop_task_switching2_b,2021.2.3,59.97699282492041,
,,,黄,yellow,f,diamond,color_mix,颜色,,compatible,2,block_switch1_b,instruction/ready_test.png,instruction/i11.png,,,,,,,,,,,,,,,,,0,0,0,0,0,46,46,46,,,,,,,,,,,,,,,,,,,,,,,,,,,557.1999892999884,557.4016905000026,557.3833393999957,557.6840042000113,557.6840042000113,None,558.1848366000049,None,f,1,0.9950899000104982,558.1848366000049,None,None,None,,,,,,,,,,,,,,,,,,,,,,,11010,1,2,2024_Jun_18_0904,stroop_task_switching2_b,2021.2.3,59.97699282492041,
,,,绿,red,d,square,color_mix,单词,,incompatible,2,block_switch1_b,instruction/ready_test.png,instruction/i11.png,,,,,,,,,,,,,,,,,0,0,0,0,0,47,47,47,,,,,,,,,,,,,,,,,,,,,,,,,,,559.2029003000061,559.4049123000004,559.386505500006,559.6889011999883,559.6889011999883,None,560.1877549999917,None,d,1,1.3686256999790203,560.1877549999917,None,None,None,,,,,,,,,,,,,,,,,,,,,,,11010,1,2,2024_Jun_18_0904,stroop_task_switching2_b,2021.2.3,59.97699282492041,
,,,红,red,k,diamond,color_mix,颜色,,compatible,2,block_switch1_b,instruction/ready_test.png,instruction/i11.png,,,,,,,,,,,,,,,,,0,0,0,0,0,48,48,48,,,,,,,,,,,,,,,,,,,,,,,,,,,561.5731215999986,561.7733722999983,561.7568619000085,562.0573781999992,562.0573781999992,None,562.558572399983,565.5635297000117,None,0,,562.558572399983,565.5635297000117,565.5459195000003,None,,,,,,,,,,,,,,,,,,,,,,,11010,1,2,2024_Jun_18_0904,stroop_task_switching2_b,2021.2.3,59.97699282492041,
,,,蓝,blue,j,diamond,color_mix,颜色,,compatible,1,block_switch1_b,instruction/ready_test.png,instruction/i11.png,,,,,,,,,,,,,,,,,0,0,0,0,0,49,49,49,,,,,,,,,,,,,,,,,,,,,,,,,,,566.1301160999865,566.331044599996,566.3151227000053,566.6149210000003,566.6149210000003,None,567.1162079999922,None,j,1,0.839831499994034,567.1162079999922,None,None,None,,,,,,,,,,,,,,,,,,,,,,,11010,1,2,2024_Jun_18_0904,stroop_task_switching2_b,2021.2.3,59.97699282492041,
,,,黄,yellow,f,diamond,color_mix,颜色,,compatible,1,block_switch1_b,instruction/ready_test.png,instruction/i11.png,,,,,,,,,,,,,,,,,0,0,0,0,0,50,50,50,,,,,,,,,,,,,,,,,,,,,,,,,,,567.982585699996,568.1839343000029,568.1673146999965,568.4668660000025,568.4668660000025,None,568.9678046999907,None,f,1,0.7808871000015642,568.9678046999907,None,None,None,,,,,,,,,,,,,,,,,,,,,,,11010,1,2,2024_Jun_18_0904,stroop_task_switching2_b,2021.2.3,59.97699282492041,
,,,红,blue,j,diamond,color_mix,颜色,,incompatible,1,block_switch1_b,instruction/ready_test.png,instruction/i11.png,,,,,,,,,,,,,,,,,0,0,0,0,0,51,51,51,,,,,,,,,,,,,,,,,,,,,,,,,,,569.7693365000014,569.9692436000041,569.952930200001,570.2528502999921,570.2528502999921,None,570.7545336000039,None,j,1,1.3457023999944795,570.7545336000039,None,None,None,,,,,,,,,,,,,,,,,,,,,,,11010,1,2,2024_Jun_18_0904,stroop_task_switching2_b,2021.2.3,59.97699282492041,
,,,蓝,yellow,f,diamond,color_mix,颜色,,incompatible,1,block_switch1_b,instruction/ready_test.png,instruction/i11.png,,,,,,,,,,,,,,,,,0,0,0,0,0,52,52,52,,,,,,,,,,,,,,,,,,,,,,,,,,,572.1223882999911,572.3232712000026,572.3067308999889,572.6082184999832,572.6082184999832,None,573.1087239999906,None,f,1,2.7202058999973815,573.1087239999906,None,None,None,,,,,,,,,,,,,,,,,,,,,,,11010,1,2,2024_Jun_18_0904,stroop_task_switching2_b,2021.2.3,59.97699282492041,
,,,黄,blue,f,square,color_mix,单词,,incompatible,2,block_switch1_b,instruction/ready_test.png,instruction/i11.png,,,,,,,,,,,,,,,,,0,0,0,0,0,53,53,53,,,,,,,,,,,,,,,,,,,,,,,,,,,575.8447651999886,576.0463936000015,576.0282898999867,576.3298607000033,576.3298607000033,None,576.8295827999827,None,j,0,1.5748266999726184,576.8295827999827,None,None,None,,,,,,,,,,,,,,,,,,,,,,,11010,1,2,2024_Jun_18_0904,stroop_task_switching2_b,2021.2.3,59.97699282492041,
,,,蓝,blue,j,diamond,color_mix,颜色,,compatible,2,block_switch1_b,instruction/ready_test.png,instruction/i11.png,,,,,,,,,,,,,,,,,0,0,0,0,0,54,54,54,,,,,,,,,,,,,,,,,,,,,,,,,,,578.4328525000019,578.6331688000064,578.6154481999984,578.9160548000073,578.9160548000073,None,579.4178224999923,None,j,1,1.9471150999888778,579.4178224999923,None,None,None,,,,,,,,,,,,,,,,,,,,,,,11010,1,2,2024_Jun_18_0904,stroop_task_switching2_b,2021.2.3,59.97699282492041,
,,,红,yellow,k,square,color_mix,单词,,incompatible,2,block_switch1_b,instruction/ready_test.png,instruction/i11.png,,,,,,,,,,,,,,,,,0,0,0,0,0,55,55,55,,,,,,,,,,,,,,,,,,,,,,,,,,,581.3863407000026,581.5872372000013,581.5699856999854,581.872002899996,581.872002899996,None,582.3712057000084,None,k,1,1.4342276999959722,582.3712057000084,None,None,None,,,,,,,,,,,,,,,,,,,,,,,11010,1,2,2024_Jun_18_0904,stroop_task_switching2_b,2021.2.3,59.97699282492041,
,,,蓝,red,j,square,color_mix,单词,,incompatible,1,block_switch1_b,instruction/ready_test.png,instruction/i11.png,,,,,,,,,,,,,,,,,0,0,0,0,0,56,56,56,,,,,,,,,,,,,,,,,,,,,,,,,,,583.8239157999924,584.0257598999888,584.0069259000011,584.3080841999908,584.3080841999908,None,584.8090996000101,None,j,1,2.091551799996523,584.8090996000101,None,None,None,,,,,,,,,,,,,,,,,,,,,,,11010,1,2,2024_Jun_18_0904,stroop_task_switching2_b,2021.2.3,59.97699282492041,
,,,蓝,blue,j,square,color_mix,单词,,compatible,1,block_switch1_b,instruction/ready_test.png,instruction/i11.png,,,,,,,,,,,,,,,,,0,0,0,0,0,57,57,57,,,,,,,,,,,,,,,,,,,,,,,,,,,586.9291960999835,587.1283641000045,587.1121322000108,587.4131960000086,587.4131960000086,None,587.9128662000003,None,j,1,0.548049799981527,587.9128662000003,None,None,None,,,,,,,,,,,,,,,,,,,,,,,11010,1,2,2024_Jun_18_0904,stroop_task_switching2_b,2021.2.3,59.97699282492041,
,,,蓝,red,k,diamond,color_mix,颜色,,incompatible,2,block_switch1_b,instruction/ready_test.png,instruction/i11.png,,,,,,,,,,,,,,,,,0,0,0,0,0,58,58,58,,,,,,,,,,,,,,,,,,,,,,,,,,,588.4805240999849,588.6820146999962,588.6650435999909,588.9643888999999,588.9643888999999,None,589.466322399996,None,k,1,1.0186322000226937,589.466322399996,None,None,None,,,,,,,,,,,,,,,,,,,,,,,11010,1,2,2024_Jun_18_0904,stroop_task_switching2_b,2021.2.3,59.97699282492041,
,,,绿,green,d,diamond,color_mix,颜色,,compatible,1,block_switch1_b,instruction/ready_test.png,instruction/i11.png,,,,,,,,,,,,,,,,,0,0,0,0,0,59,59,59,,,,,,,,,,,,,,,,,,,,,,,,,,,590.5000159000047,590.7026241999993,590.6837574999954,590.9854678999982,590.9854678999982,None,591.4849200999888,None,d,1,2.1117530999763403,591.4849200999888,None,None,None,,,,,,,,,,,,,,,,,,,,,,,11010,1,2,2024_Jun_18_0904,stroop_task_switching2_b,2021.2.3,59.97699282492041,
,,,蓝,blue,j,diamond,color_mix,颜色,,compatible,1,block_switch1_b,instruction/ready_test.png,instruction/i11.png,,,,,,,,,,,,,,,,,0,0,0,0,0,60,60,60,,,,,,,,,,,,,,,,,,,,,,,,,,,593.6222069000069,593.8228323000076,593.8051760999952,594.1068522999994,594.1068522999994,None,594.6063301000104,None,j,1,1.1104380000033416,594.6063301000104,None,None,None,,,,,,,,,,,,,,,,,,,,,,,11010,1,2,2024_Jun_18_0904,stroop_task_switching2_b,2021.2.3,59.97699282492041,
,,,黄,yellow,f,square,color_mix,单词,,compatible,2,block_switch1_b,instruction/ready_test.png,instruction/i11.png,,,,,,,,,,,,,,,,,0,0,0,0,0,61,61,61,,,,,,,,,,,,,,,,,,,,,,,,,,,595.741629199998,595.9430593999859,595.925933999999,596.2264489000081,596.2264489000081,None,596.7264906000055,None,f,1,0.7109099999943282,596.7264906000055,None,None,None,,,,,,,,,,,,,,,,,,,,,,,11010,1,2,2024_Jun_18_0904,stroop_task_switching2_b,2021.2.3,59.97699282492041,
,,,绿,blue,d,square,color_mix,单词,,incompatible,1,block_switch1_b,instruction/ready_test.png,instruction/i11.png,,,,,,,,,,,,,,,,,0,0,0,0,0,62,62,62,,,,,,,,,,,,,,,,,,,,,,,,,,,597.4605407000054,597.6621900000027,597.6441567000002,597.9462212999933,597.9462212999933,None,598.4463242999918,None,d,1,2.198636900022393,598.4463242999918,None,None,None,,,,,,,,,,,,,,,,,,,,,,,11010,1,2,2024_Jun_18_0904,stroop_task_switching2_b,2021.2.3,59.97699282492041,
,,,蓝,yellow,j,square,color_mix,单词,,incompatible,1,block_switch1_b,instruction/ready_test.png,instruction/i11.png,,,,,,,,,,,,,,,,,0,0,0,0,0,63,63,63,,,,,,,,,,,,,,,,,,,,,,,,,,,600.6653695999994,600.8657506000018,600.8499765000015,601.1495614000014,601.1495614000014,None,601.6502869999968,None,j,1,1.8355951000121422,601.6502869999968,None,None,None,,,,,,,,,,,,,,,,,,,,,,,11010,1,2,2024_Jun_18_0904,stroop_task_switching2_b,2021.2.3,59.97699282492041,
,,,黄,yellow,f,diamond,color_mix,颜色,,compatible,2,block_switch1_b,instruction/ready_test.png,instruction/i11.png,,,,,,,,,,,,,,,,,0,0,0,0,0,64,64,64,,,,,,,,,,,,,,,,,,,,,,,,,,,603.5030072999944,603.705380200001,603.6867309999943,603.9882165000017,603.9882165000017,None,604.4877921000007,None,f,1,2.125318500009598,604.4877921000007,None,None,None,,,,,,,,,,,,,,,,,,,,,,,11010,1,2,2024_Jun_18_0904,stroop_task_switching2_b,2021.2.3,59.97699282492041,
,,,蓝,green,d,diamond,color_mix,颜色,,incompatible,1,block_switch1_b,instruction/ready_test.png,instruction/i11.png,,,,,,,,,,,,,,,,,0,0,0,0,0,65,65,65,,,,,,,,,,,,,,,,,,,,,,,,,,,606.6411284999922,606.8421775999886,606.8270637000096,607.1252717000025,607.1252717000025,None,607.6257012999849,None,d,1,2.171527500002412,607.6257012999849,None,None,None,,,,,,,,,,,,,,,,,,,,,,,11010,1,2,2024_Jun_18_0904,stroop_task_switching2_b,2021.2.3,59.97699282492041,
,,,红,red,k,diamond,color_mix,颜色,,compatible,1,block_switch1_b,instruction/ready_test.png,instruction/i11.png,,,,,,,,,,,,,,,,,0,0,0,0,0,66,66,66,,,,,,,,,,,,,,,,,,,,,,,,,,,609.8125660000078,610.0135082000052,609.9969490999938,610.2977122000011,610.2977122000011,None,610.7974045999872,None,k,1,2.3599594999977853,610.7974045999872,None,None,None,,,,,,,,,,,,,,,,,,,,,,,11010,1,2,2024_Jun_18_0904,stroop_task_switching2_b,2021.2.3,59.97699282492041,
,,,蓝,yellow,j,square,color_mix,单词,,incompatible,2,block_switch1_b,instruction/ready_test.png,instruction/i11.png,,,,,,,,,,,,,,,,,0,0,0,0,0,67,67,67,,,,,,,,,,,,,,,,,,,,,,,,,,,613.184347900009,613.3861232000054,613.3679756000056,613.6692301000003,613.6692301000003,None,614.1691694000037,None,j,1,1.5410572999971919,614.1691694000037,None,None,None,,,,,,,,,,,,,,,,,,,,,,,11010,1,2,2024_Jun_18_0904,stroop_task_switching2_b,2021.2.3,59.97699282492041,
,,,红,yellow,k,square,color_mix,单词,,incompatible,1,block_switch1_b,instruction/ready_test.png,instruction/i11.png,,,,,,,,,,,,,,,,,0,0,0,0,0,68,68,68,,,,,,,,,,,,,,,,,,,,,,,,,,,615.7380617999879,615.9385975000041,615.9232159999956,616.2233005999879,616.2233005999879,None,616.7235534999927,None,k,1,1.1056742999935523,616.7235534999927,None,None,None,,,,,,,,,,,,,,,,,,,,,,,11010,1,2,2024_Jun_18_0904,stroop_task_switching2_b,2021.2.3,59.97699282492041,
,,,红,yellow,f,diamond,color_mix,颜色,,incompatible,2,block_switch1_b,instruction/ready_test.png,instruction/i11.png,,,,,,,,,,,,,,,,,0,0,0,0,0,69,69,69,,,,,,,,,,,,,,,,,,,,,,,,,,,617.8581070000073,618.0580781000026,618.041948500002,618.3428423999867,618.3428423999867,None,618.8429768999922,None,f,1,1.2907337000069674,618.8429768999922,None,None,None,,,,,,,,,,,,,,,,,,,,,,,11010,1,2,2024_Jun_18_0904,stroop_task_switching2_b,2021.2.3,59.97699282492041,
,,,蓝,green,j,square,color_mix,单词,,incompatible,2,block_switch1_b,instruction/ready_test.png,instruction/i11.png,,,,,,,,,,,,,,,,,0,0,0,0,0,70,70,70,,,,,,,,,,,,,,,,,,,,,,,,,,,620.1615093,620.3618030000071,620.3473954999936,620.6464227999968,620.6464227999968,None,621.1464477000118,None,j,1,1.251581599994097,621.1464477000118,None,None,None,,,,,,,,,,,,,,,,,,,,,,,11010,1,2,2024_Jun_18_0904,stroop_task_switching2_b,2021.2.3,59.97699282492041,
,,,绿,yellow,d,square,color_mix,单词,,incompatible,1,block_switch1_b,instruction/ready_test.png,instruction/i11.png,,,,,,,,,,,,,,,,,0,0,0,0,0,71,71,71,,,,,,,,,,,,,,,,,,,,,,,,,,,622.4150530000043,622.6164758999948,622.598452700011,622.899413999985,622.899413999985,None,623.4005139000074,None,d,1,1.0454180000233464,623.4005139000074,None,None,None,,,,,,,,,,,,,,,,,,,,,,,11010,1,2,2024_Jun_18_0904,stroop_task_switching2_b,2021.2.3,59.97699282492041,
,,,蓝,yellow,f,diamond,color_mix,颜色,,incompatible,2,block_switch1_b,instruction/ready_test.png,instruction/i11.png,,,,,,,,,,,,,,,,,0,0,0,0,0,72,72,72,,,,,,,,,,,,,,,,,,,,,,,,,,,624.4685323000012,624.6697921000014,624.6516005999874,624.9535505000094,624.9535505000094,None,625.4536492000043,None,f,1,0.6323823000129778,625.4536492000043,None,None,None,,,,,,,,,,,,,,,,,,,,,,,11010,1,2,2024_Jun_18_0904,stroop_task_switching2_b,2021.2.3,59.97699282492041,
,,,红,green,k,square,color_mix,单词,,incompatible,2,block_switch1_b,instruction/ready_test.png,instruction/i11.png,,,,,,,,,,,,,,,,,0,0,0,0,0,73,73,73,,,,,,,,,,,,,,,,,,,,,,,,,,,626.1039226999856,626.3040059999912,626.2874041000032,626.5884236999846,626.5884236999846,None,627.0895537000033,None,k,1,1.7963414000114426,627.0895537000033,None,None,None,,,,,,,,,,,,,,,,,,,,,,,11010,1,2,2024_Jun_18_0904,stroop_task_switching2_b,2021.2.3,59.97699282492041,
,,,绿,blue,j,diamond,color_mix,颜色,,incompatible,2,block_switch1_b,instruction/ready_test.png,instruction/i11.png,,,,,,,,,,,,,,,,,0,0,0,0,0,74,74,74,,,,,,,,,,,,,,,,,,,,,,,,,,,628.9079242000007,629.1094082999916,629.0916326000006,629.392230700003,629.392230700003,None,629.8928637999925,None,j,1,1.1048541000054684,629.8928637999925,None,None,None,,,,,,,,,,,,,,,,,,,,,,,11010,1,2,2024_Jun_18_0904,stroop_task_switching2_b,2021.2.3,59.97699282492041,
,,,红,red,k,square,color_mix,单词,,compatible,2,block_switch1_b,instruction/ready_test.png,instruction/i11.png,,,,,,,,,,,,,,,,,0,0,0,0,0,75,75,75,,,,,,,,,,,,,,,,,,,,,,,,,,,631.0279706000001,631.2295809999923,631.2115809000097,631.5128829999885,631.5128829999885,None,632.0126755000092,None,k,1,0.8337067000102252,632.0126755000092,None,None,None,,,,,,,,,,,,,,,,,,,,,,,11010,1,2,2024_Jun_18_0904,stroop_task_switching2_b,2021.2.3,59.97699282492041,
,,,绿,green,d,diamond,color_mix,颜色,,compatible,2,block_switch1_b,instruction/ready_test.png,instruction/i11.png,,,,,,,,,,,,,,,,,0,0,0,0,0,76,76,76,,,,,,,,,,,,,,,,,,,,,,,,,,,632.8640292999917,633.0649702000082,633.0495437000063,633.3490295000083,633.3490295000083,None,633.8488606000028,None,d,1,1.1977703000011388,633.8488606000028,None,None,None,,,,,,,,,,,,,,,,,,,,,,,11010,1,2,2024_Jun_18_0904,stroop_task_switching2_b,2021.2.3,59.97699282492041,
,,,黄,red,f,square,color_mix,单词,,incompatible,2,block_switch1_b,instruction/ready_test.png,instruction/i11.png,,,,,,,,,,,,,,,,,0,0,0,0,0,77,77,77,,,,,,,,,,,,,,,,,,,,,,,,,,,635.0672098000068,635.2697673999937,635.2514102999994,635.5527960000036,635.5527960000036,None,636.0522100999951,None,f,1,1.3777860999980476,636.0522100999951,None,None,None,,,,,,,,,,,,,,,,,,,,,,,11010,1,2,2024_Jun_18_0904,stroop_task_switching2_b,2021.2.3,59.97699282492041,
,,,红,red,k,square,color_mix,单词,,compatible,1,block_switch1_b,instruction/ready_test.png,instruction/i11.png,,,,,,,,,,,,,,,,,0,0,0,0,0,78,78,78,,,,,,,,,,,,,,,,,,,,,,,,,,,637.4543370000029,637.6544984999928,637.6385718999954,637.9384371000051,637.9384371000051,None,638.440606899996,None,k,1,2.1493400000035763,638.440606899996,None,None,None,,,,,,,,,,,,,,,,,,,,,,,11010,1,2,2024_Jun_18_0904,stroop_task_switching2_b,2021.2.3,59.97699282492041,
,,,黄,yellow,f,square,color_mix,单词,,compatible,1,block_switch1_b,instruction/ready_test.png,instruction/i11.png,,,,,,,,,,,,,,,,,0,0,0,0,0,79,79,79,,,,,,,,,,,,,,,,,,,,,,,,,,,640.6089361000049,640.8097278999921,640.7925912000064,641.0930361000064,641.0930361000064,None,641.594022300007,None,f,1,1.8363822000101209,641.594022300007,None,None,None,,,,,,,,,,,,,,,,,,,,,,,11010,1,2,2024_Jun_18_0904,stroop_task_switching2_b,2021.2.3,59.97699282492041,
,,,红,red,k,diamond,color_mix,颜色,,compatible,2,block_switch1_b,instruction/ready_test.png,instruction/i11.png,,,,,,,,,,,,,,,,,0,0,0,0,0,80,80,80,,,,,,,,,,,,,,,,,,,,,,,,,,,643.4466371999879,643.646986000007,643.6307469999883,643.932324399997,643.932324399997,None,644.4315236000111,None,k,1,1.8067857999994885,644.4315236000111,None,None,None,,,,,,,,,,,,,,,,,,,,,,,11010,1,2,2024_Jun_18_0904,stroop_task_switching2_b,2021.2.3,59.97699282492041,
,,,红,red,k,square,color_mix,单词,,compatible,2,block_switch1_b,instruction/ready_test.png,instruction/i11.png,,,,,,,,,,,,,,,,,0,0,0,0,0,81,81,81,,,,,,,,,,,,,,,,,,,,,,,,,,,646.2676775,646.4701111000031,646.4512743999949,646.7514347000106,646.7514347000106,None,647.2523517000081,None,k,1,0.46616339997854084,647.2523517000081,None,None,None,,,,,,,,,,,,,,,,,,,,,,,11010,1,2,2024_Jun_18_0904,stroop_task_switching2_b,2021.2.3,59.97699282492041,
,,,黄,blue,j,diamond,color_mix,颜色,,incompatible,2,block_switch1_b,instruction/ready_test.png,instruction/i11.png,,,,,,,,,,,,,,,,,0,0,0,0,0,82,82,82,,,,,,,,,,,,,,,,,,,,,,,,,,,647.7363644999859,647.9374187999929,647.9208018000063,648.2221270999871,648.2221270999871,None,648.721166000003,None,j,1,1.4539043999975547,648.721166000003,None,None,None,,,,,,,,,,,,,,,,,,,,,,,11010,1,2,2024_Jun_18_0904,stroop_task_switching2_b,2021.2.3,59.97699282492041,
,,,红,yellow,f,diamond,color_mix,颜色,,incompatible,1,block_switch1_b,instruction/ready_test.png,instruction/i11.png,,,,,,,,,,,,,,,,,0,0,0,0,0,83,83,83,,,,,,,,,,,,,,,,,,,,,,,,,,,650.190063099988,650.3905704999925,650.3751606000005,650.6763221999863,650.6763221999863,None,651.1756867000076,None,f,1,1.1025981999991927,651.1756867000076,None,None,None,,,,,,,,,,,,,,,,,,,,,,,11010,1,2,2024_Jun_18_0904,stroop_task_switching2_b,2021.2.3,59.97699282492041,
,,,黄,red,k,diamond,color_mix,颜色,,incompatible,1,block_switch1_b,instruction/ready_test.png,instruction/i11.png,,,,,,,,,,,,,,,,,0,0,0,0,0,84,84,84,,,,,,,,,,,,,,,,,,,,,,,,,,,652.2933034999878,652.4944851000037,652.4772770999989,652.7788493999979,652.7788493999979,None,653.2779620999936,None,k,1,1.3765599000034854,653.2779620999936,None,None,None,,,,,,,,,,,,,,,,,,,,,,,11010,1,2,2024_Jun_18_0904,stroop_task_switching2_b,2021.2.3,59.97699282492041,
,,,蓝,blue,j,square,color_mix,单词,,compatible,2,block_switch1_b,instruction/ready_test.png,instruction/i11.png,,,,,,,,,,,,,,,,,0,0,0,0,0,85,85,85,,,,,,,,,,,,,,,,,,,,,,,,,,,654.680366799992,654.8811162000056,654.864631400007,655.1649858999881,655.1649858999881,None,655.6649403999909,None,j,1,2.325549000001047,655.6649403999909,None,None,None,,,,,,,,,,,,,,,,,,,,,,,11010,1,2,2024_Jun_18_0904,stroop_task_switching2_b,2021.2.3,59.97699282492041,
,,,绿,green,d,square,color_mix,单词,,compatible,1,block_switch1_b,instruction/ready_test.png,instruction/i11.png,,,,,,,,,,,,,,,,,0,0,0,0,0,86,86,86,,,,,,,,,,,,,,,,,,,,,,,,,,,658.0186060999986,658.2204274999967,658.2022390000056,658.5030736000044,658.5030736000044,None,659.003372200008,None,d,1,1.2356941000034567,659.003372200008,None,None,None,,,,,,,,,,,,,,,,,,,,,,,11010,1,2,2024_Jun_18_0904,stroop_task_switching2_b,2021.2.3,59.97699282492041,
,,,红,red,k,square,color_mix,单词,,compatible,1,block_switch1_b,instruction/ready_test.png,instruction/i11.png,,,,,,,,,,,,,,,,,0,0,0,0,0,87,87,87,,,,,,,,,,,,,,,,,,,,,,,,,,,660.2551273999852,660.4571354000072,660.4389007999853,660.7412631000043,660.7412631000043,None,661.2400231999927,None,k,1,1.2307773000211455,661.2400231999927,None,None,None,,,,,,,,,,,,,,,,,,,,,,,11010,1,2,2024_Jun_18_0904,stroop_task_switching2_b,2021.2.3,59.97699282492041,
,,,黄,green,d,diamond,color_mix,颜色,,incompatible,2,block_switch1_b,instruction/ready_test.png,instruction/i11.png,,,,,,,,,,,,,,,,,0,0,0,0,0,88,88,88,,,,,,,,,,,,,,,,,,,,,,,,,,,662.4919921999972,662.6922654999944,662.6757095000066,662.9761904999905,662.9761904999905,None,663.4769295000006,None,d,1,2.778021100006299,663.4769295000006,None,None,None,,,,,,,,,,,,,,,,,,,,,,,11010,1,2,2024_Jun_18_0904,stroop_task_switching2_b,2021.2.3,59.97699282492041,
,,,绿,red,d,square,color_mix,单词,,incompatible,2,block_switch1_b,instruction/ready_test.png,instruction/i11.png,,,,,,,,,,,,,,,,,0,0,0,0,0,89,89,89,,,,,,,,,,,,,,,,,,,,,,,,,,,666.2811557000095,666.4813300000096,666.4647033000074,666.7664330999833,666.7664330999833,None,667.2669891999976,None,d,1,1.6121465000032913,667.2669891999976,None,None,None,,,,,,,,,,,,,,,,,,,,,,,11010,1,2,2024_Jun_18_0904,stroop_task_switching2_b,2021.2.3,59.97699282492041,
,,,黄,green,f,square,color_mix,单词,,incompatible,1,block_switch1_b,instruction/ready_test.png,instruction/i11.png,,,,,,,,,,,,,,,,,0,0,0,0,0,90,90,90,,,,,,,,,,,,,,,,,,,,,,,,,,,668.9015574000077,669.103392399993,669.0858929000096,669.3866392000054,669.3866392000054,None,669.887333599996,672.8928384000028,None,0,,669.887333599996,672.8928384000028,672.8750398999837,None,,,,,,,,,,,,,,,,,,,,,,,11010,1,2,2024_Jun_18_0904,stroop_task_switching2_b,2021.2.3,59.97699282492041,
,,,蓝,blue,j,square,color_mix,单词,,compatible,1,block_switch1_b,instruction/ready_test.png,instruction/i11.png,,,,,,,,,,,,,,,,,0,0,0,0,0,91,91,91,,,,,,,,,,,,,,,,,,,,,,,,,,,673.408437999984,673.6099391999887,673.5922172999999,673.8938003999938,673.8938003999938,None,674.393129300006,None,j,1,1.2379283999907784,674.393129300006,None,None,None,,,,,,,,,,,,,,,,,,,,,,,11010,1,2,2024_Jun_18_0904,stroop_task_switching2_b,2021.2.3,59.97699282492041,
,,,蓝,red,j,square,color_mix,单词,,incompatible,1,block_switch1_b,instruction/ready_test.png,instruction/i11.png,,,,,,,,,,,,,,,,,0,0,0,0,0,92,92,92,,,,,,,,,,,,,,,,,,,,,,,,,,,675.6618938999891,675.8621778000088,675.8454594000068,676.1461139000021,676.1461139000021,None,676.6480382999871,None,j,1,1.590939600020647,676.6480382999871,None,None,None,,,,,,,,,,,,,,,,,,,,,,,11010,1,2,2024_Jun_18_0904,stroop_task_switching2_b,2021.2.3,59.97699282492041,
,,,黄,blue,f,square,color_mix,单词,,incompatible,1,block_switch1_b,instruction/ready_test.png,instruction/i11.png,,,,,,,,,,,,,,,,,0,0,0,0,0,93,93,93,,,,,,,,,,,,,,,,,,,,,,,,,,,678.2667999000114,678.4663634999888,678.4498494,678.7518962000031,678.7518962000031,None,679.2685466000112,None,f,1,1.7710135000234004,679.2685466000112,None,None,None,,,,,,,,,,,,,,,,,,,,,,,11010,1,2,2024_Jun_18_0904,stroop_task_switching2_b,2021.2.3,59.97699282492041,
,,,绿,red,k,diamond,color_mix,颜色,,incompatible,2,block_switch1_b,instruction/ready_test.png,instruction/i11.png,,,,,,,,,,,,,,,,,0,0,0,0,0,94,94,94,,,,,,,,,,,,,,,,,,,,,,,,,,,681.0701045999886,681.2713863000099,681.2545958999835,681.5554635000008,681.5554635000008,None,682.0563200000033,None,k,1,2.4152776999981143,682.0563200000033,None,None,None,,,,,,,,,,,,,,,,,,,,,,,11010,1,2,2024_Jun_18_0904,stroop_task_switching2_b,2021.2.3,59.97699282492041,
,,,蓝,blue,j,diamond,color_mix,颜色,,compatible,1,block_switch1_b,instruction/ready_test.png,instruction/i11.png,,,,,,,,,,,,,,,,,0,0,0,0,0,95,95,95,,,,,,,,,,,,,,,,,,,,,,,,,,,684.4919330999837,684.6925139999948,684.6769957999932,684.9780039000034,684.9780039000034,None,685.4776205999951,None,j,1,2.449945700005628,685.4776205999951,None,None,None,,,,,,,,,,,,,,,,,,,,,,,11010,1,2,2024_Jun_18_0904,stroop_task_switching2_b,2021.2.3,59.97699282492041,
,,,绿,green,d,square,color_mix,单词,,compatible,2,block_switch1_b,instruction/ready_test.png,instruction/i11.png,,,,,,,,,,,,,,,,,0,0,0,0,0,96,96,96,,,,,,,,,,,,,,,,,,,,,,,,,,,687.9470530000108,688.1481304999907,688.1315090999997,688.4327884000086,688.4327884000086,None,688.9333396999864,None,d,1,1.6583236000151373,688.9333396999864,None,None,None,,,,,,,,,,,,,,,,,,,,,,,11010,1,2,2024_Jun_18_0904,stroop_task_switching2_b,2021.2.3,59.97699282492041,
,,,,,,,,,,,,block_switch1_b,instruction/ready_test.png,instruction/i11.png,,,,,,,,,,,,,,,,,0,0,0,0,,,,,,,,,,,,,,,,,,,,,,,,,,,,,,,,,,,,,,,,,,,,,,,,,,,,,,,,,,,,690.6178870000003,None,space,43.2634429000027,690.6178870000003,None,,,11010,1,2,2024_Jun_18_0904,stroop_task_switching2_b,2021.2.3,59.97699282492041,
,,,蓝,blue,j,square,color_mix,单词,,compatible,0,block_switch2_b,instruction/ready_2.png,instruction/i12.png,,,,,,,,,,,,,,,,,0,1,1,1,0,0,0,0,,,,,,,,,,,,,,,,,,,736.620390600001,737.6229013999982,737.6229013999982,738.6233836000029,738.6233836000029,None,735.6354284000117,736.6375727999839,739.6412766999856,739.8425659000059,739.8425659000059,740.1430433999922,740.1279079999949,None,740.6273950999894,None,j,1,0.6373134999885224,740.6273950999894,None,None,None,,,,,,,,,733.9165326000075,None,space,1.6924268000002485,733.9165326000075,None,,,,,,,,,11010,1,2,2024_Jun_18_0904,stroop_task_switching2_b,2021.2.3,59.97699282492041,
,,,黄,red,k,diamond,color_mix,颜色,,incompatible,2,block_switch2_b,instruction/ready_2.png,instruction/i12.png,,,,,,,,,,,,,,,,,0,1,1,1,0,1,1,1,,,,,,,,,,,,,,,,,,,,,,,,,,,741.2942785999912,741.4944920999988,741.4777722999861,741.7802179999999,741.7802179999999,None,742.2791711000027,None,k,1,0.6098943999968469,742.2791711000027,None,None,None,,,,,,,,,,,,,,,,,,,,,,,11010,1,2,2024_Jun_18_0904,stroop_task_switching2_b,2021.2.3,59.97699282492041,
,,,蓝,green,d,diamond,color_mix,颜色,,incompatible,1,block_switch2_b,instruction/ready_2.png,instruction/i12.png,,,,,,,,,,,,,,,,,0,1,1,1,0,2,2,2,,,,,,,,,,,,,,,,,,,,,,,,,,,742.9138407999999,743.1153183999995,743.0969309000066,743.3978116000071,743.3978116000071,None,743.8993176000076,None,d,1,0.9576943999854848,743.8993176000076,None,None,None,,,,,,,,,,,,,,,,,,,,,,,11010,1,2,2024_Jun_18_0904,stroop_task_switching2_b,2021.2.3,59.97699282492041,
,,,红,yellow,f,diamond,color_mix,颜色,,incompatible,1,block_switch2_b,instruction/ready_2.png,instruction/i12.png,,,,,,,,,,,,,,,,,0,1,1,1,0,3,3,3,,,,,,,,,,,,,,,,,,,,,,,,,,,744.8830056999868,745.0848021999991,745.0673376999912,745.3679051999934,745.3679051999934,None,745.8678317999875,None,f,1,0.8691851999901701,745.8678317999875,None,None,None,,,,,,,,,,,,,,,,,,,,,,,11010,1,2,2024_Jun_18_0904,stroop_task_switching2_b,2021.2.3,59.97699282492041,
,,,红,red,k,diamond,color_mix,颜色,,compatible,1,block_switch2_b,instruction/ready_2.png,instruction/i12.png,,,,,,,,,,,,,,,,,0,1,1,1,0,4,4,4,,,,,,,,,,,,,,,,,,,,,,,,,,,746.7691519999935,746.9723973000073,746.9536614000099,747.2544496000046,747.2544496000046,None,747.7538128999877,None,k,1,1.0792071000032593,747.7538128999877,None,None,None,,,,,,,,,,,,,,,,,,,,,,,11010,1,2,2024_Jun_18_0904,stroop_task_switching2_b,2021.2.3,59.97699282492041,
,,,绿,green,d,square,color_mix,单词,,compatible,2,block_switch2_b,instruction/ready_2.png,instruction/i12.png,,,,,,,,,,,,,,,,,0,1,1,1,0,5,5,5,,,,,,,,,,,,,,,,,,,,,,,,,,,748.8554401999863,749.0567699999956,749.0403421999945,749.3407814000093,749.3407814000093,None,749.8404390999931,None,d,1,0.6406778000236955,749.8404390999931,None,None,None,,,,,,,,,,,,,,,,,,,,,,,11010,1,2,2024_Jun_18_0904,stroop_task_switching2_b,2021.2.3,59.97699282492041,
,,,黄,blue,j,diamond,color_mix,颜色,,incompatible,2,block_switch2_b,instruction/ready_2.png,instruction/i12.png,,,,,,,,,,,,,,,,,0,1,1,1,0,6,6,6,,,,,,,,,,,,,,,,,,,,,,,,,,,750.5081083000114,750.7093327000039,750.6915550999984,750.9930279999971,750.9930279999971,None,751.4930261000118,None,j,1,0.7559905999805778,751.4930261000118,None,None,None,,,,,,,,,,,,,,,,,,,,,,,11010,1,2,2024_Jun_18_0904,stroop_task_switching2_b,2021.2.3,59.97699282492041,
,,,绿,yellow,d,square,color_mix,单词,,incompatible,2,block_switch2_b,instruction/ready_2.png,instruction/i12.png,,,,,,,,,,,,,,,,,0,1,1,1,0,7,7,7,,,,,,,,,,,,,,,,,,,,,,,,,,,752.278009200003,752.4784306999936,752.461501999991,752.7615107999882,752.7615107999882,None,753.2630367999955,None,d,1,1.3467864000122063,753.2630367999955,None,None,None,,,,,,,,,,,,,,,,,,,,,,,11010,1,2,2024_Jun_18_0904,stroop_task_switching2_b,2021.2.3,59.97699282492041,
