b_pra,ins_blocks,ins_blocks2,stim_word,stim_color,corrAns,cue_type,trial_type,task_type,rand,compatibility,switch,b_test,w_pic,w_pic2,trials_instr.thisRepN,trials_instr.thisTrialN,trials_instr.thisN,trials_instr.thisIndex,block_pra.thisRepN,block_pra.thisTrialN,block_pra.thisN,block_pra.thisIndex,trials_rep.thisRepN,trials_rep.thisTrialN,trials_rep.thisN,trials_rep.thisIndex,trials_pra.thisRepN,trials_pra.thisTrialN,trials_pra.thisN,trials_pra.thisIndex,trials_3.thisRepN,trials_3.thisTrialN,trials_3.thisN,trials_3.thisIndex,trials_2.thisRepN,trials_2.thisTrialN,trials_2.thisN,trials_2.thisIndex,instr_image.started,instr_image.stopped,instr_key_resp.keys,instr_key_resp.rt,instr_key_resp.started,instr_key_resp.stopped,instr_pra_image.started,instr_pra_image.stopped,ip_key_resp.keys,ip_key_resp.rt,ip_key_resp.started,ip_key_resp.stopped,block_image.started,block_image.stopped,ib_key_resp.keys,ib_key_resp.rt,ib_key_resp.started,ib_key_resp.stopped,cd3.started,cd3.stopped,cd2.started,cd2.stopped,cd1.started,cd1.stopped,cd_text.started,cd_text.stopped,text_fix.started,text_fix.stopped,text_2.started,text_2.stopped,text_4.started,text_4.stopped,text_target.started,text_target.stopped,key_resp.keys,key_resp.corr,key_resp.rt,key_resp.started,key_resp.stopped,sceen_black.started,sceen_black.stopped,text_fb.started,text_fb.stopped,text.started,text.stopped,key_bf.keys,key_bf.rt,key_bf.started,key_bf.stopped,instr_test_image.started,instr_test_image.stopped,instr_exp_key_resp.keys,instr_exp_key_resp.rt,instr_exp_key_resp.started,instr_exp_key_resp.stopped,text_rest.started,text_rest.stopped,key_resp_rest.keys,key_resp_rest.rt,key_resp_rest.started,key_resp_rest.stopped,text_3.started,text_3.stopped,participant,session,balance,date,expName,psychopyVersion,frameRate,
,,,,,,,,,,,,,,,0,0,0,0,,,,,,,,,,,,,,,,,,,,,19.537941700022202,None,right,9.014764299965464,19.537941700022202,None,,,,,,,,,,,,,,,,,,,,,,,,,,,,,,,,,,,,,,,,,,,,,,,,,,,,,,,,,,11022,2,1,2024_Jun_01_2058,stroop_task_switching2,2021.2.3,59.561389920021334,
,,,,,,,,,,,,,,,1,0,1,0,,,,,,,,,,,,,,,,,,,,,28.60230800003046,None,right,38.36655160004739,28.60230800003046,None,,,,,,,,,,,,,,,,,,,,,,,,,,,,,,,,,,,,,,,,,,,,,,,,,,,,,,,,,,11022,2,1,2024_Jun_01_2058,stroop_task_switching2,2021.2.3,59.561389920021334,
,,,,,,,,,,,,,,,2,0,2,0,,,,,,,,,,,,,,,,,,,,,67.02745740005048,None,right,13.741876799962483,67.02745740005048,None,,,,,,,,,,,,,,,,,,,,,,,,,,,,,,,,,,,,,,,,,,,,,,,,,,,,,,,,,,11022,2,1,2024_Jun_01_2058,stroop_task_switching2,2021.2.3,59.561389920021334,
,,,,,,,,,,,,,,,3,0,3,0,,,,,,,,,,,,,,,,,,,,,80.83157560002292,None,right,3.7702315999777056,80.83157560002292,None,,,,,,,,,,,,,,,,,,,,,,,,,,,,,,,,,,,,,,,,,,,,,,,,,,,,,,,,,,11022,2,1,2024_Jun_01_2058,stroop_task_switching2,2021.2.3,59.561389920021334,
,,,,,,,,,,,,,,,4,0,4,0,,,,,,,,,,,,,,,,,,,,,84.65408840001328,None,right,4.3960459000081755,84.65408840001328,None,,,,,,,,,,,,,,,,,,,,,,,,,,,,,,,,,,,,,,,,,,,,,,,,,,,,,,,,,,11022,2,1,2024_Jun_01_2058,stroop_task_switching2,2021.2.3,59.561389920021334,
,,,,,,,,,,,,,,,5,0,5,0,,,,,,,,,,,,,,,,,,,,,89.11070750001818,None,right,0.7471946000005119,89.11070750001818,None,,,,,,,,,,,,,,,,,,,,,,,,,,,,,,,,,,,,,,,,,,,,,,,,,,,,,,,,,,11022,2,1,2024_Jun_01_2058,stroop_task_switching2,2021.2.3,59.561389920021334,
,,,,,,,,,,,,,,,,,,,,,,,,,,,,,,,,,,,,,,,,,,,,,89.89572900003986,None,space,2.4487446999992244,89.89572900003986,None,,,,,,,,,,,,,,,,,,,,,,,,,,,,,,,,,,,,,,,,,,,,,,,,,,,,11022,2,1,2024_Jun_01_2058,stroop_task_switching2,2021.2.3,59.561389920021334,
condition/block_color,instruction/instr_color,instruction/i8,XX,red,d,diamond,color_single,颜色,,,,,,,,,,,0,0,0,0,0,0,0,0,0,0,0,0,,,,,,,,,,,,,,,,,,,,,92.38065350003308,None,space,10.642475999949966,92.38065350003308,None,104.14961630001199,105.15149390004808,105.15149390004808,106.1521818000474,106.1521818000474,None,103.16461140004685,104.16636810003547,107.06957520003198,107.27063880005153,107.25445500004571,107.5545654000016,107.5545654000016,None,108.05571650003549,None,d,1,0.6102743999799713,108.05571650003549,None,None,None,108.75541690003593,None,,,,,,,,,,,,,,,,,,,,,11022,2,1,2024_Jun_01_2058,stroop_task_switching2,2021.2.3,59.561389920021334,
condition/block_color,instruction/instr_color,instruction/i8,XX,green,k,diamond,color_single,颜色,,,,,,,,,,,0,0,0,0,0,0,0,0,0,1,1,1,,,,,,,,,,,,,,,,,,,,,,,,,,,,,,,,,,,109.70808500004932,109.90787960001035,109.89124810002977,110.19203720003134,110.19203720003134,None,110.69189590000315,None,k,1,1.1587895000120625,110.69189590000315,None,None,None,111.87692950002383,None,,,,,,,,,,,,,,,,,,,,,11022,2,1,2024_Jun_01_2058,stroop_task_switching2,2021.2.3,59.561389920021334,
condition/block_color,instruction/instr_color,instruction/i8,XX,yellow,j,diamond,color_single,颜色,,,,,,,,,,,0,0,0,0,0,0,0,0,0,2,2,2,,,,,,,,,,,,,,,,,,,,,,,,,,,,,,,,,,,112.87936660001287,113.07966950000264,113.06357550004032,113.36340970004676,113.36340970004676,None,113.86408130003838,None,j,1,1.05097989999922,113.86408130003838,None,None,None,114.9315806000377,None,,,,,,,,,,,,,,,,,,,,,11022,2,1,2024_Jun_01_2058,stroop_task_switching2,2021.2.3,59.561389920021334,
condition/block_color,instruction/instr_color,instruction/i8,XX,blue,f,diamond,color_single,颜色,,,,,,,,,,,0,0,0,0,0,0,0,0,0,3,3,3,,,,,,,,,,,,,,,,,,,,,,,,,,,,,,,,,,,115.93415810004808,116.13445530005265,116.11756490002153,116.41821590001928,116.41821590001928,None,116.91867970000021,None,f,1,0.7959046000032686,116.91867970000021,None,None,None,117.73585690004984,None,,,,,,,,,,,,,,,,,,,,,11022,2,1,2024_Jun_01_2058,stroop_task_switching2,2021.2.3,59.561389920021334,
condition/block_color,instruction/instr_color,instruction/i8,XX,green,k,diamond,color_single,颜色,,,,,,,,,,,0,0,0,0,0,0,0,0,0,4,4,4,,,,,,,,,,,,,,,,,,,,,,,,,,,,,,,,,,,118.73765310004819,118.93873800005531,118.92191990005085,119.22271600004751,119.22271600004751,None,119.72280740004499,None,k,1,0.9359190999530256,119.72280740004499,None,None,None,120.67346080002608,None,,,,,,,,,,,,,,,,,,,,,11022,2,1,2024_Jun_01_2058,stroop_task_switching2,2021.2.3,59.561389920021334,
condition/block_color,instruction/instr_color,instruction/i8,XX,yellow,j,diamond,color_single,颜色,,,,,,,,,,,0,0,0,0,0,0,0,0,0,5,5,5,,,,,,,,,,,,,,,,,,,,,,,,,,,,,,,,,,,121.67584530002205,121.87629870005185,121.85967830003938,122.1597635000362,122.1597635000362,None,122.66108970000641,None,j,1,1.1657604000065476,122.66108970000641,None,None,None,123.84500840003602,None,,,,,,,,,,,,,,,,,,,,,11022,2,1,2024_Jun_01_2058,stroop_task_switching2,2021.2.3,59.561389920021334,
condition/block_color,instruction/instr_color,instruction/i8,XX,blue,f,diamond,color_single,颜色,,,,,,,,,,,0,0,0,0,0,0,0,0,0,6,6,6,,,,,,,,,,,,,,,,,,,,,,,,,,,,,,,,,,,124.84734680003021,125.04779020004207,125.03094280004734,125.33230830001412,125.33230830001412,None,125.83185650000814,None,f,1,1.0028444999479689,125.83185650000814,None,None,None,126.8495905000018,None,,,,,,,,,,,,,,,,,,,,,11022,2,1,2024_Jun_01_2058,stroop_task_switching2,2021.2.3,59.561389920021334,
condition/block_color,instruction/instr_color,instruction/i8,XX,red,d,diamond,color_single,颜色,,,,,,,,,,,0,0,0,0,0,0,0,0,0,7,7,7,,,,,,,,,,,,,,,,,,,,,,,,,,,,,,,,,,,127.85248310002498,128.05233400000725,128.03556250000838,128.33589080005186,128.33589080005186,None,128.83673760003876,None,d,1,0.5818029000074603,128.83673760003876,None,None,None,129.4366716000368,None,,,,,,,,,,,,,,,,,,,,,11022,2,1,2024_Jun_01_2058,stroop_task_switching2,2021.2.3,59.561389920021334,
condition/block_color,instruction/instr_color,instruction/i8,XX,yellow,j,diamond,color_single,颜色,,,,,,,,,,,0,0,0,0,0,0,0,0,0,8,8,8,,,,,,,,,,,,,,,,,,,,,,,,,,,,,,,,,,,130.43920950003667,130.63890970003558,130.62254020001274,130.92344130005222,130.92344130005222,None,131.42421730002388,None,j,1,0.8750780000118539,131.42421730002388,None,None,None,132.32449580001412,None,,,,,,,,,,,,,,,,,,,,,11022,2,1,2024_Jun_01_2058,stroop_task_switching2,2021.2.3,59.561389920021334,
condition/block_color,instruction/instr_color,instruction/i8,XX,blue,f,diamond,color_single,颜色,,,,,,,,,,,0,0,0,0,0,0,0,0,0,9,9,9,,,,,,,,,,,,,,,,,,,,,,,,,,,,,,,,,,,133.3271033000201,133.52626120002242,133.50964110001223,133.810802800057,133.810802800057,None,134.311739900033,None,f,1,1.042979700025171,134.311739900033,None,None,None,135.3790214000037,None,,,,,,,,,,,,,,,,,,,,,11022,2,1,2024_Jun_01_2058,stroop_task_switching2,2021.2.3,59.561389920021334,
condition/block_color,instruction/instr_color,instruction/i8,XX,red,d,diamond,color_single,颜色,,,,,,,,,,,0,0,0,0,0,0,0,0,0,10,10,10,,,,,,,,,,,,,,,,,,,,,,,,,,,,,,,,,,,136.38129630003823,136.5816595000215,136.56520830001682,136.8655353000504,136.8655353000504,None,137.36530960001983,None,d,1,0.5176871999865398,137.36530960001983,None,None,None,137.89934880001238,None,,,,,,,,,,,,,,,,,,,,,11022,2,1,2024_Jun_01_2058,stroop_task_switching2,2021.2.3,59.561389920021334,
condition/block_color,instruction/instr_color,instruction/i8,XX,green,k,diamond,color_single,颜色,,,,,,,,,,,0,0,0,0,0,0,0,0,0,11,11,11,,,,,,,,,,,,,,,,,,,,,,,,,,,,,,,,,,,138.90199440001743,139.10220200003823,139.0851621000329,139.38633910001954,139.38633910001954,None,139.88705320004374,None,k,1,1.0925866999896243,139.88705320004374,None,None,None,141.00403360003838,None,,,,,,,,,,,,,,,,,,,,,11022,2,1,2024_Jun_01_2058,stroop_task_switching2,2021.2.3,59.561389920021334,
condition/block_color,instruction/instr_color,instruction/i8,XX,blue,f,diamond,color_single,颜色,,,,,,,,,,,0,0,0,0,0,0,0,0,0,12,12,12,,,,,,,,,,,,,,,,,,,,,,,,,,,,,,,,,,,142.00674150005216,142.206982600037,142.18987500004005,142.49081920000026,142.49081920000026,None,142.99153650004882,None,f,1,1.0757231999887154,142.99153650004882,None,None,None,144.09220630000345,None,,,,,,,,,,,,,,,,,,,,,11022,2,1,2024_Jun_01_2058,stroop_task_switching2,2021.2.3,59.561389920021334,
condition/block_color,instruction/instr_color,instruction/i8,XX,red,d,diamond,color_single,颜色,,,,,,,,,,,0,0,0,0,0,0,0,0,0,13,13,13,,,,,,,,,,,,,,,,,,,,,,,,,,,,,,,,,,,145.09403990005376,145.2949348000111,145.27865360002033,145.5788065000088,145.5788065000088,None,146.0796554000117,None,d,1,0.5474355000187643,146.0796554000117,None,None,None,146.6461134000565,None,,,,,,,,,,,,,,,,,,,,,11022,2,1,2024_Jun_01_2058,stroop_task_switching2,2021.2.3,59.561389920021334,
condition/block_color,instruction/instr_color,instruction/i8,XX,green,k,diamond,color_single,颜色,,,,,,,,,,,0,0,0,0,0,0,0,0,0,14,14,14,,,,,,,,,,,,,,,,,,,,,,,,,,,,,,,,,,,147.64925850002328,147.84935260005295,147.8326382000232,148.13264710002113,148.13264710002113,None,148.63338240003213,None,k,1,1.162211999995634,148.63338240003213,None,None,None,149.81731290003518,None,,,,,,,,,,,,,,,,,,,,,11022,2,1,2024_Jun_01_2058,stroop_task_switching2,2021.2.3,59.561389920021334,
condition/block_color,instruction/instr_color,instruction/i8,XX,yellow,j,diamond,color_single,颜色,,,,,,,,,,,0,0,0,0,0,0,0,0,0,15,15,15,,,,,,,,,,,,,,,,,,,,,,,,,,,,,,,,,,,150.81959930004086,151.02025400003185,151.00367490004282,151.30423780001001,151.30423780001001,None,151.80456060002325,None,j,1,1.047048199980054,151.80456060002325,None,None,None,152.8722438000259,None,,,,,,,,,,,,,,,,,,,,,11022,2,1,2024_Jun_01_2058,stroop_task_switching2,2021.2.3,59.561389920021334,
condition/block_color,instruction/instr_color,instruction/i8,XX,red,d,diamond,color_single,颜色,,,,,,,,,,,0,0,0,0,0,0,0,0,0,16,16,16,,,,,,,,,,,,,,,,,,,,,,,,,,,,,,,,,,,153.87476580002112,154.0753010000335,154.0583402000484,154.3586203000159,154.3586203000159,None,154.8592107000295,None,d,1,0.632663800031878,154.8592107000295,None,None,None,155.50927080004476,None,,,,,,,,,,,,,,,,,,,,,11022,2,1,2024_Jun_01_2058,stroop_task_switching2,2021.2.3,59.561389920021334,
condition/block_color,instruction/instr_color,instruction/i8,XX,green,k,diamond,color_single,颜色,,,,,,,,,,,0,0,0,0,0,0,0,0,0,17,17,17,,,,,,,,,,,,,,,,,,,,,,,,,,,,,,,,,,,156.51193770003738,156.71204960002797,156.69530160003342,156.9960891000228,156.9960891000228,None,157.4965677,None,k,1,0.8915919000282884,157.4965677,None,None,None,158.41367770003853,None,,,,,,,,,,,,,,,,,,,,,11022,2,1,2024_Jun_01_2058,stroop_task_switching2,2021.2.3,59.561389920021334,
condition/block_color,instruction/instr_color,instruction/i8,XX,yellow,j,diamond,color_single,颜色,,,,,,,,,,,0,0,0,0,0,0,0,0,0,18,18,18,,,,,,,,,,,,,,,,,,,,,,,,,,,,,,,,,,,159.41611460002605,159.61656640004367,159.60048070002813,159.9006175000104,159.9006175000104,None,160.40116700000362,None,j,1,1.1146783999865875,160.40116700000362,None,None,None,161.5352264000103,None,,,,,,,,,,,,,,,,,,,,,11022,2,1,2024_Jun_01_2058,stroop_task_switching2,2021.2.3,59.561389920021334,
condition/block_color,instruction/instr_color,instruction/i8,XX,blue,f,diamond,color_single,颜色,,,,,,,,,,,0,0,0,0,0,0,0,0,0,19,19,19,,,,,,,,,,,,,,,,,,,,,,,,,,,,,,,,,,,162.53665500000352,162.73771500005387,162.72120260004885,163.02182300004642,163.02182300004642,None,163.52200150000863,None,f,1,1.169834800006356,163.52200150000863,None,None,None,164.7064734000014,None,,,,,,,,,,,,,,,,,,,,,11022,2,1,2024_Jun_01_2058,stroop_task_switching2,2021.2.3,59.561389920021334,
condition/block_color,instruction/instr_color,instruction/i8,XX,green,k,diamond,color_single,颜色,,,,,,,,,,,0,0,0,0,0,0,0,0,0,20,20,20,,,,,,,,,,,,,,,,,,,,,,,,,,,,,,,,,,,165.7091399000492,165.90947290003533,165.89251430000877,166.19367030001013,166.19367030001013,None,166.69285760005005,None,k,1,1.0068933000438847,166.69285760005005,None,None,None,167.727866500034,None,,,,,,,,,,,,,,,,,,,,,11022,2,1,2024_Jun_01_2058,stroop_task_switching2,2021.2.3,59.561389920021334,
condition/block_color,instruction/instr_color,instruction/i8,XX,yellow,j,diamond,color_single,颜色,,,,,,,,,,,0,0,0,0,0,0,0,0,0,21,21,21,,,,,,,,,,,,,,,,,,,,,,,,,,,,,,,,,,,168.73046650004108,168.9302523000515,168.9144400000223,169.2143693000544,169.2143693000544,None,169.71509210002841,None,j,1,0.9446425000205636,169.71509210002841,None,None,None,170.6823876000126,None,,,,,,,,,,,,,,,,,,,,,11022,2,1,2024_Jun_01_2058,stroop_task_switching2,2021.2.3,59.561389920021334,
condition/block_color,instruction/instr_color,instruction/i8,XX,blue,f,diamond,color_single,颜色,,,,,,,,,,,0,0,0,0,0,0,0,0,0,22,22,22,,,,,,,,,,,,,,,,,,,,,,,,,,,,,,,,,,,171.68515840003965,171.88557240000227,171.86876740003936,172.16876750002848,172.16876750002848,None,172.66962610004703,None,f,1,0.902409499976784,172.66962610004703,None,None,None,173.58675050002057,None,,,,,,,,,,,,,,,,,,,,,11022,2,1,2024_Jun_01_2058,stroop_task_switching2,2021.2.3,59.561389920021334,
condition/block_color,instruction/instr_color,instruction/i8,XX,red,d,diamond,color_single,颜色,,,,,,,,,,,0,0,0,0,0,0,0,0,0,23,23,23,,,,,,,,,,,,,,,,,,,,,,,,,,,,,,,,,,,174.58926000003703,174.78999530000146,174.77288000000408,175.0731758000329,175.0731758000329,None,175.5739179000375,None,d,1,0.542054699966684,175.5739179000375,None,None,None,176.14128430001438,None,,,,,,,,,,,,,,,,,,,,,11022,2,1,2024_Jun_01_2058,stroop_task_switching2,2021.2.3,59.561389920021334,
condition/block_color,instruction/instr_color,instruction/i8,,,,,,,,,,,,,,,,,0,0,0,0,0,0,0,0,,,,,,,,,,,,,,,,,,,,,,,,,,,,,,,,,,,,,,,,,,,,,,,,,,,,,,,,177.1586895000073,None,space,2.720986799977254,177.1586895000073,None,,,,,,,,,,,,,,,11022,2,1,2024_Jun_01_2058,stroop_task_switching2,2021.2.3,59.561389920021334,
condition/block_color,instruction/instr_color,instruction/i8,,,,,,,,,,,,,,,,,0,0,0,0,,,,,,,,,,,,,,,,,,,,,,,,,,,,,,,,,,,,,,,,,,,,,,,,,,,,,,,,,,,,,,,,,,,,,,,,,,,,,,,,11022,2,1,2024_Jun_01_2058,stroop_task_switching2,2021.2.3,59.561389920021334,
condition/block_word,instruction/instr_word,instruction/i9,黄,white,j,square,word_single,单词,0.0032461461866890584,,,,,,,,,,0,1,1,1,0,0,0,0,0,0,0,0,,,,,,,,,,,,,,,,,,,,,179.9127324000001,None,space,5.108251099998597,179.9127324000001,None,186.03956010000547,187.04138580005383,187.04138580005383,188.04249880003044,188.04249880003044,None,185.0555439000018,186.05622790002963,189.07778720004717,189.27780140005052,189.26098800002364,189.5608312000404,189.5608312000404,None,190.0458975000074,None,j,1,1.9744872000301257,190.0458975000074,None,None,None,192.08116370002972,None,,,,,,,,,,,,,,,,,,,,,11022,2,1,2024_Jun_01_2058,stroop_task_switching2,2021.2.3,59.561389920021334,
condition/block_word,instruction/instr_word,instruction/i9,蓝,white,f,square,word_single,单词,0.060540570646362424,,,,,,,,,,0,1,1,1,0,0,0,0,0,1,1,1,,,,,,,,,,,,,,,,,,,,,,,,,,,,,,,,,,,193.08358740003314,193.28417680005077,193.26716560003115,193.56675410002936,193.56675410002936,None,194.06767590000527,None,f,1,1.2491026999778114,194.06767590000527,None,None,None,195.33621910004877,None,,,,,,,,,,,,,,,,,,,,,11022,2,1,2024_Jun_01_2058,stroop_task_switching2,2021.2.3,59.561389920021334,
condition/block_word,instruction/instr_word,instruction/i9,黄,white,j,square,word_single,单词,0.06994067193778963,,,,,,,,,,0,1,1,1,0,0,0,0,0,2,2,2,,,,,,,,,,,,,,,,,,,,,,,,,,,,,,,,,,,196.33853080001427,196.5386915000272,196.5221431000391,196.82223450002493,196.82223450002493,None,197.3230716000544,None,j,1,1.641464599990286,197.3230716000544,None,None,None,198.99174010002753,None,,,,,,,,,,,,,,,,,,,,,11022,2,1,2024_Jun_01_2058,stroop_task_switching2,2021.2.3,59.561389920021334,
condition/block_word,instruction/instr_word,instruction/i9,蓝,white,f,square,word_single,单词,0.08193765152950094,,,,,,,,,,0,1,1,1,0,0,0,0,0,3,3,3,,,,,,,,,,,,,,,,,,,,,,,,,,,,,,,,,,,199.993818500021,200.19434520002687,200.17743460001657,200.47813340002904,200.47813340002904,None,200.9785425000009,None,f,1,1.0900827999575995,200.9785425000009,None,None,None,202.09644140000455,None,,,,,,,,,,,,,,,,,,,,,11022,2,1,2024_Jun_01_2058,stroop_task_switching2,2021.2.3,59.561389920021334,
condition/block_word,instruction/instr_word,instruction/i9,红,white,d,square,word_single,单词,0.1279694370605574,,,,,,,,,,0,1,1,1,0,0,0,0,0,4,4,4,,,,,,,,,,,,,,,,,,,,,,,,,,,,,,,,,,,203.09864030004246,203.2996687000268,203.28280100005213,203.58261820004554,203.58261820004554,None,204.0836599000031,None,d,1,0.4973247000016272,204.0836599000031,None,None,None,204.60010210005566,None,,,,,,,,,,,,,,,,,,,,,11022,2,1,2024_Jun_01_2058,stroop_task_switching2,2021.2.3,59.561389920021334,
condition/block_word,instruction/instr_word,instruction/i9,红,white,d,square,word_single,单词,0.18345028784879092,,,,,,,,,,0,1,1,1,0,0,0,0,0,5,5,5,,,,,,,,,,,,,,,,,,,,,,,,,,,,,,,,,,,205.60269690002315,205.80287960002897,205.78599180001765,206.08627200004412,206.08627200004412,None,206.5873168000253,None,d,1,0.7055458000395447,206.5873168000253,None,None,None,207.33889330003876,None,,,,,,,,,,,,,,,,,,,,,11022,2,1,2024_Jun_01_2058,stroop_task_switching2,2021.2.3,59.561389920021334,
condition/block_word,instruction/instr_word,instruction/i9,蓝,white,f,square,word_single,单词,0.19920386223101294,,,,,,,,,,0,1,1,1,0,0,0,0,0,6,6,6,,,,,,,,,,,,,,,,,,,,,,,,,,,,,,,,,,,208.3400189000531,208.539454200014,208.5236347000464,208.8239080000203,208.8073565000086,None,209.30819570005406,None,f,1,0.672632200003136,209.30819570005406,None,None,None,210.00811560003785,None,,,,,,,,,,,,,,,,,,,,,11022,2,1,2024_Jun_01_2058,stroop_task_switching2,2021.2.3,59.561389920021334,
condition/block_word,instruction/instr_word,instruction/i9,蓝,white,f,square,word_single,单词,0.26360599864925405,,,,,,,,,,0,1,1,1,0,0,0,0,0,7,7,7,,,,,,,,,,,,,,,,,,,,,,,,,,,,,,,,,,,211.01049210003112,211.21070990001317,211.19452250003815,211.4948490000097,211.4948490000097,None,211.9955486000399,None,f,1,0.6023080000304617,211.9955486000399,None,None,None,212.61224960000254,None,,,,,,,,,,,,,,,,,,,,,11022,2,1,2024_Jun_01_2058,stroop_task_switching2,2021.2.3,59.561389920021334,
condition/block_word,instruction/instr_word,instruction/i9,蓝,white,f,square,word_single,单词,0.358985675745526,,,,,,,,,,0,1,1,1,0,0,0,0,0,8,8,8,,,,,,,,,,,,,,,,,,,,,,,,,,,,,,,,,,,213.61451080004917,213.81467089999933,213.79815790004795,214.09834430000046,214.09834430000046,None,214.59944660001202,None,f,1,0.6934341000160202,214.59944660001202,None,None,None,215.31626700004563,None,,,,,,,,,,,,,,,,,,,,,11022,2,1,2024_Jun_01_2058,stroop_task_switching2,2021.2.3,59.561389920021334,
condition/block_word,instruction/instr_word,instruction/i9,绿,white,k,square,word_single,单词,0.36496733802487347,,,,,,,,,,0,1,1,1,0,0,0,0,0,9,9,9,,,,,,,,,,,,,,,,,,,,,,,,,,,,,,,,,,,216.31839230004698,216.5194945000112,216.50176230003126,216.80266260000644,216.80266260000644,None,217.30362290004268,None,k,1,0.7500710999593139,217.30362290004268,None,None,None,218.07048110000324,None,,,,,,,,,,,,,,,,,,,,,11022,2,1,2024_Jun_01_2058,stroop_task_switching2,2021.2.3,59.561389920021334,
condition/block_word,instruction/instr_word,instruction/i9,黄,white,j,square,word_single,单词,0.3743513623756727,,,,,,,,,,0,1,1,1,0,0,0,0,0,10,10,10,,,,,,,,,,,,,,,,,,,,,,,,,,,,,,,,,,,219.072449600033,219.2730243000551,219.25679640000453,219.55714889999945,219.55714889999945,None,220.05674340005498,None,j,1,1.1243934000376612,220.05674340005498,None,None,None,221.22594580001896,None,,,,,,,,,,,,,,,,,,,,,11022,2,1,2024_Jun_01_2058,stroop_task_switching2,2021.2.3,59.561389920021334,
condition/block_word,instruction/instr_word,instruction/i9,红,white,d,square,word_single,单词,0.3894803852598544,,,,,,,,,,0,1,1,1,0,0,0,0,0,11,11,11,,,,,,,,,,,,,,,,,,,,,,,,,,,,,,,,,,,222.2274008000386,222.42793300002813,222.41126430005534,222.71233520004898,222.71233520004898,None,223.212418500043,None,d,1,0.6491531999781728,223.212418500043,None,None,None,223.87919380003586,None,,,,,,,,,,,,,,,,,,,,,11022,2,1,2024_Jun_01_2058,stroop_task_switching2,2021.2.3,59.561389920021334,
condition/block_word,instruction/instr_word,instruction/i9,绿,white,k,square,word_single,单词,0.5393759672408067,,,,,,,,,,0,1,1,1,0,0,0,0,0,12,12,12,,,,,,,,,,,,,,,,,,,,,,,,,,,,,,,,,,,224.88193740003044,225.08241590001853,225.06521940004313,225.36572990001878,225.36572990001878,None,225.866461000056,None,k,1,0.7867225999943912,225.866461000056,None,None,None,226.70047610002803,None,,,,,,,,,,,,,,,,,,,,,11022,2,1,2024_Jun_01_2058,stroop_task_switching2,2021.2.3,59.561389920021334,
condition/block_word,instruction/instr_word,instruction/i9,蓝,white,f,square,word_single,单词,0.5995731954831104,,,,,,,,,,0,1,1,1,0,0,0,0,0,13,13,13,,,,,,,,,,,,,,,,,,,,,,,,,,,,,,,,,,,227.70167290000245,227.90248119999887,227.88576470001135,228.1869057000149,228.170300400001,None,228.67071270005545,None,f,1,0.7749516000039876,228.67071270005545,None,None,None,229.47098390001338,None,,,,,,,,,,,,,,,,,,,,,11022,2,1,2024_Jun_01_2058,stroop_task_switching2,2021.2.3,59.561389920021334,
condition/block_word,instruction/instr_word,instruction/i9,红,white,d,square,word_single,单词,0.6298674479151414,,,,,,,,,,0,1,1,1,0,0,0,0,0,14,14,14,,,,,,,,,,,,,,,,,,,,,,,,,,,,,,,,,,,230.47352390002925,230.6735922000371,230.65682780003408,230.95740480005043,230.95740480005043,None,231.45829270000104,None,d,1,0.9476503999903798,231.45829270000104,None,None,None,232.42534340004204,None,,,,,,,,,,,,,,,,,,,,,11022,2,1,2024_Jun_01_2058,stroop_task_switching2,2021.2.3,59.561389920021334,
condition/block_word,instruction/instr_word,instruction/i9,红,white,d,square,word_single,单词,0.7389942282348904,,,,,,,,,,0,1,1,1,0,0,0,0,0,15,15,15,,,,,,,,,,,,,,,,,,,,,,,,,,,,,,,,,,,233.42791490000673,233.62829550000606,233.61145460000262,233.91191000002436,233.91191000002436,None,234.41281730000628,None,d,1,0.8570984000107273,234.41281730000628,None,None,None,235.29626680002548,None,,,,,,,,,,,,,,,,,,,,,11022,2,1,2024_Jun_01_2058,stroop_task_switching2,2021.2.3,59.561389920021334,
condition/block_word,instruction/instr_word,instruction/i9,绿,white,k,square,word_single,单词,0.7550853947239682,,,,,,,,,,0,1,1,1,0,0,0,0,0,16,16,16,,,,,,,,,,,,,,,,,,,,,,,,,,,,,,,,,,,236.2986157000414,236.49917840003036,236.48219130001962,236.78304600005504,236.78304600005504,None,237.28370930004166,None,k,1,0.8743770000291988,237.28370930004166,None,None,None,238.1840323000215,None,,,,,,,,,,,,,,,,,,,,,11022,2,1,2024_Jun_01_2058,stroop_task_switching2,2021.2.3,59.561389920021334,
condition/block_word,instruction/instr_word,instruction/i9,绿,white,k,square,word_single,单词,0.8019302780428206,,,,,,,,,,0,1,1,1,0,0,0,0,0,17,17,17,,,,,,,,,,,,,,,,,,,,,,,,,,,,,,,,,,,239.18713450001087,239.38658950000536,239.3703427000437,239.67060170002514,239.67060170002514,None,240.17131370003335,None,k,1,1.2183773000142537,240.17131370003335,None,None,None,241.4055274000275,None,,,,,,,,,,,,,,,,,,,,,11022,2,1,2024_Jun_01_2058,stroop_task_switching2,2021.2.3,59.561389920021334,
condition/block_word,instruction/instr_word,instruction/i9,绿,white,k,square,word_single,单词,0.8110702914095343,,,,,,,,,,0,1,1,1,0,0,0,0,0,18,18,18,,,,,,,,,,,,,,,,,,,,,,,,,,,,,,,,,,,242.40765610005474,242.60822410002584,242.59129010001197,242.89241190004395,242.89241190004395,None,243.39309409999987,None,k,1,0.7571484000072815,243.39309409999987,None,None,None,244.1763957000221,None,,,,,,,,,,,,,,,,,,,,,11022,2,1,2024_Jun_01_2058,stroop_task_switching2,2021.2.3,59.561389920021334,
condition/block_word,instruction/instr_word,instruction/i9,黄,white,j,square,word_single,单词,0.8176594937590999,,,,,,,,,,0,1,1,1,0,0,0,0,0,19,19,19,,,,,,,,,,,,,,,,,,,,,,,,,,,,,,,,,,,245.17788370000198,245.37868080002954,245.36227000004146,245.66256590001285,245.66256590001285,None,246.1637769000372,None,j,1,0.4827625000034459,246.1637769000372,None,None,None,246.66377000004286,None,,,,,,,,,,,,,,,,,,,,,11022,2,1,2024_Jun_01_2058,stroop_task_switching2,2021.2.3,59.561389920021334,
condition/block_word,instruction/instr_word,instruction/i9,红,white,d,square,word_single,单词,0.8955794421104841,,,,,,,,,,0,1,1,1,0,0,0,0,0,20,20,20,,,,,,,,,,,,,,,,,,,,,,,,,,,,,,,,,,,247.66596970002865,247.8663179000141,247.84944050002377,248.15002500003902,248.15002500003902,None,248.65073770005256,None,d,1,0.5551999000017531,248.65073770005256,None,None,None,249.23511000000872,None,,,,,,,,,,,,,,,,,,,,,11022,2,1,2024_Jun_01_2058,stroop_task_switching2,2021.2.3,59.561389920021334,
condition/block_word,instruction/instr_word,instruction/i9,绿,white,k,square,word_single,单词,0.9113598052474129,,,,,,,,,,0,1,1,1,0,0,0,0,0,21,21,21,,,,,,,,,,,,,,,,,,,,,,,,,,,,,,,,,,,250.23669200000586,250.43673980003223,250.42012580001028,250.72077280003577,250.72077280003577,None,251.22125310002593,None,k,1,0.7366005000076257,251.22125310002593,None,None,None,251.9890732000349,None,,,,,,,,,,,,,,,,,,,,,11022,2,1,2024_Jun_01_2058,stroop_task_switching2,2021.2.3,59.561389920021334,
condition/block_word,instruction/instr_word,instruction/i9,黄,white,j,square,word_single,单词,0.9215930958042953,,,,,,,,,,0,1,1,1,0,0,0,0,0,22,22,22,,,,,,,,,,,,,,,,,,,,,,,,,,,,,,,,,,,252.9905071000103,253.19095700001344,253.17391500005033,253.4744896000484,253.4744896000484,None,253.97549200005597,None,j,1,0.46267829998396337,253.97549200005597,None,None,None,254.45866790000582,None,,,,,,,,,,,,,,,,,,,,,11022,2,1,2024_Jun_01_2058,stroop_task_switching2,2021.2.3,59.561389920021334,
condition/block_word,instruction/instr_word,instruction/i9,黄,white,j,square,word_single,单词,0.9493525498837774,,,,,,,,,,0,1,1,1,0,0,0,0,0,23,23,23,,,,,,,,,,,,,,,,,,,,,,,,,,,,,,,,,,,255.46123280003667,255.66140840004664,255.6445719000185,255.94513640005607,255.94513640005607,None,256.4453630000353,None,j,1,1.128735299978871,256.4453630000353,None,None,None,257.59674590005307,None,,,,,,,,,,,,,,,,,,,,,11022,2,1,2024_Jun_01_2058,stroop_task_switching2,2021.2.3,59.561389920021334,
condition/block_word,instruction/instr_word,instruction/i9,,,,,,,,,,,,,,,,,0,1,1,1,0,0,0,0,,,,,,,,,,,,,,,,,,,,,,,,,,,,,,,,,,,,,,,,,,,,,,,,,,,,,,,,258.6164576000301,None,space,6.229900999984238,258.6164576000301,None,,,,,,,,,,,,,,,11022,2,1,2024_Jun_01_2058,stroop_task_switching2,2021.2.3,59.561389920021334,
condition/block_word,instruction/instr_word,instruction/i9,,,,,,,,,,,,,,,,,0,1,1,1,,,,,,,,,,,,,,,,,,,,,,,,,,,,,,,,,,,,,,,,,,,,,,,,,,,,,,,,,,,,,,,,,,,,,,,,,,,,,,,,11022,2,1,2024_Jun_01_2058,stroop_task_switching2,2021.2.3,59.561389920021334,
condition/block_mixed,instruction/instr_mixed,instruction/i10,蓝,red,d,diamond,color_mix,颜色,,incompatible,0,,,,,,,,0,2,2,2,0,0,0,0,0,0,0,0,,,,,,,,,,,,,,,,,,,,,264.9077204000205,None,space,9.675381799985189,264.9077204000205,None,275.6083290000097,276.60933940001996,276.60933940001996,277.61085400002776,277.61085400002776,None,274.623052800016,275.62485520000337,278.6466349000111,278.8466094000032,278.82973260001745,279.1297433000291,279.1297433000291,None,279.61461430002237,282.61852060002275,None,0,,279.61461430002237,282.61852060002275,282.6021377000143,None,283.20174670004053,None,,,,,,,,,,,,,,,,,,,,,11022,2,1,2024_Jun_01_2058,stroop_task_switching2,2021.2.3,59.561389920021334,
condition/block_mixed,instruction/instr_mixed,instruction/i10,绿,yellow,j,diamond,color_mix,颜色,,incompatible,1,,,,,,,,0,2,2,2,0,0,0,0,0,1,1,1,,,,,,,,,,,,,,,,,,,,,,,,,,,,,,,,,,,284.20453060005093,284.40463650005404,284.38852220005356,284.68858940002974,284.68858940002974,None,285.18915730004665,None,k,0,1.050103300018236,285.18915730004665,None,None,None,286.25664940004935,None,,,,,,,,,,,,,,,,,,,,,11022,2,1,2024_Jun_01_2058,stroop_task_switching2,2021.2.3,59.561389920021334,
condition/block_mixed,instruction/instr_mixed,instruction/i10,红,green,k,diamond,color_mix,颜色,,incompatible,1,,,,,,,,0,2,2,2,0,0,0,0,0,2,2,2,,,,,,,,,,,,,,,,,,,,,,,,,,,,,,,,,,,287.25884630001383,287.4594827000401,287.4427605000092,287.74303620000137,287.74303620000137,None,288.2443862000364,None,d,0,1.035400099994149,288.2443862000364,None,None,None,289.29440140002407,None,,,,,,,,,,,,,,,,,,,,,11022,2,1,2024_Jun_01_2058,stroop_task_switching2,2021.2.3,59.561389920021334,
condition/block_mixed,instruction/instr_mixed,instruction/i10,蓝,red,d,diamond,color_mix,颜色,,incompatible,1,,,,,,,,0,2,2,2,0,0,0,0,0,3,3,3,,,,,,,,,,,,,,,,,,,,,,,,,,,,,,,,,,,290.29696230002446,290.4973845000495,290.4806000000099,290.78096430003643,290.78096430003643,None,291.28154840000207,None,d,1,1.1025191000080667,291.28154840000207,None,None,None,292.3989945000503,None,,,,,,,,,,,,,,,,,,,,,11022,2,1,2024_Jun_01_2058,stroop_task_switching2,2021.2.3,59.561389920021334,
condition/block_mixed,instruction/instr_mixed,instruction/i10,红,blue,f,diamond,color_mix,颜色,,incompatible,1,,,,,,,,0,2,2,2,0,0,0,0,0,4,4,4,,,,,,,,,,,,,,,,,,,,,,,,,,,,,,,,,,,293.4010072000092,293.60191010002745,293.5848444000003,293.88585860002786,293.88585860002786,None,294.3863589000539,None,f,1,0.8852567999856547,294.3863589000539,None,None,None,295.28689630003646,None,,,,,,,,,,,,,,,,,,,,,11022,2,1,2024_Jun_01_2058,stroop_task_switching2,2021.2.3,59.561389920021334,
condition/block_mixed,instruction/instr_mixed,instruction/i10,红,blue,d,square,color_mix,单词,,incompatible,2,,,,,,,,0,2,2,2,0,0,0,0,0,5,5,5,,,,,,,,,,,,,,,,,,,,,,,,,,,,,,,,,,,296.2891018000082,296.48965630005114,296.4726542000426,296.77327020000666,296.77327020000666,None,297.27416960004484,None,f,0,1.477026000036858,297.27416960004484,None,None,None,298.775458100019,None,,,,,,,,,,,,,,,,,,,,,11022,2,1,2024_Jun_01_2058,stroop_task_switching2,2021.2.3,59.561389920021334,
condition/block_mixed,instruction/instr_mixed,instruction/i10,红,yellow,j,diamond,color_mix,颜色,,incompatible,2,,,,,,,,0,2,2,2,0,0,0,0,0,6,6,6,,,,,,,,,,,,,,,,,,,,,,,,,,,,,,,,,,,299.7770703000133,299.97822680004174,299.9619386000559,300.26202570000896,300.26202570000896,None,300.76282630005153,None,k,0,1.4846546000335366,300.76282630005153,None,None,None,302.2640175000415,None,,,,,,,,,,,,,,,,,,,,,11022,2,1,2024_Jun_01_2058,stroop_task_switching2,2021.2.3,59.561389920021334,
condition/block_mixed,instruction/instr_mixed,instruction/i10,红,yellow,d,square,color_mix,单词,,incompatible,2,,,,,,,,0,2,2,2,0,0,0,0,0,7,7,7,,,,,,,,,,,,,,,,,,,,,,,,,,,,,,,,,,,303.2668441000278,303.46688710001763,303.44990270002745,303.75050880003255,303.75050880003255,None,304.2514419000363,None,d,1,0.8038625000044703,304.2514419000363,None,None,None,305.1021240000264,None,,,,,,,,,,,,,,,,,,,,,11022,2,1,2024_Jun_01_2058,stroop_task_switching2,2021.2.3,59.561389920021334,
condition/block_mixed,instruction/instr_mixed,instruction/i10,绿,blue,k,square,color_mix,单词,,incompatible,1,,,,,,,,0,2,2,2,0,0,0,0,0,8,8,8,,,,,,,,,,,,,,,,,,,,,,,,,,,,,,,,,,,306.10415480000665,306.30405530001735,306.2877024000045,306.589538900007,306.589538900007,None,307.08888640004443,None,k,1,1.1105990000069141,307.08888640004443,None,None,None,308.22294510004576,None,,,,,,,,,,,,,,,,,,,,,11022,2,1,2024_Jun_01_2058,stroop_task_switching2,2021.2.3,59.561389920021334,
condition/block_mixed,instruction/instr_mixed,instruction/i10,蓝,green,k,diamond,color_mix,颜色,,incompatible,2,,,,,,,,0,2,2,2,0,0,0,0,0,9,9,9,,,,,,,,,,,,,,,,,,,,,,,,,,,,,,,,,,,309.22550310002407,309.42580440000165,309.409169999999,309.7094861000078,309.7094861000078,None,310.2099613000173,None,d,0,1.3100228999974206,310.2099613000173,None,None,None,311.54465500003425,None,,,,,,,,,,,,,,,,,,,,,11022,2,1,2024_Jun_01_2058,stroop_task_switching2,2021.2.3,59.561389920021334,
condition/block_mixed,instruction/instr_mixed,instruction/i10,蓝,yellow,f,square,color_mix,单词,,incompatible,2,,,,,,,,0,2,2,2,0,0,0,0,0,10,10,10,,,,,,,,,,,,,,,,,,,,,,,,,,,,,,,,,,,312.54740420001326,312.747392600053,312.73116540000774,313.0312544000335,313.0312544000335,None,313.5315061000292,None,f,1,1.2763044000021182,313.5315061000292,None,None,None,314.8330183000071,None,,,,,,,,,,,,,,,,,,,,,11022,2,1,2024_Jun_01_2058,stroop_task_switching2,2021.2.3,59.561389920021334,
condition/block_mixed,instruction/instr_mixed,instruction/i10,蓝,green,f,square,color_mix,单词,,incompatible,1,,,,,,,,0,2,2,2,0,0,0,0,0,11,11,11,,,,,,,,,,,,,,,,,,,,,,,,,,,,,,,,,,,315.8352175000473,316.0363658000133,316.0193486000062,316.31913180003176,316.31913180003176,None,316.8200887000421,None,f,1,0.8275683999527246,316.8200887000421,None,None,None,317.67055820004316,None,,,,,,,,,,,,,,,,,,,,,11022,2,1,2024_Jun_01_2058,stroop_task_switching2,2021.2.3,59.561389920021334,
condition/block_mixed,instruction/instr_mixed,instruction/i10,绿,yellow,k,square,color_mix,单词,,incompatible,1,,,,,,,,0,2,2,2,0,0,0,0,0,12,12,12,,,,,,,,,,,,,,,,,,,,,,,,,,,,,,,,,,,318.6724519000272,318.8732189000002,318.85668620001525,319.157122900011,319.157122900011,None,319.6584349000477,None,f,0,0.7894088999601081,319.6584349000477,None,None,None,320.47484260000056,None,,,,,,,,,,,,,,,,,,,,,11022,2,1,2024_Jun_01_2058,stroop_task_switching2,2021.2.3,59.561389920021334,
condition/block_mixed,instruction/instr_mixed,instruction/i10,绿,blue,f,diamond,color_mix,颜色,,incompatible,2,,,,,,,,0,2,2,2,0,0,0,0,0,13,13,13,,,,,,,,,,,,,,,,,,,,,,,,,,,,,,,,,,,321.4774342000019,321.6777135000448,321.66099100001156,321.9613078000257,321.9613078000257,None,322.4617135000299,None,f,1,1.0261422999901697,322.4617135000299,None,None,None,323.5125480000279,None,,,,,,,,,,,,,,,,,,,,,11022,2,1,2024_Jun_01_2058,stroop_task_switching2,2021.2.3,59.561389920021334,
condition/block_mixed,instruction/instr_mixed,instruction/i10,黄,red,j,square,color_mix,单词,,incompatible,2,,,,,,,,0,2,2,2,0,0,0,0,0,14,14,14,,,,,,,,,,,,,,,,,,,,,,,,,,,,,,,,,,,324.51489730004687,324.7154732000199,324.69884240004467,324.9991477000294,324.9991477000294,None,325.4999094000086,None,d,0,1.5086272000335157,325.4999094000086,None,None,None,327.03453850001097,None,,,,,,,,,,,,,,,,,,,,,11022,2,1,2024_Jun_01_2058,stroop_task_switching2,2021.2.3,59.561389920021334,
condition/block_mixed,instruction/instr_mixed,instruction/i10,蓝,yellow,j,diamond,color_mix,颜色,,incompatible,2,,,,,,,,0,2,2,2,0,0,0,0,0,15,15,15,,,,,,,,,,,,,,,,,,,,,,,,,,,,,,,,,,,328.0372162000276,328.2373529000324,328.2205613000551,328.5211636000313,328.5211636000313,None,329.02222959999926,None,j,1,1.3938080999650992,329.02222959999926,None,None,None,330.4398586000316,None,,,,,,,,,,,,,,,,,,,,,11022,2,1,2024_Jun_01_2058,stroop_task_switching2,2021.2.3,59.561389920021334,
condition/block_mixed,instruction/instr_mixed,instruction/i10,黄,red,d,diamond,color_mix,颜色,,incompatible,1,,,,,,,,0,2,2,2,0,0,0,0,0,16,16,16,,,,,,,,,,,,,,,,,,,,,,,,,,,,,,,,,,,331.4423266000231,331.6427543000318,331.6258719000034,331.9264619000023,331.9264619000023,None,332.4269736999995,None,d,1,0.7496095999958925,332.4269736999995,None,None,None,333.19409200001974,None,,,,,,,,,,,,,,,,,,,,,11022,2,1,2024_Jun_01_2058,stroop_task_switching2,2021.2.3,59.561389920021334,
condition/block_mixed,instruction/instr_mixed,instruction/i10,绿,red,k,square,color_mix,单词,,incompatible,2,,,,,,,,0,2,2,2,0,0,0,0,0,17,17,17,,,,,,,,,,,,,,,,,,,,,,,,,,,,,,,,,,,334.19630800001323,334.3965667000157,334.38000620005187,334.68027599999914,334.68027599999914,None,335.18129180005053,None,d,0,1.907089399988763,335.18129180005053,None,None,None,337.1345708000008,None,,,,,,,,,,,,,,,,,,,,,11022,2,1,2024_Jun_01_2058,stroop_task_switching2,2021.2.3,59.561389920021334,
condition/block_mixed,instruction/instr_mixed,instruction/i10,红,green,d,square,color_mix,单词,,incompatible,1,,,,,,,,0,2,2,2,0,0,0,0,0,18,18,18,,,,,,,,,,,,,,,,,,,,,,,,,,,,,,,,,,,338.13579510001,338.33596790005686,338.3191855000332,338.61963100003777,338.61963100003777,None,339.12041780003347,None,d,1,1.768471400020644,339.12041780003347,None,None,None,340.90543180005625,None,,,,,,,,,,,,,,,,,,,,,11022,2,1,2024_Jun_01_2058,stroop_task_switching2,2021.2.3,59.561389920021334,
condition/block_mixed,instruction/instr_mixed,instruction/i10,黄,blue,f,diamond,color_mix,颜色,,incompatible,2,,,,,,,,0,2,2,2,0,0,0,0,0,19,19,19,,,,,,,,,,,,,,,,,,,,,,,,,,,,,,,,,,,341.90801390004344,342.10837490000995,342.0917612000485,342.39225540001644,342.39225540001644,None,342.89290680002887,None,f,1,1.5477288999827579,342.89290680002887,None,None,None,344.46276240004227,None,,,,,,,,,,,,,,,,,,,,,11022,2,1,2024_Jun_01_2058,stroop_task_switching2,2021.2.3,59.561389920021334,
condition/block_mixed,instruction/instr_mixed,instruction/i10,黄,green,k,diamond,color_mix,颜色,,incompatible,1,,,,,,,,0,2,2,2,0,0,0,0,0,20,20,20,,,,,,,,,,,,,,,,,,,,,,,,,,,,,,,,,,,345.4634454000043,345.6638390000444,345.6469516000361,345.9473710000166,345.9473710000166,None,346.44837570004165,None,f,0,0.8645463999710046,346.44837570004165,None,None,None,347.3321937000146,None,,,,,,,,,,,,,,,,,,,,,11022,2,1,2024_Jun_01_2058,stroop_task_switching2,2021.2.3,59.561389920021334,
condition/block_mixed,instruction/instr_mixed,instruction/i10,黄,green,j,square,color_mix,单词,,incompatible,2,,,,,,,,0,2,2,2,0,0,0,0,0,21,21,21,,,,,,,,,,,,,,,,,,,,,,,,,,,,,,,,,,,348.33375710004475,348.5346186000388,348.51800030004233,348.81851710000774,348.81851710000774,None,349.3192774000345,None,j,1,0.9456847000401467,349.3192774000345,None,None,None,350.30460250005126,None,,,,,,,,,,,,,,,,,,,,,11022,2,1,2024_Jun_01_2058,stroop_task_switching2,2021.2.3,59.561389920021334,
condition/block_mixed,instruction/instr_mixed,instruction/i10,黄,blue,j,square,color_mix,单词,,incompatible,1,,,,,,,,0,2,2,2,0,0,0,0,0,22,22,22,,,,,,,,,,,,,,,,,,,,,,,,,,,,,,,,,,,351.3056039000512,351.5059700999991,351.4892230000114,351.790054400044,351.790054400044,None,352.29039720003493,None,j,1,1.3667929000221193,352.29039720003493,None,None,None,353.6748853000463,None,,,,,,,,,,,,,,,,,,,,,11022,2,1,2024_Jun_01_2058,stroop_task_switching2,2021.2.3,59.561389920021334,
condition/block_mixed,instruction/instr_mixed,instruction/i10,蓝,red,f,square,color_mix,单词,,incompatible,1,,,,,,,,0,2,2,2,0,0,0,0,0,23,23,23,,,,,,,,,,,,,,,,,,,,,,,,,,,,,,,,,,,354.6775093000033,354.8777260000352,354.86102090001805,355.1614212000277,355.1614212000277,None,355.6620727000409,None,d,0,0.8354011999908835,355.6620727000409,None,None,None,356.5123071000562,None,,,,,,,,,,,,,,,,,,,,,11022,2,1,2024_Jun_01_2058,stroop_task_switching2,2021.2.3,59.561389920021334,
condition/block_mixed,instruction/instr_mixed,instruction/i10,绿,red,d,diamond,color_mix,颜色,,incompatible,2,,,,,,,,0,2,2,2,0,0,0,0,0,24,24,24,,,,,,,,,,,,,,,,,,,,,,,,,,,,,,,,,,,357.51487920002546,357.71502960001817,357.69854930002475,357.998919500038,357.998919500038,None,358.4992926000268,None,d,1,1.2863087999867275,358.4992926000268,None,None,None,359.8009526000242,None,,,,,,,,,,,,,,,,,,,,,11022,2,1,2024_Jun_01_2058,stroop_task_switching2,2021.2.3,59.561389920021334,
condition/block_mixed,instruction/instr_mixed,instruction/i10,绿,green,k,diamond,color_mix,颜色,,compatible,1,,,,,,,,0,2,2,2,0,0,0,0,0,25,25,25,,,,,,,,,,,,,,,,,,,,,,,,,,,,,,,,,,,360.80383280001115,361.00352190004196,360.9873219000292,361.2872276000562,361.2872276000562,None,361.7869065000559,None,j,0,1.5106751000275835,361.7869065000559,None,None,None,363.3226201000507,None,,,,,,,,,,,,,,,,,,,,,11022,2,1,2024_Jun_01_2058,stroop_task_switching2,2021.2.3,59.561389920021334,
condition/block_mixed,instruction/instr_mixed,instruction/i10,蓝,blue,f,diamond,color_mix,颜色,,compatible,1,,,,,,,,0,2,2,2,0,0,0,0,0,26,26,26,,,,,,,,,,,,,,,,,,,,,,,,,,,,,,,,,,,364.32501210004557,364.5246569000301,364.5088125000475,364.80941330001224,364.80941330001224,None,365.30932480003685,None,f,1,1.0597757999785244,365.30932480003685,None,None,None,366.3943853000528,None,,,,,,,,,,,,,,,,,,,,,11022,2,1,2024_Jun_01_2058,stroop_task_switching2,2021.2.3,59.561389920021334,
condition/block_mixed,instruction/instr_mixed,instruction/i10,绿,green,k,square,color_mix,单词,,compatible,2,,,,,,,,0,2,2,2,0,0,0,0,0,27,27,27,,,,,,,,,,,,,,,,,,,,,,,,,,,,,,,,,,,367.39662910002517,367.597372200049,367.5798238000134,367.88053150003543,367.88053150003543,None,368.38102980004624,None,k,1,1.0121056000352837,368.38102980004624,None,None,None,369.41520050005056,None,,,,,,,,,,,,,,,,,,,,,11022,2,1,2024_Jun_01_2058,stroop_task_switching2,2021.2.3,59.561389920021334,
condition/block_mixed,instruction/instr_mixed,instruction/i10,绿,green,k,square,color_mix,单词,,compatible,1,,,,,,,,0,2,2,2,0,0,0,0,0,28,28,28,,,,,,,,,,,,,,,,,,,,,,,,,,,,,,,,,,,370.4179198000347,370.61725980002666,370.60057090001646,370.90234900004,370.90234900004,None,371.40304270002525,None,k,1,1.2546036999556236,371.40304270002525,None,None,None,372.6878504000488,None,,,,,,,,,,,,,,,,,,,,,11022,2,1,2024_Jun_01_2058,stroop_task_switching2,2021.2.3,59.561389920021334,
condition/block_mixed,instruction/instr_mixed,instruction/i10,蓝,blue,f,square,color_mix,单词,,compatible,1,,,,,,,,0,2,2,2,0,0,0,0,0,29,29,29,,,,,,,,,,,,,,,,,,,,,,,,,,,,,,,,,,,373.6893877000548,373.88972990005277,373.87291970005026,374.1731167000253,374.1731167000253,None,374.6742146000033,None,f,1,0.9430568999960087,374.6742146000033,None,None,None,375.6420917000505,None,,,,,,,,,,,,,,,,,,,,,11022,2,1,2024_Jun_01_2058,stroop_task_switching2,2021.2.3,59.561389920021334,
condition/block_mixed,instruction/instr_mixed,instruction/i10,黄,yellow,j,diamond,color_mix,颜色,,compatible,2,,,,,,,,0,2,2,2,0,0,0,0,0,30,30,30,,,,,,,,,,,,,,,,,,,,,,,,,,,,,,,,,,,376.64388170000166,376.84404480003286,376.8273853000137,377.12833560002036,377.12833560002036,None,377.6285674000392,None,j,1,1.1887265000259504,377.6285674000392,None,None,None,378.84727550001116,None,,,,,,,,,,,,,,,,,,,,,11022,2,1,2024_Jun_01_2058,stroop_task_switching2,2021.2.3,59.561389920021334,
condition/block_mixed,instruction/instr_mixed,instruction/i10,绿,green,k,square,color_mix,单词,,compatible,2,,,,,,,,0,2,2,2,0,0,0,0,0,31,31,31,,,,,,,,,,,,,,,,,,,,,,,,,,,,,,,,,,,379.84882920002565,380.0488656000234,380.03231040004175,380.33304870000575,380.33304870000575,None,380.8332573000225,None,k,1,0.9441033999901265,380.8332573000225,None,None,None,381.80158350005513,None,,,,,,,,,,,,,,,,,,,,,11022,2,1,2024_Jun_01_2058,stroop_task_switching2,2021.2.3,59.561389920021334,
condition/block_mixed,instruction/instr_mixed,instruction/i10,黄,yellow,j,square,color_mix,单词,,compatible,1,,,,,,,,0,2,2,2,0,0,0,0,0,32,32,32,,,,,,,,,,,,,,,,,,,,,,,,,,,,,,,,,,,382.8030215000035,383.0029451000155,382.9863605000428,383.2866680000443,383.2866680000443,None,383.78796169999987,None,j,1,1.2295569999841973,383.78796169999987,None,None,None,385.03906780004036,None,,,,,,,,,,,,,,,,,,,,,11022,2,1,2024_Jun_01_2058,stroop_task_switching2,2021.2.3,59.561389920021334,
condition/block_mixed,instruction/instr_mixed,instruction/i10,绿,green,k,diamond,color_mix,颜色,,compatible,2,,,,,,,,0,2,2,2,0,0,0,0,0,33,33,33,,,,,,,,,,,,,,,,,,,,,,,,,,,,,,,,,,,386.0413509000209,386.2416809000424,386.22494610003196,386.52537500002654,386.52537500002654,None,387.02651160000823,None,k,1,1.567622600006871,387.02651160000823,None,None,None,388.6107853000285,None,,,,,,,,,,,,,,,,,,,,,11022,2,1,2024_Jun_01_2058,stroop_task_switching2,2021.2.3,59.561389920021334,
condition/block_mixed,instruction/instr_mixed,instruction/i10,红,red,d,square,color_mix,单词,,compatible,2,,,,,,,,0,2,2,2,0,0,0,0,0,34,34,34,,,,,,,,,,,,,,,,,,,,,,,,,,,,,,,,,,,389.6137953000143,389.8130808000569,389.7965299000498,390.0974943000474,390.0974943000474,None,390.5973346000537,None,d,1,1.2770879000308923,390.5973346000537,None,None,None,391.90030300000217,None,,,,,,,,,,,,,,,,,,,,,11022,2,1,2024_Jun_01_2058,stroop_task_switching2,2021.2.3,59.561389920021334,
condition/block_mixed,instruction/instr_mixed,instruction/i10,黄,yellow,j,square,color_mix,单词,,compatible,1,,,,,,,,0,2,2,2,0,0,0,0,0,35,35,35,,,,,,,,,,,,,,,,,,,,,,,,,,,,,,,,,,,392.9019182000193,393.1010386000271,393.08462800004054,393.3858678000397,393.3858678000397,None,393.8865749000106,None,j,1,1.2996657000039704,393.8865749000106,None,None,None,395.20493669999996,None,,,,,,,,,,,,,,,,,,,,,11022,2,1,2024_Jun_01_2058,stroop_task_switching2,2021.2.3,59.561389920021334,
condition/block_mixed,instruction/instr_mixed,instruction/i10,绿,green,k,diamond,color_mix,颜色,,compatible,2,,,,,,,,0,2,2,2,0,0,0,0,0,36,36,36,,,,,,,,,,,,,,,,,,,,,,,,,,,,,,,,,,,396.20705800002906,396.40679680003086,396.3900159000186,396.69077770004515,396.69077770004515,None,397.191334400035,None,k,1,1.2906880000373349,397.191334400035,None,None,None,398.50993990001734,None,,,,,,,,,,,,,,,,,,,,,11022,2,1,2024_Jun_01_2058,stroop_task_switching2,2021.2.3,59.561389920021334,
condition/block_mixed,instruction/instr_mixed,instruction/i10,蓝,blue,f,square,color_mix,单词,,compatible,2,,,,,,,,0,2,2,2,0,0,0,0,0,37,37,37,,,,,,,,,,,,,,,,,,,,,,,,,,,,,,,,,,,399.5113917000126,399.71165970002767,399.6957387000439,399.9965230000089,399.9965230000089,None,400.49608020001324,None,f,1,0.9060023000347428,400.49608020001324,None,None,None,401.4311134000309,None,,,,,,,,,,,,,,,,,,,,,11022,2,1,2024_Jun_01_2058,stroop_task_switching2,2021.2.3,59.561389920021334,
condition/block_mixed,instruction/instr_mixed,instruction/i10,红,red,d,square,color_mix,单词,,compatible,1,,,,,,,,0,2,2,2,0,0,0,0,0,38,38,38,,,,,,,,,,,,,,,,,,,,,,,,,,,,,,,,,,,402.432964000036,402.6330174000468,402.6162607000442,402.9165827000397,402.9165827000397,None,403.4176192000159,None,d,1,0.5207471000030637,403.4176192000159,None,None,None,403.96836200001417,None,,,,,,,,,,,,,,,,,,,,,11022,2,1,2024_Jun_01_2058,stroop_task_switching2,2021.2.3,59.561389920021334,
condition/block_mixed,instruction/instr_mixed,instruction/i10,黄,yellow,j,diamond,color_mix,颜色,,compatible,2,,,,,,,,0,2,2,2,0,0,0,0,0,39,39,39,,,,,,,,,,,,,,,,,,,,,,,,,,,,,,,,,,,404.9696186000365,405.17043770005694,405.15397280000616,405.45390540000517,405.45390540000517,None,405.954591500049,None,j,1,1.4317756000091322,405.954591500049,None,None,None,407.40680250001606,None,,,,,,,,,,,,,,,,,,,,,11022,2,1,2024_Jun_01_2058,stroop_task_switching2,2021.2.3,59.561389920021334,
condition/block_mixed,instruction/instr_mixed,instruction/i10,黄,yellow,j,square,color_mix,单词,,compatible,2,,,,,,,,0,2,2,2,0,0,0,0,0,40,40,40,,,,,,,,,,,,,,,,,,,,,,,,,,,,,,,,,,,408.40840510005364,408.6078283000388,408.5918978000409,408.892337199999,408.892337199999,None,409.3924343000399,None,j,1,0.866161199985072,409.3924343000399,None,None,None,410.276757500018,None,,,,,,,,,,,,,,,,,,,,,11022,2,1,2024_Jun_01_2058,stroop_task_switching2,2021.2.3,59.561389920021334,
condition/block_mixed,instruction/instr_mixed,instruction/i10,蓝,blue,f,square,color_mix,单词,,compatible,1,,,,,,,,0,2,2,2,0,0,0,0,0,41,41,41,,,,,,,,,,,,,,,,,,,,,,,,,,,,,,,,,,,411.2793025000137,411.4791616000002,411.46284060005564,411.7635834000539,411.7635834000539,None,412.2642124000122,None,f,1,0.7061696000164375,412.2642124000122,None,None,None,412.9986301000463,None,,,,,,,,,,,,,,,,,,,,,11022,2,1,2024_Jun_01_2058,stroop_task_switching2,2021.2.3,59.561389920021334,
condition/block_mixed,instruction/instr_mixed,instruction/i10,蓝,blue,f,diamond,color_mix,颜色,,compatible,2,,,,,,,,0,2,2,2,0,0,0,0,0,42,42,42,,,,,,,,,,,,,,,,,,,,,,,,,,,,,,,,,,,414.00063950003823,414.2003500999999,414.18420600000536,414.48465460003354,414.48465460003354,None,414.98469800001476,None,f,1,1.1301061999984086,414.98469800001476,None,None,None,416.13621440000134,None,,,,,,,,,,,,,,,,,,,,,11022,2,1,2024_Jun_01_2058,stroop_task_switching2,2021.2.3,59.561389920021334,
condition/block_mixed,instruction/instr_mixed,instruction/i10,黄,yellow,j,diamond,color_mix,颜色,,compatible,1,,,,,,,,0,2,2,2,0,0,0,0,0,43,43,43,,,,,,,,,,,,,,,,,,,,,,,,,,,,,,,,,,,417.13817060005385,417.33848710003076,417.3215024000383,417.62383300001966,417.62383300001966,None,418.12244310003007,None,j,1,1.2481053000083193,418.12244310003007,None,None,None,419.39071390003664,None,,,,,,,,,,,,,,,,,,,,,11022,2,1,2024_Jun_01_2058,stroop_task_switching2,2021.2.3,59.561389920021334,
condition/block_mixed,instruction/instr_mixed,instruction/i10,红,red,d,diamond,color_mix,颜色,,compatible,1,,,,,,,,0,2,2,2,0,0,0,0,0,44,44,44,,,,,,,,,,,,,,,,,,,,,,,,,,,,,,,,,,,420.39299770002253,420.5938137000194,420.5769643000094,420.87725620000856,420.87725620000856,None,421.3779544000281,None,d,1,0.7209579999907874,421.3779544000281,None,None,None,422.12917910004035,None,,,,,,,,,,,,,,,,,,,,,11022,2,1,2024_Jun_01_2058,stroop_task_switching2,2021.2.3,59.561389920021334,
condition/block_mixed,instruction/instr_mixed,instruction/i10,蓝,blue,f,diamond,color_mix,颜色,,compatible,1,,,,,,,,0,2,2,2,0,0,0,0,0,45,45,45,,,,,,,,,,,,,,,,,,,,,,,,,,,,,,,,,,,423.1306884000078,423.3311117000412,423.31431900005555,423.6145197000005,423.6145197000005,None,424.1150879000197,None,f,1,0.8718007999705151,424.1150879000197,None,None,None,425.0165054000099,None,,,,,,,,,,,,,,,,,,,,,11022,2,1,2024_Jun_01_2058,stroop_task_switching2,2021.2.3,59.561389920021334,
condition/block_mixed,instruction/instr_mixed,instruction/i10,红,red,d,diamond,color_mix,颜色,,compatible,1,,,,,,,,0,2,2,2,0,0,0,0,0,46,46,46,,,,,,,,,,,,,,,,,,,,,,,,,,,,,,,,,,,426.01828660001047,426.2184678000049,426.20168009999907,426.50231700000586,426.50231700000586,None,427.00331830000505,None,d,1,0.6394519000314176,427.00331830000505,None,None,None,427.66947960003745,None,,,,,,,,,,,,,,,,,,,,,11022,2,1,2024_Jun_01_2058,stroop_task_switching2,2021.2.3,59.561389920021334,
condition/block_mixed,instruction/instr_mixed,instruction/i10,红,red,d,square,color_mix,单词,,compatible,2,,,,,,,,0,2,2,2,0,0,0,0,0,47,47,47,,,,,,,,,,,,,,,,,,,,,,,,,,,,,,,,,,,428.67181100003654,428.8725172000122,428.85561400000006,429.1564963000128,429.1564963000128,None,429.6570559000247,None,d,1,0.6185386000433937,429.6570559000247,None,None,None,430.2913398000528,None,,,,,,,,,,,,,,,,,,,,,11022,2,1,2024_Jun_01_2058,stroop_task_switching2,2021.2.3,59.561389920021334,
condition/block_mixed,instruction/instr_mixed,instruction/i10,红,red,d,diamond,color_mix,颜色,,compatible,2,,,,,,,,0,2,2,2,0,0,0,0,0,48,48,48,,,,,,,,,,,,,,,,,,,,,,,,,,,,,,,,,,,431.2928956000251,431.4931557000382,431.476508700056,431.7769337000209,431.7769337000209,None,432.2775792000466,None,d,1,0.5336437000078149,432.2775792000466,None,None,None,432.82868840004085,None,,,,,,,,,,,,,,,,,,,,,11022,2,1,2024_Jun_01_2058,stroop_task_switching2,2021.2.3,59.561389920021334,
condition/block_mixed,instruction/instr_mixed,instruction/i10,,,,,,,,,,,,,,,,,0,2,2,2,0,0,0,0,,,,,,,,,,,,,,,,,,,,,,,,,,,,,,,,,,,,,,,,,,,,,,,,,,,,,,,,433.8473706000368,None,q,14.038052799995057,433.8473706000368,None,,,,,,,,,,,,,,,11022,2,1,2024_Jun_01_2058,stroop_task_switching2,2021.2.3,59.561389920021334,
condition/block_mixed,instruction/instr_mixed,instruction/i10,蓝,red,d,diamond,color_mix,颜色,,incompatible,0,,,,,,,,0,2,2,2,1,0,1,0,0,0,0,0,,,,,,,,,,,,,,,,,,,,,,,,,,,448.8862425000407,449.8875627000234,449.8875627000234,450.8890724000521,450.8890724000521,None,447.91799790004734,448.9200401000562,451.92449140001554,452.12428910000017,452.10751960001653,452.408656100044,452.408656100044,None,452.9088792000548,None,f,0,1.078407299995888,452.9088792000548,None,None,None,454.0093203000142,None,,,,,,,,,,,,,,,,,,,,,11022,2,1,2024_Jun_01_2058,stroop_task_switching2,2021.2.3,59.561389920021334,
condition/block_mixed,instruction/instr_mixed,instruction/i10,绿,yellow,j,diamond,color_mix,颜色,,incompatible,1,,,,,,,,0,2,2,2,1,0,1,0,0,1,1,1,,,,,,,,,,,,,,,,,,,,,,,,,,,,,,,,,,,455.01186270004837,455.2123325000284,455.19562230003066,455.49578190001193,455.49578190001193,None,455.9961007000529,None,j,1,1.279450399975758,455.9961007000529,None,None,None,457.29762650001794,None,,,,,,,,,,,,,,,,,,,,,11022,2,1,2024_Jun_01_2058,stroop_task_switching2,2021.2.3,59.561389920021334,
condition/block_mixed,instruction/instr_mixed,instruction/i10,红,green,k,diamond,color_mix,颜色,,incompatible,1,,,,,,,,0,2,2,2,1,0,1,0,0,2,2,2,,,,,,,,,,,,,,,,,,,,,,,,,,,,,,,,,,,458.30043700005626,458.500493700034,458.48306340002455,458.7840939000016,458.7840939000016,None,459.28514010005165,None,d,0,0.6226731999777257,459.28514010005165,None,None,None,459.9354162000236,None,,,,,,,,,,,,,,,,,,,,,11022,2,1,2024_Jun_01_2058,stroop_task_switching2,2021.2.3,59.561389920021334,
condition/block_mixed,instruction/instr_mixed,instruction/i10,蓝,red,d,diamond,color_mix,颜色,,incompatible,1,,,,,,,,0,2,2,2,1,0,1,0,0,3,3,3,,,,,,,,,,,,,,,,,,,,,,,,,,,,,,,,,,,460.9376997000072,461.1382980000344,461.12011540000094,461.4217699000146,461.4217699000146,None,461.92233260005014,None,d,1,1.5294009000062943,461.92233260005014,None,None,None,463.4738048000145,None,,,,,,,,,,,,,,,,,,,,,11022,2,1,2024_Jun_01_2058,stroop_task_switching2,2021.2.3,59.561389920021334,
condition/block_mixed,instruction/instr_mixed,instruction/i10,红,blue,f,diamond,color_mix,颜色,,incompatible,1,,,,,,,,0,2,2,2,1,0,1,0,0,4,4,4,,,,,,,,,,,,,,,,,,,,,,,,,,,,,,,,,,,464.476083800022,464.6764707000111,464.66049220005516,464.9603285000194,464.9603285000194,None,465.4604591000243,None,f,1,2.095340900006704,465.4604591000243,None,None,None,467.5804491000017,None,,,,,,,,,,,,,,,,,,,,,11022,2,1,2024_Jun_01_2058,stroop_task_switching2,2021.2.3,59.561389920021334,
condition/block_mixed,instruction/instr_mixed,instruction/i10,红,blue,d,square,color_mix,单词,,incompatible,2,,,,,,,,0,2,2,2,1,0,1,0,0,5,5,5,,,,,,,,,,,,,,,,,,,,,,,,,,,,,,,,,,,468.58251160004875,468.78271190001396,468.76620390004246,469.06636470003286,469.06636470003286,None,469.56698750000214,None,d,1,1.0934308000141755,469.56698750000214,None,None,None,470.6852413000306,None,,,,,,,,,,,,,,,,,,,,,11022,2,1,2024_Jun_01_2058,stroop_task_switching2,2021.2.3,59.561389920021334,
condition/block_mixed,instruction/instr_mixed,instruction/i10,红,yellow,j,diamond,color_mix,颜色,,incompatible,2,,,,,,,,0,2,2,2,1,0,1,0,0,6,6,6,,,,,,,,,,,,,,,,,,,,,,,,,,,,,,,,,,,471.68723800004227,471.88747200003127,471.87039790005656,472.171698500053,472.171698500053,None,472.67199390003225,None,j,1,1.2440190000343136,472.67199390003225,None,None,None,473.9405036000535,None,,,,,,,,,,,,,,,,,,,,,11022,2,1,2024_Jun_01_2058,stroop_task_switching2,2021.2.3,59.561389920021334,
condition/block_mixed,instruction/instr_mixed,instruction/i10,红,yellow,d,square,color_mix,单词,,incompatible,2,,,,,,,,0,2,2,2,1,0,1,0,0,7,7,7,,,,,,,,,,,,,,,,,,,,,,,,,,,,,,,,,,,474.9420619000448,475.1422884000349,475.1254324000329,475.4262043000199,475.4262043000199,None,475.926444700046,None,d,1,0.9423007000004873,475.926444700046,None,None,None,476.8949801000417,None,,,,,,,,,,,,,,,,,,,,,11022,2,1,2024_Jun_01_2058,stroop_task_switching2,2021.2.3,59.561389920021334,
condition/block_mixed,instruction/instr_mixed,instruction/i10,绿,blue,k,square,color_mix,单词,,incompatible,1,,,,,,,,0,2,2,2,1,0,1,0,0,8,8,8,,,,,,,,,,,,,,,,,,,,,,,,,,,,,,,,,,,477.8965346000041,478.0965334000066,478.0800091000274,478.3807187000057,478.3807187000057,None,478.88137070002267,None,k,1,1.2987775999936275,478.88137070002267,None,None,None,480.2000221000053,None,,,,,,,,,,,,,,,,,,,,,11022,2,1,2024_Jun_01_2058,stroop_task_switching2,2021.2.3,59.561389920021334,
condition/block_mixed,instruction/instr_mixed,instruction/i10,蓝,green,k,diamond,color_mix,颜色,,incompatible,2,,,,,,,,0,2,2,2,1,0,1,0,0,9,9,9,,,,,,,,,,,,,,,,,,,,,,,,,,,,,,,,,,,481.2015049000038,481.4014317000401,481.3844071000349,481.6856760000228,481.6856760000228,None,482.1861842000508,None,f,0,1.5224942999775521,482.1861842000508,None,None,None,483.73920680000447,None,,,,,,,,,,,,,,,,,,,,,11022,2,1,2024_Jun_01_2058,stroop_task_switching2,2021.2.3,59.561389920021334,
condition/block_mixed,instruction/instr_mixed,instruction/i10,蓝,yellow,f,square,color_mix,单词,,incompatible,2,,,,,,,,0,2,2,2,1,0,1,0,0,10,10,10,,,,,,,,,,,,,,,,,,,,,,,,,,,,,,,,,,,484.7401118000271,484.9405323000392,484.923760100035,485.22487960004946,485.22487960004946,None,485.72508300002664,None,f,1,2.015660499979276,485.72508300002664,None,None,None,487.76095720002195,None,,,,,,,,,,,,,,,,,,,,,11022,2,1,2024_Jun_01_2058,stroop_task_switching2,2021.2.3,59.561389920021334,
condition/block_mixed,instruction/instr_mixed,instruction/i10,蓝,green,f,square,color_mix,单词,,incompatible,1,,,,,,,,0,2,2,2,1,0,1,0,0,11,11,11,,,,,,,,,,,,,,,,,,,,,,,,,,,,,,,,,,,488.7626015000278,488.9629929000512,488.9463422000408,489.2468536000233,489.2468536000233,None,489.7477820000495,None,f,1,1.8891196000040509,489.7477820000495,None,None,None,491.6664065000368,None,,,,,,,,,,,,,,,,,,,,,11022,2,1,2024_Jun_01_2058,stroop_task_switching2,2021.2.3,59.561389920021334,
condition/block_mixed,instruction/instr_mixed,instruction/i10,绿,yellow,k,square,color_mix,单词,,incompatible,1,,,,,,,,0,2,2,2,1,0,1,0,0,12,12,12,,,,,,,,,,,,,,,,,,,,,,,,,,,,,,,,,,,492.6676301000407,492.8691877000383,492.8520499000442,493.1528200000175,493.1528200000175,None,493.65355060005095,None,k,1,1.7033323000068776,493.65355060005095,None,None,None,495.3719550000387,None,,,,,,,,,,,,,,,,,,,,,11022,2,1,2024_Jun_01_2058,stroop_task_switching2,2021.2.3,59.561389920021334,
condition/block_mixed,instruction/instr_mixed,instruction/i10,绿,blue,f,diamond,color_mix,颜色,,incompatible,2,,,,,,,,0,2,2,2,1,0,1,0,0,13,13,13,,,,,,,,,,,,,,,,,,,,,,,,,,,,,,,,,,,496.37494610005524,496.57504680001875,496.55827950005187,496.8585008000373,496.8585008000373,None,497.35891750000883,None,f,1,2.134155399980955,497.35891750000883,None,None,None,499.51227980002295,None,,,,,,,,,,,,,,,,,,,,,11022,2,1,2024_Jun_01_2058,stroop_task_switching2,2021.2.3,59.561389920021334,
condition/block_mixed,instruction/instr_mixed,instruction/i10,黄,red,j,square,color_mix,单词,,incompatible,2,,,,,,,,0,2,2,2,1,0,1,0,0,14,14,14,,,,,,,,,,,,,,,,,,,,,,,,,,,,,,,,,,,500.51386370003456,500.71412180003244,500.6975352000445,500.9978590000537,500.9978590000537,None,501.4989279000438,None,d,0,2.210442600015085,501.4989279000438,None,None,None,503.73444760002894,None,,,,,,,,,,,,,,,,,,,,,11022,2,1,2024_Jun_01_2058,stroop_task_switching2,2021.2.3,59.561389920021334,
condition/block_mixed,instruction/instr_mixed,instruction/i10,蓝,yellow,j,diamond,color_mix,颜色,,incompatible,2,,,,,,,,0,2,2,2,1,0,1,0,0,15,15,15,,,,,,,,,,,,,,,,,,,,,,,,,,,,,,,,,,,504.73712410003645,504.93717490002746,504.92055180005264,505.2209601000068,505.2209601000068,None,505.72142900002655,None,j,1,1.1799378999858163,505.72142900002655,None,None,None,506.9229143000557,None,,,,,,,,,,,,,,,,,,,,,11022,2,1,2024_Jun_01_2058,stroop_task_switching2,2021.2.3,59.561389920021334,
condition/block_mixed,instruction/instr_mixed,instruction/i10,黄,red,d,diamond,color_mix,颜色,,incompatible,1,,,,,,,,0,2,2,2,1,0,1,0,0,16,16,16,,,,,,,,,,,,,,,,,,,,,,,,,,,,,,,,,,,507.9253360000439,508.12585030001355,508.1090206000372,508.4087588000111,508.4087588000111,None,508.90987700002734,None,d,1,1.1596501999883913,508.90987700002734,None,None,None,510.0949994000257,None,,,,,,,,,,,,,,,,,,,,,11022,2,1,2024_Jun_01_2058,stroop_task_switching2,2021.2.3,59.561389920021334,
condition/block_mixed,instruction/instr_mixed,instruction/i10,绿,red,k,square,color_mix,单词,,incompatible,2,,,,,,,,0,2,2,2,1,0,1,0,0,17,17,17,,,,,,,,,,,,,,,,,,,,,,,,,,,,,,,,,,,511.09654260001844,511.2968201000476,511.28016090003075,511.58086630003527,511.58086630003527,None,512.08108860004,None,k,1,0.8523000000277534,512.08108860004,None,None,None,512.9484238000005,None,,,,,,,,,,,,,,,,,,,,,11022,2,1,2024_Jun_01_2058,stroop_task_switching2,2021.2.3,59.561389920021334,
condition/block_mixed,instruction/instr_mixed,instruction/i10,红,green,d,square,color_mix,单词,,incompatible,1,,,,,,,,0,2,2,2,1,0,1,0,0,18,18,18,,,,,,,,,,,,,,,,,,,,,,,,,,,,,,,,,,,513.9512378000072,514.151407700032,514.1340913000167,514.4349114000215,514.4349114000215,None,514.9356091000373,None,d,1,0.9095505999866873,514.9356091000373,None,None,None,515.8700899000396,None,,,,,,,,,,,,,,,,,,,,,11022,2,1,2024_Jun_01_2058,stroop_task_switching2,2021.2.3,59.561389920021334,
condition/block_mixed,instruction/instr_mixed,instruction/i10,黄,blue,f,diamond,color_mix,颜色,,incompatible,2,,,,,,,,0,2,2,2,1,0,1,0,0,19,19,19,,,,,,,,,,,,,,,,,,,,,,,,,,,,,,,,,,,516.8719829000183,517.0723595000454,517.0552859000163,517.3559041000553,517.3559041000553,None,517.8572241000365,None,f,1,1.124515900039114,517.8572241000365,None,None,None,519.0080215000198,None,,,,,,,,,,,,,,,,,,,,,11022,2,1,2024_Jun_01_2058,stroop_task_switching2,2021.2.3,59.561389920021334,
condition/block_mixed,instruction/instr_mixed,instruction/i10,黄,green,k,diamond,color_mix,颜色,,incompatible,1,,,,,,,,0,2,2,2,1,0,1,0,0,20,20,20,,,,,,,,,,,,,,,,,,,,,,,,,,,,,,,,,,,520.0088600000017,520.2091862000525,520.1926316000172,520.4938118000282,520.4938118000282,None,520.9948403000017,None,k,1,2.474582399998326,520.9948403000017,None,None,None,523.4979291000054,None,,,,,,,,,,,,,,,,,,,,,11022,2,1,2024_Jun_01_2058,stroop_task_switching2,2021.2.3,59.561389920021334,
condition/block_mixed,instruction/instr_mixed,instruction/i10,黄,green,j,square,color_mix,单词,,incompatible,2,,,,,,,,0,2,2,2,1,0,1,0,0,21,21,21,,,,,,,,,,,,,,,,,,,,,,,,,,,,,,,,,,,524.5000753000495,524.700432200043,524.6843355000019,524.984454600024,524.984454600024,None,525.4849771000445,None,j,1,2.4487533000065014,525.4849771000445,None,None,None,527.9543640000047,None,,,,,,,,,,,,,,,,,,,,,11022,2,1,2024_Jun_01_2058,stroop_task_switching2,2021.2.3,59.561389920021334,
condition/block_mixed,instruction/instr_mixed,instruction/i10,黄,blue,j,square,color_mix,单词,,incompatible,1,,,,,,,,0,2,2,2,1,0,1,0,0,22,22,22,,,,,,,,,,,,,,,,,,,,,,,,,,,,,,,,,,,528.9570520000416,529.1571744000539,529.1404169000452,529.4408776000491,529.4408776000491,None,529.9419908000273,None,j,1,1.8796363999717869,529.9419908000273,None,None,None,531.8446279000491,None,,,,,,,,,,,,,,,,,,,,,11022,2,1,2024_Jun_01_2058,stroop_task_switching2,2021.2.3,59.561389920021334,
condition/block_mixed,instruction/instr_mixed,instruction/i10,蓝,red,f,square,color_mix,单词,,incompatible,1,,,,,,,,0,2,2,2,1,0,1,0,0,23,23,23,,,,,,,,,,,,,,,,,,,,,,,,,,,,,,,,,,,532.8461033000494,533.0464261000161,533.0296594000538,533.3298375000013,533.3298375000013,None,533.8307457000483,None,f,1,1.8709166000480764,533.8307457000483,None,None,None,535.7158665000461,None,,,,,,,,,,,,,,,,,,,,,11022,2,1,2024_Jun_01_2058,stroop_task_switching2,2021.2.3,59.561389920021334,
condition/block_mixed,instruction/instr_mixed,instruction/i10,绿,red,d,diamond,color_mix,颜色,,incompatible,2,,,,,,,,0,2,2,2,1,0,1,0,0,24,24,24,,,,,,,,,,,,,,,,,,,,,,,,,,,,,,,,,,,536.7182790000224,536.919277900015,536.9023425000487,537.2025285000564,537.2025285000564,None,537.7032389000524,None,d,1,0.8465021000010893,537.7032389000524,None,None,None,538.571762800042,None,,,,,,,,,,,,,,,,,,,,,11022,2,1,2024_Jun_01_2058,stroop_task_switching2,2021.2.3,59.561389920021334,
condition/block_mixed,instruction/instr_mixed,instruction/i10,绿,green,k,diamond,color_mix,颜色,,compatible,1,,,,,,,,0,2,2,2,1,0,1,0,0,25,25,25,,,,,,,,,,,,,,,,,,,,,,,,,,,,,,,,,,,539.5724362000474,539.7728264000034,539.7564279000508,540.0565497000352,540.0565497000352,None,540.5577739000437,None,k,1,1.7925733999582008,540.5577739000437,None,None,None,542.3759820000269,None,,,,,,,,,,,,,,,,,,,,,11022,2,1,2024_Jun_01_2058,stroop_task_switching2,2021.2.3,59.561389920021334,
condition/block_mixed,instruction/instr_mixed,instruction/i10,蓝,blue,f,diamond,color_mix,颜色,,compatible,1,,,,,,,,0,2,2,2,1,0,1,0,0,26,26,26,,,,,,,,,,,,,,,,,,,,,,,,,,,,,,,,,,,543.3785139000393,543.5787145000068,543.562204100017,543.8630368000013,543.8630368000013,None,544.3633591000107,None,f,1,1.306575900001917,544.3633591000107,None,None,None,545.6988517999998,None,,,,,,,,,,,,,,,,,,,,,11022,2,1,2024_Jun_01_2058,stroop_task_switching2,2021.2.3,59.561389920021334,
condition/block_mixed,instruction/instr_mixed,instruction/i10,绿,green,k,square,color_mix,单词,,compatible,2,,,,,,,,0,2,2,2,1,0,1,0,0,27,27,27,,,,,,,,,,,,,,,,,,,,,,,,,,,,,,,,,,,546.7002729000524,546.9007041000295,546.8839076000149,547.1840223000036,547.1840223000036,None,547.6851145000546,None,k,1,1.7532776000443846,547.6851145000546,None,None,None,549.4534941000165,None,,,,,,,,,,,,,,,,,,,,,11022,2,1,2024_Jun_01_2058,stroop_task_switching2,2021.2.3,59.561389920021334,
condition/block_mixed,instruction/instr_mixed,instruction/i10,绿,green,k,square,color_mix,单词,,compatible,1,,,,,,,,0,2,2,2,1,0,1,0,0,28,28,28,,,,,,,,,,,,,,,,,,,,,,,,,,,,,,,,,,,550.4559608999989,550.6556558000157,550.6391227000277,550.9397000000463,550.9397000000463,None,551.4406970000127,None,k,1,1.093400500016287,551.4406970000127,None,None,None,552.5590407000273,None,,,,,,,,,,,,,,,,,,,,,11022,2,1,2024_Jun_01_2058,stroop_task_switching2,2021.2.3,59.561389920021334,
condition/block_mixed,instruction/instr_mixed,instruction/i10,蓝,blue,f,square,color_mix,单词,,compatible,1,,,,,,,,0,2,2,2,1,0,1,0,0,29,29,29,,,,,,,,,,,,,,,,,,,,,,,,,,,,,,,,,,,553.560938300041,553.7606010000454,553.7439261000254,554.0446988000185,554.0446988000185,None,554.5451790000079,None,f,1,1.0372502999962308,554.5451790000079,None,None,None,555.5959673000034,None,,,,,,,,,,,,,,,,,,,,,11022,2,1,2024_Jun_01_2058,stroop_task_switching2,2021.2.3,59.561389920021334,
condition/block_mixed,instruction/instr_mixed,instruction/i10,黄,yellow,j,diamond,color_mix,颜色,,compatible,2,,,,,,,,0,2,2,2,1,0,1,0,0,30,30,30,,,,,,,,,,,,,,,,,,,,,,,,,,,,,,,,,,,556.5985231000232,556.7985065000248,556.7816636000061,557.0824537000153,557.0824537000153,None,557.5834021000192,None,j,1,1.3194055000203662,557.5834021000192,None,None,None,558.918713000021,None,,,,,,,,,,,,,,,,,,,,,11022,2,1,2024_Jun_01_2058,stroop_task_switching2,2021.2.3,59.561389920021334,
condition/block_mixed,instruction/instr_mixed,instruction/i10,绿,green,k,square,color_mix,单词,,compatible,2,,,,,,,,0,2,2,2,1,0,1,0,0,31,31,31,,,,,,,,,,,,,,,,,,,,,,,,,,,,,,,,,,,559.9203227000544,560.1206835000194,560.1036645000568,560.4046677000006,560.4046677000006,None,560.9050874000532,None,k,1,1.0297188000404276,560.9050874000532,None,None,None,561.9565497000003,None,,,,,,,,,,,,,,,,,,,,,11022,2,1,2024_Jun_01_2058,stroop_task_switching2,2021.2.3,59.561389920021334,
condition/block_mixed,instruction/instr_mixed,instruction/i10,黄,yellow,j,square,color_mix,单词,,compatible,1,,,,,,,,0,2,2,2,1,0,1,0,0,32,32,32,,,,,,,,,,,,,,,,,,,,,,,,,,,,,,,,,,,562.9584188000299,563.158420700056,563.1420371000422,563.4422175000072,563.4422175000072,None,563.9427846000181,None,j,1,2.1524921999662183,563.9427846000181,None,None,None,566.1136093000532,None,,,,,,,,,,,,,,,,,,,,,11022,2,1,2024_Jun_01_2058,stroop_task_switching2,2021.2.3,59.561389920021334,
condition/block_mixed,instruction/instr_mixed,instruction/i10,绿,green,k,diamond,color_mix,颜色,,compatible,2,,,,,,,,0,2,2,2,1,0,1,0,0,33,33,33,,,,,,,,,,,,,,,,,,,,,,,,,,,,,,,,,,,567.1141484000254,567.3146699000499,567.2980312000145,567.5986089000362,567.5986089000362,None,568.0995806000428,None,k,1,1.171251800027676,568.0995806000428,None,None,None,569.3010892000166,None,,,,,,,,,,,,,,,,,,,,,11022,2,1,2024_Jun_01_2058,stroop_task_switching2,2021.2.3,59.561389920021334,
condition/block_mixed,instruction/instr_mixed,instruction/i10,红,red,d,square,color_mix,单词,,compatible,2,,,,,,,,0,2,2,2,1,0,1,0,0,34,34,34,,,,,,,,,,,,,,,,,,,,,,,,,,,,,,,,,,,570.3029261000338,570.5027287000557,570.4865376000525,570.7865690000472,570.7865690000472,None,571.2874168000417,None,d,1,0.5111780000152066,571.2874168000417,None,None,None,571.8208487000084,None,,,,,,,,,,,,,,,,,,,,,11022,2,1,2024_Jun_01_2058,stroop_task_switching2,2021.2.3,59.561389920021334,
condition/block_mixed,instruction/instr_mixed,instruction/i10,黄,yellow,j,square,color_mix,单词,,compatible,1,,,,,,,,0,2,2,2,1,0,1,0,0,35,35,35,,,,,,,,,,,,,,,,,,,,,,,,,,,,,,,,,,,572.8227482000366,573.0228426000103,573.0062669000472,573.3063954000245,573.3063954000245,None,573.8069446000154,None,j,1,1.0877256999956444,573.8069446000154,None,None,None,574.9259824000183,None,,,,,,,,,,,,,,,,,,,,,11022,2,1,2024_Jun_01_2058,stroop_task_switching2,2021.2.3,59.561389920021334,
condition/block_mixed,instruction/instr_mixed,instruction/i10,绿,green,k,diamond,color_mix,颜色,,compatible,2,,,,,,,,0,2,2,2,1,0,1,0,0,36,36,36,,,,,,,,,,,,,,,,,,,,,,,,,,,,,,,,,,,575.9276853000047,576.1273002000526,576.1112521000323,576.4117395000067,576.4117395000067,None,576.9126726000104,None,k,1,1.0063537000096403,576.9126726000104,None,None,None,577.9473732000333,None,,,,,,,,,,,,,,,,,,,,,11022,2,1,2024_Jun_01_2058,stroop_task_switching2,2021.2.3,59.561389920021334,
condition/block_mixed,instruction/instr_mixed,instruction/i10,蓝,blue,f,square,color_mix,单词,,compatible,2,,,,,,,,0,2,2,2,1,0,1,0,0,37,37,37,,,,,,,,,,,,,,,,,,,,,,,,,,,,,,,,,,,578.949126600055,579.1487010000274,579.1322519000387,579.4329684000113,579.4329684000113,None,579.9330947000417,None,f,1,1.1377476999768987,579.9330947000417,None,None,None,581.1020923000178,None,,,,,,,,,,,,,,,,,,,,,11022,2,1,2024_Jun_01_2058,stroop_task_switching2,2021.2.3,59.561389920021334,
condition/block_mixed,instruction/instr_mixed,instruction/i10,红,red,d,square,color_mix,单词,,compatible,1,,,,,,,,0,2,2,2,1,0,1,0,0,38,38,38,,,,,,,,,,,,,,,,,,,,,,,,,,,,,,,,,,,582.1035628000391,582.3040444000508,582.2872253000387,582.587995400012,582.587995400012,None,583.0886244000285,None,d,1,0.49433710001176223,583.0886244000285,None,None,None,583.6049851000425,None,,,,,,,,,,,,,,,,,,,,,11022,2,1,2024_Jun_01_2058,stroop_task_switching2,2021.2.3,59.561389920021334,
condition/block_mixed,instruction/instr_mixed,instruction/i10,黄,yellow,j,diamond,color_mix,颜色,,compatible,2,,,,,,,,0,2,2,2,1,0,1,0,0,39,39,39,,,,,,,,,,,,,,,,,,,,,,,,,,,,,,,,,,,584.6068935000221,584.8082615000312,584.7912848000415,585.0908638000255,585.0908638000255,None,585.592304800055,None,j,1,1.7196127999923192,585.592304800055,None,None,None,587.327102900017,None,,,,,,,,,,,,,,,,,,,,,11022,2,1,2024_Jun_01_2058,stroop_task_switching2,2021.2.3,59.561389920021334,
condition/block_mixed,instruction/instr_mixed,instruction/i10,黄,yellow,j,square,color_mix,单词,,compatible,2,,,,,,,,0,2,2,2,1,0,1,0,0,40,40,40,,,,,,,,,,,,,,,,,,,,,,,,,,,,,,,,,,,588.3295946000144,588.5299730000552,588.5132710000034,588.8137555000139,588.8137555000139,None,589.3145157000399,None,j,1,0.7492299000150524,589.3145157000399,None,None,None,590.0824062000029,None,,,,,,,,,,,,,,,,,,,,,11022,2,1,2024_Jun_01_2058,stroop_task_switching2,2021.2.3,59.561389920021334,
condition/block_mixed,instruction/instr_mixed,instruction/i10,蓝,blue,f,square,color_mix,单词,,compatible,1,,,,,,,,0,2,2,2,1,0,1,0,0,41,41,41,,,,,,,,,,,,,,,,,,,,,,,,,,,,,,,,,,,591.0829288000241,591.2837464000331,591.2670053000329,591.5678803000483,591.5678803000483,None,592.0686939000152,None,f,1,0.9065679999766871,592.0686939000152,None,None,None,593.0033559000003,None,,,,,,,,,,,,,,,,,,,,,11022,2,1,2024_Jun_01_2058,stroop_task_switching2,2021.2.3,59.561389920021334,
condition/block_mixed,instruction/instr_mixed,instruction/i10,蓝,blue,f,diamond,color_mix,颜色,,compatible,2,,,,,,,,0,2,2,2,1,0,1,0,0,42,42,42,,,,,,,,,,,,,,,,,,,,,,,,,,,,,,,,,,,594.0048534000525,594.2052018000395,594.1884793000063,594.4894092000322,594.4894092000322,None,594.9897357000154,None,f,1,1.4498198999790475,594.9897357000154,None,None,None,596.4586187000386,None,,,,,,,,,,,,,,,,,,,,,11022,2,1,2024_Jun_01_2058,stroop_task_switching2,2021.2.3,59.561389920021334,
condition/block_mixed,instruction/instr_mixed,instruction/i10,黄,yellow,j,diamond,color_mix,颜色,,compatible,1,,,,,,,,0,2,2,2,1,0,1,0,0,43,43,43,,,,,,,,,,,,,,,,,,,,,,,,,,,,,,,,,,,597.4598322000238,597.6600009000394,597.6431836000411,597.9442172000417,597.9442172000417,None,598.4448817000375,None,j,1,1.283203799976036,598.4448817000375,None,None,None,599.7456687000231,None,,,,,,,,,,,,,,,,,,,,,11022,2,1,2024_Jun_01_2058,stroop_task_switching2,2021.2.3,59.561389920021334,
condition/block_mixed,instruction/instr_mixed,instruction/i10,红,red,d,diamond,color_mix,颜色,,compatible,1,,,,,,,,0,2,2,2,1,0,1,0,0,44,44,44,,,,,,,,,,,,,,,,,,,,,,,,,,,,,,,,,,,600.748832000012,600.9492270000046,600.9326099000173,601.2325218000333,601.2325218000333,None,601.7332291000057,None,d,1,0.6421841999981552,601.7332291000057,None,None,None,602.4012733999989,None,,,,,,,,,,,,,,,,,,,,,11022,2,1,2024_Jun_01_2058,stroop_task_switching2,2021.2.3,59.561389920021334,
condition/block_mixed,instruction/instr_mixed,instruction/i10,蓝,blue,f,diamond,color_mix,颜色,,compatible,1,,,,,,,,0,2,2,2,1,0,1,0,0,45,45,45,,,,,,,,,,,,,,,,,,,,,,,,,,,,,,,,,,,603.4019144000486,603.6024326000479,603.5858067000518,603.8862504000426,603.8862504000426,None,604.3873277000384,None,f,1,0.6522799999802373,604.3873277000384,None,None,None,605.0546370000229,None,,,,,,,,,,,,,,,,,,,,,11022,2,1,2024_Jun_01_2058,stroop_task_switching2,2021.2.3,59.561389920021334,
condition/block_mixed,instruction/instr_mixed,instruction/i10,红,red,d,diamond,color_mix,颜色,,compatible,1,,,,,,,,0,2,2,2,1,0,1,0,0,46,46,46,,,,,,,,,,,,,,,,,,,,,,,,,,,,,,,,,,,606.056682800001,606.2571252000052,606.2401905000443,606.5402379000443,606.5402379000443,None,607.0408028000384,None,d,1,0.5428813999751583,607.0408028000384,None,None,None,607.6087892000214,None,,,,,,,,,,,,,,,,,,,,,11022,2,1,2024_Jun_01_2058,stroop_task_switching2,2021.2.3,59.561389920021334,
condition/block_mixed,instruction/instr_mixed,instruction/i10,红,red,d,square,color_mix,单词,,compatible,2,,,,,,,,0,2,2,2,1,0,1,0,0,47,47,47,,,,,,,,,,,,,,,,,,,,,,,,,,,,,,,,,,,608.6103612000006,608.8107832000242,608.7940929000033,609.094374700042,609.094374700042,None,609.5949858000386,None,d,1,0.5172411000239663,609.5949858000386,None,None,None,610.128240900056,None,,,,,,,,,,,,,,,,,,,,,11022,2,1,2024_Jun_01_2058,stroop_task_switching2,2021.2.3,59.561389920021334,
condition/block_mixed,instruction/instr_mixed,instruction/i10,红,red,d,diamond,color_mix,颜色,,compatible,2,,,,,,,,0,2,2,2,1,0,1,0,0,48,48,48,,,,,,,,,,,,,,,,,,,,,,,,,,,,,,,,,,,611.1307345000096,611.3306190000148,611.314664000005,611.6141690000077,611.6141690000077,None,612.1159186000004,None,d,1,0.5802335999906063,612.1159186000004,None,None,None,612.716173700057,None,,,,,,,,,,,,,,,,,,,,,11022,2,1,2024_Jun_01_2058,stroop_task_switching2,2021.2.3,59.561389920021334,
condition/block_mixed,instruction/instr_mixed,instruction/i10,,,,,,,,,,,,,,,,,0,2,2,2,1,0,1,0,,,,,,,,,,,,,,,,,,,,,,,,,,,,,,,,,,,,,,,,,,,,,,,,,,,,,,,,613.7165617000428,None,space,51.22944369999459,613.7165617000428,None,,,,,,,,,,,,,,,11022,2,1,2024_Jun_01_2058,stroop_task_switching2,2021.2.3,59.561389920021334,
condition/block_mixed,instruction/instr_mixed,instruction/i10,,,,,,,,,,,,,,,,,0,2,2,2,,,,,,,,,,,,,,,,,,,,,,,,,,,,,,,,,,,,,,,,,,,,,,,,,,,,,,,,,,,,,,,,,,,,,,,,,,,,,,,,11022,2,1,2024_Jun_01_2058,stroop_task_switching2,2021.2.3,59.561389920021334,
,,,红,red,d,square,color_mix,单词,,compatible,0,block_switch1,instruction/ready_test.png,instruction/i11.png,,,,,,,,,,,,,,,,,0,0,0,0,0,0,0,0,,,,,,,,,,,,,,,,,,,668.5339094000519,669.5354079000535,669.5354079000535,670.536553300044,670.536553300044,None,667.5663156000082,668.5671494000126,671.5723859000136,671.7722927000141,671.7555581000051,672.0556428000564,672.0556428000564,None,672.5566168000223,None,d,1,0.524635199981276,672.5566168000223,None,None,None,,,,,,,,,664.9943815000006,None,space,2.527596400002949,664.9943815000006,None,,,,,,,,,11022,2,1,2024_Jun_01_2058,stroop_task_switching2,2021.2.3,59.561389920021334,
,,,绿,green,k,diamond,color_mix,颜色,,compatible,2,block_switch1,instruction/ready_test.png,instruction/i11.png,,,,,,,,,,,,,,,,,0,0,0,0,0,1,1,1,,,,,,,,,,,,,,,,,,,,,,,,,,,673.1399676000001,673.3414296000265,673.2910738000064,673.5914096000488,673.5914096000488,None,674.0923388000228,None,k,1,1.429097299987916,674.0923388000228,None,None,None,,,,,,,,,,,,,,,,,,,,,,,11022,2,1,2024_Jun_01_2058,stroop_task_switching2,2021.2.3,59.561389920021334,
,,,绿,yellow,j,diamond,color_mix,颜色,,incompatible,1,block_switch1,instruction/ready_test.png,instruction/i11.png,,,,,,,,,,,,,,,,,0,0,0,0,0,2,2,2,,,,,,,,,,,,,,,,,,,,,,,,,,,675.5435962000047,675.7447157000424,675.7279057000414,676.0285242000245,676.0285242000245,None,676.5294300000533,None,j,1,1.9527468999731354,676.5294300000533,None,None,None,,,,,,,,,,,,,,,,,,,,,,,11022,2,1,2024_Jun_01_2058,stroop_task_switching2,2021.2.3,59.561389920021334,
,,,蓝,blue,f,diamond,color_mix,颜色,,compatible,1,block_switch1,instruction/ready_test.png,instruction/i11.png,,,,,,,,,,,,,,,,,0,0,0,0,0,3,3,3,,,,,,,,,,,,,,,,,,,,,,,,,,,678.4979474000284,678.6982016000547,678.6824690000503,678.9829805000336,678.9829805000336,None,679.4839152000495,None,f,1,0.8697019999963231,679.4839152000495,None,None,None,,,,,,,,,,,,,,,,,,,,,,,11022,2,1,2024_Jun_01_2058,stroop_task_switching2,2021.2.3,59.561389920021334,
,,,绿,green,k,square,color_mix,单词,,compatible,2,block_switch1,instruction/ready_test.png,instruction/i11.png,,,,,,,,,,,,,,,,,0,0,0,0,0,4,4,4,,,,,,,,,,,,,,,,,,,,,,,,,,,680.4020285000443,680.6026379000396,680.5689052000525,680.8691928000189,680.8691928000189,None,681.3699312000535,None,k,1,1.1843357000034302,681.3699312000535,None,None,None,,,,,,,,,,,,,,,,,,,,,,,11022,2,1,2024_Jun_01_2058,stroop_task_switching2,2021.2.3,59.561389920021334,
,,,绿,blue,f,diamond,color_mix,颜色,,incompatible,2,block_switch1,instruction/ready_test.png,instruction/i11.png,,,,,,,,,,,,,,,,,0,0,0,0,0,5,5,5,,,,,,,,,,,,,,,,,,,,,,,,,,,682.5706861000508,682.7722264000331,682.755449200049,683.0558126000105,683.0558126000105,None,683.5565138000529,None,f,1,1.037574699963443,683.5565138000529,None,None,None,,,,,,,,,,,,,,,,,,,,,,,11022,2,1,2024_Jun_01_2058,stroop_task_switching2,2021.2.3,59.561389920021334,
,,,黄,red,j,square,color_mix,单词,,incompatible,2,block_switch1,instruction/ready_test.png,instruction/i11.png,,,,,,,,,,,,,,,,,0,0,0,0,0,6,6,6,,,,,,,,,,,,,,,,,,,,,,,,,,,684.6426461000228,684.8417206000304,684.8085037000128,685.1090595000423,685.1090595000423,None,685.6094311000197,None,j,1,1.3443639999604784,685.6094311000197,None,None,None,,,,,,,,,,,,,,,,,,,,,,,11022,2,1,2024_Jun_01_2058,stroop_task_switching2,2021.2.3,59.561389920021334,
,,,绿,green,k,square,color_mix,单词,,compatible,1,block_switch1,instruction/ready_test.png,instruction/i11.png,,,,,,,,,,,,,,,,,0,0,0,0,0,7,7,7,,,,,,,,,,,,,,,,,,,,,,,,,,,686.9773760000244,687.1789024000173,687.1621171000297,687.4625440000091,687.4625440000091,None,687.9632688999991,None,k,1,0.9913480000104755,687.9632688999991,None,None,None,,,,,,,,,,,,,,,,,,,,,,,11022,2,1,2024_Jun_01_2058,stroop_task_switching2,2021.2.3,59.561389920021334,
,,,蓝,blue,f,square,color_mix,单词,,compatible,1,block_switch1,instruction/ready_test.png,instruction/i11.png,,,,,,,,,,,,,,,,,0,0,0,0,0,8,8,8,,,,,,,,,,,,,,,,,,,,,,,,,,,688.9803299000487,689.18118340004,689.1649084000383,689.4646304000053,689.4646304000053,None,689.9661949000438,None,f,1,0.7078099999926053,689.9661949000438,None,None,None,,,,,,,,,,,,,,,,,,,,,,,11022,2,1,2024_Jun_01_2058,stroop_task_switching2,2021.2.3,59.561389920021334,
,,,红,red,d,diamond,color_mix,颜色,,compatible,2,block_switch1,instruction/ready_test.png,instruction/i11.png,,,,,,,,,,,,,,,,,0,0,0,0,0,9,9,9,,,,,,,,,,,,,,,,,,,,,,,,,,,690.6995994000463,690.9009312000126,690.8842456000275,691.1835818000254,691.1835818000254,None,691.6851201000391,None,d,1,0.8208098000031896,691.6851201000391,None,None,None,,,,,,,,,,,,,,,,,,,,,,,11022,2,1,2024_Jun_01_2058,stroop_task_switching2,2021.2.3,59.561389920021334,
,,,黄,yellow,j,diamond,color_mix,颜色,,compatible,1,block_switch1,instruction/ready_test.png,instruction/i11.png,,,,,,,,,,,,,,,,,0,0,0,0,0,10,10,10,,,,,,,,,,,,,,,,,,,,,,,,,,,692.5535085000447,692.7539660000475,692.7207370000542,693.0207548000035,693.0207548000035,None,693.5215124000097,None,j,1,0.8808694999897853,693.5215124000097,None,None,None,,,,,,,,,,,,,,,,,,,,,,,11022,2,1,2024_Jun_01_2058,stroop_task_switching2,2021.2.3,59.561389920021334,
,,,绿,green,k,square,color_mix,单词,,compatible,2,block_switch1,instruction/ready_test.png,instruction/i11.png,,,,,,,,,,,,,,,,,0,0,0,0,0,11,11,11,,,,,,,,,,,,,,,,,,,,,,,,,,,694.4219643000397,694.6228376000072,694.6071304000216,694.9070965000428,694.9070965000428,None,695.4078763000434,None,k,1,1.2505767000257038,695.4078763000434,None,None,None,,,,,,,,,,,,,,,,,,,,,,,11022,2,1,2024_Jun_01_2058,stroop_task_switching2,2021.2.3,59.561389920021334,
,,,红,red,d,diamond,color_mix,颜色,,compatible,2,block_switch1,instruction/ready_test.png,instruction/i11.png,,,,,,,,,,,,,,,,,0,0,0,0,0,12,12,12,,,,,,,,,,,,,,,,,,,,,,,,,,,696.6754403000232,696.8761633000104,696.8598111000028,697.1608663000516,697.1608663000516,None,697.660094800056,None,d,1,0.8620192999951541,697.660094800056,None,None,None,,,,,,,,,,,,,,,,,,,,,,,11022,2,1,2024_Jun_01_2058,stroop_task_switching2,2021.2.3,59.561389920021334,
,,,红,red,d,diamond,color_mix,颜色,,compatible,1,block_switch1,instruction/ready_test.png,instruction/i11.png,,,,,,,,,,,,,,,,,0,0,0,0,0,13,13,13,,,,,,,,,,,,,,,,,,,,,,,,,,,698.5450516000274,698.7462386000552,698.7291487000184,699.029846200021,699.029846200021,None,699.5312641000492,None,d,1,0.4709992000134662,699.5312641000492,None,None,None,,,,,,,,,,,,,,,,,,,,,,,11022,2,1,2024_Jun_01_2058,stroop_task_switching2,2021.2.3,59.561389920021334,
,,,黄,yellow,j,square,color_mix,单词,,compatible,2,block_switch1,instruction/ready_test.png,instruction/i11.png,,,,,,,,,,,,,,,,,0,0,0,0,0,14,14,14,,,,,,,,,,,,,,,,,,,,,,,,,,,700.048210100038,700.2480769000249,700.2151186000556,700.5150913000107,700.5150913000107,None,701.016172600037,None,j,1,0.8581718999776058,701.016172600037,None,None,None,,,,,,,,,,,,,,,,,,,,,,,11022,2,1,2024_Jun_01_2058,stroop_task_switching2,2021.2.3,59.561389920021334,
,,,红,green,k,diamond,color_mix,颜色,,incompatible,2,block_switch1,instruction/ready_test.png,instruction/i11.png,,,,,,,,,,,,,,,,,0,0,0,0,0,15,15,15,,,,,,,,,,,,,,,,,,,,,,,,,,,701.8997932000202,702.1020372000057,702.0835079000099,702.3847965000314,702.3847965000314,None,702.8857747000293,None,k,1,1.8928786999895237,702.8857747000293,None,None,None,,,,,,,,,,,,,,,,,,,,,,,11022,2,1,2024_Jun_01_2058,stroop_task_switching2,2021.2.3,59.561389920021334,
,,,蓝,red,d,diamond,color_mix,颜色,,incompatible,1,block_switch1,instruction/ready_test.png,instruction/i11.png,,,,,,,,,,,,,,,,,0,0,0,0,0,16,16,16,,,,,,,,,,,,,,,,,,,,,,,,,,,704.8041582000442,705.0057147000334,704.9889600000461,705.2889987000381,705.2889987000381,None,705.7900826000259,None,d,1,2.6210522999754176,705.7900826000259,None,None,None,,,,,,,,,,,,,,,,,,,,,,,11022,2,1,2024_Jun_01_2058,stroop_task_switching2,2021.2.3,59.561389920021334,
,,,黄,green,k,diamond,color_mix,颜色,,incompatible,1,block_switch1,instruction/ready_test.png,instruction/i11.png,,,,,,,,,,,,,,,,,0,0,0,0,0,17,17,17,,,,,,,,,,,,,,,,,,,,,,,,,,,708.4263065000414,708.6275262000272,708.610785100027,708.9114735000185,708.9114735000185,None,709.41247380001,None,k,1,2.366367899987381,709.41247380001,None,None,None,,,,,,,,,,,,,,,,,,,,,,,11022,2,1,2024_Jun_01_2058,stroop_task_switching2,2021.2.3,59.561389920021334,
,,,绿,green,k,diamond,color_mix,颜色,,compatible,1,block_switch1,instruction/ready_test.png,instruction/i11.png,,,,,,,,,,,,,,,,,0,0,0,0,0,18,18,18,,,,,,,,,,,,,,,,,,,,,,,,,,,711.7981297000078,711.9999412000179,711.9829968000413,712.2829345000209,712.2829345000209,None,712.7840264000115,None,k,1,1.6665269000222906,712.7840264000115,None,None,None,,,,,,,,,,,,,,,,,,,,,,,11022,2,1,2024_Jun_01_2058,stroop_task_switching2,2021.2.3,59.561389920021334,
,,,黄,red,d,diamond,color_mix,颜色,,incompatible,1,block_switch1,instruction/ready_test.png,instruction/i11.png,,,,,,,,,,,,,,,,,0,0,0,0,0,19,19,19,,,,,,,,,,,,,,,,,,,,,,,,,,,714.4689475000487,714.6690663000336,714.6531610000529,714.9536467000144,714.9536467000144,None,715.454801600019,None,d,1,1.0200971000012942,715.454801600019,None,None,None,,,,,,,,,,,,,,,,,,,,,,,11022,2,1,2024_Jun_01_2058,stroop_task_switching2,2021.2.3,59.561389920021334,
,,,绿,yellow,k,square,color_mix,单词,,incompatible,2,block_switch1,instruction/ready_test.png,instruction/i11.png,,,,,,,,,,,,,,,,,0,0,0,0,0,20,20,20,,,,,,,,,,,,,,,,,,,,,,,,,,,716.5059738000273,716.7062358000549,716.6899186000228,716.9899686000426,716.9899686000426,None,717.4913982000435,None,k,1,1.8951698000309989,717.4913982000435,None,None,None,,,,,,,,,,,,,,,,,,,,,,,11022,2,1,2024_Jun_01_2058,stroop_task_switching2,2021.2.3,59.561389920021334,
,,,绿,yellow,j,diamond,color_mix,颜色,,incompatible,2,block_switch1,instruction/ready_test.png,instruction/i11.png,,,,,,,,,,,,,,,,,0,0,0,0,0,21,21,21,,,,,,,,,,,,,,,,,,,,,,,,,,,719.4100058000186,719.6108156000264,719.5940502000158,719.895226200053,719.895226200053,None,720.3953540000366,None,j,1,1.8075547999469563,720.3953540000366,None,None,None,,,,,,,,,,,,,,,,,,,,,,,11022,2,1,2024_Jun_01_2058,stroop_task_switching2,2021.2.3,59.561389920021334,
,,,绿,green,k,square,color_mix,单词,,compatible,2,block_switch1,instruction/ready_test.png,instruction/i11.png,,,,,,,,,,,,,,,,,0,0,0,0,0,22,22,22,,,,,,,,,,,,,,,,,,,,,,,,,,,722.2303312000004,722.4308463000343,722.415191200038,722.7148306000163,722.7148306000163,None,723.2162880000542,None,k,1,2.1628173000062816,723.2162880000542,None,None,None,,,,,,,,,,,,,,,,,,,,,,,11022,2,1,2024_Jun_01_2058,stroop_task_switching2,2021.2.3,59.561389920021334,
,,,红,red,d,square,color_mix,单词,,compatible,1,block_switch1,instruction/ready_test.png,instruction/i11.png,,,,,,,,,,,,,,,,,0,0,0,0,0,23,23,23,,,,,,,,,,,,,,,,,,,,,,,,,,,725.4023703000275,725.6028951000189,725.5871178000234,725.8867528000264,725.8867528000264,None,726.3877833000151,None,d,1,0.54301470000064,726.3877833000151,None,None,None,,,,,,,,,,,,,,,,,,,,,,,11022,2,1,2024_Jun_01_2058,stroop_task_switching2,2021.2.3,59.561389920021334,
,,,黄,green,j,square,color_mix,单词,,incompatible,1,block_switch1,instruction/ready_test.png,instruction/i11.png,,,,,,,,,,,,,,,,,0,0,0,0,0,24,24,24,,,,,,,,,,,,,,,,,,,,,,,,,,,726.9551864000387,727.1553389000474,727.1389461000217,727.4393704000395,727.4393704000395,None,727.9390824000002,None,j,1,2.079892400011886,727.9390824000002,None,None,None,,,,,,,,,,,,,,,,,,,,,,,11022,2,1,2024_Jun_01_2058,stroop_task_switching2,2021.2.3,59.561389920021334,
,,,红,blue,d,square,color_mix,单词,,incompatible,1,block_switch1,instruction/ready_test.png,instruction/i11.png,,,,,,,,,,,,,,,,,0,0,0,0,0,25,25,25,,,,,,,,,,,,,,,,,,,,,,,,,,,730.0431935000233,730.2437451000442,730.227144000004,730.5271075000055,730.5271075000055,None,731.0280930000008,None,d,1,2.055662799975835,731.0280930000008,None,None,None,,,,,,,,,,,,,,,,,,,,,,,11022,2,1,2024_Jun_01_2058,stroop_task_switching2,2021.2.3,59.561389920021334,
,,,黄,yellow,j,square,color_mix,单词,,compatible,1,block_switch1,instruction/ready_test.png,instruction/i11.png,,,,,,,,,,,,,,,,,0,0,0,0,0,26,26,26,,,,,,,,,,,,,,,,,,,,,,,,,,,733.114599100023,733.3145023000543,733.2982096000342,733.598290599999,733.598290599999,None,734.0993768000044,None,j,1,0.8321067999931984,734.0993768000044,None,None,None,,,,,,,,,,,,,,,,,,,,,,,11022,2,1,2024_Jun_01_2058,stroop_task_switching2,2021.2.3,59.561389920021334,
,,,蓝,green,f,square,color_mix,单词,,incompatible,1,block_switch1,instruction/ready_test.png,instruction/i11.png,,,,,,,,,,,,,,,,,0,0,0,0,0,27,27,27,,,,,,,,,,,,,,,,,,,,,,,,,,,734.9507253000047,735.150168800028,735.1343335000565,735.4345760000288,735.4345760000288,None,735.9356650000555,None,f,1,1.0683243999956176,735.9356650000555,None,None,None,,,,,,,,,,,,,,,,,,,,,,,11022,2,1,2024_Jun_01_2058,stroop_task_switching2,2021.2.3,59.561389920021334,
,,,绿,green,k,diamond,color_mix,颜色,,compatible,2,block_switch1,instruction/ready_test.png,instruction/i11.png,,,,,,,,,,,,,,,,,0,0,0,0,0,28,28,28,,,,,,,,,,,,,,,,,,,,,,,,,,,737.0196522000479,737.2206909000524,737.2043661000207,737.5051050000475,737.5051050000475,None,738.0059934000019,None,k,1,1.5258837000001222,738.0059934000019,None,None,None,,,,,,,,,,,,,,,,,,,,,,,11022,2,1,2024_Jun_01_2058,stroop_task_switching2,2021.2.3,59.561389920021334,
,,,黄,blue,f,diamond,color_mix,颜色,,incompatible,1,block_switch1,instruction/ready_test.png,instruction/i11.png,,,,,,,,,,,,,,,,,0,0,0,0,0,29,29,29,,,,,,,,,,,,,,,,,,,,,,,,,,,739.5577394000138,739.7581549000461,739.7411368000321,740.042026900046,740.042026900046,None,740.5426291000331,None,f,1,1.9170585999963805,740.5426291000331,None,None,None,,,,,,,,,,,,,,,,,,,,,,,11022,2,1,2024_Jun_01_2058,stroop_task_switching2,2021.2.3,59.561389920021334,
,,,绿,green,k,diamond,color_mix,颜色,,compatible,1,block_switch1,instruction/ready_test.png,instruction/i11.png,,,,,,,,,,,,,,,,,0,0,0,0,0,30,30,30,,,,,,,,,,,,,,,,,,,,,,,,,,,742.4783458000165,742.6791196000413,742.6621773000224,742.9623116000439,742.9623116000439,None,743.4635917000123,None,k,1,2.9558288999833167,743.4635917000123,None,None,None,,,,,,,,,,,,,,,,,,,,,,,11022,2,1,2024_Jun_01_2058,stroop_task_switching2,2021.2.3,59.561389920021334,
,,,蓝,blue,f,square,color_mix,单词,,compatible,2,block_switch1,instruction/ready_test.png,instruction/i11.png,,,,,,,,,,,,,,,,,0,0,0,0,0,31,31,31,,,,,,,,,,,,,,,,,,,,,,,,,,,746.4344370000181,746.6351520000026,746.6183775000391,746.9188324999996,746.9188324999996,None,747.4194849000196,None,f,1,1.4561199999880046,747.4194849000196,None,None,None,,,,,,,,,,,,,,,,,,,,,,,11022,2,1,2024_Jun_01_2058,stroop_task_switching2,2021.2.3,59.561389920021334,
,,,红,red,d,square,color_mix,单词,,compatible,1,block_switch1,instruction/ready_test.png,instruction/i11.png,,,,,,,,,,,,,,,,,0,0,0,0,0,32,32,32,,,,,,,,,,,,,,,,,,,,,,,,,,,748.9048047000542,749.1054437000421,749.0885917000123,749.3892705000471,749.3892705000471,None,749.8899583000457,None,d,1,0.5856514999759383,749.8899583000457,None,None,None,,,,,,,,,,,,,,,,,,,,,,,11022,2,1,2024_Jun_01_2058,stroop_task_switching2,2021.2.3,59.561389920021334,
,,,红,green,d,square,color_mix,单词,,incompatible,1,block_switch1,instruction/ready_test.png,instruction/i11.png,,,,,,,,,,,,,,,,,0,0,0,0,0,33,33,33,,,,,,,,,,,,,,,,,,,,,,,,,,,750.5077809000504,750.7083202000358,750.6906148000271,750.9914318000083,750.9914318000083,None,751.4924024000065,None,d,1,1.5837546000257134,751.4924024000065,None,None,None,,,,,,,,,,,,,,,,,,,,,,,11022,2,1,2024_Jun_01_2058,stroop_task_switching2,2021.2.3,59.561389920021334,
,,,黄,yellow,j,diamond,color_mix,颜色,,compatible,2,block_switch1,instruction/ready_test.png,instruction/i11.png,,,,,,,,,,,,,,,,,0,0,0,0,0,34,34,34,,,,,,,,,,,,,,,,,,,,,,,,,,,753.0945028000278,753.2949559000554,753.2788118000026,753.5788721000426,753.5788721000426,None,754.0797641000245,None,j,1,1.0688752999994904,754.0797641000245,None,None,None,,,,,,,,,,,,,,,,,,,,,,,11022,2,1,2024_Jun_01_2058,stroop_task_switching2,2021.2.3,59.561389920021334,
,,,红,green,k,diamond,color_mix,颜色,,incompatible,1,block_switch1,instruction/ready_test.png,instruction/i11.png,,,,,,,,,,,,,,,,,0,0,0,0,0,35,35,35,,,,,,,,,,,,,,,,,,,,,,,,,,,755.1636304000276,755.3649986000382,755.3481567000272,755.6484130000463,755.6484130000463,None,756.1488594000111,None,k,1,1.8787744999863207,756.1488594000111,None,None,None,,,,,,,,,,,,,,,,,,,,,,,11022,2,1,2024_Jun_01_2058,stroop_task_switching2,2021.2.3,59.561389920021334,
,,,黄,yellow,j,square,color_mix,单词,,compatible,2,block_switch1,instruction/ready_test.png,instruction/i11.png,,,,,,,,,,,,,,,,,0,0,0,0,0,36,36,36,,,,,,,,,,,,,,,,,,,,,,,,,,,758.0695447000326,758.2694924000534,758.2359048000071,758.5363563999999,758.5363563999999,None,759.0365532000433,762.0415651000221,None,0,,759.0365532000433,762.0415651000221,762.0249544000253,None,,,,,,,,,,,,,,,,,,,,,,,11022,2,1,2024_Jun_01_2058,stroop_task_switching2,2021.2.3,59.561389920021334,
,,,蓝,blue,f,square,color_mix,单词,,compatible,1,block_switch1,instruction/ready_test.png,instruction/i11.png,,,,,,,,,,,,,,,,,0,0,0,0,0,37,37,37,,,,,,,,,,,,,,,,,,,,,,,,,,,762.609142100031,762.8094970000093,762.7925010000472,763.0931402000133,763.0931402000133,None,763.5942732000258,None,d,0,1.7220115000382066,763.5942732000258,None,None,None,,,,,,,,,,,,,,,,,,,,,,,11022,2,1,2024_Jun_01_2058,stroop_task_switching2,2021.2.3,59.561389920021334,
,,,绿,red,d,diamond,color_mix,颜色,,incompatible,2,block_switch1,instruction/ready_test.png,instruction/i11.png,,,,,,,,,,,,,,,,,0,0,0,0,0,38,38,38,,,,,,,,,,,,,,,,,,,,,,,,,,,765.3458753000014,765.5466275000363,765.5298582000542,765.8312424000469,765.8312424000469,None,766.3315624000388,None,d,1,1.3284302999963984,766.3315624000388,None,None,None,,,,,,,,,,,,,,,,,,,,,,,11022,2,1,2024_Jun_01_2058,stroop_task_switching2,2021.2.3,59.561389920021334,
,,,黄,yellow,j,diamond,color_mix,颜色,,compatible,1,block_switch1,instruction/ready_test.png,instruction/i11.png,,,,,,,,,,,,,,,,,0,0,0,0,0,39,39,39,,,,,,,,,,,,,,,,,,,,,,,,,,,767.6825761000509,767.8837573000346,767.8670472000376,768.167264000047,768.167264000047,None,768.6682188000414,None,j,1,1.656169800029602,768.6682188000414,None,None,None,,,,,,,,,,,,,,,,,,,,,,,11022,2,1,2024_Jun_01_2058,stroop_task_switching2,2021.2.3,59.561389920021334,
,,,红,blue,f,diamond,color_mix,颜色,,incompatible,1,block_switch1,instruction/ready_test.png,instruction/i11.png,,,,,,,,,,,,,,,,,0,0,0,0,0,40,40,40,,,,,,,,,,,,,,,,,,,,,,,,,,,770.3541589000379,770.554640300048,770.5381660000421,770.838356000022,770.838356000022,None,771.3388680000207,None,f,1,1.3054843999561854,771.3388680000207,None,None,None,,,,,,,,,,,,,,,,,,,,,,,11022,2,1,2024_Jun_01_2058,stroop_task_switching2,2021.2.3,59.561389920021334,
,,,绿,blue,k,square,color_mix,单词,,incompatible,2,block_switch1,instruction/ready_test.png,instruction/i11.png,,,,,,,,,,,,,,,,,0,0,0,0,0,41,41,41,,,,,,,,,,,,,,,,,,,,,,,,,,,772.6914733000449,772.8914705000352,772.8579382000025,773.1582102000248,773.1582102000248,None,773.6583486000309,None,f,0,1.2182352000381798,773.6583486000309,None,None,None,,,,,,,,,,,,,,,,,,,,,,,11022,2,1,2024_Jun_01_2058,stroop_task_switching2,2021.2.3,59.561389920021334,
,,,蓝,blue,f,diamond,color_mix,颜色,,compatible,2,block_switch1,instruction/ready_test.png,instruction/i11.png,,,,,,,,,,,,,,,,,0,0,0,0,0,42,42,42,,,,,,,,,,,,,,,,,,,,,,,,,,,774.8937749000033,775.0949013000354,775.0780677000294,775.3784004000481,775.3784004000481,None,775.8791012000293,None,f,1,0.6451640999875963,775.8791012000293,None,None,None,,,,,,,,,,,,,,,,,,,,,,,11022,2,1,2024_Jun_01_2058,stroop_task_switching2,2021.2.3,59.561389920021334,
,,,红,blue,d,square,color_mix,单词,,incompatible,2,block_switch1,instruction/ready_test.png,instruction/i11.png,,,,,,,,,,,,,,,,,0,0,0,0,0,43,43,43,,,,,,,,,,,,,,,,,,,,,,,,,,,776.545779600041,776.7473858000012,776.7305218000547,777.0309744000551,777.0309744000551,None,777.5316052000271,None,d,1,0.8971129000419751,777.5316052000271,None,None,None,,,,,,,,,,,,,,,,,,,,,,,11022,2,1,2024_Jun_01_2058,stroop_task_switching2,2021.2.3,59.561389920021334,
,,,蓝,green,k,diamond,color_mix,颜色,,incompatible,2,block_switch1,instruction/ready_test.png,instruction/i11.png,,,,,,,,,,,,,,,,,0,0,0,0,0,44,44,44,,,,,,,,,,,,,,,,,,,,,,,,,,,778.4495093000005,778.6498662000522,778.6333627000568,778.9338216000469,778.9338216000469,None,779.4344861000427,None,k,1,1.3059746000217274,779.4344861000427,None,None,None,,,,,,,,,,,,,,,,,,,,,,,11022,2,1,2024_Jun_01_2058,stroop_task_switching2,2021.2.3,59.561389920021334,
,,,黄,yellow,j,square,color_mix,单词,,compatible,2,block_switch1,instruction/ready_test.png,instruction/i11.png,,,,,,,,,,,,,,,,,0,0,0,0,0,45,45,45,,,,,,,,,,,,,,,,,,,,,,,,,,,780.7699668000569,780.9705262000207,780.9536488000304,781.2539150000084,781.2539150000084,None,781.7535346000222,None,j,1,1.083281499973964,781.7535346000222,None,None,None,,,,,,,,,,,,,,,,,,,,,,,11022,2,1,2024_Jun_01_2058,stroop_task_switching2,2021.2.3,59.561389920021334,
,,,黄,yellow,j,diamond,color_mix,颜色,,compatible,2,block_switch1,instruction/ready_test.png,instruction/i11.png,,,,,,,,,,,,,,,,,0,0,0,0,0,46,46,46,,,,,,,,,,,,,,,,,,,,,,,,,,,782.8553477000096,783.0566212000558,783.0398942000465,783.3401629000437,783.3401629000437,None,783.8408507000422,None,j,1,1.099906200019177,783.8408507000422,None,None,None,,,,,,,,,,,,,,,,,,,,,,,11022,2,1,2024_Jun_01_2058,stroop_task_switching2,2021.2.3,59.561389920021334,
,,,绿,red,k,square,color_mix,单词,,incompatible,2,block_switch1,instruction/ready_test.png,instruction/i11.png,,,,,,,,,,,,,,,,,0,0,0,0,0,47,47,47,,,,,,,,,,,,,,,,,,,,,,,,,,,784.9583382000565,785.160228600027,785.1431238000514,785.4434313000529,785.4434313000529,None,785.9442536000279,None,k,1,1.5564365000464022,785.9442536000279,None,None,None,,,,,,,,,,,,,,,,,,,,,,,11022,2,1,2024_Jun_01_2058,stroop_task_switching2,2021.2.3,59.561389920021334,
,,,红,red,d,diamond,color_mix,颜色,,compatible,2,block_switch1,instruction/ready_test.png,instruction/i11.png,,,,,,,,,,,,,,,,,0,0,0,0,0,48,48,48,,,,,,,,,,,,,,,,,,,,,,,,,,,787.5300606000237,787.730488500034,787.7136673000059,788.0140649000532,788.0140649000532,None,788.5156082000467,None,d,1,1.3133514000219293,788.5156082000467,None,None,None,,,,,,,,,,,,,,,,,,,,,,,11022,2,1,2024_Jun_01_2058,stroop_task_switching2,2021.2.3,59.561389920021334,
,,,蓝,blue,f,diamond,color_mix,颜色,,compatible,1,block_switch1,instruction/ready_test.png,instruction/i11.png,,,,,,,,,,,,,,,,,0,0,0,0,0,49,49,49,,,,,,,,,,,,,,,,,,,,,,,,,,,789.8493517000461,790.0501790000126,790.0338848000392,790.3346963000367,790.3346963000367,None,790.8350057000061,None,f,1,1.5776606000144966,790.8350057000061,None,None,None,,,,,,,,,,,,,,,,,,,,,,,11022,2,1,2024_Jun_01_2058,stroop_task_switching2,2021.2.3,59.561389920021334,
,,,黄,yellow,j,diamond,color_mix,颜色,,compatible,1,block_switch1,instruction/ready_test.png,instruction/i11.png,,,,,,,,,,,,,,,,,0,0,0,0,0,50,50,50,,,,,,,,,,,,,,,,,,,,,,,,,,,792.4371684000362,792.6374900000519,792.621121800039,792.9218593000551,792.9218593000551,None,793.4223881000071,None,j,1,1.086522400029935,793.4223881000071,None,None,None,,,,,,,,,,,,,,,,,,,,,,,11022,2,1,2024_Jun_01_2058,stroop_task_switching2,2021.2.3,59.561389920021334,
,,,红,blue,f,diamond,color_mix,颜色,,incompatible,1,block_switch1,instruction/ready_test.png,instruction/i11.png,,,,,,,,,,,,,,,,,0,0,0,0,0,51,51,51,,,,,,,,,,,,,,,,,,,,,,,,,,,794.5409135000082,794.7411726000137,794.7242036000243,795.024700000009,795.024700000009,None,795.5253482000553,None,f,1,1.2318014000193216,795.5253482000553,None,None,None,,,,,,,,,,,,,,,,,,,,,,,11022,2,1,2024_Jun_01_2058,stroop_task_switching2,2021.2.3,59.561389920021334,
,,,蓝,yellow,j,diamond,color_mix,颜色,,incompatible,1,block_switch1,instruction/ready_test.png,instruction/i11.png,,,,,,,,,,,,,,,,,0,0,0,0,0,52,52,52,,,,,,,,,,,,,,,,,,,,,,,,,,,796.7772289999994,796.9776332000038,796.9608825000469,797.2610930000083,797.2610930000083,None,797.7619102000026,None,j,1,1.4834096999838948,797.7619102000026,None,None,None,,,,,,,,,,,,,,,,,,,,,,,11022,2,1,2024_Jun_01_2058,stroop_task_switching2,2021.2.3,59.561389920021334,
,,,黄,blue,j,square,color_mix,单词,,incompatible,2,block_switch1,instruction/ready_test.png,instruction/i11.png,,,,,,,,,,,,,,,,,0,0,0,0,0,53,53,53,,,,,,,,,,,,,,,,,,,,,,,,,,,799.2632178000058,799.4650966000045,799.4480848000385,799.7483935000491,799.7483935000491,None,800.2496287000249,None,j,1,1.492214799975045,800.2496287000249,None,None,None,,,,,,,,,,,,,,,,,,,,,,,11022,2,1,2024_Jun_01_2058,stroop_task_switching2,2021.2.3,59.561389920021334,
,,,蓝,blue,f,diamond,color_mix,颜色,,compatible,2,block_switch1,instruction/ready_test.png,instruction/i11.png,,,,,,,,,,,,,,,,,0,0,0,0,0,54,54,54,,,,,,,,,,,,,,,,,,,,,,,,,,,801.7683256000164,801.9685754000093,801.9514953000471,802.2526251000236,802.2526251000236,None,802.7531041000038,None,f,1,1.6442139000282623,802.7531041000038,None,None,None,,,,,,,,,,,,,,,,,,,,,,,11022,2,1,2024_Jun_01_2058,stroop_task_switching2,2021.2.3,59.561389920021334,
