b_pra,ins_blocks,ins_blocks2,stim_word,stim_color,corrAns,cue_type,trial_type,task_type,rand,compatibility,switch,b_test,w_pic,w_pic2,trials_instr.thisRepN,trials_instr.thisTrialN,trials_instr.thisN,trials_instr.thisIndex,block_pra.thisRepN,block_pra.thisTrialN,block_pra.thisN,block_pra.thisIndex,trials_rep.thisRepN,trials_rep.thisTrialN,trials_rep.thisN,trials_rep.thisIndex,trials_pra.thisRepN,trials_pra.thisTrialN,trials_pra.thisN,trials_pra.thisIndex,trials_3.thisRepN,trials_3.thisTrialN,trials_3.thisN,trials_3.thisIndex,trials_2.thisRepN,trials_2.thisTrialN,trials_2.thisN,trials_2.thisIndex,instr_image.started,instr_image.stopped,instr_key_resp.keys,instr_key_resp.rt,instr_key_resp.started,instr_key_resp.stopped,instr_pra_image.started,instr_pra_image.stopped,ip_key_resp.keys,ip_key_resp.rt,ip_key_resp.started,ip_key_resp.stopped,block_image.started,block_image.stopped,ib_key_resp.keys,ib_key_resp.rt,ib_key_resp.started,ib_key_resp.stopped,cd3.started,cd3.stopped,cd2.started,cd2.stopped,cd1.started,cd1.stopped,cd_text.started,cd_text.stopped,text_fix.started,text_fix.stopped,text_2.started,text_2.stopped,text_4.started,text_4.stopped,text_target.started,text_target.stopped,key_resp.keys,key_resp.corr,key_resp.rt,key_resp.started,key_resp.stopped,sceen_black.started,sceen_black.stopped,text_fb.started,text_fb.stopped,text.started,text.stopped,key_bf.keys,key_bf.rt,key_bf.started,key_bf.stopped,instr_test_image.started,instr_test_image.stopped,instr_exp_key_resp.keys,instr_exp_key_resp.rt,instr_exp_key_resp.started,instr_exp_key_resp.stopped,text_rest.started,text_rest.stopped,key_resp_rest.keys,key_resp_rest.rt,key_resp_rest.started,key_resp_rest.stopped,text_3.started,text_3.stopped,participant,session,balance,date,expName,psychopyVersion,frameRate,
,,,,,,,,,,,,,,,0,0,0,0,,,,,,,,,,,,,,,,,,,,,15.9733798999805,None,right,0.7314630000037141,15.9733798999805,None,,,,,,,,,,,,,,,,,,,,,,,,,,,,,,,,,,,,,,,,,,,,,,,,,,,,,,,,,,11025,2,1,2024_Jun_03_1626,stroop_task_switching2,2021.2.3,60.093914757527806,
,,,,,,,,,,,,,,,1,0,1,0,,,,,,,,,,,,,,,,,,,,,16.74109700002009,None,right,41.036870900017675,16.74109700002009,None,,,,,,,,,,,,,,,,,,,,,,,,,,,,,,,,,,,,,,,,,,,,,,,,,,,,,,,,,,11025,2,1,2024_Jun_03_1626,stroop_task_switching2,2021.2.3,60.093914757527806,
,,,,,,,,,,,,,,,2,0,2,0,,,,,,,,,,,,,,,,,,,,,57.8196732000215,None,right,4.494901299942285,57.8196732000215,None,,,,,,,,,,,,,,,,,,,,,,,,,,,,,,,,,,,,,,,,,,,,,,,,,,,,,,,,,,11025,2,1,2024_Jun_03_1626,stroop_task_switching2,2021.2.3,60.093914757527806,
,,,,,,,,,,,,,,,3,0,3,0,,,,,,,,,,,,,,,,,,,,,62.35971960000461,None,right,1.9623973999987356,62.35971960000461,None,,,,,,,,,,,,,,,,,,,,,,,,,,,,,,,,,,,,,,,,,,,,,,,,,,,,,,,,,,11025,2,1,2024_Jun_03_1626,stroop_task_switching2,2021.2.3,60.093914757527806,
,,,,,,,,,,,,,,,4,0,4,0,,,,,,,,,,,,,,,,,,,,,64.36275850003585,None,right,3.7355078000109643,64.36275850003585,None,,,,,,,,,,,,,,,,,,,,,,,,,,,,,,,,,,,,,,,,,,,,,,,,,,,,,,,,,,11025,2,1,2024_Jun_03_1626,stroop_task_switching2,2021.2.3,60.093914757527806,
,,,,,,,,,,,,,,,5,0,5,0,,,,,,,,,,,,,,,,,,,,,68.13522530003684,None,right,0.5711708000162616,68.13522530003684,None,,,,,,,,,,,,,,,,,,,,,,,,,,,,,,,,,,,,,,,,,,,,,,,,,,,,,,,,,,11025,2,1,2024_Jun_03_1626,stroop_task_switching2,2021.2.3,60.093914757527806,
,,,,,,,,,,,,,,,,,,,,,,,,,,,,,,,,,,,,,,,,,,,,,68.75302040000679,None,space,4.874596800014842,68.75302040000679,None,,,,,,,,,,,,,,,,,,,,,,,,,,,,,,,,,,,,,,,,,,,,,,,,,,,,11025,2,1,2024_Jun_03_1626,stroop_task_switching2,2021.2.3,60.093914757527806,
condition/block_color,instruction/instr_color,instruction/i8,XX,red,d,diamond,color_single,颜色,,,,,,,,,,,0,0,0,0,0,0,0,0,0,0,0,0,,,,,,,,,,,,,,,,,,,,,73.6598903000122,None,space,2.9459883999661542,73.6598903000122,None,77.666988699988,78.66963050002232,78.66963050002232,79.66952200001106,79.66952200001106,None,76.69811960001243,77.69998929998837,80.65417330001947,80.85497849999228,80.83779439999489,81.1390570999938,81.1390570999938,None,81.63892530003795,None,d,1,0.643767100002151,81.63892530003795,None,None,None,82.30645869998261,None,,,,,,,,,,,,,,,,,,,,,11025,2,1,2024_Jun_03_1626,stroop_task_switching2,2021.2.3,60.093914757527806,
condition/block_color,instruction/instr_color,instruction/i8,XX,green,k,diamond,color_single,颜色,,,,,,,,,,,0,0,0,0,0,0,0,0,0,1,1,1,,,,,,,,,,,,,,,,,,,,,,,,,,,,,,,,,,,83.30810930003645,83.50915260001784,83.49210830003722,83.7923509000102,83.7923509000102,None,84.29301319998922,None,k,1,0.8220768999890424,84.29301319998922,None,None,None,85.14420249999966,None,,,,,,,,,,,,,,,,,,,,,11025,2,1,2024_Jun_03_1626,stroop_task_switching2,2021.2.3,60.093914757527806,
condition/block_color,instruction/instr_color,instruction/i8,XX,yellow,j,diamond,color_single,颜色,,,,,,,,,,,0,0,0,0,0,0,0,0,0,2,2,2,,,,,,,,,,,,,,,,,,,,,,,,,,,,,,,,,,,86.14579700003378,86.3469048999832,86.3293731000158,86.62987150001572,86.62987150001572,None,87.1308115000138,None,j,1,0.6240993000101298,87.1308115000138,None,None,None,87.78205670003081,None,,,,,,,,,,,,,,,,,,,,,11025,2,1,2024_Jun_03_1626,stroop_task_switching2,2021.2.3,60.093914757527806,
condition/block_color,instruction/instr_color,instruction/i8,XX,blue,f,diamond,color_single,颜色,,,,,,,,,,,0,0,0,0,0,0,0,0,0,3,3,3,,,,,,,,,,,,,,,,,,,,,,,,,,,,,,,,,,,88.78324550000252,88.98335390002467,88.96801200002665,89.26880489999894,89.26880489999894,None,89.76789720001398,None,f,1,0.5549210000317544,89.76789720001398,None,None,None,90.3521149000153,None,,,,,,,,,,,,,,,,,,,,,11025,2,1,2024_Jun_03_1626,stroop_task_switching2,2021.2.3,60.093914757527806,
condition/block_color,instruction/instr_color,instruction/i8,XX,green,k,diamond,color_single,颜色,,,,,,,,,,,0,0,0,0,0,0,0,0,0,4,4,4,,,,,,,,,,,,,,,,,,,,,,,,,,,,,,,,,,,91.35407880001003,91.5538134999806,91.53735980001511,91.83847489999607,91.83847489999607,None,92.33842739998363,None,k,1,0.6972829999867827,92.33842739998363,None,None,None,93.05613700003596,None,,,,,,,,,,,,,,,,,,,,,11025,2,1,2024_Jun_03_1626,stroop_task_switching2,2021.2.3,60.093914757527806,
condition/block_color,instruction/instr_color,instruction/i8,XX,yellow,j,diamond,color_single,颜色,,,,,,,,,,,0,0,0,0,0,0,0,0,0,5,5,5,,,,,,,,,,,,,,,,,,,,,,,,,,,,,,,,,,,94.05739080003696,94.25837070000125,94.24104520003311,94.54236530000344,94.54236530000344,None,95.04269640002167,None,j,1,1.1443025000044145,95.04269640002167,None,None,None,96.21086550003383,None,,,,,,,,,,,,,,,,,,,,,11025,2,1,2024_Jun_03_1626,stroop_task_switching2,2021.2.3,60.093914757527806,
condition/block_color,instruction/instr_color,instruction/i8,XX,blue,f,diamond,color_single,颜色,,,,,,,,,,,0,0,0,0,0,0,0,0,0,6,6,6,,,,,,,,,,,,,,,,,,,,,,,,,,,,,,,,,,,97.2122459000093,97.41279129998293,97.39598760002991,97.69656150002265,97.69656150002265,None,98.19714589999057,None,f,1,0.534073700022418,98.19714589999057,None,None,None,98.74811640003463,None,,,,,,,,,,,,,,,,,,,,,11025,2,1,2024_Jun_03_1626,stroop_task_switching2,2021.2.3,60.093914757527806,
condition/block_color,instruction/instr_color,instruction/i8,XX,red,d,diamond,color_single,颜色,,,,,,,,,,,0,0,0,0,0,0,0,0,0,7,7,7,,,,,,,,,,,,,,,,,,,,,,,,,,,,,,,,,,,99.74943090003217,99.94976360001601,99.93588240002282,100.25165410002228,100.23414580000099,None,100.73426130000735,None,d,1,0.804651299957186,100.73426130000735,None,None,None,101.5690661999979,None,,,,,,,,,,,,,,,,,,,,,11025,2,1,2024_Jun_03_1626,stroop_task_switching2,2021.2.3,60.093914757527806,
condition/block_color,instruction/instr_color,instruction/i8,XX,yellow,j,diamond,color_single,颜色,,,,,,,,,,,0,0,0,0,0,0,0,0,0,8,8,8,,,,,,,,,,,,,,,,,,,,,,,,,,,,,,,,,,,102.57034750003368,102.77084220002871,102.75403650000226,103.05526150000514,103.05526150000514,None,103.55542059999425,None,j,1,1.1275892999838106,103.55542059999425,None,None,None,104.70691619999707,None,,,,,,,,,,,,,,,,,,,,,11025,2,1,2024_Jun_03_1626,stroop_task_switching2,2021.2.3,60.093914757527806,
condition/block_color,instruction/instr_color,instruction/i8,XX,blue,f,diamond,color_single,颜色,,,,,,,,,,,0,0,0,0,0,0,0,0,0,9,9,9,,,,,,,,,,,,,,,,,,,,,,,,,,,,,,,,,,,105.70857760001672,105.91007749998244,105.89218490000349,106.19268480001483,106.19268480001483,None,106.69338780001272,None,f,1,0.5259134999942034,106.69338780001272,None,None,None,107.24421520001488,None,,,,,,,,,,,,,,,,,,,,,11025,2,1,2024_Jun_03_1626,stroop_task_switching2,2021.2.3,60.093914757527806,
condition/block_color,instruction/instr_color,instruction/i8,XX,red,d,diamond,color_single,颜色,,,,,,,,,,,0,0,0,0,0,0,0,0,0,10,10,10,,,,,,,,,,,,,,,,,,,,,,,,,,,,,,,,,,,108.24589820002439,108.44671079999534,108.42934720002813,108.72995399998035,108.72995399998035,None,109.23067399999127,None,d,1,0.5088102999725379,109.23067399999127,None,None,None,109.76500280003529,None,,,,,,,,,,,,,,,,,,,,,11025,2,1,2024_Jun_03_1626,stroop_task_switching2,2021.2.3,60.093914757527806,
condition/block_color,instruction/instr_color,instruction/i8,XX,green,k,diamond,color_single,颜色,,,,,,,,,,,0,0,0,0,0,0,0,0,0,11,11,11,,,,,,,,,,,,,,,,,,,,,,,,,,,,,,,,,,,110.76596580003388,110.96653370000422,110.9499714000267,111.25039549998473,111.25039549998473,None,111.7512261000229,None,k,1,0.6125553000019863,111.7512261000229,None,None,None,112.38536160002695,None,,,,,,,,,,,,,,,,,,,,,11025,2,1,2024_Jun_03_1626,stroop_task_switching2,2021.2.3,60.093914757527806,
condition/block_color,instruction/instr_color,instruction/i8,XX,blue,f,diamond,color_single,颜色,,,,,,,,,,,0,0,0,0,0,0,0,0,0,12,12,12,,,,,,,,,,,,,,,,,,,,,,,,,,,,,,,,,,,113.38683610002045,113.58868119999534,113.57040060003055,113.87067580001894,113.87067580001894,None,114.3716935000266,None,f,1,0.47997400001622736,114.3716935000266,None,None,None,114.87282899999991,None,,,,,,,,,,,,,,,,,,,,,11025,2,1,2024_Jun_03_1626,stroop_task_switching2,2021.2.3,60.093914757527806,
condition/block_color,instruction/instr_color,instruction/i8,XX,red,d,diamond,color_single,颜色,,,,,,,,,,,0,0,0,0,0,0,0,0,0,13,13,13,,,,,,,,,,,,,,,,,,,,,,,,,,,,,,,,,,,115.87398380000377,116.07612179999705,116.05761389998952,116.35941969999112,116.35941969999112,None,116.85874820000026,None,d,1,0.5126424999907613,116.85874820000026,None,None,None,117.3928692000336,None,,,,,,,,,,,,,,,,,,,,,11025,2,1,2024_Jun_03_1626,stroop_task_switching2,2021.2.3,60.093914757527806,
condition/block_color,instruction/instr_color,instruction/i8,XX,green,k,diamond,color_single,颜色,,,,,,,,,,,0,0,0,0,0,0,0,0,0,14,14,14,,,,,,,,,,,,,,,,,,,,,,,,,,,,,,,,,,,118.39472730003763,118.59562570002163,118.57804019999458,118.87989320000634,118.87989320000634,None,119.3791266999906,None,k,1,0.5606542999739759,119.3791266999906,None,None,None,119.96332769998116,None,,,,,,,,,,,,,,,,,,,,,11025,2,1,2024_Jun_03_1626,stroop_task_switching2,2021.2.3,60.093914757527806,
condition/block_color,instruction/instr_color,instruction/i8,XX,yellow,j,diamond,color_single,颜色,,,,,,,,,,,0,0,0,0,0,0,0,0,0,15,15,15,,,,,,,,,,,,,,,,,,,,,,,,,,,,,,,,,,,120.96563430002425,121.16602740000235,121.14861450000899,121.44912890001433,121.44912890001433,None,121.94960570003605,None,j,1,0.4941433999920264,121.94960570003605,None,None,None,122.46721640002215,None,,,,,,,,,,,,,,,,,,,,,11025,2,1,2024_Jun_03_1626,stroop_task_switching2,2021.2.3,60.093914757527806,
condition/block_color,instruction/instr_color,instruction/i8,XX,red,d,diamond,color_single,颜色,,,,,,,,,,,0,0,0,0,0,0,0,0,0,16,16,16,,,,,,,,,,,,,,,,,,,,,,,,,,,,,,,,,,,123.4685759000131,123.66997640003683,123.65250660001766,123.95382749999408,123.95382749999408,None,124.45358800003305,None,d,1,0.46993810002459213,124.45358800003305,None,None,None,124.95415330003016,None,,,,,,,,,,,,,,,,,,,,,11025,2,1,2024_Jun_03_1626,stroop_task_switching2,2021.2.3,60.093914757527806,
condition/block_color,instruction/instr_color,instruction/i8,XX,green,k,diamond,color_single,颜色,,,,,,,,,,,0,0,0,0,0,0,0,0,0,17,17,17,,,,,,,,,,,,,,,,,,,,,,,,,,,,,,,,,,,125.95585450000362,126.15596320002805,126.1394609999843,126.44042860000627,126.44042860000627,None,126.94052689999808,None,k,1,0.5434200000017881,126.94052689999808,None,None,None,127.50835190003272,None,,,,,,,,,,,,,,,,,,,,,11025,2,1,2024_Jun_03_1626,stroop_task_switching2,2021.2.3,60.093914757527806,
condition/block_color,instruction/instr_color,instruction/i8,XX,yellow,j,diamond,color_single,颜色,,,,,,,,,,,0,0,0,0,0,0,0,0,0,18,18,18,,,,,,,,,,,,,,,,,,,,,,,,,,,,,,,,,,,128.5099748999928,128.71101129997987,128.69334520003758,128.99373789998936,128.99373789998936,None,129.49448870000197,None,j,1,0.9733367000008002,129.49448870000197,None,None,None,130.49595409998437,None,,,,,,,,,,,,,,,,,,,,,11025,2,1,2024_Jun_03_1626,stroop_task_switching2,2021.2.3,60.093914757527806,
condition/block_color,instruction/instr_color,instruction/i8,XX,blue,f,diamond,color_single,颜色,,,,,,,,,,,0,0,0,0,0,0,0,0,0,19,19,19,,,,,,,,,,,,,,,,,,,,,,,,,,,,,,,,,,,131.49728369998047,131.69905200001085,131.68096209998475,131.98206290003145,131.98206290003145,None,132.48224420001497,None,f,1,0.474145199987106,132.48224420001497,None,None,None,132.98327820003033,None,,,,,,,,,,,,,,,,,,,,,11025,2,1,2024_Jun_03_1626,stroop_task_switching2,2021.2.3,60.093914757527806,
condition/block_color,instruction/instr_color,instruction/i8,XX,green,k,diamond,color_single,颜色,,,,,,,,,,,0,0,0,0,0,0,0,0,0,20,20,20,,,,,,,,,,,,,,,,,,,,,,,,,,,,,,,,,,,133.9845825000084,134.18554750003386,134.16809739999007,134.46913209999911,134.46913209999911,None,134.96963659999892,None,k,1,0.8984510999871418,134.96963659999892,None,None,None,135.88720649998868,None,,,,,,,,,,,,,,,,,,,,,11025,2,1,2024_Jun_03_1626,stroop_task_switching2,2021.2.3,60.093914757527806,
condition/block_color,instruction/instr_color,instruction/i8,XX,yellow,j,diamond,color_single,颜色,,,,,,,,,,,0,0,0,0,0,0,0,0,0,21,21,21,,,,,,,,,,,,,,,,,,,,,,,,,,,,,,,,,,,136.8888923000195,137.08966480003437,137.07274670002516,137.3738947000238,137.3738947000238,None,137.8734572000103,None,d,0,0.5948087000288069,137.8734572000103,None,None,None,138.4913878000225,None,,,,,,,,,,,,,,,,,,,,,11025,2,1,2024_Jun_03_1626,stroop_task_switching2,2021.2.3,60.093914757527806,
condition/block_color,instruction/instr_color,instruction/i8,XX,blue,f,diamond,color_single,颜色,,,,,,,,,,,0,0,0,0,0,0,0,0,0,22,22,22,,,,,,,,,,,,,,,,,,,,,,,,,,,,,,,,,,,139.49336700001732,139.69407259998843,139.67653659998905,139.9768225000007,139.9768225000007,None,140.47777120000683,None,f,1,0.6063555000000633,140.47777120000683,None,None,None,141.11190309998346,None,,,,,,,,,,,,,,,,,,,,,11025,2,1,2024_Jun_03_1626,stroop_task_switching2,2021.2.3,60.093914757527806,
condition/block_color,instruction/instr_color,instruction/i8,XX,red,d,diamond,color_single,颜色,,,,,,,,,,,0,0,0,0,0,0,0,0,0,23,23,23,,,,,,,,,,,,,,,,,,,,,,,,,,,,,,,,,,,142.11362760001794,142.31473220000044,142.2969119999907,142.5976481999969,142.5976481999969,None,143.09817180002574,None,d,1,0.474455300020054,143.09817180002574,None,None,None,143.5988808000111,None,,,,,,,,,,,,,,,,,,,,,11025,2,1,2024_Jun_03_1626,stroop_task_switching2,2021.2.3,60.093914757527806,
condition/block_color,instruction/instr_color,instruction/i8,,,,,,,,,,,,,,,,,0,0,0,0,0,0,0,0,,,,,,,,,,,,,,,,,,,,,,,,,,,,,,,,,,,,,,,,,,,,,,,,,,,,,,,,144.61717440001667,None,space,2.884358000010252,144.61717440001667,None,,,,,,,,,,,,,,,11025,2,1,2024_Jun_03_1626,stroop_task_switching2,2021.2.3,60.093914757527806,
condition/block_color,instruction/instr_color,instruction/i8,,,,,,,,,,,,,,,,,0,0,0,0,,,,,,,,,,,,,,,,,,,,,,,,,,,,,,,,,,,,,,,,,,,,,,,,,,,,,,,,,,,,,,,,,,,,,,,,,,,,,,,,11025,2,1,2024_Jun_03_1626,stroop_task_switching2,2021.2.3,60.093914757527806,
condition/block_word,instruction/instr_word,instruction/i9,黄,white,j,square,word_single,单词,0.0032461461866890584,,,,,,,,,,0,1,1,1,0,0,0,0,0,0,0,0,,,,,,,,,,,,,,,,,,,,,147.53831999999238,None,space,4.145308199978899,147.53831999999238,None,152.7128090999904,153.71502479998162,153.71502479998162,154.7163358000107,154.7163358000107,None,151.72893019998446,152.73064190003788,155.73389309999766,155.93510230001993,155.9176473999978,156.21807020000415,156.21807020000415,None,156.7192834999878,None,j,1,1.0691587000037543,156.7192834999878,None,None,None,157.8037879000185,None,,,,,,,,,,,,,,,,,,,,,11025,2,1,2024_Jun_03_1626,stroop_task_switching2,2021.2.3,60.093914757527806,
condition/block_word,instruction/instr_word,instruction/i9,蓝,white,f,square,word_single,单词,0.060540570646362424,,,,,,,,,,0,1,1,1,0,0,0,0,0,1,1,1,,,,,,,,,,,,,,,,,,,,,,,,,,,,,,,,,,,158.80528480000794,159.00658180000028,158.9888437000336,159.2901955000125,159.2901955000125,None,159.79020819999278,None,f,1,0.5265109000029042,159.79020819999278,None,None,None,160.34085829998367,None,,,,,,,,,,,,,,,,,,,,,11025,2,1,2024_Jun_03_1626,stroop_task_switching2,2021.2.3,60.093914757527806,
condition/block_word,instruction/instr_word,instruction/i9,黄,white,j,square,word_single,单词,0.06994067193778963,,,,,,,,,,0,1,1,1,0,0,0,0,0,2,2,2,,,,,,,,,,,,,,,,,,,,,,,,,,,,,,,,,,,161.34277699998347,161.5428161000018,161.52706370002124,161.8264940000372,161.8264940000372,None,162.3274046999868,None,j,1,0.8371696000103839,162.3274046999868,None,None,None,163.19523140002275,None,,,,,,,,,,,,,,,,,,,,,11025,2,1,2024_Jun_03_1626,stroop_task_switching2,2021.2.3,60.093914757527806,
condition/block_word,instruction/instr_word,instruction/i9,蓝,white,f,square,word_single,单词,0.08193765152950094,,,,,,,,,,0,1,1,1,0,0,0,0,0,3,3,3,,,,,,,,,,,,,,,,,,,,,,,,,,,,,,,,,,,164.1968412999995,164.39736160001485,164.38033100002212,164.6809899000218,164.6809899000218,None,165.1816088000196,None,f,1,0.6393624999909662,165.1816088000196,None,None,None,165.84954870003276,None,,,,,,,,,,,,,,,,,,,,,11025,2,1,2024_Jun_03_1626,stroop_task_switching2,2021.2.3,60.093914757527806,
condition/block_word,instruction/instr_word,instruction/i9,红,white,d,square,word_single,单词,0.1279694370605574,,,,,,,,,,0,1,1,1,0,0,0,0,0,4,4,4,,,,,,,,,,,,,,,,,,,,,,,,,,,,,,,,,,,166.85073390003527,167.05095090001123,167.03462849999778,167.33580310002435,167.33580310002435,None,167.83554569998523,None,d,1,0.489412099996116,167.83554569998523,None,None,None,168.35283659998095,None,,,,,,,,,,,,,,,,,,,,,11025,2,1,2024_Jun_03_1626,stroop_task_switching2,2021.2.3,60.093914757527806,
condition/block_word,instruction/instr_word,instruction/i9,红,white,d,square,word_single,单词,0.18345028784879092,,,,,,,,,,0,1,1,1,0,0,0,0,0,5,5,5,,,,,,,,,,,,,,,,,,,,,,,,,,,,,,,,,,,169.3547963000019,169.55493969999952,169.54027870000573,169.83916710002813,169.83916710002813,None,170.33970840001712,None,d,1,0.4973087999969721,170.33970840001712,None,None,None,170.8568285999936,None,,,,,,,,,,,,,,,,,,,,,11025,2,1,2024_Jun_03_1626,stroop_task_switching2,2021.2.3,60.093914757527806,
condition/block_word,instruction/instr_word,instruction/i9,蓝,white,f,square,word_single,单词,0.19920386223101294,,,,,,,,,,0,1,1,1,0,0,0,0,0,6,6,6,,,,,,,,,,,,,,,,,,,,,,,,,,,,,,,,,,,171.85823670000536,172.0587591000367,172.0429543000064,172.34240830002818,172.34240830002818,None,172.84331830003066,None,f,1,0.48984250001376495,172.84331830003066,None,None,None,173.36041100003058,None,,,,,,,,,,,,,,,,,,,,,11025,2,1,2024_Jun_03_1626,stroop_task_switching2,2021.2.3,60.093914757527806,
condition/block_word,instruction/instr_word,instruction/i9,蓝,white,f,square,word_single,单词,0.26360599864925405,,,,,,,,,,0,1,1,1,0,0,0,0,0,7,7,7,,,,,,,,,,,,,,,,,,,,,,,,,,,,,,,,,,,174.36237370001618,174.56327169999713,174.54584610002348,174.8463533000322,174.8463533000322,None,175.34712910000235,None,f,1,0.6020289000007324,175.34712910000235,None,None,None,175.98128750000615,None,,,,,,,,,,,,,,,,,,,,,11025,2,1,2024_Jun_03_1626,stroop_task_switching2,2021.2.3,60.093914757527806,
condition/block_word,instruction/instr_word,instruction/i9,蓝,white,f,square,word_single,单词,0.358985675745526,,,,,,,,,,0,1,1,1,0,0,0,0,0,8,8,8,,,,,,,,,,,,,,,,,,,,,,,,,,,,,,,,,,,176.9825770999887,177.18403740000213,177.16622150002513,177.4678507000208,177.4678507000208,None,177.96768360002898,None,f,1,0.4935310000437312,177.96768360002898,None,None,None,178.4850640000077,None,,,,,,,,,,,,,,,,,,,,,11025,2,1,2024_Jun_03_1626,stroop_task_switching2,2021.2.3,60.093914757527806,
condition/block_word,instruction/instr_word,instruction/i9,绿,white,k,square,word_single,单词,0.36496733802487347,,,,,,,,,,0,1,1,1,0,0,0,0,0,9,9,9,,,,,,,,,,,,,,,,,,,,,,,,,,,,,,,,,,,179.4865283999825,179.68786060001003,179.67048030003207,179.97067170002265,179.97067170002265,None,180.47126469999785,None,k,1,0.55031829996733,180.47126469999785,None,None,None,181.03860110003734,None,,,,,,,,,,,,,,,,,,,,,11025,2,1,2024_Jun_03_1626,stroop_task_switching2,2021.2.3,60.093914757527806,
condition/block_word,instruction/instr_word,instruction/i9,黄,white,j,square,word_single,单词,0.3743513623756727,,,,,,,,,,0,1,1,1,0,0,0,0,0,10,10,10,,,,,,,,,,,,,,,,,,,,,,,,,,,,,,,,,,,182.04087299999082,182.24114840000402,182.22558590001427,182.54243470000802,182.52452460001223,None,183.02504360000603,None,j,1,0.40440629998920485,183.02504360000603,None,None,None,183.45927220000885,None,,,,,,,,,,,,,,,,,,,,,11025,2,1,2024_Jun_03_1626,stroop_task_switching2,2021.2.3,60.093914757527806,
condition/block_word,instruction/instr_word,instruction/i9,红,white,d,square,word_single,单词,0.3894803852598544,,,,,,,,,,0,1,1,1,0,0,0,0,0,11,11,11,,,,,,,,,,,,,,,,,,,,,,,,,,,,,,,,,,,184.4607957000262,184.66237580002053,184.6443089999957,184.9451617000159,184.9451617000159,None,185.44565010000952,None,d,1,0.391899399983231,185.44565010000952,None,None,None,185.86295300000347,None,,,,,,,,,,,,,,,,,,,,,11025,2,1,2024_Jun_03_1626,stroop_task_switching2,2021.2.3,60.093914757527806,
condition/block_word,instruction/instr_word,instruction/i9,绿,white,k,square,word_single,单词,0.5393759672408067,,,,,,,,,,0,1,1,1,0,0,0,0,0,12,12,12,,,,,,,,,,,,,,,,,,,,,,,,,,,,,,,,,,,186.86415219999617,187.06487420003396,187.0476507000276,187.3484376000124,187.3484376000124,None,187.84908870002255,None,k,1,0.4605040000169538,187.84908870002255,None,None,None,188.33294130000286,None,,,,,,,,,,,,,,,,,,,,,11025,2,1,2024_Jun_03_1626,stroop_task_switching2,2021.2.3,60.093914757527806,
condition/block_word,instruction/instr_word,instruction/i9,蓝,white,f,square,word_single,单词,0.5995731954831104,,,,,,,,,,0,1,1,1,0,0,0,0,0,13,13,13,,,,,,,,,,,,,,,,,,,,,,,,,,,,,,,,,,,189.33457070001168,189.5357547000167,189.51849940000102,189.81940520001808,189.81940520001808,None,190.31956630002242,None,f,1,0.5261486999806948,190.31956630002242,None,None,None,190.87029160000384,None,,,,,,,,,,,,,,,,,,,,,11025,2,1,2024_Jun_03_1626,stroop_task_switching2,2021.2.3,60.093914757527806,
condition/block_word,instruction/instr_word,instruction/i9,红,white,d,square,word_single,单词,0.6298674479151414,,,,,,,,,,0,1,1,1,0,0,0,0,0,14,14,14,,,,,,,,,,,,,,,,,,,,,,,,,,,,,,,,,,,191.8716562000336,192.07204450003337,192.05537329998333,192.35612090001814,192.35612090001814,None,192.85662829998182,None,d,1,0.44479899998987094,192.85662829998182,None,None,None,193.32424240000546,None,,,,,,,,,,,,,,,,,,,,,11025,2,1,2024_Jun_03_1626,stroop_task_switching2,2021.2.3,60.093914757527806,
condition/block_word,instruction/instr_word,instruction/i9,红,white,d,square,word_single,单词,0.7389942282348904,,,,,,,,,,0,1,1,1,0,0,0,0,0,15,15,15,,,,,,,,,,,,,,,,,,,,,,,,,,,,,,,,,,,194.3257472999976,194.52586290001636,194.50944890000392,194.80983370001195,194.80983370001195,None,195.3101276999805,None,d,1,0.6162513999734074,195.3101276999805,None,None,None,195.94457260001218,None,,,,,,,,,,,,,,,,,,,,,11025,2,1,2024_Jun_03_1626,stroop_task_switching2,2021.2.3,60.093914757527806,
condition/block_word,instruction/instr_word,instruction/i9,绿,white,k,square,word_single,单词,0.7550853947239682,,,,,,,,,,0,1,1,1,0,0,0,0,0,16,16,16,,,,,,,,,,,,,,,,,,,,,,,,,,,,,,,,,,,196.94629960000748,197.14635200001067,197.1297119000228,197.43051640002523,197.43051640002523,None,197.93097859999398,None,k,1,0.5708559000049718,197.93097859999398,None,None,None,198.53191790002165,None,,,,,,,,,,,,,,,,,,,,,11025,2,1,2024_Jun_03_1626,stroop_task_switching2,2021.2.3,60.093914757527806,
condition/block_word,instruction/instr_word,instruction/i9,绿,white,k,square,word_single,单词,0.8019302780428206,,,,,,,,,,0,1,1,1,0,0,0,0,0,17,17,17,,,,,,,,,,,,,,,,,,,,,,,,,,,,,,,,,,,199.53330930002267,199.7347142000217,199.71710870001698,200.0197899999912,200.0197899999912,None,200.53484600002412,None,k,1,0.5270976999890991,200.53484600002412,None,None,None,201.08566390001215,None,,,,,,,,,,,,,,,,,,,,,11025,2,1,2024_Jun_03_1626,stroop_task_switching2,2021.2.3,60.093914757527806,
condition/block_word,instruction/instr_word,instruction/i9,绿,white,k,square,word_single,单词,0.8110702914095343,,,,,,,,,,0,1,1,1,0,0,0,0,0,18,18,18,,,,,,,,,,,,,,,,,,,,,,,,,,,,,,,,,,,202.08708140003728,202.28945630003,202.2712779000285,202.57188070000848,202.57188070000848,None,203.07203959999606,None,k,1,0.4939337999676354,203.07203959999606,None,None,None,203.5893946000142,None,,,,,,,,,,,,,,,,,,,,,11025,2,1,2024_Jun_03_1626,stroop_task_switching2,2021.2.3,60.093914757527806,
condition/block_word,instruction/instr_word,instruction/i9,黄,white,j,square,word_single,单词,0.8176594937590999,,,,,,,,,,0,1,1,1,0,0,0,0,0,19,19,19,,,,,,,,,,,,,,,,,,,,,,,,,,,,,,,,,,,204.59166610002285,204.7935152000282,204.77469540003221,205.07543860003352,205.07543860003352,None,205.57559900003253,None,d,0,0.5024305999977514,205.57559900003253,None,None,None,206.09330609999597,None,,,,,,,,,,,,,,,,,,,,,11025,2,1,2024_Jun_03_1626,stroop_task_switching2,2021.2.3,60.093914757527806,
condition/block_word,instruction/instr_word,instruction/i9,红,white,d,square,word_single,单词,0.8955794421104841,,,,,,,,,,0,1,1,1,0,0,0,0,0,20,20,20,,,,,,,,,,,,,,,,,,,,,,,,,,,,,,,,,,,207.0949293000158,207.29612000001362,207.2782836999977,207.5800559000345,207.5800559000345,None,208.07964850001736,None,d,1,0.502245000039693,208.07964850001736,None,None,None,208.59726070001489,None,,,,,,,,,,,,,,,,,,,,,11025,2,1,2024_Jun_03_1626,stroop_task_switching2,2021.2.3,60.093914757527806,
condition/block_word,instruction/instr_word,instruction/i9,绿,white,k,square,word_single,单词,0.9113598052474129,,,,,,,,,,0,1,1,1,0,0,0,0,0,21,21,21,,,,,,,,,,,,,,,,,,,,,,,,,,,,,,,,,,,209.59885609999765,209.79902650002623,209.7834626000258,210.08257050003158,210.08257050003158,None,210.58329600002617,None,k,1,0.7028232999728061,210.58329600002617,None,None,None,211.3010079000378,None,,,,,,,,,,,,,,,,,,,,,11025,2,1,2024_Jun_03_1626,stroop_task_switching2,2021.2.3,60.093914757527806,
condition/block_word,instruction/instr_word,instruction/i9,黄,white,j,square,word_single,单词,0.9215930958042953,,,,,,,,,,0,1,1,1,0,0,0,0,0,22,22,22,,,,,,,,,,,,,,,,,,,,,,,,,,,,,,,,,,,212.3027133999858,212.5038954000338,212.4862792000058,212.78682179999305,212.78682179999305,None,213.2873580000014,None,j,1,0.4469154999824241,213.2873580000014,None,None,None,213.75486679997994,None,,,,,,,,,,,,,,,,,,,,,11025,2,1,2024_Jun_03_1626,stroop_task_switching2,2021.2.3,60.093914757527806,
condition/block_word,instruction/instr_word,instruction/i9,黄,white,j,square,word_single,单词,0.9493525498837774,,,,,,,,,,0,1,1,1,0,0,0,0,0,23,23,23,,,,,,,,,,,,,,,,,,,,,,,,,,,,,,,,,,,214.75610759999836,214.95767450000858,214.93979249999393,215.2408054000116,215.2408054000116,None,215.74116819998017,None,j,1,0.5530648000421934,215.74116819998017,None,None,None,216.32528930000262,None,,,,,,,,,,,,,,,,,,,,,11025,2,1,2024_Jun_03_1626,stroop_task_switching2,2021.2.3,60.093914757527806,
condition/block_word,instruction/instr_word,instruction/i9,,,,,,,,,,,,,,,,,0,1,1,1,0,0,0,0,,,,,,,,,,,,,,,,,,,,,,,,,,,,,,,,,,,,,,,,,,,,,,,,,,,,,,,,217.32668810000177,None,space,3.967479299986735,217.32668810000177,None,,,,,,,,,,,,,,,11025,2,1,2024_Jun_03_1626,stroop_task_switching2,2021.2.3,60.093914757527806,
condition/block_word,instruction/instr_word,instruction/i9,,,,,,,,,,,,,,,,,0,1,1,1,,,,,,,,,,,,,,,,,,,,,,,,,,,,,,,,,,,,,,,,,,,,,,,,,,,,,,,,,,,,,,,,,,,,,,,,,,,,,,,,11025,2,1,2024_Jun_03_1626,stroop_task_switching2,2021.2.3,60.093914757527806,
condition/block_mixed,instruction/instr_mixed,instruction/i10,蓝,red,d,diamond,color_mix,颜色,,incompatible,0,,,,,,,,0,2,2,2,0,0,0,0,0,0,0,0,,,,,,,,,,,,,,,,,,,,,221.33302299998468,None,space,15.757859600009397,221.33302299998468,None,238.10872630000813,239.11043830000563,239.11043830000563,240.11225960002048,240.11225960002048,None,237.12342920002993,238.1250364999869,241.1463492999901,241.34728560002986,241.32987509999657,241.63133250002284,241.63133250002284,None,242.11421379999956,None,d,1,0.701372999988962,242.11421379999956,None,None,None,242.83181330002844,None,,,,,,,,,,,,,,,,,,,,,11025,2,1,2024_Jun_03_1626,stroop_task_switching2,2021.2.3,60.093914757527806,
condition/block_mixed,instruction/instr_mixed,instruction/i10,绿,yellow,j,diamond,color_mix,颜色,,incompatible,1,,,,,,,,0,2,2,2,0,0,0,0,0,1,1,1,,,,,,,,,,,,,,,,,,,,,,,,,,,,,,,,,,,243.83375679998426,244.0351415000041,244.0171277000336,244.31756370002404,244.31756370002404,None,244.81835399998818,None,j,1,0.7564955999841914,244.81835399998818,None,None,None,245.60299410001608,None,,,,,,,,,,,,,,,,,,,,,11025,2,1,2024_Jun_03_1626,stroop_task_switching2,2021.2.3,60.093914757527806,
condition/block_mixed,instruction/instr_mixed,instruction/i10,红,green,k,diamond,color_mix,颜色,,incompatible,1,,,,,,,,0,2,2,2,0,0,0,0,0,2,2,2,,,,,,,,,,,,,,,,,,,,,,,,,,,,,,,,,,,246.60439860000042,246.80532410001615,246.78803649998736,247.08871019998332,247.08871019998332,None,247.58928509999532,None,k,1,1.449780099967029,247.58928509999532,None,None,None,249.05785240000114,None,,,,,,,,,,,,,,,,,,,,,11025,2,1,2024_Jun_03_1626,stroop_task_switching2,2021.2.3,60.093914757527806,
condition/block_mixed,instruction/instr_mixed,instruction/i10,蓝,red,d,diamond,color_mix,颜色,,incompatible,1,,,,,,,,0,2,2,2,0,0,0,0,0,3,3,3,,,,,,,,,,,,,,,,,,,,,,,,,,,,,,,,,,,250.05986420001136,250.2604528000229,250.24312729999656,250.5437597000273,250.5437597000273,None,251.0445020000334,None,d,1,0.8507188999792561,251.0445020000334,None,None,None,251.91233900003135,None,,,,,,,,,,,,,,,,,,,,,11025,2,1,2024_Jun_03_1626,stroop_task_switching2,2021.2.3,60.093914757527806,
condition/block_mixed,instruction/instr_mixed,instruction/i10,红,blue,f,diamond,color_mix,颜色,,incompatible,1,,,,,,,,0,2,2,2,0,0,0,0,0,4,4,4,,,,,,,,,,,,,,,,,,,,,,,,,,,,,,,,,,,252.9139952000114,253.1140807000338,253.09817200002726,253.39796390000265,253.39796390000265,None,253.89869230001932,None,f,1,0.7011449999990873,253.89869230001932,None,None,None,254.6163758999901,None,,,,,,,,,,,,,,,,,,,,,11025,2,1,2024_Jun_03_1626,stroop_task_switching2,2021.2.3,60.093914757527806,
condition/block_mixed,instruction/instr_mixed,instruction/i10,红,blue,d,square,color_mix,单词,,incompatible,2,,,,,,,,0,2,2,2,0,0,0,0,0,5,5,5,,,,,,,,,,,,,,,,,,,,,,,,,,,,,,,,,,,255.61804500001017,255.81917710002745,255.80153990001418,256.10260610003024,256.10260610003024,None,256.60272120003356,None,d,1,0.548492600035388,256.60272120003356,None,None,None,257.17014250002103,None,,,,,,,,,,,,,,,,,,,,,11025,2,1,2024_Jun_03_1626,stroop_task_switching2,2021.2.3,60.093914757527806,
condition/block_mixed,instruction/instr_mixed,instruction/i10,红,yellow,j,diamond,color_mix,颜色,,incompatible,2,,,,,,,,0,2,2,2,0,0,0,0,0,6,6,6,,,,,,,,,,,,,,,,,,,,,,,,,,,,,,,,,,,258.1718198999879,258.37371559999883,258.355488900037,258.6557703000144,258.6557703000144,None,259.1568219999899,None,j,1,0.7705341000109911,259.1568219999899,None,None,None,259.9578729000059,None,,,,,,,,,,,,,,,,,,,,,11025,2,1,2024_Jun_03_1626,stroop_task_switching2,2021.2.3,60.093914757527806,
condition/block_mixed,instruction/instr_mixed,instruction/i10,红,yellow,d,square,color_mix,单词,,incompatible,2,,,,,,,,0,2,2,2,0,0,0,0,0,7,7,7,,,,,,,,,,,,,,,,,,,,,,,,,,,,,,,,,,,260.9593732000212,261.16092579998076,261.14279479999095,261.4433161999914,261.4433161999914,None,261.9439992000116,None,j,0,0.7277421000180766,261.9439992000116,None,None,None,262.69527379999636,None,,,,,,,,,,,,,,,,,,,,,11025,2,1,2024_Jun_03_1626,stroop_task_switching2,2021.2.3,60.093914757527806,
condition/block_mixed,instruction/instr_mixed,instruction/i10,绿,blue,k,square,color_mix,单词,,incompatible,1,,,,,,,,0,2,2,2,0,0,0,0,0,8,8,8,,,,,,,,,,,,,,,,,,,,,,,,,,,,,,,,,,,263.6967408999917,263.8974479000317,263.8805290000164,264.18232200003695,264.18232200003695,None,264.6815620000125,None,k,1,2.358362599974498,264.6815620000125,None,None,None,267.0684595000348,None,,,,,,,,,,,,,,,,,,,,,11025,2,1,2024_Jun_03_1626,stroop_task_switching2,2021.2.3,60.093914757527806,
condition/block_mixed,instruction/instr_mixed,instruction/i10,蓝,green,k,diamond,color_mix,颜色,,incompatible,2,,,,,,,,0,2,2,2,0,0,0,0,0,9,9,9,,,,,,,,,,,,,,,,,,,,,,,,,,,,,,,,,,,268.0706847999827,268.27071970002726,268.25363890000153,268.55449980002595,268.55449980002595,None,269.05465970002115,None,k,1,0.8414707000483759,269.05465970002115,None,None,None,269.92291289998684,None,,,,,,,,,,,,,,,,,,,,,11025,2,1,2024_Jun_03_1626,stroop_task_switching2,2021.2.3,60.093914757527806,
condition/block_mixed,instruction/instr_mixed,instruction/i10,蓝,yellow,f,square,color_mix,单词,,incompatible,2,,,,,,,,0,2,2,2,0,0,0,0,0,10,10,10,,,,,,,,,,,,,,,,,,,,,,,,,,,,,,,,,,,270.92447640001774,271.12583480001194,271.1079947000253,271.40849250002066,271.40849250002066,None,271.9091051000287,None,f,1,0.7869235000107437,271.9091051000287,None,None,None,272.72686819999944,None,,,,,,,,,,,,,,,,,,,,,11025,2,1,2024_Jun_03_1626,stroop_task_switching2,2021.2.3,60.093914757527806,
condition/block_mixed,instruction/instr_mixed,instruction/i10,蓝,green,f,square,color_mix,单词,,incompatible,1,,,,,,,,0,2,2,2,0,0,0,0,0,11,11,11,,,,,,,,,,,,,,,,,,,,,,,,,,,,,,,,,,,273.72855150001124,273.9297139000264,273.912269500026,274.21408890001476,274.21408890001476,None,274.71343639999395,None,f,1,2.0866162999882363,274.71343639999395,None,None,None,276.81657020002604,None,,,,,,,,,,,,,,,,,,,,,11025,2,1,2024_Jun_03_1626,stroop_task_switching2,2021.2.3,60.093914757527806,
condition/block_mixed,instruction/instr_mixed,instruction/i10,绿,yellow,k,square,color_mix,单词,,incompatible,1,,,,,,,,0,2,2,2,0,0,0,0,0,12,12,12,,,,,,,,,,,,,,,,,,,,,,,,,,,,,,,,,,,277.81813880003756,278.01874750002753,278.002899300016,278.3034040000057,278.3034040000057,None,278.8027408000198,None,k,1,0.5332163000130095,278.8027408000198,None,None,None,279.35366399999475,None,,,,,,,,,,,,,,,,,,,,,11025,2,1,2024_Jun_03_1626,stroop_task_switching2,2021.2.3,60.093914757527806,
condition/block_mixed,instruction/instr_mixed,instruction/i10,绿,blue,f,diamond,color_mix,颜色,,incompatible,2,,,,,,,,0,2,2,2,0,0,0,0,0,13,13,13,,,,,,,,,,,,,,,,,,,,,,,,,,,,,,,,,,,280.3552902000374,280.5561900000321,280.5388691999833,280.83924360002857,280.83924360002857,None,281.33991740003694,None,f,1,0.49220759997842833,281.33991740003694,None,None,None,281.85749630001374,None,,,,,,,,,,,,,,,,,,,,,11025,2,1,2024_Jun_03_1626,stroop_task_switching2,2021.2.3,60.093914757527806,
condition/block_mixed,instruction/instr_mixed,instruction/i10,黄,red,j,square,color_mix,单词,,incompatible,2,,,,,,,,0,2,2,2,0,0,0,0,0,14,14,14,,,,,,,,,,,,,,,,,,,,,,,,,,,,,,,,,,,282.8588878000155,283.0612558000139,283.0425779999932,283.3430756999878,283.3430756999878,None,283.84384560002945,None,j,1,0.6443418000126258,283.84384560002945,None,None,None,284.5114814999979,None,,,,,,,,,,,,,,,,,,,,,11025,2,1,2024_Jun_03_1626,stroop_task_switching2,2021.2.3,60.093914757527806,
condition/block_mixed,instruction/instr_mixed,instruction/i10,蓝,yellow,j,diamond,color_mix,颜色,,incompatible,2,,,,,,,,0,2,2,2,0,0,0,0,0,15,15,15,,,,,,,,,,,,,,,,,,,,,,,,,,,,,,,,,,,285.51307330001146,285.7133796000271,285.69672609999543,285.9969975000131,285.9969975000131,None,286.497663200018,None,j,1,1.0386011999798939,286.497663200018,None,None,None,287.5661190000246,None,,,,,,,,,,,,,,,,,,,,,11025,2,1,2024_Jun_03_1626,stroop_task_switching2,2021.2.3,60.093914757527806,
condition/block_mixed,instruction/instr_mixed,instruction/i10,黄,red,d,diamond,color_mix,颜色,,incompatible,1,,,,,,,,0,2,2,2,0,0,0,0,0,16,16,16,,,,,,,,,,,,,,,,,,,,,,,,,,,,,,,,,,,288.5678398000309,288.76918549998663,288.75119929999346,289.0516830999986,289.0516830999986,None,289.5524707000004,None,d,1,0.5997477999771945,289.5524707000004,None,None,None,290.1700176000013,None,,,,,,,,,,,,,,,,,,,,,11025,2,1,2024_Jun_03_1626,stroop_task_switching2,2021.2.3,60.093914757527806,
condition/block_mixed,instruction/instr_mixed,instruction/i10,绿,red,k,square,color_mix,单词,,incompatible,2,,,,,,,,0,2,2,2,0,0,0,0,0,17,17,17,,,,,,,,,,,,,,,,,,,,,,,,,,,,,,,,,,,291.17166140000336,291.3727325000218,291.35519510001177,291.6554053000291,291.6554053000291,None,292.15629379998427,None,k,1,0.6197826000279747,292.15629379998427,None,None,None,292.80732590000844,None,,,,,,,,,,,,,,,,,,,,,11025,2,1,2024_Jun_03_1626,stroop_task_switching2,2021.2.3,60.093914757527806,
condition/block_mixed,instruction/instr_mixed,instruction/i10,红,green,d,square,color_mix,单词,,incompatible,1,,,,,,,,0,2,2,2,0,0,0,0,0,18,18,18,,,,,,,,,,,,,,,,,,,,,,,,,,,,,,,,,,,293.8087067999877,294.01023040001746,293.99231960001634,294.29370520001976,294.29370520001976,None,294.79368430003524,None,d,1,0.5588035999680869,294.79368430003524,None,None,None,295.3778323000297,None,,,,,,,,,,,,,,,,,,,,,11025,2,1,2024_Jun_03_1626,stroop_task_switching2,2021.2.3,60.093914757527806,
condition/block_mixed,instruction/instr_mixed,instruction/i10,黄,blue,f,diamond,color_mix,颜色,,incompatible,2,,,,,,,,0,2,2,2,0,0,0,0,0,19,19,19,,,,,,,,,,,,,,,,,,,,,,,,,,,,,,,,,,,296.37926389998756,296.5801117999945,296.56280260003405,296.86359830002766,296.86359830002766,None,297.3645649999962,None,f,1,0.5403039999655448,297.3645649999962,None,None,None,297.93166950001614,None,,,,,,,,,,,,,,,,,,,,,11025,2,1,2024_Jun_03_1626,stroop_task_switching2,2021.2.3,60.093914757527806,
condition/block_mixed,instruction/instr_mixed,instruction/i10,黄,green,k,diamond,color_mix,颜色,,incompatible,1,,,,,,,,0,2,2,2,0,0,0,0,0,20,20,20,,,,,,,,,,,,,,,,,,,,,,,,,,,,,,,,,,,298.93325800000457,299.1344925999874,299.1172077000374,299.4189311999944,299.4189311999944,None,299.9180999000091,None,f,0,1.402876499982085,299.9180999000091,None,None,None,301.3367392999935,None,,,,,,,,,,,,,,,,,,,,,11025,2,1,2024_Jun_03_1626,stroop_task_switching2,2021.2.3,60.093914757527806,
condition/block_mixed,instruction/instr_mixed,instruction/i10,黄,green,j,square,color_mix,单词,,incompatible,2,,,,,,,,0,2,2,2,0,0,0,0,0,21,21,21,,,,,,,,,,,,,,,,,,,,,,,,,,,,,,,,,,,302.3386722999858,302.53935079998337,302.5220372999902,302.8232967000222,302.8232967000222,None,303.3235859000124,None,j,1,0.9970849999808706,303.3235859000124,None,None,None,304.34141570003703,None,,,,,,,,,,,,,,,,,,,,,11025,2,1,2024_Jun_03_1626,stroop_task_switching2,2021.2.3,60.093914757527806,
condition/block_mixed,instruction/instr_mixed,instruction/i10,黄,blue,j,square,color_mix,单词,,incompatible,1,,,,,,,,0,2,2,2,0,0,0,0,0,22,22,22,,,,,,,,,,,,,,,,,,,,,,,,,,,,,,,,,,,305.3429645000142,305.54370700003346,305.52658270002576,305.8269681999809,305.8269681999809,None,306.32792360003805,None,j,1,1.248684999998659,306.32792360003805,None,None,None,307.5962564999936,None,,,,,,,,,,,,,,,,,,,,,11025,2,1,2024_Jun_03_1626,stroop_task_switching2,2021.2.3,60.093914757527806,
condition/block_mixed,instruction/instr_mixed,instruction/i10,蓝,red,f,square,color_mix,单词,,incompatible,1,,,,,,,,0,2,2,2,0,0,0,0,0,23,23,23,,,,,,,,,,,,,,,,,,,,,,,,,,,,,,,,,,,308.59825039998395,308.7992735999869,308.7814660000149,309.08209239999996,309.08209239999996,None,309.5824663999956,None,f,1,0.5861494999844581,309.5824663999956,None,None,None,310.2002184999874,None,,,,,,,,,,,,,,,,,,,,,11025,2,1,2024_Jun_03_1626,stroop_task_switching2,2021.2.3,60.093914757527806,
condition/block_mixed,instruction/instr_mixed,instruction/i10,绿,red,d,diamond,color_mix,颜色,,incompatible,2,,,,,,,,0,2,2,2,0,0,0,0,0,24,24,24,,,,,,,,,,,,,,,,,,,,,,,,,,,,,,,,,,,311.2018017999944,311.40317980002146,311.38541799999075,311.68614310002886,311.68614310002886,None,312.18656970001757,None,d,1,0.7745026999618858,312.18656970001757,None,None,None,312.98767910001334,None,,,,,,,,,,,,,,,,,,,,,11025,2,1,2024_Jun_03_1626,stroop_task_switching2,2021.2.3,60.093914757527806,
condition/block_mixed,instruction/instr_mixed,instruction/i10,绿,green,k,diamond,color_mix,颜色,,compatible,1,,,,,,,,0,2,2,2,0,0,0,0,0,25,25,25,,,,,,,,,,,,,,,,,,,,,,,,,,,,,,,,,,,313.98915720003424,314.189863800013,314.1728090000106,314.47427700000117,314.47427700000117,None,314.97429129999364,None,k,1,0.9628964000148699,314.97429129999364,None,None,None,315.95896509999875,None,,,,,,,,,,,,,,,,,,,,,11025,2,1,2024_Jun_03_1626,stroop_task_switching2,2021.2.3,60.093914757527806,
condition/block_mixed,instruction/instr_mixed,instruction/i10,蓝,blue,f,diamond,color_mix,颜色,,compatible,1,,,,,,,,0,2,2,2,0,0,0,0,0,26,26,26,,,,,,,,,,,,,,,,,,,,,,,,,,,,,,,,,,,316.9604407000006,317.16203970002243,317.144134400005,317.4445160999894,317.4445160999894,None,317.9456965000136,None,f,1,0.551370799948927,317.9456965000136,None,None,None,318.5128460000269,None,,,,,,,,,,,,,,,,,,,,,11025,2,1,2024_Jun_03_1626,stroop_task_switching2,2021.2.3,60.093914757527806,
condition/block_mixed,instruction/instr_mixed,instruction/i10,绿,green,k,square,color_mix,单词,,compatible,2,,,,,,,,0,2,2,2,0,0,0,0,0,27,27,27,,,,,,,,,,,,,,,,,,,,,,,,,,,,,,,,,,,319.514316899993,319.7162750000134,319.69814310001675,319.9983843000373,319.9983843000373,None,320.49914060003357,None,j,0,0.4381619000341743,320.49914060003357,None,None,None,320.96654290001607,None,,,,,,,,,,,,,,,,,,,,,11025,2,1,2024_Jun_03_1626,stroop_task_switching2,2021.2.3,60.093914757527806,
condition/block_mixed,instruction/instr_mixed,instruction/i10,绿,green,k,square,color_mix,单词,,compatible,1,,,,,,,,0,2,2,2,0,0,0,0,0,28,28,28,,,,,,,,,,,,,,,,,,,,,,,,,,,,,,,,,,,321.96802209998714,322.1682512999978,322.1529345000163,322.4697484000353,322.45191070000874,None,322.95276890002424,None,k,1,0.37653080001473427,322.95276890002424,None,None,None,323.3535676000174,None,,,,,,,,,,,,,,,,,,,,,11025,2,1,2024_Jun_03_1626,stroop_task_switching2,2021.2.3,60.093914757527806,
condition/block_mixed,instruction/instr_mixed,instruction/i10,蓝,blue,f,square,color_mix,单词,,compatible,1,,,,,,,,0,2,2,2,0,0,0,0,0,29,29,29,,,,,,,,,,,,,,,,,,,,,,,,,,,,,,,,,,,324.3548988000257,324.55599840002833,324.53856230003294,324.83881390001625,324.83881390001625,None,325.34007959999144,None,f,1,0.5251091999816708,325.34007959999144,None,None,None,325.8905403999961,None,,,,,,,,,,,,,,,,,,,,,11025,2,1,2024_Jun_03_1626,stroop_task_switching2,2021.2.3,60.093914757527806,
condition/block_mixed,instruction/instr_mixed,instruction/i10,黄,yellow,j,diamond,color_mix,颜色,,compatible,2,,,,,,,,0,2,2,2,0,0,0,0,0,30,30,30,,,,,,,,,,,,,,,,,,,,,,,,,,,,,,,,,,,326.8922808000352,327.0927540999837,327.075640199997,327.37656980002066,327.37656980002066,None,327.87717890000204,None,j,1,0.9000442000105977,327.87717890000204,None,None,None,328.7951038000174,None,,,,,,,,,,,,,,,,,,,,,11025,2,1,2024_Jun_03_1626,stroop_task_switching2,2021.2.3,60.093914757527806,
condition/block_mixed,instruction/instr_mixed,instruction/i10,绿,green,k,square,color_mix,单词,,compatible,2,,,,,,,,0,2,2,2,0,0,0,0,0,31,31,31,,,,,,,,,,,,,,,,,,,,,,,,,,,,,,,,,,,329.79649139998946,329.99686880002264,329.98012690001633,330.2805700000026,330.2805700000026,None,330.781306400022,None,k,1,0.6121161000337452,330.781306400022,None,None,None,331.41547860001447,None,,,,,,,,,,,,,,,,,,,,,11025,2,1,2024_Jun_03_1626,stroop_task_switching2,2021.2.3,60.093914757527806,
condition/block_mixed,instruction/instr_mixed,instruction/i10,黄,yellow,j,square,color_mix,单词,,compatible,1,,,,,,,,0,2,2,2,0,0,0,0,0,32,32,32,,,,,,,,,,,,,,,,,,,,,,,,,,,,,,,,,,,332.41741619998356,332.617310600006,332.6008306000149,332.9009609000059,332.9009609000059,None,333.401851600036,None,f,0,0.49545809999108315,333.401851600036,None,None,None,333.9192846000078,None,,,,,,,,,,,,,,,,,,,,,11025,2,1,2024_Jun_03_1626,stroop_task_switching2,2021.2.3,60.093914757527806,
condition/block_mixed,instruction/instr_mixed,instruction/i10,绿,green,k,diamond,color_mix,颜色,,compatible,2,,,,,,,,0,2,2,2,0,0,0,0,0,33,33,33,,,,,,,,,,,,,,,,,,,,,,,,,,,,,,,,,,,334.9208073000191,335.1216293000034,335.10454909998225,335.40606750000734,335.40606750000734,None,335.90565040003275,None,k,1,0.5120592000312172,335.90565040003275,None,None,None,336.4397517000325,None,,,,,,,,,,,,,,,,,,,,,11025,2,1,2024_Jun_03_1626,stroop_task_switching2,2021.2.3,60.093914757527806,
condition/block_mixed,instruction/instr_mixed,instruction/i10,红,red,d,square,color_mix,单词,,compatible,2,,,,,,,,0,2,2,2,0,0,0,0,0,34,34,34,,,,,,,,,,,,,,,,,,,,,,,,,,,,,,,,,,,337.4413063999964,337.6417882000096,337.6250452999957,337.9253706000163,337.9253706000163,None,338.42601809999906,None,d,1,0.5194138999795541,338.42601809999906,None,None,None,338.97691110003507,None,,,,,,,,,,,,,,,,,,,,,11025,2,1,2024_Jun_03_1626,stroop_task_switching2,2021.2.3,60.093914757527806,
condition/block_mixed,instruction/instr_mixed,instruction/i10,黄,yellow,j,square,color_mix,单词,,compatible,1,,,,,,,,0,2,2,2,0,0,0,0,0,35,35,35,,,,,,,,,,,,,,,,,,,,,,,,,,,,,,,,,,,339.97919159999583,340.179737700033,340.16208849998657,340.46355620003305,340.46355620003305,None,340.9632587999804,None,j,1,0.5022976999753155,340.9632587999804,None,None,None,341.48073509999085,None,,,,,,,,,,,,,,,,,,,,,11025,2,1,2024_Jun_03_1626,stroop_task_switching2,2021.2.3,60.093914757527806,
condition/block_mixed,instruction/instr_mixed,instruction/i10,绿,green,k,diamond,color_mix,颜色,,compatible,2,,,,,,,,0,2,2,2,0,0,0,0,0,36,36,36,,,,,,,,,,,,,,,,,,,,,,,,,,,,,,,,,,,342.482354799984,342.68330999999307,342.6660157000297,342.9661480000359,342.9661480000359,None,343.467273199989,None,k,1,0.7023061999934725,343.467273199989,None,None,None,344.20150289998855,None,,,,,,,,,,,,,,,,,,,,,11025,2,1,2024_Jun_03_1626,stroop_task_switching2,2021.2.3,60.093914757527806,
condition/block_mixed,instruction/instr_mixed,instruction/i10,蓝,blue,f,square,color_mix,单词,,compatible,2,,,,,,,,0,2,2,2,0,0,0,0,0,37,37,37,,,,,,,,,,,,,,,,,,,,,,,,,,,,,,,,,,,345.20298410003306,345.40420260000974,345.3866699000355,345.6878641000367,345.6878641000367,None,346.18778780003777,None,f,1,0.5660112999612466,346.18778780003777,None,None,None,346.77216779999435,None,,,,,,,,,,,,,,,,,,,,,11025,2,1,2024_Jun_03_1626,stroop_task_switching2,2021.2.3,60.093914757527806,
condition/block_mixed,instruction/instr_mixed,instruction/i10,红,red,d,square,color_mix,单词,,compatible,1,,,,,,,,0,2,2,2,0,0,0,0,0,38,38,38,,,,,,,,,,,,,,,,,,,,,,,,,,,,,,,,,,,347.77362079999875,347.9737620000378,347.9573732999852,348.2577043999918,348.2577043999918,None,348.7583445000346,None,d,1,0.6117924000136554,348.7583445000346,None,None,None,349.3925481000333,None,,,,,,,,,,,,,,,,,,,,,11025,2,1,2024_Jun_03_1626,stroop_task_switching2,2021.2.3,60.093914757527806,
condition/block_mixed,instruction/instr_mixed,instruction/i10,黄,yellow,j,diamond,color_mix,颜色,,compatible,2,,,,,,,,0,2,2,2,0,0,0,0,0,39,39,39,,,,,,,,,,,,,,,,,,,,,,,,,,,,,,,,,,,350.3941590000177,350.5944498000317,350.578958099999,350.8785462999949,350.8785462999949,None,351.3789697000175,None,j,1,0.6069720999803394,351.3789697000175,None,None,None,352.01312740001595,None,,,,,,,,,,,,,,,,,,,,,11025,2,1,2024_Jun_03_1626,stroop_task_switching2,2021.2.3,60.093914757527806,
condition/block_mixed,instruction/instr_mixed,instruction/i10,黄,yellow,j,square,color_mix,单词,,compatible,2,,,,,,,,0,2,2,2,0,0,0,0,0,40,40,40,,,,,,,,,,,,,,,,,,,,,,,,,,,,,,,,,,,353.0148478000192,353.2162491999916,353.19844579999335,353.49942629999714,353.49942629999714,None,353.999470699986,None,j,1,0.602332699985709,353.999470699986,None,None,None,354.6175102000125,None,,,,,,,,,,,,,,,,,,,,,11025,2,1,2024_Jun_03_1626,stroop_task_switching2,2021.2.3,60.093914757527806,
condition/block_mixed,instruction/instr_mixed,instruction/i10,蓝,blue,f,square,color_mix,单词,,compatible,1,,,,,,,,0,2,2,2,0,0,0,0,0,41,41,41,,,,,,,,,,,,,,,,,,,,,,,,,,,,,,,,,,,355.6200438000378,355.8356927999994,355.80212700000266,356.10283540003,356.10283540003,None,356.603441299987,None,f,1,0.7107526999898255,356.603441299987,None,None,None,357.33791529998416,None,,,,,,,,,,,,,,,,,,,,,11025,2,1,2024_Jun_03_1626,stroop_task_switching2,2021.2.3,60.093914757527806,
condition/block_mixed,instruction/instr_mixed,instruction/i10,蓝,blue,f,diamond,color_mix,颜色,,compatible,2,,,,,,,,0,2,2,2,0,0,0,0,0,42,42,42,,,,,,,,,,,,,,,,,,,,,,,,,,,,,,,,,,,358.33983589999843,358.5409147000173,358.5234364999924,358.82451429998036,358.82451429998036,None,359.3241370000178,None,f,1,0.5029539999668486,359.3241370000178,None,None,None,359.8416517000296,None,,,,,,,,,,,,,,,,,,,,,11025,2,1,2024_Jun_03_1626,stroop_task_switching2,2021.2.3,60.093914757527806,
condition/block_mixed,instruction/instr_mixed,instruction/i10,黄,yellow,j,diamond,color_mix,颜色,,compatible,1,,,,,,,,0,2,2,2,0,0,0,0,0,43,43,43,,,,,,,,,,,,,,,,,,,,,,,,,,,,,,,,,,,360.84363730001496,361.04465860000346,361.02710970002227,361.327877200034,361.327877200034,None,361.8282760999864,None,j,1,0.581993900006637,361.8282760999864,None,None,None,362.42883689998416,None,,,,,,,,,,,,,,,,,,,,,11025,2,1,2024_Jun_03_1626,stroop_task_switching2,2021.2.3,60.093914757527806,
condition/block_mixed,instruction/instr_mixed,instruction/i10,红,red,d,diamond,color_mix,颜色,,compatible,1,,,,,,,,0,2,2,2,0,0,0,0,0,44,44,44,,,,,,,,,,,,,,,,,,,,,,,,,,,,,,,,,,,363.4305194999906,363.6308195000165,363.61447119998047,363.91480339999544,363.91480339999544,None,364.41533610003535,None,d,1,0.5716158000286669,364.41533610003535,None,None,None,365.01643750001676,None,,,,,,,,,,,,,,,,,,,,,11025,2,1,2024_Jun_03_1626,stroop_task_switching2,2021.2.3,60.093914757527806,
condition/block_mixed,instruction/instr_mixed,instruction/i10,蓝,blue,f,diamond,color_mix,颜色,,compatible,1,,,,,,,,0,2,2,2,0,0,0,0,0,45,45,45,,,,,,,,,,,,,,,,,,,,,,,,,,,,,,,,,,,366.0177122000023,366.21903530001873,366.2014060000074,366.5031976000173,366.5031976000173,None,367.0024700000067,None,f,1,0.4640203999588266,367.0024700000067,None,None,None,367.48661100002937,None,,,,,,,,,,,,,,,,,,,,,11025,2,1,2024_Jun_03_1626,stroop_task_switching2,2021.2.3,60.093914757527806,
condition/block_mixed,instruction/instr_mixed,instruction/i10,红,red,d,diamond,color_mix,颜色,,compatible,1,,,,,,,,0,2,2,2,0,0,0,0,0,46,46,46,,,,,,,,,,,,,,,,,,,,,,,,,,,,,,,,,,,368.48799470002996,368.68829160003224,368.6719545000233,368.97226439998485,368.97226439998485,None,369.4729844999965,None,d,1,0.5378570000175387,369.4729844999965,None,None,None,370.04041760001564,None,,,,,,,,,,,,,,,,,,,,,11025,2,1,2024_Jun_03_1626,stroop_task_switching2,2021.2.3,60.093914757527806,
condition/block_mixed,instruction/instr_mixed,instruction/i10,红,red,d,square,color_mix,单词,,compatible,2,,,,,,,,0,2,2,2,0,0,0,0,0,47,47,47,,,,,,,,,,,,,,,,,,,,,,,,,,,,,,,,,,,371.042078700033,371.2433976000175,371.2255293999915,371.52603030001046,371.52603030001046,None,372.0270242000115,None,d,1,0.5277844999800436,372.0270242000115,None,None,None,372.57788190001156,None,,,,,,,,,,,,,,,,,,,,,11025,2,1,2024_Jun_03_1626,stroop_task_switching2,2021.2.3,60.093914757527806,
condition/block_mixed,instruction/instr_mixed,instruction/i10,红,red,d,diamond,color_mix,颜色,,compatible,2,,,,,,,,0,2,2,2,0,0,0,0,0,48,48,48,,,,,,,,,,,,,,,,,,,,,,,,,,,,,,,,,,,373.57916650001425,373.78044420003425,373.7627774000284,374.0632929999847,374.0632929999847,None,374.56407660001423,None,d,1,0.54252739995718,374.56407660001423,None,None,None,375.13156190002337,None,,,,,,,,,,,,,,,,,,,,,11025,2,1,2024_Jun_03_1626,stroop_task_switching2,2021.2.3,60.093914757527806,
condition/block_mixed,instruction/instr_mixed,instruction/i10,,,,,,,,,,,,,,,,,0,2,2,2,0,0,0,0,,,,,,,,,,,,,,,,,,,,,,,,,,,,,,,,,,,,,,,,,,,,,,,,,,,,,,,,376.1326477000257,None,space,3.2286661000107415,376.1326477000257,None,,,,,,,,,,,,,,,11025,2,1,2024_Jun_03_1626,stroop_task_switching2,2021.2.3,60.093914757527806,
condition/block_mixed,instruction/instr_mixed,instruction/i10,,,,,,,,,,,,,,,,,0,2,2,2,,,,,,,,,,,,,,,,,,,,,,,,,,,,,,,,,,,,,,,,,,,,,,,,,,,,,,,,,,,,,,,,,,,,,,,,,,,,,,,,11025,2,1,2024_Jun_03_1626,stroop_task_switching2,2021.2.3,60.093914757527806,
,,,红,red,d,square,color_mix,单词,,compatible,0,block_switch1,instruction/ready_test.png,instruction/i11.png,,,,,,,,,,,,,,,,,0,0,0,0,0,0,0,0,,,,,,,,,,,,,,,,,,,394.9112166999839,395.9142389000044,395.9142389000044,396.91503540001577,396.91503540001577,None,393.92624270002125,394.9284661000129,397.9494659000193,398.15074369998183,398.1328757000156,398.43330050003715,398.43330050003715,None,398.9354441000032,None,d,1,0.41183310002088547,398.9354441000032,None,None,None,,,,,,,,,379.4223004000378,None,space,14.476910999976099,379.4223004000378,None,,,,,,,,,11025,2,1,2024_Jun_03_1626,stroop_task_switching2,2021.2.3,60.093914757527806,
,,,绿,green,k,diamond,color_mix,颜色,,compatible,2,block_switch1,instruction/ready_test.png,instruction/i11.png,,,,,,,,,,,,,,,,,0,0,0,0,0,1,1,1,,,,,,,,,,,,,,,,,,,,,,,,,,,399.36801660002675,399.56839470000705,399.5518759000115,399.85258720000274,399.85258720000274,None,400.3529242000077,None,k,1,0.5145454999874346,400.3529242000077,None,None,None,,,,,,,,,,,,,,,,,,,,,,,11025,2,1,2024_Jun_03_1626,stroop_task_switching2,2021.2.3,60.093914757527806,
,,,绿,yellow,j,diamond,color_mix,颜色,,incompatible,1,block_switch1,instruction/ready_test.png,instruction/i11.png,,,,,,,,,,,,,,,,,0,0,0,0,0,2,2,2,,,,,,,,,,,,,,,,,,,,,,,,,,,400.88702080002986,401.08898210001644,401.07071880000876,401.37112730002264,401.37112730002264,None,401.8717728999909,None,j,1,1.579940199968405,401.8717728999909,None,None,None,,,,,,,,,,,,,,,,,,,,,,,11025,2,1,2024_Jun_03_1626,stroop_task_switching2,2021.2.3,60.093914757527806,
,,,蓝,blue,f,diamond,color_mix,颜色,,compatible,1,block_switch1,instruction/ready_test.png,instruction/i11.png,,,,,,,,,,,,,,,,,0,0,0,0,0,3,3,3,,,,,,,,,,,,,,,,,,,,,,,,,,,403.4743421000312,403.675584600016,403.65798260003794,403.95876250002766,403.95876250002766,None,404.4592061000294,None,f,1,0.5601432000403292,404.4592061000294,None,None,None,,,,,,,,,,,,,,,,,,,,,,,11025,2,1,2024_Jun_03_1626,stroop_task_switching2,2021.2.3,60.093914757527806,
,,,绿,green,k,square,color_mix,单词,,compatible,2,block_switch1,instruction/ready_test.png,instruction/i11.png,,,,,,,,,,,,,,,,,0,0,0,0,0,4,4,4,,,,,,,,,,,,,,,,,,,,,,,,,,,405.04332520003663,405.24424169998383,405.2268702000147,405.52747299999464,405.52747299999464,None,406.02815860003466,None,k,1,0.5751760000130162,406.02815860003466,None,None,None,,,,,,,,,,,,,,,,,,,,,,,11025,2,1,2024_Jun_03_1626,stroop_task_switching2,2021.2.3,60.093914757527806,
,,,绿,blue,f,diamond,color_mix,颜色,,incompatible,2,block_switch1,instruction/ready_test.png,instruction/i11.png,,,,,,,,,,,,,,,,,0,0,0,0,0,5,5,5,,,,,,,,,,,,,,,,,,,,,,,,,,,406.6289206999936,406.8300894999993,406.8127618000144,407.11306559998775,407.11306559998775,None,407.6137268000166,None,f,1,1.0300867999903858,407.6137268000166,None,None,None,,,,,,,,,,,,,,,,,,,,,,,11025,2,1,2024_Jun_03_1626,stroop_task_switching2,2021.2.3,60.093914757527806,
,,,黄,red,j,square,color_mix,单词,,incompatible,2,block_switch1,instruction/ready_test.png,instruction/i11.png,,,,,,,,,,,,,,,,,0,0,0,0,0,6,6,6,,,,,,,,,,,,,,,,,,,,,,,,,,,408.66516969999066,408.86586349998834,408.8488285000203,409.1499316000263,409.1499316000263,None,409.6501714999904,None,d,0,1.8254467999795452,409.6501714999904,None,None,None,,,,,,,,,,,,,,,,,,,,,,,11025,2,1,2024_Jun_03_1626,stroop_task_switching2,2021.2.3,60.093914757527806,
,,,绿,green,k,square,color_mix,单词,,compatible,1,block_switch1,instruction/ready_test.png,instruction/i11.png,,,,,,,,,,,,,,,,,0,0,0,0,0,7,7,7,,,,,,,,,,,,,,,,,,,,,,,,,,,411.50290229998063,411.704576499993,411.68659180001123,411.98804690002,411.98804690002,None,412.4879960999824,None,k,1,0.5076256000320427,412.4879960999824,None,None,None,,,,,,,,,,,,,,,,,,,,,,,11025,2,1,2024_Jun_03_1626,stroop_task_switching2,2021.2.3,60.093914757527806,
,,,蓝,blue,f,square,color_mix,单词,,compatible,1,block_switch1,instruction/ready_test.png,instruction/i11.png,,,,,,,,,,,,,,,,,0,0,0,0,0,8,8,8,,,,,,,,,,,,,,,,,,,,,,,,,,,413.0221019000164,413.22278130002087,413.20562259998405,413.50596660003066,413.50596660003066,None,414.0066269999952,None,f,1,0.597373399999924,414.0066269999952,None,None,None,,,,,,,,,,,,,,,,,,,,,,,11025,2,1,2024_Jun_03_1626,stroop_task_switching2,2021.2.3,60.093914757527806,
,,,红,red,d,diamond,color_mix,颜色,,compatible,2,block_switch1,instruction/ready_test.png,instruction/i11.png,,,,,,,,,,,,,,,,,0,0,0,0,0,9,9,9,,,,,,,,,,,,,,,,,,,,,,,,,,,414.6244365000166,414.8249806999811,414.8081360000069,415.10830610000994,415.10830610000994,None,415.60910090000834,None,d,1,0.547270999988541,415.60910090000834,None,None,None,,,,,,,,,,,,,,,,,,,,,,,11025,2,1,2024_Jun_03_1626,stroop_task_switching2,2021.2.3,60.093914757527806,
,,,黄,yellow,j,diamond,color_mix,颜色,,compatible,1,block_switch1,instruction/ready_test.png,instruction/i11.png,,,,,,,,,,,,,,,,,0,0,0,0,0,10,10,10,,,,,,,,,,,,,,,,,,,,,,,,,,,416.17657800001325,416.3769926999812,416.36141230002977,416.66074989998015,416.66074989998015,None,417.16171339998255,None,j,1,0.601885600015521,417.16171339998255,None,None,None,,,,,,,,,,,,,,,,,,,,,,,11025,2,1,2024_Jun_03_1626,stroop_task_switching2,2021.2.3,60.093914757527806,
,,,绿,green,k,square,color_mix,单词,,compatible,2,block_switch1,instruction/ready_test.png,instruction/i11.png,,,,,,,,,,,,,,,,,0,0,0,0,0,11,11,11,,,,,,,,,,,,,,,,,,,,,,,,,,,417.7791126000229,417.9794607000076,417.96372280002106,418.26483759999974,418.26483759999974,None,418.76389810000546,None,k,1,0.6559902000008151,418.76389810000546,None,None,None,,,,,,,,,,,,,,,,,,,,,,,11025,2,1,2024_Jun_03_1626,stroop_task_switching2,2021.2.3,60.093914757527806,
,,,红,red,d,diamond,color_mix,颜色,,compatible,2,block_switch1,instruction/ready_test.png,instruction/i11.png,,,,,,,,,,,,,,,,,0,0,0,0,0,12,12,12,,,,,,,,,,,,,,,,,,,,,,,,,,,419.4482150999829,419.64888910000445,419.63188410003204,419.9336539999931,419.9336539999931,None,420.43311109999195,None,d,1,0.5705842000315897,420.43311109999195,None,None,None,,,,,,,,,,,,,,,,,,,,,,,11025,2,1,2024_Jun_03_1626,stroop_task_switching2,2021.2.3,60.093914757527806,
,,,红,red,d,diamond,color_mix,颜色,,compatible,1,block_switch1,instruction/ready_test.png,instruction/i11.png,,,,,,,,,,,,,,,,,0,0,0,0,0,13,13,13,,,,,,,,,,,,,,,,,,,,,,,,,,,421.03402890003053,421.23439350002445,421.21764330001315,421.51892470003804,421.51892470003804,None,422.02055359998485,None,d,1,0.3596541000297293,422.02055359998485,None,None,None,,,,,,,,,,,,,,,,,,,,,,,11025,2,1,2024_Jun_03_1626,stroop_task_switching2,2021.2.3,60.093914757527806,
,,,黄,yellow,j,square,color_mix,单词,,compatible,2,block_switch1,instruction/ready_test.png,instruction/i11.png,,,,,,,,,,,,,,,,,0,0,0,0,0,14,14,14,,,,,,,,,,,,,,,,,,,,,,,,,,,422.402592700033,422.60415460000513,422.58630989998346,422.8868510000175,422.8868510000175,None,423.3874267000356,None,j,1,1.208320099976845,423.3874267000356,None,None,None,,,,,,,,,,,,,,,,,,,,,,,11025,2,1,2024_Jun_03_1626,stroop_task_switching2,2021.2.3,60.093914757527806,
,,,红,green,k,diamond,color_mix,颜色,,incompatible,2,block_switch1,instruction/ready_test.png,instruction/i11.png,,,,,,,,,,,,,,,,,0,0,0,0,0,15,15,15,,,,,,,,,,,,,,,,,,,,,,,,,,,424.62265169998864,424.82345379999606,424.80683319998207,425.1078625000082,425.1078625000082,None,425.6075789000024,None,k,1,0.6522211999981664,425.6075789000024,None,None,None,,,,,,,,,,,,,,,,,,,,,,,11025,2,1,2024_Jun_03_1626,stroop_task_switching2,2021.2.3,60.093914757527806,
,,,蓝,red,d,diamond,color_mix,颜色,,incompatible,1,block_switch1,instruction/ready_test.png,instruction/i11.png,,,,,,,,,,,,,,,,,0,0,0,0,0,16,16,16,,,,,,,,,,,,,,,,,,,,,,,,,,,426.27510880003683,426.47598950000247,426.45881039998494,426.76029770000605,426.76029770000605,None,427.2599719000282,None,d,1,1.3199062999919988,427.2599719000282,None,None,None,,,,,,,,,,,,,,,,,,,,,,,11025,2,1,2024_Jun_03_1626,stroop_task_switching2,2021.2.3,60.093914757527806,
,,,黄,green,k,diamond,color_mix,颜色,,incompatible,1,block_switch1,instruction/ready_test.png,instruction/i11.png,,,,,,,,,,,,,,,,,0,0,0,0,0,17,17,17,,,,,,,,,,,,,,,,,,,,,,,,,,,428.61210700002266,428.8128024000325,428.79568009998184,429.0961696000304,429.0961696000304,None,429.5969155000057,None,k,1,0.8792417999939062,429.5969155000057,None,None,None,,,,,,,,,,,,,,,,,,,,,,,11025,2,1,2024_Jun_03_1626,stroop_task_switching2,2021.2.3,60.093914757527806,
,,,绿,green,k,diamond,color_mix,颜色,,compatible,1,block_switch1,instruction/ready_test.png,instruction/i11.png,,,,,,,,,,,,,,,,,0,0,0,0,0,18,18,18,,,,,,,,,,,,,,,,,,,,,,,,,,,430.4984262000071,430.6996370999841,430.68215539999073,430.98237719997996,430.98237719997996,None,431.48356840002816,None,k,1,0.43298150005284697,431.48356840002816,None,None,None,,,,,,,,,,,,,,,,,,,,,,,11025,2,1,2024_Jun_03_1626,stroop_task_switching2,2021.2.3,60.093914757527806,
,,,黄,red,d,diamond,color_mix,颜色,,incompatible,1,block_switch1,instruction/ready_test.png,instruction/i11.png,,,,,,,,,,,,,,,,,0,0,0,0,0,19,19,19,,,,,,,,,,,,,,,,,,,,,,,,,,,431.93369049998,432.13497150002513,432.1173715000041,432.41796320001595,432.41796320001595,None,432.9185201000073,None,d,1,0.7019825000315905,432.9185201000073,None,None,None,,,,,,,,,,,,,,,,,,,,,,,11025,2,1,2024_Jun_03_1626,stroop_task_switching2,2021.2.3,60.093914757527806,
,,,绿,yellow,k,square,color_mix,单词,,incompatible,2,block_switch1,instruction/ready_test.png,instruction/i11.png,,,,,,,,,,,,,,,,,0,0,0,0,0,20,20,20,,,,,,,,,,,,,,,,,,,,,,,,,,,433.63652120000916,433.83766800002195,433.81984690000536,434.12023699999554,434.12023699999554,None,434.6212493000203,None,k,1,1.3909097000141628,434.6212493000203,None,None,None,,,,,,,,,,,,,,,,,,,,,,,11025,2,1,2024_Jun_03_1626,stroop_task_switching2,2021.2.3,60.093914757527806,
,,,绿,yellow,j,diamond,color_mix,颜色,,incompatible,2,block_switch1,instruction/ready_test.png,instruction/i11.png,,,,,,,,,,,,,,,,,0,0,0,0,0,21,21,21,,,,,,,,,,,,,,,,,,,,,,,,,,,436.03990249999333,436.2402093000128,436.2245313000167,436.5240863999934,436.5240863999934,None,437.0248219000059,None,f,0,0.8834557999507524,437.0248219000059,None,None,None,,,,,,,,,,,,,,,,,,,,,,,11025,2,1,2024_Jun_03_1626,stroop_task_switching2,2021.2.3,60.093914757527806,
,,,绿,green,k,square,color_mix,单词,,compatible,2,block_switch1,instruction/ready_test.png,instruction/i11.png,,,,,,,,,,,,,,,,,0,0,0,0,0,22,22,22,,,,,,,,,,,,,,,,,,,,,,,,,,,437.9261365000275,438.1262732000323,438.11064520000946,438.4106245000148,438.4106245000148,None,438.91113409999525,None,k,1,1.1494937000097707,438.91113409999525,None,None,None,,,,,,,,,,,,,,,,,,,,,,,11025,2,1,2024_Jun_03_1626,stroop_task_switching2,2021.2.3,60.093914757527806,
,,,红,red,d,square,color_mix,单词,,compatible,1,block_switch1,instruction/ready_test.png,instruction/i11.png,,,,,,,,,,,,,,,,,0,0,0,0,0,23,23,23,,,,,,,,,,,,,,,,,,,,,,,,,,,440.07947230001446,440.2811246000347,440.2632264000131,440.5633735000156,440.5633735000156,None,441.0641988000134,None,d,1,0.6921194000169635,441.0641988000134,None,None,None,,,,,,,,,,,,,,,,,,,,,,,11025,2,1,2024_Jun_03_1626,stroop_task_switching2,2021.2.3,60.093914757527806,
,,,黄,green,j,square,color_mix,单词,,incompatible,1,block_switch1,instruction/ready_test.png,instruction/i11.png,,,,,,,,,,,,,,,,,0,0,0,0,0,24,24,24,,,,,,,,,,,,,,,,,,,,,,,,,,,441.7820117000374,441.9823142000241,441.96638510003686,442.26794639998116,442.26794639998116,None,442.76668930001324,None,j,1,1.8297666999860667,442.76668930001324,None,None,None,,,,,,,,,,,,,,,,,,,,,,,11025,2,1,2024_Jun_03_1626,stroop_task_switching2,2021.2.3,60.093914757527806,
,,,红,blue,d,square,color_mix,单词,,incompatible,1,block_switch1,instruction/ready_test.png,instruction/i11.png,,,,,,,,,,,,,,,,,0,0,0,0,0,25,25,25,,,,,,,,,,,,,,,,,,,,,,,,,,,444.61972309998237,444.8211069999961,444.8032078000251,445.1035861999844,445.1035861999844,None,445.60438350000186,None,d,1,1.0160766000044532,445.60438350000186,None,None,None,,,,,,,,,,,,,,,,,,,,,,,11025,2,1,2024_Jun_03_1626,stroop_task_switching2,2021.2.3,60.093914757527806,
,,,黄,yellow,j,square,color_mix,单词,,compatible,1,block_switch1,instruction/ready_test.png,instruction/i11.png,,,,,,,,,,,,,,,,,0,0,0,0,0,26,26,26,,,,,,,,,,,,,,,,,,,,,,,,,,,446.6393674000283,446.84051190002356,446.82311310002115,447.1241425999906,447.1241425999906,None,447.62412819999736,None,j,1,0.6286095000104979,447.62412819999736,None,None,None,,,,,,,,,,,,,,,,,,,,,,,11025,2,1,2024_Jun_03_1626,stroop_task_switching2,2021.2.3,60.093914757527806,
,,,蓝,green,f,square,color_mix,单词,,incompatible,1,block_switch1,instruction/ready_test.png,instruction/i11.png,,,,,,,,,,,,,,,,,0,0,0,0,0,27,27,27,,,,,,,,,,,,,,,,,,,,,,,,,,,448.2753941999981,448.47627959999954,448.45875039999373,448.7598701000097,448.7598701000097,None,449.2598890000372,None,k,0,1.5606832000194117,449.2598890000372,None,None,None,,,,,,,,,,,,,,,,,,,,,,,11025,2,1,2024_Jun_03_1626,stroop_task_switching2,2021.2.3,60.093914757527806,
,,,绿,green,k,diamond,color_mix,颜色,,compatible,2,block_switch1,instruction/ready_test.png,instruction/i11.png,,,,,,,,,,,,,,,,,0,0,0,0,0,28,28,28,,,,,,,,,,,,,,,,,,,,,,,,,,,450.8456389000057,451.04594470001757,451.03068560000975,451.3297006000066,451.3297006000066,None,451.83049429999664,None,k,1,0.7821208999957889,451.83049429999664,None,None,None,,,,,,,,,,,,,,,,,,,,,,,11025,2,1,2024_Jun_03_1626,stroop_task_switching2,2021.2.3,60.093914757527806,
,,,黄,blue,f,diamond,color_mix,颜色,,incompatible,1,block_switch1,instruction/ready_test.png,instruction/i11.png,,,,,,,,,,,,,,,,,0,0,0,0,0,29,29,29,,,,,,,,,,,,,,,,,,,,,,,,,,,452.63167610001983,452.83311469998443,452.81525430001784,453.1163375999895,453.1163375999895,None,453.61644640000304,None,f,1,0.9083595999982208,453.61644640000304,None,None,None,,,,,,,,,,,,,,,,,,,,,,,11025,2,1,2024_Jun_03_1626,stroop_task_switching2,2021.2.3,60.093914757527806,
,,,绿,green,k,diamond,color_mix,颜色,,compatible,1,block_switch1,instruction/ready_test.png,instruction/i11.png,,,,,,,,,,,,,,,,,0,0,0,0,0,30,30,30,,,,,,,,,,,,,,,,,,,,,,,,,,,454.55138289998285,454.75244330003625,454.7349686999805,455.03526299999794,455.03526299999794,None,455.53601149999304,None,k,1,1.0689765000133775,455.53601149999304,None,None,None,,,,,,,,,,,,,,,,,,,,,,,11025,2,1,2024_Jun_03_1626,stroop_task_switching2,2021.2.3,60.093914757527806,
,,,蓝,blue,f,square,color_mix,单词,,compatible,2,block_switch1,instruction/ready_test.png,instruction/i11.png,,,,,,,,,,,,,,,,,0,0,0,0,0,31,31,31,,,,,,,,,,,,,,,,,,,,,,,,,,,456.62147270003334,456.82195940002566,456.8045757000218,457.10591440001735,457.10591440001735,None,457.60586469998816,None,f,1,0.5269377999939024,457.60586469998816,None,None,None,,,,,,,,,,,,,,,,,,,,,,,11025,2,1,2024_Jun_03_1626,stroop_task_switching2,2021.2.3,60.093914757527806,
,,,红,red,d,square,color_mix,单词,,compatible,1,block_switch1,instruction/ready_test.png,instruction/i11.png,,,,,,,,,,,,,,,,,0,0,0,0,0,32,32,32,,,,,,,,,,,,,,,,,,,,,,,,,,,458.1570613000076,458.357177900034,458.3421537000104,458.6406895000255,458.6406895000255,None,459.1415705999825,None,d,1,0.7836595000117086,459.1415705999825,None,None,None,,,,,,,,,,,,,,,,,,,,,,,11025,2,1,2024_Jun_03_1626,stroop_task_switching2,2021.2.3,60.093914757527806,
,,,红,green,d,square,color_mix,单词,,incompatible,1,block_switch1,instruction/ready_test.png,instruction/i11.png,,,,,,,,,,,,,,,,,0,0,0,0,0,33,33,33,,,,,,,,,,,,,,,,,,,,,,,,,,,459.9427253000322,460.1439492999925,460.12670100003015,460.42726130003575,460.42726130003575,None,460.9276608999935,None,d,1,0.3974937999737449,460.9276608999935,None,None,None,,,,,,,,,,,,,,,,,,,,,,,11025,2,1,2024_Jun_03_1626,stroop_task_switching2,2021.2.3,60.093914757527806,
,,,黄,yellow,j,diamond,color_mix,颜色,,compatible,2,block_switch1,instruction/ready_test.png,instruction/i11.png,,,,,,,,,,,,,,,,,0,0,0,0,0,34,34,34,,,,,,,,,,,,,,,,,,,,,,,,,,,461.3448995000217,461.5463536999887,461.5283892999869,461.8287100000307,461.8287100000307,None,462.32960510003613,None,j,1,0.7552380000124685,462.32960510003613,None,None,None,,,,,,,,,,,,,,,,,,,,,,,11025,2,1,2024_Jun_03_1626,stroop_task_switching2,2021.2.3,60.093914757527806,
,,,红,green,k,diamond,color_mix,颜色,,incompatible,1,block_switch1,instruction/ready_test.png,instruction/i11.png,,,,,,,,,,,,,,,,,0,0,0,0,0,35,35,35,,,,,,,,,,,,,,,,,,,,,,,,,,,463.11403609998524,463.3155993000255,463.29770200001076,463.5995848000166,463.5995848000166,None,464.09894170000916,None,k,1,1.706141699978616,464.09894170000916,None,None,None,,,,,,,,,,,,,,,,,,,,,,,11025,2,1,2024_Jun_03_1626,stroop_task_switching2,2021.2.3,60.093914757527806,
,,,黄,yellow,j,square,color_mix,单词,,compatible,2,block_switch1,instruction/ready_test.png,instruction/i11.png,,,,,,,,,,,,,,,,,0,0,0,0,0,36,36,36,,,,,,,,,,,,,,,,,,,,,,,,,,,465.8350411999854,466.0363609000342,466.0186298000044,466.31942600000184,466.31942600000184,None,466.81971680000424,None,j,1,0.7692083999863826,466.81971680000424,None,None,None,,,,,,,,,,,,,,,,,,,,,,,11025,2,1,2024_Jun_03_1626,stroop_task_switching2,2021.2.3,60.093914757527806,
,,,蓝,blue,f,square,color_mix,单词,,compatible,1,block_switch1,instruction/ready_test.png,instruction/i11.png,,,,,,,,,,,,,,,,,0,0,0,0,0,37,37,37,,,,,,,,,,,,,,,,,,,,,,,,,,,467.6209566000034,467.8213003000128,467.80463750002673,468.10497450002003,468.10497450002003,None,468.6057126999949,None,f,1,0.8875270999851637,468.6057126999949,None,None,None,,,,,,,,,,,,,,,,,,,,,,,11025,2,1,2024_Jun_03_1626,stroop_task_switching2,2021.2.3,60.093914757527806,
,,,绿,red,d,diamond,color_mix,颜色,,incompatible,2,block_switch1,instruction/ready_test.png,instruction/i11.png,,,,,,,,,,,,,,,,,0,0,0,0,0,38,38,38,,,,,,,,,,,,,,,,,,,,,,,,,,,469.5242871000082,469.725437999994,469.7075557000353,470.00916060002055,470.00916060002055,None,470.50854479998816,None,d,1,0.9853196000331081,470.50854479998816,None,None,None,,,,,,,,,,,,,,,,,,,,,,,11025,2,1,2024_Jun_03_1626,stroop_task_switching2,2021.2.3,60.093914757527806,
,,,黄,yellow,j,diamond,color_mix,颜色,,compatible,1,block_switch1,instruction/ready_test.png,instruction/i11.png,,,,,,,,,,,,,,,,,0,0,0,0,0,39,39,39,,,,,,,,,,,,,,,,,,,,,,,,,,,471.5100991000072,471.7115405999939,471.6938096000231,471.99416330002714,471.99416330002714,None,472.49490190000506,None,j,1,0.7504436000017449,472.49490190000506,None,None,None,,,,,,,,,,,,,,,,,,,,,,,11025,2,1,2024_Jun_03_1626,stroop_task_switching2,2021.2.3,60.093914757527806,
,,,红,blue,f,diamond,color_mix,颜色,,incompatible,1,block_switch1,instruction/ready_test.png,instruction/i11.png,,,,,,,,,,,,,,,,,0,0,0,0,0,40,40,40,,,,,,,,,,,,,,,,,,,,,,,,,,,473.2627754000132,473.46508370002266,473.44637289998354,473.74756350001553,473.74756350001553,None,474.2475703000091,None,f,1,1.5815901999594644,474.2475703000091,None,None,None,,,,,,,,,,,,,,,,,,,,,,,11025,2,1,2024_Jun_03_1626,stroop_task_switching2,2021.2.3,60.093914757527806,
,,,绿,blue,k,square,color_mix,单词,,incompatible,2,block_switch1,instruction/ready_test.png,instruction/i11.png,,,,,,,,,,,,,,,,,0,0,0,0,0,41,41,41,,,,,,,,,,,,,,,,,,,,,,,,,,,475.85007650003536,476.05208120000316,476.0335564999841,476.3339523000177,476.3339523000177,None,476.8350079000229,None,k,1,0.962219399982132,476.8350079000229,None,None,None,,,,,,,,,,,,,,,,,,,,,,,11025,2,1,2024_Jun_03_1626,stroop_task_switching2,2021.2.3,60.093914757527806,
,,,蓝,blue,f,diamond,color_mix,颜色,,compatible,2,block_switch1,instruction/ready_test.png,instruction/i11.png,,,,,,,,,,,,,,,,,0,0,0,0,0,42,42,42,,,,,,,,,,,,,,,,,,,,,,,,,,,477.81992839998566,478.02009000000544,478.0051486000302,478.30403800000204,478.30403800000204,None,478.804472799995,None,f,1,0.6572527000098489,478.804472799995,None,None,None,,,,,,,,,,,,,,,,,,,,,,,11025,2,1,2024_Jun_03_1626,stroop_task_switching2,2021.2.3,60.093914757527806,
,,,红,blue,d,square,color_mix,单词,,incompatible,2,block_switch1,instruction/ready_test.png,instruction/i11.png,,,,,,,,,,,,,,,,,0,0,0,0,0,43,43,43,,,,,,,,,,,,,,,,,,,,,,,,,,,479.48887850000756,479.6904241000302,479.67257340002107,479.9730825999868,479.9730825999868,None,480.4736472000368,None,d,1,0.843861100031063,480.4736472000368,None,None,None,,,,,,,,,,,,,,,,,,,,,,,11025,2,1,2024_Jun_03_1626,stroop_task_switching2,2021.2.3,60.093914757527806,
,,,蓝,green,k,diamond,color_mix,颜色,,incompatible,2,block_switch1,instruction/ready_test.png,instruction/i11.png,,,,,,,,,,,,,,,,,0,0,0,0,0,44,44,44,,,,,,,,,,,,,,,,,,,,,,,,,,,481.3416470999946,481.54299779998837,481.5254268000135,481.8255767999799,481.8255767999799,None,482.3264937000349,None,k,1,0.6470880000269972,482.3264937000349,None,None,None,,,,,,,,,,,,,,,,,,,,,,,11025,2,1,2024_Jun_03_1626,stroop_task_switching2,2021.2.3,60.093914757527806,
,,,黄,yellow,j,square,color_mix,单词,,compatible,2,block_switch1,instruction/ready_test.png,instruction/i11.png,,,,,,,,,,,,,,,,,0,0,0,0,0,45,45,45,,,,,,,,,,,,,,,,,,,,,,,,,,,482.99429960001726,483.19658739998704,483.1776975999819,483.4780013000127,483.4780013000127,None,483.9789843999897,None,j,1,0.5467931000166573,483.9789843999897,None,None,None,,,,,,,,,,,,,,,,,,,,,,,11025,2,1,2024_Jun_03_1626,stroop_task_switching2,2021.2.3,60.093914757527806,
,,,黄,yellow,j,diamond,color_mix,颜色,,compatible,2,block_switch1,instruction/ready_test.png,instruction/i11.png,,,,,,,,,,,,,,,,,0,0,0,0,0,46,46,46,,,,,,,,,,,,,,,,,,,,,,,,,,,484.5464839999913,484.7466779000242,484.73005990003,485.0320927000139,485.0320927000139,None,485.5312601000187,None,j,1,0.834487900021486,485.5312601000187,None,None,None,,,,,,,,,,,,,,,,,,,,,,,11025,2,1,2024_Jun_03_1626,stroop_task_switching2,2021.2.3,60.093914757527806,
,,,绿,red,k,square,color_mix,单词,,incompatible,2,block_switch1,instruction/ready_test.png,instruction/i11.png,,,,,,,,,,,,,,,,,0,0,0,0,0,47,47,47,,,,,,,,,,,,,,,,,,,,,,,,,,,486.3826061,486.58470499998657,486.5663690000074,486.86686240002746,486.86686240002746,None,487.36750510003185,None,d,0,2.0782599999802187,487.36750510003185,None,None,None,,,,,,,,,,,,,,,,,,,,,,,11025,2,1,2024_Jun_03_1626,stroop_task_switching2,2021.2.3,60.093914757527806,
,,,红,red,d,diamond,color_mix,颜色,,compatible,2,block_switch1,instruction/ready_test.png,instruction/i11.png,,,,,,,,,,,,,,,,,0,0,0,0,0,48,48,48,,,,,,,,,,,,,,,,,,,,,,,,,,,489.4706052999827,489.6733834000188,489.6546585999895,489.95467340003233,489.95467340003233,None,490.4552993000252,None,d,1,0.6463117999956012,490.4552993000252,None,None,None,,,,,,,,,,,,,,,,,,,,,,,11025,2,1,2024_Jun_03_1626,stroop_task_switching2,2021.2.3,60.093914757527806,
,,,蓝,blue,f,diamond,color_mix,颜色,,compatible,1,block_switch1,instruction/ready_test.png,instruction/i11.png,,,,,,,,,,,,,,,,,0,0,0,0,0,49,49,49,,,,,,,,,,,,,,,,,,,,,,,,,,,491.12313680001535,491.324203199998,491.306655900029,491.60735519998707,491.60735519998707,None,492.1076933000004,None,f,1,0.7059668999863788,492.1076933000004,None,None,None,,,,,,,,,,,,,,,,,,,,,,,11025,2,1,2024_Jun_03_1626,stroop_task_switching2,2021.2.3,60.093914757527806,
,,,黄,yellow,j,diamond,color_mix,颜色,,compatible,1,block_switch1,instruction/ready_test.png,instruction/i11.png,,,,,,,,,,,,,,,,,0,0,0,0,0,50,50,50,,,,,,,,,,,,,,,,,,,,,,,,,,,492.8421451000031,493.043469700031,493.0257787000155,493.32634070003405,493.32634070003405,None,493.8269845999894,None,j,1,1.8189758000080474,493.8269845999894,None,None,None,,,,,,,,,,,,,,,,,,,,,,,11025,2,1,2024_Jun_03_1626,stroop_task_switching2,2021.2.3,60.093914757527806,
,,,红,blue,f,diamond,color_mix,颜色,,incompatible,1,block_switch1,instruction/ready_test.png,instruction/i11.png,,,,,,,,,,,,,,,,,0,0,0,0,0,51,51,51,,,,,,,,,,,,,,,,,,,,,,,,,,,495.66310040000826,495.8640730000334,495.8470735999872,496.14737299998524,496.14737299998524,None,496.6480592000298,None,k,0,0.8296522999880835,496.6480592000298,None,None,None,,,,,,,,,,,,,,,,,,,,,,,11025,2,1,2024_Jun_03_1626,stroop_task_switching2,2021.2.3,60.093914757527806,
,,,蓝,yellow,j,diamond,color_mix,颜色,,incompatible,1,block_switch1,instruction/ready_test.png,instruction/i11.png,,,,,,,,,,,,,,,,,0,0,0,0,0,52,52,52,,,,,,,,,,,,,,,,,,,,,,,,,,,497.49932280002395,497.6996131000342,497.68508490000386,498.0011492000194,497.98320359998615,None,498.48423050000565,None,j,1,1.4099168999819085,498.48423050000565,None,None,None,,,,,,,,,,,,,,,,,,,,,,,11025,2,1,2024_Jun_03_1626,stroop_task_switching2,2021.2.3,60.093914757527806,
,,,黄,blue,j,square,color_mix,单词,,incompatible,2,block_switch1,instruction/ready_test.png,instruction/i11.png,,,,,,,,,,,,,,,,,0,0,0,0,0,53,53,53,,,,,,,,,,,,,,,,,,,,,,,,,,,499.9197045000037,500.12086850003107,500.1032878999831,500.4036915000179,500.4036915000179,None,500.9043802000233,None,f,0,1.6296439000288956,500.9043802000233,None,None,None,,,,,,,,,,,,,,,,,,,,,,,11025,2,1,2024_Jun_03_1626,stroop_task_switching2,2021.2.3,60.093914757527806,
,,,蓝,blue,f,diamond,color_mix,颜色,,compatible,2,block_switch1,instruction/ready_test.png,instruction/i11.png,,,,,,,,,,,,,,,,,0,0,0,0,0,54,54,54,,,,,,,,,,,,,,,,,,,,,,,,,,,502.5567912000115,502.7574153000023,502.7403306000051,503.0420242000255,503.0420242000255,None,503.541826700035,None,f,1,0.3690889999852516,503.541826700035,None,None,None,,,,,,,,,,,,,,,,,,,,,,,11025,2,1,2024_Jun_03_1626,stroop_task_switching2,2021.2.3,60.093914757527806,
,,,红,yellow,d,square,color_mix,单词,,incompatible,2,block_switch1,instruction/ready_test.png,instruction/i11.png,,,,,,,,,,,,,,,,,0,0,0,0,0,55,55,55,,,,,,,,,,,,,,,,,,,,,,,,,,,503.9424026000197,504.14310630003456,504.1272030000109,504.42775500001153,504.42775500001153,None,504.9270438000094,None,d,1,0.5274009999702685,504.9270438000094,None,None,None,,,,,,,,,,,,,,,,,,,,,,,11025,2,1,2024_Jun_03_1626,stroop_task_switching2,2021.2.3,60.093914757527806,
,,,蓝,red,f,square,color_mix,单词,,incompatible,1,block_switch1,instruction/ready_test.png,instruction/i11.png,,,,,,,,,,,,,,,,,0,0,0,0,0,56,56,56,,,,,,,,,,,,,,,,,,,,,,,,,,,505.47795740002766,505.6782229000237,505.66274290002184,505.9627359000151,505.9627359000151,None,506.4629985000356,None,f,1,0.6070503000519238,506.4629985000356,None,None,None,,,,,,,,,,,,,,,,,,,,,,,11025,2,1,2024_Jun_03_1626,stroop_task_switching2,2021.2.3,60.093914757527806,
,,,蓝,blue,f,square,color_mix,单词,,compatible,1,block_switch1,instruction/ready_test.png,instruction/i11.png,,,,,,,,,,,,,,,,,0,0,0,0,0,57,57,57,,,,,,,,,,,,,,,,,,,,,,,,,,,507.0971002000151,507.2977182000177,507.2807074000011,507.58187850000104,507.58187850000104,None,508.0818625999964,None,f,1,0.5565322999609634,508.0818625999964,None,None,None,,,,,,,,,,,,,,,,,,,,,,,11025,2,1,2024_Jun_03_1626,stroop_task_switching2,2021.2.3,60.093914757527806,
,,,蓝,red,d,diamond,color_mix,颜色,,incompatible,2,block_switch1,instruction/ready_test.png,instruction/i11.png,,,,,,,,,,,,,,,,,0,0,0,0,0,58,58,58,,,,,,,,,,,,,,,,,,,,,,,,,,,508.6662068000296,508.8663777000038,508.8508284999989,509.15047280001454,509.15047280001454,None,509.6511226000148,None,d,1,0.9472848000004888,509.6511226000148,None,None,None,,,,,,,,,,,,,,,,,,,,,,,11025,2,1,2024_Jun_03_1626,stroop_task_switching2,2021.2.3,60.093914757527806,
,,,绿,green,k,diamond,color_mix,颜色,,compatible,1,block_switch1,instruction/ready_test.png,instruction/i11.png,,,,,,,,,,,,,,,,,0,0,0,0,0,59,59,59,,,,,,,,,,,,,,,,,,,,,,,,,,,510.6189319000114,510.81943010003306,510.8044802999939,511.10309899999993,511.10309899999993,None,511.60391910001636,None,k,1,0.9946309999795631,511.60391910001636,None,None,None,,,,,,,,,,,,,,,,,,,,,,,11025,2,1,2024_Jun_03_1626,stroop_task_switching2,2021.2.3,60.093914757527806,
,,,蓝,blue,f,diamond,color_mix,颜色,,compatible,1,block_switch1,instruction/ready_test.png,instruction/i11.png,,,,,,,,,,,,,,,,,0,0,0,0,0,60,60,60,,,,,,,,,,,,,,,,,,,,,,,,,,,512.6222272000159,512.822198000038,512.8057703999802,513.106482000032,513.106482000032,None,513.6068475000211,None,f,1,0.5033228999818675,513.6068475000211,None,None,None,,,,,,,,,,,,,,,,,,,,,,,11025,2,1,2024_Jun_03_1626,stroop_task_switching2,2021.2.3,60.093914757527806,
,,,黄,yellow,j,square,color_mix,单词,,compatible,2,block_switch1,instruction/ready_test.png,instruction/i11.png,,,,,,,,,,,,,,,,,0,0,0,0,0,61,61,61,,,,,,,,,,,,,,,,,,,,,,,,,,,514.1410458000028,514.3425057000131,514.3246503000264,514.6252101000282,514.6252101000282,None,515.1260089999996,None,j,1,0.7444938999833539,515.1260089999996,None,None,None,,,,,,,,,,,,,,,,,,,,,,,11025,2,1,2024_Jun_03_1626,stroop_task_switching2,2021.2.3,60.093914757527806,
,,,绿,blue,k,square,color_mix,单词,,incompatible,1,block_switch1,instruction/ready_test.png,instruction/i11.png,,,,,,,,,,,,,,,,,0,0,0,0,0,62,62,62,,,,,,,,,,,,,,,,,,,,,,,,,,,515.8944252000074,516.0965900000301,516.0773886999814,516.377659699996,516.377659699996,None,516.8785755999852,None,k,1,0.5759620000026189,516.8785755999852,None,None,None,,,,,,,,,,,,,,,,,,,,,,,11025,2,1,2024_Jun_03_1626,stroop_task_switching2,2021.2.3,60.093914757527806,
,,,蓝,yellow,f,square,color_mix,单词,,incompatible,1,block_switch1,instruction/ready_test.png,instruction/i11.png,,,,,,,,,,,,,,,,,0,0,0,0,0,63,63,63,,,,,,,,,,,,,,,,,,,,,,,,,,,517.4795174000319,517.6808801000006,517.6629759999923,517.963224200008,517.963224200008,None,518.4646234000102,None,f,1,0.5737331999698654,518.4646234000102,None,None,None,,,,,,,,,,,,,,,,,,,,,,,11025,2,1,2024_Jun_03_1626,stroop_task_switching2,2021.2.3,60.093914757527806,
,,,黄,yellow,j,diamond,color_mix,颜色,,compatible,2,block_switch1,instruction/ready_test.png,instruction/i11.png,,,,,,,,,,,,,,,,,0,0,0,0,0,64,64,64,,,,,,,,,,,,,,,,,,,,,,,,,,,519.065032500017,519.2656455999822,519.2503017000272,519.5493067000061,519.5493067000061,None,520.0500134000322,None,j,1,0.684886800008826,520.0500134000322,None,None,None,,,,,,,,,,,,,,,,,,,,,,,11025,2,1,2024_Jun_03_1626,stroop_task_switching2,2021.2.3,60.093914757527806,
,,,蓝,green,k,diamond,color_mix,颜色,,incompatible,1,block_switch1,instruction/ready_test.png,instruction/i11.png,,,,,,,,,,,,,,,,,0,0,0,0,0,65,65,65,,,,,,,,,,,,,,,,,,,,,,,,,,,520.7511283000349,520.9533561000135,520.934665800014,521.2362918999861,521.2362918999861,None,521.7358624000335,None,k,1,0.43944960000226274,521.7358624000335,None,None,None,,,,,,,,,,,,,,,,,,,,,,,11025,2,1,2024_Jun_03_1626,stroop_task_switching2,2021.2.3,60.093914757527806,
,,,红,red,d,diamond,color_mix,颜色,,compatible,1,block_switch1,instruction/ready_test.png,instruction/i11.png,,,,,,,,,,,,,,,,,0,0,0,0,0,66,66,66,,,,,,,,,,,,,,,,,,,,,,,,,,,522.203287100012,522.4043191000237,522.386896800017,522.6888603999978,522.6888603999978,None,523.188046300027,None,d,1,0.5230941000045277,523.188046300027,None,None,None,,,,,,,,,,,,,,,,,,,,,,,11025,2,1,2024_Jun_03_1626,stroop_task_switching2,2021.2.3,60.093914757527806,
,,,蓝,yellow,f,square,color_mix,单词,,incompatible,2,block_switch1,instruction/ready_test.png,instruction/i11.png,,,,,,,,,,,,,,,,,0,0,0,0,0,67,67,67,,,,,,,,,,,,,,,,,,,,,,,,,,,523.7388627000037,523.9395725000068,523.9226101000095,524.2230395000079,524.2230395000079,None,524.7237748000189,None,f,1,0.5627558999694884,524.7237748000189,None,None,None,,,,,,,,,,,,,,,,,,,,,,,11025,2,1,2024_Jun_03_1626,stroop_task_switching2,2021.2.3,60.093914757527806,
,,,红,yellow,d,square,color_mix,单词,,incompatible,1,block_switch1,instruction/ready_test.png,instruction/i11.png,,,,,,,,,,,,,,,,,0,0,0,0,0,68,68,68,,,,,,,,,,,,,,,,,,,,,,,,,,,525.3078472000198,525.5081442000228,525.4915112000308,525.7929576000315,525.7929576000315,None,526.2926431000233,None,j,0,0.9066482000052929,526.2926431000233,None,None,None,,,,,,,,,,,,,,,,,,,,,,,11025,2,1,2024_Jun_03_1626,stroop_task_switching2,2021.2.3,60.093914757527806,
,,,红,yellow,j,diamond,color_mix,颜色,,incompatible,2,block_switch1,instruction/ready_test.png,instruction/i11.png,,,,,,,,,,,,,,,,,0,0,0,0,0,69,69,69,,,,,,,,,,,,,,,,,,,,,,,,,,,527.227445400029,527.4299459999893,527.4111334999907,527.7114470000379,527.7114470000379,None,528.2123270999873,None,j,1,1.2266443999833427,528.2123270999873,None,None,None,,,,,,,,,,,,,,,,,,,,,,,11025,2,1,2024_Jun_03_1626,stroop_task_switching2,2021.2.3,60.093914757527806,
,,,蓝,green,f,square,color_mix,单词,,incompatible,2,block_switch1,instruction/ready_test.png,instruction/i11.png,,,,,,,,,,,,,,,,,0,0,0,0,0,70,70,70,,,,,,,,,,,,,,,,,,,,,,,,,,,529.46418000001,529.664573099988,529.6484941000235,529.950244800013,529.950244800013,None,530.4490011000307,None,f,1,0.8857428999617696,530.4490011000307,None,None,None,,,,,,,,,,,,,,,,,,,,,,,11025,2,1,2024_Jun_03_1626,stroop_task_switching2,2021.2.3,60.093914757527806,
,,,绿,yellow,k,square,color_mix,单词,,incompatible,1,block_switch1,instruction/ready_test.png,instruction/i11.png,,,,,,,,,,,,,,,,,0,0,0,0,0,71,71,71,,,,,,,,,,,,,,,,,,,,,,,,,,,531.3502041000174,531.5514431000338,531.5337543000351,531.8356654000236,531.8356654000236,None,532.3353318999871,None,k,1,0.3593529000063427,532.3353318999871,None,None,None,,,,,,,,,,,,,,,,,,,,,,,11025,2,1,2024_Jun_03_1626,stroop_task_switching2,2021.2.3,60.093914757527806,
,,,蓝,yellow,j,diamond,color_mix,颜色,,incompatible,2,block_switch1,instruction/ready_test.png,instruction/i11.png,,,,,,,,,,,,,,,,,0,0,0,0,0,72,72,72,,,,,,,,,,,,,,,,,,,,,,,,,,,532.719062499993,532.9202830999857,532.9027160999831,533.2041440000175,533.2041440000175,None,533.7039994000224,None,f,0,0.6072963999467902,533.7039994000224,None,None,None,,,,,,,,,,,,,,,,,,,,,,,11025,2,1,2024_Jun_03_1626,stroop_task_switching2,2021.2.3,60.093914757527806,
,,,红,green,d,square,color_mix,单词,,incompatible,2,block_switch1,instruction/ready_test.png,instruction/i11.png,,,,,,,,,,,,,,,,,0,0,0,0,0,73,73,73,,,,,,,,,,,,,,,,,,,,,,,,,,,534.3383810999803,534.5404642000212,534.5222100000246,534.8232261000085,534.8232261000085,None,535.3230526000261,None,d,1,1.3960269000381231,535.3230526000261,None,None,None,,,,,,,,,,,,,,,,,,,,,,,11025,2,1,2024_Jun_03_1626,stroop_task_switching2,2021.2.3,60.093914757527806,
,,,绿,blue,f,diamond,color_mix,颜色,,incompatible,2,block_switch1,instruction/ready_test.png,instruction/i11.png,,,,,,,,,,,,,,,,,0,0,0,0,0,74,74,74,,,,,,,,,,,,,,,,,,,,,,,,,,,536.7419228000217,536.9432906000293,536.9254974999931,537.2269380000071,537.2269380000071,None,537.7267547000083,None,k,0,1.7925430999603122,537.7267547000083,None,None,None,,,,,,,,,,,,,,,,,,,,,,,11025,2,1,2024_Jun_03_1626,stroop_task_switching2,2021.2.3,60.093914757527806,
,,,红,red,d,square,color_mix,单词,,compatible,2,block_switch1,instruction/ready_test.png,instruction/i11.png,,,,,,,,,,,,,,,,,0,0,0,0,0,75,75,75,,,,,,,,,,,,,,,,,,,,,,,,,,,539.5461553999921,539.7473600999801,539.7298338999972,540.0303034000099,540.0303034000099,None,540.5314167999895,None,d,1,1.3642739999922924,540.5314167999895,None,None,None,,,,,,,,,,,,,,,,,,,,,,,11025,2,1,2024_Jun_03_1626,stroop_task_switching2,2021.2.3,60.093914757527806,
,,,绿,green,k,diamond,color_mix,颜色,,compatible,2,block_switch1,instruction/ready_test.png,instruction/i11.png,,,,,,,,,,,,,,,,,0,0,0,0,0,76,76,76,,,,,,,,,,,,,,,,,,,,,,,,,,,541.9163580000168,542.1174953000154,542.1000161999837,542.4006566000171,542.4006566000171,None,542.9008978999918,None,k,1,0.5304743999731727,542.9008978999918,None,None,None,,,,,,,,,,,,,,,,,,,,,,,11025,2,1,2024_Jun_03_1626,stroop_task_switching2,2021.2.3,60.093914757527806,
,,,黄,red,j,square,color_mix,单词,,incompatible,2,block_switch1,instruction/ready_test.png,instruction/i11.png,,,,,,,,,,,,,,,,,0,0,0,0,0,77,77,77,,,,,,,,,,,,,,,,,,,,,,,,,,,543.4519093999988,543.6521829999983,543.635574200016,543.9374390000012,543.9374390000012,None,544.4369035999989,None,j,1,0.5225768000236712,544.4369035999989,None,None,None,,,,,,,,,,,,,,,,,,,,,,,11025,2,1,2024_Jun_03_1626,stroop_task_switching2,2021.2.3,60.093914757527806,
,,,红,red,d,square,color_mix,单词,,compatible,1,block_switch1,instruction/ready_test.png,instruction/i11.png,,,,,,,,,,,,,,,,,0,0,0,0,0,78,78,78,,,,,,,,,,,,,,,,,,,,,,,,,,,544.987713999988,545.1879130000016,545.1713682999834,545.4714903000277,545.4714903000277,None,545.9730831999914,None,d,1,0.8662436999729834,545.9730831999914,None,None,None,,,,,,,,,,,,,,,,,,,,,,,11025,2,1,2024_Jun_03_1626,stroop_task_switching2,2021.2.3,60.093914757527806,
,,,黄,yellow,j,square,color_mix,单词,,compatible,1,block_switch1,instruction/ready_test.png,instruction/i11.png,,,,,,,,,,,,,,,,,0,0,0,0,0,79,79,79,,,,,,,,,,,,,,,,,,,,,,,,,,,546.8572284000111,547.057449600019,547.0412894000183,547.3413515000138,547.3413515000138,None,547.8418613999966,None,j,1,0.6136501000146382,547.8418613999966,None,None,None,,,,,,,,,,,,,,,,,,,,,,,11025,2,1,2024_Jun_03_1626,stroop_task_switching2,2021.2.3,60.093914757527806,
,,,红,red,d,diamond,color_mix,颜色,,compatible,2,block_switch1,instruction/ready_test.png,instruction/i11.png,,,,,,,,,,,,,,,,,0,0,0,0,0,80,80,80,,,,,,,,,,,,,,,,,,,,,,,,,,,548.4760330999852,548.6777876000269,548.6599946999922,548.9611035999842,548.9611035999842,None,549.4611182000372,None,d,1,1.506303999980446,549.4611182000372,None,None,None,,,,,,,,,,,,,,,,,,,,,,,11025,2,1,2024_Jun_03_1626,stroop_task_switching2,2021.2.3,60.093914757527806,
,,,红,red,d,square,color_mix,单词,,compatible,2,block_switch1,instruction/ready_test.png,instruction/i11.png,,,,,,,,,,,,,,,,,0,0,0,0,0,81,81,81,,,,,,,,,,,,,,,,,,,,,,,,,,,550.9966491999803,551.1984087000019,551.1802821999881,551.4807056999998,551.4807056999998,None,551.9814758999855,None,d,1,0.3941385999787599,551.9814758999855,None,None,None,,,,,,,,,,,,,,,,,,,,,,,11025,2,1,2024_Jun_03_1626,stroop_task_switching2,2021.2.3,60.093914757527806,
,,,黄,blue,f,diamond,color_mix,颜色,,incompatible,2,block_switch1,instruction/ready_test.png,instruction/i11.png,,,,,,,,,,,,,,,,,0,0,0,0,0,82,82,82,,,,,,,,,,,,,,,,,,,,,,,,,,,552.3987456000177,552.5990441000322,552.5831215000362,552.8832671000273,552.8832671000273,None,553.3835620000027,None,f,1,0.8722623999929056,553.3835620000027,None,None,None,,,,,,,,,,,,,,,,,,,,,,,11025,2,1,2024_Jun_03_1626,stroop_task_switching2,2021.2.3,60.093914757527806,
,,,红,yellow,j,diamond,color_mix,颜色,,incompatible,1,block_switch1,instruction/ready_test.png,instruction/i11.png,,,,,,,,,,,,,,,,,0,0,0,0,0,83,83,83,,,,,,,,,,,,,,,,,,,,,,,,,,,554.2847897000029,554.4865781000117,554.4691653000191,554.7695260000182,554.7695260000182,None,555.2702568999957,None,j,1,1.265573799959384,555.2702568999957,None,None,None,,,,,,,,,,,,,,,,,,,,,,,11025,2,1,2024_Jun_03_1626,stroop_task_switching2,2021.2.3,60.093914757527806,
,,,黄,red,d,diamond,color_mix,颜色,,incompatible,1,block_switch1,instruction/ready_test.png,instruction/i11.png,,,,,,,,,,,,,,,,,0,0,0,0,0,84,84,84,,,,,,,,,,,,,,,,,,,,,,,,,,,556.5548998999875,556.7566453000181,556.7388250000076,557.039883600024,557.039883600024,None,557.5398980000173,None,d,1,1.0118763000355102,557.5398980000173,None,None,None,,,,,,,,,,,,,,,,,,,,,,,11025,2,1,2024_Jun_03_1626,stroop_task_switching2,2021.2.3,60.093914757527806,
,,,蓝,blue,f,square,color_mix,单词,,compatible,2,block_switch1,instruction/ready_test.png,instruction/i11.png,,,,,,,,,,,,,,,,,0,0,0,0,0,85,85,85,,,,,,,,,,,,,,,,,,,,,,,,,,,558.5747162000043,558.7758242000127,558.7586293999921,559.0589170000167,559.0589170000167,None,559.559661300038,None,f,1,2.7999935999978334,559.559661300038,None,None,None,,,,,,,,,,,,,,,,,,,,,,,11025,2,1,2024_Jun_03_1626,stroop_task_switching2,2021.2.3,60.093914757527806,
,,,绿,green,k,square,color_mix,单词,,compatible,1,block_switch1,instruction/ready_test.png,instruction/i11.png,,,,,,,,,,,,,,,,,0,0,0,0,0,86,86,86,,,,,,,,,,,,,,,,,,,,,,,,,,,562.380448699987,562.5814680000185,562.5642470000312,562.8646295000217,562.8646295000217,None,563.365269300004,None,k,1,0.5793559000012465,563.365269300004,None,None,None,,,,,,,,,,,,,,,,,,,,,,,11025,2,1,2024_Jun_03_1626,stroop_task_switching2,2021.2.3,60.093914757527806,
,,,红,red,d,square,color_mix,单词,,compatible,1,block_switch1,instruction/ready_test.png,instruction/i11.png,,,,,,,,,,,,,,,,,0,0,0,0,0,87,87,87,,,,,,,,,,,,,,,,,,,,,,,,,,,563.9661734999972,564.1676081999904,564.149830600014,564.4503373000189,564.4503373000189,None,564.9508782000048,None,d,1,0.712952799978666,564.9508782000048,None,None,None,,,,,,,,,,,,,,,,,,,,,,,11025,2,1,2024_Jun_03_1626,stroop_task_switching2,2021.2.3,60.093914757527806,
,,,黄,green,k,diamond,color_mix,颜色,,incompatible,2,block_switch1,instruction/ready_test.png,instruction/i11.png,,,,,,,,,,,,,,,,,0,0,0,0,0,88,88,88,,,,,,,,,,,,,,,,,,,,,,,,,,,565.6854517000029,565.885940600012,565.8692321000271,566.1698212000192,566.1698212000192,None,566.6705199999851,None,k,1,1.153261300001759,566.6705199999851,None,None,None,,,,,,,,,,,,,,,,,,,,,,,11025,2,1,2024_Jun_03_1626,stroop_task_switching2,2021.2.3,60.093914757527806,
,,,绿,red,k,square,color_mix,单词,,incompatible,2,block_switch1,instruction/ready_test.png,instruction/i11.png,,,,,,,,,,,,,,,,,0,0,0,0,0,89,89,89,,,,,,,,,,,,,,,,,,,,,,,,,,,567.8551688999869,568.0555925000226,568.0391237000003,568.339979899989,568.339979899989,None,568.8403974000248,None,k,1,1.4476437999983318,568.8403974000248,None,None,None,,,,,,,,,,,,,,,,,,,,,,,11025,2,1,2024_Jun_03_1626,stroop_task_switching2,2021.2.3,60.093914757527806,
,,,黄,green,j,square,color_mix,单词,,incompatible,1,block_switch1,instruction/ready_test.png,instruction/i11.png,,,,,,,,,,,,,,,,,0,0,0,0,0,90,90,90,,,,,,,,,,,,,,,,,,,,,,,,,,,570.3092934000306,570.5096278000274,570.4942402000306,570.8097684999811,570.7941474000108,None,571.2938973000273,None,j,1,1.6185533000389114,571.2938973000273,None,None,None,,,,,,,,,,,,,,,,,,,,,,,11025,2,1,2024_Jun_03_1626,stroop_task_switching2,2021.2.3,60.093914757527806,
,,,蓝,blue,f,square,color_mix,单词,,compatible,1,block_switch1,instruction/ready_test.png,instruction/i11.png,,,,,,,,,,,,,,,,,0,0,0,0,0,91,91,91,,,,,,,,,,,,,,,,,,,,,,,,,,,572.929679199995,573.1305600000196,573.1136334000039,573.4146933000302,573.4146933000302,None,573.9144149000058,None,f,1,0.5254038999555632,573.9144149000058,None,None,None,,,,,,,,,,,,,,,,,,,,,,,11025,2,1,2024_Jun_03_1626,stroop_task_switching2,2021.2.3,60.093914757527806,
,,,蓝,red,f,square,color_mix,单词,,incompatible,1,block_switch1,instruction/ready_test.png,instruction/i11.png,,,,,,,,,,,,,,,,,0,0,0,0,0,92,92,92,,,,,,,,,,,,,,,,,,,,,,,,,,,574.4656149999937,574.6657041999861,574.6492141000344,574.9494280000217,574.9494280000217,None,575.4511816999875,None,f,1,1.2129136000294238,575.4511816999875,None,None,None,,,,,,,,,,,,,,,,,,,,,,,11025,2,1,2024_Jun_03_1626,stroop_task_switching2,2021.2.3,60.093914757527806,
,,,黄,blue,j,square,color_mix,单词,,incompatible,1,block_switch1,instruction/ready_test.png,instruction/i11.png,,,,,,,,,,,,,,,,,0,0,0,0,0,93,93,93,,,,,,,,,,,,,,,,,,,,,,,,,,,576.6853202999919,576.8857493000105,576.870295300032,577.1704707000172,577.1704707000172,None,577.6702414000174,None,j,1,0.7058663000352681,577.6702414000174,None,None,None,,,,,,,,,,,,,,,,,,,,,,,11025,2,1,2024_Jun_03_1626,stroop_task_switching2,2021.2.3,60.093914757527806,
,,,绿,red,d,diamond,color_mix,颜色,,incompatible,2,block_switch1,instruction/ready_test.png,instruction/i11.png,,,,,,,,,,,,,,,,,0,0,0,0,0,94,94,94,,,,,,,,,,,,,,,,,,,,,,,,,,,578.4046571000363,578.6057240000227,578.5883790000225,578.8905499000102,578.8905499000102,None,579.3894758999813,None,k,0,0.34669730003224686,579.3894758999813,None,None,None,,,,,,,,,,,,,,,,,,,,,,,11025,2,1,2024_Jun_03_1626,stroop_task_switching2,2021.2.3,60.093914757527806,
,,,蓝,blue,f,diamond,color_mix,颜色,,compatible,1,block_switch1,instruction/ready_test.png,instruction/i11.png,,,,,,,,,,,,,,,,,0,0,0,0,0,95,95,95,,,,,,,,,,,,,,,,,,,,,,,,,,,579.7568240999826,579.9571351000341,579.9403183999821,580.2411813000217,580.2411813000217,None,580.7413219999871,None,d,0,0.5148716999683529,580.7413219999871,None,None,None,,,,,,,,,,,,,,,,,,,,,,,11025,2,1,2024_Jun_03_1626,stroop_task_switching2,2021.2.3,60.093914757527806,
,,,绿,green,k,square,color_mix,单词,,compatible,2,block_switch1,instruction/ready_test.png,instruction/i11.png,,,,,,,,,,,,,,,,,0,0,0,0,0,96,96,96,,,,,,,,,,,,,,,,,,,,,,,,,,,581.2755006999942,581.4772462000255,581.4594879000215,581.7608493000153,581.7608493000153,None,582.2605194000062,None,k,1,1.1715101999579929,582.2605194000062,None,None,None,,,,,,,,,,,,,,,,,,,,,,,11025,2,1,2024_Jun_03_1626,stroop_task_switching2,2021.2.3,60.093914757527806,
,,,,,,,,,,,,block_switch1,instruction/ready_test.png,instruction/i11.png,,,,,,,,,,,,,,,,,0,0,0,0,,,,,,,,,,,,,,,,,,,,,,,,,,,,,,,,,,,,,,,,,,,,,,,,,,,,,,,,,,,,583.4622156000114,None,space,8.53072290000273,583.4622156000114,None,,,11025,2,1,2024_Jun_03_1626,stroop_task_switching2,2021.2.3,60.093914757527806,
,,,蓝,blue,f,square,color_mix,单词,,compatible,0,block_switch2,instruction/ready_2.png,instruction/i12.png,,,,,,,,,,,,,,,,,0,1,1,1,0,0,0,0,,,,,,,,,,,,,,,,,,,595.6807162000332,596.6824933000025,596.6824933000025,597.6845272000064,597.6845272000064,None,594.6957407000009,595.6974729000358,598.7019129000255,598.9025147000211,598.8869566000067,599.1873652000213,599.1873652000213,None,599.6866571999853,None,f,1,1.0181648000143468,599.6866571999853,None,None,None,,,,,,,,,592.0252473999863,None,space,2.6551715999958105,592.0252473999863,None,,,,,,,,,11025,2,1,2024_Jun_03_1626,stroop_task_switching2,2021.2.3,60.093914757527806,
,,,黄,red,d,diamond,color_mix,颜色,,incompatible,2,block_switch2,instruction/ready_2.png,instruction/i12.png,,,,,,,,,,,,,,,,,0,1,1,1,0,1,1,1,,,,,,,,,,,,,,,,,,,,,,,,,,,600.7215973000275,600.9223011999857,600.9064682000317,601.2056960000191,601.2056960000191,None,601.7067227000371,None,d,1,0.7421934999874793,601.7067227000371,None,None,None,,,,,,,,,,,,,,,,,,,,,,,11025,2,1,2024_Jun_03_1626,stroop_task_switching2,2021.2.3,60.093914757527806,
,,,蓝,green,k,diamond,color_mix,颜色,,incompatible,1,block_switch2,instruction/ready_2.png,instruction/i12.png,,,,,,,,,,,,,,,,,0,1,1,1,0,2,2,2,,,,,,,,,,,,,,,,,,,,,,,,,,,602.4743036000291,602.6756345999893,602.6579065999831,602.9582443999825,602.9582443999825,None,603.4593527999823,None,k,1,0.6214594999910332,603.4593527999823,None,None,None,,,,,,,,,,,,,,,,,,,,,,,11025,2,1,2024_Jun_03_1626,stroop_task_switching2,2021.2.3,60.093914757527806,
,,,红,yellow,j,diamond,color_mix,颜色,,incompatible,1,block_switch2,instruction/ready_2.png,instruction/i12.png,,,,,,,,,,,,,,,,,0,1,1,1,0,3,3,3,,,,,,,,,,,,,,,,,,,,,,,,,,,604.1101621999987,604.3110408000066,604.2936438000179,604.5942041000235,604.5942041000235,None,605.0947706000297,None,j,1,0.754348500049673,605.0947706000297,None,None,None,,,,,,,,,,,,,,,,,,,,,,,11025,2,1,2024_Jun_03_1626,stroop_task_switching2,2021.2.3,60.093914757527806,
,,,红,red,d,diamond,color_mix,颜色,,compatible,1,block_switch2,instruction/ready_2.png,instruction/i12.png,,,,,,,,,,,,,,,,,0,1,1,1,0,4,4,4,,,,,,,,,,,,,,,,,,,,,,,,,,,605.8796508000232,606.0803063000203,606.0629609000171,606.3632087000296,606.3632087000296,None,606.8643259999808,None,d,1,0.6972353999735788,606.8643259999808,None,None,None,,,,,,,,,,,,,,,,,,,,,,,11025,2,1,2024_Jun_03_1626,stroop_task_switching2,2021.2.3,60.093914757527806,
,,,绿,green,k,square,color_mix,单词,,compatible,2,block_switch2,instruction/ready_2.png,instruction/i12.png,,,,,,,,,,,,,,,,,0,1,1,1,0,5,5,5,,,,,,,,,,,,,,,,,,,,,,,,,,,607.5818977000308,607.7836951999925,607.7656881000148,608.0662724000285,608.0662724000285,None,608.5666314000264,None,k,1,0.5381788000231609,608.5666314000264,None,None,None,,,,,,,,,,,,,,,,,,,,,,,11025,2,1,2024_Jun_03_1626,stroop_task_switching2,2021.2.3,60.093914757527806,
,,,黄,blue,f,diamond,color_mix,颜色,,incompatible,2,block_switch2,instruction/ready_2.png,instruction/i12.png,,,,,,,,,,,,,,,,,0,1,1,1,0,6,6,6,,,,,,,,,,,,,,,,,,,,,,,,,,,609.1341508000041,609.3345301999943,609.3188075000071,609.6192987000104,609.6192987000104,None,610.1193466000259,None,f,1,0.7378496000310406,610.1193466000259,None,None,None,,,,,,,,,,,,,,,,,,,,,,,11025,2,1,2024_Jun_03_1626,stroop_task_switching2,2021.2.3,60.093914757527806,
,,,绿,yellow,k,square,color_mix,单词,,incompatible,2,block_switch2,instruction/ready_2.png,instruction/i12.png,,,,,,,,,,,,,,,,,0,1,1,1,0,7,7,7,,,,,,,,,,,,,,,,,,,,,,,,,,,610.8870530999848,611.087336800003,611.0707209000248,611.3709159999853,611.3709159999853,None,611.8715443999972,None,k,1,0.6015516999759711,611.8715443999972,None,None,None,,,,,,,,,,,,,,,,,,,,,,,11025,2,1,2024_Jun_03_1626,stroop_task_switching2,2021.2.3,60.093914757527806,
,,,红,green,d,square,color_mix,单词,,incompatible,1,block_switch2,instruction/ready_2.png,instruction/i12.png,,,,,,,,,,,,,,,,,0,1,1,1,0,8,8,8,,,,,,,,,,,,,,,,,,,,,,,,,,,612.4893119999906,612.6900081000058,612.6749422000139,612.9731756999972,612.9731756999972,None,613.4742084000027,None,d,1,0.49493809998966753,613.4742084000027,None,None,None,,,,,,,,,,,,,,,,,,,,,,,11025,2,1,2024_Jun_03_1626,stroop_task_switching2,2021.2.3,60.093914757527806,
,,,黄,yellow,j,square,color_mix,单词,,compatible,1,block_switch2,instruction/ready_2.png,instruction/i12.png,,,,,,,,,,,,,,,,,0,1,1,1,0,9,9,9,,,,,,,,,,,,,,,,,,,,,,,,,,,613.9919864999829,614.1927244000253,614.1756494999863,614.4756645000307,614.4756645000307,None,614.9763913000352,None,j,1,1.2009016000083648,614.9763913000352,None,None,None,,,,,,,,,,,,,,,,,,,,,,,11025,2,1,2024_Jun_03_1626,stroop_task_switching2,2021.2.3,60.093914757527806,
