b_pra,ins_blocks,ins_blocks2,stim_word,stim_color,corrAns,cue_type,trial_type,task_type,rand,compatibility,switch,b_test,w_pic,w_pic2,trials_instr.thisRepN,trials_instr.thisTrialN,trials_instr.thisN,trials_instr.thisIndex,block_pra.thisRepN,block_pra.thisTrialN,block_pra.thisN,block_pra.thisIndex,trials_rep.thisRepN,trials_rep.thisTrialN,trials_rep.thisN,trials_rep.thisIndex,trials_pra.thisRepN,trials_pra.thisTrialN,trials_pra.thisN,trials_pra.thisIndex,trials_3.thisRepN,trials_3.thisTrialN,trials_3.thisN,trials_3.thisIndex,trials_2.thisRepN,trials_2.thisTrialN,trials_2.thisN,trials_2.thisIndex,instr_image.started,instr_image.stopped,instr_key_resp.keys,instr_key_resp.rt,instr_key_resp.started,instr_key_resp.stopped,instr_pra_image.started,instr_pra_image.stopped,ip_key_resp.keys,ip_key_resp.rt,ip_key_resp.started,ip_key_resp.stopped,block_image.started,block_image.stopped,ib_key_resp.keys,ib_key_resp.rt,ib_key_resp.started,ib_key_resp.stopped,cd3.started,cd3.stopped,cd2.started,cd2.stopped,cd1.started,cd1.stopped,cd_text.started,cd_text.stopped,text_fix.started,text_fix.stopped,text_2.started,text_2.stopped,text_4.started,text_4.stopped,text_target.started,text_target.stopped,key_resp.keys,key_resp.corr,key_resp.rt,key_resp.started,key_resp.stopped,sceen_black.started,sceen_black.stopped,text_fb.started,text_fb.stopped,text.started,text.stopped,key_bf.keys,key_bf.rt,key_bf.started,key_bf.stopped,instr_test_image.started,instr_test_image.stopped,instr_exp_key_resp.keys,instr_exp_key_resp.rt,instr_exp_key_resp.started,instr_exp_key_resp.stopped,text_rest.started,text_rest.stopped,key_resp_rest.keys,key_resp_rest.rt,key_resp_rest.started,key_resp_rest.stopped,text_3.started,text_3.stopped,participant,session,balance,date,expName,psychopyVersion,frameRate,
,,,,,,,,,,,,,,,0,0,0,0,,,,,,,,,,,,,,,,,,,,,337.5560287999979,None,right,1.054014899971662,337.5560287999979,None,,,,,,,,,,,,,,,,,,,,,,,,,,,,,,,,,,,,,,,,,,,,,,,,,,,,,,,,,,11023,1,2,2024_Jun_17_1039,stroop_task_switching2_b,2021.2.3,60.049781266735316,
,,,,,,,,,,,,,,,1,0,1,0,,,,,,,,,,,,,,,,,,,,,338.67483649999485,None,right,52.30421319999732,338.67483649999485,None,,,,,,,,,,,,,,,,,,,,,,,,,,,,,,,,,,,,,,,,,,,,,,,,,,,,,,,,,,11023,1,2,2024_Jun_17_1039,stroop_task_switching2_b,2021.2.3,60.049781266735316,
,,,,,,,,,,,,,,,2,0,2,0,,,,,,,,,,,,,,,,,,,,,391.06921610000427,None,right,0.3823366000142414,391.06921610000427,None,,,,,,,,,,,,,,,,,,,,,,,,,,,,,,,,,,,,,,,,,,,,,,,,,,,,,,,,,,11023,1,2,2024_Jun_17_1039,stroop_task_switching2_b,2021.2.3,60.049781266735316,
,,,,,,,,,,,,,,,3,0,3,0,,,,,,,,,,,,,,,,,,,,,391.48625760001596,None,right,0.15711590001592413,391.48625760001596,None,,,,,,,,,,,,,,,,,,,,,,,,,,,,,,,,,,,,,,,,,,,,,,,,,,,,,,,,,,11023,1,2,2024_Jun_17_1039,stroop_task_switching2_b,2021.2.3,60.049781266735316,
,,,,,,,,,,,,,,,4,0,4,0,,,,,,,,,,,,,,,,,,,,,391.7050323000003,None,right,0.10653409999213181,391.7050323000003,None,,,,,,,,,,,,,,,,,,,,,,,,,,,,,,,,,,,,,,,,,,,,,,,,,,,,,,,,,,11023,1,2,2024_Jun_17_1039,stroop_task_switching2_b,2021.2.3,60.049781266735316,
,,,,,,,,,,,,,,,5,0,5,0,,,,,,,,,,,,,,,,,,,,,391.85379310001736,None,right,0.3899045000143815,391.85379310001736,None,,,,,,,,,,,,,,,,,,,,,,,,,,,,,,,,,,,,,,,,,,,,,,,,,,,,,,,,,,11023,1,2,2024_Jun_17_1039,stroop_task_switching2_b,2021.2.3,60.049781266735316,
,,,,,,,,,,,,,,,,,,,,,,,,,,,,,,,,,,,,,,,,,,,,,392.2890496000182,None,space,1.886652800021693,392.2890496000182,None,,,,,,,,,,,,,,,,,,,,,,,,,,,,,,,,,,,,,,,,,,,,,,,,,,,,11023,1,2,2024_Jun_17_1039,stroop_task_switching2_b,2021.2.3,60.049781266735316,
condition/block_color_b,instruction/instr_color,instruction/i8_b,XX,red,k,diamond,color_single,颜色,,,,,,,,,,,0,0,0,0,0,0,0,0,0,0,0,0,,,,,,,,,,,,,,,,,,,,,394.223293499992,None,space,5.7955871999729425,394.223293499992,None,401.1033238999953,402.10394760000054,402.10394760000054,403.1050550999935,403.1050550999935,None,400.11755450000055,401.1180508999969,404.0890458000067,404.29124760002014,404.27250540000387,404.57313590002013,404.57313590002013,None,405.05702080001356,None,k,1,1.2424410000094213,405.05702080001356,None,None,None,406.32539820001693,None,,,,,,,,,,,,,,,,,,,,,11023,1,2,2024_Jun_17_1039,stroop_task_switching2_b,2021.2.3,60.049781266735316,
condition/block_color_b,instruction/instr_color,instruction/i8_b,XX,green,d,diamond,color_single,颜色,,,,,,,,,,,0,0,0,0,0,0,0,0,0,1,1,1,,,,,,,,,,,,,,,,,,,,,,,,,,,,,,,,,,,407.32792720000725,407.52763359999517,407.5114722000144,407.81127350000315,407.81127350000315,None,408.3121844000125,None,d,1,1.331688899983419,408.3121844000125,None,None,None,409.6640272999939,None,,,,,,,,,,,,,,,,,,,,,11023,1,2,2024_Jun_17_1039,stroop_task_switching2_b,2021.2.3,60.049781266735316,
condition/block_color_b,instruction/instr_color,instruction/i8_b,XX,yellow,f,diamond,color_single,颜色,,,,,,,,,,,0,0,0,0,0,0,0,0,0,2,2,2,,,,,,,,,,,,,,,,,,,,,,,,,,,,,,,,,,,410.6655095000169,410.8678765000077,410.8501302000077,411.14957520001917,411.14957520001917,None,411.6502252999926,None,f,1,1.2253503999963868,411.6502252999926,None,None,None,412.90214489999926,None,,,,,,,,,,,,,,,,,,,,,11023,1,2,2024_Jun_17_1039,stroop_task_switching2_b,2021.2.3,60.049781266735316,
condition/block_color_b,instruction/instr_color,instruction/i8_b,XX,blue,j,diamond,color_single,颜色,,,,,,,,,,,0,0,0,0,0,0,0,0,0,3,3,3,,,,,,,,,,,,,,,,,,,,,,,,,,,,,,,,,,,413.9038346000016,414.10623340000166,414.08734250001726,414.3878840999969,414.3878840999969,None,414.8886545000132,None,j,1,1.0270718000247143,414.8886545000132,None,None,None,415.94025660000625,None,,,,,,,,,,,,,,,,,,,,,11023,1,2,2024_Jun_17_1039,stroop_task_switching2_b,2021.2.3,60.049781266735316,
condition/block_color_b,instruction/instr_color,instruction/i8_b,XX,green,d,diamond,color_single,颜色,,,,,,,,,,,0,0,0,0,0,0,0,0,0,4,4,4,,,,,,,,,,,,,,,,,,,,,,,,,,,,,,,,,,,416.94175640001777,417.1443908000074,417.1095462999947,417.41037420000066,417.4278112000029,None,417.9266076000058,None,d,1,1.05331479999586,417.9266076000058,None,None,None,419.0117642999976,None,,,,,,,,,,,,,,,,,,,,,11023,1,2,2024_Jun_17_1039,stroop_task_switching2_b,2021.2.3,60.049781266735316,
condition/block_color_b,instruction/instr_color,instruction/i8_b,XX,yellow,f,diamond,color_single,颜色,,,,,,,,,,,0,0,0,0,0,0,0,0,0,5,5,5,,,,,,,,,,,,,,,,,,,,,,,,,,,,,,,,,,,420.0129739000113,420.2132074999972,420.19758500001626,420.49712129999534,420.49712129999534,None,420.99768659999245,None,f,1,0.9582856000051834,420.99768659999245,None,None,None,421.9825819999969,None,,,,,,,,,,,,,,,,,,,,,11023,1,2,2024_Jun_17_1039,stroop_task_switching2_b,2021.2.3,60.049781266735316,
condition/block_color_b,instruction/instr_color,instruction/i8_b,XX,blue,j,diamond,color_single,颜色,,,,,,,,,,,0,0,0,0,0,0,0,0,0,6,6,6,,,,,,,,,,,,,,,,,,,,,,,,,,,,,,,,,,,422.98406149999937,423.185313199996,423.1694812000205,423.48587910001515,423.47018430000753,None,423.9695774000138,None,j,1,0.7383720999932848,423.9695774000138,None,None,None,424.7368894999963,None,,,,,,,,,,,,,,,,,,,,,11023,1,2,2024_Jun_17_1039,stroop_task_switching2_b,2021.2.3,60.049781266735316,
condition/block_color_b,instruction/instr_color,instruction/i8_b,XX,red,k,diamond,color_single,颜色,,,,,,,,,,,0,0,0,0,0,0,0,0,0,7,7,7,,,,,,,,,,,,,,,,,,,,,,,,,,,,,,,,,,,425.7380443000002,425.9386627000058,425.90600670001004,426.2064444000134,426.2231088000117,None,426.72370600001886,None,k,1,0.6405196999839973,426.72370600001886,None,None,None,427.39128020001226,None,,,,,,,,,,,,,,,,,,,,,11023,1,2,2024_Jun_17_1039,stroop_task_switching2_b,2021.2.3,60.049781266735316,
condition/block_color_b,instruction/instr_color,instruction/i8_b,XX,yellow,f,diamond,color_single,颜色,,,,,,,,,,,0,0,0,0,0,0,0,0,0,8,8,8,,,,,,,,,,,,,,,,,,,,,,,,,,,,,,,,,,,428.3923674999969,428.5930517000088,428.57588970000506,428.8773427999986,428.8773427999986,None,429.3785690999939,None,f,1,0.8737087000044994,429.3785690999939,None,None,None,430.2785311000189,None,,,,,,,,,,,,,,,,,,,,,11023,1,2,2024_Jun_17_1039,stroop_task_switching2_b,2021.2.3,60.049781266735316,
condition/block_color_b,instruction/instr_color,instruction/i8_b,XX,blue,j,diamond,color_single,颜色,,,,,,,,,,,0,0,0,0,0,0,0,0,0,9,9,9,,,,,,,,,,,,,,,,,,,,,,,,,,,,,,,,,,,431.28014230000554,431.48060549999354,431.46487470000284,431.76550120001775,431.76550120001775,None,432.26560860002064,None,j,1,0.7226054999919143,432.26560860002064,None,None,None,433.0160317000118,None,,,,,,,,,,,,,,,,,,,,,11023,1,2,2024_Jun_17_1039,stroop_task_switching2_b,2021.2.3,60.049781266735316,
condition/block_color_b,instruction/instr_color,instruction/i8_b,XX,red,k,diamond,color_single,颜色,,,,,,,,,,,0,0,0,0,0,0,0,0,0,10,10,10,,,,,,,,,,,,,,,,,,,,,,,,,,,,,,,,,,,434.0176107000152,434.2198296000133,434.20212669999455,434.50162439999986,434.50162439999986,None,435.0028374000103,None,k,1,0.8023261000053026,435.0028374000103,None,None,None,435.83663700000034,None,,,,,,,,,,,,,,,,,,,,,11023,1,2,2024_Jun_17_1039,stroop_task_switching2_b,2021.2.3,60.049781266735316,
condition/block_color_b,instruction/instr_color,instruction/i8_b,XX,green,d,diamond,color_single,颜色,,,,,,,,,,,0,0,0,0,0,0,0,0,0,11,11,11,,,,,,,,,,,,,,,,,,,,,,,,,,,,,,,,,,,436.83842660000664,437.04041290000896,437.022103700001,437.32296380001935,437.32296380001935,None,437.82408560000476,None,d,1,0.7643812999885995,437.82408560000476,None,None,None,438.6077551000053,None,,,,,,,,,,,,,,,,,,,,,11023,1,2,2024_Jun_17_1039,stroop_task_switching2_b,2021.2.3,60.049781266735316,
condition/block_color_b,instruction/instr_color,instruction/i8_b,XX,blue,j,diamond,color_single,颜色,,,,,,,,,,,0,0,0,0,0,0,0,0,0,12,12,12,,,,,,,,,,,,,,,,,,,,,,,,,,,,,,,,,,,439.6092966000142,439.8116733999923,439.79297640000004,440.0933112000057,440.0933112000057,None,440.5940807000152,None,j,1,0.579215200006729,440.5940807000152,None,None,None,441.19495299999835,None,,,,,,,,,,,,,,,,,,,,,11023,1,2,2024_Jun_17_1039,stroop_task_switching2_b,2021.2.3,60.049781266735316,
condition/block_color_b,instruction/instr_color,instruction/i8_b,XX,red,k,diamond,color_single,颜色,,,,,,,,,,,0,0,0,0,0,0,0,0,0,13,13,13,,,,,,,,,,,,,,,,,,,,,,,,,,,,,,,,,,,442.19661690000794,442.3978476000193,442.38009009999223,442.6825918999966,442.6825918999966,None,443.1822333000018,None,k,1,0.4547204000118654,443.1822333000018,None,None,None,443.6653861000086,None,,,,,,,,,,,,,,,,,,,,,11023,1,2,2024_Jun_17_1039,stroop_task_switching2_b,2021.2.3,60.049781266735316,
condition/block_color_b,instruction/instr_color,instruction/i8_b,XX,green,d,diamond,color_single,颜色,,,,,,,,,,,0,0,0,0,0,0,0,0,0,14,14,14,,,,,,,,,,,,,,,,,,,,,,,,,,,,,,,,,,,444.6668464000104,444.86696559999837,444.85274140001275,445.1679090000107,445.15248770001926,None,445.6516948000062,None,d,1,0.7369989000144415,445.6516948000062,None,None,None,446.4196429000003,None,,,,,,,,,,,,,,,,,,,,,11023,1,2,2024_Jun_17_1039,stroop_task_switching2_b,2021.2.3,60.049781266735316,
condition/block_color_b,instruction/instr_color,instruction/i8_b,XX,yellow,f,diamond,color_single,颜色,,,,,,,,,,,0,0,0,0,0,0,0,0,0,15,15,15,,,,,,,,,,,,,,,,,,,,,,,,,,,,,,,,,,,447.42238770000404,447.6215252999973,447.6046328000084,447.90694580000127,447.90694580000127,None,448.4059297000058,None,f,1,0.470664200023748,448.4059297000058,None,None,None,448.90662610001164,None,,,,,,,,,,,,,,,,,,,,,11023,1,2,2024_Jun_17_1039,stroop_task_switching2_b,2021.2.3,60.049781266735316,
condition/block_color_b,instruction/instr_color,instruction/i8_b,XX,red,k,diamond,color_single,颜色,,,,,,,,,,,0,0,0,0,0,0,0,0,0,16,16,16,,,,,,,,,,,,,,,,,,,,,,,,,,,,,,,,,,,449.90858560000197,450.10987909999676,450.0925091000099,450.39268459999585,450.39268459999585,None,450.89271869999357,None,k,1,0.4400626000133343,450.89271869999357,None,None,None,451.3603744000138,None,,,,,,,,,,,,,,,,,,,,,11023,1,2,2024_Jun_17_1039,stroop_task_switching2_b,2021.2.3,60.049781266735316,
condition/block_color_b,instruction/instr_color,instruction/i8_b,XX,green,d,diamond,color_single,颜色,,,,,,,,,,,0,0,0,0,0,0,0,0,0,17,17,17,,,,,,,,,,,,,,,,,,,,,,,,,,,,,,,,,,,452.3627162000048,452.5621507000178,452.54681540001184,452.84713320000446,452.84713320000446,None,453.34693430000334,None,d,1,0.6579228000191506,453.34693430000334,None,None,None,454.03087340001366,None,,,,,,,,,,,,,,,,,,,,,11023,1,2,2024_Jun_17_1039,stroop_task_switching2_b,2021.2.3,60.049781266735316,
condition/block_color_b,instruction/instr_color,instruction/i8_b,XX,yellow,f,diamond,color_single,颜色,,,,,,,,,,,0,0,0,0,0,0,0,0,0,18,18,18,,,,,,,,,,,,,,,,,,,,,,,,,,,,,,,,,,,455.03256079999846,455.2329255999939,455.2168031000183,455.51815160000115,455.51815160000115,None,456.01838650001446,None,f,1,0.5150317999941763,456.01838650001446,None,None,None,456.5512621999951,None,,,,,,,,,,,,,,,,,,,,,11023,1,2,2024_Jun_17_1039,stroop_task_switching2_b,2021.2.3,60.049781266735316,
condition/block_color_b,instruction/instr_color,instruction/i8_b,XX,blue,j,diamond,color_single,颜色,,,,,,,,,,,0,0,0,0,0,0,0,0,0,19,19,19,,,,,,,,,,,,,,,,,,,,,,,,,,,,,,,,,,,457.5528244000161,457.75447580000036,457.7370321000053,458.03698580001947,458.03698580001947,None,458.53815629999735,None,j,1,0.7466389999899548,458.53815629999735,None,None,None,459.30555380001897,None,,,,,,,,,,,,,,,,,,,,,11023,1,2,2024_Jun_17_1039,stroop_task_switching2_b,2021.2.3,60.049781266735316,
condition/block_color_b,instruction/instr_color,instruction/i8_b,XX,green,d,diamond,color_single,颜色,,,,,,,,,,,0,0,0,0,0,0,0,0,0,20,20,20,,,,,,,,,,,,,,,,,,,,,,,,,,,,,,,,,,,460.30717300000833,460.50813659999403,460.4922898999939,460.79120249999687,460.79120249999687,None,461.2929776000092,None,d,1,0.6489888000069186,461.2929776000092,None,None,None,461.9596842000028,None,,,,,,,,,,,,,,,,,,,,,11023,1,2,2024_Jun_17_1039,stroop_task_switching2_b,2021.2.3,60.049781266735316,
condition/block_color_b,instruction/instr_color,instruction/i8_b,XX,yellow,f,diamond,color_single,颜色,,,,,,,,,,,0,0,0,0,0,0,0,0,0,21,21,21,,,,,,,,,,,,,,,,,,,,,,,,,,,,,,,,,,,462.9609975000203,463.1618502000056,463.1454494000063,463.44531060001464,463.44531060001464,None,463.9458643000107,None,f,1,0.4989964999840595,463.9458643000107,None,None,None,464.46323900000425,None,,,,,,,,,,,,,,,,,,,,,11023,1,2,2024_Jun_17_1039,stroop_task_switching2_b,2021.2.3,60.049781266735316,
condition/block_color_b,instruction/instr_color,instruction/i8_b,XX,blue,j,diamond,color_single,颜色,,,,,,,,,,,0,0,0,0,0,0,0,0,0,22,22,22,,,,,,,,,,,,,,,,,,,,,,,,,,,,,,,,,,,465.4649861000071,465.666161000001,465.648563499999,465.95091169999796,465.95091169999796,None,466.44964730000356,None,j,1,0.483663399994839,466.44964730000356,None,None,None,466.95056399999885,None,,,,,,,,,,,,,,,,,,,,,11023,1,2,2024_Jun_17_1039,stroop_task_switching2_b,2021.2.3,60.049781266735316,
condition/block_color_b,instruction/instr_color,instruction/i8_b,XX,red,k,diamond,color_single,颜色,,,,,,,,,,,0,0,0,0,0,0,0,0,0,23,23,23,,,,,,,,,,,,,,,,,,,,,,,,,,,,,,,,,,,467.95201680000173,468.15304420000757,468.13743120001163,468.4369057000149,468.4369057000149,None,468.93766359999427,None,k,1,0.37206399999558926,468.93766359999427,None,None,None,469.33750550000696,None,,,,,,,,,,,,,,,,,,,,,11023,1,2,2024_Jun_17_1039,stroop_task_switching2_b,2021.2.3,60.049781266735316,
condition/block_color_b,instruction/instr_color,instruction/i8_b,,,,,,,,,,,,,,,,,0,0,0,0,0,0,0,0,,,,,,,,,,,,,,,,,,,,,,,,,,,,,,,,,,,,,,,,,,,,,,,,,,,,,,,,470.35587530001067,None,space,2.5585024999745656,470.35587530001067,None,,,,,,,,,,,,,,,11023,1,2,2024_Jun_17_1039,stroop_task_switching2_b,2021.2.3,60.049781266735316,
condition/block_color_b,instruction/instr_color,instruction/i8_b,,,,,,,,,,,,,,,,,0,0,0,0,,,,,,,,,,,,,,,,,,,,,,,,,,,,,,,,,,,,,,,,,,,,,,,,,,,,,,,,,,,,,,,,,,,,,,,,,,,,,,,,11023,1,2,2024_Jun_17_1039,stroop_task_switching2_b,2021.2.3,60.049781266735316,
condition/block_word_b,instruction/instr_word,instruction/i9_b,黄,white,f,square,word_single,单词,0.0032461461866890584,,,,,,,,,,0,1,1,1,0,0,0,0,0,0,0,0,,,,,,,,,,,,,,,,,,,,,472.9767749000166,None,space,4.994955600006506,472.9767749000166,None,479.002802300005,480.00352610001573,480.00352610001573,481.0050508000131,481.0050508000131,None,478.0188355999999,479.01860000001034,482.041893000016,482.24010100000305,482.22519940001075,482.5263158000016,482.5263158000016,None,483.00813240002026,None,f,1,0.9494587000226602,483.00813240002026,None,None,None,483.9765001000196,None,,,,,,,,,,,,,,,,,,,,,11023,1,2,2024_Jun_17_1039,stroop_task_switching2_b,2021.2.3,60.049781266735316,
condition/block_word_b,instruction/instr_word,instruction/i9_b,蓝,white,j,square,word_single,单词,0.060540570646362424,,,,,,,,,,0,1,1,1,0,0,0,0,0,1,1,1,,,,,,,,,,,,,,,,,,,,,,,,,,,,,,,,,,,484.9774711999926,485.17838600001414,485.1611228999973,485.46182450000197,485.46182450000197,None,485.9626122000045,None,j,1,0.6430074000090826,485.9626122000045,None,None,None,486.63094490001095,None,,,,,,,,,,,,,,,,,,,,,11023,1,2,2024_Jun_17_1039,stroop_task_switching2_b,2021.2.3,60.049781266735316,
condition/block_word_b,instruction/instr_word,instruction/i9_b,黄,white,f,square,word_single,单词,0.06994067193778963,,,,,,,,,,0,1,1,1,0,0,0,0,0,2,2,2,,,,,,,,,,,,,,,,,,,,,,,,,,,,,,,,,,,487.63220590000856,487.8325085999968,487.8152587999939,488.1173917000124,488.1173917000124,None,488.616803300014,None,j,0,0.5493251000007149,488.616803300014,None,None,None,489.18532710001455,None,,,,,,,,,,,,,,,,,,,,,11023,1,2,2024_Jun_17_1039,stroop_task_switching2_b,2021.2.3,60.049781266735316,
condition/block_word_b,instruction/instr_word,instruction/i9_b,蓝,white,j,square,word_single,单词,0.08193765152950094,,,,,,,,,,0,1,1,1,0,0,0,0,0,3,3,3,,,,,,,,,,,,,,,,,,,,,,,,,,,,,,,,,,,490.18544170001405,490.3860396000091,490.36982409999473,490.6712911000068,490.6712911000068,None,491.1714046999987,None,j,1,0.5386964000063017,491.1714046999987,None,None,None,491.7392817999935,None,,,,,,,,,,,,,,,,,,,,,11023,1,2,2024_Jun_17_1039,stroop_task_switching2_b,2021.2.3,60.049781266735316,
condition/block_word_b,instruction/instr_word,instruction/i9_b,红,white,k,square,word_single,单词,0.1279694370605574,,,,,,,,,,0,1,1,1,0,0,0,0,0,4,4,4,,,,,,,,,,,,,,,,,,,,,,,,,,,,,,,,,,,492.74045830001705,492.9409802000155,492.92383450001944,493.2240420000162,493.2240420000162,None,493.7241628000047,None,k,1,0.4256738999974914,493.7241628000047,None,None,None,494.1748055999924,None,,,,,,,,,,,,,,,,,,,,,11023,1,2,2024_Jun_17_1039,stroop_task_switching2_b,2021.2.3,60.049781266735316,
condition/block_word_b,instruction/instr_word,instruction/i9_b,红,white,k,square,word_single,单词,0.18345028784879092,,,,,,,,,,0,1,1,1,0,0,0,0,0,5,5,5,,,,,,,,,,,,,,,,,,,,,,,,,,,,,,,,,,,495.17660330000217,495.3773438000062,495.35988329999964,495.66056439999375,495.66056439999375,None,496.16108879999956,None,k,1,0.5890257999999449,496.16108879999956,None,None,None,496.7787636000139,None,,,,,,,,,,,,,,,,,,,,,11023,1,2,2024_Jun_17_1039,stroop_task_switching2_b,2021.2.3,60.049781266735316,
condition/block_word_b,instruction/instr_word,instruction/i9_b,蓝,white,j,square,word_single,单词,0.19920386223101294,,,,,,,,,,0,1,1,1,0,0,0,0,0,6,6,6,,,,,,,,,,,,,,,,,,,,,,,,,,,,,,,,,,,497.7817786000087,497.9815823000099,497.964008400013,498.2645349999948,498.2645349999948,None,498.7652757000178,None,j,1,0.6485648999805562,498.7652757000178,None,None,None,499.4328315000166,None,,,,,,,,,,,,,,,,,,,,,11023,1,2,2024_Jun_17_1039,stroop_task_switching2_b,2021.2.3,60.049781266735316,
condition/block_word_b,instruction/instr_word,instruction/i9_b,蓝,white,j,square,word_single,单词,0.26360599864925405,,,,,,,,,,0,1,1,1,0,0,0,0,0,7,7,7,,,,,,,,,,,,,,,,,,,,,,,,,,,,,,,,,,,500.4346290999965,500.6346554000047,500.6194378999935,500.91825660000904,500.91825660000904,None,501.4200445000024,None,k,0,0.7380161999899428,501.4200445000024,None,None,None,502.1869849000068,None,,,,,,,,,,,,,,,,,,,,,11023,1,2,2024_Jun_17_1039,stroop_task_switching2_b,2021.2.3,60.049781266735316,
condition/block_word_b,instruction/instr_word,instruction/i9_b,蓝,white,j,square,word_single,单词,0.358985675745526,,,,,,,,,,0,1,1,1,0,0,0,0,0,8,8,8,,,,,,,,,,,,,,,,,,,,,,,,,,,,,,,,,,,503.18987450000714,503.3890789000143,503.37252830000944,503.6733943000145,503.6733943000145,None,504.1732600000105,None,j,1,0.5369849000126123,504.1732600000105,None,None,None,504.74123889999464,None,,,,,,,,,,,,,,,,,,,,,11023,1,2,2024_Jun_17_1039,stroop_task_switching2_b,2021.2.3,60.049781266735316,
condition/block_word_b,instruction/instr_word,instruction/i9_b,绿,white,d,square,word_single,单词,0.36496733802487347,,,,,,,,,,0,1,1,1,0,0,0,0,0,9,9,9,,,,,,,,,,,,,,,,,,,,,,,,,,,,,,,,,,,505.7420313000039,505.94340690001263,505.9274931999971,506.2270610000123,506.2270610000123,None,506.7274296999967,None,d,1,1.1587518000160344,506.7274296999967,None,None,None,507.9122708000068,None,,,,,,,,,,,,,,,,,,,,,11023,1,2,2024_Jun_17_1039,stroop_task_switching2_b,2021.2.3,60.049781266735316,
condition/block_word_b,instruction/instr_word,instruction/i9_b,黄,white,f,square,word_single,单词,0.3743513623756727,,,,,,,,,,0,1,1,1,0,0,0,0,0,10,10,10,,,,,,,,,,,,,,,,,,,,,,,,,,,,,,,,,,,508.91447270000936,509.11432740002056,509.09782590001123,509.398949800001,509.398949800001,None,509.8989327000163,None,f,1,0.5075614000088535,509.8989327000163,None,None,None,510.4327714999963,None,,,,,,,,,,,,,,,,,,,,,11023,1,2,2024_Jun_17_1039,stroop_task_switching2_b,2021.2.3,60.049781266735316,
condition/block_word_b,instruction/instr_word,instruction/i9_b,红,white,k,square,word_single,单词,0.3894803852598544,,,,,,,,,,0,1,1,1,0,0,0,0,0,11,11,11,,,,,,,,,,,,,,,,,,,,,,,,,,,,,,,,,,,511.4357261999976,511.63531090001925,511.61997590001556,511.93618790002074,511.91825139999855,None,512.4191684999969,None,k,1,0.9153391999716405,512.4191684999969,None,None,None,513.3538715000032,None,,,,,,,,,,,,,,,,,,,,,11023,1,2,2024_Jun_17_1039,stroop_task_switching2_b,2021.2.3,60.049781266735316,
condition/block_word_b,instruction/instr_word,instruction/i9_b,绿,white,d,square,word_single,单词,0.5393759672408067,,,,,,,,,,0,1,1,1,0,0,0,0,0,12,12,12,,,,,,,,,,,,,,,,,,,,,,,,,,,,,,,,,,,514.3551658999932,514.5555355999968,514.5412826999964,514.8570678000106,514.8394454999943,None,515.3401013000112,None,d,1,0.747036399989156,515.3401013000112,None,None,None,516.1087807000149,None,,,,,,,,,,,,,,,,,,,,,11023,1,2,2024_Jun_17_1039,stroop_task_switching2_b,2021.2.3,60.049781266735316,
condition/block_word_b,instruction/instr_word,instruction/i9_b,蓝,white,j,square,word_single,单词,0.5995731954831104,,,,,,,,,,0,1,1,1,0,0,0,0,0,13,13,13,,,,,,,,,,,,,,,,,,,,,,,,,,,,,,,,,,,517.1101258000126,517.3121804000111,517.2930942999956,517.5943863000139,517.5943863000139,None,518.0941934000002,None,j,1,0.7130214999779128,518.0941934000002,None,None,None,518.8287008000189,None,,,,,,,,,,,,,,,,,,,,,11023,1,2,2024_Jun_17_1039,stroop_task_switching2_b,2021.2.3,60.049781266735316,
condition/block_word_b,instruction/instr_word,instruction/i9_b,红,white,k,square,word_single,单词,0.6298674479151414,,,,,,,,,,0,1,1,1,0,0,0,0,0,14,14,14,,,,,,,,,,,,,,,,,,,,,,,,,,,,,,,,,,,519.8316815000144,520.030528800009,520.0160581000091,520.3321930000093,520.3162455999991,None,520.8149452999933,None,k,1,0.6720627000031527,520.8149452999933,None,None,None,521.5161321000196,None,,,,,,,,,,,,,,,,,,,,,11023,1,2,2024_Jun_17_1039,stroop_task_switching2_b,2021.2.3,60.049781266735316,
condition/block_word_b,instruction/instr_word,instruction/i9_b,红,white,k,square,word_single,单词,0.7389942282348904,,,,,,,,,,0,1,1,1,0,0,0,0,0,15,15,15,,,,,,,,,,,,,,,,,,,,,,,,,,,,,,,,,,,522.5187127999961,522.7193535999977,522.7012358999928,523.0016172000032,523.0016172000032,None,523.5033495000098,None,k,1,0.535203300009016,523.5033495000098,None,None,None,524.0531346000207,None,,,,,,,,,,,,,,,,,,,,,11023,1,2,2024_Jun_17_1039,stroop_task_switching2_b,2021.2.3,60.049781266735316,
condition/block_word_b,instruction/instr_word,instruction/i9_b,绿,white,d,square,word_single,单词,0.7550853947239682,,,,,,,,,,0,1,1,1,0,0,0,0,0,16,16,16,,,,,,,,,,,,,,,,,,,,,,,,,,,,,,,,,,,525.0553956000076,525.2564904000028,525.2383320000081,525.540083800006,525.540083800006,None,526.039672999992,None,d,1,0.5911699999996927,526.039672999992,None,None,None,526.657140299998,None,,,,,,,,,,,,,,,,,,,,,11023,1,2,2024_Jun_17_1039,stroop_task_switching2_b,2021.2.3,60.049781266735316,
condition/block_word_b,instruction/instr_word,instruction/i9_b,绿,white,d,square,word_single,单词,0.8019302780428206,,,,,,,,,,0,1,1,1,0,0,0,0,0,17,17,17,,,,,,,,,,,,,,,,,,,,,,,,,,,,,,,,,,,527.6601561999996,527.8756641999935,527.8423171000031,528.14396820002,528.14396820002,None,528.6443253000034,None,d,1,0.746906799991848,528.6443253000034,None,None,None,529.4113153000071,None,,,,,,,,,,,,,,,,,,,,,11023,1,2,2024_Jun_17_1039,stroop_task_switching2_b,2021.2.3,60.049781266735316,
condition/block_word_b,instruction/instr_word,instruction/i9_b,绿,white,d,square,word_single,单词,0.8110702914095343,,,,,,,,,,0,1,1,1,0,0,0,0,0,18,18,18,,,,,,,,,,,,,,,,,,,,,,,,,,,,,,,,,,,530.4136754999927,530.6139411000186,530.5972735999967,530.8988457999949,530.8988457999949,None,531.3976283000084,None,d,1,0.49819579999893904,531.3976283000084,None,None,None,531.9149266000022,None,,,,,,,,,,,,,,,,,,,,,11023,1,2,2024_Jun_17_1039,stroop_task_switching2_b,2021.2.3,60.049781266735316,
condition/block_word_b,instruction/instr_word,instruction/i9_b,黄,white,f,square,word_single,单词,0.8176594937590999,,,,,,,,,,0,1,1,1,0,0,0,0,0,19,19,19,,,,,,,,,,,,,,,,,,,,,,,,,,,,,,,,,,,532.9167234000051,533.1176139000163,533.1014550999971,533.4006119999976,533.4006119999976,None,533.9013975000125,None,f,1,0.4575104000105057,533.9013975000125,None,None,None,534.385644199996,None,,,,,,,,,,,,,,,,,,,,,11023,1,2,2024_Jun_17_1039,stroop_task_switching2_b,2021.2.3,60.049781266735316,
condition/block_word_b,instruction/instr_word,instruction/i9_b,红,white,k,square,word_single,单词,0.8955794421104841,,,,,,,,,,0,1,1,1,0,0,0,0,0,20,20,20,,,,,,,,,,,,,,,,,,,,,,,,,,,,,,,,,,,535.3871192999941,535.5876113999984,535.5707066000032,535.8730903000105,535.8730903000105,None,536.373053599993,None,k,1,0.5781005000171717,536.373053599993,None,None,None,536.9726394000172,None,,,,,,,,,,,,,,,,,,,,,11023,1,2,2024_Jun_17_1039,stroop_task_switching2_b,2021.2.3,60.049781266735316,
condition/block_word_b,instruction/instr_word,instruction/i9_b,绿,white,d,square,word_single,单词,0.9113598052474129,,,,,,,,,,0,1,1,1,0,0,0,0,0,21,21,21,,,,,,,,,,,,,,,,,,,,,,,,,,,,,,,,,,,537.9753158999956,538.1759729000041,538.158271799999,538.459033799998,538.459033799998,None,538.9595435000083,None,d,1,0.5598372000094969,538.9595435000083,None,None,None,539.5432954000134,None,,,,,,,,,,,,,,,,,,,,,11023,1,2,2024_Jun_17_1039,stroop_task_switching2_b,2021.2.3,60.049781266735316,
condition/block_word_b,instruction/instr_word,instruction/i9_b,黄,white,f,square,word_single,单词,0.9215930958042953,,,,,,,,,,0,1,1,1,0,0,0,0,0,22,22,22,,,,,,,,,,,,,,,,,,,,,,,,,,,,,,,,,,,540.5451253000065,540.7449538999936,540.7283806000196,541.0292946000118,541.0292946000118,None,541.5296764000086,None,f,1,0.5181491000112146,541.5296764000086,None,None,None,542.0636811000004,None,,,,,,,,,,,,,,,,,,,,,11023,1,2,2024_Jun_17_1039,stroop_task_switching2_b,2021.2.3,60.049781266735316,
condition/block_word_b,instruction/instr_word,instruction/i9_b,黄,white,f,square,word_single,单词,0.9493525498837774,,,,,,,,,,0,1,1,1,0,0,0,0,0,23,23,23,,,,,,,,,,,,,,,,,,,,,,,,,,,,,,,,,,,543.0652614000137,543.2662299000076,543.2489092000178,543.5494856000005,543.5494856000005,None,544.0504790999985,None,f,1,0.61279480002122,544.0504790999985,None,None,None,544.6843644000182,None,,,,,,,,,,,,,,,,,,,,,11023,1,2,2024_Jun_17_1039,stroop_task_switching2_b,2021.2.3,60.049781266735316,
condition/block_word_b,instruction/instr_word,instruction/i9_b,,,,,,,,,,,,,,,,,0,1,1,1,0,0,0,0,,,,,,,,,,,,,,,,,,,,,,,,,,,,,,,,,,,,,,,,,,,,,,,,,,,,,,,,545.6854862000037,None,space,2.7627760999894235,545.6854862000037,None,,,,,,,,,,,,,,,11023,1,2,2024_Jun_17_1039,stroop_task_switching2_b,2021.2.3,60.049781266735316,
condition/block_word_b,instruction/instr_word,instruction/i9_b,,,,,,,,,,,,,,,,,0,1,1,1,,,,,,,,,,,,,,,,,,,,,,,,,,,,,,,,,,,,,,,,,,,,,,,,,,,,,,,,,,,,,,,,,,,,,,,,,,,,,,,,11023,1,2,2024_Jun_17_1039,stroop_task_switching2_b,2021.2.3,60.049781266735316,
condition/block_mixed_b,instruction/instr_mixed,instruction/i10_b,蓝,red,k,diamond,color_mix,颜色,,incompatible,0,,,,,,,,0,2,2,2,0,0,0,0,0,0,0,0,,,,,,,,,,,,,,,,,,,,,548.4900542999967,None,space,19.36985009998898,548.4900542999967,None,568.8881127999921,569.8890062000137,569.8890062000137,570.8922729000042,570.8922729000042,None,567.9043317000032,568.9045812000113,571.926835899998,572.1266581999953,572.1103928000084,572.4095842000097,572.4095842000097,None,572.8942877000081,None,j,0,1.0657494000042789,572.8942877000081,None,None,None,573.9786810000078,None,,,,,,,,,,,,,,,,,,,,,11023,1,2,2024_Jun_17_1039,stroop_task_switching2_b,2021.2.3,60.049781266735316,
condition/block_mixed_b,instruction/instr_mixed,instruction/i10_b,绿,yellow,f,diamond,color_mix,颜色,,incompatible,1,,,,,,,,0,2,2,2,0,0,0,0,0,1,1,1,,,,,,,,,,,,,,,,,,,,,,,,,,,,,,,,,,,574.9800040000118,575.1803045000124,575.1644271000114,575.4646262000024,575.4646262000024,None,575.9648159999924,None,f,1,1.1553638000041246,575.9648159999924,None,None,None,577.1508115000033,None,,,,,,,,,,,,,,,,,,,,,11023,1,2,2024_Jun_17_1039,stroop_task_switching2_b,2021.2.3,60.049781266735316,
condition/block_mixed_b,instruction/instr_mixed,instruction/i10_b,红,green,d,diamond,color_mix,颜色,,incompatible,1,,,,,,,,0,2,2,2,0,0,0,0,0,2,2,2,,,,,,,,,,,,,,,,,,,,,,,,,,,,,,,,,,,578.1521511000174,578.3542484999925,578.3356077000208,578.6362659000151,578.6362659000151,None,579.1364018000022,None,d,1,0.7916516000113916,579.1364018000022,None,None,None,579.9543542000174,None,,,,,,,,,,,,,,,,,,,,,11023,1,2,2024_Jun_17_1039,stroop_task_switching2_b,2021.2.3,60.049781266735316,
condition/block_mixed_b,instruction/instr_mixed,instruction/i10_b,蓝,red,k,diamond,color_mix,颜色,,incompatible,1,,,,,,,,0,2,2,2,0,0,0,0,0,3,3,3,,,,,,,,,,,,,,,,,,,,,,,,,,,,,,,,,,,580.9559031999961,581.1565477999975,581.1416403000185,581.4562657999923,581.4409941000049,None,581.9415975000011,None,k,1,1.0509508999821264,581.9415975000011,None,None,None,583.0090958999936,None,,,,,,,,,,,,,,,,,,,,,11023,1,2,2024_Jun_17_1039,stroop_task_switching2_b,2021.2.3,60.049781266735316,
condition/block_mixed_b,instruction/instr_mixed,instruction/i10_b,红,blue,j,diamond,color_mix,颜色,,incompatible,1,,,,,,,,0,2,2,2,0,0,0,0,0,4,4,4,,,,,,,,,,,,,,,,,,,,,,,,,,,,,,,,,,,584.0111868999957,584.2112860000052,584.1947272999969,584.4955413000134,584.4955413000134,None,584.995246800012,None,j,1,0.7571746000030544,584.995246800012,None,None,None,585.7796396000194,None,,,,,,,,,,,,,,,,,,,,,11023,1,2,2024_Jun_17_1039,stroop_task_switching2_b,2021.2.3,60.049781266735316,
condition/block_mixed_b,instruction/instr_mixed,instruction/i10_b,红,blue,k,square,color_mix,单词,,incompatible,2,,,,,,,,0,2,2,2,0,0,0,0,0,5,5,5,,,,,,,,,,,,,,,,,,,,,,,,,,,,,,,,,,,586.7811292000115,586.983759499999,586.9647418000095,587.2657089999993,587.2657089999993,None,587.766207800014,None,k,1,1.3383313000085764,587.766207800014,None,None,None,589.1347964000015,None,,,,,,,,,,,,,,,,,,,,,11023,1,2,2024_Jun_17_1039,stroop_task_switching2_b,2021.2.3,60.049781266735316,
condition/block_mixed_b,instruction/instr_mixed,instruction/i10_b,红,yellow,f,diamond,color_mix,颜色,,incompatible,2,,,,,,,,0,2,2,2,0,0,0,0,0,6,6,6,,,,,,,,,,,,,,,,,,,,,,,,,,,,,,,,,,,590.1363058999996,590.3371188000019,590.3202354999958,590.6202880000055,590.6202880000055,None,591.1214197000081,None,f,1,0.975239799998235,591.1214197000081,None,None,None,592.1225720999937,None,,,,,,,,,,,,,,,,,,,,,11023,1,2,2024_Jun_17_1039,stroop_task_switching2_b,2021.2.3,60.049781266735316,
condition/block_mixed_b,instruction/instr_mixed,instruction/i10_b,红,yellow,k,square,color_mix,单词,,incompatible,2,,,,,,,,0,2,2,2,0,0,0,0,0,7,7,7,,,,,,,,,,,,,,,,,,,,,,,,,,,,,,,,,,,593.1249238000019,593.325310300017,593.3085519000015,593.6098936000199,593.6098936000199,None,594.1086540000106,None,j,0,2.084404799999902,594.1086540000106,None,None,None,596.212025899993,None,,,,,,,,,,,,,,,,,,,,,11023,1,2,2024_Jun_17_1039,stroop_task_switching2_b,2021.2.3,60.049781266735316,
condition/block_mixed_b,instruction/instr_mixed,instruction/i10_b,绿,blue,d,square,color_mix,单词,,incompatible,1,,,,,,,,0,2,2,2,0,0,0,0,0,8,8,8,,,,,,,,,,,,,,,,,,,,,,,,,,,,,,,,,,,597.214524400013,597.4138030000031,597.3972146000015,597.6985556000145,597.6985556000145,None,598.1993969000177,None,f,0,1.8334084999805782,598.1993969000177,None,None,None,600.051361299993,None,,,,,,,,,,,,,,,,,,,,,11023,1,2,2024_Jun_17_1039,stroop_task_switching2_b,2021.2.3,60.049781266735316,
condition/block_mixed_b,instruction/instr_mixed,instruction/i10_b,蓝,green,d,diamond,color_mix,颜色,,incompatible,2,,,,,,,,0,2,2,2,0,0,0,0,0,9,9,9,,,,,,,,,,,,,,,,,,,,,,,,,,,,,,,,,,,601.0527974000142,601.2541330000095,601.2364102000138,601.537344500015,601.537344500015,None,602.0374663000111,None,d,1,1.2596055000030901,602.0374663000111,None,None,None,603.3234554000082,None,,,,,,,,,,,,,,,,,,,,,11023,1,2,2024_Jun_17_1039,stroop_task_switching2_b,2021.2.3,60.049781266735316,
condition/block_mixed_b,instruction/instr_mixed,instruction/i10_b,蓝,yellow,j,square,color_mix,单词,,incompatible,2,,,,,,,,0,2,2,2,0,0,0,0,0,10,10,10,,,,,,,,,,,,,,,,,,,,,,,,,,,,,,,,,,,604.3249731000105,604.524537499994,604.5080687000009,604.8104957000178,604.8104957000178,None,605.3089751999942,None,j,1,1.4365044000151101,605.3089751999942,None,None,None,606.7621089000022,None,,,,,,,,,,,,,,,,,,,,,11023,1,2,2024_Jun_17_1039,stroop_task_switching2_b,2021.2.3,60.049781266735316,
condition/block_mixed_b,instruction/instr_mixed,instruction/i10_b,蓝,green,j,square,color_mix,单词,,incompatible,1,,,,,,,,0,2,2,2,0,0,0,0,0,11,11,11,,,,,,,,,,,,,,,,,,,,,,,,,,,,,,,,,,,607.7635078000021,607.9631445000123,607.947373700008,608.2482889000094,608.2482889000094,None,608.7477507000149,None,j,1,1.173485899984371,608.7477507000149,None,None,None,609.9493167000182,None,,,,,,,,,,,,,,,,,,,,,11023,1,2,2024_Jun_17_1039,stroop_task_switching2_b,2021.2.3,60.049781266735316,
condition/block_mixed_b,instruction/instr_mixed,instruction/i10_b,绿,yellow,d,square,color_mix,单词,,incompatible,1,,,,,,,,0,2,2,2,0,0,0,0,0,12,12,12,,,,,,,,,,,,,,,,,,,,,,,,,,,,,,,,,,,610.9516176000179,611.15191830002,611.1346940000076,611.435061199998,611.435061199998,None,611.9366198000207,None,d,1,1.1285180000122637,611.9366198000207,None,None,None,613.0876484000182,None,,,,,,,,,,,,,,,,,,,,,11023,1,2,2024_Jun_17_1039,stroop_task_switching2_b,2021.2.3,60.049781266735316,
condition/block_mixed_b,instruction/instr_mixed,instruction/i10_b,绿,blue,j,diamond,color_mix,颜色,,incompatible,2,,,,,,,,0,2,2,2,0,0,0,0,0,13,13,13,,,,,,,,,,,,,,,,,,,,,,,,,,,,,,,,,,,614.089707200008,614.2906335000007,614.2726457999961,614.5731593999953,614.5731593999953,None,615.073847599997,None,j,1,0.9679937999753747,615.073847599997,None,None,None,616.0586977000057,None,,,,,,,,,,,,,,,,,,,,,11023,1,2,2024_Jun_17_1039,stroop_task_switching2_b,2021.2.3,60.049781266735316,
condition/block_mixed_b,instruction/instr_mixed,instruction/i10_b,黄,red,f,square,color_mix,单词,,incompatible,2,,,,,,,,0,2,2,2,0,0,0,0,0,14,14,14,,,,,,,,,,,,,,,,,,,,,,,,,,,,,,,,,,,617.0611506999994,617.2626192000171,617.2435795000056,617.5442652000056,617.5442652000056,None,618.0449058999948,None,f,1,1.5885078000137582,618.0449058999948,None,None,None,619.6640086999978,None,,,,,,,,,,,,,,,,,,,,,11023,1,2,2024_Jun_17_1039,stroop_task_switching2_b,2021.2.3,60.049781266735316,
condition/block_mixed_b,instruction/instr_mixed,instruction/i10_b,蓝,yellow,f,diamond,color_mix,颜色,,incompatible,2,,,,,,,,0,2,2,2,0,0,0,0,0,15,15,15,,,,,,,,,,,,,,,,,,,,,,,,,,,,,,,,,,,620.665581600013,620.8667854999949,620.8512855000154,621.1499899000046,621.1499899000046,None,621.6505728000193,None,f,1,1.5427650000201538,621.6505728000193,None,None,None,623.219477400009,None,,,,,,,,,,,,,,,,,,,,,11023,1,2,2024_Jun_17_1039,stroop_task_switching2_b,2021.2.3,60.049781266735316,
condition/block_mixed_b,instruction/instr_mixed,instruction/i10_b,黄,red,k,diamond,color_mix,颜色,,incompatible,1,,,,,,,,0,2,2,2,0,0,0,0,0,16,16,16,,,,,,,,,,,,,,,,,,,,,,,,,,,,,,,,,,,624.220977399993,624.4211658000131,624.4045953000023,624.7067005000135,624.7067005000135,None,625.2057497000205,None,k,1,1.1877668999950401,625.2057497000205,None,None,None,626.4241716999968,None,,,,,,,,,,,,,,,,,,,,,11023,1,2,2024_Jun_17_1039,stroop_task_switching2_b,2021.2.3,60.049781266735316,
condition/block_mixed_b,instruction/instr_mixed,instruction/i10_b,绿,red,d,square,color_mix,单词,,incompatible,2,,,,,,,,0,2,2,2,0,0,0,0,0,17,17,17,,,,,,,,,,,,,,,,,,,,,,,,,,,,,,,,,,,627.4257499999949,627.6262394000078,627.6100707000005,627.910575100017,627.910575100017,None,628.4104913000192,None,d,1,2.447199400019599,628.4104913000192,None,None,None,630.8808893999958,None,,,,,,,,,,,,,,,,,,,,,11023,1,2,2024_Jun_17_1039,stroop_task_switching2_b,2021.2.3,60.049781266735316,
condition/block_mixed_b,instruction/instr_mixed,instruction/i10_b,红,green,k,square,color_mix,单词,,incompatible,1,,,,,,,,0,2,2,2,0,0,0,0,0,18,18,18,,,,,,,,,,,,,,,,,,,,,,,,,,,,,,,,,,,631.8827746000024,632.0839284000103,632.0665455000126,632.3666486000002,632.3666486000002,None,632.8673823999998,None,k,1,1.0223951000079978,632.8673823999998,None,None,None,633.918914000009,None,,,,,,,,,,,,,,,,,,,,,11023,1,2,2024_Jun_17_1039,stroop_task_switching2_b,2021.2.3,60.049781266735316,
condition/block_mixed_b,instruction/instr_mixed,instruction/i10_b,黄,blue,j,diamond,color_mix,颜色,,incompatible,2,,,,,,,,0,2,2,2,0,0,0,0,0,19,19,19,,,,,,,,,,,,,,,,,,,,,,,,,,,,,,,,,,,634.9202905000129,635.1207846000034,635.1051786000025,635.4044055000122,635.4044055000122,None,635.9052545000159,None,j,1,0.8246252000099048,635.9052545000159,None,None,None,636.7564972999971,None,,,,,,,,,,,,,,,,,,,,,11023,1,2,2024_Jun_17_1039,stroop_task_switching2_b,2021.2.3,60.049781266735316,
condition/block_mixed_b,instruction/instr_mixed,instruction/i10_b,黄,green,d,diamond,color_mix,颜色,,incompatible,1,,,,,,,,0,2,2,2,0,0,0,0,0,20,20,20,,,,,,,,,,,,,,,,,,,,,,,,,,,,,,,,,,,637.7580389000068,637.9586172999989,637.9416984000127,638.2421944999951,638.2421944999951,None,638.7428209000209,None,d,1,1.019286499998998,638.7428209000209,None,None,None,639.7776361000142,None,,,,,,,,,,,,,,,,,,,,,11023,1,2,2024_Jun_17_1039,stroop_task_switching2_b,2021.2.3,60.049781266735316,
condition/block_mixed_b,instruction/instr_mixed,instruction/i10_b,黄,green,f,square,color_mix,单词,,incompatible,2,,,,,,,,0,2,2,2,0,0,0,0,0,21,21,21,,,,,,,,,,,,,,,,,,,,,,,,,,,,,,,,,,,640.7792469999986,640.9802680000139,640.9634401999938,641.2645251000067,641.2645251000067,None,641.7650993000134,None,f,1,1.7735071000060998,641.7650993000134,None,None,None,643.5667647999944,None,,,,,,,,,,,,,,,,,,,,,11023,1,2,2024_Jun_17_1039,stroop_task_switching2_b,2021.2.3,60.049781266735316,
condition/block_mixed_b,instruction/instr_mixed,instruction/i10_b,黄,blue,f,square,color_mix,单词,,incompatible,1,,,,,,,,0,2,2,2,0,0,0,0,0,22,22,22,,,,,,,,,,,,,,,,,,,,,,,,,,,,,,,,,,,644.5692329000158,644.7699524000054,644.7518656000029,645.0524121000199,645.0366753000126,None,645.5363377000031,None,j,0,1.05772139999317,645.5363377000031,None,None,None,646.6213691000012,None,,,,,,,,,,,,,,,,,,,,,11023,1,2,2024_Jun_17_1039,stroop_task_switching2_b,2021.2.3,60.049781266735316,
condition/block_mixed_b,instruction/instr_mixed,instruction/i10_b,蓝,red,j,square,color_mix,单词,,incompatible,1,,,,,,,,0,2,2,2,0,0,0,0,0,23,23,23,,,,,,,,,,,,,,,,,,,,,,,,,,,,,,,,,,,647.6233849000128,647.8239875000145,647.8085125999933,648.108399299992,648.108399299992,None,648.6077583000006,None,j,1,1.122972800018033,648.6077583000006,None,None,None,649.7597229999956,None,,,,,,,,,,,,,,,,,,,,,11023,1,2,2024_Jun_17_1039,stroop_task_switching2_b,2021.2.3,60.049781266735316,
condition/block_mixed_b,instruction/instr_mixed,instruction/i10_b,绿,red,k,diamond,color_mix,颜色,,incompatible,2,,,,,,,,0,2,2,2,0,0,0,0,0,24,24,24,,,,,,,,,,,,,,,,,,,,,,,,,,,,,,,,,,,650.7610795999935,650.9622818999924,650.9449592000165,651.2450532999937,651.2450532999937,None,651.7458148000005,None,k,1,0.8404010999947786,651.7458148000005,None,None,None,652.6136945000035,None,,,,,,,,,,,,,,,,,,,,,11023,1,2,2024_Jun_17_1039,stroop_task_switching2_b,2021.2.3,60.049781266735316,
condition/block_mixed_b,instruction/instr_mixed,instruction/i10_b,绿,green,d,diamond,color_mix,颜色,,compatible,1,,,,,,,,0,2,2,2,0,0,0,0,0,25,25,25,,,,,,,,,,,,,,,,,,,,,,,,,,,,,,,,,,,653.6152865000186,653.8160259000142,653.7989954999939,654.0999809000059,654.0999809000059,None,654.6002423000173,None,d,1,0.7867801999964286,654.6002423000173,None,None,None,655.4186196000082,None,,,,,,,,,,,,,,,,,,,,,11023,1,2,2024_Jun_17_1039,stroop_task_switching2_b,2021.2.3,60.049781266735316,
condition/block_mixed_b,instruction/instr_mixed,instruction/i10_b,蓝,blue,j,diamond,color_mix,颜色,,compatible,1,,,,,,,,0,2,2,2,0,0,0,0,0,26,26,26,,,,,,,,,,,,,,,,,,,,,,,,,,,,,,,,,,,656.420621600002,656.61992680002,656.6036591000156,656.9036796000146,656.8879049000097,None,657.3875171999971,None,j,1,1.0708983000076842,657.3875171999971,None,None,None,658.4727297000063,None,,,,,,,,,,,,,,,,,,,,,11023,1,2,2024_Jun_17_1039,stroop_task_switching2_b,2021.2.3,60.049781266735316,
condition/block_mixed_b,instruction/instr_mixed,instruction/i10_b,绿,green,d,square,color_mix,单词,,compatible,2,,,,,,,,0,2,2,2,0,0,0,0,0,27,27,27,,,,,,,,,,,,,,,,,,,,,,,,,,,,,,,,,,,659.4740129999991,659.6751193999953,659.6584493000119,659.958417899994,659.958417899994,None,660.4589701000077,None,d,1,1.127554799983045,660.4589701000077,None,None,None,661.6104733000102,None,,,,,,,,,,,,,,,,,,,,,11023,1,2,2024_Jun_17_1039,stroop_task_switching2_b,2021.2.3,60.049781266735316,
condition/block_mixed_b,instruction/instr_mixed,instruction/i10_b,绿,green,d,square,color_mix,单词,,compatible,1,,,,,,,,0,2,2,2,0,0,0,0,0,28,28,28,,,,,,,,,,,,,,,,,,,,,,,,,,,,,,,,,,,662.6129026999988,662.8134161000198,662.7958954999922,663.0974181000201,663.0974181000201,None,663.5970830000006,None,d,1,0.42955060000531375,663.5970830000006,None,None,None,664.0478671000164,None,,,,,,,,,,,,,,,,,,,,,11023,1,2,2024_Jun_17_1039,stroop_task_switching2_b,2021.2.3,60.049781266735316,
condition/block_mixed_b,instruction/instr_mixed,instruction/i10_b,蓝,blue,j,square,color_mix,单词,,compatible,1,,,,,,,,0,2,2,2,0,0,0,0,0,29,29,29,,,,,,,,,,,,,,,,,,,,,,,,,,,,,,,,,,,665.0491366999922,665.250506500015,665.2328678000194,665.5345162000158,665.5345162000158,None,666.0341469999985,None,j,1,0.576501500006998,666.0341469999985,None,None,None,666.6349151000031,None,,,,,,,,,,,,,,,,,,,,,11023,1,2,2024_Jun_17_1039,stroop_task_switching2_b,2021.2.3,60.049781266735316,
condition/block_mixed_b,instruction/instr_mixed,instruction/i10_b,黄,yellow,f,diamond,color_mix,颜色,,compatible,2,,,,,,,,0,2,2,2,0,0,0,0,0,30,30,30,,,,,,,,,,,,,,,,,,,,,,,,,,,,,,,,,,,667.6365168000048,667.8375974000082,667.8221570000169,668.1378911999927,668.121610800008,None,668.6221894000191,None,f,1,0.5811303000082262,668.6221894000191,None,None,None,669.222164900013,None,,,,,,,,,,,,,,,,,,,,,11023,1,2,2024_Jun_17_1039,stroop_task_switching2_b,2021.2.3,60.049781266735316,
condition/block_mixed_b,instruction/instr_mixed,instruction/i10_b,绿,green,d,square,color_mix,单词,,compatible,2,,,,,,,,0,2,2,2,0,0,0,0,0,31,31,31,,,,,,,,,,,,,,,,,,,,,,,,,,,,,,,,,,,670.2239165999927,670.4251630000072,670.4071823999984,670.7077443000162,670.7077443000162,None,671.2083361000114,None,d,1,0.8989657000056468,671.2083361000114,None,None,None,672.1263062999933,None,,,,,,,,,,,,,,,,,,,,,11023,1,2,2024_Jun_17_1039,stroop_task_switching2_b,2021.2.3,60.049781266735316,
condition/block_mixed_b,instruction/instr_mixed,instruction/i10_b,黄,yellow,f,square,color_mix,单词,,compatible,1,,,,,,,,0,2,2,2,0,0,0,0,0,32,32,32,,,,,,,,,,,,,,,,,,,,,,,,,,,,,,,,,,,673.1287344000011,673.3290756999922,673.3125812000071,673.6119921000209,673.6119921000209,None,674.1141677999985,None,f,1,0.8087582000007387,674.1141677999985,None,None,None,674.947590900003,None,,,,,,,,,,,,,,,,,,,,,11023,1,2,2024_Jun_17_1039,stroop_task_switching2_b,2021.2.3,60.049781266735316,
condition/block_mixed_b,instruction/instr_mixed,instruction/i10_b,绿,green,d,diamond,color_mix,颜色,,compatible,2,,,,,,,,0,2,2,2,0,0,0,0,0,33,33,33,,,,,,,,,,,,,,,,,,,,,,,,,,,,,,,,,,,675.9486885000078,676.1493158999947,676.134252000018,676.4340322999924,676.4340322999924,None,676.93382440001,None,d,1,0.6372529999935068,676.93382440001,None,None,None,677.6015213000064,None,,,,,,,,,,,,,,,,,,,,,11023,1,2,2024_Jun_17_1039,stroop_task_switching2_b,2021.2.3,60.049781266735316,
condition/block_mixed_b,instruction/instr_mixed,instruction/i10_b,红,red,k,square,color_mix,单词,,compatible,2,,,,,,,,0,2,2,2,0,0,0,0,0,34,34,34,,,,,,,,,,,,,,,,,,,,,,,,,,,,,,,,,,,678.6029340999958,678.8040027999959,678.7874644999974,679.0874094000028,679.0874094000028,None,679.5886634000053,None,k,1,0.5264270000043325,679.5886634000053,None,None,None,680.138646700012,None,,,,,,,,,,,,,,,,,,,,,11023,1,2,2024_Jun_17_1039,stroop_task_switching2_b,2021.2.3,60.049781266735316,
condition/block_mixed_b,instruction/instr_mixed,instruction/i10_b,黄,yellow,f,square,color_mix,单词,,compatible,1,,,,,,,,0,2,2,2,0,0,0,0,0,35,35,35,,,,,,,,,,,,,,,,,,,,,,,,,,,,,,,,,,,681.1417539000104,681.3578424000007,681.3236334999965,681.6250220999937,681.6250220999937,None,682.125960800011,None,f,1,0.7815719999780413,682.125960800011,None,None,None,682.9262789000059,None,,,,,,,,,,,,,,,,,,,,,11023,1,2,2024_Jun_17_1039,stroop_task_switching2_b,2021.2.3,60.049781266735316,
condition/block_mixed_b,instruction/instr_mixed,instruction/i10_b,绿,green,d,diamond,color_mix,颜色,,compatible,2,,,,,,,,0,2,2,2,0,0,0,0,0,36,36,36,,,,,,,,,,,,,,,,,,,,,,,,,,,,,,,,,,,683.9277145999949,684.1288529000012,684.1116077000042,684.411951600021,684.411951600021,None,684.9136753000203,None,d,1,1.4252619000035338,684.9136753000203,None,None,None,686.3645746000111,None,,,,,,,,,,,,,,,,,,,,,11023,1,2,2024_Jun_17_1039,stroop_task_switching2_b,2021.2.3,60.049781266735316,
condition/block_mixed_b,instruction/instr_mixed,instruction/i10_b,蓝,blue,j,square,color_mix,单词,,compatible,2,,,,,,,,0,2,2,2,0,0,0,0,0,37,37,37,,,,,,,,,,,,,,,,,,,,,,,,,,,,,,,,,,,687.3663977000106,687.5672557000071,687.551109299995,687.8501091999933,687.8501091999933,None,688.3510861000104,None,j,1,0.9080180999881122,688.3510861000104,None,None,None,689.2857793000003,None,,,,,,,,,,,,,,,,,,,,,11023,1,2,2024_Jun_17_1039,stroop_task_switching2_b,2021.2.3,60.049781266735316,
condition/block_mixed_b,instruction/instr_mixed,instruction/i10_b,红,red,k,square,color_mix,单词,,compatible,1,,,,,,,,0,2,2,2,0,0,0,0,0,38,38,38,,,,,,,,,,,,,,,,,,,,,,,,,,,,,,,,,,,690.2885226999933,690.4892417000083,690.4709830000065,690.7712678000098,690.7712678000098,None,691.2722699000151,None,k,1,1.267878099984955,691.2722699000151,None,None,None,692.5574125999992,None,,,,,,,,,,,,,,,,,,,,,11023,1,2,2024_Jun_17_1039,stroop_task_switching2_b,2021.2.3,60.049781266735316,
condition/block_mixed_b,instruction/instr_mixed,instruction/i10_b,黄,yellow,f,diamond,color_mix,颜色,,compatible,2,,,,,,,,0,2,2,2,0,0,0,0,0,39,39,39,,,,,,,,,,,,,,,,,,,,,,,,,,,,,,,,,,,693.5589113000024,693.7592206000118,693.7424441000039,694.0434003999981,694.0434003999981,None,694.5438520000025,None,f,1,0.723754500009818,694.5438520000025,None,None,None,695.2948479000188,None,,,,,,,,,,,,,,,,,,,,,11023,1,2,2024_Jun_17_1039,stroop_task_switching2_b,2021.2.3,60.049781266735316,
condition/block_mixed_b,instruction/instr_mixed,instruction/i10_b,黄,yellow,f,square,color_mix,单词,,compatible,2,,,,,,,,0,2,2,2,0,0,0,0,0,40,40,40,,,,,,,,,,,,,,,,,,,,,,,,,,,,,,,,,,,696.2962857999955,696.4964545000112,696.4807799000118,696.7819296999951,696.7819296999951,None,697.2812484000169,None,d,0,1.170653700013645,697.2812484000169,None,None,None,698.4662665000069,None,,,,,,,,,,,,,,,,,,,,,11023,1,2,2024_Jun_17_1039,stroop_task_switching2_b,2021.2.3,60.049781266735316,
condition/block_mixed_b,instruction/instr_mixed,instruction/i10_b,蓝,blue,j,square,color_mix,单词,,compatible,1,,,,,,,,0,2,2,2,0,0,0,0,0,41,41,41,,,,,,,,,,,,,,,,,,,,,,,,,,,,,,,,,,,699.4689648000058,699.6680374999996,699.6525980000151,699.9520514000033,699.9520514000033,None,700.452774800011,None,j,1,0.9674903000122868,700.452774800011,None,None,None,701.4373594000062,None,,,,,,,,,,,,,,,,,,,,,11023,1,2,2024_Jun_17_1039,stroop_task_switching2_b,2021.2.3,60.049781266735316,
condition/block_mixed_b,instruction/instr_mixed,instruction/i10_b,蓝,blue,j,diamond,color_mix,颜色,,compatible,2,,,,,,,,0,2,2,2,0,0,0,0,0,42,42,42,,,,,,,,,,,,,,,,,,,,,,,,,,,,,,,,,,,702.4395606000035,702.639221999998,702.6229459000169,702.9229974000191,702.9229974000191,None,703.4237909000076,None,j,1,0.8119154000014532,703.4237909000076,None,None,None,704.2585020000115,None,,,,,,,,,,,,,,,,,,,,,11023,1,2,2024_Jun_17_1039,stroop_task_switching2_b,2021.2.3,60.049781266735316,
condition/block_mixed_b,instruction/instr_mixed,instruction/i10_b,黄,yellow,f,diamond,color_mix,颜色,,compatible,1,,,,,,,,0,2,2,2,0,0,0,0,0,43,43,43,,,,,,,,,,,,,,,,,,,,,,,,,,,,,,,,,,,705.2599311000085,705.4613702000061,705.4437767000054,705.7437490000157,705.7437490000157,None,706.2444692999998,None,f,1,0.5672292000090238,706.2444692999998,None,None,None,706.8287954000116,None,,,,,,,,,,,,,,,,,,,,,11023,1,2,2024_Jun_17_1039,stroop_task_switching2_b,2021.2.3,60.049781266735316,
condition/block_mixed_b,instruction/instr_mixed,instruction/i10_b,红,red,k,diamond,color_mix,颜色,,compatible,1,,,,,,,,0,2,2,2,0,0,0,0,0,44,44,44,,,,,,,,,,,,,,,,,,,,,,,,,,,,,,,,,,,707.8313334000122,708.0309046000184,708.0138829000061,708.315305199998,708.315305199998,None,708.8152844000142,None,k,1,0.9566161999828182,708.8152844000142,None,None,None,709.8005304000108,None,,,,,,,,,,,,,,,,,,,,,11023,1,2,2024_Jun_17_1039,stroop_task_switching2_b,2021.2.3,60.049781266735316,
condition/block_mixed_b,instruction/instr_mixed,instruction/i10_b,蓝,blue,j,diamond,color_mix,颜色,,compatible,1,,,,,,,,0,2,2,2,0,0,0,0,0,45,45,45,,,,,,,,,,,,,,,,,,,,,,,,,,,,,,,,,,,710.8017505000171,711.0044192000059,710.9860098000208,711.2864891000208,711.2864891000208,None,711.7862431000103,None,j,1,0.602447499986738,711.7862431000103,None,None,None,712.4039983999974,None,,,,,,,,,,,,,,,,,,,,,11023,1,2,2024_Jun_17_1039,stroop_task_switching2_b,2021.2.3,60.049781266735316,
condition/block_mixed_b,instruction/instr_mixed,instruction/i10_b,红,red,k,diamond,color_mix,颜色,,compatible,1,,,,,,,,0,2,2,2,0,0,0,0,0,46,46,46,,,,,,,,,,,,,,,,,,,,,,,,,,,,,,,,,,,713.4058378000045,713.6071203000029,713.589180400013,713.8903228999989,713.8903228999989,None,714.3904112000018,None,k,1,0.5415950000169687,714.3904112000018,None,None,None,714.9578539000067,None,,,,,,,,,,,,,,,,,,,,,11023,1,2,2024_Jun_17_1039,stroop_task_switching2_b,2021.2.3,60.049781266735316,
condition/block_mixed_b,instruction/instr_mixed,instruction/i10_b,红,red,k,square,color_mix,单词,,compatible,2,,,,,,,,0,2,2,2,0,0,0,0,0,47,47,47,,,,,,,,,,,,,,,,,,,,,,,,,,,,,,,,,,,715.959548200015,716.1597545999975,716.1430055999954,716.4441683000186,716.4441683000186,None,716.9443108999985,None,k,1,0.7557414000038989,716.9443108999985,None,None,None,717.728707000002,None,,,,,,,,,,,,,,,,,,,,,11023,1,2,2024_Jun_17_1039,stroop_task_switching2_b,2021.2.3,60.049781266735316,
condition/block_mixed_b,instruction/instr_mixed,instruction/i10_b,红,red,k,diamond,color_mix,颜色,,compatible,2,,,,,,,,0,2,2,2,0,0,0,0,0,48,48,48,,,,,,,,,,,,,,,,,,,,,,,,,,,,,,,,,,,718.7309932000062,718.9306123999995,718.9146856000007,719.2153789000004,719.2153789000004,None,719.7155156999943,None,k,1,0.4885708999936469,719.7155156999943,None,None,None,720.2324656000128,None,,,,,,,,,,,,,,,,,,,,,11023,1,2,2024_Jun_17_1039,stroop_task_switching2_b,2021.2.3,60.049781266735316,
condition/block_mixed_b,instruction/instr_mixed,instruction/i10_b,,,,,,,,,,,,,,,,,0,2,2,2,0,0,0,0,,,,,,,,,,,,,,,,,,,,,,,,,,,,,,,,,,,,,,,,,,,,,,,,,,,,,,,,721.2335387000057,None,space,10.971294500021031,721.2335387000057,None,,,,,,,,,,,,,,,11023,1,2,2024_Jun_17_1039,stroop_task_switching2_b,2021.2.3,60.049781266735316,
condition/block_mixed_b,instruction/instr_mixed,instruction/i10_b,,,,,,,,,,,,,,,,,0,2,2,2,,,,,,,,,,,,,,,,,,,,,,,,,,,,,,,,,,,,,,,,,,,,,,,,,,,,,,,,,,,,,,,,,,,,,,,,,,,,,,,,11023,1,2,2024_Jun_17_1039,stroop_task_switching2_b,2021.2.3,60.049781266735316,
,,,红,red,k,square,color_mix,单词,,compatible,0,block_switch1_b,instruction/ready_test.png,instruction/i11.png,,,,,,,,,,,,,,,,,0,0,0,0,0,0,0,0,,,,,,,,,,,,,,,,,,,735.8231992000074,736.8251107000106,736.8251107000106,737.8263283999986,737.8089219999965,None,734.837883900007,735.839430699998,738.8461973000085,739.0618101000146,739.027350999997,739.3280224000046,739.3280224000046,None,739.8288461000193,None,k,1,1.1277544999902602,739.8288461000193,None,None,None,,,,,,,,,732.2837963000056,None,space,2.5229546999908052,732.2837963000056,None,,,,,,,,,11023,1,2,2024_Jun_17_1039,stroop_task_switching2_b,2021.2.3,60.049781266735316,
,,,绿,green,d,diamond,color_mix,颜色,,compatible,2,block_switch1_b,instruction/ready_test.png,instruction/i11.png,,,,,,,,,,,,,,,,,0,0,0,0,0,1,1,1,,,,,,,,,,,,,,,,,,,,,,,,,,,740.980294900015,741.1826024000184,741.1640788000077,741.465327700018,741.465327700018,None,741.9650439000106,None,d,1,0.7434743999911007,741.9650439000106,None,None,None,,,,,,,,,,,,,,,,,,,,,,,11023,1,2,2024_Jun_17_1039,stroop_task_switching2_b,2021.2.3,60.049781266735316,
,,,绿,yellow,f,diamond,color_mix,颜色,,incompatible,1,block_switch1_b,instruction/ready_test.png,instruction/i11.png,,,,,,,,,,,,,,,,,0,0,0,0,0,2,2,2,,,,,,,,,,,,,,,,,,,,,,,,,,,742.733395200019,742.9350107000209,742.9178406000137,743.2179971000005,743.2179971000005,None,743.7179191000178,None,f,1,1.6633937000005972,743.7179191000178,None,None,None,,,,,,,,,,,,,,,,,,,,,,,11023,1,2,2024_Jun_17_1039,stroop_task_switching2_b,2021.2.3,60.049781266735316,
,,,蓝,blue,j,diamond,color_mix,颜色,,compatible,1,block_switch1_b,instruction/ready_test.png,instruction/i11.png,,,,,,,,,,,,,,,,,0,0,0,0,0,3,3,3,,,,,,,,,,,,,,,,,,,,,,,,,,,745.403831100004,745.6056171999953,745.5876682999951,745.8876168999996,745.8876168999996,None,746.3884890000045,None,j,1,0.5924308999965433,746.3884890000045,None,None,None,,,,,,,,,,,,,,,,,,,,,,,11023,1,2,2024_Jun_17_1039,stroop_task_switching2_b,2021.2.3,60.049781266735316,
,,,绿,green,d,square,color_mix,单词,,compatible,2,block_switch1_b,instruction/ready_test.png,instruction/i11.png,,,,,,,,,,,,,,,,,0,0,0,0,0,4,4,4,,,,,,,,,,,,,,,,,,,,,,,,,,,747.006607999996,747.2081537000195,747.1897428999946,747.4915673999931,747.4915673999931,None,747.9919936000078,None,d,1,0.717067700024927,747.9919936000078,None,None,None,,,,,,,,,,,,,,,,,,,,,,,11023,1,2,2024_Jun_17_1039,stroop_task_switching2_b,2021.2.3,60.049781266735316,
,,,绿,blue,j,diamond,color_mix,颜色,,incompatible,2,block_switch1_b,instruction/ready_test.png,instruction/i11.png,,,,,,,,,,,,,,,,,0,0,0,0,0,5,5,5,,,,,,,,,,,,,,,,,,,,,,,,,,,748.7254433000053,748.9265952999995,748.9103251000051,749.2102841000014,749.2102841000014,None,749.7106927999994,None,j,1,0.7583215000049677,749.7106927999994,None,None,None,,,,,,,,,,,,,,,,,,,,,,,11023,1,2,2024_Jun_17_1039,stroop_task_switching2_b,2021.2.3,60.049781266735316,
,,,黄,red,f,square,color_mix,单词,,incompatible,2,block_switch1_b,instruction/ready_test.png,instruction/i11.png,,,,,,,,,,,,,,,,,0,0,0,0,0,6,6,6,,,,,,,,,,,,,,,,,,,,,,,,,,,750.4947919000115,750.6950568000029,750.6787983000104,750.9796986000147,750.9796986000147,None,751.4795924000209,None,f,1,1.3016187000030186,751.4795924000209,None,None,None,,,,,,,,,,,,,,,,,,,,,,,11023,1,2,2024_Jun_17_1039,stroop_task_switching2_b,2021.2.3,60.049781266735316,
,,,绿,green,d,square,color_mix,单词,,compatible,1,block_switch1_b,instruction/ready_test.png,instruction/i11.png,,,,,,,,,,,,,,,,,0,0,0,0,0,7,7,7,,,,,,,,,,,,,,,,,,,,,,,,,,,752.7987785000005,752.9985898000014,752.9821823000093,753.2824108999921,753.2824108999921,None,753.783196000004,None,d,1,0.6222831000050064,753.783196000004,None,None,None,,,,,,,,,,,,,,,,,,,,,,,11023,1,2,2024_Jun_17_1039,stroop_task_switching2_b,2021.2.3,60.049781266735316,
,,,蓝,blue,j,square,color_mix,单词,,compatible,1,block_switch1_b,instruction/ready_test.png,instruction/i11.png,,,,,,,,,,,,,,,,,0,0,0,0,0,8,8,8,,,,,,,,,,,,,,,,,,,,,,,,,,,754.4339752999949,754.6343655000092,754.6184002000082,754.9189324000035,754.9189324000035,None,755.4188545999932,None,j,1,1.0424785000213888,755.4188545999932,None,None,None,,,,,,,,,,,,,,,,,,,,,,,11023,1,2,2024_Jun_17_1039,stroop_task_switching2_b,2021.2.3,60.049781266735316,
,,,红,red,k,diamond,color_mix,颜色,,compatible,2,block_switch1_b,instruction/ready_test.png,instruction/i11.png,,,,,,,,,,,,,,,,,0,0,0,0,0,9,9,9,,,,,,,,,,,,,,,,,,,,,,,,,,,756.4880754000042,756.6876468000119,756.670866600005,756.9731586000125,756.9731586000125,None,757.47206130001,None,k,1,0.557259499997599,757.47206130001,None,None,None,,,,,,,,,,,,,,,,,,,,,,,11023,1,2,2024_Jun_17_1039,stroop_task_switching2_b,2021.2.3,60.049781266735316,
,,,黄,yellow,f,diamond,color_mix,颜色,,compatible,1,block_switch1_b,instruction/ready_test.png,instruction/i11.png,,,,,,,,,,,,,,,,,0,0,0,0,0,10,10,10,,,,,,,,,,,,,,,,,,,,,,,,,,,758.0562387999962,758.2577612000168,758.2398944000015,758.5421014000021,758.5421014000021,None,759.0576830999926,None,j,0,1.1154659000167158,759.0576830999926,None,None,None,,,,,,,,,,,,,,,,,,,,,,,11023,1,2,2024_Jun_17_1039,stroop_task_switching2_b,2021.2.3,60.049781266735316,
,,,绿,green,d,square,color_mix,单词,,compatible,2,block_switch1_b,instruction/ready_test.png,instruction/i11.png,,,,,,,,,,,,,,,,,0,0,0,0,0,11,11,11,,,,,,,,,,,,,,,,,,,,,,,,,,,760.1927487000066,760.3930407000007,760.376221500017,760.6776207000075,760.6776207000075,None,761.1781466999964,None,d,1,1.555220400012331,761.1781466999964,None,None,None,,,,,,,,,,,,,,,,,,,,,,,11023,1,2,2024_Jun_17_1039,stroop_task_switching2_b,2021.2.3,60.049781266735316,
,,,红,red,k,diamond,color_mix,颜色,,compatible,2,block_switch1_b,instruction/ready_test.png,instruction/i11.png,,,,,,,,,,,,,,,,,0,0,0,0,0,12,12,12,,,,,,,,,,,,,,,,,,,,,,,,,,,762.7639285000041,762.9657932000118,762.947338900005,763.2472288999998,763.2472288999998,None,763.7480335000146,None,k,1,1.0979911999893375,763.7480335000146,None,None,None,,,,,,,,,,,,,,,,,,,,,,,11023,1,2,2024_Jun_17_1039,stroop_task_switching2_b,2021.2.3,60.049781266735316,
,,,红,red,k,diamond,color_mix,颜色,,compatible,1,block_switch1_b,instruction/ready_test.png,instruction/i11.png,,,,,,,,,,,,,,,,,0,0,0,0,0,13,13,13,,,,,,,,,,,,,,,,,,,,,,,,,,,764.8667646000104,765.0669711999944,765.0520955999964,765.3671144999971,765.3522991999926,None,765.8522499999963,None,k,1,0.6010695000004489,765.8522499999963,None,None,None,,,,,,,,,,,,,,,,,,,,,,,11023,1,2,2024_Jun_17_1039,stroop_task_switching2_b,2021.2.3,60.049781266735316,
,,,黄,yellow,f,square,color_mix,单词,,compatible,2,block_switch1_b,instruction/ready_test.png,instruction/i11.png,,,,,,,,,,,,,,,,,0,0,0,0,0,14,14,14,,,,,,,,,,,,,,,,,,,,,,,,,,,766.4687594000134,766.6704049000109,766.6527860000206,766.952799199993,766.952799199993,None,767.453563499992,None,f,1,0.6965655999956653,767.453563499992,None,None,None,,,,,,,,,,,,,,,,,,,,,,,11023,1,2,2024_Jun_17_1039,stroop_task_switching2_b,2021.2.3,60.049781266735316,
,,,红,green,d,diamond,color_mix,颜色,,incompatible,2,block_switch1_b,instruction/ready_test.png,instruction/i11.png,,,,,,,,,,,,,,,,,0,0,0,0,0,15,15,15,,,,,,,,,,,,,,,,,,,,,,,,,,,768.1721733000013,768.3729424000194,768.3550028000027,768.6562804999994,768.6562804999994,None,769.157020100014,None,d,1,0.760402099986095,769.157020100014,None,None,None,,,,,,,,,,,,,,,,,,,,,,,11023,1,2,2024_Jun_17_1039,stroop_task_switching2_b,2021.2.3,60.049781266735316,
,,,蓝,red,k,diamond,color_mix,颜色,,incompatible,1,block_switch1_b,instruction/ready_test.png,instruction/i11.png,,,,,,,,,,,,,,,,,0,0,0,0,0,16,16,16,,,,,,,,,,,,,,,,,,,,,,,,,,,769.9409708000021,770.1410097000189,770.1262942000176,770.4418094000139,770.4246044000029,None,770.925498800003,None,k,1,0.7439471999823581,770.925498800003,None,None,None,,,,,,,,,,,,,,,,,,,,,,,11023,1,2,2024_Jun_17_1039,stroop_task_switching2_b,2021.2.3,60.049781266735316,
,,,黄,green,d,diamond,color_mix,颜色,,incompatible,1,block_switch1_b,instruction/ready_test.png,instruction/i11.png,,,,,,,,,,,,,,,,,0,0,0,0,0,17,17,17,,,,,,,,,,,,,,,,,,,,,,,,,,,771.6932562000002,771.8952982000192,771.8775075000012,772.1774822000007,772.1774822000007,None,772.6788610999938,None,d,1,1.1360910999937914,772.6788610999938,None,None,None,,,,,,,,,,,,,,,,,,,,,,,11023,1,2,2024_Jun_17_1039,stroop_task_switching2_b,2021.2.3,60.049781266735316,
,,,绿,green,d,diamond,color_mix,颜色,,compatible,1,block_switch1_b,instruction/ready_test.png,instruction/i11.png,,,,,,,,,,,,,,,,,0,0,0,0,0,18,18,18,,,,,,,,,,,,,,,,,,,,,,,,,,,773.8299012999923,774.030994700006,774.0136470000143,774.3145061999967,774.3145061999967,None,774.8153968999977,None,d,1,0.7742431999940891,774.8153968999977,None,None,None,,,,,,,,,,,,,,,,,,,,,,,11023,1,2,2024_Jun_17_1039,stroop_task_switching2_b,2021.2.3,60.049781266735316,
,,,黄,red,k,diamond,color_mix,颜色,,incompatible,1,block_switch1_b,instruction/ready_test.png,instruction/i11.png,,,,,,,,,,,,,,,,,0,0,0,0,0,19,19,19,,,,,,,,,,,,,,,,,,,,,,,,,,,775.6160346000106,775.816384500009,775.799477499997,776.1011793999933,776.1011793999933,None,776.601533900015,None,k,1,0.7643111000070348,776.601533900015,None,None,None,,,,,,,,,,,,,,,,,,,,,,,11023,1,2,2024_Jun_17_1039,stroop_task_switching2_b,2021.2.3,60.049781266735316,
,,,绿,yellow,d,square,color_mix,单词,,incompatible,2,block_switch1_b,instruction/ready_test.png,instruction/i11.png,,,,,,,,,,,,,,,,,0,0,0,0,0,20,20,20,,,,,,,,,,,,,,,,,,,,,,,,,,,777.3852321000013,777.5873842000146,777.5694019999937,777.8703401999956,777.8703401999956,None,778.3700650999963,None,d,1,0.7636365999933332,778.3700650999963,None,None,None,,,,,,,,,,,,,,,,,,,,,,,11023,1,2,2024_Jun_17_1039,stroop_task_switching2_b,2021.2.3,60.049781266735316,
,,,绿,yellow,f,diamond,color_mix,颜色,,incompatible,2,block_switch1_b,instruction/ready_test.png,instruction/i11.png,,,,,,,,,,,,,,,,,0,0,0,0,0,21,21,21,,,,,,,,,,,,,,,,,,,,,,,,,,,779.1547968999948,779.3557195000176,779.3395272000053,779.6393224000058,779.6393224000058,None,780.1395281000005,None,f,1,1.9543609999818727,780.1395281000005,None,None,None,,,,,,,,,,,,,,,,,,,,,,,11023,1,2,2024_Jun_17_1039,stroop_task_switching2_b,2021.2.3,60.049781266735316,
,,,绿,green,d,square,color_mix,单词,,compatible,2,block_switch1_b,instruction/ready_test.png,instruction/i11.png,,,,,,,,,,,,,,,,,0,0,0,0,0,22,22,22,,,,,,,,,,,,,,,,,,,,,,,,,,,782.109426400013,782.3102418000053,782.2936726000044,782.5931394000072,782.5931394000072,None,783.0948628000042,None,d,1,0.7353191000001971,783.0948628000042,None,None,None,,,,,,,,,,,,,,,,,,,,,,,11023,1,2,2024_Jun_17_1039,stroop_task_switching2_b,2021.2.3,60.049781266735316,
,,,红,red,k,square,color_mix,单词,,compatible,1,block_switch1_b,instruction/ready_test.png,instruction/i11.png,,,,,,,,,,,,,,,,,0,0,0,0,0,23,23,23,,,,,,,,,,,,,,,,,,,,,,,,,,,783.8451347000082,784.0474533000088,784.0288486999925,784.3297437000147,784.3297437000147,None,784.8299257000035,None,k,1,1.0643115999992006,784.8299257000035,None,None,None,,,,,,,,,,,,,,,,,,,,,,,11023,1,2,2024_Jun_17_1039,stroop_task_switching2_b,2021.2.3,60.049781266735316,
,,,黄,green,f,square,color_mix,单词,,incompatible,1,block_switch1_b,instruction/ready_test.png,instruction/i11.png,,,,,,,,,,,,,,,,,0,0,0,0,0,24,24,24,,,,,,,,,,,,,,,,,,,,,,,,,,,785.9149176999927,786.115888100001,786.0984047999955,786.3989996000018,786.3989996000018,None,786.8994734000007,None,f,1,1.235202300013043,786.8994734000007,None,None,None,,,,,,,,,,,,,,,,,,,,,,,11023,1,2,2024_Jun_17_1039,stroop_task_switching2_b,2021.2.3,60.049781266735316,
,,,红,blue,k,square,color_mix,单词,,incompatible,1,block_switch1_b,instruction/ready_test.png,instruction/i11.png,,,,,,,,,,,,,,,,,0,0,0,0,0,25,25,25,,,,,,,,,,,,,,,,,,,,,,,,,,,788.151706500008,788.3539264000137,788.3359325000201,788.6365223000175,788.6365223000175,None,789.1362905999995,None,k,1,1.2535201999999117,789.1362905999995,None,None,None,,,,,,,,,,,,,,,,,,,,,,,11023,1,2,2024_Jun_17_1039,stroop_task_switching2_b,2021.2.3,60.049781266735316,
,,,黄,yellow,f,square,color_mix,单词,,compatible,1,block_switch1_b,instruction/ready_test.png,instruction/i11.png,,,,,,,,,,,,,,,,,0,0,0,0,0,26,26,26,,,,,,,,,,,,,,,,,,,,,,,,,,,790.4215756000194,790.6226585000113,790.6064738999994,790.9066464999923,790.9066464999923,None,791.4065893999941,None,f,1,1.1358471999992616,791.4065893999941,None,None,None,,,,,,,,,,,,,,,,,,,,,,,11023,1,2,2024_Jun_17_1039,stroop_task_switching2_b,2021.2.3,60.049781266735316,
,,,蓝,green,j,square,color_mix,单词,,incompatible,1,block_switch1_b,instruction/ready_test.png,instruction/i11.png,,,,,,,,,,,,,,,,,0,0,0,0,0,27,27,27,,,,,,,,,,,,,,,,,,,,,,,,,,,792.5582209000131,792.7582839000097,792.741972000018,793.042244900018,793.042244900018,None,793.5445215000072,None,j,1,1.4455832999956328,793.5445215000072,None,None,None,,,,,,,,,,,,,,,,,,,,,,,11023,1,2,2024_Jun_17_1039,stroop_task_switching2_b,2021.2.3,60.049781266735316,
,,,绿,green,d,diamond,color_mix,颜色,,compatible,2,block_switch1_b,instruction/ready_test.png,instruction/i11.png,,,,,,,,,,,,,,,,,0,0,0,0,0,28,28,28,,,,,,,,,,,,,,,,,,,,,,,,,,,795.0122908000194,795.2134188000055,795.1965676000109,795.497010799998,795.497010799998,None,795.9974160999991,None,d,1,0.7126637000183109,795.9974160999991,None,None,None,,,,,,,,,,,,,,,,,,,,,,,11023,1,2,2024_Jun_17_1039,stroop_task_switching2_b,2021.2.3,60.049781266735316,
,,,黄,blue,j,diamond,color_mix,颜色,,incompatible,1,block_switch1_b,instruction/ready_test.png,instruction/i11.png,,,,,,,,,,,,,,,,,0,0,0,0,0,29,29,29,,,,,,,,,,,,,,,,,,,,,,,,,,,796.7313596000022,796.932667999994,796.9147494000208,797.2149171000056,797.2149171000056,None,797.7158830999979,None,j,1,0.6986790000228211,797.7158830999979,None,None,None,,,,,,,,,,,,,,,,,,,,,,,11023,1,2,2024_Jun_17_1039,stroop_task_switching2_b,2021.2.3,60.049781266735316,
,,,绿,green,d,diamond,color_mix,颜色,,compatible,1,block_switch1_b,instruction/ready_test.png,instruction/i11.png,,,,,,,,,,,,,,,,,0,0,0,0,0,30,30,30,,,,,,,,,,,,,,,,,,,,,,,,,,,798.4350592000119,798.6348898000142,798.6183261999977,798.9177298000141,798.9177298000141,None,799.4187641000026,None,d,1,0.9955865999800153,799.4187641000026,None,None,None,,,,,,,,,,,,,,,,,,,,,,,11023,1,2,2024_Jun_17_1039,stroop_task_switching2_b,2021.2.3,60.049781266735316,
,,,蓝,blue,j,square,color_mix,单词,,compatible,2,block_switch1_b,instruction/ready_test.png,instruction/i11.png,,,,,,,,,,,,,,,,,0,0,0,0,0,31,31,31,,,,,,,,,,,,,,,,,,,,,,,,,,,800.4369702000113,800.6379395000113,800.6203933999932,800.9206412000058,800.9206412000058,None,801.4215723999951,None,j,1,0.6568570999952499,801.4215723999951,None,None,None,,,,,,,,,,,,,,,,,,,,,,,11023,1,2,2024_Jun_17_1039,stroop_task_switching2_b,2021.2.3,60.049781266735316,
,,,红,red,k,square,color_mix,单词,,compatible,1,block_switch1_b,instruction/ready_test.png,instruction/i11.png,,,,,,,,,,,,,,,,,0,0,0,0,0,32,32,32,,,,,,,,,,,,,,,,,,,,,,,,,,,802.1058693999948,802.3061094000004,802.2897432000027,802.5905270999938,802.5905270999938,None,803.0915897999948,None,k,1,0.9633565999974962,803.0915897999948,None,None,None,,,,,,,,,,,,,,,,,,,,,,,11023,1,2,2024_Jun_17_1039,stroop_task_switching2_b,2021.2.3,60.049781266735316,
,,,红,green,k,square,color_mix,单词,,incompatible,1,block_switch1_b,instruction/ready_test.png,instruction/i11.png,,,,,,,,,,,,,,,,,0,0,0,0,0,33,33,33,,,,,,,,,,,,,,,,,,,,,,,,,,,804.0759702000069,804.2769225999946,804.259200600005,804.5602836000035,804.5602836000035,None,805.0610622999957,None,k,1,1.305390699999407,805.0610622999957,None,None,None,,,,,,,,,,,,,,,,,,,,,,,11023,1,2,2024_Jun_17_1039,stroop_task_switching2_b,2021.2.3,60.049781266735316,
,,,黄,yellow,f,diamond,color_mix,颜色,,compatible,2,block_switch1_b,instruction/ready_test.png,instruction/i11.png,,,,,,,,,,,,,,,,,0,0,0,0,0,34,34,34,,,,,,,,,,,,,,,,,,,,,,,,,,,806.3957880999951,806.5974156000011,806.5793474999955,806.8807630999945,806.8807630999945,None,807.3804370000144,None,f,1,0.9385025999799836,807.3804370000144,None,None,None,,,,,,,,,,,,,,,,,,,,,,,11023,1,2,2024_Jun_17_1039,stroop_task_switching2_b,2021.2.3,60.049781266735316,
,,,红,green,d,diamond,color_mix,颜色,,incompatible,1,block_switch1_b,instruction/ready_test.png,instruction/i11.png,,,,,,,,,,,,,,,,,0,0,0,0,0,35,35,35,,,,,,,,,,,,,,,,,,,,,,,,,,,808.3500208000187,808.5498896999925,808.5331049000088,808.832631199999,808.832631199999,None,809.333807499992,None,d,1,0.8570257000101265,809.333807499992,None,None,None,,,,,,,,,,,,,,,,,,,,,,,11023,1,2,2024_Jun_17_1039,stroop_task_switching2_b,2021.2.3,60.049781266735316,
,,,黄,yellow,f,square,color_mix,单词,,compatible,2,block_switch1_b,instruction/ready_test.png,instruction/i11.png,,,,,,,,,,,,,,,,,0,0,0,0,0,36,36,36,,,,,,,,,,,,,,,,,,,,,,,,,,,810.2183984000003,810.4200999000168,810.4017667000007,810.702354500012,810.702354500012,None,811.2029844000062,None,f,1,0.899706199998036,811.2029844000062,None,None,None,,,,,,,,,,,,,,,,,,,,,,,11023,1,2,2024_Jun_17_1039,stroop_task_switching2_b,2021.2.3,60.049781266735316,
,,,蓝,blue,j,square,color_mix,单词,,compatible,1,block_switch1_b,instruction/ready_test.png,instruction/i11.png,,,,,,,,,,,,,,,,,0,0,0,0,0,37,37,37,,,,,,,,,,,,,,,,,,,,,,,,,,,812.1211407000083,812.3213913000072,812.3061117000179,812.6061293999956,812.6061293999956,None,813.1066922000027,None,j,1,0.8760575999913272,813.1066922000027,None,None,None,,,,,,,,,,,,,,,,,,,,,,,11023,1,2,2024_Jun_17_1039,stroop_task_switching2_b,2021.2.3,60.049781266735316,
,,,绿,red,k,diamond,color_mix,颜色,,incompatible,2,block_switch1_b,instruction/ready_test.png,instruction/i11.png,,,,,,,,,,,,,,,,,0,0,0,0,0,38,38,38,,,,,,,,,,,,,,,,,,,,,,,,,,,814.007313500013,814.2082941000117,814.1914337000053,814.491834400018,814.491834400018,None,814.9929563000042,None,k,1,0.7660605999990366,814.9929563000042,None,None,None,,,,,,,,,,,,,,,,,,,,,,,11023,1,2,2024_Jun_17_1039,stroop_task_switching2_b,2021.2.3,60.049781266735316,
,,,黄,yellow,f,diamond,color_mix,颜色,,compatible,1,block_switch1_b,instruction/ready_test.png,instruction/i11.png,,,,,,,,,,,,,,,,,0,0,0,0,0,39,39,39,,,,,,,,,,,,,,,,,,,,,,,,,,,815.776369500003,815.9780373999965,815.9600458000205,816.2604116000002,816.2604116000002,None,816.7613198000181,None,f,1,0.6213820000120904,816.7613198000181,None,None,None,,,,,,,,,,,,,,,,,,,,,,,11023,1,2,2024_Jun_17_1039,stroop_task_switching2_b,2021.2.3,60.049781266735316,
,,,红,blue,j,diamond,color_mix,颜色,,incompatible,1,block_switch1_b,instruction/ready_test.png,instruction/i11.png,,,,,,,,,,,,,,,,,0,0,0,0,0,40,40,40,,,,,,,,,,,,,,,,,,,,,,,,,,,817.412206900015,817.6142553999962,817.5961526000174,817.8965833999973,817.8965833999973,None,818.3971865000203,None,j,1,0.8416930999956094,818.3971865000203,None,None,None,,,,,,,,,,,,,,,,,,,,,,,11023,1,2,2024_Jun_17_1039,stroop_task_switching2_b,2021.2.3,60.049781266735316,
,,,绿,blue,d,square,color_mix,单词,,incompatible,2,block_switch1_b,instruction/ready_test.png,instruction/i11.png,,,,,,,,,,,,,,,,,0,0,0,0,0,41,41,41,,,,,,,,,,,,,,,,,,,,,,,,,,,819.2650067000068,819.4654781999998,819.4507037000149,819.749987200019,819.749987200019,None,820.2499659000023,None,d,1,1.460996600013459,820.2499659000023,None,None,None,,,,,,,,,,,,,,,,,,,,,,,11023,1,2,2024_Jun_17_1039,stroop_task_switching2_b,2021.2.3,60.049781266735316,
,,,蓝,blue,j,diamond,color_mix,颜色,,compatible,2,block_switch1_b,instruction/ready_test.png,instruction/i11.png,,,,,,,,,,,,,,,,,0,0,0,0,0,42,42,42,,,,,,,,,,,,,,,,,,,,,,,,,,,821.7354262000008,821.9365189000091,821.919112500007,822.2216115000192,822.2216115000192,None,822.7204746000061,None,j,1,0.9352405999961775,822.7204746000061,None,None,None,,,,,,,,,,,,,,,,,,,,,,,11023,1,2,2024_Jun_17_1039,stroop_task_switching2_b,2021.2.3,60.049781266735316,
,,,红,blue,k,square,color_mix,单词,,incompatible,2,block_switch1_b,instruction/ready_test.png,instruction/i11.png,,,,,,,,,,,,,,,,,0,0,0,0,0,43,43,43,,,,,,,,,,,,,,,,,,,,,,,,,,,823.6716473000124,823.8725738000066,823.8561644000001,824.1558581000136,824.1558581000136,None,824.6575961000053,None,k,1,1.5333044999861158,824.6575961000053,None,None,None,,,,,,,,,,,,,,,,,,,,,,,11023,1,2,2024_Jun_17_1039,stroop_task_switching2_b,2021.2.3,60.049781266735316,
,,,蓝,green,d,diamond,color_mix,颜色,,incompatible,2,block_switch1_b,instruction/ready_test.png,instruction/i11.png,,,,,,,,,,,,,,,,,0,0,0,0,0,44,44,44,,,,,,,,,,,,,,,,,,,,,,,,,,,826.2089093000104,826.4106018000166,826.3931572000147,826.6929305999947,826.6929305999947,None,827.1938032000035,None,d,1,1.1331364000216126,827.1938032000035,None,None,None,,,,,,,,,,,,,,,,,,,,,,,11023,1,2,2024_Jun_17_1039,stroop_task_switching2_b,2021.2.3,60.049781266735316,
,,,黄,yellow,f,square,color_mix,单词,,compatible,2,block_switch1_b,instruction/ready_test.png,instruction/i11.png,,,,,,,,,,,,,,,,,0,0,0,0,0,45,45,45,,,,,,,,,,,,,,,,,,,,,,,,,,,828.3453543999931,828.5462674000009,828.5295856000157,828.8316128000151,828.8316128000151,None,829.3476641000016,None,f,1,1.2195792999991681,829.3476641000016,None,None,None,,,,,,,,,,,,,,,,,,,,,,,11023,1,2,2024_Jun_17_1039,stroop_task_switching2_b,2021.2.3,60.049781266735316,
,,,黄,yellow,f,diamond,color_mix,颜色,,compatible,2,block_switch1_b,instruction/ready_test.png,instruction/i11.png,,,,,,,,,,,,,,,,,0,0,0,0,0,46,46,46,,,,,,,,,,,,,,,,,,,,,,,,,,,830.5989322999958,830.8004961000115,830.7835627000022,831.083340800018,831.083340800018,None,831.584214100003,None,f,1,1.0712596999946982,831.584214100003,None,None,None,,,,,,,,,,,,,,,,,,,,,,,11023,1,2,2024_Jun_17_1039,stroop_task_switching2_b,2021.2.3,60.049781266735316,
,,,绿,red,d,square,color_mix,单词,,incompatible,2,block_switch1_b,instruction/ready_test.png,instruction/i11.png,,,,,,,,,,,,,,,,,0,0,0,0,0,47,47,47,,,,,,,,,,,,,,,,,,,,,,,,,,,832.6861132000049,832.8864079000195,832.8689176000189,833.1709089000069,833.1709089000069,None,833.6701518000045,None,d,1,1.5052204999956302,833.6701518000045,None,None,None,,,,,,,,,,,,,,,,,,,,,,,11023,1,2,2024_Jun_17_1039,stroop_task_switching2_b,2021.2.3,60.049781266735316,
,,,红,red,k,diamond,color_mix,颜色,,compatible,2,block_switch1_b,instruction/ready_test.png,instruction/i11.png,,,,,,,,,,,,,,,,,0,0,0,0,0,48,48,48,,,,,,,,,,,,,,,,,,,,,,,,,,,835.2059284000134,835.4061255000124,835.3896339000203,835.6919463000086,835.6919463000086,None,836.2075107000128,None,k,1,0.6797665000194684,836.2075107000128,None,None,None,,,,,,,,,,,,,,,,,,,,,,,11023,1,2,2024_Jun_17_1039,stroop_task_switching2_b,2021.2.3,60.049781266735316,
,,,蓝,blue,j,diamond,color_mix,颜色,,compatible,1,block_switch1_b,instruction/ready_test.png,instruction/i11.png,,,,,,,,,,,,,,,,,0,0,0,0,0,49,49,49,,,,,,,,,,,,,,,,,,,,,,,,,,,836.9084075000137,837.1104201000126,837.0923366000061,837.3922232000041,837.3922232000041,None,837.8932473000023,None,j,1,0.5379220000177156,837.8932473000023,None,None,None,,,,,,,,,,,,,,,,,,,,,,,11023,1,2,2024_Jun_17_1039,stroop_task_switching2_b,2021.2.3,60.049781266735316,
,,,黄,yellow,f,diamond,color_mix,颜色,,compatible,1,block_switch1_b,instruction/ready_test.png,instruction/i11.png,,,,,,,,,,,,,,,,,0,0,0,0,0,50,50,50,,,,,,,,,,,,,,,,,,,,,,,,,,,838.4604412000044,838.6619820000196,838.6443809000193,838.9447913000186,838.9447913000186,None,839.445613799995,None,f,1,1.042220900009852,839.445613799995,None,None,None,,,,,,,,,,,,,,,,,,,,,,,11023,1,2,2024_Jun_17_1039,stroop_task_switching2_b,2021.2.3,60.049781266735316,
,,,红,blue,j,diamond,color_mix,颜色,,incompatible,1,block_switch1_b,instruction/ready_test.png,instruction/i11.png,,,,,,,,,,,,,,,,,0,0,0,0,0,51,51,51,,,,,,,,,,,,,,,,,,,,,,,,,,,840.5136555000208,840.7158427000104,840.6975595999975,840.9987865000148,840.9987865000148,None,841.4986739000014,None,j,1,2.7566587000037543,841.4986739000014,None,None,None,,,,,,,,,,,,,,,,,,,,,,,11023,1,2,2024_Jun_17_1039,stroop_task_switching2_b,2021.2.3,60.049781266735316,
,,,蓝,yellow,f,diamond,color_mix,颜色,,incompatible,1,block_switch1_b,instruction/ready_test.png,instruction/i11.png,,,,,,,,,,,,,,,,,0,0,0,0,0,52,52,52,,,,,,,,,,,,,,,,,,,,,,,,,,,844.286151200009,844.4872922000068,844.4704858000041,844.7718363000022,844.7718363000022,None,845.2708519000153,None,f,1,1.2965710000135005,845.2708519000153,None,None,None,,,,,,,,,,,,,,,,,,,,,,,11023,1,2,2024_Jun_17_1039,stroop_task_switching2_b,2021.2.3,60.049781266735316,
,,,黄,blue,f,square,color_mix,单词,,incompatible,2,block_switch1_b,instruction/ready_test.png,instruction/i11.png,,,,,,,,,,,,,,,,,0,0,0,0,0,53,53,53,,,,,,,,,,,,,,,,,,,,,,,,,,,846.5899532000185,846.7907957000134,846.774756800005,847.0916517000005,847.0734442000103,None,847.5750659000187,None,f,1,1.6087013999931514,847.5750659000187,None,None,None,,,,,,,,,,,,,,,,,,,,,,,11023,1,2,2024_Jun_17_1039,stroop_task_switching2_b,2021.2.3,60.049781266735316,
,,,蓝,blue,j,diamond,color_mix,颜色,,compatible,2,block_switch1_b,instruction/ready_test.png,instruction/i11.png,,,,,,,,,,,,,,,,,0,0,0,0,0,54,54,54,,,,,,,,,,,,,,,,,,,,,,,,,,,849.2103078000073,849.4119254999969,849.3938922999951,849.6961286000151,849.6961286000151,None,850.1950357000169,None,j,1,1.1966797999921255,850.1950357000169,None,None,None,,,,,,,,,,,,,,,,,,,,,,,11023,1,2,2024_Jun_17_1039,stroop_task_switching2_b,2021.2.3,60.049781266735316,
,,,红,yellow,k,square,color_mix,单词,,incompatible,2,block_switch1_b,instruction/ready_test.png,instruction/i11.png,,,,,,,,,,,,,,,,,0,0,0,0,0,55,55,55,,,,,,,,,,,,,,,,,,,,,,,,,,,851.4135825000121,851.6146720999968,851.5982737000159,851.8990736000123,851.8990736000123,None,852.3982130000077,None,k,1,0.7454572999849916,852.3982130000077,None,None,None,,,,,,,,,,,,,,,,,,,,,,,11023,1,2,2024_Jun_17_1039,stroop_task_switching2_b,2021.2.3,60.049781266735316,
,,,蓝,red,j,square,color_mix,单词,,incompatible,1,block_switch1_b,instruction/ready_test.png,instruction/i11.png,,,,,,,,,,,,,,,,,0,0,0,0,0,56,56,56,,,,,,,,,,,,,,,,,,,,,,,,,,,853.1663594999991,853.3677368000208,853.3498401000106,853.6521625000169,853.6521625000169,None,854.1512940000102,None,j,1,1.4337459999951534,854.1512940000102,None,None,None,,,,,,,,,,,,,,,,,,,,,,,11023,1,2,2024_Jun_17_1039,stroop_task_switching2_b,2021.2.3,60.049781266735316,
,,,蓝,blue,j,square,color_mix,单词,,compatible,1,block_switch1_b,instruction/ready_test.png,instruction/i11.png,,,,,,,,,,,,,,,,,0,0,0,0,0,57,57,57,,,,,,,,,,,,,,,,,,,,,,,,,,,855.603191000002,855.8045030999929,855.7869042000093,856.0873038000136,856.0873038000136,None,856.5882979000162,None,j,1,0.7634799999941606,856.5882979000162,None,None,None,,,,,,,,,,,,,,,,,,,,,,,11023,1,2,2024_Jun_17_1039,stroop_task_switching2_b,2021.2.3,60.049781266735316,
,,,蓝,red,k,diamond,color_mix,颜色,,incompatible,2,block_switch1_b,instruction/ready_test.png,instruction/i11.png,,,,,,,,,,,,,,,,,0,0,0,0,0,58,58,58,,,,,,,,,,,,,,,,,,,,,,,,,,,857.3724254000117,857.5736538000056,857.5564064999926,857.8579759999993,857.8579759999993,None,858.3583357000025,None,k,1,2.593413299997337,858.3583357000025,None,None,None,,,,,,,,,,,,,,,,,,,,,,,11023,1,2,2024_Jun_17_1039,stroop_task_switching2_b,2021.2.3,60.049781266735316,
,,,绿,green,d,diamond,color_mix,颜色,,compatible,1,block_switch1_b,instruction/ready_test.png,instruction/i11.png,,,,,,,,,,,,,,,,,0,0,0,0,0,59,59,59,,,,,,,,,,,,,,,,,,,,,,,,,,,860.9782936999982,861.178344200016,861.1623975000111,861.463304200006,861.463304200006,None,861.9628513999924,None,d,1,1.9494729000143707,861.9628513999924,None,None,None,,,,,,,,,,,,,,,,,,,,,,,11023,1,2,2024_Jun_17_1039,stroop_task_switching2_b,2021.2.3,60.049781266735316,
,,,蓝,blue,j,diamond,color_mix,颜色,,compatible,1,block_switch1_b,instruction/ready_test.png,instruction/i11.png,,,,,,,,,,,,,,,,,0,0,0,0,0,60,60,60,,,,,,,,,,,,,,,,,,,,,,,,,,,863.9324447000108,864.1343976000207,864.1161698999931,864.4176020000014,864.4176020000014,None,864.918505300011,None,j,1,0.8818361999874469,864.918505300011,None,None,None,,,,,,,,,,,,,,,,,,,,,,,11023,1,2,2024_Jun_17_1039,stroop_task_switching2_b,2021.2.3,60.049781266735316,
,,,黄,yellow,f,square,color_mix,单词,,compatible,2,block_switch1_b,instruction/ready_test.png,instruction/i11.png,,,,,,,,,,,,,,,,,0,0,0,0,0,61,61,61,,,,,,,,,,,,,,,,,,,,,,,,,,,865.8187833999982,866.0197559999942,866.0045526000031,866.319095200015,866.3039753000194,None,866.804599199997,None,f,1,0.7957196999923326,866.804599199997,None,None,None,,,,,,,,,,,,,,,,,,,,,,,11023,1,2,2024_Jun_17_1039,stroop_task_switching2_b,2021.2.3,60.049781266735316,
,,,绿,blue,d,square,color_mix,单词,,incompatible,1,block_switch1_b,instruction/ready_test.png,instruction/i11.png,,,,,,,,,,,,,,,,,0,0,0,0,0,62,62,62,,,,,,,,,,,,,,,,,,,,,,,,,,,867.6215226000058,867.8229246000119,867.8049725000164,868.1062969000195,868.1062969000195,None,868.6062407999998,None,d,1,1.0902266000048257,868.6062407999998,None,None,None,,,,,,,,,,,,,,,,,,,,,,,11023,1,2,2024_Jun_17_1039,stroop_task_switching2_b,2021.2.3,60.049781266735316,
,,,蓝,yellow,j,square,color_mix,单词,,incompatible,1,block_switch1_b,instruction/ready_test.png,instruction/i11.png,,,,,,,,,,,,,,,,,0,0,0,0,0,63,63,63,,,,,,,,,,,,,,,,,,,,,,,,,,,869.7245446000015,869.9258346999995,869.9081688000006,870.2088275999995,870.2088275999995,None,870.7093073000142,None,j,1,0.7951242999988608,870.7093073000142,None,None,None,,,,,,,,,,,,,,,,,,,,,,,11023,1,2,2024_Jun_17_1039,stroop_task_switching2_b,2021.2.3,60.049781266735316,
,,,黄,yellow,f,diamond,color_mix,颜色,,compatible,2,block_switch1_b,instruction/ready_test.png,instruction/i11.png,,,,,,,,,,,,,,,,,0,0,0,0,0,64,64,64,,,,,,,,,,,,,,,,,,,,,,,,,,,871.5274615999951,871.7274794999976,871.7121060000209,872.0112461000099,872.0112461000099,None,872.5125517999986,None,f,1,1.3436292000114918,872.5125517999986,None,None,None,,,,,,,,,,,,,,,,,,,,,,,11023,1,2,2024_Jun_17_1039,stroop_task_switching2_b,2021.2.3,60.049781266735316,
,,,蓝,green,d,diamond,color_mix,颜色,,incompatible,1,block_switch1_b,instruction/ready_test.png,instruction/i11.png,,,,,,,,,,,,,,,,,0,0,0,0,0,65,65,65,,,,,,,,,,,,,,,,,,,,,,,,,,,873.8808755000064,874.0822540000081,874.0653880000173,874.3655326000007,874.3655326000007,None,874.8663434000046,None,f,0,2.0862244999734685,874.8663434000046,None,None,None,,,,,,,,,,,,,,,,,,,,,,,11023,1,2,2024_Jun_17_1039,stroop_task_switching2_b,2021.2.3,60.049781266735316,
,,,红,red,k,diamond,color_mix,颜色,,compatible,1,block_switch1_b,instruction/ready_test.png,instruction/i11.png,,,,,,,,,,,,,,,,,0,0,0,0,0,66,66,66,,,,,,,,,,,,,,,,,,,,,,,,,,,876.9686342000205,877.1705778000178,877.1522152000107,877.4527294000145,877.4527294000145,None,877.9544600000081,None,k,1,1.4780677999951877,877.9544600000081,None,None,None,,,,,,,,,,,,,,,,,,,,,,,11023,1,2,2024_Jun_17_1039,stroop_task_switching2_b,2021.2.3,60.049781266735316,
,,,蓝,yellow,j,square,color_mix,单词,,incompatible,2,block_switch1_b,instruction/ready_test.png,instruction/i11.png,,,,,,,,,,,,,,,,,0,0,0,0,0,67,67,67,,,,,,,,,,,,,,,,,,,,,,,,,,,879.4558092000079,879.6566010999959,879.6400571000122,879.9400416999997,879.9400416999997,None,880.4410729999945,None,j,1,1.8955295999767259,880.4410729999945,None,None,None,,,,,,,,,,,,,,,,,,,,,,,11023,1,2,2024_Jun_17_1039,stroop_task_switching2_b,2021.2.3,60.049781266735316,
,,,红,yellow,k,square,color_mix,单词,,incompatible,1,block_switch1_b,instruction/ready_test.png,instruction/i11.png,,,,,,,,,,,,,,,,,0,0,0,0,0,68,68,68,,,,,,,,,,,,,,,,,,,,,,,,,,,882.360234199994,882.5609638000024,882.5439733999956,882.8451958000078,882.8451958000078,None,883.3453269000165,None,k,1,0.9034298000042327,883.3453269000165,None,None,None,,,,,,,,,,,,,,,,,,,,,,,11023,1,2,2024_Jun_17_1039,stroop_task_switching2_b,2021.2.3,60.049781266735316,
,,,红,yellow,f,diamond,color_mix,颜色,,incompatible,2,block_switch1_b,instruction/ready_test.png,instruction/i11.png,,,,,,,,,,,,,,,,,0,0,0,0,0,69,69,69,,,,,,,,,,,,,,,,,,,,,,,,,,,884.2811363000073,884.4799305000051,884.4650044000009,884.7639753000112,884.7639753000112,None,885.2659687999985,None,f,1,0.783147000009194,885.2659687999985,None,None,None,,,,,,,,,,,,,,,,,,,,,,,11023,1,2,2024_Jun_17_1039,stroop_task_switching2_b,2021.2.3,60.049781266735316,
,,,蓝,green,j,square,color_mix,单词,,incompatible,2,block_switch1_b,instruction/ready_test.png,instruction/i11.png,,,,,,,,,,,,,,,,,0,0,0,0,0,70,70,70,,,,,,,,,,,,,,,,,,,,,,,,,,,886.0658503000159,886.2677515000105,886.2494733000058,886.5517847000156,886.5517847000156,None,887.0673364000104,None,d,0,1.1178259000007529,887.0673364000104,None,None,None,,,,,,,,,,,,,,,,,,,,,,,11023,1,2,2024_Jun_17_1039,stroop_task_switching2_b,2021.2.3,60.049781266735316,
,,,绿,yellow,d,square,color_mix,单词,,incompatible,1,block_switch1_b,instruction/ready_test.png,instruction/i11.png,,,,,,,,,,,,,,,,,0,0,0,0,0,71,71,71,,,,,,,,,,,,,,,,,,,,,,,,,,,888.2026041999925,888.4037442000117,888.3878778000071,888.6867978000082,888.6867978000082,None,889.1873491000151,892.1920915000082,None,0,,889.1873491000151,892.1920915000082,892.1749573000125,None,,,,,,,,,,,,,,,,,,,,,,,11023,1,2,2024_Jun_17_1039,stroop_task_switching2_b,2021.2.3,60.049781266735316,
,,,蓝,yellow,f,diamond,color_mix,颜色,,incompatible,2,block_switch1_b,instruction/ready_test.png,instruction/i11.png,,,,,,,,,,,,,,,,,0,0,0,0,0,72,72,72,,,,,,,,,,,,,,,,,,,,,,,,,,,892.7093282999995,892.9109262000129,892.8929569000029,893.1933304000122,893.1933304000122,None,893.6939667999977,None,f,1,2.1710275000077672,893.6939667999977,None,None,None,,,,,,,,,,,,,,,,,,,,,,,11023,1,2,2024_Jun_17_1039,stroop_task_switching2_b,2021.2.3,60.049781266735316,
,,,红,green,k,square,color_mix,单词,,incompatible,2,block_switch1_b,instruction/ready_test.png,instruction/i11.png,,,,,,,,,,,,,,,,,0,0,0,0,0,73,73,73,,,,,,,,,,,,,,,,,,,,,,,,,,,895.8804879999952,896.0816640999983,896.0659643000108,896.3646783000149,896.3646783000149,None,896.8654759000055,None,k,1,1.5116088999784552,896.8654759000055,None,None,None,,,,,,,,,,,,,,,,,,,,,,,11023,1,2,2024_Jun_17_1039,stroop_task_switching2_b,2021.2.3,60.049781266735316,
,,,绿,blue,j,diamond,color_mix,颜色,,incompatible,2,block_switch1_b,instruction/ready_test.png,instruction/i11.png,,,,,,,,,,,,,,,,,0,0,0,0,0,74,74,74,,,,,,,,,,,,,,,,,,,,,,,,,,,898.4010817999952,898.6022808999987,898.5861976000015,898.8850917000091,898.8850917000091,None,899.3860649999988,None,d,0,1.2552281999960542,899.3860649999988,None,None,None,,,,,,,,,,,,,,,,,,,,,,,11023,1,2,2024_Jun_17_1039,stroop_task_switching2_b,2021.2.3,60.049781266735316,
,,,红,red,k,square,color_mix,单词,,compatible,2,block_switch1_b,instruction/ready_test.png,instruction/i11.png,,,,,,,,,,,,,,,,,0,0,0,0,0,75,75,75,,,,,,,,,,,,,,,,,,,,,,,,,,,900.6712846000155,900.8720886000083,900.8549167000165,901.1552406999981,901.1552406999981,None,901.6560677000089,None,f,0,1.248909599991748,901.6560677000089,None,None,None,,,,,,,,,,,,,,,,,,,,,,,11023,1,2,2024_Jun_17_1039,stroop_task_switching2_b,2021.2.3,60.049781266735316,
,,,绿,green,d,diamond,color_mix,颜色,,compatible,2,block_switch1_b,instruction/ready_test.png,instruction/i11.png,,,,,,,,,,,,,,,,,0,0,0,0,0,76,76,76,,,,,,,,,,,,,,,,,,,,,,,,,,,902.9246129000094,903.1258097999962,903.1090930000064,903.4086728999973,903.4086728999973,None,903.9102847000177,None,d,1,1.2750607999914791,903.9102847000177,None,None,None,,,,,,,,,,,,,,,,,,,,,,,11023,1,2,2024_Jun_17_1039,stroop_task_switching2_b,2021.2.3,60.049781266735316,
,,,黄,red,f,square,color_mix,单词,,incompatible,2,block_switch1_b,instruction/ready_test.png,instruction/i11.png,,,,,,,,,,,,,,,,,0,0,0,0,0,77,77,77,,,,,,,,,,,,,,,,,,,,,,,,,,,905.2125449000159,905.4138142000011,905.3956984000106,905.6975381000084,905.6975381000084,None,906.1960948000196,None,f,1,1.013397700007772,906.1960948000196,None,None,None,,,,,,,,,,,,,,,,,,,,,,,11023,1,2,2024_Jun_17_1039,stroop_task_switching2_b,2021.2.3,60.049781266735316,
,,,红,red,k,square,color_mix,单词,,compatible,1,block_switch1_b,instruction/ready_test.png,instruction/i11.png,,,,,,,,,,,,,,,,,0,0,0,0,0,78,78,78,,,,,,,,,,,,,,,,,,,,,,,,,,,907.2308187000162,907.432060399995,907.4146721000143,907.7150127000059,907.7150127000059,None,908.2172174000007,None,k,1,0.6641001999960281,908.2172174000007,None,None,None,,,,,,,,,,,,,,,,,,,,,,,11023,1,2,2024_Jun_17_1039,stroop_task_switching2_b,2021.2.3,60.049781266735316,
,,,黄,yellow,f,square,color_mix,单词,,compatible,1,block_switch1_b,instruction/ready_test.png,instruction/i11.png,,,,,,,,,,,,,,,,,0,0,0,0,0,79,79,79,,,,,,,,,,,,,,,,,,,,,,,,,,,908.9010470999929,909.1019235000131,909.0839060000144,909.3863678000052,909.3863678000052,None,909.8857261000085,None,f,1,0.8677647000004072,909.8857261000085,None,None,None,,,,,,,,,,,,,,,,,,,,,,,11023,1,2,2024_Jun_17_1039,stroop_task_switching2_b,2021.2.3,60.049781266735316,
,,,红,red,k,diamond,color_mix,颜色,,compatible,2,block_switch1_b,instruction/ready_test.png,instruction/i11.png,,,,,,,,,,,,,,,,,0,0,0,0,0,80,80,80,,,,,,,,,,,,,,,,,,,,,,,,,,,910.7696897000133,910.9705701000057,910.953446200001,911.2538076000055,911.2538076000055,None,911.7553023000073,None,k,1,1.3263087999948766,911.7553023000073,None,None,None,,,,,,,,,,,,,,,,,,,,,,,11023,1,2,2024_Jun_17_1039,stroop_task_switching2_b,2021.2.3,60.049781266735316,
,,,红,red,k,square,color_mix,单词,,compatible,2,block_switch1_b,instruction/ready_test.png,instruction/i11.png,,,,,,,,,,,,,,,,,0,0,0,0,0,81,81,81,,,,,,,,,,,,,,,,,,,,,,,,,,,913.1066146999947,913.3084509000182,913.2902484000078,913.5914900000207,913.5914900000207,None,914.0915843000112,None,k,1,0.9259935999871232,914.0915843000112,None,None,None,,,,,,,,,,,,,,,,,,,,,,,11023,1,2,2024_Jun_17_1039,stroop_task_switching2_b,2021.2.3,60.049781266735316,
,,,黄,blue,j,diamond,color_mix,颜色,,incompatible,2,block_switch1_b,instruction/ready_test.png,instruction/i11.png,,,,,,,,,,,,,,,,,0,0,0,0,0,82,82,82,,,,,,,,,,,,,,,,,,,,,,,,,,,915.0429199000064,915.2436193000176,915.227294500015,915.5280230000208,915.5280230000208,None,916.0275561000162,None,f,0,1.021869800024433,916.0275561000162,None,None,None,,,,,,,,,,,,,,,,,,,,,,,11023,1,2,2024_Jun_17_1039,stroop_task_switching2_b,2021.2.3,60.049781266735316,
,,,红,yellow,f,diamond,color_mix,颜色,,incompatible,1,block_switch1_b,instruction/ready_test.png,instruction/i11.png,,,,,,,,,,,,,,,,,0,0,0,0,0,83,83,83,,,,,,,,,,,,,,,,,,,,,,,,,,,917.0793065000034,917.2795973000175,917.2638203999959,917.5649903000158,917.5649903000158,None,918.0648930000025,None,k,0,2.1532049999805167,918.0648930000025,None,None,None,,,,,,,,,,,,,,,,,,,,,,,11023,1,2,2024_Jun_17_1039,stroop_task_switching2_b,2021.2.3,60.049781266735316,
,,,黄,red,k,diamond,color_mix,颜色,,incompatible,1,block_switch1_b,instruction/ready_test.png,instruction/i11.png,,,,,,,,,,,,,,,,,0,0,0,0,0,84,84,84,,,,,,,,,,,,,,,,,,,,,,,,,,,920.2351380000182,920.436498199997,920.4178321000072,920.7196577000141,920.7196577000141,None,921.2200278000091,None,d,0,1.502287699986482,921.2200278000091,None,None,None,,,,,,,,,,,,,,,,,,,,,,,11023,1,2,2024_Jun_17_1039,stroop_task_switching2_b,2021.2.3,60.049781266735316,
,,,蓝,blue,j,square,color_mix,单词,,compatible,2,block_switch1_b,instruction/ready_test.png,instruction/i11.png,,,,,,,,,,,,,,,,,0,0,0,0,0,85,85,85,,,,,,,,,,,,,,,,,,,,,,,,,,,922.7378704000148,922.9387169000111,922.9213533000147,923.2219831999973,923.2219831999973,None,923.7232514000207,None,j,1,0.9584471999842208,923.7232514000207,None,None,None,,,,,,,,,,,,,,,,,,,,,,,11023,1,2,2024_Jun_17_1039,stroop_task_switching2_b,2021.2.3,60.049781266735316,
,,,绿,green,d,square,color_mix,单词,,compatible,1,block_switch1_b,instruction/ready_test.png,instruction/i11.png,,,,,,,,,,,,,,,,,0,0,0,0,0,86,86,86,,,,,,,,,,,,,,,,,,,,,,,,,,,924.7073843000107,924.9086393000034,924.8921693000011,925.1928130000015,925.1928130000015,None,925.6922970000014,None,d,1,1.0294516999856569,925.6922970000014,None,None,None,,,,,,,,,,,,,,,,,,,,,,,11023,1,2,2024_Jun_17_1039,stroop_task_switching2_b,2021.2.3,60.049781266735316,
,,,红,red,k,square,color_mix,单词,,compatible,1,block_switch1_b,instruction/ready_test.png,instruction/i11.png,,,,,,,,,,,,,,,,,0,0,0,0,0,87,87,87,,,,,,,,,,,,,,,,,,,,,,,,,,,926.7439950999978,926.9440042999922,926.9288521000126,927.2292665000132,927.2292665000132,None,927.7288299000065,None,k,1,0.6180418999865651,927.7288299000065,None,None,None,,,,,,,,,,,,,,,,,,,,,,,11023,1,2,2024_Jun_17_1039,stroop_task_switching2_b,2021.2.3,60.049781266735316,
,,,黄,green,d,diamond,color_mix,颜色,,incompatible,2,block_switch1_b,instruction/ready_test.png,instruction/i11.png,,,,,,,,,,,,,,,,,0,0,0,0,0,88,88,88,,,,,,,,,,,,,,,,,,,,,,,,,,,928.3632123999996,928.5640158000169,928.547427500016,928.8470872000034,928.8470872000034,None,929.348346600018,None,d,1,0.8615284999832511,929.348346600018,None,None,None,,,,,,,,,,,,,,,,,,,,,,,11023,1,2,2024_Jun_17_1039,stroop_task_switching2_b,2021.2.3,60.049781266735316,
,,,绿,red,d,square,color_mix,单词,,incompatible,2,block_switch1_b,instruction/ready_test.png,instruction/i11.png,,,,,,,,,,,,,,,,,0,0,0,0,0,89,89,89,,,,,,,,,,,,,,,,,,,,,,,,,,,930.2325162000197,930.4345115000033,930.4160832000198,930.7173247000028,930.7173247000028,None,931.2179343000171,None,d,1,1.7679441000218503,931.2179343000171,None,None,None,,,,,,,,,,,,,,,,,,,,,,,11023,1,2,2024_Jun_17_1039,stroop_task_switching2_b,2021.2.3,60.049781266735316,
,,,黄,green,f,square,color_mix,单词,,incompatible,1,block_switch1_b,instruction/ready_test.png,instruction/i11.png,,,,,,,,,,,,,,,,,0,0,0,0,0,90,90,90,,,,,,,,,,,,,,,,,,,,,,,,,,,933.0034652000177,933.2047811000084,933.1868848000013,933.4890692000045,933.4890692000045,None,933.9882432000013,None,f,1,1.4617908999789506,933.9882432000013,None,None,None,,,,,,,,,,,,,,,,,,,,,,,11023,1,2,2024_Jun_17_1039,stroop_task_switching2_b,2021.2.3,60.049781266735316,
,,,蓝,blue,j,square,color_mix,单词,,compatible,1,block_switch1_b,instruction/ready_test.png,instruction/i11.png,,,,,,,,,,,,,,,,,0,0,0,0,0,91,91,91,,,,,,,,,,,,,,,,,,,,,,,,,,,935.4737129000132,935.6738606000145,935.6591422000201,935.9586835000082,935.9586835000082,None,936.4585193000094,None,j,1,0.6955483000201639,936.4585193000094,None,None,None,,,,,,,,,,,,,,,,,,,,,,,11023,1,2,2024_Jun_17_1039,stroop_task_switching2_b,2021.2.3,60.049781266735316,
,,,蓝,red,j,square,color_mix,单词,,incompatible,1,block_switch1_b,instruction/ready_test.png,instruction/i11.png,,,,,,,,,,,,,,,,,0,0,0,0,0,92,92,92,,,,,,,,,,,,,,,,,,,,,,,,,,,937.1763415000169,937.3784136000031,937.3600181000074,937.6621466999932,937.6621466999932,None,938.1618218999938,None,j,1,0.520467499998631,938.1618218999938,None,None,None,,,,,,,,,,,,,,,,,,,,,,,11023,1,2,2024_Jun_17_1039,stroop_task_switching2_b,2021.2.3,60.049781266735316,
,,,黄,blue,f,square,color_mix,单词,,incompatible,1,block_switch1_b,instruction/ready_test.png,instruction/i11.png,,,,,,,,,,,,,,,,,0,0,0,0,0,93,93,93,,,,,,,,,,,,,,,,,,,,,,,,,,,938.7119911000191,938.9125332999974,938.8960440999945,939.1961105999944,939.1961105999944,None,939.6975078000105,None,f,1,0.9608185999968555,939.6975078000105,None,None,None,,,,,,,,,,,,,,,,,,,,,,,11023,1,2,2024_Jun_17_1039,stroop_task_switching2_b,2021.2.3,60.049781266735316,
,,,绿,red,k,diamond,color_mix,颜色,,incompatible,2,block_switch1_b,instruction/ready_test.png,instruction/i11.png,,,,,,,,,,,,,,,,,0,0,0,0,0,94,94,94,,,,,,,,,,,,,,,,,,,,,,,,,,,940.6815125000139,940.8835988999926,940.8653425000084,941.1653689999948,941.1653689999948,None,941.6663282999943,None,k,1,1.3199975999887101,941.6663282999943,None,None,None,,,,,,,,,,,,,,,,,,,,,,,11023,1,2,2024_Jun_17_1039,stroop_task_switching2_b,2021.2.3,60.049781266735316,
,,,蓝,blue,j,diamond,color_mix,颜色,,compatible,1,block_switch1_b,instruction/ready_test.png,instruction/i11.png,,,,,,,,,,,,,,,,,0,0,0,0,0,95,95,95,,,,,,,,,,,,,,,,,,,,,,,,,,,943.0184135000163,943.2194939000183,943.2028935000126,943.5042075999954,943.5042075999954,None,944.0036032999924,None,j,1,0.6706207000243012,944.0036032999924,None,None,None,,,,,,,,,,,,,,,,,,,,,,,11023,1,2,2024_Jun_17_1039,stroop_task_switching2_b,2021.2.3,60.049781266735316,
,,,绿,green,d,square,color_mix,单词,,compatible,2,block_switch1_b,instruction/ready_test.png,instruction/i11.png,,,,,,,,,,,,,,,,,0,0,0,0,0,96,96,96,,,,,,,,,,,,,,,,,,,,,,,,,,,944.7044632000034,944.9047175000014,944.8879282000125,945.1883249999955,945.1883249999955,None,945.6891993000172,None,d,1,0.7849519000155851,945.6891993000172,None,None,None,,,,,,,,,,,,,,,,,,,,,,,11023,1,2,2024_Jun_17_1039,stroop_task_switching2_b,2021.2.3,60.049781266735316,
,,,,,,,,,,,,block_switch1_b,instruction/ready_test.png,instruction/i11.png,,,,,,,,,,,,,,,,,0,0,0,0,,,,,,,,,,,,,,,,,,,,,,,,,,,,,,,,,,,,,,,,,,,,,,,,,,,,,,,,,,,,946.4901492999925,None,space,74.06564019998768,946.4901492999925,None,,,11023,1,2,2024_Jun_17_1039,stroop_task_switching2_b,2021.2.3,60.049781266735316,
,,,蓝,blue,j,square,color_mix,单词,,compatible,0,block_switch2_b,instruction/ready_2.png,instruction/i12.png,,,,,,,,,,,,,,,,,0,1,1,1,0,0,0,0,,,,,,,,,,,,,,,,,,,1023.1392986999999,1024.1420175000094,1024.1420175000094,1025.1433468000032,1025.125676399999,None,1022.1543838999933,1023.1563146999979,1026.1621329000045,1026.3617651000095,1026.3457245000172,1026.6614793000044,1026.6458065000188,None,1027.145258500008,None,j,1,0.9717939000111073,1027.145258500008,None,None,None,,,,,,,,,1020.6034087000007,None,space,1.5311511000036262,1020.6034087000007,None,,,,,,,,,11023,1,2,2024_Jun_17_1039,stroop_task_switching2_b,2021.2.3,60.049781266735316,
,,,黄,red,k,diamond,color_mix,颜色,,incompatible,2,block_switch2_b,instruction/ready_2.png,instruction/i12.png,,,,,,,,,,,,,,,,,0,1,1,1,0,1,1,1,,,,,,,,,,,,,,,,,,,,,,,,,,,1028.1471425000054,1028.3480699000065,1028.3304429000127,1028.632674099994,1028.632674099994,None,1029.131610100012,None,f,0,0.9860798000008799,1029.131610100012,None,None,None,,,,,,,,,,,,,,,,,,,,,,,11023,1,2,2024_Jun_17_1039,stroop_task_switching2_b,2021.2.3,60.049781266735316,
,,,蓝,green,d,diamond,color_mix,颜色,,incompatible,1,block_switch2_b,instruction/ready_2.png,instruction/i12.png,,,,,,,,,,,,,,,,,0,1,1,1,0,2,2,2,,,,,,,,,,,,,,,,,,,,,,,,,,,1030.1327588999993,1030.3349973000004,1030.3167039999971,1030.6172050000168,1030.6172050000168,None,1031.119319999998,None,f,0,1.8539232999901287,1031.119319999998,None,None,None,,,,,,,,,,,,,,,,,,,,,,,11023,1,2,2024_Jun_17_1039,stroop_task_switching2_b,2021.2.3,60.049781266735316,
,,,红,yellow,f,diamond,color_mix,颜色,,incompatible,1,block_switch2_b,instruction/ready_2.png,instruction/i12.png,,,,,,,,,,,,,,,,,0,1,1,1,0,3,3,3,,,,,,,,,,,,,,,,,,,,,,,,,,,1033.0040045999922,1033.2044540999923,1033.1883454000053,1033.488146699994,1033.488146699994,None,1033.9898166000203,None,k,0,1.4868678000057116,1033.9898166000203,None,None,None,,,,,,,,,,,,,,,,,,,,,,,11023,1,2,2024_Jun_17_1039,stroop_task_switching2_b,2021.2.3,60.049781266735316,
,,,红,red,k,diamond,color_mix,颜色,,compatible,1,block_switch2_b,instruction/ready_2.png,instruction/i12.png,,,,,,,,,,,,,,,,,0,1,1,1,0,4,4,4,,,,,,,,,,,,,,,,,,,,,,,,,,,1035.5078915000195,1035.7094727999938,1035.691626200016,1035.994058900018,1035.994058900018,None,1036.4927941000205,None,k,1,1.0641907000099309,1036.4927941000205,None,None,None,,,,,,,,,,,,,,,,,,,,,,,11023,1,2,2024_Jun_17_1039,stroop_task_switching2_b,2021.2.3,60.049781266735316,
,,,绿,green,d,square,color_mix,单词,,compatible,2,block_switch2_b,instruction/ready_2.png,instruction/i12.png,,,,,,,,,,,,,,,,,0,1,1,1,0,5,5,5,,,,,,,,,,,,,,,,,,,,,,,,,,,1037.5783643000177,1037.7776423000032,1037.7619204999937,1038.0625932000112,1038.0625932000112,None,1038.5623844999936,None,d,1,1.1784854000143241,1038.5623844999936,None,None,None,,,,,,,,,,,,,,,,,,,,,,,11023,1,2,2024_Jun_17_1039,stroop_task_switching2_b,2021.2.3,60.049781266735316,
,,,黄,blue,j,diamond,color_mix,颜色,,incompatible,2,block_switch2_b,instruction/ready_2.png,instruction/i12.png,,,,,,,,,,,,,,,,,0,1,1,1,0,6,6,6,,,,,,,,,,,,,,,,,,,,,,,,,,,1039.7643301000062,1039.9654956000159,1039.947891000018,1040.2483424000093,1040.2483424000093,None,1040.749835900002,None,j,1,0.6638123000157066,1040.749835900002,None,None,None,,,,,,,,,,,,,,,,,,,,,,,11023,1,2,2024_Jun_17_1039,stroop_task_switching2_b,2021.2.3,60.049781266735316,
,,,绿,yellow,d,square,color_mix,单词,,incompatible,2,block_switch2_b,instruction/ready_2.png,instruction/i12.png,,,,,,,,,,,,,,,,,0,1,1,1,0,7,7,7,,,,,,,,,,,,,,,,,,,,,,,,,,,1041.4335117000155,1041.6343820000184,1041.6170407000172,1041.9173603999952,1041.9173603999952,None,1042.4181279000186,None,f,0,0.8909940000157803,1042.4181279000186,None,None,None,,,,,,,,,,,,,,,,,,,,,,,11023,1,2,2024_Jun_17_1039,stroop_task_switching2_b,2021.2.3,60.049781266735316,
