b_pra,ins_blocks,ins_blocks2,stim_word,stim_color,corrAns,cue_type,trial_type,task_type,rand,compatibility,switch,b_test,w_pic,w_pic2,trials_instr.thisRepN,trials_instr.thisTrialN,trials_instr.thisN,trials_instr.thisIndex,block_pra.thisRepN,block_pra.thisTrialN,block_pra.thisN,block_pra.thisIndex,trials_rep.thisRepN,trials_rep.thisTrialN,trials_rep.thisN,trials_rep.thisIndex,trials_pra.thisRepN,trials_pra.thisTrialN,trials_pra.thisN,trials_pra.thisIndex,trials_3.thisRepN,trials_3.thisTrialN,trials_3.thisN,trials_3.thisIndex,trials_2.thisRepN,trials_2.thisTrialN,trials_2.thisN,trials_2.thisIndex,instr_image.started,instr_image.stopped,instr_key_resp.keys,instr_key_resp.rt,instr_key_resp.started,instr_key_resp.stopped,instr_pra_image.started,instr_pra_image.stopped,ip_key_resp.keys,ip_key_resp.rt,ip_key_resp.started,ip_key_resp.stopped,block_image.started,block_image.stopped,ib_key_resp.keys,ib_key_resp.rt,ib_key_resp.started,ib_key_resp.stopped,cd3.started,cd3.stopped,cd2.started,cd2.stopped,cd1.started,cd1.stopped,cd_text.started,cd_text.stopped,text_fix.started,text_fix.stopped,text_2.started,text_2.stopped,text_4.started,text_4.stopped,text_target.started,text_target.stopped,key_resp.keys,key_resp.corr,key_resp.rt,key_resp.started,key_resp.stopped,sceen_black.started,sceen_black.stopped,text_fb.started,text_fb.stopped,text.started,text.stopped,key_bf.keys,key_bf.rt,key_bf.started,key_bf.stopped,instr_test_image.started,instr_test_image.stopped,instr_exp_key_resp.keys,instr_exp_key_resp.rt,instr_exp_key_resp.started,instr_exp_key_resp.stopped,text_rest.started,text_rest.stopped,key_resp_rest.keys,key_resp_rest.rt,key_resp_rest.started,key_resp_rest.stopped,text_3.started,text_3.stopped,participant,session,balance,date,expName,psychopyVersion,frameRate,
,,,,,,,,,,,,,,,0,0,0,0,,,,,,,,,,,,,,,,,,,,,27.18665039993357,None,right,1.2043589000822976,27.18665039993357,None,,,,,,,,,,,,,,,,,,,,,,,,,,,,,,,,,,,,,,,,,,,,,,,,,,,,,,,,,,11027,2,2,2024_Jun_04_1307,stroop_task_switching2_b,2021.2.3,59.646902273460796,
,,,,,,,,,,,,,,,1,0,1,0,,,,,,,,,,,,,,,,,,,,,28.43899940000847,None,right,45.905129899969324,28.43899940000847,None,,,,,,,,,,,,,,,,,,,,,,,,,,,,,,,,,,,,,,,,,,,,,,,,,,,,,,,,,,11027,2,2,2024_Jun_04_1307,stroop_task_switching2_b,2021.2.3,59.646902273460796,
,,,,,,,,,,,,,,,2,0,2,0,,,,,,,,,,,,,,,,,,,,,74.39196049992461,None,right,0.4483781000599265,74.39196049992461,None,,,,,,,,,,,,,,,,,,,,,,,,,,,,,,,,,,,,,,,,,,,,,,,,,,,,,,,,,,11027,2,2,2024_Jun_04_1307,stroop_task_switching2_b,2021.2.3,59.646902273460796,
,,,,,,,,,,,,,,,3,0,3,0,,,,,,,,,,,,,,,,,,,,,74.87586339993868,None,right,0.15682880009990185,74.87586339993868,None,,,,,,,,,,,,,,,,,,,,,,,,,,,,,,,,,,,,,,,,,,,,,,,,,,,,,,,,,,11027,2,2,2024_Jun_04_1307,stroop_task_switching2_b,2021.2.3,59.646902273460796,
,,,,,,,,,,,,,,,4,0,4,0,,,,,,,,,,,,,,,,,,,,,75.076239899965,None,right,0.356274800025858,75.076239899965,None,,,,,,,,,,,,,,,,,,,,,,,,,,,,,,,,,,,,,,,,,,,,,,,,,,,,,,,,,,11027,2,2,2024_Jun_04_1307,stroop_task_switching2_b,2021.2.3,59.646902273460796,
,,,,,,,,,,,,,,,5,0,5,0,,,,,,,,,,,,,,,,,,,,,75.476992999902,None,right,0.883440800011158,75.476992999902,None,,,,,,,,,,,,,,,,,,,,,,,,,,,,,,,,,,,,,,,,,,,,,,,,,,,,,,,,,,11027,2,2,2024_Jun_04_1307,stroop_task_switching2_b,2021.2.3,59.646902273460796,
,,,,,,,,,,,,,,,,,,,,,,,,,,,,,,,,,,,,,,,,,,,,,76.39555539994035,None,space,1.0461398001061752,76.39555539994035,None,,,,,,,,,,,,,,,,,,,,,,,,,,,,,,,,,,,,,,,,,,,,,,,,,,,,11027,2,2,2024_Jun_04_1307,stroop_task_switching2_b,2021.2.3,59.646902273460796,
condition/block_color_b,instruction/instr_color,instruction/i8_b,XX,red,k,diamond,color_single,颜色,,,,,,,,,,,0,0,0,0,0,0,0,0,0,0,0,0,,,,,,,,,,,,,,,,,,,,,77.47989650000818,None,space,6.099831200088374,77.47989650000818,None,84.65719599998556,85.659001299995,85.659001299995,86.66079979995266,86.66079979995266,None,83.67365739995148,84.67572039994411,87.62837089993991,87.82959199999459,87.81192319991533,88.11362929991446,88.11362929991446,None,88.61318649991881,None,k,1,1.4194005999015644,88.61318649991881,None,None,None,90.04884679999668,None,,,,,,,,,,,,,,,,,,,,,11027,2,2,2024_Jun_04_1307,stroop_task_switching2_b,2021.2.3,59.646902273460796,
condition/block_color_b,instruction/instr_color,instruction/i8_b,XX,green,d,diamond,color_single,颜色,,,,,,,,,,,0,0,0,0,0,0,0,0,0,1,1,1,,,,,,,,,,,,,,,,,,,,,,,,,,,,,,,,,,,91.05047029990237,91.25156679993961,91.23449469998013,91.53455359989312,91.53455359989312,None,92.03502909990493,None,d,1,0.7498449999839067,92.03502909990493,None,None,None,92.8029384999536,None,,,,,,,,,,,,,,,,,,,,,11027,2,2,2024_Jun_04_1307,stroop_task_switching2_b,2021.2.3,59.646902273460796,
condition/block_color_b,instruction/instr_color,instruction/i8_b,XX,yellow,f,diamond,color_single,颜色,,,,,,,,,,,0,0,0,0,0,0,0,0,0,2,2,2,,,,,,,,,,,,,,,,,,,,,,,,,,,,,,,,,,,93.80455249990337,94.00579689990263,93.98818699992262,94.28846660000272,94.28846660000272,None,94.78909839992411,None,f,1,0.8597511999541894,94.78909839992411,None,None,None,95.67393749998882,None,,,,,,,,,,,,,,,,,,,,,11027,2,2,2024_Jun_04_1307,stroop_task_switching2_b,2021.2.3,59.646902273460796,
condition/block_color_b,instruction/instr_color,instruction/i8_b,XX,blue,j,diamond,color_single,颜色,,,,,,,,,,,0,0,0,0,0,0,0,0,0,3,3,3,,,,,,,,,,,,,,,,,,,,,,,,,,,,,,,,,,,96.67561869998462,96.87579359998927,96.85894929990172,97.15991809999105,97.15991809999105,None,97.6602982999757,None,j,1,0.6046082999091595,97.6602982999757,None,None,None,98.29457629995886,None,,,,,,,,,,,,,,,,,,,,,11027,2,2,2024_Jun_04_1307,stroop_task_switching2_b,2021.2.3,59.646902273460796,
condition/block_color_b,instruction/instr_color,instruction/i8_b,XX,green,d,diamond,color_single,颜色,,,,,,,,,,,0,0,0,0,0,0,0,0,0,4,4,4,,,,,,,,,,,,,,,,,,,,,,,,,,,,,,,,,,,99.29655299999285,99.49735149997286,99.4797623999184,99.78119099989999,99.78119099989999,None,100.2809055999387,None,d,1,0.5601073000580072,100.2809055999387,None,None,None,100.86499099992216,None,,,,,,,,,,,,,,,,,,,,,11027,2,2,2024_Jun_04_1307,stroop_task_switching2_b,2021.2.3,59.646902273460796,
condition/block_color_b,instruction/instr_color,instruction/i8_b,XX,yellow,f,diamond,color_single,颜色,,,,,,,,,,,0,0,0,0,0,0,0,0,0,5,5,5,,,,,,,,,,,,,,,,,,,,,,,,,,,,,,,,,,,101.86674639990088,102.06687889993191,102.05025879992172,102.35251519992016,102.35251519992016,None,102.85123199992813,None,f,1,0.7183326000813395,102.85123199992813,None,None,None,103.58571759995539,None,,,,,,,,,,,,,,,,,,,,,11027,2,2,2024_Jun_04_1307,stroop_task_switching2_b,2021.2.3,59.646902273460796,
condition/block_color_b,instruction/instr_color,instruction/i8_b,XX,blue,j,diamond,color_single,颜色,,,,,,,,,,,0,0,0,0,0,0,0,0,0,6,6,6,,,,,,,,,,,,,,,,,,,,,,,,,,,,,,,,,,,104.58743009995669,104.78764110000338,104.77226269990206,105.0715095999185,105.0715095999185,None,105.57232339994516,None,j,1,0.3646368000190705,105.57232339994516,None,None,None,105.95595420000609,None,,,,,,,,,,,,,,,,,,,,,11027,2,2,2024_Jun_04_1307,stroop_task_switching2_b,2021.2.3,59.646902273460796,
condition/block_color_b,instruction/instr_color,instruction/i8_b,XX,red,k,diamond,color_single,颜色,,,,,,,,,,,0,0,0,0,0,0,0,0,0,7,7,7,,,,,,,,,,,,,,,,,,,,,,,,,,,,,,,,,,,106.9577103999909,107.1582827999955,107.1412016999675,107.44146739994176,107.44146739994176,None,107.94248939992394,None,k,1,0.3065821999916807,107.94248939992394,None,None,None,108.27630589995533,None,,,,,,,,,,,,,,,,,,,,,11027,2,2,2024_Jun_04_1307,stroop_task_switching2_b,2021.2.3,59.646902273460796,
condition/block_color_b,instruction/instr_color,instruction/i8_b,XX,yellow,f,diamond,color_single,颜色,,,,,,,,,,,0,0,0,0,0,0,0,0,0,8,8,8,,,,,,,,,,,,,,,,,,,,,,,,,,,,,,,,,,,109.27802549989428,109.47830659989268,109.46128689998295,109.76262019993737,109.76262019993737,None,110.2628640999319,None,f,1,0.8822417000774294,110.2628640999319,None,None,None,111.16418389999308,None,,,,,,,,,,,,,,,,,,,,,11027,2,2,2024_Jun_04_1307,stroop_task_switching2_b,2021.2.3,59.646902273460796,
condition/block_color_b,instruction/instr_color,instruction/i8_b,XX,blue,j,diamond,color_single,颜色,,,,,,,,,,,0,0,0,0,0,0,0,0,0,9,9,9,,,,,,,,,,,,,,,,,,,,,,,,,,,,,,,,,,,112.16549990000203,112.36562049994245,112.34912609995808,112.64967590000015,112.64967590000015,None,113.15031279996037,None,j,1,0.34683599998243153,113.15031279996037,None,None,None,113.51785689999815,None,,,,,,,,,,,,,,,,,,,,,11027,2,2,2024_Jun_04_1307,stroop_task_switching2_b,2021.2.3,59.646902273460796,
condition/block_color_b,instruction/instr_color,instruction/i8_b,XX,red,k,diamond,color_single,颜色,,,,,,,,,,,0,0,0,0,0,0,0,0,0,10,10,10,,,,,,,,,,,,,,,,,,,,,,,,,,,,,,,,,,,114.51903179998044,114.72002459992655,114.702787599992,115.00309909996577,115.00309909996577,None,115.50389259995427,None,k,1,0.9053412000648677,115.50389259995427,None,None,None,116.43846789991949,None,,,,,,,,,,,,,,,,,,,,,11027,2,2,2024_Jun_04_1307,stroop_task_switching2_b,2021.2.3,59.646902273460796,
condition/block_color_b,instruction/instr_color,instruction/i8_b,XX,green,d,diamond,color_single,颜色,,,,,,,,,,,0,0,0,0,0,0,0,0,0,11,11,11,,,,,,,,,,,,,,,,,,,,,,,,,,,,,,,,,,,117.44011029996909,117.6403954999987,117.6242299999576,117.92485959990881,117.92485959990881,None,118.42475999996532,None,d,1,0.2969637999776751,118.42475999996532,None,None,None,118.74255009996705,None,,,,,,,,,,,,,,,,,,,,,11027,2,2,2024_Jun_04_1307,stroop_task_switching2_b,2021.2.3,59.646902273460796,
condition/block_color_b,instruction/instr_color,instruction/i8_b,XX,blue,j,diamond,color_single,颜色,,,,,,,,,,,0,0,0,0,0,0,0,0,0,12,12,12,,,,,,,,,,,,,,,,,,,,,,,,,,,,,,,,,,,119.74346599995624,119.94577339990065,119.92703749996144,120.22771869995631,120.22771869995631,None,120.72845469997264,None,j,1,1.3372072000056505,120.72845469997264,None,None,None,122.09692719997838,None,,,,,,,,,,,,,,,,,,,,,11027,2,2,2024_Jun_04_1307,stroop_task_switching2_b,2021.2.3,59.646902273460796,
condition/block_color_b,instruction/instr_color,instruction/i8_b,XX,red,k,diamond,color_single,颜色,,,,,,,,,,,0,0,0,0,0,0,0,0,0,13,13,13,,,,,,,,,,,,,,,,,,,,,,,,,,,,,,,,,,,123.09857609996106,123.29940979997627,123.28229299990926,123.58277909993194,123.58277909993194,None,124.08354229992256,None,k,1,0.6543025999562815,124.08354229992256,None,None,None,124.76790199999232,None,,,,,,,,,,,,,,,,,,,,,11027,2,2,2024_Jun_04_1307,stroop_task_switching2_b,2021.2.3,59.646902273460796,
condition/block_color_b,instruction/instr_color,instruction/i8_b,XX,green,d,diamond,color_single,颜色,,,,,,,,,,,0,0,0,0,0,0,0,0,0,14,14,14,,,,,,,,,,,,,,,,,,,,,,,,,,,,,,,,,,,125.76925399992615,125.96947799995542,125.95426949998364,126.25356749992352,126.25356749992352,None,126.754175299895,None,d,1,0.5437160000437871,126.754175299895,None,None,None,127.32162999990396,None,,,,,,,,,,,,,,,,,,,,,11027,2,2,2024_Jun_04_1307,stroop_task_switching2_b,2021.2.3,59.646902273460796,
condition/block_color_b,instruction/instr_color,instruction/i8_b,XX,yellow,f,diamond,color_single,颜色,,,,,,,,,,,0,0,0,0,0,0,0,0,0,15,15,15,,,,,,,,,,,,,,,,,,,,,,,,,,,,,,,,,,,128.32324009994045,128.52325539989397,128.5068740999559,128.8073590999702,128.8073590999702,None,129.30819929996505,None,f,1,0.9895221000770107,129.30819929996505,None,None,None,130.32628849998582,None,,,,,,,,,,,,,,,,,,,,,11027,2,2,2024_Jun_04_1307,stroop_task_switching2_b,2021.2.3,59.646902273460796,
condition/block_color_b,instruction/instr_color,instruction/i8_b,XX,red,k,diamond,color_single,颜色,,,,,,,,,,,0,0,0,0,0,0,0,0,0,16,16,16,,,,,,,,,,,,,,,,,,,,,,,,,,,,,,,,,,,131.32768499990925,131.5292780000018,131.51149329997133,131.81181250000373,131.81181250000373,None,132.3125139999902,None,k,1,0.6654813999775797,132.3125139999902,None,None,None,132.9970056999009,None,,,,,,,,,,,,,,,,,,,,,11027,2,2,2024_Jun_04_1307,stroop_task_switching2_b,2021.2.3,59.646902273460796,
condition/block_color_b,instruction/instr_color,instruction/i8_b,XX,green,d,diamond,color_single,颜色,,,,,,,,,,,0,0,0,0,0,0,0,0,0,17,17,17,,,,,,,,,,,,,,,,,,,,,,,,,,,,,,,,,,,133.99880149995442,134.1987097999081,134.18205879989546,134.48237439990044,134.48237439990044,None,134.98311089992058,None,d,1,0.5390400000615045,134.98311089992058,None,None,None,135.5509757999098,None,,,,,,,,,,,,,,,,,,,,,11027,2,2,2024_Jun_04_1307,stroop_task_switching2_b,2021.2.3,59.646902273460796,
condition/block_color_b,instruction/instr_color,instruction/i8_b,XX,yellow,f,diamond,color_single,颜色,,,,,,,,,,,0,0,0,0,0,0,0,0,0,18,18,18,,,,,,,,,,,,,,,,,,,,,,,,,,,,,,,,,,,136.55227909993846,136.75361659994815,136.7358838999644,137.0362038000021,137.0362038000021,None,137.53707089996897,None,f,1,0.3846923001110554,137.53707089996897,None,None,None,137.93752839998342,None,,,,,,,,,,,,,,,,,,,,,11027,2,2,2024_Jun_04_1307,stroop_task_switching2_b,2021.2.3,59.646902273460796,
condition/block_color_b,instruction/instr_color,instruction/i8_b,XX,blue,j,diamond,color_single,颜色,,,,,,,,,,,0,0,0,0,0,0,0,0,0,19,19,19,,,,,,,,,,,,,,,,,,,,,,,,,,,,,,,,,,,138.93955849995837,139.1395393999992,139.12429559999146,139.42351749993395,139.42351749993395,None,139.9239152999362,None,j,1,0.5500984000973403,139.9239152999362,None,None,None,140.4915501999203,None,,,,,,,,,,,,,,,,,,,,,11027,2,2,2024_Jun_04_1307,stroop_task_switching2_b,2021.2.3,59.646902273460796,
condition/block_color_b,instruction/instr_color,instruction/i8_b,XX,green,d,diamond,color_single,颜色,,,,,,,,,,,0,0,0,0,0,0,0,0,0,20,20,20,,,,,,,,,,,,,,,,,,,,,,,,,,,,,,,,,,,141.49301949993242,141.69369300000835,141.67757129995152,141.97703099995852,141.97703099995852,None,142.47783259989228,None,d,1,0.5482438000617549,142.47783259989228,None,None,None,143.04528759990353,None,,,,,,,,,,,,,,,,,,,,,11027,2,2,2024_Jun_04_1307,stroop_task_switching2_b,2021.2.3,59.646902273460796,
condition/block_color_b,instruction/instr_color,instruction/i8_b,XX,yellow,f,diamond,color_single,颜色,,,,,,,,,,,0,0,0,0,0,0,0,0,0,21,21,21,,,,,,,,,,,,,,,,,,,,,,,,,,,,,,,,,,,144.046839299961,144.2473751999205,144.23048799997196,144.5309878999833,144.5309878999833,None,145.03226099989843,None,f,1,0.6898307999363169,145.03226099989843,None,None,None,145.74944159993902,None,,,,,,,,,,,,,,,,,,,,,11027,2,2,2024_Jun_04_1307,stroop_task_switching2_b,2021.2.3,59.646902273460796,
condition/block_color_b,instruction/instr_color,instruction/i8_b,XX,blue,j,diamond,color_single,颜色,,,,,,,,,,,0,0,0,0,0,0,0,0,0,22,22,22,,,,,,,,,,,,,,,,,,,,,,,,,,,,,,,,,,,146.7511817999184,146.9517671999056,146.93453480000608,147.23579059995245,147.23579059995245,None,147.73607409989927,None,j,1,0.34657139994669706,147.73607409989927,None,None,None,148.10302189993672,None,,,,,,,,,,,,,,,,,,,,,11027,2,2,2024_Jun_04_1307,stroop_task_switching2_b,2021.2.3,59.646902273460796,
condition/block_color_b,instruction/instr_color,instruction/i8_b,XX,red,k,diamond,color_single,颜色,,,,,,,,,,,0,0,0,0,0,0,0,0,0,23,23,23,,,,,,,,,,,,,,,,,,,,,,,,,,,,,,,,,,,149.1048430999508,149.30574529990554,149.2879985999316,149.58864979993086,149.58864979993086,None,150.08963399997447,None,k,1,0.35252020007465035,150.08963399997447,None,None,None,150.47333449998405,None,,,,,,,,,,,,,,,,,,,,,11027,2,2,2024_Jun_04_1307,stroop_task_switching2_b,2021.2.3,59.646902273460796,
condition/block_color_b,instruction/instr_color,instruction/i8_b,,,,,,,,,,,,,,,,,0,0,0,0,0,0,0,0,,,,,,,,,,,,,,,,,,,,,,,,,,,,,,,,,,,,,,,,,,,,,,,,,,,,,,,,151.49152859998867,None,space,2.1629225000506267,151.49152859998867,None,,,,,,,,,,,,,,,11027,2,2,2024_Jun_04_1307,stroop_task_switching2_b,2021.2.3,59.646902273460796,
condition/block_color_b,instruction/instr_color,instruction/i8_b,,,,,,,,,,,,,,,,,0,0,0,0,,,,,,,,,,,,,,,,,,,,,,,,,,,,,,,,,,,,,,,,,,,,,,,,,,,,,,,,,,,,,,,,,,,,,,,,,,,,,,,,11027,2,2,2024_Jun_04_1307,stroop_task_switching2_b,2021.2.3,59.646902273460796,
condition/block_word_b,instruction/instr_word,instruction/i9_b,黄,white,f,square,word_single,单词,0.0032461461866890584,,,,,,,,,,0,1,1,1,0,0,0,0,0,0,0,0,,,,,,,,,,,,,,,,,,,,,153.69472989998758,None,space,5.560090699931607,153.69472989998758,None,160.2712633999763,161.27291239995975,161.27291239995975,162.27455779991578,162.27455779991578,None,159.28680529992562,160.28830459993333,163.29231479996815,163.4946983999107,163.4946983999107,163.79320869990624,163.79320869990624,None,164.27743449993432,None,f,1,0.7412929000565782,164.27743449993432,None,None,None,165.0451008999953,None,,,,,,,,,,,,,,,,,,,,,11027,2,2,2024_Jun_04_1307,stroop_task_switching2_b,2021.2.3,59.646902273460796,
condition/block_word_b,instruction/instr_word,instruction/i9_b,蓝,white,j,square,word_single,单词,0.060540570646362424,,,,,,,,,,0,1,1,1,0,0,0,0,0,1,1,1,,,,,,,,,,,,,,,,,,,,,,,,,,,,,,,,,,,166.04668539995328,166.24702399992384,166.23191979993135,166.53130809997674,166.53130809997674,None,167.0313353999518,None,j,1,0.45946520008146763,167.0313353999518,None,None,None,167.51554679998662,None,,,,,,,,,,,,,,,,,,,,,11027,2,2,2024_Jun_04_1307,stroop_task_switching2_b,2021.2.3,59.646902273460796,
condition/block_word_b,instruction/instr_word,instruction/i9_b,黄,white,f,square,word_single,单词,0.06994067193778963,,,,,,,,,,0,1,1,1,0,0,0,0,0,2,2,2,,,,,,,,,,,,,,,,,,,,,,,,,,,,,,,,,,,168.5169990999857,168.71771409991197,168.70051719993353,169.00191549991723,169.00191549991723,None,169.5018829999026,None,f,1,0.7167049000272527,169.5018829999026,None,None,None,170.23633029998746,None,,,,,,,,,,,,,,,,,,,,,11027,2,2,2024_Jun_04_1307,stroop_task_switching2_b,2021.2.3,59.646902273460796,
condition/block_word_b,instruction/instr_word,instruction/i9_b,蓝,white,j,square,word_single,单词,0.08193765152950094,,,,,,,,,,0,1,1,1,0,0,0,0,0,3,3,3,,,,,,,,,,,,,,,,,,,,,,,,,,,,,,,,,,,171.2378648999147,171.43930879991967,171.42154089990072,171.72340389993042,171.72340389993042,None,172.22290819999762,None,j,1,0.6198591999709606,172.22290819999762,None,None,None,172.8737583999755,None,,,,,,,,,,,,,,,,,,,,,11027,2,2,2024_Jun_04_1307,stroop_task_switching2_b,2021.2.3,59.646902273460796,
condition/block_word_b,instruction/instr_word,instruction/i9_b,红,white,k,square,word_single,单词,0.1279694370605574,,,,,,,,,,0,1,1,1,0,0,0,0,0,4,4,4,,,,,,,,,,,,,,,,,,,,,,,,,,,,,,,,,,,173.8752948999172,174.07562549994327,174.06024989997968,174.35949469998013,174.35949469998013,None,174.85997509991284,None,k,1,0.646982999984175,174.85997509991284,None,None,None,175.52768219995778,None,,,,,,,,,,,,,,,,,,,,,11027,2,2,2024_Jun_04_1307,stroop_task_switching2_b,2021.2.3,59.646902273460796,
condition/block_word_b,instruction/instr_word,instruction/i9_b,红,white,k,square,word_single,单词,0.18345028784879092,,,,,,,,,,0,1,1,1,0,0,0,0,0,5,5,5,,,,,,,,,,,,,,,,,,,,,,,,,,,,,,,,,,,176.52996349998284,176.7304210999282,176.71453449991532,177.0310967999976,177.01333099999465,None,177.5139170999173,None,k,1,0.5372661999426782,177.5139170999173,None,None,None,178.08147929992992,None,,,,,,,,,,,,,,,,,,,,,11027,2,2,2024_Jun_04_1307,stroop_task_switching2_b,2021.2.3,59.646902273460796,
condition/block_word_b,instruction/instr_word,instruction/i9_b,蓝,white,j,square,word_single,单词,0.19920386223101294,,,,,,,,,,0,1,1,1,0,0,0,0,0,6,6,6,,,,,,,,,,,,,,,,,,,,,,,,,,,,,,,,,,,179.0830570999533,179.28402809996624,179.266761799925,179.5673818999203,179.5673818999203,None,180.0677549999673,None,j,1,0.6634446000680327,180.0677549999673,None,None,None,180.75289040000644,None,,,,,,,,,,,,,,,,,,,,,11027,2,2,2024_Jun_04_1307,stroop_task_switching2_b,2021.2.3,59.646902273460796,
condition/block_word_b,instruction/instr_word,instruction/i9_b,蓝,white,j,square,word_single,单词,0.26360599864925405,,,,,,,,,,0,1,1,1,0,0,0,0,0,7,7,7,,,,,,,,,,,,,,,,,,,,,,,,,,,,,,,,,,,181.75392079993617,181.95399909990374,181.93733589991461,182.23807929991744,182.23807929991744,None,182.73855879995972,None,j,1,0.48856440000236034,182.73855879995972,None,None,None,183.25626339996234,None,,,,,,,,,,,,,,,,,,,,,11027,2,2,2024_Jun_04_1307,stroop_task_switching2_b,2021.2.3,59.646902273460796,
condition/block_word_b,instruction/instr_word,instruction/i9_b,蓝,white,j,square,word_single,单词,0.358985675745526,,,,,,,,,,0,1,1,1,0,0,0,0,0,8,8,8,,,,,,,,,,,,,,,,,,,,,,,,,,,,,,,,,,,184.25754789996427,184.45869539992418,184.44121749990154,184.74180909991264,184.74180909991264,None,185.24233329994604,None,j,1,0.39317419996950775,185.24233329994604,None,None,None,185.65966969996225,None,,,,,,,,,,,,,,,,,,,,,11027,2,2,2024_Jun_04_1307,stroop_task_switching2_b,2021.2.3,59.646902273460796,
condition/block_word_b,instruction/instr_word,instruction/i9_b,绿,white,d,square,word_single,单词,0.36496733802487347,,,,,,,,,,0,1,1,1,0,0,0,0,0,9,9,9,,,,,,,,,,,,,,,,,,,,,,,,,,,,,,,,,,,186.66103630000725,186.86228289990686,186.84480580000672,187.1452755999053,187.1452755999053,None,187.64581719995476,None,d,1,0.5652931000804529,187.64581719995476,None,None,None,188.2301398999989,None,,,,,,,,,,,,,,,,,,,,,11027,2,2,2024_Jun_04_1307,stroop_task_switching2_b,2021.2.3,59.646902273460796,
condition/block_word_b,instruction/instr_word,instruction/i9_b,黄,white,f,square,word_single,单词,0.3743513623756727,,,,,,,,,,0,1,1,1,0,0,0,0,0,10,10,10,,,,,,,,,,,,,,,,,,,,,,,,,,,,,,,,,,,189.23159069998655,189.43361740000546,189.4156807999825,189.7172048999928,189.7172048999928,None,190.21671299997251,None,f,1,0.36306880007032305,190.21671299997251,None,None,None,190.6003311999375,None,,,,,,,,,,,,,,,,,,,,,11027,2,2,2024_Jun_04_1307,stroop_task_switching2_b,2021.2.3,59.646902273460796,
condition/block_word_b,instruction/instr_word,instruction/i9_b,红,white,k,square,word_single,单词,0.3894803852598544,,,,,,,,,,0,1,1,1,0,0,0,0,0,11,11,11,,,,,,,,,,,,,,,,,,,,,,,,,,,,,,,,,,,191.6017249999568,191.80376569996588,191.78632299997844,192.0863420999376,192.0863420999376,None,192.58676789992023,None,k,1,0.3204832999035716,192.58676789992023,None,None,None,192.9371633999981,None,,,,,,,,,,,,,,,,,,,,,11027,2,2,2024_Jun_04_1307,stroop_task_switching2_b,2021.2.3,59.646902273460796,
condition/block_word_b,instruction/instr_word,instruction/i9_b,绿,white,d,square,word_single,单词,0.5393759672408067,,,,,,,,,,0,1,1,1,0,0,0,0,0,12,12,12,,,,,,,,,,,,,,,,,,,,,,,,,,,,,,,,,,,193.9393275999464,194.139581299969,194.1238236000063,194.4232503999956,194.4232503999956,None,194.9235527999699,None,d,1,0.35998429998289794,194.9235527999699,None,None,None,195.30741409992334,None,,,,,,,,,,,,,,,,,,,,,11027,2,2,2024_Jun_04_1307,stroop_task_switching2_b,2021.2.3,59.646902273460796,
condition/block_word_b,instruction/instr_word,instruction/i9_b,蓝,white,j,square,word_single,单词,0.5995731954831104,,,,,,,,,,0,1,1,1,0,0,0,0,0,13,13,13,,,,,,,,,,,,,,,,,,,,,,,,,,,,,,,,,,,196.30918099998962,196.5098695999477,196.49281109997537,196.79341319995,196.79341319995,None,197.29523269995116,None,j,1,0.3801431000465527,197.29523269995116,None,None,None,197.69473689992446,None,,,,,,,,,,,,,,,,,,,,,11027,2,2,2024_Jun_04_1307,stroop_task_switching2_b,2021.2.3,59.646902273460796,
condition/block_word_b,instruction/instr_word,instruction/i9_b,红,white,k,square,word_single,单词,0.6298674479151414,,,,,,,,,,0,1,1,1,0,0,0,0,0,14,14,14,,,,,,,,,,,,,,,,,,,,,,,,,,,,,,,,,,,198.69587189995218,198.89771529997233,198.87948179990053,199.18095660000108,199.18095660000108,None,199.68053839995991,None,k,1,0.2909621000289917,199.68053839995991,None,None,None,199.99801109998953,None,,,,,,,,,,,,,,,,,,,,,11027,2,2,2024_Jun_04_1307,stroop_task_switching2_b,2021.2.3,59.646902273460796,
condition/block_word_b,instruction/instr_word,instruction/i9_b,红,white,k,square,word_single,单词,0.7389942282348904,,,,,,,,,,0,1,1,1,0,0,0,0,0,15,15,15,,,,,,,,,,,,,,,,,,,,,,,,,,,,,,,,,,,200.99926859990228,201.20122069993522,201.1842402999755,201.48480459989514,201.48480459989514,None,201.98435369995423,None,f,0,0.37126710009761155,201.98435369995423,None,None,None,202.38479629997164,None,,,,,,,,,,,,,,,,,,,,,11027,2,2,2024_Jun_04_1307,stroop_task_switching2_b,2021.2.3,59.646902273460796,
condition/block_word_b,instruction/instr_word,instruction/i9_b,绿,white,d,square,word_single,单词,0.7550853947239682,,,,,,,,,,0,1,1,1,0,0,0,0,0,16,16,16,,,,,,,,,,,,,,,,,,,,,,,,,,,,,,,,,,,203.38640169997234,203.587853099918,203.56988769990858,203.8728087999625,203.8728087999625,None,204.38797399995383,None,d,1,0.48760370002128184,204.38797399995383,None,None,None,204.90537819999736,None,,,,,,,,,,,,,,,,,,,,,11027,2,2,2024_Jun_04_1307,stroop_task_switching2_b,2021.2.3,59.646902273460796,
condition/block_word_b,instruction/instr_word,instruction/i9_b,绿,white,d,square,word_single,单词,0.8019302780428206,,,,,,,,,,0,1,1,1,0,0,0,0,0,17,17,17,,,,,,,,,,,,,,,,,,,,,,,,,,,,,,,,,,,205.9068416999653,206.10746929992456,206.09049819991924,206.3944957999047,206.3944957999047,None,206.90830339991953,None,d,1,0.5992908999323845,206.90830339991953,None,None,None,207.52594439999666,None,,,,,,,,,,,,,,,,,,,,,11027,2,2,2024_Jun_04_1307,stroop_task_switching2_b,2021.2.3,59.646902273460796,
condition/block_word_b,instruction/instr_word,instruction/i9_b,绿,white,d,square,word_single,单词,0.8110702914095343,,,,,,,,,,0,1,1,1,0,0,0,0,0,18,18,18,,,,,,,,,,,,,,,,,,,,,,,,,,,,,,,,,,,208.5273289999459,208.72801609989256,208.71100869996008,209.01147899997886,209.01147899997886,None,209.51279899990186,None,d,1,0.5632812000112608,209.51279899990186,None,None,None,210.0964871000033,None,,,,,,,,,,,,,,,,,,,,,11027,2,2,2024_Jun_04_1307,stroop_task_switching2_b,2021.2.3,59.646902273460796,
condition/block_word_b,instruction/instr_word,instruction/i9_b,黄,white,f,square,word_single,单词,0.8176594937590999,,,,,,,,,,0,1,1,1,0,0,0,0,0,19,19,19,,,,,,,,,,,,,,,,,,,,,,,,,,,,,,,,,,,211.09793759998865,211.2981517999433,211.28162289992906,211.58231569989584,211.58231569989584,None,212.08275159995537,None,f,1,0.7455511000007391,212.08275159995537,None,None,None,212.85072699992452,None,,,,,,,,,,,,,,,,,,,,,11027,2,2,2024_Jun_04_1307,stroop_task_switching2_b,2021.2.3,59.646902273460796,
condition/block_word_b,instruction/instr_word,instruction/i9_b,红,white,k,square,word_single,单词,0.8955794421104841,,,,,,,,,,0,1,1,1,0,0,0,0,0,20,20,20,,,,,,,,,,,,,,,,,,,,,,,,,,,,,,,,,,,213.85228809993714,214.0523852999322,214.0374738998944,214.3362675999524,214.3362675999524,None,214.83703789999709,None,k,1,0.8150739999255165,214.83703789999709,None,None,None,215.6714053999167,None,,,,,,,,,,,,,,,,,,,,,11027,2,2,2024_Jun_04_1307,stroop_task_switching2_b,2021.2.3,59.646902273460796,
condition/block_word_b,instruction/instr_word,instruction/i9_b,绿,white,d,square,word_single,单词,0.9113598052474129,,,,,,,,,,0,1,1,1,0,0,0,0,0,21,21,21,,,,,,,,,,,,,,,,,,,,,,,,,,,,,,,,,,,216.6731138000032,216.87419889995363,216.85704939998686,217.15734529995825,217.15734529995825,None,217.6579412999563,None,d,1,0.5221437000436708,217.6579412999563,None,None,None,218.20844019996002,None,,,,,,,,,,,,,,,,,,,,,11027,2,2,2024_Jun_04_1307,stroop_task_switching2_b,2021.2.3,59.646902273460796,
condition/block_word_b,instruction/instr_word,instruction/i9_b,黄,white,f,square,word_single,单词,0.9215930958042953,,,,,,,,,,0,1,1,1,0,0,0,0,0,22,22,22,,,,,,,,,,,,,,,,,,,,,,,,,,,,,,,,,,,219.21025689993985,219.41048989992123,219.39377999992575,219.69413409999106,219.69413409999106,None,220.19514099997468,None,f,1,0.5528245999012142,220.19514099997468,None,None,None,220.7793881999096,None,,,,,,,,,,,,,,,,,,,,,11027,2,2,2024_Jun_04_1307,stroop_task_switching2_b,2021.2.3,59.646902273460796,
condition/block_word_b,instruction/instr_word,instruction/i9_b,黄,white,f,square,word_single,单词,0.9493525498837774,,,,,,,,,,0,1,1,1,0,0,0,0,0,23,23,23,,,,,,,,,,,,,,,,,,,,,,,,,,,,,,,,,,,221.78066930000205,221.98252439999487,221.96456289989874,222.26480909995735,222.26480909995735,None,222.76573449990246,None,f,1,0.6229526000097394,222.76573449990246,None,None,None,223.41686949995346,None,,,,,,,,,,,,,,,,,,,,,11027,2,2,2024_Jun_04_1307,stroop_task_switching2_b,2021.2.3,59.646902273460796,
condition/block_word_b,instruction/instr_word,instruction/i9_b,,,,,,,,,,,,,,,,,0,1,1,1,0,0,0,0,,,,,,,,,,,,,,,,,,,,,,,,,,,,,,,,,,,,,,,,,,,,,,,,,,,,,,,,224.4177857999457,None,space,2.5957980999955907,224.4177857999457,None,,,,,,,,,,,,,,,11027,2,2,2024_Jun_04_1307,stroop_task_switching2_b,2021.2.3,59.646902273460796,
condition/block_word_b,instruction/instr_word,instruction/i9_b,,,,,,,,,,,,,,,,,0,1,1,1,,,,,,,,,,,,,,,,,,,,,,,,,,,,,,,,,,,,,,,,,,,,,,,,,,,,,,,,,,,,,,,,,,,,,,,,,,,,,,,,11027,2,2,2024_Jun_04_1307,stroop_task_switching2_b,2021.2.3,59.646902273460796,
condition/block_mixed_b,instruction/instr_mixed,instruction/i10_b,蓝,red,k,diamond,color_mix,颜色,,incompatible,0,,,,,,,,0,2,2,2,0,0,0,0,0,0,0,0,,,,,,,,,,,,,,,,,,,,,227.05521899997257,None,space,18.373671100009233,227.05521899997257,None,246.45368389994837,247.47106499993242,247.453157599899,248.4553573000012,248.4553573000012,None,245.46668489999138,246.4679434999125,249.48960199998692,249.69089669990353,249.6728712999029,249.9741694999393,249.9741694999393,None,250.45820009999443,None,j,0,2.7546664000255987,250.45820009999443,None,None,None,253.24612849997357,None,,,,,,,,,,,,,,,,,,,,,11027,2,2,2024_Jun_04_1307,stroop_task_switching2_b,2021.2.3,59.646902273460796,
condition/block_mixed_b,instruction/instr_mixed,instruction/i10_b,绿,yellow,f,diamond,color_mix,颜色,,incompatible,1,,,,,,,,0,2,2,2,0,0,0,0,0,1,1,1,,,,,,,,,,,,,,,,,,,,,,,,,,,,,,,,,,,254.24650059989654,254.44725389999803,254.43022340000607,254.73195309995208,254.73195309995208,None,255.2312435999047,None,d,0,2.4700306999729946,255.2312435999047,None,None,None,257.71825389994774,None,,,,,,,,,,,,,,,,,,,,,11027,2,2,2024_Jun_04_1307,stroop_task_switching2_b,2021.2.3,59.646902273460796,
condition/block_mixed_b,instruction/instr_mixed,instruction/i10_b,红,green,d,diamond,color_mix,颜色,,incompatible,1,,,,,,,,0,2,2,2,0,0,0,0,0,2,2,2,,,,,,,,,,,,,,,,,,,,,,,,,,,,,,,,,,,258.71992760000285,258.9209494999377,258.90345979994163,259.2056185998954,259.2056185998954,None,259.72126159991603,None,d,1,1.3159845999907702,259.72126159991603,None,None,None,261.05665859999135,None,,,,,,,,,,,,,,,,,,,,,11027,2,2,2024_Jun_04_1307,stroop_task_switching2_b,2021.2.3,59.646902273460796,
condition/block_mixed_b,instruction/instr_mixed,instruction/i10_b,蓝,red,k,diamond,color_mix,颜色,,incompatible,1,,,,,,,,0,2,2,2,0,0,0,0,0,3,3,3,,,,,,,,,,,,,,,,,,,,,,,,,,,,,,,,,,,262.05859829997644,262.25835909997113,262.24180369998794,262.54224829992745,262.54224829992745,None,263.04293239989784,None,k,1,0.9624825000064448,263.04293239989784,None,None,None,264.0278344999533,None,,,,,,,,,,,,,,,,,,,,,11027,2,2,2024_Jun_04_1307,stroop_task_switching2_b,2021.2.3,59.646902273460796,
condition/block_mixed_b,instruction/instr_mixed,instruction/i10_b,红,blue,j,diamond,color_mix,颜色,,incompatible,1,,,,,,,,0,2,2,2,0,0,0,0,0,4,4,4,,,,,,,,,,,,,,,,,,,,,,,,,,,,,,,,,,,265.02954669995233,265.2297436998924,265.2144552998943,265.5140567999333,265.5140567999333,None,266.01409059995785,None,j,1,1.0795676000416279,266.01409059995785,None,None,None,267.11586449993774,None,,,,,,,,,,,,,,,,,,,,,11027,2,2,2024_Jun_04_1307,stroop_task_switching2_b,2021.2.3,59.646902273460796,
condition/block_mixed_b,instruction/instr_mixed,instruction/i10_b,红,blue,k,square,color_mix,单词,,incompatible,2,,,,,,,,0,2,2,2,0,0,0,0,0,5,5,5,,,,,,,,,,,,,,,,,,,,,,,,,,,,,,,,,,,268.1170872999355,268.31776799994987,268.30109470000025,268.60379669989925,268.60379669989925,None,269.10197319998406,None,j,0,0.6312800999730825,269.10197319998406,None,None,None,269.75325199996587,None,,,,,,,,,,,,,,,,,,,,,11027,2,2,2024_Jun_04_1307,stroop_task_switching2_b,2021.2.3,59.646902273460796,
condition/block_mixed_b,instruction/instr_mixed,instruction/i10_b,红,yellow,f,diamond,color_mix,颜色,,incompatible,2,,,,,,,,0,2,2,2,0,0,0,0,0,6,6,6,,,,,,,,,,,,,,,,,,,,,,,,,,,,,,,,,,,270.75458809989505,270.95546450000256,270.93816559994593,271.2386658999603,271.2386658999603,None,271.7395072999643,None,f,1,2.1781854999717325,271.7395072999643,None,None,None,273.94286039995495,None,,,,,,,,,,,,,,,,,,,,,11027,2,2,2024_Jun_04_1307,stroop_task_switching2_b,2021.2.3,59.646902273460796,
condition/block_mixed_b,instruction/instr_mixed,instruction/i10_b,红,yellow,k,square,color_mix,单词,,incompatible,2,,,,,,,,0,2,2,2,0,0,0,0,0,7,7,7,,,,,,,,,,,,,,,,,,,,,,,,,,,,,,,,,,,274.94441349990666,275.1447238998953,275.12902219989337,275.4283779999241,275.4283779999241,None,275.92907259997446,None,k,1,1.252429399988614,275.92907259997446,None,None,None,277.1976003999589,None,,,,,,,,,,,,,,,,,,,,,11027,2,2,2024_Jun_04_1307,stroop_task_switching2_b,2021.2.3,59.646902273460796,
condition/block_mixed_b,instruction/instr_mixed,instruction/i10_b,绿,blue,d,square,color_mix,单词,,incompatible,1,,,,,,,,0,2,2,2,0,0,0,0,0,8,8,8,,,,,,,,,,,,,,,,,,,,,,,,,,,,,,,,,,,278.19909729994833,278.3994206999196,278.38413369993214,278.6845779999858,278.6845779999858,None,279.18407610000577,282.1885822999757,None,0,,279.18407610000577,282.1885822999757,282.15535599994473,None,282.80603969993535,None,,,,,,,,,,,,,,,,,,,,,11027,2,2,2024_Jun_04_1307,stroop_task_switching2_b,2021.2.3,59.646902273460796,
condition/block_mixed_b,instruction/instr_mixed,instruction/i10_b,蓝,green,d,diamond,color_mix,颜色,,incompatible,2,,,,,,,,0,2,2,2,0,0,0,0,0,9,9,9,,,,,,,,,,,,,,,,,,,,,,,,,,,,,,,,,,,283.8076796999667,284.0082455999218,283.99128179997206,284.2924007999245,284.2924007999245,None,284.79250909993425,None,d,1,1.9418142000213265,284.79250909993425,None,None,None,286.7621833999874,None,,,,,,,,,,,,,,,,,,,,,11027,2,2,2024_Jun_04_1307,stroop_task_switching2_b,2021.2.3,59.646902273460796,
condition/block_mixed_b,instruction/instr_mixed,instruction/i10_b,蓝,yellow,j,square,color_mix,单词,,incompatible,2,,,,,,,,0,2,2,2,0,0,0,0,0,10,10,10,,,,,,,,,,,,,,,,,,,,,,,,,,,,,,,,,,,287.76342079997994,287.964742799988,287.9469954998931,288.2486538999947,288.2486538999947,None,288.7484648999525,None,f,0,1.586125100031495,288.7484648999525,None,None,None,290.35081049997825,None,,,,,,,,,,,,,,,,,,,,,11027,2,2,2024_Jun_04_1307,stroop_task_switching2_b,2021.2.3,59.646902273460796,
condition/block_mixed_b,instruction/instr_mixed,instruction/i10_b,蓝,green,j,square,color_mix,单词,,incompatible,1,,,,,,,,0,2,2,2,0,0,0,0,0,11,11,11,,,,,,,,,,,,,,,,,,,,,,,,,,,,,,,,,,,291.35235619999,291.55298519995995,291.5364775999915,291.83628920000046,291.83628920000046,None,292.33720569999423,None,j,1,1.8610272998921573,292.33720569999423,None,None,None,294.2231774999527,None,,,,,,,,,,,,,,,,,,,,,11027,2,2,2024_Jun_04_1307,stroop_task_switching2_b,2021.2.3,59.646902273460796,
condition/block_mixed_b,instruction/instr_mixed,instruction/i10_b,绿,yellow,d,square,color_mix,单词,,incompatible,1,,,,,,,,0,2,2,2,0,0,0,0,0,12,12,12,,,,,,,,,,,,,,,,,,,,,,,,,,,,,,,,,,,295.2249689999735,295.4251312999986,295.4092208999209,295.7101405999856,295.7101405999856,None,296.209595699911,None,f,0,1.6287621000083163,296.209595699911,None,None,None,297.8621389999753,None,,,,,,,,,,,,,,,,,,,,,11027,2,2,2024_Jun_04_1307,stroop_task_switching2_b,2021.2.3,59.646902273460796,
condition/block_mixed_b,instruction/instr_mixed,instruction/i10_b,绿,blue,j,diamond,color_mix,颜色,,incompatible,2,,,,,,,,0,2,2,2,0,0,0,0,0,13,13,13,,,,,,,,,,,,,,,,,,,,,,,,,,,,,,,,,,,298.8636734999018,299.0639076998923,299.04921299999114,299.34771529992577,299.34771529992577,None,299.84829199989326,None,j,1,1.0782176000066102,299.84829199989326,None,None,None,300.9505959999515,None,,,,,,,,,,,,,,,,,,,,,11027,2,2,2024_Jun_04_1307,stroop_task_switching2_b,2021.2.3,59.646902273460796,
condition/block_mixed_b,instruction/instr_mixed,instruction/i10_b,黄,red,f,square,color_mix,单词,,incompatible,2,,,,,,,,0,2,2,2,0,0,0,0,0,14,14,14,,,,,,,,,,,,,,,,,,,,,,,,,,,,,,,,,,,301.95160659996327,302.1519460999407,302.13641459995415,302.4368774999166,302.4368774999166,None,302.9366512999404,None,k,0,1.8858573000179604,302.9366512999404,None,None,None,304.8391415999504,None,,,,,,,,,,,,,,,,,,,,,11027,2,2,2024_Jun_04_1307,stroop_task_switching2_b,2021.2.3,59.646902273460796,
condition/block_mixed_b,instruction/instr_mixed,instruction/i10_b,蓝,yellow,f,diamond,color_mix,颜色,,incompatible,2,,,,,,,,0,2,2,2,0,0,0,0,0,15,15,15,,,,,,,,,,,,,,,,,,,,,,,,,,,,,,,,,,,305.8412780999206,306.04225739999674,306.0246158998925,306.32622689998243,306.32622689998243,None,306.82589029998053,None,f,1,0.9011979999486357,306.82589029998053,None,None,None,307.74360439996235,None,,,,,,,,,,,,,,,,,,,,,11027,2,2,2024_Jun_04_1307,stroop_task_switching2_b,2021.2.3,59.646902273460796,
condition/block_mixed_b,instruction/instr_mixed,instruction/i10_b,黄,red,k,diamond,color_mix,颜色,,incompatible,1,,,,,,,,0,2,2,2,0,0,0,0,0,16,16,16,,,,,,,,,,,,,,,,,,,,,,,,,,,,,,,,,,,308.7454367999453,308.9455114000011,308.92885559995193,309.22954239998944,309.22954239998944,None,309.73014699993655,None,k,1,0.8126128000440076,309.73014699993655,None,None,None,310.56473499990534,None,,,,,,,,,,,,,,,,,,,,,11027,2,2,2024_Jun_04_1307,stroop_task_switching2_b,2021.2.3,59.646902273460796,
condition/block_mixed_b,instruction/instr_mixed,instruction/i10_b,绿,red,d,square,color_mix,单词,,incompatible,2,,,,,,,,0,2,2,2,0,0,0,0,0,17,17,17,,,,,,,,,,,,,,,,,,,,,,,,,,,,,,,,,,,311.5660988999298,311.76624479994643,311.7507709999336,312.0510874999454,312.0510874999454,None,312.5508189999964,None,d,1,1.3039504999760538,312.5508189999964,None,None,None,313.8862674999982,None,,,,,,,,,,,,,,,,,,,,,11027,2,2,2024_Jun_04_1307,stroop_task_switching2_b,2021.2.3,59.646902273460796,
condition/block_mixed_b,instruction/instr_mixed,instruction/i10_b,红,green,k,square,color_mix,单词,,incompatible,1,,,,,,,,0,2,2,2,0,0,0,0,0,18,18,18,,,,,,,,,,,,,,,,,,,,,,,,,,,,,,,,,,,314.8878029999323,315.088913399959,315.07131389994174,315.3732685999712,315.3732685999712,None,315.87284129997715,None,k,1,1.0300846999743953,315.87284129997715,None,None,None,316.92444009997416,None,,,,,,,,,,,,,,,,,,,,,11027,2,2,2024_Jun_04_1307,stroop_task_switching2_b,2021.2.3,59.646902273460796,
condition/block_mixed_b,instruction/instr_mixed,instruction/i10_b,黄,blue,j,diamond,color_mix,颜色,,incompatible,2,,,,,,,,0,2,2,2,0,0,0,0,0,19,19,19,,,,,,,,,,,,,,,,,,,,,,,,,,,,,,,,,,,317.9257780999178,318.12745279993396,318.1093250999693,318.41023939999286,318.41023939999286,None,318.9105802999111,None,j,1,1.5123921000631526,318.9105802999111,None,None,None,320.4462665999308,None,,,,,,,,,,,,,,,,,,,,,11027,2,2,2024_Jun_04_1307,stroop_task_switching2_b,2021.2.3,59.646902273460796,
condition/block_mixed_b,instruction/instr_mixed,instruction/i10_b,黄,green,d,diamond,color_mix,颜色,,incompatible,1,,,,,,,,0,2,2,2,0,0,0,0,0,20,20,20,,,,,,,,,,,,,,,,,,,,,,,,,,,,,,,,,,,321.44784839998465,321.64818669995293,321.63138469995465,321.9317680998938,321.9317680998938,None,322.432390699978,None,d,1,1.1984653000254184,322.432390699978,None,None,None,323.6510746999411,None,,,,,,,,,,,,,,,,,,,,,11027,2,2,2024_Jun_04_1307,stroop_task_switching2_b,2021.2.3,59.646902273460796,
condition/block_mixed_b,instruction/instr_mixed,instruction/i10_b,黄,green,f,square,color_mix,单词,,incompatible,2,,,,,,,,0,2,2,2,0,0,0,0,0,21,21,21,,,,,,,,,,,,,,,,,,,,,,,,,,,,,,,,,,,324.65260569995735,324.85491229989566,324.8361865999177,325.1380108000012,325.1380108000012,None,325.6374236999545,None,f,1,0.9696476999670267,325.6374236999545,None,None,None,326.622327299905,None,,,,,,,,,,,,,,,,,,,,,11027,2,2,2024_Jun_04_1307,stroop_task_switching2_b,2021.2.3,59.646902273460796,
condition/block_mixed_b,instruction/instr_mixed,instruction/i10_b,黄,blue,f,square,color_mix,单词,,incompatible,1,,,,,,,,0,2,2,2,0,0,0,0,0,22,22,22,,,,,,,,,,,,,,,,,,,,,,,,,,,,,,,,,,,327.62384539993946,327.8251852999674,327.8074604999274,328.1084437998943,328.1084437998943,None,328.6085555999307,None,f,1,1.3026198000879958,328.6085555999307,None,None,None,329.9269480999792,None,,,,,,,,,,,,,,,,,,,,,11027,2,2,2024_Jun_04_1307,stroop_task_switching2_b,2021.2.3,59.646902273460796,
condition/block_mixed_b,instruction/instr_mixed,instruction/i10_b,蓝,red,j,square,color_mix,单词,,incompatible,1,,,,,,,,0,2,2,2,0,0,0,0,0,23,23,23,,,,,,,,,,,,,,,,,,,,,,,,,,,,,,,,,,,330.9286817999091,331.13032110000495,331.1123086999869,331.413943399908,331.413943399908,None,331.91336379991844,None,j,1,1.6620174000272527,331.91336379991844,None,None,None,333.59931329998653,None,,,,,,,,,,,,,,,,,,,,,11027,2,2,2024_Jun_04_1307,stroop_task_switching2_b,2021.2.3,59.646902273460796,
condition/block_mixed_b,instruction/instr_mixed,instruction/i10_b,绿,red,k,diamond,color_mix,颜色,,incompatible,2,,,,,,,,0,2,2,2,0,0,0,0,0,24,24,24,,,,,,,,,,,,,,,,,,,,,,,,,,,,,,,,,,,334.60082549997605,334.80136219994165,334.7867444999283,335.1021336999256,335.08483029995114,None,335.5857541000005,None,k,1,1.4694806999759749,335.5857541000005,None,None,None,337.0710384999402,None,,,,,,,,,,,,,,,,,,,,,11027,2,2,2024_Jun_04_1307,stroop_task_switching2_b,2021.2.3,59.646902273460796,
condition/block_mixed_b,instruction/instr_mixed,instruction/i10_b,绿,green,d,diamond,color_mix,颜色,,compatible,1,,,,,,,,0,2,2,2,0,0,0,0,0,25,25,25,,,,,,,,,,,,,,,,,,,,,,,,,,,,,,,,,,,338.0730360999005,338.27420989994425,338.25651360000484,338.55752609996125,338.55752609996125,None,339.0577313998947,None,d,1,0.8534555999794975,339.0577313998947,None,None,None,339.9422186999582,None,,,,,,,,,,,,,,,,,,,,,11027,2,2,2024_Jun_04_1307,stroop_task_switching2_b,2021.2.3,59.646902273460796,
condition/block_mixed_b,instruction/instr_mixed,instruction/i10_b,蓝,blue,j,diamond,color_mix,颜色,,compatible,1,,,,,,,,0,2,2,2,0,0,0,0,0,26,26,26,,,,,,,,,,,,,,,,,,,,,,,,,,,,,,,,,,,340.94372529990505,341.1451472999761,341.12771909998264,341.42784419993404,341.42784419993404,None,341.9284910999704,None,j,1,1.2950538999866694,341.9284910999704,None,None,None,343.2474079999374,None,,,,,,,,,,,,,,,,,,,,,11027,2,2,2024_Jun_04_1307,stroop_task_switching2_b,2021.2.3,59.646902273460796,
condition/block_mixed_b,instruction/instr_mixed,instruction/i10_b,绿,green,d,square,color_mix,单词,,compatible,2,,,,,,,,0,2,2,2,0,0,0,0,0,27,27,27,,,,,,,,,,,,,,,,,,,,,,,,,,,,,,,,,,,344.2486191999633,344.4501374999527,344.43235969997477,344.7337857999373,344.7337857999373,None,345.23348069994245,None,d,1,0.9982184000546113,345.23348069994245,None,None,None,346.251682800008,None,,,,,,,,,,,,,,,,,,,,,11027,2,2,2024_Jun_04_1307,stroop_task_switching2_b,2021.2.3,59.646902273460796,
condition/block_mixed_b,instruction/instr_mixed,instruction/i10_b,绿,green,d,square,color_mix,单词,,compatible,1,,,,,,,,0,2,2,2,0,0,0,0,0,28,28,28,,,,,,,,,,,,,,,,,,,,,,,,,,,,,,,,,,,347.25372889998835,347.45509449997917,347.43696329998784,347.73721900000237,347.73721900000237,None,348.2381391999079,None,d,1,0.6575708999298513,348.2381391999079,None,None,None,348.9223944999976,None,,,,,,,,,,,,,,,,,,,,,11027,2,2,2024_Jun_04_1307,stroop_task_switching2_b,2021.2.3,59.646902273460796,
condition/block_mixed_b,instruction/instr_mixed,instruction/i10_b,蓝,blue,j,square,color_mix,单词,,compatible,1,,,,,,,,0,2,2,2,0,0,0,0,0,29,29,29,,,,,,,,,,,,,,,,,,,,,,,,,,,,,,,,,,,349.9238849999383,350.12451009999495,350.1074213999091,350.40853389992844,350.40853389992844,None,350.90922229993157,None,j,1,1.602662599994801,350.90922229993157,None,None,None,352.5279174000025,None,,,,,,,,,,,,,,,,,,,,,11027,2,2,2024_Jun_04_1307,stroop_task_switching2_b,2021.2.3,59.646902273460796,
condition/block_mixed_b,instruction/instr_mixed,instruction/i10_b,黄,yellow,f,diamond,color_mix,颜色,,compatible,2,,,,,,,,0,2,2,2,0,0,0,0,0,30,30,30,,,,,,,,,,,,,,,,,,,,,,,,,,,,,,,,,,,353.52952209999785,353.72976069990546,353.7147384999553,354.0137075999519,354.0137075999519,None,354.51407119992655,None,f,1,0.8138479000190273,354.51407119992655,None,None,None,355.3487785999896,None,,,,,,,,,,,,,,,,,,,,,11027,2,2,2024_Jun_04_1307,stroop_task_switching2_b,2021.2.3,59.646902273460796,
condition/block_mixed_b,instruction/instr_mixed,instruction/i10_b,绿,green,d,square,color_mix,单词,,compatible,2,,,,,,,,0,2,2,2,0,0,0,0,0,31,31,31,,,,,,,,,,,,,,,,,,,,,,,,,,,,,,,,,,,356.350264199893,356.5513837999897,356.53372949990444,356.8344515999779,356.8344515999779,None,357.33518910000566,None,d,1,1.2892789000179619,357.33518910000566,None,None,None,358.65389829990454,None,,,,,,,,,,,,,,,,,,,,,11027,2,2,2024_Jun_04_1307,stroop_task_switching2_b,2021.2.3,59.646902273460796,
condition/block_mixed_b,instruction/instr_mixed,instruction/i10_b,黄,yellow,f,square,color_mix,单词,,compatible,1,,,,,,,,0,2,2,2,0,0,0,0,0,32,32,32,,,,,,,,,,,,,,,,,,,,,,,,,,,,,,,,,,,359.655122499913,359.85672109993175,359.8390434999019,360.13943569990806,360.13943569990806,None,360.64093219989445,None,j,0,1.647115599946119,360.64093219989445,None,None,None,362.30932999996,None,,,,,,,,,,,,,,,,,,,,,11027,2,2,2024_Jun_04_1307,stroop_task_switching2_b,2021.2.3,59.646902273460796,
condition/block_mixed_b,instruction/instr_mixed,instruction/i10_b,绿,green,d,diamond,color_mix,颜色,,compatible,2,,,,,,,,0,2,2,2,0,0,0,0,0,33,33,33,,,,,,,,,,,,,,,,,,,,,,,,,,,,,,,,,,,363.31071180000436,363.51130719995126,363.49578259990085,363.79510879993904,363.79510879993904,None,364.2958209000062,None,d,1,0.9123520000139251,364.2958209000062,None,None,None,365.23036819999106,None,,,,,,,,,,,,,,,,,,,,,11027,2,2,2024_Jun_04_1307,stroop_task_switching2_b,2021.2.3,59.646902273460796,
condition/block_mixed_b,instruction/instr_mixed,instruction/i10_b,红,red,k,square,color_mix,单词,,compatible,2,,,,,,,,0,2,2,2,0,0,0,0,0,34,34,34,,,,,,,,,,,,,,,,,,,,,,,,,,,,,,,,,,,366.2319234999595,366.4333225999726,366.41562349989545,366.71677109994926,366.71677109994926,None,367.21693229989614,None,k,1,0.7593277000123635,367.21693229989614,None,None,None,368.00123059994075,None,,,,,,,,,,,,,,,,,,,,,11027,2,2,2024_Jun_04_1307,stroop_task_switching2_b,2021.2.3,59.646902273460796,
condition/block_mixed_b,instruction/instr_mixed,instruction/i10_b,黄,yellow,f,square,color_mix,单词,,compatible,1,,,,,,,,0,2,2,2,0,0,0,0,0,35,35,35,,,,,,,,,,,,,,,,,,,,,,,,,,,,,,,,,,,369.002711399924,369.2042307999218,369.1862596999854,369.48741389997303,369.48741389997303,None,369.98758329998236,None,j,0,1.7727438999572769,369.98758329998236,None,None,None,371.79049990000203,None,,,,,,,,,,,,,,,,,,,,,11027,2,2,2024_Jun_04_1307,stroop_task_switching2_b,2021.2.3,59.646902273460796,
condition/block_mixed_b,instruction/instr_mixed,instruction/i10_b,绿,green,d,diamond,color_mix,颜色,,compatible,2,,,,,,,,0,2,2,2,0,0,0,0,0,36,36,36,,,,,,,,,,,,,,,,,,,,,,,,,,,,,,,,,,,372.79181699990295,372.99246340000536,372.97544799989555,373.27579799992964,373.27579799992964,None,373.77653349994216,None,d,1,0.6316358000040054,373.77653349994216,None,None,None,374.42757249996066,None,,,,,,,,,,,,,,,,,,,,,11027,2,2,2024_Jun_04_1307,stroop_task_switching2_b,2021.2.3,59.646902273460796,
condition/block_mixed_b,instruction/instr_mixed,instruction/i10_b,蓝,blue,j,square,color_mix,单词,,compatible,2,,,,,,,,0,2,2,2,0,0,0,0,0,37,37,37,,,,,,,,,,,,,,,,,,,,,,,,,,,,,,,,,,,375.42892429989297,375.62934829993173,375.6138408998959,375.9144407999702,375.9144407999702,None,376.41385899996385,None,j,1,1.0750408000312746,376.41385899996385,None,None,None,377.51555389992427,None,,,,,,,,,,,,,,,,,,,,,11027,2,2,2024_Jun_04_1307,stroop_task_switching2_b,2021.2.3,59.646902273460796,
condition/block_mixed_b,instruction/instr_mixed,instruction/i10_b,红,red,k,square,color_mix,单词,,compatible,1,,,,,,,,0,2,2,2,0,0,0,0,0,38,38,38,,,,,,,,,,,,,,,,,,,,,,,,,,,,,,,,,,,378.51716529997066,378.7189765999792,378.70078959991224,379.0012037999695,379.0012037999695,None,379.5021238999907,None,k,1,0.7783996999496594,379.5021238999907,None,None,None,380.3030688998988,None,,,,,,,,,,,,,,,,,,,,,11027,2,2,2024_Jun_04_1307,stroop_task_switching2_b,2021.2.3,59.646902273460796,
condition/block_mixed_b,instruction/instr_mixed,instruction/i10_b,黄,yellow,f,diamond,color_mix,颜色,,compatible,2,,,,,,,,0,2,2,2,0,0,0,0,0,39,39,39,,,,,,,,,,,,,,,,,,,,,,,,,,,,,,,,,,,381.30460249993484,381.5049635999603,381.4881195999915,381.7896249999758,381.7896249999758,None,382.28954669996165,None,f,1,0.7268866000231355,382.28954669996165,None,None,None,383.04051199997775,None,,,,,,,,,,,,,,,,,,,,,11027,2,2,2024_Jun_04_1307,stroop_task_switching2_b,2021.2.3,59.646902273460796,
condition/block_mixed_b,instruction/instr_mixed,instruction/i10_b,黄,yellow,f,square,color_mix,单词,,compatible,2,,,,,,,,0,2,2,2,0,0,0,0,0,40,40,40,,,,,,,,,,,,,,,,,,,,,,,,,,,,,,,,,,,384.0423267999431,384.2439279999817,384.22548709996045,384.5274371999549,384.5274371999549,None,385.02679739997257,None,f,1,0.573703599977307,385.02679739997257,None,None,None,385.6286383999977,None,,,,,,,,,,,,,,,,,,,,,11027,2,2,2024_Jun_04_1307,stroop_task_switching2_b,2021.2.3,59.646902273460796,
condition/block_mixed_b,instruction/instr_mixed,instruction/i10_b,蓝,blue,j,square,color_mix,单词,,compatible,1,,,,,,,,0,2,2,2,0,0,0,0,0,41,41,41,,,,,,,,,,,,,,,,,,,,,,,,,,,,,,,,,,,386.62933609995525,386.8315631999867,386.81306519999634,387.113486199989,387.113486199989,None,387.61421199992765,None,j,1,0.5783724000211805,387.61421199992765,None,None,None,388.21508599992376,None,,,,,,,,,,,,,,,,,,,,,11027,2,2,2024_Jun_04_1307,stroop_task_switching2_b,2021.2.3,59.646902273460796,
condition/block_mixed_b,instruction/instr_mixed,instruction/i10_b,蓝,blue,j,diamond,color_mix,颜色,,compatible,2,,,,,,,,0,2,2,2,0,0,0,0,0,42,42,42,,,,,,,,,,,,,,,,,,,,,,,,,,,,,,,,,,,389.2164685999742,389.4178020999534,389.4001163999783,389.7016951999394,389.7016951999394,None,390.20172379992437,None,j,1,0.6148866000585258,390.20172379992437,None,None,None,390.8355019999435,None,,,,,,,,,,,,,,,,,,,,,11027,2,2,2024_Jun_04_1307,stroop_task_switching2_b,2021.2.3,59.646902273460796,
condition/block_mixed_b,instruction/instr_mixed,instruction/i10_b,黄,yellow,f,diamond,color_mix,颜色,,compatible,1,,,,,,,,0,2,2,2,0,0,0,0,0,43,43,43,,,,,,,,,,,,,,,,,,,,,,,,,,,,,,,,,,,391.83742999995593,392.03831819992047,392.0208794999635,392.3226598999463,392.3226598999463,None,392.8220828999765,None,f,1,0.7637674000579864,392.8220828999765,None,None,None,393.6065770999994,None,,,,,,,,,,,,,,,,,,,,,11027,2,2,2024_Jun_04_1307,stroop_task_switching2_b,2021.2.3,59.646902273460796,
condition/block_mixed_b,instruction/instr_mixed,instruction/i10_b,红,red,k,diamond,color_mix,颜色,,compatible,1,,,,,,,,0,2,2,2,0,0,0,0,0,44,44,44,,,,,,,,,,,,,,,,,,,,,,,,,,,,,,,,,,,394.60836429998744,394.8091357999947,394.7917058999883,395.09231419989374,395.09231419989374,None,395.5928037998965,None,k,1,0.5442258999682963,395.5928037998965,None,None,None,396.1601321999915,None,,,,,,,,,,,,,,,,,,,,,11027,2,2,2024_Jun_04_1307,stroop_task_switching2_b,2021.2.3,59.646902273460796,
condition/block_mixed_b,instruction/instr_mixed,instruction/i10_b,蓝,blue,j,diamond,color_mix,颜色,,compatible,1,,,,,,,,0,2,2,2,0,0,0,0,0,45,45,45,,,,,,,,,,,,,,,,,,,,,,,,,,,,,,,,,,,397.16221249999944,397.36219129990786,397.3457609999459,397.64631039998494,397.64631039998494,None,398.14678069995716,None,f,0,0.8463303999742493,398.14678069995716,None,None,None,399.0146846999414,None,,,,,,,,,,,,,,,,,,,,,11027,2,2,2024_Jun_04_1307,stroop_task_switching2_b,2021.2.3,59.646902273460796,
condition/block_mixed_b,instruction/instr_mixed,instruction/i10_b,红,red,k,diamond,color_mix,颜色,,compatible,1,,,,,,,,0,2,2,2,0,0,0,0,0,46,46,46,,,,,,,,,,,,,,,,,,,,,,,,,,,,,,,,,,,400.0160433999263,400.2173378999578,400.1996778999455,400.5002873999765,400.5002873999765,None,401.0010379999876,None,k,1,0.6880672000115737,401.0010379999876,None,None,None,401.71885519998614,None,,,,,,,,,,,,,,,,,,,,,11027,2,2,2024_Jun_04_1307,stroop_task_switching2_b,2021.2.3,59.646902273460796,
condition/block_mixed_b,instruction/instr_mixed,instruction/i10_b,红,red,k,square,color_mix,单词,,compatible,2,,,,,,,,0,2,2,2,0,0,0,0,0,47,47,47,,,,,,,,,,,,,,,,,,,,,,,,,,,,,,,,,,,402.7205118999118,402.9216361999279,402.9042399999453,403.2049805999268,403.2049805999268,None,403.70533049991354,None,k,1,0.7036606000037864,403.70533049991354,None,None,None,404.4397467999952,None,,,,,,,,,,,,,,,,,,,,,11027,2,2,2024_Jun_04_1307,stroop_task_switching2_b,2021.2.3,59.646902273460796,
condition/block_mixed_b,instruction/instr_mixed,instruction/i10_b,红,red,k,diamond,color_mix,颜色,,compatible,2,,,,,,,,0,2,2,2,0,0,0,0,0,48,48,48,,,,,,,,,,,,,,,,,,,,,,,,,,,,,,,,,,,405.441021699924,405.64223959995434,405.6246853999328,405.92625269992277,405.92625269992277,None,406.4257061999524,None,k,1,0.5354285000357777,406.4257061999524,None,None,None,406.9932578000007,None,,,,,,,,,,,,,,,,,,,,,11027,2,2,2024_Jun_04_1307,stroop_task_switching2_b,2021.2.3,59.646902273460796,
condition/block_mixed_b,instruction/instr_mixed,instruction/i10_b,,,,,,,,,,,,,,,,,0,2,2,2,0,0,0,0,,,,,,,,,,,,,,,,,,,,,,,,,,,,,,,,,,,,,,,,,,,,,,,,,,,,,,,,407.9946390999248,None,space,14.895340699935332,407.9946390999248,None,,,,,,,,,,,,,,,11027,2,2,2024_Jun_04_1307,stroop_task_switching2_b,2021.2.3,59.646902273460796,
condition/block_mixed_b,instruction/instr_mixed,instruction/i10_b,,,,,,,,,,,,,,,,,0,2,2,2,,,,,,,,,,,,,,,,,,,,,,,,,,,,,,,,,,,,,,,,,,,,,,,,,,,,,,,,,,,,,,,,,,,,,,,,,,,,,,,,11027,2,2,2024_Jun_04_1307,stroop_task_switching2_b,2021.2.3,59.646902273460796,
,,,红,red,k,square,color_mix,单词,,compatible,0,block_switch1_b,instruction/ready_test.png,instruction/i11.png,,,,,,,,,,,,,,,,,0,0,0,0,0,0,0,0,,,,,,,,,,,,,,,,,,,441.9461520999903,442.949725799961,442.949725799961,443.94979609991424,443.94979609991424,None,440.9613267999375,441.96365920000244,444.9841055999277,445.18563469999935,445.1678476999514,445.46929369994905,445.46929369994905,None,445.9692313999403,None,k,1,0.5531709000933915,445.9692313999403,None,None,None,,,,,,,,,422.9520481999498,None,space,17.98625329998322,422.9520481999498,None,,,,,,,,,11027,2,2,2024_Jun_04_1307,stroop_task_switching2_b,2021.2.3,59.646902273460796,
,,,绿,green,d,diamond,color_mix,颜色,,compatible,2,block_switch1_b,instruction/ready_test.png,instruction/i11.png,,,,,,,,,,,,,,,,,0,0,0,0,0,1,1,1,,,,,,,,,,,,,,,,,,,,,,,,,,,446.5528029999696,446.7539571999805,446.7365681999363,447.03702779999,447.03702779999,None,447.53784759994596,None,d,1,0.6487286000046879,447.53784759994596,None,None,None,,,,,,,,,,,,,,,,,,,,,,,11027,2,2,2024_Jun_04_1307,stroop_task_switching2_b,2021.2.3,59.646902273460796,
,,,绿,yellow,f,diamond,color_mix,颜色,,incompatible,1,block_switch1_b,instruction/ready_test.png,instruction/i11.png,,,,,,,,,,,,,,,,,0,0,0,0,0,2,2,2,,,,,,,,,,,,,,,,,,,,,,,,,,,448.20558299997356,448.4066093999427,448.3892175999936,448.6895816999022,448.6895816999022,None,449.1903413999826,None,f,1,0.8847673999844119,449.1903413999826,None,None,None,,,,,,,,,,,,,,,,,,,,,,,11027,2,2,2024_Jun_04_1307,stroop_task_switching2_b,2021.2.3,59.646902273460796,
,,,蓝,blue,j,diamond,color_mix,颜色,,compatible,1,block_switch1_b,instruction/ready_test.png,instruction/i11.png,,,,,,,,,,,,,,,,,0,0,0,0,0,3,3,3,,,,,,,,,,,,,,,,,,,,,,,,,,,450.09158769994974,450.2921379999025,450.2751316999784,450.5768264000071,450.5768264000071,None,451.0765601999592,None,j,1,0.701887600007467,451.0765601999592,None,None,None,,,,,,,,,,,,,,,,,,,,,,,11027,2,2,2024_Jun_04_1307,stroop_task_switching2_b,2021.2.3,59.646902273460796,
,,,绿,green,d,square,color_mix,单词,,compatible,2,block_switch1_b,instruction/ready_test.png,instruction/i11.png,,,,,,,,,,,,,,,,,0,0,0,0,0,4,4,4,,,,,,,,,,,,,,,,,,,,,,,,,,,451.79436469997745,451.99497100000735,451.9778270999668,452.2785940999165,452.2785940999165,None,452.7793738999171,None,d,1,0.5676014999626204,452.7793738999171,None,None,None,,,,,,,,,,,,,,,,,,,,,,,11027,2,2,2024_Jun_04_1307,stroop_task_switching2_b,2021.2.3,59.646902273460796,
,,,绿,blue,j,diamond,color_mix,颜色,,incompatible,2,block_switch1_b,instruction/ready_test.png,instruction/i11.png,,,,,,,,,,,,,,,,,0,0,0,0,0,5,5,5,,,,,,,,,,,,,,,,,,,,,,,,,,,453.36335609992966,453.5634869999485,453.5473238999257,453.8479576999089,453.8479576999089,None,454.34826279990375,None,j,1,1.2222535000182688,454.34826279990375,None,None,None,,,,,,,,,,,,,,,,,,,,,,,11027,2,2,2024_Jun_04_1307,stroop_task_switching2_b,2021.2.3,59.646902273460796,
,,,黄,red,f,square,color_mix,单词,,incompatible,2,block_switch1_b,instruction/ready_test.png,instruction/i11.png,,,,,,,,,,,,,,,,,0,0,0,0,0,6,6,6,,,,,,,,,,,,,,,,,,,,,,,,,,,455.5999697999796,455.8007599998964,455.78349349997006,456.0840800999431,456.0840800999431,None,456.584806400002,None,k,0,0.6017626000102609,456.584806400002,None,None,None,,,,,,,,,,,,,,,,,,,,,,,11027,2,2,2024_Jun_04_1307,stroop_task_switching2_b,2021.2.3,59.646902273460796,
,,,绿,green,d,square,color_mix,单词,,compatible,1,block_switch1_b,instruction/ready_test.png,instruction/i11.png,,,,,,,,,,,,,,,,,0,0,0,0,0,7,7,7,,,,,,,,,,,,,,,,,,,,,,,,,,,457.2037374000065,457.4198058999609,457.38605450000614,457.6865014999639,457.6865014999639,None,458.18755889998283,None,d,1,0.6390281000640243,458.18755889998283,None,None,None,,,,,,,,,,,,,,,,,,,,,,,11027,2,2,2024_Jun_04_1307,stroop_task_switching2_b,2021.2.3,59.646902273460796,
,,,蓝,blue,j,square,color_mix,单词,,compatible,1,block_switch1_b,instruction/ready_test.png,instruction/i11.png,,,,,,,,,,,,,,,,,0,0,0,0,0,8,8,8,,,,,,,,,,,,,,,,,,,,,,,,,,,458.8548940999899,459.0549578999635,459.03870639996603,459.341235699947,459.341235699947,None,459.83975299994927,None,j,1,0.8033013000385836,459.83975299994927,None,None,None,,,,,,,,,,,,,,,,,,,,,,,11027,2,2,2024_Jun_04_1307,stroop_task_switching2_b,2021.2.3,59.646902273460796,
,,,红,red,k,diamond,color_mix,颜色,,compatible,2,block_switch1_b,instruction/ready_test.png,instruction/i11.png,,,,,,,,,,,,,,,,,0,0,0,0,0,9,9,9,,,,,,,,,,,,,,,,,,,,,,,,,,,460.67440209991764,460.8754566999851,460.8579222999979,461.1589526999742,461.1589526999742,None,461.65909689990804,None,k,1,0.7357106999261305,461.65909689990804,None,None,None,,,,,,,,,,,,,,,,,,,,,,,11027,2,2,2024_Jun_04_1307,stroop_task_switching2_b,2021.2.3,59.646902273460796,
,,,黄,yellow,f,diamond,color_mix,颜色,,compatible,1,block_switch1_b,instruction/ready_test.png,instruction/i11.png,,,,,,,,,,,,,,,,,0,0,0,0,0,10,10,10,,,,,,,,,,,,,,,,,,,,,,,,,,,462.42699449998327,462.62803959997837,462.61078699992504,462.9108873999212,462.9108873999212,None,463.41185279993806,None,f,1,0.6389102000975981,463.41185279993806,None,None,None,,,,,,,,,,,,,,,,,,,,,,,11027,2,2,2024_Jun_04_1307,stroop_task_switching2_b,2021.2.3,59.646902273460796,
,,,绿,green,d,square,color_mix,单词,,compatible,2,block_switch1_b,instruction/ready_test.png,instruction/i11.png,,,,,,,,,,,,,,,,,0,0,0,0,0,11,11,11,,,,,,,,,,,,,,,,,,,,,,,,,,,464.07939420000184,464.2798827999504,464.2631628999952,464.563320599962,464.563320599962,None,465.06479189998936,None,d,1,0.5858146999962628,465.06479189998936,None,None,None,,,,,,,,,,,,,,,,,,,,,,,11027,2,2,2024_Jun_04_1307,stroop_task_switching2_b,2021.2.3,59.646902273460796,
,,,红,red,k,diamond,color_mix,颜色,,compatible,2,block_switch1_b,instruction/ready_test.png,instruction/i11.png,,,,,,,,,,,,,,,,,0,0,0,0,0,12,12,12,,,,,,,,,,,,,,,,,,,,,,,,,,,465.68174369994085,465.88256959989667,465.86534289992414,466.1667594999308,466.1667594999308,None,466.66690579999704,None,k,1,0.7600365999387577,466.66690579999704,None,None,None,,,,,,,,,,,,,,,,,,,,,,,11027,2,2,2024_Jun_04_1307,stroop_task_switching2_b,2021.2.3,59.646902273460796,
,,,红,red,k,diamond,color_mix,颜色,,compatible,1,block_switch1_b,instruction/ready_test.png,instruction/i11.png,,,,,,,,,,,,,,,,,0,0,0,0,0,13,13,13,,,,,,,,,,,,,,,,,,,,,,,,,,,467.4512964999303,467.65162099990994,467.63499759999104,467.9352948999731,467.9352948999731,None,468.4360107999528,None,k,1,0.48672559997066855,468.4360107999528,None,None,None,,,,,,,,,,,,,,,,,,,,,,,11027,2,2,2024_Jun_04_1307,stroop_task_switching2_b,2021.2.3,59.646902273460796,
,,,黄,yellow,f,square,color_mix,单词,,compatible,2,block_switch1_b,instruction/ready_test.png,instruction/i11.png,,,,,,,,,,,,,,,,,0,0,0,0,0,14,14,14,,,,,,,,,,,,,,,,,,,,,,,,,,,468.95344329997897,469.153854199918,469.13690229994245,469.4384414999513,469.4384414999513,None,469.9381237999769,None,j,0,0.9527166000334546,469.9381237999769,None,None,None,,,,,,,,,,,,,,,,,,,,,,,11027,2,2,2024_Jun_04_1307,stroop_task_switching2_b,2021.2.3,59.646902273460796,
,,,红,green,d,diamond,color_mix,颜色,,incompatible,2,block_switch1_b,instruction/ready_test.png,instruction/i11.png,,,,,,,,,,,,,,,,,0,0,0,0,0,15,15,15,,,,,,,,,,,,,,,,,,,,,,,,,,,470.90637330000754,471.10761479998473,471.090341999894,471.390639499994,471.390639499994,None,471.8913074999582,None,d,1,0.71954600000754,471.8913074999582,None,None,None,,,,,,,,,,,,,,,,,,,,,,,11027,2,2,2024_Jun_04_1307,stroop_task_switching2_b,2021.2.3,59.646902273460796,
,,,蓝,red,k,diamond,color_mix,颜色,,incompatible,1,block_switch1_b,instruction/ready_test.png,instruction/i11.png,,,,,,,,,,,,,,,,,0,0,0,0,0,16,16,16,,,,,,,,,,,,,,,,,,,,,,,,,,,472.6423377000028,472.84254779992625,472.827961999923,473.12640059995465,473.12640059995465,None,473.62746499991044,None,k,1,0.9358525000279769,473.62746499991044,None,None,None,,,,,,,,,,,,,,,,,,,,,,,11027,2,2,2024_Jun_04_1307,stroop_task_switching2_b,2021.2.3,59.646902273460796,
,,,黄,green,d,diamond,color_mix,颜色,,incompatible,1,block_switch1_b,instruction/ready_test.png,instruction/i11.png,,,,,,,,,,,,,,,,,0,0,0,0,0,17,17,17,,,,,,,,,,,,,,,,,,,,,,,,,,,474.5785763999447,474.77900340000633,474.7625637999736,475.0627496999223,475.0627496999223,None,475.56328199990094,None,j,0,1.8640213999897242,475.56328199990094,None,None,None,,,,,,,,,,,,,,,,,,,,,,,11027,2,2,2024_Jun_04_1307,stroop_task_switching2_b,2021.2.3,59.646902273460796,
,,,绿,green,d,diamond,color_mix,颜色,,compatible,1,block_switch1_b,instruction/ready_test.png,instruction/i11.png,,,,,,,,,,,,,,,,,0,0,0,0,0,18,18,18,,,,,,,,,,,,,,,,,,,,,,,,,,,477.449669900001,477.649803499924,477.6331981999101,477.93372629990336,477.93372629990336,None,478.4345370999072,None,d,1,0.7204818000318483,478.4345370999072,None,None,None,,,,,,,,,,,,,,,,,,,,,,,11027,2,2,2024_Jun_04_1307,stroop_task_switching2_b,2021.2.3,59.646902273460796,
,,,黄,red,k,diamond,color_mix,颜色,,incompatible,1,block_switch1_b,instruction/ready_test.png,instruction/i11.png,,,,,,,,,,,,,,,,,0,0,0,0,0,19,19,19,,,,,,,,,,,,,,,,,,,,,,,,,,,479.185597899952,479.3858685999876,479.3695730000036,479.66958849993534,479.66958849993534,None,480.17018639994785,None,k,1,1.6011712000472471,480.17018639994785,None,None,None,,,,,,,,,,,,,,,,,,,,,,,11027,2,2,2024_Jun_04_1307,stroop_task_switching2_b,2021.2.3,59.646902273460796,
,,,绿,yellow,d,square,color_mix,单词,,incompatible,2,block_switch1_b,instruction/ready_test.png,instruction/i11.png,,,,,,,,,,,,,,,,,0,0,0,0,0,20,20,20,,,,,,,,,,,,,,,,,,,,,,,,,,,481.78949209989514,481.99046060000546,481.9732085999567,482.27385549992323,482.27385549992323,None,482.77445079991594,None,d,1,1.1731019999133423,482.77445079991594,None,None,None,,,,,,,,,,,,,,,,,,,,,,,11027,2,2,2024_Jun_04_1307,stroop_task_switching2_b,2021.2.3,59.646902273460796,
,,,绿,yellow,f,diamond,color_mix,颜色,,incompatible,2,block_switch1_b,instruction/ready_test.png,instruction/i11.png,,,,,,,,,,,,,,,,,0,0,0,0,0,21,21,21,,,,,,,,,,,,,,,,,,,,,,,,,,,483.976104100002,484.1763246000046,484.1599052998936,484.460151999956,484.460151999956,None,484.96071639994625,None,f,1,0.7226446000859141,484.96071639994625,None,None,None,,,,,,,,,,,,,,,,,,,,,,,11027,2,2,2024_Jun_04_1307,stroop_task_switching2_b,2021.2.3,59.646902273460796,
,,,绿,green,d,square,color_mix,单词,,compatible,2,block_switch1_b,instruction/ready_test.png,instruction/i11.png,,,,,,,,,,,,,,,,,0,0,0,0,0,22,22,22,,,,,,,,,,,,,,,,,,,,,,,,,,,485.7119441999821,485.9127646998968,485.89563529996667,486.1963542999001,486.1963542999001,None,486.6968542999821,None,d,1,0.6347504999721423,486.6968542999821,None,None,None,,,,,,,,,,,,,,,,,,,,,,,11027,2,2,2024_Jun_04_1307,stroop_task_switching2_b,2021.2.3,59.646902273460796,
,,,红,red,k,square,color_mix,单词,,compatible,1,block_switch1_b,instruction/ready_test.png,instruction/i11.png,,,,,,,,,,,,,,,,,0,0,0,0,0,23,23,23,,,,,,,,,,,,,,,,,,,,,,,,,,,487.34813870000653,487.5486754999729,487.53160119999666,487.83301529998425,487.83301529998425,None,488.332725699991,None,k,1,0.7828555998858064,488.332725699991,None,None,None,,,,,,,,,,,,,,,,,,,,,,,11027,2,2,2024_Jun_04_1307,stroop_task_switching2_b,2021.2.3,59.646902273460796,
,,,黄,green,f,square,color_mix,单词,,incompatible,1,block_switch1_b,instruction/ready_test.png,instruction/i11.png,,,,,,,,,,,,,,,,,0,0,0,0,0,24,24,24,,,,,,,,,,,,,,,,,,,,,,,,,,,489.13365109998267,489.33576839999296,489.3174747999292,489.61935599998105,489.61935599998105,None,490.1186094000004,None,f,1,1.6928854999132454,490.1186094000004,None,None,None,,,,,,,,,,,,,,,,,,,,,,,11027,2,2,2024_Jun_04_1307,stroop_task_switching2_b,2021.2.3,59.646902273460796,
,,,红,blue,k,square,color_mix,单词,,incompatible,1,block_switch1_b,instruction/ready_test.png,instruction/i11.png,,,,,,,,,,,,,,,,,0,0,0,0,0,25,25,25,,,,,,,,,,,,,,,,,,,,,,,,,,,491.83802789996844,492.0387948999414,492.02155229996424,492.3219342000084,492.3219342000084,None,492.82264479994774,None,j,0,1.1569726000307128,492.82264479994774,None,None,None,,,,,,,,,,,,,,,,,,,,,,,11027,2,2,2024_Jun_04_1307,stroop_task_switching2_b,2021.2.3,59.646902273460796,
,,,黄,yellow,f,square,color_mix,单词,,compatible,1,block_switch1_b,instruction/ready_test.png,instruction/i11.png,,,,,,,,,,,,,,,,,0,0,0,0,0,26,26,26,,,,,,,,,,,,,,,,,,,,,,,,,,,494.00820279994514,494.2082363999216,494.19156730000395,494.4932546999771,494.4932546999771,None,494.99280439992435,None,f,1,0.8269234000472352,494.99280439992435,None,None,None,,,,,,,,,,,,,,,,,,,,,,,11027,2,2,2024_Jun_04_1307,stroop_task_switching2_b,2021.2.3,59.646902273460796,
,,,蓝,green,j,square,color_mix,单词,,incompatible,1,block_switch1_b,instruction/ready_test.png,instruction/i11.png,,,,,,,,,,,,,,,,,0,0,0,0,0,27,27,27,,,,,,,,,,,,,,,,,,,,,,,,,,,495.84396309999283,496.0459541999735,496.02789649995975,496.3295786998933,496.3295786998933,None,496.8289657999994,None,j,1,0.9189693999942392,496.8289657999994,None,None,None,,,,,,,,,,,,,,,,,,,,,,,11027,2,2,2024_Jun_04_1307,stroop_task_switching2_b,2021.2.3,59.646902273460796,
,,,绿,green,d,diamond,color_mix,颜色,,compatible,2,block_switch1_b,instruction/ready_test.png,instruction/i11.png,,,,,,,,,,,,,,,,,0,0,0,0,0,28,28,28,,,,,,,,,,,,,,,,,,,,,,,,,,,497.7633463999955,497.96391869999934,497.9473649999127,498.24834509997163,498.24834509997163,None,498.7484452999197,None,d,1,0.7274472999852151,498.7484452999197,None,None,None,,,,,,,,,,,,,,,,,,,,,,,11027,2,2,2024_Jun_04_1307,stroop_task_switching2_b,2021.2.3,59.646902273460796,
,,,黄,blue,j,diamond,color_mix,颜色,,incompatible,1,block_switch1_b,instruction/ready_test.png,instruction/i11.png,,,,,,,,,,,,,,,,,0,0,0,0,0,29,29,29,,,,,,,,,,,,,,,,,,,,,,,,,,,499.4995473999297,499.70025349990465,499.68306239997037,499.9835257999366,499.9835257999366,None,500.48433079989627,None,j,1,1.1194374000187963,500.48433079989627,None,None,None,,,,,,,,,,,,,,,,,,,,,,,11027,2,2,2024_Jun_04_1307,stroop_task_switching2_b,2021.2.3,59.646902273460796,
,,,绿,green,d,diamond,color_mix,颜色,,compatible,1,block_switch1_b,instruction/ready_test.png,instruction/i11.png,,,,,,,,,,,,,,,,,0,0,0,0,0,30,30,30,,,,,,,,,,,,,,,,,,,,,,,,,,,501.61924759997055,501.81970509991515,501.8034732999513,502.1034527999582,502.1034527999582,None,502.6040961999679,None,d,1,0.7517884999979287,502.6040961999679,None,None,None,,,,,,,,,,,,,,,,,,,,,,,11027,2,2,2024_Jun_04_1307,stroop_task_switching2_b,2021.2.3,59.646902273460796,
,,,蓝,blue,j,square,color_mix,单词,,compatible,2,block_switch1_b,instruction/ready_test.png,instruction/i11.png,,,,,,,,,,,,,,,,,0,0,0,0,0,31,31,31,,,,,,,,,,,,,,,,,,,,,,,,,,,503.3720057999017,503.5727525999537,503.5556892999448,503.85591179993935,503.85591179993935,None,504.35690969997086,None,j,1,0.9835176999913529,504.35690969997086,None,None,None,,,,,,,,,,,,,,,,,,,,,,,11027,2,2,2024_Jun_04_1307,stroop_task_switching2_b,2021.2.3,59.646902273460796,
,,,红,red,k,square,color_mix,单词,,compatible,1,block_switch1_b,instruction/ready_test.png,instruction/i11.png,,,,,,,,,,,,,,,,,0,0,0,0,0,32,32,32,,,,,,,,,,,,,,,,,,,,,,,,,,,505.3584562999895,505.5594552999828,505.5421065998962,505.84393069997896,505.84393069997896,None,506.34318999992684,None,k,1,0.7168929999461398,506.34318999992684,None,None,None,,,,,,,,,,,,,,,,,,,,,,,11027,2,2,2024_Jun_04_1307,stroop_task_switching2_b,2021.2.3,59.646902273460796,
,,,红,green,k,square,color_mix,单词,,incompatible,1,block_switch1_b,instruction/ready_test.png,instruction/i11.png,,,,,,,,,,,,,,,,,0,0,0,0,0,33,33,33,,,,,,,,,,,,,,,,,,,,,,,,,,,507.07773489993997,507.2789684999734,507.26133879995905,507.56176660000347,507.56176660000347,None,508.06249909999315,None,k,1,0.8866903999587521,508.06249909999315,None,None,None,,,,,,,,,,,,,,,,,,,,,,,11027,2,2,2024_Jun_04_1307,stroop_task_switching2_b,2021.2.3,59.646902273460796,
,,,黄,yellow,f,diamond,color_mix,颜色,,compatible,2,block_switch1_b,instruction/ready_test.png,instruction/i11.png,,,,,,,,,,,,,,,,,0,0,0,0,0,34,34,34,,,,,,,,,,,,,,,,,,,,,,,,,,,508.96369669993874,509.1640015000012,509.1485701999627,509.4483407998923,509.4483407998923,None,509.94879579998087,None,f,1,0.9273352999007329,509.94879579998087,None,None,None,,,,,,,,,,,,,,,,,,,,,,,11027,2,2,2024_Jun_04_1307,stroop_task_switching2_b,2021.2.3,59.646902273460796,
,,,红,green,d,diamond,color_mix,颜色,,incompatible,1,block_switch1_b,instruction/ready_test.png,instruction/i11.png,,,,,,,,,,,,,,,,,0,0,0,0,0,35,35,35,,,,,,,,,,,,,,,,,,,,,,,,,,,510.900118199992,511.1004108999623,511.0836996999569,511.3854959999444,511.3854959999444,None,511.8847090000054,None,d,1,0.6794669999508187,511.8847090000054,None,None,None,,,,,,,,,,,,,,,,,,,,,,,11027,2,2,2024_Jun_04_1307,stroop_task_switching2_b,2021.2.3,59.646902273460796,
,,,黄,yellow,f,square,color_mix,单词,,compatible,2,block_switch1_b,instruction/ready_test.png,instruction/i11.png,,,,,,,,,,,,,,,,,0,0,0,0,0,36,36,36,,,,,,,,,,,,,,,,,,,,,,,,,,,512.5859775999561,512.7863357999595,512.7695660999743,513.0704315999756,513.0704315999756,None,513.570590899908,None,f,1,1.4976185999112204,513.570590899908,None,None,None,,,,,,,,,,,,,,,,,,,,,,,11027,2,2,2024_Jun_04_1307,stroop_task_switching2_b,2021.2.3,59.646902273460796,
,,,蓝,blue,j,square,color_mix,单词,,compatible,1,block_switch1_b,instruction/ready_test.png,instruction/i11.png,,,,,,,,,,,,,,,,,0,0,0,0,0,37,37,37,,,,,,,,,,,,,,,,,,,,,,,,,,,515.0896616999526,515.2900652999524,515.2739498999435,515.5745456999866,515.5745456999866,None,516.0745217999211,None,j,1,0.9376234000083059,516.0745217999211,None,None,None,,,,,,,,,,,,,,,,,,,,,,,11027,2,2,2024_Jun_04_1307,stroop_task_switching2_b,2021.2.3,59.646902273460796,
,,,绿,red,k,diamond,color_mix,颜色,,incompatible,2,block_switch1_b,instruction/ready_test.png,instruction/i11.png,,,,,,,,,,,,,,,,,0,0,0,0,0,38,38,38,,,,,,,,,,,,,,,,,,,,,,,,,,,517.0425917999819,517.2435145999771,517.2264258000068,517.5267459999304,517.5267459999304,None,518.027525399928,None,k,1,0.8488341000629589,518.027525399928,None,None,None,,,,,,,,,,,,,,,,,,,,,,,11027,2,2,2024_Jun_04_1307,stroop_task_switching2_b,2021.2.3,59.646902273460796,
,,,黄,yellow,f,diamond,color_mix,颜色,,compatible,1,block_switch1_b,instruction/ready_test.png,instruction/i11.png,,,,,,,,,,,,,,,,,0,0,0,0,0,39,39,39,,,,,,,,,,,,,,,,,,,,,,,,,,,518.895312699955,519.0957400999032,519.078959699953,519.3798113999655,519.3798113999655,None,519.8802292000037,None,f,1,0.819971099961549,519.8802292000037,None,None,None,,,,,,,,,,,,,,,,,,,,,,,11027,2,2,2024_Jun_04_1307,stroop_task_switching2_b,2021.2.3,59.646902273460796,
,,,红,blue,j,diamond,color_mix,颜色,,incompatible,1,block_switch1_b,instruction/ready_test.png,instruction/i11.png,,,,,,,,,,,,,,,,,0,0,0,0,0,40,40,40,,,,,,,,,,,,,,,,,,,,,,,,,,,520.7314469999401,520.9320918999147,520.9162689999212,521.2159404999111,521.2159404999111,None,521.716383199906,None,k,0,0.9601279000053182,521.716383199906,None,None,None,,,,,,,,,,,,,,,,,,,,,,,11027,2,2,2024_Jun_04_1307,stroop_task_switching2_b,2021.2.3,59.646902273460796,
,,,绿,blue,d,square,color_mix,单词,,incompatible,2,block_switch1_b,instruction/ready_test.png,instruction/i11.png,,,,,,,,,,,,,,,,,0,0,0,0,0,41,41,41,,,,,,,,,,,,,,,,,,,,,,,,,,,522.7010563999647,522.9025803999975,522.884765899973,523.1860398999415,523.1860398999415,None,523.6862342999084,None,d,1,1.702138099935837,523.6862342999084,None,None,None,,,,,,,,,,,,,,,,,,,,,,,11027,2,2,2024_Jun_04_1307,stroop_task_switching2_b,2021.2.3,59.646902273460796,
,,,蓝,blue,j,diamond,color_mix,颜色,,compatible,2,block_switch1_b,instruction/ready_test.png,instruction/i11.png,,,,,,,,,,,,,,,,,0,0,0,0,0,42,42,42,,,,,,,,,,,,,,,,,,,,,,,,,,,525.4053473999957,525.6056699999608,525.5904276999645,525.9062143999618,525.8915225999663,None,526.4070036999183,None,j,1,1.4296460999175906,526.4070036999183,None,None,None,,,,,,,,,,,,,,,,,,,,,,,11027,2,2,2024_Jun_04_1307,stroop_task_switching2_b,2021.2.3,59.646902273460796,
,,,红,blue,k,square,color_mix,单词,,incompatible,2,block_switch1_b,instruction/ready_test.png,instruction/i11.png,,,,,,,,,,,,,,,,,0,0,0,0,0,43,43,43,,,,,,,,,,,,,,,,,,,,,,,,,,,527.8588029999519,528.0593689999077,528.0424231999787,528.3428198999027,528.3428198999027,None,528.8437368999003,None,k,1,1.088721500011161,528.8437368999003,None,None,None,,,,,,,,,,,,,,,,,,,,,,,11027,2,2,2024_Jun_04_1307,stroop_task_switching2_b,2021.2.3,59.646902273460796,
,,,蓝,green,d,diamond,color_mix,颜色,,incompatible,2,block_switch1_b,instruction/ready_test.png,instruction/i11.png,,,,,,,,,,,,,,,,,0,0,0,0,0,44,44,44,,,,,,,,,,,,,,,,,,,,,,,,,,,529.9621128999861,530.1624083999777,530.1469872999005,530.4467103999341,530.4467103999341,None,530.9469550999347,None,d,1,0.80186590005178,530.9469550999347,None,None,None,,,,,,,,,,,,,,,,,,,,,,,11027,2,2,2024_Jun_04_1307,stroop_task_switching2_b,2021.2.3,59.646902273460796,
,,,黄,yellow,f,square,color_mix,单词,,compatible,2,block_switch1_b,instruction/ready_test.png,instruction/i11.png,,,,,,,,,,,,,,,,,0,0,0,0,0,45,45,45,,,,,,,,,,,,,,,,,,,,,,,,,,,531.7649509999901,531.9651373999659,531.949471800006,532.2487133999821,532.2487133999821,None,532.7498328000074,None,f,1,1.3587403999408707,532.7498328000074,None,None,None,,,,,,,,,,,,,,,,,,,,,,,11027,2,2,2024_Jun_04_1307,stroop_task_switching2_b,2021.2.3,59.646902273460796,
,,,黄,yellow,f,diamond,color_mix,颜色,,compatible,2,block_switch1_b,instruction/ready_test.png,instruction/i11.png,,,,,,,,,,,,,,,,,0,0,0,0,0,46,46,46,,,,,,,,,,,,,,,,,,,,,,,,,,,534.1350435999921,534.3361265999265,534.3188759000041,534.6189306000015,534.6189306000015,None,535.1198491998948,None,f,1,0.6287171000149101,535.1198491998948,None,None,None,,,,,,,,,,,,,,,,,,,,,,,11027,2,2,2024_Jun_04_1307,stroop_task_switching2_b,2021.2.3,59.646902273460796,
,,,绿,red,d,square,color_mix,单词,,incompatible,2,block_switch1_b,instruction/ready_test.png,instruction/i11.png,,,,,,,,,,,,,,,,,0,0,0,0,0,47,47,47,,,,,,,,,,,,,,,,,,,,,,,,,,,535.7707472000038,535.9717929000035,535.9543511999073,536.2558095999993,536.2558095999993,None,536.7556661999552,None,d,1,1.2651782999746501,536.7556661999552,None,None,None,,,,,,,,,,,,,,,,,,,,,,,11027,2,2,2024_Jun_04_1307,stroop_task_switching2_b,2021.2.3,59.646902273460796,
,,,红,red,k,diamond,color_mix,颜色,,compatible,2,block_switch1_b,instruction/ready_test.png,instruction/i11.png,,,,,,,,,,,,,,,,,0,0,0,0,0,48,48,48,,,,,,,,,,,,,,,,,,,,,,,,,,,538.0409608999034,538.2413859999506,538.2246718999231,538.525658999919,538.525658999919,None,539.0258796999697,None,k,1,0.8188414999749511,539.0258796999697,None,None,None,,,,,,,,,,,,,,,,,,,,,,,11027,2,2,2024_Jun_04_1307,stroop_task_switching2_b,2021.2.3,59.646902273460796,
,,,蓝,blue,j,diamond,color_mix,颜色,,compatible,1,block_switch1_b,instruction/ready_test.png,instruction/i11.png,,,,,,,,,,,,,,,,,0,0,0,0,0,49,49,49,,,,,,,,,,,,,,,,,,,,,,,,,,,539.8603992999997,540.0623180998955,540.0439252000069,540.3456781998975,540.3456781998975,None,540.845279000001,None,j,1,0.8398628000868484,540.845279000001,None,None,None,,,,,,,,,,,,,,,,,,,,,,,11027,2,2,2024_Jun_04_1307,stroop_task_switching2_b,2021.2.3,59.646902273460796,
,,,黄,yellow,f,diamond,color_mix,颜色,,compatible,1,block_switch1_b,instruction/ready_test.png,instruction/i11.png,,,,,,,,,,,,,,,,,0,0,0,0,0,50,50,50,,,,,,,,,,,,,,,,,,,,,,,,,,,541.7132783998968,541.915779999923,541.8973630999681,542.1972084000008,542.1972084000008,None,542.6984847999411,None,f,1,0.8024515000870451,542.6984847999411,None,None,None,,,,,,,,,,,,,,,,,,,,,,,11027,2,2,2024_Jun_04_1307,stroop_task_switching2_b,2021.2.3,59.646902273460796,
,,,红,blue,j,diamond,color_mix,颜色,,incompatible,1,block_switch1_b,instruction/ready_test.png,instruction/i11.png,,,,,,,,,,,,,,,,,0,0,0,0,0,51,51,51,,,,,,,,,,,,,,,,,,,,,,,,,,,543.5160794999683,543.7166694999905,543.6995004999917,544.0001110999146,544.0001110999146,None,544.5007693999214,None,j,1,1.2565023000352085,544.5007693999214,None,None,None,,,,,,,,,,,,,,,,,,,,,,,11027,2,2,2024_Jun_04_1307,stroop_task_switching2_b,2021.2.3,59.646902273460796,
,,,蓝,yellow,f,diamond,color_mix,颜色,,incompatible,1,block_switch1_b,instruction/ready_test.png,instruction/i11.png,,,,,,,,,,,,,,,,,0,0,0,0,0,52,52,52,,,,,,,,,,,,,,,,,,,,,,,,,,,545.786048799986,545.9870298999595,545.9697046999354,546.269994799979,546.269994799979,None,546.7706163999392,None,f,1,1.0427103999536484,546.7706163999392,None,None,None,,,,,,,,,,,,,,,,,,,,,,,11027,2,2,2024_Jun_04_1307,stroop_task_switching2_b,2021.2.3,59.646902273460796,
,,,黄,blue,f,square,color_mix,单词,,incompatible,2,block_switch1_b,instruction/ready_test.png,instruction/i11.png,,,,,,,,,,,,,,,,,0,0,0,0,0,53,53,53,,,,,,,,,,,,,,,,,,,,,,,,,,,547.8390106000006,548.04017199995,548.0225644999882,548.3232315999921,548.3232315999921,None,548.8238421999849,None,j,0,0.981549600022845,548.8238421999849,None,None,None,,,,,,,,,,,,,,,,,,,,,,,11027,2,2,2024_Jun_04_1307,stroop_task_switching2_b,2021.2.3,59.646902273460796,
,,,蓝,blue,j,diamond,color_mix,颜色,,compatible,2,block_switch1_b,instruction/ready_test.png,instruction/i11.png,,,,,,,,,,,,,,,,,0,0,0,0,0,54,54,54,,,,,,,,,,,,,,,,,,,,,,,,,,,549.8254637999926,550.0258269999176,550.0093530999729,550.309912799974,550.309912799974,None,550.8101895999862,None,j,1,0.7547854000004008,550.8101895999862,None,None,None,,,,,,,,,,,,,,,,,,,,,,,11027,2,2,2024_Jun_04_1307,stroop_task_switching2_b,2021.2.3,59.646902273460796,
,,,红,yellow,k,square,color_mix,单词,,incompatible,2,block_switch1_b,instruction/ready_test.png,instruction/i11.png,,,,,,,,,,,,,,,,,0,0,0,0,0,55,55,55,,,,,,,,,,,,,,,,,,,,,,,,,,,551.594849999994,551.7950139999157,551.7804300999269,552.0965510999085,552.0788796999259,None,552.57964729995,None,k,1,1.3696726000634953,552.57964729995,None,None,None,,,,,,,,,,,,,,,,,,,,,,,11027,2,2,2024_Jun_04_1307,stroop_task_switching2_b,2021.2.3,59.646902273460796,
,,,蓝,red,j,square,color_mix,单词,,incompatible,1,block_switch1_b,instruction/ready_test.png,instruction/i11.png,,,,,,,,,,,,,,,,,0,0,0,0,0,56,56,56,,,,,,,,,,,,,,,,,,,,,,,,,,,553.9649891000008,554.1660065999022,554.1486238999059,554.4500400999095,554.4500400999095,None,554.9500956999836,None,j,1,0.6951077999547124,554.9500956999836,None,None,None,,,,,,,,,,,,,,,,,,,,,,,11027,2,2,2024_Jun_04_1307,stroop_task_switching2_b,2021.2.3,59.646902273460796,
,,,蓝,blue,j,square,color_mix,单词,,compatible,1,block_switch1_b,instruction/ready_test.png,instruction/i11.png,,,,,,,,,,,,,,,,,0,0,0,0,0,57,57,57,,,,,,,,,,,,,,,,,,,,,,,,,,,555.6675846999278,555.8685772999888,555.8516024999553,556.1517329999479,556.1517329999479,None,556.6523377998965,None,j,1,1.1771594999590889,556.6523377998965,None,None,None,,,,,,,,,,,,,,,,,,,,,,,11027,2,2,2024_Jun_04_1307,stroop_task_switching2_b,2021.2.3,59.646902273460796,
,,,蓝,red,k,diamond,color_mix,颜色,,incompatible,2,block_switch1_b,instruction/ready_test.png,instruction/i11.png,,,,,,,,,,,,,,,,,0,0,0,0,0,58,58,58,,,,,,,,,,,,,,,,,,,,,,,,,,,557.8542513999855,558.0560065999161,558.0382238999009,558.3385104999179,558.3385104999179,None,558.8391048999038,None,k,1,0.9982316000387073,558.8391048999038,None,None,None,,,,,,,,,,,,,,,,,,,,,,,11027,2,2,2024_Jun_04_1307,stroop_task_switching2_b,2021.2.3,59.646902273460796,
,,,绿,green,d,diamond,color_mix,颜色,,compatible,1,block_switch1_b,instruction/ready_test.png,instruction/i11.png,,,,,,,,,,,,,,,,,0,0,0,0,0,59,59,59,,,,,,,,,,,,,,,,,,,,,,,,,,,559.8571755999001,560.0589193999767,560.0408839999,560.3419242999516,560.3419242999516,None,560.8419872999657,None,d,1,0.619392600026913,560.8419872999657,None,None,None,,,,,,,,,,,,,,,,,,,,,,,11027,2,2,2024_Jun_04_1307,stroop_task_switching2_b,2021.2.3,59.646902273460796,
,,,蓝,blue,j,diamond,color_mix,颜色,,compatible,1,block_switch1_b,instruction/ready_test.png,instruction/i11.png,,,,,,,,,,,,,,,,,0,0,0,0,0,60,60,60,,,,,,,,,,,,,,,,,,,,,,,,,,,561.4929890999338,561.693960399949,561.6774905999191,561.977167999954,561.977167999954,None,562.4779007999459,None,j,1,0.8161397000076249,562.4779007999459,None,None,None,,,,,,,,,,,,,,,,,,,,,,,11027,2,2,2024_Jun_04_1307,stroop_task_switching2_b,2021.2.3,59.646902273460796,
,,,黄,yellow,f,square,color_mix,单词,,compatible,2,block_switch1_b,instruction/ready_test.png,instruction/i11.png,,,,,,,,,,,,,,,,,0,0,0,0,0,61,61,61,,,,,,,,,,,,,,,,,,,,,,,,,,,563.31253929995,563.5131265999516,563.4961093999445,563.7969741999405,563.7969741999405,None,564.2976263999008,None,f,1,0.9000696999719366,564.2976263999008,None,None,None,,,,,,,,,,,,,,,,,,,,,,,11027,2,2,2024_Jun_04_1307,stroop_task_switching2_b,2021.2.3,59.646902273460796,
,,,绿,blue,d,square,color_mix,单词,,incompatible,1,block_switch1_b,instruction/ready_test.png,instruction/i11.png,,,,,,,,,,,,,,,,,0,0,0,0,0,62,62,62,,,,,,,,,,,,,,,,,,,,,,,,,,,565.2153209999669,565.4156323999632,565.4007643999066,565.7159803999821,565.7006624999922,None,566.199959199992,None,d,1,1.10206449998077,566.199959199992,None,None,None,,,,,,,,,,,,,,,,,,,,,,,11027,2,2,2024_Jun_04_1307,stroop_task_switching2_b,2021.2.3,59.646902273460796,
,,,蓝,yellow,j,square,color_mix,单词,,incompatible,1,block_switch1_b,instruction/ready_test.png,instruction/i11.png,,,,,,,,,,,,,,,,,0,0,0,0,0,63,63,63,,,,,,,,,,,,,,,,,,,,,,,,,,,567.3183731999015,567.5192498998949,567.5019552999875,567.8025415999582,567.8025415999582,None,568.3032451999607,None,j,1,1.2542407000437379,568.3032451999607,None,None,None,,,,,,,,,,,,,,,,,,,,,,,11027,2,2,2024_Jun_04_1307,stroop_task_switching2_b,2021.2.3,59.646902273460796,
,,,黄,yellow,f,diamond,color_mix,颜色,,compatible,2,block_switch1_b,instruction/ready_test.png,instruction/i11.png,,,,,,,,,,,,,,,,,0,0,0,0,0,64,64,64,,,,,,,,,,,,,,,,,,,,,,,,,,,569.5885188999819,569.7891122999135,569.772170299897,570.0734346999088,570.0734346999088,None,570.5733674999792,None,f,1,0.7041406999342144,570.5733674999792,None,None,None,,,,,,,,,,,,,,,,,,,,,,,11027,2,2,2024_Jun_04_1307,stroop_task_switching2_b,2021.2.3,59.646902273460796,
,,,蓝,green,d,diamond,color_mix,颜色,,incompatible,1,block_switch1_b,instruction/ready_test.png,instruction/i11.png,,,,,,,,,,,,,,,,,0,0,0,0,0,65,65,65,,,,,,,,,,,,,,,,,,,,,,,,,,,571.307650999981,571.5079373999033,571.4914732999168,571.7925818999065,571.7925818999065,None,572.2925603999756,None,d,1,0.7531226000282913,572.2925603999756,None,None,None,,,,,,,,,,,,,,,,,,,,,,,11027,2,2,2024_Jun_04_1307,stroop_task_switching2_b,2021.2.3,59.646902273460796,
,,,红,red,k,diamond,color_mix,颜色,,compatible,1,block_switch1_b,instruction/ready_test.png,instruction/i11.png,,,,,,,,,,,,,,,,,0,0,0,0,0,66,66,66,,,,,,,,,,,,,,,,,,,,,,,,,,,573.0772037999704,573.2784729999257,573.2607422999572,573.5613920999458,573.5613920999458,None,574.0618185999338,None,k,1,0.8478559000650421,574.0618185999338,None,None,None,,,,,,,,,,,,,,,,,,,,,,,11027,2,2,2024_Jun_04_1307,stroop_task_switching2_b,2021.2.3,59.646902273460796,
,,,蓝,yellow,j,square,color_mix,单词,,incompatible,2,block_switch1_b,instruction/ready_test.png,instruction/i11.png,,,,,,,,,,,,,,,,,0,0,0,0,0,67,67,67,,,,,,,,,,,,,,,,,,,,,,,,,,,574.930016099941,575.1309209999163,575.1135074999183,575.4159346999368,575.4159346999368,None,575.9313562999014,None,f,0,1.3308046999154612,575.9313562999014,None,None,None,,,,,,,,,,,,,,,,,,,,,,,11027,2,2,2024_Jun_04_1307,stroop_task_switching2_b,2021.2.3,59.646902273460796,
,,,红,yellow,k,square,color_mix,单词,,incompatible,1,block_switch1_b,instruction/ready_test.png,instruction/i11.png,,,,,,,,,,,,,,,,,0,0,0,0,0,68,68,68,,,,,,,,,,,,,,,,,,,,,,,,,,,577.2838019999908,577.4841570999706,577.4682042999193,577.7688287999481,577.7688287999481,None,578.2683509999188,None,d,0,0.8574164999881759,578.2683509999188,None,None,None,,,,,,,,,,,,,,,,,,,,,,,11027,2,2,2024_Jun_04_1307,stroop_task_switching2_b,2021.2.3,59.646902273460796,
,,,红,yellow,f,diamond,color_mix,颜色,,incompatible,2,block_switch1_b,instruction/ready_test.png,instruction/i11.png,,,,,,,,,,,,,,,,,0,0,0,0,0,69,69,69,,,,,,,,,,,,,,,,,,,,,,,,,,,579.153007099987,579.3539870999521,579.3366792999441,579.637025999953,579.637025999953,None,580.1377415999305,None,f,1,0.7722838000627235,580.1377415999305,None,None,None,,,,,,,,,,,,,,,,,,,,,,,11027,2,2,2024_Jun_04_1307,stroop_task_switching2_b,2021.2.3,59.646902273460796,
,,,蓝,green,j,square,color_mix,单词,,incompatible,2,block_switch1_b,instruction/ready_test.png,instruction/i11.png,,,,,,,,,,,,,,,,,0,0,0,0,0,70,70,70,,,,,,,,,,,,,,,,,,,,,,,,,,,580.9388880999759,581.1401239999104,581.1225353999762,581.4229136999929,581.4229136999929,None,581.9238822999178,None,j,1,1.6660188999958336,581.9238822999178,None,None,None,,,,,,,,,,,,,,,,,,,,,,,11027,2,2,2024_Jun_04_1307,stroop_task_switching2_b,2021.2.3,59.646902273460796,
,,,绿,yellow,d,square,color_mix,单词,,incompatible,1,block_switch1_b,instruction/ready_test.png,instruction/i11.png,,,,,,,,,,,,,,,,,0,0,0,0,0,71,71,71,,,,,,,,,,,,,,,,,,,,,,,,,,,583.60979519994,583.8116520999465,583.7932120999321,584.0937625999795,584.0937625999795,None,584.5945325999055,None,d,1,0.6675023999996483,584.5945325999055,None,None,None,,,,,,,,,,,,,,,,,,,,,,,11027,2,2,2024_Jun_04_1307,stroop_task_switching2_b,2021.2.3,59.646902273460796,
,,,蓝,yellow,f,diamond,color_mix,颜色,,incompatible,2,block_switch1_b,instruction/ready_test.png,instruction/i11.png,,,,,,,,,,,,,,,,,0,0,0,0,0,72,72,72,,,,,,,,,,,,,,,,,,,,,,,,,,,585.2790479999967,585.4802230999339,585.4623863999732,585.7648055999307,585.7648055999307,None,586.2639473999152,None,f,1,1.8147758999839425,586.2639473999152,None,None,None,,,,,,,,,,,,,,,,,,,,,,,11027,2,2,2024_Jun_04_1307,stroop_task_switching2_b,2021.2.3,59.646902273460796,
,,,红,green,k,square,color_mix,单词,,incompatible,2,block_switch1_b,instruction/ready_test.png,instruction/i11.png,,,,,,,,,,,,,,,,,0,0,0,0,0,73,73,73,,,,,,,,,,,,,,,,,,,,,,,,,,,588.0998207000084,588.302534999908,588.2838353998959,588.585277599981,588.585277599981,None,589.0845927000046,None,k,1,0.9618818999733776,589.0845927000046,None,None,None,,,,,,,,,,,,,,,,,,,,,,,11027,2,2,2024_Jun_04_1307,stroop_task_switching2_b,2021.2.3,59.646902273460796,
,,,绿,blue,j,diamond,color_mix,颜色,,incompatible,2,block_switch1_b,instruction/ready_test.png,instruction/i11.png,,,,,,,,,,,,,,,,,0,0,0,0,0,74,74,74,,,,,,,,,,,,,,,,,,,,,,,,,,,590.0693215999054,590.2698171999073,590.2547557000071,590.5702694999054,590.5535974999657,None,591.0542087999638,None,j,1,1.1685790000483394,591.0542087999638,None,None,None,,,,,,,,,,,,,,,,,,,,,,,11027,2,2,2024_Jun_04_1307,stroop_task_switching2_b,2021.2.3,59.646902273460796,
,,,红,red,k,square,color_mix,单词,,compatible,2,block_switch1_b,instruction/ready_test.png,instruction/i11.png,,,,,,,,,,,,,,,,,0,0,0,0,0,75,75,75,,,,,,,,,,,,,,,,,,,,,,,,,,,592.2413345999084,592.4563379999017,592.4229308000067,592.7234022999182,592.7234022999182,None,593.224175099982,None,k,1,1.1905898998957127,593.224175099982,None,None,None,,,,,,,,,,,,,,,,,,,,,,,11027,2,2,2024_Jun_04_1307,stroop_task_switching2_b,2021.2.3,59.646902273460796,
,,,绿,green,d,diamond,color_mix,颜色,,compatible,2,block_switch1_b,instruction/ready_test.png,instruction/i11.png,,,,,,,,,,,,,,,,,0,0,0,0,0,76,76,76,,,,,,,,,,,,,,,,,,,,,,,,,,,594.4428721999284,594.642880499945,594.6262749999296,594.9267196999863,594.9267196999863,None,595.4273865999421,None,d,1,0.6674249999923632,595.4273865999421,None,None,None,,,,,,,,,,,,,,,,,,,,,,,11027,2,2,2024_Jun_04_1307,stroop_task_switching2_b,2021.2.3,59.646902273460796,
,,,黄,red,f,square,color_mix,单词,,incompatible,2,block_switch1_b,instruction/ready_test.png,instruction/i11.png,,,,,,,,,,,,,,,,,0,0,0,0,0,77,77,77,,,,,,,,,,,,,,,,,,,,,,,,,,,596.1117962999269,596.3126452999422,596.2953978999285,596.5962271000026,596.5962271000026,None,597.0966589999152,None,f,1,1.2778916000388563,597.0966589999152,None,None,None,,,,,,,,,,,,,,,,,,,,,,,11027,2,2,2024_Jun_04_1307,stroop_task_switching2_b,2021.2.3,59.646902273460796,
,,,红,red,k,square,color_mix,单词,,compatible,1,block_switch1_b,instruction/ready_test.png,instruction/i11.png,,,,,,,,,,,,,,,,,0,0,0,0,0,78,78,78,,,,,,,,,,,,,,,,,,,,,,,,,,,598.3986026999773,598.5994667999912,598.5822780999588,598.8833213999169,598.8833213999169,None,599.3833772999933,None,k,1,1.1517967999679968,599.3833772999933,None,None,None,,,,,,,,,,,,,,,,,,,,,,,11027,2,2,2024_Jun_04_1307,stroop_task_switching2_b,2021.2.3,59.646902273460796,
,,,黄,yellow,f,square,color_mix,单词,,compatible,1,block_switch1_b,instruction/ready_test.png,instruction/i11.png,,,,,,,,,,,,,,,,,0,0,0,0,0,79,79,79,,,,,,,,,,,,,,,,,,,,,,,,,,,600.5519057000056,600.752332199947,600.7366145999404,601.0358290999429,601.0358290999429,None,601.5370306998957,None,f,1,1.0134369999868795,601.5370306998957,None,None,None,,,,,,,,,,,,,,,,,,,,,,,11027,2,2,2024_Jun_04_1307,stroop_task_switching2_b,2021.2.3,59.646902273460796,
,,,红,red,k,diamond,color_mix,颜色,,compatible,2,block_switch1_b,instruction/ready_test.png,instruction/i11.png,,,,,,,,,,,,,,,,,0,0,0,0,0,80,80,80,,,,,,,,,,,,,,,,,,,,,,,,,,,602.5715988999,602.7730338999536,602.7553948999848,603.055501799914,603.055501799914,None,603.5564854999539,None,k,1,0.7222363000037149,603.5564854999539,None,None,None,,,,,,,,,,,,,,,,,,,,,,,11027,2,2,2024_Jun_04_1307,stroop_task_switching2_b,2021.2.3,59.646902273460796,
,,,红,red,k,square,color_mix,单词,,compatible,2,block_switch1_b,instruction/ready_test.png,instruction/i11.png,,,,,,,,,,,,,,,,,0,0,0,0,0,81,81,81,,,,,,,,,,,,,,,,,,,,,,,,,,,604.3075591999805,604.5086853998946,604.4911724999547,604.7917621999513,604.7917621999513,None,605.2926418998977,None,k,1,0.6504446999169886,605.2926418998977,None,None,None,,,,,,,,,,,,,,,,,,,,,,,11027,2,2,2024_Jun_04_1307,stroop_task_switching2_b,2021.2.3,59.646902273460796,
,,,黄,blue,j,diamond,color_mix,颜色,,incompatible,2,block_switch1_b,instruction/ready_test.png,instruction/i11.png,,,,,,,,,,,,,,,,,0,0,0,0,0,82,82,82,,,,,,,,,,,,,,,,,,,,,,,,,,,605.9600883999374,606.1604905999266,606.145521099912,606.4615001999773,606.4440644999268,None,606.9450175999664,None,j,1,1.1256269000004977,606.9450175999664,None,None,None,,,,,,,,,,,,,,,,,,,,,,,11027,2,2,2024_Jun_04_1307,stroop_task_switching2_b,2021.2.3,59.646902273460796,
,,,红,yellow,f,diamond,color_mix,颜色,,incompatible,1,block_switch1_b,instruction/ready_test.png,instruction/i11.png,,,,,,,,,,,,,,,,,0,0,0,0,0,83,83,83,,,,,,,,,,,,,,,,,,,,,,,,,,,608.0968078000005,608.2969264999265,608.2809536999557,608.5804898999631,608.5804898999631,None,609.0814728999976,None,f,1,1.7891729000257328,609.0814728999976,None,None,None,,,,,,,,,,,,,,,,,,,,,,,11027,2,2,2024_Jun_04_1307,stroop_task_switching2_b,2021.2.3,59.646902273460796,
,,,黄,red,k,diamond,color_mix,颜色,,incompatible,1,block_switch1_b,instruction/ready_test.png,instruction/i11.png,,,,,,,,,,,,,,,,,0,0,0,0,0,84,84,84,,,,,,,,,,,,,,,,,,,,,,,,,,,610.9008559999056,611.1021021999186,611.0843411999522,611.3855168999871,611.3855168999871,None,611.8856152999215,None,k,1,1.0093545999843627,611.8856152999215,None,None,None,,,,,,,,,,,,,,,,,,,,,,,11027,2,2,2024_Jun_04_1307,stroop_task_switching2_b,2021.2.3,59.646902273460796,
,,,蓝,blue,j,square,color_mix,单词,,compatible,2,block_switch1_b,instruction/ready_test.png,instruction/i11.png,,,,,,,,,,,,,,,,,0,0,0,0,0,85,85,85,,,,,,,,,,,,,,,,,,,,,,,,,,,612.9208578999387,613.1229132999433,613.1044707999099,613.4046045999276,613.4046045999276,None,613.9053295999765,None,j,1,0.7254409999586642,613.9053295999765,None,None,None,,,,,,,,,,,,,,,,,,,,,,,11027,2,2,2024_Jun_04_1307,stroop_task_switching2_b,2021.2.3,59.646902273460796,
,,,绿,green,d,square,color_mix,单词,,compatible,1,block_switch1_b,instruction/ready_test.png,instruction/i11.png,,,,,,,,,,,,,,,,,0,0,0,0,0,86,86,86,,,,,,,,,,,,,,,,,,,,,,,,,,,614.656508199987,614.8588172999443,614.8402235999238,615.141257799929,615.141257799929,None,615.6409866999602,None,d,1,0.718645800021477,615.6409866999602,None,None,None,,,,,,,,,,,,,,,,,,,,,,,11027,2,2,2024_Jun_04_1307,stroop_task_switching2_b,2021.2.3,59.646902273460796,
,,,红,red,k,square,color_mix,单词,,compatible,1,block_switch1_b,instruction/ready_test.png,instruction/i11.png,,,,,,,,,,,,,,,,,0,0,0,0,0,87,87,87,,,,,,,,,,,,,,,,,,,,,,,,,,,616.3758076999802,616.5769893999677,616.5594460999127,616.8598473999882,616.8598473999882,None,617.3604208999313,None,k,1,0.8385153999552131,617.3604208999313,None,None,None,,,,,,,,,,,,,,,,,,,,,,,11027,2,2,2024_Jun_04_1307,stroop_task_switching2_b,2021.2.3,59.646902273460796,
,,,黄,green,d,diamond,color_mix,颜色,,incompatible,2,block_switch1_b,instruction/ready_test.png,instruction/i11.png,,,,,,,,,,,,,,,,,0,0,0,0,0,88,88,88,,,,,,,,,,,,,,,,,,,,,,,,,,,618.2293529999442,618.4288163000019,618.4124389999779,618.712705199956,618.712705199956,None,619.2132590999827,None,d,1,1.1538403999293223,619.2132590999827,None,None,None,,,,,,,,,,,,,,,,,,,,,,,11027,2,2,2024_Jun_04_1307,stroop_task_switching2_b,2021.2.3,59.646902273460796,
,,,绿,red,d,square,color_mix,单词,,incompatible,2,block_switch1_b,instruction/ready_test.png,instruction/i11.png,,,,,,,,,,,,,,,,,0,0,0,0,0,89,89,89,,,,,,,,,,,,,,,,,,,,,,,,,,,620.3987216999521,620.600639799959,620.5825658999383,620.8824552999577,620.8824552999577,None,621.3845760999247,None,d,1,1.8066099000861868,621.3845760999247,None,None,None,,,,,,,,,,,,,,,,,,,,,,,11027,2,2,2024_Jun_04_1307,stroop_task_switching2_b,2021.2.3,59.646902273460796,
,,,黄,green,f,square,color_mix,单词,,incompatible,1,block_switch1_b,instruction/ready_test.png,instruction/i11.png,,,,,,,,,,,,,,,,,0,0,0,0,0,90,90,90,,,,,,,,,,,,,,,,,,,,,,,,,,,623.2193258999614,623.4199212999083,623.4029008999933,623.7034215999302,623.7034215999302,None,624.2041345000034,None,f,1,1.155096499947831,624.2041345000034,None,None,None,,,,,,,,,,,,,,,,,,,,,,,11027,2,2,2024_Jun_04_1307,stroop_task_switching2_b,2021.2.3,59.646902273460796,
,,,蓝,blue,j,square,color_mix,单词,,compatible,1,block_switch1_b,instruction/ready_test.png,instruction/i11.png,,,,,,,,,,,,,,,,,0,0,0,0,0,91,91,91,,,,,,,,,,,,,,,,,,,,,,,,,,,625.3906199999619,625.5909203999909,625.5730184999993,625.8738467999501,625.8738467999501,None,626.3741156999022,None,k,0,0.7530030999332666,626.3741156999022,None,None,None,,,,,,,,,,,,,,,,,,,,,,,11027,2,2,2024_Jun_04_1307,stroop_task_switching2_b,2021.2.3,59.646902273460796,
,,,蓝,red,j,square,color_mix,单词,,incompatible,1,block_switch1_b,instruction/ready_test.png,instruction/i11.png,,,,,,,,,,,,,,,,,0,0,0,0,0,92,92,92,,,,,,,,,,,,,,,,,,,,,,,,,,,627.1587718999945,627.360128399916,627.342199799954,627.6426921999082,627.6426921999082,None,628.1434492999688,None,k,0,1.1601752999704331,628.1434492999688,None,None,None,,,,,,,,,,,,,,,,,,,,,,,11027,2,2,2024_Jun_04_1307,stroop_task_switching2_b,2021.2.3,59.646902273460796,
,,,黄,blue,f,square,color_mix,单词,,incompatible,1,block_switch1_b,instruction/ready_test.png,instruction/i11.png,,,,,,,,,,,,,,,,,0,0,0,0,0,93,93,93,,,,,,,,,,,,,,,,,,,,,,,,,,,629.3285570999142,629.5300859999843,629.5120866999496,629.812601499958,629.812601499958,None,630.3133655999554,None,f,1,1.49409769999329,630.3133655999554,None,None,None,,,,,,,,,,,,,,,,,,,,,,,11027,2,2,2024_Jun_04_1307,stroop_task_switching2_b,2021.2.3,59.646902273460796,
,,,绿,red,k,diamond,color_mix,颜色,,incompatible,2,block_switch1_b,instruction/ready_test.png,instruction/i11.png,,,,,,,,,,,,,,,,,0,0,0,0,0,94,94,94,,,,,,,,,,,,,,,,,,,,,,,,,,,631.8325018999167,632.0326632999349,632.0172348999185,632.3172398000024,632.3172398000024,None,632.8172200999688,None,k,1,1.318219400011003,632.8172200999688,None,None,None,,,,,,,,,,,,,,,,,,,,,,,11027,2,2,2024_Jun_04_1307,stroop_task_switching2_b,2021.2.3,59.646902273460796,
,,,蓝,blue,j,diamond,color_mix,颜色,,compatible,1,block_switch1_b,instruction/ready_test.png,instruction/i11.png,,,,,,,,,,,,,,,,,0,0,0,0,0,95,95,95,,,,,,,,,,,,,,,,,,,,,,,,,,,634.1525848999154,634.3528402999509,634.3362190999324,634.6367581998929,634.6367581998929,None,635.1375498999842,None,j,1,1.0300240999786183,635.1375498999842,None,None,None,,,,,,,,,,,,,,,,,,,,,,,11027,2,2,2024_Jun_04_1307,stroop_task_switching2_b,2021.2.3,59.646902273460796,
,,,绿,green,d,square,color_mix,单词,,compatible,2,block_switch1_b,instruction/ready_test.png,instruction/i11.png,,,,,,,,,,,,,,,,,0,0,0,0,0,96,96,96,,,,,,,,,,,,,,,,,,,,,,,,,,,636.1893852999201,636.3893343999516,636.3734993999824,636.6729598999955,636.6729598999955,None,637.1737444999162,None,d,1,0.6658911000704393,637.1737444999162,None,None,None,,,,,,,,,,,,,,,,,,,,,,,11027,2,2,2024_Jun_04_1307,stroop_task_switching2_b,2021.2.3,59.646902273460796,
,,,,,,,,,,,,block_switch1_b,instruction/ready_test.png,instruction/i11.png,,,,,,,,,,,,,,,,,0,0,0,0,,,,,,,,,,,,,,,,,,,,,,,,,,,,,,,,,,,,,,,,,,,,,,,,,,,,,,,,,,,,637.8586399999913,None,space,35.36597919999622,637.8586399999913,None,,,11027,2,2,2024_Jun_04_1307,stroop_task_switching2_b,2021.2.3,59.646902273460796,
,,,蓝,blue,j,square,color_mix,单词,,compatible,0,block_switch2_b,instruction/ready_2.png,instruction/i12.png,,,,,,,,,,,,,,,,,0,1,1,1,0,0,0,0,,,,,,,,,,,,,,,,,,,675.73179599992,676.734283800004,676.734283800004,677.7355122999288,677.7355122999288,None,674.7471323999343,675.7491561999777,678.7702875999967,678.9702715999447,678.9545023998944,679.2538136999356,679.2538136999356,None,679.7545390999876,None,j,1,1.4699798000510782,679.7545390999876,None,None,None,,,,,,,,,673.2616479999851,None,space,1.459075800026767,673.2616479999851,None,,,,,,,,,11027,2,2,2024_Jun_04_1307,stroop_task_switching2_b,2021.2.3,59.646902273460796,
,,,黄,red,k,diamond,color_mix,颜色,,incompatible,2,block_switch2_b,instruction/ready_2.png,instruction/i12.png,,,,,,,,,,,,,,,,,0,1,1,1,0,1,1,1,,,,,,,,,,,,,,,,,,,,,,,,,,,681.2403003999498,681.4409343999578,681.4236553999363,681.7243656999199,681.7243656999199,None,682.2251256000018,None,k,1,0.8485116999363527,682.2251256000018,None,None,None,,,,,,,,,,,,,,,,,,,,,,,11027,2,2,2024_Jun_04_1307,stroop_task_switching2_b,2021.2.3,59.646902273460796,
,,,蓝,green,d,diamond,color_mix,颜色,,incompatible,1,block_switch2_b,instruction/ready_2.png,instruction/i12.png,,,,,,,,,,,,,,,,,0,1,1,1,0,2,2,2,,,,,,,,,,,,,,,,,,,,,,,,,,,683.0929884999059,683.2954654999776,683.2768359999172,683.5784070999362,683.5784070999362,None,684.0778824998997,None,d,1,0.9790885000256822,684.0778824998997,None,None,None,,,,,,,,,,,,,,,,,,,,,,,11027,2,2,2024_Jun_04_1307,stroop_task_switching2_b,2021.2.3,59.646902273460796,
,,,红,yellow,f,diamond,color_mix,颜色,,incompatible,1,block_switch2_b,instruction/ready_2.png,instruction/i12.png,,,,,,,,,,,,,,,,,0,1,1,1,0,3,3,3,,,,,,,,,,,,,,,,,,,,,,,,,,,685.0796055999817,685.2808731999248,685.2630623999285,685.5639386998955,685.5639386998955,None,686.0640704999678,None,f,1,0.8886618000688031,686.0640704999678,None,None,None,,,,,,,,,,,,,,,,,,,,,,,11027,2,2,2024_Jun_04_1307,stroop_task_switching2_b,2021.2.3,59.646902273460796,
,,,红,red,k,diamond,color_mix,颜色,,compatible,1,block_switch2_b,instruction/ready_2.png,instruction/i12.png,,,,,,,,,,,,,,,,,0,1,1,1,0,4,4,4,,,,,,,,,,,,,,,,,,,,,,,,,,,686.9821816999465,687.1838427999755,687.1658778999699,687.4662171999225,687.4662171999225,None,687.9669629998971,None,k,1,0.6421183999627829,687.9669629998971,None,None,None,,,,,,,,,,,,,,,,,,,,,,,11027,2,2,2024_Jun_04_1307,stroop_task_switching2_b,2021.2.3,59.646902273460796,
,,,绿,green,d,square,color_mix,单词,,compatible,2,block_switch2_b,instruction/ready_2.png,instruction/i12.png,,,,,,,,,,,,,,,,,0,1,1,1,0,5,5,5,,,,,,,,,,,,,,,,,,,,,,,,,,,688.634722799994,688.8372239999007,688.8187172999606,689.1194995999103,689.1194995999103,None,689.6192854999099,None,d,1,0.5897039999254048,689.6192854999099,None,None,None,,,,,,,,,,,,,,,,,,,,,,,11027,2,2,2024_Jun_04_1307,stroop_task_switching2_b,2021.2.3,59.646902273460796,
,,,黄,blue,j,diamond,color_mix,颜色,,incompatible,2,block_switch2_b,instruction/ready_2.png,instruction/i12.png,,,,,,,,,,,,,,,,,0,1,1,1,0,6,6,6,,,,,,,,,,,,,,,,,,,,,,,,,,,690.2370189999929,690.4386460999958,690.4209294999018,690.7210610999027,690.7210610999027,None,691.2219893999863,None,j,1,0.9792167999548838,691.2219893999863,None,None,None,,,,,,,,,,,,,,,,,,,,,,,11027,2,2,2024_Jun_04_1307,stroop_task_switching2_b,2021.2.3,59.646902273460796,
