b_pra,ins_blocks,ins_blocks2,stim_word,stim_color,corrAns,cue_type,trial_type,task_type,rand,compatibility,switch,b_test,w_pic,w_pic2,trials_instr.thisRepN,trials_instr.thisTrialN,trials_instr.thisN,trials_instr.thisIndex,block_pra.thisRepN,block_pra.thisTrialN,block_pra.thisN,block_pra.thisIndex,trials_rep.thisRepN,trials_rep.thisTrialN,trials_rep.thisN,trials_rep.thisIndex,trials_pra.thisRepN,trials_pra.thisTrialN,trials_pra.thisN,trials_pra.thisIndex,trials_3.thisRepN,trials_3.thisTrialN,trials_3.thisN,trials_3.thisIndex,trials_2.thisRepN,trials_2.thisTrialN,trials_2.thisN,trials_2.thisIndex,instr_image.started,instr_image.stopped,instr_key_resp.keys,instr_key_resp.rt,instr_key_resp.started,instr_key_resp.stopped,instr_pra_image.started,instr_pra_image.stopped,ip_key_resp.keys,ip_key_resp.rt,ip_key_resp.started,ip_key_resp.stopped,block_image.started,block_image.stopped,ib_key_resp.keys,ib_key_resp.rt,ib_key_resp.started,ib_key_resp.stopped,cd3.started,cd3.stopped,cd2.started,cd2.stopped,cd1.started,cd1.stopped,cd_text.started,cd_text.stopped,text_fix.started,text_fix.stopped,text_2.started,text_2.stopped,text_4.started,text_4.stopped,text_target.started,text_target.stopped,key_resp.keys,key_resp.corr,key_resp.rt,key_resp.started,key_resp.stopped,sceen_black.started,sceen_black.stopped,text_fb.started,text_fb.stopped,text.started,text.stopped,key_bf.keys,key_bf.rt,key_bf.started,key_bf.stopped,instr_test_image.started,instr_test_image.stopped,instr_exp_key_resp.keys,instr_exp_key_resp.rt,instr_exp_key_resp.started,instr_exp_key_resp.stopped,text_rest.started,text_rest.stopped,key_resp_rest.keys,key_resp_rest.rt,key_resp_rest.started,key_resp_rest.stopped,text_3.started,text_3.stopped,participant,session,balance,date,expName,psychopyVersion,frameRate,
,,,,,,,,,,,,,,,0,0,0,0,,,,,,,,,,,,,,,,,,,,,10.237910500029102,None,right,2.4678570000105537,10.237910500029102,None,,,,,,,,,,,,,,,,,,,,,,,,,,,,,,,,,,,,,,,,,,,,,,,,,,,,,,,,,,11030,1,1,2024_Jun_01_0855,stroop_task_switching2,2021.2.3,59.81125957951243,
,,,,,,,,,,,,,,,1,0,1,0,,,,,,,,,,,,,,,,,,,,,12.741079200000968,None,right,32.34126709995326,12.741079200000968,None,,,,,,,,,,,,,,,,,,,,,,,,,,,,,,,,,,,,,,,,,,,,,,,,,,,,,,,,,,11030,1,1,2024_Jun_01_0855,stroop_task_switching2,2021.2.3,59.81125957951243,
,,,,,,,,,,,,,,,2,0,2,0,,,,,,,,,,,,,,,,,,,,,45.12362139998004,None,right,5.111466200032737,45.12362139998004,None,,,,,,,,,,,,,,,,,,,,,,,,,,,,,,,,,,,,,,,,,,,,,,,,,,,,,,,,,,11030,1,1,2024_Jun_01_0855,stroop_task_switching2,2021.2.3,59.81125957951243,
,,,,,,,,,,,,,,,3,0,3,0,,,,,,,,,,,,,,,,,,,,,50.28154190001078,None,right,6.1770040999981575,50.28154190001078,None,,,,,,,,,,,,,,,,,,,,,,,,,,,,,,,,,,,,,,,,,,,,,,,,,,,,,,,,,,11030,1,1,2024_Jun_01_0855,stroop_task_switching2,2021.2.3,59.81125957951243,
,,,,,,,,,,,,,,,4,0,4,0,,,,,,,,,,,,,,,,,,,,,56.49113610002678,None,right,14.951875200029463,56.49113610002678,None,,,,,,,,,,,,,,,,,,,,,,,,,,,,,,,,,,,,,,,,,,,,,,,,,,,,,,,,,,11030,1,1,2024_Jun_01_0855,stroop_task_switching2,2021.2.3,59.81125957951243,
,,,,,,,,,,,,,,,5,0,5,0,,,,,,,,,,,,,,,,,,,,,71.48040230001789,None,right,0.5867043999605812,71.48040230001789,None,,,,,,,,,,,,,,,,,,,,,,,,,,,,,,,,,,,,,,,,,,,,,,,,,,,,,,,,,,11030,1,1,2024_Jun_01_0855,stroop_task_switching2,2021.2.3,59.81125957951243,
,,,,,,,,,,,,,,,,,,,,,,,,,,,,,,,,,,,,,,,,,,,,,72.11527020001085,None,space,2.2323809000081383,72.11527020001085,None,,,,,,,,,,,,,,,,,,,,,,,,,,,,,,,,,,,,,,,,,,,,,,,,,,,,11030,1,1,2024_Jun_01_0855,stroop_task_switching2,2021.2.3,59.81125957951243,
condition/block_color,instruction/instr_color,instruction/i8,XX,red,d,diamond,color_single,颜色,,,,,,,,,,,0,0,0,0,0,0,0,0,0,0,0,0,,,,,,,,,,,,,,,,,,,,,74.38464840000961,None,space,2.290300299995579,74.38464840000961,None,77.75776830001269,78.75951870001154,78.75951870001154,79.76011939998716,79.76011939998716,None,76.77261859999271,77.77553620003164,80.74478230002569,80.94466300000204,80.92907549999654,81.22926829999778,81.22926829999778,None,81.71231410000473,None,d,1,0.555331599956844,81.71231410000473,None,None,None,82.29632189997938,None,,,,,,,,,,,,,,,,,,,,,11030,1,1,2024_Jun_01_0855,stroop_task_switching2,2021.2.3,59.81125957951243,
condition/block_color,instruction/instr_color,instruction/i8,XX,green,k,diamond,color_single,颜色,,,,,,,,,,,0,0,0,0,0,0,0,0,0,1,1,1,,,,,,,,,,,,,,,,,,,,,,,,,,,,,,,,,,,83.29821570002241,83.49967950000428,83.48176480003167,83.78251639998052,83.78251639998052,None,84.2835184999858,None,k,1,0.8800944000249729,84.2835184999858,None,None,None,85.18441799998982,None,,,,,,,,,,,,,,,,,,,,,11030,1,1,2024_Jun_01_0855,stroop_task_switching2,2021.2.3,59.81125957951243,
condition/block_color,instruction/instr_color,instruction/i8,XX,yellow,j,diamond,color_single,颜色,,,,,,,,,,,0,0,0,0,0,0,0,0,0,2,2,2,,,,,,,,,,,,,,,,,,,,,,,,,,,,,,,,,,,86.18589560000692,86.38682580000022,86.36962770001264,86.67061099997954,86.67061099997954,None,87.17146320000757,None,f,0,0.912475099961739,87.17146320000757,None,None,None,88.10512770002242,None,,,,,,,,,,,,,,,,,,,,,11030,1,1,2024_Jun_01_0855,stroop_task_switching2,2021.2.3,59.81125957951243,
condition/block_color,instruction/instr_color,instruction/i8,XX,blue,f,diamond,color_single,颜色,,,,,,,,,,,0,0,0,0,0,0,0,0,0,3,3,3,,,,,,,,,,,,,,,,,,,,,,,,,,,,,,,,,,,89.10713489999762,89.30792659998406,89.29093080002349,89.59205849998398,89.59205849998398,None,90.091573600017,None,f,1,0.904197700030636,90.091573600017,None,None,None,91.02630169998156,None,,,,,,,,,,,,,,,,,,,,,11030,1,1,2024_Jun_01_0855,stroop_task_switching2,2021.2.3,59.81125957951243,
condition/block_color,instruction/instr_color,instruction/i8,XX,green,k,diamond,color_single,颜色,,,,,,,,,,,0,0,0,0,0,0,0,0,0,4,4,4,,,,,,,,,,,,,,,,,,,,,,,,,,,,,,,,,,,92.0283043999807,92.22921950003365,92.2117146999808,92.51281450001989,92.51281450001989,None,93.01315369998338,None,k,1,0.7108371999929659,93.01315369998338,None,None,None,93.74707979999948,None,,,,,,,,,,,,,,,,,,,,,11030,1,1,2024_Jun_01_0855,stroop_task_switching2,2021.2.3,59.81125957951243,
condition/block_color,instruction/instr_color,instruction/i8,XX,yellow,j,diamond,color_single,颜色,,,,,,,,,,,0,0,0,0,0,0,0,0,0,5,5,5,,,,,,,,,,,,,,,,,,,,,,,,,,,,,,,,,,,94.74867770000128,94.94973370002117,94.93230280000716,95.23372590000508,95.23372590000508,None,95.73421750002308,None,j,1,0.9415040000458248,95.73421750002308,None,None,None,96.7016293000197,None,,,,,,,,,,,,,,,,,,,,,11030,1,1,2024_Jun_01_0855,stroop_task_switching2,2021.2.3,59.81125957951243,
condition/block_color,instruction/instr_color,instruction/i8,XX,blue,f,diamond,color_single,颜色,,,,,,,,,,,0,0,0,0,0,0,0,0,0,6,6,6,,,,,,,,,,,,,,,,,,,,,,,,,,,,,,,,,,,97.70320330001414,97.9038529000245,97.88741560000926,98.18740990001243,98.18740990001243,None,98.68805460003205,None,k,0,0.5163152000168338,98.68805460003205,None,None,None,99.22217180003645,None,,,,,,,,,,,,,,,,,,,,,11030,1,1,2024_Jun_01_0855,stroop_task_switching2,2021.2.3,59.81125957951243,
condition/block_color,instruction/instr_color,instruction/i8,XX,red,d,diamond,color_single,颜色,,,,,,,,,,,0,0,0,0,0,0,0,0,0,7,7,7,,,,,,,,,,,,,,,,,,,,,,,,,,,,,,,,,,,100.22380219999468,100.42478250002023,100.4073037999915,100.70842260000063,100.70842260000063,None,101.20916760002729,None,d,1,0.5628326000296511,101.20916760002729,None,None,None,101.79268449998926,None,,,,,,,,,,,,,,,,,,,,,11030,1,1,2024_Jun_01_0855,stroop_task_switching2,2021.2.3,59.81125957951243,
condition/block_color,instruction/instr_color,instruction/i8,XX,yellow,j,diamond,color_single,颜色,,,,,,,,,,,0,0,0,0,0,0,0,0,0,8,8,8,,,,,,,,,,,,,,,,,,,,,,,,,,,,,,,,,,,102.79475749999983,102.99517379997997,102.98021449998487,103.27856549998978,103.27856549998978,None,103.77906500000972,None,j,1,0.8653472000150941,103.77906500000972,None,None,None,104.6639251000015,None,,,,,,,,,,,,,,,,,,,,,11030,1,1,2024_Jun_01_0855,stroop_task_switching2,2021.2.3,59.81125957951243,
condition/block_color,instruction/instr_color,instruction/i8,XX,blue,f,diamond,color_single,颜色,,,,,,,,,,,0,0,0,0,0,0,0,0,0,9,9,9,,,,,,,,,,,,,,,,,,,,,,,,,,,,,,,,,,,105.66573419998167,105.86610470002051,105.84965160000138,106.14944100001594,106.14944100001594,None,106.6498473000247,None,f,1,0.3863137000007555,106.6498473000247,None,None,None,107.05056060000788,None,,,,,,,,,,,,,,,,,,,,,11030,1,1,2024_Jun_01_0855,stroop_task_switching2,2021.2.3,59.81125957951243,
condition/block_color,instruction/instr_color,instruction/i8,XX,red,d,diamond,color_single,颜色,,,,,,,,,,,0,0,0,0,0,0,0,0,0,10,10,10,,,,,,,,,,,,,,,,,,,,,,,,,,,,,,,,,,,108.05194119998487,108.25220779998926,108.23608850000892,108.53812530002324,108.51950739999302,None,109.02140840003267,None,d,1,0.5271566000301391,109.02140840003267,None,None,None,109.57149810000556,None,,,,,,,,,,,,,,,,,,,,,11030,1,1,2024_Jun_01_0855,stroop_task_switching2,2021.2.3,59.81125957951243,
condition/block_color,instruction/instr_color,instruction/i8,XX,green,k,diamond,color_single,颜色,,,,,,,,,,,0,0,0,0,0,0,0,0,0,11,11,11,,,,,,,,,,,,,,,,,,,,,,,,,,,,,,,,,,,110.57307729998138,110.77289950003615,110.75657880003564,111.05861549999099,111.05861549999099,None,111.5584150000359,None,k,1,0.885655999998562,111.5584150000359,None,None,None,112.45867180003552,None,,,,,,,,,,,,,,,,,,,,,11030,1,1,2024_Jun_01_0855,stroop_task_switching2,2021.2.3,59.81125957951243,
condition/block_color,instruction/instr_color,instruction/i8,XX,blue,f,diamond,color_single,颜色,,,,,,,,,,,0,0,0,0,0,0,0,0,0,12,12,12,,,,,,,,,,,,,,,,,,,,,,,,,,,,,,,,,,,113.46059570001671,113.66113130003214,113.6450957999914,113.94539000000805,113.94539000000805,None,114.44515240000328,None,f,1,0.951312399993185,114.44515240000328,None,None,None,115.41320840001572,None,,,,,,,,,,,,,,,,,,,,,11030,1,1,2024_Jun_01_0855,stroop_task_switching2,2021.2.3,59.81125957951243,
condition/block_color,instruction/instr_color,instruction/i8,XX,red,d,diamond,color_single,颜色,,,,,,,,,,,0,0,0,0,0,0,0,0,0,13,13,13,,,,,,,,,,,,,,,,,,,,,,,,,,,,,,,,,,,116.41478039999492,116.61507519998122,116.59837640001206,116.90085710003041,116.90085710003041,None,117.4009729999816,None,d,1,0.41147369996178895,117.4009729999816,None,None,None,117.83355989999836,None,,,,,,,,,,,,,,,,,,,,,11030,1,1,2024_Jun_01_0855,stroop_task_switching2,2021.2.3,59.81125957951243,
condition/block_color,instruction/instr_color,instruction/i8,XX,green,k,diamond,color_single,颜色,,,,,,,,,,,0,0,0,0,0,0,0,0,0,14,14,14,,,,,,,,,,,,,,,,,,,,,,,,,,,,,,,,,,,118.83597080002073,119.03640320000704,119.01895569998305,119.31963119999273,119.31963119999273,None,119.8198041000287,None,k,1,0.9689246999914758,119.8198041000287,None,None,None,120.8046561999945,None,,,,,,,,,,,,,,,,,,,,,11030,1,1,2024_Jun_01_0855,stroop_task_switching2,2021.2.3,59.81125957951243,
condition/block_color,instruction/instr_color,instruction/i8,XX,yellow,j,diamond,color_single,颜色,,,,,,,,,,,0,0,0,0,0,0,0,0,0,15,15,15,,,,,,,,,,,,,,,,,,,,,,,,,,,,,,,,,,,121.80606839997927,122.0078125,121.98985770001309,122.29110119998222,122.29110119998222,None,122.79108769999584,None,j,1,0.9734538000193425,122.79108769999584,None,None,None,123.79252110002562,None,,,,,,,,,,,,,,,,,,,,,11030,1,1,2024_Jun_01_0855,stroop_task_switching2,2021.2.3,59.81125957951243,
condition/block_color,instruction/instr_color,instruction/i8,XX,red,d,diamond,color_single,颜色,,,,,,,,,,,0,0,0,0,0,0,0,0,0,16,16,16,,,,,,,,,,,,,,,,,,,,,,,,,,,,,,,,,,,124.79411279998021,124.99497490003705,124.97830700001214,125.27796420000959,125.27796420000959,None,125.7788837000262,None,d,1,0.4657829999923706,125.7788837000262,None,None,None,126.26286479999544,None,,,,,,,,,,,,,,,,,,,,,11030,1,1,2024_Jun_01_0855,stroop_task_switching2,2021.2.3,59.81125957951243,
condition/block_color,instruction/instr_color,instruction/i8,XX,green,k,diamond,color_single,颜色,,,,,,,,,,,0,0,0,0,0,0,0,0,0,17,17,17,,,,,,,,,,,,,,,,,,,,,,,,,,,,,,,,,,,127.26484870002605,127.46562939998694,127.44810450001387,127.74839219998103,127.74839219998103,None,128.25067470001522,None,k,1,0.9381052000098862,128.25067470001522,None,None,None,129.21765230002347,None,,,,,,,,,,,,,,,,,,,,,11030,1,1,2024_Jun_01_0855,stroop_task_switching2,2021.2.3,59.81125957951243,
condition/block_color,instruction/instr_color,instruction/i8,XX,yellow,j,diamond,color_single,颜色,,,,,,,,,,,0,0,0,0,0,0,0,0,0,18,18,18,,,,,,,,,,,,,,,,,,,,,,,,,,,,,,,,,,,130.2195712000248,130.42122940003173,130.40290149999782,130.7036650000373,130.7036650000373,None,131.20400820003124,None,j,1,1.040821100003086,131.20400820003124,None,None,None,132.27175569999963,None,,,,,,,,,,,,,,,,,,,,,11030,1,1,2024_Jun_01_0855,stroop_task_switching2,2021.2.3,59.81125957951243,
condition/block_color,instruction/instr_color,instruction/i8,XX,blue,f,diamond,color_single,颜色,,,,,,,,,,,0,0,0,0,0,0,0,0,0,19,19,19,,,,,,,,,,,,,,,,,,,,,,,,,,,,,,,,,,,133.2738688000245,133.47545399999944,133.4572998000076,133.75918850000016,133.75918850000016,None,134.25838329998078,None,f,1,1.034538200008683,134.25838329998078,None,None,None,135.31033200002275,None,,,,,,,,,,,,,,,,,,,,,11030,1,1,2024_Jun_01_0855,stroop_task_switching2,2021.2.3,59.81125957951243,
condition/block_color,instruction/instr_color,instruction/i8,XX,green,k,diamond,color_single,颜色,,,,,,,,,,,0,0,0,0,0,0,0,0,0,20,20,20,,,,,,,,,,,,,,,,,,,,,,,,,,,,,,,,,,,136.31211020000046,136.51279619999696,136.49596060003387,136.79553410003427,136.79553410003427,None,137.29618080001092,None,k,1,0.9727398999966681,137.29618080001092,None,None,None,138.2977741000359,None,,,,,,,,,,,,,,,,,,,,,11030,1,1,2024_Jun_01_0855,stroop_task_switching2,2021.2.3,59.81125957951243,
condition/block_color,instruction/instr_color,instruction/i8,XX,yellow,j,diamond,color_single,颜色,,,,,,,,,,,0,0,0,0,0,0,0,0,0,21,21,21,,,,,,,,,,,,,,,,,,,,,,,,,,,,,,,,,,,139.2994963999954,139.50088160001906,139.48400019999826,139.78415229998063,139.78415229998063,None,140.284561700013,None,j,1,0.8405410000123084,140.284561700013,None,None,None,141.15215969999554,None,,,,,,,,,,,,,,,,,,,,,11030,1,1,2024_Jun_01_0855,stroop_task_switching2,2021.2.3,59.81125957951243,
condition/block_color,instruction/instr_color,instruction/i8,XX,blue,f,diamond,color_single,颜色,,,,,,,,,,,0,0,0,0,0,0,0,0,0,22,22,22,,,,,,,,,,,,,,,,,,,,,,,,,,,,,,,,,,,142.1541304999846,142.35369190003257,142.3378668000223,142.6375943000312,142.6375943000312,None,143.13852029998088,None,f,1,0.795119300018996,143.13852029998088,None,None,None,143.9567235999857,None,,,,,,,,,,,,,,,,,,,,,11030,1,1,2024_Jun_01_0855,stroop_task_switching2,2021.2.3,59.81125957951243,
condition/block_color,instruction/instr_color,instruction/i8,XX,red,d,diamond,color_single,颜色,,,,,,,,,,,0,0,0,0,0,0,0,0,0,23,23,23,,,,,,,,,,,,,,,,,,,,,,,,,,,,,,,,,,,144.95759170001838,145.15823020000244,145.14262250001775,145.44259849999798,145.44259849999798,None,145.94386759999907,None,d,1,0.5176471999729984,145.94386759999907,None,None,None,146.47654150001472,None,,,,,,,,,,,,,,,,,,,,,11030,1,1,2024_Jun_01_0855,stroop_task_switching2,2021.2.3,59.81125957951243,
condition/block_color,instruction/instr_color,instruction/i8,,,,,,,,,,,,,,,,,0,0,0,0,0,0,0,0,,,,,,,,,,,,,,,,,,,,,,,,,,,,,,,,,,,,,,,,,,,,,,,,,,,,,,,,147.511640599987,None,space,2.1494417000212707,147.511640599987,None,,,,,,,,,,,,,,,11030,1,1,2024_Jun_01_0855,stroop_task_switching2,2021.2.3,59.81125957951243,
condition/block_color,instruction/instr_color,instruction/i8,,,,,,,,,,,,,,,,,0,0,0,0,,,,,,,,,,,,,,,,,,,,,,,,,,,,,,,,,,,,,,,,,,,,,,,,,,,,,,,,,,,,,,,,,,,,,,,,,,,,,,,,11030,1,1,2024_Jun_01_0855,stroop_task_switching2,2021.2.3,59.81125957951243,
condition/block_word,instruction/instr_word,instruction/i9,黄,white,j,square,word_single,单词,0.0032461461866890584,,,,,,,,,,0,1,1,1,0,0,0,0,0,0,0,0,,,,,,,,,,,,,,,,,,,,,149.6980832000263,None,space,5.092156499973498,149.6980832000263,None,155.8088812000351,156.80981280002743,156.80981280002743,157.8115683000069,157.8115683000069,None,154.8232343000127,155.82577490003314,158.84662939998088,159.04608130000997,159.02988300001016,159.3302092999802,159.3302092999802,None,159.81401480000932,None,j,1,0.8875739999930374,159.81401480000932,None,None,None,160.7324902000255,None,,,,,,,,,,,,,,,,,,,,,11030,1,1,2024_Jun_01_0855,stroop_task_switching2,2021.2.3,59.81125957951243,
condition/block_word,instruction/instr_word,instruction/i9,蓝,white,f,square,word_single,单词,0.060540570646362424,,,,,,,,,,0,1,1,1,0,0,0,0,0,1,1,1,,,,,,,,,,,,,,,,,,,,,,,,,,,,,,,,,,,161.7333560999832,161.9341143000056,161.91743219998898,162.21772230003262,162.21772230003262,None,162.73375539999688,None,f,1,0.816294000018388,162.73375539999688,None,None,None,163.5690934000304,None,,,,,,,,,,,,,,,,,,,,,11030,1,1,2024_Jun_01_0855,stroop_task_switching2,2021.2.3,59.81125957951243,
condition/block_word,instruction/instr_word,instruction/i9,黄,white,j,square,word_single,单词,0.06994067193778963,,,,,,,,,,0,1,1,1,0,0,0,0,0,2,2,2,,,,,,,,,,,,,,,,,,,,,,,,,,,,,,,,,,,164.57109729998047,164.77244810003322,164.75450089998776,165.05694260000018,165.05694260000018,None,165.5559086999856,None,j,1,0.8502941000042483,165.5559086999856,None,None,None,166.4233283000067,None,,,,,,,,,,,,,,,,,,,,,11030,1,1,2024_Jun_01_0855,stroop_task_switching2,2021.2.3,59.81125957951243,
condition/block_word,instruction/instr_word,instruction/i9,蓝,white,f,square,word_single,单词,0.08193765152950094,,,,,,,,,,0,1,1,1,0,0,0,0,0,3,3,3,,,,,,,,,,,,,,,,,,,,,,,,,,,,,,,,,,,167.42511900002137,167.6256836000248,167.6088790000067,167.90914320002776,167.90914320002776,None,168.40969010000117,None,f,1,0.7400916999904439,168.40969010000117,None,None,None,169.17794660001528,None,,,,,,,,,,,,,,,,,,,,,11030,1,1,2024_Jun_01_0855,stroop_task_switching2,2021.2.3,59.81125957951243,
condition/block_word,instruction/instr_word,instruction/i9,红,white,d,square,word_single,单词,0.1279694370605574,,,,,,,,,,0,1,1,1,0,0,0,0,0,4,4,4,,,,,,,,,,,,,,,,,,,,,,,,,,,,,,,,,,,170.1797196000116,170.3803113999893,170.36377140000695,170.6640994999907,170.6640994999907,None,171.1637533000321,None,d,1,0.5222972999908961,171.1637533000321,None,None,None,171.71592390001751,None,,,,,,,,,,,,,,,,,,,,,11030,1,1,2024_Jun_01_0855,stroop_task_switching2,2021.2.3,59.81125957951243,
condition/block_word,instruction/instr_word,instruction/i9,红,white,d,square,word_single,单词,0.18345028784879092,,,,,,,,,,0,1,1,1,0,0,0,0,0,5,5,5,,,,,,,,,,,,,,,,,,,,,,,,,,,,,,,,,,,172.71698929998092,172.91706960002193,172.90037320001284,173.20200130000012,173.20200130000012,None,173.70211250003194,None,d,1,0.5443139999988489,173.70211250003194,None,None,None,174.2685186000308,None,,,,,,,,,,,,,,,,,,,,,11030,1,1,2024_Jun_01_0855,stroop_task_switching2,2021.2.3,59.81125957951243,
condition/block_word,instruction/instr_word,instruction/i9,蓝,white,f,square,word_single,单词,0.19920386223101294,,,,,,,,,,0,1,1,1,0,0,0,0,0,6,6,6,,,,,,,,,,,,,,,,,,,,,,,,,,,,,,,,,,,175.270680000016,175.47203280002577,175.45412280003075,175.75495869998122,175.75495869998122,None,176.25543990003644,None,f,1,0.42243879998568445,176.25543990003644,None,None,None,176.70605129998876,None,,,,,,,,,,,,,,,,,,,,,11030,1,1,2024_Jun_01_0855,stroop_task_switching2,2021.2.3,59.81125957951243,
condition/block_word,instruction/instr_word,instruction/i9,蓝,white,f,square,word_single,单词,0.26360599864925405,,,,,,,,,,0,1,1,1,0,0,0,0,0,7,7,7,,,,,,,,,,,,,,,,,,,,,,,,,,,,,,,,,,,177.7075399000314,177.90847130003385,177.8911870000302,178.19201110000722,178.17544379999163,None,178.6753650000319,None,f,1,0.5787583999917842,178.6753650000319,None,None,None,179.27618660003645,None,,,,,,,,,,,,,,,,,,,,,11030,1,1,2024_Jun_01_0855,stroop_task_switching2,2021.2.3,59.81125957951243,
condition/block_word,instruction/instr_word,instruction/i9,蓝,white,f,square,word_single,单词,0.358985675745526,,,,,,,,,,0,1,1,1,0,0,0,0,0,8,8,8,,,,,,,,,,,,,,,,,,,,,,,,,,,,,,,,,,,180.27816310001072,180.47902780002914,180.4620825999882,180.7636596999946,180.7636596999946,None,181.26318330003414,None,f,1,0.38372420001542196,181.26318330003414,None,None,None,181.66340940003283,None,,,,,,,,,,,,,,,,,,,,,11030,1,1,2024_Jun_01_0855,stroop_task_switching2,2021.2.3,59.81125957951243,
condition/block_word,instruction/instr_word,instruction/i9,绿,white,k,square,word_single,单词,0.36496733802487347,,,,,,,,,,0,1,1,1,0,0,0,0,0,9,9,9,,,,,,,,,,,,,,,,,,,,,,,,,,,,,,,,,,,182.66519939998398,182.86592459998792,182.84824989998015,183.15071180002997,183.15071180002997,None,183.64946350001264,None,k,1,0.6526770000346005,183.64946350001264,None,None,None,184.31707940000342,None,,,,,,,,,,,,,,,,,,,,,11030,1,1,2024_Jun_01_0855,stroop_task_switching2,2021.2.3,59.81125957951243,
condition/block_word,instruction/instr_word,instruction/i9,黄,white,j,square,word_single,单词,0.3743513623756727,,,,,,,,,,0,1,1,1,0,0,0,0,0,10,10,10,,,,,,,,,,,,,,,,,,,,,,,,,,,,,,,,,,,185.31964390003122,185.51973609998822,185.5026816999889,185.80456210003467,185.80456210003467,None,186.30402039998444,None,j,1,0.7101070000207983,186.30402039998444,None,None,None,187.0378183000139,None,,,,,,,,,,,,,,,,,,,,,11030,1,1,2024_Jun_01_0855,stroop_task_switching2,2021.2.3,59.81125957951243,
condition/block_word,instruction/instr_word,instruction/i9,红,white,d,square,word_single,单词,0.3894803852598544,,,,,,,,,,0,1,1,1,0,0,0,0,0,11,11,11,,,,,,,,,,,,,,,,,,,,,,,,,,,,,,,,,,,188.0397049000021,188.24098479998065,188.2228228999884,188.52568520000204,188.52568520000204,None,189.04153300001053,None,d,1,0.4611346999881789,189.04153300001053,None,None,None,189.5262770000263,None,,,,,,,,,,,,,,,,,,,,,11030,1,1,2024_Jun_01_0855,stroop_task_switching2,2021.2.3,59.81125957951243,
condition/block_word,instruction/instr_word,instruction/i9,绿,white,k,square,word_single,单词,0.5393759672408067,,,,,,,,,,0,1,1,1,0,0,0,0,0,12,12,12,,,,,,,,,,,,,,,,,,,,,,,,,,,,,,,,,,,190.52700780000305,190.72762499999953,190.7107382999966,191.01092879998032,191.01092879998032,None,191.51166790002026,None,k,1,0.6710136000183411,191.51166790002026,None,None,None,192.21277650003321,None,,,,,,,,,,,,,,,,,,,,,11030,1,1,2024_Jun_01_0855,stroop_task_switching2,2021.2.3,59.81125957951243,
condition/block_word,instruction/instr_word,instruction/i9,蓝,white,f,square,word_single,单词,0.5995731954831104,,,,,,,,,,0,1,1,1,0,0,0,0,0,13,13,13,,,,,,,,,,,,,,,,,,,,,,,,,,,,,,,,,,,193.21490810002433,193.41541760001564,193.39854840002954,193.69826520001516,193.69826520001516,None,194.1987672999967,None,f,1,0.6004067999892868,194.1987672999967,None,None,None,194.81723069999134,None,,,,,,,,,,,,,,,,,,,,,11030,1,1,2024_Jun_01_0855,stroop_task_switching2,2021.2.3,59.81125957951243,
condition/block_word,instruction/instr_word,instruction/i9,红,white,d,square,word_single,单词,0.6298674479151414,,,,,,,,,,0,1,1,1,0,0,0,0,0,14,14,14,,,,,,,,,,,,,,,,,,,,,,,,,,,,,,,,,,,195.81785039999522,196.01811699999962,196.00196460000006,196.3018759000115,196.3018759000115,None,196.80335649999324,None,d,1,0.4432587000192143,196.80335649999324,None,None,None,197.2701825000113,None,,,,,,,,,,,,,,,,,,,,,11030,1,1,2024_Jun_01_0855,stroop_task_switching2,2021.2.3,59.81125957951243,
condition/block_word,instruction/instr_word,instruction/i9,红,white,d,square,word_single,单词,0.7389942282348904,,,,,,,,,,0,1,1,1,0,0,0,0,0,15,15,15,,,,,,,,,,,,,,,,,,,,,,,,,,,,,,,,,,,198.27199660002952,198.47186290001264,198.45597270003054,198.75621469999896,198.75621469999896,None,199.2567710999865,None,d,1,0.6059799999929965,199.2567710999865,None,None,None,199.89069319999544,None,,,,,,,,,,,,,,,,,,,,,11030,1,1,2024_Jun_01_0855,stroop_task_switching2,2021.2.3,59.81125957951243,
condition/block_word,instruction/instr_word,instruction/i9,绿,white,k,square,word_single,单词,0.7550853947239682,,,,,,,,,,0,1,1,1,0,0,0,0,0,16,16,16,,,,,,,,,,,,,,,,,,,,,,,,,,,,,,,,,,,200.89270289998967,201.09430659998907,201.07607469998766,201.3764216999989,201.3764216999989,None,201.87687410000945,None,k,1,0.6515910999733023,201.87687410000945,None,None,None,202.54448039998533,None,,,,,,,,,,,,,,,,,,,,,11030,1,1,2024_Jun_01_0855,stroop_task_switching2,2021.2.3,59.81125957951243,
condition/block_word,instruction/instr_word,instruction/i9,绿,white,k,square,word_single,单词,0.8019302780428206,,,,,,,,,,0,1,1,1,0,0,0,0,0,17,17,17,,,,,,,,,,,,,,,,,,,,,,,,,,,,,,,,,,,203.5462785999989,203.74656870000763,203.7297208000091,204.03186220000498,204.03186220000498,None,204.53157609998016,None,k,1,0.6112000999855809,204.53157609998016,None,None,None,205.16567060002126,None,,,,,,,,,,,,,,,,,,,,,11030,1,1,2024_Jun_01_0855,stroop_task_switching2,2021.2.3,59.81125957951243,
condition/block_word,instruction/instr_word,instruction/i9,绿,white,k,square,word_single,单词,0.8110702914095343,,,,,,,,,,0,1,1,1,0,0,0,0,0,18,18,18,,,,,,,,,,,,,,,,,,,,,,,,,,,,,,,,,,,206.16720030002762,206.3671971000149,206.35102549998555,206.65281810000306,206.65281810000306,None,207.15147059998708,None,k,1,0.5351537999813445,207.15147059998708,None,None,None,207.70236180000938,None,,,,,,,,,,,,,,,,,,,,,11030,1,1,2024_Jun_01_0855,stroop_task_switching2,2021.2.3,59.81125957951243,
condition/block_word,instruction/instr_word,instruction/i9,黄,white,j,square,word_single,单词,0.8176594937590999,,,,,,,,,,0,1,1,1,0,0,0,0,0,19,19,19,,,,,,,,,,,,,,,,,,,,,,,,,,,,,,,,,,,208.70465520001017,208.90513369999826,208.8873244000133,209.18930600001477,209.18930600001477,None,209.68944970000302,None,j,1,0.7826425000093877,209.68944970000302,None,None,None,210.49015399999917,None,,,,,,,,,,,,,,,,,,,,,11030,1,1,2024_Jun_01_0855,stroop_task_switching2,2021.2.3,59.81125957951243,
condition/block_word,instruction/instr_word,instruction/i9,红,white,d,square,word_single,单词,0.8955794421104841,,,,,,,,,,0,1,1,1,0,0,0,0,0,20,20,20,,,,,,,,,,,,,,,,,,,,,,,,,,,,,,,,,,,211.49258990003727,211.69301290001022,211.6751551000052,211.97644060000312,211.97644060000312,None,212.47618380002677,None,d,1,0.49069529998814687,212.47618380002677,None,None,None,212.99394160002703,None,,,,,,,,,,,,,,,,,,,,,11030,1,1,2024_Jun_01_0855,stroop_task_switching2,2021.2.3,59.81125957951243,
condition/block_word,instruction/instr_word,instruction/i9,绿,white,k,square,word_single,单词,0.9113598052474129,,,,,,,,,,0,1,1,1,0,0,0,0,0,21,21,21,,,,,,,,,,,,,,,,,,,,,,,,,,,,,,,,,,,213.9956987000187,214.1957826000289,214.18050220003352,214.48031439998886,214.48031439998886,None,214.98091410001507,None,k,1,1.2184430999914184,214.98091410001507,None,None,None,216.21564050001325,None,,,,,,,,,,,,,,,,,,,,,11030,1,1,2024_Jun_01_0855,stroop_task_switching2,2021.2.3,59.81125957951243,
condition/block_word,instruction/instr_word,instruction/i9,黄,white,j,square,word_single,单词,0.9215930958042953,,,,,,,,,,0,1,1,1,0,0,0,0,0,22,22,22,,,,,,,,,,,,,,,,,,,,,,,,,,,,,,,,,,,217.21683059999486,217.41829100000905,217.40036650002003,217.7013653999893,217.7013653999893,None,218.20150939997984,None,j,1,0.9498516999883577,218.20150939997984,None,None,None,219.17024569999194,None,,,,,,,,,,,,,,,,,,,,,11030,1,1,2024_Jun_01_0855,stroop_task_switching2,2021.2.3,59.81125957951243,
condition/block_word,instruction/instr_word,instruction/i9,黄,white,j,square,word_single,单词,0.9493525498837774,,,,,,,,,,0,1,1,1,0,0,0,0,0,23,23,23,,,,,,,,,,,,,,,,,,,,,,,,,,,,,,,,,,,220.17206419998547,220.37215700000525,220.35558010003297,220.6562285000109,220.6562285000109,None,221.1566588000278,None,j,1,0.722709699999541,221.1566588000278,None,None,None,221.90706390002742,None,,,,,,,,,,,,,,,,,,,,,11030,1,1,2024_Jun_01_0855,stroop_task_switching2,2021.2.3,59.81125957951243,
condition/block_word,instruction/instr_word,instruction/i9,,,,,,,,,,,,,,,,,0,1,1,1,0,0,0,0,,,,,,,,,,,,,,,,,,,,,,,,,,,,,,,,,,,,,,,,,,,,,,,,,,,,,,,,222.9083896999946,None,space,1.5474431000184268,222.9083896999946,None,,,,,,,,,,,,,,,11030,1,1,2024_Jun_01_0855,stroop_task_switching2,2021.2.3,59.81125957951243,
condition/block_word,instruction/instr_word,instruction/i9,,,,,,,,,,,,,,,,,0,1,1,1,,,,,,,,,,,,,,,,,,,,,,,,,,,,,,,,,,,,,,,,,,,,,,,,,,,,,,,,,,,,,,,,,,,,,,,,,,,,,,,,11030,1,1,2024_Jun_01_0855,stroop_task_switching2,2021.2.3,59.81125957951243,
condition/block_mixed,instruction/instr_mixed,instruction/i10,蓝,red,d,diamond,color_mix,颜色,,incompatible,0,,,,,,,,0,2,2,2,0,0,0,0,0,0,0,0,,,,,,,,,,,,,,,,,,,,,224.494391300017,None,space,2.9703137999749742,224.494391300017,None,228.48394429998007,229.48612770001637,229.48612770001637,230.48800790001405,230.48800790001405,None,227.50054209999507,228.50125470000785,231.52273760002572,231.72313210001448,231.70520740002394,232.0074810999795,232.0074810999795,None,232.48973929998465,None,d,1,1.0059904999798164,232.48973929998465,None,None,None,233.52482160000363,None,,,,,,,,,,,,,,,,,,,,,11030,1,1,2024_Jun_01_0855,stroop_task_switching2,2021.2.3,59.81125957951243,
condition/block_mixed,instruction/instr_mixed,instruction/i10,绿,yellow,j,diamond,color_mix,颜色,,incompatible,1,,,,,,,,0,2,2,2,0,0,0,0,0,1,1,1,,,,,,,,,,,,,,,,,,,,,,,,,,,,,,,,,,,234.52612350002164,234.72705089999363,234.71141550003085,235.0114611000172,235.0114611000172,None,235.511222000001,None,j,1,1.1685685000265948,235.511222000001,None,None,None,236.6961461000028,None,,,,,,,,,,,,,,,,,,,,,11030,1,1,2024_Jun_01_0855,stroop_task_switching2,2021.2.3,59.81125957951243,
condition/block_mixed,instruction/instr_mixed,instruction/i10,红,green,k,diamond,color_mix,颜色,,incompatible,1,,,,,,,,0,2,2,2,0,0,0,0,0,2,2,2,,,,,,,,,,,,,,,,,,,,,,,,,,,,,,,,,,,237.6981360000209,237.89914739999222,237.8813256000285,238.18279150000308,238.18279150000308,None,238.68290930002695,None,k,1,0.9086123000015505,238.68290930002695,None,None,None,239.61732030002167,None,,,,,,,,,,,,,,,,,,,,,11030,1,1,2024_Jun_01_0855,stroop_task_switching2,2021.2.3,59.81125957951243,
condition/block_mixed,instruction/instr_mixed,instruction/i10,蓝,red,d,diamond,color_mix,颜色,,incompatible,1,,,,,,,,0,2,2,2,0,0,0,0,0,3,3,3,,,,,,,,,,,,,,,,,,,,,,,,,,,,,,,,,,,240.61944520001998,240.82047099998454,240.8026308999979,241.1025656000129,241.1025656000129,None,241.60329120000824,None,d,1,0.7011575000360608,241.60329120000824,None,None,None,242.32166860002326,None,,,,,,,,,,,,,,,,,,,,,11030,1,1,2024_Jun_01_0855,stroop_task_switching2,2021.2.3,59.81125957951243,
condition/block_mixed,instruction/instr_mixed,instruction/i10,红,blue,f,diamond,color_mix,颜色,,incompatible,1,,,,,,,,0,2,2,2,0,0,0,0,0,4,4,4,,,,,,,,,,,,,,,,,,,,,,,,,,,,,,,,,,,243.3236234000069,243.52292630000738,243.5063313000137,243.8067837000126,243.8067837000126,None,244.30767950002337,None,f,1,1.004594600002747,244.30767950002337,None,None,None,245.34328410000307,None,,,,,,,,,,,,,,,,,,,,,11030,1,1,2024_Jun_01_0855,stroop_task_switching2,2021.2.3,59.81125957951243,
condition/block_mixed,instruction/instr_mixed,instruction/i10,红,blue,d,square,color_mix,单词,,incompatible,2,,,,,,,,0,2,2,2,0,0,0,0,0,5,5,5,,,,,,,,,,,,,,,,,,,,,,,,,,,,,,,,,,,246.3444193000323,246.5469684000127,246.52793169999495,246.82813059998443,246.82813059998443,None,247.32901099999435,None,d,1,0.7348529999726452,247.32901099999435,None,None,None,248.07993990002433,None,,,,,,,,,,,,,,,,,,,,,11030,1,1,2024_Jun_01_0855,stroop_task_switching2,2021.2.3,59.81125957951243,
condition/block_mixed,instruction/instr_mixed,instruction/i10,红,yellow,j,diamond,color_mix,颜色,,incompatible,2,,,,,,,,0,2,2,2,0,0,0,0,0,6,6,6,,,,,,,,,,,,,,,,,,,,,,,,,,,,,,,,,,,249.08223780000117,249.28190420003375,249.26592079998227,249.5654435000033,249.5654435000033,None,250.06660229997942,None,f,0,1.3977347000036389,250.06660229997942,None,None,None,251.48515130003216,None,,,,,,,,,,,,,,,,,,,,,11030,1,1,2024_Jun_01_0855,stroop_task_switching2,2021.2.3,59.81125957951243,
condition/block_mixed,instruction/instr_mixed,instruction/i10,红,yellow,d,square,color_mix,单词,,incompatible,2,,,,,,,,0,2,2,2,0,0,0,0,0,7,7,7,,,,,,,,,,,,,,,,,,,,,,,,,,,,,,,,,,,252.48660380003275,252.6878973999992,252.6703930000076,252.9717277000309,252.9717277000309,None,253.47233200003393,None,d,1,0.8559760000207461,253.47233200003393,None,None,None,254.35667140001897,None,,,,,,,,,,,,,,,,,,,,,11030,1,1,2024_Jun_01_0855,stroop_task_switching2,2021.2.3,59.81125957951243,
condition/block_mixed,instruction/instr_mixed,instruction/i10,绿,blue,k,square,color_mix,单词,,incompatible,1,,,,,,,,0,2,2,2,0,0,0,0,0,8,8,8,,,,,,,,,,,,,,,,,,,,,,,,,,,,,,,,,,,255.35838270001113,255.55899150000187,255.5410508000059,255.84344610001426,255.84344610001426,None,256.34248859999934,None,k,1,1.9778488000156358,256.34248859999934,None,None,None,258.3456234000041,None,,,,,,,,,,,,,,,,,,,,,11030,1,1,2024_Jun_01_0855,stroop_task_switching2,2021.2.3,59.81125957951243,
condition/block_mixed,instruction/instr_mixed,instruction/i10,蓝,green,k,diamond,color_mix,颜色,,incompatible,2,,,,,,,,0,2,2,2,0,0,0,0,0,9,9,9,,,,,,,,,,,,,,,,,,,,,,,,,,,,,,,,,,,259.3476902000257,259.548404000001,259.53103770001326,259.8310430999845,259.8310430999845,None,260.3324687000131,None,k,1,0.9077850999892689,260.3324687000131,None,None,None,261.2666964000091,None,,,,,,,,,,,,,,,,,,,,,11030,1,1,2024_Jun_01_0855,stroop_task_switching2,2021.2.3,59.81125957951243,
condition/block_mixed,instruction/instr_mixed,instruction/i10,蓝,yellow,f,square,color_mix,单词,,incompatible,2,,,,,,,,0,2,2,2,0,0,0,0,0,10,10,10,,,,,,,,,,,,,,,,,,,,,,,,,,,,,,,,,,,262.2686342999805,262.46902570000384,262.451944200031,262.75297159998445,262.75297159998445,None,263.25294929998927,None,j,0,1.9874446999747306,263.25294929998927,None,None,None,265.2561969999806,None,,,,,,,,,,,,,,,,,,,,,11030,1,1,2024_Jun_01_0855,stroop_task_switching2,2021.2.3,59.81125957951243,
condition/block_mixed,instruction/instr_mixed,instruction/i10,蓝,green,f,square,color_mix,单词,,incompatible,1,,,,,,,,0,2,2,2,0,0,0,0,0,11,11,11,,,,,,,,,,,,,,,,,,,,,,,,,,,,,,,,,,,266.2575545000145,266.45821040001465,266.44105189997936,266.7413457999937,266.7413457999937,None,267.24308949999977,None,k,0,1.9735641999868676,267.24308949999977,None,None,None,269.2451827999903,None,,,,,,,,,,,,,,,,,,,,,11030,1,1,2024_Jun_01_0855,stroop_task_switching2,2021.2.3,59.81125957951243,
condition/block_mixed,instruction/instr_mixed,instruction/i10,绿,yellow,k,square,color_mix,单词,,incompatible,1,,,,,,,,0,2,2,2,0,0,0,0,0,12,12,12,,,,,,,,,,,,,,,,,,,,,,,,,,,,,,,,,,,270.24678240000503,270.4476377000101,270.43102399999043,270.7314121000236,270.7314121000236,None,271.23146809998434,None,j,0,1.4016791000030935,271.23146809998434,None,None,None,272.6503593000234,None,,,,,,,,,,,,,,,,,,,,,11030,1,1,2024_Jun_01_0855,stroop_task_switching2,2021.2.3,59.81125957951243,
condition/block_mixed,instruction/instr_mixed,instruction/i10,绿,blue,f,diamond,color_mix,颜色,,incompatible,2,,,,,,,,0,2,2,2,0,0,0,0,0,13,13,13,,,,,,,,,,,,,,,,,,,,,,,,,,,,,,,,,,,273.6518892000313,273.853068299999,273.8354557999992,274.1374651999795,274.1374651999795,None,274.63668009999674,None,f,1,1.0760291999904439,274.63668009999674,None,None,None,275.7383120000013,None,,,,,,,,,,,,,,,,,,,,,11030,1,1,2024_Jun_01_0855,stroop_task_switching2,2021.2.3,59.81125957951243,
condition/block_mixed,instruction/instr_mixed,instruction/i10,黄,red,j,square,color_mix,单词,,incompatible,2,,,,,,,,0,2,2,2,0,0,0,0,0,14,14,14,,,,,,,,,,,,,,,,,,,,,,,,,,,,,,,,,,,276.73979289998533,276.9415998000186,276.9236254999996,277.2240190000157,277.2240190000157,None,277.725312900031,None,d,0,2.5235979999997653,277.725312900031,None,None,None,280.2785293000052,None,,,,,,,,,,,,,,,,,,,,,11030,1,1,2024_Jun_01_0855,stroop_task_switching2,2021.2.3,59.81125957951243,
condition/block_mixed,instruction/instr_mixed,instruction/i10,蓝,yellow,j,diamond,color_mix,颜色,,incompatible,2,,,,,,,,0,2,2,2,0,0,0,0,0,15,15,15,,,,,,,,,,,,,,,,,,,,,,,,,,,,,,,,,,,281.2798759000143,281.48022880003555,281.4638448000187,281.7646269000252,281.7646269000252,None,282.2649466000148,None,f,0,2.1119538000202738,282.2649466000148,None,None,None,284.4022568000364,None,,,,,,,,,,,,,,,,,,,,,11030,1,1,2024_Jun_01_0855,stroop_task_switching2,2021.2.3,59.81125957951243,
condition/block_mixed,instruction/instr_mixed,instruction/i10,黄,red,d,diamond,color_mix,颜色,,incompatible,1,,,,,,,,0,2,2,2,0,0,0,0,0,16,16,16,,,,,,,,,,,,,,,,,,,,,,,,,,,,,,,,,,,285.40298710000934,285.6039717000094,285.5864624999813,285.88902390003204,285.88902390003204,None,286.3876298000105,None,d,1,1.60527010000078,286.3876298000105,None,None,None,288.02329400001327,None,,,,,,,,,,,,,,,,,,,,,11030,1,1,2024_Jun_01_0855,stroop_task_switching2,2021.2.3,59.81125957951243,
condition/block_mixed,instruction/instr_mixed,instruction/i10,绿,red,k,square,color_mix,单词,,incompatible,2,,,,,,,,0,2,2,2,0,0,0,0,0,17,17,17,,,,,,,,,,,,,,,,,,,,,,,,,,,,,,,,,,,289.02551669999957,289.2253301999881,289.20918940001866,289.5091490999912,289.5091490999912,None,290.0098267000285,None,k,1,1.6073230000329204,290.0098267000285,None,None,None,291.6464036999969,None,,,,,,,,,,,,,,,,,,,,,11030,1,1,2024_Jun_01_0855,stroop_task_switching2,2021.2.3,59.81125957951243,
condition/block_mixed,instruction/instr_mixed,instruction/i10,红,green,d,square,color_mix,单词,,incompatible,1,,,,,,,,0,2,2,2,0,0,0,0,0,18,18,18,,,,,,,,,,,,,,,,,,,,,,,,,,,,,,,,,,,292.6473156000138,292.8473791999859,292.8316602000268,293.1309178000083,293.1309178000083,None,293.6319352000137,None,d,1,1.993236700014677,293.6319352000137,None,None,None,295.65223290002905,None,,,,,,,,,,,,,,,,,,,,,11030,1,1,2024_Jun_01_0855,stroop_task_switching2,2021.2.3,59.81125957951243,
condition/block_mixed,instruction/instr_mixed,instruction/i10,黄,blue,f,diamond,color_mix,颜色,,incompatible,2,,,,,,,,0,2,2,2,0,0,0,0,0,19,19,19,,,,,,,,,,,,,,,,,,,,,,,,,,,,,,,,,,,296.65413889999036,296.8550442000269,296.83682189998217,297.1372311000014,297.1372311000014,None,297.63833570003044,None,f,1,0.9070479000220075,297.63833570003044,None,None,None,298.57273610000266,None,,,,,,,,,,,,,,,,,,,,,11030,1,1,2024_Jun_01_0855,stroop_task_switching2,2021.2.3,59.81125957951243,
condition/block_mixed,instruction/instr_mixed,instruction/i10,黄,green,k,diamond,color_mix,颜色,,incompatible,1,,,,,,,,0,2,2,2,0,0,0,0,0,20,20,20,,,,,,,,,,,,,,,,,,,,,,,,,,,,,,,,,,,299.57526150002377,299.7754169999971,299.7578591000056,300.0588871000218,300.0588871000218,None,300.5594436000101,None,j,0,1.6738754999823868,300.5594436000101,None,None,None,302.26175360003253,None,,,,,,,,,,,,,,,,,,,,,11030,1,1,2024_Jun_01_0855,stroop_task_switching2,2021.2.3,59.81125957951243,
condition/block_mixed,instruction/instr_mixed,instruction/i10,黄,green,j,square,color_mix,单词,,incompatible,2,,,,,,,,0,2,2,2,0,0,0,0,0,21,21,21,,,,,,,,,,,,,,,,,,,,,,,,,,,,,,,,,,,303.26437009999063,303.46409690001747,303.4480806000065,303.7472841999843,303.7472841999843,None,304.24799320002785,None,j,1,2.0179096999927424,304.24799320002785,None,None,None,306.2844720000285,None,,,,,,,,,,,,,,,,,,,,,11030,1,1,2024_Jun_01_0855,stroop_task_switching2,2021.2.3,59.81125957951243,
condition/block_mixed,instruction/instr_mixed,instruction/i10,黄,blue,j,square,color_mix,单词,,incompatible,1,,,,,,,,0,2,2,2,0,0,0,0,0,22,22,22,,,,,,,,,,,,,,,,,,,,,,,,,,,,,,,,,,,307.28601590002654,307.48609379999107,307.46980060002534,307.77000610000687,307.77000610000687,None,308.27061599999433,None,j,1,2.1871792000019923,308.27061599999433,None,None,None,310.47404760000063,None,,,,,,,,,,,,,,,,,,,,,11030,1,1,2024_Jun_01_0855,stroop_task_switching2,2021.2.3,59.81125957951243,
condition/block_mixed,instruction/instr_mixed,instruction/i10,蓝,red,f,square,color_mix,单词,,incompatible,1,,,,,,,,0,2,2,2,0,0,0,0,0,23,23,23,,,,,,,,,,,,,,,,,,,,,,,,,,,,,,,,,,,311.4762828000239,311.67578420002246,311.6597371000098,311.9611664999975,311.9611664999975,None,312.46155730000464,None,f,1,2.1242487999843433,312.46155730000464,None,None,None,314.6140952000278,None,,,,,,,,,,,,,,,,,,,,,11030,1,1,2024_Jun_01_0855,stroop_task_switching2,2021.2.3,59.81125957951243,
condition/block_mixed,instruction/instr_mixed,instruction/i10,绿,red,d,diamond,color_mix,颜色,,incompatible,2,,,,,,,,0,2,2,2,0,0,0,0,0,24,24,24,,,,,,,,,,,,,,,,,,,,,,,,,,,,,,,,,,,315.6150679999846,315.81713630002923,315.7987107000081,316.0993569000275,316.0993569000275,None,316.60037950001424,None,d,1,2.1934205999714322,316.60037950001424,None,None,None,318.81970719998935,None,,,,,,,,,,,,,,,,,,,,,11030,1,1,2024_Jun_01_0855,stroop_task_switching2,2021.2.3,59.81125957951243,
condition/block_mixed,instruction/instr_mixed,instruction/i10,绿,green,k,diamond,color_mix,颜色,,compatible,1,,,,,,,,0,2,2,2,0,0,0,0,0,25,25,25,,,,,,,,,,,,,,,,,,,,,,,,,,,,,,,,,,,319.8213086000178,320.02239450003253,320.00488900003256,320.3052314000088,320.3052314000088,None,320.80638249998447,None,k,1,1.1474902000045404,320.80638249998447,None,None,None,321.97449589997996,None,,,,,,,,,,,,,,,,,,,,,11030,1,1,2024_Jun_01_0855,stroop_task_switching2,2021.2.3,59.81125957951243,
condition/block_mixed,instruction/instr_mixed,instruction/i10,蓝,blue,f,diamond,color_mix,颜色,,compatible,1,,,,,,,,0,2,2,2,0,0,0,0,0,26,26,26,,,,,,,,,,,,,,,,,,,,,,,,,,,,,,,,,,,322.9766181000159,323.1771611000295,323.16061590000754,323.4620079000015,323.4620079000015,None,323.9608043000335,None,f,1,1.809348599985242,323.9608043000335,None,None,None,325.7970983000123,None,,,,,,,,,,,,,,,,,,,,,11030,1,1,2024_Jun_01_0855,stroop_task_switching2,2021.2.3,59.81125957951243,
condition/block_mixed,instruction/instr_mixed,instruction/i10,绿,green,k,square,color_mix,单词,,compatible,2,,,,,,,,0,2,2,2,0,0,0,0,0,27,27,27,,,,,,,,,,,,,,,,,,,,,,,,,,,,,,,,,,,326.79870220000157,326.99933289998444,326.9823199000093,327.28253419999965,327.28253419999965,None,327.7840341000119,None,k,1,1.8901205000001937,327.7840341000119,None,None,None,329.7028743000119,None,,,,,,,,,,,,,,,,,,,,,11030,1,1,2024_Jun_01_0855,stroop_task_switching2,2021.2.3,59.81125957951243,
condition/block_mixed,instruction/instr_mixed,instruction/i10,绿,green,k,square,color_mix,单词,,compatible,1,,,,,,,,0,2,2,2,0,0,0,0,0,28,28,28,,,,,,,,,,,,,,,,,,,,,,,,,,,,,,,,,,,330.7046173000126,330.9048425999936,330.8896625000052,331.1890371000045,331.1890371000045,None,331.6892355000018,None,k,1,0.6808493999997154,331.6892355000018,None,None,None,332.39035629999125,None,,,,,,,,,,,,,,,,,,,,,11030,1,1,2024_Jun_01_0855,stroop_task_switching2,2021.2.3,59.81125957951243,
condition/block_mixed,instruction/instr_mixed,instruction/i10,蓝,blue,f,square,color_mix,单词,,compatible,1,,,,,,,,0,2,2,2,0,0,0,0,0,29,29,29,,,,,,,,,,,,,,,,,,,,,,,,,,,,,,,,,,,333.3924207999953,333.5922206999967,333.57559710001806,333.8778685000143,333.8778685000143,None,334.3777777000214,None,j,0,1.4647759000072256,334.3777777000214,None,None,None,335.8626309999963,None,,,,,,,,,,,,,,,,,,,,,11030,1,1,2024_Jun_01_0855,stroop_task_switching2,2021.2.3,59.81125957951243,
condition/block_mixed,instruction/instr_mixed,instruction/i10,黄,yellow,j,diamond,color_mix,颜色,,compatible,2,,,,,,,,0,2,2,2,0,0,0,0,0,30,30,30,,,,,,,,,,,,,,,,,,,,,,,,,,,,,,,,,,,336.8639795000199,337.0655776000349,337.0474978000275,337.34758000000147,337.34758000000147,None,337.8489946000045,None,f,0,1.6897158999927342,337.8489946000045,None,None,None,339.5677242000238,None,,,,,,,,,,,,,,,,,,,,,11030,1,1,2024_Jun_01_0855,stroop_task_switching2,2021.2.3,59.81125957951243,
condition/block_mixed,instruction/instr_mixed,instruction/i10,绿,green,k,square,color_mix,单词,,compatible,2,,,,,,,,0,2,2,2,0,0,0,0,0,31,31,31,,,,,,,,,,,,,,,,,,,,,,,,,,,,,,,,,,,340.5699059999897,340.7701734000002,340.752957699995,341.0548612999846,341.0548612999846,None,341.5540704000159,None,k,1,1.6015975000336766,341.5540704000159,None,None,None,343.17385590000777,None,,,,,,,,,,,,,,,,,,,,,11030,1,1,2024_Jun_01_0855,stroop_task_switching2,2021.2.3,59.81125957951243,
condition/block_mixed,instruction/instr_mixed,instruction/i10,黄,yellow,j,square,color_mix,单词,,compatible,1,,,,,,,,0,2,2,2,0,0,0,0,0,32,32,32,,,,,,,,,,,,,,,,,,,,,,,,,,,,,,,,,,,344.17500859999564,344.3753325000289,344.3585603000247,344.6596566000371,344.6596566000371,None,345.15963330003433,None,j,1,1.6430042999563739,345.15963330003433,None,None,None,346.8288653999916,None,,,,,,,,,,,,,,,,,,,,,11030,1,1,2024_Jun_01_0855,stroop_task_switching2,2021.2.3,59.81125957951243,
condition/block_mixed,instruction/instr_mixed,instruction/i10,绿,green,k,diamond,color_mix,颜色,,compatible,2,,,,,,,,0,2,2,2,0,0,0,0,0,33,33,33,,,,,,,,,,,,,,,,,,,,,,,,,,,,,,,,,,,347.8304122000118,348.0324153000256,348.01383499999065,348.31444679998094,348.31444679998094,None,348.8151150000049,None,k,1,1.0594251999864355,348.8151150000049,None,None,None,349.9000043999986,None,,,,,,,,,,,,,,,,,,,,,11030,1,1,2024_Jun_01_0855,stroop_task_switching2,2021.2.3,59.81125957951243,
condition/block_mixed,instruction/instr_mixed,instruction/i10,红,red,d,square,color_mix,单词,,compatible,2,,,,,,,,0,2,2,2,0,0,0,0,0,34,34,34,,,,,,,,,,,,,,,,,,,,,,,,,,,,,,,,,,,350.9016694999882,351.10203300003195,351.08638699998846,351.38628909998806,351.38628909998806,None,351.8867366000195,None,d,1,1.4362988999928348,351.8867366000195,None,None,None,353.33852049999405,None,,,,,,,,,,,,,,,,,,,,,11030,1,1,2024_Jun_01_0855,stroop_task_switching2,2021.2.3,59.81125957951243,
condition/block_mixed,instruction/instr_mixed,instruction/i10,黄,yellow,j,square,color_mix,单词,,compatible,1,,,,,,,,0,2,2,2,0,0,0,0,0,35,35,35,,,,,,,,,,,,,,,,,,,,,,,,,,,,,,,,,,,354.3403434000211,354.54099509998923,354.52451960003236,354.82463540002936,354.82463540002936,None,355.32488249999005,None,j,1,1.7660138999926858,355.32488249999005,None,None,None,357.1110890000127,None,,,,,,,,,,,,,,,,,,,,,11030,1,1,2024_Jun_01_0855,stroop_task_switching2,2021.2.3,59.81125957951243,
condition/block_mixed,instruction/instr_mixed,instruction/i10,绿,green,k,diamond,color_mix,颜色,,compatible,2,,,,,,,,0,2,2,2,0,0,0,0,0,36,36,36,,,,,,,,,,,,,,,,,,,,,,,,,,,,,,,,,,,358.112798999995,358.3128430999932,358.2965970999794,358.59665640001185,358.59665640001185,None,359.097255300032,None,k,1,0.7861054000095464,359.097255300032,None,None,None,359.89847640000517,None,,,,,,,,,,,,,,,,,,,,,11030,1,1,2024_Jun_01_0855,stroop_task_switching2,2021.2.3,59.81125957951243,
condition/block_mixed,instruction/instr_mixed,instruction/i10,蓝,blue,f,square,color_mix,单词,,compatible,2,,,,,,,,0,2,2,2,0,0,0,0,0,37,37,37,,,,,,,,,,,,,,,,,,,,,,,,,,,,,,,,,,,360.90046989999246,361.10228580003604,361.08377490000566,361.3851077000145,361.3851077000145,None,361.8849783000187,None,f,1,1.509975900000427,361.8849783000187,None,None,None,363.4204631000175,None,,,,,,,,,,,,,,,,,,,,,11030,1,1,2024_Jun_01_0855,stroop_task_switching2,2021.2.3,59.81125957951243,
condition/block_mixed,instruction/instr_mixed,instruction/i10,红,red,d,square,color_mix,单词,,compatible,1,,,,,,,,0,2,2,2,0,0,0,0,0,38,38,38,,,,,,,,,,,,,,,,,,,,,,,,,,,,,,,,,,,364.4224252999993,364.6246304999804,364.6056575999828,364.9073375000153,364.9073375000153,None,365.4072191999876,None,d,1,0.5962898000143468,365.4072191999876,None,None,None,366.02470050001284,None,,,,,,,,,,,,,,,,,,,,,11030,1,1,2024_Jun_01_0855,stroop_task_switching2,2021.2.3,59.81125957951243,
condition/block_mixed,instruction/instr_mixed,instruction/i10,黄,yellow,j,diamond,color_mix,颜色,,compatible,2,,,,,,,,0,2,2,2,0,0,0,0,0,39,39,39,,,,,,,,,,,,,,,,,,,,,,,,,,,,,,,,,,,367.0259745999938,367.2286707999883,367.2096193000325,367.510305600008,367.510305600008,None,368.0107133000274,None,j,1,1.0244967000326142,368.0107133000274,None,None,None,369.0623119000229,None,,,,,,,,,,,,,,,,,,,,,11030,1,1,2024_Jun_01_0855,stroop_task_switching2,2021.2.3,59.81125957951243,
condition/block_mixed,instruction/instr_mixed,instruction/i10,黄,yellow,j,square,color_mix,单词,,compatible,2,,,,,,,,0,2,2,2,0,0,0,0,0,40,40,40,,,,,,,,,,,,,,,,,,,,,,,,,,,,,,,,,,,370.06433170003584,370.26446350000333,370.24918129999423,370.5484429000062,370.5484429000062,None,371.04881040001055,None,j,1,0.7543072999687865,371.04881040001055,None,None,None,371.83304970001336,None,,,,,,,,,,,,,,,,,,,,,11030,1,1,2024_Jun_01_0855,stroop_task_switching2,2021.2.3,59.81125957951243,
condition/block_mixed,instruction/instr_mixed,instruction/i10,蓝,blue,f,square,color_mix,单词,,compatible,1,,,,,,,,0,2,2,2,0,0,0,0,0,41,41,41,,,,,,,,,,,,,,,,,,,,,,,,,,,,,,,,,,,372.8348154000123,373.0366620999994,373.01822919998085,373.3190801999881,373.3190801999881,None,373.8200918000075,None,f,1,1.2872184999869205,373.8200918000075,None,None,None,375.1393063000287,None,,,,,,,,,,,,,,,,,,,,,11030,1,1,2024_Jun_01_0855,stroop_task_switching2,2021.2.3,59.81125957951243,
condition/block_mixed,instruction/instr_mixed,instruction/i10,蓝,blue,f,diamond,color_mix,颜色,,compatible,2,,,,,,,,0,2,2,2,0,0,0,0,0,42,42,42,,,,,,,,,,,,,,,,,,,,,,,,,,,,,,,,,,,376.13996050000424,376.3399642999866,376.32355860003736,376.62479109998094,376.62479109998094,None,377.1245710999938,None,f,1,0.7911582000087947,377.1245710999938,None,None,None,377.9423095000093,None,,,,,,,,,,,,,,,,,,,,,11030,1,1,2024_Jun_01_0855,stroop_task_switching2,2021.2.3,59.81125957951243,
condition/block_mixed,instruction/instr_mixed,instruction/i10,黄,yellow,j,diamond,color_mix,颜色,,compatible,1,,,,,,,,0,2,2,2,0,0,0,0,0,43,43,43,,,,,,,,,,,,,,,,,,,,,,,,,,,,,,,,,,,378.94439339998644,379.14462430001004,379.12773330003256,379.42794950003736,379.42794950003736,None,379.9286097000004,None,j,1,0.5634827999747358,379.9286097000004,None,None,None,380.5131083999877,None,,,,,,,,,,,,,,,,,,,,,11030,1,1,2024_Jun_01_0855,stroop_task_switching2,2021.2.3,59.81125957951243,
condition/block_mixed,instruction/instr_mixed,instruction/i10,红,red,d,diamond,color_mix,颜色,,compatible,1,,,,,,,,0,2,2,2,0,0,0,0,0,44,44,44,,,,,,,,,,,,,,,,,,,,,,,,,,,,,,,,,,,381.51504790002946,381.7163040000014,381.69811699999264,381.99925970000913,381.99925970000913,None,382.49977510003373,None,d,1,0.535667399992235,382.49977510003373,None,None,None,383.0670637000003,None,,,,,,,,,,,,,,,,,,,,,11030,1,1,2024_Jun_01_0855,stroop_task_switching2,2021.2.3,59.81125957951243,
condition/block_mixed,instruction/instr_mixed,instruction/i10,蓝,blue,f,diamond,color_mix,颜色,,compatible,1,,,,,,,,0,2,2,2,0,0,0,0,0,45,45,45,,,,,,,,,,,,,,,,,,,,,,,,,,,,,,,,,,,384.0688436999917,384.27061390003655,384.2524596999865,384.5527519999887,384.5527519999887,None,385.0531553000328,None,f,1,1.0865679000271484,385.0531553000328,None,None,None,386.1547903000028,None,,,,,,,,,,,,,,,,,,,,,11030,1,1,2024_Jun_01_0855,stroop_task_switching2,2021.2.3,59.81125957951243,
condition/block_mixed,instruction/instr_mixed,instruction/i10,红,red,d,diamond,color_mix,颜色,,compatible,1,,,,,,,,0,2,2,2,0,0,0,0,0,46,46,46,,,,,,,,,,,,,,,,,,,,,,,,,,,,,,,,,,,387.1570657999837,387.356657300028,387.3403887000168,387.6421667999821,387.6421667999821,None,388.1577306999825,None,d,1,0.5341303999884985,388.1577306999825,None,None,None,388.7089086000342,None,,,,,,,,,,,,,,,,,,,,,11030,1,1,2024_Jun_01_0855,stroop_task_switching2,2021.2.3,59.81125957951243,
condition/block_mixed,instruction/instr_mixed,instruction/i10,红,red,d,square,color_mix,单词,,compatible,2,,,,,,,,0,2,2,2,0,0,0,0,0,47,47,47,,,,,,,,,,,,,,,,,,,,,,,,,,,,,,,,,,,389.7101075000246,389.9126028000028,389.89396499999566,390.1946704000002,390.1946704000002,None,390.69581459998153,None,d,1,0.6920529000344686,390.69581459998153,None,None,None,391.4128100000089,None,,,,,,,,,,,,,,,,,,,,,11030,1,1,2024_Jun_01_0855,stroop_task_switching2,2021.2.3,59.81125957951243,
condition/block_mixed,instruction/instr_mixed,instruction/i10,红,red,d,diamond,color_mix,颜色,,compatible,2,,,,,,,,0,2,2,2,0,0,0,0,0,48,48,48,,,,,,,,,,,,,,,,,,,,,,,,,,,,,,,,,,,392.41423330002,392.61433910002233,392.59791359998053,392.8982546000043,392.8982546000043,None,393.39996930002235,None,d,1,0.7401077999966219,393.39996930002235,None,None,None,394.16692410001997,None,,,,,,,,,,,,,,,,,,,,,11030,1,1,2024_Jun_01_0855,stroop_task_switching2,2021.2.3,59.81125957951243,
condition/block_mixed,instruction/instr_mixed,instruction/i10,,,,,,,,,,,,,,,,,0,2,2,2,0,0,0,0,,,,,,,,,,,,,,,,,,,,,,,,,,,,,,,,,,,,,,,,,,,,,,,,,,,,,,,,395.1867220000131,None,space,27.67412310000509,395.1867220000131,None,,,,,,,,,,,,,,,11030,1,1,2024_Jun_01_0855,stroop_task_switching2,2021.2.3,59.81125957951243,
condition/block_mixed,instruction/instr_mixed,instruction/i10,,,,,,,,,,,,,,,,,0,2,2,2,,,,,,,,,,,,,,,,,,,,,,,,,,,,,,,,,,,,,,,,,,,,,,,,,,,,,,,,,,,,,,,,,,,,,,,,,,,,,,,,11030,1,1,2024_Jun_01_0855,stroop_task_switching2,2021.2.3,59.81125957951243,
,,,红,red,d,square,color_mix,单词,,compatible,0,block_switch1,instruction/ready_test.png,instruction/i11.png,,,,,,,,,,,,,,,,,0,0,0,0,0,0,0,0,,,,,,,,,,,,,,,,,,,425.4146860000328,426.4166745999828,426.4166745999828,427.41793160000816,427.41793160000816,None,424.42925580003066,425.4323439000291,428.4528778999811,428.65494740003487,428.63615720003145,428.9363246000139,428.9363246000139,None,429.43774540000595,None,d,1,0.8950813999981619,429.43774540000595,None,None,None,,,,,,,,,422.91010799998185,None,space,1.4946748000220396,422.91010799998185,None,,,,,,,,,11030,1,1,2024_Jun_01_0855,stroop_task_switching2,2021.2.3,59.81125957951243,
,,,绿,green,k,diamond,color_mix,颜色,,compatible,2,block_switch1,instruction/ready_test.png,instruction/i11.png,,,,,,,,,,,,,,,,,0,0,0,0,0,1,1,1,,,,,,,,,,,,,,,,,,,,,,,,,,,430.3544982000021,430.5558027999941,430.53952059999574,430.840659199981,430.840659199981,None,431.35634240001673,None,k,1,0.8086763999890536,431.35634240001673,None,None,None,,,,,,,,,,,,,,,,,,,,,,,11030,1,1,2024_Jun_01_0855,stroop_task_switching2,2021.2.3,59.81125957951243,
,,,绿,yellow,j,diamond,color_mix,颜色,,incompatible,1,block_switch1,instruction/ready_test.png,instruction/i11.png,,,,,,,,,,,,,,,,,0,0,0,0,0,2,2,2,,,,,,,,,,,,,,,,,,,,,,,,,,,432.1909233999904,432.3923658999847,432.37716520001413,432.69200119999005,432.677017399983,None,433.1757587000029,None,j,1,1.3090694999555126,433.1757587000029,None,None,None,,,,,,,,,,,,,,,,,,,,,,,11030,1,1,2024_Jun_01_0855,stroop_task_switching2,2021.2.3,59.81125957951243,
,,,蓝,blue,f,diamond,color_mix,颜色,,compatible,1,block_switch1,instruction/ready_test.png,instruction/i11.png,,,,,,,,,,,,,,,,,0,0,0,0,0,3,3,3,,,,,,,,,,,,,,,,,,,,,,,,,,,434.51164360000985,434.7123210999998,434.6947858000058,434.99549290002324,434.99549290002324,None,435.4971152000362,None,f,1,1.0039212999981828,435.4971152000362,None,None,None,,,,,,,,,,,,,,,,,,,,,,,11030,1,1,2024_Jun_01_0855,stroop_task_switching2,2021.2.3,59.81125957951243,
,,,绿,green,k,square,color_mix,单词,,compatible,2,block_switch1,instruction/ready_test.png,instruction/i11.png,,,,,,,,,,,,,,,,,0,0,0,0,0,4,4,4,,,,,,,,,,,,,,,,,,,,,,,,,,,436.5308351999847,436.73172839998733,436.7152746000211,437.0154940999928,437.0154940999928,None,437.51607579999836,None,k,1,1.3931066999793984,437.51607579999836,None,None,None,,,,,,,,,,,,,,,,,,,,,,,11030,1,1,2024_Jun_01_0855,stroop_task_switching2,2021.2.3,59.81125957951243,
,,,绿,blue,f,diamond,color_mix,颜色,,incompatible,2,block_switch1,instruction/ready_test.png,instruction/i11.png,,,,,,,,,,,,,,,,,0,0,0,0,0,5,5,5,,,,,,,,,,,,,,,,,,,,,,,,,,,438.93469010002445,439.13463899999624,439.1183510000119,439.41932460002135,439.41932460002135,None,439.9191772000049,None,f,1,1.0304435000289232,439.9191772000049,None,None,None,,,,,,,,,,,,,,,,,,,,,,,11030,1,1,2024_Jun_01_0855,stroop_task_switching2,2021.2.3,59.81125957951243,
,,,黄,red,j,square,color_mix,单词,,incompatible,2,block_switch1,instruction/ready_test.png,instruction/i11.png,,,,,,,,,,,,,,,,,0,0,0,0,0,6,6,6,,,,,,,,,,,,,,,,,,,,,,,,,,,440.97074540000176,441.17101879999973,441.1549568999908,441.45486040000105,441.45486040000105,None,441.9575291000074,None,j,1,1.1437604000093415,441.9575291000074,None,None,None,,,,,,,,,,,,,,,,,,,,,,,11030,1,1,2024_Jun_01_0855,stroop_task_switching2,2021.2.3,59.81125957951243,
,,,绿,green,k,square,color_mix,单词,,compatible,1,block_switch1,instruction/ready_test.png,instruction/i11.png,,,,,,,,,,,,,,,,,0,0,0,0,0,7,7,7,,,,,,,,,,,,,,,,,,,,,,,,,,,443.12457139999606,443.32529130001785,443.3100987999933,443.6256302000256,443.60818889999064,None,444.10902510001324,None,k,1,2.024291899986565,444.10902510001324,None,None,None,,,,,,,,,,,,,,,,,,,,,,,11030,1,1,2024_Jun_01_0855,stroop_task_switching2,2021.2.3,59.81125957951243,
,,,蓝,blue,f,square,color_mix,单词,,compatible,1,block_switch1,instruction/ready_test.png,instruction/i11.png,,,,,,,,,,,,,,,,,0,0,0,0,0,8,8,8,,,,,,,,,,,,,,,,,,,,,,,,,,,446.1621336999815,446.3629852000158,446.34558060002746,446.64593830000376,446.64593830000376,None,447.14684050000506,None,f,1,1.058594100002665,447.14684050000506,None,None,None,,,,,,,,,,,,,,,,,,,,,,,11030,1,1,2024_Jun_01_0855,stroop_task_switching2,2021.2.3,59.81125957951243,
,,,红,red,d,diamond,color_mix,颜色,,compatible,2,block_switch1,instruction/ready_test.png,instruction/i11.png,,,,,,,,,,,,,,,,,0,0,0,0,0,9,9,9,,,,,,,,,,,,,,,,,,,,,,,,,,,448.2321052000043,448.4326304999995,448.4161303000292,448.7170760000008,448.7170760000008,None,449.21652690001065,None,d,1,0.5409854000317864,449.21652690001065,None,None,None,,,,,,,,,,,,,,,,,,,,,,,11030,1,1,2024_Jun_01_0855,stroop_task_switching2,2021.2.3,59.81125957951243,
,,,黄,yellow,j,diamond,color_mix,颜色,,compatible,1,block_switch1,instruction/ready_test.png,instruction/i11.png,,,,,,,,,,,,,,,,,0,0,0,0,0,10,10,10,,,,,,,,,,,,,,,,,,,,,,,,,,,449.7838565999991,449.98436709999805,449.9686118999962,450.2699165000231,450.2699165000231,None,450.7688705000328,None,j,1,0.7010171000147238,450.7688705000328,None,None,None,,,,,,,,,,,,,,,,,,,,,,,11030,1,1,2024_Jun_01_0855,stroop_task_switching2,2021.2.3,59.81125957951243,
,,,绿,green,k,square,color_mix,单词,,compatible,2,block_switch1,instruction/ready_test.png,instruction/i11.png,,,,,,,,,,,,,,,,,0,0,0,0,0,11,11,11,,,,,,,,,,,,,,,,,,,,,,,,,,,451.48671299999114,451.6888195000356,451.6700874000089,451.97186550003244,451.97186550003244,None,452.4722254999797,None,k,1,0.7412256000097841,452.4722254999797,None,None,None,,,,,,,,,,,,,,,,,,,,,,,11030,1,1,2024_Jun_01_0855,stroop_task_switching2,2021.2.3,59.81125957951243,
,,,红,red,d,diamond,color_mix,颜色,,compatible,2,block_switch1,instruction/ready_test.png,instruction/i11.png,,,,,,,,,,,,,,,,,0,0,0,0,0,12,12,12,,,,,,,,,,,,,,,,,,,,,,,,,,,453.2392608000082,453.4399376999936,453.4229555000202,453.72394380002515,453.72394380002515,None,454.2241126000299,None,d,1,0.6220929000410251,454.2241126000299,None,None,None,,,,,,,,,,,,,,,,,,,,,,,11030,1,1,2024_Jun_01_0855,stroop_task_switching2,2021.2.3,59.81125957951243,
,,,红,red,d,diamond,color_mix,颜色,,compatible,1,block_switch1,instruction/ready_test.png,instruction/i11.png,,,,,,,,,,,,,,,,,0,0,0,0,0,13,13,13,,,,,,,,,,,,,,,,,,,,,,,,,,,454.8751698000124,455.0759746999829,455.0594950999948,455.3591989999986,455.3591989999986,None,455.85983129998203,None,d,1,0.4980445000110194,455.85983129998203,None,None,None,,,,,,,,,,,,,,,,,,,,,,,11030,1,1,2024_Jun_01_0855,stroop_task_switching2,2021.2.3,59.81125957951243,
,,,黄,yellow,j,square,color_mix,单词,,compatible,2,block_switch1,instruction/ready_test.png,instruction/i11.png,,,,,,,,,,,,,,,,,0,0,0,0,0,14,14,14,,,,,,,,,,,,,,,,,,,,,,,,,,,456.37726550002117,456.57934759999625,456.56164530001115,456.86223590001464,456.86223590001464,None,457.36262040003203,None,j,1,1.8992047000210732,457.36262040003203,None,None,None,,,,,,,,,,,,,,,,,,,,,,,11030,1,1,2024_Jun_01_0855,stroop_task_switching2,2021.2.3,59.81125957951243,
,,,红,green,k,diamond,color_mix,颜色,,incompatible,2,block_switch1,instruction/ready_test.png,instruction/i11.png,,,,,,,,,,,,,,,,,0,0,0,0,0,15,15,15,,,,,,,,,,,,,,,,,,,,,,,,,,,459.2823953999905,459.4838777999976,459.4654186000116,459.76723180001136,459.76723180001136,None,460.2679527000291,None,k,1,1.138025699998252,460.2679527000291,None,None,None,,,,,,,,,,,,,,,,,,,,,,,11030,1,1,2024_Jun_01_0855,stroop_task_switching2,2021.2.3,59.81125957951243,
,,,蓝,red,d,diamond,color_mix,颜色,,incompatible,1,block_switch1,instruction/ready_test.png,instruction/i11.png,,,,,,,,,,,,,,,,,0,0,0,0,0,16,16,16,,,,,,,,,,,,,,,,,,,,,,,,,,,461.43543549999595,461.6378725999966,461.61919170001056,461.9191317000077,461.9191317000077,None,462.4202845999971,None,d,1,1.2899586000130512,462.4202845999971,None,None,None,,,,,,,,,,,,,,,,,,,,,,,11030,1,1,2024_Jun_01_0855,stroop_task_switching2,2021.2.3,59.81125957951243,
,,,黄,green,k,diamond,color_mix,颜色,,incompatible,1,block_switch1,instruction/ready_test.png,instruction/i11.png,,,,,,,,,,,,,,,,,0,0,0,0,0,17,17,17,,,,,,,,,,,,,,,,,,,,,,,,,,,463.7389517999836,463.9397949000122,463.92202800000086,464.2244352999842,464.2244352999842,None,464.72344239999074,None,k,1,0.8584704999811947,464.72344239999074,None,None,None,,,,,,,,,,,,,,,,,,,,,,,11030,1,1,2024_Jun_01_0855,stroop_task_switching2,2021.2.3,59.81125957951243,
,,,绿,green,k,diamond,color_mix,颜色,,compatible,1,block_switch1,instruction/ready_test.png,instruction/i11.png,,,,,,,,,,,,,,,,,0,0,0,0,0,18,18,18,,,,,,,,,,,,,,,,,,,,,,,,,,,465.6079011000111,465.8098378999857,465.79172229999676,466.0928955000127,466.0928955000127,None,466.5937476999825,None,k,1,0.5880873000132851,466.5937476999825,None,None,None,,,,,,,,,,,,,,,,,,,,,,,11030,1,1,2024_Jun_01_0855,stroop_task_switching2,2021.2.3,59.81125957951243,
,,,黄,red,d,diamond,color_mix,颜色,,incompatible,1,block_switch1,instruction/ready_test.png,instruction/i11.png,,,,,,,,,,,,,,,,,0,0,0,0,0,19,19,19,,,,,,,,,,,,,,,,,,,,,,,,,,,467.21073300001444,467.41332599997986,467.3942135000252,467.694920799986,467.694920799986,None,468.19547799997963,None,d,1,1.7541906000114977,468.19547799997963,None,None,None,,,,,,,,,,,,,,,,,,,,,,,11030,1,1,2024_Jun_01_0855,stroop_task_switching2,2021.2.3,59.81125957951243,
,,,绿,yellow,k,square,color_mix,单词,,incompatible,2,block_switch1,instruction/ready_test.png,instruction/i11.png,,,,,,,,,,,,,,,,,0,0,0,0,0,20,20,20,,,,,,,,,,,,,,,,,,,,,,,,,,,469.9645984999952,470.16547350003384,470.1486484000343,470.45010790001834,470.45010790001834,None,470.9500449000043,None,k,1,1.9599015999701805,470.9500449000043,None,None,None,,,,,,,,,,,,,,,,,,,,,,,11030,1,1,2024_Jun_01_0855,stroop_task_switching2,2021.2.3,59.81125957951243,
,,,绿,yellow,j,diamond,color_mix,颜色,,incompatible,2,block_switch1,instruction/ready_test.png,instruction/i11.png,,,,,,,,,,,,,,,,,0,0,0,0,0,21,21,21,,,,,,,,,,,,,,,,,,,,,,,,,,,472.93580939999083,473.1379178999923,473.11954390001483,473.4216218999936,473.4216218999936,None,473.92104849999305,None,j,1,2.709409200004302,473.92104849999305,None,None,None,,,,,,,,,,,,,,,,,,,,,,,11030,1,1,2024_Jun_01_0855,stroop_task_switching2,2021.2.3,59.81125957951243,
,,,绿,green,k,square,color_mix,单词,,compatible,2,block_switch1,instruction/ready_test.png,instruction/i11.png,,,,,,,,,,,,,,,,,0,0,0,0,0,22,22,22,,,,,,,,,,,,,,,,,,,,,,,,,,,476.65817170002265,476.8582866000361,476.84207569999853,477.142980900011,477.142980900011,None,477.642883100023,None,k,1,0.6514189000008628,477.642883100023,None,None,None,,,,,,,,,,,,,,,,,,,,,,,11030,1,1,2024_Jun_01_0855,stroop_task_switching2,2021.2.3,59.81125957951243,
,,,红,red,d,square,color_mix,单词,,compatible,1,block_switch1,instruction/ready_test.png,instruction/i11.png,,,,,,,,,,,,,,,,,0,0,0,0,0,23,23,23,,,,,,,,,,,,,,,,,,,,,,,,,,,478.31069680000655,478.51147979998495,478.4944565999904,478.79494500003057,478.79494500003057,None,479.29524639999727,None,d,1,1.038887899951078,479.29524639999727,None,None,None,,,,,,,,,,,,,,,,,,,,,,,11030,1,1,2024_Jun_01_0855,stroop_task_switching2,2021.2.3,59.81125957951243,
,,,黄,green,j,square,color_mix,单词,,incompatible,1,block_switch1,instruction/ready_test.png,instruction/i11.png,,,,,,,,,,,,,,,,,0,0,0,0,0,24,24,24,,,,,,,,,,,,,,,,,,,,,,,,,,,480.36396779998904,480.564999299997,480.54716260003624,480.8483961999882,480.8483961999882,None,481.34896939998725,None,k,0,0.9854140999959782,481.34896939998725,None,None,None,,,,,,,,,,,,,,,,,,,,,,,11030,1,1,2024_Jun_01_0855,stroop_task_switching2,2021.2.3,59.81125957951243,
,,,红,blue,d,square,color_mix,单词,,incompatible,1,block_switch1,instruction/ready_test.png,instruction/i11.png,,,,,,,,,,,,,,,,,0,0,0,0,0,25,25,25,,,,,,,,,,,,,,,,,,,,,,,,,,,482.3497292000102,482.5522307000356,482.5336665000068,482.8351453000214,482.8351453000214,None,483.33471570000984,None,d,1,2.1519638000172563,483.33471570000984,None,None,None,,,,,,,,,,,,,,,,,,,,,,,11030,1,1,2024_Jun_01_0855,stroop_task_switching2,2021.2.3,59.81125957951243,
,,,黄,yellow,j,square,color_mix,单词,,compatible,1,block_switch1,instruction/ready_test.png,instruction/i11.png,,,,,,,,,,,,,,,,,0,0,0,0,0,26,26,26,,,,,,,,,,,,,,,,,,,,,,,,,,,485.50509679998504,485.7052866999875,485.6892448000144,485.98883530002786,485.98883530002786,None,486.4904240000178,None,j,1,0.9962522000423633,486.4904240000178,None,None,None,,,,,,,,,,,,,,,,,,,,,,,11030,1,1,2024_Jun_01_0855,stroop_task_switching2,2021.2.3,59.81125957951243,
,,,蓝,green,f,square,color_mix,单词,,incompatible,1,block_switch1,instruction/ready_test.png,instruction/i11.png,,,,,,,,,,,,,,,,,0,0,0,0,0,27,27,27,,,,,,,,,,,,,,,,,,,,,,,,,,,487.50761989998864,487.7088797999895,487.6915741999983,487.99251830001594,487.99251830001594,None,488.49229289998766,None,f,1,2.146247200027574,488.49229289998766,None,None,None,,,,,,,,,,,,,,,,,,,,,,,11030,1,1,2024_Jun_01_0855,stroop_task_switching2,2021.2.3,59.81125957951243,
,,,绿,green,k,diamond,color_mix,颜色,,compatible,2,block_switch1,instruction/ready_test.png,instruction/i11.png,,,,,,,,,,,,,,,,,0,0,0,0,0,28,28,28,,,,,,,,,,,,,,,,,,,,,,,,,,,490.66244200000074,490.86272069998085,490.84654589998536,491.1486621000222,491.1486621000222,None,491.6475744000054,None,k,1,0.7989548000041395,491.6475744000054,None,None,None,,,,,,,,,,,,,,,,,,,,,,,11030,1,1,2024_Jun_01_0855,stroop_task_switching2,2021.2.3,59.81125957951243,
,,,黄,blue,f,diamond,color_mix,颜色,,incompatible,1,block_switch1,instruction/ready_test.png,instruction/i11.png,,,,,,,,,,,,,,,,,0,0,0,0,0,29,29,29,,,,,,,,,,,,,,,,,,,,,,,,,,,492.4655994999921,492.6655045999796,492.64913309999974,492.9503865999868,492.9503865999868,None,493.4496635000105,None,f,1,1.2857520999968983,493.4496635000105,None,None,None,,,,,,,,,,,,,,,,,,,,,,,11030,1,1,2024_Jun_01_0855,stroop_task_switching2,2021.2.3,59.81125957951243,
,,,绿,green,k,diamond,color_mix,颜色,,compatible,1,block_switch1,instruction/ready_test.png,instruction/i11.png,,,,,,,,,,,,,,,,,0,0,0,0,0,30,30,30,,,,,,,,,,,,,,,,,,,,,,,,,,,494.7518372000195,494.95224180002697,494.9362481000135,495.23607699997956,495.23607699997956,None,495.73715310002444,None,k,1,1.373820999986492,495.73715310002444,None,None,None,,,,,,,,,,,,,,,,,,,,,,,11030,1,1,2024_Jun_01_0855,stroop_task_switching2,2021.2.3,59.81125957951243,
,,,蓝,blue,f,square,color_mix,单词,,compatible,2,block_switch1,instruction/ready_test.png,instruction/i11.png,,,,,,,,,,,,,,,,,0,0,0,0,0,31,31,31,,,,,,,,,,,,,,,,,,,,,,,,,,,497.1391084000352,497.3398533000145,497.322711899993,497.62342060002265,497.62342060002265,None,498.12394580000546,None,f,1,0.978968299983535,498.12394580000546,None,None,None,,,,,,,,,,,,,,,,,,,,,,,11030,1,1,2024_Jun_01_0855,stroop_task_switching2,2021.2.3,59.81125957951243,
,,,红,red,d,square,color_mix,单词,,compatible,1,block_switch1,instruction/ready_test.png,instruction/i11.png,,,,,,,,,,,,,,,,,0,0,0,0,0,32,32,32,,,,,,,,,,,,,,,,,,,,,,,,,,,499.12541119998787,499.3254161999794,499.3094595000148,499.6099287000252,499.6099287000252,None,500.1101028000121,None,d,1,0.47305740002775565,500.1101028000121,None,None,None,,,,,,,,,,,,,,,,,,,,,,,11030,1,1,2024_Jun_01_0855,stroop_task_switching2,2021.2.3,59.81125957951243,
,,,红,green,d,square,color_mix,单词,,incompatible,1,block_switch1,instruction/ready_test.png,instruction/i11.png,,,,,,,,,,,,,,,,,0,0,0,0,0,33,33,33,,,,,,,,,,,,,,,,,,,,,,,,,,,500.6109643999953,500.8115137999994,500.7959312000312,501.0957942000241,501.0957942000241,None,501.5967546000029,None,d,1,1.3143153000273742,501.5967546000029,None,None,None,,,,,,,,,,,,,,,,,,,,,,,11030,1,1,2024_Jun_01_0855,stroop_task_switching2,2021.2.3,59.81125957951243,
,,,黄,yellow,j,diamond,color_mix,颜色,,compatible,2,block_switch1,instruction/ready_test.png,instruction/i11.png,,,,,,,,,,,,,,,,,0,0,0,0,0,34,34,34,,,,,,,,,,,,,,,,,,,,,,,,,,,502.93132620002143,503.1342358000111,503.1146160000353,503.41648790001636,503.41648790001636,None,503.91581989999395,None,f,0,0.7468148999614641,503.91581989999395,None,None,None,,,,,,,,,,,,,,,,,,,,,,,11030,1,1,2024_Jun_01_0855,stroop_task_switching2,2021.2.3,59.81125957951243,
,,,红,green,k,diamond,color_mix,颜色,,incompatible,1,block_switch1,instruction/ready_test.png,instruction/i11.png,,,,,,,,,,,,,,,,,0,0,0,0,0,35,35,35,,,,,,,,,,,,,,,,,,,,,,,,,,,504.6836970000295,504.8838212999981,504.86819800001103,505.16848530003335,505.16848530003335,None,505.66839940001955,None,k,1,1.139022000017576,505.66839940001955,None,None,None,,,,,,,,,,,,,,,,,,,,,,,11030,1,1,2024_Jun_01_0855,stroop_task_switching2,2021.2.3,59.81125957951243,
,,,黄,yellow,j,square,color_mix,单词,,compatible,2,block_switch1,instruction/ready_test.png,instruction/i11.png,,,,,,,,,,,,,,,,,0,0,0,0,0,36,36,36,,,,,,,,,,,,,,,,,,,,,,,,,,,506.83726519998163,507.03747219999786,507.02105759998085,507.3214360999991,507.3214360999991,None,507.82241299998714,None,j,1,1.1690580999711528,507.82241299998714,None,None,None,,,,,,,,,,,,,,,,,,,,,,,11030,1,1,2024_Jun_01_0855,stroop_task_switching2,2021.2.3,59.81125957951243,
,,,蓝,blue,f,square,color_mix,单词,,compatible,1,block_switch1,instruction/ready_test.png,instruction/i11.png,,,,,,,,,,,,,,,,,0,0,0,0,0,37,37,37,,,,,,,,,,,,,,,,,,,,,,,,,,,509.0068020999897,509.20781659998465,509.19072620000225,509.4907919000252,509.4907919000252,None,509.9923422000138,None,f,1,1.0387755999690853,509.9923422000138,None,None,None,,,,,,,,,,,,,,,,,,,,,,,11030,1,1,2024_Jun_01_0855,stroop_task_switching2,2021.2.3,59.81125957951243,
,,,绿,red,d,diamond,color_mix,颜色,,incompatible,2,block_switch1,instruction/ready_test.png,instruction/i11.png,,,,,,,,,,,,,,,,,0,0,0,0,0,38,38,38,,,,,,,,,,,,,,,,,,,,,,,,,,,511.05978970002616,511.26142569998046,511.2433877000003,511.544510799984,511.544510799984,None,512.044866900018,None,d,1,0.8914832000155002,512.044866900018,None,None,None,,,,,,,,,,,,,,,,,,,,,,,11030,1,1,2024_Jun_01_0855,stroop_task_switching2,2021.2.3,59.81125957951243,
,,,黄,yellow,j,diamond,color_mix,颜色,,compatible,1,block_switch1,instruction/ready_test.png,instruction/i11.png,,,,,,,,,,,,,,,,,0,0,0,0,0,39,39,39,,,,,,,,,,,,,,,,,,,,,,,,,,,512.9634379000054,513.1630160000059,513.1463554000366,513.446770599985,513.446770599985,None,513.9475560000283,None,f,0,0.9875049000256695,513.9475560000283,None,None,None,,,,,,,,,,,,,,,,,,,,,,,11030,1,1,2024_Jun_01_0855,stroop_task_switching2,2021.2.3,59.81125957951243,
,,,红,blue,f,diamond,color_mix,颜色,,incompatible,1,block_switch1,instruction/ready_test.png,instruction/i11.png,,,,,,,,,,,,,,,,,0,0,0,0,0,40,40,40,,,,,,,,,,,,,,,,,,,,,,,,,,,514.9656942000147,515.1676787000033,515.1491703999927,515.4513836000115,515.4513836000115,None,515.950515100034,None,d,0,2.6814904999919236,515.950515100034,None,None,None,,,,,,,,,,,,,,,,,,,,,,,11030,1,1,2024_Jun_01_0855,stroop_task_switching2,2021.2.3,59.81125957951243,
,,,绿,blue,k,square,color_mix,单词,,incompatible,2,block_switch1,instruction/ready_test.png,instruction/i11.png,,,,,,,,,,,,,,,,,0,0,0,0,0,41,41,41,,,,,,,,,,,,,,,,,,,,,,,,,,,518.6545843000058,518.8565611999948,518.8385497999843,519.1386557000224,519.1386557000224,None,519.6394435000257,None,k,1,0.7441096000256948,519.6394435000257,None,None,None,,,,,,,,,,,,,,,,,,,,,,,11030,1,1,2024_Jun_01_0855,stroop_task_switching2,2021.2.3,59.81125957951243,
,,,蓝,blue,f,diamond,color_mix,颜色,,compatible,2,block_switch1,instruction/ready_test.png,instruction/i11.png,,,,,,,,,,,,,,,,,0,0,0,0,0,42,42,42,,,,,,,,,,,,,,,,,,,,,,,,,,,520.407028799993,520.6085257999948,520.593639800034,520.8918995999848,520.8918995999848,None,521.3923591999919,None,f,1,1.8394682999933138,521.3923591999919,None,None,None,,,,,,,,,,,,,,,,,,,,,,,11030,1,1,2024_Jun_01_0855,stroop_task_switching2,2021.2.3,59.81125957951243,
,,,红,blue,d,square,color_mix,单词,,incompatible,2,block_switch1,instruction/ready_test.png,instruction/i11.png,,,,,,,,,,,,,,,,,0,0,0,0,0,43,43,43,,,,,,,,,,,,,,,,,,,,,,,,,,,523.2621679999866,523.4636859000311,523.4455926000373,523.7467895000009,523.7467895000009,None,524.2464222999988,None,d,1,1.0814800999942236,524.2464222999988,None,None,None,,,,,,,,,,,,,,,,,,,,,,,11030,1,1,2024_Jun_01_0855,stroop_task_switching2,2021.2.3,59.81125957951243,
,,,蓝,green,k,diamond,color_mix,颜色,,incompatible,2,block_switch1,instruction/ready_test.png,instruction/i11.png,,,,,,,,,,,,,,,,,0,0,0,0,0,44,44,44,,,,,,,,,,,,,,,,,,,,,,,,,,,525.3484037999879,525.5495611000224,525.5314513000194,525.8326672000112,525.8326672000112,None,526.3334902999923,None,k,1,1.626072600018233,526.3334902999923,None,None,None,,,,,,,,,,,,,,,,,,,,,,,11030,1,1,2024_Jun_01_0855,stroop_task_switching2,2021.2.3,59.81125957951243,
,,,黄,yellow,j,square,color_mix,单词,,compatible,2,block_switch1,instruction/ready_test.png,instruction/i11.png,,,,,,,,,,,,,,,,,0,0,0,0,0,45,45,45,,,,,,,,,,,,,,,,,,,,,,,,,,,527.9855092000216,528.1856399999815,528.1688636000035,528.4715297999792,528.4715297999792,None,528.9869484000374,None,j,1,1.2528614000184461,528.9869484000374,None,None,None,,,,,,,,,,,,,,,,,,,,,,,11030,1,1,2024_Jun_01_0855,stroop_task_switching2,2021.2.3,59.81125957951243,
,,,黄,yellow,j,diamond,color_mix,颜色,,compatible,2,block_switch1,instruction/ready_test.png,instruction/i11.png,,,,,,,,,,,,,,,,,0,0,0,0,0,46,46,46,,,,,,,,,,,,,,,,,,,,,,,,,,,530.2554227000219,530.4559536000015,530.441363400023,530.7397844999796,530.7397844999796,None,531.2404664999922,None,j,1,1.415327399969101,531.2404664999922,None,None,None,,,,,,,,,,,,,,,,,,,,,,,11030,1,1,2024_Jun_01_0855,stroop_task_switching2,2021.2.3,59.81125957951243,
,,,绿,red,k,square,color_mix,单词,,incompatible,2,block_switch1,instruction/ready_test.png,instruction/i11.png,,,,,,,,,,,,,,,,,0,0,0,0,0,47,47,47,,,,,,,,,,,,,,,,,,,,,,,,,,,532.6758216000162,532.8781682000263,532.8596405999851,533.1602775999927,533.1602775999927,None,533.6606075000018,None,k,1,2.0759342000237666,533.6606075000018,None,None,None,,,,,,,,,,,,,,,,,,,,,,,11030,1,1,2024_Jun_01_0855,stroop_task_switching2,2021.2.3,59.81125957951243,
,,,红,red,d,diamond,color_mix,颜色,,compatible,2,block_switch1,instruction/ready_test.png,instruction/i11.png,,,,,,,,,,,,,,,,,0,0,0,0,0,48,48,48,,,,,,,,,,,,,,,,,,,,,,,,,,,535.7639208000037,535.9651213000179,535.9474459000048,536.2480290000094,536.2480290000094,None,536.7495659000124,None,d,1,1.0187107999809086,536.7495659000124,None,None,None,,,,,,,,,,,,,,,,,,,,,,,11030,1,1,2024_Jun_01_0855,stroop_task_switching2,2021.2.3,59.81125957951243,
,,,蓝,blue,f,diamond,color_mix,颜色,,compatible,1,block_switch1,instruction/ready_test.png,instruction/i11.png,,,,,,,,,,,,,,,,,0,0,0,0,0,49,49,49,,,,,,,,,,,,,,,,,,,,,,,,,,,537.7834748000023,537.9843324000249,537.9674719999894,538.2677436000085,538.2677436000085,None,538.7687754000071,None,f,1,1.1678599000442773,538.7687754000071,None,None,None,,,,,,,,,,,,,,,,,,,,,,,11030,1,1,2024_Jun_01_0855,stroop_task_switching2,2021.2.3,59.81125957951243,
,,,黄,yellow,j,diamond,color_mix,颜色,,compatible,1,block_switch1,instruction/ready_test.png,instruction/i11.png,,,,,,,,,,,,,,,,,0,0,0,0,0,50,50,50,,,,,,,,,,,,,,,,,,,,,,,,,,,539.9533854000038,540.1535740999971,540.138050300011,540.4384381999844,540.4384381999844,None,540.938009799982,None,j,1,0.8699609999894165,540.938009799982,None,None,None,,,,,,,,,,,,,,,,,,,,,,,11030,1,1,2024_Jun_01_0855,stroop_task_switching2,2021.2.3,59.81125957951243,
,,,红,blue,f,diamond,color_mix,颜色,,incompatible,1,block_switch1,instruction/ready_test.png,instruction/i11.png,,,,,,,,,,,,,,,,,0,0,0,0,0,51,51,51,,,,,,,,,,,,,,,,,,,,,,,,,,,541.8229318999802,542.0239025999908,542.0066672000103,542.3072342000087,542.3072342000087,None,542.8086960000219,None,f,1,1.7119536999962293,542.8086960000219,None,None,None,,,,,,,,,,,,,,,,,,,,,,,11030,1,1,2024_Jun_01_0855,stroop_task_switching2,2021.2.3,59.81125957951243,
,,,蓝,yellow,j,diamond,color_mix,颜色,,incompatible,1,block_switch1,instruction/ready_test.png,instruction/i11.png,,,,,,,,,,,,,,,,,0,0,0,0,0,52,52,52,,,,,,,,,,,,,,,,,,,,,,,,,,,544.5436537000351,544.7453307000105,544.7273122000042,545.0292619999964,545.0292619999964,None,545.5294481000165,None,j,1,0.9746394000248984,545.5294481000165,None,None,None,,,,,,,,,,,,,,,,,,,,,,,11030,1,1,2024_Jun_01_0855,stroop_task_switching2,2021.2.3,59.81125957951243,
,,,黄,blue,j,square,color_mix,单词,,incompatible,2,block_switch1,instruction/ready_test.png,instruction/i11.png,,,,,,,,,,,,,,,,,0,0,0,0,0,53,53,53,,,,,,,,,,,,,,,,,,,,,,,,,,,546.5298668000032,546.7305773000116,546.7145777000114,547.0140253999853,547.0140253999853,None,547.5154600000242,None,f,0,1.1328543000272475,547.5154600000242,None,None,None,,,,,,,,,,,,,,,,,,,,,,,11030,1,1,2024_Jun_01_0855,stroop_task_switching2,2021.2.3,59.81125957951243,
,,,蓝,blue,f,diamond,color_mix,颜色,,compatible,2,block_switch1,instruction/ready_test.png,instruction/i11.png,,,,,,,,,,,,,,,,,0,0,0,0,0,54,54,54,,,,,,,,,,,,,,,,,,,,,,,,,,,548.6663598000305,548.8680362000014,548.8500060000224,549.1508934000158,549.1508934000158,None,549.6514339999994,None,f,1,1.229081799974665,549.6514339999994,None,None,None,,,,,,,,,,,,,,,,,,,,,,,11030,1,1,2024_Jun_01_0855,stroop_task_switching2,2021.2.3,59.81125957951243,
,,,红,yellow,d,square,color_mix,单词,,incompatible,2,block_switch1,instruction/ready_test.png,instruction/i11.png,,,,,,,,,,,,,,,,,0,0,0,0,0,55,55,55,,,,,,,,,,,,,,,,,,,,,,,,,,,550.9031701000058,551.1042941000196,551.0878901000251,551.3892997000366,551.3892997000366,None,551.8880153000355,None,j,0,1.216387599997688,551.8880153000355,None,None,None,,,,,,,,,,,,,,,,,,,,,,,11030,1,1,2024_Jun_01_0855,stroop_task_switching2,2021.2.3,59.81125957951243,
,,,蓝,red,f,square,color_mix,单词,,incompatible,1,block_switch1,instruction/ready_test.png,instruction/i11.png,,,,,,,,,,,,,,,,,0,0,0,0,0,56,56,56,,,,,,,,,,,,,,,,,,,,,,,,,,,553.1232681000256,553.3233946000109,553.3068839000189,553.6078680999926,553.6078680999926,None,554.1081048999913,None,d,0,0.9168945999699645,554.1081048999913,None,None,None,,,,,,,,,,,,,,,,,,,,,,,11030,1,1,2024_Jun_01_0855,stroop_task_switching2,2021.2.3,59.81125957951243,
,,,蓝,blue,f,square,color_mix,单词,,compatible,1,block_switch1,instruction/ready_test.png,instruction/i11.png,,,,,,,,,,,,,,,,,0,0,0,0,0,57,57,57,,,,,,,,,,,,,,,,,,,,,,,,,,,555.0429311000044,555.244358099997,555.2265974000329,555.5271573000355,555.5271573000355,None,556.0288077000296,None,f,1,1.3002664999803528,556.0288077000296,None,None,None,,,,,,,,,,,,,,,,,,,,,,,11030,1,1,2024_Jun_01_0855,stroop_task_switching2,2021.2.3,59.81125957951243,
,,,蓝,red,d,diamond,color_mix,颜色,,incompatible,2,block_switch1,instruction/ready_test.png,instruction/i11.png,,,,,,,,,,,,,,,,,0,0,0,0,0,58,58,58,,,,,,,,,,,,,,,,,,,,,,,,,,,557.346367900027,557.5473848999827,557.5299220000161,557.8301687000203,557.8301687000203,None,558.3311273999861,None,d,1,1.7252331000054255,558.3311273999861,None,None,None,,,,,,,,,,,,,,,,,,,,,,,11030,1,1,2024_Jun_01_0855,stroop_task_switching2,2021.2.3,59.81125957951243,
,,,绿,green,k,diamond,color_mix,颜色,,compatible,1,block_switch1,instruction/ready_test.png,instruction/i11.png,,,,,,,,,,,,,,,,,0,0,0,0,0,59,59,59,,,,,,,,,,,,,,,,,,,,,,,,,,,560.0836137000006,560.2861378000234,560.2673149000038,560.5690728999907,560.5690728999907,None,561.069175600016,None,k,1,0.611650999984704,561.069175600016,None,None,None,,,,,,,,,,,,,,,,,,,,,,,11030,1,1,2024_Jun_01_0855,stroop_task_switching2,2021.2.3,59.81125957951243,
,,,蓝,blue,f,diamond,color_mix,颜色,,compatible,1,block_switch1,instruction/ready_test.png,instruction/i11.png,,,,,,,,,,,,,,,,,0,0,0,0,0,60,60,60,,,,,,,,,,,,,,,,,,,,,,,,,,,561.7028719999944,561.9034550000215,561.8875886999886,562.1875833999948,562.1875833999948,None,562.6879842000199,None,f,1,0.9204486000235192,562.6879842000199,None,None,None,,,,,,,,,,,,,,,,,,,,,,,11030,1,1,2024_Jun_01_0855,stroop_task_switching2,2021.2.3,59.81125957951243,
,,,黄,yellow,j,square,color_mix,单词,,compatible,2,block_switch1,instruction/ready_test.png,instruction/i11.png,,,,,,,,,,,,,,,,,0,0,0,0,0,61,61,61,,,,,,,,,,,,,,,,,,,,,,,,,,,563.6391000000294,563.8402213000227,563.8227014000295,564.1235077999881,564.1235077999881,None,564.6246009999886,None,j,1,0.9359206999652088,564.6246009999886,None,None,None,,,,,,,,,,,,,,,,,,,,,,,11030,1,1,2024_Jun_01_0855,stroop_task_switching2,2021.2.3,59.81125957951243,
,,,绿,blue,k,square,color_mix,单词,,incompatible,1,block_switch1,instruction/ready_test.png,instruction/i11.png,,,,,,,,,,,,,,,,,0,0,0,0,0,62,62,62,,,,,,,,,,,,,,,,,,,,,,,,,,,565.5752379000187,565.7756624000031,565.7596347000217,566.059477999981,566.059477999981,None,566.560808499984,None,k,1,1.1276812000432983,566.560808499984,None,None,None,,,,,,,,,,,,,,,,,,,,,,,11030,1,1,2024_Jun_01_0855,stroop_task_switching2,2021.2.3,59.81125957951243,
,,,蓝,yellow,f,square,color_mix,单词,,incompatible,1,block_switch1,instruction/ready_test.png,instruction/i11.png,,,,,,,,,,,,,,,,,0,0,0,0,0,63,63,63,,,,,,,,,,,,,,,,,,,,,,,,,,,567.7126702999813,567.9131985999993,567.8953433000133,568.197757899994,568.197757899994,None,568.6967710999888,None,f,1,1.832206999999471,568.6967710999888,None,None,None,,,,,,,,,,,,,,,,,,,,,,,11030,1,1,2024_Jun_01_0855,stroop_task_switching2,2021.2.3,59.81125957951243,
,,,黄,yellow,j,diamond,color_mix,颜色,,compatible,2,block_switch1,instruction/ready_test.png,instruction/i11.png,,,,,,,,,,,,,,,,,0,0,0,0,0,64,64,64,,,,,,,,,,,,,,,,,,,,,,,,,,,570.5494984000106,570.7506032999954,570.7330134999938,571.0362364000175,571.0362364000175,None,571.5343623000081,None,j,1,0.5708084999932908,571.5343623000081,None,None,None,,,,,,,,,,,,,,,,,,,,,,,11030,1,1,2024_Jun_01_0855,stroop_task_switching2,2021.2.3,59.81125957951243,
,,,蓝,green,k,diamond,color_mix,颜色,,incompatible,1,block_switch1,instruction/ready_test.png,instruction/i11.png,,,,,,,,,,,,,,,,,0,0,0,0,0,65,65,65,,,,,,,,,,,,,,,,,,,,,,,,,,,572.1351623000228,572.3374709000345,572.3187090000138,572.6200952000218,572.6200952000218,None,573.1209208000218,None,k,1,1.1278429999947548,573.1209208000218,None,None,None,,,,,,,,,,,,,,,,,,,,,,,11030,1,1,2024_Jun_01_0855,stroop_task_switching2,2021.2.3,59.81125957951243,
,,,红,red,d,diamond,color_mix,颜色,,compatible,1,block_switch1,instruction/ready_test.png,instruction/i11.png,,,,,,,,,,,,,,,,,0,0,0,0,0,66,66,66,,,,,,,,,,,,,,,,,,,,,,,,,,,574.2716931999894,574.4721958999871,574.4574910000083,574.7557662000181,574.7557662000181,None,575.2565657999949,None,d,1,0.8009879000019282,575.2565657999949,None,None,None,,,,,,,,,,,,,,,,,,,,,,,11030,1,1,2024_Jun_01_0855,stroop_task_switching2,2021.2.3,59.81125957951243,
,,,蓝,yellow,f,square,color_mix,单词,,incompatible,2,block_switch1,instruction/ready_test.png,instruction/i11.png,,,,,,,,,,,,,,,,,0,0,0,0,0,67,67,67,,,,,,,,,,,,,,,,,,,,,,,,,,,576.074717200012,576.2752984000253,576.2584037000197,576.5600158000016,576.5600158000016,None,577.0596578000113,None,j,0,1.1734211000148207,577.0596578000113,None,None,None,,,,,,,,,,,,,,,,,,,,,,,11030,1,1,2024_Jun_01_0855,stroop_task_switching2,2021.2.3,59.81125957951243,
,,,红,yellow,d,square,color_mix,单词,,incompatible,1,block_switch1,instruction/ready_test.png,instruction/i11.png,,,,,,,,,,,,,,,,,0,0,0,0,0,68,68,68,,,,,,,,,,,,,,,,,,,,,,,,,,,578.2612660999876,578.4619259000174,578.4448887000326,578.7459151999792,578.7459151999792,None,579.2464607000002,None,d,1,1.5628774999640882,579.2464607000002,None,None,None,,,,,,,,,,,,,,,,,,,,,,,11030,1,1,2024_Jun_01_0855,stroop_task_switching2,2021.2.3,59.81125957951243,
,,,红,yellow,j,diamond,color_mix,颜色,,incompatible,2,block_switch1,instruction/ready_test.png,instruction/i11.png,,,,,,,,,,,,,,,,,0,0,0,0,0,69,69,69,,,,,,,,,,,,,,,,,,,,,,,,,,,580.8316768000368,581.0338998999796,581.0156553999986,581.3174524999922,581.3174524999922,None,581.8168501000036,None,j,1,0.9760339999920689,581.8168501000036,None,None,None,,,,,,,,,,,,,,,,,,,,,,,11030,1,1,2024_Jun_01_0855,stroop_task_switching2,2021.2.3,59.81125957951243,
,,,蓝,green,f,square,color_mix,单词,,incompatible,2,block_switch1,instruction/ready_test.png,instruction/i11.png,,,,,,,,,,,,,,,,,0,0,0,0,0,70,70,70,,,,,,,,,,,,,,,,,,,,,,,,,,,582.8181677000248,583.0189499999979,583.0030839000246,583.3033469000366,583.3033469000366,None,583.8027990999981,None,k,0,0.7184984000050463,583.8027990999981,None,None,None,,,,,,,,,,,,,,,,,,,,,,,11030,1,1,2024_Jun_01_0855,stroop_task_switching2,2021.2.3,59.81125957951243,
,,,绿,yellow,k,square,color_mix,单词,,incompatible,1,block_switch1,instruction/ready_test.png,instruction/i11.png,,,,,,,,,,,,,,,,,0,0,0,0,0,71,71,71,,,,,,,,,,,,,,,,,,,,,,,,,,,584.5373082000297,584.7381269999896,584.7207962999819,585.0214199000038,585.0214199000038,None,585.5225328999804,None,j,0,1.5836770000169054,585.5225328999804,None,None,None,,,,,,,,,,,,,,,,,,,,,,,11030,1,1,2024_Jun_01_0855,stroop_task_switching2,2021.2.3,59.81125957951243,
,,,蓝,yellow,j,diamond,color_mix,颜色,,incompatible,2,block_switch1,instruction/ready_test.png,instruction/i11.png,,,,,,,,,,,,,,,,,0,0,0,0,0,72,72,72,,,,,,,,,,,,,,,,,,,,,,,,,,,587.1245255999966,587.3248234000057,587.3088516999851,587.6099666000227,587.6099666000227,None,588.1093200999894,None,j,1,1.3078964999876916,588.1093200999894,None,None,None,,,,,,,,,,,,,,,,,,,,,,,11030,1,1,2024_Jun_01_0855,stroop_task_switching2,2021.2.3,59.81125957951243,
,,,红,green,d,square,color_mix,单词,,incompatible,2,block_switch1,instruction/ready_test.png,instruction/i11.png,,,,,,,,,,,,,,,,,0,0,0,0,0,73,73,73,,,,,,,,,,,,,,,,,,,,,,,,,,,589.4447163000004,589.6458692000015,589.6290256000357,589.9294530000188,589.9294530000188,None,590.4295660000062,None,d,1,1.164014300040435,590.4295660000062,None,None,None,,,,,,,,,,,,,,,,,,,,,,,11030,1,1,2024_Jun_01_0855,stroop_task_switching2,2021.2.3,59.81125957951243,
,,,绿,blue,f,diamond,color_mix,颜色,,incompatible,2,block_switch1,instruction/ready_test.png,instruction/i11.png,,,,,,,,,,,,,,,,,0,0,0,0,0,74,74,74,,,,,,,,,,,,,,,,,,,,,,,,,,,591.6145398000372,591.8156690000324,591.7984359000111,592.0998022999847,592.0998022999847,None,592.5994029000285,None,f,1,1.1219752000179142,592.5994029000285,None,None,None,,,,,,,,,,,,,,,,,,,,,,,11030,1,1,2024_Jun_01_0855,stroop_task_switching2,2021.2.3,59.81125957951243,
,,,红,red,d,square,color_mix,单词,,compatible,2,block_switch1,instruction/ready_test.png,instruction/i11.png,,,,,,,,,,,,,,,,,0,0,0,0,0,75,75,75,,,,,,,,,,,,,,,,,,,,,,,,,,,593.7511951000197,593.9513692000182,593.9369980000192,594.2357879999909,594.2357879999909,None,594.7358936999808,None,d,1,0.873606099979952,594.7358936999808,None,None,None,,,,,,,,,,,,,,,,,,,,,,,11030,1,1,2024_Jun_01_0855,stroop_task_switching2,2021.2.3,59.81125957951243,
,,,绿,green,k,diamond,color_mix,颜色,,compatible,2,block_switch1,instruction/ready_test.png,instruction/i11.png,,,,,,,,,,,,,,,,,0,0,0,0,0,76,76,76,,,,,,,,,,,,,,,,,,,,,,,,,,,595.6373355999822,595.8376545000356,595.8215015000314,596.123248799995,596.123248799995,None,596.6222011999926,None,k,1,0.8352409999934025,596.6222011999926,None,None,None,,,,,,,,,,,,,,,,,,,,,,,11030,1,1,2024_Jun_01_0855,stroop_task_switching2,2021.2.3,59.81125957951243,
,,,黄,red,j,square,color_mix,单词,,incompatible,2,block_switch1,instruction/ready_test.png,instruction/i11.png,,,,,,,,,,,,,,,,,0,0,0,0,0,77,77,77,,,,,,,,,,,,,,,,,,,,,,,,,,,597.473969099985,597.6750689999899,597.6568902999861,597.9590112000005,597.9590112000005,None,598.4583054999821,None,j,1,1.7432140000164509,598.4583054999821,None,None,None,,,,,,,,,,,,,,,,,,,,,,,11030,1,1,2024_Jun_01_0855,stroop_task_switching2,2021.2.3,59.81125957951243,
,,,红,red,d,square,color_mix,单词,,compatible,1,block_switch1,instruction/ready_test.png,instruction/i11.png,,,,,,,,,,,,,,,,,0,0,0,0,0,78,78,78,,,,,,,,,,,,,,,,,,,,,,,,,,,600.2275088999886,600.4286231999868,600.412565400009,600.7137774000294,600.7137774000294,None,601.2123696000199,None,d,1,1.6372706000111066,601.2123696000199,None,None,None,,,,,,,,,,,,,,,,,,,,,,,11030,1,1,2024_Jun_01_0855,stroop_task_switching2,2021.2.3,59.81125957951243,
,,,黄,yellow,j,square,color_mix,单词,,compatible,1,block_switch1,instruction/ready_test.png,instruction/i11.png,,,,,,,,,,,,,,,,,0,0,0,0,0,79,79,79,,,,,,,,,,,,,,,,,,,,,,,,,,,602.8816384000238,603.0826472000335,603.067011200008,603.3657776000327,603.3657776000327,None,603.8676038000267,None,j,1,0.9900327000068501,603.8676038000267,None,None,None,,,,,,,,,,,,,,,,,,,,,,,11030,1,1,2024_Jun_01_0855,stroop_task_switching2,2021.2.3,59.81125957951243,
,,,红,red,d,diamond,color_mix,颜色,,compatible,2,block_switch1,instruction/ready_test.png,instruction/i11.png,,,,,,,,,,,,,,,,,0,0,0,0,0,80,80,80,,,,,,,,,,,,,,,,,,,,,,,,,,,604.8845158999902,605.0853298000293,605.0688726999797,605.3688425000291,605.3688425000291,None,605.869342799997,None,d,1,0.572649099980481,605.869342799997,None,None,None,,,,,,,,,,,,,,,,,,,,,,,11030,1,1,2024_Jun_01_0855,stroop_task_switching2,2021.2.3,59.81125957951243,
,,,红,red,d,square,color_mix,单词,,compatible,2,block_switch1,instruction/ready_test.png,instruction/i11.png,,,,,,,,,,,,,,,,,0,0,0,0,0,81,81,81,,,,,,,,,,,,,,,,,,,,,,,,,,,606.470337100036,606.6709308000281,606.6550934999832,606.9559739999822,606.9559739999822,None,607.4557132000336,None,d,1,0.938262699986808,607.4557132000336,None,None,None,,,,,,,,,,,,,,,,,,,,,,,11030,1,1,2024_Jun_01_0855,stroop_task_switching2,2021.2.3,59.81125957951243,
,,,黄,blue,f,diamond,color_mix,颜色,,incompatible,2,block_switch1,instruction/ready_test.png,instruction/i11.png,,,,,,,,,,,,,,,,,0,0,0,0,0,82,82,82,,,,,,,,,,,,,,,,,,,,,,,,,,,608.4233679000172,608.6245592000196,608.6070344999898,608.9085832000128,608.9085832000128,None,609.4078370000352,None,k,0,1.4578652000054717,609.4078370000352,None,None,None,,,,,,,,,,,,,,,,,,,,,,,11030,1,1,2024_Jun_01_0855,stroop_task_switching2,2021.2.3,59.81125957951243,
,,,红,yellow,j,diamond,color_mix,颜色,,incompatible,1,block_switch1,instruction/ready_test.png,instruction/i11.png,,,,,,,,,,,,,,,,,0,0,0,0,0,83,83,83,,,,,,,,,,,,,,,,,,,,,,,,,,,610.8937189999851,611.0938310000347,611.0790747000137,611.394374400028,611.3779570999905,None,611.8785429000272,None,j,1,2.091285499976948,611.8785429000272,None,None,None,,,,,,,,,,,,,,,,,,,,,,,11030,1,1,2024_Jun_01_0855,stroop_task_switching2,2021.2.3,59.81125957951243,
,,,黄,red,d,diamond,color_mix,颜色,,incompatible,1,block_switch1,instruction/ready_test.png,instruction/i11.png,,,,,,,,,,,,,,,,,0,0,0,0,0,84,84,84,,,,,,,,,,,,,,,,,,,,,,,,,,,613.9982950999984,614.1987156000105,614.1818900000071,614.4825065000332,614.4825065000332,None,614.983158499992,None,d,1,1.1470696000033058,614.983158499992,None,None,None,,,,,,,,,,,,,,,,,,,,,,,11030,1,1,2024_Jun_01_0855,stroop_task_switching2,2021.2.3,59.81125957951243,
,,,蓝,blue,f,square,color_mix,单词,,compatible,2,block_switch1,instruction/ready_test.png,instruction/i11.png,,,,,,,,,,,,,,,,,0,0,0,0,0,85,85,85,,,,,,,,,,,,,,,,,,,,,,,,,,,616.1514739000122,616.3517181000207,616.3356244000024,616.6356195000117,616.6356195000117,None,617.1368580000126,None,f,1,0.9770425999886356,617.1368580000126,None,None,None,,,,,,,,,,,,,,,,,,,,,,,11030,1,1,2024_Jun_01_0855,stroop_task_switching2,2021.2.3,59.81125957951243,
,,,绿,green,k,square,color_mix,单词,,compatible,1,block_switch1,instruction/ready_test.png,instruction/i11.png,,,,,,,,,,,,,,,,,0,0,0,0,0,86,86,86,,,,,,,,,,,,,,,,,,,,,,,,,,,618.1379457000294,618.3398184999824,618.3216375000193,618.6232323999866,618.6232323999866,None,619.1239130999893,None,k,1,0.8626565999584273,619.1239130999893,None,None,None,,,,,,,,,,,,,,,,,,,,,,,11030,1,1,2024_Jun_01_0855,stroop_task_switching2,2021.2.3,59.81125957951243,
,,,红,red,d,square,color_mix,单词,,compatible,1,block_switch1,instruction/ready_test.png,instruction/i11.png,,,,,,,,,,,,,,,,,0,0,0,0,0,87,87,87,,,,,,,,,,,,,,,,,,,,,,,,,,,620.0073620000039,620.2090203000116,620.1910498000216,620.4930642999825,620.4930642999825,None,620.9924804000184,None,d,1,0.930326999980025,620.9924804000184,None,None,None,,,,,,,,,,,,,,,,,,,,,,,11030,1,1,2024_Jun_01_0855,stroop_task_switching2,2021.2.3,59.81125957951243,
,,,黄,green,k,diamond,color_mix,颜色,,incompatible,2,block_switch1,instruction/ready_test.png,instruction/i11.png,,,,,,,,,,,,,,,,,0,0,0,0,0,88,88,88,,,,,,,,,,,,,,,,,,,,,,,,,,,621.943843999994,622.1457480000099,622.1277498999843,622.4296234000358,622.4296234000358,None,622.9294391000294,None,k,1,0.8812687999452464,622.9294391000294,None,None,None,,,,,,,,,,,,,,,,,,,,,,,11030,1,1,2024_Jun_01_0855,stroop_task_switching2,2021.2.3,59.81125957951243,
,,,绿,red,k,square,color_mix,单词,,incompatible,2,block_switch1,instruction/ready_test.png,instruction/i11.png,,,,,,,,,,,,,,,,,0,0,0,0,0,89,89,89,,,,,,,,,,,,,,,,,,,,,,,,,,,623.829951599997,624.0311968000024,624.0135022000177,624.3144573000027,624.3144573000027,None,624.8147331000073,None,k,1,1.1634155999636278,624.8147331000073,None,None,None,,,,,,,,,,,,,,,,,,,,,,,11030,1,1,2024_Jun_01_0855,stroop_task_switching2,2021.2.3,59.81125957951243,
,,,黄,green,j,square,color_mix,单词,,incompatible,1,block_switch1,instruction/ready_test.png,instruction/i11.png,,,,,,,,,,,,,,,,,0,0,0,0,0,90,90,90,,,,,,,,,,,,,,,,,,,,,,,,,,,625.9998596999794,626.2008545999997,626.1842020000331,626.4843735999893,626.4843735999893,None,626.9843322000233,None,j,1,1.6024078999762423,626.9843322000233,None,None,None,,,,,,,,,,,,,,,,,,,,,,,11030,1,1,2024_Jun_01_0855,stroop_task_switching2,2021.2.3,59.81125957951243,
,,,蓝,blue,f,square,color_mix,单词,,compatible,1,block_switch1,instruction/ready_test.png,instruction/i11.png,,,,,,,,,,,,,,,,,0,0,0,0,0,91,91,91,,,,,,,,,,,,,,,,,,,,,,,,,,,628.6036247999873,628.8060483000008,628.7873125000042,629.0884326000232,629.0884326000232,None,629.588626599987,None,f,1,1.134512500022538,629.588626599987,None,None,None,,,,,,,,,,,,,,,,,,,,,,,11030,1,1,2024_Jun_01_0855,stroop_task_switching2,2021.2.3,59.81125957951243,
,,,蓝,red,f,square,color_mix,单词,,incompatible,1,block_switch1,instruction/ready_test.png,instruction/i11.png,,,,,,,,,,,,,,,,,0,0,0,0,0,92,92,92,,,,,,,,,,,,,,,,,,,,,,,,,,,630.7402639000211,630.9422751999809,630.9244762000162,631.2249139000196,631.2249139000196,None,631.7253462999943,None,f,1,2.0769283999688923,631.7253462999943,None,None,None,,,,,,,,,,,,,,,,,,,,,,,11030,1,1,2024_Jun_01_0855,stroop_task_switching2,2021.2.3,59.81125957951243,
,,,黄,blue,j,square,color_mix,单词,,incompatible,1,block_switch1,instruction/ready_test.png,instruction/i11.png,,,,,,,,,,,,,,,,,0,0,0,0,0,93,93,93,,,,,,,,,,,,,,,,,,,,,,,,,,,633.8283608999918,634.0296179000288,634.01229470002,634.3132112000021,634.3132112000021,None,634.8131608000258,None,f,0,1.7338971000281163,634.8131608000258,None,None,None,,,,,,,,,,,,,,,,,,,,,,,11030,1,1,2024_Jun_01_0855,stroop_task_switching2,2021.2.3,59.81125957951243,
,,,绿,red,d,diamond,color_mix,颜色,,incompatible,2,block_switch1,instruction/ready_test.png,instruction/i11.png,,,,,,,,,,,,,,,,,0,0,0,0,0,94,94,94,,,,,,,,,,,,,,,,,,,,,,,,,,,636.5658435000223,636.7666624999838,636.7511685999925,637.0663662999868,637.0501942000119,None,637.5512736000237,None,d,1,1.2830755999893881,637.5512736000237,None,None,None,,,,,,,,,,,,,,,,,,,,,,,11030,1,1,2024_Jun_01_0855,stroop_task_switching2,2021.2.3,59.81125957951243,
,,,蓝,blue,f,diamond,color_mix,颜色,,compatible,1,block_switch1,instruction/ready_test.png,instruction/i11.png,,,,,,,,,,,,,,,,,0,0,0,0,0,95,95,95,,,,,,,,,,,,,,,,,,,,,,,,,,,638.8529961000313,639.0539791000192,639.0361644999939,639.337916199991,639.337916199991,None,639.8373126999941,None,f,1,1.0772301000542939,639.8373126999941,None,None,None,,,,,,,,,,,,,,,,,,,,,,,11030,1,1,2024_Jun_01_0855,stroop_task_switching2,2021.2.3,59.81125957951243,
,,,绿,green,k,square,color_mix,单词,,compatible,2,block_switch1,instruction/ready_test.png,instruction/i11.png,,,,,,,,,,,,,,,,,0,0,0,0,0,96,96,96,,,,,,,,,,,,,,,,,,,,,,,,,,,640.9389566000318,641.1396599999862,641.1244933999842,641.4404069000157,641.4247661000118,None,641.9238925999962,None,k,1,0.638895699987188,641.9238925999962,None,None,None,,,,,,,,,,,,,,,,,,,,,,,11030,1,1,2024_Jun_01_0855,stroop_task_switching2,2021.2.3,59.81125957951243,
,,,,,,,,,,,,block_switch1,instruction/ready_test.png,instruction/i11.png,,,,,,,,,,,,,,,,,0,0,0,0,,,,,,,,,,,,,,,,,,,,,,,,,,,,,,,,,,,,,,,,,,,,,,,,,,,,,,,,,,,,642.591421500023,None,space,1.483699099975638,642.591421500023,None,,,11030,1,1,2024_Jun_01_0855,stroop_task_switching2,2021.2.3,59.81125957951243,
,,,蓝,blue,f,square,color_mix,单词,,compatible,0,block_switch2,instruction/ready_2.png,instruction/i12.png,,,,,,,,,,,,,,,,,0,1,1,1,0,0,0,0,,,,,,,,,,,,,,,,,,,647.6681407000287,648.669919500011,648.669919500011,649.6696089000325,649.6696089000325,None,646.6809213000233,647.6831412999891,650.7053359000129,650.904809300031,650.8882262000116,651.1876801000326,651.1876801000326,None,651.6890205999953,None,f,1,0.9938090000068769,651.6890205999953,None,None,None,,,,,,,,,644.111269999994,None,space,2.5479089000145905,644.111269999994,None,,,,,,,,,11030,1,1,2024_Jun_01_0855,stroop_task_switching2,2021.2.3,59.81125957951243,
,,,黄,red,d,diamond,color_mix,颜色,,incompatible,2,block_switch2,instruction/ready_2.png,instruction/i12.png,,,,,,,,,,,,,,,,,0,1,1,1,0,1,1,1,,,,,,,,,,,,,,,,,,,,,,,,,,,652.7067625999916,652.9076454000315,652.8910700000124,653.1916626000311,653.1916626000311,None,653.6922315999982,None,d,1,1.2315289999824017,653.6922315999982,None,None,None,,,,,,,,,,,,,,,,,,,,,,,11030,1,1,2024_Jun_01_0855,stroop_task_switching2,2021.2.3,59.81125957951243,
,,,蓝,green,k,diamond,color_mix,颜色,,incompatible,1,block_switch2,instruction/ready_2.png,instruction/i12.png,,,,,,,,,,,,,,,,,0,1,1,1,0,2,2,2,,,,,,,,,,,,,,,,,,,,,,,,,,,654.9434222999844,655.1445233999984,655.1269568999996,655.4282937999815,655.4282937999815,None,655.9288400000078,None,k,1,2.0826323999790475,655.9288400000078,None,None,None,,,,,,,,,,,,,,,,,,,,,,,11030,1,1,2024_Jun_01_0855,stroop_task_switching2,2021.2.3,59.81125957951243,
,,,红,yellow,j,diamond,color_mix,颜色,,incompatible,1,block_switch2,instruction/ready_2.png,instruction/i12.png,,,,,,,,,,,,,,,,,0,1,1,1,0,3,3,3,,,,,,,,,,,,,,,,,,,,,,,,,,,658.0328829000355,658.2489413000294,658.215017599985,658.5154630999896,658.5154630999896,None,659.0162561000325,None,j,1,0.8825815999880433,659.0162561000325,None,None,None,,,,,,,,,,,,,,,,,,,,,,,11030,1,1,2024_Jun_01_0855,stroop_task_switching2,2021.2.3,59.81125957951243,
,,,红,red,d,diamond,color_mix,颜色,,compatible,1,block_switch2,instruction/ready_2.png,instruction/i12.png,,,,,,,,,,,,,,,,,0,1,1,1,0,4,4,4,,,,,,,,,,,,,,,,,,,,,,,,,,,659.9176092999987,660.1179378000088,660.1017972999834,660.4017193000182,660.4017193000182,None,660.9029684999841,None,d,1,0.5885535000124946,660.9029684999841,None,None,None,,,,,,,,,,,,,,,,,,,,,,,11030,1,1,2024_Jun_01_0855,stroop_task_switching2,2021.2.3,59.81125957951243,
,,,绿,green,k,square,color_mix,单词,,compatible,2,block_switch2,instruction/ready_2.png,instruction/i12.png,,,,,,,,,,,,,,,,,0,1,1,1,0,5,5,5,,,,,,,,,,,,,,,,,,,,,,,,,,,661.5200568999862,661.7202972000232,661.7043240999919,662.0054304000223,662.0054304000223,None,662.5053761000163,None,k,1,1.2821605000062846,662.5053761000163,None,None,None,,,,,,,,,,,,,,,,,,,,,,,11030,1,1,2024_Jun_01_0855,stroop_task_switching2,2021.2.3,59.81125957951243,
,,,黄,blue,f,diamond,color_mix,颜色,,incompatible,2,block_switch2,instruction/ready_2.png,instruction/i12.png,,,,,,,,,,,,,,,,,0,1,1,1,0,6,6,6,,,,,,,,,,,,,,,,,,,,,,,,,,,663.8068007000256,664.0071303999866,663.990821400017,664.2923161000363,664.2923161000363,None,664.7915585000301,None,f,1,1.7957473000278696,664.7915585000301,None,None,None,,,,,,,,,,,,,,,,,,,,,,,11030,1,1,2024_Jun_01_0855,stroop_task_switching2,2021.2.3,59.81125957951243,
,,,绿,yellow,k,square,color_mix,单词,,incompatible,2,block_switch2,instruction/ready_2.png,instruction/i12.png,,,,,,,,,,,,,,,,,0,1,1,1,0,7,7,7,,,,,,,,,,,,,,,,,,,,,,,,,,,666.610772199987,666.8126513999887,666.7970338999876,667.0950599000207,667.0950599000207,None,667.597016100015,None,k,1,1.1106875000405125,667.597016100015,None,None,None,,,,,,,,,,,,,,,,,,,,,,,11030,1,1,2024_Jun_01_0855,stroop_task_switching2,2021.2.3,59.81125957951243,
,,,红,green,d,square,color_mix,单词,,incompatible,1,block_switch2,instruction/ready_2.png,instruction/i12.png,,,,,,,,,,,,,,,,,0,1,1,1,0,8,8,8,,,,,,,,,,,,,,,,,,,,,,,,,,,668.7308135000058,668.9332261999953,668.9153216999839,669.2161703000311,669.2161703000311,None,669.7156810000306,None,d,1,0.6157879999955185,669.7156810000306,None,None,None,,,,,,,,,,,,,,,,,,,,,,,11030,1,1,2024_Jun_01_0855,stroop_task_switching2,2021.2.3,59.81125957951243,
,,,黄,yellow,j,square,color_mix,单词,,compatible,1,block_switch2,instruction/ready_2.png,instruction/i12.png,,,,,,,,,,,,,,,,,0,1,1,1,0,9,9,9,,,,,,,,,,,,,,,,,,,,,,,,,,,670.3502751000342,670.5512431000243,670.5354666000349,670.8350774000282,670.8350774000282,None,671.3350418999908,None,j,1,1.0203865999937989,671.3350418999908,None,None,None,,,,,,,,,,,,,,,,,,,,,,,11030,1,1,2024_Jun_01_0855,stroop_task_switching2,2021.2.3,59.81125957951243,
