b_pra,ins_blocks,ins_blocks2,stim_word,stim_color,corrAns,cue_type,trial_type,task_type,rand,compatibility,switch,b_test,w_pic,w_pic2,trials_instr.thisRepN,trials_instr.thisTrialN,trials_instr.thisN,trials_instr.thisIndex,block_pra.thisRepN,block_pra.thisTrialN,block_pra.thisN,block_pra.thisIndex,trials_rep.thisRepN,trials_rep.thisTrialN,trials_rep.thisN,trials_rep.thisIndex,trials_pra.thisRepN,trials_pra.thisTrialN,trials_pra.thisN,trials_pra.thisIndex,trials_3.thisRepN,trials_3.thisTrialN,trials_3.thisN,trials_3.thisIndex,trials_2.thisRepN,trials_2.thisTrialN,trials_2.thisN,trials_2.thisIndex,instr_image.started,instr_image.stopped,instr_key_resp.keys,instr_key_resp.rt,instr_key_resp.started,instr_key_resp.stopped,instr_pra_image.started,instr_pra_image.stopped,ip_key_resp.keys,ip_key_resp.rt,ip_key_resp.started,ip_key_resp.stopped,block_image.started,block_image.stopped,ib_key_resp.keys,ib_key_resp.rt,ib_key_resp.started,ib_key_resp.stopped,cd3.started,cd3.stopped,cd2.started,cd2.stopped,cd1.started,cd1.stopped,cd_text.started,cd_text.stopped,text_fix.started,text_fix.stopped,text_2.started,text_2.stopped,text_4.started,text_4.stopped,text_target.started,text_target.stopped,key_resp.keys,key_resp.corr,key_resp.rt,key_resp.started,key_resp.stopped,sceen_black.started,sceen_black.stopped,text_fb.started,text_fb.stopped,text.started,text.stopped,key_bf.keys,key_bf.rt,key_bf.started,key_bf.stopped,instr_test_image.started,instr_test_image.stopped,instr_exp_key_resp.keys,instr_exp_key_resp.rt,instr_exp_key_resp.started,instr_exp_key_resp.stopped,text_rest.started,text_rest.stopped,key_resp_rest.keys,key_resp_rest.rt,key_resp_rest.started,key_resp_rest.stopped,text_3.started,text_3.stopped,participant,session,balance,date,expName,psychopyVersion,frameRate,
,,,,,,,,,,,,,,,0,0,0,0,,,,,,,,,,,,,,,,,,,,,10.362148199987132,None,right,4.040443800011417,10.362148199987132,None,,,,,,,,,,,,,,,,,,,,,,,,,,,,,,,,,,,,,,,,,,,,,,,,,,,,,,,,,,11032,1,1,2024_May_31_1012,stroop_task_switching2,2021.2.3,59.93389292207231,
,,,,,,,,,,,,,,,1,0,1,0,,,,,,,,,,,,,,,,,,,,,14.434585899987724,None,right,19.439971099985996,14.434585899987724,None,,,,,,,,,,,,,,,,,,,,,,,,,,,,,,,,,,,,,,,,,,,,,,,,,,,,,,,,,,11032,1,1,2024_May_31_1012,stroop_task_switching2,2021.2.3,59.93389292207231,
,,,,,,,,,,,,,,,2,0,2,0,,,,,,,,,,,,,,,,,,,,,33.9314695999783,None,right,10.807384400017327,33.9314695999783,None,,,,,,,,,,,,,,,,,,,,,,,,,,,,,,,,,,,,,,,,,,,,,,,,,,,,,,,,,,11032,1,1,2024_May_31_1012,stroop_task_switching2,2021.2.3,59.93389292207231,
,,,,,,,,,,,,,,,3,0,3,0,,,,,,,,,,,,,,,,,,,,,44.78061719998368,None,right,5.430402199999662,44.78061719998368,None,,,,,,,,,,,,,,,,,,,,,,,,,,,,,,,,,,,,,,,,,,,,,,,,,,,,,,,,,,11032,1,1,2024_May_31_1012,stroop_task_switching2,2021.2.3,59.93389292207231,
,,,,,,,,,,,,,,,4,0,4,0,,,,,,,,,,,,,,,,,,,,,50.25551339998492,None,right,12.227908400003798,50.25551339998492,None,,,,,,,,,,,,,,,,,,,,,,,,,,,,,,,,,,,,,,,,,,,,,,,,,,,,,,,,,,11032,1,1,2024_May_31_1012,stroop_task_switching2,2021.2.3,59.93389292207231,
,,,,,,,,,,,,,,,5,0,5,0,,,,,,,,,,,,,,,,,,,,,62.524015499977395,None,right,0.8473744999791961,62.524015499977395,None,,,,,,,,,,,,,,,,,,,,,,,,,,,,,,,,,,,,,,,,,,,,,,,,,,,,,,,,,,11032,1,1,2024_May_31_1012,stroop_task_switching2,2021.2.3,59.93389292207231,
,,,,,,,,,,,,,,,,,,,,,,,,,,,,,,,,,,,,,,,,,,,,,63.40940699999919,None,space,9.674253700010013,63.40940699999919,None,,,,,,,,,,,,,,,,,,,,,,,,,,,,,,,,,,,,,,,,,,,,,,,,,,,,11032,1,1,2024_May_31_1012,stroop_task_switching2,2021.2.3,59.93389292207231,
condition/block_color,instruction/instr_color,instruction/i8,XX,red,d,diamond,color_single,颜色,,,,,,,,,,,0,0,0,0,0,0,0,0,0,0,0,0,,,,,,,,,,,,,,,,,,,,,73.12263279999024,None,space,2.969141399982618,73.12263279999024,None,77.16364059998887,78.1644347999827,78.1644347999827,79.16793599998346,79.16793599998346,None,76.17803959999583,77.18072030000621,80.15101750000031,80.35126629998558,80.33503809999092,80.63551639998332,80.63551639998332,None,81.11974719999125,None,d,1,0.5329368999809958,81.11974719999125,None,None,None,81.73651779998909,None,,,,,,,,,,,,,,,,,,,,,11032,1,1,2024_May_31_1012,stroop_task_switching2,2021.2.3,59.93389292207231,
condition/block_color,instruction/instr_color,instruction/i8,XX,green,k,diamond,color_single,颜色,,,,,,,,,,,0,0,0,0,0,0,0,0,0,1,1,1,,,,,,,,,,,,,,,,,,,,,,,,,,,,,,,,,,,82.68790649998118,82.88805549999233,82.87149499999941,83.17198499999358,83.17198499999358,None,83.67273960000603,None,k,1,1.1231896999815945,83.67273960000603,None,None,None,84.84164159998181,None,,,,,,,,,,,,,,,,,,,,,11032,1,1,2024_May_31_1012,stroop_task_switching2,2021.2.3,59.93389292207231,
condition/block_color,instruction/instr_color,instruction/i8,XX,yellow,j,diamond,color_single,颜色,,,,,,,,,,,0,0,0,0,0,0,0,0,0,2,2,2,,,,,,,,,,,,,,,,,,,,,,,,,,,,,,,,,,,85.84271569998236,86.043144700001,86.0098786999879,86.31069230000139,86.31069230000139,None,86.81073769999784,None,j,1,0.6824676000105683,86.81073769999784,None,None,None,87.51179829999455,None,,,,,,,,,,,,,,,,,,,,,11032,1,1,2024_May_31_1012,stroop_task_switching2,2021.2.3,59.93389292207231,
condition/block_color,instruction/instr_color,instruction/i8,XX,blue,f,diamond,color_single,颜色,,,,,,,,,,,0,0,0,0,0,0,0,0,0,3,3,3,,,,,,,,,,,,,,,,,,,,,,,,,,,,,,,,,,,88.51330669998424,88.71368029998848,88.69722449997789,88.99806079998962,88.99806079998962,None,89.49802689999342,None,f,1,0.4820274999947287,89.49802689999342,None,None,None,89.9989562999981,None,,,,,,,,,,,,,,,,,,,,,11032,1,1,2024_May_31_1012,stroop_task_switching2,2021.2.3,59.93389292207231,
condition/block_color,instruction/instr_color,instruction/i8,XX,green,k,diamond,color_single,颜色,,,,,,,,,,,0,0,0,0,0,0,0,0,0,4,4,4,,,,,,,,,,,,,,,,,,,,,,,,,,,,,,,,,,,91.00142570000025,91.20102079998469,91.18416199999047,91.48576009998214,91.48576009998214,None,91.98556569998618,None,k,1,0.9386683999910019,91.98556569998618,None,None,None,92.9530007999856,None,,,,,,,,,,,,,,,,,,,,,11032,1,1,2024_May_31_1012,stroop_task_switching2,2021.2.3,59.93389292207231,
condition/block_color,instruction/instr_color,instruction/i8,XX,yellow,j,diamond,color_single,颜色,,,,,,,,,,,0,0,0,0,0,0,0,0,0,5,5,5,,,,,,,,,,,,,,,,,,,,,,,,,,,,,,,,,,,93.95510099999956,94.15521749999607,94.13984099999652,94.43948139998247,94.43948139998247,None,94.94011759999557,None,j,1,0.7039921999967191,94.94011759999557,None,None,None,95.6737248999998,None,,,,,,,,,,,,,,,,,,,,,11032,1,1,2024_May_31_1012,stroop_task_switching2,2021.2.3,59.93389292207231,
condition/block_color,instruction/instr_color,instruction/i8,XX,blue,f,diamond,color_single,颜色,,,,,,,,,,,0,0,0,0,0,0,0,0,0,6,6,6,,,,,,,,,,,,,,,,,,,,,,,,,,,,,,,,,,,96.67577909998363,96.87591099998099,96.86016169999493,97.1621944999788,97.1621944999788,None,97.67766879999544,None,f,1,0.5106276999867987,97.67766879999544,None,None,None,98.21133570000529,None,,,,,,,,,,,,,,,,,,,,,11032,1,1,2024_May_31_1012,stroop_task_switching2,2021.2.3,59.93389292207231,
condition/block_color,instruction/instr_color,instruction/i8,XX,red,d,diamond,color_single,颜色,,,,,,,,,,,0,0,0,0,0,0,0,0,0,7,7,7,,,,,,,,,,,,,,,,,,,,,,,,,,,,,,,,,,,99.21365209997748,99.41377640000428,99.39638799999375,99.69689359999029,99.69689359999029,None,100.19763809998403,None,d,1,0.36690760002238676,100.19763809998403,None,None,None,100.58178979999502,None,,,,,,,,,,,,,,,,,,,,,11032,1,1,2024_May_31_1012,stroop_task_switching2,2021.2.3,59.93389292207231,
condition/block_color,instruction/instr_color,instruction/i8,XX,yellow,j,diamond,color_single,颜色,,,,,,,,,,,0,0,0,0,0,0,0,0,0,8,8,8,,,,,,,,,,,,,,,,,,,,,,,,,,,,,,,,,,,101.58302659998299,101.784911499999,101.76749629998812,102.06890559999738,102.06890559999738,None,102.56788079999387,None,j,1,0.7883213000022806,102.56788079999387,None,None,None,103.40366989999893,None,,,,,,,,,,,,,,,,,,,,,11032,1,1,2024_May_31_1012,stroop_task_switching2,2021.2.3,59.93389292207231,
condition/block_color,instruction/instr_color,instruction/i8,XX,blue,f,diamond,color_single,颜色,,,,,,,,,,,0,0,0,0,0,0,0,0,0,9,9,9,,,,,,,,,,,,,,,,,,,,,,,,,,,,,,,,,,,104.404017199995,104.60450659997878,104.58831930000451,104.88879539998015,104.88879539998015,None,105.38920919998782,None,f,1,0.6873397000017576,105.38920919998782,None,None,None,106.10605659999419,None,,,,,,,,,,,,,,,,,,,,,11032,1,1,2024_May_31_1012,stroop_task_switching2,2021.2.3,59.93389292207231,
condition/block_color,instruction/instr_color,instruction/i8,XX,red,d,diamond,color_single,颜色,,,,,,,,,,,0,0,0,0,0,0,0,0,0,10,10,10,,,,,,,,,,,,,,,,,,,,,,,,,,,,,,,,,,,107.1087256000028,107.30918789998395,107.29221959999995,107.59221149998484,107.59221149998484,None,108.09297219998552,None,d,1,0.4322727999824565,108.09297219998552,None,None,None,108.54383849998703,None,,,,,,,,,,,,,,,,,,,,,11032,1,1,2024_May_31_1012,stroop_task_switching2,2021.2.3,59.93389292207231,
condition/block_color,instruction/instr_color,instruction/i8,XX,green,k,diamond,color_single,颜色,,,,,,,,,,,0,0,0,0,0,0,0,0,0,11,11,11,,,,,,,,,,,,,,,,,,,,,,,,,,,,,,,,,,,109.54497550000087,109.74572360000457,109.72873289999552,110.02891789999558,110.02891789999558,None,110.53001409998978,None,k,1,0.7149671999795828,110.53001409998978,None,None,None,111.26434329999029,None,,,,,,,,,,,,,,,,,,,,,11032,1,1,2024_May_31_1012,stroop_task_switching2,2021.2.3,59.93389292207231,
condition/block_color,instruction/instr_color,instruction/i8,XX,blue,f,diamond,color_single,颜色,,,,,,,,,,,0,0,0,0,0,0,0,0,0,12,12,12,,,,,,,,,,,,,,,,,,,,,,,,,,,,,,,,,,,112.2658668999793,112.46700219999184,112.44932129999506,112.75035279997974,112.75035279997974,None,113.25064029998612,None,f,1,0.5701362999971025,113.25064029998612,None,None,None,113.85113490000367,None,,,,,,,,,,,,,,,,,,,,,11032,1,1,2024_May_31_1012,stroop_task_switching2,2021.2.3,59.93389292207231,
condition/block_color,instruction/instr_color,instruction/i8,XX,red,d,diamond,color_single,颜色,,,,,,,,,,,0,0,0,0,0,0,0,0,0,13,13,13,,,,,,,,,,,,,,,,,,,,,,,,,,,,,,,,,,,114.85297690000152,115.05400969999027,115.03672209999058,115.33696889999555,115.33696889999555,None,115.83793350000633,None,d,1,0.44708060001721606,115.83793350000633,None,None,None,116.3054452999786,None,,,,,,,,,,,,,,,,,,,,,11032,1,1,2024_May_31_1012,stroop_task_switching2,2021.2.3,59.93389292207231,
condition/block_color,instruction/instr_color,instruction/i8,XX,green,k,diamond,color_single,颜色,,,,,,,,,,,0,0,0,0,0,0,0,0,0,14,14,14,,,,,,,,,,,,,,,,,,,,,,,,,,,,,,,,,,,117.30764709998039,117.50799290000577,117.49052449999726,117.7920116999885,117.7920116999885,None,118.29159409998101,None,k,1,0.8339704999816604,118.29159409998101,None,None,None,119.14297559999977,None,,,,,,,,,,,,,,,,,,,,,11032,1,1,2024_May_31_1012,stroop_task_switching2,2021.2.3,59.93389292207231,
condition/block_color,instruction/instr_color,instruction/i8,XX,yellow,j,diamond,color_single,颜色,,,,,,,,,,,0,0,0,0,0,0,0,0,0,15,15,15,,,,,,,,,,,,,,,,,,,,,,,,,,,,,,,,,,,120.14488649999839,120.34533369998098,120.32936879998306,120.62934499999392,120.62934499999392,None,121.12920389999636,None,j,1,0.4195369999797549,121.12920389999636,None,None,None,121.57931430000463,None,,,,,,,,,,,,,,,,,,,,,11032,1,1,2024_May_31_1012,stroop_task_switching2,2021.2.3,59.93389292207231,
condition/block_color,instruction/instr_color,instruction/i8,XX,red,d,diamond,color_single,颜色,,,,,,,,,,,0,0,0,0,0,0,0,0,0,16,16,16,,,,,,,,,,,,,,,,,,,,,,,,,,,,,,,,,,,122.58200609998312,122.78237060000538,122.76500579999993,123.06705339998007,123.06705339998007,None,123.56625790000544,None,d,1,0.4556657000211999,123.56625790000544,None,None,None,124.06777890000376,None,,,,,,,,,,,,,,,,,,,,,11032,1,1,2024_May_31_1012,stroop_task_switching2,2021.2.3,59.93389292207231,
condition/block_color,instruction/instr_color,instruction/i8,XX,green,k,diamond,color_single,颜色,,,,,,,,,,,0,0,0,0,0,0,0,0,0,17,17,17,,,,,,,,,,,,,,,,,,,,,,,,,,,,,,,,,,,125.06827849999536,125.26857270000619,125.25325869998778,125.55359460000182,125.53584949998185,None,126.03651730000274,None,k,1,0.7850322999875061,126.03651730000274,None,None,None,126.83792550000362,None,,,,,,,,,,,,,,,,,,,,,11032,1,1,2024_May_31_1012,stroop_task_switching2,2021.2.3,59.93389292207231,
condition/block_color,instruction/instr_color,instruction/i8,XX,yellow,j,diamond,color_single,颜色,,,,,,,,,,,0,0,0,0,0,0,0,0,0,18,18,18,,,,,,,,,,,,,,,,,,,,,,,,,,,,,,,,,,,127.83940100000473,128.04081289999885,128.02297510000062,128.32378779997816,128.32378779997816,None,128.82480869998108,None,j,1,0.5884604000020772,128.82480869998108,None,None,None,129.44130629999563,None,,,,,,,,,,,,,,,,,,,,,11032,1,1,2024_May_31_1012,stroop_task_switching2,2021.2.3,59.93389292207231,
condition/block_color,instruction/instr_color,instruction/i8,XX,blue,f,diamond,color_single,颜色,,,,,,,,,,,0,0,0,0,0,0,0,0,0,19,19,19,,,,,,,,,,,,,,,,,,,,,,,,,,,,,,,,,,,130.44349179998972,130.64428710000357,130.62675769999623,130.9271891999815,130.9271891999815,None,131.4280882999883,None,f,1,0.3854262000240851,131.4280882999883,None,None,None,131.82874420000007,None,,,,,,,,,,,,,,,,,,,,,11032,1,1,2024_May_31_1012,stroop_task_switching2,2021.2.3,59.93389292207231,
condition/block_color,instruction/instr_color,instruction/i8,XX,green,k,diamond,color_single,颜色,,,,,,,,,,,0,0,0,0,0,0,0,0,0,20,20,20,,,,,,,,,,,,,,,,,,,,,,,,,,,,,,,,,,,132.8301502999966,133.03049669999746,133.0145463999943,133.31401929998538,133.31401929998538,None,133.81514609997976,None,k,1,0.7506350000039674,133.81514609997976,None,None,None,134.5829328999971,None,,,,,,,,,,,,,,,,,,,,,11032,1,1,2024_May_31_1012,stroop_task_switching2,2021.2.3,59.93389292207231,
condition/block_color,instruction/instr_color,instruction/i8,XX,yellow,j,diamond,color_single,颜色,,,,,,,,,,,0,0,0,0,0,0,0,0,0,21,21,21,,,,,,,,,,,,,,,,,,,,,,,,,,,,,,,,,,,135.58579979999922,135.78519199998118,135.76834349997807,136.06929889999446,136.06929889999446,None,136.56921719998354,None,j,1,0.7961615999811329,136.56921719998354,None,None,None,137.3868961999833,None,,,,,,,,,,,,,,,,,,,,,11032,1,1,2024_May_31_1012,stroop_task_switching2,2021.2.3,59.93389292207231,
condition/block_color,instruction/instr_color,instruction/i8,XX,blue,f,diamond,color_single,颜色,,,,,,,,,,,0,0,0,0,0,0,0,0,0,22,22,22,,,,,,,,,,,,,,,,,,,,,,,,,,,,,,,,,,,138.38900569998077,138.58997739999904,138.5722332999867,138.8739513999899,138.8739513999899,None,139.37337220000336,None,f,1,0.6802838000003248,139.37337220000336,None,None,None,140.07425269999658,None,,,,,,,,,,,,,,,,,,,,,11032,1,1,2024_May_31_1012,stroop_task_switching2,2021.2.3,59.93389292207231,
condition/block_color,instruction/instr_color,instruction/i8,XX,red,d,diamond,color_single,颜色,,,,,,,,,,,0,0,0,0,0,0,0,0,0,23,23,23,,,,,,,,,,,,,,,,,,,,,,,,,,,,,,,,,,,141.07618329999968,141.27607709998847,141.27607709998847,141.57787079998525,141.56011309998576,None,142.0611421999929,None,d,1,0.4403065999795217,142.0611421999929,None,None,None,142.52822229999583,None,,,,,,,,,,,,,,,,,,,,,11032,1,1,2024_May_31_1012,stroop_task_switching2,2021.2.3,59.93389292207231,
condition/block_color,instruction/instr_color,instruction/i8,,,,,,,,,,,,,,,,,0,0,0,0,0,0,0,0,,,,,,,,,,,,,,,,,,,,,,,,,,,,,,,,,,,,,,,,,,,,,,,,,,,,,,,,143.5657425999816,None,space,3.0641013999993447,143.5657425999816,None,,,,,,,,,,,,,,,11032,1,1,2024_May_31_1012,stroop_task_switching2,2021.2.3,59.93389292207231,
condition/block_color,instruction/instr_color,instruction/i8,,,,,,,,,,,,,,,,,0,0,0,0,,,,,,,,,,,,,,,,,,,,,,,,,,,,,,,,,,,,,,,,,,,,,,,,,,,,,,,,,,,,,,,,,,,,,,,,,,,,,,,,11032,1,1,2024_May_31_1012,stroop_task_switching2,2021.2.3,59.93389292207231,
condition/block_word,instruction/instr_word,instruction/i9,黄,white,j,square,word_single,单词,0.0032461461866890584,,,,,,,,,,0,1,1,1,0,0,0,0,0,0,0,0,,,,,,,,,,,,,,,,,,,,,146.68486269999994,None,space,2.0810782999906223,146.68486269999994,None,149.7901317999931,150.79098940000404,150.79098940000404,151.7942647000018,151.7942647000018,None,148.8048631999991,149.80790929999785,152.80997529998422,153.01064229998155,153.01064229998155,153.31293509999523,153.31293509999523,None,153.7950876999821,None,j,1,0.8907841000182088,153.7950876999821,None,None,None,154.7470566999982,None,,,,,,,,,,,,,,,,,,,,,11032,1,1,2024_May_31_1012,stroop_task_switching2,2021.2.3,59.93389292207231,
condition/block_word,instruction/instr_word,instruction/i9,蓝,white,f,square,word_single,单词,0.060540570646362424,,,,,,,,,,0,1,1,1,0,0,0,0,0,1,1,1,,,,,,,,,,,,,,,,,,,,,,,,,,,,,,,,,,,155.73221220000414,155.9318951999885,155.89835089998087,156.1994096999988,156.1994096999988,None,156.69950709998375,None,f,1,0.7224948999937624,156.69950709998375,None,None,None,157.45054510000045,None,,,,,,,,,,,,,,,,,,,,,11032,1,1,2024_May_31_1012,stroop_task_switching2,2021.2.3,59.93389292207231,
condition/block_word,instruction/instr_word,instruction/i9,黄,white,j,square,word_single,单词,0.06994067193778963,,,,,,,,,,0,1,1,1,0,0,0,0,0,2,2,2,,,,,,,,,,,,,,,,,,,,,,,,,,,,,,,,,,,158.45244419999653,158.65231079998193,158.63670999999158,158.93692959999316,158.93692959999316,None,159.43704809999326,None,j,1,0.5690914000151679,159.43704809999326,None,None,None,160.02118749998044,None,,,,,,,,,,,,,,,,,,,,,11032,1,1,2024_May_31_1012,stroop_task_switching2,2021.2.3,59.93389292207231,
condition/block_word,instruction/instr_word,instruction/i9,蓝,white,f,square,word_single,单词,0.08193765152950094,,,,,,,,,,0,1,1,1,0,0,0,0,0,3,3,3,,,,,,,,,,,,,,,,,,,,,,,,,,,,,,,,,,,161.0239246999845,161.2416694999847,161.20608629999333,161.50876389999758,161.50876389999758,None,162.0075450000004,None,f,1,0.7903841999941505,162.0075450000004,None,None,None,162.82539889999316,None,,,,,,,,,,,,,,,,,,,,,11032,1,1,2024_May_31_1012,stroop_task_switching2,2021.2.3,59.93389292207231,
condition/block_word,instruction/instr_word,instruction/i9,红,white,d,square,word_single,单词,0.1279694370605574,,,,,,,,,,0,1,1,1,0,0,0,0,0,4,4,4,,,,,,,,,,,,,,,,,,,,,,,,,,,,,,,,,,,163.82730139998603,164.02706309998757,164.0108483999793,164.3121876999794,164.3121876999794,None,164.81177929998375,None,d,1,0.4904668999952264,164.81177929998375,None,None,None,165.3293890999921,None,,,,,,,,,,,,,,,,,,,,,11032,1,1,2024_May_31_1012,stroop_task_switching2,2021.2.3,59.93389292207231,
condition/block_word,instruction/instr_word,instruction/i9,红,white,d,square,word_single,单词,0.18345028784879092,,,,,,,,,,0,1,1,1,0,0,0,0,0,5,5,5,,,,,,,,,,,,,,,,,,,,,,,,,,,,,,,,,,,166.3305032000062,166.53198149998207,166.51417439998477,166.81558419999783,166.81558419999783,None,167.31631789999665,None,d,1,0.5620655999809969,167.31631789999665,None,None,None,167.8997640000016,None,,,,,,,,,,,,,,,,,,,,,11032,1,1,2024_May_31_1012,stroop_task_switching2,2021.2.3,59.93389292207231,
condition/block_word,instruction/instr_word,instruction/i9,蓝,white,f,square,word_single,单词,0.19920386223101294,,,,,,,,,,0,1,1,1,0,0,0,0,0,6,6,6,,,,,,,,,,,,,,,,,,,,,,,,,,,,,,,,,,,168.9018567999883,169.10167229999206,169.08604480000213,169.3864392999967,169.3864392999967,None,169.88618959998712,None,f,1,1.1201395000098273,169.88618959998712,None,None,None,171.05599079999956,None,,,,,,,,,,,,,,,,,,,,,11032,1,1,2024_May_31_1012,stroop_task_switching2,2021.2.3,59.93389292207231,
condition/block_word,instruction/instr_word,instruction/i9,蓝,white,f,square,word_single,单词,0.26360599864925405,,,,,,,,,,0,1,1,1,0,0,0,0,0,7,7,7,,,,,,,,,,,,,,,,,,,,,,,,,,,,,,,,,,,172.05687229998875,172.25750609999523,172.24033519998193,172.54075279997778,172.52394439998898,None,173.02411629998824,None,f,1,0.5263339999946766,173.02411629998824,None,None,None,173.57493010000326,None,,,,,,,,,,,,,,,,,,,,,11032,1,1,2024_May_31_1012,stroop_task_switching2,2021.2.3,59.93389292207231,
condition/block_word,instruction/instr_word,instruction/i9,蓝,white,f,square,word_single,单词,0.358985675745526,,,,,,,,,,0,1,1,1,0,0,0,0,0,8,8,8,,,,,,,,,,,,,,,,,,,,,,,,,,,,,,,,,,,174.57641710000462,174.77830760000506,174.76001060000272,175.0622220999794,175.0622220999794,None,175.56184449998545,None,f,1,0.500637099990854,175.56184449998545,None,None,None,176.0786369999987,None,,,,,,,,,,,,,,,,,,,,,11032,1,1,2024_May_31_1012,stroop_task_switching2,2021.2.3,59.93389292207231,
condition/block_word,instruction/instr_word,instruction/i9,绿,white,k,square,word_single,单词,0.36496733802487347,,,,,,,,,,0,1,1,1,0,0,0,0,0,9,9,9,,,,,,,,,,,,,,,,,,,,,,,,,,,,,,,,,,,177.08068319997983,177.28112359999795,177.26436440000543,177.56508420000318,177.56508420000318,None,178.06495329999598,None,k,1,0.7575792999996338,178.06495329999598,None,None,None,178.84942299997783,None,,,,,,,,,,,,,,,,,,,,,11032,1,1,2024_May_31_1012,stroop_task_switching2,2021.2.3,59.93389292207231,
condition/block_word,instruction/instr_word,instruction/i9,黄,white,j,square,word_single,单词,0.3743513623756727,,,,,,,,,,0,1,1,1,0,0,0,0,0,10,10,10,,,,,,,,,,,,,,,,,,,,,,,,,,,,,,,,,,,179.8517309000017,180.0533948999946,180.03535299998475,180.33519270000397,180.33519270000397,None,180.8359788999951,None,j,1,0.5945079000084661,180.8359788999951,None,None,None,181.45348779999767,None,,,,,,,,,,,,,,,,,,,,,11032,1,1,2024_May_31_1012,stroop_task_switching2,2021.2.3,59.93389292207231,
condition/block_word,instruction/instr_word,instruction/i9,红,white,d,square,word_single,单词,0.3894803852598544,,,,,,,,,,0,1,1,1,0,0,0,0,0,11,11,11,,,,,,,,,,,,,,,,,,,,,,,,,,,,,,,,,,,182.45604669998283,182.65763800000423,182.63894859998254,182.94054359997972,182.94054359997972,None,183.43995020000148,None,d,1,0.4546783000114374,183.43995020000148,None,None,None,183.9239613999962,None,,,,,,,,,,,,,,,,,,,,,11032,1,1,2024_May_31_1012,stroop_task_switching2,2021.2.3,59.93389292207231,
condition/block_word,instruction/instr_word,instruction/i9,绿,white,k,square,word_single,单词,0.5393759672408067,,,,,,,,,,0,1,1,1,0,0,0,0,0,12,12,12,,,,,,,,,,,,,,,,,,,,,,,,,,,,,,,,,,,184.92597459998797,185.12618449999718,185.1096864999854,185.4104204000032,185.4104204000032,None,185.9109755999816,None,k,1,0.856061900005443,185.9109755999816,None,None,None,186.79521049998584,None,,,,,,,,,,,,,,,,,,,,,11032,1,1,2024_May_31_1012,stroop_task_switching2,2021.2.3,59.93389292207231,
condition/block_word,instruction/instr_word,instruction/i9,蓝,white,f,square,word_single,单词,0.5995731954831104,,,,,,,,,,0,1,1,1,0,0,0,0,0,13,13,13,,,,,,,,,,,,,,,,,,,,,,,,,,,,,,,,,,,187.7968930999923,187.99777970000287,187.97977489998448,188.28111169999465,188.28111169999465,None,188.78117709999788,None,f,1,0.6497598999994807,188.78117709999788,None,None,None,189.4486096999899,None,,,,,,,,,,,,,,,,,,,,,11032,1,1,2024_May_31_1012,stroop_task_switching2,2021.2.3,59.93389292207231,
condition/block_word,instruction/instr_word,instruction/i9,红,white,d,square,word_single,单词,0.6298674479151414,,,,,,,,,,0,1,1,1,0,0,0,0,0,14,14,14,,,,,,,,,,,,,,,,,,,,,,,,,,,,,,,,,,,190.4505159999826,190.65277749998495,190.6341948999907,190.9355499999947,190.9355499999947,None,191.43542850000085,None,d,1,0.3793899999873247,191.43542850000085,None,None,None,191.83558499999344,None,,,,,,,,,,,,,,,,,,,,,11032,1,1,2024_May_31_1012,stroop_task_switching2,2021.2.3,59.93389292207231,
condition/block_word,instruction/instr_word,instruction/i9,红,white,d,square,word_single,单词,0.7389942282348904,,,,,,,,,,0,1,1,1,0,0,0,0,0,15,15,15,,,,,,,,,,,,,,,,,,,,,,,,,,,,,,,,,,,192.8372225999774,193.03862999999546,193.02104940000572,193.3218583999842,193.3218583999842,None,193.82214770000428,None,d,1,0.5768153000099119,193.82214770000428,None,None,None,194.423252699984,None,,,,,,,,,,,,,,,,,,,,,11032,1,1,2024_May_31_1012,stroop_task_switching2,2021.2.3,59.93389292207231,
condition/block_word,instruction/instr_word,instruction/i9,绿,white,k,square,word_single,单词,0.7550853947239682,,,,,,,,,,0,1,1,1,0,0,0,0,0,16,16,16,,,,,,,,,,,,,,,,,,,,,,,,,,,,,,,,,,,195.425053199986,195.6255629999796,195.60848699999042,195.90968139999313,195.90968139999313,None,196.40916159999324,None,k,1,0.6856932000082452,196.40916159999324,None,None,None,197.11050159999286,None,,,,,,,,,,,,,,,,,,,,,11032,1,1,2024_May_31_1012,stroop_task_switching2,2021.2.3,59.93389292207231,
condition/block_word,instruction/instr_word,instruction/i9,绿,white,k,square,word_single,单词,0.8019302780428206,,,,,,,,,,0,1,1,1,0,0,0,0,0,17,17,17,,,,,,,,,,,,,,,,,,,,,,,,,,,,,,,,,,,198.11205519997748,198.3136419999937,198.29584029997932,198.59687909999047,198.59687909999047,None,199.09721209999407,None,k,1,0.9899724000133574,199.09721209999407,None,None,None,200.11471649998566,None,,,,,,,,,,,,,,,,,,,,,11032,1,1,2024_May_31_1012,stroop_task_switching2,2021.2.3,59.93389292207231,
condition/block_word,instruction/instr_word,instruction/i9,绿,white,k,square,word_single,单词,0.8110702914095343,,,,,,,,,,0,1,1,1,0,0,0,0,0,18,18,18,,,,,,,,,,,,,,,,,,,,,,,,,,,,,,,,,,,201.11720670000068,201.31752969999798,201.30083880000166,201.6010628999793,201.6010628999793,None,202.10177529999055,None,k,1,0.5211605999793392,202.10177529999055,None,None,None,202.66914409998572,None,,,,,,,,,,,,,,,,,,,,,11032,1,1,2024_May_31_1012,stroop_task_switching2,2021.2.3,59.93389292207231,
condition/block_word,instruction/instr_word,instruction/i9,黄,white,j,square,word_single,单词,0.8176594937590999,,,,,,,,,,0,1,1,1,0,0,0,0,0,19,19,19,,,,,,,,,,,,,,,,,,,,,,,,,,,,,,,,,,,203.67028029999346,203.87053250000463,203.83721259998856,204.1379156000039,204.1379156000039,None,204.63857579999603,None,j,1,0.6649477000173647,204.63857579999603,None,None,None,205.32281829998828,None,,,,,,,,,,,,,,,,,,,,,11032,1,1,2024_May_31_1012,stroop_task_switching2,2021.2.3,59.93389292207231,
condition/block_word,instruction/instr_word,instruction/i9,红,white,d,square,word_single,单词,0.8955794421104841,,,,,,,,,,0,1,1,1,0,0,0,0,0,20,20,20,,,,,,,,,,,,,,,,,,,,,,,,,,,,,,,,,,,206.32436729999608,206.5249724999885,206.50816389999818,206.80956649998552,206.80956649998552,None,207.3090908000013,None,d,1,0.49024659997667186,207.3090908000013,None,None,None,207.82680529999197,None,,,,,,,,,,,,,,,,,,,,,11032,1,1,2024_May_31_1012,stroop_task_switching2,2021.2.3,59.93389292207231,
condition/block_word,instruction/instr_word,instruction/i9,绿,white,k,square,word_single,单词,0.9113598052474129,,,,,,,,,,0,1,1,1,0,0,0,0,0,21,21,21,,,,,,,,,,,,,,,,,,,,,,,,,,,,,,,,,,,208.82935059999,209.02970399998594,209.0122229999979,209.3136153999949,209.3136153999949,None,209.81272630000603,None,k,1,0.8186768000014126,209.81272630000603,None,None,None,210.64761559999897,None,,,,,,,,,,,,,,,,,,,,,11032,1,1,2024_May_31_1012,stroop_task_switching2,2021.2.3,59.93389292207231,
condition/block_word,instruction/instr_word,instruction/i9,黄,white,j,square,word_single,单词,0.9215930958042953,,,,,,,,,,0,1,1,1,0,0,0,0,0,22,22,22,,,,,,,,,,,,,,,,,,,,,,,,,,,,,,,,,,,211.64883329998702,211.8505726000003,211.8325130000012,212.13342759999796,212.13342759999796,None,212.6339029999799,None,j,1,0.5974626000097487,212.6339029999799,None,None,None,213.25201890000608,None,,,,,,,,,,,,,,,,,,,,,11032,1,1,2024_May_31_1012,stroop_task_switching2,2021.2.3,59.93389292207231,
condition/block_word,instruction/instr_word,instruction/i9,黄,white,j,square,word_single,单词,0.9493525498837774,,,,,,,,,,0,1,1,1,0,0,0,0,0,23,23,23,,,,,,,,,,,,,,,,,,,,,,,,,,,,,,,,,,,214.25335469999118,214.45457989998977,214.43669010000303,214.73954219999723,214.73954219999723,None,215.23807229998056,None,j,1,0.6255263999919407,215.23807229998056,None,None,None,215.88871929998277,None,,,,,,,,,,,,,,,,,,,,,11032,1,1,2024_May_31_1012,stroop_task_switching2,2021.2.3,59.93389292207231,
condition/block_word,instruction/instr_word,instruction/i9,,,,,,,,,,,,,,,,,0,1,1,1,0,0,0,0,,,,,,,,,,,,,,,,,,,,,,,,,,,,,,,,,,,,,,,,,,,,,,,,,,,,,,,,216.89042640000116,None,space,1.8290884000016376,216.89042640000116,None,,,,,,,,,,,,,,,11032,1,1,2024_May_31_1012,stroop_task_switching2,2021.2.3,59.93389292207231,
condition/block_word,instruction/instr_word,instruction/i9,,,,,,,,,,,,,,,,,0,1,1,1,,,,,,,,,,,,,,,,,,,,,,,,,,,,,,,,,,,,,,,,,,,,,,,,,,,,,,,,,,,,,,,,,,,,,,,,,,,,,,,,11032,1,1,2024_May_31_1012,stroop_task_switching2,2021.2.3,59.93389292207231,
condition/block_mixed,instruction/instr_mixed,instruction/i10,蓝,red,d,diamond,color_mix,颜色,,incompatible,0,,,,,,,,0,2,2,2,0,0,0,0,0,0,0,0,,,,,,,,,,,,,,,,,,,,,218.77694619999966,None,space,3.2790617999853566,218.77694619999966,None,223.0848823999986,224.08478000000468,224.08478000000468,225.08686109998962,225.08686109998962,None,222.09945509998943,223.10023459998774,226.12168999999994,226.3222249999817,226.30581109999912,226.60514879997936,226.60514879997936,None,227.0890739999886,None,d,1,0.726754199975403,227.0890739999886,None,None,None,227.87411010000505,None,,,,,,,,,,,,,,,,,,,,,11032,1,1,2024_May_31_1012,stroop_task_switching2,2021.2.3,59.93389292207231,
condition/block_mixed,instruction/instr_mixed,instruction/i10,绿,yellow,j,diamond,color_mix,颜色,,incompatible,1,,,,,,,,0,2,2,2,0,0,0,0,0,1,1,1,,,,,,,,,,,,,,,,,,,,,,,,,,,,,,,,,,,228.85837929998524,229.05997439997736,229.02556979999645,229.32707050000317,229.32707050000317,None,229.82635639997898,None,j,1,1.6863615999754984,229.82635639997898,None,None,None,231.52902019998874,None,,,,,,,,,,,,,,,,,,,,,11032,1,1,2024_May_31_1012,stroop_task_switching2,2021.2.3,59.93389292207231,
condition/block_mixed,instruction/instr_mixed,instruction/i10,红,green,k,diamond,color_mix,颜色,,incompatible,1,,,,,,,,0,2,2,2,0,0,0,0,0,2,2,2,,,,,,,,,,,,,,,,,,,,,,,,,,,,,,,,,,,232.53093290000106,232.73311089997878,232.71420719998423,233.01461789998575,233.01461789998575,None,233.5156360999972,None,k,1,1.3723959999915678,233.5156360999972,None,None,None,234.93452690000413,None,,,,,,,,,,,,,,,,,,,,,11032,1,1,2024_May_31_1012,stroop_task_switching2,2021.2.3,59.93389292207231,
condition/block_mixed,instruction/instr_mixed,instruction/i10,蓝,red,d,diamond,color_mix,颜色,,incompatible,1,,,,,,,,0,2,2,2,0,0,0,0,0,3,3,3,,,,,,,,,,,,,,,,,,,,,,,,,,,,,,,,,,,235.9361038999923,236.13596980000148,236.11968750000233,236.42048129998147,236.42048129998147,None,236.92062960000476,None,d,1,0.9757044999860227,236.92062960000476,None,None,None,237.9221694000007,None,,,,,,,,,,,,,,,,,,,,,11032,1,1,2024_May_31_1012,stroop_task_switching2,2021.2.3,59.93389292207231,
condition/block_mixed,instruction/instr_mixed,instruction/i10,红,blue,f,diamond,color_mix,颜色,,incompatible,1,,,,,,,,0,2,2,2,0,0,0,0,0,4,4,4,,,,,,,,,,,,,,,,,,,,,,,,,,,,,,,,,,,238.92344939999748,239.125649900001,239.10775500000454,239.40753219998442,239.40753219998442,None,239.90860860000248,None,f,1,1.1157778000051621,239.90860860000248,None,None,None,241.0433428999968,None,,,,,,,,,,,,,,,,,,,,,11032,1,1,2024_May_31_1012,stroop_task_switching2,2021.2.3,59.93389292207231,
condition/block_mixed,instruction/instr_mixed,instruction/i10,红,blue,d,square,color_mix,单词,,incompatible,2,,,,,,,,0,2,2,2,0,0,0,0,0,5,5,5,,,,,,,,,,,,,,,,,,,,,,,,,,,,,,,,,,,242.0456071999797,242.24622820000513,242.23036719998345,242.52985789999366,242.52985789999366,None,243.03016989998287,None,d,1,0.6101364999776706,243.03016989998287,None,None,None,243.6639266999846,None,,,,,,,,,,,,,,,,,,,,,11032,1,1,2024_May_31_1012,stroop_task_switching2,2021.2.3,59.93389292207231,
condition/block_mixed,instruction/instr_mixed,instruction/i10,红,yellow,j,diamond,color_mix,颜色,,incompatible,2,,,,,,,,0,2,2,2,0,0,0,0,0,6,6,6,,,,,,,,,,,,,,,,,,,,,,,,,,,,,,,,,,,244.66540609998628,244.8661194999877,244.8504131999798,245.15017609999632,245.15017609999632,None,245.6503582999867,None,j,1,1.0382867000007536,245.6503582999867,None,None,None,246.7357454999874,None,,,,,,,,,,,,,,,,,,,,,11032,1,1,2024_May_31_1012,stroop_task_switching2,2021.2.3,59.93389292207231,
condition/block_mixed,instruction/instr_mixed,instruction/i10,红,yellow,d,square,color_mix,单词,,incompatible,2,,,,,,,,0,2,2,2,0,0,0,0,0,7,7,7,,,,,,,,,,,,,,,,,,,,,,,,,,,,,,,,,,,247.73678279999876,247.93710739997914,247.92039029998705,248.22115189998294,248.22115189998294,None,248.72149989998434,None,d,1,1.5840199000085704,248.72149989998434,None,None,None,250.324099999998,None,,,,,,,,,,,,,,,,,,,,,11032,1,1,2024_May_31_1012,stroop_task_switching2,2021.2.3,59.93389292207231,
condition/block_mixed,instruction/instr_mixed,instruction/i10,绿,blue,k,square,color_mix,单词,,incompatible,1,,,,,,,,0,2,2,2,0,0,0,0,0,8,8,8,,,,,,,,,,,,,,,,,,,,,,,,,,,,,,,,,,,251.32553760000155,251.52666809997754,251.5090124999988,251.81059099998674,251.81059099998674,None,252.3109227999812,None,k,1,1.265798000007635,252.3109227999812,None,None,None,253.59561459999532,None,,,,,,,,,,,,,,,,,,,,,11032,1,1,2024_May_31_1012,stroop_task_switching2,2021.2.3,59.93389292207231,
condition/block_mixed,instruction/instr_mixed,instruction/i10,蓝,green,k,diamond,color_mix,颜色,,incompatible,2,,,,,,,,0,2,2,2,0,0,0,0,0,9,9,9,,,,,,,,,,,,,,,,,,,,,,,,,,,,,,,,,,,254.59747909998987,254.79818759998307,254.78317290000268,255.08136439998634,255.08136439998634,None,255.58294860000024,None,k,1,2.1536485999822617,255.58294860000024,None,None,None,257.7518818999815,None,,,,,,,,,,,,,,,,,,,,,11032,1,1,2024_May_31_1012,stroop_task_switching2,2021.2.3,59.93389292207231,
condition/block_mixed,instruction/instr_mixed,instruction/i10,蓝,yellow,f,square,color_mix,单词,,incompatible,2,,,,,,,,0,2,2,2,0,0,0,0,0,10,10,10,,,,,,,,,,,,,,,,,,,,,,,,,,,,,,,,,,,258.7541129000019,258.9546317999775,258.93704140000045,259.23780350000015,259.23780350000015,None,259.73868599999696,None,f,1,1.0218879999883939,259.73868599999696,None,None,None,260.8072698999895,None,,,,,,,,,,,,,,,,,,,,,11032,1,1,2024_May_31_1012,stroop_task_switching2,2021.2.3,59.93389292207231,
condition/block_mixed,instruction/instr_mixed,instruction/i10,蓝,green,f,square,color_mix,单词,,incompatible,1,,,,,,,,0,2,2,2,0,0,0,0,0,11,11,11,,,,,,,,,,,,,,,,,,,,,,,,,,,,,,,,,,,261.80831059999764,262.008411399991,261.99410349997925,262.292876099993,262.292876099993,None,262.7935710999882,None,f,1,0.5592518000048585,262.7935710999882,None,None,None,263.37728159999824,None,,,,,,,,,,,,,,,,,,,,,11032,1,1,2024_May_31_1012,stroop_task_switching2,2021.2.3,59.93389292207231,
condition/block_mixed,instruction/instr_mixed,instruction/i10,绿,yellow,k,square,color_mix,单词,,incompatible,1,,,,,,,,0,2,2,2,0,0,0,0,0,12,12,12,,,,,,,,,,,,,,,,,,,,,,,,,,,,,,,,,,,264.3789142000023,264.5805943000014,264.5625283999834,264.86415869998746,264.86415869998746,None,265.36331889999565,None,k,1,1.4698104999843054,265.36331889999565,None,None,None,266.84920169998077,None,,,,,,,,,,,,,,,,,,,,,11032,1,1,2024_May_31_1012,stroop_task_switching2,2021.2.3,59.93389292207231,
condition/block_mixed,instruction/instr_mixed,instruction/i10,绿,blue,f,diamond,color_mix,颜色,,incompatible,2,,,,,,,,0,2,2,2,0,0,0,0,0,13,13,13,,,,,,,,,,,,,,,,,,,,,,,,,,,,,,,,,,,267.8505795999954,268.05098780000117,268.03445499998634,268.3358380999998,268.3358380999998,None,268.8351953999954,None,f,1,0.8777868000033777,268.8351953999954,None,None,None,269.7367430999875,None,,,,,,,,,,,,,,,,,,,,,11032,1,1,2024_May_31_1012,stroop_task_switching2,2021.2.3,59.93389292207231,
condition/block_mixed,instruction/instr_mixed,instruction/i10,黄,red,j,square,color_mix,单词,,incompatible,2,,,,,,,,0,2,2,2,0,0,0,0,0,14,14,14,,,,,,,,,,,,,,,,,,,,,,,,,,,,,,,,,,,270.7379815999884,270.9387247999839,270.9229996999784,271.2229327999812,271.2229327999812,None,271.7229743000062,None,j,1,1.1746965000056662,271.7229743000062,None,None,None,272.9419958999788,None,,,,,,,,,,,,,,,,,,,,,11032,1,1,2024_May_31_1012,stroop_task_switching2,2021.2.3,59.93389292207231,
condition/block_mixed,instruction/instr_mixed,instruction/i10,蓝,yellow,j,diamond,color_mix,颜色,,incompatible,2,,,,,,,,0,2,2,2,0,0,0,0,0,15,15,15,,,,,,,,,,,,,,,,,,,,,,,,,,,,,,,,,,,273.9435855000047,274.1433902999852,274.1282583999855,274.44435839998187,274.4287268999906,None,274.9283736999787,None,j,1,1.072736200003419,274.9283736999787,None,None,None,276.02929419997963,None,,,,,,,,,,,,,,,,,,,,,11032,1,1,2024_May_31_1012,stroop_task_switching2,2021.2.3,59.93389292207231,
condition/block_mixed,instruction/instr_mixed,instruction/i10,黄,red,d,diamond,color_mix,颜色,,incompatible,1,,,,,,,,0,2,2,2,0,0,0,0,0,16,16,16,,,,,,,,,,,,,,,,,,,,,,,,,,,,,,,,,,,277.03176600000006,277.2319235999894,277.2148445000057,277.51550639999914,277.51550639999914,None,278.0159393999784,None,d,1,1.7773251000035089,278.0159393999784,None,None,None,279.81858689998626,None,,,,,,,,,,,,,,,,,,,,,11032,1,1,2024_May_31_1012,stroop_task_switching2,2021.2.3,59.93389292207231,
condition/block_mixed,instruction/instr_mixed,instruction/i10,绿,red,k,square,color_mix,单词,,incompatible,2,,,,,,,,0,2,2,2,0,0,0,0,0,17,17,17,,,,,,,,,,,,,,,,,,,,,,,,,,,,,,,,,,,280.8201934999961,281.0211689999851,281.00366210000357,281.30631169999833,281.30631169999833,None,281.8224074000027,None,k,1,1.1389803999918513,281.8224074000027,None,None,None,283.0081177999964,None,,,,,,,,,,,,,,,,,,,,,11032,1,1,2024_May_31_1012,stroop_task_switching2,2021.2.3,59.93389292207231,
condition/block_mixed,instruction/instr_mixed,instruction/i10,红,green,d,square,color_mix,单词,,incompatible,1,,,,,,,,0,2,2,2,0,0,0,0,0,18,18,18,,,,,,,,,,,,,,,,,,,,,,,,,,,,,,,,,,,284.008726,284.2091988000029,284.1917065999878,284.49235220000264,284.49235220000264,None,284.99312090000603,None,d,1,1.3284913999959826,284.99312090000603,None,None,None,286.34497129998636,None,,,,,,,,,,,,,,,,,,,,,11032,1,1,2024_May_31_1012,stroop_task_switching2,2021.2.3,59.93389292207231,
condition/block_mixed,instruction/instr_mixed,instruction/i10,黄,blue,f,diamond,color_mix,颜色,,incompatible,2,,,,,,,,0,2,2,2,0,0,0,0,0,19,19,19,,,,,,,,,,,,,,,,,,,,,,,,,,,,,,,,,,,287.34695519998786,287.5476889999991,287.5310033999849,287.8320211999817,287.8320211999817,None,288.331446199998,None,f,1,0.789967799995793,288.331446199998,None,None,None,289.14959600000293,None,,,,,,,,,,,,,,,,,,,,,11032,1,1,2024_May_31_1012,stroop_task_switching2,2021.2.3,59.93389292207231,
condition/block_mixed,instruction/instr_mixed,instruction/i10,黄,green,k,diamond,color_mix,颜色,,incompatible,1,,,,,,,,0,2,2,2,0,0,0,0,0,20,20,20,,,,,,,,,,,,,,,,,,,,,,,,,,,,,,,,,,,290.1505108999845,290.35156419998384,290.33412839999073,290.63582699999097,290.63582699999097,None,291.1362988000037,None,k,1,0.8819812999863643,291.1362988000037,None,None,None,292.0367440999835,None,,,,,,,,,,,,,,,,,,,,,11032,1,1,2024_May_31_1012,stroop_task_switching2,2021.2.3,59.93389292207231,
condition/block_mixed,instruction/instr_mixed,instruction/i10,黄,green,j,square,color_mix,单词,,incompatible,2,,,,,,,,0,2,2,2,0,0,0,0,0,21,21,21,,,,,,,,,,,,,,,,,,,,,,,,,,,,,,,,,,,293.0384766999923,293.2402941999899,293.2231661999831,293.5223402999982,293.5223402999982,None,294.02311660000123,None,j,1,0.8585960000054911,294.02311660000123,None,None,None,294.9079242000007,None,,,,,,,,,,,,,,,,,,,,,11032,1,1,2024_May_31_1012,stroop_task_switching2,2021.2.3,59.93389292207231,
condition/block_mixed,instruction/instr_mixed,instruction/i10,黄,blue,j,square,color_mix,单词,,incompatible,1,,,,,,,,0,2,2,2,0,0,0,0,0,22,22,22,,,,,,,,,,,,,,,,,,,,,,,,,,,,,,,,,,,295.91011569998227,296.1118840999843,296.0930686999927,296.3963247999782,296.3963247999782,None,296.8943236999912,None,j,1,1.0755045000114478,296.8943236999912,None,None,None,297.99642559999484,None,,,,,,,,,,,,,,,,,,,,,11032,1,1,2024_May_31_1012,stroop_task_switching2,2021.2.3,59.93389292207231,
condition/block_mixed,instruction/instr_mixed,instruction/i10,蓝,red,f,square,color_mix,单词,,incompatible,1,,,,,,,,0,2,2,2,0,0,0,0,0,23,23,23,,,,,,,,,,,,,,,,,,,,,,,,,,,,,,,,,,,298.99731069998234,299.1991667999828,299.18120530000306,299.4823046999809,299.4823046999809,None,299.9826422999904,None,f,1,1.0674646999977995,299.9826422999904,None,None,None,301.06742239999585,None,,,,,,,,,,,,,,,,,,,,,11032,1,1,2024_May_31_1012,stroop_task_switching2,2021.2.3,59.93389292207231,
condition/block_mixed,instruction/instr_mixed,instruction/i10,绿,red,d,diamond,color_mix,颜色,,incompatible,2,,,,,,,,0,2,2,2,0,0,0,0,0,24,24,24,,,,,,,,,,,,,,,,,,,,,,,,,,,,,,,,,,,302.0689233999874,302.27041100000497,302.25272530000075,302.5527879000001,302.5527879000001,None,303.0537706000032,None,d,1,0.7401779000065289,303.0537706000032,None,None,None,303.82135369998286,None,,,,,,,,,,,,,,,,,,,,,11032,1,1,2024_May_31_1012,stroop_task_switching2,2021.2.3,59.93389292207231,
condition/block_mixed,instruction/instr_mixed,instruction/i10,绿,green,k,diamond,color_mix,颜色,,compatible,1,,,,,,,,0,2,2,2,0,0,0,0,0,25,25,25,,,,,,,,,,,,,,,,,,,,,,,,,,,,,,,,,,,304.8227886999957,305.02382669999497,305.006332799996,305.3089729999774,305.3089729999774,None,305.8078496999806,None,k,1,0.9146017000020947,305.8078496999806,None,None,None,306.74241509998683,None,,,,,,,,,,,,,,,,,,,,,11032,1,1,2024_May_31_1012,stroop_task_switching2,2021.2.3,59.93389292207231,
condition/block_mixed,instruction/instr_mixed,instruction/i10,蓝,blue,f,diamond,color_mix,颜色,,compatible,1,,,,,,,,0,2,2,2,0,0,0,0,0,26,26,26,,,,,,,,,,,,,,,,,,,,,,,,,,,,,,,,,,,307.7440415000019,307.9448112999962,307.9276023999846,308.22863889997825,308.22863889997825,None,308.7289375999826,None,f,1,1.47339239998837,308.7289375999826,None,None,None,310.23086779998266,None,,,,,,,,,,,,,,,,,,,,,11032,1,1,2024_May_31_1012,stroop_task_switching2,2021.2.3,59.93389292207231,
condition/block_mixed,instruction/instr_mixed,instruction/i10,绿,green,k,square,color_mix,单词,,compatible,2,,,,,,,,0,2,2,2,0,0,0,0,0,27,27,27,,,,,,,,,,,,,,,,,,,,,,,,,,,,,,,,,,,311.23256169998785,311.43556769998395,311.41689649998443,311.7172487999778,311.7172487999778,None,312.2173797999858,None,k,1,1.3206722000031732,312.2173797999858,None,None,None,313.5526476999803,None,,,,,,,,,,,,,,,,,,,,,11032,1,1,2024_May_31_1012,stroop_task_switching2,2021.2.3,59.93389292207231,
condition/block_mixed,instruction/instr_mixed,instruction/i10,绿,green,k,square,color_mix,单词,,compatible,1,,,,,,,,0,2,2,2,0,0,0,0,0,28,28,28,,,,,,,,,,,,,,,,,,,,,,,,,,,,,,,,,,,314.5547912000038,314.75556950000464,314.7377474999812,315.03908279997995,315.03908279997995,None,315.5398649999988,None,k,1,0.8464826999988873,315.5398649999988,None,None,None,316.40725679998286,None,,,,,,,,,,,,,,,,,,,,,11032,1,1,2024_May_31_1012,stroop_task_switching2,2021.2.3,59.93389292207231,
condition/block_mixed,instruction/instr_mixed,instruction/i10,蓝,blue,f,square,color_mix,单词,,compatible,1,,,,,,,,0,2,2,2,0,0,0,0,0,29,29,29,,,,,,,,,,,,,,,,,,,,,,,,,,,,,,,,,,,317.40921069998876,317.60928559998865,317.5929184999841,317.89271929999813,317.89271929999813,None,318.3931791999785,None,f,1,1.0730256000242662,318.3931791999785,None,None,None,319.49470579999615,None,,,,,,,,,,,,,,,,,,,,,11032,1,1,2024_May_31_1012,stroop_task_switching2,2021.2.3,59.93389292207231,
condition/block_mixed,instruction/instr_mixed,instruction/i10,黄,yellow,j,diamond,color_mix,颜色,,compatible,2,,,,,,,,0,2,2,2,0,0,0,0,0,30,30,30,,,,,,,,,,,,,,,,,,,,,,,,,,,,,,,,,,,320.4964742999873,320.6968383999774,320.68128729998716,320.9824241999886,320.9824241999886,None,321.4813424999884,None,j,1,1.2331010000198148,321.4813424999884,None,None,None,322.73366800000076,None,,,,,,,,,,,,,,,,,,,,,11032,1,1,2024_May_31_1012,stroop_task_switching2,2021.2.3,59.93389292207231,
condition/block_mixed,instruction/instr_mixed,instruction/i10,绿,green,k,square,color_mix,单词,,compatible,2,,,,,,,,0,2,2,2,0,0,0,0,0,31,31,31,,,,,,,,,,,,,,,,,,,,,,,,,,,,,,,,,,,323.73551430000225,323.9370918000059,323.9183200999978,324.22047629998997,324.22047629998997,None,324.71959439999773,None,f,0,0.6587017000128981,324.71959439999773,None,None,None,325.4216940999904,None,,,,,,,,,,,,,,,,,,,,,11032,1,1,2024_May_31_1012,stroop_task_switching2,2021.2.3,59.93389292207231,
condition/block_mixed,instruction/instr_mixed,instruction/i10,黄,yellow,j,square,color_mix,单词,,compatible,1,,,,,,,,0,2,2,2,0,0,0,0,0,32,32,32,,,,,,,,,,,,,,,,,,,,,,,,,,,,,,,,,,,326.4225758999819,326.623497099994,326.60574959998485,326.90648169998894,326.89091719998396,None,327.3904648000025,None,j,1,1.1802584999823011,327.3904648000025,None,None,None,328.59202909999294,None,,,,,,,,,,,,,,,,,,,,,11032,1,1,2024_May_31_1012,stroop_task_switching2,2021.2.3,59.93389292207231,
condition/block_mixed,instruction/instr_mixed,instruction/i10,绿,green,k,diamond,color_mix,颜色,,compatible,2,,,,,,,,0,2,2,2,0,0,0,0,0,33,33,33,,,,,,,,,,,,,,,,,,,,,,,,,,,,,,,,,,,329.59374359998037,329.79400999998325,329.7798194999923,330.0952045999875,330.0782130000007,None,330.5785365999909,None,k,1,2.2885883999988437,330.5785365999909,None,None,None,332.8984866999963,None,,,,,,,,,,,,,,,,,,,,,11032,1,1,2024_May_31_1012,stroop_task_switching2,2021.2.3,59.93389292207231,
condition/block_mixed,instruction/instr_mixed,instruction/i10,红,red,d,square,color_mix,单词,,compatible,2,,,,,,,,0,2,2,2,0,0,0,0,0,34,34,34,,,,,,,,,,,,,,,,,,,,,,,,,,,,,,,,,,,333.9000492999912,334.1015298999846,334.083804599999,334.3856045999855,334.3856045999855,None,334.8853259999887,None,d,1,0.6533694000099786,334.8853259999887,None,None,None,335.56919379998,None,,,,,,,,,,,,,,,,,,,,,11032,1,1,2024_May_31_1012,stroop_task_switching2,2021.2.3,59.93389292207231,
condition/block_mixed,instruction/instr_mixed,instruction/i10,黄,yellow,j,square,color_mix,单词,,compatible,1,,,,,,,,0,2,2,2,0,0,0,0,0,35,35,35,,,,,,,,,,,,,,,,,,,,,,,,,,,,,,,,,,,336.57059649997973,336.77131250000093,336.75532289998955,337.05492379999487,337.05492379999487,None,337.55598539998755,None,j,1,0.9676816000137478,337.55598539998755,None,None,None,338.54037699999753,None,,,,,,,,,,,,,,,,,,,,,11032,1,1,2024_May_31_1012,stroop_task_switching2,2021.2.3,59.93389292207231,
condition/block_mixed,instruction/instr_mixed,instruction/i10,绿,green,k,diamond,color_mix,颜色,,compatible,2,,,,,,,,0,2,2,2,0,0,0,0,0,36,36,36,,,,,,,,,,,,,,,,,,,,,,,,,,,,,,,,,,,339.542604199989,339.74239299999317,339.7264395999955,340.0258533000015,340.0258533000015,None,340.5267868999799,None,k,1,0.8286737000162248,340.5267868999799,None,None,None,341.37814029998844,None,,,,,,,,,,,,,,,,,,,,,11032,1,1,2024_May_31_1012,stroop_task_switching2,2021.2.3,59.93389292207231,
condition/block_mixed,instruction/instr_mixed,instruction/i10,蓝,blue,f,square,color_mix,单词,,compatible,2,,,,,,,,0,2,2,2,0,0,0,0,0,37,37,37,,,,,,,,,,,,,,,,,,,,,,,,,,,,,,,,,,,342.3800208999892,342.58106169998064,342.5631666999834,342.8635544999852,342.8635544999852,None,343.36432999998215,None,f,1,0.8306851000234019,343.36432999998215,None,None,None,344.2156646999938,None,,,,,,,,,,,,,,,,,,,,,11032,1,1,2024_May_31_1012,stroop_task_switching2,2021.2.3,59.93389292207231,
condition/block_mixed,instruction/instr_mixed,instruction/i10,红,red,d,square,color_mix,单词,,compatible,1,,,,,,,,0,2,2,2,0,0,0,0,0,38,38,38,,,,,,,,,,,,,,,,,,,,,,,,,,,,,,,,,,,345.2169267999998,345.4187147000048,345.40084459999343,345.70226329998695,345.70226329998695,None,346.20196029997896,None,d,1,0.4411199000023771,346.20196029997896,None,None,None,346.66955150000285,None,,,,,,,,,,,,,,,,,,,,,11032,1,1,2024_May_31_1012,stroop_task_switching2,2021.2.3,59.93389292207231,
condition/block_mixed,instruction/instr_mixed,instruction/i10,黄,yellow,j,diamond,color_mix,颜色,,compatible,2,,,,,,,,0,2,2,2,0,0,0,0,0,39,39,39,,,,,,,,,,,,,,,,,,,,,,,,,,,,,,,,,,,347.6711536999792,347.87108250000165,347.85445650000474,348.15481449998333,348.15481449998333,None,348.655537499988,None,j,1,0.803507799981162,348.655537499988,None,None,None,349.4902871999948,None,,,,,,,,,,,,,,,,,,,,,11032,1,1,2024_May_31_1012,stroop_task_switching2,2021.2.3,59.93389292207231,
condition/block_mixed,instruction/instr_mixed,instruction/i10,黄,yellow,j,square,color_mix,单词,,compatible,2,,,,,,,,0,2,2,2,0,0,0,0,0,40,40,40,,,,,,,,,,,,,,,,,,,,,,,,,,,,,,,,,,,350.4914451999939,350.69277579998015,350.67550429998664,350.97581699999864,350.97581699999864,None,351.47677939999267,None,j,1,0.8467332000145689,351.47677939999267,None,None,None,352.3445193999796,None,,,,,,,,,,,,,,,,,,,,,11032,1,1,2024_May_31_1012,stroop_task_switching2,2021.2.3,59.93389292207231,
condition/block_mixed,instruction/instr_mixed,instruction/i10,蓝,blue,f,square,color_mix,单词,,compatible,1,,,,,,,,0,2,2,2,0,0,0,0,0,41,41,41,,,,,,,,,,,,,,,,,,,,,,,,,,,,,,,,,,,353.3468782999844,353.5466752999928,353.5302628999925,353.8298392999859,353.8298392999859,None,354.33096769999247,None,f,1,0.6562839999969583,354.33096769999247,None,None,None,355.015410299995,None,,,,,,,,,,,,,,,,,,,,,11032,1,1,2024_May_31_1012,stroop_task_switching2,2021.2.3,59.93389292207231,
condition/block_mixed,instruction/instr_mixed,instruction/i10,蓝,blue,f,diamond,color_mix,颜色,,compatible,2,,,,,,,,0,2,2,2,0,0,0,0,0,42,42,42,,,,,,,,,,,,,,,,,,,,,,,,,,,,,,,,,,,356.0167103999993,356.21827949999715,356.2002919999941,356.5009924999904,356.5009924999904,None,357.0014117999817,None,f,1,0.6423893999890424,357.0014117999817,None,None,None,357.66935569999623,None,,,,,,,,,,,,,,,,,,,,,11032,1,1,2024_May_31_1012,stroop_task_switching2,2021.2.3,59.93389292207231,
condition/block_mixed,instruction/instr_mixed,instruction/i10,黄,yellow,j,diamond,color_mix,颜色,,compatible,1,,,,,,,,0,2,2,2,0,0,0,0,0,43,43,43,,,,,,,,,,,,,,,,,,,,,,,,,,,,,,,,,,,358.6708474000043,358.8719504000037,358.8542302999995,359.15736449998803,359.15736449998803,None,359.655365899991,None,j,1,0.6520276000082958,359.655365899991,None,None,None,360.3235294999904,None,,,,,,,,,,,,,,,,,,,,,11032,1,1,2024_May_31_1012,stroop_task_switching2,2021.2.3,59.93389292207231,
condition/block_mixed,instruction/instr_mixed,instruction/i10,红,red,d,diamond,color_mix,颜色,,compatible,1,,,,,,,,0,2,2,2,0,0,0,0,0,44,44,44,,,,,,,,,,,,,,,,,,,,,,,,,,,,,,,,,,,361.3254312000063,361.5250858999789,361.509018199984,361.8091257000051,361.8091257000051,None,362.3111411999853,None,d,1,0.5002902000269387,362.3111411999853,None,None,None,362.82707929998287,None,,,,,,,,,,,,,,,,,,,,,11032,1,1,2024_May_31_1012,stroop_task_switching2,2021.2.3,59.93389292207231,
condition/block_mixed,instruction/instr_mixed,instruction/i10,蓝,blue,f,diamond,color_mix,颜色,,compatible,1,,,,,,,,0,2,2,2,0,0,0,0,0,45,45,45,,,,,,,,,,,,,,,,,,,,,,,,,,,,,,,,,,,363.82902109998395,364.0298838999879,364.01217349999934,364.31447650000337,364.31447650000337,None,364.81329989997903,None,f,1,0.7348589999892283,364.81329989997903,None,None,None,365.5642453999899,None,,,,,,,,,,,,,,,,,,,,,11032,1,1,2024_May_31_1012,stroop_task_switching2,2021.2.3,59.93389292207231,
condition/block_mixed,instruction/instr_mixed,instruction/i10,红,red,d,diamond,color_mix,颜色,,compatible,1,,,,,,,,0,2,2,2,0,0,0,0,0,46,46,46,,,,,,,,,,,,,,,,,,,,,,,,,,,,,,,,,,,366.56599839997943,366.76707969998824,366.74935440000263,367.0506444000057,367.0506444000057,None,367.5506988999841,None,d,1,0.6133546999772079,367.5506988999841,None,None,None,368.1850909999921,None,,,,,,,,,,,,,,,,,,,,,11032,1,1,2024_May_31_1012,stroop_task_switching2,2021.2.3,59.93389292207231,
condition/block_mixed,instruction/instr_mixed,instruction/i10,红,red,d,square,color_mix,单词,,compatible,2,,,,,,,,0,2,2,2,0,0,0,0,0,47,47,47,,,,,,,,,,,,,,,,,,,,,,,,,,,,,,,,,,,369.1866603999806,369.38686090000556,369.370895,369.6716613000026,369.6716613000026,None,370.171946699993,None,d,1,0.5438297999789938,370.171946699993,None,None,None,370.7387826000049,None,,,,,,,,,,,,,,,,,,,,,11032,1,1,2024_May_31_1012,stroop_task_switching2,2021.2.3,59.93389292207231,
condition/block_mixed,instruction/instr_mixed,instruction/i10,红,red,d,diamond,color_mix,颜色,,compatible,2,,,,,,,,0,2,2,2,0,0,0,0,0,48,48,48,,,,,,,,,,,,,,,,,,,,,,,,,,,,,,,,,,,371.74021279998124,371.9409955999872,371.9242006999848,372.22445739997784,372.22445739997784,None,372.7259670999774,None,d,1,0.5179047999845352,372.7259670999774,None,None,None,373.25915179998265,None,,,,,,,,,,,,,,,,,,,,,11032,1,1,2024_May_31_1012,stroop_task_switching2,2021.2.3,59.93389292207231,
condition/block_mixed,instruction/instr_mixed,instruction/i10,,,,,,,,,,,,,,,,,0,2,2,2,0,0,0,0,,,,,,,,,,,,,,,,,,,,,,,,,,,,,,,,,,,,,,,,,,,,,,,,,,,,,,,,374.2606201999879,None,space,1.871040099998936,374.2606201999879,None,,,,,,,,,,,,,,,11032,1,1,2024_May_31_1012,stroop_task_switching2,2021.2.3,59.93389292207231,
condition/block_mixed,instruction/instr_mixed,instruction/i10,,,,,,,,,,,,,,,,,0,2,2,2,,,,,,,,,,,,,,,,,,,,,,,,,,,,,,,,,,,,,,,,,,,,,,,,,,,,,,,,,,,,,,,,,,,,,,,,,,,,,,,,11032,1,1,2024_May_31_1012,stroop_task_switching2,2021.2.3,59.93389292207231,
,,,红,red,d,square,color_mix,单词,,compatible,0,block_switch1,instruction/ready_test.png,instruction/i11.png,,,,,,,,,,,,,,,,,0,0,0,0,0,0,0,0,,,,,,,,,,,,,,,,,,,398.0801855000027,399.08347479999065,399.08347479999065,400.08315629998106,400.08315629998106,None,397.0952294000017,398.0972972000018,401.11854309999035,401.3183756999788,401.3022049999854,401.6027908999822,401.6027908999822,None,402.1030389999796,None,d,1,0.34160449999035336,402.1030389999796,None,None,None,,,,,,,,,376.1802414999984,None,space,20.89633529999992,376.1802414999984,None,,,,,,,,,11032,1,1,2024_May_31_1012,stroop_task_switching2,2021.2.3,59.93389292207231,
,,,绿,green,k,diamond,color_mix,颜色,,compatible,2,block_switch1,instruction/ready_test.png,instruction/i11.png,,,,,,,,,,,,,,,,,0,0,0,0,0,1,1,1,,,,,,,,,,,,,,,,,,,,,,,,,,,402.5037156000035,402.70600629999535,402.6536582999979,402.95589939999627,402.95589939999627,None,403.4559561999922,None,k,1,1.0372428999980912,403.4559561999922,None,None,None,,,,,,,,,,,,,,,,,,,,,,,11032,1,1,2024_May_31_1012,stroop_task_switching2,2021.2.3,59.93389292207231,
,,,绿,yellow,j,diamond,color_mix,颜色,,incompatible,1,block_switch1,instruction/ready_test.png,instruction/i11.png,,,,,,,,,,,,,,,,,0,0,0,0,0,2,2,2,,,,,,,,,,,,,,,,,,,,,,,,,,,404.5235415000061,404.72590930000297,404.70674289998715,405.00833009998314,405.00833009998314,None,405.5087826999952,None,j,1,1.1128128000127617,405.5087826999952,None,None,None,,,,,,,,,,,,,,,,,,,,,,,11032,1,1,2024_May_31_1012,stroop_task_switching2,2021.2.3,59.93389292207231,
,,,蓝,blue,f,diamond,color_mix,颜色,,compatible,1,block_switch1,instruction/ready_test.png,instruction/i11.png,,,,,,,,,,,,,,,,,0,0,0,0,0,3,3,3,,,,,,,,,,,,,,,,,,,,,,,,,,,406.6430463999859,406.8454722999886,406.82740739997826,407.12723499999265,407.12723499999265,None,407.627988799999,None,f,1,1.0090482999803498,407.627988799999,None,None,None,,,,,,,,,,,,,,,,,,,,,,,11032,1,1,2024_May_31_1012,stroop_task_switching2,2021.2.3,59.93389292207231,
,,,绿,green,k,square,color_mix,单词,,compatible,2,block_switch1,instruction/ready_test.png,instruction/i11.png,,,,,,,,,,,,,,,,,0,0,0,0,0,4,4,4,,,,,,,,,,,,,,,,,,,,,,,,,,,408.6627326000016,408.8649665999983,408.8468549999816,409.14676499998313,409.14676499998313,None,409.6481484999822,None,k,1,1.1087307999841869,409.6481484999822,None,None,None,,,,,,,,,,,,,,,,,,,,,,,11032,1,1,2024_May_31_1012,stroop_task_switching2,2021.2.3,59.93389292207231,
,,,绿,blue,f,diamond,color_mix,颜色,,incompatible,2,block_switch1,instruction/ready_test.png,instruction/i11.png,,,,,,,,,,,,,,,,,0,0,0,0,0,5,5,5,,,,,,,,,,,,,,,,,,,,,,,,,,,410.78252879998763,410.9829987999983,410.96631940000225,411.2677711999859,411.2677711999859,None,411.76728800000274,None,f,1,1.0136053999885917,411.76728800000274,None,None,None,,,,,,,,,,,,,,,,,,,,,,,11032,1,1,2024_May_31_1012,stroop_task_switching2,2021.2.3,59.93389292207231,
,,,黄,red,j,square,color_mix,单词,,incompatible,2,block_switch1,instruction/ready_test.png,instruction/i11.png,,,,,,,,,,,,,,,,,0,0,0,0,0,6,6,6,,,,,,,,,,,,,,,,,,,,,,,,,,,412.802852599998,413.00356280000415,412.9878234999778,413.28718270000536,413.28718270000536,None,413.78740599998855,None,j,1,0.7377351000031922,413.78740599998855,None,None,None,,,,,,,,,,,,,,,,,,,,,,,11032,1,1,2024_May_31_1012,stroop_task_switching2,2021.2.3,59.93389292207231,
,,,绿,green,k,square,color_mix,单词,,compatible,1,block_switch1,instruction/ready_test.png,instruction/i11.png,,,,,,,,,,,,,,,,,0,0,0,0,0,7,7,7,,,,,,,,,,,,,,,,,,,,,,,,,,,414.5717771000054,414.7721515999874,414.73857139999745,415.03987549999147,415.03987549999147,None,415.5397054999776,None,k,1,0.8252827000105754,415.5397054999776,None,None,None,,,,,,,,,,,,,,,,,,,,,,,11032,1,1,2024_May_31_1012,stroop_task_switching2,2021.2.3,59.93389292207231,
,,,蓝,blue,f,square,color_mix,单词,,compatible,1,block_switch1,instruction/ready_test.png,instruction/i11.png,,,,,,,,,,,,,,,,,0,0,0,0,0,8,8,8,,,,,,,,,,,,,,,,,,,,,,,,,,,416.3915672999865,416.5915248999954,416.57595879997825,416.87765359997866,416.87765359997866,None,417.3930108999775,None,f,1,0.7082440000085626,417.3930108999775,None,None,None,,,,,,,,,,,,,,,,,,,,,,,11032,1,1,2024_May_31_1012,stroop_task_switching2,2021.2.3,59.93389292207231,
,,,红,red,d,diamond,color_mix,颜色,,compatible,2,block_switch1,instruction/ready_test.png,instruction/i11.png,,,,,,,,,,,,,,,,,0,0,0,0,0,9,9,9,,,,,,,,,,,,,,,,,,,,,,,,,,,418.12710819998756,418.3285181999963,418.3110311999917,418.61136889999034,418.61136889999034,None,419.1118099000014,None,d,1,0.38910579998628236,419.1118099000014,None,None,None,,,,,,,,,,,,,,,,,,,,,,,11032,1,1,2024_May_31_1012,stroop_task_switching2,2021.2.3,59.93389292207231,
,,,黄,yellow,j,diamond,color_mix,颜色,,compatible,1,block_switch1,instruction/ready_test.png,instruction/i11.png,,,,,,,,,,,,,,,,,0,0,0,0,0,10,10,10,,,,,,,,,,,,,,,,,,,,,,,,,,,419.52906699999585,419.7302870999847,419.71301959999255,420.01542179999524,420.01542179999524,None,420.5142601999978,None,j,1,0.5788636000070255,420.5142601999978,None,None,None,,,,,,,,,,,,,,,,,,,,,,,11032,1,1,2024_May_31_1012,stroop_task_switching2,2021.2.3,59.93389292207231,
,,,绿,green,k,square,color_mix,单词,,compatible,2,block_switch1,instruction/ready_test.png,instruction/i11.png,,,,,,,,,,,,,,,,,0,0,0,0,0,11,11,11,,,,,,,,,,,,,,,,,,,,,,,,,,,421.1149055999995,421.31623149997904,421.2989352000004,421.59894609998446,421.59894609998446,None,422.10000740000396,None,k,1,1.0339510999911,422.10000740000396,None,None,None,,,,,,,,,,,,,,,,,,,,,,,11032,1,1,2024_May_31_1012,stroop_task_switching2,2021.2.3,59.93389292207231,
,,,红,red,d,diamond,color_mix,颜色,,compatible,2,block_switch1,instruction/ready_test.png,instruction/i11.png,,,,,,,,,,,,,,,,,0,0,0,0,0,12,12,12,,,,,,,,,,,,,,,,,,,,,,,,,,,423.15108749998035,423.3520372999774,423.33547609997913,423.6363781999971,423.6363781999971,None,424.13630129999365,None,d,1,0.8293351999891456,424.13630129999365,None,None,None,,,,,,,,,,,,,,,,,,,,,,,11032,1,1,2024_May_31_1012,stroop_task_switching2,2021.2.3,59.93389292207231,
,,,红,red,d,diamond,color_mix,颜色,,compatible,1,block_switch1,instruction/ready_test.png,instruction/i11.png,,,,,,,,,,,,,,,,,0,0,0,0,0,13,13,13,,,,,,,,,,,,,,,,,,,,,,,,,,,424.9872144999972,425.18762459998834,425.17263610000373,425.4715511999966,425.4715511999966,None,425.97224059997825,None,d,1,0.4733330000017304,425.97224059997825,None,None,None,,,,,,,,,,,,,,,,,,,,,,,11032,1,1,2024_May_31_1012,stroop_task_switching2,2021.2.3,59.93389292207231,
,,,黄,yellow,j,square,color_mix,单词,,compatible,2,block_switch1,instruction/ready_test.png,instruction/i11.png,,,,,,,,,,,,,,,,,0,0,0,0,0,14,14,14,,,,,,,,,,,,,,,,,,,,,,,,,,,426.473128099984,426.67474230000516,426.65645369997947,426.9593796999834,426.9593796999834,None,427.4750887999835,None,j,1,0.9784042999963276,427.4750887999835,None,None,None,,,,,,,,,,,,,,,,,,,,,,,11032,1,1,2024_May_31_1012,stroop_task_switching2,2021.2.3,59.93389292207231,
,,,红,green,k,diamond,color_mix,颜色,,incompatible,2,block_switch1,instruction/ready_test.png,instruction/i11.png,,,,,,,,,,,,,,,,,0,0,0,0,0,15,15,15,,,,,,,,,,,,,,,,,,,,,,,,,,,428.47601409998606,428.67707159998827,428.66038529999787,428.9622126999893,428.9622126999893,None,429.4611798999831,None,k,1,0.640038600016851,429.4611798999831,None,None,None,,,,,,,,,,,,,,,,,,,,,,,11032,1,1,2024_May_31_1012,stroop_task_switching2,2021.2.3,59.93389292207231,
,,,蓝,red,d,diamond,color_mix,颜色,,incompatible,1,block_switch1,instruction/ready_test.png,instruction/i11.png,,,,,,,,,,,,,,,,,0,0,0,0,0,16,16,16,,,,,,,,,,,,,,,,,,,,,,,,,,,430.1283657999884,430.3300765999884,430.31209779999335,430.6135195999814,430.6135195999814,None,431.1134955000016,None,d,1,1.2037320999952499,431.1134955000016,None,None,None,,,,,,,,,,,,,,,,,,,,,,,11032,1,1,2024_May_31_1012,stroop_task_switching2,2021.2.3,59.93389292207231,
,,,黄,green,k,diamond,color_mix,颜色,,incompatible,1,block_switch1,instruction/ready_test.png,instruction/i11.png,,,,,,,,,,,,,,,,,0,0,0,0,0,17,17,17,,,,,,,,,,,,,,,,,,,,,,,,,,,432.33165099998587,432.53216709999833,432.51532370000496,432.8159702999983,432.8159702999983,None,433.3168165999814,None,k,1,0.9368632000114303,433.3168165999814,None,None,None,,,,,,,,,,,,,,,,,,,,,,,11032,1,1,2024_May_31_1012,stroop_task_switching2,2021.2.3,59.93389292207231,
,,,绿,green,k,diamond,color_mix,颜色,,compatible,1,block_switch1,instruction/ready_test.png,instruction/i11.png,,,,,,,,,,,,,,,,,0,0,0,0,0,18,18,18,,,,,,,,,,,,,,,,,,,,,,,,,,,434.26801080000587,434.469299999997,434.452077199996,434.75219309999375,434.75219309999375,None,435.2531352999795,None,k,1,0.4965532000060193,435.2531352999795,None,None,None,,,,,,,,,,,,,,,,,,,,,,,11032,1,1,2024_May_31_1012,stroop_task_switching2,2021.2.3,59.93389292207231,
,,,黄,red,d,diamond,color_mix,颜色,,incompatible,1,block_switch1,instruction/ready_test.png,instruction/i11.png,,,,,,,,,,,,,,,,,0,0,0,0,0,19,19,19,,,,,,,,,,,,,,,,,,,,,,,,,,,435.7704848999856,435.97080549999373,435.95457479998004,436.2543243999826,436.2543243999826,None,436.75555010000244,None,d,1,0.8100144000200089,436.75555010000244,None,None,None,,,,,,,,,,,,,,,,,,,,,,,11032,1,1,2024_May_31_1012,stroop_task_switching2,2021.2.3,59.93389292207231,
,,,绿,yellow,k,square,color_mix,单词,,incompatible,2,block_switch1,instruction/ready_test.png,instruction/i11.png,,,,,,,,,,,,,,,,,0,0,0,0,0,20,20,20,,,,,,,,,,,,,,,,,,,,,,,,,,,437.58980889999657,437.7900604000024,437.7738896999799,438.0740308999957,438.0740308999957,None,438.5747177999874,None,k,1,0.7430177000060212,438.5747177999874,None,None,None,,,,,,,,,,,,,,,,,,,,,,,11032,1,1,2024_May_31_1012,stroop_task_switching2,2021.2.3,59.93389292207231,
,,,绿,yellow,j,diamond,color_mix,颜色,,incompatible,2,block_switch1,instruction/ready_test.png,instruction/i11.png,,,,,,,,,,,,,,,,,0,0,0,0,0,21,21,21,,,,,,,,,,,,,,,,,,,,,,,,,,,439.3425893999811,439.5439786000061,439.5271952000039,439.82711270000436,439.82711270000436,None,440.3271748999832,None,j,1,0.5582408999907784,440.3271748999832,None,None,None,,,,,,,,,,,,,,,,,,,,,,,11032,1,1,2024_May_31_1012,stroop_task_switching2,2021.2.3,59.93389292207231,
,,,绿,green,k,square,color_mix,单词,,compatible,2,block_switch1,instruction/ready_test.png,instruction/i11.png,,,,,,,,,,,,,,,,,0,0,0,0,0,22,22,22,,,,,,,,,,,,,,,,,,,,,,,,,,,440.9117815000063,441.11285010000574,441.0948655999964,441.39621159998933,441.39621159998933,None,441.89668189999065,None,k,1,1.0050843000062741,441.89668189999065,None,None,None,,,,,,,,,,,,,,,,,,,,,,,11032,1,1,2024_May_31_1012,stroop_task_switching2,2021.2.3,59.93389292207231,
,,,红,red,d,square,color_mix,单词,,compatible,1,block_switch1,instruction/ready_test.png,instruction/i11.png,,,,,,,,,,,,,,,,,0,0,0,0,0,23,23,23,,,,,,,,,,,,,,,,,,,,,,,,,,,442.9311039999884,443.13257689998136,443.1158906999917,443.41531149999355,443.41531149999355,None,443.9159247999778,None,d,1,0.7459162999875844,443.9159247999778,None,None,None,,,,,,,,,,,,,,,,,,,,,,,11032,1,1,2024_May_31_1012,stroop_task_switching2,2021.2.3,59.93389292207231,
,,,黄,green,j,square,color_mix,单词,,incompatible,1,block_switch1,instruction/ready_test.png,instruction/i11.png,,,,,,,,,,,,,,,,,0,0,0,0,0,24,24,24,,,,,,,,,,,,,,,,,,,,,,,,,,,444.684124899999,444.88494509999873,444.8675067999866,445.16877950000344,445.16877950000344,None,445.6692611000035,None,j,1,0.9684858999971766,445.6692611000035,None,None,None,,,,,,,,,,,,,,,,,,,,,,,11032,1,1,2024_May_31_1012,stroop_task_switching2,2021.2.3,59.93389292207231,
,,,红,blue,d,square,color_mix,单词,,incompatible,1,block_switch1,instruction/ready_test.png,instruction/i11.png,,,,,,,,,,,,,,,,,0,0,0,0,0,25,25,25,,,,,,,,,,,,,,,,,,,,,,,,,,,446.65378629998304,446.8541298999917,446.8371068999986,447.13749789999565,447.13749789999565,None,447.6384280999773,None,f,0,1.0236352999927476,447.6384280999773,None,None,None,,,,,,,,,,,,,,,,,,,,,,,11032,1,1,2024_May_31_1012,stroop_task_switching2,2021.2.3,59.93389292207231,
,,,黄,yellow,j,square,color_mix,单词,,compatible,1,block_switch1,instruction/ready_test.png,instruction/i11.png,,,,,,,,,,,,,,,,,0,0,0,0,0,26,26,26,,,,,,,,,,,,,,,,,,,,,,,,,,,448.6895676999993,448.89002379999147,448.87399500000174,449.1737564999785,449.1737564999785,None,449.6745587000041,None,j,1,0.8435510999988765,449.6745587000041,None,None,None,,,,,,,,,,,,,,,,,,,,,,,11032,1,1,2024_May_31_1012,stroop_task_switching2,2021.2.3,59.93389292207231,
,,,蓝,green,f,square,color_mix,单词,,incompatible,1,block_switch1,instruction/ready_test.png,instruction/i11.png,,,,,,,,,,,,,,,,,0,0,0,0,0,27,27,27,,,,,,,,,,,,,,,,,,,,,,,,,,,450.54263719997834,450.7431209999777,450.7261695000052,451.0281835999922,451.0281835999922,None,451.5275660000043,None,f,1,1.8222816999768838,451.5275660000043,None,None,None,,,,,,,,,,,,,,,,,,,,,,,11032,1,1,2024_May_31_1012,stroop_task_switching2,2021.2.3,59.93389292207231,
,,,绿,green,k,diamond,color_mix,颜色,,compatible,2,block_switch1,instruction/ready_test.png,instruction/i11.png,,,,,,,,,,,,,,,,,0,0,0,0,0,28,28,28,,,,,,,,,,,,,,,,,,,,,,,,,,,453.3801517999964,453.5817960999848,453.5640815999941,453.8644183999859,453.8644183999859,None,454.36529659997905,None,k,1,0.6809959000092931,454.36529659997905,None,None,None,,,,,,,,,,,,,,,,,,,,,,,11032,1,1,2024_May_31_1012,stroop_task_switching2,2021.2.3,59.93389292207231,
,,,黄,blue,f,diamond,color_mix,颜色,,incompatible,1,block_switch1,instruction/ready_test.png,instruction/i11.png,,,,,,,,,,,,,,,,,0,0,0,0,0,29,29,29,,,,,,,,,,,,,,,,,,,,,,,,,,,455.066356299998,455.2677807,455.2496576999838,455.55236349999905,455.55236349999905,None,456.05093249998754,None,f,1,1.1002948000095785,456.05093249998754,None,None,None,,,,,,,,,,,,,,,,,,,,,,,11032,1,1,2024_May_31_1012,stroop_task_switching2,2021.2.3,59.93389292207231,
,,,绿,green,k,diamond,color_mix,颜色,,compatible,1,block_switch1,instruction/ready_test.png,instruction/i11.png,,,,,,,,,,,,,,,,,0,0,0,0,0,30,30,30,,,,,,,,,,,,,,,,,,,,,,,,,,,457.1692397999868,457.37006309998105,457.3527727999899,457.65460379997967,457.65460379997967,None,458.1549808999989,None,k,1,0.9073370000114664,458.1549808999989,None,None,None,,,,,,,,,,,,,,,,,,,,,,,11032,1,1,2024_May_31_1012,stroop_task_switching2,2021.2.3,59.93389292207231,
,,,蓝,blue,f,square,color_mix,单词,,compatible,2,block_switch1,instruction/ready_test.png,instruction/i11.png,,,,,,,,,,,,,,,,,0,0,0,0,0,31,31,31,,,,,,,,,,,,,,,,,,,,,,,,,,,459.0886946999817,459.2903064999846,459.27266379998764,459.57459869998274,459.57459869998274,None,460.074037399987,None,f,1,0.7563485999999102,460.074037399987,None,None,None,,,,,,,,,,,,,,,,,,,,,,,11032,1,1,2024_May_31_1012,stroop_task_switching2,2021.2.3,59.93389292207231,
,,,红,red,d,square,color_mix,单词,,compatible,1,block_switch1,instruction/ready_test.png,instruction/i11.png,,,,,,,,,,,,,,,,,0,0,0,0,0,32,32,32,,,,,,,,,,,,,,,,,,,,,,,,,,,460.8580957999802,461.0586784000043,461.0434968000045,461.342800399987,461.342800399987,None,461.84316590000526,None,d,1,0.8351427000015974,461.84316590000526,None,None,None,,,,,,,,,,,,,,,,,,,,,,,11032,1,1,2024_May_31_1012,stroop_task_switching2,2021.2.3,59.93389292207231,
,,,红,green,d,square,color_mix,单词,,incompatible,1,block_switch1,instruction/ready_test.png,instruction/i11.png,,,,,,,,,,,,,,,,,0,0,0,0,0,33,33,33,,,,,,,,,,,,,,,,,,,,,,,,,,,462.6946934000007,462.8947399999888,462.8778832999815,463.1785668999946,463.1785668999946,None,463.6788414999901,None,d,1,0.8638674000103492,463.6788414999901,None,None,None,,,,,,,,,,,,,,,,,,,,,,,11032,1,1,2024_May_31_1012,stroop_task_switching2,2021.2.3,59.93389292207231,
,,,黄,yellow,j,diamond,color_mix,颜色,,compatible,2,block_switch1,instruction/ready_test.png,instruction/i11.png,,,,,,,,,,,,,,,,,0,0,0,0,0,34,34,34,,,,,,,,,,,,,,,,,,,,,,,,,,,464.56387630000245,464.76624319999246,464.7477024999971,465.0492988000042,465.0492988000042,None,465.5489971000061,None,j,1,0.5616840999864507,465.5489971000061,None,None,None,,,,,,,,,,,,,,,,,,,,,,,11032,1,1,2024_May_31_1012,stroop_task_switching2,2021.2.3,59.93389292207231,
,,,红,green,k,diamond,color_mix,颜色,,incompatible,1,block_switch1,instruction/ready_test.png,instruction/i11.png,,,,,,,,,,,,,,,,,0,0,0,0,0,35,35,35,,,,,,,,,,,,,,,,,,,,,,,,,,,466.1330579999776,466.3346079000039,466.3163516999921,466.61808379998547,466.61808379998547,None,467.11745849999716,None,k,1,1.489136399992276,467.11745849999716,None,None,None,,,,,,,,,,,,,,,,,,,,,,,11032,1,1,2024_May_31_1012,stroop_task_switching2,2021.2.3,59.93389292207231,
,,,黄,yellow,j,square,color_mix,单词,,compatible,2,block_switch1,instruction/ready_test.png,instruction/i11.png,,,,,,,,,,,,,,,,,0,0,0,0,0,36,36,36,,,,,,,,,,,,,,,,,,,,,,,,,,,468.6368573999789,468.8368566999852,468.82056459999876,469.1211756999837,469.1211756999837,None,469.62124879998737,None,j,1,1.1854885999928229,469.62124879998737,None,None,None,,,,,,,,,,,,,,,,,,,,,,,11032,1,1,2024_May_31_1012,stroop_task_switching2,2021.2.3,59.93389292207231,
,,,蓝,blue,f,square,color_mix,单词,,compatible,1,block_switch1,instruction/ready_test.png,instruction/i11.png,,,,,,,,,,,,,,,,,0,0,0,0,0,37,37,37,,,,,,,,,,,,,,,,,,,,,,,,,,,470.8230002000055,471.023343799985,471.0078091000032,471.3080638999818,471.3080638999818,None,471.80796779997763,None,f,1,0.8468948999943677,471.80796779997763,None,None,None,,,,,,,,,,,,,,,,,,,,,,,11032,1,1,2024_May_31_1012,stroop_task_switching2,2021.2.3,59.93389292207231,
,,,绿,red,d,diamond,color_mix,颜色,,incompatible,2,block_switch1,instruction/ready_test.png,instruction/i11.png,,,,,,,,,,,,,,,,,0,0,0,0,0,38,38,38,,,,,,,,,,,,,,,,,,,,,,,,,,,472.67600539998966,472.8773300999892,472.85968659998616,473.16125979999197,473.16125979999197,None,473.66133020000416,None,d,1,0.6091982999932952,473.66133020000416,None,None,None,,,,,,,,,,,,,,,,,,,,,,,11032,1,1,2024_May_31_1012,stroop_task_switching2,2021.2.3,59.93389292207231,
,,,黄,yellow,j,diamond,color_mix,颜色,,compatible,1,block_switch1,instruction/ready_test.png,instruction/i11.png,,,,,,,,,,,,,,,,,0,0,0,0,0,39,39,39,,,,,,,,,,,,,,,,,,,,,,,,,,,474.29540139998426,474.49573609998333,474.4795908999804,474.77910759998485,474.77910759998485,None,475.28056009998545,None,j,1,1.0460834999976214,475.28056009998545,None,None,None,,,,,,,,,,,,,,,,,,,,,,,11032,1,1,2024_May_31_1012,stroop_task_switching2,2021.2.3,59.93389292207231,
,,,红,blue,f,diamond,color_mix,颜色,,incompatible,1,block_switch1,instruction/ready_test.png,instruction/i11.png,,,,,,,,,,,,,,,,,0,0,0,0,0,40,40,40,,,,,,,,,,,,,,,,,,,,,,,,,,,476.3482396999898,476.54916329999105,476.53164339999785,476.8331597999786,476.8331597999786,None,477.33341170000494,None,f,1,1.017611199989915,477.33341170000494,None,None,None,,,,,,,,,,,,,,,,,,,,,,,11032,1,1,2024_May_31_1012,stroop_task_switching2,2021.2.3,59.93389292207231,
,,,绿,blue,k,square,color_mix,单词,,incompatible,2,block_switch1,instruction/ready_test.png,instruction/i11.png,,,,,,,,,,,,,,,,,0,0,0,0,0,41,41,41,,,,,,,,,,,,,,,,,,,,,,,,,,,478.36783959998866,478.5682729999826,478.55337849998614,478.85364689998096,478.85364689998096,None,479.3528245000052,None,k,1,1.7019156999886036,479.3528245000052,None,None,None,,,,,,,,,,,,,,,,,,,,,,,11032,1,1,2024_May_31_1012,stroop_task_switching2,2021.2.3,59.93389292207231,
,,,蓝,blue,f,diamond,color_mix,颜色,,compatible,2,block_switch1,instruction/ready_test.png,instruction/i11.png,,,,,,,,,,,,,,,,,0,0,0,0,0,42,42,42,,,,,,,,,,,,,,,,,,,,,,,,,,,481.07235349999974,481.2731429999985,481.25557489998755,481.5563540000003,481.5563540000003,None,482.0582610999991,None,f,1,1.3171616999898106,482.0582610999991,None,None,None,,,,,,,,,,,,,,,,,,,,,,,11032,1,1,2024_May_31_1012,stroop_task_switching2,2021.2.3,59.93389292207231,
,,,红,blue,d,square,color_mix,单词,,incompatible,2,block_switch1,instruction/ready_test.png,instruction/i11.png,,,,,,,,,,,,,,,,,0,0,0,0,0,43,43,43,,,,,,,,,,,,,,,,,,,,,,,,,,,483.3924424999859,483.5942464999971,483.57586199999787,483.8767700000026,483.8767700000026,None,484.3770208999922,None,d,1,0.8219441999972332,484.3770208999922,None,None,None,,,,,,,,,,,,,,,,,,,,,,,11032,1,1,2024_May_31_1012,stroop_task_switching2,2021.2.3,59.93389292207231,
,,,蓝,green,k,diamond,color_mix,颜色,,incompatible,2,block_switch1,instruction/ready_test.png,instruction/i11.png,,,,,,,,,,,,,,,,,0,0,0,0,0,44,44,44,,,,,,,,,,,,,,,,,,,,,,,,,,,485.2282224999799,485.43016009998973,485.4120583999902,485.71267029998126,485.71267029998126,None,486.2133404999913,None,k,1,1.5617199999978766,486.2133404999913,None,None,None,,,,,,,,,,,,,,,,,,,,,,,11032,1,1,2024_May_31_1012,stroop_task_switching2,2021.2.3,59.93389292207231,
,,,黄,yellow,j,square,color_mix,单词,,compatible,2,block_switch1,instruction/ready_test.png,instruction/i11.png,,,,,,,,,,,,,,,,,0,0,0,0,0,45,45,45,,,,,,,,,,,,,,,,,,,,,,,,,,,487.7988125999982,487.9991723999847,487.98300360000576,488.283583899989,488.283583899989,None,488.7840517000004,None,j,1,0.895238099998096,488.7840517000004,None,None,None,,,,,,,,,,,,,,,,,,,,,,,11032,1,1,2024_May_31_1012,stroop_task_switching2,2021.2.3,59.93389292207231,
,,,黄,yellow,j,diamond,color_mix,颜色,,compatible,2,block_switch1,instruction/ready_test.png,instruction/i11.png,,,,,,,,,,,,,,,,,0,0,0,0,0,46,46,46,,,,,,,,,,,,,,,,,,,,,,,,,,,489.7015659000026,489.90260229998967,489.8860505000048,490.18709649998345,490.18709649998345,None,490.68667689998983,None,j,1,0.6806027000129689,490.68667689998983,None,None,None,,,,,,,,,,,,,,,,,,,,,,,11032,1,1,2024_May_31_1012,stroop_task_switching2,2021.2.3,59.93389292207231,
,,,绿,red,k,square,color_mix,单词,,incompatible,2,block_switch1,instruction/ready_test.png,instruction/i11.png,,,,,,,,,,,,,,,,,0,0,0,0,0,47,47,47,,,,,,,,,,,,,,,,,,,,,,,,,,,491.3877603999863,491.5877009999822,491.5721326999774,491.8715299000032,491.8715299000032,None,492.3723105999816,None,k,1,1.6515788000251632,492.3723105999816,None,None,None,,,,,,,,,,,,,,,,,,,,,,,11032,1,1,2024_May_31_1012,stroop_task_switching2,2021.2.3,59.93389292207231,
,,,红,red,d,diamond,color_mix,颜色,,compatible,2,block_switch1,instruction/ready_test.png,instruction/i11.png,,,,,,,,,,,,,,,,,0,0,0,0,0,48,48,48,,,,,,,,,,,,,,,,,,,,,,,,,,,494.04144859997905,494.2421400999883,494.22553779999726,494.52609139998094,494.52609139998094,None,495.02630460000364,None,d,1,0.45281400001840666,495.02630460000364,None,None,None,,,,,,,,,,,,,,,,,,,,,,,11032,1,1,2024_May_31_1012,stroop_task_switching2,2021.2.3,59.93389292207231,
,,,蓝,blue,f,diamond,color_mix,颜色,,compatible,1,block_switch1,instruction/ready_test.png,instruction/i11.png,,,,,,,,,,,,,,,,,0,0,0,0,0,49,49,49,,,,,,,,,,,,,,,,,,,,,,,,,,,495.5106887999864,495.71244809997734,495.69407259998843,495.99585350000416,495.99585350000416,None,496.49607839999953,None,f,1,0.6152392000076361,496.49607839999953,None,None,None,,,,,,,,,,,,,,,,,,,,,,,11032,1,1,2024_May_31_1012,stroop_task_switching2,2021.2.3,59.93389292207231,
,,,黄,yellow,j,diamond,color_mix,颜色,,compatible,1,block_switch1,instruction/ready_test.png,instruction/i11.png,,,,,,,,,,,,,,,,,0,0,0,0,0,50,50,50,,,,,,,,,,,,,,,,,,,,,,,,,,,497.1295149999787,497.33104479999747,497.31401239999104,497.6138369999826,497.6138369999826,None,498.11480599999777,None,j,1,0.5176225999894086,498.11480599999777,None,None,None,,,,,,,,,,,,,,,,,,,,,,,11032,1,1,2024_May_31_1012,stroop_task_switching2,2021.2.3,59.93389292207231,
,,,红,blue,f,diamond,color_mix,颜色,,incompatible,1,block_switch1,instruction/ready_test.png,instruction/i11.png,,,,,,,,,,,,,,,,,0,0,0,0,0,51,51,51,,,,,,,,,,,,,,,,,,,,,,,,,,,498.6491732999857,498.8487271000049,498.8324486000056,499.13419449998764,499.13419449998764,None,499.6333198999928,None,f,1,0.8782787999953143,499.6333198999928,None,None,None,,,,,,,,,,,,,,,,,,,,,,,11032,1,1,2024_May_31_1012,stroop_task_switching2,2021.2.3,59.93389292207231,
,,,蓝,yellow,j,diamond,color_mix,颜色,,incompatible,1,block_switch1,instruction/ready_test.png,instruction/i11.png,,,,,,,,,,,,,,,,,0,0,0,0,0,52,52,52,,,,,,,,,,,,,,,,,,,,,,,,,,,500.5343662999803,500.7368951999815,500.718260499998,501.01902399997925,501.01902399997925,None,501.5199939000013,None,j,1,0.439377600006992,501.5199939000013,None,None,None,,,,,,,,,,,,,,,,,,,,,,,11032,1,1,2024_May_31_1012,stroop_task_switching2,2021.2.3,59.93389292207231,
,,,黄,blue,j,square,color_mix,单词,,incompatible,2,block_switch1,instruction/ready_test.png,instruction/i11.png,,,,,,,,,,,,,,,,,0,0,0,0,0,53,53,53,,,,,,,,,,,,,,,,,,,,,,,,,,,501.9868676000042,502.18825149998884,502.1707944999798,502.47131699998863,502.47131699998863,None,502.9715682999813,None,k,0,2.531533799978206,502.9715682999813,None,None,None,,,,,,,,,,,,,,,,,,,,,,,11032,1,1,2024_May_31_1012,stroop_task_switching2,2021.2.3,59.93389292207231,
,,,蓝,blue,f,diamond,color_mix,颜色,,compatible,2,block_switch1,instruction/ready_test.png,instruction/i11.png,,,,,,,,,,,,,,,,,0,0,0,0,0,54,54,54,,,,,,,,,,,,,,,,,,,,,,,,,,,505.52531159998034,505.725580600003,505.70902049998404,506.010420000006,506.010420000006,None,506.5109267999942,None,f,1,1.608579199993983,506.5109267999942,None,None,None,,,,,,,,,,,,,,,,,,,,,,,11032,1,1,2024_May_31_1012,stroop_task_switching2,2021.2.3,59.93389292207231,
,,,红,yellow,d,square,color_mix,单词,,incompatible,2,block_switch1,instruction/ready_test.png,instruction/i11.png,,,,,,,,,,,,,,,,,0,0,0,0,0,55,55,55,,,,,,,,,,,,,,,,,,,,,,,,,,,508.14640399999917,508.3468995000003,508.3297378999996,508.6316549000039,508.6316549000039,None,509.13181679998524,None,d,1,1.411742000025697,509.13181679998524,None,None,None,,,,,,,,,,,,,,,,,,,,,,,11032,1,1,2024_May_31_1012,stroop_task_switching2,2021.2.3,59.93389292207231,
,,,蓝,red,f,square,color_mix,单词,,incompatible,1,block_switch1,instruction/ready_test.png,instruction/i11.png,,,,,,,,,,,,,,,,,0,0,0,0,0,56,56,56,,,,,,,,,,,,,,,,,,,,,,,,,,,510.56694239997887,510.76728229998844,510.7512915999978,511.05080729999463,511.05080729999463,None,511.5514280000061,None,f,1,1.224067599978298,511.5514280000061,None,None,None,,,,,,,,,,,,,,,,,,,,,,,11032,1,1,2024_May_31_1012,stroop_task_switching2,2021.2.3,59.93389292207231,
,,,蓝,blue,f,square,color_mix,单词,,compatible,1,block_switch1,instruction/ready_test.png,instruction/i11.png,,,,,,,,,,,,,,,,,0,0,0,0,0,57,57,57,,,,,,,,,,,,,,,,,,,,,,,,,,,512.803202799987,513.0044998999801,512.9870735000004,513.2874122999783,513.2874122999783,None,513.7891918999958,None,f,1,0.6903590000001714,513.7891918999958,None,None,None,,,,,,,,,,,,,,,,,,,,,,,11032,1,1,2024_May_31_1012,stroop_task_switching2,2021.2.3,59.93389292207231,
,,,蓝,red,d,diamond,color_mix,颜色,,incompatible,2,block_switch1,instruction/ready_test.png,instruction/i11.png,,,,,,,,,,,,,,,,,0,0,0,0,0,58,58,58,,,,,,,,,,,,,,,,,,,,,,,,,,,514.5055602999928,514.7060474999889,514.690042000002,514.9900464999955,514.9900464999955,None,515.4908312000043,None,d,1,1.5968573999998625,515.4908312000043,None,None,None,,,,,,,,,,,,,,,,,,,,,,,11032,1,1,2024_May_31_1012,stroop_task_switching2,2021.2.3,59.93389292207231,
,,,绿,green,k,diamond,color_mix,颜色,,compatible,1,block_switch1,instruction/ready_test.png,instruction/i11.png,,,,,,,,,,,,,,,,,0,0,0,0,0,59,59,59,,,,,,,,,,,,,,,,,,,,,,,,,,,517.1097688000009,517.3103024000011,517.2935578000033,517.5936809999985,517.5936809999985,None,518.0948707000061,None,k,1,1.449043900007382,518.0948707000061,None,None,None,,,,,,,,,,,,,,,,,,,,,,,11032,1,1,2024_May_31_1012,stroop_task_switching2,2021.2.3,59.93389292207231,
,,,蓝,blue,f,diamond,color_mix,颜色,,compatible,1,block_switch1,instruction/ready_test.png,instruction/i11.png,,,,,,,,,,,,,,,,,0,0,0,0,0,60,60,60,,,,,,,,,,,,,,,,,,,,,,,,,,,519.5633238999872,519.7658252999827,519.7473014999996,520.0487920999876,520.0487920999876,None,520.5495682999899,None,f,1,1.3862328000250272,520.5495682999899,None,None,None,,,,,,,,,,,,,,,,,,,,,,,11032,1,1,2024_May_31_1012,stroop_task_switching2,2021.2.3,59.93389292207231,
,,,黄,yellow,j,square,color_mix,单词,,compatible,2,block_switch1,instruction/ready_test.png,instruction/i11.png,,,,,,,,,,,,,,,,,0,0,0,0,0,61,61,61,,,,,,,,,,,,,,,,,,,,,,,,,,,521.9673102999805,522.1690377999912,522.1506322999776,522.4525919999869,522.4525919999869,None,522.9526757999847,None,j,1,0.5670394999906421,522.9526757999847,None,None,None,,,,,,,,,,,,,,,,,,,,,,,11032,1,1,2024_May_31_1012,stroop_task_switching2,2021.2.3,59.93389292207231,
,,,绿,blue,k,square,color_mix,单词,,incompatible,1,block_switch1,instruction/ready_test.png,instruction/i11.png,,,,,,,,,,,,,,,,,0,0,0,0,0,62,62,62,,,,,,,,,,,,,,,,,,,,,,,,,,,523.5363414000021,523.7369990999869,523.7198442999797,524.0209141999949,524.0209141999949,None,524.5208021999861,None,k,1,1.0074643000261858,524.5208021999861,None,None,None,,,,,,,,,,,,,,,,,,,,,,,11032,1,1,2024_May_31_1012,stroop_task_switching2,2021.2.3,59.93389292207231,
,,,蓝,yellow,f,square,color_mix,单词,,incompatible,1,block_switch1,instruction/ready_test.png,instruction/i11.png,,,,,,,,,,,,,,,,,0,0,0,0,0,63,63,63,,,,,,,,,,,,,,,,,,,,,,,,,,,525.5557053999801,525.7580113000004,525.7395092999795,526.0405134999892,526.0405134999892,None,526.5406891999883,None,f,1,1.595197199989343,526.5406891999883,None,None,None,,,,,,,,,,,,,,,,,,,,,,,11032,1,1,2024_May_31_1012,stroop_task_switching2,2021.2.3,59.93389292207231,
,,,黄,yellow,j,diamond,color_mix,颜色,,compatible,2,block_switch1,instruction/ready_test.png,instruction/i11.png,,,,,,,,,,,,,,,,,0,0,0,0,0,64,64,64,,,,,,,,,,,,,,,,,,,,,,,,,,,528.1599561999901,528.3616161999817,528.3436910999881,528.6452002000005,528.6452002000005,None,529.144327499991,None,j,1,0.743691099982243,529.144327499991,None,None,None,,,,,,,,,,,,,,,,,,,,,,,11032,1,1,2024_May_31_1012,stroop_task_switching2,2021.2.3,59.93389292207231,
,,,蓝,green,k,diamond,color_mix,颜色,,incompatible,1,block_switch1,instruction/ready_test.png,instruction/i11.png,,,,,,,,,,,,,,,,,0,0,0,0,0,65,65,65,,,,,,,,,,,,,,,,,,,,,,,,,,,529.9126243999926,530.1125880999898,530.0962859999854,530.3963333999855,530.3963333999855,None,530.8970815999783,None,k,1,0.7673303999763448,530.8970815999783,None,None,None,,,,,,,,,,,,,,,,,,,,,,,11032,1,1,2024_May_31_1012,stroop_task_switching2,2021.2.3,59.93389292207231,
,,,红,red,d,diamond,color_mix,颜色,,compatible,1,block_switch1,instruction/ready_test.png,instruction/i11.png,,,,,,,,,,,,,,,,,0,0,0,0,0,66,66,66,,,,,,,,,,,,,,,,,,,,,,,,,,,531.6822583999892,531.8827634000045,531.8653005999804,532.1661630999879,532.1661630999879,None,532.6675307999831,None,d,1,0.437184000009438,532.6675307999831,None,None,None,,,,,,,,,,,,,,,,,,,,,,,11032,1,1,2024_May_31_1012,stroop_task_switching2,2021.2.3,59.93389292207231,
,,,蓝,yellow,f,square,color_mix,单词,,incompatible,2,block_switch1,instruction/ready_test.png,instruction/i11.png,,,,,,,,,,,,,,,,,0,0,0,0,0,67,67,67,,,,,,,,,,,,,,,,,,,,,,,,,,,533.1341539999994,533.3356783000054,533.318014199991,533.617828699993,533.617828699993,None,534.1185911999783,None,f,1,1.218701300007524,534.1185911999783,None,None,None,,,,,,,,,,,,,,,,,,,,,,,11032,1,1,2024_May_31_1012,stroop_task_switching2,2021.2.3,59.93389292207231,
,,,红,yellow,d,square,color_mix,单词,,incompatible,1,block_switch1,instruction/ready_test.png,instruction/i11.png,,,,,,,,,,,,,,,,,0,0,0,0,0,68,68,68,,,,,,,,,,,,,,,,,,,,,,,,,,,535.3538592999976,535.5549111999862,535.5375236999826,535.8380919999909,535.8380919999909,None,536.3393044999975,None,d,1,1.4290050999843515,536.3393044999975,None,None,None,,,,,,,,,,,,,,,,,,,,,,,11032,1,1,2024_May_31_1012,stroop_task_switching2,2021.2.3,59.93389292207231,
,,,红,yellow,j,diamond,color_mix,颜色,,incompatible,2,block_switch1,instruction/ready_test.png,instruction/i11.png,,,,,,,,,,,,,,,,,0,0,0,0,0,69,69,69,,,,,,,,,,,,,,,,,,,,,,,,,,,537.7905401999888,537.9913385999971,537.9757752000005,538.276096799993,538.276096799993,None,538.7758476999879,None,j,1,1.1524489000148606,538.7758476999879,None,None,None,,,,,,,,,,,,,,,,,,,,,,,11032,1,1,2024_May_31_1012,stroop_task_switching2,2021.2.3,59.93389292207231,
,,,蓝,green,f,square,color_mix,单词,,incompatible,2,block_switch1,instruction/ready_test.png,instruction/i11.png,,,,,,,,,,,,,,,,,0,0,0,0,0,70,70,70,,,,,,,,,,,,,,,,,,,,,,,,,,,539.9444430999865,540.1447434999864,540.1286868999887,540.429369599995,540.429369599995,None,540.9291069000028,None,f,1,1.9201278999971692,540.9291069000028,None,None,None,,,,,,,,,,,,,,,,,,,,,,,11032,1,1,2024_May_31_1012,stroop_task_switching2,2021.2.3,59.93389292207231,
,,,绿,yellow,k,square,color_mix,单词,,incompatible,1,block_switch1,instruction/ready_test.png,instruction/i11.png,,,,,,,,,,,,,,,,,0,0,0,0,0,71,71,71,,,,,,,,,,,,,,,,,,,,,,,,,,,542.8655750000034,543.0661529999925,543.0508441999846,543.3666745999944,543.3490547999972,None,543.8499668999866,None,k,1,0.9745647999807261,543.8499668999866,None,None,None,,,,,,,,,,,,,,,,,,,,,,,11032,1,1,2024_May_31_1012,stroop_task_switching2,2021.2.3,59.93389292207231,
,,,蓝,yellow,j,diamond,color_mix,颜色,,incompatible,2,block_switch1,instruction/ready_test.png,instruction/i11.png,,,,,,,,,,,,,,,,,0,0,0,0,0,72,72,72,,,,,,,,,,,,,,,,,,,,,,,,,,,544.8514549999963,545.0531491999864,545.0349718999933,545.3369882999978,545.3369882999978,None,545.8372439999948,None,j,1,0.97970220001298,545.8372439999948,None,None,None,,,,,,,,,,,,,,,,,,,,,,,11032,1,1,2024_May_31_1012,stroop_task_switching2,2021.2.3,59.93389292207231,
,,,红,green,d,square,color_mix,单词,,incompatible,2,block_switch1,instruction/ready_test.png,instruction/i11.png,,,,,,,,,,,,,,,,,0,0,0,0,0,73,73,73,,,,,,,,,,,,,,,,,,,,,,,,,,,546.837787299999,547.040213899978,547.0214204999793,547.3218745999911,547.3218745999911,None,547.8235471999797,None,d,1,0.9209918999986257,547.8235471999797,None,None,None,,,,,,,,,,,,,,,,,,,,,,,11032,1,1,2024_May_31_1012,stroop_task_switching2,2021.2.3,59.93389292207231,
,,,绿,blue,f,diamond,color_mix,颜色,,incompatible,2,block_switch1,instruction/ready_test.png,instruction/i11.png,,,,,,,,,,,,,,,,,0,0,0,0,0,74,74,74,,,,,,,,,,,,,,,,,,,,,,,,,,,548.7744664999773,548.9753713999817,548.95773189998,549.2587262000015,549.2587262000015,None,549.7588387999858,None,f,1,1.8184897000028286,549.7588387999858,None,None,None,,,,,,,,,,,,,,,,,,,,,,,11032,1,1,2024_May_31_1012,stroop_task_switching2,2021.2.3,59.93389292207231,
,,,红,red,d,square,color_mix,单词,,compatible,2,block_switch1,instruction/ready_test.png,instruction/i11.png,,,,,,,,,,,,,,,,,0,0,0,0,0,75,75,75,,,,,,,,,,,,,,,,,,,,,,,,,,,551.595118199999,551.7959388000017,551.7794868999918,552.0798494000046,552.0798494000046,None,552.5797161999799,None,d,1,0.9171182000136469,552.5797161999799,None,None,None,,,,,,,,,,,,,,,,,,,,,,,11032,1,1,2024_May_31_1012,stroop_task_switching2,2021.2.3,59.93389292207231,
,,,绿,green,k,diamond,color_mix,颜色,,compatible,2,block_switch1,instruction/ready_test.png,instruction/i11.png,,,,,,,,,,,,,,,,,0,0,0,0,0,76,76,76,,,,,,,,,,,,,,,,,,,,,,,,,,,553.5145031999855,553.7158601999981,553.6982508999936,553.9987836999935,553.9987836999935,None,554.4995378000021,None,k,1,0.733956499985652,554.4995378000021,None,None,None,,,,,,,,,,,,,,,,,,,,,,,11032,1,1,2024_May_31_1012,stroop_task_switching2,2021.2.3,59.93389292207231,
,,,黄,red,j,square,color_mix,单词,,incompatible,2,block_switch1,instruction/ready_test.png,instruction/i11.png,,,,,,,,,,,,,,,,,0,0,0,0,0,77,77,77,,,,,,,,,,,,,,,,,,,,,,,,,,,555.2504337999853,555.450775699981,555.4344110999955,555.7349350999866,555.7349350999866,None,556.235640400002,None,j,1,1.2292637000209652,556.235640400002,None,None,None,,,,,,,,,,,,,,,,,,,,,,,11032,1,1,2024_May_31_1012,stroop_task_switching2,2021.2.3,59.93389292207231,
,,,红,red,d,square,color_mix,单词,,compatible,1,block_switch1,instruction/ready_test.png,instruction/i11.png,,,,,,,,,,,,,,,,,0,0,0,0,0,78,78,78,,,,,,,,,,,,,,,,,,,,,,,,,,,557.4871965999773,557.6892200000002,557.6710173999891,557.9715007999912,557.9715007999912,None,558.4730123000045,None,d,1,0.7759529000031762,558.4730123000045,None,None,None,,,,,,,,,,,,,,,,,,,,,,,11032,1,1,2024_May_31_1012,stroop_task_switching2,2021.2.3,59.93389292207231,
,,,黄,yellow,j,square,color_mix,单词,,compatible,1,block_switch1,instruction/ready_test.png,instruction/i11.png,,,,,,,,,,,,,,,,,0,0,0,0,0,79,79,79,,,,,,,,,,,,,,,,,,,,,,,,,,,559.2735355999903,559.4748120000004,559.4569524999824,559.7573354000051,559.7573354000051,None,560.2584025999822,None,j,1,1.2785697000217624,560.2584025999822,None,None,None,,,,,,,,,,,,,,,,,,,,,,,11032,1,1,2024_May_31_1012,stroop_task_switching2,2021.2.3,59.93389292207231,
,,,红,red,d,diamond,color_mix,颜色,,compatible,2,block_switch1,instruction/ready_test.png,instruction/i11.png,,,,,,,,,,,,,,,,,0,0,0,0,0,80,80,80,,,,,,,,,,,,,,,,,,,,,,,,,,,561.5600840999978,561.7609224999906,561.7441090999928,562.0443205999909,562.0443205999909,None,562.544719700003,None,d,1,0.6011723999981768,562.544719700003,None,None,None,,,,,,,,,,,,,,,,,,,,,,,11032,1,1,2024_May_31_1012,stroop_task_switching2,2021.2.3,59.93389292207231,
,,,红,red,d,square,color_mix,单词,,compatible,2,block_switch1,instruction/ready_test.png,instruction/i11.png,,,,,,,,,,,,,,,,,0,0,0,0,0,81,81,81,,,,,,,,,,,,,,,,,,,,,,,,,,,563.162402499991,563.3634839000006,563.346206199989,563.6478250999935,563.6478250999935,None,564.147318000003,None,d,1,0.909790100005921,564.147318000003,None,None,None,,,,,,,,,,,,,,,,,,,,,,,11032,1,1,2024_May_31_1012,stroop_task_switching2,2021.2.3,59.93389292207231,
,,,黄,blue,f,diamond,color_mix,颜色,,incompatible,2,block_switch1,instruction/ready_test.png,instruction/i11.png,,,,,,,,,,,,,,,,,0,0,0,0,0,82,82,82,,,,,,,,,,,,,,,,,,,,,,,,,,,565.082001200004,565.2832967999857,565.2654386999784,565.5660696999985,565.5660696999985,None,566.0668234000041,None,f,1,1.1184807999816258,566.0668234000041,None,None,None,,,,,,,,,,,,,,,,,,,,,,,11032,1,1,2024_May_31_1012,stroop_task_switching2,2021.2.3,59.93389292207231,
,,,红,yellow,j,diamond,color_mix,颜色,,incompatible,1,block_switch1,instruction/ready_test.png,instruction/i11.png,,,,,,,,,,,,,,,,,0,0,0,0,0,83,83,83,,,,,,,,,,,,,,,,,,,,,,,,,,,567.2017550999881,567.4027573000058,567.3859742000059,567.6871652999835,567.6871652999835,None,568.1867003999942,None,j,1,1.8308008999738377,568.1867003999942,None,None,None,,,,,,,,,,,,,,,,,,,,,,,11032,1,1,2024_May_31_1012,stroop_task_switching2,2021.2.3,59.93389292207231,
,,,黄,red,d,diamond,color_mix,颜色,,incompatible,1,block_switch1,instruction/ready_test.png,instruction/i11.png,,,,,,,,,,,,,,,,,0,0,0,0,0,84,84,84,,,,,,,,,,,,,,,,,,,,,,,,,,,570.0394417000061,570.2395031999913,570.2248552999808,570.5406077999796,570.5256216999842,None,571.024278500001,None,d,1,0.9528623000078369,571.024278500001,None,None,None,,,,,,,,,,,,,,,,,,,,,,,11032,1,1,2024_May_31_1012,stroop_task_switching2,2021.2.3,59.93389292207231,
,,,蓝,blue,f,square,color_mix,单词,,compatible,2,block_switch1,instruction/ready_test.png,instruction/i11.png,,,,,,,,,,,,,,,,,0,0,0,0,0,85,85,85,,,,,,,,,,,,,,,,,,,,,,,,,,,571.9922913000046,572.193022099993,572.1767010999902,572.476820699987,572.476820699987,None,572.9772624000034,None,f,1,0.5519185999874026,572.9772624000034,None,None,None,,,,,,,,,,,,,,,,,,,,,,,11032,1,1,2024_May_31_1012,stroop_task_switching2,2021.2.3,59.93389292207231,
,,,绿,green,k,square,color_mix,单词,,compatible,1,block_switch1,instruction/ready_test.png,instruction/i11.png,,,,,,,,,,,,,,,,,0,0,0,0,0,86,86,86,,,,,,,,,,,,,,,,,,,,,,,,,,,573.5449247999932,573.7449755999842,573.728922099981,574.0288199999777,574.0288199999777,None,574.5297984999779,None,k,1,1.0161217000277247,574.5297984999779,None,None,None,,,,,,,,,,,,,,,,,,,,,,,11032,1,1,2024_May_31_1012,stroop_task_switching2,2021.2.3,59.93389292207231,
,,,红,red,d,square,color_mix,单词,,compatible,1,block_switch1,instruction/ready_test.png,instruction/i11.png,,,,,,,,,,,,,,,,,0,0,0,0,0,87,87,87,,,,,,,,,,,,,,,,,,,,,,,,,,,575.5653599999787,575.7665260999929,575.7479969999986,576.0486122999864,576.0486122999864,None,576.549113599991,None,d,1,1.6043612000066787,576.549113599991,None,None,None,,,,,,,,,,,,,,,,,,,,,,,11032,1,1,2024_May_31_1012,stroop_task_switching2,2021.2.3,59.93389292207231,
,,,黄,green,k,diamond,color_mix,颜色,,incompatible,2,block_switch1,instruction/ready_test.png,instruction/i11.png,,,,,,,,,,,,,,,,,0,0,0,0,0,88,88,88,,,,,,,,,,,,,,,,,,,,,,,,,,,578.1849705999775,578.3855327999918,578.3703175999981,578.6694321999967,578.6694321999967,None,579.1698934999877,None,k,1,1.5756571000092663,579.1698934999877,None,None,None,,,,,,,,,,,,,,,,,,,,,,,11032,1,1,2024_May_31_1012,stroop_task_switching2,2021.2.3,59.93389292207231,
,,,绿,red,k,square,color_mix,单词,,incompatible,2,block_switch1,instruction/ready_test.png,instruction/i11.png,,,,,,,,,,,,,,,,,0,0,0,0,0,89,89,89,,,,,,,,,,,,,,,,,,,,,,,,,,,580.7722649000061,580.9729306999943,580.9558221999905,581.2570313999895,581.2570313999895,None,581.7572432000015,None,k,1,1.4762967000133358,581.7572432000015,None,None,None,,,,,,,,,,,,,,,,,,,,,,,11032,1,1,2024_May_31_1012,stroop_task_switching2,2021.2.3,59.93389292207231,
,,,黄,green,j,square,color_mix,单词,,incompatible,1,block_switch1,instruction/ready_test.png,instruction/i11.png,,,,,,,,,,,,,,,,,0,0,0,0,0,90,90,90,,,,,,,,,,,,,,,,,,,,,,,,,,,583.2590672999795,583.4611745000002,583.4430896999838,583.7439596999902,583.7439596999902,None,584.2443972000037,None,k,0,1.765622800012352,584.2443972000037,None,None,None,,,,,,,,,,,,,,,,,,,,,,,11032,1,1,2024_May_31_1012,stroop_task_switching2,2021.2.3,59.93389292207231,
,,,蓝,blue,f,square,color_mix,单词,,compatible,1,block_switch1,instruction/ready_test.png,instruction/i11.png,,,,,,,,,,,,,,,,,0,0,0,0,0,91,91,91,,,,,,,,,,,,,,,,,,,,,,,,,,,586.0299651999958,586.2321365999815,586.2140499999805,586.5156906000047,586.5156906000047,None,587.015284699999,None,f,1,1.562507700000424,587.015284699999,None,None,None,,,,,,,,,,,,,,,,,,,,,,,11032,1,1,2024_May_31_1012,stroop_task_switching2,2021.2.3,59.93389292207231,
,,,蓝,red,f,square,color_mix,单词,,incompatible,1,block_switch1,instruction/ready_test.png,instruction/i11.png,,,,,,,,,,,,,,,,,0,0,0,0,0,92,92,92,,,,,,,,,,,,,,,,,,,,,,,,,,,588.600701599993,588.8009515999875,588.7855063999887,589.0849184999825,589.0849184999825,None,589.5854194999847,None,d,0,0.9844617999915499,589.5854194999847,None,None,None,,,,,,,,,,,,,,,,,,,,,,,11032,1,1,2024_May_31_1012,stroop_task_switching2,2021.2.3,59.93389292207231,
,,,黄,blue,j,square,color_mix,单词,,incompatible,1,block_switch1,instruction/ready_test.png,instruction/i11.png,,,,,,,,,,,,,,,,,0,0,0,0,0,93,93,93,,,,,,,,,,,,,,,,,,,,,,,,,,,590.586997299979,590.7874680999957,590.7720102999883,591.0711185999971,591.0711185999971,None,591.5719348999846,None,j,1,1.7981498999870382,591.5719348999846,None,None,None,,,,,,,,,,,,,,,,,,,,,,,11032,1,1,2024_May_31_1012,stroop_task_switching2,2021.2.3,59.93389292207231,
,,,绿,red,d,diamond,color_mix,颜色,,incompatible,2,block_switch1,instruction/ready_test.png,instruction/i11.png,,,,,,,,,,,,,,,,,0,0,0,0,0,94,94,94,,,,,,,,,,,,,,,,,,,,,,,,,,,593.3912982000038,593.592401300004,593.5765729999985,593.8919925999944,593.8758461999823,None,594.3766373999824,None,d,1,1.2491933999990579,594.3766373999824,None,None,None,,,,,,,,,,,,,,,,,,,,,,,11032,1,1,2024_May_31_1012,stroop_task_switching2,2021.2.3,59.93389292207231,
,,,蓝,blue,f,diamond,color_mix,颜色,,compatible,1,block_switch1,instruction/ready_test.png,instruction/i11.png,,,,,,,,,,,,,,,,,0,0,0,0,0,95,95,95,,,,,,,,,,,,,,,,,,,,,,,,,,,595.6446796999953,595.8457011999853,595.8282891999988,596.130371199979,596.130371199979,None,596.6294697999838,None,f,1,1.0362513000145555,596.6294697999838,None,None,None,,,,,,,,,,,,,,,,,,,,,,,11032,1,1,2024_May_31_1012,stroop_task_switching2,2021.2.3,59.93389292207231,
,,,绿,green,k,square,color_mix,单词,,compatible,2,block_switch1,instruction/ready_test.png,instruction/i11.png,,,,,,,,,,,,,,,,,0,0,0,0,0,96,96,96,,,,,,,,,,,,,,,,,,,,,,,,,,,597.6811841999879,597.8835446999874,597.864778099989,598.1652260999836,598.1652260999836,None,598.6658819000004,None,k,1,0.664162100001704,598.6658819000004,None,None,None,,,,,,,,,,,,,,,,,,,,,,,11032,1,1,2024_May_31_1012,stroop_task_switching2,2021.2.3,59.93389292207231,
,,,,,,,,,,,,block_switch1,instruction/ready_test.png,instruction/i11.png,,,,,,,,,,,,,,,,,0,0,0,0,,,,,,,,,,,,,,,,,,,,,,,,,,,,,,,,,,,,,,,,,,,,,,,,,,,,,,,,,,,,599.3503263999883,None,space,2.923847099998966,599.3503263999883,None,,,11032,1,1,2024_May_31_1012,stroop_task_switching2,2021.2.3,59.93389292207231,
,,,蓝,blue,f,square,color_mix,单词,,compatible,0,block_switch2,instruction/ready_2.png,instruction/i12.png,,,,,,,,,,,,,,,,,0,1,1,1,0,0,0,0,,,,,,,,,,,,,,,,,,,604.9768962999806,605.9772470000025,605.9772470000025,606.9799960999808,606.9799960999808,None,603.990948199993,604.9921051999845,607.9964782999887,608.1978929000034,608.1978929000034,608.4974589000049,608.4809238000016,None,608.9815920999972,None,f,1,0.8688613999984227,608.9815920999972,None,None,None,,,,,,,,,602.338751000003,None,space,1.6239931000163779,602.338751000003,None,,,,,,,,,11032,1,1,2024_May_31_1012,stroop_task_switching2,2021.2.3,59.93389292207231,
,,,黄,red,d,diamond,color_mix,颜色,,incompatible,2,block_switch2,instruction/ready_2.png,instruction/i12.png,,,,,,,,,,,,,,,,,0,1,1,1,0,1,1,1,,,,,,,,,,,,,,,,,,,,,,,,,,,609.8998175000015,610.1000896999903,610.052514799987,610.367090499989,610.3507891999907,None,610.8509862999781,None,d,1,0.8314967000042088,610.8509862999781,None,None,None,,,,,,,,,,,,,,,,,,,,,,,11032,1,1,2024_May_31_1012,stroop_task_switching2,2021.2.3,59.93389292207231,
,,,蓝,green,k,diamond,color_mix,颜色,,incompatible,1,block_switch2,instruction/ready_2.png,instruction/i12.png,,,,,,,,,,,,,,,,,0,1,1,1,0,2,2,2,,,,,,,,,,,,,,,,,,,,,,,,,,,611.7022620000062,611.9026088999817,611.8870420999883,612.1868742999795,612.1868742999795,None,612.6871924999868,None,k,1,0.8592136000224855,612.6871924999868,None,None,None,,,,,,,,,,,,,,,,,,,,,,,11032,1,1,2024_May_31_1012,stroop_task_switching2,2021.2.3,59.93389292207231,
,,,红,yellow,j,diamond,color_mix,颜色,,incompatible,1,block_switch2,instruction/ready_2.png,instruction/i12.png,,,,,,,,,,,,,,,,,0,1,1,1,0,3,3,3,,,,,,,,,,,,,,,,,,,,,,,,,,,613.571775599994,613.7740231999778,613.7553855000006,614.0557757999923,614.0557757999923,None,614.5572486000019,None,j,1,1.5571356000145897,614.5572486000019,None,None,None,,,,,,,,,,,,,,,,,,,,,,,11032,1,1,2024_May_31_1012,stroop_task_switching2,2021.2.3,59.93389292207231,
,,,红,red,d,diamond,color_mix,颜色,,compatible,1,block_switch2,instruction/ready_2.png,instruction/i12.png,,,,,,,,,,,,,,,,,0,1,1,1,0,4,4,4,,,,,,,,,,,,,,,,,,,,,,,,,,,616.1424538999854,616.344177299994,616.3257136000029,616.627350900002,616.627350900002,None,617.1275798999995,None,d,1,1.195317800011253,617.1275798999995,None,None,None,,,,,,,,,,,,,,,,,,,,,,,11032,1,1,2024_May_31_1012,stroop_task_switching2,2021.2.3,59.93389292207231,
,,,绿,green,k,square,color_mix,单词,,compatible,2,block_switch2,instruction/ready_2.png,instruction/i12.png,,,,,,,,,,,,,,,,,0,1,1,1,0,5,5,5,,,,,,,,,,,,,,,,,,,,,,,,,,,618.345453499991,618.5458986999874,618.5306585999788,618.8309144999948,618.8309144999948,None,619.3304659999849,None,k,1,1.45798159998958,619.3304659999849,None,None,None,,,,,,,,,,,,,,,,,,,,,,,11032,1,1,2024_May_31_1012,stroop_task_switching2,2021.2.3,59.93389292207231,
,,,黄,blue,f,diamond,color_mix,颜色,,incompatible,2,block_switch2,instruction/ready_2.png,instruction/i12.png,,,,,,,,,,,,,,,,,0,1,1,1,0,6,6,6,,,,,,,,,,,,,,,,,,,,,,,,,,,620.8159786000033,621.0170214999816,621.0018144999922,621.3032636999851,621.3032636999851,None,621.817733999982,None,f,1,0.9211897999921348,621.817733999982,None,None,None,,,,,,,,,,,,,,,,,,,,,,,11032,1,1,2024_May_31_1012,stroop_task_switching2,2021.2.3,59.93389292207231,
,,,绿,yellow,k,square,color_mix,单词,,incompatible,2,block_switch2,instruction/ready_2.png,instruction/i12.png,,,,,,,,,,,,,,,,,0,1,1,1,0,7,7,7,,,,,,,,,,,,,,,,,,,,,,,,,,,622.7862052999844,622.987229099992,622.952825299988,623.2540450999804,623.2540450999804,None,623.7542401999817,None,k,1,1.2884143000119366,623.7542401999817,None,None,None,,,,,,,,,,,,,,,,,,,,,,,11032,1,1,2024_May_31_1012,stroop_task_switching2,2021.2.3,59.93389292207231,
,,,红,green,d,square,color_mix,单词,,incompatible,1,block_switch2,instruction/ready_2.png,instruction/i12.png,,,,,,,,,,,,,,,,,0,1,1,1,0,8,8,8,,,,,,,,,,,,,,,,,,,,,,,,,,,625.0897702999937,625.2892315000063,625.2571980999783,625.5565881999792,625.5565881999792,None,626.0580557999783,None,d,1,1.1526402000163216,626.0580557999783,None,None,None,,,,,,,,,,,,,,,,,,,,,,,11032,1,1,2024_May_31_1012,stroop_task_switching2,2021.2.3,59.93389292207231,
,,,黄,yellow,j,square,color_mix,单词,,compatible,1,block_switch2,instruction/ready_2.png,instruction/i12.png,,,,,,,,,,,,,,,,,0,1,1,1,0,9,9,9,,,,,,,,,,,,,,,,,,,,,,,,,,,627.2601353999926,627.459753699979,627.4270634999848,627.7266178999853,627.7266178999853,None,628.2270757999795,None,j,1,1.0480802000092808,628.2270757999795,None,None,None,,,,,,,,,,,,,,,,,,,,,,,11032,1,1,2024_May_31_1012,stroop_task_switching2,2021.2.3,59.93389292207231,
