b_pra,ins_blocks,ins_blocks2,stim_word,stim_color,corrAns,cue_type,trial_type,task_type,rand,compatibility,switch,b_test,w_pic,w_pic2,trials_instr.thisRepN,trials_instr.thisTrialN,trials_instr.thisN,trials_instr.thisIndex,block_pra.thisRepN,block_pra.thisTrialN,block_pra.thisN,block_pra.thisIndex,trials_rep.thisRepN,trials_rep.thisTrialN,trials_rep.thisN,trials_rep.thisIndex,trials_pra.thisRepN,trials_pra.thisTrialN,trials_pra.thisN,trials_pra.thisIndex,trials_3.thisRepN,trials_3.thisTrialN,trials_3.thisN,trials_3.thisIndex,trials_2.thisRepN,trials_2.thisTrialN,trials_2.thisN,trials_2.thisIndex,instr_image.started,instr_image.stopped,instr_key_resp.keys,instr_key_resp.rt,instr_key_resp.started,instr_key_resp.stopped,instr_pra_image.started,instr_pra_image.stopped,ip_key_resp.keys,ip_key_resp.rt,ip_key_resp.started,ip_key_resp.stopped,block_image.started,block_image.stopped,ib_key_resp.keys,ib_key_resp.rt,ib_key_resp.started,ib_key_resp.stopped,cd3.started,cd3.stopped,cd2.started,cd2.stopped,cd1.started,cd1.stopped,cd_text.started,cd_text.stopped,text_fix.started,text_fix.stopped,text_2.started,text_2.stopped,text_4.started,text_4.stopped,text_target.started,text_target.stopped,key_resp.keys,key_resp.corr,key_resp.rt,key_resp.started,key_resp.stopped,sceen_black.started,sceen_black.stopped,text_fb.started,text_fb.stopped,text.started,text.stopped,key_bf.keys,key_bf.rt,key_bf.started,key_bf.stopped,instr_test_image.started,instr_test_image.stopped,instr_exp_key_resp.keys,instr_exp_key_resp.rt,instr_exp_key_resp.started,instr_exp_key_resp.stopped,text_rest.started,text_rest.stopped,key_resp_rest.keys,key_resp_rest.rt,key_resp_rest.started,key_resp_rest.stopped,text_3.started,text_3.stopped,participant,session,balance,date,expName,psychopyVersion,frameRate,
,,,,,,,,,,,,,,,0,0,0,0,,,,,,,,,,,,,,,,,,,,,870.182591299992,None,right,1.488230500021018,870.182591299992,None,,,,,,,,,,,,,,,,,,,,,,,,,,,,,,,,,,,,,,,,,,,,,,,,,,,,,,,,,,11037,1,1,2024_Jun_03_2000,stroop_task_switching2,2021.2.3,59.86776408635766,
,,,,,,,,,,,,,,,1,0,1,0,,,,,,,,,,,,,,,,,,,,,871.7180757999886,None,right,47.70633650000673,871.7180757999886,None,,,,,,,,,,,,,,,,,,,,,,,,,,,,,,,,,,,,,,,,,,,,,,,,,,,,,,,,,,11037,1,1,2024_Jun_03_2000,stroop_task_switching2,2021.2.3,59.86776408635766,
,,,,,,,,,,,,,,,2,0,2,0,,,,,,,,,,,,,,,,,,,,,919.4570503000286,None,right,0.7991239000111818,919.4570503000286,None,,,,,,,,,,,,,,,,,,,,,,,,,,,,,,,,,,,,,,,,,,,,,,,,,,,,,,,,,,11037,1,1,2024_Jun_03_2000,stroop_task_switching2,2021.2.3,59.86776408635766,
,,,,,,,,,,,,,,,3,0,3,0,,,,,,,,,,,,,,,,,,,,,920.2915384999942,None,right,0.14863229996990412,920.2915384999942,None,,,,,,,,,,,,,,,,,,,,,,,,,,,,,,,,,,,,,,,,,,,,,,,,,,,,,,,,,,11037,1,1,2024_Jun_03_2000,stroop_task_switching2,2021.2.3,59.86776408635766,
,,,,,,,,,,,,,,,4,0,4,0,,,,,,,,,,,,,,,,,,,,,920.4751630999963,None,right,0.3331912999856286,920.4751630999963,None,,,,,,,,,,,,,,,,,,,,,,,,,,,,,,,,,,,,,,,,,,,,,,,,,,,,,,,,,,11037,1,1,2024_Jun_03_2000,stroop_task_switching2,2021.2.3,59.86776408635766,
,,,,,,,,,,,,,,,5,0,5,0,,,,,,,,,,,,,,,,,,,,,920.8423706000322,None,right,0.7581406999961473,920.8423706000322,None,,,,,,,,,,,,,,,,,,,,,,,,,,,,,,,,,,,,,,,,,,,,,,,,,,,,,,,,,,11037,1,1,2024_Jun_03_2000,stroop_task_switching2,2021.2.3,59.86776408635766,
,,,,,,,,,,,,,,,,,,,,,,,,,,,,,,,,,,,,,,,,,,,,,921.6438390000258,None,space,0.8180936999851838,921.6438390000258,None,,,,,,,,,,,,,,,,,,,,,,,,,,,,,,,,,,,,,,,,,,,,,,,,,,,,11037,1,1,2024_Jun_03_2000,stroop_task_switching2,2021.2.3,59.86776408635766,
condition/block_color,instruction/instr_color,instruction/i8,XX,red,d,diamond,color_single,颜色,,,,,,,,,,,0,0,0,0,0,0,0,0,0,0,0,0,,,,,,,,,,,,,,,,,,,,,922.4948208000278,None,space,11.03342110000085,922.4948208000278,None,934.58057250001,935.5811651999829,935.5811651999829,936.5832959000254,936.5832959000254,None,933.6116705000168,934.6131313000224,937.56715670001,937.769557200023,937.7509369000327,938.0516173000215,938.0516173000215,None,938.5523825000273,None,d,1,0.7842204000335187,938.5523825000273,None,None,None,939.3534141000127,None,,,,,,,,,,,,,,,,,,,,,11037,1,1,2024_Jun_03_2000,stroop_task_switching2,2021.2.3,59.86776408635766,
condition/block_color,instruction/instr_color,instruction/i8,XX,green,k,diamond,color_single,颜色,,,,,,,,,,,0,0,0,0,0,0,0,0,0,1,1,1,,,,,,,,,,,,,,,,,,,,,,,,,,,,,,,,,,,940.3551003999892,940.5553198999842,940.5399894000147,940.8408635000233,940.8408635000233,None,941.3399241000297,None,k,1,1.1807473000371829,941.3399241000297,None,None,None,942.5416028000182,None,,,,,,,,,,,,,,,,,,,,,11037,1,1,2024_Jun_03_2000,stroop_task_switching2,2021.2.3,59.86776408635766,
condition/block_color,instruction/instr_color,instruction/i8,XX,yellow,j,diamond,color_single,颜色,,,,,,,,,,,0,0,0,0,0,0,0,0,0,2,2,2,,,,,,,,,,,,,,,,,,,,,,,,,,,,,,,,,,,943.5431377000059,943.7436368000344,943.7273153000278,944.0290119000128,944.0290119000128,None,944.5280053000315,None,f,0,0.6728303999989294,944.5280053000315,None,None,None,945.2288031000062,None,,,,,,,,,,,,,,,,,,,,,11037,1,1,2024_Jun_03_2000,stroop_task_switching2,2021.2.3,59.86776408635766,
condition/block_color,instruction/instr_color,instruction/i8,XX,blue,f,diamond,color_single,颜色,,,,,,,,,,,0,0,0,0,0,0,0,0,0,3,3,3,,,,,,,,,,,,,,,,,,,,,,,,,,,,,,,,,,,946.2305570000317,946.4321369000245,946.4143260000274,946.7147024000296,946.7147024000296,None,947.2154724000138,None,f,1,0.9137255999958143,947.2154724000138,None,None,None,948.1502502000076,None,,,,,,,,,,,,,,,,,,,,,11037,1,1,2024_Jun_03_2000,stroop_task_switching2,2021.2.3,59.86776408635766,
condition/block_color,instruction/instr_color,instruction/i8,XX,green,k,diamond,color_single,颜色,,,,,,,,,,,0,0,0,0,0,0,0,0,0,4,4,4,,,,,,,,,,,,,,,,,,,,,,,,,,,,,,,,,,,949.1515296000289,949.3530467000091,949.3354243999929,949.6361435999861,949.6361435999861,None,950.1369442000287,None,k,1,0.5366147000459023,950.1369442000287,None,None,None,950.7044989999849,None,,,,,,,,,,,,,,,,,,,,,11037,1,1,2024_Jun_03_2000,stroop_task_switching2,2021.2.3,59.86776408635766,
condition/block_color,instruction/instr_color,instruction/i8,XX,yellow,j,diamond,color_single,颜色,,,,,,,,,,,0,0,0,0,0,0,0,0,0,5,5,5,,,,,,,,,,,,,,,,,,,,,,,,,,,,,,,,,,,951.7056819000281,951.9057944000233,951.8890260999906,952.1896592000267,952.1896592000267,None,952.6903762000147,None,j,1,0.5111827999935485,952.6903762000147,None,None,None,953.2245612000115,None,,,,,,,,,,,,,,,,,,,,,11037,1,1,2024_Jun_03_2000,stroop_task_switching2,2021.2.3,59.86776408635766,
condition/block_color,instruction/instr_color,instruction/i8,XX,blue,f,diamond,color_single,颜色,,,,,,,,,,,0,0,0,0,0,0,0,0,0,6,6,6,,,,,,,,,,,,,,,,,,,,,,,,,,,,,,,,,,,954.2260218000156,954.4263531999895,954.4098729999969,954.7099296000088,954.7099296000088,None,955.2106469999999,None,f,1,0.5424575000070035,955.2106469999999,None,None,None,955.7783692000085,None,,,,,,,,,,,,,,,,,,,,,11037,1,1,2024_Jun_03_2000,stroop_task_switching2,2021.2.3,59.86776408635766,
condition/block_color,instruction/instr_color,instruction/i8,XX,red,d,diamond,color_single,颜色,,,,,,,,,,,0,0,0,0,0,0,0,0,0,7,7,7,,,,,,,,,,,,,,,,,,,,,,,,,,,,,,,,,,,956.7799463000265,956.9811387000373,956.9635202999925,957.2644707,957.2644707,None,957.7648243000149,None,d,1,0.5486663999618031,957.7648243000149,None,None,None,958.331963900011,None,,,,,,,,,,,,,,,,,,,,,11037,1,1,2024_Jun_03_2000,stroop_task_switching2,2021.2.3,59.86776408635766,
condition/block_color,instruction/instr_color,instruction/i8,XX,yellow,j,diamond,color_single,颜色,,,,,,,,,,,0,0,0,0,0,0,0,0,0,8,8,8,,,,,,,,,,,,,,,,,,,,,,,,,,,,,,,,,,,959.3343400000012,959.5350271000061,959.5174029000336,959.8186890000361,959.8186890000361,None,960.3183746000286,None,f,0,0.5472945999936201,960.3183746000286,None,None,None,960.8859644000186,None,,,,,,,,,,,,,,,,,,,,,11037,1,1,2024_Jun_03_2000,stroop_task_switching2,2021.2.3,59.86776408635766,
condition/block_color,instruction/instr_color,instruction/i8,XX,blue,f,diamond,color_single,颜色,,,,,,,,,,,0,0,0,0,0,0,0,0,0,9,9,9,,,,,,,,,,,,,,,,,,,,,,,,,,,,,,,,,,,961.887586100027,962.0892316999962,962.0711833999958,962.3725711000152,962.3725711000152,None,962.8738595999894,None,f,1,0.7915880000218749,962.8738595999894,None,None,None,963.6904798999894,None,,,,,,,,,,,,,,,,,,,,,11037,1,1,2024_Jun_03_2000,stroop_task_switching2,2021.2.3,59.86776408635766,
condition/block_color,instruction/instr_color,instruction/i8,XX,red,d,diamond,color_single,颜色,,,,,,,,,,,0,0,0,0,0,0,0,0,0,10,10,10,,,,,,,,,,,,,,,,,,,,,,,,,,,,,,,,,,,964.6917941999855,964.8927527000196,964.8757139000227,965.176461199997,965.176461199997,None,965.6766464000102,None,d,1,0.58069939998677,965.6766464000102,None,None,None,966.2775696000317,None,,,,,,,,,,,,,,,,,,,,,11037,1,1,2024_Jun_03_2000,stroop_task_switching2,2021.2.3,59.86776408635766,
condition/block_color,instruction/instr_color,instruction/i8,XX,green,k,diamond,color_single,颜色,,,,,,,,,,,0,0,0,0,0,0,0,0,0,11,11,11,,,,,,,,,,,,,,,,,,,,,,,,,,,,,,,,,,,967.2788978000171,967.479105699982,967.4630994999898,967.7639495999902,967.7639495999902,None,968.2636486000265,None,k,1,0.6017851000069641,968.2636486000265,None,None,None,968.8815048999968,None,,,,,,,,,,,,,,,,,,,,,11037,1,1,2024_Jun_03_2000,stroop_task_switching2,2021.2.3,59.86776408635766,
condition/block_color,instruction/instr_color,instruction/i8,XX,blue,f,diamond,color_single,颜色,,,,,,,,,,,0,0,0,0,0,0,0,0,0,12,12,12,,,,,,,,,,,,,,,,,,,,,,,,,,,,,,,,,,,969.8829254999873,970.0845862000133,970.0666945999837,970.3680643999833,970.3680643999833,None,970.8682488999912,None,f,1,0.5339772999868728,970.8682488999912,None,None,None,971.4184934000368,None,,,,,,,,,,,,,,,,,,,,,11037,1,1,2024_Jun_03_2000,stroop_task_switching2,2021.2.3,59.86776408635766,
condition/block_color,instruction/instr_color,instruction/i8,XX,red,d,diamond,color_single,颜色,,,,,,,,,,,0,0,0,0,0,0,0,0,0,13,13,13,,,,,,,,,,,,,,,,,,,,,,,,,,,,,,,,,,,972.4202329000109,972.6208049000124,972.6035294000176,972.9048015000299,972.9048015000299,None,973.4050478999852,None,d,1,0.5565365999937057,973.4050478999852,None,None,None,973.9891893999884,None,,,,,,,,,,,,,,,,,,,,,11037,1,1,2024_Jun_03_2000,stroop_task_switching2,2021.2.3,59.86776408635766,
condition/block_color,instruction/instr_color,instruction/i8,XX,green,k,diamond,color_single,颜色,,,,,,,,,,,0,0,0,0,0,0,0,0,0,14,14,14,,,,,,,,,,,,,,,,,,,,,,,,,,,,,,,,,,,974.9905401000287,975.1915633000317,975.1744822000037,975.4752976000309,975.4752976000309,None,975.9754515999812,None,k,1,0.8742109999875538,975.9754515999812,None,None,None,976.8768035999965,None,,,,,,,,,,,,,,,,,,,,,11037,1,1,2024_Jun_03_2000,stroop_task_switching2,2021.2.3,59.86776408635766,
condition/block_color,instruction/instr_color,instruction/i8,XX,yellow,j,diamond,color_single,颜色,,,,,,,,,,,0,0,0,0,0,0,0,0,0,15,15,15,,,,,,,,,,,,,,,,,,,,,,,,,,,,,,,,,,,977.8786060999846,978.0793680000352,978.0619653000031,978.3622794999974,978.3622794999974,None,978.8631119999918,None,j,1,0.5387577000074089,978.8631119999918,None,None,None,979.4309299000306,None,,,,,,,,,,,,,,,,,,,,,11037,1,1,2024_Jun_03_2000,stroop_task_switching2,2021.2.3,59.86776408635766,
condition/block_color,instruction/instr_color,instruction/i8,XX,red,d,diamond,color_single,颜色,,,,,,,,,,,0,0,0,0,0,0,0,0,0,16,16,16,,,,,,,,,,,,,,,,,,,,,,,,,,,,,,,,,,,980.4322530000354,980.6328077000217,980.6181785000372,980.9328905000002,980.9165156999952,None,981.417772500019,None,d,1,0.6082319999695756,981.417772500019,None,None,None,982.0517729999847,None,,,,,,,,,,,,,,,,,,,,,11037,1,1,2024_Jun_03_2000,stroop_task_switching2,2021.2.3,59.86776408635766,
condition/block_color,instruction/instr_color,instruction/i8,XX,green,k,diamond,color_single,颜色,,,,,,,,,,,0,0,0,0,0,0,0,0,0,17,17,17,,,,,,,,,,,,,,,,,,,,,,,,,,,,,,,,,,,983.0525968000293,983.2533184000058,983.236370300001,983.5379645000212,983.5379645000212,None,984.0377936000004,None,k,1,0.6202816999866627,984.0377936000004,None,None,None,984.6887362999842,None,,,,,,,,,,,,,,,,,,,,,11037,1,1,2024_Jun_03_2000,stroop_task_switching2,2021.2.3,59.86776408635766,
condition/block_color,instruction/instr_color,instruction/i8,XX,yellow,j,diamond,color_single,颜色,,,,,,,,,,,0,0,0,0,0,0,0,0,0,18,18,18,,,,,,,,,,,,,,,,,,,,,,,,,,,,,,,,,,,985.6900583999814,985.8916617000359,985.8739014000166,986.1744849000243,986.1744849000243,None,986.6748569000047,None,j,1,0.4318961000535637,986.6748569000047,None,None,None,987.1255582000013,None,,,,,,,,,,,,,,,,,,,,,11037,1,1,2024_Jun_03_2000,stroop_task_switching2,2021.2.3,59.86776408635766,
condition/block_color,instruction/instr_color,instruction/i8,XX,blue,f,diamond,color_single,颜色,,,,,,,,,,,0,0,0,0,0,0,0,0,0,19,19,19,,,,,,,,,,,,,,,,,,,,,,,,,,,,,,,,,,,988.127149100008,988.3279926999821,988.3109073999804,988.6130585999927,988.6130585999927,None,989.1121031999937,None,f,1,0.410085599985905,989.1121031999937,None,None,None,989.5460050000111,None,,,,,,,,,,,,,,,,,,,,,11037,1,1,2024_Jun_03_2000,stroop_task_switching2,2021.2.3,59.86776408635766,
condition/block_color,instruction/instr_color,instruction/i8,XX,green,k,diamond,color_single,颜色,,,,,,,,,,,0,0,0,0,0,0,0,0,0,20,20,20,,,,,,,,,,,,,,,,,,,,,,,,,,,,,,,,,,,990.5475238999934,990.7476723000291,990.7314324000035,991.0317629000056,991.0317629000056,None,991.532239400025,None,k,1,0.6617534999968484,991.532239400025,None,None,None,992.2164386000368,None,,,,,,,,,,,,,,,,,,,,,11037,1,1,2024_Jun_03_2000,stroop_task_switching2,2021.2.3,59.86776408635766,
condition/block_color,instruction/instr_color,instruction/i8,XX,yellow,j,diamond,color_single,颜色,,,,,,,,,,,0,0,0,0,0,0,0,0,0,21,21,21,,,,,,,,,,,,,,,,,,,,,,,,,,,,,,,,,,,993.2181285999832,993.4191203999799,993.4017626999994,993.7022848000051,993.7022848000051,None,994.2031681000371,None,j,1,0.5509562999941409,994.2031681000371,None,None,None,994.7704107000027,None,,,,,,,,,,,,,,,,,,,,,11037,1,1,2024_Jun_03_2000,stroop_task_switching2,2021.2.3,59.86776408635766,
condition/block_color,instruction/instr_color,instruction/i8,XX,blue,f,diamond,color_single,颜色,,,,,,,,,,,0,0,0,0,0,0,0,0,0,22,22,22,,,,,,,,,,,,,,,,,,,,,,,,,,,,,,,,,,,995.7720828999882,995.9722525000107,995.955497500021,996.2560404000105,996.2560404000105,None,996.7569017999922,None,f,1,0.46929749997798353,996.7569017999922,None,None,None,997.2576116999844,None,,,,,,,,,,,,,,,,,,,,,11037,1,1,2024_Jun_03_2000,stroop_task_switching2,2021.2.3,59.86776408635766,
condition/block_color,instruction/instr_color,instruction/i8,XX,red,d,diamond,color_single,颜色,,,,,,,,,,,0,0,0,0,0,0,0,0,0,23,23,23,,,,,,,,,,,,,,,,,,,,,,,,,,,,,,,,,,,998.2593915000325,998.4592936999979,998.4436942000175,998.7438383999979,998.7438383999979,None,999.2437301999889,None,d,1,0.4628937999950722,999.2437301999889,None,None,None,999.7279182000202,None,,,,,,,,,,,,,,,,,,,,,11037,1,1,2024_Jun_03_2000,stroop_task_switching2,2021.2.3,59.86776408635766,
condition/block_color,instruction/instr_color,instruction/i8,,,,,,,,,,,,,,,,,0,0,0,0,0,0,0,0,,,,,,,,,,,,,,,,,,,,,,,,,,,,,,,,,,,,,,,,,,,,,,,,,,,,,,,,1000.7629053000128,None,space,2.577535299991723,1000.7629053000128,None,,,,,,,,,,,,,,,11037,1,1,2024_Jun_03_2000,stroop_task_switching2,2021.2.3,59.86776408635766,
condition/block_color,instruction/instr_color,instruction/i8,,,,,,,,,,,,,,,,,0,0,0,0,,,,,,,,,,,,,,,,,,,,,,,,,,,,,,,,,,,,,,,,,,,,,,,,,,,,,,,,,,,,,,,,,,,,,,,,,,,,,,,,11037,1,1,2024_Jun_03_2000,stroop_task_switching2,2021.2.3,59.86776408635766,
condition/block_word,instruction/instr_word,instruction/i9,黄,white,j,square,word_single,单词,0.0032461461866890584,,,,,,,,,,0,1,1,1,0,0,0,0,0,0,0,0,,,,,,,,,,,,,,,,,,,,,1003.383576399996,None,space,6.126915999979246,1003.383576399996,None,1010.5276792999939,1011.5298343999893,1011.5298343999893,1012.5314968000166,1012.5314968000166,None,1009.5428080999991,1010.5462041000137,1013.566043000028,1013.7678233000333,1013.7489901999943,1014.0500088999979,1014.0500088999979,None,1014.5334862000309,None,j,1,0.9253805000334978,1014.5334862000309,None,None,None,1015.4850826000329,None,,,,,,,,,,,,,,,,,,,,,11037,1,1,2024_Jun_03_2000,stroop_task_switching2,2021.2.3,59.86776408635766,
condition/block_word,instruction/instr_word,instruction/i9,蓝,white,f,square,word_single,单词,0.060540570646362424,,,,,,,,,,0,1,1,1,0,0,0,0,0,1,1,1,,,,,,,,,,,,,,,,,,,,,,,,,,,,,,,,,,,1016.486443300033,1016.6884744000272,1016.6703675999888,1016.9714378000353,1016.9714378000353,None,1017.4712885000044,None,f,1,0.48381740000331774,1017.4712885000044,None,None,None,1017.9719520999934,None,,,,,,,,,,,,,,,,,,,,,11037,1,1,2024_Jun_03_2000,stroop_task_switching2,2021.2.3,59.86776408635766,
condition/block_word,instruction/instr_word,instruction/i9,黄,white,j,square,word_single,单词,0.06994067193778963,,,,,,,,,,0,1,1,1,0,0,0,0,0,2,2,2,,,,,,,,,,,,,,,,,,,,,,,,,,,,,,,,,,,1018.9736407999881,1019.1747723000008,1019.1410385000054,1019.4413409000263,1019.45780069998,None,1019.9584164000116,None,j,1,0.5567450999515131,1019.9584164000116,None,None,None,1020.5426833999809,None,,,,,,,,,,,,,,,,,,,,,11037,1,1,2024_Jun_03_2000,stroop_task_switching2,2021.2.3,59.86776408635766,
condition/block_word,instruction/instr_word,instruction/i9,蓝,white,f,square,word_single,单词,0.08193765152950094,,,,,,,,,,0,1,1,1,0,0,0,0,0,3,3,3,,,,,,,,,,,,,,,,,,,,,,,,,,,,,,,,,,,1021.544356700033,1021.7455660999985,1021.7278660000302,1022.0282960000332,1022.0282960000332,None,1022.5291176000028,None,f,1,0.6337970999884419,1022.5291176000028,None,None,None,1023.1800246000057,None,,,,,,,,,,,,,,,,,,,,,11037,1,1,2024_Jun_03_2000,stroop_task_switching2,2021.2.3,59.86776408635766,
condition/block_word,instruction/instr_word,instruction/i9,红,white,d,square,word_single,单词,0.1279694370605574,,,,,,,,,,0,1,1,1,0,0,0,0,0,4,4,4,,,,,,,,,,,,,,,,,,,,,,,,,,,,,,,,,,,1024.1814135999884,1024.3821843999904,1024.3650971000316,1024.6662635999965,1024.6662635999965,None,1025.1663348000147,None,d,1,0.5088295000023209,1025.1663348000147,None,None,None,1025.7004535000306,None,,,,,,,,,,,,,,,,,,,,,11037,1,1,2024_Jun_03_2000,stroop_task_switching2,2021.2.3,59.86776408635766,
condition/block_word,instruction/instr_word,instruction/i9,红,white,d,square,word_single,单词,0.18345028784879092,,,,,,,,,,0,1,1,1,0,0,0,0,0,5,5,5,,,,,,,,,,,,,,,,,,,,,,,,,,,,,,,,,,,1026.7019945000065,1026.9023467000225,1026.886993799999,1027.186112400028,1027.186112400028,None,1027.6871239999891,None,d,1,0.5879487000056542,1027.6871239999891,None,None,None,1028.30438039999,None,,,,,,,,,,,,,,,,,,,,,11037,1,1,2024_Jun_03_2000,stroop_task_switching2,2021.2.3,59.86776408635766,
condition/block_word,instruction/instr_word,instruction/i9,蓝,white,f,square,word_single,单词,0.19920386223101294,,,,,,,,,,0,1,1,1,0,0,0,0,0,6,6,6,,,,,,,,,,,,,,,,,,,,,,,,,,,,,,,,,,,1029.3059887000127,1029.5062816999853,1029.4909774999833,1029.7899650000036,1029.7899650000036,None,1030.290684800013,None,f,1,0.6006916000042111,1030.290684800013,None,None,None,1030.9086299000192,None,,,,,,,,,,,,,,,,,,,,,11037,1,1,2024_Jun_03_2000,stroop_task_switching2,2021.2.3,59.86776408635766,
condition/block_word,instruction/instr_word,instruction/i9,蓝,white,f,square,word_single,单词,0.26360599864925405,,,,,,,,,,0,1,1,1,0,0,0,0,0,7,7,7,,,,,,,,,,,,,,,,,,,,,,,,,,,,,,,,,,,1031.909854300029,1032.1111756000319,1032.0935960999923,1032.3953293000231,1032.3953293000231,None,1032.8945527999895,None,f,1,0.5726114999852143,1032.8945527999895,None,None,None,1033.495511999994,None,,,,,,,,,,,,,,,,,,,,,11037,1,1,2024_Jun_03_2000,stroop_task_switching2,2021.2.3,59.86776408635766,
condition/block_word,instruction/instr_word,instruction/i9,蓝,white,f,square,word_single,单词,0.358985675745526,,,,,,,,,,0,1,1,1,0,0,0,0,0,8,8,8,,,,,,,,,,,,,,,,,,,,,,,,,,,,,,,,,,,1034.4970000000321,1034.698069999984,1034.6805803999887,1034.982179499988,1034.982179499988,None,1035.4832659999956,None,f,1,0.6081016999669373,1035.4832659999956,None,None,None,1036.1163052000338,None,,,,,,,,,,,,,,,,,,,,,11037,1,1,2024_Jun_03_2000,stroop_task_switching2,2021.2.3,59.86776408635766,
condition/block_word,instruction/instr_word,instruction/i9,绿,white,k,square,word_single,单词,0.36496733802487347,,,,,,,,,,0,1,1,1,0,0,0,0,0,9,9,9,,,,,,,,,,,,,,,,,,,,,,,,,,,,,,,,,,,1037.1177386000054,1037.3185513000353,1037.3012796000112,1037.602675000031,1037.602675000031,None,1038.102365300001,None,k,1,0.6530850999988616,1038.102365300001,None,None,None,1038.788302800036,None,,,,,,,,,,,,,,,,,,,,,11037,1,1,2024_Jun_03_2000,stroop_task_switching2,2021.2.3,59.86776408635766,
condition/block_word,instruction/instr_word,instruction/i9,黄,white,j,square,word_single,单词,0.3743513623756727,,,,,,,,,,0,1,1,1,0,0,0,0,0,10,10,10,,,,,,,,,,,,,,,,,,,,,,,,,,,,,,,,,,,1039.7882611000095,1039.9895056000096,1039.972128399997,1040.2724467000226,1040.2724467000226,None,1040.7732870000182,None,j,1,0.6466132000205107,1040.7732870000182,None,None,None,1041.4406905000214,None,,,,,,,,,,,,,,,,,,,,,11037,1,1,2024_Jun_03_2000,stroop_task_switching2,2021.2.3,59.86776408635766,
condition/block_word,instruction/instr_word,instruction/i9,红,white,d,square,word_single,单词,0.3894803852598544,,,,,,,,,,0,1,1,1,0,0,0,0,0,11,11,11,,,,,,,,,,,,,,,,,,,,,,,,,,,,,,,,,,,1042.4423727000249,1042.6437574999873,1042.6261601999868,1042.9278399000177,1042.9278399000177,None,1043.427090400015,None,d,1,0.48855860001640394,1043.427090400015,None,None,None,1043.9443122000084,None,,,,,,,,,,,,,,,,,,,,,11037,1,1,2024_Jun_03_2000,stroop_task_switching2,2021.2.3,59.86776408635766,
condition/block_word,instruction/instr_word,instruction/i9,绿,white,k,square,word_single,单词,0.5393759672408067,,,,,,,,,,0,1,1,1,0,0,0,0,0,12,12,12,,,,,,,,,,,,,,,,,,,,,,,,,,,,,,,,,,,1044.946254600014,1045.147524500033,1045.1297863000073,1045.430498600006,1045.430498600006,None,1045.9310674000299,None,k,1,0.8007478000363335,1045.9310674000299,None,None,None,1046.748828699987,None,,,,,,,,,,,,,,,,,,,,,11037,1,1,2024_Jun_03_2000,stroop_task_switching2,2021.2.3,59.86776408635766,
condition/block_word,instruction/instr_word,instruction/i9,蓝,white,f,square,word_single,单词,0.5995731954831104,,,,,,,,,,0,1,1,1,0,0,0,0,0,13,13,13,,,,,,,,,,,,,,,,,,,,,,,,,,,,,,,,,,,1047.750375100004,1047.9507448000368,1047.9339983999962,1048.234640699986,1048.234640699986,None,1048.734910900006,None,f,1,0.732934900035616,1048.734910900006,None,None,None,1049.4862359000253,None,,,,,,,,,,,,,,,,,,,,,11037,1,1,2024_Jun_03_2000,stroop_task_switching2,2021.2.3,59.86776408635766,
condition/block_word,instruction/instr_word,instruction/i9,红,white,d,square,word_single,单词,0.6298674479151414,,,,,,,,,,0,1,1,1,0,0,0,0,0,14,14,14,,,,,,,,,,,,,,,,,,,,,,,,,,,,,,,,,,,1050.4877358999802,1050.6882159999805,1050.6726771999965,1050.9719727000338,1050.9719727000338,None,1051.4726931999903,None,d,1,0.5790252999868244,1051.4726931999903,None,None,None,1052.0736112000304,None,,,,,,,,,,,,,,,,,,,,,11037,1,1,2024_Jun_03_2000,stroop_task_switching2,2021.2.3,59.86776408635766,
condition/block_word,instruction/instr_word,instruction/i9,红,white,d,square,word_single,单词,0.7389942282348904,,,,,,,,,,0,1,1,1,0,0,0,0,0,15,15,15,,,,,,,,,,,,,,,,,,,,,,,,,,,,,,,,,,,1053.0749955000356,1053.2764051000122,1053.258782799996,1053.5591647999827,1053.5591647999827,None,1054.0597585000214,None,d,1,0.616314799990505,1054.0597585000214,None,None,None,1054.6940866000368,None,,,,,,,,,,,,,,,,,,,,,11037,1,1,2024_Jun_03_2000,stroop_task_switching2,2021.2.3,59.86776408635766,
condition/block_word,instruction/instr_word,instruction/i9,绿,white,k,square,word_single,单词,0.7550853947239682,,,,,,,,,,0,1,1,1,0,0,0,0,0,16,16,16,,,,,,,,,,,,,,,,,,,,,,,,,,,,,,,,,,,1055.695450900006,1055.8958446999895,1055.8790751000051,1056.1807467000326,1056.1807467000326,None,1056.680564899987,None,k,1,0.771253600018099,1056.680564899987,None,None,None,1057.4817102000234,None,,,,,,,,,,,,,,,,,,,,,11037,1,1,2024_Jun_03_2000,stroop_task_switching2,2021.2.3,59.86776408635766,
condition/block_word,instruction/instr_word,instruction/i9,绿,white,k,square,word_single,单词,0.8019302780428206,,,,,,,,,,0,1,1,1,0,0,0,0,0,17,17,17,,,,,,,,,,,,,,,,,,,,,,,,,,,,,,,,,,,1058.483252200007,1058.684466900013,1058.6669111000374,1058.968555700034,1058.968555700034,None,1059.4680278000305,None,k,1,0.5920444999937899,1059.4680278000305,None,None,None,1060.085332799994,None,,,,,,,,,,,,,,,,,,,,,11037,1,1,2024_Jun_03_2000,stroop_task_switching2,2021.2.3,59.86776408635766,
condition/block_word,instruction/instr_word,instruction/i9,绿,white,k,square,word_single,单词,0.8110702914095343,,,,,,,,,,0,1,1,1,0,0,0,0,0,18,18,18,,,,,,,,,,,,,,,,,,,,,,,,,,,,,,,,,,,1061.0871232000063,1061.2887758000288,1061.2706266000168,1061.5712424000376,1061.5712424000376,None,1062.0727601000108,None,k,1,0.5554710999713279,1062.0727601000108,None,None,None,1062.6573930000304,None,,,,,,,,,,,,,,,,,,,,,11037,1,1,2024_Jun_03_2000,stroop_task_switching2,2021.2.3,59.86776408635766,
condition/block_word,instruction/instr_word,instruction/i9,黄,white,j,square,word_single,单词,0.8176594937590999,,,,,,,,,,0,1,1,1,0,0,0,0,0,19,19,19,,,,,,,,,,,,,,,,,,,,,,,,,,,,,,,,,,,1063.65757749998,1063.8586470999871,1063.8414774999837,1064.1418395999935,1064.1418395999935,None,1064.6424760000082,None,j,1,0.6257318999851122,1064.6424760000082,None,None,None,1065.2934833000181,None,,,,,,,,,,,,,,,,,,,,,11037,1,1,2024_Jun_03_2000,stroop_task_switching2,2021.2.3,59.86776408635766,
condition/block_word,instruction/instr_word,instruction/i9,红,white,d,square,word_single,单词,0.8955794421104841,,,,,,,,,,0,1,1,1,0,0,0,0,0,20,20,20,,,,,,,,,,,,,,,,,,,,,,,,,,,,,,,,,,,1066.2952520999825,1066.4951670999872,1066.4793630000204,1066.780989299994,1066.780989299994,None,1067.279699000006,None,d,1,0.5734861000091769,1067.279699000006,None,None,None,1067.8808754000347,None,,,,,,,,,,,,,,,,,,,,,11037,1,1,2024_Jun_03_2000,stroop_task_switching2,2021.2.3,59.86776408635766,
condition/block_word,instruction/instr_word,instruction/i9,绿,white,k,square,word_single,单词,0.9113598052474129,,,,,,,,,,0,1,1,1,0,0,0,0,0,21,21,21,,,,,,,,,,,,,,,,,,,,,,,,,,,,,,,,,,,1068.8834012000007,1069.0826262999908,1069.0658755000331,1069.366475799994,1069.366475799994,None,1069.8671841000323,None,k,1,0.6410776000120677,1069.8671841000323,None,None,None,1070.5346017000265,None,,,,,,,,,,,,,,,,,,,,,11037,1,1,2024_Jun_03_2000,stroop_task_switching2,2021.2.3,59.86776408635766,
condition/block_word,instruction/instr_word,instruction/i9,黄,white,j,square,word_single,单词,0.9215930958042953,,,,,,,,,,0,1,1,1,0,0,0,0,0,22,22,22,,,,,,,,,,,,,,,,,,,,,,,,,,,,,,,,,,,1071.5362293000217,1071.7370962999994,1071.7198983000126,1072.0213178999838,1072.0213178999838,None,1072.5215220000246,None,j,1,0.6908623000490479,1072.5215220000246,None,None,None,1073.2389555000118,None,,,,,,,,,,,,,,,,,,,,,11037,1,1,2024_Jun_03_2000,stroop_task_switching2,2021.2.3,59.86776408635766,
condition/block_word,instruction/instr_word,instruction/i9,黄,white,j,square,word_single,单词,0.9493525498837774,,,,,,,,,,0,1,1,1,0,0,0,0,0,23,23,23,,,,,,,,,,,,,,,,,,,,,,,,,,,,,,,,,,,1074.2404415000346,1074.4407333999989,1074.424158799986,1074.7249918000307,1074.7249918000307,None,1075.2250542999827,None,j,1,0.5396630999748595,1075.2250542999827,None,None,None,1075.792643600027,None,,,,,,,,,,,,,,,,,,,,,11037,1,1,2024_Jun_03_2000,stroop_task_switching2,2021.2.3,59.86776408635766,
condition/block_word,instruction/instr_word,instruction/i9,,,,,,,,,,,,,,,,,0,1,1,1,0,0,0,0,,,,,,,,,,,,,,,,,,,,,,,,,,,,,,,,,,,,,,,,,,,,,,,,,,,,,,,,1076.793939700001,None,space,2.465483099978883,1076.793939700001,None,,,,,,,,,,,,,,,11037,1,1,2024_Jun_03_2000,stroop_task_switching2,2021.2.3,59.86776408635766,
condition/block_word,instruction/instr_word,instruction/i9,,,,,,,,,,,,,,,,,0,1,1,1,,,,,,,,,,,,,,,,,,,,,,,,,,,,,,,,,,,,,,,,,,,,,,,,,,,,,,,,,,,,,,,,,,,,,,,,,,,,,,,,11037,1,1,2024_Jun_03_2000,stroop_task_switching2,2021.2.3,59.86776408635766,
condition/block_mixed,instruction/instr_mixed,instruction/i10,蓝,red,d,diamond,color_mix,颜色,,incompatible,0,,,,,,,,0,2,2,2,0,0,0,0,0,0,0,0,,,,,,,,,,,,,,,,,,,,,1079.29794150003,None,space,28.330178700038232,1079.29794150003,None,1108.6589557999978,1109.6604782000068,1109.6604782000068,1110.662719600019,1110.662719600019,None,1107.674127699982,1108.6772087999852,1111.6973506000359,1111.8975757000153,1111.8802910000086,1112.1809669000213,1112.1809669000213,None,1112.6649569,None,d,1,0.5968967999797314,1112.6649569,None,None,None,1113.2824964000029,None,,,,,,,,,,,,,,,,,,,,,11037,1,1,2024_Jun_03_2000,stroop_task_switching2,2021.2.3,59.86776408635766,
condition/block_mixed,instruction/instr_mixed,instruction/i10,绿,yellow,j,diamond,color_mix,颜色,,incompatible,1,,,,,,,,0,2,2,2,0,0,0,0,0,1,1,1,,,,,,,,,,,,,,,,,,,,,,,,,,,,,,,,,,,1114.284027400019,1114.484950300015,1114.4674745000084,1114.767862299981,1114.767862299981,None,1115.2688847000245,None,j,1,0.9045099999639206,1115.2688847000245,None,None,None,1116.2035595999914,None,,,,,,,,,,,,,,,,,,,,,11037,1,1,2024_Jun_03_2000,stroop_task_switching2,2021.2.3,59.86776408635766,
condition/block_mixed,instruction/instr_mixed,instruction/i10,红,green,k,diamond,color_mix,颜色,,incompatible,1,,,,,,,,0,2,2,2,0,0,0,0,0,2,2,2,,,,,,,,,,,,,,,,,,,,,,,,,,,,,,,,,,,1117.204987300036,1117.4060006000218,1117.3888724999852,1117.6917930000345,1117.6917930000345,None,1118.207705000008,None,k,1,0.8382758999941871,1118.207705000008,None,None,None,1119.0745266000158,None,,,,,,,,,,,,,,,,,,,,,11037,1,1,2024_Jun_03_2000,stroop_task_switching2,2021.2.3,59.86776408635766,
condition/block_mixed,instruction/instr_mixed,instruction/i10,蓝,red,d,diamond,color_mix,颜色,,incompatible,1,,,,,,,,0,2,2,2,0,0,0,0,0,3,3,3,,,,,,,,,,,,,,,,,,,,,,,,,,,,,,,,,,,1120.0758480000077,1120.2779979000334,1120.2594682000345,1120.5619622999802,1120.5619622999802,None,1121.060859500023,None,d,1,0.8012910000397824,1121.060859500023,None,None,None,1121.8789092000225,None,,,,,,,,,,,,,,,,,,,,,11037,1,1,2024_Jun_03_2000,stroop_task_switching2,2021.2.3,59.86776408635766,
condition/block_mixed,instruction/instr_mixed,instruction/i10,红,blue,f,diamond,color_mix,颜色,,incompatible,1,,,,,,,,0,2,2,2,0,0,0,0,0,4,4,4,,,,,,,,,,,,,,,,,,,,,,,,,,,,,,,,,,,1122.8804839000222,1123.0825415999861,1123.0637841999996,1123.3645098999841,1123.3645098999841,None,1123.8655269999872,None,f,1,0.7963211999740452,1123.8655269999872,None,None,None,1124.6832061000168,None,,,,,,,,,,,,,,,,,,,,,11037,1,1,2024_Jun_03_2000,stroop_task_switching2,2021.2.3,59.86776408635766,
condition/block_mixed,instruction/instr_mixed,instruction/i10,红,blue,d,square,color_mix,单词,,incompatible,2,,,,,,,,0,2,2,2,0,0,0,0,0,5,5,5,,,,,,,,,,,,,,,,,,,,,,,,,,,,,,,,,,,1125.684477999981,1125.8865424999967,1125.8688534999965,1126.1689811000251,1126.1689811000251,None,1126.6691398000112,None,f,0,0.6086558999959379,1126.6691398000112,None,None,None,1127.3036384999868,None,,,,,,,,,,,,,,,,,,,,,11037,1,1,2024_Jun_03_2000,stroop_task_switching2,2021.2.3,59.86776408635766,
condition/block_mixed,instruction/instr_mixed,instruction/i10,红,yellow,j,diamond,color_mix,颜色,,incompatible,2,,,,,,,,0,2,2,2,0,0,0,0,0,6,6,6,,,,,,,,,,,,,,,,,,,,,,,,,,,,,,,,,,,1128.3054819999961,1128.5061285999836,1128.4888762999908,1128.7903036000207,1128.7903036000207,None,1129.2897517000092,None,j,1,0.8600046000210568,1129.2897517000092,None,None,None,1130.1745162000298,None,,,,,,,,,,,,,,,,,,,,,11037,1,1,2024_Jun_03_2000,stroop_task_switching2,2021.2.3,59.86776408635766,
condition/block_mixed,instruction/instr_mixed,instruction/i10,红,yellow,d,square,color_mix,单词,,incompatible,2,,,,,,,,0,2,2,2,0,0,0,0,0,7,7,7,,,,,,,,,,,,,,,,,,,,,,,,,,,,,,,,,,,1131.1762984999805,1131.376463600027,1131.35982100002,1131.6606892999844,1131.6606892999844,None,1132.1612146000261,None,d,1,1.8048425000160933,1132.1612146000261,None,None,None,1133.9804167000111,None,,,,,,,,,,,,,,,,,,,,,11037,1,1,2024_Jun_03_2000,stroop_task_switching2,2021.2.3,59.86776408635766,
condition/block_mixed,instruction/instr_mixed,instruction/i10,绿,blue,k,square,color_mix,单词,,incompatible,1,,,,,,,,0,2,2,2,0,0,0,0,0,8,8,8,,,,,,,,,,,,,,,,,,,,,,,,,,,,,,,,,,,1134.9820353999967,1135.1823940000031,1135.1653521999833,1135.465967600001,1135.465967600001,None,1135.9670460000052,None,k,1,1.4310292999725789,1135.9670460000052,None,None,None,1137.4189058000338,None,,,,,,,,,,,,,,,,,,,,,11037,1,1,2024_Jun_03_2000,stroop_task_switching2,2021.2.3,59.86776408635766,
condition/block_mixed,instruction/instr_mixed,instruction/i10,蓝,green,k,diamond,color_mix,颜色,,incompatible,2,,,,,,,,0,2,2,2,0,0,0,0,0,9,9,9,,,,,,,,,,,,,,,,,,,,,,,,,,,,,,,,,,,1138.4202261000173,1138.6212835999904,1138.6040019000066,1138.9046380000073,1138.9046380000073,None,1139.4052617999841,None,j,0,1.0090178999816999,1139.4052617999841,None,None,None,1140.4422735000262,None,,,,,,,,,,,,,,,,,,,,,11037,1,1,2024_Jun_03_2000,stroop_task_switching2,2021.2.3,59.86776408635766,
condition/block_mixed,instruction/instr_mixed,instruction/i10,蓝,yellow,f,square,color_mix,单词,,incompatible,2,,,,,,,,0,2,2,2,0,0,0,0,0,10,10,10,,,,,,,,,,,,,,,,,,,,,,,,,,,,,,,,,,,1141.44169409998,1141.6443169999984,1141.6259400999988,1141.9268423999893,1141.9268423999893,None,1142.4265733000357,None,f,1,1.8437335999915376,1142.4265733000357,None,None,None,1144.2960128000122,None,,,,,,,,,,,,,,,,,,,,,11037,1,1,2024_Jun_03_2000,stroop_task_switching2,2021.2.3,59.86776408635766,
condition/block_mixed,instruction/instr_mixed,instruction/i10,蓝,green,f,square,color_mix,单词,,incompatible,1,,,,,,,,0,2,2,2,0,0,0,0,0,11,11,11,,,,,,,,,,,,,,,,,,,,,,,,,,,,,,,,,,,1145.2976365000359,1145.4978226000094,1145.4824218000285,1145.7827995999833,1145.7827995999833,None,1146.2823032999877,None,f,1,1.324009499978274,1146.2823032999877,None,None,None,1147.6344835000345,None,,,,,,,,,,,,,,,,,,,,,11037,1,1,2024_Jun_03_2000,stroop_task_switching2,2021.2.3,59.86776408635766,
condition/block_mixed,instruction/instr_mixed,instruction/i10,绿,yellow,k,square,color_mix,单词,,incompatible,1,,,,,,,,0,2,2,2,0,0,0,0,0,12,12,12,,,,,,,,,,,,,,,,,,,,,,,,,,,,,,,,,,,1148.6362298000022,1148.8369514999795,1148.8194965000148,1149.1207638999913,1149.1207638999913,None,1149.6204310000176,1152.6262278000358,None,0,,1149.6204310000176,1152.6262278000358,1152.6084486999898,None,1153.126014199981,None,,,,,,,,,,,,,,,,,,,,,11037,1,1,2024_Jun_03_2000,stroop_task_switching2,2021.2.3,59.86776408635766,
condition/block_mixed,instruction/instr_mixed,instruction/i10,绿,blue,f,diamond,color_mix,颜色,,incompatible,2,,,,,,,,0,2,2,2,0,0,0,0,0,13,13,13,,,,,,,,,,,,,,,,,,,,,,,,,,,,,,,,,,,1154.1273601999856,1154.3290401999839,1154.3110810000217,1154.6118437999976,1154.6118437999976,None,1155.1120204000035,None,f,1,1.078775800007861,1155.1120204000035,None,None,None,1156.214130599983,None,,,,,,,,,,,,,,,,,,,,,11037,1,1,2024_Jun_03_2000,stroop_task_switching2,2021.2.3,59.86776408635766,
condition/block_mixed,instruction/instr_mixed,instruction/i10,黄,red,j,square,color_mix,单词,,incompatible,2,,,,,,,,0,2,2,2,0,0,0,0,0,14,14,14,,,,,,,,,,,,,,,,,,,,,,,,,,,,,,,,,,,1157.215561399993,1157.4156763000065,1157.3991932999925,1157.7007254000055,1157.7007254000055,None,1158.2005650000065,None,j,1,1.6380851999856532,1158.2005650000065,None,None,None,1159.8694089000346,None,,,,,,,,,,,,,,,,,,,,,11037,1,1,2024_Jun_03_2000,stroop_task_switching2,2021.2.3,59.86776408635766,
condition/block_mixed,instruction/instr_mixed,instruction/i10,蓝,yellow,j,diamond,color_mix,颜色,,incompatible,2,,,,,,,,0,2,2,2,0,0,0,0,0,15,15,15,,,,,,,,,,,,,,,,,,,,,,,,,,,,,,,,,,,1160.870991200034,1161.0716713999864,1161.0547841999796,1161.3551546999952,1161.3551546999952,None,1161.8558491999866,None,j,1,0.9111506000044756,1161.8558491999866,None,None,None,1162.7905402000179,None,,,,,,,,,,,,,,,,,,,,,11037,1,1,2024_Jun_03_2000,stroop_task_switching2,2021.2.3,59.86776408635766,
condition/block_mixed,instruction/instr_mixed,instruction/i10,黄,red,d,diamond,color_mix,颜色,,incompatible,1,,,,,,,,0,2,2,2,0,0,0,0,0,16,16,16,,,,,,,,,,,,,,,,,,,,,,,,,,,,,,,,,,,1163.7921654999955,1163.9921953000012,1163.9771170000313,1164.2776655000052,1164.2776655000052,None,1164.7768584000296,None,d,1,0.7107236000010744,1164.7768584000296,None,None,None,1165.5112783000222,None,,,,,,,,,,,,,,,,,,,,,11037,1,1,2024_Jun_03_2000,stroop_task_switching2,2021.2.3,59.86776408635766,
condition/block_mixed,instruction/instr_mixed,instruction/i10,绿,red,k,square,color_mix,单词,,incompatible,2,,,,,,,,0,2,2,2,0,0,0,0,0,17,17,17,,,,,,,,,,,,,,,,,,,,,,,,,,,,,,,,,,,1166.5130195000092,1166.7138064000173,1166.6963407000294,1166.9969742000103,1166.9969742000103,None,1167.4975478000124,None,k,1,2.0694912999751978,1167.4975478000124,None,None,None,1169.5843293000362,None,,,,,,,,,,,,,,,,,,,,,11037,1,1,2024_Jun_03_2000,stroop_task_switching2,2021.2.3,59.86776408635766,
condition/block_mixed,instruction/instr_mixed,instruction/i10,红,green,d,square,color_mix,单词,,incompatible,1,,,,,,,,0,2,2,2,0,0,0,0,0,18,18,18,,,,,,,,,,,,,,,,,,,,,,,,,,,,,,,,,,,1170.5857483000145,1170.7858642000356,1170.769342500018,1171.0695417000097,1171.0695417000097,None,1171.5705190000008,None,d,1,2.2844866000232287,1171.5705190000008,None,None,None,1173.8739288999932,None,,,,,,,,,,,,,,,,,,,,,11037,1,1,2024_Jun_03_2000,stroop_task_switching2,2021.2.3,59.86776408635766,
condition/block_mixed,instruction/instr_mixed,instruction/i10,黄,blue,f,diamond,color_mix,颜色,,incompatible,2,,,,,,,,0,2,2,2,0,0,0,0,0,19,19,19,,,,,,,,,,,,,,,,,,,,,,,,,,,,,,,,,,,1174.8753848000197,1175.0766869999934,1175.0597606000374,1175.3602976999828,1175.3602976999828,None,1175.8600236999919,None,f,1,0.9552203000057489,1175.8600236999919,None,None,None,1176.8451182999997,None,,,,,,,,,,,,,,,,,,,,,11037,1,1,2024_Jun_03_2000,stroop_task_switching2,2021.2.3,59.86776408635766,
condition/block_mixed,instruction/instr_mixed,instruction/i10,黄,green,k,diamond,color_mix,颜色,,incompatible,1,,,,,,,,0,2,2,2,0,0,0,0,0,20,20,20,,,,,,,,,,,,,,,,,,,,,,,,,,,,,,,,,,,1177.8466654000222,1178.046689699986,1178.0301978000207,1178.330635100021,1178.330635100021,None,1178.8315028999932,None,k,1,0.9280998000176623,1178.8315028999932,None,None,None,1179.7829354000278,None,,,,,,,,,,,,,,,,,,,,,11037,1,1,2024_Jun_03_2000,stroop_task_switching2,2021.2.3,59.86776408635766,
condition/block_mixed,instruction/instr_mixed,instruction/i10,黄,green,j,square,color_mix,单词,,incompatible,2,,,,,,,,0,2,2,2,0,0,0,0,0,21,21,21,,,,,,,,,,,,,,,,,,,,,,,,,,,,,,,,,,,1180.7841324000037,1180.9858354000025,1180.9679939000052,1181.2682505000266,1181.2682505000266,None,1181.7692099999986,None,k,0,2.0861955999862403,1181.7692099999986,None,None,None,1183.8724284000346,None,,,,,,,,,,,,,,,,,,,,,11037,1,1,2024_Jun_03_2000,stroop_task_switching2,2021.2.3,59.86776408635766,
condition/block_mixed,instruction/instr_mixed,instruction/i10,黄,blue,j,square,color_mix,单词,,incompatible,1,,,,,,,,0,2,2,2,0,0,0,0,0,22,22,22,,,,,,,,,,,,,,,,,,,,,,,,,,,,,,,,,,,1184.8740595999989,1185.075125100033,1185.0575642000185,1185.359159899992,1185.359159899992,None,1185.8586789999972,None,j,1,1.7169192000292242,1185.8586789999972,None,None,None,1187.5945601999993,None,,,,,,,,,,,,,,,,,,,,,11037,1,1,2024_Jun_03_2000,stroop_task_switching2,2021.2.3,59.86776408635766,
condition/block_mixed,instruction/instr_mixed,instruction/i10,蓝,red,f,square,color_mix,单词,,incompatible,1,,,,,,,,0,2,2,2,0,0,0,0,0,23,23,23,,,,,,,,,,,,,,,,,,,,,,,,,,,,,,,,,,,1188.596250600007,1188.796336600033,1188.7817497000215,1189.0802939999849,1189.0802939999849,None,1189.5822795000277,None,f,1,2.065559000009671,1189.5822795000277,None,None,None,1191.6673259999952,None,,,,,,,,,,,,,,,,,,,,,11037,1,1,2024_Jun_03_2000,stroop_task_switching2,2021.2.3,59.86776408635766,
condition/block_mixed,instruction/instr_mixed,instruction/i10,绿,red,d,diamond,color_mix,颜色,,incompatible,2,,,,,,,,0,2,2,2,0,0,0,0,0,24,24,24,,,,,,,,,,,,,,,,,,,,,,,,,,,,,,,,,,,1192.6692745999899,1192.8691493999795,1192.8526163999923,1193.1532854000106,1193.1532854000106,None,1193.653554300021,None,d,1,1.6187728000222705,1193.653554300021,None,None,None,1195.2894285999937,None,,,,,,,,,,,,,,,,,,,,,11037,1,1,2024_Jun_03_2000,stroop_task_switching2,2021.2.3,59.86776408635766,
condition/block_mixed,instruction/instr_mixed,instruction/i10,绿,green,k,diamond,color_mix,颜色,,compatible,1,,,,,,,,0,2,2,2,0,0,0,0,0,25,25,25,,,,,,,,,,,,,,,,,,,,,,,,,,,,,,,,,,,1196.2913897000253,1196.4921160000376,1196.474673299992,1196.7748733999906,1196.7748733999906,None,1197.275822399999,None,k,1,1.6199437999748625,1197.275822399999,None,None,None,1198.9115821000305,None,,,,,,,,,,,,,,,,,,,,,11037,1,1,2024_Jun_03_2000,stroop_task_switching2,2021.2.3,59.86776408635766,
condition/block_mixed,instruction/instr_mixed,instruction/i10,蓝,blue,f,diamond,color_mix,颜色,,compatible,1,,,,,,,,0,2,2,2,0,0,0,0,0,26,26,26,,,,,,,,,,,,,,,,,,,,,,,,,,,,,,,,,,,1199.913081799983,1200.113921399985,1200.0971986000077,1200.3972377000027,1200.3972377000027,None,1200.8985875000362,None,f,1,1.0852840000297874,1200.8985875000362,None,None,None,1201.9996416000067,None,,,,,,,,,,,,,,,,,,,,,11037,1,1,2024_Jun_03_2000,stroop_task_switching2,2021.2.3,59.86776408635766,
condition/block_mixed,instruction/instr_mixed,instruction/i10,绿,green,k,square,color_mix,单词,,compatible,2,,,,,,,,0,2,2,2,0,0,0,0,0,27,27,27,,,,,,,,,,,,,,,,,,,,,,,,,,,,,,,,,,,1203.0010752999806,1203.2018206000212,1203.1846627999912,1203.4858074000222,1203.4858074000222,None,1203.9857927000266,None,k,1,2.718533600040246,1203.9857927000266,None,None,None,1206.7233672000002,None,,,,,,,,,,,,,,,,,,,,,11037,1,1,2024_Jun_03_2000,stroop_task_switching2,2021.2.3,59.86776408635766,
condition/block_mixed,instruction/instr_mixed,instruction/i10,绿,green,k,square,color_mix,单词,,compatible,1,,,,,,,,0,2,2,2,0,0,0,0,0,28,28,28,,,,,,,,,,,,,,,,,,,,,,,,,,,,,,,,,,,1207.724953100027,1207.9253030000255,1207.9088130000164,1208.2088363000075,1208.2088363000075,None,1208.7096592999878,None,k,1,1.570342699997127,1208.7096592999878,None,None,None,1210.2954584999825,None,,,,,,,,,,,,,,,,,,,,,11037,1,1,2024_Jun_03_2000,stroop_task_switching2,2021.2.3,59.86776408635766,
condition/block_mixed,instruction/instr_mixed,instruction/i10,蓝,blue,f,square,color_mix,单词,,compatible,1,,,,,,,,0,2,2,2,0,0,0,0,0,29,29,29,,,,,,,,,,,,,,,,,,,,,,,,,,,,,,,,,,,1211.2971026999876,1211.497157100006,1211.4805125999846,1211.7818576000282,1211.7818576000282,None,1212.281814099988,None,f,1,1.2463435999816284,1212.281814099988,None,None,None,1213.5503140999936,None,,,,,,,,,,,,,,,,,,,,,11037,1,1,2024_Jun_03_2000,stroop_task_switching2,2021.2.3,59.86776408635766,
condition/block_mixed,instruction/instr_mixed,instruction/i10,黄,yellow,j,diamond,color_mix,颜色,,compatible,2,,,,,,,,0,2,2,2,0,0,0,0,0,30,30,30,,,,,,,,,,,,,,,,,,,,,,,,,,,,,,,,,,,1214.5518770000199,1214.7539756000042,1214.7352274000295,1215.0367471000063,1215.0367471000063,None,1215.5366878000204,None,j,1,0.8394839999964461,1215.5366878000204,None,None,None,1216.4047588999965,None,,,,,,,,,,,,,,,,,,,,,11037,1,1,2024_Jun_03_2000,stroop_task_switching2,2021.2.3,59.86776408635766,
condition/block_mixed,instruction/instr_mixed,instruction/i10,绿,green,k,square,color_mix,单词,,compatible,2,,,,,,,,0,2,2,2,0,0,0,0,0,31,31,31,,,,,,,,,,,,,,,,,,,,,,,,,,,,,,,,,,,1217.406109100033,1217.6065914999926,1217.5924350999994,1217.90776620002,1217.8903240000363,None,1218.3909648000263,None,k,1,0.9297326999949291,1218.3909648000263,None,None,None,1219.3425795999938,None,,,,,,,,,,,,,,,,,,,,,11037,1,1,2024_Jun_03_2000,stroop_task_switching2,2021.2.3,59.86776408635766,
condition/block_mixed,instruction/instr_mixed,instruction/i10,黄,yellow,j,square,color_mix,单词,,compatible,1,,,,,,,,0,2,2,2,0,0,0,0,0,32,32,32,,,,,,,,,,,,,,,,,,,,,,,,,,,,,,,,,,,1220.3440354000195,1220.5448691000347,1220.5276848000358,1220.8284635000164,1220.8284635000164,None,1221.3288838000153,None,j,1,1.1123984000296332,1221.3288838000153,None,None,None,1222.4639033999993,None,,,,,,,,,,,,,,,,,,,,,11037,1,1,2024_Jun_03_2000,stroop_task_switching2,2021.2.3,59.86776408635766,
condition/block_mixed,instruction/instr_mixed,instruction/i10,绿,green,k,diamond,color_mix,颜色,,compatible,2,,,,,,,,0,2,2,2,0,0,0,0,0,33,33,33,,,,,,,,,,,,,,,,,,,,,,,,,,,,,,,,,,,1223.465370799997,1223.6658706000308,1223.6488286000094,1223.9511091000168,1223.9511091000168,None,1224.4498861000175,None,k,1,1.2066041000070982,1224.4498861000175,None,None,None,1225.669149000023,None,,,,,,,,,,,,,,,,,,,,,11037,1,1,2024_Jun_03_2000,stroop_task_switching2,2021.2.3,59.86776408635766,
condition/block_mixed,instruction/instr_mixed,instruction/i10,红,red,d,square,color_mix,单词,,compatible,2,,,,,,,,0,2,2,2,0,0,0,0,0,34,34,34,,,,,,,,,,,,,,,,,,,,,,,,,,,,,,,,,,,1226.670199699991,1226.8722283000243,1226.8535898000118,1227.1553323999979,1227.1553323999979,None,1227.6548889999976,None,d,1,0.7139575999462977,1227.6548889999976,None,None,None,1228.3895058000344,None,,,,,,,,,,,,,,,,,,,,,11037,1,1,2024_Jun_03_2000,stroop_task_switching2,2021.2.3,59.86776408635766,
condition/block_mixed,instruction/instr_mixed,instruction/i10,黄,yellow,j,square,color_mix,单词,,compatible,1,,,,,,,,0,2,2,2,0,0,0,0,0,35,35,35,,,,,,,,,,,,,,,,,,,,,,,,,,,,,,,,,,,1229.390809500008,1229.5920885999803,1229.574546399992,1229.876279500022,1229.876279500022,None,1230.3758343000081,None,j,1,1.8728029999765567,1230.3758343000081,None,None,None,1232.2787016000366,None,,,,,,,,,,,,,,,,,,,,,11037,1,1,2024_Jun_03_2000,stroop_task_switching2,2021.2.3,59.86776408635766,
condition/block_mixed,instruction/instr_mixed,instruction/i10,绿,green,k,diamond,color_mix,颜色,,compatible,2,,,,,,,,0,2,2,2,0,0,0,0,0,36,36,36,,,,,,,,,,,,,,,,,,,,,,,,,,,,,,,,,,,1233.2803119000164,1233.4811541999807,1233.4636313000228,1233.7650859000278,1233.7650859000278,None,1234.2648159000091,None,k,1,0.8319770999951288,1234.2648159000091,None,None,None,1235.1161617999896,None,,,,,,,,,,,,,,,,,,,,,11037,1,1,2024_Jun_03_2000,stroop_task_switching2,2021.2.3,59.86776408635766,
condition/block_mixed,instruction/instr_mixed,instruction/i10,蓝,blue,f,square,color_mix,单词,,compatible,2,,,,,,,,0,2,2,2,0,0,0,0,0,37,37,37,,,,,,,,,,,,,,,,,,,,,,,,,,,,,,,,,,,1236.1177821999881,1236.318822500005,1236.3012883000192,1236.6017725000274,1236.6017725000274,None,1237.1024146000273,None,f,1,0.7225076999748126,1237.1024146000273,None,None,None,1237.853434699995,None,,,,,,,,,,,,,,,,,,,,,11037,1,1,2024_Jun_03_2000,stroop_task_switching2,2021.2.3,59.86776408635766,
condition/block_mixed,instruction/instr_mixed,instruction/i10,红,red,d,square,color_mix,单词,,compatible,1,,,,,,,,0,2,2,2,0,0,0,0,0,38,38,38,,,,,,,,,,,,,,,,,,,,,,,,,,,,,,,,,,,1238.8556097000255,1239.0554698000196,1239.0397238000296,1239.3395441999892,1239.3395441999892,None,1239.8400496999966,None,d,1,1.2568693999783136,1239.8400496999966,None,None,None,1241.1256876999978,None,,,,,,,,,,,,,,,,,,,,,11037,1,1,2024_Jun_03_2000,stroop_task_switching2,2021.2.3,59.86776408635766,
condition/block_mixed,instruction/instr_mixed,instruction/i10,黄,yellow,j,diamond,color_mix,颜色,,compatible,2,,,,,,,,0,2,2,2,0,0,0,0,0,39,39,39,,,,,,,,,,,,,,,,,,,,,,,,,,,,,,,,,,,1242.126720500004,1242.3277312000282,1242.3105724999914,1242.6110470999847,1242.6110470999847,None,1243.112226600002,None,j,1,0.96868849999737,1243.112226600002,None,None,None,1244.0966549000004,None,,,,,,,,,,,,,,,,,,,,,11037,1,1,2024_Jun_03_2000,stroop_task_switching2,2021.2.3,59.86776408635766,
condition/block_mixed,instruction/instr_mixed,instruction/i10,黄,yellow,j,square,color_mix,单词,,compatible,2,,,,,,,,0,2,2,2,0,0,0,0,0,40,40,40,,,,,,,,,,,,,,,,,,,,,,,,,,,,,,,,,,,1245.0979496000218,1245.2990535999998,1245.2816086999956,1245.5822330000228,1245.5822330000228,None,1246.0825217000092,None,j,1,0.8786178999580443,1246.0825217000092,None,None,None,1246.9840736000333,None,,,,,,,,,,,,,,,,,,,,,11037,1,1,2024_Jun_03_2000,stroop_task_switching2,2021.2.3,59.86776408635766,
condition/block_mixed,instruction/instr_mixed,instruction/i10,蓝,blue,f,square,color_mix,单词,,compatible,1,,,,,,,,0,2,2,2,0,0,0,0,0,41,41,41,,,,,,,,,,,,,,,,,,,,,,,,,,,,,,,,,,,1247.985696799995,1248.187947700033,1248.1693522999994,1248.4705921999994,1248.4705921999994,None,1248.9704394,None,f,1,0.8865974000073038,1248.9704394,None,None,None,1249.8888770000194,None,,,,,,,,,,,,,,,,,,,,,11037,1,1,2024_Jun_03_2000,stroop_task_switching2,2021.2.3,59.86776408635766,
condition/block_mixed,instruction/instr_mixed,instruction/i10,蓝,blue,f,diamond,color_mix,颜色,,compatible,2,,,,,,,,0,2,2,2,0,0,0,0,0,42,42,42,,,,,,,,,,,,,,,,,,,,,,,,,,,,,,,,,,,1250.8899609000073,1251.0914280000143,1251.0735730000306,1251.374731799995,1251.374731799995,None,1251.8748094000039,None,f,1,0.6863568000262603,1251.8748094000039,None,None,None,1252.5757731000194,None,,,,,,,,,,,,,,,,,,,,,11037,1,1,2024_Jun_03_2000,stroop_task_switching2,2021.2.3,59.86776408635766,
condition/block_mixed,instruction/instr_mixed,instruction/i10,黄,yellow,j,diamond,color_mix,颜色,,compatible,1,,,,,,,,0,2,2,2,0,0,0,0,0,43,43,43,,,,,,,,,,,,,,,,,,,,,,,,,,,,,,,,,,,1253.5775620000204,1253.778754500032,1253.7610977999866,1254.0614467000123,1254.0614467000123,None,1254.5620131000178,None,j,1,0.7514443000545725,1254.5620131000178,None,None,None,1255.3302507000044,None,,,,,,,,,,,,,,,,,,,,,11037,1,1,2024_Jun_03_2000,stroop_task_switching2,2021.2.3,59.86776408635766,
condition/block_mixed,instruction/instr_mixed,instruction/i10,红,red,d,diamond,color_mix,颜色,,compatible,1,,,,,,,,0,2,2,2,0,0,0,0,0,44,44,44,,,,,,,,,,,,,,,,,,,,,,,,,,,,,,,,,,,1256.3318453999818,1256.532565100002,1256.5152823000099,1256.8154981000116,1256.8154981000116,None,1257.3163102000253,None,d,1,0.6772436999599449,1257.3163102000253,None,None,None,1258.0172588999849,None,,,,,,,,,,,,,,,,,,,,,11037,1,1,2024_Jun_03_2000,stroop_task_switching2,2021.2.3,59.86776408635766,
condition/block_mixed,instruction/instr_mixed,instruction/i10,蓝,blue,f,diamond,color_mix,颜色,,compatible,1,,,,,,,,0,2,2,2,0,0,0,0,0,45,45,45,,,,,,,,,,,,,,,,,,,,,,,,,,,,,,,,,,,1259.018821500009,1259.2191584000248,1259.202913200017,1259.5028639000375,1259.5028639000375,None,1260.0037240000092,None,f,1,0.8301220000139438,1260.0037240000092,None,None,None,1260.8552012,None,,,,,,,,,,,,,,,,,,,,,11037,1,1,2024_Jun_03_2000,stroop_task_switching2,2021.2.3,59.86776408635766,
condition/block_mixed,instruction/instr_mixed,instruction/i10,红,red,d,diamond,color_mix,颜色,,compatible,1,,,,,,,,0,2,2,2,0,0,0,0,0,46,46,46,,,,,,,,,,,,,,,,,,,,,,,,,,,,,,,,,,,1261.8563611999853,1262.0579664999968,1262.040145200037,1262.3414048000122,1262.3414048000122,None,1262.841411500005,None,d,1,0.760174700000789,1262.841411500005,None,None,None,1263.6258056000224,None,,,,,,,,,,,,,,,,,,,,,11037,1,1,2024_Jun_03_2000,stroop_task_switching2,2021.2.3,59.86776408635766,
condition/block_mixed,instruction/instr_mixed,instruction/i10,红,red,d,square,color_mix,单词,,compatible,2,,,,,,,,0,2,2,2,0,0,0,0,0,47,47,47,,,,,,,,,,,,,,,,,,,,,,,,,,,,,,,,,,,1264.6271628999966,1264.8282992999884,1264.8110158999916,1265.111734999984,1265.111734999984,None,1265.6123494000058,None,d,1,0.6611743000103161,1265.6123494000058,None,None,None,1266.2966209999868,None,,,,,,,,,,,,,,,,,,,,,11037,1,1,2024_Jun_03_2000,stroop_task_switching2,2021.2.3,59.86776408635766,
condition/block_mixed,instruction/instr_mixed,instruction/i10,红,red,d,diamond,color_mix,颜色,,compatible,2,,,,,,,,0,2,2,2,0,0,0,0,0,48,48,48,,,,,,,,,,,,,,,,,,,,,,,,,,,,,,,,,,,1267.2981570999837,1267.4985448999796,1267.4838247000007,1267.799691400025,1267.7820097000222,None,1268.2833312000148,None,d,1,0.6064828999806195,1268.2833312000148,None,None,None,1268.917358900013,None,,,,,,,,,,,,,,,,,,,,,11037,1,1,2024_Jun_03_2000,stroop_task_switching2,2021.2.3,59.86776408635766,
condition/block_mixed,instruction/instr_mixed,instruction/i10,,,,,,,,,,,,,,,,,0,2,2,2,0,0,0,0,,,,,,,,,,,,,,,,,,,,,,,,,,,,,,,,,,,,,,,,,,,,,,,,,,,,,,,,1269.9181703000213,None,space,10.935855799994897,1269.9181703000213,None,,,,,,,,,,,,,,,11037,1,1,2024_Jun_03_2000,stroop_task_switching2,2021.2.3,59.86776408635766,
condition/block_mixed,instruction/instr_mixed,instruction/i10,,,,,,,,,,,,,,,,,0,2,2,2,,,,,,,,,,,,,,,,,,,,,,,,,,,,,,,,,,,,,,,,,,,,,,,,,,,,,,,,,,,,,,,,,,,,,,,,,,,,,,,,11037,1,1,2024_Jun_03_2000,stroop_task_switching2,2021.2.3,59.86776408635766,
,,,红,red,d,square,color_mix,单词,,compatible,0,block_switch1,instruction/ready_test.png,instruction/i11.png,,,,,,,,,,,,,,,,,0,0,0,0,0,0,0,0,,,,,,,,,,,,,,,,,,,1302.93498239998,1303.9365513999946,1303.9365513999946,1304.9390357999946,1304.9390357999946,None,1301.9503851000336,1302.9535239000106,1305.9556910999818,1306.1587097999873,1306.1587097999873,1306.4743604999967,1306.4404102999833,None,1306.9416843000217,None,d,1,0.6772660000133328,1306.9416843000217,None,None,None,,,,,,,,,1280.9201226999867,None,space,21.010377799975686,1280.9201226999867,None,,,,,,,,,11037,1,1,2024_Jun_03_2000,stroop_task_switching2,2021.2.3,59.86776408635766,
,,,绿,green,k,diamond,color_mix,颜色,,compatible,2,block_switch1,instruction/ready_test.png,instruction/i11.png,,,,,,,,,,,,,,,,,0,0,0,0,0,1,1,1,,,,,,,,,,,,,,,,,,,,,,,,,,,1307.642345900007,1307.843202900025,1307.8258974000346,1308.1269129000138,1308.1269129000138,None,1308.627095600008,None,k,1,0.7682925999979489,1308.627095600008,None,None,None,,,,,,,,,,,,,,,,,,,,,,,11037,1,1,2024_Jun_03_2000,stroop_task_switching2,2021.2.3,59.86776408635766,
,,,绿,yellow,j,diamond,color_mix,颜色,,incompatible,1,block_switch1,instruction/ready_test.png,instruction/i11.png,,,,,,,,,,,,,,,,,0,0,0,0,0,2,2,2,,,,,,,,,,,,,,,,,,,,,,,,,,,1309.4117264000233,1309.6122247999883,1309.595144800027,1309.8956142999814,1309.8956142999814,None,1310.3964361000108,None,j,1,1.1184066999703646,1310.3964361000108,None,None,None,,,,,,,,,,,,,,,,,,,,,,,11037,1,1,2024_Jun_03_2000,stroop_task_switching2,2021.2.3,59.86776408635766,
,,,蓝,blue,f,diamond,color_mix,颜色,,compatible,1,block_switch1,instruction/ready_test.png,instruction/i11.png,,,,,,,,,,,,,,,,,0,0,0,0,0,3,3,3,,,,,,,,,,,,,,,,,,,,,,,,,,,1311.5318205000367,1311.731738900009,1311.7150581000024,1312.0159157000016,1312.0159157000016,None,1312.5161795000313,None,f,1,0.7026944999815896,1312.5161795000313,None,None,None,,,,,,,,,,,,,,,,,,,,,,,11037,1,1,2024_Jun_03_2000,stroop_task_switching2,2021.2.3,59.86776408635766,
,,,绿,green,k,square,color_mix,单词,,compatible,2,block_switch1,instruction/ready_test.png,instruction/i11.png,,,,,,,,,,,,,,,,,0,0,0,0,0,4,4,4,,,,,,,,,,,,,,,,,,,,,,,,,,,1313.2341271000332,1313.4341796999797,1313.4174421000062,1313.7181193000288,1313.7181193000288,None,1314.2190732000163,None,k,1,0.7436800000141375,1314.2190732000163,None,None,None,,,,,,,,,,,,,,,,,,,,,,,11037,1,1,2024_Jun_03_2000,stroop_task_switching2,2021.2.3,59.86776408635766,
,,,绿,blue,f,diamond,color_mix,颜色,,incompatible,2,block_switch1,instruction/ready_test.png,instruction/i11.png,,,,,,,,,,,,,,,,,0,0,0,0,0,5,5,5,,,,,,,,,,,,,,,,,,,,,,,,,,,1314.9866208999883,1315.1877356999903,1315.1702545000007,1315.470644599991,1315.470644599991,None,1315.97136830003,None,f,1,1.9354881000472233,1315.97136830003,None,None,None,,,,,,,,,,,,,,,,,,,,,,,11037,1,1,2024_Jun_03_2000,stroop_task_switching2,2021.2.3,59.86776408635766,
,,,黄,red,j,square,color_mix,单词,,incompatible,2,block_switch1,instruction/ready_test.png,instruction/i11.png,,,,,,,,,,,,,,,,,0,0,0,0,0,6,6,6,,,,,,,,,,,,,,,,,,,,,,,,,,,1317.9244359000004,1318.1251776000136,1318.1080075000064,1318.409263300011,1318.409263300011,None,1318.9090727000148,None,j,1,1.845871499972418,1318.9090727000148,None,None,None,,,,,,,,,,,,,,,,,,,,,,,11037,1,1,2024_Jun_03_2000,stroop_task_switching2,2021.2.3,59.86776408635766,
,,,绿,green,k,square,color_mix,单词,,compatible,1,block_switch1,instruction/ready_test.png,instruction/i11.png,,,,,,,,,,,,,,,,,0,0,0,0,0,7,7,7,,,,,,,,,,,,,,,,,,,,,,,,,,,1320.778573299991,1320.9802692999947,1320.9623585999943,1321.2638483000337,1321.2638483000337,None,1321.763478900015,None,k,1,1.599705400003586,1321.763478900015,None,None,None,,,,,,,,,,,,,,,,,,,,,,,11037,1,1,2024_Jun_03_2000,stroop_task_switching2,2021.2.3,59.86776408635766,
,,,蓝,blue,f,square,color_mix,单词,,compatible,1,block_switch1,instruction/ready_test.png,instruction/i11.png,,,,,,,,,,,,,,,,,0,0,0,0,0,8,8,8,,,,,,,,,,,,,,,,,,,,,,,,,,,1323.3828038999927,1323.5841489000013,1323.5664681000053,1323.8665817999863,1323.8665817999863,None,1324.3677592999884,None,f,1,1.515530199976638,1324.3677592999884,None,None,None,,,,,,,,,,,,,,,,,,,,,,,11037,1,1,2024_Jun_03_2000,stroop_task_switching2,2021.2.3,59.86776408635766,
,,,红,red,d,diamond,color_mix,颜色,,compatible,2,block_switch1,instruction/ready_test.png,instruction/i11.png,,,,,,,,,,,,,,,,,0,0,0,0,0,9,9,9,,,,,,,,,,,,,,,,,,,,,,,,,,,1325.9030103000114,1326.10349150002,1326.0868202000274,1326.387818599993,1326.387818599993,None,1326.8879199000075,None,d,1,0.6594900999916717,1326.8879199000075,None,None,None,,,,,,,,,,,,,,,,,,,,,,,11037,1,1,2024_Jun_03_2000,stroop_task_switching2,2021.2.3,59.86776408635766,
,,,黄,yellow,j,diamond,color_mix,颜色,,compatible,1,block_switch1,instruction/ready_test.png,instruction/i11.png,,,,,,,,,,,,,,,,,0,0,0,0,0,10,10,10,,,,,,,,,,,,,,,,,,,,,,,,,,,1327.5720796000096,1327.772463900037,1327.7559211000334,1328.0562873000163,1328.0562873000163,None,1328.5572162999888,None,j,1,1.3423770999652334,1328.5572162999888,None,None,None,,,,,,,,,,,,,,,,,,,,,,,11037,1,1,2024_Jun_03_2000,stroop_task_switching2,2021.2.3,59.86776408635766,
,,,绿,green,k,square,color_mix,单词,,compatible,2,block_switch1,instruction/ready_test.png,instruction/i11.png,,,,,,,,,,,,,,,,,0,0,0,0,0,11,11,11,,,,,,,,,,,,,,,,,,,,,,,,,,,1329.925646400021,1330.1265845000162,1330.1094556000317,1330.4115309999906,1330.4115309999906,None,1330.9105769000016,None,k,1,1.5570241999812424,1330.9105769000016,None,None,None,,,,,,,,,,,,,,,,,,,,,,,11037,1,1,2024_Jun_03_2000,stroop_task_switching2,2021.2.3,59.86776408635766,
,,,红,red,d,diamond,color_mix,颜色,,compatible,2,block_switch1,instruction/ready_test.png,instruction/i11.png,,,,,,,,,,,,,,,,,0,0,0,0,0,12,12,12,,,,,,,,,,,,,,,,,,,,,,,,,,,1332.4962731000269,1332.697655200027,1332.679813500028,1332.9804937000154,1332.9804937000154,None,1333.4812893000199,None,d,1,0.6668275000411086,1333.4812893000199,None,None,None,,,,,,,,,,,,,,,,,,,,,,,11037,1,1,2024_Jun_03_2000,stroop_task_switching2,2021.2.3,59.86776408635766,
,,,红,red,d,diamond,color_mix,颜色,,compatible,1,block_switch1,instruction/ready_test.png,instruction/i11.png,,,,,,,,,,,,,,,,,0,0,0,0,0,13,13,13,,,,,,,,,,,,,,,,,,,,,,,,,,,1334.1654744999832,1334.3659878000035,1334.3509928000276,1334.6509400000214,1334.6509400000214,None,1335.1502516000182,None,d,1,0.709262199990917,1335.1502516000182,None,None,None,,,,,,,,,,,,,,,,,,,,,,,11037,1,1,2024_Jun_03_2000,stroop_task_switching2,2021.2.3,59.86776408635766,
,,,黄,yellow,j,square,color_mix,单词,,compatible,2,block_switch1,instruction/ready_test.png,instruction/i11.png,,,,,,,,,,,,,,,,,0,0,0,0,0,14,14,14,,,,,,,,,,,,,,,,,,,,,,,,,,,1335.8847707000095,1336.0856939000078,1336.0684016000014,1336.369998899987,1336.369998899987,None,1336.8696602000273,None,j,1,1.2459973000222817,1336.8696602000273,None,None,None,,,,,,,,,,,,,,,,,,,,,,,11037,1,1,2024_Jun_03_2000,stroop_task_switching2,2021.2.3,59.86776408635766,
,,,红,green,k,diamond,color_mix,颜色,,incompatible,2,block_switch1,instruction/ready_test.png,instruction/i11.png,,,,,,,,,,,,,,,,,0,0,0,0,0,15,15,15,,,,,,,,,,,,,,,,,,,,,,,,,,,1338.1382451999816,1338.3400521000149,1338.3219027000014,1338.622428600036,1338.622428600036,None,1339.123101300036,None,k,1,2.0649360999814235,1339.123101300036,None,None,None,,,,,,,,,,,,,,,,,,,,,,,11037,1,1,2024_Jun_03_2000,stroop_task_switching2,2021.2.3,59.86776408635766,
,,,蓝,red,d,diamond,color_mix,颜色,,incompatible,1,block_switch1,instruction/ready_test.png,instruction/i11.png,,,,,,,,,,,,,,,,,0,0,0,0,0,16,16,16,,,,,,,,,,,,,,,,,,,,,,,,,,,1341.2097985,1341.4103054000298,1341.3930592000252,1341.6944990000338,1341.6944990000338,None,1342.1944379000342,None,f,0,1.9130748999887146,1342.1944379000342,None,None,None,,,,,,,,,,,,,,,,,,,,,,,11037,1,1,2024_Jun_03_2000,stroop_task_switching2,2021.2.3,59.86776408635766,
,,,黄,green,k,diamond,color_mix,颜色,,incompatible,1,block_switch1,instruction/ready_test.png,instruction/i11.png,,,,,,,,,,,,,,,,,0,0,0,0,0,17,17,17,,,,,,,,,,,,,,,,,,,,,,,,,,,1344.1305940999882,1344.3313777000294,1344.3141023000353,1344.6160240999889,1344.6160240999889,None,1345.1154464000138,None,k,1,1.256832800048869,1345.1154464000138,None,None,None,,,,,,,,,,,,,,,,,,,,,,,11037,1,1,2024_Jun_03_2000,stroop_task_switching2,2021.2.3,59.86776408635766,
,,,绿,green,k,diamond,color_mix,颜色,,compatible,1,block_switch1,instruction/ready_test.png,instruction/i11.png,,,,,,,,,,,,,,,,,0,0,0,0,0,18,18,18,,,,,,,,,,,,,,,,,,,,,,,,,,,1346.4008124999818,1346.6019487000303,1346.5843241999974,1346.8846865000087,1346.8846865000087,None,1347.385380599997,None,k,1,0.898512199986726,1347.385380599997,None,None,None,,,,,,,,,,,,,,,,,,,,,,,11037,1,1,2024_Jun_03_2000,stroop_task_switching2,2021.2.3,59.86776408635766,
,,,黄,red,d,diamond,color_mix,颜色,,incompatible,1,block_switch1,instruction/ready_test.png,instruction/i11.png,,,,,,,,,,,,,,,,,0,0,0,0,0,19,19,19,,,,,,,,,,,,,,,,,,,,,,,,,,,1348.3035706999945,1348.504342100001,1348.4870547000319,1348.7891469000024,1348.7891469000024,None,1349.2883451000089,None,d,1,0.7399821999715641,1349.2883451000089,None,None,None,,,,,,,,,,,,,,,,,,,,,,,11037,1,1,2024_Jun_03_2000,stroop_task_switching2,2021.2.3,59.86776408635766,
,,,绿,yellow,k,square,color_mix,单词,,incompatible,2,block_switch1,instruction/ready_test.png,instruction/i11.png,,,,,,,,,,,,,,,,,0,0,0,0,0,20,20,20,,,,,,,,,,,,,,,,,,,,,,,,,,,1350.0563009000034,1350.2564812999917,1350.2401579000289,1350.5402704000007,1350.5402704000007,None,1351.04340580001,None,j,0,2.080954400007613,1351.04340580001,None,None,None,,,,,,,,,,,,,,,,,,,,,,,11037,1,1,2024_Jun_03_2000,stroop_task_switching2,2021.2.3,59.86776408635766,
,,,绿,yellow,j,diamond,color_mix,颜色,,incompatible,2,block_switch1,instruction/ready_test.png,instruction/i11.png,,,,,,,,,,,,,,,,,0,0,0,0,0,21,21,21,,,,,,,,,,,,,,,,,,,,,,,,,,,1353.1442104000016,1353.3452652000124,1353.328041700006,1353.6281278000097,1353.6281278000097,None,1354.1287435999839,None,j,1,1.1397305999998935,1354.1287435999839,None,None,None,,,,,,,,,,,,,,,,,,,,,,,11037,1,1,2024_Jun_03_2000,stroop_task_switching2,2021.2.3,59.86776408635766,
,,,绿,green,k,square,color_mix,单词,,compatible,2,block_switch1,instruction/ready_test.png,instruction/i11.png,,,,,,,,,,,,,,,,,0,0,0,0,0,22,22,22,,,,,,,,,,,,,,,,,,,,,,,,,,,1355.2973987000296,1355.498277100036,1355.4810100999894,1355.7815371000324,1355.7815371000324,None,1356.2827501000138,None,k,1,0.9052972000208683,1356.2827501000138,None,None,None,,,,,,,,,,,,,,,,,,,,,,,11037,1,1,2024_Jun_03_2000,stroop_task_switching2,2021.2.3,59.86776408635766,
,,,红,red,d,square,color_mix,单词,,compatible,1,block_switch1,instruction/ready_test.png,instruction/i11.png,,,,,,,,,,,,,,,,,0,0,0,0,0,23,23,23,,,,,,,,,,,,,,,,,,,,,,,,,,,1357.2169318000088,1357.4179502000334,1357.4005521000363,1357.7009217999876,1357.7009217999876,None,1358.2018861999968,None,d,1,1.394628299982287,1358.2018861999968,None,None,None,,,,,,,,,,,,,,,,,,,,,,,11037,1,1,2024_Jun_03_2000,stroop_task_switching2,2021.2.3,59.86776408635766,
,,,黄,green,j,square,color_mix,单词,,incompatible,1,block_switch1,instruction/ready_test.png,instruction/i11.png,,,,,,,,,,,,,,,,,0,0,0,0,0,24,24,24,,,,,,,,,,,,,,,,,,,,,,,,,,,1359.620664999995,1359.8208601999795,1359.8041179000284,1360.1058177999803,1360.1058177999803,None,1360.6055302000022,None,j,1,1.4386574999662116,1360.6055302000022,None,None,None,,,,,,,,,,,,,,,,,,,,,,,11037,1,1,2024_Jun_03_2000,stroop_task_switching2,2021.2.3,59.86776408635766,
,,,红,blue,d,square,color_mix,单词,,incompatible,1,block_switch1,instruction/ready_test.png,instruction/i11.png,,,,,,,,,,,,,,,,,0,0,0,0,0,25,25,25,,,,,,,,,,,,,,,,,,,,,,,,,,,1362.0743298000307,1362.275636699982,1362.2581769999815,1362.5597202000208,1362.5597202000208,None,1363.0591703000246,None,f,0,0.9051212000194937,1363.0591703000246,None,None,None,,,,,,,,,,,,,,,,,,,,,,,11037,1,1,2024_Jun_03_2000,stroop_task_switching2,2021.2.3,59.86776408635766,
,,,黄,yellow,j,square,color_mix,单词,,compatible,1,block_switch1,instruction/ready_test.png,instruction/i11.png,,,,,,,,,,,,,,,,,0,0,0,0,0,26,26,26,,,,,,,,,,,,,,,,,,,,,,,,,,,1363.9939620000077,1364.1941189999925,1364.1774948000093,1364.4784036999918,1364.4784036999918,None,1364.9785348000005,None,j,1,1.8899221000028774,1364.9785348000005,None,None,None,,,,,,,,,,,,,,,,,,,,,,,11037,1,1,2024_Jun_03_2000,stroop_task_switching2,2021.2.3,59.86776408635766,
,,,蓝,green,f,square,color_mix,单词,,incompatible,1,block_switch1,instruction/ready_test.png,instruction/i11.png,,,,,,,,,,,,,,,,,0,0,0,0,0,27,27,27,,,,,,,,,,,,,,,,,,,,,,,,,,,1366.8982895999798,1367.0985373000149,1367.0832046000287,1367.3996642000275,1367.3837826999952,None,1367.8829980000155,None,k,0,2.0335412999847904,1367.8829980000155,None,None,None,,,,,,,,,,,,,,,,,,,,,,,11037,1,1,2024_Jun_03_2000,stroop_task_switching2,2021.2.3,59.86776408635766,
,,,绿,green,k,diamond,color_mix,颜色,,compatible,2,block_switch1,instruction/ready_test.png,instruction/i11.png,,,,,,,,,,,,,,,,,0,0,0,0,0,28,28,28,,,,,,,,,,,,,,,,,,,,,,,,,,,1369.9360535999876,1370.1381648000097,1370.1196604000288,1370.420569000009,1370.420569000009,None,1370.921039799985,None,k,1,0.8116049999953248,1370.921039799985,None,None,None,,,,,,,,,,,,,,,,,,,,,,,11037,1,1,2024_Jun_03_2000,stroop_task_switching2,2021.2.3,59.86776408635766,
,,,黄,blue,f,diamond,color_mix,颜色,,incompatible,1,block_switch1,instruction/ready_test.png,instruction/i11.png,,,,,,,,,,,,,,,,,0,0,0,0,0,29,29,29,,,,,,,,,,,,,,,,,,,,,,,,,,,1371.7557597000268,1371.9576184999896,1371.939072899986,1372.2406704000314,1372.2406704000314,None,1372.740462900023,None,f,1,1.632103699957952,1372.740462900023,None,None,None,,,,,,,,,,,,,,,,,,,,,,,11037,1,1,2024_Jun_03_2000,stroop_task_switching2,2021.2.3,59.86776408635766,
,,,绿,green,k,diamond,color_mix,颜色,,compatible,1,block_switch1,instruction/ready_test.png,instruction/i11.png,,,,,,,,,,,,,,,,,0,0,0,0,0,30,30,30,,,,,,,,,,,,,,,,,,,,,,,,,,,1374.3930781999952,1374.5933449000004,1374.5769384999876,1374.8777624000213,1374.8777624000213,None,1375.3777851000195,None,k,1,0.770916200010106,1375.3777851000195,None,None,None,,,,,,,,,,,,,,,,,,,,,,,11037,1,1,2024_Jun_03_2000,stroop_task_switching2,2021.2.3,59.86776408635766,
,,,蓝,blue,f,square,color_mix,单词,,compatible,2,block_switch1,instruction/ready_test.png,instruction/i11.png,,,,,,,,,,,,,,,,,0,0,0,0,0,31,31,31,,,,,,,,,,,,,,,,,,,,,,,,,,,1376.1792372000054,1376.3804371000151,1376.3625702999998,1376.6632069000043,1376.6632069000043,None,1377.1637260999996,None,f,1,0.81730019999668,1377.1637260999996,None,None,None,,,,,,,,,,,,,,,,,,,,,,,11037,1,1,2024_Jun_03_2000,stroop_task_switching2,2021.2.3,59.86776408635766,
,,,红,red,d,square,color_mix,单词,,compatible,1,block_switch1,instruction/ready_test.png,instruction/i11.png,,,,,,,,,,,,,,,,,0,0,0,0,0,32,32,32,,,,,,,,,,,,,,,,,,,,,,,,,,,1377.9982784999884,1378.1987388000125,1378.1823080999893,1378.4823164999834,1378.4823164999834,None,1378.9837822000263,None,d,1,0.6049366000224836,1378.9837822000263,None,None,None,,,,,,,,,,,,,,,,,,,,,,,11037,1,1,2024_Jun_03_2000,stroop_task_switching2,2021.2.3,59.86776408635766,
,,,红,green,d,square,color_mix,单词,,incompatible,1,block_switch1,instruction/ready_test.png,instruction/i11.png,,,,,,,,,,,,,,,,,0,0,0,0,0,33,33,33,,,,,,,,,,,,,,,,,,,,,,,,,,,1379.6172606000328,1379.817538800009,1379.801285499998,1380.1022212000098,1380.1022212000098,None,1380.6024999000365,None,k,0,1.1463647999917157,1380.6024999000365,None,None,None,,,,,,,,,,,,,,,,,,,,,,,11037,1,1,2024_Jun_03_2000,stroop_task_switching2,2021.2.3,59.86776408635766,
,,,黄,yellow,j,diamond,color_mix,颜色,,compatible,2,block_switch1,instruction/ready_test.png,instruction/i11.png,,,,,,,,,,,,,,,,,0,0,0,0,0,34,34,34,,,,,,,,,,,,,,,,,,,,,,,,,,,1381.7706654000212,1381.9717902999837,1381.954308299988,1382.2548156999983,1382.2548156999983,None,1382.755425099982,None,j,1,0.809524699987378,1382.755425099982,None,None,None,,,,,,,,,,,,,,,,,,,,,,,11037,1,1,2024_Jun_03_2000,stroop_task_switching2,2021.2.3,59.86776408635766,
,,,红,green,k,diamond,color_mix,颜色,,incompatible,1,block_switch1,instruction/ready_test.png,instruction/i11.png,,,,,,,,,,,,,,,,,0,0,0,0,0,35,35,35,,,,,,,,,,,,,,,,,,,,,,,,,,,1383.5904134000302,1383.7904866000172,1383.773721000005,1384.07424669998,1384.07424669998,None,1384.5746747000376,None,k,1,0.9102111000102013,1384.5746747000376,None,None,None,,,,,,,,,,,,,,,,,,,,,,,11037,1,1,2024_Jun_03_2000,stroop_task_switching2,2021.2.3,59.86776408635766,
,,,黄,yellow,j,square,color_mix,单词,,compatible,2,block_switch1,instruction/ready_test.png,instruction/i11.png,,,,,,,,,,,,,,,,,0,0,0,0,0,36,36,36,,,,,,,,,,,,,,,,,,,,,,,,,,,1385.5094665000215,1385.7112865999807,1385.6936336000217,1385.9946842000354,1385.9946842000354,None,1386.4944275000016,None,j,1,1.6945766999851912,1386.4944275000016,None,None,None,,,,,,,,,,,,,,,,,,,,,,,11037,1,1,2024_Jun_03_2000,stroop_task_switching2,2021.2.3,59.86776408635766,
,,,蓝,blue,f,square,color_mix,单词,,compatible,1,block_switch1,instruction/ready_test.png,instruction/i11.png,,,,,,,,,,,,,,,,,0,0,0,0,0,37,37,37,,,,,,,,,,,,,,,,,,,,,,,,,,,1388.2139204000123,1388.4148668000125,1388.3974257999798,1388.699697300035,1388.699697300035,None,1389.1986088000122,None,f,1,0.6707606999552809,1389.1986088000122,None,None,None,,,,,,,,,,,,,,,,,,,,,,,11037,1,1,2024_Jun_03_2000,stroop_task_switching2,2021.2.3,59.86776408635766,
,,,绿,red,d,diamond,color_mix,颜色,,incompatible,2,block_switch1,instruction/ready_test.png,instruction/i11.png,,,,,,,,,,,,,,,,,0,0,0,0,0,38,38,38,,,,,,,,,,,,,,,,,,,,,,,,,,,1389.8994947000174,1390.1006553000188,1390.0830056000268,1390.3844552999944,1390.3844552999944,None,1390.884359800024,None,d,1,1.6811977000324987,1390.884359800024,None,None,None,,,,,,,,,,,,,,,,,,,,,,,11037,1,1,2024_Jun_03_2000,stroop_task_switching2,2021.2.3,59.86776408635766,
,,,黄,yellow,j,diamond,color_mix,颜色,,compatible,1,block_switch1,instruction/ready_test.png,instruction/i11.png,,,,,,,,,,,,,,,,,0,0,0,0,0,39,39,39,,,,,,,,,,,,,,,,,,,,,,,,,,,1392.587021799991,1392.7888915000367,1392.770651800034,1393.0713821999962,1393.0713821999962,None,1393.571781800012,None,j,1,0.7292974999872968,1393.571781800012,None,None,None,,,,,,,,,,,,,,,,,,,,,,,11037,1,1,2024_Jun_03_2000,stroop_task_switching2,2021.2.3,59.86776408635766,
,,,红,blue,f,diamond,color_mix,颜色,,incompatible,1,block_switch1,instruction/ready_test.png,instruction/i11.png,,,,,,,,,,,,,,,,,0,0,0,0,0,40,40,40,,,,,,,,,,,,,,,,,,,,,,,,,,,1394.3227635000367,1394.5231107000145,1394.5080392999807,1394.8077408000245,1394.8077408000245,None,1395.3077749999939,None,f,1,0.8253588000079617,1395.3077749999939,None,None,None,,,,,,,,,,,,,,,,,,,,,,,11037,1,1,2024_Jun_03_2000,stroop_task_switching2,2021.2.3,59.86776408635766,
,,,绿,blue,k,square,color_mix,单词,,incompatible,2,block_switch1,instruction/ready_test.png,instruction/i11.png,,,,,,,,,,,,,,,,,0,0,0,0,0,41,41,41,,,,,,,,,,,,,,,,,,,,,,,,,,,1396.1589243999915,1396.3606416999828,1396.3427487000008,1396.6430528000346,1396.6430528000346,None,1397.1439775000326,None,k,1,0.9337029000162147,1397.1439775000326,None,None,None,,,,,,,,,,,,,,,,,,,,,,,11037,1,1,2024_Jun_03_2000,stroop_task_switching2,2021.2.3,59.86776408635766,
,,,蓝,blue,f,diamond,color_mix,颜色,,compatible,2,block_switch1,instruction/ready_test.png,instruction/i11.png,,,,,,,,,,,,,,,,,0,0,0,0,0,42,42,42,,,,,,,,,,,,,,,,,,,,,,,,,,,1398.0953334000078,1398.2964605999878,1398.2789656000095,1398.5802734000026,1398.5802734000026,None,1399.0799297000049,None,f,1,1.1412364999996498,1399.0799297000049,None,None,None,,,,,,,,,,,,,,,,,,,,,,,11037,1,1,2024_Jun_03_2000,stroop_task_switching2,2021.2.3,59.86776408635766,
,,,红,blue,d,square,color_mix,单词,,incompatible,2,block_switch1,instruction/ready_test.png,instruction/i11.png,,,,,,,,,,,,,,,,,0,0,0,0,0,43,43,43,,,,,,,,,,,,,,,,,,,,,,,,,,,1400.248646299995,1400.4488370000036,1400.4333682000288,1400.7323722,1400.7323722,None,1401.2334053000086,None,d,1,1.8599453999777324,1401.2334053000086,None,None,None,,,,,,,,,,,,,,,,,,,,,,,11037,1,1,2024_Jun_03_2000,stroop_task_switching2,2021.2.3,59.86776408635766,
,,,蓝,green,k,diamond,color_mix,颜色,,incompatible,2,block_switch1,instruction/ready_test.png,instruction/i11.png,,,,,,,,,,,,,,,,,0,0,0,0,0,44,44,44,,,,,,,,,,,,,,,,,,,,,,,,,,,1403.1194274000009,1403.3197801000206,1403.3049599999795,1403.6036269000033,1403.6036269000033,None,1404.1042563000228,None,k,1,0.9892655000439845,1404.1042563000228,None,None,None,,,,,,,,,,,,,,,,,,,,,,,11037,1,1,2024_Jun_03_2000,stroop_task_switching2,2021.2.3,59.86776408635766,
,,,黄,yellow,j,square,color_mix,单词,,compatible,2,block_switch1,instruction/ready_test.png,instruction/i11.png,,,,,,,,,,,,,,,,,0,0,0,0,0,45,45,45,,,,,,,,,,,,,,,,,,,,,,,,,,,1405.1224988999893,1405.3231573000085,1405.3060894000228,1405.6065575000248,1405.6065575000248,None,1406.1075752000324,None,j,1,1.0017832999583334,1406.1075752000324,None,None,None,,,,,,,,,,,,,,,,,,,,,,,11037,1,1,2024_Jun_03_2000,stroop_task_switching2,2021.2.3,59.86776408635766,
,,,黄,yellow,j,diamond,color_mix,颜色,,compatible,2,block_switch1,instruction/ready_test.png,instruction/i11.png,,,,,,,,,,,,,,,,,0,0,0,0,0,46,46,46,,,,,,,,,,,,,,,,,,,,,,,,,,,1407.1256488999934,1407.3263015000266,1407.3090637000278,1407.6096529000206,1407.6096529000206,None,1408.1103253000183,None,j,1,0.9431959999492392,1408.1103253000183,None,None,None,,,,,,,,,,,,,,,,,,,,,,,11037,1,1,2024_Jun_03_2000,stroop_task_switching2,2021.2.3,59.86776408635766,
,,,绿,red,k,square,color_mix,单词,,incompatible,2,block_switch1,instruction/ready_test.png,instruction/i11.png,,,,,,,,,,,,,,,,,0,0,0,0,0,47,47,47,,,,,,,,,,,,,,,,,,,,,,,,,,,1409.0788361000014,1409.279637300002,1409.2621582000284,1409.5625387000036,1409.5625387000036,None,1410.0636732000276,None,k,1,1.5819824000354856,1410.0636732000276,None,None,None,,,,,,,,,,,,,,,,,,,,,,,11037,1,1,2024_Jun_03_2000,stroop_task_switching2,2021.2.3,59.86776408635766,
,,,红,red,d,diamond,color_mix,颜色,,compatible,2,block_switch1,instruction/ready_test.png,instruction/i11.png,,,,,,,,,,,,,,,,,0,0,0,0,0,48,48,48,,,,,,,,,,,,,,,,,,,,,,,,,,,1411.665761500015,1411.867153600033,1411.8494036000338,1412.1517511000275,1412.1517511000275,None,1412.6672401999822,None,d,1,1.378502999956254,1412.6672401999822,None,None,None,,,,,,,,,,,,,,,,,,,,,,,11037,1,1,2024_Jun_03_2000,stroop_task_switching2,2021.2.3,59.86776408635766,
,,,蓝,blue,f,diamond,color_mix,颜色,,compatible,1,block_switch1,instruction/ready_test.png,instruction/i11.png,,,,,,,,,,,,,,,,,0,0,0,0,0,49,49,49,,,,,,,,,,,,,,,,,,,,,,,,,,,1414.069379099994,1414.2700489999843,1414.253092500032,1414.553484300035,1414.553484300035,None,1415.0543846000219,None,f,1,0.703512399981264,1415.0543846000219,None,None,None,,,,,,,,,,,,,,,,,,,,,,,11037,1,1,2024_Jun_03_2000,stroop_task_switching2,2021.2.3,59.86776408635766,
,,,黄,yellow,j,diamond,color_mix,颜色,,compatible,1,block_switch1,instruction/ready_test.png,instruction/i11.png,,,,,,,,,,,,,,,,,0,0,0,0,0,50,50,50,,,,,,,,,,,,,,,,,,,,,,,,,,,1415.7884889999987,1415.9888429000275,1415.973006299988,1416.272765600006,1416.272765600006,None,1416.7735027000308,None,j,1,0.7201181999989785,1416.7735027000308,None,None,None,,,,,,,,,,,,,,,,,,,,,,,11037,1,1,2024_Jun_03_2000,stroop_task_switching2,2021.2.3,59.86776408635766,
,,,红,blue,f,diamond,color_mix,颜色,,incompatible,1,block_switch1,instruction/ready_test.png,instruction/i11.png,,,,,,,,,,,,,,,,,0,0,0,0,0,51,51,51,,,,,,,,,,,,,,,,,,,,,,,,,,,1417.5245577000314,1417.7254813000327,1417.7083139999886,1418.0088268999825,1418.0088268999825,None,1418.5106477999943,None,f,1,2.015213800012134,1418.5106477999943,None,None,None,,,,,,,,,,,,,,,,,,,,,,,11037,1,1,2024_Jun_03_2000,stroop_task_switching2,2021.2.3,59.86776408635766,
,,,蓝,yellow,j,diamond,color_mix,颜色,,incompatible,1,block_switch1,instruction/ready_test.png,instruction/i11.png,,,,,,,,,,,,,,,,,0,0,0,0,0,52,52,52,,,,,,,,,,,,,,,,,,,,,,,,,,,1420.5457354999962,1420.7472518000286,1420.7294242000207,1421.0298907000106,1421.0298907000106,None,1421.530646900006,None,j,1,1.0352634000009857,1421.530646900006,None,None,None,,,,,,,,,,,,,,,,,,,,,,,11037,1,1,2024_Jun_03_2000,stroop_task_switching2,2021.2.3,59.86776408635766,
,,,黄,blue,j,square,color_mix,单词,,incompatible,2,block_switch1,instruction/ready_test.png,instruction/i11.png,,,,,,,,,,,,,,,,,0,0,0,0,0,53,53,53,,,,,,,,,,,,,,,,,,,,,,,,,,,1422.5824784000288,1422.7829541999963,1422.7658297999878,1423.0666160000255,1423.0666160000255,None,1423.5670988000347,None,j,1,1.8630870999768376,1423.5670988000347,None,None,None,,,,,,,,,,,,,,,,,,,,,,,11037,1,1,2024_Jun_03_2000,stroop_task_switching2,2021.2.3,59.86776408635766,
,,,蓝,blue,f,diamond,color_mix,颜色,,compatible,2,block_switch1,instruction/ready_test.png,instruction/i11.png,,,,,,,,,,,,,,,,,0,0,0,0,0,54,54,54,,,,,,,,,,,,,,,,,,,,,,,,,,,1425.4533544000005,1425.6543215999845,1425.6368922999827,1425.9379969000001,1425.9379969000001,None,1426.4378251000308,None,f,1,2.07225239998661,1426.4378251000308,None,None,None,,,,,,,,,,,,,,,,,,,,,,,11037,1,1,2024_Jun_03_2000,stroop_task_switching2,2021.2.3,59.86776408635766,
,,,红,yellow,d,square,color_mix,单词,,incompatible,2,block_switch1,instruction/ready_test.png,instruction/i11.png,,,,,,,,,,,,,,,,,0,0,0,0,0,55,55,55,,,,,,,,,,,,,,,,,,,,,,,,,,,1428.54119920003,1428.7416952000349,1428.7248623000341,1429.0261106999824,1429.0261106999824,None,1429.5258783000172,None,d,1,2.8482207999913953,1429.5258783000172,None,None,None,,,,,,,,,,,,,,,,,,,,,,,11037,1,1,2024_Jun_03_2000,stroop_task_switching2,2021.2.3,59.86776408635766,
,,,蓝,red,f,square,color_mix,单词,,incompatible,1,block_switch1,instruction/ready_test.png,instruction/i11.png,,,,,,,,,,,,,,,,,0,0,0,0,0,56,56,56,,,,,,,,,,,,,,,,,,,,,,,,,,,1432.3970575000276,1432.5981715000235,1432.5805347000132,1432.8831359000178,1432.8831359000178,None,1433.381834300002,None,f,1,1.6487087999703363,1433.381834300002,None,None,None,,,,,,,,,,,,,,,,,,,,,,,11037,1,1,2024_Jun_03_2000,stroop_task_switching2,2021.2.3,59.86776408635766,
,,,蓝,blue,f,square,color_mix,单词,,compatible,1,block_switch1,instruction/ready_test.png,instruction/i11.png,,,,,,,,,,,,,,,,,0,0,0,0,0,57,57,57,,,,,,,,,,,,,,,,,,,,,,,,,,,1435.050767000008,1435.2519380000303,1435.23471530003,1435.535825500032,1435.535825500032,None,1436.0358818999957,None,f,1,0.9866267999750562,1436.0358818999957,None,None,None,,,,,,,,,,,,,,,,,,,,,,,11037,1,1,2024_Jun_03_2000,stroop_task_switching2,2021.2.3,59.86776408635766,
,,,蓝,red,d,diamond,color_mix,颜色,,incompatible,2,block_switch1,instruction/ready_test.png,instruction/i11.png,,,,,,,,,,,,,,,,,0,0,0,0,0,58,58,58,,,,,,,,,,,,,,,,,,,,,,,,,,,1437.0539897999843,1437.2542946999893,1437.2387820000295,1437.538478600036,1437.538478600036,None,1438.0387422000058,None,d,1,0.6874632999533787,1438.0387422000058,None,None,None,,,,,,,,,,,,,,,,,,,,,,,11037,1,1,2024_Jun_03_2000,stroop_task_switching2,2021.2.3,59.86776408635766,
,,,绿,green,k,diamond,color_mix,颜色,,compatible,1,block_switch1,instruction/ready_test.png,instruction/i11.png,,,,,,,,,,,,,,,,,0,0,0,0,0,59,59,59,,,,,,,,,,,,,,,,,,,,,,,,,,,1438.756634499994,1438.9578508000122,1438.940151799994,1439.2406570999883,1439.2406570999883,None,1439.7414636000176,None,k,1,0.7209994000149891,1439.7414636000176,None,None,None,,,,,,,,,,,,,,,,,,,,,,,11037,1,1,2024_Jun_03_2000,stroop_task_switching2,2021.2.3,59.86776408635766,
,,,蓝,blue,f,diamond,color_mix,颜色,,compatible,1,block_switch1,instruction/ready_test.png,instruction/i11.png,,,,,,,,,,,,,,,,,0,0,0,0,0,60,60,60,,,,,,,,,,,,,,,,,,,,,,,,,,,1440.4925482000108,1440.6940900000045,1440.6764915999956,1440.9777009999962,1440.9777009999962,None,1441.4772604000173,None,f,1,0.7774059000075795,1441.4772604000173,None,None,None,,,,,,,,,,,,,,,,,,,,,,,11037,1,1,2024_Jun_03_2000,stroop_task_switching2,2021.2.3,59.86776408635766,
,,,黄,yellow,j,square,color_mix,单词,,compatible,2,block_switch1,instruction/ready_test.png,instruction/i11.png,,,,,,,,,,,,,,,,,0,0,0,0,0,61,61,61,,,,,,,,,,,,,,,,,,,,,,,,,,,1442.2786259999848,1442.4811980000231,1442.462223200011,1442.763846100017,1442.763846100017,None,1443.264826800034,None,j,1,2.3097548999940045,1443.264826800034,None,None,None,,,,,,,,,,,,,,,,,,,,,,,11037,1,1,2024_Jun_03_2000,stroop_task_switching2,2021.2.3,59.86776408635766,
,,,绿,blue,k,square,color_mix,单词,,incompatible,1,block_switch1,instruction/ready_test.png,instruction/i11.png,,,,,,,,,,,,,,,,,0,0,0,0,0,62,62,62,,,,,,,,,,,,,,,,,,,,,,,,,,,1445.6003181000124,1445.8006308000186,1445.7838624999858,1446.0845983999898,1446.0845983999898,None,1446.5852414999972,None,k,1,1.0531999999657273,1446.5852414999972,None,None,None,,,,,,,,,,,,,,,,,,,,,,,11037,1,1,2024_Jun_03_2000,stroop_task_switching2,2021.2.3,59.86776408635766,
,,,蓝,yellow,f,square,color_mix,单词,,incompatible,1,block_switch1,instruction/ready_test.png,instruction/i11.png,,,,,,,,,,,,,,,,,0,0,0,0,0,63,63,63,,,,,,,,,,,,,,,,,,,,,,,,,,,1447.6533315000124,1447.8544742999948,1447.8370001000003,1448.137937600026,1448.137937600026,None,1448.6380829000263,None,f,1,0.9525453000096604,1448.6380829000263,None,None,None,,,,,,,,,,,,,,,,,,,,,,,11037,1,1,2024_Jun_03_2000,stroop_task_switching2,2021.2.3,59.86776408635766,
,,,黄,yellow,j,diamond,color_mix,颜色,,compatible,2,block_switch1,instruction/ready_test.png,instruction/i11.png,,,,,,,,,,,,,,,,,0,0,0,0,0,64,64,64,,,,,,,,,,,,,,,,,,,,,,,,,,,1449.6067335000262,1449.807302000001,1449.7898357000086,1450.0901465000352,1450.0901465000352,None,1450.5912004000274,None,j,1,0.7272481000400148,1450.5912004000274,None,None,None,,,,,,,,,,,,,,,,,,,,,,,11037,1,1,2024_Jun_03_2000,stroop_task_switching2,2021.2.3,59.86776408635766,
,,,蓝,green,k,diamond,color_mix,颜色,,incompatible,1,block_switch1,instruction/ready_test.png,instruction/i11.png,,,,,,,,,,,,,,,,,0,0,0,0,0,65,65,65,,,,,,,,,,,,,,,,,,,,,,,,,,,1451.342078900023,1451.5439262000145,1451.5256484000129,1451.826819400012,1451.826819400012,None,1452.3270431000274,None,k,1,0.8799124000361189,1452.3270431000274,None,None,None,,,,,,,,,,,,,,,,,,,,,,,11037,1,1,2024_Jun_03_2000,stroop_task_switching2,2021.2.3,59.86776408635766,
,,,红,red,d,diamond,color_mix,颜色,,compatible,1,block_switch1,instruction/ready_test.png,instruction/i11.png,,,,,,,,,,,,,,,,,0,0,0,0,0,66,66,66,,,,,,,,,,,,,,,,,,,,,,,,,,,1453.2285872999928,1453.428756600013,1453.41392120003,1453.7289813000243,1453.7135379000101,None,1454.2133653000346,None,d,1,0.6732588000013493,1454.2133653000346,None,None,None,,,,,,,,,,,,,,,,,,,,,,,11037,1,1,2024_Jun_03_2000,stroop_task_switching2,2021.2.3,59.86776408635766,
,,,蓝,yellow,f,square,color_mix,单词,,incompatible,2,block_switch1,instruction/ready_test.png,instruction/i11.png,,,,,,,,,,,,,,,,,0,0,0,0,0,67,67,67,,,,,,,,,,,,,,,,,,,,,,,,,,,1454.914310400025,1455.1149908999796,1455.0979453999898,1455.3982579000294,1455.3982579000294,None,1455.8995740999817,None,f,1,0.8031503999955021,1455.8995740999817,None,None,None,,,,,,,,,,,,,,,,,,,,,,,11037,1,1,2024_Jun_03_2000,stroop_task_switching2,2021.2.3,59.86776408635766,
,,,红,yellow,d,square,color_mix,单词,,incompatible,1,block_switch1,instruction/ready_test.png,instruction/i11.png,,,,,,,,,,,,,,,,,0,0,0,0,0,68,68,68,,,,,,,,,,,,,,,,,,,,,,,,,,,1456.733802200004,1456.9339721000288,1456.9181788000278,1457.2188260999974,1457.2188260999974,None,1457.7185861000326,None,d,1,0.6883162999874912,1457.7185861000326,None,None,None,,,,,,,,,,,,,,,,,,,,,,,11037,1,1,2024_Jun_03_2000,stroop_task_switching2,2021.2.3,59.86776408635766,
,,,红,yellow,j,diamond,color_mix,颜色,,incompatible,2,block_switch1,instruction/ready_test.png,instruction/i11.png,,,,,,,,,,,,,,,,,0,0,0,0,0,69,69,69,,,,,,,,,,,,,,,,,,,,,,,,,,,1458.4362928000046,1458.6370162999956,1458.6207213000162,1458.9202356000314,1458.9202356000314,None,1459.4210074000293,None,j,1,1.5858991999994032,1459.4210074000293,None,None,None,,,,,,,,,,,,,,,,,,,,,,,11037,1,1,2024_Jun_03_2000,stroop_task_switching2,2021.2.3,59.86776408635766,
,,,蓝,green,f,square,color_mix,单词,,incompatible,2,block_switch1,instruction/ready_test.png,instruction/i11.png,,,,,,,,,,,,,,,,,0,0,0,0,0,70,70,70,,,,,,,,,,,,,,,,,,,,,,,,,,,1461.023550599988,1461.2245123999892,1461.2072477000183,1461.5075510999886,1461.5075510999886,None,1462.0085074999952,None,f,1,1.574888099974487,1462.0085074999952,None,None,None,,,,,,,,,,,,,,,,,,,,,,,11037,1,1,2024_Jun_03_2000,stroop_task_switching2,2021.2.3,59.86776408635766,
,,,绿,yellow,k,square,color_mix,单词,,incompatible,1,block_switch1,instruction/ready_test.png,instruction/i11.png,,,,,,,,,,,,,,,,,0,0,0,0,0,71,71,71,,,,,,,,,,,,,,,,,,,,,,,,,,,1463.6108005000278,1463.8110160999931,1463.7967456000042,1464.0951158999815,1464.0951158999815,None,1464.595461799996,None,k,1,0.9316087000188418,1464.595461799996,None,None,None,,,,,,,,,,,,,,,,,,,,,,,11037,1,1,2024_Jun_03_2000,stroop_task_switching2,2021.2.3,59.86776408635766,
,,,蓝,yellow,j,diamond,color_mix,颜色,,incompatible,2,block_switch1,instruction/ready_test.png,instruction/i11.png,,,,,,,,,,,,,,,,,0,0,0,0,0,72,72,72,,,,,,,,,,,,,,,,,,,,,,,,,,,1465.5469215000048,1465.7495512000169,1465.7307528000092,1466.0308527000016,1466.0308527000016,None,1466.5318693000008,None,j,1,2.2192599999834783,1466.5318693000008,None,None,None,,,,,,,,,,,,,,,,,,,,,,,11037,1,1,2024_Jun_03_2000,stroop_task_switching2,2021.2.3,59.86776408635766,
,,,红,green,d,square,color_mix,单词,,incompatible,2,block_switch1,instruction/ready_test.png,instruction/i11.png,,,,,,,,,,,,,,,,,0,0,0,0,0,73,73,73,,,,,,,,,,,,,,,,,,,,,,,,,,,1468.768419500033,1468.969341500022,1468.9519485000055,1469.2549018000136,1469.2549018000136,None,1469.7700277999975,None,d,1,0.9412929000100121,1469.7700277999975,None,None,None,,,,,,,,,,,,,,,,,,,,,,,11037,1,1,2024_Jun_03_2000,stroop_task_switching2,2021.2.3,59.86776408635766,
,,,绿,blue,f,diamond,color_mix,颜色,,incompatible,2,block_switch1,instruction/ready_test.png,instruction/i11.png,,,,,,,,,,,,,,,,,0,0,0,0,0,74,74,74,,,,,,,,,,,,,,,,,,,,,,,,,,,1470.7381601000088,1470.939146300021,1470.9218558000284,1471.2221677000052,1471.2221677000052,None,1471.7228854999994,None,f,1,1.1166438999935053,1471.7228854999994,None,None,None,,,,,,,,,,,,,,,,,,,,,,,11037,1,1,2024_Jun_03_2000,stroop_task_switching2,2021.2.3,59.86776408635766,
,,,红,red,d,square,color_mix,单词,,compatible,2,block_switch1,instruction/ready_test.png,instruction/i11.png,,,,,,,,,,,,,,,,,0,0,0,0,0,75,75,75,,,,,,,,,,,,,,,,,,,,,,,,,,,1472.857976600004,1473.060383700009,1473.0418380000046,1473.3424499999965,1473.3424499999965,None,1473.8429430000251,None,d,1,1.100997900008224,1473.8429430000251,None,None,None,,,,,,,,,,,,,,,,,,,,,,,11037,1,1,2024_Jun_03_2000,stroop_task_switching2,2021.2.3,59.86776408635766,
,,,绿,green,k,diamond,color_mix,颜色,,compatible,2,block_switch1,instruction/ready_test.png,instruction/i11.png,,,,,,,,,,,,,,,,,0,0,0,0,0,76,76,76,,,,,,,,,,,,,,,,,,,,,,,,,,,1474.9616302000359,1475.162046100013,1475.1448732999852,1475.445301800035,1475.445301800035,None,1475.945895300014,None,k,1,1.221291299967561,1475.945895300014,None,None,None,,,,,,,,,,,,,,,,,,,,,,,11037,1,1,2024_Jun_03_2000,stroop_task_switching2,2021.2.3,59.86776408635766,
,,,黄,red,j,square,color_mix,单词,,incompatible,2,block_switch1,instruction/ready_test.png,instruction/i11.png,,,,,,,,,,,,,,,,,0,0,0,0,0,77,77,77,,,,,,,,,,,,,,,,,,,,,,,,,,,1477.1978101999848,1477.3991212000255,1477.381854999985,1477.6841911000083,1477.6841911000083,None,1478.1827707000193,None,j,1,1.6008920000167564,1478.1827707000193,None,None,None,,,,,,,,,,,,,,,,,,,,,,,11037,1,1,2024_Jun_03_2000,stroop_task_switching2,2021.2.3,59.86776408635766,
,,,红,red,d,square,color_mix,单词,,compatible,1,block_switch1,instruction/ready_test.png,instruction/i11.png,,,,,,,,,,,,,,,,,0,0,0,0,0,78,78,78,,,,,,,,,,,,,,,,,,,,,,,,,,,1479.801908500027,1480.0039925000165,1479.985432400019,1480.2858471000218,1480.2858471000218,None,1480.7866836999892,None,d,1,0.701484699966386,1480.7866836999892,None,None,None,,,,,,,,,,,,,,,,,,,,,,,11037,1,1,2024_Jun_03_2000,stroop_task_switching2,2021.2.3,59.86776408635766,
,,,黄,yellow,j,square,color_mix,单词,,compatible,1,block_switch1,instruction/ready_test.png,instruction/i11.png,,,,,,,,,,,,,,,,,0,0,0,0,0,79,79,79,,,,,,,,,,,,,,,,,,,,,,,,,,,1481.5045138000278,1481.7050610000151,1481.6880970000057,1481.9887245999998,1481.9887245999998,None,1482.4893852000241,None,j,1,1.7024034000351094,1482.4893852000241,None,None,None,,,,,,,,,,,,,,,,,,,,,,,11037,1,1,2024_Jun_03_2000,stroop_task_switching2,2021.2.3,59.86776408635766,
,,,红,red,d,diamond,color_mix,颜色,,compatible,2,block_switch1,instruction/ready_test.png,instruction/i11.png,,,,,,,,,,,,,,,,,0,0,0,0,0,80,80,80,,,,,,,,,,,,,,,,,,,,,,,,,,,1484.2084600999951,1484.410580100026,1484.3921707000118,1484.6931780999876,1484.6931780999876,None,1485.1932888000156,None,d,1,0.6624462000327185,1485.1932888000156,None,None,None,,,,,,,,,,,,,,,,,,,,,,,11037,1,1,2024_Jun_03_2000,stroop_task_switching2,2021.2.3,59.86776408635766,
,,,红,red,d,square,color_mix,单词,,compatible,2,block_switch1,instruction/ready_test.png,instruction/i11.png,,,,,,,,,,,,,,,,,0,0,0,0,0,81,81,81,,,,,,,,,,,,,,,,,,,,,,,,,,,1485.8775910999975,1486.079307499982,1486.0613931000116,1486.3616215999937,1486.3616215999937,None,1486.8624691999867,None,d,1,0.785263900004793,1486.8624691999867,None,None,None,,,,,,,,,,,,,,,,,,,,,,,11037,1,1,2024_Jun_03_2000,stroop_task_switching2,2021.2.3,59.86776408635766,
,,,黄,blue,f,diamond,color_mix,颜色,,incompatible,2,block_switch1,instruction/ready_test.png,instruction/i11.png,,,,,,,,,,,,,,,,,0,0,0,0,0,82,82,82,,,,,,,,,,,,,,,,,,,,,,,,,,,1487.6635644999915,1487.8638643000158,1487.8472771000233,1488.1487733999966,1488.1487733999966,None,1488.6484149000025,None,f,1,0.8872530999942683,1488.6484149000025,None,None,None,,,,,,,,,,,,,,,,,,,,,,,11037,1,1,2024_Jun_03_2000,stroop_task_switching2,2021.2.3,59.86776408635766,
,,,红,yellow,j,diamond,color_mix,颜色,,incompatible,1,block_switch1,instruction/ready_test.png,instruction/i11.png,,,,,,,,,,,,,,,,,0,0,0,0,0,83,83,83,,,,,,,,,,,,,,,,,,,,,,,,,,,1489.5665307000163,1489.76888280001,1489.7501694000093,1490.0513154999935,1490.0513154999935,None,1490.5514248000109,None,j,1,0.9201727000181563,1490.5514248000109,None,None,None,,,,,,,,,,,,,,,,,,,,,,,11037,1,1,2024_Jun_03_2000,stroop_task_switching2,2021.2.3,59.86776408635766,
,,,黄,red,d,diamond,color_mix,颜色,,incompatible,1,block_switch1,instruction/ready_test.png,instruction/i11.png,,,,,,,,,,,,,,,,,0,0,0,0,0,84,84,84,,,,,,,,,,,,,,,,,,,,,,,,,,,1491.5028276999947,1491.7043922999874,1491.686282199982,1491.9867315000156,1491.9867315000156,None,1492.4876449999865,None,d,1,0.6968662000144832,1492.4876449999865,None,None,None,,,,,,,,,,,,,,,,,,,,,,,11037,1,1,2024_Jun_03_2000,stroop_task_switching2,2021.2.3,59.86776408635766,
,,,蓝,blue,f,square,color_mix,单词,,compatible,2,block_switch1,instruction/ready_test.png,instruction/i11.png,,,,,,,,,,,,,,,,,0,0,0,0,0,85,85,85,,,,,,,,,,,,,,,,,,,,,,,,,,,1493.2054514000192,1493.4070260000299,1493.3891201000079,1493.6906173999887,1493.6906173999887,None,1494.1901734999847,None,f,1,0.6897475000005215,1494.1901734999847,None,None,None,,,,,,,,,,,,,,,,,,,,,,,11037,1,1,2024_Jun_03_2000,stroop_task_switching2,2021.2.3,59.86776408635766,
,,,绿,green,k,square,color_mix,单词,,compatible,1,block_switch1,instruction/ready_test.png,instruction/i11.png,,,,,,,,,,,,,,,,,0,0,0,0,0,86,86,86,,,,,,,,,,,,,,,,,,,,,,,,,,,1494.9079649000196,1495.1104501999798,1495.0918012000038,1495.3938419999904,1495.3938419999904,None,1495.892825899995,None,k,1,2.499038100009784,1495.892825899995,None,None,None,,,,,,,,,,,,,,,,,,,,,,,11037,1,1,2024_Jun_03_2000,stroop_task_switching2,2021.2.3,59.86776408635766,
,,,红,red,d,square,color_mix,单词,,compatible,1,block_switch1,instruction/ready_test.png,instruction/i11.png,,,,,,,,,,,,,,,,,0,0,0,0,0,87,87,87,,,,,,,,,,,,,,,,,,,,,,,,,,,1498.4133387000184,1498.6135181999998,1498.5969297999982,1498.8979474999942,1498.8979474999942,None,1499.3981943000108,None,d,1,1.3459443000028841,1499.3981943000108,None,None,None,,,,,,,,,,,,,,,,,,,,,,,11037,1,1,2024_Jun_03_2000,stroop_task_switching2,2021.2.3,59.86776408635766,
,,,黄,green,k,diamond,color_mix,颜色,,incompatible,2,block_switch1,instruction/ready_test.png,instruction/i11.png,,,,,,,,,,,,,,,,,0,0,0,0,0,88,88,88,,,,,,,,,,,,,,,,,,,,,,,,,,,1500.7668126000208,1500.9671566000325,1500.9515918000252,1501.252464900026,1501.252464900026,None,1501.7516340999864,None,k,1,1.1765766000025906,1501.7516340999864,None,None,None,,,,,,,,,,,,,,,,,,,,,,,11037,1,1,2024_Jun_03_2000,stroop_task_switching2,2021.2.3,59.86776408635766,
,,,绿,red,k,square,color_mix,单词,,incompatible,2,block_switch1,instruction/ready_test.png,instruction/i11.png,,,,,,,,,,,,,,,,,0,0,0,0,0,89,89,89,,,,,,,,,,,,,,,,,,,,,,,,,,,1502.9534742999822,1503.153744500014,1503.1371912999894,1503.4383687000372,1503.4383687000372,None,1503.9382512000157,None,k,1,2.7659628999535926,1503.9382512000157,None,None,None,,,,,,,,,,,,,,,,,,,,,,,11037,1,1,2024_Jun_03_2000,stroop_task_switching2,2021.2.3,59.86776408635766,
,,,黄,green,j,square,color_mix,单词,,incompatible,1,block_switch1,instruction/ready_test.png,instruction/i11.png,,,,,,,,,,,,,,,,,0,0,0,0,0,90,90,90,,,,,,,,,,,,,,,,,,,,,,,,,,,1506.7256521999952,1506.9265703000128,1506.909428599989,1507.2105522000347,1507.2105522000347,None,1507.7110568000353,None,j,1,1.7209675999474712,1507.7110568000353,None,None,None,,,,,,,,,,,,,,,,,,,,,,,11037,1,1,2024_Jun_03_2000,stroop_task_switching2,2021.2.3,59.86776408635766,
,,,蓝,blue,f,square,color_mix,单词,,compatible,1,block_switch1,instruction/ready_test.png,instruction/i11.png,,,,,,,,,,,,,,,,,0,0,0,0,0,91,91,91,,,,,,,,,,,,,,,,,,,,,,,,,,,1509.4632367999875,1509.6641744000372,1509.6468203000259,1509.947228300036,1509.947228300036,None,1510.4481916000368,None,f,1,0.7120246000122279,1510.4481916000368,None,None,None,,,,,,,,,,,,,,,,,,,,,,,11037,1,1,2024_Jun_03_2000,stroop_task_switching2,2021.2.3,59.86776408635766,
,,,蓝,red,f,square,color_mix,单词,,incompatible,1,block_switch1,instruction/ready_test.png,instruction/i11.png,,,,,,,,,,,,,,,,,0,0,0,0,0,92,92,92,,,,,,,,,,,,,,,,,,,,,,,,,,,1511.1825237000012,1511.3827989000129,1511.366271900013,1511.6663232999854,1511.6663232999854,None,1512.1673001000308,None,f,1,0.9209052000078373,1512.1673001000308,None,None,None,,,,,,,,,,,,,,,,,,,,,,,11037,1,1,2024_Jun_03_2000,stroop_task_switching2,2021.2.3,59.86776408635766,
,,,黄,blue,j,square,color_mix,单词,,incompatible,1,block_switch1,instruction/ready_test.png,instruction/i11.png,,,,,,,,,,,,,,,,,0,0,0,0,0,93,93,93,,,,,,,,,,,,,,,,,,,,,,,,,,,1513.1192282999982,1513.3198414000217,1513.3023969000205,1513.602636000025,1513.602636000025,None,1514.1040747999796,None,j,1,1.504285799979698,1514.1040747999796,None,None,None,,,,,,,,,,,,,,,,,,,,,,,11037,1,1,2024_Jun_03_2000,stroop_task_switching2,2021.2.3,59.86776408635766,
,,,绿,red,d,diamond,color_mix,颜色,,incompatible,2,block_switch1,instruction/ready_test.png,instruction/i11.png,,,,,,,,,,,,,,,,,0,0,0,0,0,94,94,94,,,,,,,,,,,,,,,,,,,,,,,,,,,1515.6390643999912,1515.8410293000052,1515.82276369998,1516.123484599986,1516.123484599986,None,1516.6240448000026,None,k,0,2.2565544999670237,1516.6240448000026,None,None,None,,,,,,,,,,,,,,,,,,,,,,,11037,1,1,2024_Jun_03_2000,stroop_task_switching2,2021.2.3,59.86776408635766,
,,,蓝,blue,f,diamond,color_mix,颜色,,compatible,1,block_switch1,instruction/ready_test.png,instruction/i11.png,,,,,,,,,,,,,,,,,0,0,0,0,0,95,95,95,,,,,,,,,,,,,,,,,,,,,,,,,,,1518.9110148000182,1519.111230999988,1519.0962556999875,1519.4117861000123,1519.396715299983,None,1519.896086600027,None,f,1,0.6725587999681011,1519.896086600027,None,None,None,,,,,,,,,,,,,,,,,,,,,,,11037,1,1,2024_Jun_03_2000,stroop_task_switching2,2021.2.3,59.86776408635766,
,,,绿,green,k,square,color_mix,单词,,compatible,2,block_switch1,instruction/ready_test.png,instruction/i11.png,,,,,,,,,,,,,,,,,0,0,0,0,0,96,96,96,,,,,,,,,,,,,,,,,,,,,,,,,,,1520.5967004999984,1520.7991848000092,1520.780294600001,1521.0814104999881,1521.0814104999881,None,1521.5814733000007,None,k,1,0.9071652999846265,1521.5814733000007,None,None,None,,,,,,,,,,,,,,,,,,,,,,,11037,1,1,2024_Jun_03_2000,stroop_task_switching2,2021.2.3,59.86776408635766,
,,,,,,,,,,,,block_switch1,instruction/ready_test.png,instruction/i11.png,,,,,,,,,,,,,,,,,0,0,0,0,,,,,,,,,,,,,,,,,,,,,,,,,,,,,,,,,,,,,,,,,,,,,,,,,,,,,,,,,,,,1522.5175137000042,None,space,7.635330199962482,1522.5175137000042,None,,,11037,1,1,2024_Jun_03_2000,stroop_task_switching2,2021.2.3,59.86776408635766,
,,,蓝,blue,f,square,color_mix,单词,,compatible,0,block_switch2,instruction/ready_2.png,instruction/i12.png,,,,,,,,,,,,,,,,,0,1,1,1,0,0,0,0,,,,,,,,,,,,,,,,,,,1532.531306000019,1533.533762200037,1533.533762200037,1534.5349327999866,1534.5349327999866,None,1531.5463858000003,1532.5482028999832,1535.5522559999954,1535.754522000032,1535.754522000032,1536.0533211000147,1536.0533211000147,None,1536.5540212999913,None,f,1,1.367087199992966,1536.5540212999913,None,None,None,,,,,,,,,1530.194747200003,None,space,1.3341222999733873,1530.194747200003,None,,,,,,,,,11037,1,1,2024_Jun_03_2000,stroop_task_switching2,2021.2.3,59.86776408635766,
,,,黄,red,d,diamond,color_mix,颜色,,incompatible,2,block_switch2,instruction/ready_2.png,instruction/i12.png,,,,,,,,,,,,,,,,,0,1,1,1,0,1,1,1,,,,,,,,,,,,,,,,,,,,,,,,,,,1537.9393648999976,1538.1414761000196,1538.1230895000044,1538.4235822000192,1538.4235822000192,None,1538.9244774000254,None,d,1,0.7246631999732926,1538.9244774000254,None,None,None,,,,,,,,,,,,,,,,,,,,,,,11037,1,1,2024_Jun_03_2000,stroop_task_switching2,2021.2.3,59.86776408635766,
,,,蓝,green,k,diamond,color_mix,颜色,,incompatible,1,block_switch2,instruction/ready_2.png,instruction/i12.png,,,,,,,,,,,,,,,,,0,1,1,1,0,2,2,2,,,,,,,,,,,,,,,,,,,,,,,,,,,1539.6759156000335,1539.87701679999,1539.859056700021,1540.160171399999,1540.160171399999,None,1540.6602210000274,None,k,1,0.8129226000164635,1540.6602210000274,None,None,None,,,,,,,,,,,,,,,,,,,,,,,11037,1,1,2024_Jun_03_2000,stroop_task_switching2,2021.2.3,59.86776408635766,
,,,红,yellow,j,diamond,color_mix,颜色,,incompatible,1,block_switch2,instruction/ready_2.png,instruction/i12.png,,,,,,,,,,,,,,,,,0,1,1,1,0,3,3,3,,,,,,,,,,,,,,,,,,,,,,,,,,,1541.4951525999932,1541.6951113999821,1541.6783150000265,1541.9788889000192,1541.9788889000192,None,1542.479946699983,None,j,1,1.9052990999771282,1542.479946699983,None,None,None,,,,,,,,,,,,,,,,,,,,,,,11037,1,1,2024_Jun_03_2000,stroop_task_switching2,2021.2.3,59.86776408635766,
,,,红,red,d,diamond,color_mix,颜色,,compatible,1,block_switch2,instruction/ready_2.png,instruction/i12.png,,,,,,,,,,,,,,,,,0,1,1,1,0,4,4,4,,,,,,,,,,,,,,,,,,,,,,,,,,,1544.4161052000127,1544.6170003000298,1544.5994633000228,1544.9005416000145,1544.9005416000145,None,1545.4007480000146,None,d,1,1.2806003000005148,1545.4007480000146,None,None,None,,,,,,,,,,,,,,,,,,,,,,,11037,1,1,2024_Jun_03_2000,stroop_task_switching2,2021.2.3,59.86776408635766,
,,,绿,green,k,square,color_mix,单词,,compatible,2,block_switch2,instruction/ready_2.png,instruction/i12.png,,,,,,,,,,,,,,,,,0,1,1,1,0,5,5,5,,,,,,,,,,,,,,,,,,,,,,,,,,,1546.7027129000053,1546.9031627000077,1546.886284200009,1547.1866286000004,1547.1866286000004,None,1547.687347900006,None,k,1,1.1225314000039361,1547.687347900006,None,None,None,,,,,,,,,,,,,,,,,,,,,,,11037,1,1,2024_Jun_03_2000,stroop_task_switching2,2021.2.3,59.86776408635766,
,,,黄,blue,f,diamond,color_mix,颜色,,incompatible,2,block_switch2,instruction/ready_2.png,instruction/i12.png,,,,,,,,,,,,,,,,,0,1,1,1,0,6,6,6,,,,,,,,,,,,,,,,,,,,,,,,,,,1548.8392511000275,1549.0395443000016,1549.0251082000323,1549.3234225999913,1549.3234225999913,None,1549.8243302000337,None,f,1,0.7932184999808669,1549.8243302000337,None,None,None,,,,,,,,,,,,,,,,,,,,,,,11037,1,1,2024_Jun_03_2000,stroop_task_switching2,2021.2.3,59.86776408635766,
,,,绿,yellow,k,square,color_mix,单词,,incompatible,2,block_switch2,instruction/ready_2.png,instruction/i12.png,,,,,,,,,,,,,,,,,0,1,1,1,0,7,7,7,,,,,,,,,,,,,,,,,,,,,,,,,,,1550.6418808000162,1550.8442821000353,1550.825694500003,1551.1260444000363,1551.1260444000363,None,1551.6267526000156,None,k,1,1.4147717999876477,1551.6267526000156,None,None,None,,,,,,,,,,,,,,,,,,,,,,,11037,1,1,2024_Jun_03_2000,stroop_task_switching2,2021.2.3,59.86776408635766,
,,,红,green,d,square,color_mix,单词,,incompatible,1,block_switch2,instruction/ready_2.png,instruction/i12.png,,,,,,,,,,,,,,,,,0,1,1,1,0,8,8,8,,,,,,,,,,,,,,,,,,,,,,,,,,,1553.062656300026,1553.2628674000152,1553.245873500011,1553.546660699998,1553.546660699998,None,1554.0471934999805,None,d,1,1.2667022999958135,1554.0471934999805,None,None,None,,,,,,,,,,,,,,,,,,,,,,,11037,1,1,2024_Jun_03_2000,stroop_task_switching2,2021.2.3,59.86776408635766,
