b_pra,ins_blocks,ins_blocks2,stim_word,stim_color,corrAns,cue_type,trial_type,task_type,rand,compatibility,switch,b_test,w_pic,w_pic2,trials_instr.thisRepN,trials_instr.thisTrialN,trials_instr.thisN,trials_instr.thisIndex,block_pra.thisRepN,block_pra.thisTrialN,block_pra.thisN,block_pra.thisIndex,trials_rep.thisRepN,trials_rep.thisTrialN,trials_rep.thisN,trials_rep.thisIndex,trials_pra.thisRepN,trials_pra.thisTrialN,trials_pra.thisN,trials_pra.thisIndex,trials_3.thisRepN,trials_3.thisTrialN,trials_3.thisN,trials_3.thisIndex,trials_2.thisRepN,trials_2.thisTrialN,trials_2.thisN,trials_2.thisIndex,instr_image.started,instr_image.stopped,instr_key_resp.keys,instr_key_resp.rt,instr_key_resp.started,instr_key_resp.stopped,instr_pra_image.started,instr_pra_image.stopped,ip_key_resp.keys,ip_key_resp.rt,ip_key_resp.started,ip_key_resp.stopped,block_image.started,block_image.stopped,ib_key_resp.keys,ib_key_resp.rt,ib_key_resp.started,ib_key_resp.stopped,cd3.started,cd3.stopped,cd2.started,cd2.stopped,cd1.started,cd1.stopped,cd_text.started,cd_text.stopped,text_fix.started,text_fix.stopped,text_2.started,text_2.stopped,text_4.started,text_4.stopped,text_target.started,text_target.stopped,key_resp.keys,key_resp.corr,key_resp.started,key_resp.stopped,sceen_black.started,sceen_black.stopped,text_fb.started,text_fb.stopped,key_resp.rt,text.started,text.stopped,key_bf.keys,key_bf.rt,key_bf.started,key_bf.stopped,instr_test_image.started,instr_test_image.stopped,instr_exp_key_resp.keys,instr_exp_key_resp.rt,instr_exp_key_resp.started,instr_exp_key_resp.stopped,text_rest.started,text_rest.stopped,key_resp_rest.keys,key_resp_rest.rt,key_resp_rest.started,key_resp_rest.stopped,text_3.started,text_3.stopped,participant,session,balance,date,expName,psychopyVersion,frameRate,
,,,,,,,,,,,,,,,0,0,0,0,,,,,,,,,,,,,,,,,,,,,17.110844599985285,None,right,0.9209256999893114,17.110844599985285,None,,,,,,,,,,,,,,,,,,,,,,,,,,,,,,,,,,,,,,,,,,,,,,,,,,,,,,,,,,11038,2,2,2024_Jun_18_1327,stroop_task_switching2_b,2021.2.3,59.95491390344069,
,,,,,,,,,,,,,,,1,0,1,0,,,,,,,,,,,,,,,,,,,,,18.07682289998047,None,right,44.32148749998305,18.07682289998047,None,,,,,,,,,,,,,,,,,,,,,,,,,,,,,,,,,,,,,,,,,,,,,,,,,,,,,,,,,,11038,2,2,2024_Jun_18_1327,stroop_task_switching2_b,2021.2.3,59.95491390344069,
,,,,,,,,,,,,,,,2,0,2,0,,,,,,,,,,,,,,,,,,,,,62.44429369998397,None,right,0.23686350000207312,62.44429369998397,None,,,,,,,,,,,,,,,,,,,,,,,,,,,,,,,,,,,,,,,,,,,,,,,,,,,,,,,,,,11038,2,2,2024_Jun_18_1327,stroop_task_switching2_b,2021.2.3,59.95491390344069,
,,,,,,,,,,,,,,,3,0,3,0,,,,,,,,,,,,,,,,,,,,,62.72823700000299,None,right,0.14961580000817776,62.72823700000299,None,,,,,,,,,,,,,,,,,,,,,,,,,,,,,,,,,,,,,,,,,,,,,,,,,,,,,,,,,,11038,2,2,2024_Jun_18_1327,stroop_task_switching2_b,2021.2.3,59.95491390344069,
,,,,,,,,,,,,,,,4,0,4,0,,,,,,,,,,,,,,,,,,,,,62.9119843999797,None,right,0.14228699999512173,62.9119843999797,None,,,,,,,,,,,,,,,,,,,,,,,,,,,,,,,,,,,,,,,,,,,,,,,,,,,,,,,,,,11038,2,2,2024_Jun_18_1327,stroop_task_switching2_b,2021.2.3,59.95491390344069,
,,,,,,,,,,,,,,,5,0,5,0,,,,,,,,,,,,,,,,,,,,,63.095765899983235,None,right,0.484271199995419,63.095765899983235,None,,,,,,,,,,,,,,,,,,,,,,,,,,,,,,,,,,,,,,,,,,,,,,,,,,,,,,,,,,11038,2,2,2024_Jun_18_1327,stroop_task_switching2_b,2021.2.3,59.95491390344069,
,,,,,,,,,,,,,,,,,,,,,,,,,,,,,,,,,,,,,,,,,,,,,63.6136101000011,None,space,2.9544915000151377,63.6136101000011,None,,,,,,,,,,,,,,,,,,,,,,,,,,,,,,,,,,,,,,,,,,,,,,,,,,,,11038,2,2,2024_Jun_18_1327,stroop_task_switching2_b,2021.2.3,59.95491390344069,
condition/block_color_b,instruction/instr_color,instruction/i8_b,XX,red,k,diamond,color_single,颜色,,,,,,,,,,,0,0,0,0,0,0,0,0,0,0,0,0,,,,,,,,,,,,,,,,,,,,,66.60069069999736,None,space,5.855286000005435,66.60069069999736,None,73.52875739999581,74.53077719997964,74.53077719997964,75.53154149997863,75.53154149997863,None,72.54456959999516,73.54530699999304,76.50035099999513,76.71593489998486,76.68259199999738,76.98399119998794,76.98399119998794,None,77.48491699999431,80.48840020000353,None,0,77.48491699999431,80.48840020000353,80.47266859997762,None,81.08948529997724,None,,,,,,,,,,,,,,,,,,,,,,11038,2,2,2024_Jun_18_1327,stroop_task_switching2_b,2021.2.3,59.95491390344069,
condition/block_color_b,instruction/instr_color,instruction/i8_b,XX,green,d,diamond,color_single,颜色,,,,,,,,,,,0,0,0,0,0,0,0,0,0,1,1,1,,,,,,,,,,,,,,,,,,,,,,,,,,,,,,,,,,,82.0920419000031,82.2919816999929,82.27562989998842,82.57608349999646,82.57608349999646,None,83.07560869998997,None,d,1,83.07560869998997,None,None,None,84.37759739998728,None,1.2742493000114337,,,,,,,,,,,,,,,,,,,,,11038,2,2,2024_Jun_18_1327,stroop_task_switching2_b,2021.2.3,59.95491390344069,
condition/block_color_b,instruction/instr_color,instruction/i8_b,XX,yellow,f,diamond,color_single,颜色,,,,,,,,,,,0,0,0,0,0,0,0,0,0,2,2,2,,,,,,,,,,,,,,,,,,,,,,,,,,,,,,,,,,,85.38016949998564,85.57941069998196,85.56273189999047,85.863826899993,85.863826899993,None,86.36393469999894,None,f,1,86.36393469999894,None,None,None,87.28197529999306,None,0.8984804000065196,,,,,,,,,,,,,,,,,,,,,11038,2,2,2024_Jun_18_1327,stroop_task_switching2_b,2021.2.3,59.95491390344069,
condition/block_color_b,instruction/instr_color,instruction/i8_b,XX,blue,j,diamond,color_single,颜色,,,,,,,,,,,0,0,0,0,0,0,0,0,0,3,3,3,,,,,,,,,,,,,,,,,,,,,,,,,,,,,,,,,,,88.28430559998378,88.48470749999979,88.4681279999786,88.76826009998331,88.76826009998331,None,89.26918239999213,None,j,1,89.26918239999213,None,None,None,90.25313219998498,None,0.9606534999911673,,,,,,,,,,,,,,,,,,,,,11038,2,2,2024_Jun_18_1327,stroop_task_switching2_b,2021.2.3,59.95491390344069,
condition/block_color_b,instruction/instr_color,instruction/i8_b,XX,green,d,diamond,color_single,颜色,,,,,,,,,,,0,0,0,0,0,0,0,0,0,4,4,4,,,,,,,,,,,,,,,,,,,,,,,,,,,,,,,,,,,91.25475269998424,91.45603189998656,91.43820330000017,91.7396736999799,91.7396736999799,None,92.23941259999992,None,d,1,92.23941259999992,None,None,None,93.4747914999898,None,1.2147839000099339,,,,,,,,,,,,,,,,,,,,,11038,2,2,2024_Jun_18_1327,stroop_task_switching2_b,2021.2.3,59.95491390344069,
condition/block_color_b,instruction/instr_color,instruction/i8_b,XX,yellow,f,diamond,color_single,颜色,,,,,,,,,,,0,0,0,0,0,0,0,0,0,5,5,5,,,,,,,,,,,,,,,,,,,,,,,,,,,,,,,,,,,94.4761888999783,94.677852599998,94.6597480000055,94.960811500001,94.960811500001,None,95.4619912999915,None,f,1,95.4619912999915,None,None,None,96.19544700000552,None,0.7120430000068154,,,,,,,,,,,,,,,,,,,,,11038,2,2,2024_Jun_18_1327,stroop_task_switching2_b,2021.2.3,59.95491390344069,
condition/block_color_b,instruction/instr_color,instruction/i8_b,XX,blue,j,diamond,color_single,颜色,,,,,,,,,,,0,0,0,0,0,0,0,0,0,6,6,6,,,,,,,,,,,,,,,,,,,,,,,,,,,,,,,,,,,97.19712569998228,97.39749879998271,97.38117959999363,97.68205129998387,97.68205129998387,None,98.18255499997758,None,j,1,98.18255499997758,None,None,None,98.88287559998571,None,0.6715340999944601,,,,,,,,,,,,,,,,,,,,,11038,2,2,2024_Jun_18_1327,stroop_task_switching2_b,2021.2.3,59.95491390344069,
condition/block_color_b,instruction/instr_color,instruction/i8_b,XX,red,k,diamond,color_single,颜色,,,,,,,,,,,0,0,0,0,0,0,0,0,0,7,7,7,,,,,,,,,,,,,,,,,,,,,,,,,,,,,,,,,,,99.88460379999015,100.08548899999005,100.06905659998301,100.36888039999758,100.36888039999758,None,100.86934129998554,None,k,1,100.86934129998554,None,None,None,101.28637669997988,None,0.4007495999976527,,,,,,,,,,,,,,,,,,,,,11038,2,2,2024_Jun_18_1327,stroop_task_switching2_b,2021.2.3,59.95491390344069,
condition/block_color_b,instruction/instr_color,instruction/i8_b,XX,yellow,f,diamond,color_single,颜色,,,,,,,,,,,0,0,0,0,0,0,0,0,0,8,8,8,,,,,,,,,,,,,,,,,,,,,,,,,,,,,,,,,,,102.28877869999269,102.48923629999626,102.47224879998248,102.77306690000114,102.77306690000114,None,103.27275929998723,None,f,1,103.27275929998723,None,None,None,104.34102299998631,None,1.0532552000076976,,,,,,,,,,,,,,,,,,,,,11038,2,2,2024_Jun_18_1327,stroop_task_switching2_b,2021.2.3,59.95491390344069,
condition/block_color_b,instruction/instr_color,instruction/i8_b,XX,blue,j,diamond,color_single,颜色,,,,,,,,,,,0,0,0,0,0,0,0,0,0,9,9,9,,,,,,,,,,,,,,,,,,,,,,,,,,,,,,,,,,,105.34335999999894,105.5443682000041,105.52640350000001,105.82669349998469,105.82669349998469,None,106.32886019998114,None,j,1,106.32886019998114,None,None,None,107.0116538000002,None,0.653569600021001,,,,,,,,,,,,,,,,,,,,,11038,2,2,2024_Jun_18_1327,stroop_task_switching2_b,2021.2.3,59.95491390344069,
condition/block_color_b,instruction/instr_color,instruction/i8_b,XX,red,k,diamond,color_single,颜色,,,,,,,,,,,0,0,0,0,0,0,0,0,0,10,10,10,,,,,,,,,,,,,,,,,,,,,,,,,,,,,,,,,,,108.01313639999717,108.21421760000521,108.197545300005,108.4984134999977,108.4984134999977,None,108.99896889997763,None,k,1,108.99896889997763,None,None,None,109.61575169998105,None,0.5913041000021622,,,,,,,,,,,,,,,,,,,,,11038,2,2,2024_Jun_18_1327,stroop_task_switching2_b,2021.2.3,59.95491390344069,
condition/block_color_b,instruction/instr_color,instruction/i8_b,XX,green,d,diamond,color_single,颜色,,,,,,,,,,,0,0,0,0,0,0,0,0,0,11,11,11,,,,,,,,,,,,,,,,,,,,,,,,,,,,,,,,,,,110.6181033999892,110.81859849998727,110.80096110000159,111.10216599999694,111.10216599999694,None,111.60220289998688,None,d,1,111.60220289998688,None,None,None,112.38641479998478,None,0.7563485999999102,,,,,,,,,,,,,,,,,,,,,11038,2,2,2024_Jun_18_1327,stroop_task_switching2_b,2021.2.3,59.95491390344069,
condition/block_color_b,instruction/instr_color,instruction/i8_b,XX,blue,j,diamond,color_single,颜色,,,,,,,,,,,0,0,0,0,0,0,0,0,0,12,12,12,,,,,,,,,,,,,,,,,,,,,,,,,,,,,,,,,,,113.38794970000163,113.59007899998687,113.57145719998516,113.87298699998064,113.87298699998064,None,114.37292219998199,None,j,1,114.37292219998199,None,None,None,114.9572918000049,None,0.5535235999850556,,,,,,,,,,,,,,,,,,,,,11038,2,2,2024_Jun_18_1327,stroop_task_switching2_b,2021.2.3,59.95491390344069,
condition/block_color_b,instruction/instr_color,instruction/i8_b,XX,red,k,diamond,color_single,颜色,,,,,,,,,,,0,0,0,0,0,0,0,0,0,13,13,13,,,,,,,,,,,,,,,,,,,,,,,,,,,,,,,,,,,115.95838090000325,116.15968479998992,116.14201260000118,116.44268829998327,116.44268829998327,None,116.9434568999859,None,k,1,116.9434568999859,None,None,None,117.3940869999933,None,0.42315469999448396,,,,,,,,,,,,,,,,,,,,,11038,2,2,2024_Jun_18_1327,stroop_task_switching2_b,2021.2.3,59.95491390344069,
condition/block_color_b,instruction/instr_color,instruction/i8_b,XX,green,d,diamond,color_single,颜色,,,,,,,,,,,0,0,0,0,0,0,0,0,0,14,14,14,,,,,,,,,,,,,,,,,,,,,,,,,,,,,,,,,,,118.3956328999775,118.5964308999828,118.57920249999734,118.87963089998811,118.87963089998811,None,119.3811374999932,None,d,1,119.3811374999932,None,None,None,120.2990011999791,None,0.8894032999814954,,,,,,,,,,,,,,,,,,,,,11038,2,2,2024_Jun_18_1327,stroop_task_switching2_b,2021.2.3,59.95491390344069,
condition/block_color_b,instruction/instr_color,instruction/i8_b,XX,yellow,f,diamond,color_single,颜色,,,,,,,,,,,0,0,0,0,0,0,0,0,0,15,15,15,,,,,,,,,,,,,,,,,,,,,,,,,,,,,,,,,,,121.30132589998539,121.50018169998657,121.48398779999116,121.78393000000506,121.78393000000506,None,122.28557710000314,None,f,1,122.28557710000314,None,None,None,122.7687547999958,None,0.4658484000246972,,,,,,,,,,,,,,,,,,,,,11038,2,2,2024_Jun_18_1327,stroop_task_switching2_b,2021.2.3,59.95491390344069,
condition/block_color_b,instruction/instr_color,instruction/i8_b,XX,red,k,diamond,color_single,颜色,,,,,,,,,,,0,0,0,0,0,0,0,0,0,16,16,16,,,,,,,,,,,,,,,,,,,,,,,,,,,,,,,,,,,123.77069129998563,123.97163489999366,123.9547309000045,124.25422449997859,124.25422449997859,None,124.75611899999785,None,d,0,124.75611899999785,None,None,None,125.3061836999841,None,0.5224768000189215,,,,,,,,,,,,,,,,,,,,,11038,2,2,2024_Jun_18_1327,stroop_task_switching2_b,2021.2.3,59.95491390344069,
condition/block_color_b,instruction/instr_color,instruction/i8_b,XX,green,d,diamond,color_single,颜色,,,,,,,,,,,0,0,0,0,0,0,0,0,0,17,17,17,,,,,,,,,,,,,,,,,,,,,,,,,,,,,,,,,,,126.3076832999941,126.50967519998085,126.49117179997847,126.79242739998153,126.79242739998153,None,127.29315469998983,None,d,1,127.29315469998983,None,None,None,128.67792149999877,None,1.3541688999976031,,,,,,,,,,,,,,,,,,,,,11038,2,2,2024_Jun_18_1327,stroop_task_switching2_b,2021.2.3,59.95491390344069,
condition/block_color_b,instruction/instr_color,instruction/i8_b,XX,yellow,f,diamond,color_single,颜色,,,,,,,,,,,0,0,0,0,0,0,0,0,0,18,18,18,,,,,,,,,,,,,,,,,,,,,,,,,,,,,,,,,,,129.6792659999919,129.88033349998295,129.86395329999505,130.16355060000205,130.16355060000205,None,130.66384839999955,None,f,1,130.66384839999955,None,None,None,131.41514830000233,None,0.735828600008972,,,,,,,,,,,,,,,,,,,,,11038,2,2,2024_Jun_18_1327,stroop_task_switching2_b,2021.2.3,59.95491390344069,
condition/block_color_b,instruction/instr_color,instruction/i8_b,XX,blue,j,diamond,color_single,颜色,,,,,,,,,,,0,0,0,0,0,0,0,0,0,19,19,19,,,,,,,,,,,,,,,,,,,,,,,,,,,,,,,,,,,132.4174284999899,132.6177308000042,132.6006567000004,132.90078019999783,132.90078019999783,None,133.40230590000283,None,j,1,133.40230590000283,None,None,None,134.0031587999838,None,0.5809476999856997,,,,,,,,,,,,,,,,,,,,,11038,2,2,2024_Jun_18_1327,stroop_task_switching2_b,2021.2.3,59.95491390344069,
condition/block_color_b,instruction/instr_color,instruction/i8_b,XX,green,d,diamond,color_single,颜色,,,,,,,,,,,0,0,0,0,0,0,0,0,0,20,20,20,,,,,,,,,,,,,,,,,,,,,,,,,,,,,,,,,,,135.00404479997815,135.20413949998328,135.18859949999023,135.48799110000255,135.48799110000255,None,135.988797900005,None,d,1,135.988797900005,None,None,None,136.68969109997852,None,0.674092200002633,,,,,,,,,,,,,,,,,,,,,11038,2,2,2024_Jun_18_1327,stroop_task_switching2_b,2021.2.3,59.95491390344069,
condition/block_color_b,instruction/instr_color,instruction/i8_b,XX,yellow,f,diamond,color_single,颜色,,,,,,,,,,,0,0,0,0,0,0,0,0,0,21,21,21,,,,,,,,,,,,,,,,,,,,,,,,,,,,,,,,,,,137.69142909999937,137.89159349998226,137.87579049999476,138.17537749998155,138.17537749998155,None,138.67668350000167,None,f,1,138.67668350000167,None,None,None,139.39396329998272,None,0.6904038999928162,,,,,,,,,,,,,,,,,,,,,11038,2,2,2024_Jun_18_1327,stroop_task_switching2_b,2021.2.3,59.95491390344069,
condition/block_color_b,instruction/instr_color,instruction/i8_b,XX,blue,j,diamond,color_single,颜色,,,,,,,,,,,0,0,0,0,0,0,0,0,0,22,22,22,,,,,,,,,,,,,,,,,,,,,,,,,,,,,,,,,,,140.39542739998433,140.59637679997832,140.58030420000432,140.8794721000013,140.8794721000013,None,141.3803018000035,None,j,1,141.3803018000035,None,None,None,141.88078659999883,None,0.4748951999936253,,,,,,,,,,,,,,,,,,,,,11038,2,2,2024_Jun_18_1327,stroop_task_switching2_b,2021.2.3,59.95491390344069,
condition/block_color_b,instruction/instr_color,instruction/i8_b,XX,red,k,diamond,color_single,颜色,,,,,,,,,,,0,0,0,0,0,0,0,0,0,23,23,23,,,,,,,,,,,,,,,,,,,,,,,,,,,,,,,,,,,142.88266859998112,143.08347979999962,143.0670835999772,143.36641039999085,143.36641039999085,None,143.86813709998387,None,k,1,143.86813709998387,None,None,None,144.2518420999986,None,0.3637546999962069,,,,,,,,,,,,,,,,,,,,,11038,2,2,2024_Jun_18_1327,stroop_task_switching2_b,2021.2.3,59.95491390344069,
condition/block_color_b,instruction/instr_color,instruction/i8_b,,,,,,,,,,,,,,,,,0,0,0,0,0,0,0,0,,,,,,,,,,,,,,,,,,,,,,,,,,,,,,,,,,,,,,,,,,,,,,,,,,,,,,,,145.26946049998514,None,space,2.4699577999999747,145.26946049998514,None,,,,,,,,,,,,,,,11038,2,2,2024_Jun_18_1327,stroop_task_switching2_b,2021.2.3,59.95491390344069,
condition/block_color_b,instruction/instr_color,instruction/i8_b,,,,,,,,,,,,,,,,,0,0,0,0,,,,,,,,,,,,,,,,,,,,,,,,,,,,,,,,,,,,,,,,,,,,,,,,,,,,,,,,,,,,,,,,,,,,,,,,,,,,,,,,11038,2,2,2024_Jun_18_1327,stroop_task_switching2_b,2021.2.3,59.95491390344069,
condition/block_word_b,instruction/instr_word,instruction/i9_b,黄,white,f,square,word_single,单词,0.0032461461866890584,,,,,,,,,,0,1,1,1,0,0,0,0,0,0,0,0,,,,,,,,,,,,,,,,,,,,,147.77334569999948,None,space,5.009962399984943,147.77334569999948,None,153.81621769999037,154.81733879999956,154.81733879999956,155.81919189999462,155.81919189999462,None,152.83107839999138,153.83424319999176,156.8365569000016,157.03737549998914,157.02046229998814,157.3217636999907,157.3217636999907,None,157.82156439998653,None,f,1,157.82156439998653,None,None,None,158.9901647999941,None,1.1378772000025492,,,,,,,,,,,,,,,,,,,,,11038,2,2,2024_Jun_18_1327,stroop_task_switching2_b,2021.2.3,59.95491390344069,
condition/block_word_b,instruction/instr_word,instruction/i9_b,蓝,white,j,square,word_single,单词,0.060540570646362424,,,,,,,,,,0,1,1,1,0,0,0,0,0,1,1,1,,,,,,,,,,,,,,,,,,,,,,,,,,,,,,,,,,,159.9915830999962,160.19166349997977,160.17610509999213,160.47639699999127,160.47639699999127,None,160.97632529999828,None,j,1,160.97632529999828,None,None,None,161.69417449997854,None,0.687399499991443,,,,,,,,,,,,,,,,,,,,,11038,2,2,2024_Jun_18_1327,stroop_task_switching2_b,2021.2.3,59.95491390344069,
condition/block_word_b,instruction/instr_word,instruction/i9_b,黄,white,f,square,word_single,单词,0.06994067193778963,,,,,,,,,,0,1,1,1,0,0,0,0,0,2,2,2,,,,,,,,,,,,,,,,,,,,,,,,,,,,,,,,,,,162.6962557999941,162.89815039999667,162.8793999000045,163.18101079997723,163.18101079997723,None,163.681385999982,None,f,1,163.681385999982,None,None,None,164.84902729999158,None,1.142342799983453,,,,,,,,,,,,,,,,,,,,,11038,2,2,2024_Jun_18_1327,stroop_task_switching2_b,2021.2.3,59.95491390344069,
condition/block_word_b,instruction/instr_word,instruction/i9_b,蓝,white,j,square,word_single,单词,0.08193765152950094,,,,,,,,,,0,1,1,1,0,0,0,0,0,3,3,3,,,,,,,,,,,,,,,,,,,,,,,,,,,,,,,,,,,165.85039169999072,166.05051249999087,166.0349036999978,166.33528410000145,166.33528410000145,None,166.83636159999878,None,j,1,166.83636159999878,None,None,None,167.25261429999955,None,0.3876474999997299,,,,,,,,,,,,,,,,,,,,,11038,2,2,2024_Jun_18_1327,stroop_task_switching2_b,2021.2.3,59.95491390344069,
condition/block_word_b,instruction/instr_word,instruction/i9_b,红,white,k,square,word_single,单词,0.1279694370605574,,,,,,,,,,0,1,1,1,0,0,0,0,0,4,4,4,,,,,,,,,,,,,,,,,,,,,,,,,,,,,,,,,,,168.25497729997733,168.456099300005,168.43849420000333,168.73857610000414,168.73857610000414,None,169.23894129999098,None,k,1,169.23894129999098,None,None,None,169.60669939999934,None,0.3369128000049386,,,,,,,,,,,,,,,,,,,,,11038,2,2,2024_Jun_18_1327,stroop_task_switching2_b,2021.2.3,59.95491390344069,
condition/block_word_b,instruction/instr_word,instruction/i9_b,红,white,k,square,word_single,单词,0.18345028784879092,,,,,,,,,,0,1,1,1,0,0,0,0,0,5,5,5,,,,,,,,,,,,,,,,,,,,,,,,,,,,,,,,,,,170.609157400002,170.80882989999373,170.79207519997726,171.0917150999885,171.0917150999885,None,171.59237749999738,None,k,1,171.59237749999738,None,None,None,172.29348530000425,None,0.6797374000016134,,,,,,,,,,,,,,,,,,,,,11038,2,2,2024_Jun_18_1327,stroop_task_switching2_b,2021.2.3,59.95491390344069,
condition/block_word_b,instruction/instr_word,instruction/i9_b,蓝,white,j,square,word_single,单词,0.19920386223101294,,,,,,,,,,0,1,1,1,0,0,0,0,0,6,6,6,,,,,,,,,,,,,,,,,,,,,,,,,,,,,,,,,,,173.29496519998065,173.49587479999173,173.4794547999918,173.7791563999781,173.7791563999781,None,174.28069909999613,None,j,1,174.28069909999613,None,None,None,174.83072559998254,None,0.5350952000007965,,,,,,,,,,,,,,,,,,,,,11038,2,2,2024_Jun_18_1327,stroop_task_switching2_b,2021.2.3,59.95491390344069,
condition/block_word_b,instruction/instr_word,instruction/i9_b,蓝,white,j,square,word_single,单词,0.26360599864925405,,,,,,,,,,0,1,1,1,0,0,0,0,0,7,7,7,,,,,,,,,,,,,,,,,,,,,,,,,,,,,,,,,,,175.83213850000175,176.03293709998252,176.0160130999866,176.3162512999843,176.3162512999843,None,176.81689929999993,None,j,1,176.81689929999993,None,None,None,177.4362417999946,None,0.600025599997025,,,,,,,,,,,,,,,,,,,,,11038,2,2,2024_Jun_18_1327,stroop_task_switching2_b,2021.2.3,59.95491390344069,
condition/block_word_b,instruction/instr_word,instruction/i9_b,蓝,white,j,square,word_single,单词,0.358985675745526,,,,,,,,,,0,1,1,1,0,0,0,0,0,8,8,8,,,,,,,,,,,,,,,,,,,,,,,,,,,,,,,,,,,178.43607279998832,178.6372384999995,178.62087240000255,178.92191370000364,178.92191370000364,None,179.42168010000023,None,j,1,179.42168010000023,None,None,None,179.93842319998657,None,0.49923069999204017,,,,,,,,,,,,,,,,,,,,,11038,2,2,2024_Jun_18_1327,stroop_task_switching2_b,2021.2.3,59.95491390344069,
condition/block_word_b,instruction/instr_word,instruction/i9_b,绿,white,d,square,word_single,单词,0.36496733802487347,,,,,,,,,,0,1,1,1,0,0,0,0,0,9,9,9,,,,,,,,,,,,,,,,,,,,,,,,,,,,,,,,,,,180.93994889999158,181.14045959999203,181.12343609999516,181.42479329998605,181.42479329998605,None,181.92466239997884,None,d,1,181.92466239997884,None,None,None,182.89296789999935,None,0.9475668999948539,,,,,,,,,,,,,,,,,,,,,11038,2,2,2024_Jun_18_1327,stroop_task_switching2_b,2021.2.3,59.95491390344069,
condition/block_word_b,instruction/instr_word,instruction/i9_b,黄,white,f,square,word_single,单词,0.3743513623756727,,,,,,,,,,0,1,1,1,0,0,0,0,0,10,10,10,,,,,,,,,,,,,,,,,,,,,,,,,,,,,,,,,,,183.89448459999403,184.09602870000526,184.07911399999284,184.37833740000497,184.37833740000497,None,184.8795651999826,None,f,1,184.8795651999826,None,None,None,185.26311569998506,None,0.36132310001994483,,,,,,,,,,,,,,,,,,,,,11038,2,2,2024_Jun_18_1327,stroop_task_switching2_b,2021.2.3,59.95491390344069,
condition/block_word_b,instruction/instr_word,instruction/i9_b,红,white,k,square,word_single,单词,0.3894803852598544,,,,,,,,,,0,1,1,1,0,0,0,0,0,11,11,11,,,,,,,,,,,,,,,,,,,,,,,,,,,,,,,,,,,186.26428719999967,186.46630000000005,186.44924689998152,186.74975560000166,186.74975560000166,None,187.24943669998902,None,k,1,187.24943669998902,None,None,None,187.8169350999815,None,0.55144890001975,,,,,,,,,,,,,,,,,,,,,11038,2,2,2024_Jun_18_1327,stroop_task_switching2_b,2021.2.3,59.95491390344069,
condition/block_word_b,instruction/instr_word,instruction/i9_b,绿,white,d,square,word_single,单词,0.5393759672408067,,,,,,,,,,0,1,1,1,0,0,0,0,0,12,12,12,,,,,,,,,,,,,,,,,,,,,,,,,,,,,,,,,,,188.81934479999472,189.01880329998676,189.0030213999853,189.30344570000307,189.30344570000307,None,189.80380309998873,None,d,1,189.80380309998873,None,None,None,190.3706836999918,None,0.5407991999818478,,,,,,,,,,,,,,,,,,,,,11038,2,2,2024_Jun_18_1327,stroop_task_switching2_b,2021.2.3,59.95491390344069,
condition/block_word_b,instruction/instr_word,instruction/i9_b,蓝,white,j,square,word_single,单词,0.5995731954831104,,,,,,,,,,0,1,1,1,0,0,0,0,0,13,13,13,,,,,,,,,,,,,,,,,,,,,,,,,,,,,,,,,,,191.37211609998485,191.573544999992,191.5571391999838,191.85626079997746,191.85626079997746,None,192.35710669998662,None,j,1,192.35710669998662,None,None,None,192.95856249998906,None,0.571713000012096,,,,,,,,,,,,,,,,,,,,,11038,2,2,2024_Jun_18_1327,stroop_task_switching2_b,2021.2.3,59.95491390344069,
condition/block_word_b,instruction/instr_word,instruction/i9_b,红,white,k,square,word_single,单词,0.6298674479151414,,,,,,,,,,0,1,1,1,0,0,0,0,0,14,14,14,,,,,,,,,,,,,,,,,,,,,,,,,,,,,,,,,,,193.95943289998104,194.16040689998772,194.14409240000532,194.4452173000027,194.4452173000027,None,194.94505159999244,None,k,1,194.94505159999244,None,None,None,196.37966799997957,None,1.4159647000196856,,,,,,,,,,,,,,,,,,,,,11038,2,2,2024_Jun_18_1327,stroop_task_switching2_b,2021.2.3,59.95491390344069,
condition/block_word_b,instruction/instr_word,instruction/i9_b,红,white,k,square,word_single,单词,0.7389942282348904,,,,,,,,,,0,1,1,1,0,0,0,0,0,15,15,15,,,,,,,,,,,,,,,,,,,,,,,,,,,,,,,,,,,197.38199809999787,197.58271149999928,197.56571609998355,197.8654714000004,197.8654714000004,None,198.36703530000523,None,k,1,198.36703530000523,None,None,None,198.78341649999493,None,0.3937797000107821,,,,,,,,,,,,,,,,,,,,,11038,2,2,2024_Jun_18_1327,stroop_task_switching2_b,2021.2.3,59.95491390344069,
condition/block_word_b,instruction/instr_word,instruction/i9_b,绿,white,d,square,word_single,单词,0.7550853947239682,,,,,,,,,,0,1,1,1,0,0,0,0,0,16,16,16,,,,,,,,,,,,,,,,,,,,,,,,,,,,,,,,,,,199.7856625999848,199.9852150999941,199.9692584000004,200.2692059999972,200.2692059999972,None,200.76985949999653,None,d,1,200.76985949999653,None,None,None,201.45398389999173,None,0.654891400015913,,,,,,,,,,,,,,,,,,,,,11038,2,2,2024_Jun_18_1327,stroop_task_switching2_b,2021.2.3,59.95491390344069,
condition/block_word_b,instruction/instr_word,instruction/i9_b,绿,white,d,square,word_single,单词,0.8019302780428206,,,,,,,,,,0,1,1,1,0,0,0,0,0,17,17,17,,,,,,,,,,,,,,,,,,,,,,,,,,,,,,,,,,,202.4571944999916,202.65594249998685,202.64006909998716,202.94066829999792,202.94066829999792,None,203.44109179999214,None,d,1,203.44109179999214,None,None,None,203.92577729999903,None,0.4555362000246532,,,,,,,,,,,,,,,,,,,,,11038,2,2,2024_Jun_18_1327,stroop_task_switching2_b,2021.2.3,59.95491390344069,
condition/block_word_b,instruction/instr_word,instruction/i9_b,绿,white,d,square,word_single,单词,0.8110702914095343,,,,,,,,,,0,1,1,1,0,0,0,0,0,18,18,18,,,,,,,,,,,,,,,,,,,,,,,,,,,,,,,,,,,204.92587779997848,205.1270332999993,205.11040789997787,205.41149559998303,205.41149559998303,None,205.91073179998784,None,d,1,205.91073179998784,None,None,None,206.37824689998524,None,0.4503314000030514,,,,,,,,,,,,,,,,,,,,,11038,2,2,2024_Jun_18_1327,stroop_task_switching2_b,2021.2.3,59.95491390344069,
condition/block_word_b,instruction/instr_word,instruction/i9_b,黄,white,f,square,word_single,单词,0.8176594937590999,,,,,,,,,,0,1,1,1,0,0,0,0,0,19,19,19,,,,,,,,,,,,,,,,,,,,,,,,,,,,,,,,,,,207.3810189999931,207.581071099994,207.56461899998249,207.86471179997898,207.86471179997898,None,208.3646185999969,None,f,1,208.3646185999969,None,None,None,208.99890449998202,None,0.6042779999843333,,,,,,,,,,,,,,,,,,,,,11038,2,2,2024_Jun_18_1327,stroop_task_switching2_b,2021.2.3,59.95491390344069,
condition/block_word_b,instruction/instr_word,instruction/i9_b,红,white,k,square,word_single,单词,0.8955794421104841,,,,,,,,,,0,1,1,1,0,0,0,0,0,20,20,20,,,,,,,,,,,,,,,,,,,,,,,,,,,,,,,,,,,210.00042899997788,210.20164729998214,210.18405489998986,210.48442399999476,210.48442399999476,None,210.98507659998722,None,k,1,210.98507659998722,None,None,None,211.61952409998048,None,0.6162371000100393,,,,,,,,,,,,,,,,,,,,,11038,2,2,2024_Jun_18_1327,stroop_task_switching2_b,2021.2.3,59.95491390344069,
condition/block_word_b,instruction/instr_word,instruction/i9_b,绿,white,d,square,word_single,单词,0.9113598052474129,,,,,,,,,,0,1,1,1,0,0,0,0,0,21,21,21,,,,,,,,,,,,,,,,,,,,,,,,,,,,,,,,,,,212.62124109998695,212.82206619999488,212.80544999998529,213.1065858999791,213.1065858999791,None,213.6057688999863,None,d,1,213.6057688999863,None,None,None,214.07320469999104,None,0.45259460000670515,,,,,,,,,,,,,,,,,,,,,11038,2,2,2024_Jun_18_1327,stroop_task_switching2_b,2021.2.3,59.95491390344069,
condition/block_word_b,instruction/instr_word,instruction/i9_b,黄,white,f,square,word_single,单词,0.9215930958042953,,,,,,,,,,0,1,1,1,0,0,0,0,0,22,22,22,,,,,,,,,,,,,,,,,,,,,,,,,,,,,,,,,,,215.07581939999363,215.27541239999118,215.25817409998854,215.55878930000472,215.54263899999205,None,216.0435581000056,None,f,1,216.0435581000056,None,None,None,216.40988399999333,None,0.3415445999999065,,,,,,,,,,,,,,,,,,,,,11038,2,2,2024_Jun_18_1327,stroop_task_switching2_b,2021.2.3,59.95491390344069,
condition/block_word_b,instruction/instr_word,instruction/i9_b,黄,white,f,square,word_single,单词,0.9493525498837774,,,,,,,,,,0,1,1,1,0,0,0,0,0,23,23,23,,,,,,,,,,,,,,,,,,,,,,,,,,,,,,,,,,,217.41272870000103,217.62858649998088,217.59489049998228,217.89759079998475,217.89759079998475,None,218.39732509999885,None,d,0,218.39732509999885,None,None,None,218.9640085999854,None,0.5483217000146396,,,,,,,,,,,,,,,,,,,,,11038,2,2,2024_Jun_18_1327,stroop_task_switching2_b,2021.2.3,59.95491390344069,
condition/block_word_b,instruction/instr_word,instruction/i9_b,,,,,,,,,,,,,,,,,0,1,1,1,0,0,0,0,,,,,,,,,,,,,,,,,,,,,,,,,,,,,,,,,,,,,,,,,,,,,,,,,,,,,,,,219.9649559999816,None,space,2.921779099997366,219.9649559999816,None,,,,,,,,,,,,,,,11038,2,2,2024_Jun_18_1327,stroop_task_switching2_b,2021.2.3,59.95491390344069,
condition/block_word_b,instruction/instr_word,instruction/i9_b,,,,,,,,,,,,,,,,,0,1,1,1,,,,,,,,,,,,,,,,,,,,,,,,,,,,,,,,,,,,,,,,,,,,,,,,,,,,,,,,,,,,,,,,,,,,,,,,,,,,,,,,11038,2,2,2024_Jun_18_1327,stroop_task_switching2_b,2021.2.3,59.95491390344069,
condition/block_mixed_b,instruction/instr_mixed,instruction/i10_b,蓝,red,k,diamond,color_mix,颜色,,incompatible,0,,,,,,,,0,2,2,2,0,0,0,0,0,0,0,0,,,,,,,,,,,,,,,,,,,,,222.93705089998548,None,space,14.986323299992364,222.93705089998548,None,238.94409899998573,239.94600299999001,239.94600299999001,240.94761370000197,240.94761370000197,None,237.96064079998177,238.9611576999887,241.98299059999408,242.18212019998464,242.16562409998733,242.46595789998537,242.46595789998537,None,242.95108509997954,245.95543109998107,None,0,242.95108509997954,245.95543109998107,245.93780729998252,None,246.50550450000446,None,,,,,,,,,,,,,,,,,,,,,,11038,2,2,2024_Jun_18_1327,stroop_task_switching2_b,2021.2.3,59.95491390344069,
condition/block_mixed_b,instruction/instr_mixed,instruction/i10_b,绿,yellow,f,diamond,color_mix,颜色,,incompatible,1,,,,,,,,0,2,2,2,0,0,0,0,0,1,1,1,,,,,,,,,,,,,,,,,,,,,,,,,,,,,,,,,,,247.50751199998194,247.70730379997985,247.6914448000025,247.99106869997922,247.99106869997922,None,248.49162049998995,None,f,1,248.49162049998995,None,None,None,249.5265989000036,None,1.0147756000224035,,,,,,,,,,,,,,,,,,,,,11038,2,2,2024_Jun_18_1327,stroop_task_switching2_b,2021.2.3,59.95491390344069,
condition/block_mixed_b,instruction/instr_mixed,instruction/i10_b,红,green,d,diamond,color_mix,颜色,,incompatible,1,,,,,,,,0,2,2,2,0,0,0,0,0,2,2,2,,,,,,,,,,,,,,,,,,,,,,,,,,,,,,,,,,,250.52845220000017,250.72968329998548,250.71176760000526,251.01237079998828,251.01237079998828,None,251.51288619998377,None,d,1,251.51288619998377,None,None,None,252.36428059998434,None,0.8333342000260018,,,,,,,,,,,,,,,,,,,,,11038,2,2,2024_Jun_18_1327,stroop_task_switching2_b,2021.2.3,59.95491390344069,
condition/block_mixed_b,instruction/instr_mixed,instruction/i10_b,蓝,red,k,diamond,color_mix,颜色,,incompatible,1,,,,,,,,0,2,2,2,0,0,0,0,0,3,3,3,,,,,,,,,,,,,,,,,,,,,,,,,,,,,,,,,,,253.36658819997683,253.56664819997968,253.55030239999178,253.85008780000499,253.85008780000499,None,254.35130059998482,None,k,1,254.35130059998482,None,None,None,255.3696093999897,None,1.0030440999835264,,,,,,,,,,,,,,,,,,,,,11038,2,2,2024_Jun_18_1327,stroop_task_switching2_b,2021.2.3,59.95491390344069,
condition/block_mixed_b,instruction/instr_mixed,instruction/i10_b,红,blue,j,diamond,color_mix,颜色,,incompatible,1,,,,,,,,0,2,2,2,0,0,0,0,0,4,4,4,,,,,,,,,,,,,,,,,,,,,,,,,,,,,,,,,,,256.3711335999833,256.5714522000053,256.55527079998865,256.85455659998115,256.85455659998115,None,257.35505589999957,None,j,1,257.35505589999957,None,None,None,257.9560182999994,None,0.5752221000147983,,,,,,,,,,,,,,,,,,,,,11038,2,2,2024_Jun_18_1327,stroop_task_switching2_b,2021.2.3,59.95491390344069,
condition/block_mixed_b,instruction/instr_mixed,instruction/i10_b,红,blue,k,square,color_mix,单词,,incompatible,2,,,,,,,,0,2,2,2,0,0,0,0,0,5,5,5,,,,,,,,,,,,,,,,,,,,,,,,,,,,,,,,,,,258.9574789000035,259.15795019999496,259.14205329999095,259.44163659997866,259.44163659997866,None,259.9424044000043,None,k,1,259.9424044000043,None,None,None,261.1281846000056,None,1.1558113000064623,,,,,,,,,,,,,,,,,,,,,11038,2,2,2024_Jun_18_1327,stroop_task_switching2_b,2021.2.3,59.95491390344069,
condition/block_mixed_b,instruction/instr_mixed,instruction/i10_b,红,yellow,f,diamond,color_mix,颜色,,incompatible,2,,,,,,,,0,2,2,2,0,0,0,0,0,6,6,6,,,,,,,,,,,,,,,,,,,,,,,,,,,,,,,,,,,262.12916119999136,262.3301627000037,262.31355779999285,262.6133668999828,262.6133668999828,None,263.1144667000044,None,k,0,263.1144667000044,None,None,None,264.5338385999785,None,1.4003886000136845,,,,,,,,,,,,,,,,,,,,,11038,2,2,2024_Jun_18_1327,stroop_task_switching2_b,2021.2.3,59.95491390344069,
condition/block_mixed_b,instruction/instr_mixed,instruction/i10_b,红,yellow,k,square,color_mix,单词,,incompatible,2,,,,,,,,0,2,2,2,0,0,0,0,0,7,7,7,,,,,,,,,,,,,,,,,,,,,,,,,,,,,,,,,,,265.53425649998826,265.7349263999786,265.7184624999936,266.01823359998525,266.01823359998525,None,266.51893089999794,None,k,1,266.51893089999794,None,None,None,267.1532034999982,None,0.6120126000023447,,,,,,,,,,,,,,,,,,,,,11038,2,2,2024_Jun_18_1327,stroop_task_switching2_b,2021.2.3,59.95491390344069,
condition/block_mixed_b,instruction/instr_mixed,instruction/i10_b,绿,blue,d,square,color_mix,单词,,incompatible,1,,,,,,,,0,2,2,2,0,0,0,0,0,8,8,8,,,,,,,,,,,,,,,,,,,,,,,,,,,,,,,,,,,268.1555878999934,268.35558760000276,268.33932489997824,268.6404609000019,268.6404609000019,None,269.1393018999952,None,d,1,269.1393018999952,None,None,None,269.80732639998314,None,0.6396663000050467,,,,,,,,,,,,,,,,,,,,,11038,2,2,2024_Jun_18_1327,stroop_task_switching2_b,2021.2.3,59.95491390344069,
condition/block_mixed_b,instruction/instr_mixed,instruction/i10_b,蓝,green,d,diamond,color_mix,颜色,,incompatible,2,,,,,,,,0,2,2,2,0,0,0,0,0,9,9,9,,,,,,,,,,,,,,,,,,,,,,,,,,,,,,,,,,,270.8088115999999,271.0089332999778,270.9922665999911,271.294762000005,271.294762000005,None,271.79362630000105,None,j,0,271.79362630000105,None,None,None,272.3611430999881,None,0.553664300008677,,,,,,,,,,,,,,,,,,,,,11038,2,2,2024_Jun_18_1327,stroop_task_switching2_b,2021.2.3,59.95491390344069,
condition/block_mixed_b,instruction/instr_mixed,instruction/i10_b,蓝,yellow,j,square,color_mix,单词,,incompatible,2,,,,,,,,0,2,2,2,0,0,0,0,0,10,10,10,,,,,,,,,,,,,,,,,,,,,,,,,,,,,,,,,,,273.36253289997694,273.56283260000055,273.54659309997805,273.8472388999944,273.8472388999944,None,274.3482626999903,None,k,0,274.3482626999903,None,None,None,276.08346339999116,None,1.7186624000023585,,,,,,,,,,,,,,,,,,,,,11038,2,2,2024_Jun_18_1327,stroop_task_switching2_b,2021.2.3,59.95491390344069,
condition/block_mixed_b,instruction/instr_mixed,instruction/i10_b,蓝,green,j,square,color_mix,单词,,incompatible,1,,,,,,,,0,2,2,2,0,0,0,0,0,11,11,11,,,,,,,,,,,,,,,,,,,,,,,,,,,,,,,,,,,277.08586099999957,277.2856266000017,277.26867109999876,277.56974829998217,277.56974829998217,None,278.07058919998235,None,j,1,278.07058919998235,None,None,None,278.7707156999968,None,0.6683160000247881,,,,,,,,,,,,,,,,,,,,,11038,2,2,2024_Jun_18_1327,stroop_task_switching2_b,2021.2.3,59.95491390344069,
condition/block_mixed_b,instruction/instr_mixed,instruction/i10_b,绿,yellow,d,square,color_mix,单词,,incompatible,1,,,,,,,,0,2,2,2,0,0,0,0,0,12,12,12,,,,,,,,,,,,,,,,,,,,,,,,,,,,,,,,,,,279.77246659999946,279.97389649998513,279.95649319997756,280.25747829998727,280.25747829998727,None,280.7583886999928,None,d,1,280.7583886999928,None,None,None,281.74293300000136,None,0.9647355999913998,,,,,,,,,,,,,,,,,,,,,11038,2,2,2024_Jun_18_1327,stroop_task_switching2_b,2021.2.3,59.95491390344069,
condition/block_mixed_b,instruction/instr_mixed,instruction/i10_b,绿,blue,j,diamond,color_mix,颜色,,incompatible,2,,,,,,,,0,2,2,2,0,0,0,0,0,13,13,13,,,,,,,,,,,,,,,,,,,,,,,,,,,,,,,,,,,282.74403569998685,282.9437939999916,282.92885009999736,283.2289725999872,283.2289725999872,None,283.7282090999943,None,j,1,283.7282090999943,None,None,None,284.7640868999879,None,1.0107643000083044,,,,,,,,,,,,,,,,,,,,,11038,2,2,2024_Jun_18_1327,stroop_task_switching2_b,2021.2.3,59.95491390344069,
condition/block_mixed_b,instruction/instr_mixed,instruction/i10_b,黄,red,f,square,color_mix,单词,,incompatible,2,,,,,,,,0,2,2,2,0,0,0,0,0,14,14,14,,,,,,,,,,,,,,,,,,,,,,,,,,,,,,,,,,,285.76457859997754,285.96586949998164,285.9482078999863,286.2492054000031,286.2492054000031,None,286.7503233999887,None,f,1,286.7503233999887,None,None,None,288.2352333999879,None,1.460777500004042,,,,,,,,,,,,,,,,,,,,,11038,2,2,2024_Jun_18_1327,stroop_task_switching2_b,2021.2.3,59.95491390344069,
condition/block_mixed_b,instruction/instr_mixed,instruction/i10_b,蓝,yellow,f,diamond,color_mix,颜色,,incompatible,2,,,,,,,,0,2,2,2,0,0,0,0,0,15,15,15,,,,,,,,,,,,,,,,,,,,,,,,,,,,,,,,,,,289.2364726999949,289.4376696999825,289.4207363000023,289.72161399998004,289.72161399998004,None,290.2213346999779,None,f,1,290.2213346999779,None,None,None,291.87528159999056,None,1.622494299983373,,,,,,,,,,,,,,,,,,,,,11038,2,2,2024_Jun_18_1327,stroop_task_switching2_b,2021.2.3,59.95491390344069,
condition/block_mixed_b,instruction/instr_mixed,instruction/i10_b,黄,red,k,diamond,color_mix,颜色,,incompatible,1,,,,,,,,0,2,2,2,0,0,0,0,0,16,16,16,,,,,,,,,,,,,,,,,,,,,,,,,,,,,,,,,,,292.87582419998944,293.0756140000012,293.0597884999879,293.3608802999952,293.3608802999952,None,293.8611391999875,None,k,1,293.8611391999875,None,None,None,294.79542449998553,None,0.9101660999876913,,,,,,,,,,,,,,,,,,,,,11038,2,2,2024_Jun_18_1327,stroop_task_switching2_b,2021.2.3,59.95491390344069,
condition/block_mixed_b,instruction/instr_mixed,instruction/i10_b,绿,red,d,square,color_mix,单词,,incompatible,2,,,,,,,,0,2,2,2,0,0,0,0,0,17,17,17,,,,,,,,,,,,,,,,,,,,,,,,,,,,,,,,,,,295.79694450000534,295.99705529998755,295.98172579999664,296.2815355999919,296.2815355999919,None,296.7813606999989,None,d,1,296.7813606999989,None,None,None,297.43234339999617,None,0.6217286000028253,,,,,,,,,,,,,,,,,,,,,11038,2,2,2024_Jun_18_1327,stroop_task_switching2_b,2021.2.3,59.95491390344069,
condition/block_mixed_b,instruction/instr_mixed,instruction/i10_b,红,green,k,square,color_mix,单词,,incompatible,1,,,,,,,,0,2,2,2,0,0,0,0,0,18,18,18,,,,,,,,,,,,,,,,,,,,,,,,,,,,,,,,,,,298.4343514999782,298.6355596999929,298.61767639999744,298.9178090999776,298.9178090999776,None,299.41946839998127,None,k,1,299.41946839998127,None,None,None,299.98596219997853,None,0.551867600006517,,,,,,,,,,,,,,,,,,,,,11038,2,2,2024_Jun_18_1327,stroop_task_switching2_b,2021.2.3,59.95491390344069,
condition/block_mixed_b,instruction/instr_mixed,instruction/i10_b,黄,blue,j,diamond,color_mix,颜色,,incompatible,2,,,,,,,,0,2,2,2,0,0,0,0,0,19,19,19,,,,,,,,,,,,,,,,,,,,,,,,,,,,,,,,,,,300.9876486999856,301.1884329000022,301.172594499978,301.47149629998603,301.47149629998603,None,301.9722831999825,None,j,1,301.9722831999825,None,None,None,302.873642999999,None,0.87949409999419,,,,,,,,,,,,,,,,,,,,,11038,2,2,2024_Jun_18_1327,stroop_task_switching2_b,2021.2.3,59.95491390344069,
condition/block_mixed_b,instruction/instr_mixed,instruction/i10_b,黄,green,d,diamond,color_mix,颜色,,incompatible,1,,,,,,,,0,2,2,2,0,0,0,0,0,20,20,20,,,,,,,,,,,,,,,,,,,,,,,,,,,,,,,,,,,303.8753606999817,304.07626489998074,304.0597496999835,304.3612915999838,304.3612915999838,None,304.8774397999805,None,d,1,304.8774397999805,None,None,None,305.87829599998076,None,0.9824445999984164,,,,,,,,,,,,,,,,,,,,,11038,2,2,2024_Jun_18_1327,stroop_task_switching2_b,2021.2.3,59.95491390344069,
condition/block_mixed_b,instruction/instr_mixed,instruction/i10_b,黄,green,f,square,color_mix,单词,,incompatible,2,,,,,,,,0,2,2,2,0,0,0,0,0,21,21,21,,,,,,,,,,,,,,,,,,,,,,,,,,,,,,,,,,,306.8798256999871,307.0800834999827,307.0634209999989,307.364531899977,307.364531899977,None,307.8657015999779,None,f,1,307.8657015999779,None,None,None,308.46570599998813,None,0.5858460000017658,,,,,,,,,,,,,,,,,,,,,11038,2,2,2024_Jun_18_1327,stroop_task_switching2_b,2021.2.3,59.95491390344069,
condition/block_mixed_b,instruction/instr_mixed,instruction/i10_b,黄,blue,f,square,color_mix,单词,,incompatible,1,,,,,,,,0,2,2,2,0,0,0,0,0,22,22,22,,,,,,,,,,,,,,,,,,,,,,,,,,,,,,,,,,,309.4668466000003,309.668070899992,309.65196019998984,309.9531252000015,309.9531252000015,None,310.4696994999831,None,f,1,310.4696994999831,None,None,None,311.0027416999801,None,0.5179931999882683,,,,,,,,,,,,,,,,,,,,,11038,2,2,2024_Jun_18_1327,stroop_task_switching2_b,2021.2.3,59.95491390344069,
condition/block_mixed_b,instruction/instr_mixed,instruction/i10_b,蓝,red,j,square,color_mix,单词,,incompatible,1,,,,,,,,0,2,2,2,0,0,0,0,0,23,23,23,,,,,,,,,,,,,,,,,,,,,,,,,,,,,,,,,,,312.00413299998036,312.2044939000043,312.188728499983,312.48809349999647,312.48809349999647,None,312.99028080000426,None,j,1,312.99028080000426,None,None,None,313.5566402999975,None,0.5499688999843784,,,,,,,,,,,,,,,,,,,,,11038,2,2,2024_Jun_18_1327,stroop_task_switching2_b,2021.2.3,59.95491390344069,
condition/block_mixed_b,instruction/instr_mixed,instruction/i10_b,绿,red,k,diamond,color_mix,颜色,,incompatible,2,,,,,,,,0,2,2,2,0,0,0,0,0,24,24,24,,,,,,,,,,,,,,,,,,,,,,,,,,,,,,,,,,,314.5580738999997,314.75936450000154,314.74168779997854,315.04330109999864,315.04330109999864,None,315.54420899998513,None,k,1,315.54420899998513,None,None,None,316.6945895999961,None,1.1314046999905258,,,,,,,,,,,,,,,,,,,,,11038,2,2,2024_Jun_18_1327,stroop_task_switching2_b,2021.2.3,59.95491390344069,
condition/block_mixed_b,instruction/instr_mixed,instruction/i10_b,绿,green,d,diamond,color_mix,颜色,,compatible,1,,,,,,,,0,2,2,2,0,0,0,0,0,25,25,25,,,,,,,,,,,,,,,,,,,,,,,,,,,,,,,,,,,317.69615089998115,317.89829319997807,317.8798283999786,318.1819080999994,318.1819080999994,None,318.6812408999831,None,d,1,318.6812408999831,None,None,None,319.23260389998904,None,0.5229195000138134,,,,,,,,,,,,,,,,,,,,,11038,2,2,2024_Jun_18_1327,stroop_task_switching2_b,2021.2.3,59.95491390344069,
condition/block_mixed_b,instruction/instr_mixed,instruction/i10_b,蓝,blue,j,diamond,color_mix,颜色,,compatible,1,,,,,,,,0,2,2,2,0,0,0,0,0,26,26,26,,,,,,,,,,,,,,,,,,,,,,,,,,,,,,,,,,,320.23365429998375,320.4346052999899,320.4185035999981,320.7338852999965,320.71845519999624,None,321.2182615000056,None,j,1,321.2182615000056,None,None,None,321.8858724999882,None,0.6426687000202946,,,,,,,,,,,,,,,,,,,,,11038,2,2,2024_Jun_18_1327,stroop_task_switching2_b,2021.2.3,59.95491390344069,
condition/block_mixed_b,instruction/instr_mixed,instruction/i10_b,绿,green,d,square,color_mix,单词,,compatible,2,,,,,,,,0,2,2,2,0,0,0,0,0,27,27,27,,,,,,,,,,,,,,,,,,,,,,,,,,,,,,,,,,,322.8873667999869,323.08838309999555,323.07197989997803,323.37191950000124,323.37191950000124,None,323.872149599978,None,d,1,323.872149599978,None,None,None,324.48983039997984,None,0.5959755000076257,,,,,,,,,,,,,,,,,,,,,11038,2,2,2024_Jun_18_1327,stroop_task_switching2_b,2021.2.3,59.95491390344069,
condition/block_mixed_b,instruction/instr_mixed,instruction/i10_b,绿,green,d,square,color_mix,单词,,compatible,1,,,,,,,,0,2,2,2,0,0,0,0,0,28,28,28,,,,,,,,,,,,,,,,,,,,,,,,,,,,,,,,,,,325.4920648999978,325.6927109999815,325.67621760000475,325.9769243999908,325.9769243999908,None,326.47588869999163,None,d,1,326.47588869999163,None,None,None,327.02740679998533,None,0.520503000007011,,,,,,,,,,,,,,,,,,,,,11038,2,2,2024_Jun_18_1327,stroop_task_switching2_b,2021.2.3,59.95491390344069,
condition/block_mixed_b,instruction/instr_mixed,instruction/i10_b,蓝,blue,j,square,color_mix,单词,,compatible,1,,,,,,,,0,2,2,2,0,0,0,0,0,29,29,29,,,,,,,,,,,,,,,,,,,,,,,,,,,,,,,,,,,328.0286111999885,328.22953719997895,328.2116393999895,328.51276129999314,328.51276129999314,None,329.0132814999961,None,j,1,329.0132814999961,None,None,None,329.5147755999933,None,0.47146120000979863,,,,,,,,,,,,,,,,,,,,,11038,2,2,2024_Jun_18_1327,stroop_task_switching2_b,2021.2.3,59.95491390344069,
condition/block_mixed_b,instruction/instr_mixed,instruction/i10_b,黄,yellow,f,diamond,color_mix,颜色,,compatible,2,,,,,,,,0,2,2,2,0,0,0,0,0,30,30,30,,,,,,,,,,,,,,,,,,,,,,,,,,,,,,,,,,,330.51612499999464,330.71668599999975,330.6996231999947,331.00057919998653,331.00057919998653,None,331.50009719998343,None,f,1,331.50009719998343,None,None,None,332.168016599986,None,0.640183799987426,,,,,,,,,,,,,,,,,,,,,11038,2,2,2024_Jun_18_1327,stroop_task_switching2_b,2021.2.3,59.95491390344069,
condition/block_mixed_b,instruction/instr_mixed,instruction/i10_b,绿,green,d,square,color_mix,单词,,compatible,2,,,,,,,,0,2,2,2,0,0,0,0,0,31,31,31,,,,,,,,,,,,,,,,,,,,,,,,,,,,,,,,,,,333.1694623999938,333.3697692999849,333.3531742999912,333.654194999981,333.654194999981,None,334.1549441999814,None,d,1,334.1549441999814,None,None,None,334.67188549999264,None,0.49784889997681603,,,,,,,,,,,,,,,,,,,,,11038,2,2,2024_Jun_18_1327,stroop_task_switching2_b,2021.2.3,59.95491390344069,
condition/block_mixed_b,instruction/instr_mixed,instruction/i10_b,黄,yellow,f,square,color_mix,单词,,compatible,1,,,,,,,,0,2,2,2,0,0,0,0,0,32,32,32,,,,,,,,,,,,,,,,,,,,,,,,,,,,,,,,,,,335.67401119999704,335.87480319998576,335.8569290000014,336.1581665999838,336.1581665999838,None,336.6580111999938,None,f,1,336.6580111999938,None,None,None,337.3423023999785,None,0.658325700002024,,,,,,,,,,,,,,,,,,,,,11038,2,2,2024_Jun_18_1327,stroop_task_switching2_b,2021.2.3,59.95491390344069,
condition/block_mixed_b,instruction/instr_mixed,instruction/i10_b,绿,green,d,diamond,color_mix,颜色,,compatible,2,,,,,,,,0,2,2,2,0,0,0,0,0,33,33,33,,,,,,,,,,,,,,,,,,,,,,,,,,,,,,,,,,,338.3440216000017,338.54530899997917,338.5276808000053,338.8286366999964,338.8286366999964,None,339.3288290000055,None,d,1,339.3288290000055,None,None,None,339.9129074999946,None,0.5638913000002503,,,,,,,,,,,,,,,,,,,,,11038,2,2,2024_Jun_18_1327,stroop_task_switching2_b,2021.2.3,59.95491390344069,
condition/block_mixed_b,instruction/instr_mixed,instruction/i10_b,红,red,k,square,color_mix,单词,,compatible,2,,,,,,,,0,2,2,2,0,0,0,0,0,34,34,34,,,,,,,,,,,,,,,,,,,,,,,,,,,,,,,,,,,340.9146455999871,341.11476029999903,341.0981239999819,341.3999509999994,341.3999509999994,None,341.8992711000028,None,k,1,341.8992711000028,None,None,None,342.65040839998983,None,0.721118400018895,,,,,,,,,,,,,,,,,,,,,11038,2,2,2024_Jun_18_1327,stroop_task_switching2_b,2021.2.3,59.95491390344069,
condition/block_mixed_b,instruction/instr_mixed,instruction/i10_b,黄,yellow,f,square,color_mix,单词,,compatible,1,,,,,,,,0,2,2,2,0,0,0,0,0,35,35,35,,,,,,,,,,,,,,,,,,,,,,,,,,,,,,,,,,,343.65259899999364,343.8529838999966,343.8360235999862,344.1366671999858,344.1366671999858,None,344.63760170000023,None,f,1,344.63760170000023,None,None,None,345.488168699987,None,0.8314969000057317,,,,,,,,,,,,,,,,,,,,,11038,2,2,2024_Jun_18_1327,stroop_task_switching2_b,2021.2.3,59.95491390344069,
condition/block_mixed_b,instruction/instr_mixed,instruction/i10_b,绿,green,d,diamond,color_mix,颜色,,compatible,2,,,,,,,,0,2,2,2,0,0,0,0,0,36,36,36,,,,,,,,,,,,,,,,,,,,,,,,,,,,,,,,,,,346.4896558999899,346.69238209998,346.6738824999775,346.9736658000038,346.9736658000038,None,347.47488500000327,None,d,1,347.47488500000327,None,None,None,348.04288429999724,None,0.5460267000016756,,,,,,,,,,,,,,,,,,,,,11038,2,2,2024_Jun_18_1327,stroop_task_switching2_b,2021.2.3,59.95491390344069,
condition/block_mixed_b,instruction/instr_mixed,instruction/i10_b,蓝,blue,j,square,color_mix,单词,,compatible,2,,,,,,,,0,2,2,2,0,0,0,0,0,37,37,37,,,,,,,,,,,,,,,,,,,,,,,,,,,,,,,,,,,349.0439562999818,349.2448100000038,349.2280019999889,349.527883200004,349.527883200004,None,350.0294287999859,None,j,1,350.0294287999859,None,None,None,350.6458913999959,None,0.5998732000007294,,,,,,,,,,,,,,,,,,,,,11038,2,2,2024_Jun_18_1327,stroop_task_switching2_b,2021.2.3,59.95491390344069,
condition/block_mixed_b,instruction/instr_mixed,instruction/i10_b,红,red,k,square,color_mix,单词,,compatible,1,,,,,,,,0,2,2,2,0,0,0,0,0,38,38,38,,,,,,,,,,,,,,,,,,,,,,,,,,,,,,,,,,,351.64752769999905,351.8498145999911,351.8318946999789,352.13225460000103,352.13225460000103,None,352.6322590999771,None,d,0,352.6322590999771,None,None,None,353.18306349997874,None,0.5332389999821316,,,,,,,,,,,,,,,,,,,,,11038,2,2,2024_Jun_18_1327,stroop_task_switching2_b,2021.2.3,59.95491390344069,
condition/block_mixed_b,instruction/instr_mixed,instruction/i10_b,黄,yellow,f,diamond,color_mix,颜色,,compatible,2,,,,,,,,0,2,2,2,0,0,0,0,0,39,39,39,,,,,,,,,,,,,,,,,,,,,,,,,,,,,,,,,,,354.1850762999966,354.3858171000029,354.3689361999859,354.6693821999943,354.6693821999943,None,355.1691159000038,None,f,1,355.1691159000038,None,None,None,355.8541162000038,None,0.6598606999905314,,,,,,,,,,,,,,,,,,,,,11038,2,2,2024_Jun_18_1327,stroop_task_switching2_b,2021.2.3,59.95491390344069,
condition/block_mixed_b,instruction/instr_mixed,instruction/i10_b,黄,yellow,f,square,color_mix,单词,,compatible,2,,,,,,,,0,2,2,2,0,0,0,0,0,40,40,40,,,,,,,,,,,,,,,,,,,,,,,,,,,,,,,,,,,356.8560385000019,357.05733979999786,357.03878989999066,357.33932769999956,357.33932769999956,None,357.8398835999833,None,f,1,357.8398835999833,None,None,None,358.5244968000043,None,0.6612161000084598,,,,,,,,,,,,,,,,,,,,,11038,2,2,2024_Jun_18_1327,stroop_task_switching2_b,2021.2.3,59.95491390344069,
condition/block_mixed_b,instruction/instr_mixed,instruction/i10_b,蓝,blue,j,square,color_mix,单词,,compatible,1,,,,,,,,0,2,2,2,0,0,0,0,0,41,41,41,,,,,,,,,,,,,,,,,,,,,,,,,,,,,,,,,,,359.52595499999006,359.7281834000023,359.70982170000207,360.010391799995,360.010391799995,None,360.511560599989,None,j,1,360.511560599989,None,None,None,361.07814609998604,None,0.5501538999960758,,,,,,,,,,,,,,,,,,,,,11038,2,2,2024_Jun_18_1327,stroop_task_switching2_b,2021.2.3,59.95491390344069,
condition/block_mixed_b,instruction/instr_mixed,instruction/i10_b,蓝,blue,j,diamond,color_mix,颜色,,compatible,2,,,,,,,,0,2,2,2,0,0,0,0,0,42,42,42,,,,,,,,,,,,,,,,,,,,,,,,,,,,,,,,,,,362.07996209998964,362.2803678000055,362.2645085999975,362.56412909997744,362.56412909997744,None,363.0650241999829,None,j,1,363.0650241999829,None,None,None,363.8157371999987,None,0.7324811999860685,,,,,,,,,,,,,,,,,,,,,11038,2,2,2024_Jun_18_1327,stroop_task_switching2_b,2021.2.3,59.95491390344069,
condition/block_mixed_b,instruction/instr_mixed,instruction/i10_b,黄,yellow,f,diamond,color_mix,颜色,,compatible,1,,,,,,,,0,2,2,2,0,0,0,0,0,43,43,43,,,,,,,,,,,,,,,,,,,,,,,,,,,,,,,,,,,364.81719939998584,365.0185402999923,365.0008739999903,365.3017956999829,365.3017956999829,None,365.8027933999838,None,f,1,365.8027933999838,None,None,None,368.3894481000025,None,2.5625972999841906,,,,,,,,,,,,,,,,,,,,,11038,2,2,2024_Jun_18_1327,stroop_task_switching2_b,2021.2.3,59.95491390344069,
condition/block_mixed_b,instruction/instr_mixed,instruction/i10_b,红,red,k,diamond,color_mix,颜色,,compatible,1,,,,,,,,0,2,2,2,0,0,0,0,0,44,44,44,,,,,,,,,,,,,,,,,,,,,,,,,,,,,,,,,,,369.3915589999815,369.5929455999867,369.5748425999773,369.8757807999791,369.8757807999791,None,370.3761978999828,None,d,0,370.3761978999828,None,None,None,370.87681739998516,None,0.4852811000018846,,,,,,,,,,,,,,,,,,,,,11038,2,2,2024_Jun_18_1327,stroop_task_switching2_b,2021.2.3,59.95491390344069,
condition/block_mixed_b,instruction/instr_mixed,instruction/i10_b,蓝,blue,j,diamond,color_mix,颜色,,compatible,1,,,,,,,,0,2,2,2,0,0,0,0,0,45,45,45,,,,,,,,,,,,,,,,,,,,,,,,,,,,,,,,,,,371.8787623999815,372.0789122999995,372.063150699978,372.3625720999844,372.3625720999844,None,372.8626159999985,None,j,1,372.8626159999985,None,None,None,373.48162720000255,None,0.599270400009118,,,,,,,,,,,,,,,,,,,,,11038,2,2,2024_Jun_18_1327,stroop_task_switching2_b,2021.2.3,59.95491390344069,
condition/block_mixed_b,instruction/instr_mixed,instruction/i10_b,红,red,k,diamond,color_mix,颜色,,compatible,1,,,,,,,,0,2,2,2,0,0,0,0,0,46,46,46,,,,,,,,,,,,,,,,,,,,,,,,,,,,,,,,,,,374.48252649998176,374.6828203999903,374.66598649998195,374.96830739997677,374.96830739997677,None,375.4843872000056,None,k,1,375.4843872000056,None,None,None,376.1340845999948,None,0.6250306000001729,,,,,,,,,,,,,,,,,,,,,11038,2,2,2024_Jun_18_1327,stroop_task_switching2_b,2021.2.3,59.95491390344069,
condition/block_mixed_b,instruction/instr_mixed,instruction/i10_b,红,red,k,square,color_mix,单词,,compatible,2,,,,,,,,0,2,2,2,0,0,0,0,0,47,47,47,,,,,,,,,,,,,,,,,,,,,,,,,,,,,,,,,,,377.13624639998307,377.3360180000018,377.3193453999993,377.6217177999788,377.6217177999788,None,378.1220062999928,None,k,1,378.1220062999928,None,None,None,378.63779779998004,None,0.49977599998237565,,,,,,,,,,,,,,,,,,,,,11038,2,2,2024_Jun_18_1327,stroop_task_switching2_b,2021.2.3,59.95491390344069,
condition/block_mixed_b,instruction/instr_mixed,instruction/i10_b,红,red,k,diamond,color_mix,颜色,,compatible,2,,,,,,,,0,2,2,2,0,0,0,0,0,48,48,48,,,,,,,,,,,,,,,,,,,,,,,,,,,,,,,,,,,379.6400973999989,379.8407426000049,379.8231361999933,380.124416799983,380.124416799983,None,380.62454039999284,None,k,1,380.62454039999284,None,None,None,381.0917680999846,None,0.4453710000088904,,,,,,,,,,,,,,,,,,,,,11038,2,2,2024_Jun_18_1327,stroop_task_switching2_b,2021.2.3,59.95491390344069,
condition/block_mixed_b,instruction/instr_mixed,instruction/i10_b,,,,,,,,,,,,,,,,,0,2,2,2,0,0,0,0,,,,,,,,,,,,,,,,,,,,,,,,,,,,,,,,,,,,,,,,,,,,,,,,,,,,,,,,382.0932430999819,None,space,18.542478499992285,382.0932430999819,None,,,,,,,,,,,,,,,11038,2,2,2024_Jun_18_1327,stroop_task_switching2_b,2021.2.3,59.95491390344069,
condition/block_mixed_b,instruction/instr_mixed,instruction/i10_b,,,,,,,,,,,,,,,,,0,2,2,2,,,,,,,,,,,,,,,,,,,,,,,,,,,,,,,,,,,,,,,,,,,,,,,,,,,,,,,,,,,,,,,,,,,,,,,,,,,,,,,,11038,2,2,2024_Jun_18_1327,stroop_task_switching2_b,2021.2.3,59.95491390344069,
,,,红,red,k,square,color_mix,单词,,compatible,0,block_switch1_b,instruction/ready_test.png,instruction/i11.png,,,,,,,,,,,,,,,,,0,0,0,0,0,0,0,0,,,,,,,,,,,,,,,,,,,428.1469300999888,429.1479797999782,429.1479797999782,430.1508122999803,430.1508122999803,None,427.1611856999807,428.16331259999424,431.18464949997724,431.3840659999987,431.36810789999436,431.6688170999987,431.6688170999987,None,432.1693032000039,None,d,0,432.1693032000039,None,None,None,,,0.638324699975783,,,,,,,400.7044098000042,None,space,26.438332700025057,400.7044098000042,None,,,,,,,,,11038,2,2,2024_Jun_18_1327,stroop_task_switching2_b,2021.2.3,59.95491390344069,
,,,绿,green,d,diamond,color_mix,颜色,,compatible,2,block_switch1_b,instruction/ready_test.png,instruction/i11.png,,,,,,,,,,,,,,,,,0,0,0,0,0,1,1,1,,,,,,,,,,,,,,,,,,,,,,,,,,,432.8366465999861,433.0371264999849,433.0199616999889,433.3212974999915,433.3212974999915,None,433.8224640999979,None,d,1,433.8224640999979,None,None,None,,,0.6407491999852937,,,,,,,,,,,,,,,,,,,,,11038,2,2,2024_Jun_18_1327,stroop_task_switching2_b,2021.2.3,59.95491390344069,
,,,绿,yellow,f,diamond,color_mix,颜色,,incompatible,1,block_switch1_b,instruction/ready_test.png,instruction/i11.png,,,,,,,,,,,,,,,,,0,0,0,0,0,2,2,2,,,,,,,,,,,,,,,,,,,,,,,,,,,434.48979049999616,434.69094020000193,434.6729722000018,434.9739032999787,434.9739032999787,None,435.47436500000185,None,d,0,435.47436500000185,None,None,None,,,0.6690281000046525,,,,,,,,,,,,,,,,,,,,,11038,2,2,2024_Jun_18_1327,stroop_task_switching2_b,2021.2.3,59.95491390344069,
,,,蓝,blue,j,diamond,color_mix,颜色,,compatible,1,block_switch1_b,instruction/ready_test.png,instruction/i11.png,,,,,,,,,,,,,,,,,0,0,0,0,0,3,3,3,,,,,,,,,,,,,,,,,,,,,,,,,,,436.15813519997755,436.3592706999916,436.3434510999941,436.64305529999547,436.64305529999547,None,437.14386179999565,None,j,1,437.14386179999565,None,None,None,,,0.8155999000009615,,,,,,,,,,,,,,,,,,,,,11038,2,2,2024_Jun_18_1327,stroop_task_switching2_b,2021.2.3,59.95491390344069,
,,,绿,green,d,square,color_mix,单词,,compatible,2,block_switch1_b,instruction/ready_test.png,instruction/i11.png,,,,,,,,,,,,,,,,,0,0,0,0,0,4,4,4,,,,,,,,,,,,,,,,,,,,,,,,,,,437.97746349999215,438.17853779997677,438.1609983999806,438.4631776000024,438.4631776000024,None,438.9630722999864,None,d,1,438.9630722999864,None,None,None,,,0.5643208999827038,,,,,,,,,,,,,,,,,,,,,11038,2,2,2024_Jun_18_1327,stroop_task_switching2_b,2021.2.3,59.95491390344069,
,,,绿,blue,j,diamond,color_mix,颜色,,incompatible,2,block_switch1_b,instruction/ready_test.png,instruction/i11.png,,,,,,,,,,,,,,,,,0,0,0,0,0,5,5,5,,,,,,,,,,,,,,,,,,,,,,,,,,,439.54649999999674,439.74796290000086,439.7309406999848,440.0314996999805,440.0314996999805,None,440.5323599999829,None,j,1,440.5323599999829,None,None,None,,,0.7307033999823034,,,,,,,,,,,,,,,,,,,,,11038,2,2,2024_Jun_18_1327,stroop_task_switching2_b,2021.2.3,59.95491390344069,
,,,黄,red,f,square,color_mix,单词,,incompatible,2,block_switch1_b,instruction/ready_test.png,instruction/i11.png,,,,,,,,,,,,,,,,,0,0,0,0,0,6,6,6,,,,,,,,,,,,,,,,,,,,,,,,,,,441.2825821999868,441.48428959999,441.46638119997806,441.76834979999694,441.76834979999694,None,442.2675912999839,None,f,1,442.2675912999839,None,None,None,,,0.6521868999989238,,,,,,,,,,,,,,,,,,,,,11038,2,2,2024_Jun_18_1327,stroop_task_switching2_b,2021.2.3,59.95491390344069,
,,,绿,green,d,square,color_mix,单词,,compatible,1,block_switch1_b,instruction/ready_test.png,instruction/i11.png,,,,,,,,,,,,,,,,,0,0,0,0,0,7,7,7,,,,,,,,,,,,,,,,,,,,,,,,,,,442.9350234000012,443.1356688999804,443.1186164999963,443.42155249998905,443.42155249998905,None,443.9204480999906,None,d,1,443.9204480999906,None,None,None,,,0.46329150002566166,,,,,,,,,,,,,,,,,,,,,11038,2,2,2024_Jun_18_1327,stroop_task_switching2_b,2021.2.3,59.95491390344069,
,,,蓝,blue,j,square,color_mix,单词,,compatible,1,block_switch1_b,instruction/ready_test.png,instruction/i11.png,,,,,,,,,,,,,,,,,0,0,0,0,0,8,8,8,,,,,,,,,,,,,,,,,,,,,,,,,,,444.4038927999791,444.6048682999972,444.58827549999114,444.88911960000405,444.88911960000405,None,445.3893933999934,None,j,1,445.3893933999934,None,None,None,,,0.7466610000119545,,,,,,,,,,,,,,,,,,,,,11038,2,2,2024_Jun_18_1327,stroop_task_switching2_b,2021.2.3,59.95491390344069,
,,,红,red,k,diamond,color_mix,颜色,,compatible,2,block_switch1_b,instruction/ready_test.png,instruction/i11.png,,,,,,,,,,,,,,,,,0,0,0,0,0,9,9,9,,,,,,,,,,,,,,,,,,,,,,,,,,,446.1578821000003,446.37408769998,446.3400183999911,446.64431819997844,446.64431819997844,None,447.1579723999894,None,k,1,447.1579723999894,None,None,None,,,0.8898651000054087,,,,,,,,,,,,,,,,,,,,,11038,2,2,2024_Jun_18_1327,stroop_task_switching2_b,2021.2.3,59.95491390344069,
,,,黄,yellow,f,diamond,color_mix,颜色,,compatible,1,block_switch1_b,instruction/ready_test.png,instruction/i11.png,,,,,,,,,,,,,,,,,0,0,0,0,0,10,10,10,,,,,,,,,,,,,,,,,,,,,,,,,,,448.0759919999982,448.27794959998573,448.2596418999892,448.562437399989,448.562437399989,None,449.0607153000019,None,f,1,449.0607153000019,None,None,None,,,0.5386932999826968,,,,,,,,,,,,,,,,,,,,,11038,2,2,2024_Jun_18_1327,stroop_task_switching2_b,2021.2.3,59.95491390344069,
,,,绿,green,d,square,color_mix,单词,,compatible,2,block_switch1_b,instruction/ready_test.png,instruction/i11.png,,,,,,,,,,,,,,,,,0,0,0,0,0,11,11,11,,,,,,,,,,,,,,,,,,,,,,,,,,,449.62819459999446,449.8312479000015,449.8128655999899,450.11427570000524,450.11427570000524,None,450.6132072999899,None,d,1,450.6132072999899,None,None,None,,,0.506362199987052,,,,,,,,,,,,,,,,,,,,,11038,2,2,2024_Jun_18_1327,stroop_task_switching2_b,2021.2.3,59.95491390344069,
,,,红,red,k,diamond,color_mix,颜色,,compatible,2,block_switch1_b,instruction/ready_test.png,instruction/i11.png,,,,,,,,,,,,,,,,,0,0,0,0,0,12,12,12,,,,,,,,,,,,,,,,,,,,,,,,,,,451.1485577999847,451.34935750000295,451.33105209999485,451.6327739999979,451.6327739999979,None,452.1321855999995,None,k,1,452.1321855999995,None,None,None,,,0.651269299996784,,,,,,,,,,,,,,,,,,,,,11038,2,2,2024_Jun_18_1327,stroop_task_switching2_b,2021.2.3,59.95491390344069,
,,,红,red,k,diamond,color_mix,颜色,,compatible,1,block_switch1_b,instruction/ready_test.png,instruction/i11.png,,,,,,,,,,,,,,,,,0,0,0,0,0,13,13,13,,,,,,,,,,,,,,,,,,,,,,,,,,,452.79977409998537,452.999939500005,452.9841976999887,453.2845282999915,453.2845282999915,None,453.7847591000027,None,k,1,453.7847591000027,None,None,None,,,0.43900649997522123,,,,,,,,,,,,,,,,,,,,,11038,2,2,2024_Jun_18_1327,stroop_task_switching2_b,2021.2.3,59.95491390344069,
,,,黄,yellow,f,square,color_mix,单词,,compatible,2,block_switch1_b,instruction/ready_test.png,instruction/i11.png,,,,,,,,,,,,,,,,,0,0,0,0,0,14,14,14,,,,,,,,,,,,,,,,,,,,,,,,,,,454.2522721999849,454.4526123999967,454.4360777999973,454.7367472999904,454.7367472999904,None,455.23686019997695,None,f,1,455.23686019997695,None,None,None,,,0.619266499998048,,,,,,,,,,,,,,,,,,,,,11038,2,2,2024_Jun_18_1327,stroop_task_switching2_b,2021.2.3,59.95491390344069,
,,,红,green,d,diamond,color_mix,颜色,,incompatible,2,block_switch1_b,instruction/ready_test.png,instruction/i11.png,,,,,,,,,,,,,,,,,0,0,0,0,0,15,15,15,,,,,,,,,,,,,,,,,,,,,,,,,,,455.87225970000145,456.07140990000335,456.05546740000136,456.3551162999938,456.3551162999938,None,456.8559089000046,None,d,1,456.8559089000046,None,None,None,,,0.7759527000016533,,,,,,,,,,,,,,,,,,,,,11038,2,2,2024_Jun_18_1327,stroop_task_switching2_b,2021.2.3,59.95491390344069,
,,,蓝,red,k,diamond,color_mix,颜色,,incompatible,1,block_switch1_b,instruction/ready_test.png,instruction/i11.png,,,,,,,,,,,,,,,,,0,0,0,0,0,16,16,16,,,,,,,,,,,,,,,,,,,,,,,,,,,457.6577378999791,457.85913789999904,457.84088030000567,458.14114339998923,458.14114339998923,None,458.6419734999945,None,k,1,458.6419734999945,None,None,None,,,1.0060203000030015,,,,,,,,,,,,,,,,,,,,,11038,2,2,2024_Jun_18_1327,stroop_task_switching2_b,2021.2.3,59.95491390344069,
,,,黄,green,d,diamond,color_mix,颜色,,incompatible,1,block_switch1_b,instruction/ready_test.png,instruction/i11.png,,,,,,,,,,,,,,,,,0,0,0,0,0,17,17,17,,,,,,,,,,,,,,,,,,,,,,,,,,,459.67758499999763,459.87768439998035,459.8611114999803,460.16169629999786,460.16169629999786,None,460.66265199999907,None,d,1,460.66265199999907,None,None,None,,,1.0573323999997228,,,,,,,,,,,,,,,,,,,,,11038,2,2,2024_Jun_18_1327,stroop_task_switching2_b,2021.2.3,59.95491390344069,
,,,绿,green,d,diamond,color_mix,颜色,,compatible,1,block_switch1_b,instruction/ready_test.png,instruction/i11.png,,,,,,,,,,,,,,,,,0,0,0,0,0,18,18,18,,,,,,,,,,,,,,,,,,,,,,,,,,,461.74661189998733,461.946984899987,461.93091629998526,462.2307799999835,462.2307799999835,None,462.7315217999858,None,d,1,462.7315217999858,None,None,None,,,0.5649409999896307,,,,,,,,,,,,,,,,,,,,,11038,2,2,2024_Jun_18_1327,stroop_task_switching2_b,2021.2.3,59.95491390344069,
,,,黄,red,k,diamond,color_mix,颜色,,incompatible,1,block_switch1_b,instruction/ready_test.png,instruction/i11.png,,,,,,,,,,,,,,,,,0,0,0,0,0,19,19,19,,,,,,,,,,,,,,,,,,,,,,,,,,,463.31583849998424,463.516727899987,463.5001779999875,463.8015977999894,463.8015977999894,None,464.3021011999808,None,k,1,464.3021011999808,None,None,None,,,0.9621914000017568,,,,,,,,,,,,,,,,,,,,,11038,2,2,2024_Jun_18_1327,stroop_task_switching2_b,2021.2.3,59.95491390344069,
,,,绿,yellow,d,square,color_mix,单词,,incompatible,2,block_switch1_b,instruction/ready_test.png,instruction/i11.png,,,,,,,,,,,,,,,,,0,0,0,0,0,20,20,20,,,,,,,,,,,,,,,,,,,,,,,,,,,465.2854082999984,465.4863368999795,465.46890509998775,465.7711132999975,465.7711132999975,None,466.2708033999952,None,d,1,466.2708033999952,None,None,None,,,0.705400999984704,,,,,,,,,,,,,,,,,,,,,11038,2,2,2024_Jun_18_1327,stroop_task_switching2_b,2021.2.3,59.95491390344069,
,,,绿,yellow,f,diamond,color_mix,颜色,,incompatible,2,block_switch1_b,instruction/ready_test.png,instruction/i11.png,,,,,,,,,,,,,,,,,0,0,0,0,0,21,21,21,,,,,,,,,,,,,,,,,,,,,,,,,,,467.0046345999872,467.2050931999984,467.18810139998095,467.48859939997783,467.48859939997783,None,467.9891438999912,None,f,1,467.9891438999912,None,None,None,,,0.9392260999884456,,,,,,,,,,,,,,,,,,,,,11038,2,2,2024_Jun_18_1327,stroop_task_switching2_b,2021.2.3,59.95491390344069,
,,,绿,green,d,square,color_mix,单词,,compatible,2,block_switch1_b,instruction/ready_test.png,instruction/i11.png,,,,,,,,,,,,,,,,,0,0,0,0,0,22,22,22,,,,,,,,,,,,,,,,,,,,,,,,,,,468.95753689997946,469.1585592000047,469.1428988999978,469.4424006000045,469.4424006000045,None,469.94341799998074,None,d,1,469.94341799998074,None,None,None,,,0.568901199992979,,,,,,,,,,,,,,,,,,,,,11038,2,2,2024_Jun_18_1327,stroop_task_switching2_b,2021.2.3,59.95491390344069,
,,,红,red,k,square,color_mix,单词,,compatible,1,block_switch1_b,instruction/ready_test.png,instruction/i11.png,,,,,,,,,,,,,,,,,0,0,0,0,0,23,23,23,,,,,,,,,,,,,,,,,,,,,,,,,,,470.5432676000055,470.74401919997763,470.7272677999863,471.0286857000028,471.0286857000028,None,471.5287157999992,None,k,1,471.5287157999992,None,None,None,,,0.5592257999815047,,,,,,,,,,,,,,,,,,,,,11038,2,2,2024_Jun_18_1327,stroop_task_switching2_b,2021.2.3,59.95491390344069,
,,,黄,green,f,square,color_mix,单词,,incompatible,1,block_switch1_b,instruction/ready_test.png,instruction/i11.png,,,,,,,,,,,,,,,,,0,0,0,0,0,24,24,24,,,,,,,,,,,,,,,,,,,,,,,,,,,472.1129643000022,472.31353220000165,472.295856599987,472.5976737999881,472.5976737999881,None,473.0971687999845,None,f,1,473.0971687999845,None,None,None,,,1.5514792999892961,,,,,,,,,,,,,,,,,,,,,11038,2,2,2024_Jun_18_1327,stroop_task_switching2_b,2021.2.3,59.95491390344069,
,,,红,blue,k,square,color_mix,单词,,incompatible,1,block_switch1_b,instruction/ready_test.png,instruction/i11.png,,,,,,,,,,,,,,,,,0,0,0,0,0,25,25,25,,,,,,,,,,,,,,,,,,,,,,,,,,,474.6661041000043,474.8675442999811,474.8497531999892,475.1525644999929,475.1525644999929,None,475.65241579999565,None,j,0,475.65241579999565,None,None,None,,,0.8278223999950569,,,,,,,,,,,,,,,,,,,,,11038,2,2,2024_Jun_18_1327,stroop_task_switching2_b,2021.2.3,59.95491390344069,
,,,黄,yellow,f,square,color_mix,单词,,compatible,1,block_switch1_b,instruction/ready_test.png,instruction/i11.png,,,,,,,,,,,,,,,,,0,0,0,0,0,26,26,26,,,,,,,,,,,,,,,,,,,,,,,,,,,476.5022964999953,476.70260609997786,476.6859152999823,476.98729589997674,476.98729589997674,None,477.48815069999546,None,f,1,477.48815069999546,None,None,None,,,0.6242573999916203,,,,,,,,,,,,,,,,,,,,,11038,2,2,2024_Jun_18_1327,stroop_task_switching2_b,2021.2.3,59.95491390344069,
,,,蓝,green,j,square,color_mix,单词,,incompatible,1,block_switch1_b,instruction/ready_test.png,instruction/i11.png,,,,,,,,,,,,,,,,,0,0,0,0,0,27,27,27,,,,,,,,,,,,,,,,,,,,,,,,,,,478.13789739998174,478.3390636999975,478.32192529999884,478.62453370000003,478.62453370000003,None,479.1396268999961,None,d,0,479.1396268999961,None,None,None,,,1.028572700015502,,,,,,,,,,,,,,,,,,,,,11038,2,2,2024_Jun_18_1327,stroop_task_switching2_b,2021.2.3,59.95491390344069,
,,,绿,green,d,diamond,color_mix,颜色,,compatible,2,block_switch1_b,instruction/ready_test.png,instruction/i11.png,,,,,,,,,,,,,,,,,0,0,0,0,0,28,28,28,,,,,,,,,,,,,,,,,,,,,,,,,,,480.19113890000153,480.39222069998505,480.37562159998924,480.67630189997726,480.67630189997726,None,481.1763506999996,None,d,1,481.1763506999996,None,None,None,,,1.056124099995941,,,,,,,,,,,,,,,,,,,,,11038,2,2,2024_Jun_18_1327,stroop_task_switching2_b,2021.2.3,59.95491390344069,
,,,黄,blue,j,diamond,color_mix,颜色,,incompatible,1,block_switch1_b,instruction/ready_test.png,instruction/i11.png,,,,,,,,,,,,,,,,,0,0,0,0,0,29,29,29,,,,,,,,,,,,,,,,,,,,,,,,,,,482.2608089999994,482.46131929999683,482.4446490999835,482.74581209997996,482.74581209997996,None,483.24709849999635,None,j,1,483.24709849999635,None,None,None,,,0.7139091000135522,,,,,,,,,,,,,,,,,,,,,11038,2,2,2024_Jun_18_1327,stroop_task_switching2_b,2021.2.3,59.95491390344069,
,,,绿,green,d,diamond,color_mix,颜色,,compatible,1,block_switch1_b,instruction/ready_test.png,instruction/i11.png,,,,,,,,,,,,,,,,,0,0,0,0,0,30,30,30,,,,,,,,,,,,,,,,,,,,,,,,,,,483.980387299991,484.1814397999842,484.16390169999795,484.465764099994,484.465764099994,None,484.96494869998423,None,d,1,484.96494869998423,None,None,None,,,0.6195202999806497,,,,,,,,,,,,,,,,,,,,,11038,2,2,2024_Jun_18_1327,stroop_task_switching2_b,2021.2.3,59.95491390344069,
,,,蓝,blue,j,square,color_mix,单词,,compatible,2,block_switch1_b,instruction/ready_test.png,instruction/i11.png,,,,,,,,,,,,,,,,,0,0,0,0,0,31,31,31,,,,,,,,,,,,,,,,,,,,,,,,,,,485.59920669998974,485.8002627999813,485.78279709999333,486.0834459000034,486.0834459000034,None,486.58542950000265,None,j,1,486.58542950000265,None,None,None,,,0.8632535999931861,,,,,,,,,,,,,,,,,,,,,11038,2,2,2024_Jun_18_1327,stroop_task_switching2_b,2021.2.3,59.95491390344069,
,,,红,red,k,square,color_mix,单词,,compatible,1,block_switch1_b,instruction/ready_test.png,instruction/i11.png,,,,,,,,,,,,,,,,,0,0,0,0,0,32,32,32,,,,,,,,,,,,,,,,,,,,,,,,,,,487.46862309999415,487.67066639999393,487.6523856999993,487.95339239999885,487.95339239999885,None,488.4536131999921,None,k,1,488.4536131999921,None,None,None,,,0.6677746000059415,,,,,,,,,,,,,,,,,,,,,11038,2,2,2024_Jun_18_1327,stroop_task_switching2_b,2021.2.3,59.95491390344069,
,,,红,green,k,square,color_mix,单词,,incompatible,1,block_switch1_b,instruction/ready_test.png,instruction/i11.png,,,,,,,,,,,,,,,,,0,0,0,0,0,33,33,33,,,,,,,,,,,,,,,,,,,,,,,,,,,489.13798040000256,489.33899729998666,489.32248599999,489.62318470000173,489.62318470000173,None,490.12391449999996,None,d,0,490.12391449999996,None,None,None,,,0.6685654000029899,,,,,,,,,,,,,,,,,,,,,11038,2,2,2024_Jun_18_1327,stroop_task_switching2_b,2021.2.3,59.95491390344069,
,,,黄,yellow,f,diamond,color_mix,颜色,,compatible,2,block_switch1_b,instruction/ready_test.png,instruction/i11.png,,,,,,,,,,,,,,,,,0,0,0,0,0,34,34,34,,,,,,,,,,,,,,,,,,,,,,,,,,,490.82450610000524,491.026234799996,491.00746520000394,491.3083981999953,491.3083981999953,None,491.80855869999505,None,f,1,491.80855869999505,None,None,None,,,0.7361643000040203,,,,,,,,,,,,,,,,,,,,,11038,2,2,2024_Jun_18_1327,stroop_task_switching2_b,2021.2.3,59.95491390344069,
,,,红,green,d,diamond,color_mix,颜色,,incompatible,1,block_switch1_b,instruction/ready_test.png,instruction/i11.png,,,,,,,,,,,,,,,,,0,0,0,0,0,35,35,35,,,,,,,,,,,,,,,,,,,,,,,,,,,492.5598127999983,492.7604853999801,492.7431248999783,493.0444012999942,493.0444012999942,None,493.5446328999824,None,d,1,493.5446328999824,None,None,None,,,1.4240055000118446,,,,,,,,,,,,,,,,,,,,,11038,2,2,2024_Jun_18_1327,stroop_task_switching2_b,2021.2.3,59.95491390344069,
,,,黄,yellow,f,square,color_mix,单词,,compatible,2,block_switch1_b,instruction/ready_test.png,instruction/i11.png,,,,,,,,,,,,,,,,,0,0,0,0,0,36,36,36,,,,,,,,,,,,,,,,,,,,,,,,,,,494.99689700000454,495.1979247999843,495.1816615999851,495.4813087999937,495.4813087999937,None,495.98200419999193,None,f,1,495.98200419999193,None,None,None,,,0.5547874000039883,,,,,,,,,,,,,,,,,,,,,11038,2,2,2024_Jun_18_1327,stroop_task_switching2_b,2021.2.3,59.95491390344069,
,,,蓝,blue,j,square,color_mix,单词,,compatible,1,block_switch1_b,instruction/ready_test.png,instruction/i11.png,,,,,,,,,,,,,,,,,0,0,0,0,0,37,37,37,,,,,,,,,,,,,,,,,,,,,,,,,,,496.56591760000447,496.7664844999963,496.74902259997907,497.05214299997897,497.05214299997897,None,497.5507188999909,None,j,1,497.5507188999909,None,None,None,,,0.7544447999971453,,,,,,,,,,,,,,,,,,,,,11038,2,2,2024_Jun_18_1327,stroop_task_switching2_b,2021.2.3,59.95491390344069,
,,,绿,red,k,diamond,color_mix,颜色,,incompatible,2,block_switch1_b,instruction/ready_test.png,instruction/i11.png,,,,,,,,,,,,,,,,,0,0,0,0,0,38,38,38,,,,,,,,,,,,,,,,,,,,,,,,,,,498.3351323999814,498.53658709998126,498.51869309999165,498.8203401999781,498.8203401999781,None,499.3201504999888,None,k,1,499.3201504999888,None,None,None,,,0.7050030999816954,,,,,,,,,,,,,,,,,,,,,11038,2,2,2024_Jun_18_1327,stroop_task_switching2_b,2021.2.3,59.95491390344069,
,,,黄,yellow,f,diamond,color_mix,颜色,,compatible,1,block_switch1_b,instruction/ready_test.png,instruction/i11.png,,,,,,,,,,,,,,,,,0,0,0,0,0,39,39,39,,,,,,,,,,,,,,,,,,,,,,,,,,,500.05439760000445,500.25533220000216,500.2387003999902,500.5398032999947,500.5398032999947,None,501.0394047999871,None,f,1,501.0394047999871,None,None,None,,,0.5375138999952469,,,,,,,,,,,,,,,,,,,,,11038,2,2,2024_Jun_18_1327,stroop_task_switching2_b,2021.2.3,59.95491390344069,
,,,红,blue,j,diamond,color_mix,颜色,,incompatible,1,block_switch1_b,instruction/ready_test.png,instruction/i11.png,,,,,,,,,,,,,,,,,0,0,0,0,0,40,40,40,,,,,,,,,,,,,,,,,,,,,,,,,,,501.6068888999871,501.8091968999943,501.79042639999534,502.09222959997714,502.09222959997714,None,502.5916030999797,None,j,1,502.5916030999797,None,None,None,,,0.6252970999921672,,,,,,,,,,,,,,,,,,,,,11038,2,2,2024_Jun_18_1327,stroop_task_switching2_b,2021.2.3,59.95491390344069,
,,,绿,blue,d,square,color_mix,单词,,incompatible,2,block_switch1_b,instruction/ready_test.png,instruction/i11.png,,,,,,,,,,,,,,,,,0,0,0,0,0,41,41,41,,,,,,,,,,,,,,,,,,,,,,,,,,,503.24260470000445,503.4435606999905,503.42717749997973,503.7275500999822,503.7275500999822,None,504.2274417000008,None,d,1,504.2274417000008,None,None,None,,,0.6057342999847606,,,,,,,,,,,,,,,,,,,,,11038,2,2,2024_Jun_18_1327,stroop_task_switching2_b,2021.2.3,59.95491390344069,
,,,蓝,blue,j,diamond,color_mix,颜色,,compatible,2,block_switch1_b,instruction/ready_test.png,instruction/i11.png,,,,,,,,,,,,,,,,,0,0,0,0,0,42,42,42,,,,,,,,,,,,,,,,,,,,,,,,,,,504.8616192000045,505.06211820000317,505.0465611999971,505.3469123999821,505.3469123999821,None,505.8464834000042,None,j,1,505.8464834000042,None,None,None,,,0.5951522999966983,,,,,,,,,,,,,,,,,,,,,11038,2,2,2024_Jun_18_1327,stroop_task_switching2_b,2021.2.3,59.95491390344069,
,,,红,blue,k,square,color_mix,单词,,incompatible,2,block_switch1_b,instruction/ready_test.png,instruction/i11.png,,,,,,,,,,,,,,,,,0,0,0,0,0,43,43,43,,,,,,,,,,,,,,,,,,,,,,,,,,,506.4641619999893,506.66512859999784,506.6484028999985,506.94882979997783,506.94882979997783,None,507.44889499997953,None,d,0,507.44889499997953,None,None,None,,,1.4165895000041928,,,,,,,,,,,,,,,,,,,,,11038,2,2,2024_Jun_18_1327,stroop_task_switching2_b,2021.2.3,59.95491390344069,
,,,蓝,green,d,diamond,color_mix,颜色,,incompatible,2,block_switch1_b,instruction/ready_test.png,instruction/i11.png,,,,,,,,,,,,,,,,,0,0,0,0,0,44,44,44,,,,,,,,,,,,,,,,,,,,,,,,,,,508.8845561000053,509.08600539999316,509.0681671999919,509.3694456999947,509.3694456999947,None,509.87005769999814,None,j,0,509.87005769999814,None,None,None,,,1.4912881999916863,,,,,,,,,,,,,,,,,,,,,11038,2,2,2024_Jun_18_1327,stroop_task_switching2_b,2021.2.3,59.95491390344069,
,,,黄,yellow,f,square,color_mix,单词,,compatible,2,block_switch1_b,instruction/ready_test.png,instruction/i11.png,,,,,,,,,,,,,,,,,0,0,0,0,0,45,45,45,,,,,,,,,,,,,,,,,,,,,,,,,,,511.38835319998907,511.58986999999615,511.5717766000016,511.8720830999955,511.8720830999955,None,512.3729972000001,None,f,1,512.3729972000001,None,None,None,,,0.8046773000096437,,,,,,,,,,,,,,,,,,,,,11038,2,2,2024_Jun_18_1327,stroop_task_switching2_b,2021.2.3,59.95491390344069,
,,,黄,yellow,f,diamond,color_mix,颜色,,compatible,2,block_switch1_b,instruction/ready_test.png,instruction/i11.png,,,,,,,,,,,,,,,,,0,0,0,0,0,46,46,46,,,,,,,,,,,,,,,,,,,,,,,,,,,513.2076059999818,513.4089922999847,513.3920577999961,513.6934194999922,513.6934194999922,None,514.1939979000017,None,f,1,514.1939979000017,None,None,None,,,0.5838408000126947,,,,,,,,,,,,,,,,,,,,,11038,2,2,2024_Jun_18_1327,stroop_task_switching2_b,2021.2.3,59.95491390344069,
,,,绿,red,d,square,color_mix,单词,,incompatible,2,block_switch1_b,instruction/ready_test.png,instruction/i11.png,,,,,,,,,,,,,,,,,0,0,0,0,0,47,47,47,,,,,,,,,,,,,,,,,,,,,,,,,,,514.7934246999794,514.9937639999844,514.9770014999958,515.2781839999952,515.2781839999952,None,515.7781946999894,None,d,1,515.7781946999894,None,None,None,,,1.1191822999971919,,,,,,,,,,,,,,,,,,,,,11038,2,2,2024_Jun_18_1327,stroop_task_switching2_b,2021.2.3,59.95491390344069,
,,,红,red,k,diamond,color_mix,颜色,,compatible,2,block_switch1_b,instruction/ready_test.png,instruction/i11.png,,,,,,,,,,,,,,,,,0,0,0,0,0,48,48,48,,,,,,,,,,,,,,,,,,,,,,,,,,,516.9131026999967,517.1135543999844,517.0979608999914,517.3977343000006,517.3977343000006,None,517.8981107999862,None,k,1,517.8981107999862,None,None,None,,,0.7113416999927722,,,,,,,,,,,,,,,,,,,,,11038,2,2,2024_Jun_18_1327,stroop_task_switching2_b,2021.2.3,59.95491390344069,
,,,蓝,blue,j,diamond,color_mix,颜色,,compatible,1,block_switch1_b,instruction/ready_test.png,instruction/i11.png,,,,,,,,,,,,,,,,,0,0,0,0,0,49,49,49,,,,,,,,,,,,,,,,,,,,,,,,,,,518.6334722999891,518.8338759999897,518.8169508999854,519.1173881999857,519.1173881999857,None,519.6177582999808,None,j,1,519.6177582999808,None,None,None,,,0.6005601999931969,,,,,,,,,,,,,,,,,,,,,11038,2,2,2024_Jun_18_1327,stroop_task_switching2_b,2021.2.3,59.95491390344069,
,,,黄,yellow,f,diamond,color_mix,颜色,,compatible,1,block_switch1_b,instruction/ready_test.png,instruction/i11.png,,,,,,,,,,,,,,,,,0,0,0,0,0,50,50,50,,,,,,,,,,,,,,,,,,,,,,,,,,,520.2347212999885,520.4360233999905,520.4193771999853,520.7194801000005,520.7194801000005,None,521.2208322999941,None,f,1,521.2208322999941,None,None,None,,,0.5569565999903716,,,,,,,,,,,,,,,,,,,,,11038,2,2,2024_Jun_18_1327,stroop_task_switching2_b,2021.2.3,59.95491390344069,
,,,红,blue,j,diamond,color_mix,颜色,,incompatible,1,block_switch1_b,instruction/ready_test.png,instruction/i11.png,,,,,,,,,,,,,,,,,0,0,0,0,0,51,51,51,,,,,,,,,,,,,,,,,,,,,,,,,,,521.8055481000047,522.0042983999883,521.9885117999802,522.2877057000005,522.2877057000005,None,522.788628099981,None,j,1,522.788628099981,None,None,None,,,1.5492203999892808,,,,,,,,,,,,,,,,,,,,,11038,2,2,2024_Jun_18_1327,stroop_task_switching2_b,2021.2.3,59.95491390344069,
,,,蓝,yellow,f,diamond,color_mix,颜色,,incompatible,1,block_switch1_b,instruction/ready_test.png,instruction/i11.png,,,,,,,,,,,,,,,,,0,0,0,0,0,52,52,52,,,,,,,,,,,,,,,,,,,,,,,,,,,524.3579253999924,524.5585353999923,524.543294699979,524.8438979999919,524.8438979999919,None,525.3435476000013,None,f,1,525.3435476000013,None,None,None,,,0.9301930000074208,,,,,,,,,,,,,,,,,,,,,11038,2,2,2024_Jun_18_1327,stroop_task_switching2_b,2021.2.3,59.95491390344069,
,,,黄,blue,f,square,color_mix,单词,,incompatible,2,block_switch1_b,instruction/ready_test.png,instruction/i11.png,,,,,,,,,,,,,,,,,0,0,0,0,0,53,53,53,,,,,,,,,,,,,,,,,,,,,,,,,,,526.2939423999924,526.4951384000015,526.4797553999815,526.7960106999963,526.7787918999966,None,527.2789798000013,None,f,1,527.2789798000013,None,None,None,,,1.6514539000054356,,,,,,,,,,,,,,,,,,,,,11038,2,2,2024_Jun_18_1327,stroop_task_switching2_b,2021.2.3,59.95491390344069,
,,,蓝,blue,j,diamond,color_mix,颜色,,compatible,2,block_switch1_b,instruction/ready_test.png,instruction/i11.png,,,,,,,,,,,,,,,,,0,0,0,0,0,54,54,54,,,,,,,,,,,,,,,,,,,,,,,,,,,528.9480259999982,529.1489771999768,529.1324965999811,529.4342203999986,529.4342203999986,None,529.9337918999954,None,j,1,529.9337918999954,None,None,None,,,0.6199708000058308,,,,,,,,,,,,,,,,,,,,,11038,2,2,2024_Jun_18_1327,stroop_task_switching2_b,2021.2.3,59.95491390344069,
,,,红,yellow,k,square,color_mix,单词,,incompatible,2,block_switch1_b,instruction/ready_test.png,instruction/i11.png,,,,,,,,,,,,,,,,,0,0,0,0,0,55,55,55,,,,,,,,,,,,,,,,,,,,,,,,,,,530.5669703999883,530.7675015999994,530.7529465999978,531.051890999981,531.051890999981,None,531.5519468999992,None,k,1,531.5519468999992,None,None,None,,,1.9619278000027407,,,,,,,,,,,,,,,,,,,,,11038,2,2,2024_Jun_18_1327,stroop_task_switching2_b,2021.2.3,59.95491390344069,
,,,蓝,red,j,square,color_mix,单词,,incompatible,1,block_switch1_b,instruction/ready_test.png,instruction/i11.png,,,,,,,,,,,,,,,,,0,0,0,0,0,56,56,56,,,,,,,,,,,,,,,,,,,,,,,,,,,533.5381630999909,533.7390464000055,533.7218391999777,534.0230364000017,534.0230364000017,None,534.5235590999946,None,j,1,534.5235590999946,None,None,None,,,1.366888700023992,,,,,,,,,,,,,,,,,,,,,11038,2,2,2024_Jun_18_1327,stroop_task_switching2_b,2021.2.3,59.95491390344069,
,,,蓝,blue,j,square,color_mix,单词,,compatible,1,block_switch1_b,instruction/ready_test.png,instruction/i11.png,,,,,,,,,,,,,,,,,0,0,0,0,0,57,57,57,,,,,,,,,,,,,,,,,,,,,,,,,,,535.9085680999851,536.1094551999995,536.0933695999847,536.3924353999901,536.3924353999901,None,536.8934107999958,None,j,1,536.8934107999958,None,None,None,,,0.44457960000727326,,,,,,,,,,,,,,,,,,,,,11038,2,2,2024_Jun_18_1327,stroop_task_switching2_b,2021.2.3,59.95491390344069,
,,,蓝,red,k,diamond,color_mix,颜色,,incompatible,2,block_switch1_b,instruction/ready_test.png,instruction/i11.png,,,,,,,,,,,,,,,,,0,0,0,0,0,58,58,58,,,,,,,,,,,,,,,,,,,,,,,,,,,537.3608498999965,537.561504799989,537.5443450000021,537.845476699993,537.845476699993,None,538.3456276999786,None,d,0,538.3456276999786,None,None,None,,,0.7763631999841891,,,,,,,,,,,,,,,,,,,,,11038,2,2,2024_Jun_18_1327,stroop_task_switching2_b,2021.2.3,59.95491390344069,
,,,绿,green,d,diamond,color_mix,颜色,,compatible,1,block_switch1_b,instruction/ready_test.png,instruction/i11.png,,,,,,,,,,,,,,,,,0,0,0,0,0,59,59,59,,,,,,,,,,,,,,,,,,,,,,,,,,,539.1466511999897,539.3486303999962,539.3302484999876,539.631684699998,539.631684699998,None,540.1317398999818,None,d,1,540.1317398999818,None,None,None,,,0.5264170999871567,,,,,,,,,,,,,,,,,,,,,11038,2,2,2024_Jun_18_1327,stroop_task_switching2_b,2021.2.3,59.95491390344069,
,,,蓝,blue,j,diamond,color_mix,颜色,,compatible,1,block_switch1_b,instruction/ready_test.png,instruction/i11.png,,,,,,,,,,,,,,,,,0,0,0,0,0,60,60,60,,,,,,,,,,,,,,,,,,,,,,,,,,,540.6826440999866,540.8826130999951,540.8675590999774,541.1673568999977,541.1673568999977,None,541.6680262000009,None,j,1,541.6680262000009,None,None,None,,,0.6303369000088423,,,,,,,,,,,,,,,,,,,,,11038,2,2,2024_Jun_18_1327,stroop_task_switching2_b,2021.2.3,59.95491390344069,
,,,黄,yellow,f,square,color_mix,单词,,compatible,2,block_switch1_b,instruction/ready_test.png,instruction/i11.png,,,,,,,,,,,,,,,,,0,0,0,0,0,61,61,61,,,,,,,,,,,,,,,,,,,,,,,,,,,542.3182130999921,542.5202436999825,542.5017206000048,542.8027368999901,542.8027368999901,None,543.3029667999945,None,f,1,543.3029667999945,None,None,None,,,0.60330280000926,,,,,,,,,,,,,,,,,,,,,11038,2,2,2024_Jun_18_1327,stroop_task_switching2_b,2021.2.3,59.95491390344069,
,,,绿,blue,d,square,color_mix,单词,,incompatible,1,block_switch1_b,instruction/ready_test.png,instruction/i11.png,,,,,,,,,,,,,,,,,0,0,0,0,0,62,62,62,,,,,,,,,,,,,,,,,,,,,,,,,,,543.9204390999803,544.1218293999846,544.1050390999881,544.4047493999824,544.4047493999824,None,544.9055491999898,None,d,1,544.9055491999898,None,None,None,,,1.9125257999985479,,,,,,,,,,,,,,,,,,,,,11038,2,2,2024_Jun_18_1327,stroop_task_switching2_b,2021.2.3,59.95491390344069,
,,,蓝,yellow,j,square,color_mix,单词,,incompatible,1,block_switch1_b,instruction/ready_test.png,instruction/i11.png,,,,,,,,,,,,,,,,,0,0,0,0,0,63,63,63,,,,,,,,,,,,,,,,,,,,,,,,,,,546.8416052999964,547.041716799984,547.0259643000027,547.3263309999893,547.3263309999893,None,547.8278330999892,None,j,1,547.8278330999892,None,None,None,,,0.7101835000212304,,,,,,,,,,,,,,,,,,,,,11038,2,2,2024_Jun_18_1327,stroop_task_switching2_b,2021.2.3,59.95491390344069,
,,,黄,yellow,f,diamond,color_mix,颜色,,compatible,2,block_switch1_b,instruction/ready_test.png,instruction/i11.png,,,,,,,,,,,,,,,,,0,0,0,0,0,64,64,64,,,,,,,,,,,,,,,,,,,,,,,,,,,548.5611233999953,548.7630292999966,548.74460179999,549.0459580000024,549.0459580000024,None,549.5464391999994,None,f,1,549.5464391999994,None,None,None,,,0.5688303000060841,,,,,,,,,,,,,,,,,,,,,11038,2,2,2024_Jun_18_1327,stroop_task_switching2_b,2021.2.3,59.95491390344069,
,,,蓝,green,d,diamond,color_mix,颜色,,incompatible,1,block_switch1_b,instruction/ready_test.png,instruction/i11.png,,,,,,,,,,,,,,,,,0,0,0,0,0,65,65,65,,,,,,,,,,,,,,,,,,,,,,,,,,,550.1298620000016,550.3309659999795,550.3143505000044,550.615499699983,550.615499699983,None,551.1159163999837,None,d,1,551.1159163999837,None,None,None,,,0.7263979999988806,,,,,,,,,,,,,,,,,,,,,11038,2,2,2024_Jun_18_1327,stroop_task_switching2_b,2021.2.3,59.95491390344069,
,,,红,red,k,diamond,color_mix,颜色,,compatible,1,block_switch1_b,instruction/ready_test.png,instruction/i11.png,,,,,,,,,,,,,,,,,0,0,0,0,0,66,66,66,,,,,,,,,,,,,,,,,,,,,,,,,,,551.8659064999956,552.0671175000025,552.0494632000045,552.3511653000023,552.3511653000023,None,552.850718599977,None,k,1,552.850718599977,None,None,None,,,0.5920515999896452,,,,,,,,,,,,,,,,,,,,,11038,2,2,2024_Jun_18_1327,stroop_task_switching2_b,2021.2.3,59.95491390344069,
,,,蓝,yellow,j,square,color_mix,单词,,incompatible,2,block_switch1_b,instruction/ready_test.png,instruction/i11.png,,,,,,,,,,,,,,,,,0,0,0,0,0,67,67,67,,,,,,,,,,,,,,,,,,,,,,,,,,,553.4682553999883,553.6696726999944,553.6527099999948,553.9528118000017,553.9528118000017,None,554.4532154999906,None,j,1,554.4532154999906,None,None,None,,,0.6694427000184078,,,,,,,,,,,,,,,,,,,,,11038,2,2,2024_Jun_18_1327,stroop_task_switching2_b,2021.2.3,59.95491390344069,
,,,红,yellow,k,square,color_mix,单词,,incompatible,1,block_switch1_b,instruction/ready_test.png,instruction/i11.png,,,,,,,,,,,,,,,,,0,0,0,0,0,68,68,68,,,,,,,,,,,,,,,,,,,,,,,,,,,555.1375123999896,555.3382752999896,555.3217861999874,555.6221671999956,555.6221671999956,None,556.1233574999787,None,f,0,556.1233574999787,None,None,None,,,0.37511139997513965,,,,,,,,,,,,,,,,,,,,,11038,2,2,2024_Jun_18_1327,stroop_task_switching2_b,2021.2.3,59.95491390344069,
,,,红,yellow,f,diamond,color_mix,颜色,,incompatible,2,block_switch1_b,instruction/ready_test.png,instruction/i11.png,,,,,,,,,,,,,,,,,0,0,0,0,0,69,69,69,,,,,,,,,,,,,,,,,,,,,,,,,,,556.5230234999908,556.7240492999845,556.7081273999938,557.0083886999928,557.0083886999928,None,557.5087037000048,None,k,0,557.5087037000048,None,None,None,,,1.0782609999878332,,,,,,,,,,,,,,,,,,,,,11038,2,2,2024_Jun_18_1327,stroop_task_switching2_b,2021.2.3,59.95491390344069,
,,,蓝,green,j,square,color_mix,单词,,incompatible,2,block_switch1_b,instruction/ready_test.png,instruction/i11.png,,,,,,,,,,,,,,,,,0,0,0,0,0,70,70,70,,,,,,,,,,,,,,,,,,,,,,,,,,,558.6092152000056,558.8108754999994,558.7930163999845,559.0948124999995,559.0948124999995,None,559.5951511999883,None,j,1,559.5951511999883,None,None,None,,,0.5439028999826405,,,,,,,,,,,,,,,,,,,,,11038,2,2,2024_Jun_18_1327,stroop_task_switching2_b,2021.2.3,59.95491390344069,
,,,绿,yellow,d,square,color_mix,单词,,incompatible,1,block_switch1_b,instruction/ready_test.png,instruction/i11.png,,,,,,,,,,,,,,,,,0,0,0,0,0,71,71,71,,,,,,,,,,,,,,,,,,,,,,,,,,,560.162009599997,560.363678099995,560.3458504999871,560.6466380999773,560.6466380999773,None,561.147183699999,None,d,1,561.147183699999,None,None,None,,,0.8553982999874279,,,,,,,,,,,,,,,,,,,,,11038,2,2,2024_Jun_18_1327,stroop_task_switching2_b,2021.2.3,59.95491390344069,
,,,蓝,yellow,f,diamond,color_mix,颜色,,incompatible,2,block_switch1_b,instruction/ready_test.png,instruction/i11.png,,,,,,,,,,,,,,,,,0,0,0,0,0,72,72,72,,,,,,,,,,,,,,,,,,,,,,,,,,,562.0313961999782,562.2325334000052,562.2149400000053,562.5165044000023,562.5165044000023,None,563.0159393999784,None,f,1,563.0159393999784,None,None,None,,,1.4266403999936301,,,,,,,,,,,,,,,,,,,,,11038,2,2,2024_Jun_18_1327,stroop_task_switching2_b,2021.2.3,59.95491390344069,
,,,红,green,k,square,color_mix,单词,,incompatible,2,block_switch1_b,instruction/ready_test.png,instruction/i11.png,,,,,,,,,,,,,,,,,0,0,0,0,0,73,73,73,,,,,,,,,,,,,,,,,,,,,,,,,,,564.469102699979,564.6701862000045,564.6517486999801,564.9535706999886,564.9535706999886,None,565.4536247999931,None,k,1,565.4536247999931,None,None,None,,,0.9734554000024218,,,,,,,,,,,,,,,,,,,,,11038,2,2,2024_Jun_18_1327,stroop_task_switching2_b,2021.2.3,59.95491390344069,
,,,绿,blue,j,diamond,color_mix,颜色,,incompatible,2,block_switch1_b,instruction/ready_test.png,instruction/i11.png,,,,,,,,,,,,,,,,,0,0,0,0,0,74,74,74,,,,,,,,,,,,,,,,,,,,,,,,,,,566.4544041999907,566.6546809999854,566.6401591000031,566.9553562999936,566.9386976999813,None,567.4393801999977,None,j,1,567.4393801999977,None,None,None,,,0.9318637000105809,,,,,,,,,,,,,,,,,,,,,11038,2,2,2024_Jun_18_1327,stroop_task_switching2_b,2021.2.3,59.95491390344069,
,,,红,red,k,square,color_mix,单词,,compatible,2,block_switch1_b,instruction/ready_test.png,instruction/i11.png,,,,,,,,,,,,,,,,,0,0,0,0,0,75,75,75,,,,,,,,,,,,,,,,,,,,,,,,,,,568.3910430999822,568.5911248000048,568.5745501999918,568.876529000001,568.876529000001,None,569.3763209999888,None,k,1,569.3763209999888,None,None,None,,,1.1862759999930859,,,,,,,,,,,,,,,,,,,,,11038,2,2,2024_Jun_18_1327,stroop_task_switching2_b,2021.2.3,59.95491390344069,
,,,绿,green,d,diamond,color_mix,颜色,,compatible,2,block_switch1_b,instruction/ready_test.png,instruction/i11.png,,,,,,,,,,,,,,,,,0,0,0,0,0,76,76,76,,,,,,,,,,,,,,,,,,,,,,,,,,,570.5940036999818,570.7952112999919,570.7783563999983,571.0793459999841,571.0793459999841,None,571.5791314999806,None,d,1,571.5791314999806,None,None,None,,,0.5918443000118714,,,,,,,,,,,,,,,,,,,,,11038,2,2,2024_Jun_18_1327,stroop_task_switching2_b,2021.2.3,59.95491390344069,
,,,黄,red,f,square,color_mix,单词,,incompatible,2,block_switch1_b,instruction/ready_test.png,instruction/i11.png,,,,,,,,,,,,,,,,,0,0,0,0,0,77,77,77,,,,,,,,,,,,,,,,,,,,,,,,,,,572.1965337999864,572.3966732999834,572.381453399983,572.6807908999908,572.6807908999908,None,573.1820044999768,None,f,1,573.1820044999768,None,None,None,,,1.701300299988361,,,,,,,,,,,,,,,,,,,,,11038,2,2,2024_Jun_18_1327,stroop_task_switching2_b,2021.2.3,59.95491390344069,
,,,红,red,k,square,color_mix,单词,,compatible,1,block_switch1_b,instruction/ready_test.png,instruction/i11.png,,,,,,,,,,,,,,,,,0,0,0,0,0,78,78,78,,,,,,,,,,,,,,,,,,,,,,,,,,,574.9004488999781,575.1015451999847,575.0858544999792,575.3846543999971,575.3846543999971,None,575.8855257999967,None,k,1,575.8855257999967,None,None,None,,,0.6935677999863401,,,,,,,,,,,,,,,,,,,,,11038,2,2,2024_Jun_18_1327,stroop_task_switching2_b,2021.2.3,59.95491390344069,
,,,黄,yellow,f,square,color_mix,单词,,compatible,1,block_switch1_b,instruction/ready_test.png,instruction/i11.png,,,,,,,,,,,,,,,,,0,0,0,0,0,79,79,79,,,,,,,,,,,,,,,,,,,,,,,,,,,576.6031346999807,576.8046344000031,576.7868667999865,577.0892778999987,577.0892778999987,None,577.5888825999864,None,f,1,577.5888825999864,None,None,None,,,1.270020600000862,,,,,,,,,,,,,,,,,,,,,11038,2,2,2024_Jun_18_1327,stroop_task_switching2_b,2021.2.3,59.95491390344069,
,,,红,red,k,diamond,color_mix,颜色,,compatible,2,block_switch1_b,instruction/ready_test.png,instruction/i11.png,,,,,,,,,,,,,,,,,0,0,0,0,0,80,80,80,,,,,,,,,,,,,,,,,,,,,,,,,,,578.8899357999908,579.0904929999961,579.0743487,579.3757908999978,579.3757908999978,None,579.8914304999926,None,k,1,579.8914304999926,None,None,None,,,0.7036846000119112,,,,,,,,,,,,,,,,,,,,,11038,2,2,2024_Jun_18_1327,stroop_task_switching2_b,2021.2.3,59.95491390344069,
,,,红,red,k,square,color_mix,单词,,compatible,2,block_switch1_b,instruction/ready_test.png,instruction/i11.png,,,,,,,,,,,,,,,,,0,0,0,0,0,81,81,81,,,,,,,,,,,,,,,,,,,,,,,,,,,580.6267940999824,580.8274059999967,580.81048439999,581.1110515999899,581.1110515999899,None,581.6107850999979,None,k,1,581.6107850999979,None,None,None,,,0.5762698999897111,,,,,,,,,,,,,,,,,,,,,11038,2,2,2024_Jun_18_1327,stroop_task_switching2_b,2021.2.3,59.95491390344069,
,,,黄,blue,j,diamond,color_mix,颜色,,incompatible,2,block_switch1_b,instruction/ready_test.png,instruction/i11.png,,,,,,,,,,,,,,,,,0,0,0,0,0,82,82,82,,,,,,,,,,,,,,,,,,,,,,,,,,,582.211670699995,582.4128258999845,582.3961484000029,582.6967254999909,582.6967254999909,None,583.197387799999,None,j,1,583.197387799999,None,None,None,,,0.6538009000068996,,,,,,,,,,,,,,,,,,,,,11038,2,2,2024_Jun_18_1327,stroop_task_switching2_b,2021.2.3,59.95491390344069,
,,,红,yellow,f,diamond,color_mix,颜色,,incompatible,1,block_switch1_b,instruction/ready_test.png,instruction/i11.png,,,,,,,,,,,,,,,,,0,0,0,0,0,83,83,83,,,,,,,,,,,,,,,,,,,,,,,,,,,583.8811647999974,584.082013599982,584.0653225999849,584.3656414999859,584.3656414999859,None,584.866822299984,None,k,0,584.866822299984,None,None,None,,,1.6013433000189252,,,,,,,,,,,,,,,,,,,,,11038,2,2,2024_Jun_18_1327,stroop_task_switching2_b,2021.2.3,59.95491390344069,
,,,黄,red,k,diamond,color_mix,颜色,,incompatible,1,block_switch1_b,instruction/ready_test.png,instruction/i11.png,,,,,,,,,,,,,,,,,0,0,0,0,0,84,84,84,,,,,,,,,,,,,,,,,,,,,,,,,,,586.484852900001,586.6873530999874,586.6693255999999,586.968887199997,586.968887199997,None,587.469506399997,None,f,0,587.469506399997,None,None,None,,,1.102052200003527,,,,,,,,,,,,,,,,,,,,,11038,2,2,2024_Jun_18_1327,stroop_task_switching2_b,2021.2.3,59.95491390344069,
,,,蓝,blue,j,square,color_mix,单词,,compatible,2,block_switch1_b,instruction/ready_test.png,instruction/i11.png,,,,,,,,,,,,,,,,,0,0,0,0,0,85,85,85,,,,,,,,,,,,,,,,,,,,,,,,,,,588.5885216000024,588.7886370999913,588.7714875999955,589.0722016999789,589.0722016999789,None,589.5727338999859,None,j,1,589.5727338999859,None,None,None,,,0.8228610999940429,,,,,,,,,,,,,,,,,,,,,11038,2,2,2024_Jun_18_1327,stroop_task_switching2_b,2021.2.3,59.95491390344069,
,,,绿,green,d,square,color_mix,单词,,compatible,1,block_switch1_b,instruction/ready_test.png,instruction/i11.png,,,,,,,,,,,,,,,,,0,0,0,0,0,86,86,86,,,,,,,,,,,,,,,,,,,,,,,,,,,590.4245858999784,590.6249567999912,590.6094782,590.9259963999793,590.9087671999878,None,591.4098452999897,None,d,1,591.4098452999897,None,None,None,,,0.7457952999975532,,,,,,,,,,,,,,,,,,,,,11038,2,2,2024_Jun_18_1327,stroop_task_switching2_b,2021.2.3,59.95491390344069,
,,,红,red,k,square,color_mix,单词,,compatible,1,block_switch1_b,instruction/ready_test.png,instruction/i11.png,,,,,,,,,,,,,,,,,0,0,0,0,0,87,87,87,,,,,,,,,,,,,,,,,,,,,,,,,,,592.176718200004,592.3785780000035,592.3623472999898,592.6607177999977,592.6607177999977,None,593.162276899995,None,k,1,593.162276899995,None,None,None,,,0.8975374000146985,,,,,,,,,,,,,,,,,,,,,11038,2,2,2024_Jun_18_1327,stroop_task_switching2_b,2021.2.3,59.95491390344069,
,,,黄,green,d,diamond,color_mix,颜色,,incompatible,2,block_switch1_b,instruction/ready_test.png,instruction/i11.png,,,,,,,,,,,,,,,,,0,0,0,0,0,88,88,88,,,,,,,,,,,,,,,,,,,,,,,,,,,594.0795397000038,594.2806239999773,594.2639858000039,594.5645107000018,594.5645107000018,None,595.0651304000057,None,d,1,595.0651304000057,None,None,None,,,0.7466591999982484,,,,,,,,,,,,,,,,,,,,,11038,2,2,2024_Jun_18_1327,stroop_task_switching2_b,2021.2.3,59.95491390344069,
,,,绿,red,d,square,color_mix,单词,,incompatible,2,block_switch1_b,instruction/ready_test.png,instruction/i11.png,,,,,,,,,,,,,,,,,0,0,0,0,0,89,89,89,,,,,,,,,,,,,,,,,,,,,,,,,,,595.8319589000021,596.0337240999797,596.0157729999919,596.3167213999841,596.3167213999841,None,596.8180210999853,None,d,1,596.8180210999853,None,None,None,,,1.633863900002325,,,,,,,,,,,,,,,,,,,,,11038,2,2,2024_Jun_18_1327,stroop_task_switching2_b,2021.2.3,59.95491390344069,
,,,黄,green,f,square,color_mix,单词,,incompatible,1,block_switch1_b,instruction/ready_test.png,instruction/i11.png,,,,,,,,,,,,,,,,,0,0,0,0,0,90,90,90,,,,,,,,,,,,,,,,,,,,,,,,,,,598.4696048999904,598.6716644999979,598.6531759999925,598.9550604999822,598.9550604999822,None,599.4552384999988,None,f,1,599.4552384999988,None,None,None,,,0.6366162000049371,,,,,,,,,,,,,,,,,,,,,11038,2,2,2024_Jun_18_1327,stroop_task_switching2_b,2021.2.3,59.95491390344069,
,,,蓝,blue,j,square,color_mix,单词,,compatible,1,block_switch1_b,instruction/ready_test.png,instruction/i11.png,,,,,,,,,,,,,,,,,0,0,0,0,0,91,91,91,,,,,,,,,,,,,,,,,,,,,,,,,,,600.1219857999822,600.322914599994,600.3072706999956,600.6228562000033,600.6077409999853,None,601.1073835999996,None,j,1,601.1073835999996,None,None,None,,,0.6406157999881543,,,,,,,,,,,,,,,,,,,,,11038,2,2,2024_Jun_18_1327,stroop_task_switching2_b,2021.2.3,59.95491390344069,
,,,蓝,red,j,square,color_mix,单词,,incompatible,1,block_switch1_b,instruction/ready_test.png,instruction/i11.png,,,,,,,,,,,,,,,,,0,0,0,0,0,92,92,92,,,,,,,,,,,,,,,,,,,,,,,,,,,601.7749076999899,601.9767250999867,601.9581824999768,602.2604692000023,602.2604692000023,None,602.7761284000007,None,j,1,602.7761284000007,None,None,None,,,0.6676564999797847,,,,,,,,,,,,,,,,,,,,,11038,2,2,2024_Jun_18_1327,stroop_task_switching2_b,2021.2.3,59.95491390344069,
,,,黄,blue,f,square,color_mix,单词,,incompatible,1,block_switch1_b,instruction/ready_test.png,instruction/i11.png,,,,,,,,,,,,,,,,,0,0,0,0,0,93,93,93,,,,,,,,,,,,,,,,,,,,,,,,,,,603.4604516999971,603.6612131999864,603.6441473999876,603.9446309999912,603.9446309999912,None,604.4452559000056,None,f,1,604.4452559000056,None,None,None,,,0.6469764999928884,,,,,,,,,,,,,,,,,,,,,11038,2,2,2024_Jun_18_1327,stroop_task_switching2_b,2021.2.3,59.95491390344069,
,,,绿,red,k,diamond,color_mix,颜色,,incompatible,2,block_switch1_b,instruction/ready_test.png,instruction/i11.png,,,,,,,,,,,,,,,,,0,0,0,0,0,94,94,94,,,,,,,,,,,,,,,,,,,,,,,,,,,605.113329499989,605.313857400004,605.2970392999996,605.5988473999896,605.5988473999896,None,606.0975279999839,None,k,1,606.0975279999839,None,None,None,,,0.7783923000097275,,,,,,,,,,,,,,,,,,,,,11038,2,2,2024_Jun_18_1327,stroop_task_switching2_b,2021.2.3,59.95491390344069,
,,,蓝,blue,j,diamond,color_mix,颜色,,compatible,1,block_switch1_b,instruction/ready_test.png,instruction/i11.png,,,,,,,,,,,,,,,,,0,0,0,0,0,95,95,95,,,,,,,,,,,,,,,,,,,,,,,,,,,606.8998237999913,607.1000003999798,607.0837231999903,607.3841226999939,607.3841226999939,None,607.883689099981,None,j,1,607.883689099981,None,None,None,,,0.5122581000032369,,,,,,,,,,,,,,,,,,,,,11038,2,2,2024_Jun_18_1327,stroop_task_switching2_b,2021.2.3,59.95491390344069,
,,,绿,green,d,square,color_mix,单词,,compatible,2,block_switch1_b,instruction/ready_test.png,instruction/i11.png,,,,,,,,,,,,,,,,,0,0,0,0,0,96,96,96,,,,,,,,,,,,,,,,,,,,,,,,,,,608.4179485999921,608.6191477999964,608.6014245999977,608.9024908999854,608.9024908999854,None,609.4026396999834,None,d,1,609.4026396999834,None,None,None,,,0.5693675999937113,,,,,,,,,,,,,,,,,,,,,11038,2,2,2024_Jun_18_1327,stroop_task_switching2_b,2021.2.3,59.95491390344069,
,,,,,,,,,,,,block_switch1_b,instruction/ready_test.png,instruction/i11.png,,,,,,,,,,,,,,,,,0,0,0,0,,,,,,,,,,,,,,,,,,,,,,,,,,,,,,,,,,,,,,,,,,,,,,,,,,,,,,,,,,,,609.9870518999815,None,space,12.073377699998673,609.9870518999815,None,,,11038,2,2,2024_Jun_18_1327,stroop_task_switching2_b,2021.2.3,59.95491390344069,
,,,蓝,blue,j,square,color_mix,单词,,compatible,0,block_switch2_b,instruction/ready_2.png,instruction/i12.png,,,,,,,,,,,,,,,,,0,1,1,1,0,0,0,0,,,,,,,,,,,,,,,,,,,625.5780868000002,626.5796105999907,626.5796105999907,627.5810560999962,627.5810560999962,None,624.592419099994,625.59392319998,628.5977455999819,628.7995754999865,628.7995754999865,629.0991726999928,629.0991726999928,None,629.5998367999855,None,j,1,629.5998367999855,None,None,None,,,0.9885113000054844,,,,,,,622.1050766999833,None,space,2.4674456999928225,622.1050766999833,None,,,,,,,,,11038,2,2,2024_Jun_18_1327,stroop_task_switching2_b,2021.2.3,59.95491390344069,
,,,黄,red,k,diamond,color_mix,颜色,,incompatible,2,block_switch2_b,instruction/ready_2.png,instruction/i12.png,,,,,,,,,,,,,,,,,0,1,1,1,0,1,1,1,,,,,,,,,,,,,,,,,,,,,,,,,,,630.6180851999961,630.8189042999875,630.8024905000057,631.1041432000056,631.1041432000056,None,631.6030502999783,None,k,1,631.6030502999783,None,None,None,,,0.8736297999857925,,,,,,,,,,,,,,,,,,,,,11038,2,2,2024_Jun_18_1327,stroop_task_switching2_b,2021.2.3,59.95491390344069,
,,,蓝,green,d,diamond,color_mix,颜色,,incompatible,1,block_switch2_b,instruction/ready_2.png,instruction/i12.png,,,,,,,,,,,,,,,,,0,1,1,1,0,2,2,2,,,,,,,,,,,,,,,,,,,,,,,,,,,632.5040093999996,632.7045495999919,632.6877666999935,632.989106699999,632.989106699999,None,633.4888139999821,None,d,1,633.4888139999821,None,None,None,,,0.6917713999864645,,,,,,,,,,,,,,,,,,,,,11038,2,2,2024_Jun_18_1327,stroop_task_switching2_b,2021.2.3,59.95491390344069,
,,,红,yellow,f,diamond,color_mix,颜色,,incompatible,1,block_switch2_b,instruction/ready_2.png,instruction/i12.png,,,,,,,,,,,,,,,,,0,1,1,1,0,3,3,3,,,,,,,,,,,,,,,,,,,,,,,,,,,634.20683369998,634.4086908999889,634.3925835999835,634.6916540999955,634.6916540999955,None,635.1915922999906,None,f,1,635.1915922999906,None,None,None,,,1.0769461000163574,,,,,,,,,,,,,,,,,,,,,11038,2,2,2024_Jun_18_1327,stroop_task_switching2_b,2021.2.3,59.95491390344069,
,,,红,red,k,diamond,color_mix,颜色,,compatible,1,block_switch2_b,instruction/ready_2.png,instruction/i12.png,,,,,,,,,,,,,,,,,0,1,1,1,0,4,4,4,,,,,,,,,,,,,,,,,,,,,,,,,,,636.2939337999851,636.4955745000043,636.4769226999779,636.7779222999816,636.7779222999816,None,637.2788499000017,None,k,1,637.2788499000017,None,None,None,,,0.757925800018711,,,,,,,,,,,,,,,,,,,,,11038,2,2,2024_Jun_18_1327,stroop_task_switching2_b,2021.2.3,59.95491390344069,
,,,绿,green,d,square,color_mix,单词,,compatible,2,block_switch2_b,instruction/ready_2.png,instruction/i12.png,,,,,,,,,,,,,,,,,0,1,1,1,0,5,5,5,,,,,,,,,,,,,,,,,,,,,,,,,,,638.0626624999859,638.2628087000048,638.2471804999805,638.5476527999854,638.5476527999854,None,639.047313099989,None,d,1,639.047313099989,None,None,None,,,0.5334476999996696,,,,,,,,,,,,,,,,,,,,,11038,2,2,2024_Jun_18_1327,stroop_task_switching2_b,2021.2.3,59.95491390344069,
,,,黄,blue,j,diamond,color_mix,颜色,,incompatible,2,block_switch2_b,instruction/ready_2.png,instruction/i12.png,,,,,,,,,,,,,,,,,0,1,1,1,0,6,6,6,,,,,,,,,,,,,,,,,,,,,,,,,,,639.5984637999791,639.7990773000056,639.7827820999955,640.0834292999934,640.0834292999934,None,640.5834324999887,None,f,0,640.5834324999887,None,None,None,,,1.3497121999971569,,,,,,,,,,,,,,,,,,,,,11038,2,2,2024_Jun_18_1327,stroop_task_switching2_b,2021.2.3,59.95491390344069,
,,,绿,yellow,d,square,color_mix,单词,,incompatible,2,block_switch2_b,instruction/ready_2.png,instruction/i12.png,,,,,,,,,,,,,,,,,0,1,1,1,0,7,7,7,,,,,,,,,,,,,,,,,,,,,,,,,,,641.9518064000004,642.1540155999828,642.1353619000001,642.4365386999852,642.4365386999852,None,642.936484099977,None,d,1,642.936484099977,None,None,None,,,0.5723854000098072,,,,,,,,,,,,,,,,,,,,,11038,2,2,2024_Jun_18_1327,stroop_task_switching2_b,2021.2.3,59.95491390344069,
