b_pra,ins_blocks,ins_blocks2,stim_word,stim_color,corrAns,cue_type,trial_type,task_type,rand,compatibility,switch,b_test,w_pic,w_pic2,trials_instr.thisRepN,trials_instr.thisTrialN,trials_instr.thisN,trials_instr.thisIndex,block_pra.thisRepN,block_pra.thisTrialN,block_pra.thisN,block_pra.thisIndex,trials_rep.thisRepN,trials_rep.thisTrialN,trials_rep.thisN,trials_rep.thisIndex,trials_pra.thisRepN,trials_pra.thisTrialN,trials_pra.thisN,trials_pra.thisIndex,trials_3.thisRepN,trials_3.thisTrialN,trials_3.thisN,trials_3.thisIndex,trials_2.thisRepN,trials_2.thisTrialN,trials_2.thisN,trials_2.thisIndex,instr_image.started,instr_image.stopped,instr_key_resp.keys,instr_key_resp.rt,instr_key_resp.started,instr_key_resp.stopped,instr_pra_image.started,instr_pra_image.stopped,ip_key_resp.keys,ip_key_resp.rt,ip_key_resp.started,ip_key_resp.stopped,block_image.started,block_image.stopped,ib_key_resp.keys,ib_key_resp.rt,ib_key_resp.started,ib_key_resp.stopped,cd3.started,cd3.stopped,cd2.started,cd2.stopped,cd1.started,cd1.stopped,cd_text.started,cd_text.stopped,text_fix.started,text_fix.stopped,text_2.started,text_2.stopped,text_4.started,text_4.stopped,text_target.started,text_target.stopped,key_resp.keys,key_resp.corr,key_resp.rt,key_resp.started,key_resp.stopped,sceen_black.started,sceen_black.stopped,text_fb.started,text_fb.stopped,text.started,text.stopped,key_bf.keys,key_bf.rt,key_bf.started,key_bf.stopped,instr_test_image.started,instr_test_image.stopped,instr_exp_key_resp.keys,instr_exp_key_resp.rt,instr_exp_key_resp.started,instr_exp_key_resp.stopped,text_rest.started,text_rest.stopped,key_resp_rest.keys,key_resp_rest.rt,key_resp_rest.started,key_resp_rest.stopped,text_3.started,text_3.stopped,participant,session,balance,date,expName,psychopyVersion,frameRate,
,,,,,,,,,,,,,,,0,0,0,0,,,,,,,,,,,,,,,,,,,,,52.31053190003149,None,right,1.467646700097248,52.31053190003149,None,,,,,,,,,,,,,,,,,,,,,,,,,,,,,,,,,,,,,,,,,,,,,,,,,,,,,,,,,,11039,1,1,2024_Jun_05_1004,stroop_task_switching2,2021.2.3,59.805965537873476,
,,,,,,,,,,,,,,,1,0,1,0,,,,,,,,,,,,,,,,,,,,,53.81237019994296,None,right,42.78247440000996,53.81237019994296,None,,,,,,,,,,,,,,,,,,,,,,,,,,,,,,,,,,,,,,,,,,,,,,,,,,,,,,,,,,11039,1,1,2024_Jun_05_1004,stroop_task_switching2,2021.2.3,59.805965537873476,
,,,,,,,,,,,,,,,2,0,2,0,,,,,,,,,,,,,,,,,,,,,96.64355149993207,None,right,0.4155507000396028,96.64355149993207,None,,,,,,,,,,,,,,,,,,,,,,,,,,,,,,,,,,,,,,,,,,,,,,,,,,,,,,,,,,11039,1,1,2024_Jun_05_1004,stroop_task_switching2,2021.2.3,59.805965537873476,
,,,,,,,,,,,,,,,3,0,3,0,,,,,,,,,,,,,,,,,,,,,97.09430430002976,None,right,0.14077699999324977,97.09430430002976,None,,,,,,,,,,,,,,,,,,,,,,,,,,,,,,,,,,,,,,,,,,,,,,,,,,,,,,,,,,11039,1,1,2024_Jun_05_1004,stroop_task_switching2,2021.2.3,59.805965537873476,
,,,,,,,,,,,,,,,4,0,4,0,,,,,,,,,,,,,,,,,,,,,97.2779973000288,None,right,0.13310639990959316,97.2779973000288,None,,,,,,,,,,,,,,,,,,,,,,,,,,,,,,,,,,,,,,,,,,,,,,,,,,,,,,,,,,11039,1,1,2024_Jun_05_1004,stroop_task_switching2,2021.2.3,59.805965537873476,
,,,,,,,,,,,,,,,5,0,5,0,,,,,,,,,,,,,,,,,,,,,97.44504939997569,None,right,1.007136599975638,97.44504939997569,None,,,,,,,,,,,,,,,,,,,,,,,,,,,,,,,,,,,,,,,,,,,,,,,,,,,,,,,,,,11039,1,1,2024_Jun_05_1004,stroop_task_switching2,2021.2.3,59.805965537873476,
,,,,,,,,,,,,,,,,,,,,,,,,,,,,,,,,,,,,,,,,,,,,,98.49672069994267,None,space,0.8287754999473691,98.49672069994267,None,,,,,,,,,,,,,,,,,,,,,,,,,,,,,,,,,,,,,,,,,,,,,,,,,,,,11039,1,1,2024_Jun_05_1004,stroop_task_switching2,2021.2.3,59.805965537873476,
condition/block_color,instruction/instr_color,instruction/i8,XX,red,d,diamond,color_single,颜色,,,,,,,,,,,0,0,0,0,0,0,0,0,0,0,0,0,,,,,,,,,,,,,,,,,,,,,99.3642718999181,None,space,4.616979300044477,99.3642718999181,None,105.03955929994117,106.04112309997436,106.04112309997436,107.04258979996666,107.04258979996666,None,104.0715310999658,105.07292990002315,108.02719890000299,108.22773159993812,108.22773159993812,108.52819520002231,108.52819520002231,None,109.01232899993192,None,d,1,0.4710258999839425,109.01232899993192,None,None,None,109.5130142000271,None,,,,,,,,,,,,,,,,,,,,,11039,1,1,2024_Jun_05_1004,stroop_task_switching2,2021.2.3,59.805965537873476,
condition/block_color,instruction/instr_color,instruction/i8,XX,green,k,diamond,color_single,颜色,,,,,,,,,,,0,0,0,0,0,0,0,0,0,1,1,1,,,,,,,,,,,,,,,,,,,,,,,,,,,,,,,,,,,110.5144689999288,110.71465380000882,110.69819429994095,110.99854169995524,110.99854169995524,None,111.49945040000603,None,k,1,1.024421599926427,111.49945040000603,None,None,None,112.55085350002628,None,,,,,,,,,,,,,,,,,,,,,11039,1,1,2024_Jun_05_1004,stroop_task_switching2,2021.2.3,59.805965537873476,
condition/block_color,instruction/instr_color,instruction/i8,XX,yellow,j,diamond,color_single,颜色,,,,,,,,,,,0,0,0,0,0,0,0,0,0,2,2,2,,,,,,,,,,,,,,,,,,,,,,,,,,,,,,,,,,,113.55276959994808,113.75296119996347,113.73604260000866,114.03787979995832,114.03787979995832,None,114.53716479998548,None,j,1,0.6348279999801889,114.53716479998548,None,None,None,115.18856169993524,None,,,,,,,,,,,,,,,,,,,,,11039,1,1,2024_Jun_05_1004,stroop_task_switching2,2021.2.3,59.805965537873476,
condition/block_color,instruction/instr_color,instruction/i8,XX,blue,f,diamond,color_single,颜色,,,,,,,,,,,0,0,0,0,0,0,0,0,0,3,3,3,,,,,,,,,,,,,,,,,,,,,,,,,,,,,,,,,,,116.18991940002888,116.39088870002888,116.37346349994186,116.67423310002778,116.67423310002778,None,117.17453890002798,None,f,1,0.41314499999862164,117.17453890002798,None,None,None,117.60857079993002,None,,,,,,,,,,,,,,,,,,,,,11039,1,1,2024_Jun_05_1004,stroop_task_switching2,2021.2.3,59.805965537873476,
condition/block_color,instruction/instr_color,instruction/i8,XX,green,k,diamond,color_single,颜色,,,,,,,,,,,0,0,0,0,0,0,0,0,0,4,4,4,,,,,,,,,,,,,,,,,,,,,,,,,,,,,,,,,,,118.61007469997276,118.81065070000477,118.79507460002787,119.09482459991705,119.09482459991705,None,119.59528649994172,None,k,1,0.6644744999939576,119.59528649994172,None,None,None,120.27935339999385,None,,,,,,,,,,,,,,,,,,,,,11039,1,1,2024_Jun_05_1004,stroop_task_switching2,2021.2.3,59.805965537873476,
condition/block_color,instruction/instr_color,instruction/i8,XX,yellow,j,diamond,color_single,颜色,,,,,,,,,,,0,0,0,0,0,0,0,0,0,5,5,5,,,,,,,,,,,,,,,,,,,,,,,,,,,,,,,,,,,121.28154050000012,121.48222979996353,121.46488839993253,121.76483969995752,121.76483969995752,None,122.26583459996618,None,j,1,0.5227229999145493,122.26583459996618,None,None,None,122.816298599937,None,,,,,,,,,,,,,,,,,,,,,11039,1,1,2024_Jun_05_1004,stroop_task_switching2,2021.2.3,59.805965537873476,
condition/block_color,instruction/instr_color,instruction/i8,XX,blue,f,diamond,color_single,颜色,,,,,,,,,,,0,0,0,0,0,0,0,0,0,6,6,6,,,,,,,,,,,,,,,,,,,,,,,,,,,,,,,,,,,123.81798069993965,124.01890369993635,124.00155549996998,124.30204520002007,124.30204520002007,None,124.80261939996853,None,f,1,0.5529135999968275,124.80261939996853,None,None,None,125.38691270002164,None,,,,,,,,,,,,,,,,,,,,,11039,1,1,2024_Jun_05_1004,stroop_task_switching2,2021.2.3,59.805965537873476,
condition/block_color,instruction/instr_color,instruction/i8,XX,red,d,diamond,color_single,颜色,,,,,,,,,,,0,0,0,0,0,0,0,0,0,7,7,7,,,,,,,,,,,,,,,,,,,,,,,,,,,,,,,,,,,126.388458399917,126.58949429995846,126.57200769998599,126.87371429998893,126.87371429998893,None,127.37366829998791,None,d,1,0.46226499998010695,127.37366829998791,None,None,None,127.85731819993816,None,,,,,,,,,,,,,,,,,,,,,11039,1,1,2024_Jun_05_1004,stroop_task_switching2,2021.2.3,59.805965537873476,
condition/block_color,instruction/instr_color,instruction/i8,XX,yellow,j,diamond,color_single,颜色,,,,,,,,,,,0,0,0,0,0,0,0,0,0,8,8,8,,,,,,,,,,,,,,,,,,,,,,,,,,,,,,,,,,,128.8586918999208,129.05907560000196,129.0435971999541,129.34294360002968,129.34294360002968,None,129.84364670002833,None,j,1,0.6646531999576837,129.84364670002833,None,None,None,130.52802690002136,None,,,,,,,,,,,,,,,,,,,,,11039,1,1,2024_Jun_05_1004,stroop_task_switching2,2021.2.3,59.805965537873476,
condition/block_color,instruction/instr_color,instruction/i8,XX,blue,f,diamond,color_single,颜色,,,,,,,,,,,0,0,0,0,0,0,0,0,0,9,9,9,,,,,,,,,,,,,,,,,,,,,,,,,,,,,,,,,,,131.52987219998613,131.73075859993696,131.71301359997597,132.01460779993795,132.01460779993795,None,132.5144619999919,None,f,1,0.4972956000128761,132.5144619999919,None,None,None,133.03192259999923,None,,,,,,,,,,,,,,,,,,,,,11039,1,1,2024_Jun_05_1004,stroop_task_switching2,2021.2.3,59.805965537873476,
condition/block_color,instruction/instr_color,instruction/i8,XX,red,d,diamond,color_single,颜色,,,,,,,,,,,0,0,0,0,0,0,0,0,0,10,10,10,,,,,,,,,,,,,,,,,,,,,,,,,,,,,,,,,,,134.03321739996318,134.23471939994488,134.21700289996807,134.51848089997657,134.51848089997657,None,135.01809669996146,None,d,1,0.490022600046359,135.01809669996146,None,None,None,135.5355740999803,None,,,,,,,,,,,,,,,,,,,,,11039,1,1,2024_Jun_05_1004,stroop_task_switching2,2021.2.3,59.805965537873476,
condition/block_color,instruction/instr_color,instruction/i8,XX,green,k,diamond,color_single,颜色,,,,,,,,,,,0,0,0,0,0,0,0,0,0,11,11,11,,,,,,,,,,,,,,,,,,,,,,,,,,,,,,,,,,,136.53711159992963,136.73838049999904,136.7206370999338,137.0225047999993,137.0225047999993,None,137.52192119997926,None,k,1,0.6980273000663146,137.52192119997926,None,None,None,138.23956539994106,None,,,,,,,,,,,,,,,,,,,,,11039,1,1,2024_Jun_05_1004,stroop_task_switching2,2021.2.3,59.805965537873476,
condition/block_color,instruction/instr_color,instruction/i8,XX,blue,f,diamond,color_single,颜色,,,,,,,,,,,0,0,0,0,0,0,0,0,0,12,12,12,,,,,,,,,,,,,,,,,,,,,,,,,,,,,,,,,,,139.2412721000146,139.44166539993603,139.42651739995927,139.7251360999653,139.7251360999653,None,140.22581370000262,None,f,1,0.6745019999798387,140.22581370000262,None,None,None,140.92712230002508,None,,,,,,,,,,,,,,,,,,,,,11039,1,1,2024_Jun_05_1004,stroop_task_switching2,2021.2.3,59.805965537873476,
condition/block_color,instruction/instr_color,instruction/i8,XX,red,d,diamond,color_single,颜色,,,,,,,,,,,0,0,0,0,0,0,0,0,0,13,13,13,,,,,,,,,,,,,,,,,,,,,,,,,,,,,,,,,,,141.9286556999432,142.13106129993685,142.1121681999648,142.4127505000215,142.4127505000215,None,142.91339080000762,None,d,1,0.4510233000619337,142.91339080000762,None,None,None,143.38081529992633,None,,,,,,,,,,,,,,,,,,,,,11039,1,1,2024_Jun_05_1004,stroop_task_switching2,2021.2.3,59.805965537873476,
condition/block_color,instruction/instr_color,instruction/i8,XX,green,k,diamond,color_single,颜色,,,,,,,,,,,0,0,0,0,0,0,0,0,0,14,14,14,,,,,,,,,,,,,,,,,,,,,,,,,,,,,,,,,,,144.38258279999718,144.58403849997558,144.5659029999515,144.8662909999257,144.8662909999257,None,145.36699160002172,None,k,1,0.5094121999572963,145.36699160002172,None,None,None,145.90126680000685,None,,,,,,,,,,,,,,,,,,,,,11039,1,1,2024_Jun_05_1004,stroop_task_switching2,2021.2.3,59.805965537873476,
condition/block_color,instruction/instr_color,instruction/i8,XX,yellow,j,diamond,color_single,颜色,,,,,,,,,,,0,0,0,0,0,0,0,0,0,15,15,15,,,,,,,,,,,,,,,,,,,,,,,,,,,,,,,,,,,146.9029573999578,147.10306410002522,147.08675519993994,147.38777579995804,147.38777579995804,None,147.88760479993653,None,j,1,0.5011188999051228,147.88760479993653,None,None,None,148.40510630002245,None,,,,,,,,,,,,,,,,,,,,,11039,1,1,2024_Jun_05_1004,stroop_task_switching2,2021.2.3,59.805965537873476,
condition/block_color,instruction/instr_color,instruction/i8,XX,red,d,diamond,color_single,颜色,,,,,,,,,,,0,0,0,0,0,0,0,0,0,16,16,16,,,,,,,,,,,,,,,,,,,,,,,,,,,,,,,,,,,149.4067045999691,149.60667529993225,149.58993639994878,149.8919369999785,149.8919369999785,None,150.39133369992487,None,d,1,0.5170990000478923,150.39133369992487,None,None,None,150.92552960000467,None,,,,,,,,,,,,,,,,,,,,,11039,1,1,2024_Jun_05_1004,stroop_task_switching2,2021.2.3,59.805965537873476,
condition/block_color,instruction/instr_color,instruction/i8,XX,green,k,diamond,color_single,颜色,,,,,,,,,,,0,0,0,0,0,0,0,0,0,17,17,17,,,,,,,,,,,,,,,,,,,,,,,,,,,,,,,,,,,151.9270634999266,152.12823619996198,152.11069749994203,152.41098019992933,152.41098019992933,None,152.91193539998494,None,k,1,0.49272510001901537,152.91193539998494,None,None,None,153.42907399998512,None,,,,,,,,,,,,,,,,,,,,,11039,1,1,2024_Jun_05_1004,stroop_task_switching2,2021.2.3,59.805965537873476,
condition/block_color,instruction/instr_color,instruction/i8,XX,yellow,j,diamond,color_single,颜色,,,,,,,,,,,0,0,0,0,0,0,0,0,0,18,18,18,,,,,,,,,,,,,,,,,,,,,,,,,,,,,,,,,,,154.43082939996384,154.63100669998676,154.61437379999552,154.91476670000702,154.91476670000702,None,155.41563719999976,None,j,1,0.5811463999561965,155.41563719999976,None,None,None,156.0163153000176,None,,,,,,,,,,,,,,,,,,,,,11039,1,1,2024_Jun_05_1004,stroop_task_switching2,2021.2.3,59.805965537873476,
condition/block_color,instruction/instr_color,instruction/i8,XX,blue,f,diamond,color_single,颜色,,,,,,,,,,,0,0,0,0,0,0,0,0,0,19,19,19,,,,,,,,,,,,,,,,,,,,,,,,,,,,,,,,,,,157.01801889995113,157.21833399997558,157.20188019995112,157.50204559997655,157.50204559997655,None,158.00289419991896,None,f,1,0.5136048999847844,158.00289419991896,None,None,None,158.53703170001972,None,,,,,,,,,,,,,,,,,,,,,11039,1,1,2024_Jun_05_1004,stroop_task_switching2,2021.2.3,59.805965537873476,
condition/block_color,instruction/instr_color,instruction/i8,XX,green,k,diamond,color_single,颜色,,,,,,,,,,,0,0,0,0,0,0,0,0,0,20,20,20,,,,,,,,,,,,,,,,,,,,,,,,,,,,,,,,,,,159.53848959994502,159.73885269998573,159.72332599991933,160.02262890001293,160.02262890001293,None,160.52330559992697,None,k,1,0.48155909997876734,160.52330559992697,None,None,None,161.02403909992427,None,,,,,,,,,,,,,,,,,,,,,11039,1,1,2024_Jun_05_1004,stroop_task_switching2,2021.2.3,59.805965537873476,
condition/block_color,instruction/instr_color,instruction/i8,XX,yellow,j,diamond,color_single,颜色,,,,,,,,,,,0,0,0,0,0,0,0,0,0,21,21,21,,,,,,,,,,,,,,,,,,,,,,,,,,,,,,,,,,,162.0256474999478,162.22662420000415,162.2092139000306,162.50952740001958,162.50952740001958,None,163.01065189996734,None,j,1,0.3940079000312835,163.01065189996734,None,None,None,163.4276112000225,None,,,,,,,,,,,,,,,,,,,,,11039,1,1,2024_Jun_05_1004,stroop_task_switching2,2021.2.3,59.805965537873476,
condition/block_color,instruction/instr_color,instruction/i8,XX,blue,f,diamond,color_single,颜色,,,,,,,,,,,0,0,0,0,0,0,0,0,0,22,22,22,,,,,,,,,,,,,,,,,,,,,,,,,,,,,,,,,,,164.4297206000192,164.63050299999304,164.61317529994994,164.91391399991699,164.91391399991699,None,165.41389979992528,None,f,1,0.46290980000048876,165.41389979992528,None,None,None,165.89797699998599,None,,,,,,,,,,,,,,,,,,,,,11039,1,1,2024_Jun_05_1004,stroop_task_switching2,2021.2.3,59.805965537873476,
condition/block_color,instruction/instr_color,instruction/i8,XX,red,d,diamond,color_single,颜色,,,,,,,,,,,0,0,0,0,0,0,0,0,0,23,23,23,,,,,,,,,,,,,,,,,,,,,,,,,,,,,,,,,,,166.8994974999223,167.10042729997076,167.08314160001464,167.3845329999458,167.3845329999458,None,167.88439999998081,None,d,1,0.376574800000526,167.88439999998081,None,None,None,168.28513789991848,None,,,,,,,,,,,,,,,,,,,,,11039,1,1,2024_Jun_05_1004,stroop_task_switching2,2021.2.3,59.805965537873476,
condition/block_color,instruction/instr_color,instruction/i8,,,,,,,,,,,,,,,,,0,0,0,0,0,0,0,0,,,,,,,,,,,,,,,,,,,,,,,,,,,,,,,,,,,,,,,,,,,,,,,,,,,,,,,,169.30318789999,None,space,2.4511393000138924,169.30318789999,None,,,,,,,,,,,,,,,11039,1,1,2024_Jun_05_1004,stroop_task_switching2,2021.2.3,59.805965537873476,
condition/block_color,instruction/instr_color,instruction/i8,,,,,,,,,,,,,,,,,0,0,0,0,,,,,,,,,,,,,,,,,,,,,,,,,,,,,,,,,,,,,,,,,,,,,,,,,,,,,,,,,,,,,,,,,,,,,,,,,,,,,,,,11039,1,1,2024_Jun_05_1004,stroop_task_switching2,2021.2.3,59.805965537873476,
condition/block_word,instruction/instr_word,instruction/i9,黄,white,j,square,word_single,单词,0.0032461461866890584,,,,,,,,,,0,1,1,1,0,0,0,0,0,0,0,0,,,,,,,,,,,,,,,,,,,,,171.7900924999267,None,space,8.807319200015627,171.7900924999267,None,181.62311189994216,182.6240399000235,182.6240399000235,183.62525789998472,183.62525789998472,None,180.63724229997024,181.64031649997924,184.64274669997394,184.84308979997877,184.84308979997877,185.1441842999775,185.1270322999917,None,185.62779199995566,None,j,1,0.6500669000670314,185.62779199995566,None,None,None,186.29537429998163,None,,,,,,,,,,,,,,,,,,,,,11039,1,1,2024_Jun_05_1004,stroop_task_switching2,2021.2.3,59.805965537873476,
condition/block_word,instruction/instr_word,instruction/i9,蓝,white,f,square,word_single,单词,0.060540570646362424,,,,,,,,,,0,1,1,1,0,0,0,0,0,1,1,1,,,,,,,,,,,,,,,,,,,,,,,,,,,,,,,,,,,187.29703010001685,187.4973679999821,187.48099539999384,187.78214199992362,187.78214199992362,None,188.28164519998245,None,f,1,0.7798825000645593,188.28164519998245,None,None,None,189.08305339992512,None,,,,,,,,,,,,,,,,,,,,,11039,1,1,2024_Jun_05_1004,stroop_task_switching2,2021.2.3,59.805965537873476,
condition/block_word,instruction/instr_word,instruction/i9,黄,white,j,square,word_single,单词,0.06994067193778963,,,,,,,,,,0,1,1,1,0,0,0,0,0,2,2,2,,,,,,,,,,,,,,,,,,,,,,,,,,,,,,,,,,,190.08464859996457,190.2854309999384,190.26822560001165,190.57070849998854,190.57070849998854,None,191.08597170002759,None,j,1,0.48743780003860593,191.08597170002759,None,None,None,191.60282319993712,None,,,,,,,,,,,,,,,,,,,,,11039,1,1,2024_Jun_05_1004,stroop_task_switching2,2021.2.3,59.805965537873476,
condition/block_word,instruction/instr_word,instruction/i9,蓝,white,f,square,word_single,单词,0.08193765152950094,,,,,,,,,,0,1,1,1,0,0,0,0,0,3,3,3,,,,,,,,,,,,,,,,,,,,,,,,,,,,,,,,,,,192.60481089993846,192.80532179994043,192.78882669995073,193.08916079998016,193.08916079998016,None,193.58983069995884,None,f,1,0.5275939999846742,193.58983069995884,None,None,None,194.14042199996766,None,,,,,,,,,,,,,,,,,,,,,11039,1,1,2024_Jun_05_1004,stroop_task_switching2,2021.2.3,59.805965537873476,
condition/block_word,instruction/instr_word,instruction/i9,红,white,d,square,word_single,单词,0.1279694370605574,,,,,,,,,,0,1,1,1,0,0,0,0,0,4,4,4,,,,,,,,,,,,,,,,,,,,,,,,,,,,,,,,,,,195.14208409993444,195.34455599996727,195.32568010000978,195.62754629994743,195.62754629994743,None,196.1270022999961,None,d,1,0.4705721999052912,196.1270022999961,None,None,None,196.62785469996743,None,,,,,,,,,,,,,,,,,,,,,11039,1,1,2024_Jun_05_1004,stroop_task_switching2,2021.2.3,59.805965537873476,
condition/block_word,instruction/instr_word,instruction/i9,红,white,d,square,word_single,单词,0.18345028784879092,,,,,,,,,,0,1,1,1,0,0,0,0,0,5,5,5,,,,,,,,,,,,,,,,,,,,,,,,,,,,,,,,,,,197.62969620001968,197.82971690001432,197.81451239995658,198.11335669993423,198.11335669993423,None,198.6142185999779,None,d,1,0.408121700049378,198.6142185999779,None,None,None,199.04812940000556,None,,,,,,,,,,,,,,,,,,,,,11039,1,1,2024_Jun_05_1004,stroop_task_switching2,2021.2.3,59.805965537873476,
condition/block_word,instruction/instr_word,instruction/i9,蓝,white,f,square,word_single,单词,0.19920386223101294,,,,,,,,,,0,1,1,1,0,0,0,0,0,6,6,6,,,,,,,,,,,,,,,,,,,,,,,,,,,,,,,,,,,200.0493365000002,200.24987389997113,200.2333014999749,200.53515150002204,200.53515150002204,None,201.0342957000248,None,f,1,0.5557167999213561,201.0342957000248,None,None,None,201.61857699998654,None,,,,,,,,,,,,,,,,,,,,,11039,1,1,2024_Jun_05_1004,stroop_task_switching2,2021.2.3,59.805965537873476,
condition/block_word,instruction/instr_word,instruction/i9,蓝,white,f,square,word_single,单词,0.26360599864925405,,,,,,,,,,0,1,1,1,0,0,0,0,0,7,7,7,,,,,,,,,,,,,,,,,,,,,,,,,,,,,,,,,,,202.62022679997608,202.8203251999803,202.80351989995688,203.10421140003018,203.10421140003018,None,203.60534509993158,None,k,0,0.48865160008426756,203.60534509993158,None,None,None,204.1222556999419,None,,,,,,,,,,,,,,,,,,,,,11039,1,1,2024_Jun_05_1004,stroop_task_switching2,2021.2.3,59.805965537873476,
condition/block_word,instruction/instr_word,instruction/i9,蓝,white,f,square,word_single,单词,0.358985675745526,,,,,,,,,,0,1,1,1,0,0,0,0,0,8,8,8,,,,,,,,,,,,,,,,,,,,,,,,,,,,,,,,,,,205.12401539995335,205.32420069992077,205.3081013999181,205.60839089995716,205.60839089995716,None,206.10858659993391,None,f,1,0.4095745999366045,206.10858659993391,None,None,None,206.54273959994316,None,,,,,,,,,,,,,,,,,,,,,11039,1,1,2024_Jun_05_1004,stroop_task_switching2,2021.2.3,59.805965537873476,
condition/block_word,instruction/instr_word,instruction/i9,绿,white,k,square,word_single,单词,0.36496733802487347,,,,,,,,,,0,1,1,1,0,0,0,0,0,9,9,9,,,,,,,,,,,,,,,,,,,,,,,,,,,,,,,,,,,207.54407960001845,207.7443374999566,207.72867899993435,208.02942679997068,208.02942679997068,None,208.5291446999181,None,k,1,0.5969274999806657,208.5291446999181,None,None,None,209.14665210002568,None,,,,,,,,,,,,,,,,,,,,,11039,1,1,2024_Jun_05_1004,stroop_task_switching2,2021.2.3,59.805965537873476,
condition/block_word,instruction/instr_word,instruction/i9,黄,white,j,square,word_single,单词,0.3743513623756727,,,,,,,,,,0,1,1,1,0,0,0,0,0,10,10,10,,,,,,,,,,,,,,,,,,,,,,,,,,,,,,,,,,,210.14825349999592,210.349383499939,210.33160529995803,210.63215009996202,210.63215009996202,None,211.1328478999203,None,j,1,0.48191789991687983,211.1328478999203,None,None,None,211.63353240001015,None,,,,,,,,,,,,,,,,,,,,,11039,1,1,2024_Jun_05_1004,stroop_task_switching2,2021.2.3,59.805965537873476,
condition/block_word,instruction/instr_word,instruction/i9,红,white,d,square,word_single,单词,0.3894803852598544,,,,,,,,,,0,1,1,1,0,0,0,0,0,11,11,11,,,,,,,,,,,,,,,,,,,,,,,,,,,,,,,,,,,212.63525129994377,212.83548689994495,212.81849859992508,213.12031699996442,213.12031699996442,None,213.6198598999763,None,d,1,0.498592899995856,213.6198598999763,None,None,None,214.13733079994563,None,,,,,,,,,,,,,,,,,,,,,11039,1,1,2024_Jun_05_1004,stroop_task_switching2,2021.2.3,59.805965537873476,
condition/block_word,instruction/instr_word,instruction/i9,绿,white,k,square,word_single,单词,0.5393759672408067,,,,,,,,,,0,1,1,1,0,0,0,0,0,12,12,12,,,,,,,,,,,,,,,,,,,,,,,,,,,,,,,,,,,215.1388840000145,215.33978909999132,215.3222901999252,215.6236427000258,215.6236427000258,None,216.12378229992464,None,k,1,0.5705223999684677,216.12378229992464,None,None,None,216.72486389998812,None,,,,,,,,,,,,,,,,,,,,,11039,1,1,2024_Jun_05_1004,stroop_task_switching2,2021.2.3,59.805965537873476,
condition/block_word,instruction/instr_word,instruction/i9,蓝,white,f,square,word_single,单词,0.5995731954831104,,,,,,,,,,0,1,1,1,0,0,0,0,0,13,13,13,,,,,,,,,,,,,,,,,,,,,,,,,,,,,,,,,,,217.72618829994462,217.92641059996095,217.91046579997055,218.21109559992328,218.21109559992328,None,218.71092829992995,None,f,1,0.6393598999129608,218.71092829992995,None,None,None,219.37869369995315,None,,,,,,,,,,,,,,,,,,,,,11039,1,1,2024_Jun_05_1004,stroop_task_switching2,2021.2.3,59.805965537873476,
condition/block_word,instruction/instr_word,instruction/i9,红,white,d,square,word_single,单词,0.6298674479151414,,,,,,,,,,0,1,1,1,0,0,0,0,0,14,14,14,,,,,,,,,,,,,,,,,,,,,,,,,,,,,,,,,,,220.3800709999632,220.58040089998394,220.56550060003065,220.86433669994585,220.86433669994585,None,221.36490879999474,None,d,1,0.37747880001552403,221.36490879999474,None,None,None,221.76591299998108,None,,,,,,,,,,,,,,,,,,,,,11039,1,1,2024_Jun_05_1004,stroop_task_switching2,2021.2.3,59.805965537873476,
condition/block_word,instruction/instr_word,instruction/i9,红,white,d,square,word_single,单词,0.7389942282348904,,,,,,,,,,0,1,1,1,0,0,0,0,0,15,15,15,,,,,,,,,,,,,,,,,,,,,,,,,,,,,,,,,,,222.7669114000164,222.96788060001563,222.95061810000334,223.25124739995226,223.25124739995226,None,223.7520820000209,None,d,1,0.4384497000137344,223.7520820000209,None,None,None,224.21936629991978,None,,,,,,,,,,,,,,,,,,,,,11039,1,1,2024_Jun_05_1004,stroop_task_switching2,2021.2.3,59.805965537873476,
condition/block_word,instruction/instr_word,instruction/i9,绿,white,k,square,word_single,单词,0.7550853947239682,,,,,,,,,,0,1,1,1,0,0,0,0,0,16,16,16,,,,,,,,,,,,,,,,,,,,,,,,,,,,,,,,,,,225.22097389993723,225.4210823000176,225.4064571999479,225.70472069992684,225.70472069992684,None,226.20563340000808,None,k,1,0.5769592999713495,226.20563340000808,None,None,None,226.80632919992786,None,,,,,,,,,,,,,,,,,,,,,11039,1,1,2024_Jun_05_1004,stroop_task_switching2,2021.2.3,59.805965537873476,
condition/block_word,instruction/instr_word,instruction/i9,绿,white,k,square,word_single,单词,0.8019302780428206,,,,,,,,,,0,1,1,1,0,0,0,0,0,17,17,17,,,,,,,,,,,,,,,,,,,,,,,,,,,,,,,,,,,227.8080288999481,228.00811819999944,227.99275239999406,228.29272050003055,228.29272050003055,None,228.79333279991988,None,k,1,0.5816800000611693,228.79333279991988,None,None,None,229.39370389992837,None,,,,,,,,,,,,,,,,,,,,,11039,1,1,2024_Jun_05_1004,stroop_task_switching2,2021.2.3,59.805965537873476,
condition/block_word,instruction/instr_word,instruction/i9,绿,white,k,square,word_single,单词,0.8110702914095343,,,,,,,,,,0,1,1,1,0,0,0,0,0,18,18,18,,,,,,,,,,,,,,,,,,,,,,,,,,,,,,,,,,,230.3955746999709,230.59559899999294,230.58040909992997,230.88123900000937,230.88123900000937,None,231.38003280002158,None,k,1,0.61043979995884,231.38003280002158,None,None,None,232.01429079996888,None,,,,,,,,,,,,,,,,,,,,,11039,1,1,2024_Jun_05_1004,stroop_task_switching2,2021.2.3,59.805965537873476,
condition/block_word,instruction/instr_word,instruction/i9,黄,white,j,square,word_single,单词,0.8176594937590999,,,,,,,,,,0,1,1,1,0,0,0,0,0,19,19,19,,,,,,,,,,,,,,,,,,,,,,,,,,,,,,,,,,,233.01593380002305,233.21624510001857,233.19949339993764,233.5012775999494,233.5012775999494,None,234.00094960001297,None,j,1,0.41381059994455427,234.00094960001297,None,None,None,234.43476620002184,None,,,,,,,,,,,,,,,,,,,,,11039,1,1,2024_Jun_05_1004,stroop_task_switching2,2021.2.3,59.805965537873476,
condition/block_word,instruction/instr_word,instruction/i9,红,white,d,square,word_single,单词,0.8955794421104841,,,,,,,,,,0,1,1,1,0,0,0,0,0,20,20,20,,,,,,,,,,,,,,,,,,,,,,,,,,,,,,,,,,,235.4363786999602,235.63640429999214,235.6210688999854,235.9212604999775,235.9212604999775,None,236.42124559998047,None,d,1,0.46600180002860725,236.42124559998047,None,None,None,236.90508529997896,None,,,,,,,,,,,,,,,,,,,,,11039,1,1,2024_Jun_05_1004,stroop_task_switching2,2021.2.3,59.805965537873476,
condition/block_word,instruction/instr_word,instruction/i9,绿,white,k,square,word_single,单词,0.9113598052474129,,,,,,,,,,0,1,1,1,0,0,0,0,0,21,21,21,,,,,,,,,,,,,,,,,,,,,,,,,,,,,,,,,,,237.9066510000266,238.10689239995554,238.09022499993443,238.39201339997817,238.39201339997817,None,238.89147429994773,None,k,1,0.5319815999828279,238.89147429994773,None,None,None,239.44224649993703,None,,,,,,,,,,,,,,,,,,,,,11039,1,1,2024_Jun_05_1004,stroop_task_switching2,2021.2.3,59.805965537873476,
condition/block_word,instruction/instr_word,instruction/i9,黄,white,j,square,word_single,单词,0.9215930958042953,,,,,,,,,,0,1,1,1,0,0,0,0,0,22,22,22,,,,,,,,,,,,,,,,,,,,,,,,,,,,,,,,,,,240.4438305000076,240.64468459994532,240.62738419999368,240.92779139999766,240.92779139999766,None,241.42902079992928,None,j,1,0.6097098999889567,241.42902079992928,None,None,None,242.06277259998024,None,,,,,,,,,,,,,,,,,,,,,11039,1,1,2024_Jun_05_1004,stroop_task_switching2,2021.2.3,59.805965537873476,
condition/block_word,instruction/instr_word,instruction/i9,黄,white,j,square,word_single,单词,0.9493525498837774,,,,,,,,,,0,1,1,1,0,0,0,0,0,23,23,23,,,,,,,,,,,,,,,,,,,,,,,,,,,,,,,,,,,243.06445990002248,243.26609409996308,243.248090100009,243.54841099993791,243.54841099993791,None,244.04898199997842,None,j,1,0.4698412000434473,244.04898199997842,None,None,None,244.55102889996488,None,,,,,,,,,,,,,,,,,,,,,11039,1,1,2024_Jun_05_1004,stroop_task_switching2,2021.2.3,59.805965537873476,
condition/block_word,instruction/instr_word,instruction/i9,,,,,,,,,,,,,,,,,0,1,1,1,0,0,0,0,,,,,,,,,,,,,,,,,,,,,,,,,,,,,,,,,,,,,,,,,,,,,,,,,,,,,,,,245.55108479992487,None,space,3.767035499913618,245.55108479992487,None,,,,,,,,,,,,,,,11039,1,1,2024_Jun_05_1004,stroop_task_switching2,2021.2.3,59.805965537873476,
condition/block_word,instruction/instr_word,instruction/i9,,,,,,,,,,,,,,,,,0,1,1,1,,,,,,,,,,,,,,,,,,,,,,,,,,,,,,,,,,,,,,,,,,,,,,,,,,,,,,,,,,,,,,,,,,,,,,,,,,,,,,,,11039,1,1,2024_Jun_05_1004,stroop_task_switching2,2021.2.3,59.805965537873476,
condition/block_mixed,instruction/instr_mixed,instruction/i10,蓝,red,d,diamond,color_mix,颜色,,incompatible,0,,,,,,,,0,2,2,2,0,0,0,0,0,0,0,0,,,,,,,,,,,,,,,,,,,,,249.35698209994007,None,space,10.914626599987969,249.35698209994007,None,261.2936050000135,262.2935179999331,262.2935179999331,263.2958493999904,263.2958493999904,None,260.30739339999855,261.3086523999227,264.3298557000235,264.530920399935,264.51345470000524,264.8139864000259,264.8139864000259,None,265.2993481999729,None,d,1,1.4603360999608412,265.2993481999729,None,None,None,266.78361509996466,None,,,,,,,,,,,,,,,,,,,,,11039,1,1,2024_Jun_05_1004,stroop_task_switching2,2021.2.3,59.805965537873476,
condition/block_mixed,instruction/instr_mixed,instruction/i10,绿,yellow,j,diamond,color_mix,颜色,,incompatible,1,,,,,,,,0,2,2,2,0,0,0,0,0,1,1,1,,,,,,,,,,,,,,,,,,,,,,,,,,,,,,,,,,,267.7852552999975,267.9862328999443,267.96856119995937,268.26893729995936,268.26893729995936,None,268.7697845000075,None,j,1,0.8779392000287771,268.7697845000075,None,None,None,269.67122279992327,None,,,,,,,,,,,,,,,,,,,,,11039,1,1,2024_Jun_05_1004,stroop_task_switching2,2021.2.3,59.805965537873476,
condition/block_mixed,instruction/instr_mixed,instruction/i10,红,green,k,diamond,color_mix,颜色,,incompatible,1,,,,,,,,0,2,2,2,0,0,0,0,0,2,2,2,,,,,,,,,,,,,,,,,,,,,,,,,,,,,,,,,,,270.6731026999187,270.8749210999813,270.8563548999373,271.1570538999513,271.1570538999513,None,271.6575321999844,None,k,1,1.1981286000227556,271.6575321999844,None,None,None,272.87604559992906,None,,,,,,,,,,,,,,,,,,,,,11039,1,1,2024_Jun_05_1004,stroop_task_switching2,2021.2.3,59.805965537873476,
condition/block_mixed,instruction/instr_mixed,instruction/i10,蓝,red,d,diamond,color_mix,颜色,,incompatible,1,,,,,,,,0,2,2,2,0,0,0,0,0,3,3,3,,,,,,,,,,,,,,,,,,,,,,,,,,,,,,,,,,,273.87758710002527,274.07787859998643,274.06117210001685,274.36291969998274,274.36291969998274,None,274.8622960000066,None,d,1,0.8895912000443786,274.8622960000066,None,None,None,275.78030290000606,None,,,,,,,,,,,,,,,,,,,,,11039,1,1,2024_Jun_05_1004,stroop_task_switching2,2021.2.3,59.805965537873476,
condition/block_mixed,instruction/instr_mixed,instruction/i10,红,blue,f,diamond,color_mix,颜色,,incompatible,1,,,,,,,,0,2,2,2,0,0,0,0,0,4,4,4,,,,,,,,,,,,,,,,,,,,,,,,,,,,,,,,,,,276.782313899952,276.9826261999551,276.9655331999529,277.26715650002006,277.26715650002006,None,277.76681059994735,None,f,1,0.8572672000154853,277.76681059994735,None,None,None,278.6518591999775,None,,,,,,,,,,,,,,,,,,,,,11039,1,1,2024_Jun_05_1004,stroop_task_switching2,2021.2.3,59.805965537873476,
condition/block_mixed,instruction/instr_mixed,instruction/i10,红,blue,d,square,color_mix,单词,,incompatible,2,,,,,,,,0,2,2,2,0,0,0,0,0,5,5,5,,,,,,,,,,,,,,,,,,,,,,,,,,,,,,,,,,,279.65282119996846,279.85319419996813,279.83730469993316,280.1374689999502,280.1374689999502,None,280.6378429000033,None,d,1,0.9941512999357656,280.6378429000033,None,None,None,281.65609980002046,None,,,,,,,,,,,,,,,,,,,,,11039,1,1,2024_Jun_05_1004,stroop_task_switching2,2021.2.3,59.805965537873476,
condition/block_mixed,instruction/instr_mixed,instruction/i10,红,yellow,j,diamond,color_mix,颜色,,incompatible,2,,,,,,,,0,2,2,2,0,0,0,0,0,6,6,6,,,,,,,,,,,,,,,,,,,,,,,,,,,,,,,,,,,282.65768039994873,282.85896759992465,282.84113309998065,283.1414290999528,283.1414290999528,None,283.64262589998543,None,j,1,1.302127700066194,283.64262589998543,None,None,None,284.96092189999763,None,,,,,,,,,,,,,,,,,,,,,11039,1,1,2024_Jun_05_1004,stroop_task_switching2,2021.2.3,59.805965537873476,
condition/block_mixed,instruction/instr_mixed,instruction/i10,红,yellow,d,square,color_mix,单词,,incompatible,2,,,,,,,,0,2,2,2,0,0,0,0,0,7,7,7,,,,,,,,,,,,,,,,,,,,,,,,,,,,,,,,,,,285.9623312000185,286.16321089991834,286.14607929997146,286.4468699999852,286.4468699999852,None,286.9475543999579,None,d,1,1.0523590000811964,286.9475543999579,None,None,None,288.01606259995606,None,,,,,,,,,,,,,,,,,,,,,11039,1,1,2024_Jun_05_1004,stroop_task_switching2,2021.2.3,59.805965537873476,
condition/block_mixed,instruction/instr_mixed,instruction/i10,绿,blue,k,square,color_mix,单词,,incompatible,1,,,,,,,,0,2,2,2,0,0,0,0,0,8,8,8,,,,,,,,,,,,,,,,,,,,,,,,,,,,,,,,,,,289.01693369995337,289.2177726000082,289.20053059991915,289.50183269998524,289.50183269998524,None,290.0018118999433,None,k,1,0.822360199992545,290.0018118999433,None,None,None,290.8532249999698,None,,,,,,,,,,,,,,,,,,,,,11039,1,1,2024_Jun_05_1004,stroop_task_switching2,2021.2.3,59.805965537873476,
condition/block_mixed,instruction/instr_mixed,instruction/i10,蓝,green,k,diamond,color_mix,颜色,,incompatible,2,,,,,,,,0,2,2,2,0,0,0,0,0,9,9,9,,,,,,,,,,,,,,,,,,,,,,,,,,,,,,,,,,,291.8546951999888,292.0559032999445,292.0386407999322,292.3391604999779,292.3391604999779,None,292.8394020999549,None,k,1,0.8811691999435425,292.8394020999549,None,None,None,293.74089339992497,None,,,,,,,,,,,,,,,,,,,,,11039,1,1,2024_Jun_05_1004,stroop_task_switching2,2021.2.3,59.805965537873476,
condition/block_mixed,instruction/instr_mixed,instruction/i10,蓝,yellow,f,square,color_mix,单词,,incompatible,2,,,,,,,,0,2,2,2,0,0,0,0,0,10,10,10,,,,,,,,,,,,,,,,,,,,,,,,,,,,,,,,,,,294.742510400014,294.94261069991626,294.9268291000044,295.22710459993687,295.22710459993687,None,295.727155999979,None,f,1,0.8495860999682918,295.727155999979,None,None,None,296.5950846999185,None,,,,,,,,,,,,,,,,,,,,,11039,1,1,2024_Jun_05_1004,stroop_task_switching2,2021.2.3,59.805965537873476,
condition/block_mixed,instruction/instr_mixed,instruction/i10,蓝,green,f,square,color_mix,单词,,incompatible,1,,,,,,,,0,2,2,2,0,0,0,0,0,11,11,11,,,,,,,,,,,,,,,,,,,,,,,,,,,,,,,,,,,297.5966560000088,297.7974187999498,297.78035519993864,298.08224379993044,298.08224379993044,None,298.5815060000168,None,f,1,0.7471488999435678,298.5815060000168,None,None,None,299.34952899999917,None,,,,,,,,,,,,,,,,,,,,,11039,1,1,2024_Jun_05_1004,stroop_task_switching2,2021.2.3,59.805965537873476,
condition/block_mixed,instruction/instr_mixed,instruction/i10,绿,yellow,k,square,color_mix,单词,,incompatible,1,,,,,,,,0,2,2,2,0,0,0,0,0,12,12,12,,,,,,,,,,,,,,,,,,,,,,,,,,,,,,,,,,,300.3508850999642,300.5520109999925,300.53424960002303,300.8348735999316,300.8348735999316,None,301.3357261000201,None,k,1,0.6246294999727979,301.3357261000201,None,None,None,301.9865898999851,None,,,,,,,,,,,,,,,,,,,,,11039,1,1,2024_Jun_05_1004,stroop_task_switching2,2021.2.3,59.805965537873476,
condition/block_mixed,instruction/instr_mixed,instruction/i10,绿,blue,f,diamond,color_mix,颜色,,incompatible,2,,,,,,,,0,2,2,2,0,0,0,0,0,13,13,13,,,,,,,,,,,,,,,,,,,,,,,,,,,,,,,,,,,302.9879990000045,303.1896766999271,303.17166069999803,303.4722272999352,303.4722272999352,None,303.9729122000281,None,k,0,0.6754784000804648,303.9729122000281,None,None,None,304.67397729994263,None,,,,,,,,,,,,,,,,,,,,,11039,1,1,2024_Jun_05_1004,stroop_task_switching2,2021.2.3,59.805965537873476,
condition/block_mixed,instruction/instr_mixed,instruction/i10,黄,red,j,square,color_mix,单词,,incompatible,2,,,,,,,,0,2,2,2,0,0,0,0,0,14,14,14,,,,,,,,,,,,,,,,,,,,,,,,,,,,,,,,,,,305.67565999994986,305.87583679996897,305.8588846999919,306.16015020001214,306.16015020001214,None,306.66062650003005,None,j,1,0.8359331999672577,306.66062650003005,None,None,None,307.51136849995237,None,,,,,,,,,,,,,,,,,,,,,11039,1,1,2024_Jun_05_1004,stroop_task_switching2,2021.2.3,59.805965537873476,
condition/block_mixed,instruction/instr_mixed,instruction/i10,蓝,yellow,j,diamond,color_mix,颜色,,incompatible,2,,,,,,,,0,2,2,2,0,0,0,0,0,15,15,15,,,,,,,,,,,,,,,,,,,,,,,,,,,,,,,,,,,308.5130839999765,308.7131935999496,308.698759199935,309.0136832999997,308.9990149999503,None,309.51471539994236,None,j,1,0.9744032999733463,309.51471539994236,None,None,None,310.51605799992103,None,,,,,,,,,,,,,,,,,,,,,11039,1,1,2024_Jun_05_1004,stroop_task_switching2,2021.2.3,59.805965537873476,
condition/block_mixed,instruction/instr_mixed,instruction/i10,黄,red,d,diamond,color_mix,颜色,,incompatible,1,,,,,,,,0,2,2,2,0,0,0,0,0,16,16,16,,,,,,,,,,,,,,,,,,,,,,,,,,,,,,,,,,,311.51774999999907,311.71786039997824,311.70121079997625,312.0015675999457,312.0015675999457,None,312.50224559998605,None,d,1,0.6906377000268549,312.50224559998605,None,None,None,313.2199987999629,None,,,,,,,,,,,,,,,,,,,,,11039,1,1,2024_Jun_05_1004,stroop_task_switching2,2021.2.3,59.805965537873476,
condition/block_mixed,instruction/instr_mixed,instruction/i10,绿,red,k,square,color_mix,单词,,incompatible,2,,,,,,,,0,2,2,2,0,0,0,0,0,17,17,17,,,,,,,,,,,,,,,,,,,,,,,,,,,,,,,,,,,314.22178549994715,314.4220040999353,314.40653109992854,314.7059016999556,314.7059016999556,None,315.20658839994576,None,k,1,0.8101496999152005,315.20658839994576,None,None,None,316.0412874999456,None,,,,,,,,,,,,,,,,,,,,,11039,1,1,2024_Jun_05_1004,stroop_task_switching2,2021.2.3,59.805965537873476,
condition/block_mixed,instruction/instr_mixed,instruction/i10,红,green,d,square,color_mix,单词,,incompatible,1,,,,,,,,0,2,2,2,0,0,0,0,0,18,18,18,,,,,,,,,,,,,,,,,,,,,,,,,,,,,,,,,,,317.0427496000193,317.2442155999597,317.22622760001104,317.52746649994515,317.52746649994515,None,318.027382500004,None,d,1,0.8374069000128657,318.027382500004,None,None,None,318.8956432000268,None,,,,,,,,,,,,,,,,,,,,,11039,1,1,2024_Jun_05_1004,stroop_task_switching2,2021.2.3,59.805965537873476,
condition/block_mixed,instruction/instr_mixed,instruction/i10,黄,blue,f,diamond,color_mix,颜色,,incompatible,2,,,,,,,,0,2,2,2,0,0,0,0,0,19,19,19,,,,,,,,,,,,,,,,,,,,,,,,,,,,,,,,,,,319.89722439995967,320.0974821000127,320.08266940002795,320.3808293999173,320.3808293999173,None,320.88182889996096,None,f,1,1.3593894999939948,320.88182889996096,None,None,None,322.26714879996143,None,,,,,,,,,,,,,,,,,,,,,11039,1,1,2024_Jun_05_1004,stroop_task_switching2,2021.2.3,59.805965537873476,
condition/block_mixed,instruction/instr_mixed,instruction/i10,黄,green,k,diamond,color_mix,颜色,,incompatible,1,,,,,,,,0,2,2,2,0,0,0,0,0,20,20,20,,,,,,,,,,,,,,,,,,,,,,,,,,,,,,,,,,,323.26873419992626,323.47002290003,323.4522967999801,323.7535713999532,323.7535713999532,None,324.25369599997066,None,k,1,0.9955983000108972,324.25369599997066,None,None,None,325.2717184999492,None,,,,,,,,,,,,,,,,,,,,,11039,1,1,2024_Jun_05_1004,stroop_task_switching2,2021.2.3,59.805965537873476,
condition/block_mixed,instruction/instr_mixed,instruction/i10,黄,green,j,square,color_mix,单词,,incompatible,2,,,,,,,,0,2,2,2,0,0,0,0,0,21,21,21,,,,,,,,,,,,,,,,,,,,,,,,,,,,,,,,,,,326.2732859000098,326.47440359997563,326.45680339995306,326.7573343999684,326.7573343999684,None,327.2581780999899,None,j,1,0.5992017999524251,327.2581780999899,None,None,None,327.8755761999637,None,,,,,,,,,,,,,,,,,,,,,11039,1,1,2024_Jun_05_1004,stroop_task_switching2,2021.2.3,59.805965537873476,
condition/block_mixed,instruction/instr_mixed,instruction/i10,黄,blue,j,square,color_mix,单词,,incompatible,1,,,,,,,,0,2,2,2,0,0,0,0,0,22,22,22,,,,,,,,,,,,,,,,,,,,,,,,,,,,,,,,,,,328.8773838999914,329.0773768000072,329.06216019997373,329.36109070002567,329.36109070002567,None,329.86182839993853,None,j,1,0.8838665999937803,329.86182839993853,None,None,None,330.763385899947,None,,,,,,,,,,,,,,,,,,,,,11039,1,1,2024_Jun_05_1004,stroop_task_switching2,2021.2.3,59.805965537873476,
condition/block_mixed,instruction/instr_mixed,instruction/i10,蓝,red,f,square,color_mix,单词,,incompatible,1,,,,,,,,0,2,2,2,0,0,0,0,0,23,23,23,,,,,,,,,,,,,,,,,,,,,,,,,,,,,,,,,,,331.76467790000606,331.96637889998965,331.94843979994766,332.2499018999515,332.2499018999515,None,332.74967749998905,None,f,1,0.8518097000196576,332.74967749998905,None,None,None,333.6176140999887,None,,,,,,,,,,,,,,,,,,,,,11039,1,1,2024_Jun_05_1004,stroop_task_switching2,2021.2.3,59.805965537873476,
condition/block_mixed,instruction/instr_mixed,instruction/i10,绿,red,d,diamond,color_mix,颜色,,incompatible,2,,,,,,,,0,2,2,2,0,0,0,0,0,24,24,24,,,,,,,,,,,,,,,,,,,,,,,,,,,,,,,,,,,334.61912109993864,334.8194595000241,334.80287699995097,335.1030013000127,335.1030013000127,None,335.60375509993173,None,d,1,0.6056220000609756,335.60375509993173,None,None,None,336.2382791999262,None,,,,,,,,,,,,,,,,,,,,,11039,1,1,2024_Jun_05_1004,stroop_task_switching2,2021.2.3,59.805965537873476,
condition/block_mixed,instruction/instr_mixed,instruction/i10,绿,green,k,diamond,color_mix,颜色,,compatible,1,,,,,,,,0,2,2,2,0,0,0,0,0,25,25,25,,,,,,,,,,,,,,,,,,,,,,,,,,,,,,,,,,,337.2396156999748,337.4399425999727,337.42325769993477,337.7238998999819,337.7238998999819,None,338.2245350999292,None,k,1,0.6335690000560135,338.2245350999292,None,None,None,338.8759983999189,None,,,,,,,,,,,,,,,,,,,,,11039,1,1,2024_Jun_05_1004,stroop_task_switching2,2021.2.3,59.805965537873476,
condition/block_mixed,instruction/instr_mixed,instruction/i10,蓝,blue,f,diamond,color_mix,颜色,,compatible,1,,,,,,,,0,2,2,2,0,0,0,0,0,26,26,26,,,,,,,,,,,,,,,,,,,,,,,,,,,,,,,,,,,339.8774560999591,340.07790439995006,340.0607688999735,340.36205499991775,340.36205499991775,None,340.8619952999288,None,f,1,0.651530500035733,340.8619952999288,None,None,None,341.5298258999828,None,,,,,,,,,,,,,,,,,,,,,11039,1,1,2024_Jun_05_1004,stroop_task_switching2,2021.2.3,59.805965537873476,
condition/block_mixed,instruction/instr_mixed,instruction/i10,绿,green,k,square,color_mix,单词,,compatible,2,,,,,,,,0,2,2,2,0,0,0,0,0,27,27,27,,,,,,,,,,,,,,,,,,,,,,,,,,,,,,,,,,,342.53110439993907,342.7314763999311,342.71473929996137,343.0151686000172,343.0151686000172,None,343.51576300000306,None,k,1,0.837687199935317,343.51576300000306,None,None,None,344.38373569992837,None,,,,,,,,,,,,,,,,,,,,,11039,1,1,2024_Jun_05_1004,stroop_task_switching2,2021.2.3,59.805965537873476,
condition/block_mixed,instruction/instr_mixed,instruction/i10,绿,green,k,square,color_mix,单词,,compatible,1,,,,,,,,0,2,2,2,0,0,0,0,0,28,28,28,,,,,,,,,,,,,,,,,,,,,,,,,,,,,,,,,,,345.3856842999812,345.5863712999271,345.5690135000041,345.8697954999516,345.8697954999516,None,346.3702998999506,None,k,1,0.46355500002391636,346.3702998999506,None,None,None,346.85422259999905,None,,,,,,,,,,,,,,,,,,,,,11039,1,1,2024_Jun_05_1004,stroop_task_switching2,2021.2.3,59.805965537873476,
condition/block_mixed,instruction/instr_mixed,instruction/i10,蓝,blue,f,square,color_mix,单词,,compatible,1,,,,,,,,0,2,2,2,0,0,0,0,0,29,29,29,,,,,,,,,,,,,,,,,,,,,,,,,,,,,,,,,,,347.8554968999233,348.0566768000135,348.0393041999778,348.3413895999547,348.3413895999547,None,348.84041309996974,None,f,1,0.7136337000411004,348.84041309996974,None,None,None,349.5750334999757,None,,,,,,,,,,,,,,,,,,,,,11039,1,1,2024_Jun_05_1004,stroop_task_switching2,2021.2.3,59.805965537873476,
condition/block_mixed,instruction/instr_mixed,instruction/i10,黄,yellow,j,diamond,color_mix,颜色,,compatible,2,,,,,,,,0,2,2,2,0,0,0,0,0,30,30,30,,,,,,,,,,,,,,,,,,,,,,,,,,,,,,,,,,,350.5765712999273,350.7775085999165,350.7601971999975,351.0605685999617,351.0605685999617,None,351.5612278999761,None,j,1,0.6084478000411764,351.5612278999761,None,None,None,352.1956381999189,None,,,,,,,,,,,,,,,,,,,,,11039,1,1,2024_Jun_05_1004,stroop_task_switching2,2021.2.3,59.805965537873476,
condition/block_mixed,instruction/instr_mixed,instruction/i10,绿,green,k,square,color_mix,单词,,compatible,2,,,,,,,,0,2,2,2,0,0,0,0,0,31,31,31,,,,,,,,,,,,,,,,,,,,,,,,,,,,,,,,,,,353.19701939995866,353.3980369999772,353.38057589996606,353.68278789997566,353.68278789997566,None,354.18192999996245,None,k,1,0.4922449999721721,354.18192999996245,None,None,None,354.6996723000193,None,,,,,,,,,,,,,,,,,,,,,11039,1,1,2024_Jun_05_1004,stroop_task_switching2,2021.2.3,59.805965537873476,
condition/block_mixed,instruction/instr_mixed,instruction/i10,黄,yellow,j,square,color_mix,单词,,compatible,1,,,,,,,,0,2,2,2,0,0,0,0,0,32,32,32,,,,,,,,,,,,,,,,,,,,,,,,,,,,,,,,,,,355.70121550001204,355.90210119995754,355.88455099996645,356.18489449995104,356.18489449995104,None,356.6859346999554,None,j,1,0.5802381000248715,356.6859346999554,None,None,None,357.2865489999531,None,,,,,,,,,,,,,,,,,,,,,11039,1,1,2024_Jun_05_1004,stroop_task_switching2,2021.2.3,59.805965537873476,
condition/block_mixed,instruction/instr_mixed,instruction/i10,绿,green,k,diamond,color_mix,颜色,,compatible,2,,,,,,,,0,2,2,2,0,0,0,0,0,33,33,33,,,,,,,,,,,,,,,,,,,,,,,,,,,,,,,,,,,358.28842050000094,358.48844929994084,358.47255569999106,358.77209410001524,358.77209410001524,None,359.27298739994876,None,k,1,0.5137471000198275,359.27298739994876,None,None,None,359.8070358999539,None,,,,,,,,,,,,,,,,,,,,,11039,1,1,2024_Jun_05_1004,stroop_task_switching2,2021.2.3,59.805965537873476,
condition/block_mixed,instruction/instr_mixed,instruction/i10,红,red,d,square,color_mix,单词,,compatible,2,,,,,,,,0,2,2,2,0,0,0,0,0,34,34,34,,,,,,,,,,,,,,,,,,,,,,,,,,,,,,,,,,,360.8085570000112,361.0093168999301,360.99215840001125,361.29273139999714,361.29273139999714,None,361.79353309993166,None,d,1,0.6885782999452204,361.79353309993166,None,None,None,362.5111085999524,None,,,,,,,,,,,,,,,,,,,,,11039,1,1,2024_Jun_05_1004,stroop_task_switching2,2021.2.3,59.805965537873476,
condition/block_mixed,instruction/instr_mixed,instruction/i10,黄,yellow,j,square,color_mix,单词,,compatible,1,,,,,,,,0,2,2,2,0,0,0,0,0,35,35,35,,,,,,,,,,,,,,,,,,,,,,,,,,,,,,,,,,,363.512650199933,363.714038599981,363.6962363999337,363.99689199996646,363.99689199996646,None,364.49755819991697,None,j,1,0.5524970000842586,364.49755819991697,None,None,None,365.0816862999927,None,,,,,,,,,,,,,,,,,,,,,11039,1,1,2024_Jun_05_1004,stroop_task_switching2,2021.2.3,59.805965537873476,
condition/block_mixed,instruction/instr_mixed,instruction/i10,绿,green,k,diamond,color_mix,颜色,,compatible,2,,,,,,,,0,2,2,2,0,0,0,0,0,36,36,36,,,,,,,,,,,,,,,,,,,,,,,,,,,,,,,,,,,366.0835133999353,366.2835396999726,366.26795080001466,366.5684184000129,366.5684184000129,None,367.0681407999946,None,k,1,0.5580738000571728,367.0681407999946,None,None,None,367.6523984000087,None,,,,,,,,,,,,,,,,,,,,,11039,1,1,2024_Jun_05_1004,stroop_task_switching2,2021.2.3,59.805965537873476,
condition/block_mixed,instruction/instr_mixed,instruction/i10,蓝,blue,f,square,color_mix,单词,,compatible,2,,,,,,,,0,2,2,2,0,0,0,0,0,37,37,37,,,,,,,,,,,,,,,,,,,,,,,,,,,,,,,,,,,368.65369369997643,368.8542475999566,368.8380484000081,369.13784919993486,369.13784919993486,None,369.63913149992004,None,f,1,0.6515332000562921,369.63913149992004,None,None,None,370.306455599959,None,,,,,,,,,,,,,,,,,,,,,11039,1,1,2024_Jun_05_1004,stroop_task_switching2,2021.2.3,59.805965537873476,
condition/block_mixed,instruction/instr_mixed,instruction/i10,红,red,d,square,color_mix,单词,,compatible,1,,,,,,,,0,2,2,2,0,0,0,0,0,38,38,38,,,,,,,,,,,,,,,,,,,,,,,,,,,,,,,,,,,371.3077188000316,371.50806949997786,371.4922524000285,371.7930844000075,371.7930844000075,None,372.29249409993645,None,d,1,0.5581592000089586,372.29249409993645,None,None,None,372.87673849996645,None,,,,,,,,,,,,,,,,,,,,,11039,1,1,2024_Jun_05_1004,stroop_task_switching2,2021.2.3,59.805965537873476,
condition/block_mixed,instruction/instr_mixed,instruction/i10,黄,yellow,j,diamond,color_mix,颜色,,compatible,2,,,,,,,,0,2,2,2,0,0,0,0,0,39,39,39,,,,,,,,,,,,,,,,,,,,,,,,,,,,,,,,,,,373.8783411999466,374.0786979999393,374.0619807000039,374.36257529992145,374.36257529992145,None,374.8630728999851,None,j,1,0.47568869998212904,374.8630728999851,None,None,None,375.3653847000096,None,,,,,,,,,,,,,,,,,,,,,11039,1,1,2024_Jun_05_1004,stroop_task_switching2,2021.2.3,59.805965537873476,
condition/block_mixed,instruction/instr_mixed,instruction/i10,黄,yellow,j,square,color_mix,单词,,compatible,2,,,,,,,,0,2,2,2,0,0,0,0,0,40,40,40,,,,,,,,,,,,,,,,,,,,,,,,,,,,,,,,,,,376.3656534999609,376.56688349996693,376.54902509995736,376.84921649994794,376.84921649994794,None,377.3506046999246,None,j,1,0.7806857000105083,377.3506046999246,None,None,None,378.1513043999439,None,,,,,,,,,,,,,,,,,,,,,11039,1,1,2024_Jun_05_1004,stroop_task_switching2,2021.2.3,59.805965537873476,
condition/block_mixed,instruction/instr_mixed,instruction/i10,蓝,blue,f,square,color_mix,单词,,compatible,1,,,,,,,,0,2,2,2,0,0,0,0,0,41,41,41,,,,,,,,,,,,,,,,,,,,,,,,,,,,,,,,,,,379.15324579994194,379.35494420002215,379.33660769998096,379.63696359994356,379.63696359994356,None,380.13757140003145,None,f,1,0.6251644999720156,380.13757140003145,None,None,None,380.78876819997095,None,,,,,,,,,,,,,,,,,,,,,11039,1,1,2024_Jun_05_1004,stroop_task_switching2,2021.2.3,59.805965537873476,
condition/block_mixed,instruction/instr_mixed,instruction/i10,蓝,blue,f,diamond,color_mix,颜色,,compatible,2,,,,,,,,0,2,2,2,0,0,0,0,0,42,42,42,,,,,,,,,,,,,,,,,,,,,,,,,,,,,,,,,,,381.79025279998314,381.9921866999939,381.97377229994163,382.2759075999493,382.2759075999493,None,382.77500579995103,None,f,1,0.6846121000126004,382.77500579995103,None,None,None,383.47608709998894,None,,,,,,,,,,,,,,,,,,,,,11039,1,1,2024_Jun_05_1004,stroop_task_switching2,2021.2.3,59.805965537873476,
condition/block_mixed,instruction/instr_mixed,instruction/i10,黄,yellow,j,diamond,color_mix,颜色,,compatible,1,,,,,,,,0,2,2,2,0,0,0,0,0,43,43,43,,,,,,,,,,,,,,,,,,,,,,,,,,,,,,,,,,,384.4778387999395,384.6787492999574,384.6613273000112,384.9625956999371,384.9625956999371,None,385.462422600016,None,j,1,0.5644445000216365,385.462422600016,None,None,None,386.04705809999723,None,,,,,,,,,,,,,,,,,,,,,11039,1,1,2024_Jun_05_1004,stroop_task_switching2,2021.2.3,59.805965537873476,
condition/block_mixed,instruction/instr_mixed,instruction/i10,红,red,d,diamond,color_mix,颜色,,compatible,1,,,,,,,,0,2,2,2,0,0,0,0,0,44,44,44,,,,,,,,,,,,,,,,,,,,,,,,,,,,,,,,,,,387.04848519992083,387.24884639994707,387.2330365999369,387.53236109996215,387.53236109996215,None,388.0328397999983,None,d,1,0.4981443000724539,388.0328397999983,None,None,None,388.55045430001337,None,,,,,,,,,,,,,,,,,,,,,11039,1,1,2024_Jun_05_1004,stroop_task_switching2,2021.2.3,59.805965537873476,
condition/block_mixed,instruction/instr_mixed,instruction/i10,蓝,blue,f,diamond,color_mix,颜色,,compatible,1,,,,,,,,0,2,2,2,0,0,0,0,0,45,45,45,,,,,,,,,,,,,,,,,,,,,,,,,,,,,,,,,,,389.5523557999404,389.75350719993,389.7356124999933,390.0366860999493,390.0366860999493,None,390.5374765000306,None,f,1,0.609493299969472,390.5374765000306,None,None,None,391.17258609994315,None,,,,,,,,,,,,,,,,,,,,,11039,1,1,2024_Jun_05_1004,stroop_task_switching2,2021.2.3,59.805965537873476,
condition/block_mixed,instruction/instr_mixed,instruction/i10,红,red,d,diamond,color_mix,颜色,,compatible,1,,,,,,,,0,2,2,2,0,0,0,0,0,46,46,46,,,,,,,,,,,,,,,,,,,,,,,,,,,,,,,,,,,392.17304589995183,392.3730100999819,392.3562116000103,392.6567281000316,392.6567281000316,None,393.1574010999175,None,d,1,0.5175563999218866,393.1574010999175,None,None,None,393.691859500017,None,,,,,,,,,,,,,,,,,,,,,11039,1,1,2024_Jun_05_1004,stroop_task_switching2,2021.2.3,59.805965537873476,
condition/block_mixed,instruction/instr_mixed,instruction/i10,红,red,d,square,color_mix,单词,,compatible,2,,,,,,,,0,2,2,2,0,0,0,0,0,47,47,47,,,,,,,,,,,,,,,,,,,,,,,,,,,,,,,,,,,394.6932121999562,394.89383259997703,394.8765730999876,395.1780277999351,395.1780277999351,None,395.67826179997064,None,d,1,0.5169357999693602,395.67826179997064,None,None,None,396.2120153999422,None,,,,,,,,,,,,,,,,,,,,,11039,1,1,2024_Jun_05_1004,stroop_task_switching2,2021.2.3,59.805965537873476,
condition/block_mixed,instruction/instr_mixed,instruction/i10,红,red,d,diamond,color_mix,颜色,,compatible,2,,,,,,,,0,2,2,2,0,0,0,0,0,48,48,48,,,,,,,,,,,,,,,,,,,,,,,,,,,,,,,,,,,397.21343120001256,397.41397829994094,397.39704229997005,397.69765849993564,397.69765849993564,None,398.19824870000593,None,d,1,0.4775036999490112,398.19824870000593,None,None,None,398.69907169998623,None,,,,,,,,,,,,,,,,,,,,,11039,1,1,2024_Jun_05_1004,stroop_task_switching2,2021.2.3,59.805965537873476,
condition/block_mixed,instruction/instr_mixed,instruction/i10,,,,,,,,,,,,,,,,,0,2,2,2,0,0,0,0,,,,,,,,,,,,,,,,,,,,,,,,,,,,,,,,,,,,,,,,,,,,,,,,,,,,,,,,399.70040949992836,None,space,10.381323500070721,399.70040949992836,None,,,,,,,,,,,,,,,11039,1,1,2024_Jun_05_1004,stroop_task_switching2,2021.2.3,59.805965537873476,
condition/block_mixed,instruction/instr_mixed,instruction/i10,,,,,,,,,,,,,,,,,0,2,2,2,,,,,,,,,,,,,,,,,,,,,,,,,,,,,,,,,,,,,,,,,,,,,,,,,,,,,,,,,,,,,,,,,,,,,,,,,,,,,,,,11039,1,1,2024_Jun_05_1004,stroop_task_switching2,2021.2.3,59.805965537873476,
,,,红,red,d,square,color_mix,单词,,compatible,0,block_switch1,instruction/ready_test.png,instruction/i11.png,,,,,,,,,,,,,,,,,0,0,0,0,0,0,0,0,,,,,,,,,,,,,,,,,,,418.37907659995835,419.381131800008,419.381131800008,420.3821842999896,420.3821842999896,None,417.393899000017,418.3958717000205,421.4168759000022,421.61788049992174,421.600123399985,421.9020140999928,421.9020140999928,None,422.4014557999326,None,d,1,0.4584966000402346,422.4014557999326,None,None,None,,,,,,,,,410.13316989992745,None,space,7.238631200045347,410.13316989992745,None,,,,,,,,,11039,1,1,2024_Jun_05_1004,stroop_task_switching2,2021.2.3,59.805965537873476,
,,,绿,green,k,diamond,color_mix,颜色,,compatible,2,block_switch1,instruction/ready_test.png,instruction/i11.png,,,,,,,,,,,,,,,,,0,0,0,0,0,1,1,1,,,,,,,,,,,,,,,,,,,,,,,,,,,422.88538510003127,423.0857146999333,423.0702395000262,423.3701126999222,423.3701126999222,None,423.87045399995986,None,k,1,0.66163200000301,423.87045399995986,None,None,None,,,,,,,,,,,,,,,,,,,,,,,11039,1,1,2024_Jun_05_1004,stroop_task_switching2,2021.2.3,59.805965537873476,
,,,绿,yellow,j,diamond,color_mix,颜色,,incompatible,1,block_switch1,instruction/ready_test.png,instruction/i11.png,,,,,,,,,,,,,,,,,0,0,0,0,0,2,2,2,,,,,,,,,,,,,,,,,,,,,,,,,,,424.5545962000033,424.75584889994934,424.7383350000018,425.0393989000004,425.0393989000004,None,425.53947429999243,None,k,0,0.5363367999671027,425.53947429999243,None,None,None,,,,,,,,,,,,,,,,,,,,,,,11039,1,1,2024_Jun_05_1004,stroop_task_switching2,2021.2.3,59.805965537873476,
,,,蓝,blue,f,diamond,color_mix,颜色,,compatible,1,block_switch1,instruction/ready_test.png,instruction/i11.png,,,,,,,,,,,,,,,,,0,0,0,0,0,3,3,3,,,,,,,,,,,,,,,,,,,,,,,,,,,426.1070722999284,426.30745259998366,426.2908784999745,426.5912280000048,426.5912280000048,None,427.0919582999777,None,f,1,1.408179400023073,427.0919582999777,None,None,None,,,,,,,,,,,,,,,,,,,,,,,11039,1,1,2024_Jun_05_1004,stroop_task_switching2,2021.2.3,59.805965537873476,
,,,绿,green,k,square,color_mix,单词,,compatible,2,block_switch1,instruction/ready_test.png,instruction/i11.png,,,,,,,,,,,,,,,,,0,0,0,0,0,4,4,4,,,,,,,,,,,,,,,,,,,,,,,,,,,428.5274973999476,428.72839860001113,428.71101859991904,429.01122809993103,429.01122809993103,None,429.5121247000061,None,k,1,0.89206879993435,429.5121247000061,None,None,None,,,,,,,,,,,,,,,,,,,,,,,11039,1,1,2024_Jun_05_1004,stroop_task_switching2,2021.2.3,59.805965537873476,
,,,绿,blue,f,diamond,color_mix,颜色,,incompatible,2,block_switch1,instruction/ready_test.png,instruction/i11.png,,,,,,,,,,,,,,,,,0,0,0,0,0,5,5,5,,,,,,,,,,,,,,,,,,,,,,,,,,,430.43007340002805,430.63050690002274,430.6149924999336,430.91521419992205,430.91521419992205,None,431.4151360000251,None,f,1,0.9248869000002742,431.4151360000251,None,None,None,,,,,,,,,,,,,,,,,,,,,,,11039,1,1,2024_Jun_05_1004,stroop_task_switching2,2021.2.3,59.805965537873476,
,,,黄,red,j,square,color_mix,单词,,incompatible,2,block_switch1,instruction/ready_test.png,instruction/i11.png,,,,,,,,,,,,,,,,,0,0,0,0,0,6,6,6,,,,,,,,,,,,,,,,,,,,,,,,,,,432.36652499996126,432.5668563999934,432.5500996999908,432.8508468000218,432.8508468000218,None,433.35119159996975,None,j,1,1.0928471999941394,433.35119159996975,None,None,None,,,,,,,,,,,,,,,,,,,,,,,11039,1,1,2024_Jun_05_1004,stroop_task_switching2,2021.2.3,59.805965537873476,
,,,绿,green,k,square,color_mix,单词,,compatible,1,block_switch1,instruction/ready_test.png,instruction/i11.png,,,,,,,,,,,,,,,,,0,0,0,0,0,7,7,7,,,,,,,,,,,,,,,,,,,,,,,,,,,434.469702100032,434.6709055999527,434.6531863999553,434.95383919996675,434.95383919996675,None,435.45446819998324,None,k,1,0.550027999910526,435.45446819998324,None,None,None,,,,,,,,,,,,,,,,,,,,,,,11039,1,1,2024_Jun_05_1004,stroop_task_switching2,2021.2.3,59.805965537873476,
,,,蓝,blue,f,square,color_mix,单词,,compatible,1,block_switch1,instruction/ready_test.png,instruction/i11.png,,,,,,,,,,,,,,,,,0,0,0,0,0,8,8,8,,,,,,,,,,,,,,,,,,,,,,,,,,,436.02241720003076,436.2224982000189,436.2065752999624,436.5059021000052,436.5059021000052,None,437.00667679996695,None,f,1,1.6054223999381065,437.00667679996695,None,None,None,,,,,,,,,,,,,,,,,,,,,,,11039,1,1,2024_Jun_05_1004,stroop_task_switching2,2021.2.3,59.805965537873476,
,,,红,red,d,diamond,color_mix,颜色,,compatible,2,block_switch1,instruction/ready_test.png,instruction/i11.png,,,,,,,,,,,,,,,,,0,0,0,0,0,9,9,9,,,,,,,,,,,,,,,,,,,,,,,,,,,438.6426820999477,438.8436198999407,438.8263311999617,439.1274502000306,439.1274502000306,None,439.62757759995293,None,d,1,0.6248172000050545,439.62757759995293,None,None,None,,,,,,,,,,,,,,,,,,,,,,,11039,1,1,2024_Jun_05_1004,stroop_task_switching2,2021.2.3,59.805965537873476,
,,,黄,yellow,j,diamond,color_mix,颜色,,compatible,1,block_switch1,instruction/ready_test.png,instruction/i11.png,,,,,,,,,,,,,,,,,0,0,0,0,0,10,10,10,,,,,,,,,,,,,,,,,,,,,,,,,,,440.27859499992337,440.47871309996117,440.46299189992715,440.7624206999317,440.7624206999317,None,441.26352349994704,None,j,1,0.9809440000681207,441.26352349994704,None,None,None,,,,,,,,,,,,,,,,,,,,,,,11039,1,1,2024_Jun_05_1004,stroop_task_switching2,2021.2.3,59.805965537873476,
,,,绿,green,k,square,color_mix,单词,,compatible,2,block_switch1,instruction/ready_test.png,instruction/i11.png,,,,,,,,,,,,,,,,,0,0,0,0,0,11,11,11,,,,,,,,,,,,,,,,,,,,,,,,,,,442.2647796999663,442.46569199999794,442.44843049999326,442.7488265000284,442.7488265000284,None,443.2497868000064,None,k,1,0.8584173999261111,443.2497868000064,None,None,None,,,,,,,,,,,,,,,,,,,,,,,11039,1,1,2024_Jun_05_1004,stroop_task_switching2,2021.2.3,59.805965537873476,
,,,红,red,d,diamond,color_mix,颜色,,compatible,2,block_switch1,instruction/ready_test.png,instruction/i11.png,,,,,,,,,,,,,,,,,0,0,0,0,0,12,12,12,,,,,,,,,,,,,,,,,,,,,,,,,,,444.1342315999791,444.33468849991914,444.3182121999562,444.6187597999815,444.6187597999815,None,445.11904729995877,None,d,1,0.40615550009533763,445.11904729995877,None,None,None,,,,,,,,,,,,,,,,,,,,,,,11039,1,1,2024_Jun_05_1004,stroop_task_switching2,2021.2.3,59.805965537873476,
,,,红,red,d,diamond,color_mix,颜色,,compatible,1,block_switch1,instruction/ready_test.png,instruction/i11.png,,,,,,,,,,,,,,,,,0,0,0,0,0,13,13,13,,,,,,,,,,,,,,,,,,,,,,,,,,,445.5535482999403,445.75472029997036,445.73674039996695,446.038426999934,446.038426999934,None,446.5379447999876,None,d,1,0.40240110002923757,446.5379447999876,None,None,None,,,,,,,,,,,,,,,,,,,,,,,11039,1,1,2024_Jun_05_1004,stroop_task_switching2,2021.2.3,59.805965537873476,
,,,黄,yellow,j,square,color_mix,单词,,compatible,2,block_switch1,instruction/ready_test.png,instruction/i11.png,,,,,,,,,,,,,,,,,0,0,0,0,0,14,14,14,,,,,,,,,,,,,,,,,,,,,,,,,,,446.9718236000044,447.17276490002405,447.15585679991636,447.4566829999676,447.4566829999676,None,447.95681020000484,None,j,1,0.6559521000599489,447.95681020000484,None,None,None,,,,,,,,,,,,,,,,,,,,,,,11039,1,1,2024_Jun_05_1004,stroop_task_switching2,2021.2.3,59.805965537873476,
,,,红,green,k,diamond,color_mix,颜色,,incompatible,2,block_switch1,instruction/ready_test.png,instruction/i11.png,,,,,,,,,,,,,,,,,0,0,0,0,0,15,15,15,,,,,,,,,,,,,,,,,,,,,,,,,,,448.64104219991714,448.84132899995893,448.8247642000206,449.12562129995786,449.12562129995786,None,449.6259035000112,None,k,1,1.6267753000138327,449.6259035000112,None,None,None,,,,,,,,,,,,,,,,,,,,,,,11039,1,1,2024_Jun_05_1004,stroop_task_switching2,2021.2.3,59.805965537873476,
,,,蓝,red,d,diamond,color_mix,颜色,,incompatible,1,block_switch1,instruction/ready_test.png,instruction/i11.png,,,,,,,,,,,,,,,,,0,0,0,0,0,16,16,16,,,,,,,,,,,,,,,,,,,,,,,,,,,451.27841629995964,451.4788451999193,451.46208279998973,451.76266609993763,451.76266609993763,None,452.2630205999594,None,d,1,1.1177244000136852,452.2630205999594,None,None,None,,,,,,,,,,,,,,,,,,,,,,,11039,1,1,2024_Jun_05_1004,stroop_task_switching2,2021.2.3,59.805965537873476,
,,,黄,green,k,diamond,color_mix,颜色,,incompatible,1,block_switch1,instruction/ready_test.png,instruction/i11.png,,,,,,,,,,,,,,,,,0,0,0,0,0,17,17,17,,,,,,,,,,,,,,,,,,,,,,,,,,,453.3980827999767,453.59902919991873,453.58186059992295,453.88234070001636,453.88234070001636,None,454.38308449997567,None,k,1,0.9176191000733525,454.38308449997567,None,None,None,,,,,,,,,,,,,,,,,,,,,,,11039,1,1,2024_Jun_05_1004,stroop_task_switching2,2021.2.3,59.805965537873476,
,,,绿,green,k,diamond,color_mix,颜色,,compatible,1,block_switch1,instruction/ready_test.png,instruction/i11.png,,,,,,,,,,,,,,,,,0,0,0,0,0,18,18,18,,,,,,,,,,,,,,,,,,,,,,,,,,,455.31794969993643,455.52070599992294,455.50155189994257,455.80190319998655,455.80190319998655,None,456.30251409998164,None,k,1,0.7504268999909982,456.30251409998164,None,None,None,,,,,,,,,,,,,,,,,,,,,,,11039,1,1,2024_Jun_05_1004,stroop_task_switching2,2021.2.3,59.805965537873476,
,,,黄,red,d,diamond,color_mix,颜色,,incompatible,1,block_switch1,instruction/ready_test.png,instruction/i11.png,,,,,,,,,,,,,,,,,0,0,0,0,0,19,19,19,,,,,,,,,,,,,,,,,,,,,,,,,,,457.07066839991603,457.27119859994855,457.2540503999917,457.5557533999672,457.5557533999672,None,458.0552878000308,None,d,1,0.6293855999829248,458.0552878000308,None,None,None,,,,,,,,,,,,,,,,,,,,,,,11039,1,1,2024_Jun_05_1004,stroop_task_switching2,2021.2.3,59.805965537873476,
,,,绿,yellow,k,square,color_mix,单词,,incompatible,2,block_switch1,instruction/ready_test.png,instruction/i11.png,,,,,,,,,,,,,,,,,0,0,0,0,0,20,20,20,,,,,,,,,,,,,,,,,,,,,,,,,,,458.70640339993406,458.9069655999774,458.8897056999849,459.19051560002845,459.19051560002845,None,459.6910900999792,None,k,1,0.8659121999517083,459.6910900999792,None,None,None,,,,,,,,,,,,,,,,,,,,,,,11039,1,1,2024_Jun_05_1004,stroop_task_switching2,2021.2.3,59.805965537873476,
,,,绿,yellow,j,diamond,color_mix,颜色,,incompatible,2,block_switch1,instruction/ready_test.png,instruction/i11.png,,,,,,,,,,,,,,,,,0,0,0,0,0,21,21,21,,,,,,,,,,,,,,,,,,,,,,,,,,,460.575900399941,460.7765430000145,460.7592232999159,461.0595333999954,461.0595333999954,None,461.56088150001597,None,j,1,1.0522290000226349,461.56088150001597,None,None,None,,,,,,,,,,,,,,,,,,,,,,,11039,1,1,2024_Jun_05_1004,stroop_task_switching2,2021.2.3,59.805965537873476,
,,,绿,green,k,square,color_mix,单词,,compatible,2,block_switch1,instruction/ready_test.png,instruction/i11.png,,,,,,,,,,,,,,,,,0,0,0,0,0,22,22,22,,,,,,,,,,,,,,,,,,,,,,,,,,,462.6293364999583,462.82959630002733,462.81290709995665,463.1141598999966,463.1141598999966,None,463.6137394999387,None,k,1,1.1030284999869764,463.6137394999387,None,None,None,,,,,,,,,,,,,,,,,,,,,,,11039,1,1,2024_Jun_05_1004,stroop_task_switching2,2021.2.3,59.805965537873476,
,,,红,red,d,square,color_mix,单词,,compatible,1,block_switch1,instruction/ready_test.png,instruction/i11.png,,,,,,,,,,,,,,,,,0,0,0,0,0,23,23,23,,,,,,,,,,,,,,,,,,,,,,,,,,,464.74892119993456,464.94946359994356,464.93244509992655,465.2339408999542,465.2339408999542,None,465.73352959996555,None,d,1,0.5516473000170663,465.73352959996555,None,None,None,,,,,,,,,,,,,,,,,,,,,,,11039,1,1,2024_Jun_05_1004,stroop_task_switching2,2021.2.3,59.805965537873476,
,,,黄,green,j,square,color_mix,单词,,incompatible,1,block_switch1,instruction/ready_test.png,instruction/i11.png,,,,,,,,,,,,,,,,,0,0,0,0,0,24,24,24,,,,,,,,,,,,,,,,,,,,,,,,,,,466.3017576999264,466.50222799996845,466.48469049995765,466.7855243999511,466.7855243999511,None,467.2857051999308,None,j,1,0.8794338000006974,467.2857051999308,None,None,None,,,,,,,,,,,,,,,,,,,,,,,11039,1,1,2024_Jun_05_1004,stroop_task_switching2,2021.2.3,59.805965537873476,
,,,红,blue,d,square,color_mix,单词,,incompatible,1,block_switch1,instruction/ready_test.png,instruction/i11.png,,,,,,,,,,,,,,,,,0,0,0,0,0,25,25,25,,,,,,,,,,,,,,,,,,,,,,,,,,,468.18727400002535,468.387083999929,468.370869699982,468.67130099993665,468.67130099993665,None,469.17202960001305,None,d,1,0.6734305999707431,469.17202960001305,None,None,None,,,,,,,,,,,,,,,,,,,,,,,11039,1,1,2024_Jun_05_1004,stroop_task_switching2,2021.2.3,59.805965537873476,
,,,黄,yellow,j,square,color_mix,单词,,compatible,1,block_switch1,instruction/ready_test.png,instruction/i11.png,,,,,,,,,,,,,,,,,0,0,0,0,0,26,26,26,,,,,,,,,,,,,,,,,,,,,,,,,,,469.87299709999934,470.0742339999415,470.05650730000343,470.3571621000301,470.3571621000301,None,470.85786719992757,None,j,1,0.5871223999420181,470.85786719992757,None,None,None,,,,,,,,,,,,,,,,,,,,,,,11039,1,1,2024_Jun_05_1004,stroop_task_switching2,2021.2.3,59.805965537873476,
,,,蓝,green,f,square,color_mix,单词,,incompatible,1,block_switch1,instruction/ready_test.png,instruction/i11.png,,,,,,,,,,,,,,,,,0,0,0,0,0,27,27,27,,,,,,,,,,,,,,,,,,,,,,,,,,,471.47546869993676,471.6759025999345,471.66016540001146,471.9602613999741,471.9602613999741,None,472.4602098999312,None,f,1,0.5292991999303922,472.4602098999312,None,None,None,,,,,,,,,,,,,,,,,,,,,,,11039,1,1,2024_Jun_05_1004,stroop_task_switching2,2021.2.3,59.805965537873476,
,,,绿,green,k,diamond,color_mix,颜色,,compatible,2,block_switch1,instruction/ready_test.png,instruction/i11.png,,,,,,,,,,,,,,,,,0,0,0,0,0,28,28,28,,,,,,,,,,,,,,,,,,,,,,,,,,,473.0110297999345,473.2122794999741,473.1947034000186,473.4951777999522,473.4951777999522,None,473.9959647000069,None,k,1,0.5939580999547616,473.9959647000069,None,None,None,,,,,,,,,,,,,,,,,,,,,,,11039,1,1,2024_Jun_05_1004,stroop_task_switching2,2021.2.3,59.805965537873476,
,,,黄,blue,f,diamond,color_mix,颜色,,incompatible,1,block_switch1,instruction/ready_test.png,instruction/i11.png,,,,,,,,,,,,,,,,,0,0,0,0,0,29,29,29,,,,,,,,,,,,,,,,,,,,,,,,,,,474.6136669999687,474.8149599999888,474.79705389996525,475.09778209996875,475.09778209996875,None,475.59829290001653,None,f,1,1.007778299972415,475.59829290001653,None,None,None,,,,,,,,,,,,,,,,,,,,,,,11039,1,1,2024_Jun_05_1004,stroop_task_switching2,2021.2.3,59.805965537873476,
,,,绿,green,k,diamond,color_mix,颜色,,compatible,1,block_switch1,instruction/ready_test.png,instruction/i11.png,,,,,,,,,,,,,,,,,0,0,0,0,0,30,30,30,,,,,,,,,,,,,,,,,,,,,,,,,,,476.6330146000255,476.8348495999817,476.81683169992175,477.11792829993647,477.11792829993647,None,477.6183431999525,None,k,1,0.7476690000621602,477.6183431999525,None,None,None,,,,,,,,,,,,,,,,,,,,,,,11039,1,1,2024_Jun_05_1004,stroop_task_switching2,2021.2.3,59.805965537873476,
,,,蓝,blue,f,square,color_mix,单词,,compatible,2,block_switch1,instruction/ready_test.png,instruction/i11.png,,,,,,,,,,,,,,,,,0,0,0,0,0,31,31,31,,,,,,,,,,,,,,,,,,,,,,,,,,,478.38584050000645,478.5867446999764,478.56945159996394,478.8715875999769,478.8715875999769,None,479.37062399997376,None,f,1,0.6191474000224844,479.37062399997376,None,None,None,,,,,,,,,,,,,,,,,,,,,,,11039,1,1,2024_Jun_05_1004,stroop_task_switching2,2021.2.3,59.805965537873476,
,,,红,red,d,square,color_mix,单词,,compatible,1,block_switch1,instruction/ready_test.png,instruction/i11.png,,,,,,,,,,,,,,,,,0,0,0,0,0,32,32,32,,,,,,,,,,,,,,,,,,,,,,,,,,,480.0217391999904,480.22376039996743,480.20535169995856,480.50714819994755,480.50714819994755,None,481.00664989999495,None,d,1,0.4548166000749916,481.00664989999495,None,None,None,,,,,,,,,,,,,,,,,,,,,,,11039,1,1,2024_Jun_05_1004,stroop_task_switching2,2021.2.3,59.805965537873476,
,,,红,green,d,square,color_mix,单词,,incompatible,1,block_switch1,instruction/ready_test.png,instruction/i11.png,,,,,,,,,,,,,,,,,0,0,0,0,0,33,33,33,,,,,,,,,,,,,,,,,,,,,,,,,,,481.4903567000292,481.69220629998017,481.67415839992464,481.9745454000076,481.9745454000076,None,482.4754548999481,None,d,1,0.5139593000058085,482.4754548999481,None,None,None,,,,,,,,,,,,,,,,,,,,,,,11039,1,1,2024_Jun_05_1004,stroop_task_switching2,2021.2.3,59.805965537873476,
,,,黄,yellow,j,diamond,color_mix,颜色,,compatible,2,block_switch1,instruction/ready_test.png,instruction/i11.png,,,,,,,,,,,,,,,,,0,0,0,0,0,34,34,34,,,,,,,,,,,,,,,,,,,,,,,,,,,483.0096950000152,483.2099453000119,483.19568130001426,483.49385430000257,483.49385430000257,None,483.9940187999746,None,j,1,0.8193692000349984,483.9940187999746,None,None,None,,,,,,,,,,,,,,,,,,,,,,,11039,1,1,2024_Jun_05_1004,stroop_task_switching2,2021.2.3,59.805965537873476,
,,,红,green,k,diamond,color_mix,颜色,,incompatible,1,block_switch1,instruction/ready_test.png,instruction/i11.png,,,,,,,,,,,,,,,,,0,0,0,0,0,35,35,35,,,,,,,,,,,,,,,,,,,,,,,,,,,484.8290890000062,485.02932049997617,485.0130865999963,485.3128764999565,485.3128764999565,None,485.8135746999178,None,k,1,0.7441417000954971,485.8135746999178,None,None,None,,,,,,,,,,,,,,,,,,,,,,,11039,1,1,2024_Jun_05_1004,stroop_task_switching2,2021.2.3,59.805965537873476,
,,,黄,yellow,j,square,color_mix,单词,,compatible,2,block_switch1,instruction/ready_test.png,instruction/i11.png,,,,,,,,,,,,,,,,,0,0,0,0,0,36,36,36,,,,,,,,,,,,,,,,,,,,,,,,,,,486.5813837000169,486.78217659995425,486.7659824999282,487.06564729998354,487.06564729998354,None,487.56648449995555,None,j,1,0.599183400045149,487.56648449995555,None,None,None,,,,,,,,,,,,,,,,,,,,,,,11039,1,1,2024_Jun_05_1004,stroop_task_switching2,2021.2.3,59.805965537873476,
,,,蓝,blue,f,square,color_mix,单词,,compatible,1,block_switch1,instruction/ready_test.png,instruction/i11.png,,,,,,,,,,,,,,,,,0,0,0,0,0,37,37,37,,,,,,,,,,,,,,,,,,,,,,,,,,,488.1844531999668,488.384349299944,488.36747950001154,488.6703600999899,488.6703600999899,None,489.1854805999901,None,f,1,0.7885443000122905,489.1854805999901,None,None,None,,,,,,,,,,,,,,,,,,,,,,,11039,1,1,2024_Jun_05_1004,stroop_task_switching2,2021.2.3,59.805965537873476,
,,,绿,red,d,diamond,color_mix,颜色,,incompatible,2,block_switch1,instruction/ready_test.png,instruction/i11.png,,,,,,,,,,,,,,,,,0,0,0,0,0,38,38,38,,,,,,,,,,,,,,,,,,,,,,,,,,,490.0035154999932,490.2045504000271,490.186987199937,490.4873016999336,490.4873016999336,None,490.9884374999674,None,k,0,0.705573600018397,490.9884374999674,None,None,None,,,,,,,,,,,,,,,,,,,,,,,11039,1,1,2024_Jun_05_1004,stroop_task_switching2,2021.2.3,59.805965537873476,
,,,黄,yellow,j,diamond,color_mix,颜色,,compatible,1,block_switch1,instruction/ready_test.png,instruction/i11.png,,,,,,,,,,,,,,,,,0,0,0,0,0,39,39,39,,,,,,,,,,,,,,,,,,,,,,,,,,,491.72285379993264,491.9232522000093,491.90620740002487,492.20769319997635,492.20769319997635,None,492.70815530000255,None,j,1,0.5617008999688551,492.70815530000255,None,None,None,,,,,,,,,,,,,,,,,,,,,,,11039,1,1,2024_Jun_05_1004,stroop_task_switching2,2021.2.3,59.805965537873476,
,,,红,blue,f,diamond,color_mix,颜色,,incompatible,1,block_switch1,instruction/ready_test.png,instruction/i11.png,,,,,,,,,,,,,,,,,0,0,0,0,0,40,40,40,,,,,,,,,,,,,,,,,,,,,,,,,,,493.29177409992553,493.49295009998605,493.4754106999608,493.77630849997513,493.77630849997513,None,494.27665929996874,None,f,1,0.9770111000398174,494.27665929996874,None,None,None,,,,,,,,,,,,,,,,,,,,,,,11039,1,1,2024_Jun_05_1004,stroop_task_switching2,2021.2.3,59.805965537873476,
,,,绿,blue,k,square,color_mix,单词,,incompatible,2,block_switch1,instruction/ready_test.png,instruction/i11.png,,,,,,,,,,,,,,,,,0,0,0,0,0,41,41,41,,,,,,,,,,,,,,,,,,,,,,,,,,,495.2786041999934,495.4793996999506,495.4616765999235,495.7635109999683,495.7635109999683,None,496.26266040001065,None,k,1,0.727031399961561,496.26266040001065,None,None,None,,,,,,,,,,,,,,,,,,,,,,,11039,1,1,2024_Jun_05_1004,stroop_task_switching2,2021.2.3,59.805965537873476,
,,,蓝,blue,f,diamond,color_mix,颜色,,compatible,2,block_switch1,instruction/ready_test.png,instruction/i11.png,,,,,,,,,,,,,,,,,0,0,0,0,0,42,42,42,,,,,,,,,,,,,,,,,,,,,,,,,,,497.0138854000252,497.21504699997604,497.1975201999303,497.49808789999224,497.49808789999224,None,497.9992258999264,None,f,1,0.9025393999181688,497.9992258999264,None,None,None,,,,,,,,,,,,,,,,,,,,,,,11039,1,1,2024_Jun_05_1004,stroop_task_switching2,2021.2.3,59.805965537873476,
,,,红,blue,d,square,color_mix,单词,,incompatible,2,block_switch1,instruction/ready_test.png,instruction/i11.png,,,,,,,,,,,,,,,,,0,0,0,0,0,43,43,43,,,,,,,,,,,,,,,,,,,,,,,,,,,498.9335773999337,499.1338903999422,499.1174883999629,499.41748059995007,499.41748059995007,None,499.91877609991934,None,d,1,0.535107999923639,499.91877609991934,None,None,None,,,,,,,,,,,,,,,,,,,,,,,11039,1,1,2024_Jun_05_1004,stroop_task_switching2,2021.2.3,59.805965537873476,
,,,蓝,green,k,diamond,color_mix,颜色,,incompatible,2,block_switch1,instruction/ready_test.png,instruction/i11.png,,,,,,,,,,,,,,,,,0,0,0,0,0,44,44,44,,,,,,,,,,,,,,,,,,,,,,,,,,,500.4691621999955,500.6696063999552,500.6529354000231,500.9531831999775,500.9531831999775,None,501.45401330001187,None,k,1,1.7521726000122726,501.45401330001187,None,None,None,,,,,,,,,,,,,,,,,,,,,,,11039,1,1,2024_Jun_05_1004,stroop_task_switching2,2021.2.3,59.805965537873476,
,,,黄,yellow,j,square,color_mix,单词,,compatible,2,block_switch1,instruction/ready_test.png,instruction/i11.png,,,,,,,,,,,,,,,,,0,0,0,0,0,45,45,45,,,,,,,,,,,,,,,,,,,,,,,,,,,503.2234512999421,503.4248158999253,503.4066926999949,503.7082448999863,503.7082448999863,None,504.20853539998643,None,j,1,0.9017269000178203,504.20853539998643,None,None,None,,,,,,,,,,,,,,,,,,,,,,,11039,1,1,2024_Jun_05_1004,stroop_task_switching2,2021.2.3,59.805965537873476,
,,,黄,yellow,j,diamond,color_mix,颜色,,compatible,2,block_switch1,instruction/ready_test.png,instruction/i11.png,,,,,,,,,,,,,,,,,0,0,0,0,0,46,46,46,,,,,,,,,,,,,,,,,,,,,,,,,,,505.1261135999812,505.32687520002946,505.30981839995366,505.6106558999745,505.6106558999745,None,506.1111378999194,None,j,1,0.6630530999973416,506.1111378999194,None,None,None,,,,,,,,,,,,,,,,,,,,,,,11039,1,1,2024_Jun_05_1004,stroop_task_switching2,2021.2.3,59.805965537873476,
,,,绿,red,k,square,color_mix,单词,,incompatible,2,block_switch1,instruction/ready_test.png,instruction/i11.png,,,,,,,,,,,,,,,,,0,0,0,0,0,47,47,47,,,,,,,,,,,,,,,,,,,,,,,,,,,506.79544589994475,506.9956054999493,506.98125950002577,507.2800931999227,507.2800931999227,None,507.78032229992095,None,k,1,1.0819899999769405,507.78032229992095,None,None,None,,,,,,,,,,,,,,,,,,,,,,,11039,1,1,2024_Jun_05_1004,stroop_task_switching2,2021.2.3,59.805965537873476,
,,,红,red,d,diamond,color_mix,颜色,,compatible,2,block_switch1,instruction/ready_test.png,instruction/i11.png,,,,,,,,,,,,,,,,,0,0,0,0,0,48,48,48,,,,,,,,,,,,,,,,,,,,,,,,,,,508.88160309998784,509.0837146999547,509.0654784999788,509.36589349992573,509.36589349992573,None,509.86671049997676,None,d,1,0.5713623999617994,509.86671049997676,None,None,None,,,,,,,,,,,,,,,,,,,,,,,11039,1,1,2024_Jun_05_1004,stroop_task_switching2,2021.2.3,59.805965537873476,
,,,蓝,blue,f,diamond,color_mix,颜色,,compatible,1,block_switch1,instruction/ready_test.png,instruction/i11.png,,,,,,,,,,,,,,,,,0,0,0,0,0,49,49,49,,,,,,,,,,,,,,,,,,,,,,,,,,,510.4675186999375,510.66827779996675,510.6512209000066,510.95272379997186,510.95272379997186,None,511.4538695999654,None,f,1,0.5284222000045702,511.4538695999654,None,None,None,,,,,,,,,,,,,,,,,,,,,,,11039,1,1,2024_Jun_05_1004,stroop_task_switching2,2021.2.3,59.805965537873476,
,,,黄,yellow,j,diamond,color_mix,颜色,,compatible,1,block_switch1,instruction/ready_test.png,instruction/i11.png,,,,,,,,,,,,,,,,,0,0,0,0,0,50,50,50,,,,,,,,,,,,,,,,,,,,,,,,,,,512.0033795000054,512.2036290999968,512.1869110999396,512.4883930999786,512.4883930999786,None,512.9881401000312,None,j,1,0.5941503000212833,512.9881401000312,None,None,None,,,,,,,,,,,,,,,,,,,,,,,11039,1,1,2024_Jun_05_1004,stroop_task_switching2,2021.2.3,59.805965537873476,
,,,红,blue,f,diamond,color_mix,颜色,,incompatible,1,block_switch1,instruction/ready_test.png,instruction/i11.png,,,,,,,,,,,,,,,,,0,0,0,0,0,51,51,51,,,,,,,,,,,,,,,,,,,,,,,,,,,513.6054775000084,513.8060616999865,513.7905883999774,514.089701400022,514.089701400022,None,514.5903284000233,None,f,1,0.9282687999075279,514.5903284000233,None,None,None,,,,,,,,,,,,,,,,,,,,,,,11039,1,1,2024_Jun_05_1004,stroop_task_switching2,2021.2.3,59.805965537873476,
,,,蓝,yellow,j,diamond,color_mix,颜色,,incompatible,1,block_switch1,instruction/ready_test.png,instruction/i11.png,,,,,,,,,,,,,,,,,0,0,0,0,0,52,52,52,,,,,,,,,,,,,,,,,,,,,,,,,,,515.5419645999791,515.742508700001,515.7253986999858,516.0265052999603,516.0265052999603,None,516.5268898999784,None,j,1,0.8956946000689641,516.5268898999784,None,None,None,,,,,,,,,,,,,,,,,,,,,,,11039,1,1,2024_Jun_05_1004,stroop_task_switching2,2021.2.3,59.805965537873476,
,,,黄,blue,j,square,color_mix,单词,,incompatible,2,block_switch1,instruction/ready_test.png,instruction/i11.png,,,,,,,,,,,,,,,,,0,0,0,0,0,53,53,53,,,,,,,,,,,,,,,,,,,,,,,,,,,517.4453188999323,517.6456913999282,517.6283528999193,517.928762699943,517.928762699943,None,518.4293925999664,None,j,1,0.6091581999789923,518.4293925999664,None,None,None,,,,,,,,,,,,,,,,,,,,,,,11039,1,1,2024_Jun_05_1004,stroop_task_switching2,2021.2.3,59.805965537873476,
,,,蓝,blue,f,diamond,color_mix,颜色,,compatible,2,block_switch1,instruction/ready_test.png,instruction/i11.png,,,,,,,,,,,,,,,,,0,0,0,0,0,54,54,54,,,,,,,,,,,,,,,,,,,,,,,,,,,519.0637322999537,519.2653914999682,519.24783379992,519.5479009000119,519.5479009000119,None,520.0488231999334,None,f,1,0.9098387999692932,520.0488231999334,None,None,None,,,,,,,,,,,,,,,,,,,,,,,11039,1,1,2024_Jun_05_1004,stroop_task_switching2,2021.2.3,59.805965537873476,
,,,红,yellow,d,square,color_mix,单词,,incompatible,2,block_switch1,instruction/ready_test.png,instruction/i11.png,,,,,,,,,,,,,,,,,0,0,0,0,0,55,55,55,,,,,,,,,,,,,,,,,,,,,,,,,,,520.9835590999573,521.1842837999575,521.1670492999256,521.4676918999758,521.4676918999758,None,521.9681378999958,None,d,1,0.5827306999126449,521.9681378999958,None,None,None,,,,,,,,,,,,,,,,,,,,,,,11039,1,1,2024_Jun_05_1004,stroop_task_switching2,2021.2.3,59.805965537873476,
,,,蓝,red,f,square,color_mix,单词,,incompatible,1,block_switch1,instruction/ready_test.png,instruction/i11.png,,,,,,,,,,,,,,,,,0,0,0,0,0,56,56,56,,,,,,,,,,,,,,,,,,,,,,,,,,,522.5692202999489,522.7698600000003,522.7539742999943,523.0539943999611,523.0539943999611,None,523.5541401000228,None,f,1,0.9724477999843657,523.5541401000228,None,None,None,,,,,,,,,,,,,,,,,,,,,,,11039,1,1,2024_Jun_05_1004,stroop_task_switching2,2021.2.3,59.805965537873476,
,,,蓝,blue,f,square,color_mix,单词,,compatible,1,block_switch1,instruction/ready_test.png,instruction/i11.png,,,,,,,,,,,,,,,,,0,0,0,0,0,57,57,57,,,,,,,,,,,,,,,,,,,,,,,,,,,524.5553446999984,524.7557453999761,524.7389875999652,525.0401476999978,525.0401476999978,None,525.5402999999933,None,f,1,0.48218250006902963,525.5402999999933,None,None,None,,,,,,,,,,,,,,,,,,,,,,,11039,1,1,2024_Jun_05_1004,stroop_task_switching2,2021.2.3,59.805965537873476,
,,,蓝,red,d,diamond,color_mix,颜色,,incompatible,2,block_switch1,instruction/ready_test.png,instruction/i11.png,,,,,,,,,,,,,,,,,0,0,0,0,0,58,58,58,,,,,,,,,,,,,,,,,,,,,,,,,,,526.0412664000178,526.2419524999568,526.2247291000094,526.527929599979,526.527929599979,None,527.0425419999519,None,d,1,0.7083035000832751,527.0425419999519,None,None,None,,,,,,,,,,,,,,,,,,,,,,,11039,1,1,2024_Jun_05_1004,stroop_task_switching2,2021.2.3,59.805965537873476,
,,,绿,green,k,diamond,color_mix,颜色,,compatible,1,block_switch1,instruction/ready_test.png,instruction/i11.png,,,,,,,,,,,,,,,,,0,0,0,0,0,59,59,59,,,,,,,,,,,,,,,,,,,,,,,,,,,527.7771662999876,527.9773707999848,527.9617791000055,528.2610569000244,528.2610569000244,None,528.7617910000263,None,k,1,0.5736460000043735,528.7617910000263,None,None,None,,,,,,,,,,,,,,,,,,,,,,,11039,1,1,2024_Jun_05_1004,stroop_task_switching2,2021.2.3,59.805965537873476,
,,,蓝,blue,f,diamond,color_mix,颜色,,compatible,1,block_switch1,instruction/ready_test.png,instruction/i11.png,,,,,,,,,,,,,,,,,0,0,0,0,0,60,60,60,,,,,,,,,,,,,,,,,,,,,,,,,,,529.3626867999556,529.5635636999505,529.5463852999965,529.847997099976,529.847997099976,None,530.3477039999561,None,f,1,1.0912139000138268,530.3477039999561,None,None,None,,,,,,,,,,,,,,,,,,,,,,,11039,1,1,2024_Jun_05_1004,stroop_task_switching2,2021.2.3,59.805965537873476,
,,,黄,yellow,j,square,color_mix,单词,,compatible,2,block_switch1,instruction/ready_test.png,instruction/i11.png,,,,,,,,,,,,,,,,,0,0,0,0,0,61,61,61,,,,,,,,,,,,,,,,,,,,,,,,,,,531.4657724000281,531.6660511000082,531.6495659999782,531.9509497999679,531.9509497999679,None,532.4510885999771,None,j,1,0.627885999972932,532.4510885999771,None,None,None,,,,,,,,,,,,,,,,,,,,,,,11039,1,1,2024_Jun_05_1004,stroop_task_switching2,2021.2.3,59.805965537873476,
,,,绿,blue,k,square,color_mix,单词,,incompatible,1,block_switch1,instruction/ready_test.png,instruction/i11.png,,,,,,,,,,,,,,,,,0,0,0,0,0,62,62,62,,,,,,,,,,,,,,,,,,,,,,,,,,,533.1014718000079,533.3026131999213,533.2853363000322,533.5862083999673,533.5862083999673,None,534.0866405999986,None,k,1,0.8722176000010222,534.0866405999986,None,None,None,,,,,,,,,,,,,,,,,,,,,,,11039,1,1,2024_Jun_05_1004,stroop_task_switching2,2021.2.3,59.805965537873476,
,,,蓝,yellow,f,square,color_mix,单词,,incompatible,1,block_switch1,instruction/ready_test.png,instruction/i11.png,,,,,,,,,,,,,,,,,0,0,0,0,0,63,63,63,,,,,,,,,,,,,,,,,,,,,,,,,,,534.9878686999436,535.1883525999729,535.1716185000259,535.4730802000267,535.4730802000267,None,535.9726627999917,None,f,1,0.9222379999700934,535.9726627999917,None,None,None,,,,,,,,,,,,,,,,,,,,,,,11039,1,1,2024_Jun_05_1004,stroop_task_switching2,2021.2.3,59.805965537873476,
,,,黄,yellow,j,diamond,color_mix,颜色,,compatible,2,block_switch1,instruction/ready_test.png,instruction/i11.png,,,,,,,,,,,,,,,,,0,0,0,0,0,64,64,64,,,,,,,,,,,,,,,,,,,,,,,,,,,536.9242511999328,537.1245281000156,537.1079497999744,537.4094400999602,537.4094400999602,None,537.9096103999764,None,j,1,0.8734826999716461,537.9096103999764,None,None,None,,,,,,,,,,,,,,,,,,,,,,,11039,1,1,2024_Jun_05_1004,stroop_task_switching2,2021.2.3,59.805965537873476,
,,,蓝,green,k,diamond,color_mix,颜色,,incompatible,1,block_switch1,instruction/ready_test.png,instruction/i11.png,,,,,,,,,,,,,,,,,0,0,0,0,0,65,65,65,,,,,,,,,,,,,,,,,,,,,,,,,,,538.810154799954,539.011107099941,538.9937713999534,539.294398099999,539.294398099999,None,539.7951922999928,None,k,1,0.8280001999810338,539.7951922999928,None,None,None,,,,,,,,,,,,,,,,,,,,,,,11039,1,1,2024_Jun_05_1004,stroop_task_switching2,2021.2.3,59.805965537873476,
,,,红,red,d,diamond,color_mix,颜色,,compatible,1,block_switch1,instruction/ready_test.png,instruction/i11.png,,,,,,,,,,,,,,,,,0,0,0,0,0,66,66,66,,,,,,,,,,,,,,,,,,,,,,,,,,,540.6479233999271,540.8650971999159,540.8299077999545,541.1311579999747,541.1311579999747,None,541.631395299919,None,d,1,0.5595665998989716,541.631395299919,None,None,None,,,,,,,,,,,,,,,,,,,,,,,11039,1,1,2024_Jun_05_1004,stroop_task_switching2,2021.2.3,59.805965537873476,
,,,蓝,yellow,f,square,color_mix,单词,,incompatible,2,block_switch1,instruction/ready_test.png,instruction/i11.png,,,,,,,,,,,,,,,,,0,0,0,0,0,67,67,67,,,,,,,,,,,,,,,,,,,,,,,,,,,542.2154811000219,542.4158366000047,542.3997537000105,542.7013763999566,542.7013763999566,None,543.200406900025,None,f,1,1.278671900043264,543.200406900025,None,None,None,,,,,,,,,,,,,,,,,,,,,,,11039,1,1,2024_Jun_05_1004,stroop_task_switching2,2021.2.3,59.805965537873476,
,,,红,yellow,d,square,color_mix,单词,,incompatible,1,block_switch1,instruction/ready_test.png,instruction/i11.png,,,,,,,,,,,,,,,,,0,0,0,0,0,68,68,68,,,,,,,,,,,,,,,,,,,,,,,,,,,544.5023225999903,544.7023931000149,544.6867886999389,544.9863456999883,544.9863456999883,None,545.4870412999298,None,d,1,0.5761476999614388,545.4870412999298,None,None,None,,,,,,,,,,,,,,,,,,,,,,,11039,1,1,2024_Jun_05_1004,stroop_task_switching2,2021.2.3,59.805965537873476,
,,,红,yellow,j,diamond,color_mix,颜色,,incompatible,2,block_switch1,instruction/ready_test.png,instruction/i11.png,,,,,,,,,,,,,,,,,0,0,0,0,0,69,69,69,,,,,,,,,,,,,,,,,,,,,,,,,,,546.0879370999755,546.2883197999327,546.2730154999299,546.5886916000163,546.5740951999323,None,547.0725888999877,None,d,0,0.998645200044848,547.0725888999877,None,None,None,,,,,,,,,,,,,,,,,,,,,,,11039,1,1,2024_Jun_05_1004,stroop_task_switching2,2021.2.3,59.805965537873476,
,,,蓝,green,f,square,color_mix,单词,,incompatible,2,block_switch1,instruction/ready_test.png,instruction/i11.png,,,,,,,,,,,,,,,,,0,0,0,0,0,70,70,70,,,,,,,,,,,,,,,,,,,,,,,,,,,548.0909187999787,548.2915029999567,548.2745419000275,548.5752482999815,548.5752482999815,None,549.0758602999849,None,f,1,0.8839063999475911,549.0758602999849,None,None,None,,,,,,,,,,,,,,,,,,,,,,,11039,1,1,2024_Jun_05_1004,stroop_task_switching2,2021.2.3,59.805965537873476,
,,,绿,yellow,k,square,color_mix,单词,,incompatible,1,block_switch1,instruction/ready_test.png,instruction/i11.png,,,,,,,,,,,,,,,,,0,0,0,0,0,71,71,71,,,,,,,,,,,,,,,,,,,,,,,,,,,549.977237300016,550.1776543000014,550.1632948999759,550.4780477000168,550.4619482000126,None,550.9619943000143,None,k,1,1.037539599929005,550.9619943000143,None,None,None,,,,,,,,,,,,,,,,,,,,,,,11039,1,1,2024_Jun_05_1004,stroop_task_switching2,2021.2.3,59.805965537873476,
,,,蓝,yellow,j,diamond,color_mix,颜色,,incompatible,2,block_switch1,instruction/ready_test.png,instruction/i11.png,,,,,,,,,,,,,,,,,0,0,0,0,0,72,72,72,,,,,,,,,,,,,,,,,,,,,,,,,,,552.0305209999206,552.2315535999369,552.2140021999367,552.514402300003,552.514402300003,None,553.0150671999436,None,j,1,0.8323853000765666,553.0150671999436,None,None,None,,,,,,,,,,,,,,,,,,,,,,,11039,1,1,2024_Jun_05_1004,stroop_task_switching2,2021.2.3,59.805965537873476,
,,,红,green,d,square,color_mix,单词,,incompatible,2,block_switch1,instruction/ready_test.png,instruction/i11.png,,,,,,,,,,,,,,,,,0,0,0,0,0,73,73,73,,,,,,,,,,,,,,,,,,,,,,,,,,,553.866218399955,554.066503399983,554.0510972000193,554.3509399999166,554.3509399999166,None,554.851052199956,None,d,1,0.940571500104852,554.851052199956,None,None,None,,,,,,,,,,,,,,,,,,,,,,,11039,1,1,2024_Jun_05_1004,stroop_task_switching2,2021.2.3,59.805965537873476,
,,,绿,blue,f,diamond,color_mix,颜色,,incompatible,2,block_switch1,instruction/ready_test.png,instruction/i11.png,,,,,,,,,,,,,,,,,0,0,0,0,0,74,74,74,,,,,,,,,,,,,,,,,,,,,,,,,,,555.8193077999167,556.02045489999,556.002915799967,556.3033707999857,556.3033707999857,None,556.804094400024,None,f,1,0.9713100000517443,556.804094400024,None,None,None,,,,,,,,,,,,,,,,,,,,,,,11039,1,1,2024_Jun_05_1004,stroop_task_switching2,2021.2.3,59.805965537873476,
,,,红,red,d,square,color_mix,单词,,compatible,2,block_switch1,instruction/ready_test.png,instruction/i11.png,,,,,,,,,,,,,,,,,0,0,0,0,0,75,75,75,,,,,,,,,,,,,,,,,,,,,,,,,,,557.8056267999345,558.0075802999781,557.990343799931,558.2896748000057,558.2896748000057,None,558.7905380999437,None,d,1,0.9529749999055639,558.7905380999437,None,None,None,,,,,,,,,,,,,,,,,,,,,,,11039,1,1,2024_Jun_05_1004,stroop_task_switching2,2021.2.3,59.805965537873476,
,,,绿,green,k,diamond,color_mix,颜色,,compatible,2,block_switch1,instruction/ready_test.png,instruction/i11.png,,,,,,,,,,,,,,,,,0,0,0,0,0,76,76,76,,,,,,,,,,,,,,,,,,,,,,,,,,,559.7588197999867,559.9611253999174,559.9424039999722,560.2427379000001,560.2427379000001,None,560.7434426000109,None,k,1,0.6082285000011325,560.7434426000109,None,None,None,,,,,,,,,,,,,,,,,,,,,,,11039,1,1,2024_Jun_05_1004,stroop_task_switching2,2021.2.3,59.805965537873476,
,,,黄,red,j,square,color_mix,单词,,incompatible,2,block_switch1,instruction/ready_test.png,instruction/i11.png,,,,,,,,,,,,,,,,,0,0,0,0,0,77,77,77,,,,,,,,,,,,,,,,,,,,,,,,,,,561.3775608999422,561.5790130000096,561.561285499949,561.8626024000114,561.8626024000114,None,562.3624672000296,None,j,1,0.7573694000020623,562.3624672000296,None,None,None,,,,,,,,,,,,,,,,,,,,,,,11039,1,1,2024_Jun_05_1004,stroop_task_switching2,2021.2.3,59.805965537873476,
,,,红,red,d,square,color_mix,单词,,compatible,1,block_switch1,instruction/ready_test.png,instruction/i11.png,,,,,,,,,,,,,,,,,0,0,0,0,0,78,78,78,,,,,,,,,,,,,,,,,,,,,,,,,,,563.1470827999292,563.3483421999263,563.3307703000028,563.6311724999687,563.6311724999687,None,564.1316413999302,None,d,1,0.5243084999965504,564.1316413999302,None,None,None,,,,,,,,,,,,,,,,,,,,,,,11039,1,1,2024_Jun_05_1004,stroop_task_switching2,2021.2.3,59.805965537873476,
,,,黄,yellow,j,square,color_mix,单词,,compatible,1,block_switch1,instruction/ready_test.png,instruction/i11.png,,,,,,,,,,,,,,,,,0,0,0,0,0,79,79,79,,,,,,,,,,,,,,,,,,,,,,,,,,,564.6825087999459,564.8827262999257,564.8661297999788,565.1668176000239,565.1668176000239,None,565.6674056999618,None,j,1,0.5964969999622554,565.6674056999618,None,None,None,,,,,,,,,,,,,,,,,,,,,,,11039,1,1,2024_Jun_05_1004,stroop_task_switching2,2021.2.3,59.805965537873476,
,,,红,red,d,diamond,color_mix,颜色,,compatible,2,block_switch1,instruction/ready_test.png,instruction/i11.png,,,,,,,,,,,,,,,,,0,0,0,0,0,80,80,80,,,,,,,,,,,,,,,,,,,,,,,,,,,566.285228200024,566.4862996999873,566.4687711999286,566.7702018999262,566.7702018999262,None,567.2698003000114,None,d,1,0.4742670999839902,567.2698003000114,None,None,None,,,,,,,,,,,,,,,,,,,,,,,11039,1,1,2024_Jun_05_1004,stroop_task_switching2,2021.2.3,59.805965537873476,
,,,红,red,d,square,color_mix,单词,,compatible,2,block_switch1,instruction/ready_test.png,instruction/i11.png,,,,,,,,,,,,,,,,,0,0,0,0,0,81,81,81,,,,,,,,,,,,,,,,,,,,,,,,,,,567.7715866999933,567.9724746999564,567.9545877999626,568.2554654999403,568.2554654999403,None,568.7556106999982,None,d,1,0.4764029000652954,568.7556106999982,None,None,None,,,,,,,,,,,,,,,,,,,,,,,11039,1,1,2024_Jun_05_1004,stroop_task_switching2,2021.2.3,59.805965537873476,
,,,黄,blue,f,diamond,color_mix,颜色,,incompatible,2,block_switch1,instruction/ready_test.png,instruction/i11.png,,,,,,,,,,,,,,,,,0,0,0,0,0,82,82,82,,,,,,,,,,,,,,,,,,,,,,,,,,,569.2562611999456,569.4574999000179,569.4399222999346,569.7403793999692,569.7403793999692,None,570.2410004999256,None,f,1,1.278966399957426,570.2410004999256,None,None,None,,,,,,,,,,,,,,,,,,,,,,,11039,1,1,2024_Jun_05_1004,stroop_task_switching2,2021.2.3,59.805965537873476,
,,,红,yellow,j,diamond,color_mix,颜色,,incompatible,1,block_switch1,instruction/ready_test.png,instruction/i11.png,,,,,,,,,,,,,,,,,0,0,0,0,0,83,83,83,,,,,,,,,,,,,,,,,,,,,,,,,,,571.5432363,571.7439591999864,571.7268725999165,572.0269055999815,572.0269055999815,None,572.5282512999838,None,j,1,0.7357504999963567,572.5282512999838,None,None,None,,,,,,,,,,,,,,,,,,,,,,,11039,1,1,2024_Jun_05_1004,stroop_task_switching2,2021.2.3,59.805965537873476,
,,,黄,red,d,diamond,color_mix,颜色,,incompatible,1,block_switch1,instruction/ready_test.png,instruction/i11.png,,,,,,,,,,,,,,,,,0,0,0,0,0,84,84,84,,,,,,,,,,,,,,,,,,,,,,,,,,,573.2790639000013,573.4792612999445,573.4630255999509,573.7629746999592,573.7629746999592,None,574.2637229999527,None,d,1,0.6722460000310093,574.2637229999527,None,None,None,,,,,,,,,,,,,,,,,,,,,,,11039,1,1,2024_Jun_05_1004,stroop_task_switching2,2021.2.3,59.805965537873476,
,,,蓝,blue,f,square,color_mix,单词,,compatible,2,block_switch1,instruction/ready_test.png,instruction/i11.png,,,,,,,,,,,,,,,,,0,0,0,0,0,85,85,85,,,,,,,,,,,,,,,,,,,,,,,,,,,574.9646121999249,575.1650865999982,575.1488987000193,575.4495996999322,575.4495996999322,None,575.9495851999382,None,f,1,0.5865305000916123,575.9495851999382,None,None,None,,,,,,,,,,,,,,,,,,,,,,,11039,1,1,2024_Jun_05_1004,stroop_task_switching2,2021.2.3,59.805965537873476,
,,,绿,green,k,square,color_mix,单词,,compatible,1,block_switch1,instruction/ready_test.png,instruction/i11.png,,,,,,,,,,,,,,,,,0,0,0,0,0,86,86,86,,,,,,,,,,,,,,,,,,,,,,,,,,,576.5671038000146,576.7677137999563,576.7534082999919,577.0691801999928,577.0514926000033,None,577.5520535999676,None,k,1,0.8241128000663593,577.5520535999676,None,None,None,,,,,,,,,,,,,,,,,,,,,,,11039,1,1,2024_Jun_05_1004,stroop_task_switching2,2021.2.3,59.805965537873476,
,,,红,red,d,square,color_mix,单词,,compatible,1,block_switch1,instruction/ready_test.png,instruction/i11.png,,,,,,,,,,,,,,,,,0,0,0,0,0,87,87,87,,,,,,,,,,,,,,,,,,,,,,,,,,,578.4035172000295,578.6035115999402,578.5878287999658,578.8873642999679,578.8873642999679,None,579.3881771999877,None,d,1,0.44380390003789216,579.3881771999877,None,None,None,,,,,,,,,,,,,,,,,,,,,,,11039,1,1,2024_Jun_05_1004,stroop_task_switching2,2021.2.3,59.805965537873476,
,,,黄,green,k,diamond,color_mix,颜色,,incompatible,2,block_switch1,instruction/ready_test.png,instruction/i11.png,,,,,,,,,,,,,,,,,0,0,0,0,0,88,88,88,,,,,,,,,,,,,,,,,,,,,,,,,,,579.855804599938,580.05606610002,580.0395555000287,580.3405871000141,580.3405871000141,None,580.8402295999695,None,j,0,0.607983099995181,580.8402295999695,None,None,None,,,,,,,,,,,,,,,,,,,,,,,11039,1,1,2024_Jun_05_1004,stroop_task_switching2,2021.2.3,59.805965537873476,
,,,绿,red,k,square,color_mix,单词,,incompatible,2,block_switch1,instruction/ready_test.png,instruction/i11.png,,,,,,,,,,,,,,,,,0,0,0,0,0,89,89,89,,,,,,,,,,,,,,,,,,,,,,,,,,,581.474761200021,581.6754517999943,581.6596249999711,581.958652399946,581.958652399946,None,582.4595679999329,None,d,0,2.04481210000813,582.4595679999329,None,None,None,,,,,,,,,,,,,,,,,,,,,,,11039,1,1,2024_Jun_05_1004,stroop_task_switching2,2021.2.3,59.805965537873476,
,,,黄,green,j,square,color_mix,单词,,incompatible,1,block_switch1,instruction/ready_test.png,instruction/i11.png,,,,,,,,,,,,,,,,,0,0,0,0,0,90,90,90,,,,,,,,,,,,,,,,,,,,,,,,,,,584.52922269993,584.7305501999799,584.71274550003,585.013327499968,585.013327499968,None,585.5141200999497,None,j,1,1.430433199973777,585.5141200999497,None,None,None,,,,,,,,,,,,,,,,,,,,,,,11039,1,1,2024_Jun_05_1004,stroop_task_switching2,2021.2.3,59.805965537873476,
,,,蓝,blue,f,square,color_mix,单词,,compatible,1,block_switch1,instruction/ready_test.png,instruction/i11.png,,,,,,,,,,,,,,,,,0,0,0,0,0,91,91,91,,,,,,,,,,,,,,,,,,,,,,,,,,,586.9662918000249,587.1678795999615,587.1498953999253,587.4505291000241,587.4505291000241,None,587.9511922999518,None,f,1,2.0971092999679968,587.9511922999518,None,None,None,,,,,,,,,,,,,,,,,,,,,,,11039,1,1,2024_Jun_05_1004,stroop_task_switching2,2021.2.3,59.805965537873476,
,,,蓝,red,f,square,color_mix,单词,,incompatible,1,block_switch1,instruction/ready_test.png,instruction/i11.png,,,,,,,,,,,,,,,,,0,0,0,0,0,92,92,92,,,,,,,,,,,,,,,,,,,,,,,,,,,590.0708937000018,590.2715922999196,590.2545092999935,590.5547883999534,590.5547883999534,None,591.055801599985,None,f,1,0.9130215999903157,591.055801599985,None,None,None,,,,,,,,,,,,,,,,,,,,,,,11039,1,1,2024_Jun_05_1004,stroop_task_switching2,2021.2.3,59.805965537873476,
,,,黄,blue,j,square,color_mix,单词,,incompatible,1,block_switch1,instruction/ready_test.png,instruction/i11.png,,,,,,,,,,,,,,,,,0,0,0,0,0,93,93,93,,,,,,,,,,,,,,,,,,,,,,,,,,,591.9903453999432,592.1906974000158,592.1744983999524,592.4745858999668,592.4745858999668,None,592.9755079000024,None,j,1,0.8327775000361726,592.9755079000024,None,None,None,,,,,,,,,,,,,,,,,,,,,,,11039,1,1,2024_Jun_05_1004,stroop_task_switching2,2021.2.3,59.805965537873476,
,,,绿,red,d,diamond,color_mix,颜色,,incompatible,2,block_switch1,instruction/ready_test.png,instruction/i11.png,,,,,,,,,,,,,,,,,0,0,0,0,0,94,94,94,,,,,,,,,,,,,,,,,,,,,,,,,,,593.8267867999384,594.0270676999353,594.0112548000179,594.310637800023,594.310637800023,None,594.8117069000145,None,d,1,0.6928723000455648,594.8117069000145,None,None,None,,,,,,,,,,,,,,,,,,,,,,,11039,1,1,2024_Jun_05_1004,stroop_task_switching2,2021.2.3,59.805965537873476,
,,,蓝,blue,f,diamond,color_mix,颜色,,compatible,1,block_switch1,instruction/ready_test.png,instruction/i11.png,,,,,,,,,,,,,,,,,0,0,0,0,0,95,95,95,,,,,,,,,,,,,,,,,,,,,,,,,,,595.5294611999998,595.7299403999932,595.7127314999234,596.0138283999404,596.0138283999404,None,596.514378999942,None,f,1,0.830178500036709,596.514378999942,None,None,None,,,,,,,,,,,,,,,,,,,,,,,11039,1,1,2024_Jun_05_1004,stroop_task_switching2,2021.2.3,59.805965537873476,
,,,绿,green,k,square,color_mix,单词,,compatible,2,block_switch1,instruction/ready_test.png,instruction/i11.png,,,,,,,,,,,,,,,,,0,0,0,0,0,96,96,96,,,,,,,,,,,,,,,,,,,,,,,,,,,597.3652268999722,597.5673538999399,597.5491461999482,597.8494028999703,597.8494028999703,None,598.3501324999379,None,k,1,0.6103093000128865,598.3501324999379,None,None,None,,,,,,,,,,,,,,,,,,,,,,,11039,1,1,2024_Jun_05_1004,stroop_task_switching2,2021.2.3,59.805965537873476,
,,,,,,,,,,,,block_switch1,instruction/ready_test.png,instruction/i11.png,,,,,,,,,,,,,,,,,0,0,0,0,,,,,,,,,,,,,,,,,,,,,,,,,,,,,,,,,,,,,,,,,,,,,,,,,,,,,,,,,,,,598.9842634999659,None,space,14.088748299982399,598.9842634999659,None,,,11039,1,1,2024_Jun_05_1004,stroop_task_switching2,2021.2.3,59.805965537873476,
,,,蓝,blue,f,square,color_mix,单词,,compatible,0,block_switch2,instruction/ready_2.png,instruction/i12.png,,,,,,,,,,,,,,,,,0,1,1,1,0,0,0,0,,,,,,,,,,,,,,,,,,,616.4609991000034,617.4631382999942,617.4631382999942,618.4636379999574,618.4636379999574,None,615.476108099916,616.4784466000274,619.4818211999955,619.6831772000296,619.6831772000296,619.9834464000305,619.9834464000305,None,620.4835215000203,None,f,1,0.8297649000305682,620.4835215000203,None,None,None,,,,,,,,,613.10544449999,None,space,2.351712099974975,613.10544449999,None,,,,,,,,,11039,1,1,2024_Jun_05_1004,stroop_task_switching2,2021.2.3,59.805965537873476,
,,,黄,red,d,diamond,color_mix,颜色,,incompatible,2,block_switch2,instruction/ready_2.png,instruction/i12.png,,,,,,,,,,,,,,,,,0,1,1,1,0,1,1,1,,,,,,,,,,,,,,,,,,,,,,,,,,,621.335073199938,621.536709500011,621.5187666999409,621.8203188999323,621.8203188999323,None,622.3194837999763,None,d,1,0.8662576000206172,622.3194837999763,None,None,None,,,,,,,,,,,,,,,,,,,,,,,11039,1,1,2024_Jun_05_1004,stroop_task_switching2,2021.2.3,59.805965537873476,
,,,蓝,green,k,diamond,color_mix,颜色,,incompatible,1,block_switch2,instruction/ready_2.png,instruction/i12.png,,,,,,,,,,,,,,,,,0,1,1,1,0,2,2,2,,,,,,,,,,,,,,,,,,,,,,,,,,,623.2044253000058,623.4055691999383,623.3877396000316,623.6883423000108,623.6883423000108,None,624.1890773000196,None,k,1,0.8363085000310093,624.1890773000196,None,None,None,,,,,,,,,,,,,,,,,,,,,,,11039,1,1,2024_Jun_05_1004,stroop_task_switching2,2021.2.3,59.805965537873476,
,,,红,yellow,j,diamond,color_mix,颜色,,incompatible,1,block_switch2,instruction/ready_2.png,instruction/i12.png,,,,,,,,,,,,,,,,,0,1,1,1,0,3,3,3,,,,,,,,,,,,,,,,,,,,,,,,,,,625.0570905000204,625.2575467999559,625.2419747000095,625.5413609999232,625.5413609999232,None,626.0418382999487,None,j,1,1.239403699990362,626.0418382999487,None,None,None,,,,,,,,,,,,,,,,,,,,,,,11039,1,1,2024_Jun_05_1004,stroop_task_switching2,2021.2.3,59.805965537873476,
,,,红,red,d,diamond,color_mix,颜色,,compatible,1,block_switch2,instruction/ready_2.png,instruction/i12.png,,,,,,,,,,,,,,,,,0,1,1,1,0,4,4,4,,,,,,,,,,,,,,,,,,,,,,,,,,,627.3103979999432,627.5115588000044,627.4939284999855,627.7965339999646,627.7965339999646,None,628.2955910000019,None,d,1,0.5218428999651223,628.2955910000019,None,None,None,,,,,,,,,,,,,,,,,,,,,,,11039,1,1,2024_Jun_05_1004,stroop_task_switching2,2021.2.3,59.805965537873476,
,,,绿,green,k,square,color_mix,单词,,compatible,2,block_switch2,instruction/ready_2.png,instruction/i12.png,,,,,,,,,,,,,,,,,0,1,1,1,0,5,5,5,,,,,,,,,,,,,,,,,,,,,,,,,,,628.8464914999204,629.047637599986,629.0297626999673,629.3307356999721,629.3307356999721,None,629.8309499999741,None,k,1,0.5464796000160277,629.8309499999741,None,None,None,,,,,,,,,,,,,,,,,,,,,,,11039,1,1,2024_Jun_05_1004,stroop_task_switching2,2021.2.3,59.805965537873476,
,,,黄,blue,f,diamond,color_mix,颜色,,incompatible,2,block_switch2,instruction/ready_2.png,instruction/i12.png,,,,,,,,,,,,,,,,,0,1,1,1,0,6,6,6,,,,,,,,,,,,,,,,,,,,,,,,,,,630.3982841999969,630.598669799976,630.5819600999821,630.8826120999875,630.8826120999875,None,631.3837895999895,None,f,1,0.8338762000203133,631.3837895999895,None,None,None,,,,,,,,,,,,,,,,,,,,,,,11039,1,1,2024_Jun_05_1004,stroop_task_switching2,2021.2.3,59.805965537873476,
,,,绿,yellow,k,square,color_mix,单词,,incompatible,2,block_switch2,instruction/ready_2.png,instruction/i12.png,,,,,,,,,,,,,,,,,0,1,1,1,0,7,7,7,,,,,,,,,,,,,,,,,,,,,,,,,,,632.234597899951,632.4353990999516,632.4184496999951,632.7186821999494,632.7186821999494,None,633.219424800016,None,k,1,0.4699838999658823,633.219424800016,None,None,None,,,,,,,,,,,,,,,,,,,,,,,11039,1,1,2024_Jun_05_1004,stroop_task_switching2,2021.2.3,59.805965537873476,
,,,红,green,d,square,color_mix,单词,,incompatible,1,block_switch2,instruction/ready_2.png,instruction/i12.png,,,,,,,,,,,,,,,,,0,1,1,1,0,8,8,8,,,,,,,,,,,,,,,,,,,,,,,,,,,633.7201899000211,633.9203864999581,633.9047515999991,634.204080699943,634.204080699943,None,634.7050050999969,None,d,1,0.4484695000573993,634.7050050999969,None,None,None,,,,,,,,,,,,,,,,,,,,,,,11039,1,1,2024_Jun_05_1004,stroop_task_switching2,2021.2.3,59.805965537873476,
