b_pra,ins_blocks,ins_blocks2,stim_word,stim_color,corrAns,cue_type,trial_type,task_type,rand,compatibility,switch,b_test,w_pic,w_pic2,trials_instr.thisRepN,trials_instr.thisTrialN,trials_instr.thisN,trials_instr.thisIndex,block_pra.thisRepN,block_pra.thisTrialN,block_pra.thisN,block_pra.thisIndex,trials_rep.thisRepN,trials_rep.thisTrialN,trials_rep.thisN,trials_rep.thisIndex,trials_pra.thisRepN,trials_pra.thisTrialN,trials_pra.thisN,trials_pra.thisIndex,trials_3.thisRepN,trials_3.thisTrialN,trials_3.thisN,trials_3.thisIndex,trials_2.thisRepN,trials_2.thisTrialN,trials_2.thisN,trials_2.thisIndex,instr_image.started,instr_image.stopped,instr_key_resp.keys,instr_key_resp.rt,instr_key_resp.started,instr_key_resp.stopped,instr_pra_image.started,instr_pra_image.stopped,ip_key_resp.keys,ip_key_resp.rt,ip_key_resp.started,ip_key_resp.stopped,block_image.started,block_image.stopped,ib_key_resp.keys,ib_key_resp.rt,ib_key_resp.started,ib_key_resp.stopped,cd3.started,cd3.stopped,cd2.started,cd2.stopped,cd1.started,cd1.stopped,cd_text.started,cd_text.stopped,text_fix.started,text_fix.stopped,text_2.started,text_2.stopped,text_4.started,text_4.stopped,text_target.started,text_target.stopped,key_resp.keys,key_resp.corr,key_resp.rt,key_resp.started,key_resp.stopped,sceen_black.started,sceen_black.stopped,text_fb.started,text_fb.stopped,text.started,text.stopped,key_bf.keys,key_bf.rt,key_bf.started,key_bf.stopped,instr_test_image.started,instr_test_image.stopped,instr_exp_key_resp.keys,instr_exp_key_resp.rt,instr_exp_key_resp.started,instr_exp_key_resp.stopped,text_rest.started,text_rest.stopped,key_resp_rest.keys,key_resp_rest.rt,key_resp_rest.started,key_resp_rest.stopped,text_3.started,text_3.stopped,participant,session,balance,date,expName,psychopyVersion,frameRate,
,,,,,,,,,,,,,,,0,0,0,0,,,,,,,,,,,,,,,,,,,,,9.974718899989966,None,right,1.3413395999814384,9.974718899989966,None,,,,,,,,,,,,,,,,,,,,,,,,,,,,,,,,,,,,,,,,,,,,,,,,,,,,,,,,,,11031,2,1,2024_Jun_02_1059,stroop_task_switching2,2021.2.3,59.592979955667396,
,,,,,,,,,,,,,,,1,0,1,0,,,,,,,,,,,,,,,,,,,,,11.360452499997336,None,right,57.91739959997358,11.360452499997336,None,,,,,,,,,,,,,,,,,,,,,,,,,,,,,,,,,,,,,,,,,,,,,,,,,,,,,,,,,,11031,2,1,2024_Jun_02_1059,stroop_task_switching2,2021.2.3,59.592979955667396,
,,,,,,,,,,,,,,,2,0,2,0,,,,,,,,,,,,,,,,,,,,,69.31386029999703,None,right,5.156301799986977,69.31386029999703,None,,,,,,,,,,,,,,,,,,,,,,,,,,,,,,,,,,,,,,,,,,,,,,,,,,,,,,,,,,11031,2,1,2024_Jun_02_1059,stroop_task_switching2,2021.2.3,59.592979955667396,
,,,,,,,,,,,,,,,3,0,3,0,,,,,,,,,,,,,,,,,,,,,74.50543620000826,None,right,4.413145099999383,74.50543620000826,None,,,,,,,,,,,,,,,,,,,,,,,,,,,,,,,,,,,,,,,,,,,,,,,,,,,,,,,,,,11031,2,1,2024_Jun_02_1059,stroop_task_switching2,2021.2.3,59.592979955667396,
,,,,,,,,,,,,,,,4,0,4,0,,,,,,,,,,,,,,,,,,,,,78.96216140000615,None,right,18.94866480003111,78.96216140000615,None,,,,,,,,,,,,,,,,,,,,,,,,,,,,,,,,,,,,,,,,,,,,,,,,,,,,,,,,,,11031,2,1,2024_Jun_02_1059,stroop_task_switching2,2021.2.3,59.592979955667396,
,,,,,,,,,,,,,,,5,0,5,0,,,,,,,,,,,,,,,,,,,,,97.95753830001922,None,right,0.8661973000271246,97.95753830001922,None,,,,,,,,,,,,,,,,,,,,,,,,,,,,,,,,,,,,,,,,,,,,,,,,,,,,,,,,,,11031,2,1,2024_Jun_02_1059,stroop_task_switching2,2021.2.3,59.592979955667396,
,,,,,,,,,,,,,,,,,,,,,,,,,,,,,,,,,,,,,,,,,,,,,98.8597442000173,None,space,1.127364200016018,98.8597442000173,None,,,,,,,,,,,,,,,,,,,,,,,,,,,,,,,,,,,,,,,,,,,,,,,,,,,,11031,2,1,2024_Jun_02_1059,stroop_task_switching2,2021.2.3,59.592979955667396,
condition/block_color,instruction/instr_color,instruction/i8,XX,red,d,diamond,color_single,颜色,,,,,,,,,,,0,0,0,0,0,0,0,0,0,0,0,0,,,,,,,,,,,,,,,,,,,,,100.02727479999885,None,space,3.018460599996615,100.02727479999885,None,104.1177729999763,105.11938940000255,105.11938940000255,106.11983520002104,106.11983520002104,None,103.131964900007,104.13428399997065,107.08787210000446,107.28941019997,107.27172069996595,107.57271189999301,107.57271189999301,None,108.07345229998464,None,d,1,0.6292374000186101,108.07345229998464,None,None,None,108.72392369998852,None,,,,,,,,,,,,,,,,,,,,,11031,2,1,2024_Jun_02_1059,stroop_task_switching2,2021.2.3,59.592979955667396,
condition/block_color,instruction/instr_color,instruction/i8,XX,green,k,diamond,color_single,颜色,,,,,,,,,,,0,0,0,0,0,0,0,0,0,1,1,1,,,,,,,,,,,,,,,,,,,,,,,,,,,,,,,,,,,109.72526139998809,109.92686950002098,109.91136530000949,110.22611759998836,110.21096310002031,None,110.71094540000195,None,d,0,0.6645167999668047,110.71094540000195,None,None,None,111.39507009997033,None,,,,,,,,,,,,,,,,,,,,,11031,2,1,2024_Jun_02_1059,stroop_task_switching2,2021.2.3,59.592979955667396,
condition/block_color,instruction/instr_color,instruction/i8,XX,yellow,j,diamond,color_single,颜色,,,,,,,,,,,0,0,0,0,0,0,0,0,0,2,2,2,,,,,,,,,,,,,,,,,,,,,,,,,,,,,,,,,,,112.3961438999977,112.59695059998194,112.58049909997499,112.88020939996932,112.88020939996932,None,113.38130579999415,None,j,1,1.577581099991221,113.38130579999415,None,None,None,114.98328759998549,None,,,,,,,,,,,,,,,,,,,,,11031,2,1,2024_Jun_02_1059,stroop_task_switching2,2021.2.3,59.592979955667396,
condition/block_color,instruction/instr_color,instruction/i8,XX,blue,f,diamond,color_single,颜色,,,,,,,,,,,0,0,0,0,0,0,0,0,0,3,3,3,,,,,,,,,,,,,,,,,,,,,,,,,,,,,,,,,,,115.98609069996746,116.1852232000092,116.1684566999902,116.46896159998141,116.46896159998141,None,116.97039329999825,None,f,1,0.7170035999733955,116.97039329999825,None,None,None,117.704559899983,None,,,,,,,,,,,,,,,,,,,,,11031,2,1,2024_Jun_02_1059,stroop_task_switching2,2021.2.3,59.592979955667396,
condition/block_color,instruction/instr_color,instruction/i8,XX,green,k,diamond,color_single,颜色,,,,,,,,,,,0,0,0,0,0,0,0,0,0,4,4,4,,,,,,,,,,,,,,,,,,,,,,,,,,,,,,,,,,,118.70648059999803,118.90723399998387,118.88908340001944,119.18968110001879,119.18968110001879,None,119.69056259997888,None,k,1,0.5728981000138447,119.69056259997888,None,None,None,120.29134290001821,None,,,,,,,,,,,,,,,,,,,,,11031,2,1,2024_Jun_02_1059,stroop_task_switching2,2021.2.3,59.592979955667396,
condition/block_color,instruction/instr_color,instruction/i8,XX,yellow,j,diamond,color_single,颜色,,,,,,,,,,,0,0,0,0,0,0,0,0,0,5,5,5,,,,,,,,,,,,,,,,,,,,,,,,,,,,,,,,,,,121.29353680001805,121.49507599999197,121.4773479999858,121.77693669998553,121.77693669998553,None,122.277846699988,None,d,0,2.8811731000314467,122.277846699988,None,None,None,125.18201089999638,None,,,,,,,,,,,,,,,,,,,,,11031,2,1,2024_Jun_02_1059,stroop_task_switching2,2021.2.3,59.592979955667396,
condition/block_color,instruction/instr_color,instruction/i8,XX,blue,f,diamond,color_single,颜色,,,,,,,,,,,0,0,0,0,0,0,0,0,0,6,6,6,,,,,,,,,,,,,,,,,,,,,,,,,,,,,,,,,,,126.18342100002337,126.3840478999773,126.36750529997516,126.66878930001985,126.66878930001985,None,127.16864290001104,None,f,1,2.0545008999761194,127.16864290001104,None,None,None,129.25485149997985,None,,,,,,,,,,,,,,,,,,,,,11031,2,1,2024_Jun_02_1059,stroop_task_switching2,2021.2.3,59.592979955667396,
condition/block_color,instruction/instr_color,instruction/i8,XX,red,d,diamond,color_single,颜色,,,,,,,,,,,0,0,0,0,0,0,0,0,0,7,7,7,,,,,,,,,,,,,,,,,,,,,,,,,,,,,,,,,,,130.25667189998785,130.45815069996752,130.43996479996713,130.74041819997365,130.74041819997365,None,131.24112640001113,None,d,1,0.7022954000276513,131.24112640001113,None,None,None,131.95887319999747,None,,,,,,,,,,,,,,,,,,,,,11031,2,1,2024_Jun_02_1059,stroop_task_switching2,2021.2.3,59.592979955667396,
condition/block_color,instruction/instr_color,instruction/i8,XX,yellow,j,diamond,color_single,颜色,,,,,,,,,,,0,0,0,0,0,0,0,0,0,8,8,8,,,,,,,,,,,,,,,,,,,,,,,,,,,,,,,,,,,132.96081299998332,133.16082779999124,133.14486960001523,133.44521249999525,133.44521249999525,None,133.94508849998238,None,j,1,0.5742767000338063,133.94508849998238,None,None,None,134.54619209998054,None,,,,,,,,,,,,,,,,,,,,,11031,2,1,2024_Jun_02_1059,stroop_task_switching2,2021.2.3,59.592979955667396,
condition/block_color,instruction/instr_color,instruction/i8,XX,blue,f,diamond,color_single,颜色,,,,,,,,,,,0,0,0,0,0,0,0,0,0,9,9,9,,,,,,,,,,,,,,,,,,,,,,,,,,,,,,,,,,,135.54841990000568,135.74905839998974,135.73152189998655,136.0317583999713,136.0317583999713,None,136.53259710001294,None,d,0,1.2027495999936946,136.53259710001294,None,None,None,137.7509190000128,None,,,,,,,,,,,,,,,,,,,,,11031,2,1,2024_Jun_02_1059,stroop_task_switching2,2021.2.3,59.592979955667396,
condition/block_color,instruction/instr_color,instruction/i8,XX,red,d,diamond,color_single,颜色,,,,,,,,,,,0,0,0,0,0,0,0,0,0,10,10,10,,,,,,,,,,,,,,,,,,,,,,,,,,,,,,,,,,,138.7534296999802,138.95276549999835,138.93610140000237,139.2386480999994,139.2386480999994,None,139.73785259999568,None,d,1,0.5501845999970101,139.73785259999568,None,None,None,140.30480819998775,None,,,,,,,,,,,,,,,,,,,,,11031,2,1,2024_Jun_02_1059,stroop_task_switching2,2021.2.3,59.592979955667396,
condition/block_color,instruction/instr_color,instruction/i8,XX,green,k,diamond,color_single,颜色,,,,,,,,,,,0,0,0,0,0,0,0,0,0,11,11,11,,,,,,,,,,,,,,,,,,,,,,,,,,,,,,,,,,,141.30710159998853,141.5067530000233,141.49020110000856,141.7925129000214,141.7925129000214,None,142.3080070000142,None,j,0,1.9160669000120834,142.3080070000142,None,None,None,144.24443540000357,None,,,,,,,,,,,,,,,,,,,,,11031,2,1,2024_Jun_02_1059,stroop_task_switching2,2021.2.3,59.592979955667396,
condition/block_color,instruction/instr_color,instruction/i8,XX,blue,f,diamond,color_single,颜色,,,,,,,,,,,0,0,0,0,0,0,0,0,0,12,12,12,,,,,,,,,,,,,,,,,,,,,,,,,,,,,,,,,,,145.2458751000231,145.44597180001438,145.42995550000342,145.73159229999874,145.73159229999874,None,146.24721459997818,None,f,1,1.537560900032986,146.24721459997818,None,None,None,147.79961089999415,None,,,,,,,,,,,,,,,,,,,,,11031,2,1,2024_Jun_02_1059,stroop_task_switching2,2021.2.3,59.592979955667396,
condition/block_color,instruction/instr_color,instruction/i8,XX,red,d,diamond,color_single,颜色,,,,,,,,,,,0,0,0,0,0,0,0,0,0,13,13,13,,,,,,,,,,,,,,,,,,,,,,,,,,,,,,,,,,,148.80106959998375,149.00241489999462,148.98451049998403,149.2851110000047,149.2851110000047,None,149.7868415999692,None,d,1,0.7019363000290468,149.7868415999692,None,None,None,150.50365430000238,None,,,,,,,,,,,,,,,,,,,,,11031,2,1,2024_Jun_02_1059,stroop_task_switching2,2021.2.3,59.592979955667396,
condition/block_color,instruction/instr_color,instruction/i8,XX,green,k,diamond,color_single,颜色,,,,,,,,,,,0,0,0,0,0,0,0,0,0,14,14,14,,,,,,,,,,,,,,,,,,,,,,,,,,,,,,,,,,,151.50563029997284,151.70665850001387,151.6888414999703,151.989863099996,151.989863099996,None,152.4908450000221,None,k,1,1.2930856000166386,152.4908450000221,None,None,None,153.8084472999908,None,,,,,,,,,,,,,,,,,,,,,11031,2,1,2024_Jun_02_1059,stroop_task_switching2,2021.2.3,59.592979955667396,
condition/block_color,instruction/instr_color,instruction/i8,XX,yellow,j,diamond,color_single,颜色,,,,,,,,,,,0,0,0,0,0,0,0,0,0,15,15,15,,,,,,,,,,,,,,,,,,,,,,,,,,,,,,,,,,,154.81027740001446,155.01017369999317,154.99405719997594,155.29468779999297,155.29468779999297,None,155.7950717000058,None,j,1,0.7651558999787085,155.7950717000058,None,None,None,156.57929069997044,None,,,,,,,,,,,,,,,,,,,,,11031,2,1,2024_Jun_02_1059,stroop_task_switching2,2021.2.3,59.592979955667396,
condition/block_color,instruction/instr_color,instruction/i8,XX,red,d,diamond,color_single,颜色,,,,,,,,,,,0,0,0,0,0,0,0,0,0,16,16,16,,,,,,,,,,,,,,,,,,,,,,,,,,,,,,,,,,,157.58196699997643,157.78118829999585,157.76618999999482,158.0655902000144,158.0655902000144,None,158.56638879998354,None,d,1,0.6096966000040993,158.56638879998354,None,None,None,159.2005177999963,None,,,,,,,,,,,,,,,,,,,,,11031,2,1,2024_Jun_02_1059,stroop_task_switching2,2021.2.3,59.592979955667396,
condition/block_color,instruction/instr_color,instruction/i8,XX,green,k,diamond,color_single,颜色,,,,,,,,,,,0,0,0,0,0,0,0,0,0,17,17,17,,,,,,,,,,,,,,,,,,,,,,,,,,,,,,,,,,,160.20195040002,160.40201119997073,160.38542140001664,160.6857973000151,160.6857973000151,None,161.18712879996747,None,k,1,1.0929199999663979,161.18712879996747,None,None,None,162.30472279997775,None,,,,,,,,,,,,,,,,,,,,,11031,2,1,2024_Jun_02_1059,stroop_task_switching2,2021.2.3,59.592979955667396,
condition/block_color,instruction/instr_color,instruction/i8,XX,yellow,j,diamond,color_single,颜色,,,,,,,,,,,0,0,0,0,0,0,0,0,0,18,18,18,,,,,,,,,,,,,,,,,,,,,,,,,,,,,,,,,,,163.30623350001406,163.50825289997738,163.48983659996884,163.79117719997885,163.79117719997885,None,164.29214560001856,None,j,1,1.4843641000334173,164.29214560001856,None,None,None,165.79329659999348,None,,,,,,,,,,,,,,,,,,,,,11031,2,1,2024_Jun_02_1059,stroop_task_switching2,2021.2.3,59.592979955667396,
condition/block_color,instruction/instr_color,instruction/i8,XX,blue,f,diamond,color_single,颜色,,,,,,,,,,,0,0,0,0,0,0,0,0,0,19,19,19,,,,,,,,,,,,,,,,,,,,,,,,,,,,,,,,,,,166.79481910000322,166.99506929999916,166.97944799996912,167.2795023000217,167.2795023000217,None,167.77980259998003,None,f,1,0.8049886000226252,167.77980259998003,None,None,None,168.61548129998846,None,,,,,,,,,,,,,,,,,,,,,11031,2,1,2024_Jun_02_1059,stroop_task_switching2,2021.2.3,59.592979955667396,
condition/block_color,instruction/instr_color,instruction/i8,XX,green,k,diamond,color_single,颜色,,,,,,,,,,,0,0,0,0,0,0,0,0,0,20,20,20,,,,,,,,,,,,,,,,,,,,,,,,,,,,,,,,,,,169.6156635999796,169.81690470001195,169.79933559999336,170.09969439997803,170.09969439997803,None,170.60116419999395,None,k,1,1.032126199977938,170.60116419999395,None,None,None,171.65220710000722,None,,,,,,,,,,,,,,,,,,,,,11031,2,1,2024_Jun_02_1059,stroop_task_switching2,2021.2.3,59.592979955667396,
condition/block_color,instruction/instr_color,instruction/i8,XX,yellow,j,diamond,color_single,颜色,,,,,,,,,,,0,0,0,0,0,0,0,0,0,21,21,21,,,,,,,,,,,,,,,,,,,,,,,,,,,,,,,,,,,172.65365629998269,172.85525760002201,172.83726050000405,173.13836199999787,173.13836199999787,None,173.63840860000346,None,j,1,1.9382389000384137,173.63840860000346,None,None,None,175.6083142000134,None,,,,,,,,,,,,,,,,,,,,,11031,2,1,2024_Jun_02_1059,stroop_task_switching2,2021.2.3,59.592979955667396,
condition/block_color,instruction/instr_color,instruction/i8,XX,blue,f,diamond,color_single,颜色,,,,,,,,,,,0,0,0,0,0,0,0,0,0,22,22,22,,,,,,,,,,,,,,,,,,,,,,,,,,,,,,,,,,,176.60954380000476,176.81075429997873,176.79405520000728,177.09417230001418,177.09417230001418,None,177.59431030001724,None,f,1,0.6305359000107273,177.59431030001724,None,None,None,178.2454001000151,None,,,,,,,,,,,,,,,,,,,,,11031,2,1,2024_Jun_02_1059,stroop_task_switching2,2021.2.3,59.592979955667396,
condition/block_color,instruction/instr_color,instruction/i8,XX,red,d,diamond,color_single,颜色,,,,,,,,,,,0,0,0,0,0,0,0,0,0,23,23,23,,,,,,,,,,,,,,,,,,,,,,,,,,,,,,,,,,,179.24661410000408,179.44704200001433,179.4306218000129,179.7309603000176,179.7309603000176,None,180.23157760000322,None,d,1,0.39286590000847355,180.23157760000322,None,None,None,180.64900739997393,None,,,,,,,,,,,,,,,,,,,,,11031,2,1,2024_Jun_02_1059,stroop_task_switching2,2021.2.3,59.592979955667396,
condition/block_color,instruction/instr_color,instruction/i8,,,,,,,,,,,,,,,,,0,0,0,0,0,0,0,0,,,,,,,,,,,,,,,,,,,,,,,,,,,,,,,,,,,,,,,,,,,,,,,,,,,,,,,,181.66727159998845,None,space,3.145775399985723,181.66727159998845,None,,,,,,,,,,,,,,,11031,2,1,2024_Jun_02_1059,stroop_task_switching2,2021.2.3,59.592979955667396,
condition/block_color,instruction/instr_color,instruction/i8,,,,,,,,,,,,,,,,,0,0,0,0,,,,,,,,,,,,,,,,,,,,,,,,,,,,,,,,,,,,,,,,,,,,,,,,,,,,,,,,,,,,,,,,,,,,,,,,,,,,,,,,11031,2,1,2024_Jun_02_1059,stroop_task_switching2,2021.2.3,59.592979955667396,
condition/block_word,instruction/instr_word,instruction/i9,黄,white,j,square,word_single,单词,0.0032461461866890584,,,,,,,,,,0,1,1,1,0,0,0,0,0,0,0,0,,,,,,,,,,,,,,,,,,,,,184.85532969998894,None,space,2.9245840000221506,184.85532969998894,None,188.81145929999184,189.8143035999965,189.8143035999965,190.81560979998903,190.81560979998903,None,187.82820579997497,188.8284161000047,191.8322230000049,192.03349850000814,192.01685379998526,192.3167112999945,192.3167112999945,None,192.8183785000001,195.82301829999778,None,0,,192.8183785000001,195.82301829999778,195.80543379997835,None,196.4396173999994,None,,,,,,,,,,,,,,,,,,,,,11031,2,1,2024_Jun_02_1059,stroop_task_switching2,2021.2.3,59.592979955667396,
condition/block_word,instruction/instr_word,instruction/i9,蓝,white,f,square,word_single,单词,0.060540570646362424,,,,,,,,,,0,1,1,1,0,0,0,0,0,1,1,1,,,,,,,,,,,,,,,,,,,,,,,,,,,,,,,,,,,197.44083669997053,197.6417863999959,197.6246092999936,197.9263977999799,197.9263977999799,None,198.42578350001713,None,f,1,0.7838248999905773,198.42578350001713,None,None,None,199.2267277999781,None,,,,,,,,,,,,,,,,,,,,,11031,2,1,2024_Jun_02_1059,stroop_task_switching2,2021.2.3,59.592979955667396,
condition/block_word,instruction/instr_word,instruction/i9,黄,white,j,square,word_single,单词,0.06994067193778963,,,,,,,,,,0,1,1,1,0,0,0,0,0,2,2,2,,,,,,,,,,,,,,,,,,,,,,,,,,,,,,,,,,,200.228761699982,200.4295723999967,200.41295610001544,200.71264889999293,200.71264889999293,None,201.2133853000123,None,j,1,2.059965700027533,201.2133853000123,None,None,None,203.2998589000199,None,,,,,,,,,,,,,,,,,,,,,11031,2,1,2024_Jun_02_1059,stroop_task_switching2,2021.2.3,59.592979955667396,
condition/block_word,instruction/instr_word,instruction/i9,蓝,white,f,square,word_single,单词,0.08193765152950094,,,,,,,,,,0,1,1,1,0,0,0,0,0,3,3,3,,,,,,,,,,,,,,,,,,,,,,,,,,,,,,,,,,,204.3013106000144,204.50295629998436,204.48528770002304,204.78729040001053,204.78729040001053,None,205.28632790001575,None,f,1,2.195039000012912,205.28632790001575,None,None,None,207.50630579999415,None,,,,,,,,,,,,,,,,,,,,,11031,2,1,2024_Jun_02_1059,stroop_task_switching2,2021.2.3,59.592979955667396,
condition/block_word,instruction/instr_word,instruction/i9,红,white,d,square,word_single,单词,0.1279694370605574,,,,,,,,,,0,1,1,1,0,0,0,0,0,4,4,4,,,,,,,,,,,,,,,,,,,,,,,,,,,,,,,,,,,208.50772280001547,208.70858709997265,208.6933621999924,209.0089827000047,208.99178549996577,None,209.4933069999679,None,d,1,0.5325221000239253,209.4933069999679,None,None,None,210.04406619997462,None,,,,,,,,,,,,,,,,,,,,,11031,2,1,2024_Jun_02_1059,stroop_task_switching2,2021.2.3,59.592979955667396,
condition/block_word,instruction/instr_word,instruction/i9,红,white,d,square,word_single,单词,0.18345028784879092,,,,,,,,,,0,1,1,1,0,0,0,0,0,5,5,5,,,,,,,,,,,,,,,,,,,,,,,,,,,,,,,,,,,211.0455823999946,211.24525819998235,211.2287225999753,211.53015569999116,211.53015569999116,None,212.0304970999714,None,d,1,0.6993062000256032,212.0304970999714,None,None,None,212.74783659999957,None,,,,,,,,,,,,,,,,,,,,,11031,2,1,2024_Jun_02_1059,stroop_task_switching2,2021.2.3,59.592979955667396,
condition/block_word,instruction/instr_word,instruction/i9,蓝,white,f,square,word_single,单词,0.19920386223101294,,,,,,,,,,0,1,1,1,0,0,0,0,0,6,6,6,,,,,,,,,,,,,,,,,,,,,,,,,,,,,,,,,,,213.7493682000204,213.9495278999675,213.9323190000141,214.23417000001064,214.23417000001064,None,214.7337219999754,None,f,1,0.5879351999610662,214.7337219999754,None,None,None,215.3513268000097,None,,,,,,,,,,,,,,,,,,,,,11031,2,1,2024_Jun_02_1059,stroop_task_switching2,2021.2.3,59.592979955667396,
condition/block_word,instruction/instr_word,instruction/i9,蓝,white,f,square,word_single,单词,0.26360599864925405,,,,,,,,,,0,1,1,1,0,0,0,0,0,7,7,7,,,,,,,,,,,,,,,,,,,,,,,,,,,,,,,,,,,216.35281959996792,216.55525269999634,216.5366125999717,216.8376653000014,216.8376653000014,None,217.33854710002197,None,f,1,0.959190400026273,217.33854710002197,None,None,None,218.32267409999622,None,,,,,,,,,,,,,,,,,,,,,11031,2,1,2024_Jun_02_1059,stroop_task_switching2,2021.2.3,59.592979955667396,
condition/block_word,instruction/instr_word,instruction/i9,蓝,white,f,square,word_single,单词,0.358985675745526,,,,,,,,,,0,1,1,1,0,0,0,0,0,8,8,8,,,,,,,,,,,,,,,,,,,,,,,,,,,,,,,,,,,219.32397779996973,219.52446859999327,219.5095836999826,219.8255410999991,219.80805449996842,None,220.30969560000813,None,f,1,0.6760565000004135,220.30969560000813,None,None,None,221.00998309999704,None,,,,,,,,,,,,,,,,,,,,,11031,2,1,2024_Jun_02_1059,stroop_task_switching2,2021.2.3,59.592979955667396,
condition/block_word,instruction/instr_word,instruction/i9,绿,white,k,square,word_single,单词,0.36496733802487347,,,,,,,,,,0,1,1,1,0,0,0,0,0,9,9,9,,,,,,,,,,,,,,,,,,,,,,,,,,,,,,,,,,,222.01148059999105,222.21238149999408,222.19514339999296,222.49664799997117,222.4794225000078,None,222.9793469000142,None,j,0,0.7263746000244282,222.9793469000142,None,None,None,223.7306443999987,None,,,,,,,,,,,,,,,,,,,,,11031,2,1,2024_Jun_02_1059,stroop_task_switching2,2021.2.3,59.592979955667396,
condition/block_word,instruction/instr_word,instruction/i9,黄,white,j,square,word_single,单词,0.3743513623756727,,,,,,,,,,0,1,1,1,0,0,0,0,0,10,10,10,,,,,,,,,,,,,,,,,,,,,,,,,,,,,,,,,,,224.73206509999,224.9341486999765,224.915657799982,225.2162801999948,225.2162801999948,None,225.71827929996653,None,j,1,0.5317846999969333,225.71827929996653,None,None,None,226.2679087999859,None,,,,,,,,,,,,,,,,,,,,,11031,2,1,2024_Jun_02_1059,stroop_task_switching2,2021.2.3,59.592979955667396,
condition/block_word,instruction/instr_word,instruction/i9,红,white,d,square,word_single,单词,0.3894803852598544,,,,,,,,,,0,1,1,1,0,0,0,0,0,11,11,11,,,,,,,,,,,,,,,,,,,,,,,,,,,,,,,,,,,227.26920669997344,227.46963539998978,227.45294609997654,227.7539478999679,227.7539478999679,None,228.2550973999896,None,d,1,0.5314392999862321,228.2550973999896,None,None,None,228.8049716000096,None,,,,,,,,,,,,,,,,,,,,,11031,2,1,2024_Jun_02_1059,stroop_task_switching2,2021.2.3,59.592979955667396,
condition/block_word,instruction/instr_word,instruction/i9,绿,white,k,square,word_single,单词,0.5393759672408067,,,,,,,,,,0,1,1,1,0,0,0,0,0,12,12,12,,,,,,,,,,,,,,,,,,,,,,,,,,,,,,,,,,,229.80737910000607,230.00820669997483,229.9908231999725,230.29077510000207,230.29077510000207,None,230.7921514000045,None,k,1,0.666463500005193,230.7921514000045,None,None,None,231.475756299973,None,,,,,,,,,,,,,,,,,,,,,11031,2,1,2024_Jun_02_1059,stroop_task_switching2,2021.2.3,59.592979955667396,
condition/block_word,instruction/instr_word,instruction/i9,蓝,white,f,square,word_single,单词,0.5995731954831104,,,,,,,,,,0,1,1,1,0,0,0,0,0,13,13,13,,,,,,,,,,,,,,,,,,,,,,,,,,,,,,,,,,,232.47739419998834,232.67740230000345,232.66301869996823,232.97802829998545,232.9637089999742,None,233.47878200002015,None,j,0,0.5006422000005841,233.47878200002015,None,None,None,233.99617579998448,None,,,,,,,,,,,,,,,,,,,,,11031,2,1,2024_Jun_02_1059,stroop_task_switching2,2021.2.3,59.592979955667396,
condition/block_word,instruction/instr_word,instruction/i9,红,white,d,square,word_single,单词,0.6298674479151414,,,,,,,,,,0,1,1,1,0,0,0,0,0,14,14,14,,,,,,,,,,,,,,,,,,,,,,,,,,,,,,,,,,,234.99814300000435,235.19795569998678,235.18178559996886,235.48181769996881,235.48181769996881,None,235.98255570000038,None,d,1,0.7000268999836408,235.98255570000038,None,None,None,236.70028609997826,None,,,,,,,,,,,,,,,,,,,,,11031,2,1,2024_Jun_02_1059,stroop_task_switching2,2021.2.3,59.592979955667396,
condition/block_word,instruction/instr_word,instruction/i9,红,white,d,square,word_single,单词,0.7389942282348904,,,,,,,,,,0,1,1,1,0,0,0,0,0,15,15,15,,,,,,,,,,,,,,,,,,,,,,,,,,,,,,,,,,,237.70222809998086,237.90210930001922,237.8854152999702,238.18584469996858,238.18584469996858,None,238.6863284999854,None,d,1,0.6119866999797523,238.6863284999854,None,None,None,239.3208058999735,None,,,,,,,,,,,,,,,,,,,,,11031,2,1,2024_Jun_02_1059,stroop_task_switching2,2021.2.3,59.592979955667396,
condition/block_word,instruction/instr_word,instruction/i9,绿,white,k,square,word_single,单词,0.7550853947239682,,,,,,,,,,0,1,1,1,0,0,0,0,0,16,16,16,,,,,,,,,,,,,,,,,,,,,,,,,,,,,,,,,,,240.32323390000965,240.52296670002397,240.50668499997118,240.80658249999397,240.80658249999397,None,241.3073865000042,None,k,1,0.6394486000062898,241.3073865000042,None,None,None,241.9747305000201,None,,,,,,,,,,,,,,,,,,,,,11031,2,1,2024_Jun_02_1059,stroop_task_switching2,2021.2.3,59.592979955667396,
condition/block_word,instruction/instr_word,instruction/i9,绿,white,k,square,word_single,单词,0.8019302780428206,,,,,,,,,,0,1,1,1,0,0,0,0,0,17,17,17,,,,,,,,,,,,,,,,,,,,,,,,,,,,,,,,,,,242.9765400000033,243.17764369997894,243.15990289999172,243.46041290002177,243.46041290002177,None,243.96107219997793,None,k,1,0.8090989000047557,243.96107219997793,None,None,None,244.79553860001033,None,,,,,,,,,,,,,,,,,,,,,11031,2,1,2024_Jun_02_1059,stroop_task_switching2,2021.2.3,59.592979955667396,
condition/block_word,instruction/instr_word,instruction/i9,绿,white,k,square,word_single,单词,0.8110702914095343,,,,,,,,,,0,1,1,1,0,0,0,0,0,18,18,18,,,,,,,,,,,,,,,,,,,,,,,,,,,,,,,,,,,245.7977147999918,245.9973804000183,245.98167529999046,246.28202909999527,246.28202909999527,None,246.78265989996726,None,k,1,0.5479022999643348,246.78265989996726,None,None,None,247.3495305000106,None,,,,,,,,,,,,,,,,,,,,,11031,2,1,2024_Jun_02_1059,stroop_task_switching2,2021.2.3,59.592979955667396,
condition/block_word,instruction/instr_word,instruction/i9,黄,white,j,square,word_single,单词,0.8176594937590999,,,,,,,,,,0,1,1,1,0,0,0,0,0,19,19,19,,,,,,,,,,,,,,,,,,,,,,,,,,,,,,,,,,,248.35226989997318,248.55198910000036,248.5356302,248.8361603000085,248.8361603000085,None,249.33664729999145,None,f,0,1.169743100006599,249.33664729999145,None,None,None,250.53789259999758,None,,,,,,,,,,,,,,,,,,,,,11031,2,1,2024_Jun_02_1059,stroop_task_switching2,2021.2.3,59.592979955667396,
condition/block_word,instruction/instr_word,instruction/i9,红,white,d,square,word_single,单词,0.8955794421104841,,,,,,,,,,0,1,1,1,0,0,0,0,0,20,20,20,,,,,,,,,,,,,,,,,,,,,,,,,,,,,,,,,,,251.53920180001296,251.74114389996976,251.72291399998358,252.0237696999684,252.0237696999684,None,252.52405880001606,None,d,1,0.6471356000402011,252.52405880001606,None,None,None,253.1914799999795,None,,,,,,,,,,,,,,,,,,,,,11031,2,1,2024_Jun_02_1059,stroop_task_switching2,2021.2.3,59.592979955667396,
condition/block_word,instruction/instr_word,instruction/i9,绿,white,k,square,word_single,单词,0.9113598052474129,,,,,,,,,,0,1,1,1,0,0,0,0,0,21,21,21,,,,,,,,,,,,,,,,,,,,,,,,,,,,,,,,,,,254.19360020000022,254.39398980000988,254.37783429998672,254.6780639999779,254.6780639999779,None,255.17842429998564,None,k,1,0.5920339000294916,255.17842429998564,None,None,None,255.79591839999193,None,,,,,,,,,,,,,,,,,,,,,11031,2,1,2024_Jun_02_1059,stroop_task_switching2,2021.2.3,59.592979955667396,
condition/block_word,instruction/instr_word,instruction/i9,黄,white,j,square,word_single,单词,0.9215930958042953,,,,,,,,,,0,1,1,1,0,0,0,0,0,22,22,22,,,,,,,,,,,,,,,,,,,,,,,,,,,,,,,,,,,256.7979533000034,256.9983611999778,256.9817064999952,257.2818212999846,257.2818212999846,None,257.7817936000065,None,j,1,0.5332576000364497,257.7817936000065,None,None,None,258.3340766999754,None,,,,,,,,,,,,,,,,,,,,,11031,2,1,2024_Jun_02_1059,stroop_task_switching2,2021.2.3,59.592979955667396,
condition/block_word,instruction/instr_word,instruction/i9,黄,white,j,square,word_single,单词,0.9493525498837774,,,,,,,,,,0,1,1,1,0,0,0,0,0,23,23,23,,,,,,,,,,,,,,,,,,,,,,,,,,,,,,,,,,,259.33436819998315,259.53478659997927,259.51895419997163,259.8184051999706,259.8184051999706,None,260.3190673000063,None,j,1,0.4684245000244118,260.3190673000063,None,None,None,260.80324079998536,None,,,,,,,,,,,,,,,,,,,,,11031,2,1,2024_Jun_02_1059,stroop_task_switching2,2021.2.3,59.592979955667396,
condition/block_word,instruction/instr_word,instruction/i9,,,,,,,,,,,,,,,,,0,1,1,1,0,0,0,0,,,,,,,,,,,,,,,,,,,,,,,,,,,,,,,,,,,,,,,,,,,,,,,,,,,,,,,,261.8043697999674,None,space,3.0904545999947004,261.8043697999674,None,,,,,,,,,,,,,,,11031,2,1,2024_Jun_02_1059,stroop_task_switching2,2021.2.3,59.592979955667396,
condition/block_word,instruction/instr_word,instruction/i9,,,,,,,,,,,,,,,,,0,1,1,1,,,,,,,,,,,,,,,,,,,,,,,,,,,,,,,,,,,,,,,,,,,,,,,,,,,,,,,,,,,,,,,,,,,,,,,,,,,,,,,,11031,2,1,2024_Jun_02_1059,stroop_task_switching2,2021.2.3,59.592979955667396,
condition/block_mixed,instruction/instr_mixed,instruction/i10,蓝,red,d,diamond,color_mix,颜色,,incompatible,0,,,,,,,,0,2,2,2,0,0,0,0,0,0,0,0,,,,,,,,,,,,,,,,,,,,,264.9427698000218,None,space,24.403231300006155,264.9427698000218,None,290.3662654000218,291.3676406000159,291.3676406000159,292.36916589998873,292.36916589998873,None,289.37990709999576,290.3810573000228,293.4032178000198,293.60332070000004,293.5874899000046,293.9042715000105,293.8864418999874,None,294.37054460000945,None,j,0,1.2252587000257336,294.37054460000945,None,None,None,295.6227798999753,None,,,,,,,,,,,,,,,,,,,,,11031,2,1,2024_Jun_02_1059,stroop_task_switching2,2021.2.3,59.592979955667396,
condition/block_mixed,instruction/instr_mixed,instruction/i10,绿,yellow,j,diamond,color_mix,颜色,,incompatible,1,,,,,,,,0,2,2,2,0,0,0,0,0,1,1,1,,,,,,,,,,,,,,,,,,,,,,,,,,,,,,,,,,,296.62453650002135,296.8250135999988,296.8085712000029,297.1079371999949,297.1079371999949,None,297.60865269997157,None,j,1,1.3395176000194624,297.60865269997157,None,None,None,298.9774780999869,None,,,,,,,,,,,,,,,,,,,,,11031,2,1,2024_Jun_02_1059,stroop_task_switching2,2021.2.3,59.592979955667396,
condition/block_mixed,instruction/instr_mixed,instruction/i10,红,green,k,diamond,color_mix,颜色,,incompatible,1,,,,,,,,0,2,2,2,0,0,0,0,0,2,2,2,,,,,,,,,,,,,,,,,,,,,,,,,,,,,,,,,,,299.97905049996916,300.17987419996643,300.1633038999862,300.463884399971,300.463884399971,None,300.96384799998486,None,j,0,1.7598921000026166,300.96384799998486,None,None,None,302.7510269000195,None,,,,,,,,,,,,,,,,,,,,,11031,2,1,2024_Jun_02_1059,stroop_task_switching2,2021.2.3,59.592979955667396,
condition/block_mixed,instruction/instr_mixed,instruction/i10,蓝,red,d,diamond,color_mix,颜色,,incompatible,1,,,,,,,,0,2,2,2,0,0,0,0,0,3,3,3,,,,,,,,,,,,,,,,,,,,,,,,,,,,,,,,,,,303.75189090002095,303.95153059996665,303.935452500009,304.2367813999881,304.2367813999881,None,304.73601079999935,None,d,1,0.8365263999439776,304.73601079999935,None,None,None,305.5873158000177,None,,,,,,,,,,,,,,,,,,,,,11031,2,1,2024_Jun_02_1059,stroop_task_switching2,2021.2.3,59.592979955667396,
condition/block_mixed,instruction/instr_mixed,instruction/i10,红,blue,f,diamond,color_mix,颜色,,incompatible,1,,,,,,,,0,2,2,2,0,0,0,0,0,4,4,4,,,,,,,,,,,,,,,,,,,,,,,,,,,,,,,,,,,306.58928499999456,306.78958270000294,306.77319049998187,307.0733404000057,307.0733404000057,None,307.57434019999346,None,f,1,1.469868999964092,307.57434019999346,None,None,None,309.07594999996945,None,,,,,,,,,,,,,,,,,,,,,11031,2,1,2024_Jun_02_1059,stroop_task_switching2,2021.2.3,59.592979955667396,
condition/block_mixed,instruction/instr_mixed,instruction/i10,红,blue,d,square,color_mix,单词,,incompatible,2,,,,,,,,0,2,2,2,0,0,0,0,0,5,5,5,,,,,,,,,,,,,,,,,,,,,,,,,,,,,,,,,,,310.0783055999782,310.28013989998726,310.2612707000226,310.5614535000059,310.5614535000059,None,311.0633489000029,None,j,0,1.6927442000014707,311.0633489000029,None,None,None,312.78154300001916,None,,,,,,,,,,,,,,,,,,,,,11031,2,1,2024_Jun_02_1059,stroop_task_switching2,2021.2.3,59.592979955667396,
condition/block_mixed,instruction/instr_mixed,instruction/i10,红,yellow,j,diamond,color_mix,颜色,,incompatible,2,,,,,,,,0,2,2,2,0,0,0,0,0,6,6,6,,,,,,,,,,,,,,,,,,,,,,,,,,,,,,,,,,,313.7838085999829,313.9842682000017,313.9670168000157,314.2670386999962,314.2670386999962,None,314.7678336999961,None,j,1,1.5244340000208467,314.7678336999961,None,None,None,316.320287199982,None,,,,,,,,,,,,,,,,,,,,,11031,2,1,2024_Jun_02_1059,stroop_task_switching2,2021.2.3,59.592979955667396,
condition/block_mixed,instruction/instr_mixed,instruction/i10,红,yellow,d,square,color_mix,单词,,incompatible,2,,,,,,,,0,2,2,2,0,0,0,0,0,7,7,7,,,,,,,,,,,,,,,,,,,,,,,,,,,,,,,,,,,317.3218493000022,317.52293540001847,317.50713059998816,317.8235741999815,317.80692479998106,None,318.30629510001745,None,j,0,1.3461828000145033,318.30629510001745,None,None,None,319.67541989998426,None,,,,,,,,,,,,,,,,,,,,,11031,2,1,2024_Jun_02_1059,stroop_task_switching2,2021.2.3,59.592979955667396,
condition/block_mixed,instruction/instr_mixed,instruction/i10,绿,blue,k,square,color_mix,单词,,incompatible,1,,,,,,,,0,2,2,2,0,0,0,0,0,8,8,8,,,,,,,,,,,,,,,,,,,,,,,,,,,,,,,,,,,320.6768036999856,320.87709039996844,320.86100169998826,321.1610745000071,321.1610745000071,None,321.66184870002326,None,k,1,2.6711128000169992,321.66184870002326,None,None,None,324.34888170001796,None,,,,,,,,,,,,,,,,,,,,,11031,2,1,2024_Jun_02_1059,stroop_task_switching2,2021.2.3,59.592979955667396,
condition/block_mixed,instruction/instr_mixed,instruction/i10,蓝,green,k,diamond,color_mix,颜色,,incompatible,2,,,,,,,,0,2,2,2,0,0,0,0,0,9,9,9,,,,,,,,,,,,,,,,,,,,,,,,,,,,,,,,,,,325.351214299968,325.5517386000138,325.5349782999838,325.8355254000053,325.8355254000053,None,326.3353100999957,None,f,0,2.8707851999788545,326.3353100999957,None,None,None,329.22337949997745,None,,,,,,,,,,,,,,,,,,,,,11031,2,1,2024_Jun_02_1059,stroop_task_switching2,2021.2.3,59.592979955667396,
condition/block_mixed,instruction/instr_mixed,instruction/i10,蓝,yellow,f,square,color_mix,单词,,incompatible,2,,,,,,,,0,2,2,2,0,0,0,0,0,10,10,10,,,,,,,,,,,,,,,,,,,,,,,,,,,,,,,,,,,330.22454399999697,330.4249382999842,330.4088107999996,330.70871959999204,330.70871959999204,None,331.2101893000072,334.21379040001193,None,0,,331.2101893000072,334.21379040001193,334.1980289000203,None,334.8156616999768,None,,,,,,,,,,,,,,,,,,,,,11031,2,1,2024_Jun_02_1059,stroop_task_switching2,2021.2.3,59.592979955667396,
condition/block_mixed,instruction/instr_mixed,instruction/i10,蓝,green,f,square,color_mix,单词,,incompatible,1,,,,,,,,0,2,2,2,0,0,0,0,0,11,11,11,,,,,,,,,,,,,,,,,,,,,,,,,,,,,,,,,,,335.8166911000153,336.01655290002236,336.0004761000164,336.3004865999683,336.3004865999683,None,336.8017434999929,None,f,1,1.2673966000438668,336.8017434999929,None,None,None,338.08657689997926,None,,,,,,,,,,,,,,,,,,,,,11031,2,1,2024_Jun_02_1059,stroop_task_switching2,2021.2.3,59.592979955667396,
condition/block_mixed,instruction/instr_mixed,instruction/i10,绿,yellow,k,square,color_mix,单词,,incompatible,1,,,,,,,,0,2,2,2,0,0,0,0,0,12,12,12,,,,,,,,,,,,,,,,,,,,,,,,,,,,,,,,,,,339.0881315000006,339.2883456000127,339.2719539999962,339.57293399999617,339.57293399999617,None,340.07307939999737,None,k,1,1.8198091000085697,340.07307939999737,None,None,None,341.90886839997256,None,,,,,,,,,,,,,,,,,,,,,11031,2,1,2024_Jun_02_1059,stroop_task_switching2,2021.2.3,59.592979955667396,
condition/block_mixed,instruction/instr_mixed,instruction/i10,绿,blue,f,diamond,color_mix,颜色,,incompatible,2,,,,,,,,0,2,2,2,0,0,0,0,0,13,13,13,,,,,,,,,,,,,,,,,,,,,,,,,,,,,,,,,,,342.9106873999699,343.1123869000003,343.0941249000025,343.39540480001597,343.39540480001597,None,343.8953514000168,None,f,1,1.7979297999991104,343.8953514000168,None,None,None,345.7146349999821,None,,,,,,,,,,,,,,,,,,,,,11031,2,1,2024_Jun_02_1059,stroop_task_switching2,2021.2.3,59.592979955667396,
condition/block_mixed,instruction/instr_mixed,instruction/i10,黄,red,j,square,color_mix,单词,,incompatible,2,,,,,,,,0,2,2,2,0,0,0,0,0,14,14,14,,,,,,,,,,,,,,,,,,,,,,,,,,,,,,,,,,,346.7159939999692,346.9175589000224,346.8997304000077,347.2008986999863,347.2008986999863,None,347.70095859997673,None,j,1,1.7686935000238009,347.70095859997673,None,None,None,349.4899793000077,None,,,,,,,,,,,,,,,,,,,,,11031,2,1,2024_Jun_02_1059,stroop_task_switching2,2021.2.3,59.592979955667396,
condition/block_mixed,instruction/instr_mixed,instruction/i10,蓝,yellow,j,diamond,color_mix,颜色,,incompatible,2,,,,,,,,0,2,2,2,0,0,0,0,0,15,15,15,,,,,,,,,,,,,,,,,,,,,,,,,,,,,,,,,,,350.4883878999972,350.6907141999691,350.6726628000033,350.97383590001846,350.97383590001846,None,351.47406129998853,None,j,1,1.227390599960927,351.47406129998853,None,None,None,352.72607390000485,None,,,,,,,,,,,,,,,,,,,,,11031,2,1,2024_Jun_02_1059,stroop_task_switching2,2021.2.3,59.592979955667396,
condition/block_mixed,instruction/instr_mixed,instruction/i10,黄,red,d,diamond,color_mix,颜色,,incompatible,1,,,,,,,,0,2,2,2,0,0,0,0,0,16,16,16,,,,,,,,,,,,,,,,,,,,,,,,,,,,,,,,,,,353.7266077999957,353.92833600001177,353.9102122000186,354.2124158000224,354.2124158000224,None,354.7120158000034,None,d,1,0.6614261000067927,354.7120158000034,None,None,None,355.3959027999663,None,,,,,,,,,,,,,,,,,,,,,11031,2,1,2024_Jun_02_1059,stroop_task_switching2,2021.2.3,59.592979955667396,
condition/block_mixed,instruction/instr_mixed,instruction/i10,绿,red,k,square,color_mix,单词,,incompatible,2,,,,,,,,0,2,2,2,0,0,0,0,0,17,17,17,,,,,,,,,,,,,,,,,,,,,,,,,,,,,,,,,,,356.39760369999567,356.5988573000068,356.581765800016,356.88137279998045,356.88137279998045,None,357.3832525999751,None,k,1,0.7900628999923356,357.3832525999751,None,None,None,358.2002085999702,None,,,,,,,,,,,,,,,,,,,,,11031,2,1,2024_Jun_02_1059,stroop_task_switching2,2021.2.3,59.592979955667396,
condition/block_mixed,instruction/instr_mixed,instruction/i10,红,green,d,square,color_mix,单词,,incompatible,1,,,,,,,,0,2,2,2,0,0,0,0,0,18,18,18,,,,,,,,,,,,,,,,,,,,,,,,,,,,,,,,,,,359.20132900000317,359.4037780999788,359.3851586999954,359.68671749997884,359.68671749997884,None,360.18727059999947,None,d,1,0.8101164999534376,360.18727059999947,None,None,None,361.0217862999998,None,,,,,,,,,,,,,,,,,,,,,11031,2,1,2024_Jun_02_1059,stroop_task_switching2,2021.2.3,59.592979955667396,
condition/block_mixed,instruction/instr_mixed,instruction/i10,黄,blue,f,diamond,color_mix,颜色,,incompatible,2,,,,,,,,0,2,2,2,0,0,0,0,0,19,19,19,,,,,,,,,,,,,,,,,,,,,,,,,,,,,,,,,,,362.02301870001247,362.22348559997045,362.20603549998486,362.50799870002083,362.50799870002083,None,363.0087709000218,None,j,0,0.9966516999993473,363.0087709000218,None,None,None,364.0254691999871,None,,,,,,,,,,,,,,,,,,,,,11031,2,1,2024_Jun_02_1059,stroop_task_switching2,2021.2.3,59.592979955667396,
condition/block_mixed,instruction/instr_mixed,instruction/i10,黄,green,k,diamond,color_mix,颜色,,incompatible,1,,,,,,,,0,2,2,2,0,0,0,0,0,20,20,20,,,,,,,,,,,,,,,,,,,,,,,,,,,,,,,,,,,365.02685620001284,365.22859750001226,365.2105018000002,365.511111299973,365.511111299973,None,366.0119282999658,None,j,0,1.8902786999824457,366.0119282999658,None,None,None,367.9313820999814,None,,,,,,,,,,,,,,,,,,,,,11031,2,1,2024_Jun_02_1059,stroop_task_switching2,2021.2.3,59.592979955667396,
condition/block_mixed,instruction/instr_mixed,instruction/i10,黄,green,j,square,color_mix,单词,,incompatible,2,,,,,,,,0,2,2,2,0,0,0,0,0,21,21,21,,,,,,,,,,,,,,,,,,,,,,,,,,,,,,,,,,,368.9329204999958,369.13340039999457,369.1171803000034,369.41874639998423,369.41874639998423,None,369.91858389996924,None,j,1,1.9272959000081755,369.91858389996924,None,None,None,371.8707960000029,None,,,,,,,,,,,,,,,,,,,,,11031,2,1,2024_Jun_02_1059,stroop_task_switching2,2021.2.3,59.592979955667396,
condition/block_mixed,instruction/instr_mixed,instruction/i10,黄,blue,j,square,color_mix,单词,,incompatible,1,,,,,,,,0,2,2,2,0,0,0,0,0,22,22,22,,,,,,,,,,,,,,,,,,,,,,,,,,,,,,,,,,,372.8730896000052,373.0724790999666,373.05784899997525,373.3731229999685,373.3561208000174,None,373.8578720000223,None,j,1,0.6920558999991044,373.8578720000223,None,None,None,374.57503750000615,None,,,,,,,,,,,,,,,,,,,,,11031,2,1,2024_Jun_02_1059,stroop_task_switching2,2021.2.3,59.592979955667396,
condition/block_mixed,instruction/instr_mixed,instruction/i10,蓝,red,f,square,color_mix,单词,,incompatible,1,,,,,,,,0,2,2,2,0,0,0,0,0,23,23,23,,,,,,,,,,,,,,,,,,,,,,,,,,,,,,,,,,,375.57638290000614,375.7788784999866,375.7600411999738,376.0620286000194,376.0620286000194,None,376.5615496999817,None,f,1,1.4851258999551646,376.5615496999817,None,None,None,378.06330139999045,None,,,,,,,,,,,,,,,,,,,,,11031,2,1,2024_Jun_02_1059,stroop_task_switching2,2021.2.3,59.592979955667396,
condition/block_mixed,instruction/instr_mixed,instruction/i10,绿,red,d,diamond,color_mix,颜色,,incompatible,2,,,,,,,,0,2,2,2,0,0,0,0,0,24,24,24,,,,,,,,,,,,,,,,,,,,,,,,,,,,,,,,,,,379.0653670000029,379.2658203999745,379.24912330001825,379.5487637000042,379.5487637000042,None,380.04968679999,None,d,1,0.8124793999595568,380.04968679999,None,None,None,380.88463919999776,None,,,,,,,,,,,,,,,,,,,,,11031,2,1,2024_Jun_02_1059,stroop_task_switching2,2021.2.3,59.592979955667396,
condition/block_mixed,instruction/instr_mixed,instruction/i10,绿,green,k,diamond,color_mix,颜色,,compatible,1,,,,,,,,0,2,2,2,0,0,0,0,0,25,25,25,,,,,,,,,,,,,,,,,,,,,,,,,,,,,,,,,,,381.88627570000244,382.0867004999891,382.0697704000049,382.37136869999813,382.3531684000045,None,382.8539803000167,None,k,1,0.7205701999482699,382.8539803000167,None,None,None,383.6062666000216,None,,,,,,,,,,,,,,,,,,,,,11031,2,1,2024_Jun_02_1059,stroop_task_switching2,2021.2.3,59.592979955667396,
condition/block_mixed,instruction/instr_mixed,instruction/i10,蓝,blue,f,diamond,color_mix,颜色,,compatible,1,,,,,,,,0,2,2,2,0,0,0,0,0,26,26,26,,,,,,,,,,,,,,,,,,,,,,,,,,,,,,,,,,,384.6066810999764,384.8067512999987,384.79072779999115,385.0905316999997,385.0905316999997,None,385.5913518000161,None,f,1,1.1512173999799415,385.5913518000161,None,None,None,386.75979139999254,None,,,,,,,,,,,,,,,,,,,,,11031,2,1,2024_Jun_02_1059,stroop_task_switching2,2021.2.3,59.592979955667396,
condition/block_mixed,instruction/instr_mixed,instruction/i10,绿,green,k,square,color_mix,单词,,compatible,2,,,,,,,,0,2,2,2,0,0,0,0,0,27,27,27,,,,,,,,,,,,,,,,,,,,,,,,,,,,,,,,,,,387.7620799000142,387.96156789996894,387.9449712000205,388.2463719000225,388.2463719000225,None,388.7462377999909,None,k,1,0.8532942999736406,388.7462377999909,None,None,None,389.61389330000384,None,,,,,,,,,,,,,,,,,,,,,11031,2,1,2024_Jun_02_1059,stroop_task_switching2,2021.2.3,59.592979955667396,
condition/block_mixed,instruction/instr_mixed,instruction/i10,绿,green,k,square,color_mix,单词,,compatible,1,,,,,,,,0,2,2,2,0,0,0,0,0,28,28,28,,,,,,,,,,,,,,,,,,,,,,,,,,,,,,,,,,,390.61559409997426,390.8161666999804,390.7991314000101,391.09954789996846,391.09954789996846,None,391.6010630999808,None,k,1,0.5252699999837205,391.6010630999808,None,None,None,392.15139620000264,None,,,,,,,,,,,,,,,,,,,,,11031,2,1,2024_Jun_02_1059,stroop_task_switching2,2021.2.3,59.592979955667396,
condition/block_mixed,instruction/instr_mixed,instruction/i10,蓝,blue,f,square,color_mix,单词,,compatible,1,,,,,,,,0,2,2,2,0,0,0,0,0,29,29,29,,,,,,,,,,,,,,,,,,,,,,,,,,,,,,,,,,,393.15267659997335,393.35364929999923,393.33660460001556,393.6375697000185,393.6375697000185,None,394.13815820001764,None,f,1,1.2121282999869436,394.13815820001764,None,None,None,395.3727251999662,None,,,,,,,,,,,,,,,,,,,,,11031,2,1,2024_Jun_02_1059,stroop_task_switching2,2021.2.3,59.592979955667396,
condition/block_mixed,instruction/instr_mixed,instruction/i10,黄,yellow,j,diamond,color_mix,颜色,,compatible,2,,,,,,,,0,2,2,2,0,0,0,0,0,30,30,30,,,,,,,,,,,,,,,,,,,,,,,,,,,,,,,,,,,396.3755631999811,396.5759013000061,396.559998599987,396.8592049999861,396.8592049999861,None,397.3592434999882,None,j,1,1.4793627000181004,397.3592434999882,None,None,None,398.8614257000154,None,,,,,,,,,,,,,,,,,,,,,11031,2,1,2024_Jun_02_1059,stroop_task_switching2,2021.2.3,59.592979955667396,
condition/block_mixed,instruction/instr_mixed,instruction/i10,绿,green,k,square,color_mix,单词,,compatible,2,,,,,,,,0,2,2,2,0,0,0,0,0,31,31,31,,,,,,,,,,,,,,,,,,,,,,,,,,,,,,,,,,,399.8636376999784,400.0631119000027,400.0477196999709,400.3468718000222,400.3468718000222,None,400.8477293999749,None,k,1,0.9991863999748603,400.8477293999749,None,None,None,401.86631050001597,None,,,,,,,,,,,,,,,,,,,,,11031,2,1,2024_Jun_02_1059,stroop_task_switching2,2021.2.3,59.592979955667396,
condition/block_mixed,instruction/instr_mixed,instruction/i10,黄,yellow,j,square,color_mix,单词,,compatible,1,,,,,,,,0,2,2,2,0,0,0,0,0,32,32,32,,,,,,,,,,,,,,,,,,,,,,,,,,,,,,,,,,,402.8681235999684,403.06960029999027,403.05104920000304,403.3525217999704,403.3525217999704,None,403.8524440000183,None,j,1,1.3226329000317492,403.8524440000183,None,None,None,405.2046238000039,None,,,,,,,,,,,,,,,,,,,,,11031,2,1,2024_Jun_02_1059,stroop_task_switching2,2021.2.3,59.592979955667396,
condition/block_mixed,instruction/instr_mixed,instruction/i10,绿,green,k,diamond,color_mix,颜色,,compatible,2,,,,,,,,0,2,2,2,0,0,0,0,0,33,33,33,,,,,,,,,,,,,,,,,,,,,,,,,,,,,,,,,,,406.20593080000253,406.4067400000058,406.390312500007,406.69064240000444,406.69064240000444,None,407.1905512000085,None,k,1,0.7444081000285223,407.1905512000085,None,None,None,407.9597654999816,None,,,,,,,,,,,,,,,,,,,,,11031,2,1,2024_Jun_02_1059,stroop_task_switching2,2021.2.3,59.592979955667396,
condition/block_mixed,instruction/instr_mixed,instruction/i10,红,red,d,square,color_mix,单词,,compatible,2,,,,,,,,0,2,2,2,0,0,0,0,0,34,34,34,,,,,,,,,,,,,,,,,,,,,,,,,,,,,,,,,,,408.95994099997915,409.1619691000087,409.14360539999325,409.4455220999662,409.4455220999662,None,409.94526349997614,None,d,1,0.7414764999994077,409.94526349997614,None,None,None,410.71263560000807,None,,,,,,,,,,,,,,,,,,,,,11031,2,1,2024_Jun_02_1059,stroop_task_switching2,2021.2.3,59.592979955667396,
condition/block_mixed,instruction/instr_mixed,instruction/i10,黄,yellow,j,square,color_mix,单词,,compatible,1,,,,,,,,0,2,2,2,0,0,0,0,0,35,35,35,,,,,,,,,,,,,,,,,,,,,,,,,,,,,,,,,,,411.7141896999674,411.9144387000124,411.89839390001725,412.1986067999969,412.1986067999969,None,412.7000850000186,None,j,1,0.579455400002189,412.7000850000186,None,None,None,413.299790799967,None,,,,,,,,,,,,,,,,,,,,,11031,2,1,2024_Jun_02_1059,stroop_task_switching2,2021.2.3,59.592979955667396,
condition/block_mixed,instruction/instr_mixed,instruction/i10,绿,green,k,diamond,color_mix,颜色,,compatible,2,,,,,,,,0,2,2,2,0,0,0,0,0,36,36,36,,,,,,,,,,,,,,,,,,,,,,,,,,,,,,,,,,,414.3012337000109,414.5024272999726,414.48494509997545,414.7854464999982,414.7854464999982,None,415.28690720000304,None,k,1,0.6961758999968879,415.28690720000304,None,None,None,416.00384089996805,None,,,,,,,,,,,,,,,,,,,,,11031,2,1,2024_Jun_02_1059,stroop_task_switching2,2021.2.3,59.592979955667396,
condition/block_mixed,instruction/instr_mixed,instruction/i10,蓝,blue,f,square,color_mix,单词,,compatible,2,,,,,,,,0,2,2,2,0,0,0,0,0,37,37,37,,,,,,,,,,,,,,,,,,,,,,,,,,,,,,,,,,,417.00653299997794,417.2058184000198,417.19070139998803,417.48939679999603,417.48939679999603,None,417.9913579999702,None,f,1,1.1117555999662727,417.9913579999702,None,None,None,419.12534500000766,None,,,,,,,,,,,,,,,,,,,,,11031,2,1,2024_Jun_02_1059,stroop_task_switching2,2021.2.3,59.592979955667396,
condition/block_mixed,instruction/instr_mixed,instruction/i10,红,red,d,square,color_mix,单词,,compatible,1,,,,,,,,0,2,2,2,0,0,0,0,0,38,38,38,,,,,,,,,,,,,,,,,,,,,,,,,,,,,,,,,,,420.1269811000093,420.3269954000134,420.3102773000137,420.61088759999257,420.61088759999257,None,421.11149749998003,None,d,1,0.6796662000124343,421.11149749998003,None,None,None,421.8125591999851,None,,,,,,,,,,,,,,,,,,,,,11031,2,1,2024_Jun_02_1059,stroop_task_switching2,2021.2.3,59.592979955667396,
condition/block_mixed,instruction/instr_mixed,instruction/i10,黄,yellow,j,diamond,color_mix,颜色,,compatible,2,,,,,,,,0,2,2,2,0,0,0,0,0,39,39,39,,,,,,,,,,,,,,,,,,,,,,,,,,,,,,,,,,,422.81411350000417,423.01428130001295,422.99856009997893,423.29988309997134,423.29988309997134,None,423.7990700000082,None,j,1,0.7291349000297487,423.7990700000082,None,None,None,424.5507308000233,None,,,,,,,,,,,,,,,,,,,,,11031,2,1,2024_Jun_02_1059,stroop_task_switching2,2021.2.3,59.592979955667396,
condition/block_mixed,instruction/instr_mixed,instruction/i10,黄,yellow,j,square,color_mix,单词,,compatible,2,,,,,,,,0,2,2,2,0,0,0,0,0,40,40,40,,,,,,,,,,,,,,,,,,,,,,,,,,,,,,,,,,,425.551709100022,425.7539749999996,425.7361659000162,426.03573020000476,426.03573020000476,None,426.5368280999828,None,j,1,0.5354959000251256,426.5368280999828,None,None,None,427.0873126999941,None,,,,,,,,,,,,,,,,,,,,,11031,2,1,2024_Jun_02_1059,stroop_task_switching2,2021.2.3,59.592979955667396,
condition/block_mixed,instruction/instr_mixed,instruction/i10,蓝,blue,f,square,color_mix,单词,,compatible,1,,,,,,,,0,2,2,2,0,0,0,0,0,41,41,41,,,,,,,,,,,,,,,,,,,,,,,,,,,,,,,,,,,428.0893617999973,428.2899261999992,428.2732527999906,428.5737706000218,428.5737706000218,None,429.0737591999932,None,f,1,0.9894719999865629,429.0737591999932,None,None,None,430.09177910001017,None,,,,,,,,,,,,,,,,,,,,,11031,2,1,2024_Jun_02_1059,stroop_task_switching2,2021.2.3,59.592979955667396,
condition/block_mixed,instruction/instr_mixed,instruction/i10,蓝,blue,f,diamond,color_mix,颜色,,compatible,2,,,,,,,,0,2,2,2,0,0,0,0,0,42,42,42,,,,,,,,,,,,,,,,,,,,,,,,,,,,,,,,,,,431.0931823999854,431.2953746999847,431.2769173000124,431.5780610999791,431.5780610999791,None,432.07809769996675,None,f,1,0.5934996000141837,432.07809769996675,None,None,None,432.69575319997966,None,,,,,,,,,,,,,,,,,,,,,11031,2,1,2024_Jun_02_1059,stroop_task_switching2,2021.2.3,59.592979955667396,
condition/block_mixed,instruction/instr_mixed,instruction/i10,黄,yellow,j,diamond,color_mix,颜色,,compatible,1,,,,,,,,0,2,2,2,0,0,0,0,0,43,43,43,,,,,,,,,,,,,,,,,,,,,,,,,,,,,,,,,,,433.6971833999851,433.8973864999716,433.8810078999959,434.18138750002254,434.18138750002254,None,434.6821364000207,None,j,1,0.7340674999868497,434.6821364000207,None,None,None,435.4332517000148,None,,,,,,,,,,,,,,,,,,,,,11031,2,1,2024_Jun_02_1059,stroop_task_switching2,2021.2.3,59.592979955667396,
condition/block_mixed,instruction/instr_mixed,instruction/i10,红,red,d,diamond,color_mix,颜色,,compatible,1,,,,,,,,0,2,2,2,0,0,0,0,0,44,44,44,,,,,,,,,,,,,,,,,,,,,,,,,,,,,,,,,,,436.43558119999943,436.63672329997644,436.61860909999814,436.91972720000194,436.91972720000194,None,437.4195667000022,None,d,1,0.6765043999766931,437.4195667000022,None,None,None,438.1206771999714,None,,,,,,,,,,,,,,,,,,,,,11031,2,1,2024_Jun_02_1059,stroop_task_switching2,2021.2.3,59.592979955667396,
condition/block_mixed,instruction/instr_mixed,instruction/i10,蓝,blue,f,diamond,color_mix,颜色,,compatible,1,,,,,,,,0,2,2,2,0,0,0,0,0,45,45,45,,,,,,,,,,,,,,,,,,,,,,,,,,,,,,,,,,,439.12294630002,439.32276369998,439.3058939999901,439.60615579999285,439.60615579999285,None,440.10686940001324,None,f,1,0.6609552000300027,440.10686940001324,None,None,None,440.7912236999837,None,,,,,,,,,,,,,,,,,,,,,11031,2,1,2024_Jun_02_1059,stroop_task_switching2,2021.2.3,59.592979955667396,
condition/block_mixed,instruction/instr_mixed,instruction/i10,红,red,d,diamond,color_mix,颜色,,compatible,1,,,,,,,,0,2,2,2,0,0,0,0,0,46,46,46,,,,,,,,,,,,,,,,,,,,,,,,,,,,,,,,,,,441.7932737999945,441.9938716000179,441.97808909998275,442.27700309996726,442.27700309996726,None,442.77757620002376,None,d,1,0.6233843000372872,442.77757620002376,None,None,None,443.42860410001595,None,,,,,,,,,,,,,,,,,,,,,11031,2,1,2024_Jun_02_1059,stroop_task_switching2,2021.2.3,59.592979955667396,
condition/block_mixed,instruction/instr_mixed,instruction/i10,红,red,d,square,color_mix,单词,,compatible,2,,,,,,,,0,2,2,2,0,0,0,0,0,47,47,47,,,,,,,,,,,,,,,,,,,,,,,,,,,,,,,,,,,444.430133100017,444.6317126000067,444.6137616999913,444.91577770002186,444.91577770002186,None,445.41490839998005,None,f,0,0.553006500005722,445.41490839998005,None,None,None,446.0003928000224,None,,,,,,,,,,,,,,,,,,,,,11031,2,1,2024_Jun_02_1059,stroop_task_switching2,2021.2.3,59.592979955667396,
condition/block_mixed,instruction/instr_mixed,instruction/i10,红,red,d,diamond,color_mix,颜色,,compatible,2,,,,,,,,0,2,2,2,0,0,0,0,0,48,48,48,,,,,,,,,,,,,,,,,,,,,,,,,,,,,,,,,,,447.0011340000201,447.20096679998096,447.1845390999806,447.4853779000114,447.4853779000114,None,447.9855946999742,None,d,1,0.6146892000106163,447.9855946999742,None,None,None,448.6196756999707,None,,,,,,,,,,,,,,,,,,,,,11031,2,1,2024_Jun_02_1059,stroop_task_switching2,2021.2.3,59.592979955667396,
condition/block_mixed,instruction/instr_mixed,instruction/i10,,,,,,,,,,,,,,,,,0,2,2,2,0,0,0,0,,,,,,,,,,,,,,,,,,,,,,,,,,,,,,,,,,,,,,,,,,,,,,,,,,,,,,,,449.62112979998346,None,space,43.9806896999944,449.62112979998346,None,,,,,,,,,,,,,,,11031,2,1,2024_Jun_02_1059,stroop_task_switching2,2021.2.3,59.592979955667396,
condition/block_mixed,instruction/instr_mixed,instruction/i10,,,,,,,,,,,,,,,,,0,2,2,2,,,,,,,,,,,,,,,,,,,,,,,,,,,,,,,,,,,,,,,,,,,,,,,,,,,,,,,,,,,,,,,,,,,,,,,,,,,,,,,,11031,2,1,2024_Jun_02_1059,stroop_task_switching2,2021.2.3,59.592979955667396,
,,,红,red,d,square,color_mix,单词,,compatible,0,block_switch1,instruction/ready_test.png,instruction/i11.png,,,,,,,,,,,,,,,,,0,0,0,0,0,0,0,0,,,,,,,,,,,,,,,,,,,498.111559699988,499.1127058999846,499.1127058999846,500.11390850000316,500.11390850000316,None,497.1259923999896,498.12795190000907,501.15044379996834,501.36661690002074,501.3325784999761,501.63305269996636,501.63305269996636,None,502.1338708999683,None,d,1,0.48389360000146553,502.1338708999683,None,None,None,,,,,,,,,493.6549608000205,None,space,3.44303540000692,493.6549608000205,None,,,,,,,,,11031,2,1,2024_Jun_02_1059,stroop_task_switching2,2021.2.3,59.592979955667396,
,,,绿,green,k,diamond,color_mix,颜色,,compatible,2,block_switch1,instruction/ready_test.png,instruction/i11.png,,,,,,,,,,,,,,,,,0,0,0,0,0,1,1,1,,,,,,,,,,,,,,,,,,,,,,,,,,,502.6342657000059,502.83591299998807,502.818185799988,503.1186416000128,503.1186416000128,None,503.61934570001904,None,k,1,0.7502602000022307,503.61934570001904,None,None,None,,,,,,,,,,,,,,,,,,,,,,,11031,2,1,2024_Jun_02_1059,stroop_task_switching2,2021.2.3,59.592979955667396,
,,,绿,yellow,j,diamond,color_mix,颜色,,incompatible,1,block_switch1,instruction/ready_test.png,instruction/i11.png,,,,,,,,,,,,,,,,,0,0,0,0,0,2,2,2,,,,,,,,,,,,,,,,,,,,,,,,,,,504.38719029998174,504.58744630002184,504.5715553999762,504.8712152999942,504.8712152999942,None,505.3728659999906,None,j,1,1.7969385999604128,505.3728659999906,None,None,None,,,,,,,,,,,,,,,,,,,,,,,11031,2,1,2024_Jun_02_1059,stroop_task_switching2,2021.2.3,59.592979955667396,
,,,蓝,blue,f,diamond,color_mix,颜色,,compatible,1,block_switch1,instruction/ready_test.png,instruction/i11.png,,,,,,,,,,,,,,,,,0,0,0,0,0,3,3,3,,,,,,,,,,,,,,,,,,,,,,,,,,,507.19136840000283,507.3934860000154,507.3749308999977,507.67628919996787,507.67628919996787,None,508.17630679998547,None,f,1,0.8895509999711066,508.17630679998547,None,None,None,,,,,,,,,,,,,,,,,,,,,,,11031,2,1,2024_Jun_02_1059,stroop_task_switching2,2021.2.3,59.592979955667396,
,,,绿,green,k,square,color_mix,单词,,compatible,2,block_switch1,instruction/ready_test.png,instruction/i11.png,,,,,,,,,,,,,,,,,0,0,0,0,0,4,4,4,,,,,,,,,,,,,,,,,,,,,,,,,,,509.0942586999736,509.2949019999942,509.2783367999946,509.5791514000157,509.5791514000157,None,510.0789905000129,None,k,1,0.6514909000252374,510.0789905000129,None,None,None,,,,,,,,,,,,,,,,,,,,,,,11031,2,1,2024_Jun_02_1059,stroop_task_switching2,2021.2.3,59.592979955667396,
,,,绿,blue,f,diamond,color_mix,颜色,,incompatible,2,block_switch1,instruction/ready_test.png,instruction/i11.png,,,,,,,,,,,,,,,,,0,0,0,0,0,5,5,5,,,,,,,,,,,,,,,,,,,,,,,,,,,510.74680039996747,510.9477022999781,510.93149330001324,511.23152219998883,511.23152219998883,None,511.7323515000171,None,k,0,0.7411894000251777,511.7323515000171,None,None,None,,,,,,,,,,,,,,,,,,,,,,,11031,2,1,2024_Jun_02_1059,stroop_task_switching2,2021.2.3,59.592979955667396,
,,,黄,red,j,square,color_mix,单词,,incompatible,2,block_switch1,instruction/ready_test.png,instruction/i11.png,,,,,,,,,,,,,,,,,0,0,0,0,0,6,6,6,,,,,,,,,,,,,,,,,,,,,,,,,,,512.4993888000026,512.700303199992,512.6848343000165,513.000091199996,512.9852955999668,None,513.4852049999754,None,d,0,2.964826899988111,513.4852049999754,None,516.4721628000145,None,,,,,,,,,,,,,,,,,,,,,,,11031,2,1,2024_Jun_02_1059,stroop_task_switching2,2021.2.3,59.592979955667396,
,,,绿,green,k,square,color_mix,单词,,compatible,1,block_switch1,instruction/ready_test.png,instruction/i11.png,,,,,,,,,,,,,,,,,0,0,0,0,0,7,7,7,,,,,,,,,,,,,,,,,,,,,,,,,,,516.47208029998,516.6731618000194,516.6575675000204,516.9565419999999,516.9565419999999,None,517.4568797000102,None,k,1,0.9851864000083879,517.4568797000102,None,None,None,,,,,,,,,,,,,,,,,,,,,,,11031,2,1,2024_Jun_02_1059,stroop_task_switching2,2021.2.3,59.592979955667396,
,,,蓝,blue,f,square,color_mix,单词,,compatible,1,block_switch1,instruction/ready_test.png,instruction/i11.png,,,,,,,,,,,,,,,,,0,0,0,0,0,8,8,8,,,,,,,,,,,,,,,,,,,,,,,,,,,518.4581745999749,518.658730599971,518.6438193999929,518.9590985999675,518.944471099996,None,519.4433976999717,None,f,1,1.590950099984184,519.4433976999717,None,None,None,,,,,,,,,,,,,,,,,,,,,,,11031,2,1,2024_Jun_02_1059,stroop_task_switching2,2021.2.3,59.592979955667396,
,,,红,red,d,diamond,color_mix,颜色,,compatible,2,block_switch1,instruction/ready_test.png,instruction/i11.png,,,,,,,,,,,,,,,,,0,0,0,0,0,9,9,9,,,,,,,,,,,,,,,,,,,,,,,,,,,521.0621605999768,521.2644713000045,521.2461423000204,521.5477473000064,521.5477473000064,None,522.0485548999859,None,d,1,0.5854576000128873,522.0485548999859,None,None,None,,,,,,,,,,,,,,,,,,,,,,,11031,2,1,2024_Jun_02_1059,stroop_task_switching2,2021.2.3,59.592979955667396,
,,,黄,yellow,j,diamond,color_mix,颜色,,compatible,1,block_switch1,instruction/ready_test.png,instruction/i11.png,,,,,,,,,,,,,,,,,0,0,0,0,0,10,10,10,,,,,,,,,,,,,,,,,,,,,,,,,,,522.6648186999955,522.8669757000171,522.848707099969,523.1486727999873,523.1486727999873,None,523.6495391000062,None,j,1,2.6170298000215553,523.6495391000062,None,None,None,,,,,,,,,,,,,,,,,,,,,,,11031,2,1,2024_Jun_02_1059,stroop_task_switching2,2021.2.3,59.592979955667396,
,,,绿,green,k,square,color_mix,单词,,compatible,2,block_switch1,instruction/ready_test.png,instruction/i11.png,,,,,,,,,,,,,,,,,0,0,0,0,0,11,11,11,,,,,,,,,,,,,,,,,,,,,,,,,,,526.2869987000013,526.4880399999674,526.4711601000163,526.7717743999674,526.7717743999674,None,527.2719292999827,None,k,1,1.2343737999908626,527.2719292999827,None,None,None,,,,,,,,,,,,,,,,,,,,,,,11031,2,1,2024_Jun_02_1059,stroop_task_switching2,2021.2.3,59.592979955667396,
,,,红,red,d,diamond,color_mix,颜色,,compatible,2,block_switch1,instruction/ready_test.png,instruction/i11.png,,,,,,,,,,,,,,,,,0,0,0,0,0,12,12,12,,,,,,,,,,,,,,,,,,,,,,,,,,,528.5235367999994,528.7251230999827,528.7082489000168,529.0088862999692,529.0088862999692,None,529.5087023999658,None,d,1,1.2058939000125974,529.5087023999658,None,None,None,,,,,,,,,,,,,,,,,,,,,,,11031,2,1,2024_Jun_02_1059,stroop_task_switching2,2021.2.3,59.592979955667396,
,,,红,red,d,diamond,color_mix,颜色,,compatible,1,block_switch1,instruction/ready_test.png,instruction/i11.png,,,,,,,,,,,,,,,,,0,0,0,0,0,13,13,13,,,,,,,,,,,,,,,,,,,,,,,,,,,530.743697399972,530.9453100999817,530.9272712999955,531.2284734999994,531.2284734999994,None,531.7287983999704,None,d,1,0.641561999975238,531.7287983999704,None,None,None,,,,,,,,,,,,,,,,,,,,,,,11031,2,1,2024_Jun_02_1059,stroop_task_switching2,2021.2.3,59.592979955667396,
,,,黄,yellow,j,square,color_mix,单词,,compatible,2,block_switch1,instruction/ready_test.png,instruction/i11.png,,,,,,,,,,,,,,,,,0,0,0,0,0,14,14,14,,,,,,,,,,,,,,,,,,,,,,,,,,,532.3959467000095,532.5969209999894,532.5797317000106,532.8806375999702,532.8806375999702,None,533.3817056000116,None,j,1,1.348551300005056,533.3817056000116,None,None,None,,,,,,,,,,,,,,,,,,,,,,,11031,2,1,2024_Jun_02_1059,stroop_task_switching2,2021.2.3,59.592979955667396,
,,,红,green,k,diamond,color_mix,颜色,,incompatible,2,block_switch1,instruction/ready_test.png,instruction/i11.png,,,,,,,,,,,,,,,,,0,0,0,0,0,15,15,15,,,,,,,,,,,,,,,,,,,,,,,,,,,534.7496588000213,534.9510021000169,534.9332757000229,535.2347289000172,535.2347289000172,None,535.7352528999909,None,k,1,1.955285299976822,535.7352528999909,None,None,None,,,,,,,,,,,,,,,,,,,,,,,11031,2,1,2024_Jun_02_1059,stroop_task_switching2,2021.2.3,59.592979955667396,
,,,蓝,red,d,diamond,color_mix,颜色,,incompatible,1,block_switch1,instruction/ready_test.png,instruction/i11.png,,,,,,,,,,,,,,,,,0,0,0,0,0,16,16,16,,,,,,,,,,,,,,,,,,,,,,,,,,,537.7205985999899,537.9228729999741,537.9045336999698,538.2063575999928,538.2063575999928,None,538.7056673999759,None,d,1,1.2729472999926656,538.7056673999759,None,None,None,,,,,,,,,,,,,,,,,,,,,,,11031,2,1,2024_Jun_02_1059,stroop_task_switching2,2021.2.3,59.592979955667396,
,,,黄,green,k,diamond,color_mix,颜色,,incompatible,1,block_switch1,instruction/ready_test.png,instruction/i11.png,,,,,,,,,,,,,,,,,0,0,0,0,0,17,17,17,,,,,,,,,,,,,,,,,,,,,,,,,,,540.0074326000176,540.208272000018,540.1919318999862,540.4924790000077,540.4924790000077,None,540.9933276000083,None,j,0,1.5217873000074178,540.9933276000083,None,None,None,,,,,,,,,,,,,,,,,,,,,,,11031,2,1,2024_Jun_02_1059,stroop_task_switching2,2021.2.3,59.592979955667396,
,,,绿,green,k,diamond,color_mix,颜色,,compatible,1,block_switch1,instruction/ready_test.png,instruction/i11.png,,,,,,,,,,,,,,,,,0,0,0,0,0,18,18,18,,,,,,,,,,,,,,,,,,,,,,,,,,,542.5452235999983,542.7457961000036,542.7292276999797,543.028777999978,543.028777999978,None,543.5304460999905,None,k,1,0.7761276999954134,543.5304460999905,None,None,None,,,,,,,,,,,,,,,,,,,,,,,11031,2,1,2024_Jun_02_1059,stroop_task_switching2,2021.2.3,59.592979955667396,
,,,黄,red,d,diamond,color_mix,颜色,,incompatible,1,block_switch1,instruction/ready_test.png,instruction/i11.png,,,,,,,,,,,,,,,,,0,0,0,0,0,19,19,19,,,,,,,,,,,,,,,,,,,,,,,,,,,544.3308133999817,544.5309403999709,544.5142217999673,544.8156193000032,544.8156193000032,None,545.3155913000228,None,d,1,1.7990650999709032,545.3155913000228,None,None,None,,,,,,,,,,,,,,,,,,,,,,,11031,2,1,2024_Jun_02_1059,stroop_task_switching2,2021.2.3,59.592979955667396,
,,,绿,yellow,k,square,color_mix,单词,,incompatible,2,block_switch1,instruction/ready_test.png,instruction/i11.png,,,,,,,,,,,,,,,,,0,0,0,0,0,20,20,20,,,,,,,,,,,,,,,,,,,,,,,,,,,547.1349614000064,547.3353279000148,547.3185961999698,547.6216341999825,547.6216341999825,None,548.1197052000207,None,k,1,0.8270272999652661,548.1197052000207,None,None,None,,,,,,,,,,,,,,,,,,,,,,,11031,2,1,2024_Jun_02_1059,stroop_task_switching2,2021.2.3,59.592979955667396,
,,,绿,yellow,j,diamond,color_mix,颜色,,incompatible,2,block_switch1,instruction/ready_test.png,instruction/i11.png,,,,,,,,,,,,,,,,,0,0,0,0,0,21,21,21,,,,,,,,,,,,,,,,,,,,,,,,,,,548.9711637999862,549.1720922999666,549.154688199982,549.4572131999885,549.4572131999885,None,549.9731285999878,None,j,1,1.7576719999779016,549.9731285999878,None,None,None,,,,,,,,,,,,,,,,,,,,,,,11031,2,1,2024_Jun_02_1059,stroop_task_switching2,2021.2.3,59.592979955667396,
,,,绿,green,k,square,color_mix,单词,,compatible,2,block_switch1,instruction/ready_test.png,instruction/i11.png,,,,,,,,,,,,,,,,,0,0,0,0,0,22,22,22,,,,,,,,,,,,,,,,,,,,,,,,,,,551.7585751999868,551.9588790999842,551.9426091000205,552.2435015999945,552.2435015999945,None,552.7447051000199,None,k,1,0.8741910000098869,552.7447051000199,None,None,None,,,,,,,,,,,,,,,,,,,,,,,11031,2,1,2024_Jun_02_1059,stroop_task_switching2,2021.2.3,59.592979955667396,
,,,红,red,d,square,color_mix,单词,,compatible,1,block_switch1,instruction/ready_test.png,instruction/i11.png,,,,,,,,,,,,,,,,,0,0,0,0,0,23,23,23,,,,,,,,,,,,,,,,,,,,,,,,,,,553.6449250999722,553.8450894000125,553.8293296999764,554.1289572999813,554.1289572999813,None,554.6303376000142,None,d,1,1.004401800048072,554.6303376000142,None,None,None,,,,,,,,,,,,,,,,,,,,,,,11031,2,1,2024_Jun_02_1059,stroop_task_switching2,2021.2.3,59.592979955667396,
,,,黄,green,j,square,color_mix,单词,,incompatible,1,block_switch1,instruction/ready_test.png,instruction/i11.png,,,,,,,,,,,,,,,,,0,0,0,0,0,24,24,24,,,,,,,,,,,,,,,,,,,,,,,,,,,555.6641871000174,555.8648724000086,555.848135999986,556.1497074000072,556.1497074000072,None,556.6503501000116,None,j,1,1.104692500026431,556.6503501000116,None,None,None,,,,,,,,,,,,,,,,,,,,,,,11031,2,1,2024_Jun_02_1059,stroop_task_switching2,2021.2.3,59.592979955667396,
,,,红,blue,d,square,color_mix,单词,,incompatible,1,block_switch1,instruction/ready_test.png,instruction/i11.png,,,,,,,,,,,,,,,,,0,0,0,0,0,25,25,25,,,,,,,,,,,,,,,,,,,,,,,,,,,557.7846524000051,557.9852196999709,557.9680906999856,558.2685270999791,558.2685270999791,None,558.7690863999887,None,d,1,1.1778850000118837,558.7690863999887,None,None,None,,,,,,,,,,,,,,,,,,,,,,,11031,2,1,2024_Jun_02_1059,stroop_task_switching2,2021.2.3,59.592979955667396,
,,,黄,yellow,j,square,color_mix,单词,,compatible,1,block_switch1,instruction/ready_test.png,instruction/i11.png,,,,,,,,,,,,,,,,,0,0,0,0,0,26,26,26,,,,,,,,,,,,,,,,,,,,,,,,,,,559.9709651999874,560.1719367000042,560.1553904999746,560.4556204999681,560.4556204999681,None,560.9557822999777,None,j,1,0.7913356000208296,560.9557822999777,None,None,None,,,,,,,,,,,,,,,,,,,,,,,11031,2,1,2024_Jun_02_1059,stroop_task_switching2,2021.2.3,59.592979955667396,
,,,蓝,green,f,square,color_mix,单词,,incompatible,1,block_switch1,instruction/ready_test.png,instruction/i11.png,,,,,,,,,,,,,,,,,0,0,0,0,0,27,27,27,,,,,,,,,,,,,,,,,,,,,,,,,,,561.7736856999691,561.9742060999852,561.9572426999803,562.258745900006,562.258745900006,None,562.7587551000179,None,f,1,1.180853300029412,562.7587551000179,None,None,None,,,,,,,,,,,,,,,,,,,,,,,11031,2,1,2024_Jun_02_1059,stroop_task_switching2,2021.2.3,59.592979955667396,
,,,绿,green,k,diamond,color_mix,颜色,,compatible,2,block_switch1,instruction/ready_test.png,instruction/i11.png,,,,,,,,,,,,,,,,,0,0,0,0,0,28,28,28,,,,,,,,,,,,,,,,,,,,,,,,,,,563.9601769999717,564.1605960999732,564.143907300022,564.4446200999664,564.4446200999664,None,564.945269000018,None,k,1,0.7782920000026934,564.945269000018,None,None,None,,,,,,,,,,,,,,,,,,,,,,,11031,2,1,2024_Jun_02_1059,stroop_task_switching2,2021.2.3,59.592979955667396,
,,,黄,blue,f,diamond,color_mix,颜色,,incompatible,1,block_switch1,instruction/ready_test.png,instruction/i11.png,,,,,,,,,,,,,,,,,0,0,0,0,0,29,29,29,,,,,,,,,,,,,,,,,,,,,,,,,,,565.746407300001,565.9477788999793,565.9305353999953,566.231544499984,566.231544499984,None,566.7314331000089,None,f,1,1.8400734000024386,566.7314331000089,None,None,None,,,,,,,,,,,,,,,,,,,,,,,11031,2,1,2024_Jun_02_1059,stroop_task_switching2,2021.2.3,59.592979955667396,
,,,绿,green,k,diamond,color_mix,颜色,,compatible,1,block_switch1,instruction/ready_test.png,instruction/i11.png,,,,,,,,,,,,,,,,,0,0,0,0,0,30,30,30,,,,,,,,,,,,,,,,,,,,,,,,,,,568.600983100012,568.8009245999856,568.784771799983,569.0849545000237,569.0849545000237,None,569.5855220999802,None,k,1,1.6896564000053331,569.5855220999802,None,None,None,,,,,,,,,,,,,,,,,,,,,,,11031,2,1,2024_Jun_02_1059,stroop_task_switching2,2021.2.3,59.592979955667396,
,,,蓝,blue,f,square,color_mix,单词,,compatible,2,block_switch1,instruction/ready_test.png,instruction/i11.png,,,,,,,,,,,,,,,,,0,0,0,0,0,31,31,31,,,,,,,,,,,,,,,,,,,,,,,,,,,571.3047427000129,571.5058218999766,571.4894690000219,571.790968700021,571.790968700021,None,572.2895626999671,None,f,1,1.8497157000238076,572.2895626999671,None,None,None,,,,,,,,,,,,,,,,,,,,,,,11031,2,1,2024_Jun_02_1059,stroop_task_switching2,2021.2.3,59.592979955667396,
,,,红,red,d,square,color_mix,单词,,compatible,1,block_switch1,instruction/ready_test.png,instruction/i11.png,,,,,,,,,,,,,,,,,0,0,0,0,0,32,32,32,,,,,,,,,,,,,,,,,,,,,,,,,,,574.1588904000237,574.3596328999847,574.3425862999866,574.6442309999838,574.6442309999838,None,575.1437776999664,None,d,1,0.7320132000022568,575.1437776999664,None,None,None,,,,,,,,,,,,,,,,,,,,,,,11031,2,1,2024_Jun_02_1059,stroop_task_switching2,2021.2.3,59.592979955667396,
,,,红,green,d,square,color_mix,单词,,incompatible,1,block_switch1,instruction/ready_test.png,instruction/i11.png,,,,,,,,,,,,,,,,,0,0,0,0,0,33,33,33,,,,,,,,,,,,,,,,,,,,,,,,,,,575.8949604000081,576.0953441999736,576.079231199983,576.3791913000168,576.3791913000168,None,576.8798604999902,None,d,1,1.1482435000361875,576.8798604999902,None,None,None,,,,,,,,,,,,,,,,,,,,,,,11031,2,1,2024_Jun_02_1059,stroop_task_switching2,2021.2.3,59.592979955667396,
,,,黄,yellow,j,diamond,color_mix,颜色,,compatible,2,block_switch1,instruction/ready_test.png,instruction/i11.png,,,,,,,,,,,,,,,,,0,0,0,0,0,34,34,34,,,,,,,,,,,,,,,,,,,,,,,,,,,578.0482006999664,578.249192200019,578.231892700016,578.5333873999771,578.5333873999771,None,579.0331292999908,None,j,1,1.8509012999711558,579.0331292999908,None,None,None,,,,,,,,,,,,,,,,,,,,,,,11031,2,1,2024_Jun_02_1059,stroop_task_switching2,2021.2.3,59.592979955667396,
,,,红,green,k,diamond,color_mix,颜色,,incompatible,1,block_switch1,instruction/ready_test.png,instruction/i11.png,,,,,,,,,,,,,,,,,0,0,0,0,0,35,35,35,,,,,,,,,,,,,,,,,,,,,,,,,,,580.9025660000043,581.1027708000038,581.0863377000205,581.3875234000152,581.3875234000152,None,581.8873787000193,None,k,1,1.236647300014738,581.8873787000193,None,None,None,,,,,,,,,,,,,,,,,,,,,,,11031,2,1,2024_Jun_02_1059,stroop_task_switching2,2021.2.3,59.592979955667396,
,,,黄,yellow,j,square,color_mix,单词,,compatible,2,block_switch1,instruction/ready_test.png,instruction/i11.png,,,,,,,,,,,,,,,,,0,0,0,0,0,36,36,36,,,,,,,,,,,,,,,,,,,,,,,,,,,583.139225699997,583.3405914999894,583.3227935999748,583.6235667999717,583.6235667999717,None,584.124699899985,None,j,1,1.935041899967473,584.124699899985,None,None,None,,,,,,,,,,,,,,,,,,,,,,,11031,2,1,2024_Jun_02_1059,stroop_task_switching2,2021.2.3,59.592979955667396,
,,,蓝,blue,f,square,color_mix,单词,,compatible,1,block_switch1,instruction/ready_test.png,instruction/i11.png,,,,,,,,,,,,,,,,,0,0,0,0,0,37,37,37,,,,,,,,,,,,,,,,,,,,,,,,,,,586.0768842999823,586.2772832000046,586.2620521999779,586.5625542000053,586.5625542000053,None,587.0624216999859,None,f,1,1.1177517999894917,587.0624216999859,None,None,None,,,,,,,,,,,,,,,,,,,,,,,11031,2,1,2024_Jun_02_1059,stroop_task_switching2,2021.2.3,59.592979955667396,
,,,绿,red,d,diamond,color_mix,颜色,,incompatible,2,block_switch1,instruction/ready_test.png,instruction/i11.png,,,,,,,,,,,,,,,,,0,0,0,0,0,38,38,38,,,,,,,,,,,,,,,,,,,,,,,,,,,588.1967859999859,588.3972915000049,588.3812169000157,588.6829927000217,588.6829927000217,None,589.1830539000221,None,d,1,0.8765618000179529,589.1830539000221,None,None,None,,,,,,,,,,,,,,,,,,,,,,,11031,2,1,2024_Jun_02_1059,stroop_task_switching2,2021.2.3,59.592979955667396,
,,,黄,yellow,j,diamond,color_mix,颜色,,compatible,1,block_switch1,instruction/ready_test.png,instruction/i11.png,,,,,,,,,,,,,,,,,0,0,0,0,0,39,39,39,,,,,,,,,,,,,,,,,,,,,,,,,,,590.0829546999885,590.2839527999749,590.2666688999743,590.5677331999759,590.5677331999759,None,591.0678714999813,None,j,1,2.3525801000068896,591.0678714999813,None,None,None,,,,,,,,,,,,,,,,,,,,,,,11031,2,1,2024_Jun_02_1059,stroop_task_switching2,2021.2.3,59.592979955667396,
,,,红,blue,f,diamond,color_mix,颜色,,incompatible,1,block_switch1,instruction/ready_test.png,instruction/i11.png,,,,,,,,,,,,,,,,,0,0,0,0,0,40,40,40,,,,,,,,,,,,,,,,,,,,,,,,,,,593.4393278000061,593.6392428000108,593.6223911999841,593.9228122999775,593.9228122999775,None,594.4227706000092,None,f,1,2.0536971000256017,594.4227706000092,None,None,None,,,,,,,,,,,,,,,,,,,,,,,11031,2,1,2024_Jun_02_1059,stroop_task_switching2,2021.2.3,59.592979955667396,
,,,绿,blue,k,square,color_mix,单词,,incompatible,2,block_switch1,instruction/ready_test.png,instruction/i11.png,,,,,,,,,,,,,,,,,0,0,0,0,0,41,41,41,,,,,,,,,,,,,,,,,,,,,,,,,,,596.4928569999756,596.6941236999701,596.6762865000055,596.9769787999685,596.9769787999685,None,597.4777993999887,None,k,1,1.8540805999655277,597.4777993999887,None,None,None,,,,,,,,,,,,,,,,,,,,,,,11031,2,1,2024_Jun_02_1059,stroop_task_switching2,2021.2.3,59.592979955667396,
,,,蓝,blue,f,diamond,color_mix,颜色,,compatible,2,block_switch1,instruction/ready_test.png,instruction/i11.png,,,,,,,,,,,,,,,,,0,0,0,0,0,42,42,42,,,,,,,,,,,,,,,,,,,,,,,,,,,599.3473866999848,599.5477276999736,599.5312651999993,599.8309707000153,599.8309707000153,None,600.3324879999855,None,f,1,1.895832900016103,600.3324879999855,None,None,None,,,,,,,,,,,,,,,,,,,,,,,11031,2,1,2024_Jun_02_1059,stroop_task_switching2,2021.2.3,59.592979955667396,
,,,红,blue,d,square,color_mix,单词,,incompatible,2,block_switch1,instruction/ready_test.png,instruction/i11.png,,,,,,,,,,,,,,,,,0,0,0,0,0,43,43,43,,,,,,,,,,,,,,,,,,,,,,,,,,,602.2514718999737,602.45273119997,602.4368825000129,602.7519115000032,602.7363359999727,None,603.2362518999726,None,d,1,1.3679224000079557,603.2362518999726,None,None,None,,,,,,,,,,,,,,,,,,,,,,,11031,2,1,2024_Jun_02_1059,stroop_task_switching2,2021.2.3,59.592979955667396,
,,,蓝,green,k,diamond,color_mix,颜色,,incompatible,2,block_switch1,instruction/ready_test.png,instruction/i11.png,,,,,,,,,,,,,,,,,0,0,0,0,0,44,44,44,,,,,,,,,,,,,,,,,,,,,,,,,,,604.6214537000051,604.8237189999782,604.8049791000085,605.1058086999692,605.1058086999692,None,605.6072278000065,None,k,1,1.7010478000156581,605.6072278000065,None,None,None,,,,,,,,,,,,,,,,,,,,,,,11031,2,1,2024_Jun_02_1059,stroop_task_switching2,2021.2.3,59.592979955667396,
,,,黄,yellow,j,square,color_mix,单词,,compatible,2,block_switch1,instruction/ready_test.png,instruction/i11.png,,,,,,,,,,,,,,,,,0,0,0,0,0,45,45,45,,,,,,,,,,,,,,,,,,,,,,,,,,,607.3260261999676,607.5272464000154,607.509449300007,607.8110158999916,607.8110158999916,None,608.3105470999726,None,j,1,2.678448999999091,608.3105470999726,None,None,None,,,,,,,,,,,,,,,,,,,,,,,11031,2,1,2024_Jun_02_1059,stroop_task_switching2,2021.2.3,59.592979955667396,
,,,黄,yellow,j,diamond,color_mix,颜色,,compatible,2,block_switch1,instruction/ready_test.png,instruction/i11.png,,,,,,,,,,,,,,,,,0,0,0,0,0,46,46,46,,,,,,,,,,,,,,,,,,,,,,,,,,,611.0145222999854,611.2161238999688,611.2006036000093,611.4995723000029,611.4995723000029,None,611.9992194999941,None,j,1,1.3091029000352137,611.9992194999941,None,None,None,,,,,,,,,,,,,,,,,,,,,,,11031,2,1,2024_Jun_02_1059,stroop_task_switching2,2021.2.3,59.592979955667396,
,,,绿,red,k,square,color_mix,单词,,incompatible,2,block_switch1,instruction/ready_test.png,instruction/i11.png,,,,,,,,,,,,,,,,,0,0,0,0,0,47,47,47,,,,,,,,,,,,,,,,,,,,,,,,,,,613.3349968999973,613.5351175999967,613.5188724999898,613.8189715999761,613.8189715999761,None,614.3195636000019,None,d,0,2.5890564000001177,614.3195636000019,None,None,None,,,,,,,,,,,,,,,,,,,,,,,11031,2,1,2024_Jun_02_1059,stroop_task_switching2,2021.2.3,59.592979955667396,
,,,红,red,d,diamond,color_mix,颜色,,compatible,2,block_switch1,instruction/ready_test.png,instruction/i11.png,,,,,,,,,,,,,,,,,0,0,0,0,0,48,48,48,,,,,,,,,,,,,,,,,,,,,,,,,,,616.9236008999869,617.1237521999865,617.1074783999939,617.4081271999748,617.4081271999748,None,617.908295399975,620.9140016000019,None,0,,617.908295399975,620.9140016000019,620.8964368000161,None,,,,,,,,,,,,,,,,,,,,,,,11031,2,1,2024_Jun_02_1059,stroop_task_switching2,2021.2.3,59.592979955667396,
,,,蓝,blue,f,diamond,color_mix,颜色,,compatible,1,block_switch1,instruction/ready_test.png,instruction/i11.png,,,,,,,,,,,,,,,,,0,0,0,0,0,49,49,49,,,,,,,,,,,,,,,,,,,,,,,,,,,621.564326199994,621.7641799999983,621.7486231999937,622.0486981999711,622.0486981999711,None,622.548737199977,None,f,1,1.6643109999713488,622.548737199977,None,None,None,,,,,,,,,,,,,,,,,,,,,,,11031,2,1,2024_Jun_02_1059,stroop_task_switching2,2021.2.3,59.592979955667396,
,,,黄,yellow,j,diamond,color_mix,颜色,,compatible,1,block_switch1,instruction/ready_test.png,instruction/i11.png,,,,,,,,,,,,,,,,,0,0,0,0,0,50,50,50,,,,,,,,,,,,,,,,,,,,,,,,,,,624.2354218999972,624.4358948000008,624.4178538999986,624.7198787999805,624.7198787999805,None,625.2197742999997,None,j,1,1.4010020000278018,625.2197742999997,None,None,None,,,,,,,,,,,,,,,,,,,,,,,11031,2,1,2024_Jun_02_1059,stroop_task_switching2,2021.2.3,59.592979955667396,
,,,红,blue,f,diamond,color_mix,颜色,,incompatible,1,block_switch1,instruction/ready_test.png,instruction/i11.png,,,,,,,,,,,,,,,,,0,0,0,0,0,51,51,51,,,,,,,,,,,,,,,,,,,,,,,,,,,626.6385209999862,626.8383312000078,626.8217702999827,627.1244144000229,627.1244144000229,None,627.6396054999786,None,f,1,1.1975180999725126,627.6396054999786,None,None,None,,,,,,,,,,,,,,,,,,,,,,,11031,2,1,2024_Jun_02_1059,stroop_task_switching2,2021.2.3,59.592979955667396,
,,,蓝,yellow,j,diamond,color_mix,颜色,,incompatible,1,block_switch1,instruction/ready_test.png,instruction/i11.png,,,,,,,,,,,,,,,,,0,0,0,0,0,52,52,52,,,,,,,,,,,,,,,,,,,,,,,,,,,628.8583150000195,629.0593506000005,629.0433377000154,629.3430998999975,629.3430998999975,None,629.8436535000219,None,j,1,1.6336639000219293,629.8436535000219,None,None,None,,,,,,,,,,,,,,,,,,,,,,,11031,2,1,2024_Jun_02_1059,stroop_task_switching2,2021.2.3,59.592979955667396,
,,,黄,blue,j,square,color_mix,单词,,incompatible,2,block_switch1,instruction/ready_test.png,instruction/i11.png,,,,,,,,,,,,,,,,,0,0,0,0,0,53,53,53,,,,,,,,,,,,,,,,,,,,,,,,,,,631.4955060000066,631.6974939000211,631.6791746999952,631.981346399989,631.981346399989,None,632.481637799996,None,j,1,1.5638900000485592,632.481637799996,None,None,None,,,,,,,,,,,,,,,,,,,,,,,11031,2,1,2024_Jun_02_1059,stroop_task_switching2,2021.2.3,59.592979955667396,
,,,蓝,blue,f,diamond,color_mix,颜色,,compatible,2,block_switch1,instruction/ready_test.png,instruction/i11.png,,,,,,,,,,,,,,,,,0,0,0,0,0,54,54,54,,,,,,,,,,,,,,,,,,,,,,,,,,,634.0660523999832,634.2670840999926,634.2502390000154,634.5520729999989,634.5520729999989,None,635.0509033999988,None,f,1,1.1064208000316285,635.0509033999988,None,None,None,,,,,,,,,,,,,,,,,,,,,,,11031,2,1,2024_Jun_02_1059,stroop_task_switching2,2021.2.3,59.592979955667396,
,,,红,yellow,d,square,color_mix,单词,,incompatible,2,block_switch1,instruction/ready_test.png,instruction/i11.png,,,,,,,,,,,,,,,,,0,0,0,0,0,55,55,55,,,,,,,,,,,,,,,,,,,,,,,,,,,636.1859395999927,636.3870654000202,636.3694678000174,636.670791600016,636.670791600016,None,637.1707450000104,None,d,1,2.706195800041314,637.1707450000104,None,None,None,,,,,,,,,,,,,,,,,,,,,,,11031,2,1,2024_Jun_02_1059,stroop_task_switching2,2021.2.3,59.592979955667396,
,,,蓝,red,f,square,color_mix,单词,,incompatible,1,block_switch1,instruction/ready_test.png,instruction/i11.png,,,,,,,,,,,,,,,,,0,0,0,0,0,56,56,56,,,,,,,,,,,,,,,,,,,,,,,,,,,639.9081082000048,640.108502099989,640.0924609000213,640.3923175000236,640.3923175000236,None,640.8932139999815,None,d,0,1.127944000007119,640.8932139999815,None,None,None,,,,,,,,,,,,,,,,,,,,,,,11031,2,1,2024_Jun_02_1059,stroop_task_switching2,2021.2.3,59.592979955667396,
,,,蓝,blue,f,square,color_mix,单词,,compatible,1,block_switch1,instruction/ready_test.png,instruction/i11.png,,,,,,,,,,,,,,,,,0,0,0,0,0,57,57,57,,,,,,,,,,,,,,,,,,,,,,,,,,,642.0450096999994,642.2469223000226,642.2282549000229,642.5288473999826,642.5288473999826,None,643.0303537999862,None,f,1,1.551126900012605,643.0303537999862,None,None,None,,,,,,,,,,,,,,,,,,,,,,,11031,2,1,2024_Jun_02_1059,stroop_task_switching2,2021.2.3,59.592979955667396,
,,,蓝,red,d,diamond,color_mix,颜色,,incompatible,2,block_switch1,instruction/ready_test.png,instruction/i11.png,,,,,,,,,,,,,,,,,0,0,0,0,0,58,58,58,,,,,,,,,,,,,,,,,,,,,,,,,,,644.5984824000043,644.7987756999792,644.7842284999788,645.0836379000102,645.0836379000102,None,645.5834709000192,None,d,1,0.982160700019449,645.5834709000192,None,None,None,,,,,,,,,,,,,,,,,,,,,,,11031,2,1,2024_Jun_02_1059,stroop_task_switching2,2021.2.3,59.592979955667396,
,,,绿,green,k,diamond,color_mix,颜色,,compatible,1,block_switch1,instruction/ready_test.png,instruction/i11.png,,,,,,,,,,,,,,,,,0,0,0,0,0,59,59,59,,,,,,,,,,,,,,,,,,,,,,,,,,,646.5851390999742,646.7860105999862,646.7700365000055,647.0695894000237,647.0695894000237,None,647.5704367000144,None,k,1,0.8032182999886572,647.5704367000144,None,None,None,,,,,,,,,,,,,,,,,,,,,,,11031,2,1,2024_Jun_02_1059,stroop_task_switching2,2021.2.3,59.592979955667396,
,,,蓝,blue,f,diamond,color_mix,颜色,,compatible,1,block_switch1,instruction/ready_test.png,instruction/i11.png,,,,,,,,,,,,,,,,,0,0,0,0,0,60,60,60,,,,,,,,,,,,,,,,,,,,,,,,,,,648.3875808999874,648.5885306000127,648.5719750999706,648.8729080000194,648.8729080000194,None,649.3722861999995,None,f,1,2.2175066999625415,649.3722861999995,None,None,None,,,,,,,,,,,,,,,,,,,,,,,11031,2,1,2024_Jun_02_1059,stroop_task_switching2,2021.2.3,59.592979955667396,
,,,黄,yellow,j,square,color_mix,单词,,compatible,2,block_switch1,instruction/ready_test.png,instruction/i11.png,,,,,,,,,,,,,,,,,0,0,0,0,0,61,61,61,,,,,,,,,,,,,,,,,,,,,,,,,,,651.6094721999834,651.8107001999742,651.7942241000128,652.0947568999836,652.0947568999836,None,652.594549499976,None,j,1,1.6270611999789253,652.594549499976,None,None,None,,,,,,,,,,,,,,,,,,,,,,,11031,2,1,2024_Jun_02_1059,stroop_task_switching2,2021.2.3,59.592979955667396,
,,,绿,blue,k,square,color_mix,单词,,incompatible,1,block_switch1,instruction/ready_test.png,instruction/i11.png,,,,,,,,,,,,,,,,,0,0,0,0,0,62,62,62,,,,,,,,,,,,,,,,,,,,,,,,,,,654.2468086999725,654.4477248999756,654.4302655999782,654.7304953999701,654.7304953999701,None,655.2320621999679,None,k,1,0.9015583000145853,655.2320621999679,None,None,None,,,,,,,,,,,,,,,,,,,,,,,11031,2,1,2024_Jun_02_1059,stroop_task_switching2,2021.2.3,59.592979955667396,
,,,蓝,yellow,f,square,color_mix,单词,,incompatible,1,block_switch1,instruction/ready_test.png,instruction/i11.png,,,,,,,,,,,,,,,,,0,0,0,0,0,63,63,63,,,,,,,,,,,,,,,,,,,,,,,,,,,656.1492306999862,656.3497315999703,656.3337921000202,656.6337400000193,656.6337400000193,None,657.134157499997,None,f,1,1.2958787999814376,657.134157499997,None,None,None,,,,,,,,,,,,,,,,,,,,,,,11031,2,1,2024_Jun_02_1059,stroop_task_switching2,2021.2.3,59.592979955667396,
,,,黄,yellow,j,diamond,color_mix,颜色,,compatible,2,block_switch1,instruction/ready_test.png,instruction/i11.png,,,,,,,,,,,,,,,,,0,0,0,0,0,64,64,64,,,,,,,,,,,,,,,,,,,,,,,,,,,658.4528628999833,658.6544633000158,658.6363793999772,658.9368384999689,658.9368384999689,None,659.4379679000122,None,j,1,1.104143600037787,659.4379679000122,None,None,None,,,,,,,,,,,,,,,,,,,,,,,11031,2,1,2024_Jun_02_1059,stroop_task_switching2,2021.2.3,59.592979955667396,
,,,蓝,green,k,diamond,color_mix,颜色,,incompatible,1,block_switch1,instruction/ready_test.png,instruction/i11.png,,,,,,,,,,,,,,,,,0,0,0,0,0,65,65,65,,,,,,,,,,,,,,,,,,,,,,,,,,,660.5725240000174,660.7733002000023,660.7571160999942,661.0574936000048,661.0574936000048,None,661.5583718999987,None,k,1,1.407390399952419,661.5583718999987,None,None,None,,,,,,,,,,,,,,,,,,,,,,,11031,2,1,2024_Jun_02_1059,stroop_task_switching2,2021.2.3,59.592979955667396,
,,,红,red,d,diamond,color_mix,颜色,,compatible,1,block_switch1,instruction/ready_test.png,instruction/i11.png,,,,,,,,,,,,,,,,,0,0,0,0,0,66,66,66,,,,,,,,,,,,,,,,,,,,,,,,,,,662.9940714999684,663.1934060999774,663.1780591999996,663.4778541999985,663.4778541999985,None,663.9788712000009,None,d,1,0.68322960002115,663.9788712000009,None,None,None,,,,,,,,,,,,,,,,,,,,,,,11031,2,1,2024_Jun_02_1059,stroop_task_switching2,2021.2.3,59.592979955667396,
,,,蓝,yellow,f,square,color_mix,单词,,incompatible,2,block_switch1,instruction/ready_test.png,instruction/i11.png,,,,,,,,,,,,,,,,,0,0,0,0,0,67,67,67,,,,,,,,,,,,,,,,,,,,,,,,,,,664.6789534999989,664.8801225000061,664.8625586999697,665.1640507999691,665.1640507999691,None,665.6637377999723,None,f,1,0.8470631999662146,665.6637377999723,None,None,None,,,,,,,,,,,,,,,,,,,,,,,11031,2,1,2024_Jun_02_1059,stroop_task_switching2,2021.2.3,59.592979955667396,
,,,红,yellow,d,square,color_mix,单词,,incompatible,1,block_switch1,instruction/ready_test.png,instruction/i11.png,,,,,,,,,,,,,,,,,0,0,0,0,0,68,68,68,,,,,,,,,,,,,,,,,,,,,,,,,,,666.5313730000053,666.7329996000044,666.7158616000088,667.0168320999946,667.0168320999946,None,667.5172239000094,None,d,1,0.7287675000261515,667.5172239000094,None,None,None,,,,,,,,,,,,,,,,,,,,,,,11031,2,1,2024_Jun_02_1059,stroop_task_switching2,2021.2.3,59.592979955667396,
,,,红,yellow,j,diamond,color_mix,颜色,,incompatible,2,block_switch1,instruction/ready_test.png,instruction/i11.png,,,,,,,,,,,,,,,,,0,0,0,0,0,69,69,69,,,,,,,,,,,,,,,,,,,,,,,,,,,668.2674435999943,668.4691197000211,668.4519840999856,668.752155299997,668.752155299997,None,669.2524847000022,None,j,1,1.297796799975913,669.2524847000022,None,None,None,,,,,,,,,,,,,,,,,,,,,,,11031,2,1,2024_Jun_02_1059,stroop_task_switching2,2021.2.3,59.592979955667396,
,,,蓝,green,f,square,color_mix,单词,,incompatible,2,block_switch1,instruction/ready_test.png,instruction/i11.png,,,,,,,,,,,,,,,,,0,0,0,0,0,70,70,70,,,,,,,,,,,,,,,,,,,,,,,,,,,670.5712302000029,670.7719652000233,670.7554369000136,671.0560945000034,671.0560945000034,None,671.5557883000001,None,f,1,1.8509122999967076,671.5557883000001,None,None,None,,,,,,,,,,,,,,,,,,,,,,,11031,2,1,2024_Jun_02_1059,stroop_task_switching2,2021.2.3,59.592979955667396,
,,,绿,yellow,k,square,color_mix,单词,,incompatible,1,block_switch1,instruction/ready_test.png,instruction/i11.png,,,,,,,,,,,,,,,,,0,0,0,0,0,71,71,71,,,,,,,,,,,,,,,,,,,,,,,,,,,673.4253941000206,673.6276928000152,673.6090325000114,673.9096282999963,673.9096282999963,None,674.4101959000109,None,k,1,1.7319995000143535,674.4101959000109,None,None,None,,,,,,,,,,,,,,,,,,,,,,,11031,2,1,2024_Jun_02_1059,stroop_task_switching2,2021.2.3,59.592979955667396,
,,,蓝,yellow,j,diamond,color_mix,颜色,,incompatible,2,block_switch1,instruction/ready_test.png,instruction/i11.png,,,,,,,,,,,,,,,,,0,0,0,0,0,72,72,72,,,,,,,,,,,,,,,,,,,,,,,,,,,676.1631929000141,676.3630830000038,676.3462653000024,676.6469884999678,676.6469884999678,None,677.1477225999697,None,j,1,0.9226010999991558,677.1477225999697,None,None,None,,,,,,,,,,,,,,,,,,,,,,,11031,2,1,2024_Jun_02_1059,stroop_task_switching2,2021.2.3,59.592979955667396,
,,,红,green,d,square,color_mix,单词,,incompatible,2,block_switch1,instruction/ready_test.png,instruction/i11.png,,,,,,,,,,,,,,,,,0,0,0,0,0,73,73,73,,,,,,,,,,,,,,,,,,,,,,,,,,,678.0991107000154,678.3013071999885,678.2830875000218,678.5842597999726,678.5842597999726,None,679.0839072999661,None,d,1,1.7545528000337072,679.0839072999661,None,None,None,,,,,,,,,,,,,,,,,,,,,,,11031,2,1,2024_Jun_02_1059,stroop_task_switching2,2021.2.3,59.592979955667396,
,,,绿,blue,f,diamond,color_mix,颜色,,incompatible,2,block_switch1,instruction/ready_test.png,instruction/i11.png,,,,,,,,,,,,,,,,,0,0,0,0,0,74,74,74,,,,,,,,,,,,,,,,,,,,,,,,,,,680.853164399974,681.0546271000057,681.036794900021,681.3387017999776,681.3387017999776,None,681.8380942000076,None,f,1,1.8325401999754831,681.8380942000076,None,None,None,,,,,,,,,,,,,,,,,,,,,,,11031,2,1,2024_Jun_02_1059,stroop_task_switching2,2021.2.3,59.592979955667396,
,,,红,red,d,square,color_mix,单词,,compatible,2,block_switch1,instruction/ready_test.png,instruction/i11.png,,,,,,,,,,,,,,,,,0,0,0,0,0,75,75,75,,,,,,,,,,,,,,,,,,,,,,,,,,,683.6911913999938,683.8926885999972,683.8747460999875,684.1756220000098,684.1756220000098,None,684.675615300017,None,d,1,0.9797371000167914,684.675615300017,None,None,None,,,,,,,,,,,,,,,,,,,,,,,11031,2,1,2024_Jun_02_1059,stroop_task_switching2,2021.2.3,59.592979955667396,
,,,绿,green,k,diamond,color_mix,颜色,,compatible,2,block_switch1,instruction/ready_test.png,instruction/i11.png,,,,,,,,,,,,,,,,,0,0,0,0,0,76,76,76,,,,,,,,,,,,,,,,,,,,,,,,,,,685.6769652999938,685.8791139000095,685.8607668000041,686.1612121000071,686.1612121000071,None,686.6626744999667,None,k,1,0.8162256000214256,686.6626744999667,None,None,None,,,,,,,,,,,,,,,,,,,,,,,11031,2,1,2024_Jun_02_1059,stroop_task_switching2,2021.2.3,59.592979955667396,
,,,黄,red,j,square,color_mix,单词,,incompatible,2,block_switch1,instruction/ready_test.png,instruction/i11.png,,,,,,,,,,,,,,,,,0,0,0,0,0,77,77,77,,,,,,,,,,,,,,,,,,,,,,,,,,,687.4965474000201,687.696824499988,687.6819429000025,687.9812322999933,687.9812322999933,None,688.4825467999908,None,j,1,1.9802014000015333,688.4825467999908,None,None,None,,,,,,,,,,,,,,,,,,,,,,,11031,2,1,2024_Jun_02_1059,stroop_task_switching2,2021.2.3,59.592979955667396,
,,,红,red,d,square,color_mix,单词,,compatible,1,block_switch1,instruction/ready_test.png,instruction/i11.png,,,,,,,,,,,,,,,,,0,0,0,0,0,78,78,78,,,,,,,,,,,,,,,,,,,,,,,,,,,690.4844195999904,690.6845736000105,690.6687401999952,690.9698487999849,690.9698487999849,None,691.4692607999896,None,d,1,0.9211856999900192,691.4692607999896,None,None,None,,,,,,,,,,,,,,,,,,,,,,,11031,2,1,2024_Jun_02_1059,stroop_task_switching2,2021.2.3,59.592979955667396,
,,,黄,yellow,j,square,color_mix,单词,,compatible,1,block_switch1,instruction/ready_test.png,instruction/i11.png,,,,,,,,,,,,,,,,,0,0,0,0,0,79,79,79,,,,,,,,,,,,,,,,,,,,,,,,,,,692.4207859999733,692.62239460001,692.604453100008,692.9056695000036,692.9056695000036,None,693.4055057999794,None,j,1,1.9209506000042893,693.4055057999794,None,None,None,,,,,,,,,,,,,,,,,,,,,,,11031,2,1,2024_Jun_02_1059,stroop_task_switching2,2021.2.3,59.592979955667396,
,,,红,red,d,diamond,color_mix,颜色,,compatible,2,block_switch1,instruction/ready_test.png,instruction/i11.png,,,,,,,,,,,,,,,,,0,0,0,0,0,80,80,80,,,,,,,,,,,,,,,,,,,,,,,,,,,695.3417728000204,695.5429882999742,695.5254599999753,695.8268082999857,695.8268082999857,None,696.3265550999786,None,d,1,1.0567317999666557,696.3265550999786,None,None,None,,,,,,,,,,,,,,,,,,,,,,,11031,2,1,2024_Jun_02_1059,stroop_task_switching2,2021.2.3,59.592979955667396,
,,,红,red,d,square,color_mix,单词,,compatible,2,block_switch1,instruction/ready_test.png,instruction/i11.png,,,,,,,,,,,,,,,,,0,0,0,0,0,81,81,81,,,,,,,,,,,,,,,,,,,,,,,,,,,697.4122858999763,697.6124337000074,697.5959146000096,697.8964603000204,697.8964603000204,None,698.3963144000154,None,d,1,1.587230799952522,698.3963144000154,None,None,None,,,,,,,,,,,,,,,,,,,,,,,11031,2,1,2024_Jun_02_1059,stroop_task_switching2,2021.2.3,59.592979955667396,
,,,黄,blue,f,diamond,color_mix,颜色,,incompatible,2,block_switch1,instruction/ready_test.png,instruction/i11.png,,,,,,,,,,,,,,,,,0,0,0,0,0,82,82,82,,,,,,,,,,,,,,,,,,,,,,,,,,,699.9987660999759,700.1994988999795,700.1843958999962,700.4828064999892,700.4828064999892,None,700.9835525000235,None,f,1,1.3354867000016384,700.9835525000235,None,None,None,,,,,,,,,,,,,,,,,,,,,,,11031,2,1,2024_Jun_02_1059,stroop_task_switching2,2021.2.3,59.592979955667396,
,,,红,yellow,j,diamond,color_mix,颜色,,incompatible,1,block_switch1,instruction/ready_test.png,instruction/i11.png,,,,,,,,,,,,,,,,,0,0,0,0,0,83,83,83,,,,,,,,,,,,,,,,,,,,,,,,,,,702.3357814999763,702.5378420000197,702.5192878000089,702.8206119000097,702.8206119000097,None,703.3209233999951,None,j,1,1.4146577999927104,703.3209233999951,None,None,None,,,,,,,,,,,,,,,,,,,,,,,11031,2,1,2024_Jun_02_1059,stroop_task_switching2,2021.2.3,59.592979955667396,
,,,黄,red,d,diamond,color_mix,颜色,,incompatible,1,block_switch1,instruction/ready_test.png,instruction/i11.png,,,,,,,,,,,,,,,,,0,0,0,0,0,84,84,84,,,,,,,,,,,,,,,,,,,,,,,,,,,704.7556585000129,704.9562486999785,704.9405433000065,705.2421427000081,705.2421427000081,None,705.7574779000133,None,d,1,0.8656298000132665,705.7574779000133,None,None,None,,,,,,,,,,,,,,,,,,,,,,,11031,2,1,2024_Jun_02_1059,stroop_task_switching2,2021.2.3,59.592979955667396,
,,,蓝,blue,f,square,color_mix,单词,,compatible,2,block_switch1,instruction/ready_test.png,instruction/i11.png,,,,,,,,,,,,,,,,,0,0,0,0,0,85,85,85,,,,,,,,,,,,,,,,,,,,,,,,,,,706.6420612999937,706.843970499991,706.8265488999896,707.12710589997,707.12710589997,None,707.6269186999998,None,f,1,1.8280789999989793,707.6269186999998,None,None,None,,,,,,,,,,,,,,,,,,,,,,,11031,2,1,2024_Jun_02_1059,stroop_task_switching2,2021.2.3,59.592979955667396,
,,,绿,green,k,square,color_mix,单词,,compatible,1,block_switch1,instruction/ready_test.png,instruction/i11.png,,,,,,,,,,,,,,,,,0,0,0,0,0,86,86,86,,,,,,,,,,,,,,,,,,,,,,,,,,,709.4797926999745,709.6808442000183,709.6642908999929,709.9639039000031,709.9639039000031,None,710.4644094000105,None,k,1,0.8630319999647327,710.4644094000105,None,None,None,,,,,,,,,,,,,,,,,,,,,,,11031,2,1,2024_Jun_02_1059,stroop_task_switching2,2021.2.3,59.592979955667396,
,,,红,red,d,square,color_mix,单词,,compatible,1,block_switch1,instruction/ready_test.png,instruction/i11.png,,,,,,,,,,,,,,,,,0,0,0,0,0,87,87,87,,,,,,,,,,,,,,,,,,,,,,,,,,,711.3500196000095,711.550934800005,711.5326555999927,711.8338803999941,711.8338803999941,None,712.334019300004,None,d,1,0.7856022999621928,712.334019300004,None,None,None,,,,,,,,,,,,,,,,,,,,,,,11031,2,1,2024_Jun_02_1059,stroop_task_switching2,2021.2.3,59.592979955667396,
,,,黄,green,k,diamond,color_mix,颜色,,incompatible,2,block_switch1,instruction/ready_test.png,instruction/i11.png,,,,,,,,,,,,,,,,,0,0,0,0,0,88,88,88,,,,,,,,,,,,,,,,,,,,,,,,,,,713.1353097999818,713.3366808000137,713.3189238000195,713.6194497999968,713.6194497999968,None,714.119972000015,None,k,1,1.0955686999950558,714.119972000015,None,None,None,,,,,,,,,,,,,,,,,,,,,,,11031,2,1,2024_Jun_02_1059,stroop_task_switching2,2021.2.3,59.592979955667396,
,,,绿,red,k,square,color_mix,单词,,incompatible,2,block_switch1,instruction/ready_test.png,instruction/i11.png,,,,,,,,,,,,,,,,,0,0,0,0,0,89,89,89,,,,,,,,,,,,,,,,,,,,,,,,,,,715.2388975999784,715.4398188000196,715.4232069000136,715.7232489999733,715.7232489999733,None,716.2232479000231,None,k,1,1.336866799974814,716.2232479000231,None,None,None,,,,,,,,,,,,,,,,,,,,,,,11031,2,1,2024_Jun_02_1059,stroop_task_switching2,2021.2.3,59.592979955667396,
,,,黄,green,j,square,color_mix,单词,,incompatible,1,block_switch1,instruction/ready_test.png,instruction/i11.png,,,,,,,,,,,,,,,,,0,0,0,0,0,90,90,90,,,,,,,,,,,,,,,,,,,,,,,,,,,717.5766313999775,717.7758990000002,717.7597422999679,718.0610180000076,718.0610180000076,None,718.5602165000164,None,j,1,1.0709976000362076,718.5602165000164,None,None,None,,,,,,,,,,,,,,,,,,,,,,,11031,2,1,2024_Jun_02_1059,stroop_task_switching2,2021.2.3,59.592979955667396,
,,,蓝,blue,f,square,color_mix,单词,,compatible,1,block_switch1,instruction/ready_test.png,instruction/i11.png,,,,,,,,,,,,,,,,,0,0,0,0,0,91,91,91,,,,,,,,,,,,,,,,,,,,,,,,,,,719.6615441999747,719.8618719999795,719.8475437000161,720.1640723000164,720.1457907999866,None,720.6470185000217,None,f,1,1.0806545999948867,720.6470185000217,None,None,None,,,,,,,,,,,,,,,,,,,,,,,11031,2,1,2024_Jun_02_1059,stroop_task_switching2,2021.2.3,59.592979955667396,
,,,蓝,red,f,square,color_mix,单词,,incompatible,1,block_switch1,instruction/ready_test.png,instruction/i11.png,,,,,,,,,,,,,,,,,0,0,0,0,0,92,92,92,,,,,,,,,,,,,,,,,,,,,,,,,,,721.7483463999815,721.9486314000096,721.9328278999892,722.2323062000214,722.2323062000214,None,722.732931400009,None,f,1,1.162459500017576,722.732931400009,None,None,None,,,,,,,,,,,,,,,,,,,,,,,11031,2,1,2024_Jun_02_1059,stroop_task_switching2,2021.2.3,59.592979955667396,
,,,黄,blue,j,square,color_mix,单词,,incompatible,1,block_switch1,instruction/ready_test.png,instruction/i11.png,,,,,,,,,,,,,,,,,0,0,0,0,0,93,93,93,,,,,,,,,,,,,,,,,,,,,,,,,,,723.9182798999827,724.1192665999988,724.1034443000099,724.4031941000139,724.4031941000139,None,724.9035324999713,None,j,1,0.8804857000359334,724.9035324999713,None,None,None,,,,,,,,,,,,,,,,,,,,,,,11031,2,1,2024_Jun_02_1059,stroop_task_switching2,2021.2.3,59.592979955667396,
,,,绿,red,d,diamond,color_mix,颜色,,incompatible,2,block_switch1,instruction/ready_test.png,instruction/i11.png,,,,,,,,,,,,,,,,,0,0,0,0,0,94,94,94,,,,,,,,,,,,,,,,,,,,,,,,,,,725.8043128999998,726.0050943999668,725.9887682999833,726.2907856999664,726.2907856999664,None,726.8058493999997,None,d,1,0.9617701999959536,726.8058493999997,None,None,None,,,,,,,,,,,,,,,,,,,,,,,11031,2,1,2024_Jun_02_1059,stroop_task_switching2,2021.2.3,59.592979955667396,
,,,蓝,blue,f,diamond,color_mix,颜色,,compatible,1,block_switch1,instruction/ready_test.png,instruction/i11.png,,,,,,,,,,,,,,,,,0,0,0,0,0,95,95,95,,,,,,,,,,,,,,,,,,,,,,,,,,,727.7907349999878,727.9917083000182,727.9752219999791,728.275135200005,728.275135200005,None,728.7754926999914,None,f,1,0.8481000000028871,728.7754926999914,None,None,None,,,,,,,,,,,,,,,,,,,,,,,11031,2,1,2024_Jun_02_1059,stroop_task_switching2,2021.2.3,59.592979955667396,
,,,绿,green,k,square,color_mix,单词,,compatible,2,block_switch1,instruction/ready_test.png,instruction/i11.png,,,,,,,,,,,,,,,,,0,0,0,0,0,96,96,96,,,,,,,,,,,,,,,,,,,,,,,,,,,729.6435178999673,729.844746000017,729.8275122999912,730.1281999999774,730.1281999999774,None,730.6280705999816,None,k,1,1.1318702999851666,730.6280705999816,None,None,None,,,,,,,,,,,,,,,,,,,,,,,11031,2,1,2024_Jun_02_1059,stroop_task_switching2,2021.2.3,59.592979955667396,
,,,,,,,,,,,,block_switch1,instruction/ready_test.png,instruction/i11.png,,,,,,,,,,,,,,,,,0,0,0,0,,,,,,,,,,,,,,,,,,,,,,,,,,,,,,,,,,,,,,,,,,,,,,,,,,,,,,,,,,,,731.7801612999756,None,space,9.627880899992306,731.7801612999756,None,,,11031,2,1,2024_Jun_02_1059,stroop_task_switching2,2021.2.3,59.592979955667396,
,,,蓝,blue,f,square,color_mix,单词,,compatible,0,block_switch2,instruction/ready_2.png,instruction/i12.png,,,,,,,,,,,,,,,,,0,1,1,1,0,0,0,0,,,,,,,,,,,,,,,,,,,745.1514002999756,746.1524575999938,746.1524575999938,747.1551290000207,747.1551290000207,None,744.165376799996,745.167025999981,748.1891348999925,748.389442100015,748.3727935000206,748.6728157000034,748.6728157000034,None,749.1734526000218,None,f,1,1.5230062000337057,749.1734526000218,None,None,None,,,,,,,,,741.4448390000034,None,space,2.6995597999775782,741.4448390000034,None,,,,,,,,,11031,2,1,2024_Jun_02_1059,stroop_task_switching2,2021.2.3,59.592979955667396,
,,,黄,red,d,diamond,color_mix,颜色,,incompatible,2,block_switch2,instruction/ready_2.png,instruction/i12.png,,,,,,,,,,,,,,,,,0,1,1,1,0,1,1,1,,,,,,,,,,,,,,,,,,,,,,,,,,,750.7253153999918,750.9263461999944,750.909830300021,751.2094050999731,751.2094050999731,None,751.7098710999708,None,d,1,1.6347150999936275,751.7098710999708,None,None,None,,,,,,,,,,,,,,,,,,,,,,,11031,2,1,2024_Jun_02_1059,stroop_task_switching2,2021.2.3,59.592979955667396,
,,,蓝,green,k,diamond,color_mix,颜色,,incompatible,1,block_switch2,instruction/ready_2.png,instruction/i12.png,,,,,,,,,,,,,,,,,0,1,1,1,0,2,2,2,,,,,,,,,,,,,,,,,,,,,,,,,,,753.3624219999765,753.5630103999865,753.5459545999765,753.8484330999781,753.8484330999781,None,754.3478510999703,None,k,1,0.8603792999638245,754.3478510999703,None,None,None,,,,,,,,,,,,,,,,,,,,,,,11031,2,1,2024_Jun_02_1059,stroop_task_switching2,2021.2.3,59.592979955667396,
,,,红,yellow,j,diamond,color_mix,颜色,,incompatible,1,block_switch2,instruction/ready_2.png,instruction/i12.png,,,,,,,,,,,,,,,,,0,1,1,1,0,3,3,3,,,,,,,,,,,,,,,,,,,,,,,,,,,755.2321387999691,755.4324123999686,755.4169971999945,755.7166414000094,755.7166414000094,None,756.2167544999975,None,j,1,0.9757140000001527,756.2167544999975,None,None,None,,,,,,,,,,,,,,,,,,,,,,,11031,2,1,2024_Jun_02_1059,stroop_task_switching2,2021.2.3,59.592979955667396,
,,,红,red,d,diamond,color_mix,颜色,,compatible,1,block_switch2,instruction/ready_2.png,instruction/i12.png,,,,,,,,,,,,,,,,,0,1,1,1,0,4,4,4,,,,,,,,,,,,,,,,,,,,,,,,,,,757.2190949000069,757.42061500001,757.4019874000223,757.7025436999975,757.7025436999975,None,758.2037202999927,None,d,1,1.637258299975656,758.2037202999927,None,None,None,,,,,,,,,,,,,,,,,,,,,,,11031,2,1,2024_Jun_02_1059,stroop_task_switching2,2021.2.3,59.592979955667396,
,,,绿,green,k,square,color_mix,单词,,compatible,2,block_switch2,instruction/ready_2.png,instruction/i12.png,,,,,,,,,,,,,,,,,0,1,1,1,0,5,5,5,,,,,,,,,,,,,,,,,,,,,,,,,,,759.8555839000037,760.056013799971,760.0392539000022,760.3421901999973,760.3421901999973,None,760.8415143999737,None,k,1,0.623063999984879,760.8415143999737,None,None,None,,,,,,,,,,,,,,,,,,,,,,,11031,2,1,2024_Jun_02_1059,stroop_task_switching2,2021.2.3,59.592979955667396,
,,,黄,blue,f,diamond,color_mix,颜色,,incompatible,2,block_switch2,instruction/ready_2.png,instruction/i12.png,,,,,,,,,,,,,,,,,0,1,1,1,0,6,6,6,,,,,,,,,,,,,,,,,,,,,,,,,,,761.4912814999698,761.6926083000144,761.6768253999762,761.9775388999842,761.9775388999842,None,762.4771561999805,None,f,1,1.1878010999644175,762.4771561999805,None,None,None,,,,,,,,,,,,,,,,,,,,,,,11031,2,1,2024_Jun_02_1059,stroop_task_switching2,2021.2.3,59.592979955667396,
,,,绿,yellow,k,square,color_mix,单词,,incompatible,2,block_switch2,instruction/ready_2.png,instruction/i12.png,,,,,,,,,,,,,,,,,0,1,1,1,0,7,7,7,,,,,,,,,,,,,,,,,,,,,,,,,,,763.6948504999746,763.8951767999679,763.8785330000101,764.1800371999852,764.1800371999852,None,764.6797585000168,None,k,1,1.6336603999952786,764.6797585000168,None,None,None,,,,,,,,,,,,,,,,,,,,,,,11031,2,1,2024_Jun_02_1059,stroop_task_switching2,2021.2.3,59.592979955667396,
,,,红,green,d,square,color_mix,单词,,incompatible,1,block_switch2,instruction/ready_2.png,instruction/i12.png,,,,,,,,,,,,,,,,,0,1,1,1,0,8,8,8,,,,,,,,,,,,,,,,,,,,,,,,,,,766.332242799981,766.5329918999923,766.5163108999841,766.8175191999762,766.8175191999762,None,767.3168244999833,None,d,1,0.9801930999965407,767.3168244999833,None,None,None,,,,,,,,,,,,,,,,,,,,,,,11031,2,1,2024_Jun_02_1059,stroop_task_switching2,2021.2.3,59.592979955667396,
,,,黄,yellow,j,square,color_mix,单词,,compatible,1,block_switch2,instruction/ready_2.png,instruction/i12.png,,,,,,,,,,,,,,,,,0,1,1,1,0,9,9,9,,,,,,,,,,,,,,,,,,,,,,,,,,,768.3184556000051,768.5198307000101,768.5030283000087,768.8025680999854,768.8025680999854,None,769.3033112999983,None,j,1,1.0573891999665648,769.3033112999983,None,None,None,,,,,,,,,,,,,,,,,,,,,,,11031,2,1,2024_Jun_02_1059,stroop_task_switching2,2021.2.3,59.592979955667396,
