b_pra,ins_blocks,ins_blocks2,stim_word,stim_color,corrAns,cue_type,trial_type,task_type,rand,compatibility,switch,b_test,w_pic,w_pic2,trials_instr.thisRepN,trials_instr.thisTrialN,trials_instr.thisN,trials_instr.thisIndex,block_pra.thisRepN,block_pra.thisTrialN,block_pra.thisN,block_pra.thisIndex,trials_rep.thisRepN,trials_rep.thisTrialN,trials_rep.thisN,trials_rep.thisIndex,trials_pra.thisRepN,trials_pra.thisTrialN,trials_pra.thisN,trials_pra.thisIndex,trials_3.thisRepN,trials_3.thisTrialN,trials_3.thisN,trials_3.thisIndex,trials_2.thisRepN,trials_2.thisTrialN,trials_2.thisN,trials_2.thisIndex,instr_image.started,instr_image.stopped,instr_key_resp.keys,instr_key_resp.rt,instr_key_resp.started,instr_key_resp.stopped,instr_pra_image.started,instr_pra_image.stopped,ip_key_resp.keys,ip_key_resp.rt,ip_key_resp.started,ip_key_resp.stopped,block_image.started,block_image.stopped,ib_key_resp.keys,ib_key_resp.rt,ib_key_resp.started,ib_key_resp.stopped,cd3.started,cd3.stopped,cd2.started,cd2.stopped,cd1.started,cd1.stopped,cd_text.started,cd_text.stopped,text_fix.started,text_fix.stopped,text_2.started,text_2.stopped,text_4.started,text_4.stopped,text_target.started,text_target.stopped,key_resp.keys,key_resp.corr,key_resp.rt,key_resp.started,key_resp.stopped,sceen_black.started,sceen_black.stopped,text_fb.started,text_fb.stopped,text.started,text.stopped,key_bf.keys,key_bf.rt,key_bf.started,key_bf.stopped,instr_test_image.started,instr_test_image.stopped,instr_exp_key_resp.keys,instr_exp_key_resp.rt,instr_exp_key_resp.started,instr_exp_key_resp.stopped,text_rest.started,text_rest.stopped,key_resp_rest.keys,key_resp_rest.rt,key_resp_rest.started,key_resp_rest.stopped,text_3.started,text_3.stopped,participant,session,balance,date,expName,psychopyVersion,frameRate,
,,,,,,,,,,,,,,,0,0,0,0,,,,,,,,,,,,,,,,,,,,,12.650699100020574,None,right,4.949514700012514,12.650699100020574,None,,,,,,,,,,,,,,,,,,,,,,,,,,,,,,,,,,,,,,,,,,,,,,,,,,,,,,,,,,11035,2,1,2024_May_31_1629,stroop_task_switching2,2021.2.3,59.85403994165473,
,,,,,,,,,,,,,,,1,0,1,0,,,,,,,,,,,,,,,,,,,,,17.641515600000275,None,right,35.023680900019826,17.641515600000275,None,,,,,,,,,,,,,,,,,,,,,,,,,,,,,,,,,,,,,,,,,,,,,,,,,,,,,,,,,,11035,2,1,2024_May_31_1629,stroop_task_switching2,2021.2.3,59.85403994165473,
,,,,,,,,,,,,,,,2,0,2,0,,,,,,,,,,,,,,,,,,,,,52.71130120000453,None,right,5.777610299992375,52.71130120000453,None,,,,,,,,,,,,,,,,,,,,,,,,,,,,,,,,,,,,,,,,,,,,,,,,,,,,,,,,,,11035,2,1,2024_May_31_1629,stroop_task_switching2,2021.2.3,59.85403994165473,
,,,,,,,,,,,,,,,3,0,3,0,,,,,,,,,,,,,,,,,,,,,58.55347100002109,None,right,2.1757279000012204,58.55347100002109,None,,,,,,,,,,,,,,,,,,,,,,,,,,,,,,,,,,,,,,,,,,,,,,,,,,,,,,,,,,11035,2,1,2024_May_31_1629,stroop_task_switching2,2021.2.3,59.85403994165473,
,,,,,,,,,,,,,,,4,0,4,0,,,,,,,,,,,,,,,,,,,,,60.77356250002049,None,right,18.276551599992672,60.77356250002049,None,,,,,,,,,,,,,,,,,,,,,,,,,,,,,,,,,,,,,,,,,,,,,,,,,,,,,,,,,,11035,2,1,2024_May_31_1629,stroop_task_switching2,2021.2.3,59.85403994165473,
,,,,,,,,,,,,,,,5,0,5,0,,,,,,,,,,,,,,,,,,,,,79.08432550000725,None,right,1.270081199996639,79.08432550000725,None,,,,,,,,,,,,,,,,,,,,,,,,,,,,,,,,,,,,,,,,,,,,,,,,,,,,,,,,,,11035,2,1,2024_May_31_1629,stroop_task_switching2,2021.2.3,59.85403994165473,
,,,,,,,,,,,,,,,,,,,,,,,,,,,,,,,,,,,,,,,,,,,,,80.38632970000617,None,space,1.0395792999770492,80.38632970000617,None,,,,,,,,,,,,,,,,,,,,,,,,,,,,,,,,,,,,,,,,,,,,,,,,,,,,11035,2,1,2024_May_31_1629,stroop_task_switching2,2021.2.3,59.85403994165473,
condition/block_color,instruction/instr_color,instruction/i8,XX,red,d,diamond,color_single,颜色,,,,,,,,,,,0,0,0,0,0,0,0,0,0,0,0,0,,,,,,,,,,,,,,,,,,,,,81.47119570002542,None,space,4.626729699986754,81.47119570002542,None,87.18106210001861,88.18257770000491,88.18257770000491,89.18300900000031,89.18300900000031,None,86.19508840001072,87.19736080002622,90.1510866000026,90.35123670002213,90.33483090001391,90.63531740001054,90.63531740001054,None,91.13610490001156,None,d,1,0.7379673999967054,91.13610490001156,None,None,None,91.9036387000233,None,,,,,,,,,,,,,,,,,,,,,11035,2,1,2024_May_31_1629,stroop_task_switching2,2021.2.3,59.85403994165473,
condition/block_color,instruction/instr_color,instruction/i8,XX,green,k,diamond,color_single,颜色,,,,,,,,,,,0,0,0,0,0,0,0,0,0,1,1,1,,,,,,,,,,,,,,,,,,,,,,,,,,,,,,,,,,,92.90525130002061,93.10551160000614,93.08938640000997,93.38922260000254,93.38922260000254,None,93.89017320002313,None,k,1,0.8641054999898188,93.89017320002313,None,None,None,94.77466920000734,None,,,,,,,,,,,,,,,,,,,,,11035,2,1,2024_May_31_1629,stroop_task_switching2,2021.2.3,59.85403994165473,
condition/block_color,instruction/instr_color,instruction/i8,XX,yellow,j,diamond,color_single,颜色,,,,,,,,,,,0,0,0,0,0,0,0,0,0,2,2,2,,,,,,,,,,,,,,,,,,,,,,,,,,,,,,,,,,,95.77623850002419,95.97649190001539,95.96171670002514,96.26090250001289,96.26090250001289,None,96.76122420001775,None,f,0,0.5929888999962714,96.76122420001775,None,None,None,97.3786822000111,None,,,,,,,,,,,,,,,,,,,,,11035,2,1,2024_May_31_1629,stroop_task_switching2,2021.2.3,59.85403994165473,
condition/block_color,instruction/instr_color,instruction/i8,XX,blue,f,diamond,color_single,颜色,,,,,,,,,,,0,0,0,0,0,0,0,0,0,3,3,3,,,,,,,,,,,,,,,,,,,,,,,,,,,,,,,,,,,98.38088460001745,98.58239900000626,98.56426500002271,98.86429940001108,98.86429940001108,None,99.36525940001593,None,f,1,1.0610665999993216,99.36525940001593,None,None,None,100.44975420000264,None,,,,,,,,,,,,,,,,,,,,,11035,2,1,2024_May_31_1629,stroop_task_switching2,2021.2.3,59.85403994165473,
condition/block_color,instruction/instr_color,instruction/i8,XX,green,k,diamond,color_single,颜色,,,,,,,,,,,0,0,0,0,0,0,0,0,0,4,4,4,,,,,,,,,,,,,,,,,,,,,,,,,,,,,,,,,,,101.45238960001734,101.65315220001503,101.63499380002031,101.93708990002051,101.93708990002051,None,102.4368995000259,None,k,1,0.725445399992168,102.4368995000259,None,None,None,103.18746030001785,None,,,,,,,,,,,,,,,,,,,,,11035,2,1,2024_May_31_1629,stroop_task_switching2,2021.2.3,59.85403994165473,
condition/block_color,instruction/instr_color,instruction/i8,XX,yellow,j,diamond,color_single,颜色,,,,,,,,,,,0,0,0,0,0,0,0,0,0,5,5,5,,,,,,,,,,,,,,,,,,,,,,,,,,,,,,,,,,,104.18900480002048,104.38971119999769,104.37246700000833,104.67444709999836,104.67444709999836,None,105.1746677000192,None,j,1,0.7958070000167936,105.1746677000192,None,None,None,105.99165200002608,None,,,,,,,,,,,,,,,,,,,,,11035,2,1,2024_May_31_1629,stroop_task_switching2,2021.2.3,59.85403994165473,
condition/block_color,instruction/instr_color,instruction/i8,XX,blue,f,diamond,color_single,颜色,,,,,,,,,,,0,0,0,0,0,0,0,0,0,6,6,6,,,,,,,,,,,,,,,,,,,,,,,,,,,,,,,,,,,106.99354540000786,107.1935793000157,107.17901210000855,107.49567770000431,107.47732060000999,None,107.977690300002,None,f,1,0.8331781000015326,107.977690300002,None,None,None,108.82998280000174,None,,,,,,,,,,,,,,,,,,,,,11035,2,1,2024_May_31_1629,stroop_task_switching2,2021.2.3,59.85403994165473,
condition/block_color,instruction/instr_color,instruction/i8,XX,red,d,diamond,color_single,颜色,,,,,,,,,,,0,0,0,0,0,0,0,0,0,7,7,7,,,,,,,,,,,,,,,,,,,,,,,,,,,,,,,,,,,109.83147160001681,110.03208580001956,110.01537200002349,110.31479350000154,110.31479350000154,None,110.81617330000154,None,d,1,0.5702541999926325,110.81617330000154,None,None,None,111.41659629999776,None,,,,,,,,,,,,,,,,,,,,,11035,2,1,2024_May_31_1629,stroop_task_switching2,2021.2.3,59.85403994165473,
condition/block_color,instruction/instr_color,instruction/i8,XX,yellow,j,diamond,color_single,颜色,,,,,,,,,,,0,0,0,0,0,0,0,0,0,8,8,8,,,,,,,,,,,,,,,,,,,,,,,,,,,,,,,,,,,112.41885610000463,112.61861130001489,112.60367930002394,112.90253350001876,112.90253350001876,None,113.40356669999892,None,j,1,0.6711047000135295,113.40356669999892,None,None,None,114.1040886999981,None,,,,,,,,,,,,,,,,,,,,,11035,2,1,2024_May_31_1629,stroop_task_switching2,2021.2.3,59.85403994165473,
condition/block_color,instruction/instr_color,instruction/i8,XX,blue,f,diamond,color_single,颜色,,,,,,,,,,,0,0,0,0,0,0,0,0,0,9,9,9,,,,,,,,,,,,,,,,,,,,,,,,,,,,,,,,,,,115.1054095000145,115.30550790001871,115.28939650001121,115.59010680002393,115.59010680002393,None,116.09011910000117,None,f,1,0.7526145999727305,116.09011910000117,None,None,None,116.85796500000288,None,,,,,,,,,,,,,,,,,,,,,11035,2,1,2024_May_31_1629,stroop_task_switching2,2021.2.3,59.85403994165473,
condition/block_color,instruction/instr_color,instruction/i8,XX,red,d,diamond,color_single,颜色,,,,,,,,,,,0,0,0,0,0,0,0,0,0,10,10,10,,,,,,,,,,,,,,,,,,,,,,,,,,,,,,,,,,,117.85990160002257,118.06022310000844,118.04398040001979,118.3435337000119,118.3435337000119,None,118.8450262999977,None,d,1,0.5815819000126794,118.8450262999977,None,None,None,119.44559830002254,None,,,,,,,,,,,,,,,,,,,,,11035,2,1,2024_May_31_1629,stroop_task_switching2,2021.2.3,59.85403994165473,
condition/block_color,instruction/instr_color,instruction/i8,XX,green,k,diamond,color_single,颜色,,,,,,,,,,,0,0,0,0,0,0,0,0,0,11,11,11,,,,,,,,,,,,,,,,,,,,,,,,,,,,,,,,,,,120.44686960001127,120.64793630002532,120.6140797000262,120.91413160000229,120.93122800000128,None,121.43217790001654,None,k,1,0.6666495999961626,121.43217790001654,None,None,None,122.11577140001464,None,,,,,,,,,,,,,,,,,,,,,11035,2,1,2024_May_31_1629,stroop_task_switching2,2021.2.3,59.85403994165473,
condition/block_color,instruction/instr_color,instruction/i8,XX,blue,f,diamond,color_single,颜色,,,,,,,,,,,0,0,0,0,0,0,0,0,0,12,12,12,,,,,,,,,,,,,,,,,,,,,,,,,,,,,,,,,,,123.1175435000041,123.31807780000963,123.30138750001788,123.60230930001126,123.60230930001126,None,124.10233470000094,None,f,1,0.6366057999839541,124.10233470000094,None,None,None,124.7705038000131,None,,,,,,,,,,,,,,,,,,,,,11035,2,1,2024_May_31_1629,stroop_task_switching2,2021.2.3,59.85403994165473,
condition/block_color,instruction/instr_color,instruction/i8,XX,red,d,diamond,color_single,颜色,,,,,,,,,,,0,0,0,0,0,0,0,0,0,13,13,13,,,,,,,,,,,,,,,,,,,,,,,,,,,,,,,,,,,125.77199610002572,125.97316370002227,125.95520409999881,126.25637470002403,126.25637470002403,None,126.75705110002309,None,d,1,1.3342622999916784,126.75705110002309,None,None,None,128.108437900024,None,,,,,,,,,,,,,,,,,,,,,11035,2,1,2024_May_31_1629,stroop_task_switching2,2021.2.3,59.85403994165473,
condition/block_color,instruction/instr_color,instruction/i8,XX,green,k,diamond,color_single,颜色,,,,,,,,,,,0,0,0,0,0,0,0,0,0,14,14,14,,,,,,,,,,,,,,,,,,,,,,,,,,,,,,,,,,,129.1099191000103,129.31148699999903,129.2936836000008,129.59480130000156,129.59480130000156,None,130.09534070000518,None,k,1,1.4596899999887682,130.09534070000518,None,None,None,131.58039129999815,None,,,,,,,,,,,,,,,,,,,,,11035,2,1,2024_May_31_1629,stroop_task_switching2,2021.2.3,59.85403994165473,
condition/block_color,instruction/instr_color,instruction/i8,XX,yellow,j,diamond,color_single,颜色,,,,,,,,,,,0,0,0,0,0,0,0,0,0,15,15,15,,,,,,,,,,,,,,,,,,,,,,,,,,,,,,,,,,,132.58261100001982,132.78301900002407,132.76536840002518,133.06593360000988,133.06593360000988,None,133.5673366000119,None,j,1,0.7964327000081539,133.5673366000119,None,None,None,134.38439060002565,None,,,,,,,,,,,,,,,,,,,,,11035,2,1,2024_May_31_1629,stroop_task_switching2,2021.2.3,59.85403994165473,
condition/block_color,instruction/instr_color,instruction/i8,XX,red,d,diamond,color_single,颜色,,,,,,,,,,,0,0,0,0,0,0,0,0,0,16,16,16,,,,,,,,,,,,,,,,,,,,,,,,,,,,,,,,,,,135.38618329999736,135.58695960001205,135.56959900000948,135.87002850000863,135.87002850000863,None,136.37072620002436,None,d,1,0.6725395999965258,136.37072620002436,None,None,None,137.0724980000232,None,,,,,,,,,,,,,,,,,,,,,11035,2,1,2024_May_31_1629,stroop_task_switching2,2021.2.3,59.85403994165473,
condition/block_color,instruction/instr_color,instruction/i8,XX,green,k,diamond,color_single,颜色,,,,,,,,,,,0,0,0,0,0,0,0,0,0,17,17,17,,,,,,,,,,,,,,,,,,,,,,,,,,,,,,,,,,,138.07341940002516,138.27459980000276,138.25692880002316,138.55799930001376,138.55799930001376,None,139.058145100018,None,k,1,0.7052453999931458,139.058145100018,None,None,None,139.79262320001726,None,,,,,,,,,,,,,,,,,,,,,11035,2,1,2024_May_31_1629,stroop_task_switching2,2021.2.3,59.85403994165473,
condition/block_color,instruction/instr_color,instruction/i8,XX,yellow,j,diamond,color_single,颜色,,,,,,,,,,,0,0,0,0,0,0,0,0,0,18,18,18,,,,,,,,,,,,,,,,,,,,,,,,,,,,,,,,,,,140.7942293000233,140.9945018000144,140.9774290000205,141.27820280002197,141.27820280002197,None,141.7790878000087,None,j,1,0.7842129000055138,141.7790878000087,None,None,None,142.58020990001387,None,,,,,,,,,,,,,,,,,,,,,11035,2,1,2024_May_31_1629,stroop_task_switching2,2021.2.3,59.85403994165473,
condition/block_color,instruction/instr_color,instruction/i8,XX,blue,f,diamond,color_single,颜色,,,,,,,,,,,0,0,0,0,0,0,0,0,0,19,19,19,,,,,,,,,,,,,,,,,,,,,,,,,,,,,,,,,,,143.58173910001642,143.7830606000207,143.76623010000912,144.06583560002036,144.06583560002036,None,144.56632180002634,None,f,1,0.7337526999763213,144.56632180002634,None,None,None,145.3176670000248,None,,,,,,,,,,,,,,,,,,,,,11035,2,1,2024_May_31_1629,stroop_task_switching2,2021.2.3,59.85403994165473,
condition/block_color,instruction/instr_color,instruction/i8,XX,green,k,diamond,color_single,颜色,,,,,,,,,,,0,0,0,0,0,0,0,0,0,20,20,20,,,,,,,,,,,,,,,,,,,,,,,,,,,,,,,,,,,146.31907210001373,146.52047590000439,146.503967800003,146.80420270000468,146.80420270000468,None,147.3045928000065,None,k,1,0.8509539999940898,147.3045928000065,None,None,None,148.17199729999993,None,,,,,,,,,,,,,,,,,,,,,11035,2,1,2024_May_31_1629,stroop_task_switching2,2021.2.3,59.85403994165473,
condition/block_color,instruction/instr_color,instruction/i8,XX,yellow,j,diamond,color_single,颜色,,,,,,,,,,,0,0,0,0,0,0,0,0,0,21,21,21,,,,,,,,,,,,,,,,,,,,,,,,,,,,,,,,,,,149.17346340001677,149.37354870000854,149.35712800000329,149.6575025000202,149.6575025000202,None,150.1579586000007,None,j,1,0.7977622000034899,150.1579586000007,None,None,None,150.9761185000243,None,,,,,,,,,,,,,,,,,,,,,11035,2,1,2024_May_31_1629,stroop_task_switching2,2021.2.3,59.85403994165473,
condition/block_color,instruction/instr_color,instruction/i8,XX,blue,f,diamond,color_single,颜色,,,,,,,,,,,0,0,0,0,0,0,0,0,0,22,22,22,,,,,,,,,,,,,,,,,,,,,,,,,,,,,,,,,,,151.9775992000068,152.17778700002236,152.16195580002386,152.46235670000897,152.46235670000897,None,152.96237720001955,None,f,1,0.7935318000090774,152.96237720001955,None,None,None,153.78065890001017,None,,,,,,,,,,,,,,,,,,,,,11035,2,1,2024_May_31_1629,stroop_task_switching2,2021.2.3,59.85403994165473,
condition/block_color,instruction/instr_color,instruction/i8,XX,red,d,diamond,color_single,颜色,,,,,,,,,,,0,0,0,0,0,0,0,0,0,23,23,23,,,,,,,,,,,,,,,,,,,,,,,,,,,,,,,,,,,154.78189949999796,154.9833049000008,154.96547260001535,155.2672519000189,155.2672519000189,None,155.7667067000002,None,d,1,0.54934100000537,155.7667067000002,None,None,None,156.33416790000047,None,,,,,,,,,,,,,,,,,,,,,11035,2,1,2024_May_31_1629,stroop_task_switching2,2021.2.3,59.85403994165473,
condition/block_color,instruction/instr_color,instruction/i8,,,,,,,,,,,,,,,,,0,0,0,0,0,0,0,0,,,,,,,,,,,,,,,,,,,,,,,,,,,,,,,,,,,,,,,,,,,,,,,,,,,,,,,,157.35299050001777,None,space,8.523385699983919,157.35299050001777,None,,,,,,,,,,,,,,,11035,2,1,2024_May_31_1629,stroop_task_switching2,2021.2.3,59.85403994165473,
condition/block_color,instruction/instr_color,instruction/i8,,,,,,,,,,,,,,,,,0,0,0,0,,,,,,,,,,,,,,,,,,,,,,,,,,,,,,,,,,,,,,,,,,,,,,,,,,,,,,,,,,,,,,,,,,,,,,,,,,,,,,,,11035,2,1,2024_May_31_1629,stroop_task_switching2,2021.2.3,59.85403994165473,
condition/block_word,instruction/instr_word,instruction/i9,黄,white,j,square,word_single,单词,0.0032461461866890584,,,,,,,,,,0,1,1,1,0,0,0,0,0,0,0,0,,,,,,,,,,,,,,,,,,,,,165.9153991000203,None,space,1.4492328999913298,165.9153991000203,None,168.3871234000253,169.38864450002438,169.38864450002438,170.38954760000343,170.38954760000343,None,167.40127380000195,168.40249680000124,171.40648320000037,171.60706790001132,171.59100580000086,171.89092309999978,171.89092309999978,None,172.39171310001984,None,j,1,1.108651100017596,172.39171310001984,None,None,None,173.52737620001426,None,,,,,,,,,,,,,,,,,,,,,11035,2,1,2024_May_31_1629,stroop_task_switching2,2021.2.3,59.85403994165473,
condition/block_word,instruction/instr_word,instruction/i9,蓝,white,f,square,word_single,单词,0.060540570646362424,,,,,,,,,,0,1,1,1,0,0,0,0,0,1,1,1,,,,,,,,,,,,,,,,,,,,,,,,,,,,,,,,,,,174.52831030002562,174.72987260000082,174.71223950001877,175.01325100002578,175.01325100002578,None,175.513034100004,None,f,1,0.6752501000009943,175.513034100004,None,None,None,176.2141196000157,None,,,,,,,,,,,,,,,,,,,,,11035,2,1,2024_May_31_1629,stroop_task_switching2,2021.2.3,59.85403994165473,
condition/block_word,instruction/instr_word,instruction/i9,黄,white,j,square,word_single,单词,0.06994067193778963,,,,,,,,,,0,1,1,1,0,0,0,0,0,2,2,2,,,,,,,,,,,,,,,,,,,,,,,,,,,,,,,,,,,177.21575740000117,177.4159233000246,177.4000273999991,177.70153340001707,177.70153340001707,None,178.20062410001992,None,j,1,0.6036788999917917,178.20062410001992,None,None,None,178.83465640002396,None,,,,,,,,,,,,,,,,,,,,,11035,2,1,2024_May_31_1629,stroop_task_switching2,2021.2.3,59.85403994165473,
condition/block_word,instruction/instr_word,instruction/i9,蓝,white,f,square,word_single,单词,0.08193765152950094,,,,,,,,,,0,1,1,1,0,0,0,0,0,3,3,3,,,,,,,,,,,,,,,,,,,,,,,,,,,,,,,,,,,179.83628139999928,180.03802170002018,180.01996130001498,180.3213492000068,180.3213492000068,None,180.8210980000149,None,f,1,0.7684593000158202,180.8210980000149,None,None,None,181.60568370000692,None,,,,,,,,,,,,,,,,,,,,,11035,2,1,2024_May_31_1629,stroop_task_switching2,2021.2.3,59.85403994165473,
condition/block_word,instruction/instr_word,instruction/i9,红,white,d,square,word_single,单词,0.1279694370605574,,,,,,,,,,0,1,1,1,0,0,0,0,0,4,4,4,,,,,,,,,,,,,,,,,,,,,,,,,,,,,,,,,,,182.60707480000565,182.80829580000136,182.79158150000148,183.09123980000732,183.09123980000732,None,183.59193390002474,None,d,1,0.572517799999332,183.59193390002474,None,None,None,184.1929272999987,None,,,,,,,,,,,,,,,,,,,,,11035,2,1,2024_May_31_1629,stroop_task_switching2,2021.2.3,59.85403994165473,
condition/block_word,instruction/instr_word,instruction/i9,红,white,d,square,word_single,单词,0.18345028784879092,,,,,,,,,,0,1,1,1,0,0,0,0,0,5,5,5,,,,,,,,,,,,,,,,,,,,,,,,,,,,,,,,,,,185.19414740000502,185.39654270000756,185.37784980001743,185.67870160000166,185.67870160000166,None,186.17947750000167,None,d,1,0.6019154000096023,186.17947750000167,None,None,None,186.79680609999923,None,,,,,,,,,,,,,,,,,,,,,11035,2,1,2024_May_31_1629,stroop_task_switching2,2021.2.3,59.85403994165473,
condition/block_word,instruction/instr_word,instruction/i9,蓝,white,f,square,word_single,单词,0.19920386223101294,,,,,,,,,,0,1,1,1,0,0,0,0,0,6,6,6,,,,,,,,,,,,,,,,,,,,,,,,,,,,,,,,,,,187.7983909000177,188.00046219999786,187.98182410001755,188.28337410002132,188.28337410002132,None,188.7830893000064,None,f,1,0.48562660001334734,188.7830893000064,None,None,None,189.30048689999967,None,,,,,,,,,,,,,,,,,,,,,11035,2,1,2024_May_31_1629,stroop_task_switching2,2021.2.3,59.85403994165473,
condition/block_word,instruction/instr_word,instruction/i9,蓝,white,f,square,word_single,单词,0.26360599864925405,,,,,,,,,,0,1,1,1,0,0,0,0,0,7,7,7,,,,,,,,,,,,,,,,,,,,,,,,,,,,,,,,,,,190.30213950001053,190.50393890001578,190.48567059999914,190.78682310000295,190.78682310000295,None,191.2879456000228,None,f,1,0.5887577999965288,191.2879456000228,None,None,None,191.90454050002154,None,,,,,,,,,,,,,,,,,,,,,11035,2,1,2024_May_31_1629,stroop_task_switching2,2021.2.3,59.85403994165473,
condition/block_word,instruction/instr_word,instruction/i9,蓝,white,f,square,word_single,单词,0.358985675745526,,,,,,,,,,0,1,1,1,0,0,0,0,0,8,8,8,,,,,,,,,,,,,,,,,,,,,,,,,,,,,,,,,,,192.90604130001157,193.10785840000608,193.0895444000198,193.3902167000051,193.3902167000051,None,193.89135250000982,None,f,1,0.5213538999960292,193.89135250000982,None,None,None,194.44185300002573,None,,,,,,,,,,,,,,,,,,,,,11035,2,1,2024_May_31_1629,stroop_task_switching2,2021.2.3,59.85403994165473,
condition/block_word,instruction/instr_word,instruction/i9,绿,white,k,square,word_single,单词,0.36496733802487347,,,,,,,,,,0,1,1,1,0,0,0,0,0,9,9,9,,,,,,,,,,,,,,,,,,,,,,,,,,,,,,,,,,,195.44432300000335,195.64481710002292,195.6267684000195,195.9283654000028,195.9283654000028,None,196.42852149999817,None,k,1,0.5605641000147443,196.42852149999817,None,None,None,197.0123040000035,None,,,,,,,,,,,,,,,,,,,,,11035,2,1,2024_May_31_1629,stroop_task_switching2,2021.2.3,59.85403994165473,
condition/block_word,instruction/instr_word,instruction/i9,黄,white,j,square,word_single,单词,0.3743513623756727,,,,,,,,,,0,1,1,1,0,0,0,0,0,10,10,10,,,,,,,,,,,,,,,,,,,,,,,,,,,,,,,,,,,198.01492260000668,198.21408330000122,198.19865299999947,198.49846050000633,198.49846050000633,None,198.9993498000258,None,j,1,0.5338359999877866,198.9993498000258,None,None,None,199.54934470000444,None,,,,,,,,,,,,,,,,,,,,,11035,2,1,2024_May_31_1629,stroop_task_switching2,2021.2.3,59.85403994165473,
condition/block_word,instruction/instr_word,instruction/i9,红,white,d,square,word_single,单词,0.3894803852598544,,,,,,,,,,0,1,1,1,0,0,0,0,0,11,11,11,,,,,,,,,,,,,,,,,,,,,,,,,,,,,,,,,,,200.5509274000069,200.75106850001612,200.73524000000907,201.03690330000245,201.03690330000245,None,201.53570740000578,None,d,1,0.5735762999975123,201.53570740000578,None,None,None,202.13648560000001,None,,,,,,,,,,,,,,,,,,,,,11035,2,1,2024_May_31_1629,stroop_task_switching2,2021.2.3,59.85403994165473,
condition/block_word,instruction/instr_word,instruction/i9,绿,white,k,square,word_single,单词,0.5393759672408067,,,,,,,,,,0,1,1,1,0,0,0,0,0,12,12,12,,,,,,,,,,,,,,,,,,,,,,,,,,,,,,,,,,,203.13809640001273,203.33847410001908,203.32179610000458,203.62292510000407,203.62292510000407,None,204.12301830001525,None,k,1,0.7061514999950305,204.12301830001525,None,None,None,204.85747120002634,None,,,,,,,,,,,,,,,,,,,,,11035,2,1,2024_May_31_1629,stroop_task_switching2,2021.2.3,59.85403994165473,
condition/block_word,instruction/instr_word,instruction/i9,蓝,white,f,square,word_single,单词,0.5995731954831104,,,,,,,,,,0,1,1,1,0,0,0,0,0,13,13,13,,,,,,,,,,,,,,,,,,,,,,,,,,,,,,,,,,,205.8597199000069,206.06011830002535,206.04249800002435,206.3429776999983,206.3429776999983,None,206.84351090001292,None,f,1,0.8900439999997616,206.84351090001292,None,None,None,207.76177890002145,None,,,,,,,,,,,,,,,,,,,,,11035,2,1,2024_May_31_1629,stroop_task_switching2,2021.2.3,59.85403994165473,
condition/block_word,instruction/instr_word,instruction/i9,红,white,d,square,word_single,单词,0.6298674479151414,,,,,,,,,,0,1,1,1,0,0,0,0,0,14,14,14,,,,,,,,,,,,,,,,,,,,,,,,,,,,,,,,,,,208.76496220001718,208.9815787000116,208.946832000016,209.24897870002314,209.24897870002314,None,209.74807520001195,None,d,1,0.48145150000345893,209.74807520001195,None,None,None,210.24886540000443,None,,,,,,,,,,,,,,,,,,,,,11035,2,1,2024_May_31_1629,stroop_task_switching2,2021.2.3,59.85403994165473,
condition/block_word,instruction/instr_word,instruction/i9,红,white,d,square,word_single,单词,0.7389942282348904,,,,,,,,,,0,1,1,1,0,0,0,0,0,15,15,15,,,,,,,,,,,,,,,,,,,,,,,,,,,,,,,,,,,211.2502150000073,211.4523928000126,211.4338199000049,211.7365522000182,211.7365522000182,None,212.23515390002285,None,d,1,0.47451359999831766,212.23515390002285,None,None,None,212.73589180002455,None,,,,,,,,,,,,,,,,,,,,,11035,2,1,2024_May_31_1629,stroop_task_switching2,2021.2.3,59.85403994165473,
condition/block_word,instruction/instr_word,instruction/i9,绿,white,k,square,word_single,单词,0.7550853947239682,,,,,,,,,,0,1,1,1,0,0,0,0,0,16,16,16,,,,,,,,,,,,,,,,,,,,,,,,,,,,,,,,,,,213.73831510002492,213.93871830002172,213.92105210002046,214.2215184000088,214.2215184000088,None,214.72272570000496,None,k,1,1.6908172000257764,214.72272570000496,None,None,None,216.44150730001274,None,,,,,,,,,,,,,,,,,,,,,11035,2,1,2024_May_31_1629,stroop_task_switching2,2021.2.3,59.85403994165473,
condition/block_word,instruction/instr_word,instruction/i9,绿,white,k,square,word_single,单词,0.8019302780428206,,,,,,,,,,0,1,1,1,0,0,0,0,0,17,17,17,,,,,,,,,,,,,,,,,,,,,,,,,,,,,,,,,,,217.4431281000143,217.6431092999992,217.6275469000102,217.9282115000242,217.9282115000242,None,218.42851640001754,None,k,1,0.7209538999886718,218.42851640001754,None,None,None,219.179028500017,None,,,,,,,,,,,,,,,,,,,,,11035,2,1,2024_May_31_1629,stroop_task_switching2,2021.2.3,59.85403994165473,
condition/block_word,instruction/instr_word,instruction/i9,绿,white,k,square,word_single,单词,0.8110702914095343,,,,,,,,,,0,1,1,1,0,0,0,0,0,18,18,18,,,,,,,,,,,,,,,,,,,,,,,,,,,,,,,,,,,220.18118720001075,220.38155140000163,220.36414910000167,220.66525040002307,220.66525040002307,None,221.1653502000263,None,k,1,0.47217799999634735,221.1653502000263,None,None,None,221.66596660000505,None,,,,,,,,,,,,,,,,,,,,,11035,2,1,2024_May_31_1629,stroop_task_switching2,2021.2.3,59.85403994165473,
condition/block_word,instruction/instr_word,instruction/i9,黄,white,j,square,word_single,单词,0.8176594937590999,,,,,,,,,,0,1,1,1,0,0,0,0,0,19,19,19,,,,,,,,,,,,,,,,,,,,,,,,,,,,,,,,,,,222.668725800002,222.86829090001993,222.8510725000233,223.15157370001543,223.15157370001543,None,223.65238520002458,None,j,1,0.8336865000019316,223.65238520002458,None,None,None,224.5038087000139,None,,,,,,,,,,,,,,,,,,,,,11035,2,1,2024_May_31_1629,stroop_task_switching2,2021.2.3,59.85403994165473,
condition/block_word,instruction/instr_word,instruction/i9,红,white,d,square,word_single,单词,0.8955794421104841,,,,,,,,,,0,1,1,1,0,0,0,0,0,20,20,20,,,,,,,,,,,,,,,,,,,,,,,,,,,,,,,,,,,225.50602870000876,225.70632270001806,225.68919810000807,225.98944910001592,225.98944910001592,None,226.49012420000508,None,d,1,0.49163169998792,226.49012420000508,None,None,None,227.00738390002516,None,,,,,,,,,,,,,,,,,,,,,11035,2,1,2024_May_31_1629,stroop_task_switching2,2021.2.3,59.85403994165473,
condition/block_word,instruction/instr_word,instruction/i9,绿,white,k,square,word_single,单词,0.9113598052474129,,,,,,,,,,0,1,1,1,0,0,0,0,0,21,21,21,,,,,,,,,,,,,,,,,,,,,,,,,,,,,,,,,,,228.0096290000074,228.20918210002128,228.19445680000354,228.51052660000278,228.49509770001168,None,228.99370200000703,None,k,1,0.6442476999945939,228.99370200000703,None,None,None,229.6613389000122,None,,,,,,,,,,,,,,,,,,,,,11035,2,1,2024_May_31_1629,stroop_task_switching2,2021.2.3,59.85403994165473,
condition/block_word,instruction/instr_word,instruction/i9,黄,white,j,square,word_single,单词,0.9215930958042953,,,,,,,,,,0,1,1,1,0,0,0,0,0,22,22,22,,,,,,,,,,,,,,,,,,,,,,,,,,,,,,,,,,,230.66291420001653,230.8639961000008,230.84743780002464,231.14737020002212,231.14737020002212,None,231.64793649999774,None,f,0,0.7025677000056021,231.64793649999774,None,None,None,232.3653415000008,None,,,,,,,,,,,,,,,,,,,,,11035,2,1,2024_May_31_1629,stroop_task_switching2,2021.2.3,59.85403994165473,
condition/block_word,instruction/instr_word,instruction/i9,黄,white,j,square,word_single,单词,0.9493525498837774,,,,,,,,,,0,1,1,1,0,0,0,0,0,23,23,23,,,,,,,,,,,,,,,,,,,,,,,,,,,,,,,,,,,233.3670594000141,233.56801790001919,233.55187240001396,233.8521827000077,233.8521827000077,None,234.3516295000154,None,j,1,0.48636459998670034,234.3516295000154,None,None,None,234.85265960000106,None,,,,,,,,,,,,,,,,,,,,,11035,2,1,2024_May_31_1629,stroop_task_switching2,2021.2.3,59.85403994165473,
condition/block_word,instruction/instr_word,instruction/i9,,,,,,,,,,,,,,,,,0,1,1,1,0,0,0,0,,,,,,,,,,,,,,,,,,,,,,,,,,,,,,,,,,,,,,,,,,,,,,,,,,,,,,,,235.8540685000189,None,space,3.4162650000071153,235.8540685000189,None,,,,,,,,,,,,,,,11035,2,1,2024_May_31_1629,stroop_task_switching2,2021.2.3,59.85403994165473,
condition/block_word,instruction/instr_word,instruction/i9,,,,,,,,,,,,,,,,,0,1,1,1,,,,,,,,,,,,,,,,,,,,,,,,,,,,,,,,,,,,,,,,,,,,,,,,,,,,,,,,,,,,,,,,,,,,,,,,,,,,,,,,11035,2,1,2024_May_31_1629,stroop_task_switching2,2021.2.3,59.85403994165473,
condition/block_mixed,instruction/instr_mixed,instruction/i10,蓝,red,d,diamond,color_mix,颜色,,incompatible,0,,,,,,,,0,2,2,2,0,0,0,0,0,0,0,0,,,,,,,,,,,,,,,,,,,,,239.30936650000513,None,space,4.785225700004958,239.30936650000513,None,245.11903760000132,246.11992850000388,246.11992850000388,247.1231764999975,247.1231764999975,None,244.1344756000035,245.13534280000022,248.1563822000171,248.35732420001295,248.33956300001591,248.6409034000244,248.6409034000244,None,249.1241682000109,None,d,1,1.2101873000210617,249.1241682000109,None,None,None,250.35917490001884,None,,,,,,,,,,,,,,,,,,,,,11035,2,1,2024_May_31_1629,stroop_task_switching2,2021.2.3,59.85403994165473,
condition/block_mixed,instruction/instr_mixed,instruction/i10,绿,yellow,j,diamond,color_mix,颜色,,incompatible,1,,,,,,,,0,2,2,2,0,0,0,0,0,1,1,1,,,,,,,,,,,,,,,,,,,,,,,,,,,,,,,,,,,251.3613390000246,251.56254510002327,251.5444634000014,251.84485780002433,251.84485780002433,None,252.34562020000885,None,j,1,0.9087826000177301,252.34562020000885,None,None,None,253.28050790002453,None,,,,,,,,,,,,,,,,,,,,,11035,2,1,2024_May_31_1629,stroop_task_switching2,2021.2.3,59.85403994165473,
condition/block_mixed,instruction/instr_mixed,instruction/i10,红,green,k,diamond,color_mix,颜色,,incompatible,1,,,,,,,,0,2,2,2,0,0,0,0,0,2,2,2,,,,,,,,,,,,,,,,,,,,,,,,,,,,,,,,,,,254.28226920001907,254.4828383999993,254.4655449000129,254.76806650002254,254.76806650002254,None,255.26655780000146,None,k,1,0.7722037999774329,255.26655780000146,None,None,None,256.06811110000126,None,,,,,,,,,,,,,,,,,,,,,11035,2,1,2024_May_31_1629,stroop_task_switching2,2021.2.3,59.85403994165473,
condition/block_mixed,instruction/instr_mixed,instruction/i10,蓝,red,d,diamond,color_mix,颜色,,incompatible,1,,,,,,,,0,2,2,2,0,0,0,0,0,3,3,3,,,,,,,,,,,,,,,,,,,,,,,,,,,,,,,,,,,257.07025540000177,257.26966879999964,257.25370230001863,257.55385039999965,257.55385039999965,None,258.05414870000095,None,d,1,0.6727265999943484,258.05414870000095,None,None,None,258.75529440000537,None,,,,,,,,,,,,,,,,,,,,,11035,2,1,2024_May_31_1629,stroop_task_switching2,2021.2.3,59.85403994165473,
condition/block_mixed,instruction/instr_mixed,instruction/i10,红,blue,f,diamond,color_mix,颜色,,incompatible,1,,,,,,,,0,2,2,2,0,0,0,0,0,4,4,4,,,,,,,,,,,,,,,,,,,,,,,,,,,,,,,,,,,259.7567033000232,259.95854160000454,259.940433700016,260.24086499999976,260.24086499999976,None,260.74186320000445,None,f,1,1.2007330999767873,260.74186320000445,None,None,None,261.9604224000068,None,,,,,,,,,,,,,,,,,,,,,11035,2,1,2024_May_31_1629,stroop_task_switching2,2021.2.3,59.85403994165473,
condition/block_mixed,instruction/instr_mixed,instruction/i10,红,blue,d,square,color_mix,单词,,incompatible,2,,,,,,,,0,2,2,2,0,0,0,0,0,5,5,5,,,,,,,,,,,,,,,,,,,,,,,,,,,,,,,,,,,262.9615999000089,263.163013900019,263.1451856000058,263.44572760001756,263.44572760001756,None,263.9470327000017,None,d,1,1.916132899990771,263.9470327000017,None,None,None,265.88258700000006,None,,,,,,,,,,,,,,,,,,,,,11035,2,1,2024_May_31_1629,stroop_task_switching2,2021.2.3,59.85403994165473,
condition/block_mixed,instruction/instr_mixed,instruction/i10,红,yellow,j,diamond,color_mix,颜色,,incompatible,2,,,,,,,,0,2,2,2,0,0,0,0,0,6,6,6,,,,,,,,,,,,,,,,,,,,,,,,,,,,,,,,,,,266.8844776000187,267.08485690000816,267.06898370001,267.36824660000275,267.36824660000275,None,267.86908280002535,None,j,1,0.7938709000009112,267.86908280002535,None,None,None,268.68701059999876,None,,,,,,,,,,,,,,,,,,,,,11035,2,1,2024_May_31_1629,stroop_task_switching2,2021.2.3,59.85403994165473,
condition/block_mixed,instruction/instr_mixed,instruction/i10,红,yellow,d,square,color_mix,单词,,incompatible,2,,,,,,,,0,2,2,2,0,0,0,0,0,7,7,7,,,,,,,,,,,,,,,,,,,,,,,,,,,,,,,,,,,269.68910320001305,269.8905441000243,269.8722358000232,270.1745595000102,270.1745595000102,None,270.689933000016,None,d,1,1.0770582999975886,270.689933000016,None,None,None,271.79157430000487,None,,,,,,,,,,,,,,,,,,,,,11035,2,1,2024_May_31_1629,stroop_task_switching2,2021.2.3,59.85403994165473,
condition/block_mixed,instruction/instr_mixed,instruction/i10,绿,blue,k,square,color_mix,单词,,incompatible,1,,,,,,,,0,2,2,2,0,0,0,0,0,8,8,8,,,,,,,,,,,,,,,,,,,,,,,,,,,,,,,,,,,272.7931287000247,272.99427940000896,272.9767131000117,273.2793222000182,273.2793222000182,None,273.7946218000143,None,k,1,0.9882001000223681,273.7946218000143,None,None,None,274.8127427000145,None,,,,,,,,,,,,,,,,,,,,,11035,2,1,2024_May_31_1629,stroop_task_switching2,2021.2.3,59.85403994165473,
condition/block_mixed,instruction/instr_mixed,instruction/i10,蓝,green,k,diamond,color_mix,颜色,,incompatible,2,,,,,,,,0,2,2,2,0,0,0,0,0,9,9,9,,,,,,,,,,,,,,,,,,,,,,,,,,,,,,,,,,,275.814127700025,276.01441870001145,275.9986506999994,276.29932530000224,276.29932530000224,None,276.7992403000244,None,k,1,2.23200459999498,276.7992403000244,None,None,None,279.0527021000162,None,,,,,,,,,,,,,,,,,,,,,11035,2,1,2024_May_31_1629,stroop_task_switching2,2021.2.3,59.85403994165473,
condition/block_mixed,instruction/instr_mixed,instruction/i10,蓝,yellow,f,square,color_mix,单词,,incompatible,2,,,,,,,,0,2,2,2,0,0,0,0,0,10,10,10,,,,,,,,,,,,,,,,,,,,,,,,,,,,,,,,,,,280.05382970001665,280.25518890001695,280.2376981000125,280.53841580002336,280.53841580002336,None,281.03964240002097,None,f,1,0.7757861000136472,281.03964240002097,None,None,None,281.8399340000178,None,,,,,,,,,,,,,,,,,,,,,11035,2,1,2024_May_31_1629,stroop_task_switching2,2021.2.3,59.85403994165473,
condition/block_mixed,instruction/instr_mixed,instruction/i10,蓝,green,f,square,color_mix,单词,,incompatible,1,,,,,,,,0,2,2,2,0,0,0,0,0,11,11,11,,,,,,,,,,,,,,,,,,,,,,,,,,,,,,,,,,,282.8417645000154,283.04252440002165,283.0256993000221,283.3266457999998,283.3266457999998,None,283.82732020001276,None,f,1,0.6840343999792822,283.82732020001276,None,None,None,284.52739280002424,None,,,,,,,,,,,,,,,,,,,,,11035,2,1,2024_May_31_1629,stroop_task_switching2,2021.2.3,59.85403994165473,
condition/block_mixed,instruction/instr_mixed,instruction/i10,绿,yellow,k,square,color_mix,单词,,incompatible,1,,,,,,,,0,2,2,2,0,0,0,0,0,12,12,12,,,,,,,,,,,,,,,,,,,,,,,,,,,,,,,,,,,285.5296834000037,285.73127400001977,285.71259190002456,286.01356930000475,286.01356930000475,None,286.51385880002636,None,k,1,1.070683400001144,286.51385880002636,None,None,None,287.59887470002286,None,,,,,,,,,,,,,,,,,,,,,11035,2,1,2024_May_31_1629,stroop_task_switching2,2021.2.3,59.85403994165473,
condition/block_mixed,instruction/instr_mixed,instruction/i10,绿,blue,f,diamond,color_mix,颜色,,incompatible,2,,,,,,,,0,2,2,2,0,0,0,0,0,13,13,13,,,,,,,,,,,,,,,,,,,,,,,,,,,,,,,,,,,288.6003980000096,288.8006133000017,288.78411810001126,289.08607109999866,289.08607109999866,None,289.5851750000147,None,f,1,0.7982999999949243,289.5851750000147,None,None,None,290.4029969999974,None,,,,,,,,,,,,,,,,,,,,,11035,2,1,2024_May_31_1629,stroop_task_switching2,2021.2.3,59.85403994165473,
condition/block_mixed,instruction/instr_mixed,instruction/i10,黄,red,j,square,color_mix,单词,,incompatible,2,,,,,,,,0,2,2,2,0,0,0,0,0,14,14,14,,,,,,,,,,,,,,,,,,,,,,,,,,,,,,,,,,,291.40436950000003,291.6052110000164,291.58784210000886,291.8899823000247,291.8899823000247,None,292.3893684000068,None,j,1,1.738022200006526,292.3893684000068,None,None,None,294.1417735000141,None,,,,,,,,,,,,,,,,,,,,,11035,2,1,2024_May_31_1629,stroop_task_switching2,2021.2.3,59.85403994165473,
condition/block_mixed,instruction/instr_mixed,instruction/i10,蓝,yellow,j,diamond,color_mix,颜色,,incompatible,2,,,,,,,,0,2,2,2,0,0,0,0,0,15,15,15,,,,,,,,,,,,,,,,,,,,,,,,,,,,,,,,,,,295.14410550001776,295.3440131000243,295.3277967000031,295.62807350000367,295.62807350000367,None,296.1290178000054,None,j,1,0.7509542999905534,296.1290178000054,None,None,None,296.8959845000063,None,,,,,,,,,,,,,,,,,,,,,11035,2,1,2024_May_31_1629,stroop_task_switching2,2021.2.3,59.85403994165473,
condition/block_mixed,instruction/instr_mixed,instruction/i10,黄,red,d,diamond,color_mix,颜色,,incompatible,1,,,,,,,,0,2,2,2,0,0,0,0,0,16,16,16,,,,,,,,,,,,,,,,,,,,,,,,,,,,,,,,,,,297.8984526999993,298.0980361000111,298.0818103000056,298.38159790000645,298.38159790000645,None,298.88304140002583,None,d,1,1.1246510999917518,298.88304140002583,None,None,None,300.0341679000121,None,,,,,,,,,,,,,,,,,,,,,11035,2,1,2024_May_31_1629,stroop_task_switching2,2021.2.3,59.85403994165473,
condition/block_mixed,instruction/instr_mixed,instruction/i10,绿,red,k,square,color_mix,单词,,incompatible,2,,,,,,,,0,2,2,2,0,0,0,0,0,17,17,17,,,,,,,,,,,,,,,,,,,,,,,,,,,,,,,,,,,301.03567640000256,301.23713240001234,301.2192100000102,301.5197921000072,301.5197921000072,None,302.0205604000075,None,k,1,0.95531530000153,302.0205604000075,None,None,None,303.0053918000194,None,,,,,,,,,,,,,,,,,,,,,11035,2,1,2024_May_31_1629,stroop_task_switching2,2021.2.3,59.85403994165473,
condition/block_mixed,instruction/instr_mixed,instruction/i10,红,green,d,square,color_mix,单词,,incompatible,1,,,,,,,,0,2,2,2,0,0,0,0,0,18,18,18,,,,,,,,,,,,,,,,,,,,,,,,,,,,,,,,,,,304.00695940002333,304.20722180002485,304.19293160000234,304.5075478000217,304.49149710001075,None,304.9917702000239,None,d,1,1.0009226000111084,304.9917702000239,None,None,None,306.0099184999999,None,,,,,,,,,,,,,,,,,,,,,11035,2,1,2024_May_31_1629,stroop_task_switching2,2021.2.3,59.85403994165473,
condition/block_mixed,instruction/instr_mixed,instruction/i10,黄,blue,f,diamond,color_mix,颜色,,incompatible,2,,,,,,,,0,2,2,2,0,0,0,0,0,19,19,19,,,,,,,,,,,,,,,,,,,,,,,,,,,,,,,,,,,307.01122060001944,307.2121339000005,307.1958709000028,307.49628820002545,307.49628820002545,None,307.99612799999886,None,f,1,0.7559200999967288,307.99612799999886,None,None,None,308.78078780000214,None,,,,,,,,,,,,,,,,,,,,,11035,2,1,2024_May_31_1629,stroop_task_switching2,2021.2.3,59.85403994165473,
condition/block_mixed,instruction/instr_mixed,instruction/i10,黄,green,k,diamond,color_mix,颜色,,incompatible,1,,,,,,,,0,2,2,2,0,0,0,0,0,20,20,20,,,,,,,,,,,,,,,,,,,,,,,,,,,,,,,,,,,309.78216729999986,309.98307010001736,309.96567910001613,310.2672829000221,310.2672829000221,None,310.76727860001847,None,k,1,0.7288881999847945,310.76727860001847,None,None,None,311.5183575999981,None,,,,,,,,,,,,,,,,,,,,,11035,2,1,2024_May_31_1629,stroop_task_switching2,2021.2.3,59.85403994165473,
condition/block_mixed,instruction/instr_mixed,instruction/i10,黄,green,j,square,color_mix,单词,,incompatible,2,,,,,,,,0,2,2,2,0,0,0,0,0,21,21,21,,,,,,,,,,,,,,,,,,,,,,,,,,,,,,,,,,,312.5205910000077,312.7198757000151,312.70534730001236,313.0050095000188,313.0050095000188,None,313.5045565000037,None,j,1,0.9998113999899942,313.5045565000037,None,None,None,314.52250730001833,None,,,,,,,,,,,,,,,,,,,,,11035,2,1,2024_May_31_1629,stroop_task_switching2,2021.2.3,59.85403994165473,
condition/block_mixed,instruction/instr_mixed,instruction/i10,黄,blue,j,square,color_mix,单词,,incompatible,1,,,,,,,,0,2,2,2,0,0,0,0,0,22,22,22,,,,,,,,,,,,,,,,,,,,,,,,,,,,,,,,,,,315.524281400023,315.72493270001723,315.70831730001373,316.0088877000089,316.0088877000089,None,316.50890730001265,None,j,1,0.6192113000142854,316.50890730001265,None,None,None,317.16001459999825,None,,,,,,,,,,,,,,,,,,,,,11035,2,1,2024_May_31_1629,stroop_task_switching2,2021.2.3,59.85403994165473,
condition/block_mixed,instruction/instr_mixed,instruction/i10,蓝,red,f,square,color_mix,单词,,incompatible,1,,,,,,,,0,2,2,2,0,0,0,0,0,23,23,23,,,,,,,,,,,,,,,,,,,,,,,,,,,,,,,,,,,318.1615498000174,318.3628349000064,318.3452058999974,318.6458688999992,318.6458688999992,None,319.1463175000099,None,f,1,0.9657478999870364,319.1463175000099,None,None,None,320.13125380000565,None,,,,,,,,,,,,,,,,,,,,,11035,2,1,2024_May_31_1629,stroop_task_switching2,2021.2.3,59.85403994165473,
condition/block_mixed,instruction/instr_mixed,instruction/i10,绿,red,d,diamond,color_mix,颜色,,incompatible,2,,,,,,,,0,2,2,2,0,0,0,0,0,24,24,24,,,,,,,,,,,,,,,,,,,,,,,,,,,,,,,,,,,321.13271510001505,321.3330222000077,321.31647000001976,321.6169401000079,321.6169401000079,None,322.1175422000233,None,d,1,0.5868712000083178,322.1175422000233,None,None,None,322.7363543000247,None,,,,,,,,,,,,,,,,,,,,,11035,2,1,2024_May_31_1629,stroop_task_switching2,2021.2.3,59.85403994165473,
condition/block_mixed,instruction/instr_mixed,instruction/i10,绿,green,k,diamond,color_mix,颜色,,compatible,1,,,,,,,,0,2,2,2,0,0,0,0,0,25,25,25,,,,,,,,,,,,,,,,,,,,,,,,,,,,,,,,,,,323.73673630002304,323.93691129999934,323.9215035000234,324.2214120000135,324.2214120000135,None,324.7218266999989,None,k,1,1.3347443000238854,324.7218266999989,None,None,None,326.07359920002636,None,,,,,,,,,,,,,,,,,,,,,11035,2,1,2024_May_31_1629,stroop_task_switching2,2021.2.3,59.85403994165473,
condition/block_mixed,instruction/instr_mixed,instruction/i10,蓝,blue,f,diamond,color_mix,颜色,,compatible,1,,,,,,,,0,2,2,2,0,0,0,0,0,26,26,26,,,,,,,,,,,,,,,,,,,,,,,,,,,,,,,,,,,327.0750143000041,327.2768193000229,327.25873990001855,327.55927789999987,327.55927789999987,None,328.06007040000986,None,f,1,0.8526583000202663,328.06007040000986,None,None,None,328.92781780002406,None,,,,,,,,,,,,,,,,,,,,,11035,2,1,2024_May_31_1629,stroop_task_switching2,2021.2.3,59.85403994165473,
condition/block_mixed,instruction/instr_mixed,instruction/i10,绿,green,k,square,color_mix,单词,,compatible,2,,,,,,,,0,2,2,2,0,0,0,0,0,27,27,27,,,,,,,,,,,,,,,,,,,,,,,,,,,,,,,,,,,329.9302003000048,330.1311678000202,330.11285810000845,330.41341970002395,330.41341970002395,None,330.91402280001785,None,k,1,1.5590415000042412,330.91402280001785,None,None,None,332.4999208000081,None,,,,,,,,,,,,,,,,,,,,,11035,2,1,2024_May_31_1629,stroop_task_switching2,2021.2.3,59.85403994165473,
condition/block_mixed,instruction/instr_mixed,instruction/i10,绿,green,k,square,color_mix,单词,,compatible,1,,,,,,,,0,2,2,2,0,0,0,0,0,28,28,28,,,,,,,,,,,,,,,,,,,,,,,,,,,,,,,,,,,333.50134030001936,333.7022378000256,333.68568980001146,333.9852665000071,333.9852665000071,None,334.48608400000376,None,k,1,0.7308726999908686,334.48608400000376,None,None,None,335.23733160001575,None,,,,,,,,,,,,,,,,,,,,,11035,2,1,2024_May_31_1629,stroop_task_switching2,2021.2.3,59.85403994165473,
condition/block_mixed,instruction/instr_mixed,instruction/i10,蓝,blue,f,square,color_mix,单词,,compatible,1,,,,,,,,0,2,2,2,0,0,0,0,0,29,29,29,,,,,,,,,,,,,,,,,,,,,,,,,,,,,,,,,,,336.23888550000265,336.44030270000803,336.4222680000239,336.72270400001435,336.72270400001435,None,337.22350860000006,None,f,1,0.7294267000106629,337.22350860000006,None,None,None,337.97480980001274,None,,,,,,,,,,,,,,,,,,,,,11035,2,1,2024_May_31_1629,stroop_task_switching2,2021.2.3,59.85403994165473,
condition/block_mixed,instruction/instr_mixed,instruction/i10,黄,yellow,j,diamond,color_mix,颜色,,compatible,2,,,,,,,,0,2,2,2,0,0,0,0,0,30,30,30,,,,,,,,,,,,,,,,,,,,,,,,,,,,,,,,,,,338.9769627000205,339.1780717000074,339.1600065000239,339.4627873999998,339.4627873999998,None,339.9790424000239,None,j,1,0.757878799980972,339.9790424000239,None,None,None,340.76379180001095,None,,,,,,,,,,,,,,,,,,,,,11035,2,1,2024_May_31_1629,stroop_task_switching2,2021.2.3,59.85403994165473,
condition/block_mixed,instruction/instr_mixed,instruction/i10,绿,green,k,square,color_mix,单词,,compatible,2,,,,,,,,0,2,2,2,0,0,0,0,0,31,31,31,,,,,,,,,,,,,,,,,,,,,,,,,,,,,,,,,,,341.7640532000223,341.9640042000101,341.9474423000065,342.2479822000023,342.2479822000023,None,342.74946839999757,None,k,1,1.300194500014186,342.74946839999757,None,None,None,344.0672334000119,None,,,,,,,,,,,,,,,,,,,,,11035,2,1,2024_May_31_1629,stroop_task_switching2,2021.2.3,59.85403994165473,
condition/block_mixed,instruction/instr_mixed,instruction/i10,黄,yellow,j,square,color_mix,单词,,compatible,1,,,,,,,,0,2,2,2,0,0,0,0,0,32,32,32,,,,,,,,,,,,,,,,,,,,,,,,,,,,,,,,,,,345.06897480000043,345.26957900001435,345.25247070001205,345.55296450000606,345.55296450000606,None,346.05364389999886,None,j,1,0.8679108000069391,346.05364389999886,None,None,None,346.93842510000104,None,,,,,,,,,,,,,,,,,,,,,11035,2,1,2024_May_31_1629,stroop_task_switching2,2021.2.3,59.85403994165473,
condition/block_mixed,instruction/instr_mixed,instruction/i10,绿,green,k,diamond,color_mix,颜色,,compatible,2,,,,,,,,0,2,2,2,0,0,0,0,0,33,33,33,,,,,,,,,,,,,,,,,,,,,,,,,,,,,,,,,,,347.9405579000013,348.1414853000024,348.12341050000396,348.42465070000617,348.42465070000617,None,348.9245347000251,None,k,1,0.8204367999860551,348.9245347000251,None,None,None,349.77572370000416,None,,,,,,,,,,,,,,,,,,,,,11035,2,1,2024_May_31_1629,stroop_task_switching2,2021.2.3,59.85403994165473,
condition/block_mixed,instruction/instr_mixed,instruction/i10,红,red,d,square,color_mix,单词,,compatible,2,,,,,,,,0,2,2,2,0,0,0,0,0,34,34,34,,,,,,,,,,,,,,,,,,,,,,,,,,,,,,,,,,,350.7775248000107,350.9777581000235,350.9609631000203,351.26193160002003,351.26193160002003,None,351.7623389000073,None,d,1,1.031045699986862,351.7623389000073,None,None,None,352.8137934000115,None,,,,,,,,,,,,,,,,,,,,,11035,2,1,2024_May_31_1629,stroop_task_switching2,2021.2.3,59.85403994165473,
condition/block_mixed,instruction/instr_mixed,instruction/i10,黄,yellow,j,square,color_mix,单词,,compatible,1,,,,,,,,0,2,2,2,0,0,0,0,0,35,35,35,,,,,,,,,,,,,,,,,,,,,,,,,,,,,,,,,,,353.8152861999988,354.0164591000066,353.9995594000211,354.30024010001216,354.30024010001216,None,354.80095060000895,None,j,1,0.7923902999900747,354.80095060000895,None,None,None,355.617756200023,None,,,,,,,,,,,,,,,,,,,,,11035,2,1,2024_May_31_1629,stroop_task_switching2,2021.2.3,59.85403994165473,
condition/block_mixed,instruction/instr_mixed,instruction/i10,绿,green,k,diamond,color_mix,颜色,,compatible,2,,,,,,,,0,2,2,2,0,0,0,0,0,36,36,36,,,,,,,,,,,,,,,,,,,,,,,,,,,,,,,,,,,356.6194379000226,356.8199299000262,356.8033267999999,357.103497300006,357.103497300006,None,357.6042798999988,None,k,1,0.8932832000136841,357.6042798999988,None,None,None,358.52230490001966,None,,,,,,,,,,,,,,,,,,,,,11035,2,1,2024_May_31_1629,stroop_task_switching2,2021.2.3,59.85403994165473,
condition/block_mixed,instruction/instr_mixed,instruction/i10,蓝,blue,f,square,color_mix,单词,,compatible,2,,,,,,,,0,2,2,2,0,0,0,0,0,37,37,37,,,,,,,,,,,,,,,,,,,,,,,,,,,,,,,,,,,359.52448469999945,359.7245292000007,359.7074116000149,360.0095605000097,360.0095605000097,None,360.50885450001806,None,f,1,0.8206134999927599,360.50885450001806,None,None,None,361.3598985999997,None,,,,,,,,,,,,,,,,,,,,,11035,2,1,2024_May_31_1629,stroop_task_switching2,2021.2.3,59.85403994165473,
condition/block_mixed,instruction/instr_mixed,instruction/i10,红,red,d,square,color_mix,单词,,compatible,1,,,,,,,,0,2,2,2,0,0,0,0,0,38,38,38,,,,,,,,,,,,,,,,,,,,,,,,,,,,,,,,,,,362.36243610002566,362.56367990002036,362.5467493000033,362.84594830000424,362.84594830000424,None,363.3465108000091,None,d,1,0.5910777999961283,363.3465108000091,None,None,None,363.96427160000894,None,,,,,,,,,,,,,,,,,,,,,11035,2,1,2024_May_31_1629,stroop_task_switching2,2021.2.3,59.85403994165473,
condition/block_mixed,instruction/instr_mixed,instruction/i10,黄,yellow,j,diamond,color_mix,颜色,,compatible,2,,,,,,,,0,2,2,2,0,0,0,0,0,39,39,39,,,,,,,,,,,,,,,,,,,,,,,,,,,,,,,,,,,364.96618310001213,365.16561860000365,365.1489897000138,365.4495828000072,365.4495828000072,None,365.9506034000078,None,j,1,0.6748824999958742,365.9506034000078,None,None,None,366.65155450001475,None,,,,,,,,,,,,,,,,,,,,,11035,2,1,2024_May_31_1629,stroop_task_switching2,2021.2.3,59.85403994165473,
condition/block_mixed,instruction/instr_mixed,instruction/i10,黄,yellow,j,square,color_mix,单词,,compatible,2,,,,,,,,0,2,2,2,0,0,0,0,0,40,40,40,,,,,,,,,,,,,,,,,,,,,,,,,,,,,,,,,,,367.65291720000096,367.8539863000042,367.8368811000255,368.13869990000967,368.13869990000967,None,368.638534800004,None,j,1,0.9793852999864612,368.638534800004,None,None,None,369.6394012000237,None,,,,,,,,,,,,,,,,,,,,,11035,2,1,2024_May_31_1629,stroop_task_switching2,2021.2.3,59.85403994165473,
condition/block_mixed,instruction/instr_mixed,instruction/i10,蓝,blue,f,square,color_mix,单词,,compatible,1,,,,,,,,0,2,2,2,0,0,0,0,0,41,41,41,,,,,,,,,,,,,,,,,,,,,,,,,,,,,,,,,,,370.64146630000323,370.8410456000129,370.82511720000184,371.1248964999977,371.1248964999977,None,371.6255881000252,None,f,1,1.1523130999994464,371.6255881000252,None,None,None,372.793948800012,None,,,,,,,,,,,,,,,,,,,,,11035,2,1,2024_May_31_1629,stroop_task_switching2,2021.2.3,59.85403994165473,
condition/block_mixed,instruction/instr_mixed,instruction/i10,蓝,blue,f,diamond,color_mix,颜色,,compatible,2,,,,,,,,0,2,2,2,0,0,0,0,0,42,42,42,,,,,,,,,,,,,,,,,,,,,,,,,,,,,,,,,,,373.79559439999866,373.99739319999935,373.9791596000141,374.2811035000195,374.2811035000195,None,374.7801328000205,None,f,1,0.7094953999912832,374.7801328000205,None,None,None,375.5148054000165,None,,,,,,,,,,,,,,,,,,,,,11035,2,1,2024_May_31_1629,stroop_task_switching2,2021.2.3,59.85403994165473,
condition/block_mixed,instruction/instr_mixed,instruction/i10,黄,yellow,j,diamond,color_mix,颜色,,compatible,1,,,,,,,,0,2,2,2,0,0,0,0,0,43,43,43,,,,,,,,,,,,,,,,,,,,,,,,,,,,,,,,,,,376.5161241000169,376.71797860000515,376.69987940002466,377.00048909999896,377.00048909999896,None,377.50103169999784,None,j,1,0.6461168999958318,377.50103169999784,None,None,None,378.168625100021,None,,,,,,,,,,,,,,,,,,,,,11035,2,1,2024_May_31_1629,stroop_task_switching2,2021.2.3,59.85403994165473,
condition/block_mixed,instruction/instr_mixed,instruction/i10,红,red,d,diamond,color_mix,颜色,,compatible,1,,,,,,,,0,2,2,2,0,0,0,0,0,44,44,44,,,,,,,,,,,,,,,,,,,,,,,,,,,,,,,,,,,379.1703654000012,379.371438400005,379.35381040000357,379.6540891000186,379.6540891000186,None,380.15501580000273,None,d,1,0.7269445999991149,380.15501580000273,None,None,None,380.9060009000241,None,,,,,,,,,,,,,,,,,,,,,11035,2,1,2024_May_31_1629,stroop_task_switching2,2021.2.3,59.85403994165473,
condition/block_mixed,instruction/instr_mixed,instruction/i10,蓝,blue,f,diamond,color_mix,颜色,,compatible,1,,,,,,,,0,2,2,2,0,0,0,0,0,45,45,45,,,,,,,,,,,,,,,,,,,,,,,,,,,,,,,,,,,381.9083400000236,382.107972400001,382.0912892000051,382.391858100018,382.391858100018,None,382.89335650001885,None,f,1,0.9409739999973681,382.89335650001885,None,None,None,383.86132620001445,None,,,,,,,,,,,,,,,,,,,,,11035,2,1,2024_May_31_1629,stroop_task_switching2,2021.2.3,59.85403994165473,
condition/block_mixed,instruction/instr_mixed,instruction/i10,红,red,d,diamond,color_mix,颜色,,compatible,1,,,,,,,,0,2,2,2,0,0,0,0,0,46,46,46,,,,,,,,,,,,,,,,,,,,,,,,,,,,,,,,,,,384.86210600001505,385.0625450000225,385.04657420000876,385.3461249000102,385.3461249000102,None,385.84870910001337,None,d,1,0.5778807000024244,385.84870910001337,None,None,None,386.44779770000605,None,,,,,,,,,,,,,,,,,,,,,11035,2,1,2024_May_31_1629,stroop_task_switching2,2021.2.3,59.85403994165473,
condition/block_mixed,instruction/instr_mixed,instruction/i10,红,red,d,square,color_mix,单词,,compatible,2,,,,,,,,0,2,2,2,0,0,0,0,0,47,47,47,,,,,,,,,,,,,,,,,,,,,,,,,,,,,,,,,,,387.44970270001795,387.6506255000131,387.6329416000226,387.9337977000105,387.9337977000105,None,388.43415200000163,None,d,1,0.5681527000269853,388.43415200000163,None,None,None,389.0185427000106,None,,,,,,,,,,,,,,,,,,,,,11035,2,1,2024_May_31_1629,stroop_task_switching2,2021.2.3,59.85403994165473,
condition/block_mixed,instruction/instr_mixed,instruction/i10,红,red,d,diamond,color_mix,颜色,,compatible,2,,,,,,,,0,2,2,2,0,0,0,0,0,48,48,48,,,,,,,,,,,,,,,,,,,,,,,,,,,,,,,,,,,390.02006700000493,390.22037910000654,390.20410410000477,390.50438430000213,390.50438430000213,None,391.00479820001055,None,d,1,0.5819271000218578,391.00479820001055,None,None,None,391.6055598000239,None,,,,,,,,,,,,,,,,,,,,,11035,2,1,2024_May_31_1629,stroop_task_switching2,2021.2.3,59.85403994165473,
condition/block_mixed,instruction/instr_mixed,instruction/i10,,,,,,,,,,,,,,,,,0,2,2,2,0,0,0,0,,,,,,,,,,,,,,,,,,,,,,,,,,,,,,,,,,,,,,,,,,,,,,,,,,,,,,,,392.60697780002374,None,space,2.307574599981308,392.60697780002374,None,,,,,,,,,,,,,,,11035,2,1,2024_May_31_1629,stroop_task_switching2,2021.2.3,59.85403994165473,
condition/block_mixed,instruction/instr_mixed,instruction/i10,,,,,,,,,,,,,,,,,0,2,2,2,,,,,,,,,,,,,,,,,,,,,,,,,,,,,,,,,,,,,,,,,,,,,,,,,,,,,,,,,,,,,,,,,,,,,,,,,,,,,,,,11035,2,1,2024_May_31_1629,stroop_task_switching2,2021.2.3,59.85403994165473,
,,,红,red,d,square,color_mix,单词,,compatible,0,block_switch1,instruction/ready_test.png,instruction/i11.png,,,,,,,,,,,,,,,,,0,0,0,0,0,0,0,0,,,,,,,,,,,,,,,,,,,403.72426899999846,404.72595150000416,404.72595150000416,405.72709900001064,405.72709900001064,None,402.739398500009,403.7418977000052,406.7627293000114,406.96227730001556,406.94618450000416,407.24603950002347,407.24603950002347,None,407.74777410001843,None,d,1,0.5348550000053365,407.74777410001843,None,None,None,,,,,,,,,394.9601407000155,None,space,7.754568799980916,394.9601407000155,None,,,,,,,,,11035,2,1,2024_May_31_1629,stroop_task_switching2,2021.2.3,59.85403994165473,
,,,绿,green,k,diamond,color_mix,颜色,,compatible,2,block_switch1,instruction/ready_test.png,instruction/i11.png,,,,,,,,,,,,,,,,,0,0,0,0,0,1,1,1,,,,,,,,,,,,,,,,,,,,,,,,,,,408.3140291000018,408.5158733999997,408.4978885000164,408.80021400001715,408.80021400001715,None,409.29906660001143,None,k,1,0.8398796999827027,409.29906660001143,None,None,None,,,,,,,,,,,,,,,,,,,,,,,11035,2,1,2024_May_31_1629,stroop_task_switching2,2021.2.3,59.85403994165473,
,,,绿,yellow,j,diamond,color_mix,颜色,,incompatible,1,block_switch1,instruction/ready_test.png,instruction/i11.png,,,,,,,,,,,,,,,,,0,0,0,0,0,2,2,2,,,,,,,,,,,,,,,,,,,,,,,,,,,410.1673250000167,410.36697860001004,410.3510644000198,410.6511759000132,410.6511759000132,None,411.15194960002555,None,j,1,0.8268285000231117,411.15194960002555,None,None,None,,,,,,,,,,,,,,,,,,,,,,,11035,2,1,2024_May_31_1629,stroop_task_switching2,2021.2.3,59.85403994165473,
,,,蓝,blue,f,diamond,color_mix,颜色,,compatible,1,block_switch1,instruction/ready_test.png,instruction/i11.png,,,,,,,,,,,,,,,,,0,0,0,0,0,3,3,3,,,,,,,,,,,,,,,,,,,,,,,,,,,412.00308390002465,412.2037387000164,412.1866330000048,412.48865959999966,412.48865959999966,None,412.9888266000198,None,f,1,0.7740527999994811,412.9888266000198,None,None,None,,,,,,,,,,,,,,,,,,,,,,,11035,2,1,2024_May_31_1629,stroop_task_switching2,2021.2.3,59.85403994165473,
,,,绿,green,k,square,color_mix,单词,,compatible,2,block_switch1,instruction/ready_test.png,instruction/i11.png,,,,,,,,,,,,,,,,,0,0,0,0,0,4,4,4,,,,,,,,,,,,,,,,,,,,,,,,,,,413.7892614000011,413.98940680001397,413.97410990000935,414.27317739999853,414.27317739999853,None,414.77387540001655,None,k,1,0.973528400005307,414.77387540001655,None,None,None,,,,,,,,,,,,,,,,,,,,,,,11035,2,1,2024_May_31_1629,stroop_task_switching2,2021.2.3,59.85403994165473,
,,,绿,blue,f,diamond,color_mix,颜色,,incompatible,2,block_switch1,instruction/ready_test.png,instruction/i11.png,,,,,,,,,,,,,,,,,0,0,0,0,0,5,5,5,,,,,,,,,,,,,,,,,,,,,,,,,,,415.77624640002614,415.9758526000078,415.95978170001763,416.2605106999981,416.2605106999981,None,416.76013340000645,None,f,1,0.955161500023678,416.76013340000645,None,None,None,,,,,,,,,,,,,,,,,,,,,,,11035,2,1,2024_May_31_1629,stroop_task_switching2,2021.2.3,59.85403994165473,
,,,黄,red,j,square,color_mix,单词,,incompatible,2,block_switch1,instruction/ready_test.png,instruction/i11.png,,,,,,,,,,,,,,,,,0,0,0,0,0,6,6,6,,,,,,,,,,,,,,,,,,,,,,,,,,,417.74511310001253,417.94540730002336,417.92893940000795,418.23052550002467,418.23052550002467,None,418.73049990000436,None,d,0,0.8006803000171203,418.73049990000436,None,None,None,,,,,,,,,,,,,,,,,,,,,,,11035,2,1,2024_May_31_1629,stroop_task_switching2,2021.2.3,59.85403994165473,
,,,绿,green,k,square,color_mix,单词,,compatible,1,block_switch1,instruction/ready_test.png,instruction/i11.png,,,,,,,,,,,,,,,,,0,0,0,0,0,7,7,7,,,,,,,,,,,,,,,,,,,,,,,,,,,419.5477665000071,419.74815359999775,419.73141350000515,420.03178280001157,420.03178280001157,None,420.53243330001715,None,k,1,1.0706465000112075,420.53243330001715,None,None,None,,,,,,,,,,,,,,,,,,,,,,,11035,2,1,2024_May_31_1629,stroop_task_switching2,2021.2.3,59.85403994165473,
,,,蓝,blue,f,square,color_mix,单词,,compatible,1,block_switch1,instruction/ready_test.png,instruction/i11.png,,,,,,,,,,,,,,,,,0,0,0,0,0,8,8,8,,,,,,,,,,,,,,,,,,,,,,,,,,,421.63420670002233,421.83590610002284,421.81782830000157,422.1194012000051,422.1194012000051,None,422.61929729999974,None,f,1,0.7196582999895327,422.61929729999974,None,None,None,,,,,,,,,,,,,,,,,,,,,,,11035,2,1,2024_May_31_1629,stroop_task_switching2,2021.2.3,59.85403994165473,
,,,红,red,d,diamond,color_mix,颜色,,compatible,2,block_switch1,instruction/ready_test.png,instruction/i11.png,,,,,,,,,,,,,,,,,0,0,0,0,0,9,9,9,,,,,,,,,,,,,,,,,,,,,,,,,,,423.3701093000127,423.5728547000035,423.5539206000103,423.8542745000159,423.8542745000159,None,424.35513690000516,None,d,1,0.7280214999918826,424.35513690000516,None,None,None,,,,,,,,,,,,,,,,,,,,,,,11035,2,1,2024_May_31_1629,stroop_task_switching2,2021.2.3,59.85403994165473,
,,,黄,yellow,j,diamond,color_mix,颜色,,compatible,1,block_switch1,instruction/ready_test.png,instruction/i11.png,,,,,,,,,,,,,,,,,0,0,0,0,0,10,10,10,,,,,,,,,,,,,,,,,,,,,,,,,,,425.1061037000036,425.30633700001636,425.2904511000088,425.5914718999993,425.5914718999993,None,426.09101820000797,None,j,1,0.8160934000043198,426.09101820000797,None,None,None,,,,,,,,,,,,,,,,,,,,,,,11035,2,1,2024_May_31_1629,stroop_task_switching2,2021.2.3,59.85403994165473,
,,,绿,green,k,square,color_mix,单词,,compatible,2,block_switch1,instruction/ready_test.png,instruction/i11.png,,,,,,,,,,,,,,,,,0,0,0,0,0,11,11,11,,,,,,,,,,,,,,,,,,,,,,,,,,,426.9258284000098,427.1258192000096,427.1114347000257,427.4095669000235,427.4095669000235,None,427.91031420000945,None,k,1,0.6449667999986559,427.91031420000945,None,None,None,,,,,,,,,,,,,,,,,,,,,,,11035,2,1,2024_May_31_1629,stroop_task_switching2,2021.2.3,59.85403994165473,
,,,红,red,d,diamond,color_mix,颜色,,compatible,2,block_switch1,instruction/ready_test.png,instruction/i11.png,,,,,,,,,,,,,,,,,0,0,0,0,0,12,12,12,,,,,,,,,,,,,,,,,,,,,,,,,,,428.5780259000021,428.77914570001303,428.7618442000239,429.063539499999,429.063539499999,None,429.5630118000263,None,d,1,0.6161198999907356,429.5630118000263,None,None,None,,,,,,,,,,,,,,,,,,,,,,,11035,2,1,2024_May_31_1629,stroop_task_switching2,2021.2.3,59.85403994165473,
,,,红,red,d,diamond,color_mix,颜色,,compatible,1,block_switch1,instruction/ready_test.png,instruction/i11.png,,,,,,,,,,,,,,,,,0,0,0,0,0,13,13,13,,,,,,,,,,,,,,,,,,,,,,,,,,,430.1972289000114,430.3991058000247,430.3808640000061,430.68250799999805,430.68250799999805,None,431.1823513999989,None,d,1,0.4450825999956578,431.1823513999989,None,None,None,,,,,,,,,,,,,,,,,,,,,,,11035,2,1,2024_May_31_1629,stroop_task_switching2,2021.2.3,59.85403994165473,
,,,黄,yellow,j,square,color_mix,单词,,compatible,2,block_switch1,instruction/ready_test.png,instruction/i11.png,,,,,,,,,,,,,,,,,0,0,0,0,0,14,14,14,,,,,,,,,,,,,,,,,,,,,,,,,,,431.6494504000002,431.8512347000069,431.83295999999973,432.1347757000185,432.1347757000185,None,432.63506930001313,None,j,1,1.6482672000129241,432.63506930001313,None,None,None,,,,,,,,,,,,,,,,,,,,,,,11035,2,1,2024_May_31_1629,stroop_task_switching2,2021.2.3,59.85403994165473,
,,,红,green,k,diamond,color_mix,颜色,,incompatible,2,block_switch1,instruction/ready_test.png,instruction/i11.png,,,,,,,,,,,,,,,,,0,0,0,0,0,15,15,15,,,,,,,,,,,,,,,,,,,,,,,,,,,434.3033008000057,434.5043133000145,434.487886900024,434.78807430001325,434.78807430001325,None,435.2882700000191,None,k,1,0.9076622999855317,435.2882700000191,None,None,None,,,,,,,,,,,,,,,,,,,,,,,11035,2,1,2024_May_31_1629,stroop_task_switching2,2021.2.3,59.85403994165473,
,,,蓝,red,d,diamond,color_mix,颜色,,incompatible,1,block_switch1,instruction/ready_test.png,instruction/i11.png,,,,,,,,,,,,,,,,,0,0,0,0,0,16,16,16,,,,,,,,,,,,,,,,,,,,,,,,,,,436.2228894,436.42404400001396,436.40735850000056,436.70826470002066,436.70826470002066,None,437.2076131000067,None,d,1,0.8851333999773487,437.2076131000067,None,None,None,,,,,,,,,,,,,,,,,,,,,,,11035,2,1,2024_May_31_1629,stroop_task_switching2,2021.2.3,59.85403994165473,
,,,黄,green,k,diamond,color_mix,颜色,,incompatible,1,block_switch1,instruction/ready_test.png,instruction/i11.png,,,,,,,,,,,,,,,,,0,0,0,0,0,17,17,17,,,,,,,,,,,,,,,,,,,,,,,,,,,438.1089797000168,438.3094261000224,438.294034999999,438.5930496000219,438.5930496000219,None,439.0940473000228,None,k,1,0.7815681000065524,439.0940473000228,None,None,None,,,,,,,,,,,,,,,,,,,,,,,11035,2,1,2024_May_31_1629,stroop_task_switching2,2021.2.3,59.85403994165473,
,,,绿,green,k,diamond,color_mix,颜色,,compatible,1,block_switch1,instruction/ready_test.png,instruction/i11.png,,,,,,,,,,,,,,,,,0,0,0,0,0,18,18,18,,,,,,,,,,,,,,,,,,,,,,,,,,,439.89514710000367,440.0973155000247,440.0796036000247,440.37988180000684,440.37988180000684,None,440.88132179999957,None,k,1,0.6263969999854453,440.88132179999957,None,None,None,,,,,,,,,,,,,,,,,,,,,,,11035,2,1,2024_May_31_1629,stroop_task_switching2,2021.2.3,59.85403994165473,
,,,黄,red,d,diamond,color_mix,颜色,,incompatible,1,block_switch1,instruction/ready_test.png,instruction/i11.png,,,,,,,,,,,,,,,,,0,0,0,0,0,19,19,19,,,,,,,,,,,,,,,,,,,,,,,,,,,441.5311106000154,441.73112170002423,441.7148290000041,442.01500549999764,442.01500549999764,None,442.5157739999995,None,d,1,0.6397702000103891,442.5157739999995,None,None,None,,,,,,,,,,,,,,,,,,,,,,,11035,2,1,2024_May_31_1629,stroop_task_switching2,2021.2.3,59.85403994165473,
,,,绿,yellow,k,square,color_mix,单词,,incompatible,2,block_switch1,instruction/ready_test.png,instruction/i11.png,,,,,,,,,,,,,,,,,0,0,0,0,0,20,20,20,,,,,,,,,,,,,,,,,,,,,,,,,,,443.18332710000686,443.38367680000374,443.36787200000254,443.66772409999976,443.66772409999976,None,444.16816240001936,None,k,1,1.099757599993609,444.16816240001936,None,None,None,,,,,,,,,,,,,,,,,,,,,,,11035,2,1,2024_May_31_1629,stroop_task_switching2,2021.2.3,59.85403994165473,
,,,绿,yellow,j,diamond,color_mix,颜色,,incompatible,2,block_switch1,instruction/ready_test.png,instruction/i11.png,,,,,,,,,,,,,,,,,0,0,0,0,0,21,21,21,,,,,,,,,,,,,,,,,,,,,,,,,,,445.28698250002344,445.48802810002235,445.4700933000131,445.77135620001354,445.77135620001354,None,446.2712792000093,None,k,0,0.9564243000058923,446.2712792000093,None,None,None,,,,,,,,,,,,,,,,,,,,,,,11035,2,1,2024_May_31_1629,stroop_task_switching2,2021.2.3,59.85403994165473,
,,,绿,green,k,square,color_mix,单词,,compatible,2,block_switch1,instruction/ready_test.png,instruction/i11.png,,,,,,,,,,,,,,,,,0,0,0,0,0,22,22,22,,,,,,,,,,,,,,,,,,,,,,,,,,,447.25625950001995,447.45642780000344,447.44048010002007,447.74026300001424,447.74026300001424,None,448.24086089999764,None,k,1,0.6832962000044063,448.24086089999764,None,None,None,,,,,,,,,,,,,,,,,,,,,,,11035,2,1,2024_May_31_1629,stroop_task_switching2,2021.2.3,59.85403994165473,
,,,红,red,d,square,color_mix,单词,,compatible,1,block_switch1,instruction/ready_test.png,instruction/i11.png,,,,,,,,,,,,,,,,,0,0,0,0,0,23,23,23,,,,,,,,,,,,,,,,,,,,,,,,,,,448.94211660002475,449.14349110002513,449.12560140001005,449.42726160000893,449.42726160000893,None,449.92683360000956,None,d,1,1.1809331999975257,449.92683360000956,None,None,None,,,,,,,,,,,,,,,,,,,,,,,11035,2,1,2024_May_31_1629,stroop_task_switching2,2021.2.3,59.85403994165473,
,,,黄,green,j,square,color_mix,单词,,incompatible,1,block_switch1,instruction/ready_test.png,instruction/i11.png,,,,,,,,,,,,,,,,,0,0,0,0,0,24,24,24,,,,,,,,,,,,,,,,,,,,,,,,,,,451.1290331000055,451.3302587000071,451.3122397000261,451.61461640000925,451.61461640000925,None,452.11356930001057,None,j,1,2.11439890001202,452.11356930001057,None,None,None,,,,,,,,,,,,,,,,,,,,,,,11035,2,1,2024_May_31_1629,stroop_task_switching2,2021.2.3,59.85403994165473,
,,,红,blue,d,square,color_mix,单词,,incompatible,1,block_switch1,instruction/ready_test.png,instruction/i11.png,,,,,,,,,,,,,,,,,0,0,0,0,0,25,25,25,,,,,,,,,,,,,,,,,,,,,,,,,,,454.25011990001076,454.4516370000201,454.43467230000533,454.73617870002636,454.73617870002636,None,455.23488040000666,None,d,1,0.6494128000049386,455.23488040000666,None,None,None,,,,,,,,,,,,,,,,,,,,,,,11035,2,1,2024_May_31_1629,stroop_task_switching2,2021.2.3,59.85403994165473,
,,,黄,yellow,j,square,color_mix,单词,,compatible,1,block_switch1,instruction/ready_test.png,instruction/i11.png,,,,,,,,,,,,,,,,,0,0,0,0,0,26,26,26,,,,,,,,,,,,,,,,,,,,,,,,,,,455.90293660000316,456.10357170001953,456.08635860000504,456.386618700024,456.386618700024,None,456.88749839999946,None,j,1,1.2847442000056617,456.88749839999946,None,None,None,,,,,,,,,,,,,,,,,,,,,,,11035,2,1,2024_May_31_1629,stroop_task_switching2,2021.2.3,59.85403994165473,
,,,蓝,green,f,square,color_mix,单词,,incompatible,1,block_switch1,instruction/ready_test.png,instruction/i11.png,,,,,,,,,,,,,,,,,0,0,0,0,0,27,27,27,,,,,,,,,,,,,,,,,,,,,,,,,,,458.18929780001054,458.3914847999986,458.3730569000181,458.67346630000975,458.67346630000975,None,459.1744710000057,None,f,1,1.9659534000093117,459.1744710000057,None,None,None,,,,,,,,,,,,,,,,,,,,,,,11035,2,1,2024_May_31_1629,stroop_task_switching2,2021.2.3,59.85403994165473,
,,,绿,green,k,diamond,color_mix,颜色,,compatible,2,block_switch1,instruction/ready_test.png,instruction/i11.png,,,,,,,,,,,,,,,,,0,0,0,0,0,28,28,28,,,,,,,,,,,,,,,,,,,,,,,,,,,461.16053930000635,461.3608502999996,461.34479850000935,461.64617089999956,461.64617089999956,None,462.1465982000227,None,k,1,0.8979728000122122,462.1465982000227,None,None,None,,,,,,,,,,,,,,,,,,,,,,,11035,2,1,2024_May_31_1629,stroop_task_switching2,2021.2.3,59.85403994165473,
,,,黄,blue,f,diamond,color_mix,颜色,,incompatible,1,block_switch1,instruction/ready_test.png,instruction/i11.png,,,,,,,,,,,,,,,,,0,0,0,0,0,29,29,29,,,,,,,,,,,,,,,,,,,,,,,,,,,463.06465919999755,463.264491000009,463.24840530002257,463.5473816000158,463.5473816000158,None,464.04926090000663,None,f,1,0.7229221999878064,464.04926090000663,None,None,None,,,,,,,,,,,,,,,,,,,,,,,11035,2,1,2024_May_31_1629,stroop_task_switching2,2021.2.3,59.85403994165473,
,,,绿,green,k,diamond,color_mix,颜色,,compatible,1,block_switch1,instruction/ready_test.png,instruction/i11.png,,,,,,,,,,,,,,,,,0,0,0,0,0,30,30,30,,,,,,,,,,,,,,,,,,,,,,,,,,,464.79935970000224,465.00001200000406,464.9827940000105,465.2853914000152,465.2853914000152,None,465.7842621000018,None,k,1,0.8842031999956816,465.7842621000018,None,None,None,,,,,,,,,,,,,,,,,,,,,,,11035,2,1,2024_May_31_1629,stroop_task_switching2,2021.2.3,59.85403994165473,
,,,蓝,blue,f,square,color_mix,单词,,compatible,2,block_switch1,instruction/ready_test.png,instruction/i11.png,,,,,,,,,,,,,,,,,0,0,0,0,0,31,31,31,,,,,,,,,,,,,,,,,,,,,,,,,,,466.6855443000095,466.88574140000856,466.86937030000263,467.16950540000107,467.16950540000107,None,467.6700655000168,None,f,1,0.8943045999913011,467.6700655000168,None,None,None,,,,,,,,,,,,,,,,,,,,,,,11035,2,1,2024_May_31_1629,stroop_task_switching2,2021.2.3,59.85403994165473,
,,,红,red,d,square,color_mix,单词,,compatible,1,block_switch1,instruction/ready_test.png,instruction/i11.png,,,,,,,,,,,,,,,,,0,0,0,0,0,32,32,32,,,,,,,,,,,,,,,,,,,,,,,,,,,468.58913890001713,468.78859170002397,468.7728052000166,469.0731044000131,469.0731044000131,None,469.5732359000249,None,d,1,0.655394300003536,469.5732359000249,None,None,None,,,,,,,,,,,,,,,,,,,,,,,11035,2,1,2024_May_31_1629,stroop_task_switching2,2021.2.3,59.85403994165473,
,,,红,green,d,square,color_mix,单词,,incompatible,1,block_switch1,instruction/ready_test.png,instruction/i11.png,,,,,,,,,,,,,,,,,0,0,0,0,0,33,33,33,,,,,,,,,,,,,,,,,,,,,,,,,,,470.2573312000022,470.45789710001554,470.4419265000033,470.7416576000105,470.7416576000105,None,471.24227790001896,None,k,0,0.8578772000037134,471.24227790001896,None,None,None,,,,,,,,,,,,,,,,,,,,,,,11035,2,1,2024_May_31_1629,stroop_task_switching2,2021.2.3,59.85403994165473,
,,,黄,yellow,j,diamond,color_mix,颜色,,compatible,2,block_switch1,instruction/ready_test.png,instruction/i11.png,,,,,,,,,,,,,,,,,0,0,0,0,0,34,34,34,,,,,,,,,,,,,,,,,,,,,,,,,,,472.1269489999977,472.3283272999979,472.31051910002134,472.6116823000193,472.6116823000193,None,473.11190060002264,None,j,1,1.3011438999965321,473.11190060002264,None,None,None,,,,,,,,,,,,,,,,,,,,,,,11035,2,1,2024_May_31_1629,stroop_task_switching2,2021.2.3,59.85403994165473,
,,,红,green,k,diamond,color_mix,颜色,,incompatible,1,block_switch1,instruction/ready_test.png,instruction/i11.png,,,,,,,,,,,,,,,,,0,0,0,0,0,35,35,35,,,,,,,,,,,,,,,,,,,,,,,,,,,474.43193700001575,474.63078320000204,474.6144628000038,474.91462799999863,474.91462799999863,None,475.4152987000125,None,k,1,0.997527400002582,475.4152987000125,None,None,None,,,,,,,,,,,,,,,,,,,,,,,11035,2,1,2024_May_31_1629,stroop_task_switching2,2021.2.3,59.85403994165473,
,,,黄,yellow,j,square,color_mix,单词,,compatible,2,block_switch1,instruction/ready_test.png,instruction/i11.png,,,,,,,,,,,,,,,,,0,0,0,0,0,36,36,36,,,,,,,,,,,,,,,,,,,,,,,,,,,476.43355070002144,476.63459630002035,476.61709500002326,476.91773580000154,476.91773580000154,None,477.4182206999976,None,j,1,0.8583584000007249,477.4182206999976,None,None,None,,,,,,,,,,,,,,,,,,,,,,,11035,2,1,2024_May_31_1629,stroop_task_switching2,2021.2.3,59.85403994165473,
,,,蓝,blue,f,square,color_mix,单词,,compatible,1,block_switch1,instruction/ready_test.png,instruction/i11.png,,,,,,,,,,,,,,,,,0,0,0,0,0,37,37,37,,,,,,,,,,,,,,,,,,,,,,,,,,,478.302849300002,478.5032388000109,478.486679499998,478.78731929999776,478.78731929999776,None,479.2879329000134,None,f,1,0.9567687000089791,479.2879329000134,None,None,None,,,,,,,,,,,,,,,,,,,,,,,11035,2,1,2024_May_31_1629,stroop_task_switching2,2021.2.3,59.85403994165473,
,,,绿,red,d,diamond,color_mix,颜色,,incompatible,2,block_switch1,instruction/ready_test.png,instruction/i11.png,,,,,,,,,,,,,,,,,0,0,0,0,0,38,38,38,,,,,,,,,,,,,,,,,,,,,,,,,,,480.272783500026,480.4729750000115,480.4566321000166,480.7565572000167,480.7565572000167,None,481.2574935000157,None,d,1,0.7154572999861557,481.2574935000157,None,None,None,,,,,,,,,,,,,,,,,,,,,,,11035,2,1,2024_May_31_1629,stroop_task_switching2,2021.2.3,59.85403994165473,
,,,黄,yellow,j,diamond,color_mix,颜色,,compatible,1,block_switch1,instruction/ready_test.png,instruction/i11.png,,,,,,,,,,,,,,,,,0,0,0,0,0,39,39,39,,,,,,,,,,,,,,,,,,,,,,,,,,,481.9918816999998,482.19222730002366,482.1773124000174,482.4927192000032,482.47603510000044,None,482.97684440002195,None,j,1,0.939853599993512,482.97684440002195,None,None,None,,,,,,,,,,,,,,,,,,,,,,,11035,2,1,2024_May_31_1629,stroop_task_switching2,2021.2.3,59.85403994165473,
,,,红,blue,f,diamond,color_mix,颜色,,incompatible,1,block_switch1,instruction/ready_test.png,instruction/i11.png,,,,,,,,,,,,,,,,,0,0,0,0,0,40,40,40,,,,,,,,,,,,,,,,,,,,,,,,,,,483.9448667000106,484.1459351000085,484.12927640002454,484.4296401000174,484.4296401000174,None,484.9295599000179,None,f,1,0.955364900000859,484.9295599000179,None,None,None,,,,,,,,,,,,,,,,,,,,,,,11035,2,1,2024_May_31_1629,stroop_task_switching2,2021.2.3,59.85403994165473,
,,,绿,blue,k,square,color_mix,单词,,incompatible,2,block_switch1,instruction/ready_test.png,instruction/i11.png,,,,,,,,,,,,,,,,,0,0,0,0,0,41,41,41,,,,,,,,,,,,,,,,,,,,,,,,,,,485.914353900007,486.1159291000222,486.09808070000145,486.39882420000504,486.39882420000504,None,486.89949530002195,None,k,1,1.7614070000126958,486.89949530002195,None,None,None,,,,,,,,,,,,,,,,,,,,,,,11035,2,1,2024_May_31_1629,stroop_task_switching2,2021.2.3,59.85403994165473,
,,,蓝,blue,f,diamond,color_mix,颜色,,compatible,2,block_switch1,instruction/ready_test.png,instruction/i11.png,,,,,,,,,,,,,,,,,0,0,0,0,0,42,42,42,,,,,,,,,,,,,,,,,,,,,,,,,,,488.68529480000143,488.88613749999786,488.8698824000021,489.16975330002606,489.16975330002606,None,489.6716723999998,None,f,1,1.0297278999933042,489.6716723999998,None,None,None,,,,,,,,,,,,,,,,,,,,,,,11035,2,1,2024_May_31_1629,stroop_task_switching2,2021.2.3,59.85403994165473,
,,,红,blue,d,square,color_mix,单词,,incompatible,2,block_switch1,instruction/ready_test.png,instruction/i11.png,,,,,,,,,,,,,,,,,0,0,0,0,0,43,43,43,,,,,,,,,,,,,,,,,,,,,,,,,,,490.7218458999996,490.92213360001915,490.9065848000173,491.20577729999786,491.20577729999786,None,491.7072853000136,None,d,1,0.8176974000234623,491.7072853000136,None,None,None,,,,,,,,,,,,,,,,,,,,,,,11035,2,1,2024_May_31_1629,stroop_task_switching2,2021.2.3,59.85403994165473,
,,,蓝,green,k,diamond,color_mix,颜色,,incompatible,2,block_switch1,instruction/ready_test.png,instruction/i11.png,,,,,,,,,,,,,,,,,0,0,0,0,0,44,44,44,,,,,,,,,,,,,,,,,,,,,,,,,,,492.5411118000047,492.7413850000012,492.72617890001857,493.0250934000069,493.0250934000069,None,493.52667690001545,None,k,1,1.9027934999903664,493.52667690001545,None,None,None,,,,,,,,,,,,,,,,,,,,,,,11035,2,1,2024_May_31_1629,stroop_task_switching2,2021.2.3,59.85403994165473,
,,,黄,yellow,j,square,color_mix,单词,,compatible,2,block_switch1,instruction/ready_test.png,instruction/i11.png,,,,,,,,,,,,,,,,,0,0,0,0,0,45,45,45,,,,,,,,,,,,,,,,,,,,,,,,,,,495.445460500021,495.64782780001406,495.6297707000049,495.9294614000246,495.9294614000246,None,496.4304790000024,None,j,1,0.7904570999962743,496.4304790000024,None,None,None,,,,,,,,,,,,,,,,,,,,,,,11035,2,1,2024_May_31_1629,stroop_task_switching2,2021.2.3,59.85403994165473,
,,,黄,yellow,j,diamond,color_mix,颜色,,compatible,2,block_switch1,instruction/ready_test.png,instruction/i11.png,,,,,,,,,,,,,,,,,0,0,0,0,0,46,46,46,,,,,,,,,,,,,,,,,,,,,,,,,,,497.24813890000223,497.44996500000707,497.4326023000176,497.7322596000158,497.7322596000158,None,498.2339768000238,None,j,1,0.9550937000021804,498.2339768000238,None,None,None,,,,,,,,,,,,,,,,,,,,,,,11035,2,1,2024_May_31_1629,stroop_task_switching2,2021.2.3,59.85403994165473,
,,,绿,red,k,square,color_mix,单词,,incompatible,2,block_switch1,instruction/ready_test.png,instruction/i11.png,,,,,,,,,,,,,,,,,0,0,0,0,0,47,47,47,,,,,,,,,,,,,,,,,,,,,,,,,,,499.2176576000056,499.41853780002566,499.4017308000184,499.7026392999978,499.7026392999978,None,500.2026712000079,None,k,1,0.8025693999952637,500.2026712000079,None,None,None,,,,,,,,,,,,,,,,,,,,,,,11035,2,1,2024_May_31_1629,stroop_task_switching2,2021.2.3,59.85403994165473,
,,,红,red,d,diamond,color_mix,颜色,,compatible,2,block_switch1,instruction/ready_test.png,instruction/i11.png,,,,,,,,,,,,,,,,,0,0,0,0,0,48,48,48,,,,,,,,,,,,,,,,,,,,,,,,,,,501.02067810000153,501.2209326000011,501.2056365000026,501.5060161000001,501.5060161000001,None,502.005401900009,None,d,1,0.7279566000215709,502.005401900009,None,None,None,,,,,,,,,,,,,,,,,,,,,,,11035,2,1,2024_May_31_1629,stroop_task_switching2,2021.2.3,59.85403994165473,
,,,蓝,blue,f,diamond,color_mix,颜色,,compatible,1,block_switch1,instruction/ready_test.png,instruction/i11.png,,,,,,,,,,,,,,,,,0,0,0,0,0,49,49,49,,,,,,,,,,,,,,,,,,,,,,,,,,,502.7564720000082,502.9573819000216,502.9400407000212,503.24051060000784,503.24051060000784,None,503.7413521000126,None,f,1,0.8881952000083402,503.7413521000126,None,None,None,,,,,,,,,,,,,,,,,,,,,,,11035,2,1,2024_May_31_1629,stroop_task_switching2,2021.2.3,59.85403994165473,
,,,黄,yellow,j,diamond,color_mix,颜色,,compatible,1,block_switch1,instruction/ready_test.png,instruction/i11.png,,,,,,,,,,,,,,,,,0,0,0,0,0,50,50,50,,,,,,,,,,,,,,,,,,,,,,,,,,,504.6594818000158,504.8612000000139,504.8430633000098,505.1447579000087,505.1447579000087,None,505.6442239000171,None,j,1,0.8414094000181649,505.6442239000171,None,None,None,,,,,,,,,,,,,,,,,,,,,,,11035,2,1,2024_May_31_1629,stroop_task_switching2,2021.2.3,59.85403994165473,
,,,红,blue,f,diamond,color_mix,颜色,,incompatible,1,block_switch1,instruction/ready_test.png,instruction/i11.png,,,,,,,,,,,,,,,,,0,0,0,0,0,51,51,51,,,,,,,,,,,,,,,,,,,,,,,,,,,506.5122295000183,506.7133667000162,506.69598070002394,506.9971382000076,506.9971382000076,None,507.4982512000133,None,d,0,0.7161132000037469,507.4982512000133,None,None,None,,,,,,,,,,,,,,,,,,,,,,,11035,2,1,2024_May_31_1629,stroop_task_switching2,2021.2.3,59.85403994165473,
,,,蓝,yellow,j,diamond,color_mix,颜色,,incompatible,1,block_switch1,instruction/ready_test.png,instruction/i11.png,,,,,,,,,,,,,,,,,0,0,0,0,0,52,52,52,,,,,,,,,,,,,,,,,,,,,,,,,,,508.23140550000244,508.43261460002395,508.41512499999953,508.7155131000036,508.7155131000036,None,509.21684310000273,None,j,1,0.8363629000086803,509.21684310000273,None,None,None,,,,,,,,,,,,,,,,,,,,,,,11035,2,1,2024_May_31_1629,stroop_task_switching2,2021.2.3,59.85403994165473,
,,,黄,blue,j,square,color_mix,单词,,incompatible,2,block_switch1,instruction/ready_test.png,instruction/i11.png,,,,,,,,,,,,,,,,,0,0,0,0,0,53,53,53,,,,,,,,,,,,,,,,,,,,,,,,,,,510.0841226000048,510.28450600002543,510.268827300024,510.569610800012,510.569610800012,None,511.06937790001393,None,j,1,1.232141300017247,511.06937790001393,None,None,None,,,,,,,,,,,,,,,,,,,,,,,11035,2,1,2024_May_31_1629,stroop_task_switching2,2021.2.3,59.85403994165473,
,,,蓝,blue,f,diamond,color_mix,颜色,,compatible,2,block_switch1,instruction/ready_test.png,instruction/i11.png,,,,,,,,,,,,,,,,,0,0,0,0,0,54,54,54,,,,,,,,,,,,,,,,,,,,,,,,,,,512.3209929000004,512.5218490000116,512.5045085000165,512.8062151000195,512.8062151000195,None,513.3058446000214,None,f,1,1.099486799997976,513.3058446000214,None,None,None,,,,,,,,,,,,,,,,,,,,,,,11035,2,1,2024_May_31_1629,stroop_task_switching2,2021.2.3,59.85403994165473,
,,,红,yellow,d,square,color_mix,单词,,incompatible,2,block_switch1,instruction/ready_test.png,instruction/i11.png,,,,,,,,,,,,,,,,,0,0,0,0,0,55,55,55,,,,,,,,,,,,,,,,,,,,,,,,,,,514.4242148000048,514.6243869000173,514.6091592000157,514.908929199999,514.908929199999,None,515.4091287000047,None,d,1,2.3168240999802947,515.4091287000047,None,None,None,,,,,,,,,,,,,,,,,,,,,,,11035,2,1,2024_May_31_1629,stroop_task_switching2,2021.2.3,59.85403994165473,
,,,蓝,red,f,square,color_mix,单词,,incompatible,1,block_switch1,instruction/ready_test.png,instruction/i11.png,,,,,,,,,,,,,,,,,0,0,0,0,0,56,56,56,,,,,,,,,,,,,,,,,,,,,,,,,,,517.7458525000256,517.9472431000031,517.9295293000177,518.2299243000161,518.2299243000161,None,518.7318726000085,None,f,1,1.3064564000233077,518.7318726000085,None,None,None,,,,,,,,,,,,,,,,,,,,,,,11035,2,1,2024_May_31_1629,stroop_task_switching2,2021.2.3,59.85403994165473,
,,,蓝,blue,f,square,color_mix,单词,,compatible,1,block_switch1,instruction/ready_test.png,instruction/i11.png,,,,,,,,,,,,,,,,,0,0,0,0,0,57,57,57,,,,,,,,,,,,,,,,,,,,,,,,,,,520.0660179000115,520.2671164000058,520.2502443999983,520.5510087000148,520.5510087000148,None,521.0507509000017,None,f,1,0.6433246999804396,521.0507509000017,None,None,None,,,,,,,,,,,,,,,,,,,,,,,11035,2,1,2024_May_31_1629,stroop_task_switching2,2021.2.3,59.85403994165473,
,,,蓝,red,d,diamond,color_mix,颜色,,incompatible,2,block_switch1,instruction/ready_test.png,instruction/i11.png,,,,,,,,,,,,,,,,,0,0,0,0,0,58,58,58,,,,,,,,,,,,,,,,,,,,,,,,,,,521.718469400017,521.920354300004,521.9021788000246,522.2033562000142,522.2033562000142,None,522.7036842000089,None,d,1,0.5099702999868896,522.7036842000089,None,None,None,,,,,,,,,,,,,,,,,,,,,,,11035,2,1,2024_May_31_1629,stroop_task_switching2,2021.2.3,59.85403994165473,
,,,绿,green,k,diamond,color_mix,颜色,,compatible,1,block_switch1,instruction/ready_test.png,instruction/i11.png,,,,,,,,,,,,,,,,,0,0,0,0,0,59,59,59,,,,,,,,,,,,,,,,,,,,,,,,,,,523.2373810000136,523.4385339000146,523.421986900008,523.7214395000192,523.7214395000192,None,524.2223266000219,None,k,1,0.6637246000173036,524.2223266000219,None,None,None,,,,,,,,,,,,,,,,,,,,,,,11035,2,1,2024_May_31_1629,stroop_task_switching2,2021.2.3,59.85403994165473,
,,,蓝,blue,f,diamond,color_mix,颜色,,compatible,1,block_switch1,instruction/ready_test.png,instruction/i11.png,,,,,,,,,,,,,,,,,0,0,0,0,0,60,60,60,,,,,,,,,,,,,,,,,,,,,,,,,,,524.9065691000142,525.1082399000006,525.0908481000224,525.3916060000192,525.3916060000192,None,525.8914062000113,None,j,0,1.210699699993711,525.8914062000113,None,None,None,,,,,,,,,,,,,,,,,,,,,,,11035,2,1,2024_May_31_1629,stroop_task_switching2,2021.2.3,59.85403994165473,
,,,黄,yellow,j,square,color_mix,单词,,compatible,2,block_switch1,instruction/ready_test.png,instruction/i11.png,,,,,,,,,,,,,,,,,0,0,0,0,0,61,61,61,,,,,,,,,,,,,,,,,,,,,,,,,,,527.1265387000167,527.3286819000205,527.3102703000186,527.610766400001,527.610766400001,None,528.1114845999982,None,j,1,1.0787588999955915,528.1114845999982,None,None,None,,,,,,,,,,,,,,,,,,,,,,,11035,2,1,2024_May_31_1629,stroop_task_switching2,2021.2.3,59.85403994165473,
,,,绿,blue,k,square,color_mix,单词,,incompatible,1,block_switch1,instruction/ready_test.png,instruction/i11.png,,,,,,,,,,,,,,,,,0,0,0,0,0,62,62,62,,,,,,,,,,,,,,,,,,,,,,,,,,,529.2131429000001,529.4145525000058,529.3967139000015,529.697987600026,529.697987600026,None,530.1980884000077,None,k,1,1.6559857999964152,530.1980884000077,None,None,None,,,,,,,,,,,,,,,,,,,,,,,11035,2,1,2024_May_31_1629,stroop_task_switching2,2021.2.3,59.85403994165473,
,,,蓝,yellow,f,square,color_mix,单词,,incompatible,1,block_switch1,instruction/ready_test.png,instruction/i11.png,,,,,,,,,,,,,,,,,0,0,0,0,0,63,63,63,,,,,,,,,,,,,,,,,,,,,,,,,,,531.8839264000126,532.0845931000076,532.0671950000105,532.3696289000218,532.3696289000218,None,532.868558200018,None,f,1,2.3054537000134587,532.868558200018,None,None,None,,,,,,,,,,,,,,,,,,,,,,,11035,2,1,2024_May_31_1629,stroop_task_switching2,2021.2.3,59.85403994165473,
,,,黄,yellow,j,diamond,color_mix,颜色,,compatible,2,block_switch1,instruction/ready_test.png,instruction/i11.png,,,,,,,,,,,,,,,,,0,0,0,0,0,64,64,64,,,,,,,,,,,,,,,,,,,,,,,,,,,535.2055255000014,535.4056450000207,535.38977910002,535.689598500001,535.689598500001,None,536.1902752000024,None,j,1,0.695874900004128,536.1902752000024,None,None,None,,,,,,,,,,,,,,,,,,,,,,,11035,2,1,2024_May_31_1629,stroop_task_switching2,2021.2.3,59.85403994165473,
,,,蓝,green,k,diamond,color_mix,颜色,,incompatible,1,block_switch1,instruction/ready_test.png,instruction/i11.png,,,,,,,,,,,,,,,,,0,0,0,0,0,65,65,65,,,,,,,,,,,,,,,,,,,,,,,,,,,536.9080171000096,537.1083195000247,537.0916689000151,537.3945047000016,537.3945047000016,None,537.8936757000047,None,k,1,1.6885973000025842,537.8936757000047,None,None,None,,,,,,,,,,,,,,,,,,,,,,,11035,2,1,2024_May_31_1629,stroop_task_switching2,2021.2.3,59.85403994165473,
,,,红,red,d,diamond,color_mix,颜色,,compatible,1,block_switch1,instruction/ready_test.png,instruction/i11.png,,,,,,,,,,,,,,,,,0,0,0,0,0,66,66,66,,,,,,,,,,,,,,,,,,,,,,,,,,,539.6119521000073,539.8125072000257,539.7970649000199,540.0962393000082,540.0962393000082,None,540.5970353000157,None,d,1,0.5137015999935102,540.5970353000157,None,None,None,,,,,,,,,,,,,,,,,,,,,,,11035,2,1,2024_May_31_1629,stroop_task_switching2,2021.2.3,59.85403994165473,
,,,蓝,yellow,f,square,color_mix,单词,,incompatible,2,block_switch1,instruction/ready_test.png,instruction/i11.png,,,,,,,,,,,,,,,,,0,0,0,0,0,67,67,67,,,,,,,,,,,,,,,,,,,,,,,,,,,541.1309789000079,541.332678900013,541.314661100012,541.6163772,541.6163772,None,542.1159475000168,None,f,1,0.9387545000063255,542.1159475000168,None,None,None,,,,,,,,,,,,,,,,,,,,,,,11035,2,1,2024_May_31_1629,stroop_task_switching2,2021.2.3,59.85403994165473,
,,,红,yellow,d,square,color_mix,单词,,incompatible,1,block_switch1,instruction/ready_test.png,instruction/i11.png,,,,,,,,,,,,,,,,,0,0,0,0,0,68,68,68,,,,,,,,,,,,,,,,,,,,,,,,,,,543.0841988000029,543.285670000012,543.2675923000206,543.5689799000102,543.5689799000102,None,544.068917800003,None,d,1,0.5294546000077389,544.068917800003,None,None,None,,,,,,,,,,,,,,,,,,,,,,,11035,2,1,2024_May_31_1629,stroop_task_switching2,2021.2.3,59.85403994165473,
,,,红,yellow,j,diamond,color_mix,颜色,,incompatible,2,block_switch1,instruction/ready_test.png,instruction/i11.png,,,,,,,,,,,,,,,,,0,0,0,0,0,69,69,69,,,,,,,,,,,,,,,,,,,,,,,,,,,544.6195416999981,544.8206389000115,544.8055931999988,545.1212874000194,545.1037284000195,None,545.6051149000123,None,d,0,0.8814783999987412,545.6051149000123,None,None,None,,,,,,,,,,,,,,,,,,,,,,,11035,2,1,2024_May_31_1629,stroop_task_switching2,2021.2.3,59.85403994165473,
,,,蓝,green,f,square,color_mix,单词,,incompatible,2,block_switch1,instruction/ready_test.png,instruction/i11.png,,,,,,,,,,,,,,,,,0,0,0,0,0,70,70,70,,,,,,,,,,,,,,,,,,,,,,,,,,,546.5059943000088,546.7062717000081,546.6910048999998,547.0068771000078,546.9909549000149,None,547.4904256000009,None,f,1,1.4603021000220906,547.4904256000009,None,None,None,,,,,,,,,,,,,,,,,,,,,,,11035,2,1,2024_May_31_1629,stroop_task_switching2,2021.2.3,59.85403994165473,
,,,绿,yellow,k,square,color_mix,单词,,incompatible,1,block_switch1,instruction/ready_test.png,instruction/i11.png,,,,,,,,,,,,,,,,,0,0,0,0,0,71,71,71,,,,,,,,,,,,,,,,,,,,,,,,,,,548.9764219000062,549.1765874999983,549.160381499998,549.4610990000074,549.4610990000074,None,549.9610342000087,552.9663181000215,None,0,,549.9610342000087,552.9663181000215,552.9489928999974,None,,,,,,,,,,,,,,,,,,,,,,,11035,2,1,2024_May_31_1629,stroop_task_switching2,2021.2.3,59.85403994165473,
,,,蓝,yellow,j,diamond,color_mix,颜色,,incompatible,2,block_switch1,instruction/ready_test.png,instruction/i11.png,,,,,,,,,,,,,,,,,0,0,0,0,0,72,72,72,,,,,,,,,,,,,,,,,,,,,,,,,,,553.7015565000183,553.918359000003,553.8835113000241,554.1841455000103,554.1841455000103,None,554.6849947000155,None,j,1,0.8018317999958526,554.6849947000155,None,None,None,,,,,,,,,,,,,,,,,,,,,,,11035,2,1,2024_May_31_1629,stroop_task_switching2,2021.2.3,59.85403994165473,
,,,红,green,d,square,color_mix,单词,,incompatible,2,block_switch1,instruction/ready_test.png,instruction/i11.png,,,,,,,,,,,,,,,,,0,0,0,0,0,73,73,73,,,,,,,,,,,,,,,,,,,,,,,,,,,555.5030329000147,555.70420930002,555.6864378000028,555.9867889000161,555.9867889000161,None,556.4878808000067,None,d,1,1.4949252999795135,556.4878808000067,None,None,None,,,,,,,,,,,,,,,,,,,,,,,11035,2,1,2024_May_31_1629,stroop_task_switching2,2021.2.3,59.85403994165473,
,,,绿,blue,f,diamond,color_mix,颜色,,incompatible,2,block_switch1,instruction/ready_test.png,instruction/i11.png,,,,,,,,,,,,,,,,,0,0,0,0,0,74,74,74,,,,,,,,,,,,,,,,,,,,,,,,,,,558.006435200019,558.2077791000193,558.1901073000045,558.4905875000113,558.4905875000113,None,558.9913899000094,None,f,1,1.0714943999773823,558.9913899000094,None,None,None,,,,,,,,,,,,,,,,,,,,,,,11035,2,1,2024_May_31_1629,stroop_task_switching2,2021.2.3,59.85403994165473,
,,,红,red,d,square,color_mix,单词,,compatible,2,block_switch1,instruction/ready_test.png,instruction/i11.png,,,,,,,,,,,,,,,,,0,0,0,0,0,75,75,75,,,,,,,,,,,,,,,,,,,,,,,,,,,560.0931343999982,560.2936071000004,560.276697000023,560.5777500999975,560.5777500999975,None,561.0776101000083,None,d,1,1.9131579999811947,561.0776101000083,None,None,None,,,,,,,,,,,,,,,,,,,,,,,11035,2,1,2024_May_31_1629,stroop_task_switching2,2021.2.3,59.85403994165473,
,,,绿,green,k,diamond,color_mix,颜色,,compatible,2,block_switch1,instruction/ready_test.png,instruction/i11.png,,,,,,,,,,,,,,,,,0,0,0,0,0,76,76,76,,,,,,,,,,,,,,,,,,,,,,,,,,,563.0140584000037,563.2144626000081,563.1978065000148,563.4996281000203,563.4996281000203,None,563.9992941000091,None,k,1,1.7037687000120059,563.9992941000091,None,None,None,,,,,,,,,,,,,,,,,,,,,,,11035,2,1,2024_May_31_1629,stroop_task_switching2,2021.2.3,59.85403994165473,
,,,黄,red,j,square,color_mix,单词,,incompatible,2,block_switch1,instruction/ready_test.png,instruction/i11.png,,,,,,,,,,,,,,,,,0,0,0,0,0,77,77,77,,,,,,,,,,,,,,,,,,,,,,,,,,,565.7180029000156,565.9190307000245,565.901801,566.2023849000107,566.2023849000107,None,566.7043093000248,None,d,0,0.8947186000004876,566.7043093000248,None,None,None,,,,,,,,,,,,,,,,,,,,,,,11035,2,1,2024_May_31_1629,stroop_task_switching2,2021.2.3,59.85403994165473,
,,,红,red,d,square,color_mix,单词,,compatible,1,block_switch1,instruction/ready_test.png,instruction/i11.png,,,,,,,,,,,,,,,,,0,0,0,0,0,78,78,78,,,,,,,,,,,,,,,,,,,,,,,,,,,567.6211012999993,567.8213224000065,567.8046168000146,568.1049772000115,568.1049772000115,None,568.6060450000223,None,d,1,0.7851066000002902,568.6060450000223,None,None,None,,,,,,,,,,,,,,,,,,,,,,,11035,2,1,2024_May_31_1629,stroop_task_switching2,2021.2.3,59.85403994165473,
,,,黄,yellow,j,square,color_mix,单词,,compatible,1,block_switch1,instruction/ready_test.png,instruction/i11.png,,,,,,,,,,,,,,,,,0,0,0,0,0,79,79,79,,,,,,,,,,,,,,,,,,,,,,,,,,,569.4070880000072,569.6084281000076,569.5906407000148,569.8918189000105,569.8918189000105,None,570.3917928000155,None,j,1,1.2634159000008367,570.3917928000155,None,None,None,,,,,,,,,,,,,,,,,,,,,,,11035,2,1,2024_May_31_1629,stroop_task_switching2,2021.2.3,59.85403994165473,
,,,红,red,d,diamond,color_mix,颜色,,compatible,2,block_switch1,instruction/ready_test.png,instruction/i11.png,,,,,,,,,,,,,,,,,0,0,0,0,0,80,80,80,,,,,,,,,,,,,,,,,,,,,,,,,,,571.6770955000247,571.8783331000013,571.8605594000255,572.1624587000115,572.1624587000115,None,572.6624568999978,None,d,1,0.8570942000078503,572.6624568999978,None,None,None,,,,,,,,,,,,,,,,,,,,,,,11035,2,1,2024_May_31_1629,stroop_task_switching2,2021.2.3,59.85403994165473,
,,,红,red,d,square,color_mix,单词,,compatible,2,block_switch1,instruction/ready_test.png,instruction/i11.png,,,,,,,,,,,,,,,,,0,0,0,0,0,81,81,81,,,,,,,,,,,,,,,,,,,,,,,,,,,573.5465385999996,573.7473920000193,573.7311182999983,574.0308045000129,574.0308045000129,None,574.5315757000062,None,d,1,1.4439891999936663,574.5315757000062,None,None,None,,,,,,,,,,,,,,,,,,,,,,,11035,2,1,2024_May_31_1629,stroop_task_switching2,2021.2.3,59.85403994165473,
,,,黄,blue,f,diamond,color_mix,颜色,,incompatible,2,block_switch1,instruction/ready_test.png,instruction/i11.png,,,,,,,,,,,,,,,,,0,0,0,0,0,82,82,82,,,,,,,,,,,,,,,,,,,,,,,,,,,576.0003387000179,576.201768400002,576.1839092000155,576.4852128000057,576.4852128000057,None,576.9850984000077,None,f,1,1.054127499985043,576.9850984000077,None,None,None,,,,,,,,,,,,,,,,,,,,,,,11035,2,1,2024_May_31_1629,stroop_task_switching2,2021.2.3,59.85403994165473,
,,,红,yellow,j,diamond,color_mix,颜色,,incompatible,1,block_switch1,instruction/ready_test.png,instruction/i11.png,,,,,,,,,,,,,,,,,0,0,0,0,0,83,83,83,,,,,,,,,,,,,,,,,,,,,,,,,,,578.0701908000046,578.2718879000167,578.2539535000105,578.5544482000114,578.5544482000114,None,579.0548066000047,None,j,1,1.1046359000029042,579.0548066000047,None,None,None,,,,,,,,,,,,,,,,,,,,,,,11035,2,1,2024_May_31_1629,stroop_task_switching2,2021.2.3,59.85403994165473,
,,,黄,red,d,diamond,color_mix,颜色,,incompatible,1,block_switch1,instruction/ready_test.png,instruction/i11.png,,,,,,,,,,,,,,,,,0,0,0,0,0,84,84,84,,,,,,,,,,,,,,,,,,,,,,,,,,,580.1898696999997,580.3905726000085,580.3736363000062,580.6744305000175,580.6744305000175,None,581.1747143000248,None,d,1,2.2332539999915753,581.1747143000248,None,None,None,,,,,,,,,,,,,,,,,,,,,,,11035,2,1,2024_May_31_1629,stroop_task_switching2,2021.2.3,59.85403994165473,
,,,蓝,blue,f,square,color_mix,单词,,compatible,2,block_switch1,instruction/ready_test.png,instruction/i11.png,,,,,,,,,,,,,,,,,0,0,0,0,0,85,85,85,,,,,,,,,,,,,,,,,,,,,,,,,,,583.4279197000142,583.6283427000162,583.6131541000213,583.9123085000028,583.9123085000028,None,584.4129957999976,None,f,1,1.306459800020093,584.4129957999976,None,None,None,,,,,,,,,,,,,,,,,,,,,,,11035,2,1,2024_May_31_1629,stroop_task_switching2,2021.2.3,59.85403994165473,
,,,绿,green,k,square,color_mix,单词,,compatible,1,block_switch1,instruction/ready_test.png,instruction/i11.png,,,,,,,,,,,,,,,,,0,0,0,0,0,86,86,86,,,,,,,,,,,,,,,,,,,,,,,,,,,585.7498229000194,585.9498173000175,585.9324976000062,586.2322913000244,586.2322913000244,None,586.7332874000131,None,k,1,0.6262100000167266,586.7332874000131,None,None,None,,,,,,,,,,,,,,,,,,,,,,,11035,2,1,2024_May_31_1629,stroop_task_switching2,2021.2.3,59.85403994165473,
,,,红,red,d,square,color_mix,单词,,compatible,1,block_switch1,instruction/ready_test.png,instruction/i11.png,,,,,,,,,,,,,,,,,0,0,0,0,0,87,87,87,,,,,,,,,,,,,,,,,,,,,,,,,,,587.3842097000161,587.5853053000174,587.5678527000127,587.8682998000004,587.8682998000004,None,588.3690269000072,None,d,1,0.6947718000155874,588.3690269000072,None,None,None,,,,,,,,,,,,,,,,,,,,,,,11035,2,1,2024_May_31_1629,stroop_task_switching2,2021.2.3,59.85403994165473,
,,,黄,green,k,diamond,color_mix,颜色,,incompatible,2,block_switch1,instruction/ready_test.png,instruction/i11.png,,,,,,,,,,,,,,,,,0,0,0,0,0,88,88,88,,,,,,,,,,,,,,,,,,,,,,,,,,,589.0875069000176,589.2870470000198,589.2708823000139,589.5707626000221,589.5707626000221,None,590.0720528000093,None,k,1,1.7997719999984838,590.0720528000093,None,None,None,,,,,,,,,,,,,,,,,,,,,,,11035,2,1,2024_May_31_1629,stroop_task_switching2,2021.2.3,59.85403994165473,
,,,绿,red,k,square,color_mix,单词,,incompatible,2,block_switch1,instruction/ready_test.png,instruction/i11.png,,,,,,,,,,,,,,,,,0,0,0,0,0,89,89,89,,,,,,,,,,,,,,,,,,,,,,,,,,,591.8911138000258,592.091331100004,592.0760545000085,592.3751682000002,592.3751682000002,None,592.876367000019,None,k,1,0.8275645999819972,592.876367000019,None,None,None,,,,,,,,,,,,,,,,,,,,,,,11035,2,1,2024_May_31_1629,stroop_task_switching2,2021.2.3,59.85403994165473,
,,,黄,green,j,square,color_mix,单词,,incompatible,1,block_switch1,instruction/ready_test.png,instruction/i11.png,,,,,,,,,,,,,,,,,0,0,0,0,0,90,90,90,,,,,,,,,,,,,,,,,,,,,,,,,,,593.727059900004,593.9289212000149,593.9107784000225,594.211715900019,594.211715900019,None,594.712068599998,None,j,1,1.231768400000874,594.712068599998,None,None,None,,,,,,,,,,,,,,,,,,,,,,,11035,2,1,2024_May_31_1629,stroop_task_switching2,2021.2.3,59.85403994165473,
,,,蓝,blue,f,square,color_mix,单词,,compatible,1,block_switch1,instruction/ready_test.png,instruction/i11.png,,,,,,,,,,,,,,,,,0,0,0,0,0,91,91,91,,,,,,,,,,,,,,,,,,,,,,,,,,,595.9638042000006,596.1641496000229,596.1483975000156,596.447782400006,596.447782400006,None,596.9490686000208,None,f,1,1.0990364000026602,596.9490686000208,None,None,None,,,,,,,,,,,,,,,,,,,,,,,11035,2,1,2024_May_31_1629,stroop_task_switching2,2021.2.3,59.85403994165473,
,,,蓝,red,f,square,color_mix,单词,,incompatible,1,block_switch1,instruction/ready_test.png,instruction/i11.png,,,,,,,,,,,,,,,,,0,0,0,0,0,92,92,92,,,,,,,,,,,,,,,,,,,,,,,,,,,598.0670098999981,598.2683271999995,598.2505767000257,598.5522267000051,598.5522267000051,None,599.0518356000248,602.0574830000114,None,0,,599.0518356000248,602.0574830000114,602.0396458000178,None,,,,,,,,,,,,,,,,,,,,,,,11035,2,1,2024_May_31_1629,stroop_task_switching2,2021.2.3,59.85403994165473,
,,,黄,blue,j,square,color_mix,单词,,incompatible,1,block_switch1,instruction/ready_test.png,instruction/i11.png,,,,,,,,,,,,,,,,,0,0,0,0,0,93,93,93,,,,,,,,,,,,,,,,,,,,,,,,,,,602.6571164000197,602.857262400008,602.8407674000191,603.1431150000135,603.1431150000135,None,603.6422266000009,606.6478333999985,None,0,,603.6422266000009,606.6478333999985,606.6298667000083,None,,,,,,,,,,,,,,,,,,,,,,,11035,2,1,2024_May_31_1629,stroop_task_switching2,2021.2.3,59.85403994165473,
,,,绿,red,d,diamond,color_mix,颜色,,incompatible,2,block_switch1,instruction/ready_test.png,instruction/i11.png,,,,,,,,,,,,,,,,,0,0,0,0,0,94,94,94,,,,,,,,,,,,,,,,,,,,,,,,,,,607.2140158000111,607.4144519000256,607.3976542000019,607.6985421999998,607.6985421999998,None,608.1988981000031,None,d,1,2.025328999996418,608.1988981000031,None,None,None,,,,,,,,,,,,,,,,,,,,,,,11035,2,1,2024_May_31_1629,stroop_task_switching2,2021.2.3,59.85403994165473,
,,,蓝,blue,f,diamond,color_mix,颜色,,compatible,1,block_switch1,instruction/ready_test.png,instruction/i11.png,,,,,,,,,,,,,,,,,0,0,0,0,0,95,95,95,,,,,,,,,,,,,,,,,,,,,,,,,,,610.2520229000074,610.4538469000254,610.4358107000007,610.7367718000023,610.7367718000023,None,611.2369089999993,None,f,1,1.419280300004175,611.2369089999993,None,None,None,,,,,,,,,,,,,,,,,,,,,,,11035,2,1,2024_May_31_1629,stroop_task_switching2,2021.2.3,59.85403994165473,
,,,绿,green,k,square,color_mix,单词,,compatible,2,block_switch1,instruction/ready_test.png,instruction/i11.png,,,,,,,,,,,,,,,,,0,0,0,0,0,96,96,96,,,,,,,,,,,,,,,,,,,,,,,,,,,612.6721611000248,612.8725710000144,612.8558581000252,613.156111600023,613.156111600023,None,613.6585898000048,None,k,1,1.1022099999827333,613.6585898000048,None,None,None,,,,,,,,,,,,,,,,,,,,,,,11035,2,1,2024_May_31_1629,stroop_task_switching2,2021.2.3,59.85403994165473,
,,,,,,,,,,,,block_switch1,instruction/ready_test.png,instruction/i11.png,,,,,,,,,,,,,,,,,0,0,0,0,,,,,,,,,,,,,,,,,,,,,,,,,,,,,,,,,,,,,,,,,,,,,,,,,,,,,,,,,,,,614.7753227000067,None,space,1.8178523999813478,614.7753227000067,None,,,11035,2,1,2024_May_31_1629,stroop_task_switching2,2021.2.3,59.85403994165473,
,,,蓝,blue,f,square,color_mix,单词,,compatible,0,block_switch2,instruction/ready_2.png,instruction/i12.png,,,,,,,,,,,,,,,,,0,1,1,1,0,0,0,0,,,,,,,,,,,,,,,,,,,620.7345095000055,621.7370461000246,621.7370461000246,622.7379204000172,622.7379204000172,None,619.7494907000219,620.7523054000048,623.7551098999975,623.9559358000115,623.9559358000115,624.2564848000184,624.2413251000107,None,624.740481100016,None,f,1,1.076274299994111,624.740481100016,None,None,None,,,,,,,,,616.6284159000206,None,space,3.10004520000075,616.6284159000206,None,,,,,,,,,11035,2,1,2024_May_31_1629,stroop_task_switching2,2021.2.3,59.85403994165473,
,,,黄,red,d,diamond,color_mix,颜色,,incompatible,2,block_switch2,instruction/ready_2.png,instruction/i12.png,,,,,,,,,,,,,,,,,0,1,1,1,0,1,1,1,,,,,,,,,,,,,,,,,,,,,,,,,,,625.8418562000152,626.0425136999984,626.027405300003,626.327368600003,626.327368600003,None,626.8270193000208,None,d,1,0.6139366000134032,626.8270193000208,None,None,None,,,,,,,,,,,,,,,,,,,,,,,11035,2,1,2024_May_31_1629,stroop_task_switching2,2021.2.3,59.85403994165473,
,,,蓝,green,k,diamond,color_mix,颜色,,incompatible,1,block_switch2,instruction/ready_2.png,instruction/i12.png,,,,,,,,,,,,,,,,,0,1,1,1,0,2,2,2,,,,,,,,,,,,,,,,,,,,,,,,,,,627.4614648999996,627.6627158000192,627.6464905000175,627.9460108000203,627.9460108000203,None,628.447152800014,None,j,0,1.4657694000052288,628.447152800014,None,None,None,,,,,,,,,,,,,,,,,,,,,,,11035,2,1,2024_May_31_1629,stroop_task_switching2,2021.2.3,59.85403994165473,
,,,红,yellow,j,diamond,color_mix,颜色,,incompatible,1,block_switch2,instruction/ready_2.png,instruction/i12.png,,,,,,,,,,,,,,,,,0,1,1,1,0,3,3,3,,,,,,,,,,,,,,,,,,,,,,,,,,,629.932069500006,630.1332725000102,630.1153718999994,630.416051600012,630.416051600012,None,630.9177680000139,None,d,0,1.418843299994478,630.9177680000139,None,None,None,,,,,,,,,,,,,,,,,,,,,,,11035,2,1,2024_May_31_1629,stroop_task_switching2,2021.2.3,59.85403994165473,
,,,红,red,d,diamond,color_mix,颜色,,compatible,1,block_switch2,instruction/ready_2.png,instruction/i12.png,,,,,,,,,,,,,,,,,0,1,1,1,0,4,4,4,,,,,,,,,,,,,,,,,,,,,,,,,,,632.3520514999982,632.5521814000094,632.535660100024,632.8372356000182,632.8372356000182,None,633.3366646000068,None,d,1,0.9123259999905713,633.3366646000068,None,None,None,,,,,,,,,,,,,,,,,,,,,,,11035,2,1,2024_May_31_1629,stroop_task_switching2,2021.2.3,59.85403994165473,
,,,绿,green,k,square,color_mix,单词,,compatible,2,block_switch2,instruction/ready_2.png,instruction/i12.png,,,,,,,,,,,,,,,,,0,1,1,1,0,5,5,5,,,,,,,,,,,,,,,,,,,,,,,,,,,634.2716609000054,634.473045700026,634.456167700002,634.7556062000222,634.7556062000222,None,635.2563876000058,None,k,1,0.704465800023172,635.2563876000058,None,None,None,,,,,,,,,,,,,,,,,,,,,,,11035,2,1,2024_May_31_1629,stroop_task_switching2,2021.2.3,59.85403994165473,
,,,黄,blue,f,diamond,color_mix,颜色,,incompatible,2,block_switch2,instruction/ready_2.png,instruction/i12.png,,,,,,,,,,,,,,,,,0,1,1,1,0,6,6,6,,,,,,,,,,,,,,,,,,,,,,,,,,,635.990749700024,636.1910895000037,636.1748471000174,636.4747277999995,636.4747277999995,None,636.9757787999988,None,f,1,1.4414739000203554,636.9757787999988,None,None,None,,,,,,,,,,,,,,,,,,,,,,,11035,2,1,2024_May_31_1629,stroop_task_switching2,2021.2.3,59.85403994165473,
,,,绿,yellow,k,square,color_mix,单词,,incompatible,2,block_switch2,instruction/ready_2.png,instruction/i12.png,,,,,,,,,,,,,,,,,0,1,1,1,0,7,7,7,,,,,,,,,,,,,,,,,,,,,,,,,,,638.444278400013,638.6445889000024,638.6295266000088,638.9286803000141,638.9286803000141,None,639.4293159000226,None,k,1,1.0758409000118263,639.4293159000226,None,None,None,,,,,,,,,,,,,,,,,,,,,,,11035,2,1,2024_May_31_1629,stroop_task_switching2,2021.2.3,59.85403994165473,
,,,红,green,d,square,color_mix,单词,,incompatible,1,block_switch2,instruction/ready_2.png,instruction/i12.png,,,,,,,,,,,,,,,,,0,1,1,1,0,8,8,8,,,,,,,,,,,,,,,,,,,,,,,,,,,640.5310632000037,640.732104900002,640.7149782000051,641.0151021000056,641.0151021000056,None,641.515887800022,None,d,1,1.5014165999891702,641.515887800022,None,None,None,,,,,,,,,,,,,,,,,,,,,,,11035,2,1,2024_May_31_1629,stroop_task_switching2,2021.2.3,59.85403994165473,
,,,黄,yellow,j,square,color_mix,单词,,compatible,1,block_switch2,instruction/ready_2.png,instruction/i12.png,,,,,,,,,,,,,,,,,0,1,1,1,0,9,9,9,,,,,,,,,,,,,,,,,,,,,,,,,,,643.0346047000203,643.2361016000214,643.2192334000138,643.5188007000252,643.5188007000252,None,644.0196315000067,None,j,1,0.9576628999784589,644.0196315000067,None,None,None,,,,,,,,,,,,,,,,,,,,,,,11035,2,1,2024_May_31_1629,stroop_task_switching2,2021.2.3,59.85403994165473,
