b_pra,ins_blocks,ins_blocks2,stim_word,stim_color,corrAns,cue_type,trial_type,task_type,rand,compatibility,switch,b_test,w_pic,w_pic2,trials_instr.thisRepN,trials_instr.thisTrialN,trials_instr.thisN,trials_instr.thisIndex,block_pra.thisRepN,block_pra.thisTrialN,block_pra.thisN,block_pra.thisIndex,trials_rep.thisRepN,trials_rep.thisTrialN,trials_rep.thisN,trials_rep.thisIndex,trials_pra.thisRepN,trials_pra.thisTrialN,trials_pra.thisN,trials_pra.thisIndex,trials_3.thisRepN,trials_3.thisTrialN,trials_3.thisN,trials_3.thisIndex,trials_2.thisRepN,trials_2.thisTrialN,trials_2.thisN,trials_2.thisIndex,instr_image.started,instr_image.stopped,instr_key_resp.keys,instr_key_resp.rt,instr_key_resp.started,instr_key_resp.stopped,instr_pra_image.started,instr_pra_image.stopped,ip_key_resp.keys,ip_key_resp.rt,ip_key_resp.started,ip_key_resp.stopped,block_image.started,block_image.stopped,ib_key_resp.keys,ib_key_resp.rt,ib_key_resp.started,ib_key_resp.stopped,cd3.started,cd3.stopped,cd2.started,cd2.stopped,cd1.started,cd1.stopped,cd_text.started,cd_text.stopped,text_fix.started,text_fix.stopped,text_2.started,text_2.stopped,text_4.started,text_4.stopped,text_target.started,text_target.stopped,key_resp.keys,key_resp.corr,key_resp.rt,key_resp.started,key_resp.stopped,sceen_black.started,sceen_black.stopped,text_fb.started,text_fb.stopped,text.started,text.stopped,key_bf.keys,key_bf.rt,key_bf.started,key_bf.stopped,instr_test_image.started,instr_test_image.stopped,instr_exp_key_resp.keys,instr_exp_key_resp.rt,instr_exp_key_resp.started,instr_exp_key_resp.stopped,text_rest.started,text_rest.stopped,key_resp_rest.keys,key_resp_rest.rt,key_resp_rest.started,key_resp_rest.stopped,text_3.started,text_3.stopped,participant,session,balance,date,expName,psychopyVersion,frameRate,
,,,,,,,,,,,,,,,0,0,0,0,,,,,,,,,,,,,,,,,,,,,6.290151499968488,None,space,7.637347599957138,6.290151499968488,None,,,,,,,,,,,,,,,,,,,,,,,,,,,,,,,,,,,,,,,,,,,,,,,,,,,,,,,,,,11036,1,1,2024_Jun_01_1840,stroop_task_switching2,2021.2.3,60.03961413150619,
,,,,,,,,,,,,,,,1,0,1,0,,,,,,,,,,,,,,,,,,,,,13.968417099968065,None,right,0.8898200999828987,13.968417099968065,None,,,,,,,,,,,,,,,,,,,,,,,,,,,,,,,,,,,,,,,,,,,,,,,,,,,,,,,,,,11036,1,1,2024_Jun_01_1840,stroop_task_switching2,2021.2.3,60.03961413150619,
,,,,,,,,,,,,,,,2,0,2,0,,,,,,,,,,,,,,,,,,,,,14.903285899956245,None,right,35.027742000005674,14.903285899956245,None,,,,,,,,,,,,,,,,,,,,,,,,,,,,,,,,,,,,,,,,,,,,,,,,,,,,,,,,,,11036,1,1,2024_Jun_01_1840,stroop_task_switching2,2021.2.3,60.03961413150619,
,,,,,,,,,,,,,,,3,0,3,0,,,,,,,,,,,,,,,,,,,,,49.97303249995457,None,right,7.422830499999691,49.97303249995457,None,,,,,,,,,,,,,,,,,,,,,,,,,,,,,,,,,,,,,,,,,,,,,,,,,,,,,,,,,,11036,1,1,2024_Jun_01_1840,stroop_task_switching2,2021.2.3,60.03961413150619,
,,,,,,,,,,,,,,,4,0,4,0,,,,,,,,,,,,,,,,,,,,,57.43475479999324,None,right,5.552911099977791,57.43475479999324,None,,,,,,,,,,,,,,,,,,,,,,,,,,,,,,,,,,,,,,,,,,,,,,,,,,,,,,,,,,11036,1,1,2024_Jun_01_1840,stroop_task_switching2,2021.2.3,60.03961413150619,
,,,,,,,,,,,,,,,5,0,5,0,,,,,,,,,,,,,,,,,,,,,63.02585849998286,None,right,17.617908899963368,63.02585849998286,None,,,,,,,,,,,,,,,,,,,,,,,,,,,,,,,,,,,,,,,,,,,,,,,,,,,,,,,,,,11036,1,1,2024_Jun_01_1840,stroop_task_switching2,2021.2.3,60.03961413150619,
,,,,,,,,,,,,,,,6,0,6,0,,,,,,,,,,,,,,,,,,,,,80.68551939999452,None,right,0.7672111000283621,80.68551939999452,None,,,,,,,,,,,,,,,,,,,,,,,,,,,,,,,,,,,,,,,,,,,,,,,,,,,,,,,,,,11036,1,1,2024_Jun_01_1840,stroop_task_switching2,2021.2.3,60.03961413150619,
,,,,,,,,,,,,,,,,,,,,,,,,,,,,,,,,,,,,,,,,,,,,,81.4881303999573,None,space,1.4539698000298813,81.4881303999573,None,,,,,,,,,,,,,,,,,,,,,,,,,,,,,,,,,,,,,,,,,,,,,,,,,,,,11036,1,1,2024_Jun_01_1840,stroop_task_switching2,2021.2.3,60.03961413150619,
condition/block_color,instruction/instr_color,instruction/i8,XX,red,d,diamond,color_single,颜色,,,,,,,,,,,0,0,0,0,0,0,0,0,0,0,0,0,,,,,,,,,,,,,,,,,,,,,82.98987839999609,None,space,4.143024899996817,82.98987839999609,None,88.21521239995491,89.21675510000205,89.21675510000205,90.21774079999886,90.21774079999886,None,87.2289067999809,88.2313473999966,91.18487180001102,91.38699729996733,91.36848859995371,91.66935929999454,91.66935929999454,None,92.16950550000183,None,d,1,0.6352903999504633,92.16950550000183,None,None,None,92.8206081999815,None,,,,,,,,,,,,,,,,,,,,,11036,1,1,2024_Jun_01_1840,stroop_task_switching2,2021.2.3,60.03961413150619,
condition/block_color,instruction/instr_color,instruction/i8,XX,green,k,diamond,color_single,颜色,,,,,,,,,,,0,0,0,0,0,0,0,0,0,1,1,1,,,,,,,,,,,,,,,,,,,,,,,,,,,,,,,,,,,93.82219539996004,94.02347129996633,94.00639729999239,94.30852969997795,94.30852969997795,None,94.8082084999769,None,k,1,0.9399902999866754,94.8082084999769,None,None,None,95.77507269999478,None,,,,,,,,,,,,,,,,,,,,,11036,1,1,2024_Jun_01_1840,stroop_task_switching2,2021.2.3,60.03961413150619,
condition/block_color,instruction/instr_color,instruction/i8,XX,yellow,j,diamond,color_single,颜色,,,,,,,,,,,0,0,0,0,0,0,0,0,0,2,2,2,,,,,,,,,,,,,,,,,,,,,,,,,,,,,,,,,,,96.77675869996892,96.97827570000663,96.96119459997863,97.26070179999806,97.26070179999806,None,97.76211259997217,None,j,1,0.7221119999885559,97.76211259997217,None,None,None,98.51257079996867,None,,,,,,,,,,,,,,,,,,,,,11036,1,1,2024_Jun_01_1840,stroop_task_switching2,2021.2.3,60.03961413150619,
condition/block_color,instruction/instr_color,instruction/i8,XX,blue,f,diamond,color_single,颜色,,,,,,,,,,,0,0,0,0,0,0,0,0,0,3,3,3,,,,,,,,,,,,,,,,,,,,,,,,,,,,,,,,,,,99.5139513000031,99.71598089998588,99.69756120000966,99.99865749996388,99.99865749996388,None,100.49941779999062,None,f,1,0.6649832999682985,100.49941779999062,None,None,None,101.18313039996428,None,,,,,,,,,,,,,,,,,,,,,11036,1,1,2024_Jun_01_1840,stroop_task_switching2,2021.2.3,60.03961413150619,
condition/block_color,instruction/instr_color,instruction/i8,XX,green,k,diamond,color_single,颜色,,,,,,,,,,,0,0,0,0,0,0,0,0,0,4,4,4,,,,,,,,,,,,,,,,,,,,,,,,,,,,,,,,,,,102.18564679997507,102.38551649998408,102.37046760000521,102.6700620999909,102.6700620999909,None,103.16989709995687,None,k,1,0.6986185999703594,103.16989709995687,None,None,None,103.88742539996747,None,,,,,,,,,,,,,,,,,,,,,11036,1,1,2024_Jun_01_1840,stroop_task_switching2,2021.2.3,60.03961413150619,
condition/block_color,instruction/instr_color,instruction/i8,XX,yellow,j,diamond,color_single,颜色,,,,,,,,,,,0,0,0,0,0,0,0,0,0,5,5,5,,,,,,,,,,,,,,,,,,,,,,,,,,,,,,,,,,,104.8896883999696,105.0899500999949,105.07382230000803,105.37384509999538,105.37384509999538,None,105.874027199985,None,j,1,0.4742710999562405,105.874027199985,None,None,None,106.3742990999599,None,,,,,,,,,,,,,,,,,,,,,11036,1,1,2024_Jun_01_1840,stroop_task_switching2,2021.2.3,60.03961413150619,
condition/block_color,instruction/instr_color,instruction/i8,XX,blue,f,diamond,color_single,颜色,,,,,,,,,,,0,0,0,0,0,0,0,0,0,6,6,6,,,,,,,,,,,,,,,,,,,,,,,,,,,,,,,,,,,107.37674799998058,107.57748089998495,107.5606332999887,107.8609671999584,107.8609671999584,None,108.36204809998162,None,f,1,0.6345768999890424,108.36204809998162,None,None,None,109.01173959998414,None,,,,,,,,,,,,,,,,,,,,,11036,1,1,2024_Jun_01_1840,stroop_task_switching2,2021.2.3,60.03961413150619,
condition/block_color,instruction/instr_color,instruction/i8,XX,red,d,diamond,color_single,颜色,,,,,,,,,,,0,0,0,0,0,0,0,0,0,7,7,7,,,,,,,,,,,,,,,,,,,,,,,,,,,,,,,,,,,110.01325989997713,110.21416470000986,110.19772130000638,110.49826560000656,110.49826560000656,None,110.99829129996942,None,d,1,0.37422050000168383,110.99829129996942,None,None,None,111.39875669998582,None,,,,,,,,,,,,,,,,,,,,,11036,1,1,2024_Jun_01_1840,stroop_task_switching2,2021.2.3,60.03961413150619,
condition/block_color,instruction/instr_color,instruction/i8,XX,yellow,j,diamond,color_single,颜色,,,,,,,,,,,0,0,0,0,0,0,0,0,0,8,8,8,,,,,,,,,,,,,,,,,,,,,,,,,,,,,,,,,,,112.40007400000468,112.60031159996288,112.58577559998957,112.88506070000585,112.88506070000585,None,113.38573290000204,None,j,1,0.707148099958431,113.38573290000204,None,None,None,114.1195502000046,None,,,,,,,,,,,,,,,,,,,,,11036,1,1,2024_Jun_01_1840,stroop_task_switching2,2021.2.3,60.03961413150619,
condition/block_color,instruction/instr_color,instruction/i8,XX,blue,f,diamond,color_single,颜色,,,,,,,,,,,0,0,0,0,0,0,0,0,0,9,9,9,,,,,,,,,,,,,,,,,,,,,,,,,,,,,,,,,,,115.12180639995495,115.32412959996145,115.30505550000817,115.60577219998231,115.60577219998231,None,116.10580669995397,None,f,1,0.5707629999960773,116.10580669995397,None,None,None,116.70666109997546,None,,,,,,,,,,,,,,,,,,,,,11036,1,1,2024_Jun_01_1840,stroop_task_switching2,2021.2.3,60.03961413150619,
condition/block_color,instruction/instr_color,instruction/i8,XX,red,d,diamond,color_single,颜色,,,,,,,,,,,0,0,0,0,0,0,0,0,0,10,10,10,,,,,,,,,,,,,,,,,,,,,,,,,,,,,,,,,,,117.70866679999745,117.90906169998925,117.89277579996269,118.19285419996595,118.19285419996595,None,118.69288509996841,None,d,1,0.3439735000138171,118.69288509996841,None,None,None,119.06029309995938,None,,,,,,,,,,,,,,,,,,,,,11036,1,1,2024_Jun_01_1840,stroop_task_switching2,2021.2.3,60.03961413150619,
condition/block_color,instruction/instr_color,instruction/i8,XX,green,k,diamond,color_single,颜色,,,,,,,,,,,0,0,0,0,0,0,0,0,0,11,11,11,,,,,,,,,,,,,,,,,,,,,,,,,,,,,,,,,,,120.06156559998635,120.26183769997442,120.24620439996943,120.54607719997875,120.54607719997875,None,121.04740360000869,None,k,1,0.613862500002142,121.04740360000869,None,None,None,121.68081529997289,None,,,,,,,,,,,,,,,,,,,,,11036,1,1,2024_Jun_01_1840,stroop_task_switching2,2021.2.3,60.03961413150619,
condition/block_color,instruction/instr_color,instruction/i8,XX,blue,f,diamond,color_single,颜色,,,,,,,,,,,0,0,0,0,0,0,0,0,0,12,12,12,,,,,,,,,,,,,,,,,,,,,,,,,,,,,,,,,,,122.68358989997068,122.88319779996527,122.86711419996573,123.16832779999822,123.16832779999822,None,123.68404299998656,None,f,1,0.8653041000361554,123.68404299998656,None,None,None,124.56855839997297,None,,,,,,,,,,,,,,,,,,,,,11036,1,1,2024_Jun_01_1840,stroop_task_switching2,2021.2.3,60.03961413150619,
condition/block_color,instruction/instr_color,instruction/i8,XX,red,d,diamond,color_single,颜色,,,,,,,,,,,0,0,0,0,0,0,0,0,0,13,13,13,,,,,,,,,,,,,,,,,,,,,,,,,,,,,,,,,,,125.5709649999626,125.7717593999696,125.75358509999933,126.05470209999476,126.05470209999476,None,126.55476809997344,None,d,1,0.44221169996308163,126.55476809997344,None,None,None,127.02226120000705,None,,,,,,,,,,,,,,,,,,,,,11036,1,1,2024_Jun_01_1840,stroop_task_switching2,2021.2.3,60.03961413150619,
condition/block_color,instruction/instr_color,instruction/i8,XX,green,k,diamond,color_single,颜色,,,,,,,,,,,0,0,0,0,0,0,0,0,0,14,14,14,,,,,,,,,,,,,,,,,,,,,,,,,,,,,,,,,,,128.02454389998456,128.22483530000318,128.20812739996472,128.50772669998696,128.50772669998696,None,129.0098902999889,None,k,1,0.7316469000070356,129.0098902999889,None,None,None,129.75955749995774,None,,,,,,,,,,,,,,,,,,,,,11036,1,1,2024_Jun_01_1840,stroop_task_switching2,2021.2.3,60.03961413150619,
condition/block_color,instruction/instr_color,instruction/i8,XX,yellow,j,diamond,color_single,颜色,,,,,,,,,,,0,0,0,0,0,0,0,0,0,15,15,15,,,,,,,,,,,,,,,,,,,,,,,,,,,,,,,,,,,130.76112789998297,130.962168500002,130.94606499996735,131.2462641999591,131.2462641999591,None,131.7468318999745,None,j,1,0.5383635999751277,131.7468318999745,None,None,None,132.31450489995768,None,,,,,,,,,,,,,,,,,,,,,11036,1,1,2024_Jun_01_1840,stroop_task_switching2,2021.2.3,60.03961413150619,
condition/block_color,instruction/instr_color,instruction/i8,XX,red,d,diamond,color_single,颜色,,,,,,,,,,,0,0,0,0,0,0,0,0,0,16,16,16,,,,,,,,,,,,,,,,,,,,,,,,,,,,,,,,,,,133.3149754999904,133.51695269998163,133.49930179998046,133.80114569998113,133.80114569998113,None,134.30061320000095,None,d,1,0.6331082999822684,134.30061320000095,None,None,None,134.9505513999611,None,,,,,,,,,,,,,,,,,,,,,11036,1,1,2024_Jun_01_1840,stroop_task_switching2,2021.2.3,60.03961413150619,
condition/block_color,instruction/instr_color,instruction/i8,XX,green,k,diamond,color_single,颜色,,,,,,,,,,,0,0,0,0,0,0,0,0,0,17,17,17,,,,,,,,,,,,,,,,,,,,,,,,,,,,,,,,,,,135.95314090000466,136.15270109998528,136.13696879998315,136.4376304000034,136.4376304000034,None,136.937512399978,None,k,1,0.5246000000042841,136.937512399978,None,None,None,137.4879264999763,None,,,,,,,,,,,,,,,,,,,,,11036,1,1,2024_Jun_01_1840,stroop_task_switching2,2021.2.3,60.03961413150619,
condition/block_color,instruction/instr_color,instruction/i8,XX,yellow,j,diamond,color_single,颜色,,,,,,,,,,,0,0,0,0,0,0,0,0,0,18,18,18,,,,,,,,,,,,,,,,,,,,,,,,,,,,,,,,,,,138.49018929997692,138.69056519999867,138.6749915999826,138.9905526000075,138.97483989998,None,139.4742941999575,None,j,1,0.8681837000185624,139.4742941999575,None,None,None,140.35892099997727,None,,,,,,,,,,,,,,,,,,,,,11036,1,1,2024_Jun_01_1840,stroop_task_switching2,2021.2.3,60.03961413150619,
condition/block_color,instruction/instr_color,instruction/i8,XX,blue,f,diamond,color_single,颜色,,,,,,,,,,,0,0,0,0,0,0,0,0,0,19,19,19,,,,,,,,,,,,,,,,,,,,,,,,,,,,,,,,,,,141.3613433999708,141.56230629998026,141.54410769999959,141.84527220000746,141.84527220000746,None,142.34527890000027,None,f,1,0.9170764000155032,142.34527890000027,None,None,None,143.28005139995366,None,,,,,,,,,,,,,,,,,,,,,11036,1,1,2024_Jun_01_1840,stroop_task_switching2,2021.2.3,60.03961413150619,
condition/block_color,instruction/instr_color,instruction/i8,XX,green,k,diamond,color_single,颜色,,,,,,,,,,,0,0,0,0,0,0,0,0,0,20,20,20,,,,,,,,,,,,,,,,,,,,,,,,,,,,,,,,,,,144.28288610000163,144.48188849998405,144.46604919998208,144.76709209999535,144.76709209999535,None,145.26632160000736,None,k,1,0.6511454000137746,145.26632160000736,None,None,None,145.93383499997435,None,,,,,,,,,,,,,,,,,,,,,11036,1,1,2024_Jun_01_1840,stroop_task_switching2,2021.2.3,60.03961413150619,
condition/block_color,instruction/instr_color,instruction/i8,XX,yellow,j,diamond,color_single,颜色,,,,,,,,,,,0,0,0,0,0,0,0,0,0,21,21,21,,,,,,,,,,,,,,,,,,,,,,,,,,,,,,,,,,,146.9354977000039,147.13590980001027,147.12017869995907,147.41973109997343,147.41973109997343,None,147.92049899999984,None,j,1,0.7892154000001028,147.92049899999984,None,None,None,148.73825659998693,None,,,,,,,,,,,,,,,,,,,,,11036,1,1,2024_Jun_01_1840,stroop_task_switching2,2021.2.3,60.03961413150619,
condition/block_color,instruction/instr_color,instruction/i8,XX,blue,f,diamond,color_single,颜色,,,,,,,,,,,0,0,0,0,0,0,0,0,0,22,22,22,,,,,,,,,,,,,,,,,,,,,,,,,,,,,,,,,,,149.74057399999583,149.94067009998253,149.92341769998893,150.2248205000069,150.2248205000069,None,150.72577759996057,None,f,1,0.5599463999969885,150.72577759996057,None,None,None,151.3095600999659,None,,,,,,,,,,,,,,,,,,,,,11036,1,1,2024_Jun_01_1840,stroop_task_switching2,2021.2.3,60.03961413150619,
condition/block_color,instruction/instr_color,instruction/i8,XX,red,d,diamond,color_single,颜色,,,,,,,,,,,0,0,0,0,0,0,0,0,0,23,23,23,,,,,,,,,,,,,,,,,,,,,,,,,,,,,,,,,,,152.31118059996516,152.5105753999669,152.49524449999444,152.79495439998573,152.79495439998573,None,153.2962097999989,None,d,1,0.4055686000501737,153.2962097999989,None,None,None,153.72922519996064,None,,,,,,,,,,,,,,,,,,,,,11036,1,1,2024_Jun_01_1840,stroop_task_switching2,2021.2.3,60.03961413150619,
condition/block_color,instruction/instr_color,instruction/i8,,,,,,,,,,,,,,,,,0,0,0,0,0,0,0,0,,,,,,,,,,,,,,,,,,,,,,,,,,,,,,,,,,,,,,,,,,,,,,,,,,,,,,,,154.74724229995627,None,space,2.560301400022581,154.74724229995627,None,,,,,,,,,,,,,,,11036,1,1,2024_Jun_01_1840,stroop_task_switching2,2021.2.3,60.03961413150619,
condition/block_color,instruction/instr_color,instruction/i8,,,,,,,,,,,,,,,,,0,0,0,0,,,,,,,,,,,,,,,,,,,,,,,,,,,,,,,,,,,,,,,,,,,,,,,,,,,,,,,,,,,,,,,,,,,,,,,,,,,,,,,,11036,1,1,2024_Jun_01_1840,stroop_task_switching2,2021.2.3,60.03961413150619,
condition/block_word,instruction/instr_word,instruction/i9,黄,white,j,square,word_single,单词,0.0032461461866890584,,,,,,,,,,0,1,1,1,0,0,0,0,0,0,0,0,,,,,,,,,,,,,,,,,,,,,157.35144669999136,None,space,4.571973100013565,157.35144669999136,None,162.94380790001014,163.94556849997025,163.94556849997025,164.94727740000235,164.94727740000235,None,161.95898209995357,162.96038599999156,165.96354759996757,166.1644457000075,166.14909119997174,166.44916099996772,166.44916099996772,None,166.94971119996626,None,j,1,0.7523534999927506,166.94971119996626,None,None,None,167.71691179997288,None,,,,,,,,,,,,,,,,,,,,,11036,1,1,2024_Jun_01_1840,stroop_task_switching2,2021.2.3,60.03961413150619,
condition/block_word,instruction/instr_word,instruction/i9,蓝,white,f,square,word_single,单词,0.060540570646362424,,,,,,,,,,0,1,1,1,0,0,0,0,0,1,1,1,,,,,,,,,,,,,,,,,,,,,,,,,,,,,,,,,,,168.71878279995872,168.9199976999662,168.90313379996223,169.20355659996858,169.20355659996858,None,169.70370059995912,None,f,1,0.5989384999847971,169.70370059995912,None,None,None,170.32079929998145,None,,,,,,,,,,,,,,,,,,,,,11036,1,1,2024_Jun_01_1840,stroop_task_switching2,2021.2.3,60.03961413150619,
condition/block_word,instruction/instr_word,instruction/i9,黄,white,j,square,word_single,单词,0.06994067193778963,,,,,,,,,,0,1,1,1,0,0,0,0,0,2,2,2,,,,,,,,,,,,,,,,,,,,,,,,,,,,,,,,,,,171.3224210999906,171.52436819998547,171.5059411000111,171.80641819996526,171.80641819996526,None,172.30832509999163,None,j,1,0.5860068999463692,172.30832509999163,None,None,None,172.92465880000964,None,,,,,,,,,,,,,,,,,,,,,11036,1,1,2024_Jun_01_1840,stroop_task_switching2,2021.2.3,60.03961413150619,
condition/block_word,instruction/instr_word,instruction/i9,蓝,white,f,square,word_single,单词,0.08193765152950094,,,,,,,,,,0,1,1,1,0,0,0,0,0,3,3,3,,,,,,,,,,,,,,,,,,,,,,,,,,,,,,,,,,,173.92719329998363,174.1266684999573,174.1106606000103,174.41176529997028,174.41176529997028,None,174.91093690000707,None,f,1,0.6557782999589108,174.91093690000707,None,None,None,175.59541109995916,None,,,,,,,,,,,,,,,,,,,,,11036,1,1,2024_Jun_01_1840,stroop_task_switching2,2021.2.3,60.03961413150619,
condition/block_word,instruction/instr_word,instruction/i9,红,white,d,square,word_single,单词,0.1279694370605574,,,,,,,,,,0,1,1,1,0,0,0,0,0,4,4,4,,,,,,,,,,,,,,,,,,,,,,,,,,,,,,,,,,,176.59812929999316,176.7982447000104,176.78047830000287,177.0819099000073,177.0819099000073,None,177.58219609997468,None,d,1,0.592368500016164,177.58219609997468,None,None,None,178.19928399997298,None,,,,,,,,,,,,,,,,,,,,,11036,1,1,2024_Jun_01_1840,stroop_task_switching2,2021.2.3,60.03961413150619,
condition/block_word,instruction/instr_word,instruction/i9,红,white,d,square,word_single,单词,0.18345028784879092,,,,,,,,,,0,1,1,1,0,0,0,0,0,5,5,5,,,,,,,,,,,,,,,,,,,,,,,,,,,,,,,,,,,179.2008445999818,179.40170970000327,179.38510769995628,179.68599609995726,179.68599609995726,None,180.18573869997635,None,d,1,0.5729150999686681,180.18573869997635,None,None,None,180.78657050000038,None,,,,,,,,,,,,,,,,,,,,,11036,1,1,2024_Jun_01_1840,stroop_task_switching2,2021.2.3,60.03961413150619,
condition/block_word,instruction/instr_word,instruction/i9,蓝,white,f,square,word_single,单词,0.19920386223101294,,,,,,,,,,0,1,1,1,0,0,0,0,0,6,6,6,,,,,,,,,,,,,,,,,,,,,,,,,,,,,,,,,,,181.78797679999843,181.99073689995566,181.97167429997353,182.27260869997554,182.27260869997554,None,182.77282029995695,None,f,1,0.5546941999928094,182.77282029995695,None,None,None,183.3588274999638,None,,,,,,,,,,,,,,,,,,,,,11036,1,1,2024_Jun_01_1840,stroop_task_switching2,2021.2.3,60.03961413150619,
condition/block_word,instruction/instr_word,instruction/i9,蓝,white,f,square,word_single,单词,0.26360599864925405,,,,,,,,,,0,1,1,1,0,0,0,0,0,7,7,7,,,,,,,,,,,,,,,,,,,,,,,,,,,,,,,,,,,184.3586308999802,184.5595662999549,184.54401690000668,184.84319639997557,184.84319639997557,None,185.34426529996563,None,f,1,0.5344308000057936,185.34426529996563,None,None,None,185.8941353999544,None,,,,,,,,,,,,,,,,,,,,,11036,1,1,2024_Jun_01_1840,stroop_task_switching2,2021.2.3,60.03961413150619,
condition/block_word,instruction/instr_word,instruction/i9,蓝,white,f,square,word_single,单词,0.358985675745526,,,,,,,,,,0,1,1,1,0,0,0,0,0,8,8,8,,,,,,,,,,,,,,,,,,,,,,,,,,,,,,,,,,,186.89589069999056,187.09761349996552,187.079411899962,187.37976250000065,187.37976250000065,None,187.88151929999003,None,f,1,0.46943149995058775,187.88151929999003,None,None,None,188.3814347999869,None,,,,,,,,,,,,,,,,,,,,,11036,1,1,2024_Jun_01_1840,stroop_task_switching2,2021.2.3,60.03961413150619,
condition/block_word,instruction/instr_word,instruction/i9,绿,white,k,square,word_single,单词,0.36496733802487347,,,,,,,,,,0,1,1,1,0,0,0,0,0,9,9,9,,,,,,,,,,,,,,,,,,,,,,,,,,,,,,,,,,,189.3836520999903,189.58305029995972,189.56867559999228,189.8844778999919,189.8669928999734,None,190.36758329998702,None,k,1,0.510984799999278,190.36758329998702,None,None,None,190.90163939999184,None,,,,,,,,,,,,,,,,,,,,,11036,1,1,2024_Jun_01_1840,stroop_task_switching2,2021.2.3,60.03961413150619,
condition/block_word,instruction/instr_word,instruction/i9,黄,white,j,square,word_single,单词,0.3743513623756727,,,,,,,,,,0,1,1,1,0,0,0,0,0,10,10,10,,,,,,,,,,,,,,,,,,,,,,,,,,,,,,,,,,,191.9034682000056,192.10610179998912,192.08698079996975,192.38816069997847,192.38816069997847,None,192.8889719999861,None,j,1,0.566314900002908,192.8889719999861,None,None,None,193.47241399995983,None,,,,,,,,,,,,,,,,,,,,,11036,1,1,2024_Jun_01_1840,stroop_task_switching2,2021.2.3,60.03961413150619,
condition/block_word,instruction/instr_word,instruction/i9,红,white,d,square,word_single,单词,0.3894803852598544,,,,,,,,,,0,1,1,1,0,0,0,0,0,11,11,11,,,,,,,,,,,,,,,,,,,,,,,,,,,,,,,,,,,194.47472329996526,194.67527089995565,194.65851069998462,194.95871669996995,194.95871669996995,None,195.45867560000625,None,d,1,0.4526129000005312,195.45867560000625,None,None,None,195.94289409997873,None,,,,,,,,,,,,,,,,,,,,,11036,1,1,2024_Jun_01_1840,stroop_task_switching2,2021.2.3,60.03961413150619,
condition/block_word,instruction/instr_word,instruction/i9,绿,white,k,square,word_single,单词,0.5393759672408067,,,,,,,,,,0,1,1,1,0,0,0,0,0,12,12,12,,,,,,,,,,,,,,,,,,,,,,,,,,,,,,,,,,,196.94427559996257,197.14582549995976,197.1289991000085,197.42906819999916,197.42906819999916,None,197.92984170001,None,k,1,0.47700489999260753,197.92984170001,None,None,None,198.42968249996193,None,,,,,,,,,,,,,,,,,,,,,11036,1,1,2024_Jun_01_1840,stroop_task_switching2,2021.2.3,60.03961413150619,
condition/block_word,instruction/instr_word,instruction/i9,蓝,white,f,square,word_single,单词,0.5995731954831104,,,,,,,,,,0,1,1,1,0,0,0,0,0,13,13,13,,,,,,,,,,,,,,,,,,,,,,,,,,,,,,,,,,,199.4317300999537,199.63165659998776,199.61513459996786,199.91540910000913,199.91540910000913,None,200.41620609996608,None,f,1,0.6787892999709584,200.41620609996608,None,None,None,201.1171618999797,None,,,,,,,,,,,,,,,,,,,,,11036,1,1,2024_Jun_01_1840,stroop_task_switching2,2021.2.3,60.03961413150619,
condition/block_word,instruction/instr_word,instruction/i9,红,white,d,square,word_single,单词,0.6298674479151414,,,,,,,,,,0,1,1,1,0,0,0,0,0,14,14,14,,,,,,,,,,,,,,,,,,,,,,,,,,,,,,,,,,,202.11896359996172,202.3189582999912,202.30372520000674,202.6027049999684,202.6027049999684,None,203.10360529995523,None,d,1,0.5115626000333577,203.10360529995523,None,None,None,203.63779720000457,None,,,,,,,,,,,,,,,,,,,,,11036,1,1,2024_Jun_01_1840,stroop_task_switching2,2021.2.3,60.03961413150619,
condition/block_word,instruction/instr_word,instruction/i9,红,white,d,square,word_single,单词,0.7389942282348904,,,,,,,,,,0,1,1,1,0,0,0,0,0,15,15,15,,,,,,,,,,,,,,,,,,,,,,,,,,,,,,,,,,,204.63994929997716,204.83969900000375,204.8244523999747,205.13999229995534,205.12420399999246,None,205.62399140000343,None,d,1,0.4071347000426613,205.62399140000343,None,None,None,206.05803009995725,None,,,,,,,,,,,,,,,,,,,,,11036,1,1,2024_Jun_01_1840,stroop_task_switching2,2021.2.3,60.03961413150619,
condition/block_word,instruction/instr_word,instruction/i9,绿,white,k,square,word_single,单词,0.7550853947239682,,,,,,,,,,0,1,1,1,0,0,0,0,0,16,16,16,,,,,,,,,,,,,,,,,,,,,,,,,,,,,,,,,,,207.0602765000076,207.25983900000574,207.24448980001034,207.54429299995536,207.54429299995536,None,208.04433669999707,None,k,1,0.5791429000091739,208.04433669999707,None,None,None,208.6464325999841,None,,,,,,,,,,,,,,,,,,,,,11036,1,1,2024_Jun_01_1840,stroop_task_switching2,2021.2.3,60.03961413150619,
condition/block_word,instruction/instr_word,instruction/i9,绿,white,k,square,word_single,单词,0.8019302780428206,,,,,,,,,,0,1,1,1,0,0,0,0,0,17,17,17,,,,,,,,,,,,,,,,,,,,,,,,,,,,,,,,,,,209.64685530000133,209.8476458999794,209.83137799997348,210.13070759997936,210.13070759997936,None,210.63154149998445,None,k,1,0.4958071000291966,210.63154149998445,None,None,None,211.14914940000745,None,,,,,,,,,,,,,,,,,,,,,11036,1,1,2024_Jun_01_1840,stroop_task_switching2,2021.2.3,60.03961413150619,
condition/block_word,instruction/instr_word,instruction/i9,绿,white,k,square,word_single,单词,0.8110702914095343,,,,,,,,,,0,1,1,1,0,0,0,0,0,18,18,18,,,,,,,,,,,,,,,,,,,,,,,,,,,,,,,,,,,212.1513902999577,212.35206529998686,212.3340738999541,212.6354941999889,212.6354941999889,None,213.13619779999135,None,k,1,0.5114065999514423,213.13619779999135,None,None,None,213.6700268999557,None,,,,,,,,,,,,,,,,,,,,,11036,1,1,2024_Jun_01_1840,stroop_task_switching2,2021.2.3,60.03961413150619,
condition/block_word,instruction/instr_word,instruction/i9,黄,white,j,square,word_single,单词,0.8176594937590999,,,,,,,,,,0,1,1,1,0,0,0,0,0,19,19,19,,,,,,,,,,,,,,,,,,,,,,,,,,,,,,,,,,,214.6718380000093,214.8721547999885,214.85617290000664,215.15585089998785,215.15585089998785,None,215.65684099995997,None,j,1,0.6148834999767132,215.65684099995997,None,None,None,216.29015109996544,None,,,,,,,,,,,,,,,,,,,,,11036,1,1,2024_Jun_01_1840,stroop_task_switching2,2021.2.3,60.03961413150619,
condition/block_word,instruction/instr_word,instruction/i9,红,white,d,square,word_single,单词,0.8955794421104841,,,,,,,,,,0,1,1,1,0,0,0,0,0,20,20,20,,,,,,,,,,,,,,,,,,,,,,,,,,,,,,,,,,,217.29159579996485,217.4920426000026,217.47557899996173,217.7762733999989,217.7762733999989,None,218.27642559999367,None,d,1,0.44291740003973246,218.27642559999367,None,None,None,218.74372470000526,None,,,,,,,,,,,,,,,,,,,,,11036,1,1,2024_Jun_01_1840,stroop_task_switching2,2021.2.3,60.03961413150619,
condition/block_word,instruction/instr_word,instruction/i9,绿,white,k,square,word_single,单词,0.9113598052474129,,,,,,,,,,0,1,1,1,0,0,0,0,0,21,21,21,,,,,,,,,,,,,,,,,,,,,,,,,,,,,,,,,,,219.7462253999547,219.94623469997896,219.92887060000794,220.22945509996498,220.22945509996498,None,220.73092709999764,None,k,1,0.5889803000027314,220.73092709999764,None,None,None,221.34882449998986,None,,,,,,,,,,,,,,,,,,,,,11036,1,1,2024_Jun_01_1840,stroop_task_switching2,2021.2.3,60.03961413150619,
condition/block_word,instruction/instr_word,instruction/i9,黄,white,j,square,word_single,单词,0.9215930958042953,,,,,,,,,,0,1,1,1,0,0,0,0,0,22,22,22,,,,,,,,,,,,,,,,,,,,,,,,,,,,,,,,,,,222.34991279995302,222.55191049998393,222.5336043999996,222.83354389999295,222.83354389999295,None,223.33400669996627,None,j,1,0.7296932999743149,223.33400669996627,None,None,None,224.0854621999897,None,,,,,,,,,,,,,,,,,,,,,11036,1,1,2024_Jun_01_1840,stroop_task_switching2,2021.2.3,60.03961413150619,
condition/block_word,instruction/instr_word,instruction/i9,黄,white,j,square,word_single,单词,0.9493525498837774,,,,,,,,,,0,1,1,1,0,0,0,0,0,23,23,23,,,,,,,,,,,,,,,,,,,,,,,,,,,,,,,,,,,225.08680150000146,225.28802699997323,225.27120689995354,225.57286289997865,225.57286289997865,None,226.07282830000622,None,j,1,0.615799400024116,226.07282830000622,None,None,None,226.70651980000548,None,,,,,,,,,,,,,,,,,,,,,11036,1,1,2024_Jun_01_1840,stroop_task_switching2,2021.2.3,60.03961413150619,
condition/block_word,instruction/instr_word,instruction/i9,,,,,,,,,,,,,,,,,0,1,1,1,0,0,0,0,,,,,,,,,,,,,,,,,,,,,,,,,,,,,,,,,,,,,,,,,,,,,,,,,,,,,,,,227.70731109997723,None,space,3.288587000046391,227.70731109997723,None,,,,,,,,,,,,,,,11036,1,1,2024_Jun_01_1840,stroop_task_switching2,2021.2.3,60.03961413150619,
condition/block_word,instruction/instr_word,instruction/i9,,,,,,,,,,,,,,,,,0,1,1,1,,,,,,,,,,,,,,,,,,,,,,,,,,,,,,,,,,,,,,,,,,,,,,,,,,,,,,,,,,,,,,,,,,,,,,,,,,,,,,,,11036,1,1,2024_Jun_01_1840,stroop_task_switching2,2021.2.3,60.03961413150619,
condition/block_mixed,instruction/instr_mixed,instruction/i10,蓝,red,d,diamond,color_mix,颜色,,incompatible,0,,,,,,,,0,2,2,2,0,0,0,0,0,0,0,0,,,,,,,,,,,,,,,,,,,,,231.02942679997068,None,space,8.253416699997615,231.02942679997068,None,240.3097600999754,241.31339999998454,241.31339999998454,242.31311099999584,242.31311099999584,None,239.32550569996238,240.32876780000515,243.34901579999132,243.5482627999736,243.53222449996974,243.83170519996202,243.83170519996202,None,244.31563759996789,None,d,1,0.7724620000226423,244.31563759996789,None,None,None,245.1177153000026,None,,,,,,,,,,,,,,,,,,,,,11036,1,1,2024_Jun_01_1840,stroop_task_switching2,2021.2.3,60.03961413150619,
condition/block_mixed,instruction/instr_mixed,instruction/i10,绿,yellow,j,diamond,color_mix,颜色,,incompatible,1,,,,,,,,0,2,2,2,0,0,0,0,0,1,1,1,,,,,,,,,,,,,,,,,,,,,,,,,,,,,,,,,,,246.11830969998846,246.31934960000217,246.30217310000444,246.602482999966,246.602482999966,None,247.10482549999142,None,j,1,0.895497300021816,247.10482549999142,None,None,None,248.02123809995828,None,,,,,,,,,,,,,,,,,,,,,11036,1,1,2024_Jun_01_1840,stroop_task_switching2,2021.2.3,60.03961413150619,
condition/block_mixed,instruction/instr_mixed,instruction/i10,红,green,k,diamond,color_mix,颜色,,incompatible,1,,,,,,,,0,2,2,2,0,0,0,0,0,2,2,2,,,,,,,,,,,,,,,,,,,,,,,,,,,,,,,,,,,249.02279550000094,249.2248618999729,249.20645229995716,249.50787569995737,249.50787569995737,None,250.00772180000786,None,k,1,1.1046309000230394,250.00772180000786,None,None,None,251.14340120000998,None,,,,,,,,,,,,,,,,,,,,,11036,1,1,2024_Jun_01_1840,stroop_task_switching2,2021.2.3,60.03961413150619,
condition/block_mixed,instruction/instr_mixed,instruction/i10,蓝,red,d,diamond,color_mix,颜色,,incompatible,1,,,,,,,,0,2,2,2,0,0,0,0,0,3,3,3,,,,,,,,,,,,,,,,,,,,,,,,,,,,,,,,,,,252.14405090000946,252.34689679997973,252.32779519999167,252.6296800999553,252.6296800999553,None,253.12956139998278,None,d,1,1.654817400034517,253.12956139998278,None,None,None,254.8149019999546,None,,,,,,,,,,,,,,,,,,,,,11036,1,1,2024_Jun_01_1840,stroop_task_switching2,2021.2.3,60.03961413150619,
condition/block_mixed,instruction/instr_mixed,instruction/i10,红,blue,f,diamond,color_mix,颜色,,incompatible,1,,,,,,,,0,2,2,2,0,0,0,0,0,4,4,4,,,,,,,,,,,,,,,,,,,,,,,,,,,,,,,,,,,255.81711659999564,256.0167441999656,256.0018234999734,256.3173688999959,256.3004789999686,None,256.8011591999675,None,f,1,1.1355820000171661,256.8011591999675,None,None,None,257.9539402999799,None,,,,,,,,,,,,,,,,,,,,,11036,1,1,2024_Jun_01_1840,stroop_task_switching2,2021.2.3,60.03961413150619,
condition/block_mixed,instruction/instr_mixed,instruction/i10,红,blue,d,square,color_mix,单词,,incompatible,2,,,,,,,,0,2,2,2,0,0,0,0,0,5,5,5,,,,,,,,,,,,,,,,,,,,,,,,,,,,,,,,,,,258.95456409995677,259.15660399995977,259.13790229998995,259.43913579999935,259.43913579999935,None,259.9392438000068,None,d,1,0.6534583999891765,259.9392438000068,None,None,None,260.6236388999969,None,,,,,,,,,,,,,,,,,,,,,11036,1,1,2024_Jun_01_1840,stroop_task_switching2,2021.2.3,60.03961413150619,
condition/block_mixed,instruction/instr_mixed,instruction/i10,红,yellow,j,diamond,color_mix,颜色,,incompatible,2,,,,,,,,0,2,2,2,0,0,0,0,0,6,6,6,,,,,,,,,,,,,,,,,,,,,,,,,,,,,,,,,,,261.6251751999953,261.82643929996993,261.80970199999865,262.1092215999961,262.1092215999961,None,262.610341099964,None,j,1,0.7823764000204392,262.610341099964,None,None,None,263.41120939998655,None,,,,,,,,,,,,,,,,,,,,,11036,1,1,2024_Jun_01_1840,stroop_task_switching2,2021.2.3,60.03961413150619,
condition/block_mixed,instruction/instr_mixed,instruction/i10,红,yellow,d,square,color_mix,单词,,incompatible,2,,,,,,,,0,2,2,2,0,0,0,0,0,7,7,7,,,,,,,,,,,,,,,,,,,,,,,,,,,,,,,,,,,264.4135890000034,264.61335120000876,264.59614390000934,264.8967949000071,264.8967949000071,None,265.397312599991,None,d,1,0.9473526999936439,265.397312599991,None,None,None,266.36556949996157,None,,,,,,,,,,,,,,,,,,,,,11036,1,1,2024_Jun_01_1840,stroop_task_switching2,2021.2.3,60.03961413150619,
condition/block_mixed,instruction/instr_mixed,instruction/i10,绿,blue,k,square,color_mix,单词,,incompatible,1,,,,,,,,0,2,2,2,0,0,0,0,0,8,8,8,,,,,,,,,,,,,,,,,,,,,,,,,,,,,,,,,,,267.36701369995717,267.56794729997637,267.55165789998136,267.8517869999632,267.8517869999632,None,268.35350019996986,None,k,1,0.696150099975057,268.35350019996986,None,None,None,269.0701409999747,None,,,,,,,,,,,,,,,,,,,,,11036,1,1,2024_Jun_01_1840,stroop_task_switching2,2021.2.3,60.03961413150619,
condition/block_mixed,instruction/instr_mixed,instruction/i10,蓝,green,k,diamond,color_mix,颜色,,incompatible,2,,,,,,,,0,2,2,2,0,0,0,0,0,9,9,9,,,,,,,,,,,,,,,,,,,,,,,,,,,,,,,,,,,270.0720363999717,270.27271419996396,270.2549809999764,270.55523639998864,270.55523639998864,None,271.0559801000054,None,k,1,1.1208153999759816,271.0559801000054,None,None,None,272.20778840000276,None,,,,,,,,,,,,,,,,,,,,,11036,1,1,2024_Jun_01_1840,stroop_task_switching2,2021.2.3,60.03961413150619,
condition/block_mixed,instruction/instr_mixed,instruction/i10,蓝,yellow,f,square,color_mix,单词,,incompatible,2,,,,,,,,0,2,2,2,0,0,0,0,0,10,10,10,,,,,,,,,,,,,,,,,,,,,,,,,,,,,,,,,,,273.21004859998357,273.41063369996846,273.39378059998853,273.69584900001064,273.69584900001064,None,274.21128399996087,None,f,1,1.0217466000467539,274.21128399996087,None,None,None,275.2624822999933,None,,,,,,,,,,,,,,,,,,,,,11036,1,1,2024_Jun_01_1840,stroop_task_switching2,2021.2.3,60.03961413150619,
condition/block_mixed,instruction/instr_mixed,instruction/i10,蓝,green,f,square,color_mix,单词,,incompatible,1,,,,,,,,0,2,2,2,0,0,0,0,0,11,11,11,,,,,,,,,,,,,,,,,,,,,,,,,,,,,,,,,,,276.26465929998085,276.4648530999548,276.4489891999983,276.7506172999856,276.7506172999856,None,277.2661581999855,None,f,1,0.518889200000558,277.2661581999855,None,None,None,277.8168284999556,None,,,,,,,,,,,,,,,,,,,,,11036,1,1,2024_Jun_01_1840,stroop_task_switching2,2021.2.3,60.03961413150619,
condition/block_mixed,instruction/instr_mixed,instruction/i10,绿,yellow,k,square,color_mix,单词,,incompatible,1,,,,,,,,0,2,2,2,0,0,0,0,0,12,12,12,,,,,,,,,,,,,,,,,,,,,,,,,,,,,,,,,,,278.81813079997664,279.01894609996816,279.00318870000774,279.3192990999669,279.30220819998067,None,279.80347679997794,None,k,1,0.5897732999874279,279.80347679997794,None,None,None,280.4210087999818,None,,,,,,,,,,,,,,,,,,,,,11036,1,1,2024_Jun_01_1840,stroop_task_switching2,2021.2.3,60.03961413150619,
condition/block_mixed,instruction/instr_mixed,instruction/i10,绿,blue,f,diamond,color_mix,颜色,,incompatible,2,,,,,,,,0,2,2,2,0,0,0,0,0,13,13,13,,,,,,,,,,,,,,,,,,,,,,,,,,,,,,,,,,,281.42170389997773,281.6227760000038,281.6052326000063,281.9057348999777,281.9057348999777,None,282.4071997999563,None,f,1,0.9305616000201553,282.4071997999563,None,None,None,283.35803569998825,None,,,,,,,,,,,,,,,,,,,,,11036,1,1,2024_Jun_01_1840,stroop_task_switching2,2021.2.3,60.03961413150619,
condition/block_mixed,instruction/instr_mixed,instruction/i10,黄,red,j,square,color_mix,单词,,incompatible,2,,,,,,,,0,2,2,2,0,0,0,0,0,14,14,14,,,,,,,,,,,,,,,,,,,,,,,,,,,,,,,,,,,284.3602994999965,284.5617879999918,284.5430962999817,284.84440189995803,284.84440189995803,None,285.3452008999884,None,j,1,2.6961077000014484,285.3452008999884,None,None,None,288.06488249998074,None,,,,,,,,,,,,,,,,,,,,,11036,1,1,2024_Jun_01_1840,stroop_task_switching2,2021.2.3,60.03961413150619,
condition/block_mixed,instruction/instr_mixed,instruction/i10,蓝,yellow,j,diamond,color_mix,颜色,,incompatible,2,,,,,,,,0,2,2,2,0,0,0,0,0,15,15,15,,,,,,,,,,,,,,,,,,,,,,,,,,,,,,,,,,,289.066788199998,289.2677989999647,289.2517824000097,289.55156709998846,289.55156709998846,None,290.0515165000106,None,j,1,1.437984400021378,290.0515165000106,None,None,None,291.5202473999816,None,,,,,,,,,,,,,,,,,,,,,11036,1,1,2024_Jun_01_1840,stroop_task_switching2,2021.2.3,60.03961413150619,
condition/block_mixed,instruction/instr_mixed,instruction/i10,黄,red,d,diamond,color_mix,颜色,,incompatible,1,,,,,,,,0,2,2,2,0,0,0,0,0,16,16,16,,,,,,,,,,,,,,,,,,,,,,,,,,,,,,,,,,,292.5217745999689,292.7227042999584,292.70539049996296,293.00753790000454,293.00753790000454,None,293.50656760000857,None,d,1,0.7835515000042506,293.50656760000857,None,None,None,294.307628199982,None,,,,,,,,,,,,,,,,,,,,,11036,1,1,2024_Jun_01_1840,stroop_task_switching2,2021.2.3,60.03961413150619,
condition/block_mixed,instruction/instr_mixed,instruction/i10,绿,red,k,square,color_mix,单词,,incompatible,2,,,,,,,,0,2,2,2,0,0,0,0,0,17,17,17,,,,,,,,,,,,,,,,,,,,,,,,,,,,,,,,,,,295.3104425999918,295.5106842999812,295.4930244999705,295.7951940000057,295.7951940000057,None,296.2954415999702,None,k,1,0.9466384999686852,296.2954415999702,None,None,None,297.2619271999574,None,,,,,,,,,,,,,,,,,,,,,11036,1,1,2024_Jun_01_1840,stroop_task_switching2,2021.2.3,60.03961413150619,
condition/block_mixed,instruction/instr_mixed,instruction/i10,红,green,d,square,color_mix,单词,,incompatible,1,,,,,,,,0,2,2,2,0,0,0,0,0,18,18,18,,,,,,,,,,,,,,,,,,,,,,,,,,,,,,,,,,,298.26450559997465,298.4655815999722,298.4473461000016,298.7488985999953,298.7488985999953,None,299.249539499986,None,d,1,1.072136600036174,299.249539499986,None,None,None,300.3513789999997,None,,,,,,,,,,,,,,,,,,,,,11036,1,1,2024_Jun_01_1840,stroop_task_switching2,2021.2.3,60.03961413150619,
condition/block_mixed,instruction/instr_mixed,instruction/i10,黄,blue,f,diamond,color_mix,颜色,,incompatible,2,,,,,,,,0,2,2,2,0,0,0,0,0,19,19,19,,,,,,,,,,,,,,,,,,,,,,,,,,,,,,,,,,,301.35242059995653,301.5520091999788,301.5361170999822,301.8370512999827,301.8370512999827,None,302.33673009998165,None,f,1,0.8172762999893166,302.33673009998165,None,None,None,303.171191499976,None,,,,,,,,,,,,,,,,,,,,,11036,1,1,2024_Jun_01_1840,stroop_task_switching2,2021.2.3,60.03961413150619,
condition/block_mixed,instruction/instr_mixed,instruction/i10,黄,green,k,diamond,color_mix,颜色,,incompatible,1,,,,,,,,0,2,2,2,0,0,0,0,0,20,20,20,,,,,,,,,,,,,,,,,,,,,,,,,,,,,,,,,,,304.17345329996897,304.3739077000064,304.3569143000059,304.6571014999645,304.6571014999645,None,305.1585168999736,None,k,1,0.9878520999918692,305.1585168999736,None,None,None,306.17557520000264,None,,,,,,,,,,,,,,,,,,,,,11036,1,1,2024_Jun_01_1840,stroop_task_switching2,2021.2.3,60.03961413150619,
condition/block_mixed,instruction/instr_mixed,instruction/i10,黄,green,j,square,color_mix,单词,,incompatible,2,,,,,,,,0,2,2,2,0,0,0,0,0,21,21,21,,,,,,,,,,,,,,,,,,,,,,,,,,,,,,,,,,,307.1771522999625,307.3778766999603,307.36071899998933,307.66123729996616,307.66123729996616,None,308.16188649996184,None,j,1,1.0248334999778308,308.16188649996184,None,None,None,309.21353780000936,None,,,,,,,,,,,,,,,,,,,,,11036,1,1,2024_Jun_01_1840,stroop_task_switching2,2021.2.3,60.03961413150619,
condition/block_mixed,instruction/instr_mixed,instruction/i10,黄,blue,j,square,color_mix,单词,,incompatible,1,,,,,,,,0,2,2,2,0,0,0,0,0,22,22,22,,,,,,,,,,,,,,,,,,,,,,,,,,,,,,,,,,,310.215805099986,310.415420299978,310.39875920000486,310.69913709996035,310.6832001999719,None,311.18305079999845,None,j,1,1.1072673999588005,311.18305079999845,None,None,None,312.3193411999964,None,,,,,,,,,,,,,,,,,,,,,11036,1,1,2024_Jun_01_1840,stroop_task_switching2,2021.2.3,60.03961413150619,
condition/block_mixed,instruction/instr_mixed,instruction/i10,蓝,red,f,square,color_mix,单词,,incompatible,1,,,,,,,,0,2,2,2,0,0,0,0,0,23,23,23,,,,,,,,,,,,,,,,,,,,,,,,,,,,,,,,,,,313.3197109999601,313.52077709999867,313.50419979996514,313.8037963999668,313.8037963999668,None,314.30545809998875,None,f,1,1.1849858000059612,314.30545809998875,None,None,None,315.5062909999979,None,,,,,,,,,,,,,,,,,,,,,11036,1,1,2024_Jun_01_1840,stroop_task_switching2,2021.2.3,60.03961413150619,
condition/block_mixed,instruction/instr_mixed,instruction/i10,绿,red,d,diamond,color_mix,颜色,,incompatible,2,,,,,,,,0,2,2,2,0,0,0,0,0,24,24,24,,,,,,,,,,,,,,,,,,,,,,,,,,,,,,,,,,,316.5078905999544,316.70796049997443,316.69244149996666,316.99370970000746,316.99370970000746,None,317.49262619996443,None,d,1,1.0702295000082813,317.49262619996443,None,None,None,318.578997500008,None,,,,,,,,,,,,,,,,,,,,,11036,1,1,2024_Jun_01_1840,stroop_task_switching2,2021.2.3,60.03961413150619,
condition/block_mixed,instruction/instr_mixed,instruction/i10,绿,green,k,diamond,color_mix,颜色,,compatible,1,,,,,,,,0,2,2,2,0,0,0,0,0,25,25,25,,,,,,,,,,,,,,,,,,,,,,,,,,,,,,,,,,,319.57977139996365,319.7804496999597,319.7637096999679,320.06318549998105,320.06318549998105,None,320.56393169995863,None,k,1,0.830850400030613,320.56393169995863,None,None,None,321.4153275999706,None,,,,,,,,,,,,,,,,,,,,,11036,1,1,2024_Jun_01_1840,stroop_task_switching2,2021.2.3,60.03961413150619,
condition/block_mixed,instruction/instr_mixed,instruction/i10,蓝,blue,f,diamond,color_mix,颜色,,compatible,1,,,,,,,,0,2,2,2,0,0,0,0,0,26,26,26,,,,,,,,,,,,,,,,,,,,,,,,,,,,,,,,,,,322.41686389996903,322.61703629995463,322.60055559995817,322.9014588999562,322.9014588999562,None,323.4027211999637,None,f,1,1.2236717999912798,323.4027211999637,None,None,None,324.6534634999698,None,,,,,,,,,,,,,,,,,,,,,11036,1,1,2024_Jun_01_1840,stroop_task_switching2,2021.2.3,60.03961413150619,
condition/block_mixed,instruction/instr_mixed,instruction/i10,绿,green,k,square,color_mix,单词,,compatible,2,,,,,,,,0,2,2,2,0,0,0,0,0,27,27,27,,,,,,,,,,,,,,,,,,,,,,,,,,,,,,,,,,,325.65582499996526,325.85528359998716,325.83864599996014,326.14086749998387,326.14086749998387,None,326.6397069999948,None,k,1,0.6109790999908,326.6397069999948,None,None,None,327.2749887999962,None,,,,,,,,,,,,,,,,,,,,,11036,1,1,2024_Jun_01_1840,stroop_task_switching2,2021.2.3,60.03961413150619,
condition/block_mixed,instruction/instr_mixed,instruction/i10,绿,green,k,square,color_mix,单词,,compatible,1,,,,,,,,0,2,2,2,0,0,0,0,0,28,28,28,,,,,,,,,,,,,,,,,,,,,,,,,,,,,,,,,,,328.27685689995997,328.4767976999865,328.460479100002,328.7597606999916,328.7597606999916,None,329.2614157999633,None,k,1,0.6934919999912381,329.2614157999633,None,None,None,329.9782897999976,None,,,,,,,,,,,,,,,,,,,,,11036,1,1,2024_Jun_01_1840,stroop_task_switching2,2021.2.3,60.03961413150619,
condition/block_mixed,instruction/instr_mixed,instruction/i10,蓝,blue,f,square,color_mix,单词,,compatible,1,,,,,,,,0,2,2,2,0,0,0,0,0,29,29,29,,,,,,,,,,,,,,,,,,,,,,,,,,,,,,,,,,,330.9806640999741,331.1814566999674,331.16333399998257,331.4644367999863,331.4644367999863,None,331.96617430000333,None,f,1,0.6047551000374369,331.96617430000333,None,None,None,332.5988970999606,None,,,,,,,,,,,,,,,,,,,,,11036,1,1,2024_Jun_01_1840,stroop_task_switching2,2021.2.3,60.03961413150619,
condition/block_mixed,instruction/instr_mixed,instruction/i10,黄,yellow,j,diamond,color_mix,颜色,,compatible,2,,,,,,,,0,2,2,2,0,0,0,0,0,30,30,30,,,,,,,,,,,,,,,,,,,,,,,,,,,,,,,,,,,333.60039289999986,333.80189129995415,333.78503889997955,334.0851990999654,334.0851990999654,None,334.5859255999676,None,j,1,1.3052130999858491,334.5859255999676,None,None,None,335.9215306999977,None,,,,,,,,,,,,,,,,,,,,,11036,1,1,2024_Jun_01_1840,stroop_task_switching2,2021.2.3,60.03961413150619,
condition/block_mixed,instruction/instr_mixed,instruction/i10,绿,green,k,square,color_mix,单词,,compatible,2,,,,,,,,0,2,2,2,0,0,0,0,0,31,31,31,,,,,,,,,,,,,,,,,,,,,,,,,,,,,,,,,,,336.921933399979,337.1231246999814,337.10585379996337,337.4069182999665,337.4069182999665,None,337.90685219998704,None,k,1,0.9360621999949217,337.90685219998704,None,None,None,338.858276999963,None,,,,,,,,,,,,,,,,,,,,,11036,1,1,2024_Jun_01_1840,stroop_task_switching2,2021.2.3,60.03961413150619,
condition/block_mixed,instruction/instr_mixed,instruction/i10,黄,yellow,j,square,color_mix,单词,,compatible,1,,,,,,,,0,2,2,2,0,0,0,0,0,32,32,32,,,,,,,,,,,,,,,,,,,,,,,,,,,,,,,,,,,339.860334899975,340.060338100011,340.0432463999605,340.34372449998045,340.34372449998045,None,340.84552269999404,None,j,1,0.837325900036376,340.84552269999404,None,None,None,341.71329689997947,None,,,,,,,,,,,,,,,,,,,,,11036,1,1,2024_Jun_01_1840,stroop_task_switching2,2021.2.3,60.03961413150619,
condition/block_mixed,instruction/instr_mixed,instruction/i10,绿,green,k,diamond,color_mix,颜色,,compatible,2,,,,,,,,0,2,2,2,0,0,0,0,0,33,33,33,,,,,,,,,,,,,,,,,,,,,,,,,,,,,,,,,,,342.7148837999557,342.9141961999703,342.8981569999596,343.19889239995973,343.19889239995973,None,343.69962819997454,None,k,1,1.0717076999717392,343.69962819997454,None,None,None,344.80064089997904,None,,,,,,,,,,,,,,,,,,,,,11036,1,1,2024_Jun_01_1840,stroop_task_switching2,2021.2.3,60.03961413150619,
condition/block_mixed,instruction/instr_mixed,instruction/i10,红,red,d,square,color_mix,单词,,compatible,2,,,,,,,,0,2,2,2,0,0,0,0,0,34,34,34,,,,,,,,,,,,,,,,,,,,,,,,,,,,,,,,,,,345.8028108999715,346.003607199993,345.9857257999829,346.28605309996055,346.28605309996055,None,346.787702600006,None,d,1,0.5677810999914072,346.787702600006,None,None,None,347.3710965999635,None,,,,,,,,,,,,,,,,,,,,,11036,1,1,2024_Jun_01_1840,stroop_task_switching2,2021.2.3,60.03961413150619,
condition/block_mixed,instruction/instr_mixed,instruction/i10,黄,yellow,j,square,color_mix,单词,,compatible,1,,,,,,,,0,2,2,2,0,0,0,0,0,35,35,35,,,,,,,,,,,,,,,,,,,,,,,,,,,,,,,,,,,348.373202399991,348.5734282999765,348.5579204999958,348.87418330000946,348.85867789998883,None,349.37450360000366,None,f,0,1.1163657000288367,349.37450360000366,None,None,None,350.5090300999582,None,,,,,,,,,,,,,,,,,,,,,11036,1,1,2024_Jun_01_1840,stroop_task_switching2,2021.2.3,60.03961413150619,
condition/block_mixed,instruction/instr_mixed,instruction/i10,绿,green,k,diamond,color_mix,颜色,,compatible,2,,,,,,,,0,2,2,2,0,0,0,0,0,36,36,36,,,,,,,,,,,,,,,,,,,,,,,,,,,,,,,,,,,351.511517499981,351.71085350000067,351.6943445999641,351.9964336999692,351.9964336999692,None,352.4955708999769,None,k,1,0.8847290999838151,352.4955708999769,None,None,None,353.3968574999599,None,,,,,,,,,,,,,,,,,,,,,11036,1,1,2024_Jun_01_1840,stroop_task_switching2,2021.2.3,60.03961413150619,
condition/block_mixed,instruction/instr_mixed,instruction/i10,蓝,blue,f,square,color_mix,单词,,compatible,2,,,,,,,,0,2,2,2,0,0,0,0,0,37,37,37,,,,,,,,,,,,,,,,,,,,,,,,,,,,,,,,,,,354.3983178999624,354.59945499995956,354.5825729999924,354.88296919997083,354.88296919997083,None,355.38306179997744,None,f,1,1.4283546999795362,355.38306179997744,None,None,None,356.8354415000067,None,,,,,,,,,,,,,,,,,,,,,11036,1,1,2024_Jun_01_1840,stroop_task_switching2,2021.2.3,60.03961413150619,
condition/block_mixed,instruction/instr_mixed,instruction/i10,红,red,d,square,color_mix,单词,,compatible,1,,,,,,,,0,2,2,2,0,0,0,0,0,38,38,38,,,,,,,,,,,,,,,,,,,,,,,,,,,,,,,,,,,357.83744319999823,358.0394882999826,358.0205681999796,358.32177260000026,358.32177260000026,None,358.8219918999821,None,d,1,0.501431800017599,358.8219918999821,None,None,None,359.3390883000102,None,,,,,,,,,,,,,,,,,,,,,11036,1,1,2024_Jun_01_1840,stroop_task_switching2,2021.2.3,60.03961413150619,
condition/block_mixed,instruction/instr_mixed,instruction/i10,黄,yellow,j,diamond,color_mix,颜色,,compatible,2,,,,,,,,0,2,2,2,0,0,0,0,0,39,39,39,,,,,,,,,,,,,,,,,,,,,,,,,,,,,,,,,,,360.34053129999666,360.54235669999616,360.52403759997105,360.82542059995467,360.82542059995467,None,361.3267339000013,None,j,1,1.1885740000288934,361.3267339000013,None,None,None,362.5437401999952,None,,,,,,,,,,,,,,,,,,,,,11036,1,1,2024_Jun_01_1840,stroop_task_switching2,2021.2.3,60.03961413150619,
condition/block_mixed,instruction/instr_mixed,instruction/i10,黄,yellow,j,square,color_mix,单词,,compatible,2,,,,,,,,0,2,2,2,0,0,0,0,0,40,40,40,,,,,,,,,,,,,,,,,,,,,,,,,,,,,,,,,,,363.54553129995475,363.74724130000686,363.729084599996,364.0309599000029,364.0309599000029,None,364.53102789999684,None,j,1,1.184552300022915,364.53102789999684,None,None,None,365.73211749998154,None,,,,,,,,,,,,,,,,,,,,,11036,1,1,2024_Jun_01_1840,stroop_task_switching2,2021.2.3,60.03961413150619,
condition/block_mixed,instruction/instr_mixed,instruction/i10,蓝,blue,f,square,color_mix,单词,,compatible,1,,,,,,,,0,2,2,2,0,0,0,0,0,41,41,41,,,,,,,,,,,,,,,,,,,,,,,,,,,,,,,,,,,366.73446050001075,366.9348115999601,366.9174056999618,367.2187864999869,367.2187864999869,None,367.71835169999395,None,f,1,1.5497198000084609,367.71835169999395,None,None,None,369.28761010000017,None,,,,,,,,,,,,,,,,,,,,,11036,1,1,2024_Jun_01_1840,stroop_task_switching2,2021.2.3,60.03961413150619,
condition/block_mixed,instruction/instr_mixed,instruction/i10,蓝,blue,f,diamond,color_mix,颜色,,compatible,2,,,,,,,,0,2,2,2,0,0,0,0,0,42,42,42,,,,,,,,,,,,,,,,,,,,,,,,,,,,,,,,,,,370.28887609997764,370.48976149997907,370.4725205999566,370.77308909996646,370.77308909996646,None,371.2744695000001,None,f,1,1.1855859000352211,371.2744695000001,None,None,None,372.47544619999826,None,,,,,,,,,,,,,,,,,,,,,11036,1,1,2024_Jun_01_1840,stroop_task_switching2,2021.2.3,60.03961413150619,
condition/block_mixed,instruction/instr_mixed,instruction/i10,黄,yellow,j,diamond,color_mix,颜色,,compatible,1,,,,,,,,0,2,2,2,0,0,0,0,0,43,43,43,,,,,,,,,,,,,,,,,,,,,,,,,,,,,,,,,,,373.4779395000078,373.6783940999885,373.6616200999706,373.962201599963,373.962201599963,None,374.46283739997307,None,j,1,0.9408550999942236,374.46283739997307,None,None,None,375.4300629000063,None,,,,,,,,,,,,,,,,,,,,,11036,1,1,2024_Jun_01_1840,stroop_task_switching2,2021.2.3,60.03961413150619,
condition/block_mixed,instruction/instr_mixed,instruction/i10,红,red,d,diamond,color_mix,颜色,,compatible,1,,,,,,,,0,2,2,2,0,0,0,0,0,44,44,44,,,,,,,,,,,,,,,,,,,,,,,,,,,,,,,,,,,376.43261979997624,376.6318771999795,376.61521590000484,376.91642809996847,376.91642809996847,None,377.4162070999737,None,d,1,0.739873600017745,377.4162070999737,None,None,None,378.18493459996535,None,,,,,,,,,,,,,,,,,,,,,11036,1,1,2024_Jun_01_1840,stroop_task_switching2,2021.2.3,60.03961413150619,
condition/block_mixed,instruction/instr_mixed,instruction/i10,蓝,blue,f,diamond,color_mix,颜色,,compatible,1,,,,,,,,0,2,2,2,0,0,0,0,0,45,45,45,,,,,,,,,,,,,,,,,,,,,,,,,,,,,,,,,,,379.18592339998577,379.3866519999574,379.36996739997994,379.67051139997784,379.67051139997784,None,380.17151079996256,None,f,1,0.8649034000118263,380.17151079996256,None,None,None,381.055128899985,None,,,,,,,,,,,,,,,,,,,,,11036,1,1,2024_Jun_01_1840,stroop_task_switching2,2021.2.3,60.03961413150619,
condition/block_mixed,instruction/instr_mixed,instruction/i10,红,red,d,diamond,color_mix,颜色,,compatible,1,,,,,,,,0,2,2,2,0,0,0,0,0,46,46,46,,,,,,,,,,,,,,,,,,,,,,,,,,,,,,,,,,,382.0569511000067,382.25871009996627,382.240912499954,382.54354369995417,382.54354369995417,None,383.04159429995343,None,d,1,0.7864454999798909,383.04159429995343,None,None,None,383.8599149999791,None,,,,,,,,,,,,,,,,,,,,,11036,1,1,2024_Jun_01_1840,stroop_task_switching2,2021.2.3,60.03961413150619,
condition/block_mixed,instruction/instr_mixed,instruction/i10,红,red,d,square,color_mix,单词,,compatible,2,,,,,,,,0,2,2,2,0,0,0,0,0,47,47,47,,,,,,,,,,,,,,,,,,,,,,,,,,,,,,,,,,,384.86170549999224,385.0626953999745,385.04454939998686,385.3451838999754,385.3451838999754,None,385.8457541000098,None,d,1,0.5194878000183962,385.8457541000098,None,None,None,386.37978989997646,None,,,,,,,,,,,,,,,,,,,,,11036,1,1,2024_Jun_01_1840,stroop_task_switching2,2021.2.3,60.03961413150619,
condition/block_mixed,instruction/instr_mixed,instruction/i10,红,red,d,diamond,color_mix,颜色,,compatible,2,,,,,,,,0,2,2,2,0,0,0,0,0,48,48,48,,,,,,,,,,,,,,,,,,,,,,,,,,,,,,,,,,,387.3813674999983,387.5828593999613,387.565057299973,387.866506499995,387.866506499995,None,388.3670223999652,None,d,1,0.573209099995438,388.3670223999652,None,None,None,388.9672787999734,None,,,,,,,,,,,,,,,,,,,,,11036,1,1,2024_Jun_01_1840,stroop_task_switching2,2021.2.3,60.03961413150619,
condition/block_mixed,instruction/instr_mixed,instruction/i10,,,,,,,,,,,,,,,,,0,2,2,2,0,0,0,0,,,,,,,,,,,,,,,,,,,,,,,,,,,,,,,,,,,,,,,,,,,,,,,,,,,,,,,,389.9684399999678,None,space,7.235910500050522,389.9684399999678,None,,,,,,,,,,,,,,,11036,1,1,2024_Jun_01_1840,stroop_task_switching2,2021.2.3,60.03961413150619,
condition/block_mixed,instruction/instr_mixed,instruction/i10,,,,,,,,,,,,,,,,,0,2,2,2,,,,,,,,,,,,,,,,,,,,,,,,,,,,,,,,,,,,,,,,,,,,,,,,,,,,,,,,,,,,,,,,,,,,,,,,,,,,,,,,11036,1,1,2024_Jun_01_1840,stroop_task_switching2,2021.2.3,60.03961413150619,
,,,红,red,d,square,color_mix,单词,,compatible,0,block_switch1,instruction/ready_test.png,instruction/i11.png,,,,,,,,,,,,,,,,,0,0,0,0,0,0,0,0,,,,,,,,,,,,,,,,,,,406.6104197999812,407.6134221999673,407.6134221999673,408.6134197000065,408.6134197000065,None,405.62705469998764,406.6285771999974,409.631447999971,409.8320120999706,409.8320120999706,410.133618199965,410.133618199965,None,410.63515359995654,None,d,1,0.7856817999854684,410.63515359995654,None,None,None,,,,,,,,,397.2633014000021,None,space,8.341524000046775,397.2633014000021,None,,,,,,,,,11036,1,1,2024_Jun_01_1840,stroop_task_switching2,2021.2.3,60.03961413150619,
,,,绿,green,k,diamond,color_mix,颜色,,compatible,2,block_switch1,instruction/ready_test.png,instruction/i11.png,,,,,,,,,,,,,,,,,0,0,0,0,0,1,1,1,,,,,,,,,,,,,,,,,,,,,,,,,,,411.4513959999895,411.65266929997597,411.63468369998736,411.93586759996833,411.93586759996833,None,412.43593159999,None,k,1,0.7696629000129178,412.43593159999,None,None,None,,,,,,,,,,,,,,,,,,,,,,,11036,1,1,2024_Jun_01_1840,stroop_task_switching2,2021.2.3,60.03961413150619,
,,,绿,yellow,j,diamond,color_mix,颜色,,incompatible,1,block_switch1,instruction/ready_test.png,instruction/i11.png,,,,,,,,,,,,,,,,,0,0,0,0,0,2,2,2,,,,,,,,,,,,,,,,,,,,,,,,,,,413.22029809997184,413.4212985999766,413.40394069999456,413.7053055999568,413.7053055999568,None,414.20607049996033,None,j,1,0.9027136000222526,414.20607049996033,None,None,None,,,,,,,,,,,,,,,,,,,,,,,11036,1,1,2024_Jun_01_1840,stroop_task_switching2,2021.2.3,60.03961413150619,
,,,蓝,blue,f,diamond,color_mix,颜色,,compatible,1,block_switch1,instruction/ready_test.png,instruction/i11.png,,,,,,,,,,,,,,,,,0,0,0,0,0,3,3,3,,,,,,,,,,,,,,,,,,,,,,,,,,,415.1233808999532,415.3241871999926,415.3076766000013,415.60821289999876,415.60821289999876,None,416.10794719995465,None,j,0,0.9930700000259094,416.10794719995465,None,None,None,,,,,,,,,,,,,,,,,,,,,,,11036,1,1,2024_Jun_01_1840,stroop_task_switching2,2021.2.3,60.03961413150619,
,,,绿,green,k,square,color_mix,单词,,compatible,2,block_switch1,instruction/ready_test.png,instruction/i11.png,,,,,,,,,,,,,,,,,0,0,0,0,0,4,4,4,,,,,,,,,,,,,,,,,,,,,,,,,,,417.1270588999614,417.32710890000453,417.3106797999935,417.61101389996475,417.61101389996475,None,418.1117849999573,None,k,1,1.5572896000230685,418.1117849999573,None,None,None,,,,,,,,,,,,,,,,,,,,,,,11036,1,1,2024_Jun_01_1840,stroop_task_switching2,2021.2.3,60.03961413150619,
,,,绿,blue,f,diamond,color_mix,颜色,,incompatible,2,block_switch1,instruction/ready_test.png,instruction/i11.png,,,,,,,,,,,,,,,,,0,0,0,0,0,5,5,5,,,,,,,,,,,,,,,,,,,,,,,,,,,419.6968198000104,419.8979709999985,419.8810567999608,420.18176829995355,420.18176829995355,None,420.6825699000037,None,f,1,0.9629208000260405,420.6825699000037,None,None,None,,,,,,,,,,,,,,,,,,,,,,,11036,1,1,2024_Jun_01_1840,stroop_task_switching2,2021.2.3,60.03961413150619,
,,,黄,red,j,square,color_mix,单词,,incompatible,2,block_switch1,instruction/ready_test.png,instruction/i11.png,,,,,,,,,,,,,,,,,0,0,0,0,0,6,6,6,,,,,,,,,,,,,,,,,,,,,,,,,,,421.66769769997336,421.86670899996534,421.85199830000056,422.15131359995576,422.15131359995576,None,422.65131849999307,None,j,1,1.5779059000196867,422.65131849999307,None,None,None,,,,,,,,,,,,,,,,,,,,,,,11036,1,1,2024_Jun_01_1840,stroop_task_switching2,2021.2.3,60.03961413150619,
,,,绿,green,k,square,color_mix,单词,,compatible,1,block_switch1,instruction/ready_test.png,instruction/i11.png,,,,,,,,,,,,,,,,,0,0,0,0,0,7,7,7,,,,,,,,,,,,,,,,,,,,,,,,,,,424.25374849996297,424.45407519995933,424.4373624,424.73861000000034,424.73861000000034,None,425.2392043999862,None,k,1,0.7417972999974154,425.2392043999862,None,None,None,,,,,,,,,,,,,,,,,,,,,,,11036,1,1,2024_Jun_01_1840,stroop_task_switching2,2021.2.3,60.03961413150619,
,,,蓝,blue,f,square,color_mix,单词,,compatible,1,block_switch1,instruction/ready_test.png,instruction/i11.png,,,,,,,,,,,,,,,,,0,0,0,0,0,8,8,8,,,,,,,,,,,,,,,,,,,,,,,,,,,426.00632129999576,426.20857049996266,426.1899149999954,426.49117629998364,426.49117629998364,None,426.991308800003,None,f,1,1.4378036999842152,426.991308800003,None,None,None,,,,,,,,,,,,,,,,,,,,,,,11036,1,1,2024_Jun_01_1840,stroop_task_switching2,2021.2.3,60.03961413150619,
,,,红,red,d,diamond,color_mix,颜色,,compatible,2,block_switch1,instruction/ready_test.png,instruction/i11.png,,,,,,,,,,,,,,,,,0,0,0,0,0,9,9,9,,,,,,,,,,,,,,,,,,,,,,,,,,,428.46012000000337,428.6610847999691,428.6458126999787,428.96164729999145,428.9449999000062,None,429.44565979996696,None,d,1,0.7356314999633469,429.44565979996696,None,None,None,,,,,,,,,,,,,,,,,,,,,,,11036,1,1,2024_Jun_01_1840,stroop_task_switching2,2021.2.3,60.03961413150619,
,,,黄,yellow,j,diamond,color_mix,颜色,,compatible,1,block_switch1,instruction/ready_test.png,instruction/i11.png,,,,,,,,,,,,,,,,,0,0,0,0,0,10,10,10,,,,,,,,,,,,,,,,,,,,,,,,,,,430.2128620999865,430.41382149996934,430.39771629997995,430.6968974999618,430.6968974999618,None,431.19744689995423,None,j,1,1.5682281000190414,431.19744689995423,None,None,None,,,,,,,,,,,,,,,,,,,,,,,11036,1,1,2024_Jun_01_1840,stroop_task_switching2,2021.2.3,60.03961413150619,
,,,绿,green,k,square,color_mix,单词,,compatible,2,block_switch1,instruction/ready_test.png,instruction/i11.png,,,,,,,,,,,,,,,,,0,0,0,0,0,11,11,11,,,,,,,,,,,,,,,,,,,,,,,,,,,432.7832838000031,432.98509719996946,432.9674284000066,433.2678584000096,433.2678584000096,None,433.76790219999384,None,k,1,2.061379200022202,433.76790219999384,None,None,None,,,,,,,,,,,,,,,,,,,,,,,11036,1,1,2024_Jun_01_1840,stroop_task_switching2,2021.2.3,60.03961413150619,
,,,红,red,d,diamond,color_mix,颜色,,compatible,2,block_switch1,instruction/ready_test.png,instruction/i11.png,,,,,,,,,,,,,,,,,0,0,0,0,0,12,12,12,,,,,,,,,,,,,,,,,,,,,,,,,,,435.8546239999705,436.05667699995684,436.038237700006,436.3387209000066,436.3387209000066,None,436.84023089997936,None,d,1,0.8773640999570489,436.84023089997936,None,None,None,,,,,,,,,,,,,,,,,,,,,,,11036,1,1,2024_Jun_01_1840,stroop_task_switching2,2021.2.3,60.03961413150619,
,,,红,red,d,diamond,color_mix,颜色,,compatible,1,block_switch1,instruction/ready_test.png,instruction/i11.png,,,,,,,,,,,,,,,,,0,0,0,0,0,13,13,13,,,,,,,,,,,,,,,,,,,,,,,,,,,437.74075019999873,437.9419220999698,437.92525539995404,438.2255315000075,438.2255315000075,None,438.72668349999003,None,d,1,0.7110800000373274,438.72668349999003,None,None,None,,,,,,,,,,,,,,,,,,,,,,,11036,1,1,2024_Jun_01_1840,stroop_task_switching2,2021.2.3,60.03961413150619,
,,,黄,yellow,j,square,color_mix,单词,,compatible,2,block_switch1,instruction/ready_test.png,instruction/i11.png,,,,,,,,,,,,,,,,,0,0,0,0,0,14,14,14,,,,,,,,,,,,,,,,,,,,,,,,,,,439.4601219999604,439.66107380000176,439.64362319995416,439.9449502999778,439.9449502999778,None,440.4448493999662,None,j,1,1.6489928999799304,440.4448493999662,None,None,None,,,,,,,,,,,,,,,,,,,,,,,11036,1,1,2024_Jun_01_1840,stroop_task_switching2,2021.2.3,60.03961413150619,
,,,红,green,k,diamond,color_mix,颜色,,incompatible,2,block_switch1,instruction/ready_test.png,instruction/i11.png,,,,,,,,,,,,,,,,,0,0,0,0,0,15,15,15,,,,,,,,,,,,,,,,,,,,,,,,,,,442.11393569997745,442.31569949997356,442.29764539998723,442.59956209996017,442.59956209996017,None,443.0987523999647,None,k,1,2.083509799966123,443.0987523999647,None,None,None,,,,,,,,,,,,,,,,,,,,,,,11036,1,1,2024_Jun_01_1840,stroop_task_switching2,2021.2.3,60.03961413150619,
,,,蓝,red,d,diamond,color_mix,颜色,,incompatible,1,block_switch1,instruction/ready_test.png,instruction/i11.png,,,,,,,,,,,,,,,,,0,0,0,0,0,16,16,16,,,,,,,,,,,,,,,,,,,,,,,,,,,445.20254249998834,445.40336039999966,445.3873981999932,445.70333059999393,445.68828949995805,None,446.2043262000079,None,f,0,1.6416367000201717,446.2043262000079,None,None,None,,,,,,,,,,,,,,,,,,,,,,,11036,1,1,2024_Jun_01_1840,stroop_task_switching2,2021.2.3,60.03961413150619,
,,,黄,green,k,diamond,color_mix,颜色,,incompatible,1,block_switch1,instruction/ready_test.png,instruction/i11.png,,,,,,,,,,,,,,,,,0,0,0,0,0,17,17,17,,,,,,,,,,,,,,,,,,,,,,,,,,,447.8725159000023,448.07428639999125,448.0572564000031,448.357683499984,448.357683499984,None,448.8583997999667,451.8640618000063,None,0,,448.8583997999667,451.8640618000063,451.8458820999949,None,,,,,,,,,,,,,,,,,,,,,,,11036,1,1,2024_Jun_01_1840,stroop_task_switching2,2021.2.3,60.03961413150619,
,,,绿,green,k,diamond,color_mix,颜色,,compatible,1,block_switch1,instruction/ready_test.png,instruction/i11.png,,,,,,,,,,,,,,,,,0,0,0,0,0,18,18,18,,,,,,,,,,,,,,,,,,,,,,,,,,,452.49637229996733,452.69741349999094,452.6798846999882,452.9812491000048,452.9812491000048,None,453.48193819995504,None,k,1,0.7963388999924064,453.48193819995504,None,None,None,,,,,,,,,,,,,,,,,,,,,,,11036,1,1,2024_Jun_01_1840,stroop_task_switching2,2021.2.3,60.03961413150619,
,,,黄,red,d,diamond,color_mix,颜色,,incompatible,1,block_switch1,instruction/ready_test.png,instruction/i11.png,,,,,,,,,,,,,,,,,0,0,0,0,0,19,19,19,,,,,,,,,,,,,,,,,,,,,,,,,,,454.2991646999726,454.50077549996786,454.48483359999955,454.7996816000086,454.78362189995823,None,455.2849431000068,None,d,1,1.521453300025314,455.2849431000068,None,None,None,,,,,,,,,,,,,,,,,,,,,,,11036,1,1,2024_Jun_01_1840,stroop_task_switching2,2021.2.3,60.03961413150619,
,,,绿,yellow,k,square,color_mix,单词,,incompatible,2,block_switch1,instruction/ready_test.png,instruction/i11.png,,,,,,,,,,,,,,,,,0,0,0,0,0,20,20,20,,,,,,,,,,,,,,,,,,,,,,,,,,,456.8360029999749,457.03634190000594,457.02094580000266,457.3203629999771,457.3203629999771,None,457.82197029999224,None,k,1,1.1204712000326253,457.82197029999224,None,None,None,,,,,,,,,,,,,,,,,,,,,,,11036,1,1,2024_Jun_01_1840,stroop_task_switching2,2021.2.3,60.03961413150619,
,,,绿,yellow,j,diamond,color_mix,颜色,,incompatible,2,block_switch1,instruction/ready_test.png,instruction/i11.png,,,,,,,,,,,,,,,,,0,0,0,0,0,21,21,21,,,,,,,,,,,,,,,,,,,,,,,,,,,458.9727733999607,459.1741124999826,459.15741049998906,459.45834229997126,459.45834229997126,None,459.95752090000315,None,j,1,2.49673429998802,459.95752090000315,None,None,None,,,,,,,,,,,,,,,,,,,,,,,11036,1,1,2024_Jun_01_1840,stroop_task_switching2,2021.2.3,60.03961413150619,
,,,绿,green,k,square,color_mix,单词,,compatible,2,block_switch1,instruction/ready_test.png,instruction/i11.png,,,,,,,,,,,,,,,,,0,0,0,0,0,22,22,22,,,,,,,,,,,,,,,,,,,,,,,,,,,462.47952349996194,462.6957991999807,462.6617949999636,462.9639279000112,462.9639279000112,None,463.4636556999758,None,k,1,1.8148757999879308,463.4636556999758,None,None,None,,,,,,,,,,,,,,,,,,,,,,,11036,1,1,2024_Jun_01_1840,stroop_task_switching2,2021.2.3,60.03961413150619,
,,,红,red,d,square,color_mix,单词,,compatible,1,block_switch1,instruction/ready_test.png,instruction/i11.png,,,,,,,,,,,,,,,,,0,0,0,0,0,23,23,23,,,,,,,,,,,,,,,,,,,,,,,,,,,465.3004363999935,465.50039389997255,465.4833451999584,465.7835771999671,465.7835771999671,None,466.284599000006,None,d,1,1.3780052000074647,466.284599000006,None,None,None,,,,,,,,,,,,,,,,,,,,,,,11036,1,1,2024_Jun_01_1840,stroop_task_switching2,2021.2.3,60.03961413150619,
,,,黄,green,j,square,color_mix,单词,,incompatible,1,block_switch1,instruction/ready_test.png,instruction/i11.png,,,,,,,,,,,,,,,,,0,0,0,0,0,24,24,24,,,,,,,,,,,,,,,,,,,,,,,,,,,467.6859172999975,467.8873004000052,467.8705946999835,468.1712275999598,468.1712275999598,None,468.67069790000096,None,j,1,1.079922600009013,468.67069790000096,None,None,None,,,,,,,,,,,,,,,,,,,,,,,11036,1,1,2024_Jun_01_1840,stroop_task_switching2,2021.2.3,60.03961413150619,
,,,红,blue,d,square,color_mix,单词,,incompatible,1,block_switch1,instruction/ready_test.png,instruction/i11.png,,,,,,,,,,,,,,,,,0,0,0,0,0,25,25,25,,,,,,,,,,,,,,,,,,,,,,,,,,,469.7723527000053,469.9735844999668,469.9566945999977,470.2565576999914,470.2565576999914,None,470.7572124999715,None,d,1,0.7930966999847442,470.7572124999715,None,None,None,,,,,,,,,,,,,,,,,,,,,,,11036,1,1,2024_Jun_01_1840,stroop_task_switching2,2021.2.3,60.03961413150619,
,,,黄,yellow,j,square,color_mix,单词,,compatible,1,block_switch1,instruction/ready_test.png,instruction/i11.png,,,,,,,,,,,,,,,,,0,0,0,0,0,26,26,26,,,,,,,,,,,,,,,,,,,,,,,,,,,471.5749808999826,471.7754767999868,471.7601047999924,472.059954700002,472.059954700002,None,472.5599855000037,None,j,1,0.7986755999736488,472.5599855000037,None,None,None,,,,,,,,,,,,,,,,,,,,,,,11036,1,1,2024_Jun_01_1840,stroop_task_switching2,2021.2.3,60.03961413150619,
,,,蓝,green,f,square,color_mix,单词,,incompatible,1,block_switch1,instruction/ready_test.png,instruction/i11.png,,,,,,,,,,,,,,,,,0,0,0,0,0,27,27,27,,,,,,,,,,,,,,,,,,,,,,,,,,,473.3784805999603,473.57914549997076,473.5612715999596,473.86461869999766,473.86461869999766,None,474.3800912000006,None,f,1,1.8506052999873646,474.3800912000006,None,None,None,,,,,,,,,,,,,,,,,,,,,,,11036,1,1,2024_Jun_01_1840,stroop_task_switching2,2021.2.3,60.03961413150619,
,,,绿,green,k,diamond,color_mix,颜色,,compatible,2,block_switch1,instruction/ready_test.png,instruction/i11.png,,,,,,,,,,,,,,,,,0,0,0,0,0,28,28,28,,,,,,,,,,,,,,,,,,,,,,,,,,,476.2487984999898,476.45129539998015,476.43335790000856,476.7328820999828,476.7328820999828,None,477.2337114000111,None,k,1,0.8370239000068977,477.2337114000111,None,None,None,,,,,,,,,,,,,,,,,,,,,,,11036,1,1,2024_Jun_01_1840,stroop_task_switching2,2021.2.3,60.03961413150619,
,,,黄,blue,f,diamond,color_mix,颜色,,incompatible,1,block_switch1,instruction/ready_test.png,instruction/i11.png,,,,,,,,,,,,,,,,,0,0,0,0,0,29,29,29,,,,,,,,,,,,,,,,,,,,,,,,,,,478.08503879996715,478.28599469998153,478.26912079995964,478.57131589995697,478.57131589995697,None,479.0864647999988,None,f,1,2.2962914999807253,479.0864647999988,None,None,None,,,,,,,,,,,,,,,,,,,,,,,11036,1,1,2024_Jun_01_1840,stroop_task_switching2,2021.2.3,60.03961413150619,
,,,绿,green,k,diamond,color_mix,颜色,,compatible,1,block_switch1,instruction/ready_test.png,instruction/i11.png,,,,,,,,,,,,,,,,,0,0,0,0,0,30,30,30,,,,,,,,,,,,,,,,,,,,,,,,,,,481.40626869996777,481.6081881999853,481.59004619996995,481.8914134000079,481.8914134000079,None,482.3913646999863,None,k,1,1.1676375000388362,482.3913646999863,None,None,None,,,,,,,,,,,,,,,,,,,,,,,11036,1,1,2024_Jun_01_1840,stroop_task_switching2,2021.2.3,60.03961413150619,
,,,蓝,blue,f,square,color_mix,单词,,compatible,2,block_switch1,instruction/ready_test.png,instruction/i11.png,,,,,,,,,,,,,,,,,0,0,0,0,0,31,31,31,,,,,,,,,,,,,,,,,,,,,,,,,,,483.57648349995725,483.7774500999949,483.760930599994,484.0611174000078,484.0611174000078,None,484.5612683999934,None,f,1,1.2137381000211462,484.5612683999934,None,None,None,,,,,,,,,,,,,,,,,,,,,,,11036,1,1,2024_Jun_01_1840,stroop_task_switching2,2021.2.3,60.03961413150619,
,,,红,red,d,square,color_mix,单词,,compatible,1,block_switch1,instruction/ready_test.png,instruction/i11.png,,,,,,,,,,,,,,,,,0,0,0,0,0,32,32,32,,,,,,,,,,,,,,,,,,,,,,,,,,,485.79637110000476,485.9977880999795,485.9808927999693,486.28062380000483,486.28062380000483,None,486.7813541999785,None,d,1,0.657622300030198,486.7813541999785,None,None,None,,,,,,,,,,,,,,,,,,,,,,,11036,1,1,2024_Jun_01_1840,stroop_task_switching2,2021.2.3,60.03961413150619,
,,,红,green,d,square,color_mix,单词,,incompatible,1,block_switch1,instruction/ready_test.png,instruction/i11.png,,,,,,,,,,,,,,,,,0,0,0,0,0,33,33,33,,,,,,,,,,,,,,,,,,,,,,,,,,,487.466452499968,487.66681729996344,487.6513508000062,487.9503247999819,487.9503247999819,None,488.45080619998043,None,d,1,1.8440276000183076,488.45080619998043,None,None,None,,,,,,,,,,,,,,,,,,,,,,,11036,1,1,2024_Jun_01_1840,stroop_task_switching2,2021.2.3,60.03961413150619,
,,,黄,yellow,j,diamond,color_mix,颜色,,compatible,2,block_switch1,instruction/ready_test.png,instruction/i11.png,,,,,,,,,,,,,,,,,0,0,0,0,0,34,34,34,,,,,,,,,,,,,,,,,,,,,,,,,,,490.3200135999941,490.52045219996944,490.50486260000616,490.803850199969,490.803850199969,None,491.30543040001066,None,f,0,1.357876900001429,491.30543040001066,None,None,None,,,,,,,,,,,,,,,,,,,,,,,11036,1,1,2024_Jun_01_1840,stroop_task_switching2,2021.2.3,60.03961413150619,
,,,红,green,k,diamond,color_mix,颜色,,incompatible,1,block_switch1,instruction/ready_test.png,instruction/i11.png,,,,,,,,,,,,,,,,,0,0,0,0,0,35,35,35,,,,,,,,,,,,,,,,,,,,,,,,,,,492.69113140000263,492.8905615999829,492.87607930001104,493.17528929997934,493.17528929997934,None,493.67586929997196,None,k,1,2.8676943000173196,493.67586929997196,None,None,None,,,,,,,,,,,,,,,,,,,,,,,11036,1,1,2024_Jun_01_1840,stroop_task_switching2,2021.2.3,60.03961413150619,
,,,黄,yellow,j,square,color_mix,单词,,compatible,2,block_switch1,instruction/ready_test.png,instruction/i11.png,,,,,,,,,,,,,,,,,0,0,0,0,0,36,36,36,,,,,,,,,,,,,,,,,,,,,,,,,,,496.5627798999776,496.7630811999552,496.74677349999547,497.04758169996785,497.04758169996785,None,497.5474611999816,None,j,1,0.995890700025484,497.5474611999816,None,None,None,,,,,,,,,,,,,,,,,,,,,,,11036,1,1,2024_Jun_01_1840,stroop_task_switching2,2021.2.3,60.03961413150619,
,,,蓝,blue,f,square,color_mix,单词,,compatible,1,block_switch1,instruction/ready_test.png,instruction/i11.png,,,,,,,,,,,,,,,,,0,0,0,0,0,37,37,37,,,,,,,,,,,,,,,,,,,,,,,,,,,498.56575700000394,498.7681695999927,498.74995490000583,499.0498050999595,499.0498050999595,None,499.55147760000546,None,f,1,1.575693399994634,499.55147760000546,None,None,None,,,,,,,,,,,,,,,,,,,,,,,11036,1,1,2024_Jun_01_1840,stroop_task_switching2,2021.2.3,60.03961413150619,
,,,绿,red,d,diamond,color_mix,颜色,,incompatible,2,block_switch1,instruction/ready_test.png,instruction/i11.png,,,,,,,,,,,,,,,,,0,0,0,0,0,38,38,38,,,,,,,,,,,,,,,,,,,,,,,,,,,501.15308149997145,501.3538661999628,501.33653729996877,501.63834629999474,501.63834629999474,None,502.1377041999949,None,d,1,2.197430700005498,502.1377041999949,None,None,None,,,,,,,,,,,,,,,,,,,,,,,11036,1,1,2024_Jun_01_1840,stroop_task_switching2,2021.2.3,60.03961413150619,
,,,黄,yellow,j,diamond,color_mix,颜色,,compatible,1,block_switch1,instruction/ready_test.png,instruction/i11.png,,,,,,,,,,,,,,,,,0,0,0,0,0,39,39,39,,,,,,,,,,,,,,,,,,,,,,,,,,,504.3577889999724,504.55948050000006,504.5423216999625,504.84172659995966,504.84172659995966,None,505.3426019999897,None,j,1,1.0247029999736696,505.3426019999897,None,None,None,,,,,,,,,,,,,,,,,,,,,,,11036,1,1,2024_Jun_01_1840,stroop_task_switching2,2021.2.3,60.03961413150619,
,,,红,blue,f,diamond,color_mix,颜色,,incompatible,1,block_switch1,instruction/ready_test.png,instruction/i11.png,,,,,,,,,,,,,,,,,0,0,0,0,0,40,40,40,,,,,,,,,,,,,,,,,,,,,,,,,,,506.39419739996083,506.59512469999027,506.57894629996736,506.8795953000081,506.8795953000081,None,507.3790128999972,None,f,1,2.412367400014773,507.3790128999972,None,None,None,,,,,,,,,,,,,,,,,,,,,,,11036,1,1,2024_Jun_01_1840,stroop_task_switching2,2021.2.3,60.03961413150619,
,,,绿,blue,k,square,color_mix,单词,,incompatible,2,block_switch1,instruction/ready_test.png,instruction/i11.png,,,,,,,,,,,,,,,,,0,0,0,0,0,41,41,41,,,,,,,,,,,,,,,,,,,,,,,,,,,509.81607159995474,510.0187589999987,509.9997823999729,510.3006112999865,510.3006112999865,None,510.80099789996166,None,k,1,1.374451500014402,510.80099789996166,None,None,None,,,,,,,,,,,,,,,,,,,,,,,11036,1,1,2024_Jun_01_1840,stroop_task_switching2,2021.2.3,60.03961413150619,
,,,蓝,blue,f,diamond,color_mix,颜色,,compatible,2,block_switch1,instruction/ready_test.png,instruction/i11.png,,,,,,,,,,,,,,,,,0,0,0,0,0,42,42,42,,,,,,,,,,,,,,,,,,,,,,,,,,,512.2029146999703,512.404104999965,512.3880902999663,512.6878176999744,512.6878176999744,None,513.1880389999715,None,f,1,1.3715120000415482,513.1880389999715,None,None,None,,,,,,,,,,,,,,,,,,,,,,,11036,1,1,2024_Jun_01_1840,stroop_task_switching2,2021.2.3,60.03961413150619,
,,,红,blue,d,square,color_mix,单词,,incompatible,2,block_switch1,instruction/ready_test.png,instruction/i11.png,,,,,,,,,,,,,,,,,0,0,0,0,0,43,43,43,,,,,,,,,,,,,,,,,,,,,,,,,,,514.5898349999916,514.7900797000038,514.7741845999844,515.0747720999643,515.0747720999643,None,515.5748537000036,None,d,1,0.46522080001886934,515.5748537000036,None,None,None,,,,,,,,,,,,,,,,,,,,,,,11036,1,1,2024_Jun_01_1840,stroop_task_switching2,2021.2.3,60.03961413150619,
,,,蓝,green,k,diamond,color_mix,颜色,,incompatible,2,block_switch1,instruction/ready_test.png,instruction/i11.png,,,,,,,,,,,,,,,,,0,0,0,0,0,44,44,44,,,,,,,,,,,,,,,,,,,,,,,,,,,516.0587432999746,516.2607432999648,516.2422762999777,516.5436661999556,516.5436661999556,None,517.0437246999936,None,k,1,0.956111800041981,517.0437246999936,None,None,None,,,,,,,,,,,,,,,,,,,,,,,11036,1,1,2024_Jun_01_1840,stroop_task_switching2,2021.2.3,60.03961413150619,
,,,黄,yellow,j,square,color_mix,单词,,compatible,2,block_switch1,instruction/ready_test.png,instruction/i11.png,,,,,,,,,,,,,,,,,0,0,0,0,0,45,45,45,,,,,,,,,,,,,,,,,,,,,,,,,,,518.0288704999839,518.2296482999809,518.2121861999622,518.5133460999932,518.5133460999932,None,519.014056199987,None,j,1,2.329916700022295,519.014056199987,None,None,None,,,,,,,,,,,,,,,,,,,,,,,11036,1,1,2024_Jun_01_1840,stroop_task_switching2,2021.2.3,60.03961413150619,
,,,黄,yellow,j,diamond,color_mix,颜色,,compatible,2,block_switch1,instruction/ready_test.png,instruction/i11.png,,,,,,,,,,,,,,,,,0,0,0,0,0,46,46,46,,,,,,,,,,,,,,,,,,,,,,,,,,,521.3668263999862,521.5669346000068,521.5513739999733,521.8515864000074,521.8515864000074,None,522.3515654999646,None,j,1,1.3524147999705747,522.3515654999646,None,None,None,,,,,,,,,,,,,,,,,,,,,,,11036,1,1,2024_Jun_01_1840,stroop_task_switching2,2021.2.3,60.03961413150619,
,,,绿,red,k,square,color_mix,单词,,incompatible,2,block_switch1,instruction/ready_test.png,instruction/i11.png,,,,,,,,,,,,,,,,,0,0,0,0,0,47,47,47,,,,,,,,,,,,,,,,,,,,,,,,,,,523.7208313999581,523.9210505000083,523.9043353999732,524.2058080999996,524.2058080999996,None,524.7060611000052,None,k,1,1.7181740999803878,524.7060611000052,None,None,None,,,,,,,,,,,,,,,,,,,,,,,11036,1,1,2024_Jun_01_1840,stroop_task_switching2,2021.2.3,60.03961413150619,
,,,红,red,d,diamond,color_mix,颜色,,compatible,2,block_switch1,instruction/ready_test.png,instruction/i11.png,,,,,,,,,,,,,,,,,0,0,0,0,0,48,48,48,,,,,,,,,,,,,,,,,,,,,,,,,,,526.4411292999866,526.6420617999975,526.6255843999679,526.9253666999866,526.9253666999866,None,527.4259510999545,None,d,1,1.6221480999956839,527.4259510999545,None,None,None,,,,,,,,,,,,,,,,,,,,,,,11036,1,1,2024_Jun_01_1840,stroop_task_switching2,2021.2.3,60.03961413150619,
,,,蓝,blue,f,diamond,color_mix,颜色,,compatible,1,block_switch1,instruction/ready_test.png,instruction/i11.png,,,,,,,,,,,,,,,,,0,0,0,0,0,49,49,49,,,,,,,,,,,,,,,,,,,,,,,,,,,529.0792036000057,529.2795003000065,529.2639822000056,529.5646584999631,529.5646584999631,None,530.0644509999547,None,f,1,1.5516516999923624,530.0644509999547,None,None,None,,,,,,,,,,,,,,,,,,,,,,,11036,1,1,2024_Jun_01_1840,stroop_task_switching2,2021.2.3,60.03961413150619,
,,,黄,yellow,j,diamond,color_mix,颜色,,compatible,1,block_switch1,instruction/ready_test.png,instruction/i11.png,,,,,,,,,,,,,,,,,0,0,0,0,0,50,50,50,,,,,,,,,,,,,,,,,,,,,,,,,,,531.6338551999652,531.8508899000008,531.8158850999898,532.1164113999694,532.1164113999694,None,532.6183241999825,None,j,1,1.1827435999875888,532.6183241999825,None,None,None,,,,,,,,,,,,,,,,,,,,,,,11036,1,1,2024_Jun_01_1840,stroop_task_switching2,2021.2.3,60.03961413150619,
,,,红,blue,f,diamond,color_mix,颜色,,incompatible,1,block_switch1,instruction/ready_test.png,instruction/i11.png,,,,,,,,,,,,,,,,,0,0,0,0,0,51,51,51,,,,,,,,,,,,,,,,,,,,,,,,,,,533.8189376000082,534.0199411999783,534.0032520999666,534.3035446999711,534.3035446999711,None,534.8043975000037,None,f,1,1.611908399965614,534.8043975000037,None,None,None,,,,,,,,,,,,,,,,,,,,,,,11036,1,1,2024_Jun_01_1840,stroop_task_switching2,2021.2.3,60.03961413150619,
,,,蓝,yellow,j,diamond,color_mix,颜色,,incompatible,1,block_switch1,instruction/ready_test.png,instruction/i11.png,,,,,,,,,,,,,,,,,0,0,0,0,0,52,52,52,,,,,,,,,,,,,,,,,,,,,,,,,,,536.4395423000096,536.6412185999798,536.6231091999798,536.9236789999995,536.9236789999995,None,537.4250500999624,None,j,1,1.3752715999726206,537.4250500999624,None,None,None,,,,,,,,,,,,,,,,,,,,,,,11036,1,1,2024_Jun_01_1840,stroop_task_switching2,2021.2.3,60.03961413150619,
,,,黄,blue,j,square,color_mix,单词,,incompatible,2,block_switch1,instruction/ready_test.png,instruction/i11.png,,,,,,,,,,,,,,,,,0,0,0,0,0,53,53,53,,,,,,,,,,,,,,,,,,,,,,,,,,,538.8264655999956,539.0267461999902,539.0107860999997,539.3114062999957,539.3114062999957,None,539.812714300002,None,j,1,1.7639210000052117,539.812714300002,None,None,None,,,,,,,,,,,,,,,,,,,,,,,11036,1,1,2024_Jun_01_1840,stroop_task_switching2,2021.2.3,60.03961413150619,
,,,蓝,blue,f,diamond,color_mix,颜色,,compatible,2,block_switch1,instruction/ready_test.png,instruction/i11.png,,,,,,,,,,,,,,,,,0,0,0,0,0,54,54,54,,,,,,,,,,,,,,,,,,,,,,,,,,,541.5973161999718,541.7987159999902,541.7808522999985,542.0830332000041,542.0830332000041,None,542.5821274999762,None,f,1,2.795154499995988,542.5821274999762,None,None,None,,,,,,,,,,,,,,,,,,,,,,,11036,1,1,2024_Jun_01_1840,stroop_task_switching2,2021.2.3,60.03961413150619,
,,,红,yellow,d,square,color_mix,单词,,incompatible,2,block_switch1,instruction/ready_test.png,instruction/i11.png,,,,,,,,,,,,,,,,,0,0,0,0,0,55,55,55,,,,,,,,,,,,,,,,,,,,,,,,,,,545.4031400000094,545.6036920999759,545.587501299975,545.887656499981,545.887656499981,None,546.3889166999725,None,d,1,2.627572399971541,546.3889166999725,None,None,None,,,,,,,,,,,,,,,,,,,,,,,11036,1,1,2024_Jun_01_1840,stroop_task_switching2,2021.2.3,60.03961413150619,
,,,蓝,red,f,square,color_mix,单词,,incompatible,1,block_switch1,instruction/ready_test.png,instruction/i11.png,,,,,,,,,,,,,,,,,0,0,0,0,0,56,56,56,,,,,,,,,,,,,,,,,,,,,,,,,,,549.0433078999631,549.2593308999785,549.2255396999535,549.5273408999783,549.5273408999783,None,550.0265048999572,None,f,1,1.5190337999956682,550.0265048999572,None,None,None,,,,,,,,,,,,,,,,,,,,,,,11036,1,1,2024_Jun_01_1840,stroop_task_switching2,2021.2.3,60.03961413150619,
,,,蓝,blue,f,square,color_mix,单词,,compatible,1,block_switch1,instruction/ready_test.png,instruction/i11.png,,,,,,,,,,,,,,,,,0,0,0,0,0,57,57,57,,,,,,,,,,,,,,,,,,,,,,,,,,,551.5624821999809,551.7626391999656,551.7465661999886,552.0464886999689,552.0464886999689,None,552.5474498999538,None,f,1,0.8533681000117213,552.5474498999538,None,None,None,,,,,,,,,,,,,,,,,,,,,,,11036,1,1,2024_Jun_01_1840,stroop_task_switching2,2021.2.3,60.03961413150619,
,,,蓝,red,d,diamond,color_mix,颜色,,incompatible,2,block_switch1,instruction/ready_test.png,instruction/i11.png,,,,,,,,,,,,,,,,,0,0,0,0,0,58,58,58,,,,,,,,,,,,,,,,,,,,,,,,,,,553.4325507999747,553.6327777999686,553.6161306999857,553.9157430999912,553.9157430999912,None,554.417521699972,None,d,1,1.3196879999595694,554.417521699972,None,None,None,,,,,,,,,,,,,,,,,,,,,,,11036,1,1,2024_Jun_01_1840,stroop_task_switching2,2021.2.3,60.03961413150619,
,,,绿,green,k,diamond,color_mix,颜色,,compatible,1,block_switch1,instruction/ready_test.png,instruction/i11.png,,,,,,,,,,,,,,,,,0,0,0,0,0,59,59,59,,,,,,,,,,,,,,,,,,,,,,,,,,,555.7521878999542,555.9532283999724,555.9372968999669,556.2359413999948,556.2359413999948,None,556.737484399986,None,k,1,0.9273401999962516,556.737484399986,None,None,None,,,,,,,,,,,,,,,,,,,,,,,11036,1,1,2024_Jun_01_1840,stroop_task_switching2,2021.2.3,60.03961413150619,
,,,蓝,blue,f,diamond,color_mix,颜色,,compatible,1,block_switch1,instruction/ready_test.png,instruction/i11.png,,,,,,,,,,,,,,,,,0,0,0,0,0,60,60,60,,,,,,,,,,,,,,,,,,,,,,,,,,,557.6882666999591,557.8884931000066,557.873688099964,558.1895373999723,558.1743589999969,None,558.6903579999926,None,f,1,0.9105130999814719,558.6903579999926,None,None,None,,,,,,,,,,,,,,,,,,,,,,,11036,1,1,2024_Jun_01_1840,stroop_task_switching2,2021.2.3,60.03961413150619,
,,,黄,yellow,j,square,color_mix,单词,,compatible,2,block_switch1,instruction/ready_test.png,instruction/i11.png,,,,,,,,,,,,,,,,,0,0,0,0,0,61,61,61,,,,,,,,,,,,,,,,,,,,,,,,,,,559.6243264999939,559.8256383999833,559.8089186999714,560.1084386999719,560.1084386999719,None,560.6094942999771,None,j,1,0.9362166000064462,560.6094942999771,None,None,None,,,,,,,,,,,,,,,,,,,,,,,11036,1,1,2024_Jun_01_1840,stroop_task_switching2,2021.2.3,60.03961413150619,
,,,绿,blue,k,square,color_mix,单词,,incompatible,1,block_switch1,instruction/ready_test.png,instruction/i11.png,,,,,,,,,,,,,,,,,0,0,0,0,0,62,62,62,,,,,,,,,,,,,,,,,,,,,,,,,,,561.5772219999926,561.7792294999817,561.7607902999735,562.0620946999989,562.0620946999989,None,562.5622041999595,None,k,1,0.7831364999874495,562.5622041999595,None,None,None,,,,,,,,,,,,,,,,,,,,,,,11036,1,1,2024_Jun_01_1840,stroop_task_switching2,2021.2.3,60.03961413150619,
,,,蓝,yellow,f,square,color_mix,单词,,incompatible,1,block_switch1,instruction/ready_test.png,instruction/i11.png,,,,,,,,,,,,,,,,,0,0,0,0,0,63,63,63,,,,,,,,,,,,,,,,,,,,,,,,,,,563.3635531999753,563.5647736999672,563.5487833999796,563.8644885999965,563.8495084999595,None,564.3493506999803,None,f,1,1.835602699953597,564.3493506999803,None,None,None,,,,,,,,,,,,,,,,,,,,,,,11036,1,1,2024_Jun_01_1840,stroop_task_switching2,2021.2.3,60.03961413150619,
,,,黄,yellow,j,diamond,color_mix,颜色,,compatible,2,block_switch1,instruction/ready_test.png,instruction/i11.png,,,,,,,,,,,,,,,,,0,0,0,0,0,64,64,64,,,,,,,,,,,,,,,,,,,,,,,,,,,566.2011057999916,566.4017621999956,566.384556200006,566.6859092999948,566.6859092999948,None,567.1868017999805,None,j,1,1.3666414999752305,567.1868017999805,None,None,None,,,,,,,,,,,,,,,,,,,,,,,11036,1,1,2024_Jun_01_1840,stroop_task_switching2,2021.2.3,60.03961413150619,
,,,蓝,green,k,diamond,color_mix,颜色,,incompatible,1,block_switch1,instruction/ready_test.png,instruction/i11.png,,,,,,,,,,,,,,,,,0,0,0,0,0,65,65,65,,,,,,,,,,,,,,,,,,,,,,,,,,,568.5712519999943,568.7728557999944,568.7558157999883,569.0554498999845,569.0554498999845,None,569.5561675999779,None,k,1,0.7248159000300802,569.5561675999779,None,None,None,,,,,,,,,,,,,,,,,,,,,,,11036,1,1,2024_Jun_01_1840,stroop_task_switching2,2021.2.3,60.03961413150619,
,,,红,red,d,diamond,color_mix,颜色,,compatible,1,block_switch1,instruction/ready_test.png,instruction/i11.png,,,,,,,,,,,,,,,,,0,0,0,0,0,66,66,66,,,,,,,,,,,,,,,,,,,,,,,,,,,570.3072322999942,570.508220299962,570.4908539999742,570.7914244999993,570.7914244999993,None,571.2929360999842,None,d,1,1.1082828999496996,571.2929360999842,None,None,None,,,,,,,,,,,,,,,,,,,,,,,11036,1,1,2024_Jun_01_1840,stroop_task_switching2,2021.2.3,60.03961413150619,
,,,蓝,yellow,f,square,color_mix,单词,,incompatible,2,block_switch1,instruction/ready_test.png,instruction/i11.png,,,,,,,,,,,,,,,,,0,0,0,0,0,67,67,67,,,,,,,,,,,,,,,,,,,,,,,,,,,572.4269284000038,572.6289045999874,572.6108509000042,572.9129317000043,572.9129317000043,None,573.4126885999576,None,f,1,0.8924329999717884,573.4126885999576,None,None,None,,,,,,,,,,,,,,,,,,,,,,,11036,1,1,2024_Jun_01_1840,stroop_task_switching2,2021.2.3,60.03961413150619,
,,,红,yellow,d,square,color_mix,单词,,incompatible,1,block_switch1,instruction/ready_test.png,instruction/i11.png,,,,,,,,,,,,,,,,,0,0,0,0,0,68,68,68,,,,,,,,,,,,,,,,,,,,,,,,,,,574.3311619999586,574.5313438999583,574.5135720999679,574.815390600008,574.815390600008,None,575.315584899974,None,d,1,0.8299404999706894,575.315584899974,None,None,None,,,,,,,,,,,,,,,,,,,,,,,11036,1,1,2024_Jun_01_1840,stroop_task_switching2,2021.2.3,60.03961413150619,
,,,红,yellow,j,diamond,color_mix,颜色,,incompatible,2,block_switch1,instruction/ready_test.png,instruction/i11.png,,,,,,,,,,,,,,,,,0,0,0,0,0,69,69,69,,,,,,,,,,,,,,,,,,,,,,,,,,,576.1661084999796,576.3664203999797,576.3512159999809,576.6501983999624,576.6501983999624,None,577.1508608000004,None,j,1,0.930980000004638,577.1508608000004,None,None,None,,,,,,,,,,,,,,,,,,,,,,,11036,1,1,2024_Jun_01_1840,stroop_task_switching2,2021.2.3,60.03961413150619,
,,,蓝,green,f,square,color_mix,单词,,incompatible,2,block_switch1,instruction/ready_test.png,instruction/i11.png,,,,,,,,,,,,,,,,,0,0,0,0,0,70,70,70,,,,,,,,,,,,,,,,,,,,,,,,,,,578.1021910999552,578.3030066000065,578.2857527000015,578.5864237999776,578.5864237999776,None,579.0878612999804,None,f,1,0.8979331000009552,579.0878612999804,None,None,None,,,,,,,,,,,,,,,,,,,,,,,11036,1,1,2024_Jun_01_1840,stroop_task_switching2,2021.2.3,60.03961413150619,
,,,绿,yellow,k,square,color_mix,单词,,incompatible,1,block_switch1,instruction/ready_test.png,instruction/i11.png,,,,,,,,,,,,,,,,,0,0,0,0,0,71,71,71,,,,,,,,,,,,,,,,,,,,,,,,,,,580.0052569999825,580.2077918999712,580.1887895999826,580.4892543999595,580.4892543999595,None,580.990098099981,None,k,1,2.019787900033407,580.990098099981,None,None,None,,,,,,,,,,,,,,,,,,,,,,,11036,1,1,2024_Jun_01_1840,stroop_task_switching2,2021.2.3,60.03961413150619,
,,,蓝,yellow,j,diamond,color_mix,颜色,,incompatible,2,block_switch1,instruction/ready_test.png,instruction/i11.png,,,,,,,,,,,,,,,,,0,0,0,0,0,72,72,72,,,,,,,,,,,,,,,,,,,,,,,,,,,583.0264729000046,583.2281554999645,583.2099367000046,583.5111334999674,583.5111334999674,None,584.0111739999847,None,j,1,1.2467466000234708,584.0111739999847,None,None,None,,,,,,,,,,,,,,,,,,,,,,,11036,1,1,2024_Jun_01_1840,stroop_task_switching2,2021.2.3,60.03961413150619,
,,,红,green,d,square,color_mix,单词,,incompatible,2,block_switch1,instruction/ready_test.png,instruction/i11.png,,,,,,,,,,,,,,,,,0,0,0,0,0,73,73,73,,,,,,,,,,,,,,,,,,,,,,,,,,,585.2797516999999,585.4809105999884,585.4646308000083,585.7638544999645,585.7638544999645,None,586.2646378999925,None,d,1,1.7694729000213556,586.2646378999925,None,None,None,,,,,,,,,,,,,,,,,,,,,,,11036,1,1,2024_Jun_01_1840,stroop_task_switching2,2021.2.3,60.03961413150619,
,,,绿,blue,f,diamond,color_mix,颜色,,incompatible,2,block_switch1,instruction/ready_test.png,instruction/i11.png,,,,,,,,,,,,,,,,,0,0,0,0,0,74,74,74,,,,,,,,,,,,,,,,,,,,,,,,,,,588.0507984999567,588.2516413999838,588.2342236999539,588.5355728999712,588.5355728999712,None,589.0361340999953,None,f,1,2.0536869000061415,589.0361340999953,None,None,None,,,,,,,,,,,,,,,,,,,,,,,11036,1,1,2024_Jun_01_1840,stroop_task_switching2,2021.2.3,60.03961413150619,
,,,红,red,d,square,color_mix,单词,,compatible,2,block_switch1,instruction/ready_test.png,instruction/i11.png,,,,,,,,,,,,,,,,,0,0,0,0,0,75,75,75,,,,,,,,,,,,,,,,,,,,,,,,,,,591.1052321000025,591.3067035999848,591.2897857999778,591.5908573999768,591.5908573999768,None,592.0900771999732,None,d,1,0.8000082999933511,592.0900771999732,None,None,None,,,,,,,,,,,,,,,,,,,,,,,11036,1,1,2024_Jun_01_1840,stroop_task_switching2,2021.2.3,60.03961413150619,
,,,绿,green,k,diamond,color_mix,颜色,,compatible,2,block_switch1,instruction/ready_test.png,instruction/i11.png,,,,,,,,,,,,,,,,,0,0,0,0,0,76,76,76,,,,,,,,,,,,,,,,,,,,,,,,,,,592.908001200005,593.1089070999878,593.0935343999881,593.3926242999732,593.3926242999732,None,593.8941281999578,None,f,0,1.827721500012558,593.8941281999578,None,None,None,,,,,,,,,,,,,,,,,,,,,,,11036,1,1,2024_Jun_01_1840,stroop_task_switching2,2021.2.3,60.03961413150619,
,,,黄,red,j,square,color_mix,单词,,incompatible,2,block_switch1,instruction/ready_test.png,instruction/i11.png,,,,,,,,,,,,,,,,,0,0,0,0,0,77,77,77,,,,,,,,,,,,,,,,,,,,,,,,,,,595.7454679000075,595.945949899964,595.9297689999803,596.2310314999777,596.2310314999777,None,596.7310925999773,None,j,1,1.302745799999684,596.7310925999773,None,None,None,,,,,,,,,,,,,,,,,,,,,,,11036,1,1,2024_Jun_01_1840,stroop_task_switching2,2021.2.3,60.03961413150619,
,,,红,red,d,square,color_mix,单词,,compatible,1,block_switch1,instruction/ready_test.png,instruction/i11.png,,,,,,,,,,,,,,,,,0,0,0,0,0,78,78,78,,,,,,,,,,,,,,,,,,,,,,,,,,,598.0491394999553,598.2492934999755,598.2344203999965,598.5503554999596,598.5340869000065,None,599.0341454999871,None,d,1,1.047976000001654,599.0341454999871,None,None,None,,,,,,,,,,,,,,,,,,,,,,,11036,1,1,2024_Jun_01_1840,stroop_task_switching2,2021.2.3,60.03961413150619,
,,,黄,yellow,j,square,color_mix,单词,,compatible,1,block_switch1,instruction/ready_test.png,instruction/i11.png,,,,,,,,,,,,,,,,,0,0,0,0,0,79,79,79,,,,,,,,,,,,,,,,,,,,,,,,,,,600.1021068999544,600.3031409999821,600.2866949999589,600.5862924999674,600.5862924999674,None,601.0869080999983,None,j,1,0.835085800033994,601.0869080999983,None,None,None,,,,,,,,,,,,,,,,,,,,,,,11036,1,1,2024_Jun_01_1840,stroop_task_switching2,2021.2.3,60.03961413150619,
,,,红,red,d,diamond,color_mix,颜色,,compatible,2,block_switch1,instruction/ready_test.png,instruction/i11.png,,,,,,,,,,,,,,,,,0,0,0,0,0,80,80,80,,,,,,,,,,,,,,,,,,,,,,,,,,,601.9381110999966,602.1386611000053,602.122753100004,602.4237105000066,602.4237105000066,None,602.9230221000034,None,d,1,1.7192427000263706,602.9230221000034,None,None,None,,,,,,,,,,,,,,,,,,,,,,,11036,1,1,2024_Jun_01_1840,stroop_task_switching2,2021.2.3,60.03961413150619,
,,,红,red,d,square,color_mix,单词,,compatible,2,block_switch1,instruction/ready_test.png,instruction/i11.png,,,,,,,,,,,,,,,,,0,0,0,0,0,81,81,81,,,,,,,,,,,,,,,,,,,,,,,,,,,604.6597143999534,604.8593365999986,604.8434070000076,605.1445079999976,605.1445079999976,None,605.6438623999711,None,d,1,1.582607900025323,605.6438623999711,None,None,None,,,,,,,,,,,,,,,,,,,,,,,11036,1,1,2024_Jun_01_1840,stroop_task_switching2,2021.2.3,60.03961413150619,
,,,黄,blue,f,diamond,color_mix,颜色,,incompatible,2,block_switch1,instruction/ready_test.png,instruction/i11.png,,,,,,,,,,,,,,,,,0,0,0,0,0,82,82,82,,,,,,,,,,,,,,,,,,,,,,,,,,,607.2461399000022,607.4486208999879,607.4298274999601,607.731796899985,607.731796899985,None,608.2310215999605,None,f,1,0.9474365999922156,608.2310215999605,None,None,None,,,,,,,,,,,,,,,,,,,,,,,11036,1,1,2024_Jun_01_1840,stroop_task_switching2,2021.2.3,60.03961413150619,
,,,红,yellow,j,diamond,color_mix,颜色,,incompatible,1,block_switch1,instruction/ready_test.png,instruction/i11.png,,,,,,,,,,,,,,,,,0,0,0,0,0,83,83,83,,,,,,,,,,,,,,,,,,,,,,,,,,,609.1992930999841,609.3995797999669,609.382858500001,609.6854957999894,609.6854957999894,None,610.1854522000067,None,j,1,0.9289947999641299,610.1854522000067,None,None,None,,,,,,,,,,,,,,,,,,,,,,,11036,1,1,2024_Jun_01_1840,stroop_task_switching2,2021.2.3,60.03961413150619,
,,,黄,red,d,diamond,color_mix,颜色,,incompatible,1,block_switch1,instruction/ready_test.png,instruction/i11.png,,,,,,,,,,,,,,,,,0,0,0,0,0,84,84,84,,,,,,,,,,,,,,,,,,,,,,,,,,,611.1354248999851,611.3364518999588,611.3209340999601,611.6202563999686,611.6202563999686,None,612.1210601999774,None,d,1,1.8814708999707364,612.1210601999774,None,None,None,,,,,,,,,,,,,,,,,,,,,,,11036,1,1,2024_Jun_01_1840,stroop_task_switching2,2021.2.3,60.03961413150619,
,,,蓝,blue,f,square,color_mix,单词,,compatible,2,block_switch1,instruction/ready_test.png,instruction/i11.png,,,,,,,,,,,,,,,,,0,0,0,0,0,85,85,85,,,,,,,,,,,,,,,,,,,,,,,,,,,614.0230677999789,614.2244540000102,614.2076642999891,614.5087259999709,614.5087259999709,None,615.0078823000076,None,f,1,1.4263892999733798,615.0078823000076,None,None,None,,,,,,,,,,,,,,,,,,,,,,,11036,1,1,2024_Jun_01_1840,stroop_task_switching2,2021.2.3,60.03961413150619,
,,,绿,green,k,square,color_mix,单词,,compatible,1,block_switch1,instruction/ready_test.png,instruction/i11.png,,,,,,,,,,,,,,,,,0,0,0,0,0,86,86,86,,,,,,,,,,,,,,,,,,,,,,,,,,,616.4602588999551,616.6604934000061,616.6438274999964,616.944485999993,616.944485999993,None,617.4450455000042,None,k,1,0.5577247999608517,617.4450455000042,None,None,None,,,,,,,,,,,,,,,,,,,,,,,11036,1,1,2024_Jun_01_1840,stroop_task_switching2,2021.2.3,60.03961413150619,
,,,红,red,d,square,color_mix,单词,,compatible,1,block_switch1,instruction/ready_test.png,instruction/i11.png,,,,,,,,,,,,,,,,,0,0,0,0,0,87,87,87,,,,,,,,,,,,,,,,,,,,,,,,,,,618.0292420999613,618.2302692999947,618.2135732999886,618.5141693999758,618.5141693999758,None,619.0140931999777,None,d,1,0.6284839000436477,619.0140931999777,None,None,None,,,,,,,,,,,,,,,,,,,,,,,11036,1,1,2024_Jun_01_1840,stroop_task_switching2,2021.2.3,60.03961413150619,
,,,黄,green,k,diamond,color_mix,颜色,,incompatible,2,block_switch1,instruction/ready_test.png,instruction/i11.png,,,,,,,,,,,,,,,,,0,0,0,0,0,88,88,88,,,,,,,,,,,,,,,,,,,,,,,,,,,619.6650599999703,619.8674716000096,619.8486529999645,620.1489299999666,620.1489299999666,None,620.6496767000062,None,k,1,1.664660400012508,620.6496767000062,None,None,None,,,,,,,,,,,,,,,,,,,,,,,11036,1,1,2024_Jun_01_1840,stroop_task_switching2,2021.2.3,60.03961413150619,
,,,绿,red,k,square,color_mix,单词,,incompatible,2,block_switch1,instruction/ready_test.png,instruction/i11.png,,,,,,,,,,,,,,,,,0,0,0,0,0,89,89,89,,,,,,,,,,,,,,,,,,,,,,,,,,,622.3356484000105,622.5363034000038,622.5214960000012,622.8374287000042,622.8195011999924,None,623.3205261999974,None,k,1,1.0507261999882758,623.3205261999974,None,None,None,,,,,,,,,,,,,,,,,,,,,,,11036,1,1,2024_Jun_01_1840,stroop_task_switching2,2021.2.3,60.03961413150619,
,,,黄,green,j,square,color_mix,单词,,incompatible,1,block_switch1,instruction/ready_test.png,instruction/i11.png,,,,,,,,,,,,,,,,,0,0,0,0,0,90,90,90,,,,,,,,,,,,,,,,,,,,,,,,,,,624.3888404999743,624.5896240999573,624.5732036999543,624.8741689999588,624.8741689999588,None,625.3742555999779,None,j,1,0.61304199998267,625.3742555999779,None,None,None,,,,,,,,,,,,,,,,,,,,,,,11036,1,1,2024_Jun_01_1840,stroop_task_switching2,2021.2.3,60.03961413150619,
,,,蓝,blue,f,square,color_mix,单词,,compatible,1,block_switch1,instruction/ready_test.png,instruction/i11.png,,,,,,,,,,,,,,,,,0,0,0,0,0,91,91,91,,,,,,,,,,,,,,,,,,,,,,,,,,,626.0078860999784,626.2095681999926,626.1915998999611,626.4928971999907,626.4928971999907,None,626.993677099992,None,f,1,0.8409828000003472,626.993677099992,None,None,None,,,,,,,,,,,,,,,,,,,,,,,11036,1,1,2024_Jun_01_1840,stroop_task_switching2,2021.2.3,60.03961413150619,
,,,蓝,red,f,square,color_mix,单词,,incompatible,1,block_switch1,instruction/ready_test.png,instruction/i11.png,,,,,,,,,,,,,,,,,0,0,0,0,0,92,92,92,,,,,,,,,,,,,,,,,,,,,,,,,,,627.8606301000109,628.0627322999644,628.0442196999793,628.346057399991,628.346057399991,None,628.8460408999817,None,f,1,1.0848189999815077,628.8460408999817,None,None,None,,,,,,,,,,,,,,,,,,,,,,,11036,1,1,2024_Jun_01_1840,stroop_task_switching2,2021.2.3,60.03961413150619,
,,,黄,blue,j,square,color_mix,单词,,incompatible,1,block_switch1,instruction/ready_test.png,instruction/i11.png,,,,,,,,,,,,,,,,,0,0,0,0,0,93,93,93,,,,,,,,,,,,,,,,,,,,,,,,,,,629.9482169999974,630.148278699955,630.1316076999647,630.4319547999767,630.4319547999767,None,630.9333386999788,None,j,1,0.878020599950105,630.9333386999788,None,None,None,,,,,,,,,,,,,,,,,,,,,,,11036,1,1,2024_Jun_01_1840,stroop_task_switching2,2021.2.3,60.03961413150619,
,,,绿,red,d,diamond,color_mix,颜色,,incompatible,2,block_switch1,instruction/ready_test.png,instruction/i11.png,,,,,,,,,,,,,,,,,0,0,0,0,0,94,94,94,,,,,,,,,,,,,,,,,,,,,,,,,,,631.833353199996,632.0334460999584,632.0183197999722,632.3174471000093,632.3174471000093,None,632.8181240999838,None,d,1,1.5208702000090852,632.8181240999838,None,None,None,,,,,,,,,,,,,,,,,,,,,,,11036,1,1,2024_Jun_01_1840,stroop_task_switching2,2021.2.3,60.03961413150619,
,,,蓝,blue,f,diamond,color_mix,颜色,,compatible,1,block_switch1,instruction/ready_test.png,instruction/i11.png,,,,,,,,,,,,,,,,,0,0,0,0,0,95,95,95,,,,,,,,,,,,,,,,,,,,,,,,,,,634.3537617999827,634.5564454999985,634.5379697000026,634.8378830999718,634.8378830999718,None,635.3384511999902,None,f,1,1.1925360000459477,635.3384511999902,None,None,None,,,,,,,,,,,,,,,,,,,,,,,11036,1,1,2024_Jun_01_1840,stroop_task_switching2,2021.2.3,60.03961413150619,
,,,绿,green,k,square,color_mix,单词,,compatible,2,block_switch1,instruction/ready_test.png,instruction/i11.png,,,,,,,,,,,,,,,,,0,0,0,0,0,96,96,96,,,,,,,,,,,,,,,,,,,,,,,,,,,636.5581682999618,636.7572957999655,636.7423189999536,637.0418745999923,637.0418745999923,None,637.5418950999738,None,k,1,0.8690138999954797,637.5418950999738,None,None,None,,,,,,,,,,,,,,,,,,,,,,,11036,1,1,2024_Jun_01_1840,stroop_task_switching2,2021.2.3,60.03961413150619,
,,,,,,,,,,,,block_switch1,instruction/ready_test.png,instruction/i11.png,,,,,,,,,,,,,,,,,0,0,0,0,,,,,,,,,,,,,,,,,,,,,,,,,,,,,,,,,,,,,,,,,,,,,,,,,,,,,,,,,,,,638.4265366999898,None,space,19.07302409998374,638.4265366999898,None,,,11036,1,1,2024_Jun_01_1840,stroop_task_switching2,2021.2.3,60.03961413150619,
,,,蓝,blue,f,square,color_mix,单词,,compatible,0,block_switch2,instruction/ready_2.png,instruction/i12.png,,,,,,,,,,,,,,,,,0,1,1,1,0,0,0,0,,,,,,,,,,,,,,,,,,,660.1937870999682,661.19482959999,661.19482959999,662.1983203999698,662.1983203999698,None,659.2080518999719,660.2106249000062,663.2139736000099,663.4155255999649,663.4155255999649,663.7154551999993,663.6986643999699,None,664.1987586999894,None,f,1,0.8767984000151046,664.1987586999894,None,None,None,,,,,,,,,657.540002099995,None,space,1.6397090000100434,657.540002099995,None,,,,,,,,,11036,1,1,2024_Jun_01_1840,stroop_task_switching2,2021.2.3,60.03961413150619,
,,,黄,red,d,diamond,color_mix,颜色,,incompatible,2,block_switch2,instruction/ready_2.png,instruction/i12.png,,,,,,,,,,,,,,,,,0,1,1,1,0,1,1,1,,,,,,,,,,,,,,,,,,,,,,,,,,,665.1001390999882,665.3015822999878,665.283851599961,665.5855658999644,665.5855658999644,None,666.0858290999895,None,d,1,0.6220516000175849,666.0858290999895,None,None,None,,,,,,,,,,,,,,,,,,,,,,,11036,1,1,2024_Jun_01_1840,stroop_task_switching2,2021.2.3,60.03961413150619,
,,,蓝,green,k,diamond,color_mix,颜色,,incompatible,1,block_switch2,instruction/ready_2.png,instruction/i12.png,,,,,,,,,,,,,,,,,0,1,1,1,0,2,2,2,,,,,,,,,,,,,,,,,,,,,,,,,,,666.7360526999692,666.9374853000045,666.9195714999805,667.2208539999556,667.2208539999556,None,667.7212117000017,None,k,1,0.6910017000045627,667.7212117000017,None,None,None,,,,,,,,,,,,,,,,,,,,,,,11036,1,1,2024_Jun_01_1840,stroop_task_switching2,2021.2.3,60.03961413150619,
,,,红,yellow,j,diamond,color_mix,颜色,,incompatible,1,block_switch2,instruction/ready_2.png,instruction/i12.png,,,,,,,,,,,,,,,,,0,1,1,1,0,3,3,3,,,,,,,,,,,,,,,,,,,,,,,,,,,668.4386333999573,668.6389723999891,668.6220844999771,668.9235218999675,668.9235218999675,None,669.4242159999558,None,j,1,0.9482034000102431,669.4242159999558,None,None,None,,,,,,,,,,,,,,,,,,,,,,,11036,1,1,2024_Jun_01_1840,stroop_task_switching2,2021.2.3,60.03961413150619,
,,,红,red,d,diamond,color_mix,颜色,,compatible,1,block_switch2,instruction/ready_2.png,instruction/i12.png,,,,,,,,,,,,,,,,,0,1,1,1,0,4,4,4,,,,,,,,,,,,,,,,,,,,,,,,,,,670.3923210999928,670.593361999956,670.5763718999806,670.8764540999546,670.8764540999546,None,671.3770309999818,None,d,1,0.5547877999488264,671.3770309999818,None,None,None,,,,,,,,,,,,,,,,,,,,,,,11036,1,1,2024_Jun_01_1840,stroop_task_switching2,2021.2.3,60.03961413150619,
,,,绿,green,k,square,color_mix,单词,,compatible,2,block_switch2,instruction/ready_2.png,instruction/i12.png,,,,,,,,,,,,,,,,,0,1,1,1,0,5,5,5,,,,,,,,,,,,,,,,,,,,,,,,,,,671.9605363999726,672.1617439999827,672.1446759999963,672.4453106999863,672.4453106999863,None,672.9463417999796,None,k,1,0.6978448000154458,672.9463417999796,None,None,None,,,,,,,,,,,,,,,,,,,,,,,11036,1,1,2024_Jun_01_1840,stroop_task_switching2,2021.2.3,60.03961413150619,
,,,黄,blue,f,diamond,color_mix,颜色,,incompatible,2,block_switch2,instruction/ready_2.png,instruction/i12.png,,,,,,,,,,,,,,,,,0,1,1,1,0,6,6,6,,,,,,,,,,,,,,,,,,,,,,,,,,,673.6630711999605,673.863801200001,673.8466094000032,674.1482371999882,674.1482371999882,None,674.648816699977,None,f,1,0.8912733999895863,674.648816699977,None,None,None,,,,,,,,,,,,,,,,,,,,,,,11036,1,1,2024_Jun_01_1840,stroop_task_switching2,2021.2.3,60.03961413150619,
,,,绿,yellow,k,square,color_mix,单词,,incompatible,2,block_switch2,instruction/ready_2.png,instruction/i12.png,,,,,,,,,,,,,,,,,0,1,1,1,0,7,7,7,,,,,,,,,,,,,,,,,,,,,,,,,,,675.566659300006,675.7670894999756,675.7503683000105,676.0518289000029,676.0518289000029,None,676.5517000000109,None,k,1,0.8208046000218019,676.5517000000109,None,None,None,,,,,,,,,,,,,,,,,,,,,,,11036,1,1,2024_Jun_01_1840,stroop_task_switching2,2021.2.3,60.03961413150619,
,,,红,green,d,square,color_mix,单词,,incompatible,1,block_switch2,instruction/ready_2.png,instruction/i12.png,,,,,,,,,,,,,,,,,0,1,1,1,0,8,8,8,,,,,,,,,,,,,,,,,,,,,,,,,,,677.4021881999797,677.6024533999735,677.586399199965,677.8867384999758,677.8867384999758,None,678.3883304999908,None,d,1,1.2162981000146829,678.3883304999908,None,None,None,,,,,,,,,,,,,,,,,,,,,,,11036,1,1,2024_Jun_01_1840,stroop_task_switching2,2021.2.3,60.03961413150619,
,,,黄,yellow,j,square,color_mix,单词,,compatible,1,block_switch2,instruction/ready_2.png,instruction/i12.png,,,,,,,,,,,,,,,,,0,1,1,1,0,9,9,9,,,,,,,,,,,,,,,,,,,,,,,,,,,679.6227015999611,679.8233966999687,679.8062552000047,680.1075643000077,680.1075643000077,None,680.6067105999682,None,f,0,0.7094712000107393,680.6067105999682,None,None,None,,,,,,,,,,,,,,,,,,,,,,,11036,1,1,2024_Jun_01_1840,stroop_task_switching2,2021.2.3,60.03961413150619,
