b_pra,ins_blocks,ins_blocks2,stim_word,stim_color,corrAns,cue_type,trial_type,task_type,rand,compatibility,switch,b_test,w_pic,w_pic2,trials_instr.thisRepN,trials_instr.thisTrialN,trials_instr.thisN,trials_instr.thisIndex,block_pra.thisRepN,block_pra.thisTrialN,block_pra.thisN,block_pra.thisIndex,trials_rep.thisRepN,trials_rep.thisTrialN,trials_rep.thisN,trials_rep.thisIndex,trials_pra.thisRepN,trials_pra.thisTrialN,trials_pra.thisN,trials_pra.thisIndex,trials_3.thisRepN,trials_3.thisTrialN,trials_3.thisN,trials_3.thisIndex,trials_2.thisRepN,trials_2.thisTrialN,trials_2.thisN,trials_2.thisIndex,instr_image.started,instr_image.stopped,instr_key_resp.keys,instr_key_resp.rt,instr_key_resp.started,instr_key_resp.stopped,instr_pra_image.started,instr_pra_image.stopped,ip_key_resp.keys,ip_key_resp.rt,ip_key_resp.started,ip_key_resp.stopped,block_image.started,block_image.stopped,ib_key_resp.keys,ib_key_resp.rt,ib_key_resp.started,ib_key_resp.stopped,cd3.started,cd3.stopped,cd2.started,cd2.stopped,cd1.started,cd1.stopped,cd_text.started,cd_text.stopped,text_fix.started,text_fix.stopped,text_2.started,text_2.stopped,text_4.started,text_4.stopped,text_target.started,text_target.stopped,key_resp.keys,key_resp.corr,key_resp.rt,key_resp.started,key_resp.stopped,sceen_black.started,sceen_black.stopped,text_fb.started,text_fb.stopped,text.started,text.stopped,key_bf.keys,key_bf.rt,key_bf.started,key_bf.stopped,instr_test_image.started,instr_test_image.stopped,instr_exp_key_resp.keys,instr_exp_key_resp.rt,instr_exp_key_resp.started,instr_exp_key_resp.stopped,text_rest.started,text_rest.stopped,key_resp_rest.keys,key_resp_rest.rt,key_resp_rest.started,key_resp_rest.stopped,text_3.started,text_3.stopped,participant,session,balance,date,expName,psychopyVersion,frameRate,
,,,,,,,,,,,,,,,0,0,0,0,,,,,,,,,,,,,,,,,,,,,8.88833390000218,None,right,1.6390555999969365,8.88833390000218,None,,,,,,,,,,,,,,,,,,,,,,,,,,,,,,,,,,,,,,,,,,,,,,,,,,,,,,,,,,11034,2,2,2024_Jun_22_2132,stroop_task_switching2_b,2021.2.3,59.726274487397426,
,,,,,,,,,,,,,,,1,0,1,0,,,,,,,,,,,,,,,,,,,,,10.574888300005114,None,right,43.48209889999998,10.574888300005114,None,,,,,,,,,,,,,,,,,,,,,,,,,,,,,,,,,,,,,,,,,,,,,,,,,,,,,,,,,,11034,2,2,2024_Jun_22_2132,stroop_task_switching2_b,2021.2.3,59.726274487397426,
,,,,,,,,,,,,,,,2,0,2,0,,,,,,,,,,,,,,,,,,,,,54.090259200005676,None,right,0.15853439999045804,54.090259200005676,None,,,,,,,,,,,,,,,,,,,,,,,,,,,,,,,,,,,,,,,,,,,,,,,,,,,,,,,,,,11034,2,2,2024_Jun_22_2132,stroop_task_switching2_b,2021.2.3,59.726274487397426,
,,,,,,,,,,,,,,,3,0,3,0,,,,,,,,,,,,,,,,,,,,,54.29126480000559,None,right,0.13374239999393467,54.29126480000559,None,,,,,,,,,,,,,,,,,,,,,,,,,,,,,,,,,,,,,,,,,,,,,,,,,,,,,,,,,,11034,2,2,2024_Jun_22_2132,stroop_task_switching2_b,2021.2.3,59.726274487397426,
,,,,,,,,,,,,,,,4,0,4,0,,,,,,,,,,,,,,,,,,,,,54.45771320001222,None,right,0.15085540000291076,54.45771320001222,None,,,,,,,,,,,,,,,,,,,,,,,,,,,,,,,,,,,,,,,,,,,,,,,,,,,,,,,,,,11034,2,2,2024_Jun_22_2132,stroop_task_switching2_b,2021.2.3,59.726274487397426,
,,,,,,,,,,,,,,,5,0,5,0,,,,,,,,,,,,,,,,,,,,,54.64098820000072,None,right,0.14358970000466798,54.64098820000072,None,,,,,,,,,,,,,,,,,,,,,,,,,,,,,,,,,,,,,,,,,,,,,,,,,,,,,,,,,,11034,2,2,2024_Jun_22_2132,stroop_task_switching2_b,2021.2.3,59.726274487397426,
,,,,,,,,,,,,,,,,,,,,,,,,,,,,,,,,,,,,,,,,,,,,,54.8256878000102,None,space,0.8411424000078114,54.8256878000102,None,,,,,,,,,,,,,,,,,,,,,,,,,,,,,,,,,,,,,,,,,,,,,,,,,,,,11034,2,2,2024_Jun_22_2132,stroop_task_switching2_b,2021.2.3,59.726274487397426,
condition/block_color_b,instruction/instr_color,instruction/i8_b,XX,red,k,diamond,color_single,颜色,,,,,,,,,,,0,0,0,0,0,0,0,0,0,0,0,0,,,,,,,,,,,,,,,,,,,,,55.70935700001428,None,space,13.724865900003351,55.70935700001428,None,70.51491330000863,71.51864110000315,71.51864110000315,72.51926650000678,72.51926650000678,None,69.53112100000726,70.53291340000578,73.48604270000942,73.68947570001183,73.67029160000675,73.97160670001176,73.97160670001176,None,74.47100030000729,None,k,1,0.6183078000030946,74.47100030000729,None,None,None,75.17180440000084,None,,,,,,,,,,,,,,,,,,,,,11034,2,2,2024_Jun_22_2132,stroop_task_switching2_b,2021.2.3,59.726274487397426,
condition/block_color_b,instruction/instr_color,instruction/i8_b,XX,green,d,diamond,color_single,颜色,,,,,,,,,,,0,0,0,0,0,0,0,0,0,1,1,1,,,,,,,,,,,,,,,,,,,,,,,,,,,,,,,,,,,76.124461600004,76.32554190000519,76.30726580000191,76.60763700000825,76.59225670000887,None,77.09170030000678,None,d,1,0.7659306999994442,77.09170030000678,None,None,None,77.87633100000676,None,,,,,,,,,,,,,,,,,,,,,11034,2,2,2024_Jun_22_2132,stroop_task_switching2_b,2021.2.3,59.726274487397426,
condition/block_color_b,instruction/instr_color,instruction/i8_b,XX,yellow,f,diamond,color_single,颜色,,,,,,,,,,,0,0,0,0,0,0,0,0,0,2,2,2,,,,,,,,,,,,,,,,,,,,,,,,,,,,,,,,,,,78.87787740000931,79.08013820000633,79.06140950000554,79.3617047000007,79.3617047000007,None,79.8626149000047,None,f,1,0.7793137000116985,79.8626149000047,None,None,None,80.66363910000655,None,,,,,,,,,,,,,,,,,,,,,11034,2,2,2024_Jun_22_2132,stroop_task_switching2_b,2021.2.3,59.726274487397426,
condition/block_color_b,instruction/instr_color,instruction/i8_b,XX,blue,j,diamond,color_single,颜色,,,,,,,,,,,0,0,0,0,0,0,0,0,0,3,3,3,,,,,,,,,,,,,,,,,,,,,,,,,,,,,,,,,,,81.66609430000244,81.86621380000724,81.84962690000248,82.150306800002,82.150306800002,None,82.6508862000046,None,j,1,0.3109878999966895,82.6508862000046,None,None,None,82.98426080000354,None,,,,,,,,,,,,,,,,,,,,,11034,2,2,2024_Jun_22_2132,stroop_task_switching2_b,2021.2.3,59.726274487397426,
condition/block_color_b,instruction/instr_color,instruction/i8_b,XX,green,d,diamond,color_single,颜色,,,,,,,,,,,0,0,0,0,0,0,0,0,0,4,4,4,,,,,,,,,,,,,,,,,,,,,,,,,,,,,,,,,,,83.98544040000706,84.18586700000742,84.1692422000051,84.47061160000158,84.47061160000158,None,84.97014889999991,None,d,1,0.4164420000015525,84.97014889999991,None,None,None,85.40438000000722,None,,,,,,,,,,,,,,,,,,,,,11034,2,2,2024_Jun_22_2132,stroop_task_switching2_b,2021.2.3,59.726274487397426,
condition/block_color_b,instruction/instr_color,instruction/i8_b,XX,yellow,f,diamond,color_single,颜色,,,,,,,,,,,0,0,0,0,0,0,0,0,0,5,5,5,,,,,,,,,,,,,,,,,,,,,,,,,,,,,,,,,,,86.40614840001217,86.60667820001254,86.5902317,86.89048560000083,86.89048560000083,None,87.39114120000158,None,f,1,0.2831529999966733,87.39114120000158,None,None,None,87.69149760001164,None,,,,,,,,,,,,,,,,,,,,,11034,2,2,2024_Jun_22_2132,stroop_task_switching2_b,2021.2.3,59.726274487397426,
condition/block_color_b,instruction/instr_color,instruction/i8_b,XX,blue,j,diamond,color_single,颜色,,,,,,,,,,,0,0,0,0,0,0,0,0,0,6,6,6,,,,,,,,,,,,,,,,,,,,,,,,,,,,,,,,,,,88.69321860000491,88.89330420001352,88.87589650000155,89.17686180000601,89.17686180000601,None,89.67739230000007,None,k,0,0.43631720000121277,89.67739230000007,None,None,None,90.16160250001121,None,,,,,,,,,,,,,,,,,,,,,11034,2,2,2024_Jun_22_2132,stroop_task_switching2_b,2021.2.3,59.726274487397426,
condition/block_color_b,instruction/instr_color,instruction/i8_b,XX,red,k,diamond,color_single,颜色,,,,,,,,,,,0,0,0,0,0,0,0,0,0,7,7,7,,,,,,,,,,,,,,,,,,,,,,,,,,,,,,,,,,,91.1634342000034,91.36558850000438,91.3465947000077,91.64823030000844,91.64823030000844,None,92.14866340000299,None,k,1,0.4050730000017211,92.14866340000299,None,None,None,92.58146660000784,None,,,,,,,,,,,,,,,,,,,,,11034,2,2,2024_Jun_22_2132,stroop_task_switching2_b,2021.2.3,59.726274487397426,
condition/block_color_b,instruction/instr_color,instruction/i8_b,XX,yellow,f,diamond,color_single,颜色,,,,,,,,,,,0,0,0,0,0,0,0,0,0,8,8,8,,,,,,,,,,,,,,,,,,,,,,,,,,,,,,,,,,,93.58331450000696,93.78474860001006,93.76684300000488,94.06811990001006,94.06811990001006,None,94.56809840000642,None,f,1,0.4980299000017112,94.56809840000642,None,None,None,95.08532320000813,None,,,,,,,,,,,,,,,,,,,,,11034,2,2,2024_Jun_22_2132,stroop_task_switching2_b,2021.2.3,59.726274487397426,
condition/block_color_b,instruction/instr_color,instruction/i8_b,XX,blue,j,diamond,color_single,颜色,,,,,,,,,,,0,0,0,0,0,0,0,0,0,9,9,9,,,,,,,,,,,,,,,,,,,,,,,,,,,,,,,,,,,96.08758330000273,96.28807100000267,96.27147120000154,96.57108330000483,96.57108330000483,None,97.07173710000643,None,j,1,0.46641220001038164,97.07173710000643,None,None,None,97.55586840001342,None,,,,,,,,,,,,,,,,,,,,,11034,2,2,2024_Jun_22_2132,stroop_task_switching2_b,2021.2.3,59.726274487397426,
condition/block_color_b,instruction/instr_color,instruction/i8_b,XX,red,k,diamond,color_single,颜色,,,,,,,,,,,0,0,0,0,0,0,0,0,0,10,10,10,,,,,,,,,,,,,,,,,,,,,,,,,,,,,,,,,,,98.55832360000932,98.75868910001009,98.74189110001316,99.04195640000398,99.04195640000398,None,99.5423262000113,None,k,1,0.6036458000016864,99.5423262000113,None,None,None,100.19410280000011,None,,,,,,,,,,,,,,,,,,,,,11034,2,2,2024_Jun_22_2132,stroop_task_switching2_b,2021.2.3,59.726274487397426,
condition/block_color_b,instruction/instr_color,instruction/i8_b,XX,green,d,diamond,color_single,颜色,,,,,,,,,,,0,0,0,0,0,0,0,0,0,11,11,11,,,,,,,,,,,,,,,,,,,,,,,,,,,,,,,,,,,101.19601640000474,101.39502750000975,101.3624625000084,101.66243280000344,101.66243280000344,None,102.16364760001306,None,d,1,0.4384741999965627,102.16364760001306,None,None,None,102.63005160000466,None,,,,,,,,,,,,,,,,,,,,,11034,2,2,2024_Jun_22_2132,stroop_task_switching2_b,2021.2.3,59.726274487397426,
condition/block_color_b,instruction/instr_color,instruction/i8_b,XX,blue,j,diamond,color_single,颜色,,,,,,,,,,,0,0,0,0,0,0,0,0,0,12,12,12,,,,,,,,,,,,,,,,,,,,,,,,,,,,,,,,,,,103.63210990000516,103.83304360001057,103.81625290001102,104.11716450001404,104.11716450001404,None,104.61627920001047,None,j,1,0.5223275000025751,104.61627920001047,None,None,None,105.1842147000134,None,,,,,,,,,,,,,,,,,,,,,11034,2,2,2024_Jun_22_2132,stroop_task_switching2_b,2021.2.3,59.726274487397426,
condition/block_color_b,instruction/instr_color,instruction/i8_b,XX,red,k,diamond,color_single,颜色,,,,,,,,,,,0,0,0,0,0,0,0,0,0,13,13,13,,,,,,,,,,,,,,,,,,,,,,,,,,,,,,,,,,,106.18641300000309,106.38789320000797,106.36976910001249,106.67080250001163,106.67080250001163,None,107.170506200011,None,k,1,0.4803665000072215,107.170506200011,None,None,None,107.67160300000978,None,,,,,,,,,,,,,,,,,,,,,11034,2,2,2024_Jun_22_2132,stroop_task_switching2_b,2021.2.3,59.726274487397426,
condition/block_color_b,instruction/instr_color,instruction/i8_b,XX,green,d,diamond,color_single,颜色,,,,,,,,,,,0,0,0,0,0,0,0,0,0,14,14,14,,,,,,,,,,,,,,,,,,,,,,,,,,,,,,,,,,,108.67274210001051,108.87314850000257,108.85792540000693,109.15714460000163,109.15714460000163,None,109.65744780001114,None,d,1,0.617545400004019,109.65744780001114,None,None,None,110.29163920000428,None,,,,,,,,,,,,,,,,,,,,,11034,2,2,2024_Jun_22_2132,stroop_task_switching2_b,2021.2.3,59.726274487397426,
condition/block_color_b,instruction/instr_color,instruction/i8_b,XX,yellow,f,diamond,color_single,颜色,,,,,,,,,,,0,0,0,0,0,0,0,0,0,15,15,15,,,,,,,,,,,,,,,,,,,,,,,,,,,,,,,,,,,111.29348720000417,111.49366020000889,111.47758160000376,111.77830760000506,111.77830760000506,None,112.27823860000353,None,f,1,0.5245099999883678,112.27823860000353,None,None,None,112.82903010000882,None,,,,,,,,,,,,,,,,,,,,,11034,2,2,2024_Jun_22_2132,stroop_task_switching2_b,2021.2.3,59.726274487397426,
condition/block_color_b,instruction/instr_color,instruction/i8_b,XX,red,k,diamond,color_single,颜色,,,,,,,,,,,0,0,0,0,0,0,0,0,0,16,16,16,,,,,,,,,,,,,,,,,,,,,,,,,,,,,,,,,,,113.8305640000035,114.03198450000491,114.01411180000287,114.31577460000699,114.31577460000699,None,114.8161928000045,None,k,1,0.44238100000075065,114.8161928000045,None,None,None,115.28292580001289,None,,,,,,,,,,,,,,,,,,,,,11034,2,2,2024_Jun_22_2132,stroop_task_switching2_b,2021.2.3,59.726274487397426,
condition/block_color_b,instruction/instr_color,instruction/i8_b,XX,green,d,diamond,color_single,颜色,,,,,,,,,,,0,0,0,0,0,0,0,0,0,17,17,17,,,,,,,,,,,,,,,,,,,,,,,,,,,,,,,,,,,116.28519280000182,116.48494850000134,116.468726600011,116.7694932000013,116.7694932000013,None,117.26986860000761,None,d,1,0.5007444999937434,117.26986860000761,None,None,None,117.78654970000207,None,,,,,,,,,,,,,,,,,,,,,11034,2,2,2024_Jun_22_2132,stroop_task_switching2_b,2021.2.3,59.726274487397426,
condition/block_color_b,instruction/instr_color,instruction/i8_b,XX,yellow,f,diamond,color_single,颜色,,,,,,,,,,,0,0,0,0,0,0,0,0,0,18,18,18,,,,,,,,,,,,,,,,,,,,,,,,,,,,,,,,,,,118.78926600000705,118.99047690001316,118.97191180000664,119.27275700001337,119.27275700001337,None,119.77279700001236,None,j,0,0.4625651999958791,119.77279700001236,None,None,None,120.256727400003,None,,,,,,,,,,,,,,,,,,,,,11034,2,2,2024_Jun_22_2132,stroop_task_switching2_b,2021.2.3,59.726274487397426,
condition/block_color_b,instruction/instr_color,instruction/i8_b,XX,blue,j,diamond,color_single,颜色,,,,,,,,,,,0,0,0,0,0,0,0,0,0,19,19,19,,,,,,,,,,,,,,,,,,,,,,,,,,,,,,,,,,,121.25847230000363,121.45882040000288,121.44267790000595,121.74245120001433,121.74245120001433,None,122.24388880000333,None,j,1,0.4475562000006903,122.24388880000333,None,None,None,122.71061840000039,None,,,,,,,,,,,,,,,,,,,,,11034,2,2,2024_Jun_22_2132,stroop_task_switching2_b,2021.2.3,59.726274487397426,
condition/block_color_b,instruction/instr_color,instruction/i8_b,XX,green,d,diamond,color_single,颜色,,,,,,,,,,,0,0,0,0,0,0,0,0,0,20,20,20,,,,,,,,,,,,,,,,,,,,,,,,,,,,,,,,,,,123.71214040000632,123.91347140001017,123.89568860000873,124.19753590000619,124.19753590000619,None,124.69689290001406,None,d,1,0.4657314999931259,124.69689290001406,None,None,None,125.18081300001359,None,,,,,,,,,,,,,,,,,,,,,11034,2,2,2024_Jun_22_2132,stroop_task_switching2_b,2021.2.3,59.726274487397426,
condition/block_color_b,instruction/instr_color,instruction/i8_b,XX,yellow,f,diamond,color_single,颜色,,,,,,,,,,,0,0,0,0,0,0,0,0,0,21,21,21,,,,,,,,,,,,,,,,,,,,,,,,,,,,,,,,,,,126.18318560000625,126.38285380000889,126.36687100000563,126.66670820000581,126.66670820000581,None,127.16724900000554,None,f,1,0.5075575999944704,127.16724900000554,None,None,None,127.70286780000606,None,,,,,,,,,,,,,,,,,,,,,11034,2,2,2024_Jun_22_2132,stroop_task_switching2_b,2021.2.3,59.726274487397426,
condition/block_color_b,instruction/instr_color,instruction/i8_b,XX,blue,j,diamond,color_single,颜色,,,,,,,,,,,0,0,0,0,0,0,0,0,0,22,22,22,,,,,,,,,,,,,,,,,,,,,,,,,,,,,,,,,,,128.7042247000063,128.9049093000067,128.88659640001424,129.18790430000809,129.18790430000809,None,129.68859940000402,None,j,1,0.44272089999867603,129.68859940000402,None,None,None,130.15537440001208,None,,,,,,,,,,,,,,,,,,,,,11034,2,2,2024_Jun_22_2132,stroop_task_switching2_b,2021.2.3,59.726274487397426,
condition/block_color_b,instruction/instr_color,instruction/i8_b,XX,red,k,diamond,color_single,颜色,,,,,,,,,,,0,0,0,0,0,0,0,0,0,23,23,23,,,,,,,,,,,,,,,,,,,,,,,,,,,,,,,,,,,131.1574421000114,131.35919470000954,131.34082630000194,131.64130170000135,131.64130170000135,None,132.14147690001118,None,k,1,0.44665809998696204,132.14147690001118,None,None,None,132.60885440000857,None,,,,,,,,,,,,,,,,,,,,,11034,2,2,2024_Jun_22_2132,stroop_task_switching2_b,2021.2.3,59.726274487397426,
condition/block_color_b,instruction/instr_color,instruction/i8_b,,,,,,,,,,,,,,,,,0,0,0,0,0,0,0,0,,,,,,,,,,,,,,,,,,,,,,,,,,,,,,,,,,,,,,,,,,,,,,,,,,,,,,,,133.62719600000128,None,space,2.189727999997558,133.62719600000128,None,,,,,,,,,,,,,,,11034,2,2,2024_Jun_22_2132,stroop_task_switching2_b,2021.2.3,59.726274487397426,
condition/block_color_b,instruction/instr_color,instruction/i8_b,,,,,,,,,,,,,,,,,0,0,0,0,,,,,,,,,,,,,,,,,,,,,,,,,,,,,,,,,,,,,,,,,,,,,,,,,,,,,,,,,,,,,,,,,,,,,,,,,,,,,,,,11034,2,2,2024_Jun_22_2132,stroop_task_switching2_b,2021.2.3,59.726274487397426,
condition/block_word_b,instruction/instr_word,instruction/i9_b,黄,white,f,square,word_single,单词,0.0032461461866890584,,,,,,,,,,0,1,1,1,0,0,0,0,0,0,0,0,,,,,,,,,,,,,,,,,,,,,135.86396450000757,None,space,5.277967300004093,135.86396450000757,None,142.17435730001307,143.17550590001338,143.17550590001338,144.17644600001222,144.17644600001222,None,141.19009910000023,142.19116850000864,145.19433900000877,145.39566870000272,145.3787091000122,145.67918770000688,145.67918770000688,None,146.1801201000053,None,j,0,0.6961554000008618,146.1801201000053,None,None,None,146.930523300005,None,,,,,,,,,,,,,,,,,,,,,11034,2,2,2024_Jun_22_2132,stroop_task_switching2_b,2021.2.3,59.726274487397426,
condition/block_word_b,instruction/instr_word,instruction/i9_b,蓝,white,j,square,word_single,单词,0.060540570646362424,,,,,,,,,,0,1,1,1,0,0,0,0,0,1,1,1,,,,,,,,,,,,,,,,,,,,,,,,,,,,,,,,,,,147.91616910000448,148.11660640001355,148.1006822000054,148.40041240000573,148.40041240000573,None,148.90077200000815,None,j,1,0.4787551000044914,148.90077200000815,None,None,None,149.40084160001425,None,,,,,,,,,,,,,,,,,,,,,11034,2,2,2024_Jun_22_2132,stroop_task_switching2_b,2021.2.3,59.726274487397426,
condition/block_word_b,instruction/instr_word,instruction/i9_b,黄,white,f,square,word_single,单词,0.06994067193778963,,,,,,,,,,0,1,1,1,0,0,0,0,0,2,2,2,,,,,,,,,,,,,,,,,,,,,,,,,,,,,,,,,,,150.40258030001132,150.6027943000081,150.5869595000113,150.8883283000032,150.8883283000032,None,151.40486840000085,None,f,1,0.4952657999965595,151.40486840000085,None,None,None,151.92144800000824,None,,,,,,,,,,,,,,,,,,,,,11034,2,2,2024_Jun_22_2132,stroop_task_switching2_b,2021.2.3,59.726274487397426,
condition/block_word_b,instruction/instr_word,instruction/i9_b,蓝,white,j,square,word_single,单词,0.08193765152950094,,,,,,,,,,0,1,1,1,0,0,0,0,0,3,3,3,,,,,,,,,,,,,,,,,,,,,,,,,,,,,,,,,,,152.92357130000892,153.12467550000292,153.1064910000132,153.40797840000596,153.40797840000596,None,153.90906990000803,None,j,1,0.5431217000004835,153.90906990000803,None,None,None,154.47528290000628,None,,,,,,,,,,,,,,,,,,,,,11034,2,2,2024_Jun_22_2132,stroop_task_switching2_b,2021.2.3,59.726274487397426,
condition/block_word_b,instruction/instr_word,instruction/i9_b,红,white,k,square,word_single,单词,0.1279694370605574,,,,,,,,,,0,1,1,1,0,0,0,0,0,4,4,4,,,,,,,,,,,,,,,,,,,,,,,,,,,,,,,,,,,155.47754110000096,155.6790897000028,155.66041570001107,155.9631001000089,155.9631001000089,None,156.4782583000051,None,k,1,0.4699661000049673,156.4782583000051,None,None,None,156.9784614000091,None,,,,,,,,,,,,,,,,,,,,,11034,2,2,2024_Jun_22_2132,stroop_task_switching2_b,2021.2.3,59.726274487397426,
condition/block_word_b,instruction/instr_word,instruction/i9_b,红,white,k,square,word_single,单词,0.18345028784879092,,,,,,,,,,0,1,1,1,0,0,0,0,0,5,5,5,,,,,,,,,,,,,,,,,,,,,,,,,,,,,,,,,,,157.98109680000925,158.18084010000166,158.16479990001244,158.46531980000145,158.46531980000145,None,158.96547190001002,None,k,1,0.958398999995552,158.96547190001002,None,None,None,159.95017040001403,None,,,,,,,,,,,,,,,,,,,,,11034,2,2,2024_Jun_22_2132,stroop_task_switching2_b,2021.2.3,59.726274487397426,
condition/block_word_b,instruction/instr_word,instruction/i9_b,蓝,white,j,square,word_single,单词,0.19920386223101294,,,,,,,,,,0,1,1,1,0,0,0,0,0,6,6,6,,,,,,,,,,,,,,,,,,,,,,,,,,,,,,,,,,,160.95267980000062,161.1518430000142,161.13607200000843,161.4379792000109,161.4379792000109,None,161.9371906000015,None,j,1,0.5309891000069911,161.9371906000015,None,None,None,162.48767760000192,None,,,,,,,,,,,,,,,,,,,,,11034,2,2,2024_Jun_22_2132,stroop_task_switching2_b,2021.2.3,59.726274487397426,
condition/block_word_b,instruction/instr_word,instruction/i9_b,蓝,white,j,square,word_single,单词,0.26360599864925405,,,,,,,,,,0,1,1,1,0,0,0,0,0,7,7,7,,,,,,,,,,,,,,,,,,,,,,,,,,,,,,,,,,,163.4894931000017,163.68902890000027,163.67372440001054,163.97392910000053,163.97392910000053,None,164.4735068000009,None,j,1,0.4425288999918848,164.4735068000009,None,None,None,164.94132000001264,None,,,,,,,,,,,,,,,,,,,,,11034,2,2,2024_Jun_22_2132,stroop_task_switching2_b,2021.2.3,59.726274487397426,
condition/block_word_b,instruction/instr_word,instruction/i9_b,蓝,white,j,square,word_single,单词,0.358985675745526,,,,,,,,,,0,1,1,1,0,0,0,0,0,8,8,8,,,,,,,,,,,,,,,,,,,,,,,,,,,,,,,,,,,165.94324810001126,166.14288310000848,166.12611680000555,166.4263956000068,166.4263956000068,None,166.92850710000494,None,j,1,0.3956093999877339,166.92850710000494,None,None,None,167.34458710000035,None,,,,,,,,,,,,,,,,,,,,,11034,2,2,2024_Jun_22_2132,stroop_task_switching2_b,2021.2.3,59.726274487397426,
condition/block_word_b,instruction/instr_word,instruction/i9_b,绿,white,d,square,word_single,单词,0.36496733802487347,,,,,,,,,,0,1,1,1,0,0,0,0,0,9,9,9,,,,,,,,,,,,,,,,,,,,,,,,,,,,,,,,,,,168.3460938000062,168.5464595000085,168.5323167000024,168.84705840000242,168.83116720001271,None,169.33093420001387,None,d,1,0.6253109999961453,169.33093420001387,None,None,None,169.98198570001114,None,,,,,,,,,,,,,,,,,,,,,11034,2,2,2024_Jun_22_2132,stroop_task_switching2_b,2021.2.3,59.726274487397426,
condition/block_word_b,instruction/instr_word,instruction/i9_b,黄,white,f,square,word_single,单词,0.3743513623756727,,,,,,,,,,0,1,1,1,0,0,0,0,0,10,10,10,,,,,,,,,,,,,,,,,,,,,,,,,,,,,,,,,,,170.98407840001164,171.18372810000437,171.16718680001213,171.46760380000342,171.46760380000342,None,171.96843090000039,None,f,1,0.5399966999975732,171.96843090000039,None,None,None,172.535856100003,None,,,,,,,,,,,,,,,,,,,,,11034,2,2,2024_Jun_22_2132,stroop_task_switching2_b,2021.2.3,59.726274487397426,
condition/block_word_b,instruction/instr_word,instruction/i9_b,红,white,k,square,word_single,单词,0.3894803852598544,,,,,,,,,,0,1,1,1,0,0,0,0,0,11,11,11,,,,,,,,,,,,,,,,,,,,,,,,,,,,,,,,,,,173.53844200000458,173.73851660000219,173.72184370001196,174.0220457000105,174.0220457000105,None,174.52240970000275,None,k,1,0.4344093999970937,174.52240970000275,None,None,None,174.97282850000192,None,,,,,,,,,,,,,,,,,,,,,11034,2,2,2024_Jun_22_2132,stroop_task_switching2_b,2021.2.3,59.726274487397426,
condition/block_word_b,instruction/instr_word,instruction/i9_b,绿,white,d,square,word_single,单词,0.5393759672408067,,,,,,,,,,0,1,1,1,0,0,0,0,0,12,12,12,,,,,,,,,,,,,,,,,,,,,,,,,,,,,,,,,,,175.97423660001368,176.17639570000756,176.15801990000182,176.45924700000614,176.45924700000614,None,176.95944690000033,None,f,0,0.517101300007198,176.95944690000033,None,None,None,177.49317190000147,None,,,,,,,,,,,,,,,,,,,,,11034,2,2,2024_Jun_22_2132,stroop_task_switching2_b,2021.2.3,59.726274487397426,
condition/block_word_b,instruction/instr_word,instruction/i9_b,蓝,white,j,square,word_single,单词,0.5995731954831104,,,,,,,,,,0,1,1,1,0,0,0,0,0,13,13,13,,,,,,,,,,,,,,,,,,,,,,,,,,,,,,,,,,,178.49572500000068,178.69695880000654,178.67861660000926,178.97995960000844,178.97995960000844,None,179.47976110001036,None,j,1,0.4607873000059044,179.47976110001036,None,None,None,179.96399800000654,None,,,,,,,,,,,,,,,,,,,,,11034,2,2,2024_Jun_22_2132,stroop_task_switching2_b,2021.2.3,59.726274487397426,
condition/block_word_b,instruction/instr_word,instruction/i9_b,红,white,k,square,word_single,单词,0.6298674479151414,,,,,,,,,,0,1,1,1,0,0,0,0,0,14,14,14,,,,,,,,,,,,,,,,,,,,,,,,,,,,,,,,,,,180.9651278000092,181.1675772000017,181.14898490000633,181.44994150000275,181.44994150000275,None,181.95118520001415,None,k,1,0.5012388999894029,181.95118520001415,None,None,None,182.46777270000894,None,,,,,,,,,,,,,,,,,,,,,11034,2,2,2024_Jun_22_2132,stroop_task_switching2_b,2021.2.3,59.726274487397426,
condition/block_word_b,instruction/instr_word,instruction/i9_b,红,white,k,square,word_single,单词,0.7389942282348904,,,,,,,,,,0,1,1,1,0,0,0,0,0,15,15,15,,,,,,,,,,,,,,,,,,,,,,,,,,,,,,,,,,,183.46889190000365,183.67058650001127,183.65261650001048,183.95395750000898,183.95395750000898,None,184.4538792000094,None,k,1,0.4231576000020141,184.4538792000094,None,None,None,184.90463430000818,None,,,,,,,,,,,,,,,,,,,,,11034,2,2,2024_Jun_22_2132,stroop_task_switching2_b,2021.2.3,59.726274487397426,
condition/block_word_b,instruction/instr_word,instruction/i9_b,绿,white,d,square,word_single,单词,0.7550853947239682,,,,,,,,,,0,1,1,1,0,0,0,0,0,16,16,16,,,,,,,,,,,,,,,,,,,,,,,,,,,,,,,,,,,185.90603550001106,186.1066509000084,186.08954830000584,186.3917758000025,186.37343580000743,None,186.87411520000023,None,d,1,0.44255979999434203,186.87411520000023,None,None,None,187.34205580000707,None,,,,,,,,,,,,,,,,,,,,,11034,2,2,2024_Jun_22_2132,stroop_task_switching2_b,2021.2.3,59.726274487397426,
condition/block_word_b,instruction/instr_word,instruction/i9_b,绿,white,d,square,word_single,单词,0.8019302780428206,,,,,,,,,,0,1,1,1,0,0,0,0,0,17,17,17,,,,,,,,,,,,,,,,,,,,,,,,,,,,,,,,,,,188.34308190000593,188.54478750001,188.5266518000135,188.8272866000043,188.8272866000043,None,189.32781210000394,None,d,1,0.42107349999423604,189.32781210000394,None,None,None,189.77855450000789,None,,,,,,,,,,,,,,,,,,,,,11034,2,2,2024_Jun_22_2132,stroop_task_switching2_b,2021.2.3,59.726274487397426,
condition/block_word_b,instruction/instr_word,instruction/i9_b,绿,white,d,square,word_single,单词,0.8110702914095343,,,,,,,,,,0,1,1,1,0,0,0,0,0,18,18,18,,,,,,,,,,,,,,,,,,,,,,,,,,,,,,,,,,,190.7809205000085,190.9813465000043,190.96374430001015,191.265753700005,191.265753700005,None,191.7657704000012,None,f,0,0.5513516999926651,191.7657704000012,None,None,None,192.33248200001253,None,,,,,,,,,,,,,,,,,,,,,11034,2,2,2024_Jun_22_2132,stroop_task_switching2_b,2021.2.3,59.726274487397426,
condition/block_word_b,instruction/instr_word,instruction/i9_b,黄,white,f,square,word_single,单词,0.8176594937590999,,,,,,,,,,0,1,1,1,0,0,0,0,0,19,19,19,,,,,,,,,,,,,,,,,,,,,,,,,,,,,,,,,,,193.33411620001425,193.5345970000053,193.51830170000903,193.81922770000529,193.81922770000529,None,194.3185177000123,None,f,1,0.5743449000001419,194.3185177000123,None,None,None,194.91959620000853,None,,,,,,,,,,,,,,,,,,,,,11034,2,2,2024_Jun_22_2132,stroop_task_switching2_b,2021.2.3,59.726274487397426,
condition/block_word_b,instruction/instr_word,instruction/i9_b,红,white,k,square,word_single,单词,0.8955794421104841,,,,,,,,,,0,1,1,1,0,0,0,0,0,20,20,20,,,,,,,,,,,,,,,,,,,,,,,,,,,,,,,,,,,195.92131860001246,196.12252750000334,196.10692290001316,196.40590430000157,196.40590430000157,None,196.90617220000422,None,k,1,0.46800330000405665,196.90617220000422,None,None,None,197.39014540000062,None,,,,,,,,,,,,,,,,,,,,,11034,2,2,2024_Jun_22_2132,stroop_task_switching2_b,2021.2.3,59.726274487397426,
condition/block_word_b,instruction/instr_word,instruction/i9_b,绿,white,d,square,word_single,单词,0.9113598052474129,,,,,,,,,,0,1,1,1,0,0,0,0,0,21,21,21,,,,,,,,,,,,,,,,,,,,,,,,,,,,,,,,,,,198.39148780000687,198.59284120000666,198.576350000003,198.8765216000029,198.8765216000029,None,199.37635090001277,None,d,1,0.5006442000012612,199.37635090001277,None,None,None,199.8938613000064,None,,,,,,,,,,,,,,,,,,,,,11034,2,2,2024_Jun_22_2132,stroop_task_switching2_b,2021.2.3,59.726274487397426,
condition/block_word_b,instruction/instr_word,instruction/i9_b,黄,white,f,square,word_single,单词,0.9215930958042953,,,,,,,,,,0,1,1,1,0,0,0,0,0,22,22,22,,,,,,,,,,,,,,,,,,,,,,,,,,,,,,,,,,,200.89525240000512,201.09557500001392,201.07896720001008,201.380261600003,201.380261600003,None,201.8809609000018,None,f,1,0.764463399988017,201.8809609000018,None,None,None,202.66474920000474,None,,,,,,,,,,,,,,,,,,,,,11034,2,2,2024_Jun_22_2132,stroop_task_switching2_b,2021.2.3,59.726274487397426,
condition/block_word_b,instruction/instr_word,instruction/i9_b,黄,white,f,square,word_single,单词,0.9493525498837774,,,,,,,,,,0,1,1,1,0,0,0,0,0,23,23,23,,,,,,,,,,,,,,,,,,,,,,,,,,,,,,,,,,,203.6674672000081,203.86752190001425,203.85076610000397,204.15065760001016,204.15065760001016,None,204.65095620001375,None,f,1,0.4902169999986654,204.65095620001375,None,None,None,205.16872000000149,None,,,,,,,,,,,,,,,,,,,,,11034,2,2,2024_Jun_22_2132,stroop_task_switching2_b,2021.2.3,59.726274487397426,
condition/block_word_b,instruction/instr_word,instruction/i9_b,,,,,,,,,,,,,,,,,0,1,1,1,0,0,0,0,,,,,,,,,,,,,,,,,,,,,,,,,,,,,,,,,,,,,,,,,,,,,,,,,,,,,,,,206.1696593000088,None,space,5.022398000000976,206.1696593000088,None,,,,,,,,,,,,,,,11034,2,2,2024_Jun_22_2132,stroop_task_switching2_b,2021.2.3,59.726274487397426,
condition/block_word_b,instruction/instr_word,instruction/i9_b,,,,,,,,,,,,,,,,,0,1,1,1,,,,,,,,,,,,,,,,,,,,,,,,,,,,,,,,,,,,,,,,,,,,,,,,,,,,,,,,,,,,,,,,,,,,,,,,,,,,,,,,11034,2,2,2024_Jun_22_2132,stroop_task_switching2_b,2021.2.3,59.726274487397426,
condition/block_mixed_b,instruction/instr_mixed,instruction/i10_b,蓝,red,k,diamond,color_mix,颜色,,incompatible,0,,,,,,,,0,2,2,2,0,0,0,0,0,0,0,0,,,,,,,,,,,,,,,,,,,,,211.2450780000072,None,space,31.428615800003172,211.2450780000072,None,243.69381950001116,244.6949760000134,244.6949760000134,245.697974300012,245.697974300012,None,242.7097722000035,243.71170210000128,246.73261590000766,246.932381000006,246.91728410001087,247.23350510001183,247.2154154000018,None,247.70020060001116,None,k,1,0.5307052999996813,247.70020060001116,None,None,None,248.2836829000007,None,,,,,,,,,,,,,,,,,,,,,11034,2,2,2024_Jun_22_2132,stroop_task_switching2_b,2021.2.3,59.726274487397426,
condition/block_mixed_b,instruction/instr_mixed,instruction/i10_b,绿,yellow,f,diamond,color_mix,颜色,,incompatible,1,,,,,,,,0,2,2,2,0,0,0,0,0,1,1,1,,,,,,,,,,,,,,,,,,,,,,,,,,,,,,,,,,,249.26843870000448,249.46934220001276,249.45429580000928,249.7698708000098,249.73654990000068,None,250.23647880001226,None,j,0,0.7866964999993797,250.23647880001226,None,None,None,251.0718324000045,None,,,,,,,,,,,,,,,,,,,,,11034,2,2,2024_Jun_22_2132,stroop_task_switching2_b,2021.2.3,59.726274487397426,
condition/block_mixed_b,instruction/instr_mixed,instruction/i10_b,红,green,d,diamond,color_mix,颜色,,incompatible,1,,,,,,,,0,2,2,2,0,0,0,0,0,2,2,2,,,,,,,,,,,,,,,,,,,,,,,,,,,,,,,,,,,252.0725361000077,252.2751089000085,252.25619850000658,252.55782800000452,252.55782800000452,None,253.05850660000579,None,d,1,0.6201295999926515,253.05850660000579,None,None,None,253.72519340000872,None,,,,,,,,,,,,,,,,,,,,,11034,2,2,2024_Jun_22_2132,stroop_task_switching2_b,2021.2.3,59.726274487397426,
condition/block_mixed_b,instruction/instr_mixed,instruction/i10_b,蓝,red,k,diamond,color_mix,颜色,,incompatible,1,,,,,,,,0,2,2,2,0,0,0,0,0,3,3,3,,,,,,,,,,,,,,,,,,,,,,,,,,,,,,,,,,,254.72863090000465,254.9446372000093,254.89357890000974,255.19520990000456,255.19520990000456,None,255.69521760000498,None,k,1,0.743303700000979,255.69521760000498,None,None,None,256.4626511000097,None,,,,,,,,,,,,,,,,,,,,,11034,2,2,2024_Jun_22_2132,stroop_task_switching2_b,2021.2.3,59.726274487397426,
condition/block_mixed_b,instruction/instr_mixed,instruction/i10_b,红,blue,j,diamond,color_mix,颜色,,incompatible,1,,,,,,,,0,2,2,2,0,0,0,0,0,4,4,4,,,,,,,,,,,,,,,,,,,,,,,,,,,,,,,,,,,257.4647307000123,257.6645380000118,257.6487879000051,257.9496033000032,257.9496033000032,None,258.44987930000934,None,j,1,0.5570111999986693,258.44987930000934,None,None,None,259.0338577000075,None,,,,,,,,,,,,,,,,,,,,,11034,2,2,2024_Jun_22_2132,stroop_task_switching2_b,2021.2.3,59.726274487397426,
condition/block_mixed_b,instruction/instr_mixed,instruction/i10_b,红,blue,k,square,color_mix,单词,,incompatible,2,,,,,,,,0,2,2,2,0,0,0,0,0,5,5,5,,,,,,,,,,,,,,,,,,,,,,,,,,,,,,,,,,,260.03461070000776,260.2350889000081,260.21921790001215,260.5186599000008,260.5186599000008,None,261.01963270000124,None,k,1,0.8593815000058385,261.01963270000124,None,None,None,261.9041744000133,None,,,,,,,,,,,,,,,,,,,,,11034,2,2,2024_Jun_22_2132,stroop_task_switching2_b,2021.2.3,59.726274487397426,
condition/block_mixed_b,instruction/instr_mixed,instruction/i10_b,红,yellow,f,diamond,color_mix,颜色,,incompatible,2,,,,,,,,0,2,2,2,0,0,0,0,0,6,6,6,,,,,,,,,,,,,,,,,,,,,,,,,,,,,,,,,,,262.90637830000196,263.1068115000089,263.09083010000177,263.40747280001233,263.3909469000064,None,263.89170620001096,None,f,1,0.6912714000063716,263.89170620001096,None,None,None,264.6082219000091,None,,,,,,,,,,,,,,,,,,,,,11034,2,2,2024_Jun_22_2132,stroop_task_switching2_b,2021.2.3,59.726274487397426,
condition/block_mixed_b,instruction/instr_mixed,instruction/i10_b,红,yellow,k,square,color_mix,单词,,incompatible,2,,,,,,,,0,2,2,2,0,0,0,0,0,7,7,7,,,,,,,,,,,,,,,,,,,,,,,,,,,,,,,,,,,265.6098389000108,265.8120714000106,265.79346890001034,266.09398040000815,266.09398040000815,None,266.5944717000093,None,k,1,0.7248759000067366,266.5944717000093,None,None,None,267.3456684000121,None,,,,,,,,,,,,,,,,,,,,,11034,2,2,2024_Jun_22_2132,stroop_task_switching2_b,2021.2.3,59.726274487397426,
condition/block_mixed_b,instruction/instr_mixed,instruction/i10_b,绿,blue,d,square,color_mix,单词,,incompatible,1,,,,,,,,0,2,2,2,0,0,0,0,0,8,8,8,,,,,,,,,,,,,,,,,,,,,,,,,,,,,,,,,,,268.3478069000121,268.54764700001397,268.53089450001426,268.83199140000215,268.83199140000215,None,269.3321714000049,None,d,1,1.0194687000039266,269.3321714000049,None,None,None,270.36732600000687,None,,,,,,,,,,,,,,,,,,,,,11034,2,2,2024_Jun_22_2132,stroop_task_switching2_b,2021.2.3,59.726274487397426,
condition/block_mixed_b,instruction/instr_mixed,instruction/i10_b,蓝,green,d,diamond,color_mix,颜色,,incompatible,2,,,,,,,,0,2,2,2,0,0,0,0,0,9,9,9,,,,,,,,,,,,,,,,,,,,,,,,,,,,,,,,,,,271.3684707000066,271.5693106000108,271.5520474000077,271.85300350000034,271.85300350000034,None,272.35383980000915,None,d,1,0.8533324000018183,272.35383980000915,None,None,None,273.22110750000866,None,,,,,,,,,,,,,,,,,,,,,11034,2,2,2024_Jun_22_2132,stroop_task_switching2_b,2021.2.3,59.726274487397426,
condition/block_mixed_b,instruction/instr_mixed,instruction/i10_b,蓝,yellow,j,square,color_mix,单词,,incompatible,2,,,,,,,,0,2,2,2,0,0,0,0,0,10,10,10,,,,,,,,,,,,,,,,,,,,,,,,,,,,,,,,,,,274.22295040001336,274.42360610001197,274.4069720000116,274.7074339000101,274.7074339000101,None,275.2074838000117,None,j,1,0.8960063999984413,275.2074838000117,None,None,None,276.1259071000095,None,,,,,,,,,,,,,,,,,,,,,11034,2,2,2024_Jun_22_2132,stroop_task_switching2_b,2021.2.3,59.726274487397426,
condition/block_mixed_b,instruction/instr_mixed,instruction/i10_b,蓝,green,j,square,color_mix,单词,,incompatible,1,,,,,,,,0,2,2,2,0,0,0,0,0,11,11,11,,,,,,,,,,,,,,,,,,,,,,,,,,,,,,,,,,,277.1271987000073,277.32759330001136,277.311638500003,277.6125158000068,277.6125158000068,None,278.1128910000116,None,j,1,1.167541100003291,278.1128910000116,None,None,None,279.2973187000025,None,,,,,,,,,,,,,,,,,,,,,11034,2,2,2024_Jun_22_2132,stroop_task_switching2_b,2021.2.3,59.726274487397426,
condition/block_mixed_b,instruction/instr_mixed,instruction/i10_b,绿,yellow,d,square,color_mix,单词,,incompatible,1,,,,,,,,0,2,2,2,0,0,0,0,0,12,12,12,,,,,,,,,,,,,,,,,,,,,,,,,,,,,,,,,,,280.2999167000089,280.499793400013,280.48334630001045,280.78349990000424,280.78349990000424,None,281.28341190000356,None,d,1,0.876461299994844,281.28341190000356,None,None,None,282.18463090001023,None,,,,,,,,,,,,,,,,,,,,,11034,2,2,2024_Jun_22_2132,stroop_task_switching2_b,2021.2.3,59.726274487397426,
condition/block_mixed_b,instruction/instr_mixed,instruction/i10_b,绿,blue,j,diamond,color_mix,颜色,,incompatible,2,,,,,,,,0,2,2,2,0,0,0,0,0,13,13,13,,,,,,,,,,,,,,,,,,,,,,,,,,,,,,,,,,,283.18686310001067,283.38771370000904,283.3721004000108,283.6714981000114,283.6714981000114,None,284.17110190000676,None,j,1,0.500872899996466,284.17110190000676,None,None,None,284.6891328000056,None,,,,,,,,,,,,,,,,,,,,,11034,2,2,2024_Jun_22_2132,stroop_task_switching2_b,2021.2.3,59.726274487397426,
condition/block_mixed_b,instruction/instr_mixed,instruction/i10_b,黄,red,f,square,color_mix,单词,,incompatible,2,,,,,,,,0,2,2,2,0,0,0,0,0,14,14,14,,,,,,,,,,,,,,,,,,,,,,,,,,,,,,,,,,,285.6910207000037,285.8917547000019,285.8747610000137,286.1741544000106,286.1741544000106,None,286.67491220000375,None,k,0,0.49290599999949336,286.67491220000375,None,None,None,287.1922753000108,None,,,,,,,,,,,,,,,,,,,,,11034,2,2,2024_Jun_22_2132,stroop_task_switching2_b,2021.2.3,59.726274487397426,
condition/block_mixed_b,instruction/instr_mixed,instruction/i10_b,蓝,yellow,f,diamond,color_mix,颜色,,incompatible,2,,,,,,,,0,2,2,2,0,0,0,0,0,15,15,15,,,,,,,,,,,,,,,,,,,,,,,,,,,,,,,,,,,288.1941766000091,288.3961030000064,288.3775614000042,288.67853890001425,288.67853890001425,None,289.17895910001243,None,f,1,0.8051781999965897,289.17895910001243,None,None,None,290.03058770000644,None,,,,,,,,,,,,,,,,,,,,,11034,2,2,2024_Jun_22_2132,stroop_task_switching2_b,2021.2.3,59.726274487397426,
condition/block_mixed_b,instruction/instr_mixed,instruction/i10_b,黄,red,k,diamond,color_mix,颜色,,incompatible,1,,,,,,,,0,2,2,2,0,0,0,0,0,16,16,16,,,,,,,,,,,,,,,,,,,,,,,,,,,,,,,,,,,291.0316293000069,291.2329873000126,291.215025700003,291.5163956000033,291.5002768000122,None,292.0005139000132,None,k,1,0.5832919999957085,292.0005139000132,None,None,None,292.60052940000605,None,,,,,,,,,,,,,,,,,,,,,11034,2,2,2024_Jun_22_2132,stroop_task_switching2_b,2021.2.3,59.726274487397426,
condition/block_mixed_b,instruction/instr_mixed,instruction/i10_b,绿,red,d,square,color_mix,单词,,incompatible,2,,,,,,,,0,2,2,2,0,0,0,0,0,17,17,17,,,,,,,,,,,,,,,,,,,,,,,,,,,,,,,,,,,293.6036080000049,293.8030814000085,293.7866223000019,294.08695020001323,294.08695020001323,None,294.5869007000001,None,k,0,0.5649816000077408,294.5869007000001,None,None,None,295.17109110001184,None,,,,,,,,,,,,,,,,,,,,,11034,2,2,2024_Jun_22_2132,stroop_task_switching2_b,2021.2.3,59.726274487397426,
condition/block_mixed_b,instruction/instr_mixed,instruction/i10_b,红,green,k,square,color_mix,单词,,incompatible,1,,,,,,,,0,2,2,2,0,0,0,0,0,18,18,18,,,,,,,,,,,,,,,,,,,,,,,,,,,,,,,,,,,296.17390560000786,296.3736865000101,296.356443200013,296.6576114000054,296.6576114000054,None,297.15843110000424,None,d,0,0.914126399991801,297.15843110000424,None,None,None,298.09235390000686,None,,,,,,,,,,,,,,,,,,,,,11034,2,2,2024_Jun_22_2132,stroop_task_switching2_b,2021.2.3,59.726274487397426,
condition/block_mixed_b,instruction/instr_mixed,instruction/i10_b,黄,blue,j,diamond,color_mix,颜色,,incompatible,2,,,,,,,,0,2,2,2,0,0,0,0,0,19,19,19,,,,,,,,,,,,,,,,,,,,,,,,,,,,,,,,,,,299.0940277000045,299.2939170000027,299.2785218000063,299.578525600009,299.578525600009,None,300.0786217000132,None,j,1,0.8181695999955991,300.0786217000132,None,None,None,300.9131732000096,None,,,,,,,,,,,,,,,,,,,,,11034,2,2,2024_Jun_22_2132,stroop_task_switching2_b,2021.2.3,59.726274487397426,
condition/block_mixed_b,instruction/instr_mixed,instruction/i10_b,黄,green,d,diamond,color_mix,颜色,,incompatible,1,,,,,,,,0,2,2,2,0,0,0,0,0,20,20,20,,,,,,,,,,,,,,,,,,,,,,,,,,,,,,,,,,,301.9152032000129,302.1154158000136,302.10047920000216,302.39987120000296,302.39987120000296,None,302.9003287000087,None,d,1,0.5399936999892816,302.9003287000087,None,None,None,303.4668747000105,None,,,,,,,,,,,,,,,,,,,,,11034,2,2,2024_Jun_22_2132,stroop_task_switching2_b,2021.2.3,59.726274487397426,
condition/block_mixed_b,instruction/instr_mixed,instruction/i10_b,黄,green,f,square,color_mix,单词,,incompatible,2,,,,,,,,0,2,2,2,0,0,0,0,0,21,21,21,,,,,,,,,,,,,,,,,,,,,,,,,,,,,,,,,,,304.46922850000556,304.66903010000533,304.6526886000065,304.9532472000137,304.9532472000137,None,305.45440420000523,None,d,0,1.0258390999952098,305.45440420000523,None,None,None,306.5053781000024,None,,,,,,,,,,,,,,,,,,,,,11034,2,2,2024_Jun_22_2132,stroop_task_switching2_b,2021.2.3,59.726274487397426,
condition/block_mixed_b,instruction/instr_mixed,instruction/i10_b,黄,blue,f,square,color_mix,单词,,incompatible,1,,,,,,,,0,2,2,2,0,0,0,0,0,22,22,22,,,,,,,,,,,,,,,,,,,,,,,,,,,,,,,,,,,307.50755170000775,307.7076001000096,307.69107030000305,307.99125760000607,307.99125760000607,None,308.49186120000377,None,d,0,1.676619000005303,308.49186120000377,None,None,None,310.1943365000043,None,,,,,,,,,,,,,,,,,,,,,11034,2,2,2024_Jun_22_2132,stroop_task_switching2_b,2021.2.3,59.726274487397426,
condition/block_mixed_b,instruction/instr_mixed,instruction/i10_b,蓝,red,j,square,color_mix,单词,,incompatible,1,,,,,,,,0,2,2,2,0,0,0,0,0,23,23,23,,,,,,,,,,,,,,,,,,,,,,,,,,,,,,,,,,,311.1955655000056,311.3966005000111,311.3800658000109,311.6820510000107,311.6820510000107,None,312.1975908000022,None,j,1,0.6908531000080984,312.1975908000022,None,None,None,312.9149744000024,None,,,,,,,,,,,,,,,,,,,,,11034,2,2,2024_Jun_22_2132,stroop_task_switching2_b,2021.2.3,59.726274487397426,
condition/block_mixed_b,instruction/instr_mixed,instruction/i10_b,绿,red,k,diamond,color_mix,颜色,,incompatible,2,,,,,,,,0,2,2,2,0,0,0,0,0,24,24,24,,,,,,,,,,,,,,,,,,,,,,,,,,,,,,,,,,,313.91722670001036,314.11757060000673,314.09977210000216,314.4011473000137,314.4011473000137,None,314.90093550000165,None,k,1,0.803513800012297,314.90093550000165,None,None,None,315.73689370001375,None,,,,,,,,,,,,,,,,,,,,,11034,2,2,2024_Jun_22_2132,stroop_task_switching2_b,2021.2.3,59.726274487397426,
condition/block_mixed_b,instruction/instr_mixed,instruction/i10_b,绿,green,d,diamond,color_mix,颜色,,compatible,1,,,,,,,,0,2,2,2,0,0,0,0,0,25,25,25,,,,,,,,,,,,,,,,,,,,,,,,,,,,,,,,,,,316.7372446000081,316.93736270000227,316.92126070000813,317.22269470000174,317.22269470000174,None,317.722677400001,None,d,1,0.6460048999870196,317.722677400001,None,None,None,318.38954500001273,None,,,,,,,,,,,,,,,,,,,,,11034,2,2,2024_Jun_22_2132,stroop_task_switching2_b,2021.2.3,59.726274487397426,
condition/block_mixed_b,instruction/instr_mixed,instruction/i10_b,蓝,blue,j,diamond,color_mix,颜色,,compatible,1,,,,,,,,0,2,2,2,0,0,0,0,0,26,26,26,,,,,,,,,,,,,,,,,,,,,,,,,,,,,,,,,,,319.391967500007,319.59178830000747,319.5745781000005,319.8750432000088,319.8750432000088,None,320.3757818000013,None,j,1,0.5290361999941524,320.3757818000013,None,None,None,320.92691190000915,None,,,,,,,,,,,,,,,,,,,,,11034,2,2,2024_Jun_22_2132,stroop_task_switching2_b,2021.2.3,59.726274487397426,
condition/block_mixed_b,instruction/instr_mixed,instruction/i10_b,绿,green,d,square,color_mix,单词,,compatible,2,,,,,,,,0,2,2,2,0,0,0,0,0,27,27,27,,,,,,,,,,,,,,,,,,,,,,,,,,,,,,,,,,,321.9283174000011,322.13082440001017,322.11243130000366,322.4133348000032,322.4133348000032,None,322.91390570001386,None,d,1,0.6867325000057463,322.91390570001386,None,None,None,323.63089280000713,None,,,,,,,,,,,,,,,,,,,,,11034,2,2,2024_Jun_22_2132,stroop_task_switching2_b,2021.2.3,59.726274487397426,
condition/block_mixed_b,instruction/instr_mixed,instruction/i10_b,绿,green,d,square,color_mix,单词,,compatible,1,,,,,,,,0,2,2,2,0,0,0,0,0,28,28,28,,,,,,,,,,,,,,,,,,,,,,,,,,,,,,,,,,,324.6323015000089,324.8346193000034,324.81638900001417,325.11740630000713,325.11740630000713,None,325.61720540000533,None,d,1,1.0162454999954207,325.61720540000533,None,None,None,326.65211150000687,None,,,,,,,,,,,,,,,,,,,,,11034,2,2,2024_Jun_22_2132,stroop_task_switching2_b,2021.2.3,59.726274487397426,
condition/block_mixed_b,instruction/instr_mixed,instruction/i10_b,蓝,blue,j,square,color_mix,单词,,compatible,1,,,,,,,,0,2,2,2,0,0,0,0,0,29,29,29,,,,,,,,,,,,,,,,,,,,,,,,,,,,,,,,,,,327.6536368000088,327.85457690000476,327.8377140000084,328.13828070000454,328.13828070000454,None,328.63935600001423,None,j,1,0.6177650999889011,328.63935600001423,None,None,None,329.2729723000084,None,,,,,,,,,,,,,,,,,,,,,11034,2,2,2024_Jun_22_2132,stroop_task_switching2_b,2021.2.3,59.726274487397426,
condition/block_mixed_b,instruction/instr_mixed,instruction/i10_b,黄,yellow,f,diamond,color_mix,颜色,,compatible,2,,,,,,,,0,2,2,2,0,0,0,0,0,30,30,30,,,,,,,,,,,,,,,,,,,,,,,,,,,,,,,,,,,330.27442740001425,330.47517810000863,330.45904830000654,330.7604226000112,330.7604226000112,None,331.2757339000091,None,f,1,0.5977024000021629,331.2757339000091,None,None,None,331.8932492000022,None,,,,,,,,,,,,,,,,,,,,,11034,2,2,2024_Jun_22_2132,stroop_task_switching2_b,2021.2.3,59.726274487397426,
condition/block_mixed_b,instruction/instr_mixed,instruction/i10_b,绿,green,d,square,color_mix,单词,,compatible,2,,,,,,,,0,2,2,2,0,0,0,0,0,31,31,31,,,,,,,,,,,,,,,,,,,,,,,,,,,,,,,,,,,332.89496450001025,333.09592430001067,333.0789930000028,333.37986700001056,333.37986700001056,None,333.8796760000114,None,d,1,0.7773547999968287,333.8796760000114,None,None,None,334.6808302000136,None,,,,,,,,,,,,,,,,,,,,,11034,2,2,2024_Jun_22_2132,stroop_task_switching2_b,2021.2.3,59.726274487397426,
condition/block_mixed_b,instruction/instr_mixed,instruction/i10_b,黄,yellow,f,square,color_mix,单词,,compatible,1,,,,,,,,0,2,2,2,0,0,0,0,0,32,32,32,,,,,,,,,,,,,,,,,,,,,,,,,,,,,,,,,,,335.68230720001156,335.8835564000037,335.8670894000097,336.16639360001136,336.16639360001136,None,336.6681537000113,None,f,1,0.5331275999924401,336.6681537000113,None,None,None,337.2180143000005,None,,,,,,,,,,,,,,,,,,,,,11034,2,2,2024_Jun_22_2132,stroop_task_switching2_b,2021.2.3,59.726274487397426,
condition/block_mixed_b,instruction/instr_mixed,instruction/i10_b,绿,green,d,diamond,color_mix,颜色,,compatible,2,,,,,,,,0,2,2,2,0,0,0,0,0,33,33,33,,,,,,,,,,,,,,,,,,,,,,,,,,,,,,,,,,,338.2210491000005,338.41987040000095,338.4035806000029,338.70493660001375,338.70493660001375,None,339.20531600000686,None,d,1,0.5559740000026068,339.20531600000686,None,None,None,339.7886001000006,None,,,,,,,,,,,,,,,,,,,,,11034,2,2,2024_Jun_22_2132,stroop_task_switching2_b,2021.2.3,59.726274487397426,
condition/block_mixed_b,instruction/instr_mixed,instruction/i10_b,红,red,k,square,color_mix,单词,,compatible,2,,,,,,,,0,2,2,2,0,0,0,0,0,34,34,34,,,,,,,,,,,,,,,,,,,,,,,,,,,,,,,,,,,340.7907106000057,340.9914182000066,340.97391070000594,341.27543290000176,341.27543290000176,None,341.77470990001166,None,k,1,0.6670103000069503,341.77470990001166,None,None,None,342.45936740000616,None,,,,,,,,,,,,,,,,,,,,,11034,2,2,2024_Jun_22_2132,stroop_task_switching2_b,2021.2.3,59.726274487397426,
condition/block_mixed_b,instruction/instr_mixed,instruction/i10_b,黄,yellow,f,square,color_mix,单词,,compatible,1,,,,,,,,0,2,2,2,0,0,0,0,0,35,35,35,,,,,,,,,,,,,,,,,,,,,,,,,,,,,,,,,,,343.4616633000114,343.662161500004,343.64520290000655,343.9455469000095,343.9455469000095,None,344.4461498000019,None,f,1,0.6512418000056641,344.4461498000019,None,None,None,345.1131655000063,None,,,,,,,,,,,,,,,,,,,,,11034,2,2,2024_Jun_22_2132,stroop_task_switching2_b,2021.2.3,59.726274487397426,
condition/block_mixed_b,instruction/instr_mixed,instruction/i10_b,绿,green,d,diamond,color_mix,颜色,,compatible,2,,,,,,,,0,2,2,2,0,0,0,0,0,36,36,36,,,,,,,,,,,,,,,,,,,,,,,,,,,,,,,,,,,346.115495200007,346.31519050001225,346.2985190000036,346.59943960000237,346.59943960000237,None,347.0999981000059,None,d,1,0.7496348999993643,347.0999981000059,None,None,None,347.8676114000118,None,,,,,,,,,,,,,,,,,,,,,11034,2,2,2024_Jun_22_2132,stroop_task_switching2_b,2021.2.3,59.726274487397426,
condition/block_mixed_b,instruction/instr_mixed,instruction/i10_b,蓝,blue,j,square,color_mix,单词,,compatible,2,,,,,,,,0,2,2,2,0,0,0,0,0,37,37,37,,,,,,,,,,,,,,,,,,,,,,,,,,,,,,,,,,,348.8695967000094,349.0702248000016,349.05297200000496,349.3540999000106,349.3540999000106,None,349.8535836000083,None,j,1,0.6199009000119986,349.8535836000083,None,None,None,350.50470000000496,None,,,,,,,,,,,,,,,,,,,,,11034,2,2,2024_Jun_22_2132,stroop_task_switching2_b,2021.2.3,59.726274487397426,
condition/block_mixed_b,instruction/instr_mixed,instruction/i10_b,红,red,k,square,color_mix,单词,,compatible,1,,,,,,,,0,2,2,2,0,0,0,0,0,38,38,38,,,,,,,,,,,,,,,,,,,,,,,,,,,,,,,,,,,351.5069499000092,351.7076209000079,351.68973630000255,351.9903071000008,351.9903071000008,None,352.4919835000037,None,k,1,0.5577227999892784,352.4919835000037,None,None,None,353.07525900000473,None,,,,,,,,,,,,,,,,,,,,,11034,2,2,2024_Jun_22_2132,stroop_task_switching2_b,2021.2.3,59.726274487397426,
condition/block_mixed_b,instruction/instr_mixed,instruction/i10_b,黄,yellow,f,diamond,color_mix,颜色,,compatible,2,,,,,,,,0,2,2,2,0,0,0,0,0,39,39,39,,,,,,,,,,,,,,,,,,,,,,,,,,,,,,,,,,,354.07668430000194,354.27733500000613,354.261393400011,354.5619749000034,354.5619749000034,None,355.06210540000757,None,f,1,0.6999904999975115,355.06210540000757,None,None,None,355.77929530000256,None,,,,,,,,,,,,,,,,,,,,,11034,2,2,2024_Jun_22_2132,stroop_task_switching2_b,2021.2.3,59.726274487397426,
condition/block_mixed_b,instruction/instr_mixed,instruction/i10_b,黄,yellow,f,square,color_mix,单词,,compatible,2,,,,,,,,0,2,2,2,0,0,0,0,0,40,40,40,,,,,,,,,,,,,,,,,,,,,,,,,,,,,,,,,,,356.781778900011,356.98197010000877,356.9646647000045,357.26599300000817,357.26599300000817,None,357.76650230000087,None,f,1,0.8839295999932801,357.76650230000087,None,None,None,358.66690340000787,None,,,,,,,,,,,,,,,,,,,,,11034,2,2,2024_Jun_22_2132,stroop_task_switching2_b,2021.2.3,59.726274487397426,
condition/block_mixed_b,instruction/instr_mixed,instruction/i10_b,蓝,blue,j,square,color_mix,单词,,compatible,1,,,,,,,,0,2,2,2,0,0,0,0,0,41,41,41,,,,,,,,,,,,,,,,,,,,,,,,,,,,,,,,,,,359.6685443000024,359.8698629000137,359.8522774000012,360.15253590000793,360.15253590000793,None,360.6542276000109,None,j,1,0.555898899998283,360.6542276000109,None,None,None,361.23749070000486,None,,,,,,,,,,,,,,,,,,,,,11034,2,2,2024_Jun_22_2132,stroop_task_switching2_b,2021.2.3,59.726274487397426,
condition/block_mixed_b,instruction/instr_mixed,instruction/i10_b,蓝,blue,j,diamond,color_mix,颜色,,compatible,2,,,,,,,,0,2,2,2,0,0,0,0,0,42,42,42,,,,,,,,,,,,,,,,,,,,,,,,,,,,,,,,,,,362.2392101000005,362.44027600000845,362.4233457000082,362.72324050001043,362.72324050001043,None,363.22397710000223,None,j,1,0.7941724999982398,363.22397710000223,None,None,None,364.04203450000205,None,,,,,,,,,,,,,,,,,,,,,11034,2,2,2024_Jun_22_2132,stroop_task_switching2_b,2021.2.3,59.726274487397426,
condition/block_mixed_b,instruction/instr_mixed,instruction/i10_b,黄,yellow,f,diamond,color_mix,颜色,,compatible,1,,,,,,,,0,2,2,2,0,0,0,0,0,43,43,43,,,,,,,,,,,,,,,,,,,,,,,,,,,,,,,,,,,365.0439514000027,365.2445174000022,365.22862360000727,365.52825070000836,365.52825070000836,None,366.0280388000101,None,f,1,0.6140416999987792,366.0280388000101,None,None,None,366.6623886000016,None,,,,,,,,,,,,,,,,,,,,,11034,2,2,2024_Jun_22_2132,stroop_task_switching2_b,2021.2.3,59.726274487397426,
condition/block_mixed_b,instruction/instr_mixed,instruction/i10_b,红,red,k,diamond,color_mix,颜色,,compatible,1,,,,,,,,0,2,2,2,0,0,0,0,0,44,44,44,,,,,,,,,,,,,,,,,,,,,,,,,,,,,,,,,,,367.66391410000506,367.8654127000045,367.8485340000043,368.1502698000113,368.1502698000113,None,368.64965700000175,None,k,1,0.4968079999962356,368.64965700000175,None,None,None,369.1662581000128,None,,,,,,,,,,,,,,,,,,,,,11034,2,2,2024_Jun_22_2132,stroop_task_switching2_b,2021.2.3,59.726274487397426,
condition/block_mixed_b,instruction/instr_mixed,instruction/i10_b,蓝,blue,j,diamond,color_mix,颜色,,compatible,1,,,,,,,,0,2,2,2,0,0,0,0,0,45,45,45,,,,,,,,,,,,,,,,,,,,,,,,,,,,,,,,,,,370.16774020000594,370.3693079000077,370.351399200008,370.6523004000046,370.6523004000046,None,371.15383880000445,None,j,1,0.48847890000615735,371.15383880000445,None,None,None,371.6698682000133,None,,,,,,,,,,,,,,,,,,,,,11034,2,2,2024_Jun_22_2132,stroop_task_switching2_b,2021.2.3,59.726274487397426,
condition/block_mixed_b,instruction/instr_mixed,instruction/i10_b,红,red,k,diamond,color_mix,颜色,,compatible,1,,,,,,,,0,2,2,2,0,0,0,0,0,46,46,46,,,,,,,,,,,,,,,,,,,,,,,,,,,,,,,,,,,372.6725226000126,372.8724419000064,372.85579940000025,373.1565774000046,373.1565774000046,None,373.65653090001433,None,k,1,0.6901821000064956,373.65653090001433,None,None,None,374.3742658000119,None,,,,,,,,,,,,,,,,,,,,,11034,2,2,2024_Jun_22_2132,stroop_task_switching2_b,2021.2.3,59.726274487397426,
condition/block_mixed_b,instruction/instr_mixed,instruction/i10_b,红,red,k,square,color_mix,单词,,compatible,2,,,,,,,,0,2,2,2,0,0,0,0,0,47,47,47,,,,,,,,,,,,,,,,,,,,,,,,,,,,,,,,,,,375.37545070001215,375.5780240000022,375.55920850000985,375.85972270001366,375.85972270001366,None,376.36096660001203,None,k,1,0.4184499999973923,376.36096660001203,None,None,None,376.7945083000086,None,,,,,,,,,,,,,,,,,,,,,11034,2,2,2024_Jun_22_2132,stroop_task_switching2_b,2021.2.3,59.726274487397426,
condition/block_mixed_b,instruction/instr_mixed,instruction/i10_b,红,red,k,diamond,color_mix,颜色,,compatible,2,,,,,,,,0,2,2,2,0,0,0,0,0,48,48,48,,,,,,,,,,,,,,,,,,,,,,,,,,,,,,,,,,,377.7965316000045,377.99695800000336,377.98083770000085,378.28089300000283,378.28089300000283,None,378.78137330000754,None,k,1,0.3892543999972986,378.78137330000754,None,None,None,379.1982117000007,None,,,,,,,,,,,,,,,,,,,,,11034,2,2,2024_Jun_22_2132,stroop_task_switching2_b,2021.2.3,59.726274487397426,
condition/block_mixed_b,instruction/instr_mixed,instruction/i10_b,,,,,,,,,,,,,,,,,0,2,2,2,0,0,0,0,,,,,,,,,,,,,,,,,,,,,,,,,,,,,,,,,,,,,,,,,,,,,,,,,,,,,,,,380.20030360000965,None,space,14.564594900002703,380.20030360000965,None,,,,,,,,,,,,,,,11034,2,2,2024_Jun_22_2132,stroop_task_switching2_b,2021.2.3,59.726274487397426,
condition/block_mixed_b,instruction/instr_mixed,instruction/i10_b,,,,,,,,,,,,,,,,,0,2,2,2,,,,,,,,,,,,,,,,,,,,,,,,,,,,,,,,,,,,,,,,,,,,,,,,,,,,,,,,,,,,,,,,,,,,,,,,,,,,,,,,11034,2,2,2024_Jun_22_2132,stroop_task_switching2_b,2021.2.3,59.726274487397426,
,,,红,red,k,square,color_mix,单词,,compatible,0,block_switch1_b,instruction/ready_test.png,instruction/i11.png,,,,,,,,,,,,,,,,,0,0,0,0,0,0,0,0,,,,,,,,,,,,,,,,,,,421.5955995000113,422.59706610000285,422.59706610000285,423.59849780000513,423.59849780000513,None,420.6108304000081,421.61299070001405,424.6349826000078,424.8338298000017,424.8185962000134,425.1175274000125,425.1175274000125,None,425.6182138000004,None,k,1,0.5462572999967961,425.6182138000004,None,None,None,,,,,,,,,394.82154390000505,None,space,25.766015800007153,394.82154390000505,None,,,,,,,,,11034,2,2,2024_Jun_22_2132,stroop_task_switching2_b,2021.2.3,59.726274487397426,
,,,绿,green,d,diamond,color_mix,颜色,,compatible,2,block_switch1_b,instruction/ready_test.png,instruction/i11.png,,,,,,,,,,,,,,,,,0,0,0,0,0,1,1,1,,,,,,,,,,,,,,,,,,,,,,,,,,,426.2188998000056,426.4195852000121,426.36937250000483,426.66989000000467,426.66989000000467,None,427.1706176000007,None,d,1,0.7295292999915546,427.1706176000007,None,None,None,,,,,,,,,,,,,,,,,,,,,,,11034,2,2,2024_Jun_22_2132,stroop_task_switching2_b,2021.2.3,59.726274487397426,
,,,绿,yellow,f,diamond,color_mix,颜色,,incompatible,1,block_switch1_b,instruction/ready_test.png,instruction/i11.png,,,,,,,,,,,,,,,,,0,0,0,0,0,2,2,2,,,,,,,,,,,,,,,,,,,,,,,,,,,427.9217975000065,428.12201840001217,428.1057184000092,428.40716230000544,428.40716230000544,None,428.90727210001205,None,f,1,0.9609131000033813,428.90727210001205,None,None,None,,,,,,,,,,,,,,,,,,,,,,,11034,2,2,2024_Jun_22_2132,stroop_task_switching2_b,2021.2.3,59.726274487397426,
,,,蓝,blue,j,diamond,color_mix,颜色,,compatible,1,block_switch1_b,instruction/ready_test.png,instruction/i11.png,,,,,,,,,,,,,,,,,0,0,0,0,0,3,3,3,,,,,,,,,,,,,,,,,,,,,,,,,,,429.8912502000021,430.09232170000905,430.0755402000068,430.37714210001286,430.37714210001286,None,430.8771940000006,None,j,1,0.5509334999951534,430.8771940000006,None,None,None,,,,,,,,,,,,,,,,,,,,,,,11034,2,2,2024_Jun_22_2132,stroop_task_switching2_b,2021.2.3,59.726274487397426,
,,,绿,green,d,square,color_mix,单词,,compatible,2,block_switch1_b,instruction/ready_test.png,instruction/i11.png,,,,,,,,,,,,,,,,,0,0,0,0,0,4,4,4,,,,,,,,,,,,,,,,,,,,,,,,,,,431.443622900013,431.64470860001165,431.62739020001027,431.92847020000045,431.92847020000045,None,432.42941420001443,None,d,1,0.5030518999992637,432.42941420001443,None,None,None,,,,,,,,,,,,,,,,,,,,,,,11034,2,2,2024_Jun_22_2132,stroop_task_switching2_b,2021.2.3,59.726274487397426,
,,,绿,blue,j,diamond,color_mix,颜色,,incompatible,2,block_switch1_b,instruction/ready_test.png,instruction/i11.png,,,,,,,,,,,,,,,,,0,0,0,0,0,5,5,5,,,,,,,,,,,,,,,,,,,,,,,,,,,432.98003760000574,433.1813254000008,433.1487269000063,433.4641546000057,433.4486426000076,None,433.9481411000015,None,j,1,0.5441625999956159,433.9481411000015,None,None,None,,,,,,,,,,,,,,,,,,,,,,,11034,2,2,2024_Jun_22_2132,stroop_task_switching2_b,2021.2.3,59.726274487397426,
,,,黄,red,f,square,color_mix,单词,,incompatible,2,block_switch1_b,instruction/ready_test.png,instruction/i11.png,,,,,,,,,,,,,,,,,0,0,0,0,0,6,6,6,,,,,,,,,,,,,,,,,,,,,,,,,,,434.51504890000797,434.7167732000089,434.69858940000995,434.9990173000115,434.9990173000115,None,435.4998038000049,None,d,0,1.344323400000576,435.4998038000049,None,None,None,,,,,,,,,,,,,,,,,,,,,,,11034,2,2,2024_Jun_22_2132,stroop_task_switching2_b,2021.2.3,59.726274487397426,
,,,绿,green,d,square,color_mix,单词,,compatible,1,block_switch1_b,instruction/ready_test.png,instruction/i11.png,,,,,,,,,,,,,,,,,0,0,0,0,0,7,7,7,,,,,,,,,,,,,,,,,,,,,,,,,,,436.8685559000005,437.0688763000071,437.05299310000555,437.3534864000103,437.3534864000103,None,437.85344750000513,None,d,1,0.8148923999979161,437.85344750000513,None,None,None,,,,,,,,,,,,,,,,,,,,,,,11034,2,2,2024_Jun_22_2132,stroop_task_switching2_b,2021.2.3,59.726274487397426,
,,,蓝,blue,j,square,color_mix,单词,,compatible,1,block_switch1_b,instruction/ready_test.png,instruction/i11.png,,,,,,,,,,,,,,,,,0,0,0,0,0,8,8,8,,,,,,,,,,,,,,,,,,,,,,,,,,,438.68812640001124,438.88848470000084,438.87177590001374,439.17294260000926,439.17294260000926,None,439.6738037000032,None,j,1,0.6745669999945676,439.6738037000032,None,None,None,,,,,,,,,,,,,,,,,,,,,,,11034,2,2,2024_Jun_22_2132,stroop_task_switching2_b,2021.2.3,59.726274487397426,
,,,红,red,k,diamond,color_mix,颜色,,compatible,2,block_switch1_b,instruction/ready_test.png,instruction/i11.png,,,,,,,,,,,,,,,,,0,0,0,0,0,9,9,9,,,,,,,,,,,,,,,,,,,,,,,,,,,440.37408510000387,440.5749430000142,440.55734060000395,440.8578724000108,440.8578724000108,None,441.3586769000103,None,k,1,0.5342889000021387,441.3586769000103,None,None,None,,,,,,,,,,,,,,,,,,,,,,,11034,2,2,2024_Jun_22_2132,stroop_task_switching2_b,2021.2.3,59.726274487397426,
,,,黄,yellow,f,diamond,color_mix,颜色,,compatible,1,block_switch1_b,instruction/ready_test.png,instruction/i11.png,,,,,,,,,,,,,,,,,0,0,0,0,0,10,10,10,,,,,,,,,,,,,,,,,,,,,,,,,,,441.9094402000046,442.10989370000607,442.09362610000244,442.3935153000057,442.3935153000057,None,442.89443780000147,None,f,1,0.766569499988691,442.89443780000147,None,None,None,,,,,,,,,,,,,,,,,,,,,,,11034,2,2,2024_Jun_22_2132,stroop_task_switching2_b,2021.2.3,59.726274487397426,
,,,绿,green,d,square,color_mix,单词,,compatible,2,block_switch1_b,instruction/ready_test.png,instruction/i11.png,,,,,,,,,,,,,,,,,0,0,0,0,0,11,11,11,,,,,,,,,,,,,,,,,,,,,,,,,,,443.6788957000099,443.8800213000068,443.8631133000017,444.162976800013,444.162976800013,None,444.66443250000884,None,d,1,0.5401251000002958,444.66443250000884,None,None,None,,,,,,,,,,,,,,,,,,,,,,,11034,2,2,2024_Jun_22_2132,stroop_task_switching2_b,2021.2.3,59.726274487397426,
,,,红,red,k,diamond,color_mix,颜色,,compatible,2,block_switch1_b,instruction/ready_test.png,instruction/i11.png,,,,,,,,,,,,,,,,,0,0,0,0,0,12,12,12,,,,,,,,,,,,,,,,,,,,,,,,,,,445.23130200000014,445.43159110000124,445.41526480000175,445.71612590001314,445.71612590001314,None,446.21590030001244,None,k,1,0.5725869000016246,446.21590030001244,None,None,None,,,,,,,,,,,,,,,,,,,,,,,11034,2,2,2024_Jun_22_2132,stroop_task_switching2_b,2021.2.3,59.726274487397426,
,,,红,red,k,diamond,color_mix,颜色,,compatible,1,block_switch1_b,instruction/ready_test.png,instruction/i11.png,,,,,,,,,,,,,,,,,0,0,0,0,0,13,13,13,,,,,,,,,,,,,,,,,,,,,,,,,,,446.8169282000017,447.0175976000028,447.0004365000059,447.30222490000597,447.30222490000597,None,447.80283370001416,None,k,1,0.6664197999925818,447.80283370001416,None,None,None,,,,,,,,,,,,,,,,,,,,,,,11034,2,2,2024_Jun_22_2132,stroop_task_switching2_b,2021.2.3,59.726274487397426,
,,,黄,yellow,f,square,color_mix,单词,,compatible,2,block_switch1_b,instruction/ready_test.png,instruction/i11.png,,,,,,,,,,,,,,,,,0,0,0,0,0,14,14,14,,,,,,,,,,,,,,,,,,,,,,,,,,,448.4866580000089,448.6865942000004,448.6708496000065,448.9702094000095,448.9702094000095,None,449.4720284000068,None,f,1,0.7971636000002036,449.4720284000068,None,None,None,,,,,,,,,,,,,,,,,,,,,,,11034,2,2,2024_Jun_22_2132,stroop_task_switching2_b,2021.2.3,59.726274487397426,
,,,红,green,d,diamond,color_mix,颜色,,incompatible,2,block_switch1_b,instruction/ready_test.png,instruction/i11.png,,,,,,,,,,,,,,,,,0,0,0,0,0,15,15,15,,,,,,,,,,,,,,,,,,,,,,,,,,,450.28881450000335,450.49052170000505,450.4724484000035,450.7740834000142,450.7740834000142,None,451.2741803000099,None,d,1,1.0106354000017745,451.2741803000099,None,None,None,,,,,,,,,,,,,,,,,,,,,,,11034,2,2,2024_Jun_22_2132,stroop_task_switching2_b,2021.2.3,59.726274487397426,
,,,蓝,red,k,diamond,color_mix,颜色,,incompatible,1,block_switch1_b,instruction/ready_test.png,instruction/i11.png,,,,,,,,,,,,,,,,,0,0,0,0,0,16,16,16,,,,,,,,,,,,,,,,,,,,,,,,,,,452.3086473000003,452.50897730000725,452.4936570000136,452.79377390000445,452.79377390000445,None,453.29426060001424,None,j,0,1.830590999990818,453.29426060001424,None,None,None,,,,,,,,,,,,,,,,,,,,,,,11034,2,2,2024_Jun_22_2132,stroop_task_switching2_b,2021.2.3,59.726274487397426,
,,,黄,green,d,diamond,color_mix,颜色,,incompatible,1,block_switch1_b,instruction/ready_test.png,instruction/i11.png,,,,,,,,,,,,,,,,,0,0,0,0,0,17,17,17,,,,,,,,,,,,,,,,,,,,,,,,,,,455.1459860000032,455.3464359000063,455.33029010001337,455.63027720000537,455.63027720000537,None,456.13094660000934,None,d,1,0.8096940999967046,456.13094660000934,None,None,None,,,,,,,,,,,,,,,,,,,,,,,11034,2,2,2024_Jun_22_2132,stroop_task_switching2_b,2021.2.3,59.726274487397426,
,,,绿,green,d,diamond,color_mix,颜色,,compatible,1,block_switch1_b,instruction/ready_test.png,instruction/i11.png,,,,,,,,,,,,,,,,,0,0,0,0,0,18,18,18,,,,,,,,,,,,,,,,,,,,,,,,,,,456.9653709000122,457.16660680000496,457.1505307000043,457.4509345000115,457.4509345000115,None,457.95038110000314,None,d,1,0.430946499996935,457.95038110000314,None,None,None,,,,,,,,,,,,,,,,,,,,,,,11034,2,2,2024_Jun_22_2132,stroop_task_switching2_b,2021.2.3,59.726274487397426,
,,,黄,red,k,diamond,color_mix,颜色,,incompatible,1,block_switch1_b,instruction/ready_test.png,instruction/i11.png,,,,,,,,,,,,,,,,,0,0,0,0,0,19,19,19,,,,,,,,,,,,,,,,,,,,,,,,,,,458.4011269000039,458.60174960001314,458.5869889000023,458.9029903000046,458.8860588000098,None,459.3857566000079,None,k,1,0.9316185999923619,459.3857566000079,None,None,None,,,,,,,,,,,,,,,,,,,,,,,11034,2,2,2024_Jun_22_2132,stroop_task_switching2_b,2021.2.3,59.726274487397426,
,,,绿,yellow,d,square,color_mix,单词,,incompatible,2,block_switch1_b,instruction/ready_test.png,instruction/i11.png,,,,,,,,,,,,,,,,,0,0,0,0,0,20,20,20,,,,,,,,,,,,,,,,,,,,,,,,,,,460.337428800005,460.53769620000094,460.5208469000063,460.8222143000021,460.8222143000021,None,461.3231924000138,None,d,1,1.1780482000031043,461.3231924000138,None,None,None,,,,,,,,,,,,,,,,,,,,,,,11034,2,2,2024_Jun_22_2132,stroop_task_switching2_b,2021.2.3,59.726274487397426,
,,,绿,yellow,f,diamond,color_mix,颜色,,incompatible,2,block_switch1_b,instruction/ready_test.png,instruction/i11.png,,,,,,,,,,,,,,,,,0,0,0,0,0,21,21,21,,,,,,,,,,,,,,,,,,,,,,,,,,,462.5241182000027,462.7250490000006,462.7076811000006,463.01008130000264,463.01008130000264,None,463.5093715000112,None,f,1,0.9595767999999225,463.5093715000112,None,None,None,,,,,,,,,,,,,,,,,,,,,,,11034,2,2,2024_Jun_22_2132,stroop_task_switching2_b,2021.2.3,59.726274487397426,
,,,绿,green,d,square,color_mix,单词,,compatible,2,block_switch1_b,instruction/ready_test.png,instruction/i11.png,,,,,,,,,,,,,,,,,0,0,0,0,0,22,22,22,,,,,,,,,,,,,,,,,,,,,,,,,,,464.49362930000643,464.6938477000076,464.6780831000069,464.97830539999995,464.97830539999995,None,465.4784351000126,None,d,1,0.6950601999997161,465.4784351000126,None,None,None,,,,,,,,,,,,,,,,,,,,,,,11034,2,2,2024_Jun_22_2132,stroop_task_switching2_b,2021.2.3,59.726274487397426,
,,,红,red,k,square,color_mix,单词,,compatible,1,block_switch1_b,instruction/ready_test.png,instruction/i11.png,,,,,,,,,,,,,,,,,0,0,0,0,0,23,23,23,,,,,,,,,,,,,,,,,,,,,,,,,,,466.19621360000747,466.39646640000865,466.38044740000623,466.6801606000081,466.6801606000081,None,467.18157270000665,None,k,1,0.8157992000051308,467.18157270000665,None,None,None,,,,,,,,,,,,,,,,,,,,,,,11034,2,2,2024_Jun_22_2132,stroop_task_switching2_b,2021.2.3,59.726274487397426,
,,,黄,green,f,square,color_mix,单词,,incompatible,1,block_switch1_b,instruction/ready_test.png,instruction/i11.png,,,,,,,,,,,,,,,,,0,0,0,0,0,24,24,24,,,,,,,,,,,,,,,,,,,,,,,,,,,468.0166360000003,468.2159963000013,468.19928990000335,468.50071410000965,468.50071410000965,None,469.0004716000112,None,f,1,1.4534276999911526,469.0004716000112,None,None,None,,,,,,,,,,,,,,,,,,,,,,,11034,2,2,2024_Jun_22_2132,stroop_task_switching2_b,2021.2.3,59.726274487397426,
,,,红,blue,k,square,color_mix,单词,,incompatible,1,block_switch1_b,instruction/ready_test.png,instruction/i11.png,,,,,,,,,,,,,,,,,0,0,0,0,0,25,25,25,,,,,,,,,,,,,,,,,,,,,,,,,,,470.46936890001234,470.6704926000093,470.6535561000055,470.95333550000214,470.95333550000214,None,471.4540471000073,None,j,0,1.3673769000015454,471.4540471000073,None,None,None,,,,,,,,,,,,,,,,,,,,,,,11034,2,2,2024_Jun_22_2132,stroop_task_switching2_b,2021.2.3,59.726274487397426,
,,,黄,yellow,f,square,color_mix,单词,,compatible,1,block_switch1_b,instruction/ready_test.png,instruction/i11.png,,,,,,,,,,,,,,,,,0,0,0,0,0,26,26,26,,,,,,,,,,,,,,,,,,,,,,,,,,,472.83956110000145,473.0407116000133,473.02396430000954,473.32456450001337,473.32456450001337,None,473.8244738000067,None,f,1,0.605093099991791,473.8244738000067,None,None,None,,,,,,,,,,,,,,,,,,,,,,,11034,2,2,2024_Jun_22_2132,stroop_task_switching2_b,2021.2.3,59.726274487397426,
,,,蓝,green,j,square,color_mix,单词,,incompatible,1,block_switch1_b,instruction/ready_test.png,instruction/i11.png,,,,,,,,,,,,,,,,,0,0,0,0,0,27,27,27,,,,,,,,,,,,,,,,,,,,,,,,,,,474.4585678000003,474.6595196000126,474.64303630001086,474.9440217000083,474.9440217000083,None,475.44407510000747,None,j,1,1.2098696999892127,475.44407510000747,None,None,None,,,,,,,,,,,,,,,,,,,,,,,11034,2,2,2024_Jun_22_2132,stroop_task_switching2_b,2021.2.3,59.726274487397426,
,,,绿,green,d,diamond,color_mix,颜色,,compatible,2,block_switch1_b,instruction/ready_test.png,instruction/i11.png,,,,,,,,,,,,,,,,,0,0,0,0,0,28,28,28,,,,,,,,,,,,,,,,,,,,,,,,,,,476.6790633000055,476.8799393000081,476.8622672000056,477.1645897000126,477.1645897000126,None,477.6647273000126,None,d,1,0.5174757000058889,477.6647273000126,None,None,None,,,,,,,,,,,,,,,,,,,,,,,11034,2,2,2024_Jun_22_2132,stroop_task_switching2_b,2021.2.3,59.726274487397426,
,,,黄,blue,j,diamond,color_mix,颜色,,incompatible,1,block_switch1_b,instruction/ready_test.png,instruction/i11.png,,,,,,,,,,,,,,,,,0,0,0,0,0,29,29,29,,,,,,,,,,,,,,,,,,,,,,,,,,,478.19766510000045,478.39900260001014,478.3812469000113,478.6830153000046,478.6830153000046,None,479.1824392000126,None,j,1,1.1676826000039,479.1824392000126,None,None,None,,,,,,,,,,,,,,,,,,,,,,,11034,2,2,2024_Jun_22_2132,stroop_task_switching2_b,2021.2.3,59.726274487397426,
,,,绿,green,d,diamond,color_mix,颜色,,compatible,1,block_switch1_b,instruction/ready_test.png,instruction/i11.png,,,,,,,,,,,,,,,,,0,0,0,0,0,30,30,30,,,,,,,,,,,,,,,,,,,,,,,,,,,480.36771930000396,480.56805110001005,480.5516765000066,480.85272980001173,480.85272980001173,None,481.3523974000127,None,d,1,0.4770633000007365,481.3523974000127,None,None,None,,,,,,,,,,,,,,,,,,,,,,,11034,2,2,2024_Jun_22_2132,stroop_task_switching2_b,2021.2.3,59.726274487397426,
,,,蓝,blue,j,square,color_mix,单词,,compatible,2,block_switch1_b,instruction/ready_test.png,instruction/i11.png,,,,,,,,,,,,,,,,,0,0,0,0,0,31,31,31,,,,,,,,,,,,,,,,,,,,,,,,,,,481.8532717000053,482.05353670001205,482.03779730001406,482.33736960000533,482.33736960000533,None,482.83883590000914,None,j,1,0.6713272000051802,482.83883590000914,None,None,None,,,,,,,,,,,,,,,,,,,,,,,11034,2,2,2024_Jun_22_2132,stroop_task_switching2_b,2021.2.3,59.726274487397426,
,,,红,red,k,square,color_mix,单词,,compatible,1,block_switch1_b,instruction/ready_test.png,instruction/i11.png,,,,,,,,,,,,,,,,,0,0,0,0,0,32,32,32,,,,,,,,,,,,,,,,,,,,,,,,,,,483.5391438000079,483.7401034000068,483.72355270000116,484.0236399000132,484.0236399000132,None,484.52489260000584,None,k,1,1.0012949000083609,484.52489260000584,None,None,None,,,,,,,,,,,,,,,,,,,,,,,11034,2,2,2024_Jun_22_2132,stroop_task_switching2_b,2021.2.3,59.726274487397426,
,,,红,green,k,square,color_mix,单词,,incompatible,1,block_switch1_b,instruction/ready_test.png,instruction/i11.png,,,,,,,,,,,,,,,,,0,0,0,0,0,33,33,33,,,,,,,,,,,,,,,,,,,,,,,,,,,485.5421825000085,485.7431690000085,485.7280172000028,486.0268541000114,486.0268541000114,None,486.5280674000096,None,k,1,1.1097115999873495,486.5280674000096,None,None,None,,,,,,,,,,,,,,,,,,,,,,,11034,2,2,2024_Jun_22_2132,stroop_task_switching2_b,2021.2.3,59.726274487397426,
,,,黄,yellow,f,diamond,color_mix,颜色,,compatible,2,block_switch1_b,instruction/ready_test.png,instruction/i11.png,,,,,,,,,,,,,,,,,0,0,0,0,0,34,34,34,,,,,,,,,,,,,,,,,,,,,,,,,,,487.6620339000074,487.8622433000128,487.8465567000094,488.1469411000144,488.1469411000144,None,488.6468964000087,None,f,1,0.6792765999998664,488.6468964000087,None,None,None,,,,,,,,,,,,,,,,,,,,,,,11034,2,2,2024_Jun_22_2132,stroop_task_switching2_b,2021.2.3,59.726274487397426,
,,,红,green,d,diamond,color_mix,颜色,,incompatible,1,block_switch1_b,instruction/ready_test.png,instruction/i11.png,,,,,,,,,,,,,,,,,0,0,0,0,0,35,35,35,,,,,,,,,,,,,,,,,,,,,,,,,,,489.3478426000074,489.5481445000041,489.5316957000032,489.83319050000864,489.83319050000864,None,490.3326670000097,None,d,1,0.9134485000104178,490.3326670000097,None,None,None,,,,,,,,,,,,,,,,,,,,,,,11034,2,2,2024_Jun_22_2132,stroop_task_switching2_b,2021.2.3,59.726274487397426,
,,,黄,yellow,f,square,color_mix,单词,,compatible,2,block_switch1_b,instruction/ready_test.png,instruction/i11.png,,,,,,,,,,,,,,,,,0,0,0,0,0,36,36,36,,,,,,,,,,,,,,,,,,,,,,,,,,,491.26729930000147,491.4698473000026,491.45097960000567,491.75373950001085,491.75373950001085,None,492.2688993000047,None,f,1,1.6975898999953642,492.2688993000047,None,None,None,,,,,,,,,,,,,,,,,,,,,,,11034,2,2,2024_Jun_22_2132,stroop_task_switching2_b,2021.2.3,59.726274487397426,
,,,蓝,blue,j,square,color_mix,单词,,compatible,1,block_switch1_b,instruction/ready_test.png,instruction/i11.png,,,,,,,,,,,,,,,,,0,0,0,0,0,37,37,37,,,,,,,,,,,,,,,,,,,,,,,,,,,493.98975570000766,494.1888823000045,494.1741641000117,494.4727251000004,494.4727251000004,None,494.97422310001275,None,j,1,0.6719079000031343,494.97422310001275,None,None,None,,,,,,,,,,,,,,,,,,,,,,,11034,2,2,2024_Jun_22_2132,stroop_task_switching2_b,2021.2.3,59.726274487397426,
,,,绿,red,k,diamond,color_mix,颜色,,incompatible,2,block_switch1_b,instruction/ready_test.png,instruction/i11.png,,,,,,,,,,,,,,,,,0,0,0,0,0,38,38,38,,,,,,,,,,,,,,,,,,,,,,,,,,,495.6739256000001,495.8750057000143,495.8600657000061,496.158148100003,496.158148100003,None,496.6590700000088,None,d,0,1.9791403999988688,496.6590700000088,None,None,None,,,,,,,,,,,,,,,,,,,,,,,11034,2,2,2024_Jun_22_2132,stroop_task_switching2_b,2021.2.3,59.726274487397426,
,,,黄,yellow,f,diamond,color_mix,颜色,,compatible,1,block_switch1_b,instruction/ready_test.png,instruction/i11.png,,,,,,,,,,,,,,,,,0,0,0,0,0,39,39,39,,,,,,,,,,,,,,,,,,,,,,,,,,,498.66193130001193,498.8636478000117,498.8457492000016,499.1468695000076,499.1468695000076,None,499.64691790001234,None,f,1,0.5750990999949863,499.64691790001234,None,None,None,,,,,,,,,,,,,,,,,,,,,,,11034,2,2,2024_Jun_22_2132,stroop_task_switching2_b,2021.2.3,59.726274487397426,
,,,红,blue,j,diamond,color_mix,颜色,,incompatible,1,block_switch1_b,instruction/ready_test.png,instruction/i11.png,,,,,,,,,,,,,,,,,0,0,0,0,0,40,40,40,,,,,,,,,,,,,,,,,,,,,,,,,,,500.24755830000504,500.4490284000058,500.4327171000041,500.73269060000894,500.73269060000894,None,501.2334139000013,None,j,1,1.349153999995906,501.2334139000013,None,None,None,,,,,,,,,,,,,,,,,,,,,,,11034,2,2,2024_Jun_22_2132,stroop_task_switching2_b,2021.2.3,59.726274487397426,
,,,绿,blue,d,square,color_mix,单词,,incompatible,2,block_switch1_b,instruction/ready_test.png,instruction/i11.png,,,,,,,,,,,,,,,,,0,0,0,0,0,41,41,41,,,,,,,,,,,,,,,,,,,,,,,,,,,502.60120460001053,502.80286210001213,502.7850443000061,503.0853266000049,503.0853266000049,None,503.58590370000456,None,d,1,1.1724229999963427,503.58590370000456,None,None,None,,,,,,,,,,,,,,,,,,,,,,,11034,2,2,2024_Jun_22_2132,stroop_task_switching2_b,2021.2.3,59.726274487397426,
,,,蓝,blue,j,diamond,color_mix,颜色,,compatible,2,block_switch1_b,instruction/ready_test.png,instruction/i11.png,,,,,,,,,,,,,,,,,0,0,0,0,0,42,42,42,,,,,,,,,,,,,,,,,,,,,,,,,,,504.78791500000807,504.9899654000037,504.97141170001123,505.27305020000495,505.27305020000495,None,505.7736386000033,None,j,1,1.0647626999998465,505.7736386000033,None,None,None,,,,,,,,,,,,,,,,,,,,,,,11034,2,2,2024_Jun_22_2132,stroop_task_switching2_b,2021.2.3,59.726274487397426,
,,,红,blue,k,square,color_mix,单词,,incompatible,2,block_switch1_b,instruction/ready_test.png,instruction/i11.png,,,,,,,,,,,,,,,,,0,0,0,0,0,43,43,43,,,,,,,,,,,,,,,,,,,,,,,,,,,506.8574249000085,507.0578746000101,507.0412959000096,507.3436577000102,507.3436577000102,None,507.84293750001234,None,k,1,0.9878087000106461,507.84293750001234,None,None,None,,,,,,,,,,,,,,,,,,,,,,,11034,2,2,2024_Jun_22_2132,stroop_task_switching2_b,2021.2.3,59.726274487397426,
,,,蓝,green,d,diamond,color_mix,颜色,,incompatible,2,block_switch1_b,instruction/ready_test.png,instruction/i11.png,,,,,,,,,,,,,,,,,0,0,0,0,0,44,44,44,,,,,,,,,,,,,,,,,,,,,,,,,,,508.86072440000135,509.06126260000747,509.04486680000264,509.3448308000079,509.3448308000079,None,509.8454507000133,None,d,1,0.8572589999967022,509.8454507000133,None,None,None,,,,,,,,,,,,,,,,,,,,,,,11034,2,2,2024_Jun_22_2132,stroop_task_switching2_b,2021.2.3,59.726274487397426,
,,,黄,yellow,f,square,color_mix,单词,,compatible,2,block_switch1_b,instruction/ready_test.png,instruction/i11.png,,,,,,,,,,,,,,,,,0,0,0,0,0,45,45,45,,,,,,,,,,,,,,,,,,,,,,,,,,,510.73003280001285,510.9318590000039,510.9136143000069,511.2143281000026,511.2143281000026,None,511.71502670001064,None,f,1,1.9162234000104945,511.71502670001064,None,None,None,,,,,,,,,,,,,,,,,,,,,,,11034,2,2,2024_Jun_22_2132,stroop_task_switching2_b,2021.2.3,59.726274487397426,
,,,黄,yellow,f,diamond,color_mix,颜色,,compatible,2,block_switch1_b,instruction/ready_test.png,instruction/i11.png,,,,,,,,,,,,,,,,,0,0,0,0,0,46,46,46,,,,,,,,,,,,,,,,,,,,,,,,,,,513.6512913000042,513.8524389000086,513.8357618000009,514.1368817000039,514.1368817000039,None,514.6361649000028,None,f,1,0.8746562999876915,514.6361649000028,None,None,None,,,,,,,,,,,,,,,,,,,,,,,11034,2,2,2024_Jun_22_2132,stroop_task_switching2_b,2021.2.3,59.726274487397426,
,,,绿,red,d,square,color_mix,单词,,incompatible,2,block_switch1_b,instruction/ready_test.png,instruction/i11.png,,,,,,,,,,,,,,,,,0,0,0,0,0,47,47,47,,,,,,,,,,,,,,,,,,,,,,,,,,,515.5375438000046,515.7395109000063,515.7216937000048,516.0220725000108,516.0220725000108,None,516.5221772000077,None,d,1,1.1811542000068584,516.5221772000077,None,None,None,,,,,,,,,,,,,,,,,,,,,,,11034,2,2,2024_Jun_22_2132,stroop_task_switching2_b,2021.2.3,59.726274487397426,
,,,红,red,k,diamond,color_mix,颜色,,compatible,2,block_switch1_b,instruction/ready_test.png,instruction/i11.png,,,,,,,,,,,,,,,,,0,0,0,0,0,48,48,48,,,,,,,,,,,,,,,,,,,,,,,,,,,517.7238886000123,517.924900900005,517.9078089000104,518.2082831000007,518.2082831000007,None,518.7095839000103,None,k,1,0.6976307000004454,518.7095839000103,None,None,None,,,,,,,,,,,,,,,,,,,,,,,11034,2,2,2024_Jun_22_2132,stroop_task_switching2_b,2021.2.3,59.726274487397426,
,,,蓝,blue,j,diamond,color_mix,颜色,,compatible,1,block_switch1_b,instruction/ready_test.png,instruction/i11.png,,,,,,,,,,,,,,,,,0,0,0,0,0,49,49,49,,,,,,,,,,,,,,,,,,,,,,,,,,,519.4266128000017,519.6272026000079,519.6108765000099,519.9107692000107,519.9107692000107,None,520.4127239000081,None,j,1,0.7384506000089459,520.4127239000081,None,None,None,,,,,,,,,,,,,,,,,,,,,,,11034,2,2,2024_Jun_22_2132,stroop_task_switching2_b,2021.2.3,59.726274487397426,
,,,黄,yellow,f,diamond,color_mix,颜色,,compatible,1,block_switch1_b,instruction/ready_test.png,instruction/i11.png,,,,,,,,,,,,,,,,,0,0,0,0,0,50,50,50,,,,,,,,,,,,,,,,,,,,,,,,,,,521.1801995000133,521.3804863000114,521.3638033000025,521.6633562000061,521.6633562000061,None,522.1642561000044,None,f,1,0.731030400012969,522.1642561000044,None,None,None,,,,,,,,,,,,,,,,,,,,,,,11034,2,2,2024_Jun_22_2132,stroop_task_switching2_b,2021.2.3,59.726274487397426,
,,,红,blue,j,diamond,color_mix,颜色,,incompatible,1,block_switch1_b,instruction/ready_test.png,instruction/i11.png,,,,,,,,,,,,,,,,,0,0,0,0,0,51,51,51,,,,,,,,,,,,,,,,,,,,,,,,,,,522.9153666000057,523.1161531000107,523.0998032000061,523.4000056000077,523.4000056000077,None,523.9006839000067,None,j,1,0.7861167999944882,523.9006839000067,None,None,None,,,,,,,,,,,,,,,,,,,,,,,11034,2,2,2024_Jun_22_2132,stroop_task_switching2_b,2021.2.3,59.726274487397426,
,,,蓝,yellow,f,diamond,color_mix,颜色,,incompatible,1,block_switch1_b,instruction/ready_test.png,instruction/i11.png,,,,,,,,,,,,,,,,,0,0,0,0,0,52,52,52,,,,,,,,,,,,,,,,,,,,,,,,,,,524.7013884000044,524.9023367000045,524.8859243000043,525.1854275000078,525.1854275000078,None,525.6868438000092,None,f,1,1.064376700000139,525.6868438000092,None,None,None,,,,,,,,,,,,,,,,,,,,,,,11034,2,2,2024_Jun_22_2132,stroop_task_switching2_b,2021.2.3,59.726274487397426,
,,,黄,blue,f,square,color_mix,单词,,incompatible,2,block_switch1_b,instruction/ready_test.png,instruction/i11.png,,,,,,,,,,,,,,,,,0,0,0,0,0,53,53,53,,,,,,,,,,,,,,,,,,,,,,,,,,,526.7709143000102,526.9729415000038,526.9547291000054,527.2559622000117,527.2559622000117,None,527.7558237000048,None,j,0,0.8363412000035169,527.7558237000048,None,None,None,,,,,,,,,,,,,,,,,,,,,,,11034,2,2,2024_Jun_22_2132,stroop_task_switching2_b,2021.2.3,59.726274487397426,
,,,蓝,blue,j,diamond,color_mix,颜色,,compatible,2,block_switch1_b,instruction/ready_test.png,instruction/i11.png,,,,,,,,,,,,,,,,,0,0,0,0,0,54,54,54,,,,,,,,,,,,,,,,,,,,,,,,,,,528.6072377000091,528.8074891000142,528.7916022000136,529.0927778000041,529.0927778000041,None,529.592048800012,None,j,1,0.7751409000047715,529.592048800012,None,None,None,,,,,,,,,,,,,,,,,,,,,,,11034,2,2,2024_Jun_22_2132,stroop_task_switching2_b,2021.2.3,59.726274487397426,
,,,红,yellow,k,square,color_mix,单词,,incompatible,2,block_switch1_b,instruction/ready_test.png,instruction/i11.png,,,,,,,,,,,,,,,,,0,0,0,0,0,55,55,55,,,,,,,,,,,,,,,,,,,,,,,,,,,530.3930075000098,530.59414690001,530.5779622000118,530.877882300003,530.877882300003,None,531.378166800001,None,k,1,1.1251345000055153,531.378166800001,None,None,None,,,,,,,,,,,,,,,,,,,,,,,11034,2,2,2024_Jun_22_2132,stroop_task_switching2_b,2021.2.3,59.726274487397426,
,,,蓝,red,j,square,color_mix,单词,,incompatible,1,block_switch1_b,instruction/ready_test.png,instruction/i11.png,,,,,,,,,,,,,,,,,0,0,0,0,0,56,56,56,,,,,,,,,,,,,,,,,,,,,,,,,,,532.5297401000134,532.7308817000012,532.7138863,533.0137778000062,533.0137778000062,None,533.5145013000001,None,j,1,2.1648526000062702,533.5145013000001,None,None,None,,,,,,,,,,,,,,,,,,,,,,,11034,2,2,2024_Jun_22_2132,stroop_task_switching2_b,2021.2.3,59.726274487397426,
,,,蓝,blue,j,square,color_mix,单词,,compatible,1,block_switch1_b,instruction/ready_test.png,instruction/i11.png,,,,,,,,,,,,,,,,,0,0,0,0,0,57,57,57,,,,,,,,,,,,,,,,,,,,,,,,,,,535.7010789000051,535.9014868000086,535.8848508000083,536.1853173000127,536.1853173000127,None,536.6863562000071,None,j,1,0.5368660000094678,536.6863562000071,None,None,None,,,,,,,,,,,,,,,,,,,,,,,11034,2,2,2024_Jun_22_2132,stroop_task_switching2_b,2021.2.3,59.726274487397426,
,,,蓝,red,k,diamond,color_mix,颜色,,incompatible,2,block_switch1_b,instruction/ready_test.png,instruction/i11.png,,,,,,,,,,,,,,,,,0,0,0,0,0,58,58,58,,,,,,,,,,,,,,,,,,,,,,,,,,,537.2536123000027,537.4538456000009,537.4378260000085,537.7391926000128,537.7391926000128,None,538.2391313000116,None,k,1,1.4083788999996614,538.2391313000116,None,None,None,,,,,,,,,,,,,,,,,,,,,,,11034,2,2,2024_Jun_22_2132,stroop_task_switching2_b,2021.2.3,59.726274487397426,
,,,绿,green,d,diamond,color_mix,颜色,,compatible,1,block_switch1_b,instruction/ready_test.png,instruction/i11.png,,,,,,,,,,,,,,,,,0,0,0,0,0,59,59,59,,,,,,,,,,,,,,,,,,,,,,,,,,,539.6736773000011,539.8763849000097,539.8586888000136,540.1580683000066,540.1580683000066,None,540.6588321000017,None,d,1,0.5730108999996446,540.6588321000017,None,None,None,,,,,,,,,,,,,,,,,,,,,,,11034,2,2,2024_Jun_22_2132,stroop_task_switching2_b,2021.2.3,59.726274487397426,
,,,蓝,blue,j,diamond,color_mix,颜色,,compatible,1,block_switch1_b,instruction/ready_test.png,instruction/i11.png,,,,,,,,,,,,,,,,,0,0,0,0,0,60,60,60,,,,,,,,,,,,,,,,,,,,,,,,,,,541.259770100005,541.4607949000056,541.4440484000079,541.7447877000086,541.7447877000086,None,542.244193400009,None,j,1,0.8518076000036672,542.244193400009,None,None,None,,,,,,,,,,,,,,,,,,,,,,,11034,2,2,2024_Jun_22_2132,stroop_task_switching2_b,2021.2.3,59.726274487397426,
,,,黄,yellow,f,square,color_mix,单词,,compatible,2,block_switch1_b,instruction/ready_test.png,instruction/i11.png,,,,,,,,,,,,,,,,,0,0,0,0,0,61,61,61,,,,,,,,,,,,,,,,,,,,,,,,,,,543.1122968000127,543.3139707000082,543.296021800008,543.597230000014,543.597230000014,None,544.0985050000018,None,f,1,1.1732829999964451,544.0985050000018,None,None,None,,,,,,,,,,,,,,,,,,,,,,,11034,2,2,2024_Jun_22_2132,stroop_task_switching2_b,2021.2.3,59.726274487397426,
,,,绿,blue,d,square,color_mix,单词,,incompatible,1,block_switch1_b,instruction/ready_test.png,instruction/i11.png,,,,,,,,,,,,,,,,,0,0,0,0,0,62,62,62,,,,,,,,,,,,,,,,,,,,,,,,,,,545.2996430000057,545.4993125000037,545.4828161000041,545.7831146000099,545.7831146000099,None,546.2839554000093,None,j,0,1.059576499988907,546.2839554000093,None,None,None,,,,,,,,,,,,,,,,,,,,,,,11034,2,2,2024_Jun_22_2132,stroop_task_switching2_b,2021.2.3,59.726274487397426,
,,,蓝,yellow,j,square,color_mix,单词,,incompatible,1,block_switch1_b,instruction/ready_test.png,instruction/i11.png,,,,,,,,,,,,,,,,,0,0,0,0,0,63,63,63,,,,,,,,,,,,,,,,,,,,,,,,,,,547.3689537000027,547.5714084000065,547.5525856000022,547.8536475000001,547.8536475000001,None,548.3536508000107,None,f,0,0.6941789999982575,548.3536508000107,None,None,None,,,,,,,,,,,,,,,,,,,,,,,11034,2,2,2024_Jun_22_2132,stroop_task_switching2_b,2021.2.3,59.726274487397426,
,,,黄,yellow,f,diamond,color_mix,颜色,,compatible,2,block_switch1_b,instruction/ready_test.png,instruction/i11.png,,,,,,,,,,,,,,,,,0,0,0,0,0,64,64,64,,,,,,,,,,,,,,,,,,,,,,,,,,,549.0714192000014,549.2717140000022,549.2561161000049,549.5555393000104,549.5555393000104,None,550.0570642000093,None,j,0,0.7905967999977292,550.0570642000093,None,None,None,,,,,,,,,,,,,,,,,,,,,,,11034,2,2,2024_Jun_22_2132,stroop_task_switching2_b,2021.2.3,59.726274487397426,
,,,蓝,green,d,diamond,color_mix,颜色,,incompatible,1,block_switch1_b,instruction/ready_test.png,instruction/i11.png,,,,,,,,,,,,,,,,,0,0,0,0,0,65,65,65,,,,,,,,,,,,,,,,,,,,,,,,,,,550.8741434000112,551.0743722000043,551.0575703000068,551.3596404000127,551.3596404000127,None,551.8591129000124,554.8635397000035,None,0,,551.8591129000124,554.8635397000035,554.8476955000078,None,,,,,,,,,,,,,,,,,,,,,,,11034,2,2,2024_Jun_22_2132,stroop_task_switching2_b,2021.2.3,59.726274487397426,
,,,红,red,k,diamond,color_mix,颜色,,compatible,1,block_switch1_b,instruction/ready_test.png,instruction/i11.png,,,,,,,,,,,,,,,,,0,0,0,0,0,66,66,66,,,,,,,,,,,,,,,,,,,,,,,,,,,555.4319938000117,555.6320533000107,555.6154348000127,555.9151867000037,555.9151867000037,None,556.4156312000123,None,k,1,0.5122722999949474,556.4156312000123,None,None,None,,,,,,,,,,,,,,,,,,,,,,,11034,2,2,2024_Jun_22_2132,stroop_task_switching2_b,2021.2.3,59.726274487397426,
,,,蓝,yellow,j,square,color_mix,单词,,incompatible,2,block_switch1_b,instruction/ready_test.png,instruction/i11.png,,,,,,,,,,,,,,,,,0,0,0,0,0,67,67,67,,,,,,,,,,,,,,,,,,,,,,,,,,,556.9498323000007,557.1504037000122,557.1345063000044,557.4360946000088,557.4360946000088,None,557.9349932000041,None,j,1,0.8172183999995468,557.9349932000041,None,None,None,,,,,,,,,,,,,,,,,,,,,,,11034,2,2,2024_Jun_22_2132,stroop_task_switching2_b,2021.2.3,59.726274487397426,
,,,红,yellow,k,square,color_mix,单词,,incompatible,1,block_switch1_b,instruction/ready_test.png,instruction/i11.png,,,,,,,,,,,,,,,,,0,0,0,0,0,68,68,68,,,,,,,,,,,,,,,,,,,,,,,,,,,558.7692420000094,558.9708621000027,558.9529114000034,559.2534028000082,559.2534028000082,None,559.754082600004,None,k,1,1.758539500006009,559.754082600004,None,None,None,,,,,,,,,,,,,,,,,,,,,,,11034,2,2,2024_Jun_22_2132,stroop_task_switching2_b,2021.2.3,59.726274487397426,
,,,红,yellow,f,diamond,color_mix,颜色,,incompatible,2,block_switch1_b,instruction/ready_test.png,instruction/i11.png,,,,,,,,,,,,,,,,,0,0,0,0,0,69,69,69,,,,,,,,,,,,,,,,,,,,,,,,,,,561.540210200008,561.7423551000102,561.7237120000063,562.0265422000084,562.0265422000084,None,562.5249236000091,None,j,0,0.6752094999974361,562.5249236000091,None,None,None,,,,,,,,,,,,,,,,,,,,,,,11034,2,2,2024_Jun_22_2132,stroop_task_switching2_b,2021.2.3,59.726274487397426,
,,,蓝,green,j,square,color_mix,单词,,incompatible,2,block_switch1_b,instruction/ready_test.png,instruction/i11.png,,,,,,,,,,,,,,,,,0,0,0,0,0,70,70,70,,,,,,,,,,,,,,,,,,,,,,,,,,,563.2260851000028,563.4281575000059,563.4095426000131,563.7110328000126,563.7110328000126,None,564.2109060000075,None,d,0,1.4930807999917306,564.2109060000075,None,None,None,,,,,,,,,,,,,,,,,,,,,,,11034,2,2,2024_Jun_22_2132,stroop_task_switching2_b,2021.2.3,59.726274487397426,
,,,绿,yellow,d,square,color_mix,单词,,incompatible,1,block_switch1_b,instruction/ready_test.png,instruction/i11.png,,,,,,,,,,,,,,,,,0,0,0,0,0,71,71,71,,,,,,,,,,,,,,,,,,,,,,,,,,,565.7300198000012,565.9316913000075,565.9135503000143,566.2140779000038,566.2140779000038,None,566.7147765000118,None,d,1,1.349729399997159,566.7147765000118,None,None,None,,,,,,,,,,,,,,,,,,,,,,,11034,2,2,2024_Jun_22_2132,stroop_task_switching2_b,2021.2.3,59.726274487397426,
,,,蓝,yellow,f,diamond,color_mix,颜色,,incompatible,2,block_switch1_b,instruction/ready_test.png,instruction/i11.png,,,,,,,,,,,,,,,,,0,0,0,0,0,72,72,72,,,,,,,,,,,,,,,,,,,,,,,,,,,568.0834674000071,568.2853837000002,568.2670533000055,568.5685644000041,568.5685644000041,None,569.0691165000026,None,f,1,0.8751679000124568,569.0691165000026,None,None,None,,,,,,,,,,,,,,,,,,,,,,,11034,2,2,2024_Jun_22_2132,stroop_task_switching2_b,2021.2.3,59.726274487397426,
,,,红,green,k,square,color_mix,单词,,incompatible,2,block_switch1_b,instruction/ready_test.png,instruction/i11.png,,,,,,,,,,,,,,,,,0,0,0,0,0,73,73,73,,,,,,,,,,,,,,,,,,,,,,,,,,,569.9695261000015,570.171262200005,570.1531245000078,570.4547361000004,570.4547361000004,None,570.9553734000074,None,d,0,1.1091031000105431,570.9553734000074,None,None,None,,,,,,,,,,,,,,,,,,,,,,,11034,2,2,2024_Jun_22_2132,stroop_task_switching2_b,2021.2.3,59.726274487397426,
,,,绿,blue,j,diamond,color_mix,颜色,,incompatible,2,block_switch1_b,instruction/ready_test.png,instruction/i11.png,,,,,,,,,,,,,,,,,0,0,0,0,0,74,74,74,,,,,,,,,,,,,,,,,,,,,,,,,,,572.0894171000109,572.2907033000083,572.2732471000054,572.5745497000025,572.5745497000025,None,573.075634400011,None,j,1,1.8928311999916332,573.075634400011,None,None,None,,,,,,,,,,,,,,,,,,,,,,,11034,2,2,2024_Jun_22_2132,stroop_task_switching2_b,2021.2.3,59.726274487397426,
,,,红,red,k,square,color_mix,单词,,compatible,2,block_switch1_b,instruction/ready_test.png,instruction/i11.png,,,,,,,,,,,,,,,,,0,0,0,0,0,75,75,75,,,,,,,,,,,,,,,,,,,,,,,,,,,574.9938485000021,575.1946702000132,575.1781966000126,575.4787905000121,575.4787905000121,None,575.9794756000047,None,k,1,0.9893845999904443,575.9794756000047,None,None,None,,,,,,,,,,,,,,,,,,,,,,,11034,2,2,2024_Jun_22_2132,stroop_task_switching2_b,2021.2.3,59.726274487397426,
,,,绿,green,d,diamond,color_mix,颜色,,compatible,2,block_switch1_b,instruction/ready_test.png,instruction/i11.png,,,,,,,,,,,,,,,,,0,0,0,0,0,76,76,76,,,,,,,,,,,,,,,,,,,,,,,,,,,576.9967625000136,577.1971843000065,577.1818360000034,577.481402800011,577.481402800011,None,577.9824596000108,None,d,1,0.5379459000105271,577.9824596000108,None,None,None,,,,,,,,,,,,,,,,,,,,,,,11034,2,2,2024_Jun_22_2132,stroop_task_switching2_b,2021.2.3,59.726274487397426,
,,,黄,red,f,square,color_mix,单词,,incompatible,2,block_switch1_b,instruction/ready_test.png,instruction/i11.png,,,,,,,,,,,,,,,,,0,0,0,0,0,77,77,77,,,,,,,,,,,,,,,,,,,,,,,,,,,578.5491562000097,578.7518972000107,578.7330426000117,579.0340242000093,579.0340242000093,None,579.534501400005,None,k,0,2.018494899995858,579.534501400005,None,None,None,,,,,,,,,,,,,,,,,,,,,,,11034,2,2,2024_Jun_22_2132,stroop_task_switching2_b,2021.2.3,59.726274487397426,
,,,红,red,k,square,color_mix,单词,,compatible,1,block_switch1_b,instruction/ready_test.png,instruction/i11.png,,,,,,,,,,,,,,,,,0,0,0,0,0,78,78,78,,,,,,,,,,,,,,,,,,,,,,,,,,,581.5711437000136,581.7710809000127,581.7541428000113,582.0558127000113,582.0558127000113,None,582.5553032000025,None,k,1,1.213379900000291,582.5553032000025,None,None,None,,,,,,,,,,,,,,,,,,,,,,,11034,2,2,2024_Jun_22_2132,stroop_task_switching2_b,2021.2.3,59.726274487397426,
,,,黄,yellow,f,square,color_mix,单词,,compatible,1,block_switch1_b,instruction/ready_test.png,instruction/i11.png,,,,,,,,,,,,,,,,,0,0,0,0,0,79,79,79,,,,,,,,,,,,,,,,,,,,,,,,,,,583.7906420000072,583.990847500012,583.9759297000128,584.2744821000088,584.2744821000088,None,584.7759841000079,None,f,1,1.7448599000053946,584.7759841000079,None,None,None,,,,,,,,,,,,,,,,,,,,,,,11034,2,2,2024_Jun_22_2132,stroop_task_switching2_b,2021.2.3,59.726274487397426,
,,,红,red,k,diamond,color_mix,颜色,,compatible,2,block_switch1_b,instruction/ready_test.png,instruction/i11.png,,,,,,,,,,,,,,,,,0,0,0,0,0,80,80,80,,,,,,,,,,,,,,,,,,,,,,,,,,,586.5445797000139,586.746853900011,586.7282322000101,587.0300529000087,587.0300529000087,None,587.5296523000143,None,k,1,0.9519956000003731,587.5296523000143,None,None,None,,,,,,,,,,,,,,,,,,,,,,,11034,2,2,2024_Jun_22_2132,stroop_task_switching2_b,2021.2.3,59.726274487397426,
,,,红,red,k,square,color_mix,单词,,compatible,2,block_switch1_b,instruction/ready_test.png,instruction/i11.png,,,,,,,,,,,,,,,,,0,0,0,0,0,81,81,81,,,,,,,,,,,,,,,,,,,,,,,,,,,588.4976050000114,588.6979209000128,588.6821204000007,588.9824779000046,588.9824779000046,None,589.4833414000022,None,k,1,0.9026337999966927,589.4833414000022,None,None,None,,,,,,,,,,,,,,,,,,,,,,,11034,2,2,2024_Jun_22_2132,stroop_task_switching2_b,2021.2.3,59.726274487397426,
,,,黄,blue,j,diamond,color_mix,颜色,,incompatible,2,block_switch1_b,instruction/ready_test.png,instruction/i11.png,,,,,,,,,,,,,,,,,0,0,0,0,0,82,82,82,,,,,,,,,,,,,,,,,,,,,,,,,,,590.4002670000045,590.6008487000072,590.584895100008,590.8866284000105,590.8866284000105,None,591.4022270000132,None,j,1,0.7987027000053786,591.4022270000132,None,None,None,,,,,,,,,,,,,,,,,,,,,,,11034,2,2,2024_Jun_22_2132,stroop_task_switching2_b,2021.2.3,59.726274487397426,
,,,红,yellow,f,diamond,color_mix,颜色,,incompatible,1,block_switch1_b,instruction/ready_test.png,instruction/i11.png,,,,,,,,,,,,,,,,,0,0,0,0,0,83,83,83,,,,,,,,,,,,,,,,,,,,,,,,,,,592.2198985000141,592.4202839000063,592.4054462000058,592.7064495000086,592.7064495000086,None,593.2056299000105,None,f,1,0.907482099995832,593.2056299000105,None,None,None,,,,,,,,,,,,,,,,,,,,,,,11034,2,2,2024_Jun_22_2132,stroop_task_switching2_b,2021.2.3,59.726274487397426,
,,,黄,red,k,diamond,color_mix,颜色,,incompatible,1,block_switch1_b,instruction/ready_test.png,instruction/i11.png,,,,,,,,,,,,,,,,,0,0,0,0,0,84,84,84,,,,,,,,,,,,,,,,,,,,,,,,,,,594.1396474000067,594.3404299000103,594.324163000012,594.6245821000048,594.6245821000048,None,595.1244287000009,None,k,1,1.5644490999984555,595.1244287000009,None,None,None,,,,,,,,,,,,,,,,,,,,,,,11034,2,2,2024_Jun_22_2132,stroop_task_switching2_b,2021.2.3,59.726274487397426,
,,,蓝,blue,j,square,color_mix,单词,,compatible,2,block_switch1_b,instruction/ready_test.png,instruction/i11.png,,,,,,,,,,,,,,,,,0,0,0,0,0,85,85,85,,,,,,,,,,,,,,,,,,,,,,,,,,,596.7100165000011,596.9110595000093,596.8943517000007,597.194012100008,597.194012100008,None,597.6949500000046,None,j,1,2.0823921999981394,597.6949500000046,None,None,None,,,,,,,,,,,,,,,,,,,,,,,11034,2,2,2024_Jun_22_2132,stroop_task_switching2_b,2021.2.3,59.726274487397426,
,,,绿,green,d,square,color_mix,单词,,compatible,1,block_switch1_b,instruction/ready_test.png,instruction/i11.png,,,,,,,,,,,,,,,,,0,0,0,0,0,86,86,86,,,,,,,,,,,,,,,,,,,,,,,,,,,599.7981565000082,599.9983946000139,599.9820889000111,600.2834020000009,600.2834020000009,None,600.7828949000104,None,d,1,1.2027738000033423,600.7828949000104,None,None,None,,,,,,,,,,,,,,,,,,,,,,,11034,2,2,2024_Jun_22_2132,stroop_task_switching2_b,2021.2.3,59.726274487397426,
,,,红,red,k,square,color_mix,单词,,compatible,1,block_switch1_b,instruction/ready_test.png,instruction/i11.png,,,,,,,,,,,,,,,,,0,0,0,0,0,87,87,87,,,,,,,,,,,,,,,,,,,,,,,,,,,602.0012903000024,602.2019920000021,602.1857722000132,602.4869472000137,602.4869472000137,None,602.9873173000087,None,k,1,0.8059961999970255,602.9873173000087,None,None,None,,,,,,,,,,,,,,,,,,,,,,,11034,2,2,2024_Jun_22_2132,stroop_task_switching2_b,2021.2.3,59.726274487397426,
,,,黄,green,d,diamond,color_mix,颜色,,incompatible,2,block_switch1_b,instruction/ready_test.png,instruction/i11.png,,,,,,,,,,,,,,,,,0,0,0,0,0,88,88,88,,,,,,,,,,,,,,,,,,,,,,,,,,,603.8208528000105,604.0210318000027,604.0046368000039,604.306458600011,604.306458600011,None,604.806158700012,None,d,1,0.8115676999877905,604.806158700012,None,None,None,,,,,,,,,,,,,,,,,,,,,,,11034,2,2,2024_Jun_22_2132,stroop_task_switching2_b,2021.2.3,59.726274487397426,
,,,绿,red,d,square,color_mix,单词,,incompatible,2,block_switch1_b,instruction/ready_test.png,instruction/i11.png,,,,,,,,,,,,,,,,,0,0,0,0,0,89,89,89,,,,,,,,,,,,,,,,,,,,,,,,,,,605.6401068000123,605.8412430000026,605.8250960000005,606.1243280000053,606.1243280000053,None,606.624967900003,None,d,1,0.7686105999891879,606.624967900003,None,None,None,,,,,,,,,,,,,,,,,,,,,,,11034,2,2,2024_Jun_22_2132,stroop_task_switching2_b,2021.2.3,59.726274487397426,
,,,黄,green,f,square,color_mix,单词,,incompatible,1,block_switch1_b,instruction/ready_test.png,instruction/i11.png,,,,,,,,,,,,,,,,,0,0,0,0,0,90,90,90,,,,,,,,,,,,,,,,,,,,,,,,,,,607.4095252000116,607.609729600008,607.5932987000124,607.8936947000038,607.8936947000038,None,608.3943654000032,None,d,0,1.5994429999991553,608.3943654000032,None,None,None,,,,,,,,,,,,,,,,,,,,,,,11034,2,2,2024_Jun_22_2132,stroop_task_switching2_b,2021.2.3,59.726274487397426,
,,,蓝,blue,j,square,color_mix,单词,,compatible,1,block_switch1_b,instruction/ready_test.png,instruction/i11.png,,,,,,,,,,,,,,,,,0,0,0,0,0,91,91,91,,,,,,,,,,,,,,,,,,,,,,,,,,,610.013511600002,610.2151802000008,610.1971592000045,610.497554600006,610.497554600006,None,610.9994211000012,None,j,1,0.650626500006183,610.9994211000012,None,None,None,,,,,,,,,,,,,,,,,,,,,,,11034,2,2,2024_Jun_22_2132,stroop_task_switching2_b,2021.2.3,59.726274487397426,
,,,蓝,red,j,square,color_mix,单词,,incompatible,1,block_switch1_b,instruction/ready_test.png,instruction/i11.png,,,,,,,,,,,,,,,,,0,0,0,0,0,92,92,92,,,,,,,,,,,,,,,,,,,,,,,,,,,611.6658688000025,611.8669963000139,611.8503000000055,612.1501573000132,612.1501573000132,None,612.6507696000044,None,j,1,1.4631926999863936,612.6507696000044,None,None,None,,,,,,,,,,,,,,,,,,,,,,,11034,2,2,2024_Jun_22_2132,stroop_task_switching2_b,2021.2.3,59.726274487397426,
,,,黄,blue,f,square,color_mix,单词,,incompatible,1,block_switch1_b,instruction/ready_test.png,instruction/i11.png,,,,,,,,,,,,,,,,,0,0,0,0,0,93,93,93,,,,,,,,,,,,,,,,,,,,,,,,,,,614.1363889000058,614.3387777000025,614.3199903000059,614.6205546000128,614.6205546000128,None,615.1210610000126,None,f,1,1.152718500001356,615.1210610000126,None,None,None,,,,,,,,,,,,,,,,,,,,,,,11034,2,2,2024_Jun_22_2132,stroop_task_switching2_b,2021.2.3,59.726274487397426,
,,,绿,red,k,diamond,color_mix,颜色,,incompatible,2,block_switch1_b,instruction/ready_test.png,instruction/i11.png,,,,,,,,,,,,,,,,,0,0,0,0,0,94,94,94,,,,,,,,,,,,,,,,,,,,,,,,,,,616.28951100001,616.4898697000026,616.473756700012,616.7757833000069,616.7757833000069,None,617.2909619000129,None,k,1,1.5108412999979919,617.2909619000129,None,None,None,,,,,,,,,,,,,,,,,,,,,,,11034,2,2,2024_Jun_22_2132,stroop_task_switching2_b,2021.2.3,59.726274487397426,
,,,蓝,blue,j,diamond,color_mix,颜色,,compatible,1,block_switch1_b,instruction/ready_test.png,instruction/i11.png,,,,,,,,,,,,,,,,,0,0,0,0,0,95,95,95,,,,,,,,,,,,,,,,,,,,,,,,,,,618.8266635000036,619.0280443000083,619.0118507000007,619.3119468000077,619.3119468000077,None,619.8122572000138,None,j,1,0.9416412999999011,619.8122572000138,None,None,None,,,,,,,,,,,,,,,,,,,,,,,11034,2,2,2024_Jun_22_2132,stroop_task_switching2_b,2021.2.3,59.726274487397426,
,,,绿,green,d,square,color_mix,单词,,compatible,2,block_switch1_b,instruction/ready_test.png,instruction/i11.png,,,,,,,,,,,,,,,,,0,0,0,0,0,96,96,96,,,,,,,,,,,,,,,,,,,,,,,,,,,620.779537600014,620.9822485000041,620.9632529000082,621.2647524000058,621.2647524000058,None,621.7644733000052,None,d,1,2.405376399998204,621.7644733000052,None,None,None,,,,,,,,,,,,,,,,,,,,,,,11034,2,2,2024_Jun_22_2132,stroop_task_switching2_b,2021.2.3,59.726274487397426,
,,,,,,,,,,,,block_switch1_b,instruction/ready_test.png,instruction/i11.png,,,,,,,,,,,,,,,,,0,0,0,0,,,,,,,,,,,,,,,,,,,,,,,,,,,,,,,,,,,,,,,,,,,,,,,,,,,,,,,,,,,,624.2019900000014,None,space,25.057146200007992,624.2019900000014,None,,,11034,2,2,2024_Jun_22_2132,stroop_task_switching2_b,2021.2.3,59.726274487397426,
,,,蓝,blue,j,square,color_mix,单词,,compatible,0,block_switch2_b,instruction/ready_2.png,instruction/i12.png,,,,,,,,,,,,,,,,,0,1,1,1,0,0,0,0,,,,,,,,,,,,,,,,,,,652.5289434000006,653.5309620000044,653.5309620000044,654.5323646000033,654.5323646000033,None,651.5429652000021,652.5446322000062,655.5487123000057,655.7511484000133,655.7330411000003,656.0357302000048,656.050530700013,None,656.5505227000103,None,j,1,0.6362899000087054,656.5505227000103,None,None,None,,,,,,,,,649.3238869000052,None,space,2.190737699987949,649.3238869000052,None,,,,,,,,,11034,2,2,2024_Jun_22_2132,stroop_task_switching2_b,2021.2.3,59.726274487397426,
,,,黄,red,k,diamond,color_mix,颜色,,incompatible,2,block_switch2_b,instruction/ready_2.png,instruction/i12.png,,,,,,,,,,,,,,,,,0,1,1,1,0,1,1,1,,,,,,,,,,,,,,,,,,,,,,,,,,,657.2515848000039,657.4526052000001,657.4357170000003,657.7357732000091,657.7357732000091,None,658.2365221000073,None,k,1,0.60675849999825,658.2365221000073,None,None,None,,,,,,,,,,,,,,,,,,,,,,,11034,2,2,2024_Jun_22_2132,stroop_task_switching2_b,2021.2.3,59.726274487397426,
,,,蓝,green,d,diamond,color_mix,颜色,,incompatible,1,block_switch2_b,instruction/ready_2.png,instruction/i12.png,,,,,,,,,,,,,,,,,0,1,1,1,0,2,2,2,,,,,,,,,,,,,,,,,,,,,,,,,,,658.8706642000034,659.0724087000126,659.0553988000029,659.356651500013,659.356651500013,None,659.8568132000073,None,d,1,0.49031920000561513,659.8568132000073,None,None,None,,,,,,,,,,,,,,,,,,,,,,,11034,2,2,2024_Jun_22_2132,stroop_task_switching2_b,2021.2.3,59.726274487397426,
,,,红,yellow,f,diamond,color_mix,颜色,,incompatible,1,block_switch2_b,instruction/ready_2.png,instruction/i12.png,,,,,,,,,,,,,,,,,0,1,1,1,0,3,3,3,,,,,,,,,,,,,,,,,,,,,,,,,,,660.3729029000096,660.5731888000009,660.5575032000052,660.8577189000061,660.8577189000061,None,661.3576067000104,None,f,1,0.6298635999992257,661.3576067000104,None,None,None,,,,,,,,,,,,,,,,,,,,,,,11034,2,2,2024_Jun_22_2132,stroop_task_switching2_b,2021.2.3,59.726274487397426,
,,,红,red,k,diamond,color_mix,颜色,,compatible,1,block_switch2_b,instruction/ready_2.png,instruction/i12.png,,,,,,,,,,,,,,,,,0,1,1,1,0,4,4,4,,,,,,,,,,,,,,,,,,,,,,,,,,,662.0088037000096,662.2090135000035,662.1924894000113,662.4946343000047,662.4946343000047,None,662.9933361000003,None,k,1,0.5385506000020541,662.9933361000003,None,None,None,,,,,,,,,,,,,,,,,,,,,,,11034,2,2,2024_Jun_22_2132,stroop_task_switching2_b,2021.2.3,59.726274487397426,
,,,绿,green,d,square,color_mix,单词,,compatible,2,block_switch2_b,instruction/ready_2.png,instruction/i12.png,,,,,,,,,,,,,,,,,0,1,1,1,0,5,5,5,,,,,,,,,,,,,,,,,,,,,,,,,,,663.578405200009,663.7780897000048,663.7446969000011,664.046047300013,664.046047300013,None,664.5458366000094,None,d,1,0.6572931999980938,664.5458366000094,None,None,None,,,,,,,,,,,,,,,,,,,,,,,11034,2,2,2024_Jun_22_2132,stroop_task_switching2_b,2021.2.3,59.726274487397426,
,,,黄,blue,j,diamond,color_mix,颜色,,incompatible,2,block_switch2_b,instruction/ready_2.png,instruction/i12.png,,,,,,,,,,,,,,,,,0,1,1,1,0,6,6,6,,,,,,,,,,,,,,,,,,,,,,,,,,,665.2303731000138,665.4325576000119,665.4139301000105,665.7162375000044,665.7162375000044,None,666.2152471000009,None,j,1,0.6359597999980906,666.2152471000009,None,None,None,,,,,,,,,,,,,,,,,,,,,,,11034,2,2,2024_Jun_22_2132,stroop_task_switching2_b,2021.2.3,59.726274487397426,
