b_pra,ins_blocks,ins_blocks2,stim_word,stim_color,corrAns,cue_type,trial_type,task_type,rand,compatibility,switch,b_test,w_pic,w_pic2,trials_instr.thisRepN,trials_instr.thisTrialN,trials_instr.thisN,trials_instr.thisIndex,block_pra.thisRepN,block_pra.thisTrialN,block_pra.thisN,block_pra.thisIndex,trials_rep.thisRepN,trials_rep.thisTrialN,trials_rep.thisN,trials_rep.thisIndex,trials_pra.thisRepN,trials_pra.thisTrialN,trials_pra.thisN,trials_pra.thisIndex,trials_3.thisRepN,trials_3.thisTrialN,trials_3.thisN,trials_3.thisIndex,trials_2.thisRepN,trials_2.thisTrialN,trials_2.thisN,trials_2.thisIndex,instr_image.started,instr_image.stopped,instr_key_resp.keys,instr_key_resp.rt,instr_key_resp.started,instr_key_resp.stopped,instr_pra_image.started,instr_pra_image.stopped,ip_key_resp.keys,ip_key_resp.rt,ip_key_resp.started,ip_key_resp.stopped,block_image.started,block_image.stopped,ib_key_resp.keys,ib_key_resp.rt,ib_key_resp.started,ib_key_resp.stopped,cd3.started,cd3.stopped,cd2.started,cd2.stopped,cd1.started,cd1.stopped,cd_text.started,cd_text.stopped,text_fix.started,text_fix.stopped,text_2.started,text_2.stopped,text_4.started,text_4.stopped,text_target.started,text_target.stopped,key_resp.keys,key_resp.corr,key_resp.rt,key_resp.started,key_resp.stopped,sceen_black.started,sceen_black.stopped,text_fb.started,text_fb.stopped,text.started,text.stopped,key_bf.keys,key_bf.rt,key_bf.started,key_bf.stopped,instr_test_image.started,instr_test_image.stopped,instr_exp_key_resp.keys,instr_exp_key_resp.rt,instr_exp_key_resp.started,instr_exp_key_resp.stopped,text_rest.started,text_rest.stopped,key_resp_rest.keys,key_resp_rest.rt,key_resp_rest.started,key_resp_rest.stopped,text_3.started,text_3.stopped,participant,session,balance,date,expName,psychopyVersion,frameRate,
,,,,,,,,,,,,,,,0,0,0,0,,,,,,,,,,,,,,,,,,,,,9.937338600022485,None,right,1.4153422999952454,9.937338600022485,None,,,,,,,,,,,,,,,,,,,,,,,,,,,,,,,,,,,,,,,,,,,,,,,,,,,,,,,,,,11033,1,1,2024_May_31_1502,stroop_task_switching2,2021.2.3,59.69283262482226,
,,,,,,,,,,,,,,,1,0,1,0,,,,,,,,,,,,,,,,,,,,,11.388751300022705,None,right,14.212138600007165,11.388751300022705,None,,,,,,,,,,,,,,,,,,,,,,,,,,,,,,,,,,,,,,,,,,,,,,,,,,,,,,,,,,11033,1,1,2024_May_31_1502,stroop_task_switching2,2021.2.3,59.69283262482226,
,,,,,,,,,,,,,,,2,0,2,0,,,,,,,,,,,,,,,,,,,,,25.644337200006703,None,right,8.988775299978442,25.644337200006703,None,,,,,,,,,,,,,,,,,,,,,,,,,,,,,,,,,,,,,,,,,,,,,,,,,,,,,,,,,,11033,1,1,2024_May_31_1502,stroop_task_switching2,2021.2.3,59.69283262482226,
,,,,,,,,,,,,,,,3,0,3,0,,,,,,,,,,,,,,,,,,,,,34.67438830001629,None,right,10.311115000018617,34.67438830001629,None,,,,,,,,,,,,,,,,,,,,,,,,,,,,,,,,,,,,,,,,,,,,,,,,,,,,,,,,,,11033,1,1,2024_May_31_1502,stroop_task_switching2,2021.2.3,59.69283262482226,
,,,,,,,,,,,,,,,4,0,4,0,,,,,,,,,,,,,,,,,,,,,45.02326780001749,None,right,11.234909799997695,45.02326780001749,None,,,,,,,,,,,,,,,,,,,,,,,,,,,,,,,,,,,,,,,,,,,,,,,,,,,,,,,,,,11033,1,1,2024_May_31_1502,stroop_task_switching2,2021.2.3,59.69283262482226,
,,,,,,,,,,,,,,,5,0,5,0,,,,,,,,,,,,,,,,,,,,,56.29018390001147,None,right,0.9275226000172552,56.29018390001147,None,,,,,,,,,,,,,,,,,,,,,,,,,,,,,,,,,,,,,,,,,,,,,,,,,,,,,,,,,,11033,1,1,2024_May_31_1502,stroop_task_switching2,2021.2.3,59.69283262482226,
,,,,,,,,,,,,,,,,,,,,,,,,,,,,,,,,,,,,,,,,,,,,,57.259744400013005,None,space,12.158205099985935,57.259744400013005,None,,,,,,,,,,,,,,,,,,,,,,,,,,,,,,,,,,,,,,,,,,,,,,,,,,,,11033,1,1,2024_May_31_1502,stroop_task_switching2,2021.2.3,59.69283262482226,
condition/block_color,instruction/instr_color,instruction/i8,XX,red,d,diamond,color_single,颜色,,,,,,,,,,,0,0,0,0,0,0,0,0,0,0,0,0,,,,,,,,,,,,,,,,,,,,,69.4600541999971,None,space,3.1582687000045553,69.4600541999971,None,73.70080040002358,74.70184049999807,74.70184049999807,75.70483160001459,75.70483160001459,None,72.7157537000021,73.717258699995,76.67107929999474,76.87207800001488,76.85470580001129,77.15565590001643,77.15565590001643,None,77.65568900000653,None,d,1,0.6509933000197634,77.65568900000653,None,None,None,78.32347709999885,None,,,,,,,,,,,,,,,,,,,,,11033,1,1,2024_May_31_1502,stroop_task_switching2,2021.2.3,59.69283262482226,
condition/block_color,instruction/instr_color,instruction/i8,XX,green,k,diamond,color_single,颜色,,,,,,,,,,,0,0,0,0,0,0,0,0,0,1,1,1,,,,,,,,,,,,,,,,,,,,,,,,,,,,,,,,,,,79.32580650001182,79.52538320000167,79.50930230002268,79.81014620000497,79.81014620000497,None,80.30982740002219,None,k,1,0.9886645999795292,80.30982740002219,None,None,None,81.32779090001713,None,,,,,,,,,,,,,,,,,,,,,11033,1,1,2024_May_31_1502,stroop_task_switching2,2021.2.3,59.69283262482226,
condition/block_color,instruction/instr_color,instruction/i8,XX,yellow,j,diamond,color_single,颜色,,,,,,,,,,,0,0,0,0,0,0,0,0,0,2,2,2,,,,,,,,,,,,,,,,,,,,,,,,,,,,,,,,,,,82.33026230000542,82.52981430001091,82.51376800000435,82.81439670000691,82.81439670000691,None,83.31454510000185,None,j,1,0.7281600999995135,83.31454510000185,None,None,None,84.06584570000996,None,,,,,,,,,,,,,,,,,,,,,11033,1,1,2024_May_31_1502,stroop_task_switching2,2021.2.3,59.69283262482226,
condition/block_color,instruction/instr_color,instruction/i8,XX,blue,f,diamond,color_single,颜色,,,,,,,,,,,0,0,0,0,0,0,0,0,0,3,3,3,,,,,,,,,,,,,,,,,,,,,,,,,,,,,,,,,,,85.06699750002008,85.26961720001418,85.25068470000406,85.55202590001863,85.55202590001863,None,86.0523291999998,None,f,1,0.8226284999982454,86.0523291999998,None,None,None,86.90292910000426,None,,,,,,,,,,,,,,,,,,,,,11033,1,1,2024_May_31_1502,stroop_task_switching2,2021.2.3,59.69283262482226,
condition/block_color,instruction/instr_color,instruction/i8,XX,green,k,diamond,color_single,颜色,,,,,,,,,,,0,0,0,0,0,0,0,0,0,4,4,4,,,,,,,,,,,,,,,,,,,,,,,,,,,,,,,,,,,87.90541940002004,88.10516900001676,88.08832100001746,88.38979300000938,88.38979300000938,None,88.88959880001494,None,k,1,0.6815385000081733,88.88959880001494,None,None,None,89.59040750001441,None,,,,,,,,,,,,,,,,,,,,,11033,1,1,2024_May_31_1502,stroop_task_switching2,2021.2.3,59.69283262482226,
condition/block_color,instruction/instr_color,instruction/i8,XX,yellow,j,diamond,color_single,颜色,,,,,,,,,,,0,0,0,0,0,0,0,0,0,5,5,5,,,,,,,,,,,,,,,,,,,,,,,,,,,,,,,,,,,90.59208030000445,90.7938095999998,90.77546450000955,91.07783449999988,91.07783449999988,None,91.57697660001577,None,j,1,0.6982297000067774,91.57697660001577,None,None,None,92.29448710000725,None,,,,,,,,,,,,,,,,,,,,,11033,1,1,2024_May_31_1502,stroop_task_switching2,2021.2.3,59.69283262482226,
condition/block_color,instruction/instr_color,instruction/i8,XX,blue,f,diamond,color_single,颜色,,,,,,,,,,,0,0,0,0,0,0,0,0,0,6,6,6,,,,,,,,,,,,,,,,,,,,,,,,,,,,,,,,,,,93.29700069999672,93.49656630001846,93.4796411000134,93.78018860000884,93.78018860000884,None,94.28088980002212,None,f,1,0.8256355999910738,94.28088980002212,None,None,None,95.13213890002226,None,,,,,,,,,,,,,,,,,,,,,11033,1,1,2024_May_31_1502,stroop_task_switching2,2021.2.3,59.69283262482226,
condition/block_color,instruction/instr_color,instruction/i8,XX,red,d,diamond,color_single,颜色,,,,,,,,,,,0,0,0,0,0,0,0,0,0,7,7,7,,,,,,,,,,,,,,,,,,,,,,,,,,,,,,,,,,,96.13370110001415,96.33398399999714,96.31907339999452,96.61791140001151,96.61791140001151,None,97.11832979999599,None,d,1,0.7566745999793056,97.11832979999599,None,None,None,97.90298070001882,None,,,,,,,,,,,,,,,,,,,,,11033,1,1,2024_May_31_1502,stroop_task_switching2,2021.2.3,59.69283262482226,
condition/block_color,instruction/instr_color,instruction/i8,XX,yellow,j,diamond,color_single,颜色,,,,,,,,,,,0,0,0,0,0,0,0,0,0,8,8,8,,,,,,,,,,,,,,,,,,,,,,,,,,,,,,,,,,,98.90534880000632,99.10599520002143,99.08902660000604,99.38910719999694,99.38910719999694,None,99.88934019999579,None,k,0,0.8416613999870606,99.88934019999579,None,None,None,100.75729579999461,None,,,,,,,,,,,,,,,,,,,,,11033,1,1,2024_May_31_1502,stroop_task_switching2,2021.2.3,59.69283262482226,
condition/block_color,instruction/instr_color,instruction/i8,XX,blue,f,diamond,color_single,颜色,,,,,,,,,,,0,0,0,0,0,0,0,0,0,9,9,9,,,,,,,,,,,,,,,,,,,,,,,,,,,,,,,,,,,101.75875520001864,101.95990450002137,101.94234160002088,102.24397599999793,102.24397599999793,None,102.74417459999677,None,f,1,0.8110679000092205,102.74417459999677,None,None,None,103.57830839999951,None,,,,,,,,,,,,,,,,,,,,,11033,1,1,2024_May_31_1502,stroop_task_switching2,2021.2.3,59.69283262482226,
condition/block_color,instruction/instr_color,instruction/i8,XX,red,d,diamond,color_single,颜色,,,,,,,,,,,0,0,0,0,0,0,0,0,0,10,10,10,,,,,,,,,,,,,,,,,,,,,,,,,,,,,,,,,,,104.5798313000123,104.78043980000075,104.76330660001258,105.06523970002308,105.06523970002308,None,105.56581390000065,None,f,0,0.8933374999905936,105.56581390000065,None,None,None,106.48261370000546,None,,,,,,,,,,,,,,,,,,,,,11033,1,1,2024_May_31_1502,stroop_task_switching2,2021.2.3,59.69283262482226,
condition/block_color,instruction/instr_color,instruction/i8,XX,green,k,diamond,color_single,颜色,,,,,,,,,,,0,0,0,0,0,0,0,0,0,11,11,11,,,,,,,,,,,,,,,,,,,,,,,,,,,,,,,,,,,107.48412130001816,107.68670230000862,107.66807519999566,107.96859639999457,107.96859639999457,None,108.46888620001846,None,k,1,0.7741531999781728,108.46888620001846,None,None,None,109.27007300002151,None,,,,,,,,,,,,,,,,,,,,,11033,1,1,2024_May_31_1502,stroop_task_switching2,2021.2.3,59.69283262482226,
condition/block_color,instruction/instr_color,instruction/i8,XX,blue,f,diamond,color_single,颜色,,,,,,,,,,,0,0,0,0,0,0,0,0,0,12,12,12,,,,,,,,,,,,,,,,,,,,,,,,,,,,,,,,,,,110.27265210001497,110.47306519999984,110.45529410001473,110.75580959999934,110.75580959999934,None,111.25651180002023,None,f,1,0.9546763999969698,111.25651180002023,None,None,None,112.241277299996,None,,,,,,,,,,,,,,,,,,,,,11033,1,1,2024_May_31_1502,stroop_task_switching2,2021.2.3,59.69283262482226,
condition/block_color,instruction/instr_color,instruction/i8,XX,red,d,diamond,color_single,颜色,,,,,,,,,,,0,0,0,0,0,0,0,0,0,13,13,13,,,,,,,,,,,,,,,,,,,,,,,,,,,,,,,,,,,113.24315140000544,113.44434750001528,113.42637460000697,113.7287767000089,113.7287767000089,None,114.22776730000624,None,d,1,0.5679954999941401,114.22776730000624,None,None,None,114.81179530001828,None,,,,,,,,,,,,,,,,,,,,,11033,1,1,2024_May_31_1502,stroop_task_switching2,2021.2.3,59.69283262482226,
condition/block_color,instruction/instr_color,instruction/i8,XX,green,k,diamond,color_single,颜色,,,,,,,,,,,0,0,0,0,0,0,0,0,0,14,14,14,,,,,,,,,,,,,,,,,,,,,,,,,,,,,,,,,,,115.81340800001635,116.01521420001518,115.99781450000592,116.2976944000111,116.2976944000111,None,116.79798270002357,None,k,1,1.1654337999934796,116.79798270002357,None,None,None,117.98330849999911,None,,,,,,,,,,,,,,,,,,,,,11033,1,1,2024_May_31_1502,stroop_task_switching2,2021.2.3,59.69283262482226,
condition/block_color,instruction/instr_color,instruction/i8,XX,yellow,j,diamond,color_single,颜色,,,,,,,,,,,0,0,0,0,0,0,0,0,0,15,15,15,,,,,,,,,,,,,,,,,,,,,,,,,,,,,,,,,,,118.98551500000758,119.18523160001496,119.16964070001268,119.46891340002185,119.46891340002185,None,119.9695875000034,None,j,1,1.1778896999894641,119.9695875000034,None,None,None,121.17164600000251,None,,,,,,,,,,,,,,,,,,,,,11033,1,1,2024_May_31_1502,stroop_task_switching2,2021.2.3,59.69283262482226,
condition/block_color,instruction/instr_color,instruction/i8,XX,red,d,diamond,color_single,颜色,,,,,,,,,,,0,0,0,0,0,0,0,0,0,16,16,16,,,,,,,,,,,,,,,,,,,,,,,,,,,,,,,,,,,122.17305870002019,122.37444620000315,122.3566452000232,122.65778420001152,122.65778420001152,None,123.1579951000167,None,d,1,0.43823949998477474,123.1579951000167,None,None,None,123.62518309999723,None,,,,,,,,,,,,,,,,,,,,,11033,1,1,2024_May_31_1502,stroop_task_switching2,2021.2.3,59.69283262482226,
condition/block_color,instruction/instr_color,instruction/i8,XX,green,k,diamond,color_single,颜色,,,,,,,,,,,0,0,0,0,0,0,0,0,0,17,17,17,,,,,,,,,,,,,,,,,,,,,,,,,,,,,,,,,,,124.62653170002159,124.82802879999508,124.81016380002256,125.11145920000854,125.11145920000854,None,125.61148849999881,None,k,1,0.9447485999844503,125.61148849999881,None,None,None,126.57960070000263,None,,,,,,,,,,,,,,,,,,,,,11033,1,1,2024_May_31_1502,stroop_task_switching2,2021.2.3,59.69283262482226,
condition/block_color,instruction/instr_color,instruction/i8,XX,yellow,j,diamond,color_single,颜色,,,,,,,,,,,0,0,0,0,0,0,0,0,0,18,18,18,,,,,,,,,,,,,,,,,,,,,,,,,,,,,,,,,,,127.58113550001872,127.78137880002032,127.76607410001452,128.06627420001314,128.06627420001314,None,128.56580850001774,None,j,1,0.6856305999972392,128.56580850001774,None,None,None,129.28359310000087,None,,,,,,,,,,,,,,,,,,,,,11033,1,1,2024_May_31_1502,stroop_task_switching2,2021.2.3,59.69283262482226,
condition/block_color,instruction/instr_color,instruction/i8,XX,blue,f,diamond,color_single,颜色,,,,,,,,,,,0,0,0,0,0,0,0,0,0,19,19,19,,,,,,,,,,,,,,,,,,,,,,,,,,,,,,,,,,,130.286450900021,130.48629770000116,130.46890880001592,130.76924190000864,130.76924190000864,None,131.26993350000703,None,f,1,0.4857330000086222,131.26993350000703,None,None,None,131.78729290000047,None,,,,,,,,,,,,,,,,,,,,,11033,1,1,2024_May_31_1502,stroop_task_switching2,2021.2.3,59.69283262482226,
condition/block_color,instruction/instr_color,instruction/i8,XX,green,k,diamond,color_single,颜色,,,,,,,,,,,0,0,0,0,0,0,0,0,0,20,20,20,,,,,,,,,,,,,,,,,,,,,,,,,,,,,,,,,,,132.7891567000188,132.9895273000002,132.9727137000009,133.27312359999632,133.27312359999632,None,133.7747464000131,None,k,1,0.7818324000108987,133.7747464000131,None,None,None,134.57479450001847,None,,,,,,,,,,,,,,,,,,,,,11033,1,1,2024_May_31_1502,stroop_task_switching2,2021.2.3,59.69283262482226,
condition/block_color,instruction/instr_color,instruction/i8,XX,yellow,j,diamond,color_single,颜色,,,,,,,,,,,0,0,0,0,0,0,0,0,0,21,21,21,,,,,,,,,,,,,,,,,,,,,,,,,,,,,,,,,,,135.5773077000049,135.77779400002328,135.7600184000039,136.0617528000148,136.0617528000148,None,136.56119430001127,None,j,1,0.5545420999987982,136.56119430001127,None,None,None,137.14556160001666,None,,,,,,,,,,,,,,,,,,,,,11033,1,1,2024_May_31_1502,stroop_task_switching2,2021.2.3,59.69283262482226,
condition/block_color,instruction/instr_color,instruction/i8,XX,blue,f,diamond,color_single,颜色,,,,,,,,,,,0,0,0,0,0,0,0,0,0,22,22,22,,,,,,,,,,,,,,,,,,,,,,,,,,,,,,,,,,,138.14734530000715,138.34753729999647,138.33135640001274,138.6320490000071,138.6320490000071,None,139.1318384000042,None,f,1,0.8644122999976389,139.1318384000042,None,None,None,140.0163919000188,None,,,,,,,,,,,,,,,,,,,,,11033,1,1,2024_May_31_1502,stroop_task_switching2,2021.2.3,59.69283262482226,
condition/block_color,instruction/instr_color,instruction/i8,XX,red,d,diamond,color_single,颜色,,,,,,,,,,,0,0,0,0,0,0,0,0,0,23,23,23,,,,,,,,,,,,,,,,,,,,,,,,,,,,,,,,,,,141.01807819999522,141.21836280002026,141.20359620000818,141.51867190000485,141.50407680001808,None,142.01969640000607,None,d,1,0.4645033999986481,142.01969640000607,None,None,None,142.5036786000128,None,,,,,,,,,,,,,,,,,,,,,11033,1,1,2024_May_31_1502,stroop_task_switching2,2021.2.3,59.69283262482226,
condition/block_color,instruction/instr_color,instruction/i8,,,,,,,,,,,,,,,,,0,0,0,0,0,0,0,0,,,,,,,,,,,,,,,,,,,,,,,,,,,,,,,,,,,,,,,,,,,,,,,,,,,,,,,,143.52169890000368,None,space,7.138619299978018,143.52169890000368,None,,,,,,,,,,,,,,,11033,1,1,2024_May_31_1502,stroop_task_switching2,2021.2.3,59.69283262482226,
condition/block_color,instruction/instr_color,instruction/i8,,,,,,,,,,,,,,,,,0,0,0,0,,,,,,,,,,,,,,,,,,,,,,,,,,,,,,,,,,,,,,,,,,,,,,,,,,,,,,,,,,,,,,,,,,,,,,,,,,,,,,,,11033,1,1,2024_May_31_1502,stroop_task_switching2,2021.2.3,59.69283262482226,
condition/block_word,instruction/instr_word,instruction/i9,黄,white,j,square,word_single,单词,0.0032461461866890584,,,,,,,,,,0,1,1,1,0,0,0,0,0,0,0,0,,,,,,,,,,,,,,,,,,,,,150.69917700000224,None,space,2.5699529999983497,150.69917700000224,None,154.2881028999982,155.2904909000208,155.2904909000208,156.29292150001856,156.29292150001856,None,153.30380090000108,154.30476440000348,157.30919030000223,157.50955539999995,157.49503340001684,157.81128829999943,157.79330630000914,None,158.29412090001279,None,j,1,0.9423886000004131,158.29412090001279,None,None,None,159.26220900000772,None,,,,,,,,,,,,,,,,,,,,,11033,1,1,2024_May_31_1502,stroop_task_switching2,2021.2.3,59.69283262482226,
condition/block_word,instruction/instr_word,instruction/i9,蓝,white,f,square,word_single,单词,0.060540570646362424,,,,,,,,,,0,1,1,1,0,0,0,0,0,1,1,1,,,,,,,,,,,,,,,,,,,,,,,,,,,,,,,,,,,160.2636940999946,160.46513630001573,160.44751060000272,160.74908080001478,160.74908080001478,None,161.2484706999967,None,f,1,0.7241253000102006,161.2484706999967,None,None,None,161.99970310000936,None,,,,,,,,,,,,,,,,,,,,,11033,1,1,2024_May_31_1502,stroop_task_switching2,2021.2.3,59.69283262482226,
condition/block_word,instruction/instr_word,instruction/i9,黄,white,j,square,word_single,单词,0.06994067193778963,,,,,,,,,,0,1,1,1,0,0,0,0,0,2,2,2,,,,,,,,,,,,,,,,,,,,,,,,,,,,,,,,,,,163.00115019999794,163.20210240001325,163.18488129999605,163.4854187000019,163.4854187000019,None,163.986035000009,None,j,1,1.1788651999959257,163.986035000009,None,None,None,165.1878889000218,None,,,,,,,,,,,,,,,,,,,,,11033,1,1,2024_May_31_1502,stroop_task_switching2,2021.2.3,59.69283262482226,
condition/block_word,instruction/instr_word,instruction/i9,蓝,white,f,square,word_single,单词,0.08193765152950094,,,,,,,,,,0,1,1,1,0,0,0,0,0,3,3,3,,,,,,,,,,,,,,,,,,,,,,,,,,,,,,,,,,,166.18944929999998,166.391500800004,166.37338110001292,166.67439570001443,166.67439570001443,None,167.17414330001338,None,f,1,0.8546955000201706,167.17414330001338,None,None,None,168.05888570001116,None,,,,,,,,,,,,,,,,,,,,,11033,1,1,2024_May_31_1502,stroop_task_switching2,2021.2.3,59.69283262482226,
condition/block_word,instruction/instr_word,instruction/i9,红,white,d,square,word_single,单词,0.1279694370605574,,,,,,,,,,0,1,1,1,0,0,0,0,0,4,4,4,,,,,,,,,,,,,,,,,,,,,,,,,,,,,,,,,,,169.06031800000346,169.26058870000998,169.24504110001726,169.54449510000995,169.54449510000995,None,170.04515360001824,None,d,1,0.46384879999095574,170.04515360001824,None,None,None,170.5293653999979,None,,,,,,,,,,,,,,,,,,,,,11033,1,1,2024_May_31_1502,stroop_task_switching2,2021.2.3,59.69283262482226,
condition/block_word,instruction/instr_word,instruction/i9,红,white,d,square,word_single,单词,0.18345028784879092,,,,,,,,,,0,1,1,1,0,0,0,0,0,5,5,5,,,,,,,,,,,,,,,,,,,,,,,,,,,,,,,,,,,171.5308526000008,171.7318637999997,171.7146458000061,172.01579330000095,172.01579330000095,None,172.51554540000507,None,f,0,0.6494762999936938,172.51554540000507,None,None,None,173.18336290001753,None,,,,,,,,,,,,,,,,,,,,,11033,1,1,2024_May_31_1502,stroop_task_switching2,2021.2.3,59.69283262482226,
condition/block_word,instruction/instr_word,instruction/i9,蓝,white,f,square,word_single,单词,0.19920386223101294,,,,,,,,,,0,1,1,1,0,0,0,0,0,6,6,6,,,,,,,,,,,,,,,,,,,,,,,,,,,,,,,,,,,174.18567490001442,174.38508470001398,174.36953290001838,174.66959760000464,174.66959760000464,None,175.16977040001075,None,f,1,0.6350958000111859,175.16977040001075,None,None,None,175.82026370000676,None,,,,,,,,,,,,,,,,,,,,,11033,1,1,2024_May_31_1502,stroop_task_switching2,2021.2.3,59.69283262482226,
condition/block_word,instruction/instr_word,instruction/i9,蓝,white,f,square,word_single,单词,0.26360599864925405,,,,,,,,,,0,1,1,1,0,0,0,0,0,7,7,7,,,,,,,,,,,,,,,,,,,,,,,,,,,,,,,,,,,176.82224300000235,177.0225430999999,177.00571900000796,177.3060841000115,177.3060841000115,None,177.8066250999982,None,f,1,0.7265035999880638,177.8066250999982,None,None,None,178.55790519999573,None,,,,,,,,,,,,,,,,,,,,,11033,1,1,2024_May_31_1502,stroop_task_switching2,2021.2.3,59.69283262482226,
condition/block_word,instruction/instr_word,instruction/i9,蓝,white,f,square,word_single,单词,0.358985675745526,,,,,,,,,,0,1,1,1,0,0,0,0,0,8,8,8,,,,,,,,,,,,,,,,,,,,,,,,,,,,,,,,,,,179.55971130001126,179.7596681000141,179.74408100001165,180.0448427000083,180.0448427000083,None,180.54491920000874,None,f,1,0.6520877000002656,180.54491920000874,None,None,None,181.212202900002,None,,,,,,,,,,,,,,,,,,,,,11033,1,1,2024_May_31_1502,stroop_task_switching2,2021.2.3,59.69283262482226,
condition/block_word,instruction/instr_word,instruction/i9,绿,white,k,square,word_single,单词,0.36496733802487347,,,,,,,,,,0,1,1,1,0,0,0,0,0,9,9,9,,,,,,,,,,,,,,,,,,,,,,,,,,,,,,,,,,,182.21340249999776,182.41365740000037,182.39792440002202,182.69756020000204,182.69756020000204,None,183.19814280001447,None,k,1,0.8870199999946635,183.19814280001447,None,None,None,184.117112500011,None,,,,,,,,,,,,,,,,,,,,,11033,1,1,2024_May_31_1502,stroop_task_switching2,2021.2.3,59.69283262482226,
condition/block_word,instruction/instr_word,instruction/i9,黄,white,j,square,word_single,单词,0.3743513623756727,,,,,,,,,,0,1,1,1,0,0,0,0,0,10,10,10,,,,,,,,,,,,,,,,,,,,,,,,,,,,,,,,,,,185.11782590000075,185.31959880000795,185.30162040001596,185.60177900001872,185.60177900001872,None,186.1025017000211,None,j,1,0.7912569000036456,186.1025017000211,None,None,None,186.920781599998,None,,,,,,,,,,,,,,,,,,,,,11033,1,1,2024_May_31_1502,stroop_task_switching2,2021.2.3,59.69283262482226,
condition/block_word,instruction/instr_word,instruction/i9,红,white,d,square,word_single,单词,0.3894803852598544,,,,,,,,,,0,1,1,1,0,0,0,0,0,11,11,11,,,,,,,,,,,,,,,,,,,,,,,,,,,,,,,,,,,187.92202310002176,188.12298670000746,188.1076190000167,188.40664940001443,188.40664940001443,None,188.90709459999925,None,d,1,0.8982755000179168,188.90709459999925,None,None,None,189.82497080002213,None,,,,,,,,,,,,,,,,,,,,,11033,1,1,2024_May_31_1502,stroop_task_switching2,2021.2.3,59.69283262482226,
condition/block_word,instruction/instr_word,instruction/i9,绿,white,k,square,word_single,单词,0.5393759672408067,,,,,,,,,,0,1,1,1,0,0,0,0,0,12,12,12,,,,,,,,,,,,,,,,,,,,,,,,,,,,,,,,,,,190.82638700000825,191.02807369999937,191.01010000001406,191.3109091000224,191.3109091000224,None,191.81132920001983,None,k,1,0.8500856000173371,191.81132920001983,None,None,None,192.6797213999962,None,,,,,,,,,,,,,,,,,,,,,11033,1,1,2024_May_31_1502,stroop_task_switching2,2021.2.3,59.69283262482226,
condition/block_word,instruction/instr_word,instruction/i9,蓝,white,f,square,word_single,单词,0.5995731954831104,,,,,,,,,,0,1,1,1,0,0,0,0,0,13,13,13,,,,,,,,,,,,,,,,,,,,,,,,,,,,,,,,,,,193.68142160002026,193.881180700002,193.86608599999454,194.16579400000046,194.16579400000046,None,194.66557830001693,None,f,1,0.4357523999933619,194.66557830001693,None,None,None,195.13299140002346,None,,,,,,,,,,,,,,,,,,,,,11033,1,1,2024_May_31_1502,stroop_task_switching2,2021.2.3,59.69283262482226,
condition/block_word,instruction/instr_word,instruction/i9,红,white,d,square,word_single,单词,0.6298674479151414,,,,,,,,,,0,1,1,1,0,0,0,0,0,14,14,14,,,,,,,,,,,,,,,,,,,,,,,,,,,,,,,,,,,196.13452829999733,196.33460540001397,196.3182214999979,196.61862170000677,196.61862170000677,None,197.11923390001175,None,d,1,0.7102433999825735,197.11923390001175,None,None,None,197.8536718999967,None,,,,,,,,,,,,,,,,,,,,,11033,1,1,2024_May_31_1502,stroop_task_switching2,2021.2.3,59.69283262482226,
condition/block_word,instruction/instr_word,instruction/i9,红,white,d,square,word_single,单词,0.7389942282348904,,,,,,,,,,0,1,1,1,0,0,0,0,0,15,15,15,,,,,,,,,,,,,,,,,,,,,,,,,,,,,,,,,,,198.85522200001287,199.0565987000009,199.03882440002053,199.34153639999568,199.34153639999568,None,199.85677949999808,None,d,1,0.5807716000126675,199.85677949999808,None,None,None,200.45753720001085,None,,,,,,,,,,,,,,,,,,,,,11033,1,1,2024_May_31_1502,stroop_task_switching2,2021.2.3,59.69283262482226,
condition/block_word,instruction/instr_word,instruction/i9,绿,white,k,square,word_single,单词,0.7550853947239682,,,,,,,,,,0,1,1,1,0,0,0,0,0,16,16,16,,,,,,,,,,,,,,,,,,,,,,,,,,,,,,,,,,,201.45922380001866,201.66028579999693,201.6428334999946,201.94310900001437,201.94310900001437,None,202.4447736000002,None,k,1,0.7775001999980304,202.4447736000002,None,None,None,203.24563109999872,None,,,,,,,,,,,,,,,,,,,,,11033,1,1,2024_May_31_1502,stroop_task_switching2,2021.2.3,59.69283262482226,
condition/block_word,instruction/instr_word,instruction/i9,绿,white,k,square,word_single,单词,0.8019302780428206,,,,,,,,,,0,1,1,1,0,0,0,0,0,17,17,17,,,,,,,,,,,,,,,,,,,,,,,,,,,,,,,,,,,204.24822400000994,204.46404099999927,204.43024190000142,204.73279199999524,204.73279199999524,None,205.23166160000255,None,k,1,0.7820977000228595,205.23166160000255,None,None,None,206.033929600002,None,,,,,,,,,,,,,,,,,,,,,11033,1,1,2024_May_31_1502,stroop_task_switching2,2021.2.3,59.69283262482226,
condition/block_word,instruction/instr_word,instruction/i9,绿,white,k,square,word_single,单词,0.8110702914095343,,,,,,,,,,0,1,1,1,0,0,0,0,0,18,18,18,,,,,,,,,,,,,,,,,,,,,,,,,,,,,,,,,,,207.0347327000054,207.23505479999585,207.21794679999584,207.51910920001683,207.51910920001683,None,208.01960020000115,None,k,1,0.6985468000057153,208.01960020000115,None,None,None,208.73680360001163,None,,,,,,,,,,,,,,,,,,,,,11033,1,1,2024_May_31_1502,stroop_task_switching2,2021.2.3,59.69283262482226,
condition/block_word,instruction/instr_word,instruction/i9,黄,white,j,square,word_single,单词,0.8176594937590999,,,,,,,,,,0,1,1,1,0,0,0,0,0,19,19,19,,,,,,,,,,,,,,,,,,,,,,,,,,,,,,,,,,,209.73873810001533,209.93845480002346,209.9227613999974,210.2224627000105,210.2224627000105,None,210.72308280001744,None,j,1,0.38721929999883287,210.72308280001744,None,None,None,211.1410705000162,None,,,,,,,,,,,,,,,,,,,,,11033,1,1,2024_May_31_1502,stroop_task_switching2,2021.2.3,59.69283262482226,
condition/block_word,instruction/instr_word,instruction/i9,红,white,d,square,word_single,单词,0.8955794421104841,,,,,,,,,,0,1,1,1,0,0,0,0,0,20,20,20,,,,,,,,,,,,,,,,,,,,,,,,,,,,,,,,,,,212.1417339000036,212.34406860001036,212.32559010002296,212.62675230001332,212.62675230001332,None,213.12705390001065,None,d,1,0.558968500001356,213.12705390001065,None,None,None,213.71137080001063,None,,,,,,,,,,,,,,,,,,,,,11033,1,1,2024_May_31_1502,stroop_task_switching2,2021.2.3,59.69283262482226,
condition/block_word,instruction/instr_word,instruction/i9,绿,white,k,square,word_single,单词,0.9113598052474129,,,,,,,,,,0,1,1,1,0,0,0,0,0,21,21,21,,,,,,,,,,,,,,,,,,,,,,,,,,,,,,,,,,,214.71282090002205,214.91292170001543,214.8961240000208,215.19822950000525,215.19822950000525,None,215.69779800000833,None,k,1,0.6602766000141855,215.69779800000833,None,None,None,216.38167060000706,None,,,,,,,,,,,,,,,,,,,,,11033,1,1,2024_May_31_1502,stroop_task_switching2,2021.2.3,59.69283262482226,
condition/block_word,instruction/instr_word,instruction/i9,黄,white,j,square,word_single,单词,0.9215930958042953,,,,,,,,,,0,1,1,1,0,0,0,0,0,22,22,22,,,,,,,,,,,,,,,,,,,,,,,,,,,,,,,,,,,217.3835248000105,217.58546940001543,217.56680490000872,217.8675412000157,217.8675412000157,None,218.36802029999672,None,j,1,0.5581068000174128,218.36802029999672,None,None,None,218.95208040002035,None,,,,,,,,,,,,,,,,,,,,,11033,1,1,2024_May_31_1502,stroop_task_switching2,2021.2.3,59.69283262482226,
condition/block_word,instruction/instr_word,instruction/i9,黄,white,j,square,word_single,单词,0.9493525498837774,,,,,,,,,,0,1,1,1,0,0,0,0,0,23,23,23,,,,,,,,,,,,,,,,,,,,,,,,,,,,,,,,,,,219.95450550000533,220.15497669999604,220.1377449000138,220.43898780000745,220.43898780000745,None,220.9385467999964,None,j,1,0.5074442999903113,220.9385467999964,None,None,None,221.47256300001754,None,,,,,,,,,,,,,,,,,,,,,11033,1,1,2024_May_31_1502,stroop_task_switching2,2021.2.3,59.69283262482226,
condition/block_word,instruction/instr_word,instruction/i9,,,,,,,,,,,,,,,,,0,1,1,1,0,0,0,0,,,,,,,,,,,,,,,,,,,,,,,,,,,,,,,,,,,,,,,,,,,,,,,,,,,,,,,,222.47404000000097,None,space,2.5962578000035137,222.47404000000097,None,,,,,,,,,,,,,,,11033,1,1,2024_May_31_1502,stroop_task_switching2,2021.2.3,59.69283262482226,
condition/block_word,instruction/instr_word,instruction/i9,,,,,,,,,,,,,,,,,0,1,1,1,,,,,,,,,,,,,,,,,,,,,,,,,,,,,,,,,,,,,,,,,,,,,,,,,,,,,,,,,,,,,,,,,,,,,,,,,,,,,,,,11033,1,1,2024_May_31_1502,stroop_task_switching2,2021.2.3,59.69283262482226,
condition/block_mixed,instruction/instr_mixed,instruction/i10,蓝,red,d,diamond,color_mix,颜色,,incompatible,0,,,,,,,,0,2,2,2,0,0,0,0,0,0,0,0,,,,,,,,,,,,,,,,,,,,,225.11155150001287,None,space,5.647381000017049,225.11155150001287,None,231.7881324000191,232.78964500001166,232.78964500001166,233.79117330000736,233.79117330000736,None,230.80417560000205,231.80634110001847,234.8270693999948,235.02727970000706,235.01047629999812,235.31011580000632,235.31011580000632,None,235.7942205000145,None,d,1,1.5167776999878697,235.7942205000145,None,None,None,237.32985320000444,None,,,,,,,,,,,,,,,,,,,,,11033,1,1,2024_May_31_1502,stroop_task_switching2,2021.2.3,59.69283262482226,
condition/block_mixed,instruction/instr_mixed,instruction/i10,绿,yellow,j,diamond,color_mix,颜色,,incompatible,1,,,,,,,,0,2,2,2,0,0,0,0,0,1,1,1,,,,,,,,,,,,,,,,,,,,,,,,,,,,,,,,,,,238.3328354000114,238.53159210001468,238.51535240001976,238.8156200000085,238.8156200000085,None,239.3174338999961,None,k,0,0.8333402000134811,239.3174338999961,None,None,None,240.16756510001142,None,,,,,,,,,,,,,,,,,,,,,11033,1,1,2024_May_31_1502,stroop_task_switching2,2021.2.3,59.69283262482226,
condition/block_mixed,instruction/instr_mixed,instruction/i10,红,green,k,diamond,color_mix,颜色,,incompatible,1,,,,,,,,0,2,2,2,0,0,0,0,0,2,2,2,,,,,,,,,,,,,,,,,,,,,,,,,,,,,,,,,,,241.16907550001633,241.36991660000058,241.35319900000468,241.65439360000892,241.65439360000892,None,242.1539176000224,None,d,0,2.4769641000020783,242.1539176000224,None,None,None,244.65754139999626,None,,,,,,,,,,,,,,,,,,,,,11033,1,1,2024_May_31_1502,stroop_task_switching2,2021.2.3,59.69283262482226,
condition/block_mixed,instruction/instr_mixed,instruction/i10,蓝,red,d,diamond,color_mix,颜色,,incompatible,1,,,,,,,,0,2,2,2,0,0,0,0,0,3,3,3,,,,,,,,,,,,,,,,,,,,,,,,,,,,,,,,,,,245.66058660001727,245.87623730002088,245.84288760001073,246.14476830000058,246.14476830000058,None,246.64479940000456,None,d,1,1.4344618000031915,246.64479940000456,None,None,None,248.09618240001146,None,,,,,,,,,,,,,,,,,,,,,11033,1,1,2024_May_31_1502,stroop_task_switching2,2021.2.3,59.69283262482226,
condition/block_mixed,instruction/instr_mixed,instruction/i10,红,blue,f,diamond,color_mix,颜色,,incompatible,1,,,,,,,,0,2,2,2,0,0,0,0,0,4,4,4,,,,,,,,,,,,,,,,,,,,,,,,,,,,,,,,,,,249.09773400000995,249.29801040000166,249.28224930001306,249.58186550001847,249.58186550001847,None,250.0823989000055,None,f,1,1.652932500001043,250.0823989000055,None,None,None,251.75173489999725,None,,,,,,,,,,,,,,,,,,,,,11033,1,1,2024_May_31_1502,stroop_task_switching2,2021.2.3,59.69283262482226,
condition/block_mixed,instruction/instr_mixed,instruction/i10,红,blue,d,square,color_mix,单词,,incompatible,2,,,,,,,,0,2,2,2,0,0,0,0,0,5,5,5,,,,,,,,,,,,,,,,,,,,,,,,,,,,,,,,,,,252.75315580001916,252.9541337999981,252.93746360001387,253.23816280000028,253.23816280000028,None,253.73814339999808,None,d,1,1.172889599984046,253.73814339999808,None,None,None,254.93996600000537,None,,,,,,,,,,,,,,,,,,,,,11033,1,1,2024_May_31_1502,stroop_task_switching2,2021.2.3,59.69283262482226,
condition/block_mixed,instruction/instr_mixed,instruction/i10,红,yellow,j,diamond,color_mix,颜色,,incompatible,2,,,,,,,,0,2,2,2,0,0,0,0,0,6,6,6,,,,,,,,,,,,,,,,,,,,,,,,,,,,,,,,,,,255.9414435000217,256.14163240001653,256.1248854000005,256.4254288999946,256.4254288999946,None,256.92610969999805,None,j,1,1.7610505999764428,256.92610969999805,None,None,None,258.71207320000394,None,,,,,,,,,,,,,,,,,,,,,11033,1,1,2024_May_31_1502,stroop_task_switching2,2021.2.3,59.69283262482226,
condition/block_mixed,instruction/instr_mixed,instruction/i10,红,yellow,d,square,color_mix,单词,,incompatible,2,,,,,,,,0,2,2,2,0,0,0,0,0,7,7,7,,,,,,,,,,,,,,,,,,,,,,,,,,,,,,,,,,,259.7137012000021,259.91402359999483,259.89735559999826,260.19873250002274,260.19873250002274,None,260.69863110000733,None,d,1,1.6046346999937668,260.69863110000733,None,None,None,262.3342165000213,None,,,,,,,,,,,,,,,,,,,,,11033,1,1,2024_May_31_1502,stroop_task_switching2,2021.2.3,59.69283262482226,
condition/block_mixed,instruction/instr_mixed,instruction/i10,绿,blue,k,square,color_mix,单词,,incompatible,1,,,,,,,,0,2,2,2,0,0,0,0,0,8,8,8,,,,,,,,,,,,,,,,,,,,,,,,,,,,,,,,,,,263.3359225000022,263.5374584000092,263.5192744000233,263.8210728999984,263.8210728999984,None,264.32084400000167,None,k,1,1.3104237999941688,264.32084400000167,None,None,None,265.6572637000063,None,,,,,,,,,,,,,,,,,,,,,11033,1,1,2024_May_31_1502,stroop_task_switching2,2021.2.3,59.69283262482226,
condition/block_mixed,instruction/instr_mixed,instruction/i10,蓝,green,k,diamond,color_mix,颜色,,incompatible,2,,,,,,,,0,2,2,2,0,0,0,0,0,9,9,9,,,,,,,,,,,,,,,,,,,,,,,,,,,,,,,,,,,266.65759660000913,266.8584672000143,266.84104070000467,267.14173070000834,267.14173070000834,None,267.6425326000026,None,f,0,1.0370238000177778,267.6425326000026,None,None,None,268.7108206000121,None,,,,,,,,,,,,,,,,,,,,,11033,1,1,2024_May_31_1502,stroop_task_switching2,2021.2.3,59.69283262482226,
condition/block_mixed,instruction/instr_mixed,instruction/i10,蓝,yellow,f,square,color_mix,单词,,incompatible,2,,,,,,,,0,2,2,2,0,0,0,0,0,10,10,10,,,,,,,,,,,,,,,,,,,,,,,,,,,,,,,,,,,269.7120482000173,269.912401700014,269.8977879000013,270.21302300001844,270.19701120001264,None,270.69812420001836,None,f,1,1.8054817999945953,270.69812420001836,None,None,None,272.53328630002216,None,,,,,,,,,,,,,,,,,,,,,11033,1,1,2024_May_31_1502,stroop_task_switching2,2021.2.3,59.69283262482226,
condition/block_mixed,instruction/instr_mixed,instruction/i10,蓝,green,f,square,color_mix,单词,,incompatible,1,,,,,,,,0,2,2,2,0,0,0,0,0,11,11,11,,,,,,,,,,,,,,,,,,,,,,,,,,,,,,,,,,,273.53524950001156,273.7353207000124,273.72016490000533,274.01992520000204,274.01992520000204,None,274.51931770000374,None,f,1,0.880511800001841,274.51931770000374,None,None,None,275.4206608000095,None,,,,,,,,,,,,,,,,,,,,,11033,1,1,2024_May_31_1502,stroop_task_switching2,2021.2.3,59.69283262482226,
condition/block_mixed,instruction/instr_mixed,instruction/i10,绿,yellow,k,square,color_mix,单词,,incompatible,1,,,,,,,,0,2,2,2,0,0,0,0,0,12,12,12,,,,,,,,,,,,,,,,,,,,,,,,,,,,,,,,,,,276.42285540001467,276.6229323000007,276.6058287000051,276.9066143000091,276.9066143000091,None,277.40777890000027,None,k,1,0.79200889999629,277.40777890000027,None,None,None,278.2250818000175,None,,,,,,,,,,,,,,,,,,,,,11033,1,1,2024_May_31_1502,stroop_task_switching2,2021.2.3,59.69283262482226,
condition/block_mixed,instruction/instr_mixed,instruction/i10,绿,blue,f,diamond,color_mix,颜色,,incompatible,2,,,,,,,,0,2,2,2,0,0,0,0,0,13,13,13,,,,,,,,,,,,,,,,,,,,,,,,,,,,,,,,,,,279.2262515000184,279.42677250001,279.41187820001505,279.7106238999986,279.7106238999986,None,280.21143260001554,None,k,0,0.9805454999732319,280.21143260001554,None,None,None,281.212717300019,None,,,,,,,,,,,,,,,,,,,,,11033,1,1,2024_May_31_1502,stroop_task_switching2,2021.2.3,59.69283262482226,
condition/block_mixed,instruction/instr_mixed,instruction/i10,黄,red,j,square,color_mix,单词,,incompatible,2,,,,,,,,0,2,2,2,0,0,0,0,0,14,14,14,,,,,,,,,,,,,,,,,,,,,,,,,,,,,,,,,,,282.2141871000058,282.4157846000162,282.398033400008,282.69889390000026,282.69889390000026,None,283.19914670000435,None,j,1,1.2405595000018366,283.19914670000435,None,None,None,284.46766140000545,None,,,,,,,,,,,,,,,,,,,,,11033,1,1,2024_May_31_1502,stroop_task_switching2,2021.2.3,59.69283262482226,
condition/block_mixed,instruction/instr_mixed,instruction/i10,蓝,yellow,j,diamond,color_mix,颜色,,incompatible,2,,,,,,,,0,2,2,2,0,0,0,0,0,15,15,15,,,,,,,,,,,,,,,,,,,,,,,,,,,,,,,,,,,285.46911780000664,285.6703785000136,285.65286000000197,285.95423020000453,285.95423020000453,None,286.4540786000143,None,j,1,1.722281700000167,286.4540786000143,None,None,None,288.20801200001733,None,,,,,,,,,,,,,,,,,,,,,11033,1,1,2024_May_31_1502,stroop_task_switching2,2021.2.3,59.69283262482226,
condition/block_mixed,instruction/instr_mixed,instruction/i10,黄,red,d,diamond,color_mix,颜色,,incompatible,1,,,,,,,,0,2,2,2,0,0,0,0,0,16,16,16,,,,,,,,,,,,,,,,,,,,,,,,,,,,,,,,,,,289.20804950001184,289.4095532000065,289.3918321999954,289.69379600000684,289.69379600000684,None,290.19347650001873,None,j,0,1.4703879000153393,290.19347650001873,None,None,None,291.69532190001337,None,,,,,,,,,,,,,,,,,,,,,11033,1,1,2024_May_31_1502,stroop_task_switching2,2021.2.3,59.69283262482226,
condition/block_mixed,instruction/instr_mixed,instruction/i10,绿,red,k,square,color_mix,单词,,incompatible,2,,,,,,,,0,2,2,2,0,0,0,0,0,17,17,17,,,,,,,,,,,,,,,,,,,,,,,,,,,,,,,,,,,292.696907000005,292.89825140000903,292.8810793000157,293.1821687000047,293.1821687000047,None,293.68165890002274,None,d,0,2.5823923000134528,293.68165890002274,None,None,None,296.28547279999475,None,,,,,,,,,,,,,,,,,,,,,11033,1,1,2024_May_31_1502,stroop_task_switching2,2021.2.3,59.69283262482226,
condition/block_mixed,instruction/instr_mixed,instruction/i10,红,green,d,square,color_mix,单词,,incompatible,1,,,,,,,,0,2,2,2,0,0,0,0,0,18,18,18,,,,,,,,,,,,,,,,,,,,,,,,,,,,,,,,,,,297.2871239000233,297.4875366000051,297.47047580001527,297.77095540001756,297.77095540001756,None,298.2718655000208,None,d,1,1.3604439000191633,298.2718655000208,None,None,None,299.6573335000139,None,,,,,,,,,,,,,,,,,,,,,11033,1,1,2024_May_31_1502,stroop_task_switching2,2021.2.3,59.69283262482226,
condition/block_mixed,instruction/instr_mixed,instruction/i10,黄,blue,f,diamond,color_mix,颜色,,incompatible,2,,,,,,,,0,2,2,2,0,0,0,0,0,19,19,19,,,,,,,,,,,,,,,,,,,,,,,,,,,,,,,,,,,300.6587795999949,300.86046130000614,300.8425043000025,301.14394380000886,301.14394380000886,None,301.6435584000137,None,f,1,1.5331791999924462,301.6435584000137,None,None,None,303.19599960002233,None,,,,,,,,,,,,,,,,,,,,,11033,1,1,2024_May_31_1502,stroop_task_switching2,2021.2.3,59.69283262482226,
condition/block_mixed,instruction/instr_mixed,instruction/i10,黄,green,k,diamond,color_mix,颜色,,incompatible,1,,,,,,,,0,2,2,2,0,0,0,0,0,20,20,20,,,,,,,,,,,,,,,,,,,,,,,,,,,,,,,,,,,304.19818989999476,304.39828650001436,304.3822624000022,304.68198670001584,304.68198670001584,None,305.18226120001054,None,k,1,1.5943143000185955,305.18226120001054,None,None,None,306.8013285000052,None,,,,,,,,,,,,,,,,,,,,,11033,1,1,2024_May_31_1502,stroop_task_switching2,2021.2.3,59.69283262482226,
condition/block_mixed,instruction/instr_mixed,instruction/i10,黄,green,j,square,color_mix,单词,,incompatible,2,,,,,,,,0,2,2,2,0,0,0,0,0,21,21,21,,,,,,,,,,,,,,,,,,,,,,,,,,,,,,,,,,,307.8035172999953,308.0047070000146,307.9864235999994,308.28837650001515,308.28837650001515,None,308.7876432000194,None,j,1,1.5487930999952368,308.7876432000194,None,None,None,310.3567803000042,None,,,,,,,,,,,,,,,,,,,,,11033,1,1,2024_May_31_1502,stroop_task_switching2,2021.2.3,59.69283262482226,
condition/block_mixed,instruction/instr_mixed,instruction/i10,黄,blue,j,square,color_mix,单词,,incompatible,1,,,,,,,,0,2,2,2,0,0,0,0,0,22,22,22,,,,,,,,,,,,,,,,,,,,,,,,,,,,,,,,,,,311.3581819999963,311.5584357000189,311.5436101999949,311.8445569000032,311.8445569000032,None,312.34294910001336,None,j,1,1.9057774000102654,312.34294910001336,None,None,None,314.2792118000216,None,,,,,,,,,,,,,,,,,,,,,11033,1,1,2024_May_31_1502,stroop_task_switching2,2021.2.3,59.69283262482226,
condition/block_mixed,instruction/instr_mixed,instruction/i10,蓝,red,f,square,color_mix,单词,,incompatible,1,,,,,,,,0,2,2,2,0,0,0,0,0,23,23,23,,,,,,,,,,,,,,,,,,,,,,,,,,,,,,,,,,,315.28115960001014,315.4828581000038,315.4643175000092,315.7667220000003,315.7667220000003,None,316.2826130000176,None,f,1,0.8463446999958251,316.2826130000176,None,None,None,317.15038330000243,None,,,,,,,,,,,,,,,,,,,,,11033,1,1,2024_May_31_1502,stroop_task_switching2,2021.2.3,59.69283262482226,
condition/block_mixed,instruction/instr_mixed,instruction/i10,绿,red,d,diamond,color_mix,颜色,,incompatible,2,,,,,,,,0,2,2,2,0,0,0,0,0,24,24,24,,,,,,,,,,,,,,,,,,,,,,,,,,,,,,,,,,,318.15172270001494,318.3525834000029,318.33640359999845,318.6365119999973,318.6365119999973,None,319.1365128000034,None,k,0,0.8724146000167821,319.1365128000034,None,None,None,320.0378159999964,None,,,,,,,,,,,,,,,,,,,,,11033,1,1,2024_May_31_1502,stroop_task_switching2,2021.2.3,59.69283262482226,
condition/block_mixed,instruction/instr_mixed,instruction/i10,绿,green,k,diamond,color_mix,颜色,,compatible,1,,,,,,,,0,2,2,2,0,0,0,0,0,25,25,25,,,,,,,,,,,,,,,,,,,,,,,,,,,,,,,,,,,321.0400739000179,321.24106630001916,321.2231585000118,321.5238081999996,321.5238081999996,None,322.0251533999981,None,k,1,2.2717845999868587,322.0251533999981,None,None,None,324.3277987000183,None,,,,,,,,,,,,,,,,,,,,,11033,1,1,2024_May_31_1502,stroop_task_switching2,2021.2.3,59.69283262482226,
condition/block_mixed,instruction/instr_mixed,instruction/i10,蓝,blue,f,diamond,color_mix,颜色,,compatible,1,,,,,,,,0,2,2,2,0,0,0,0,0,26,26,26,,,,,,,,,,,,,,,,,,,,,,,,,,,,,,,,,,,325.32925370000885,325.5297796000086,325.5127756000147,325.8140395000228,325.8140395000228,None,326.31500770000275,None,f,1,2.206122300005518,326.31500770000275,None,None,None,328.55085620001773,None,,,,,,,,,,,,,,,,,,,,,11033,1,1,2024_May_31_1502,stroop_task_switching2,2021.2.3,59.69283262482226,
condition/block_mixed,instruction/instr_mixed,instruction/i10,绿,green,k,square,color_mix,单词,,compatible,2,,,,,,,,0,2,2,2,0,0,0,0,0,27,27,27,,,,,,,,,,,,,,,,,,,,,,,,,,,,,,,,,,,329.5524161000212,329.7527805000136,329.7377863000147,330.03848640000797,330.03848640000797,None,330.53731030001654,None,k,1,1.0563645000220276,330.53731030001654,None,None,None,331.62203130000853,None,,,,,,,,,,,,,,,,,,,,,11033,1,1,2024_May_31_1502,stroop_task_switching2,2021.2.3,59.69283262482226,
condition/block_mixed,instruction/instr_mixed,instruction/i10,绿,green,k,square,color_mix,单词,,compatible,1,,,,,,,,0,2,2,2,0,0,0,0,0,28,28,28,,,,,,,,,,,,,,,,,,,,,,,,,,,,,,,,,,,332.6245385000075,332.8258397000027,332.8074372000119,333.1077093000058,333.1077093000058,None,333.60853660001885,None,k,1,0.6329186999937519,333.60853660001885,None,None,None,334.25982920001843,None,,,,,,,,,,,,,,,,,,,,,11033,1,1,2024_May_31_1502,stroop_task_switching2,2021.2.3,59.69283262482226,
condition/block_mixed,instruction/instr_mixed,instruction/i10,蓝,blue,f,square,color_mix,单词,,compatible,1,,,,,,,,0,2,2,2,0,0,0,0,0,29,29,29,,,,,,,,,,,,,,,,,,,,,,,,,,,,,,,,,,,335.26176049999776,335.46125610001036,335.44520760001615,335.7455489000131,335.7455489000131,None,336.2457902000169,None,f,1,0.8595804999931715,336.2457902000169,None,None,None,337.1301094000228,None,,,,,,,,,,,,,,,,,,,,,11033,1,1,2024_May_31_1502,stroop_task_switching2,2021.2.3,59.69283262482226,
condition/block_mixed,instruction/instr_mixed,instruction/i10,黄,yellow,j,diamond,color_mix,颜色,,compatible,2,,,,,,,,0,2,2,2,0,0,0,0,0,30,30,30,,,,,,,,,,,,,,,,,,,,,,,,,,,,,,,,,,,338.13251090000267,338.33205550001003,338.31699340001796,338.63383690000046,338.6163034000201,None,339.1174082000216,None,j,1,1.0681328999926336,339.1174082000216,None,None,None,340.20177840002,None,,,,,,,,,,,,,,,,,,,,,11033,1,1,2024_May_31_1502,stroop_task_switching2,2021.2.3,59.69283262482226,
condition/block_mixed,instruction/instr_mixed,instruction/i10,绿,green,k,square,color_mix,单词,,compatible,2,,,,,,,,0,2,2,2,0,0,0,0,0,31,31,31,,,,,,,,,,,,,,,,,,,,,,,,,,,,,,,,,,,341.2033423999965,341.4040687000088,341.3871579999977,341.6878850000212,341.6878850000212,None,342.1886508000025,None,k,1,0.604795599996578,342.1886508000025,None,None,None,342.82220210001105,None,,,,,,,,,,,,,,,,,,,,,11033,1,1,2024_May_31_1502,stroop_task_switching2,2021.2.3,59.69283262482226,
condition/block_mixed,instruction/instr_mixed,instruction/i10,黄,yellow,j,square,color_mix,单词,,compatible,1,,,,,,,,0,2,2,2,0,0,0,0,0,32,32,32,,,,,,,,,,,,,,,,,,,,,,,,,,,,,,,,,,,343.8238139000023,344.0254460000142,344.007276999997,344.3078821999952,344.3078821999952,None,344.80858070001705,None,j,1,0.7455342999892309,344.80858070001705,None,None,None,345.57694790000096,None,,,,,,,,,,,,,,,,,,,,,11033,1,1,2024_May_31_1502,stroop_task_switching2,2021.2.3,59.69283262482226,
condition/block_mixed,instruction/instr_mixed,instruction/i10,绿,green,k,diamond,color_mix,颜色,,compatible,2,,,,,,,,0,2,2,2,0,0,0,0,0,33,33,33,,,,,,,,,,,,,,,,,,,,,,,,,,,,,,,,,,,346.5780119000119,346.78009080002084,346.761565599998,347.06338320000214,347.06338320000214,None,347.56297180001275,None,k,1,1.1744933000009041,347.56297180001275,None,None,None,348.76456410001265,None,,,,,,,,,,,,,,,,,,,,,11033,1,1,2024_May_31_1502,stroop_task_switching2,2021.2.3,59.69283262482226,
condition/block_mixed,instruction/instr_mixed,instruction/i10,红,red,d,square,color_mix,单词,,compatible,2,,,,,,,,0,2,2,2,0,0,0,0,0,34,34,34,,,,,,,,,,,,,,,,,,,,,,,,,,,,,,,,,,,349.766034100001,349.96852789999684,349.94979139999487,350.2516880000185,350.2516880000185,None,350.750935100019,None,d,1,1.2425829000130761,350.750935100019,None,None,None,352.019618899998,None,,,,,,,,,,,,,,,,,,,,,11033,1,1,2024_May_31_1502,stroop_task_switching2,2021.2.3,59.69283262482226,
condition/block_mixed,instruction/instr_mixed,instruction/i10,黄,yellow,j,square,color_mix,单词,,compatible,1,,,,,,,,0,2,2,2,0,0,0,0,0,35,35,35,,,,,,,,,,,,,,,,,,,,,,,,,,,,,,,,,,,353.020984200004,353.2213900000206,353.20600679999916,353.5052196000179,353.5052196000179,None,354.0058444000024,None,j,1,0.9402865000010934,354.0058444000024,None,None,None,354.9754278000037,None,,,,,,,,,,,,,,,,,,,,,11033,1,1,2024_May_31_1502,stroop_task_switching2,2021.2.3,59.69283262482226,
condition/block_mixed,instruction/instr_mixed,instruction/i10,绿,green,k,diamond,color_mix,颜色,,compatible,2,,,,,,,,0,2,2,2,0,0,0,0,0,36,36,36,,,,,,,,,,,,,,,,,,,,,,,,,,,,,,,,,,,355.9761804000009,356.1777590000129,356.15910520000034,356.4598249999981,356.4598249999981,None,356.96047859999817,None,k,1,0.6893908000201918,356.96047859999817,None,None,None,357.6789980000176,None,,,,,,,,,,,,,,,,,,,,,11033,1,1,2024_May_31_1502,stroop_task_switching2,2021.2.3,59.69283262482226,
condition/block_mixed,instruction/instr_mixed,instruction/i10,蓝,blue,f,square,color_mix,单词,,compatible,2,,,,,,,,0,2,2,2,0,0,0,0,0,37,37,37,,,,,,,,,,,,,,,,,,,,,,,,,,,,,,,,,,,358.6794415000186,358.88108770002145,358.8631061000051,359.16389570001047,359.16389570001047,None,359.66443830000935,None,f,1,0.9460277000034694,359.66443830000935,None,None,None,360.6326092000236,None,,,,,,,,,,,,,,,,,,,,,11033,1,1,2024_May_31_1502,stroop_task_switching2,2021.2.3,59.69283262482226,
condition/block_mixed,instruction/instr_mixed,instruction/i10,红,red,d,square,color_mix,单词,,compatible,1,,,,,,,,0,2,2,2,0,0,0,0,0,38,38,38,,,,,,,,,,,,,,,,,,,,,,,,,,,,,,,,,,,361.6338986000046,361.8346262999985,361.817564099998,362.118922499998,362.118922499998,None,362.6188183000195,None,d,1,1.0951044000103138,362.6188183000195,None,None,None,363.7372503000079,None,,,,,,,,,,,,,,,,,,,,,11033,1,1,2024_May_31_1502,stroop_task_switching2,2021.2.3,59.69283262482226,
condition/block_mixed,instruction/instr_mixed,instruction/i10,黄,yellow,j,diamond,color_mix,颜色,,compatible,2,,,,,,,,0,2,2,2,0,0,0,0,0,39,39,39,,,,,,,,,,,,,,,,,,,,,,,,,,,,,,,,,,,364.73948780001956,364.93898700000136,364.9222531999985,365.22347060000175,365.22347060000175,None,365.7235234999971,None,j,1,0.5669442000216804,365.7235234999971,None,None,None,366.30873330001486,None,,,,,,,,,,,,,,,,,,,,,11033,1,1,2024_May_31_1502,stroop_task_switching2,2021.2.3,59.69283262482226,
condition/block_mixed,instruction/instr_mixed,instruction/i10,黄,yellow,j,square,color_mix,单词,,compatible,2,,,,,,,,0,2,2,2,0,0,0,0,0,40,40,40,,,,,,,,,,,,,,,,,,,,,,,,,,,,,,,,,,,367.30922080000164,367.511299100006,367.4929298000061,367.7940587000048,367.7940587000048,None,368.294658800005,None,j,1,0.5075704999908339,368.294658800005,None,None,None,368.82835070000147,None,,,,,,,,,,,,,,,,,,,,,11033,1,1,2024_May_31_1502,stroop_task_switching2,2021.2.3,59.69283262482226,
condition/block_mixed,instruction/instr_mixed,instruction/i10,蓝,blue,f,square,color_mix,单词,,compatible,1,,,,,,,,0,2,2,2,0,0,0,0,0,41,41,41,,,,,,,,,,,,,,,,,,,,,,,,,,,,,,,,,,,369.829788300005,370.03235389999463,370.0133911000157,370.3136756000167,370.3136756000167,None,370.81433990001096,None,k,0,0.6037872000015341,370.81433990001096,None,None,None,371.44893010001397,None,,,,,,,,,,,,,,,,,,,,,11033,1,1,2024_May_31_1502,stroop_task_switching2,2021.2.3,59.69283262482226,
condition/block_mixed,instruction/instr_mixed,instruction/i10,蓝,blue,f,diamond,color_mix,颜色,,compatible,2,,,,,,,,0,2,2,2,0,0,0,0,0,42,42,42,,,,,,,,,,,,,,,,,,,,,,,,,,,,,,,,,,,372.4503510000068,372.6509984000004,372.6337977000221,372.93496050001704,372.93496050001704,None,373.43515740000294,None,f,1,0.7832913999736775,373.43515740000294,None,None,None,374.2364497000235,None,,,,,,,,,,,,,,,,,,,,,11033,1,1,2024_May_31_1502,stroop_task_switching2,2021.2.3,59.69283262482226,
condition/block_mixed,instruction/instr_mixed,instruction/i10,黄,yellow,j,diamond,color_mix,颜色,,compatible,1,,,,,,,,0,2,2,2,0,0,0,0,0,43,43,43,,,,,,,,,,,,,,,,,,,,,,,,,,,,,,,,,,,375.2394605000154,375.438287500001,375.42248989999644,375.7218182000215,375.7218182000215,None,376.2227355000214,None,j,1,0.5319012000109069,376.2227355000214,None,None,None,376.77352899999823,None,,,,,,,,,,,,,,,,,,,,,11033,1,1,2024_May_31_1502,stroop_task_switching2,2021.2.3,59.69283262482226,
condition/block_mixed,instruction/instr_mixed,instruction/i10,红,red,d,diamond,color_mix,颜色,,compatible,1,,,,,,,,0,2,2,2,0,0,0,0,0,44,44,44,,,,,,,,,,,,,,,,,,,,,,,,,,,,,,,,,,,377.7749887999962,377.9754569000215,377.9599197000207,378.260468100023,378.260468100023,None,378.76030550000723,None,d,1,0.5860764000099152,378.76030550000723,None,None,None,379.36081470001955,None,,,,,,,,,,,,,,,,,,,,,11033,1,1,2024_May_31_1502,stroop_task_switching2,2021.2.3,59.69283262482226,
condition/block_mixed,instruction/instr_mixed,instruction/i10,蓝,blue,f,diamond,color_mix,颜色,,compatible,1,,,,,,,,0,2,2,2,0,0,0,0,0,45,45,45,,,,,,,,,,,,,,,,,,,,,,,,,,,,,,,,,,,380.3625757000118,380.56375290002325,380.5466435000126,380.8464659000165,380.8464659000165,None,381.34703050000826,None,f,1,0.6073120000073686,381.34703050000826,None,None,None,381.9812709999969,None,,,,,,,,,,,,,,,,,,,,,11033,1,1,2024_May_31_1502,stroop_task_switching2,2021.2.3,59.69283262482226,
condition/block_mixed,instruction/instr_mixed,instruction/i10,红,red,d,diamond,color_mix,颜色,,compatible,1,,,,,,,,0,2,2,2,0,0,0,0,0,46,46,46,,,,,,,,,,,,,,,,,,,,,,,,,,,,,,,,,,,382.98386960002244,383.18401200001244,383.16656010001316,383.46772889999556,383.46772889999556,None,383.96830800001044,None,d,1,0.5946192000119481,383.96830800001044,None,None,None,384.58527219999814,None,,,,,,,,,,,,,,,,,,,,,11033,1,1,2024_May_31_1502,stroop_task_switching2,2021.2.3,59.69283262482226,
condition/block_mixed,instruction/instr_mixed,instruction/i10,红,red,d,square,color_mix,单词,,compatible,2,,,,,,,,0,2,2,2,0,0,0,0,0,47,47,47,,,,,,,,,,,,,,,,,,,,,,,,,,,,,,,,,,,385.58692339999834,385.7879920999985,385.77044370002113,386.07091209999635,386.07091209999635,None,386.5715650000202,None,d,1,0.5677769999892917,386.5715650000202,None,None,None,387.1560557000048,None,,,,,,,,,,,,,,,,,,,,,11033,1,1,2024_May_31_1502,stroop_task_switching2,2021.2.3,59.69283262482226,
condition/block_mixed,instruction/instr_mixed,instruction/i10,红,red,d,diamond,color_mix,颜色,,compatible,2,,,,,,,,0,2,2,2,0,0,0,0,0,48,48,48,,,,,,,,,,,,,,,,,,,,,,,,,,,,,,,,,,,388.15842370002065,388.35780570001225,388.3415188000072,388.64346880000085,388.64346880000085,None,389.1421512000088,None,d,1,0.49273440000251867,389.1421512000088,None,None,None,389.6601765000087,None,,,,,,,,,,,,,,,,,,,,,11033,1,1,2024_May_31_1502,stroop_task_switching2,2021.2.3,59.69283262482226,
condition/block_mixed,instruction/instr_mixed,instruction/i10,,,,,,,,,,,,,,,,,0,2,2,2,0,0,0,0,,,,,,,,,,,,,,,,,,,,,,,,,,,,,,,,,,,,,,,,,,,,,,,,,,,,,,,,390.6610461999953,None,q,28.575205100001767,390.6610461999953,None,,,,,,,,,,,,,,,11033,1,1,2024_May_31_1502,stroop_task_switching2,2021.2.3,59.69283262482226,
condition/block_mixed,instruction/instr_mixed,instruction/i10,蓝,red,d,diamond,color_mix,颜色,,incompatible,0,,,,,,,,0,2,2,2,1,0,1,0,0,0,0,0,,,,,,,,,,,,,,,,,,,,,,,,,,,420.2558040000149,421.2580158000055,421.2580158000055,422.2587214000232,422.2587214000232,None,419.27118310000515,420.2729827000003,423.29517630001646,423.49404449999565,423.4776439999987,423.7778765000112,423.7778765000112,None,424.27850119999493,None,f,0,0.6452678999921773,424.27850119999493,None,None,None,424.9462401000201,None,,,,,,,,,,,,,,,,,,,,,11033,1,1,2024_May_31_1502,stroop_task_switching2,2021.2.3,59.69283262482226,
condition/block_mixed,instruction/instr_mixed,instruction/i10,绿,yellow,j,diamond,color_mix,颜色,,incompatible,1,,,,,,,,0,2,2,2,1,0,1,0,0,1,1,1,,,,,,,,,,,,,,,,,,,,,,,,,,,,,,,,,,,425.9477991000167,426.1480339000118,426.13146550001693,426.432231600018,426.432231600018,None,426.9325355000037,None,j,1,1.2315620000008494,426.9325355000037,None,None,None,428.1845154000039,None,,,,,,,,,,,,,,,,,,,,,11033,1,1,2024_May_31_1502,stroop_task_switching2,2021.2.3,59.69283262482226,
condition/block_mixed,instruction/instr_mixed,instruction/i10,红,green,k,diamond,color_mix,颜色,,incompatible,1,,,,,,,,0,2,2,2,1,0,1,0,0,2,2,2,,,,,,,,,,,,,,,,,,,,,,,,,,,,,,,,,,,429.1867988000158,429.3867363000172,429.3695406000188,429.6698631000181,429.6698631000181,None,430.1718194000132,None,k,1,0.8642516999971122,430.1718194000132,None,None,None,431.05534580000676,None,,,,,,,,,,,,,,,,,,,,,11033,1,1,2024_May_31_1502,stroop_task_switching2,2021.2.3,59.69283262482226,
condition/block_mixed,instruction/instr_mixed,instruction/i10,蓝,red,d,diamond,color_mix,颜色,,incompatible,1,,,,,,,,0,2,2,2,1,0,1,0,0,3,3,3,,,,,,,,,,,,,,,,,,,,,,,,,,,,,,,,,,,432.056765300018,432.25801910000155,432.24187950001215,432.54096430001664,432.54096430001664,None,433.04192000001785,None,d,1,0.8506950000009965,433.04192000001785,None,None,None,433.9099624000082,None,,,,,,,,,,,,,,,,,,,,,11033,1,1,2024_May_31_1502,stroop_task_switching2,2021.2.3,59.69283262482226,
condition/block_mixed,instruction/instr_mixed,instruction/i10,红,blue,f,diamond,color_mix,颜色,,incompatible,1,,,,,,,,0,2,2,2,1,0,1,0,0,4,4,4,,,,,,,,,,,,,,,,,,,,,,,,,,,,,,,,,,,434.9110457000206,435.11368290000246,435.09480880000046,435.3963810999994,435.3963810999994,None,435.8959196000069,None,f,1,0.8847973000083584,435.8959196000069,None,None,None,436.7973256999976,None,,,,,,,,,,,,,,,,,,,,,11033,1,1,2024_May_31_1502,stroop_task_switching2,2021.2.3,59.69283262482226,
condition/block_mixed,instruction/instr_mixed,instruction/i10,红,blue,d,square,color_mix,单词,,incompatible,2,,,,,,,,0,2,2,2,1,0,1,0,0,5,5,5,,,,,,,,,,,,,,,,,,,,,,,,,,,,,,,,,,,437.7991716999968,438.0004734999966,437.98271540002315,438.2839897000231,438.2839897000231,None,438.78447230000165,None,d,1,2.027737199998228,438.78447230000165,None,None,None,440.8367457000131,None,,,,,,,,,,,,,,,,,,,,,11033,1,1,2024_May_31_1502,stroop_task_switching2,2021.2.3,59.69283262482226,
condition/block_mixed,instruction/instr_mixed,instruction/i10,红,yellow,j,diamond,color_mix,颜色,,incompatible,2,,,,,,,,0,2,2,2,1,0,1,0,0,6,6,6,,,,,,,,,,,,,,,,,,,,,,,,,,,,,,,,,,,441.8382565000211,442.04065219999757,442.02190670001437,442.3230123000103,442.3230123000103,None,442.8235196000023,None,j,1,1.7969464999914635,442.8235196000023,None,None,None,444.64265460000024,None,,,,,,,,,,,,,,,,,,,,,11033,1,1,2024_May_31_1502,stroop_task_switching2,2021.2.3,59.69283262482226,
condition/block_mixed,instruction/instr_mixed,instruction/i10,红,yellow,d,square,color_mix,单词,,incompatible,2,,,,,,,,0,2,2,2,1,0,1,0,0,7,7,7,,,,,,,,,,,,,,,,,,,,,,,,,,,,,,,,,,,445.64445479999995,445.844342700002,445.82903690001694,446.1285998999956,446.1285998999956,None,446.6296107000089,None,d,1,0.6470622000051662,446.6296107000089,None,None,None,447.2964528000157,None,,,,,,,,,,,,,,,,,,,,,11033,1,1,2024_May_31_1502,stroop_task_switching2,2021.2.3,59.69283262482226,
condition/block_mixed,instruction/instr_mixed,instruction/i10,绿,blue,k,square,color_mix,单词,,incompatible,1,,,,,,,,0,2,2,2,1,0,1,0,0,8,8,8,,,,,,,,,,,,,,,,,,,,,,,,,,,,,,,,,,,448.2981572000135,448.4994088000094,448.4815314000007,448.7822347000183,448.76637050000136,None,449.2663978000055,None,k,1,0.9621691000065766,449.2663978000055,None,None,None,450.25119540002197,None,,,,,,,,,,,,,,,,,,,,,11033,1,1,2024_May_31_1502,stroop_task_switching2,2021.2.3,59.69283262482226,
condition/block_mixed,instruction/instr_mixed,instruction/i10,蓝,green,k,diamond,color_mix,颜色,,incompatible,2,,,,,,,,0,2,2,2,1,0,1,0,0,9,9,9,,,,,,,,,,,,,,,,,,,,,,,,,,,,,,,,,,,451.252509700018,451.45285660002264,451.4379375000135,451.73787390001235,451.73787390001235,None,452.23729640000965,None,k,1,1.2553985000122339,452.23729640000965,None,None,None,453.5229498000117,None,,,,,,,,,,,,,,,,,,,,,11033,1,1,2024_May_31_1502,stroop_task_switching2,2021.2.3,59.69283262482226,
condition/block_mixed,instruction/instr_mixed,instruction/i10,蓝,yellow,f,square,color_mix,单词,,incompatible,2,,,,,,,,0,2,2,2,1,0,1,0,0,10,10,10,,,,,,,,,,,,,,,,,,,,,,,,,,,,,,,,,,,454.5249365000054,454.7257515999954,454.70758630000637,455.00857770000584,455.00857770000584,None,455.508980100014,None,f,1,1.4717356000037398,455.508980100014,None,None,None,457.01112100001774,None,,,,,,,,,,,,,,,,,,,,,11033,1,1,2024_May_31_1502,stroop_task_switching2,2021.2.3,59.69283262482226,
condition/block_mixed,instruction/instr_mixed,instruction/i10,蓝,green,f,square,color_mix,单词,,incompatible,1,,,,,,,,0,2,2,2,1,0,1,0,0,11,11,11,,,,,,,,,,,,,,,,,,,,,,,,,,,,,,,,,,,458.01371389999986,458.21307210001396,458.1965851999994,458.49835800001165,458.49835800001165,None,458.99781359999906,None,f,1,1.607475600001635,458.99781359999906,None,None,None,460.6332933999947,None,,,,,,,,,,,,,,,,,,,,,11033,1,1,2024_May_31_1502,stroop_task_switching2,2021.2.3,59.69283262482226,
condition/block_mixed,instruction/instr_mixed,instruction/i10,绿,yellow,k,square,color_mix,单词,,incompatible,1,,,,,,,,0,2,2,2,1,0,1,0,0,12,12,12,,,,,,,,,,,,,,,,,,,,,,,,,,,,,,,,,,,461.63481260000844,461.836400900007,461.8184269000194,462.1196487999987,462.1196487999987,None,462.62069390001125,None,k,1,1.416161999979522,462.62069390001125,None,None,None,464.0550717000151,None,,,,,,,,,,,,,,,,,,,,,11033,1,1,2024_May_31_1502,stroop_task_switching2,2021.2.3,59.69283262482226,
condition/block_mixed,instruction/instr_mixed,instruction/i10,绿,blue,f,diamond,color_mix,颜色,,incompatible,2,,,,,,,,0,2,2,2,1,0,1,0,0,13,13,13,,,,,,,,,,,,,,,,,,,,,,,,,,,,,,,,,,,465.0565889000136,465.2582810000167,465.24024300000747,465.54114800001844,465.54114800001844,None,466.04133370000636,None,f,1,1.0354350999987219,466.04133370000636,None,None,None,467.09285800001817,None,,,,,,,,,,,,,,,,,,,,,11033,1,1,2024_May_31_1502,stroop_task_switching2,2021.2.3,59.69283262482226,
condition/block_mixed,instruction/instr_mixed,instruction/i10,黄,red,j,square,color_mix,单词,,incompatible,2,,,,,,,,0,2,2,2,1,0,1,0,0,14,14,14,,,,,,,,,,,,,,,,,,,,,,,,,,,,,,,,,,,468.0948669000063,468.2955848000129,468.2780182000133,468.5794114000164,468.5794114000164,None,469.0797247000155,None,j,1,1.3498528999916743,469.0797247000155,None,None,None,470.448789600021,None,,,,,,,,,,,,,,,,,,,,,11033,1,1,2024_May_31_1502,stroop_task_switching2,2021.2.3,59.69283262482226,
condition/block_mixed,instruction/instr_mixed,instruction/i10,蓝,yellow,j,diamond,color_mix,颜色,,incompatible,2,,,,,,,,0,2,2,2,1,0,1,0,0,15,15,15,,,,,,,,,,,,,,,,,,,,,,,,,,,,,,,,,,,471.4495584999968,471.6499318999995,471.633614499995,471.9336605000135,471.9336605000135,None,472.4342403000046,475.4389488000015,None,0,,472.4342403000046,475.4389488000015,475.42244049999863,None,475.9898538000125,None,,,,,,,,,,,,,,,,,,,,,11033,1,1,2024_May_31_1502,stroop_task_switching2,2021.2.3,59.69283262482226,
condition/block_mixed,instruction/instr_mixed,instruction/i10,黄,red,d,diamond,color_mix,颜色,,incompatible,1,,,,,,,,0,2,2,2,1,0,1,0,0,16,16,16,,,,,,,,,,,,,,,,,,,,,,,,,,,,,,,,,,,476.9913440000091,477.1915403000021,477.1750893999997,477.47542970001814,477.47542970001814,None,477.9765498000197,None,d,1,1.644543700007489,477.9765498000197,None,None,None,479.6452801999985,None,,,,,,,,,,,,,,,,,,,,,11033,1,1,2024_May_31_1502,stroop_task_switching2,2021.2.3,59.69283262482226,
condition/block_mixed,instruction/instr_mixed,instruction/i10,绿,red,k,square,color_mix,单词,,incompatible,2,,,,,,,,0,2,2,2,1,0,1,0,0,17,17,17,,,,,,,,,,,,,,,,,,,,,,,,,,,,,,,,,,,480.6466469000152,480.84712310001487,480.83117889999994,481.131778400013,481.131778400013,None,481.6318366000196,None,k,1,1.6374806999810971,481.6318366000196,None,None,None,483.30101110000396,None,,,,,,,,,,,,,,,,,,,,,11033,1,1,2024_May_31_1502,stroop_task_switching2,2021.2.3,59.69283262482226,
condition/block_mixed,instruction/instr_mixed,instruction/i10,红,green,d,square,color_mix,单词,,incompatible,1,,,,,,,,0,2,2,2,1,0,1,0,0,18,18,18,,,,,,,,,,,,,,,,,,,,,,,,,,,,,,,,,,,484.30244290002156,484.5037464000052,484.4859970000107,484.7872204000014,484.7872204000014,None,485.2873116999981,None,d,1,1.9341851000208408,485.2873116999981,None,None,None,487.2402025000192,None,,,,,,,,,,,,,,,,,,,,,11033,1,1,2024_May_31_1502,stroop_task_switching2,2021.2.3,59.69283262482226,
condition/block_mixed,instruction/instr_mixed,instruction/i10,黄,blue,f,diamond,color_mix,颜色,,incompatible,2,,,,,,,,0,2,2,2,1,0,1,0,0,19,19,19,,,,,,,,,,,,,,,,,,,,,,,,,,,,,,,,,,,488.2416024999984,488.4427447000053,488.4253110999998,488.7267887000053,488.7267887000053,None,489.22647730002063,None,j,0,1.6589414999762084,489.22647730002063,None,None,None,490.91243210001267,None,,,,,,,,,,,,,,,,,,,,,11033,1,1,2024_May_31_1502,stroop_task_switching2,2021.2.3,59.69283262482226,
condition/block_mixed,instruction/instr_mixed,instruction/i10,黄,green,k,diamond,color_mix,颜色,,incompatible,1,,,,,,,,0,2,2,2,1,0,1,0,0,20,20,20,,,,,,,,,,,,,,,,,,,,,,,,,,,,,,,,,,,491.9143763000029,492.1150554000051,492.0975337999989,492.39841230001184,492.39841230001184,None,492.8986049000232,None,k,1,1.107300400006352,492.8986049000232,None,None,None,494.0334178000048,None,,,,,,,,,,,,,,,,,,,,,11033,1,1,2024_May_31_1502,stroop_task_switching2,2021.2.3,59.69283262482226,
condition/block_mixed,instruction/instr_mixed,instruction/i10,黄,green,j,square,color_mix,单词,,incompatible,2,,,,,,,,0,2,2,2,1,0,1,0,0,21,21,21,,,,,,,,,,,,,,,,,,,,,,,,,,,,,,,,,,,495.03608290001284,495.23548270002357,495.2202113000094,495.53596280000056,495.52092979999725,None,496.02055770001607,None,j,1,1.9771363000036217,496.02055770001607,None,None,None,498.02311400001054,None,,,,,,,,,,,,,,,,,,,,,11033,1,1,2024_May_31_1502,stroop_task_switching2,2021.2.3,59.69283262482226,
condition/block_mixed,instruction/instr_mixed,instruction/i10,黄,blue,j,square,color_mix,单词,,incompatible,1,,,,,,,,0,2,2,2,1,0,1,0,0,22,22,22,,,,,,,,,,,,,,,,,,,,,,,,,,,,,,,,,,,499.0254965000204,499.2247331000108,499.2098315000185,499.52663210002356,499.5086416999984,None,500.009384200006,None,j,1,1.604375599999912,500.009384200006,None,None,None,501.64542010001605,None,,,,,,,,,,,,,,,,,,,,,11033,1,1,2024_May_31_1502,stroop_task_switching2,2021.2.3,59.69283262482226,
condition/block_mixed,instruction/instr_mixed,instruction/i10,蓝,red,f,square,color_mix,单词,,incompatible,1,,,,,,,,0,2,2,2,1,0,1,0,0,23,23,23,,,,,,,,,,,,,,,,,,,,,,,,,,,,,,,,,,,502.6479196000146,502.8480219000194,502.8303219000227,503.131140100013,503.131140100013,None,503.6314912000089,None,f,1,1.9343045999994501,503.6314912000089,None,None,None,505.584474400006,None,,,,,,,,,,,,,,,,,,,,,11033,1,1,2024_May_31_1502,stroop_task_switching2,2021.2.3,59.69283262482226,
condition/block_mixed,instruction/instr_mixed,instruction/i10,绿,red,d,diamond,color_mix,颜色,,incompatible,2,,,,,,,,0,2,2,2,1,0,1,0,0,24,24,24,,,,,,,,,,,,,,,,,,,,,,,,,,,,,,,,,,,506.5859062000236,506.7871928999957,506.76944890001323,507.0697575000231,507.0697575000231,None,507.5708774999948,None,d,1,0.94739000001573,507.5708774999948,None,None,None,508.5387292999949,None,,,,,,,,,,,,,,,,,,,,,11033,1,1,2024_May_31_1502,stroop_task_switching2,2021.2.3,59.69283262482226,
condition/block_mixed,instruction/instr_mixed,instruction/i10,绿,green,k,diamond,color_mix,颜色,,compatible,1,,,,,,,,0,2,2,2,1,0,1,0,0,25,25,25,,,,,,,,,,,,,,,,,,,,,,,,,,,,,,,,,,,509.5403370000131,509.7413637000136,509.7245824999991,510.0247668000229,510.0247668000229,None,510.525192400004,None,k,1,0.7769029000191949,510.525192400004,None,None,None,511.3264521000092,None,,,,,,,,,,,,,,,,,,,,,11033,1,1,2024_May_31_1502,stroop_task_switching2,2021.2.3,59.69283262482226,
condition/block_mixed,instruction/instr_mixed,instruction/i10,蓝,blue,f,diamond,color_mix,颜色,,compatible,1,,,,,,,,0,2,2,2,1,0,1,0,0,26,26,26,,,,,,,,,,,,,,,,,,,,,,,,,,,,,,,,,,,512.328124200023,512.529094700003,512.5116378999955,512.8122873000102,512.8122873000102,None,513.3128340000112,None,f,1,0.941412100015441,513.3128340000112,None,None,None,514.281070099998,None,,,,,,,,,,,,,,,,,,,,,11033,1,1,2024_May_31_1502,stroop_task_switching2,2021.2.3,59.69283262482226,
condition/block_mixed,instruction/instr_mixed,instruction/i10,绿,green,k,square,color_mix,单词,,compatible,2,,,,,,,,0,2,2,2,1,0,1,0,0,27,27,27,,,,,,,,,,,,,,,,,,,,,,,,,,,,,,,,,,,515.2824519000133,515.4837075000105,515.4660028000071,515.7671078999992,515.7671078999992,None,516.2671900000132,None,j,0,0.9232918999914546,516.2671900000132,None,None,None,517.2186857000052,None,,,,,,,,,,,,,,,,,,,,,11033,1,1,2024_May_31_1502,stroop_task_switching2,2021.2.3,59.69283262482226,
condition/block_mixed,instruction/instr_mixed,instruction/i10,绿,green,k,square,color_mix,单词,,compatible,1,,,,,,,,0,2,2,2,1,0,1,0,0,28,28,28,,,,,,,,,,,,,,,,,,,,,,,,,,,,,,,,,,,518.220169600012,518.4204384000041,518.4043637000141,518.704241200001,518.704241200001,None,519.2049713000015,None,k,1,0.7134106000012252,519.2049713000015,None,None,None,519.9393132000114,None,,,,,,,,,,,,,,,,,,,,,11033,1,1,2024_May_31_1502,stroop_task_switching2,2021.2.3,59.69283262482226,
condition/block_mixed,instruction/instr_mixed,instruction/i10,蓝,blue,f,square,color_mix,单词,,compatible,1,,,,,,,,0,2,2,2,1,0,1,0,0,29,29,29,,,,,,,,,,,,,,,,,,,,,,,,,,,,,,,,,,,520.9417873000202,521.1423607000033,521.1249667000084,521.4249324999982,521.4249324999982,None,521.9270340000221,None,f,1,0.6878224000101909,521.9270340000221,None,None,None,522.6434740000113,None,,,,,,,,,,,,,,,,,,,,,11033,1,1,2024_May_31_1502,stroop_task_switching2,2021.2.3,59.69283262482226,
condition/block_mixed,instruction/instr_mixed,instruction/i10,黄,yellow,j,diamond,color_mix,颜色,,compatible,2,,,,,,,,0,2,2,2,1,0,1,0,0,30,30,30,,,,,,,,,,,,,,,,,,,,,,,,,,,,,,,,,,,523.6448800000071,523.8467119999987,523.8287401999987,524.1300176000223,524.1300176000223,None,524.6303797000146,None,j,1,1.2721513000142295,524.6303797000146,None,None,None,525.93267010001,None,,,,,,,,,,,,,,,,,,,,,11033,1,1,2024_May_31_1502,stroop_task_switching2,2021.2.3,59.69283262482226,
condition/block_mixed,instruction/instr_mixed,instruction/i10,绿,green,k,square,color_mix,单词,,compatible,2,,,,,,,,0,2,2,2,1,0,1,0,0,31,31,31,,,,,,,,,,,,,,,,,,,,,,,,,,,,,,,,,,,526.9331878999947,527.1340375000145,527.1168744000024,527.4175070000056,527.4175070000056,None,527.918145100004,None,j,0,0.5604533000150695,527.918145100004,None,None,None,528.5023455000191,None,,,,,,,,,,,,,,,,,,,,,11033,1,1,2024_May_31_1502,stroop_task_switching2,2021.2.3,59.69283262482226,
condition/block_mixed,instruction/instr_mixed,instruction/i10,黄,yellow,j,square,color_mix,单词,,compatible,1,,,,,,,,0,2,2,2,1,0,1,0,0,32,32,32,,,,,,,,,,,,,,,,,,,,,,,,,,,,,,,,,,,529.5038440000208,529.7040190999978,529.6874349999998,529.9882054000045,529.9882054000045,None,530.4886121000163,None,j,1,0.9021992999769282,530.4886121000163,None,None,None,531.4077591999958,None,,,,,,,,,,,,,,,,,,,,,11033,1,1,2024_May_31_1502,stroop_task_switching2,2021.2.3,59.69283262482226,
condition/block_mixed,instruction/instr_mixed,instruction/i10,绿,green,k,diamond,color_mix,颜色,,compatible,2,,,,,,,,0,2,2,2,1,0,1,0,0,33,33,33,,,,,,,,,,,,,,,,,,,,,,,,,,,,,,,,,,,532.4082049000135,532.6104483999952,532.5918734000006,532.8933698000037,532.8933698000037,None,533.3929823000217,None,k,1,0.6298835999914445,533.3929823000217,None,None,None,534.0437376000045,None,,,,,,,,,,,,,,,,,,,,,11033,1,1,2024_May_31_1502,stroop_task_switching2,2021.2.3,59.69283262482226,
condition/block_mixed,instruction/instr_mixed,instruction/i10,红,red,d,square,color_mix,单词,,compatible,2,,,,,,,,0,2,2,2,1,0,1,0,0,34,34,34,,,,,,,,,,,,,,,,,,,,,,,,,,,,,,,,,,,535.0454820000159,535.2458499000059,535.2297108000203,535.5307516000175,535.5307516000175,None,536.0304998000211,None,d,1,0.7921935000049416,536.0304998000211,None,None,None,536.8481452999986,None,,,,,,,,,,,,,,,,,,,,,11033,1,1,2024_May_31_1502,stroop_task_switching2,2021.2.3,59.69283262482226,
condition/block_mixed,instruction/instr_mixed,instruction/i10,黄,yellow,j,square,color_mix,单词,,compatible,1,,,,,,,,0,2,2,2,1,0,1,0,0,35,35,35,,,,,,,,,,,,,,,,,,,,,,,,,,,,,,,,,,,537.8498605000204,538.0512994000164,538.0334825000027,538.3345033000223,538.3345033000223,None,538.8344548000023,None,j,1,0.7961877000052482,538.8344548000023,None,None,None,539.652600100002,None,,,,,,,,,,,,,,,,,,,,,11033,1,1,2024_May_31_1502,stroop_task_switching2,2021.2.3,59.69283262482226,
condition/block_mixed,instruction/instr_mixed,instruction/i10,绿,green,k,diamond,color_mix,颜色,,compatible,2,,,,,,,,0,2,2,2,1,0,1,0,0,36,36,36,,,,,,,,,,,,,,,,,,,,,,,,,,,,,,,,,,,540.6538931000105,540.8543339000025,540.8382998000016,541.1386297999998,541.1386297999998,None,541.6387443999993,None,k,1,0.6323087999771815,541.6387443999993,None,None,None,542.2897379000206,None,,,,,,,,,,,,,,,,,,,,,11033,1,1,2024_May_31_1502,stroop_task_switching2,2021.2.3,59.69283262482226,
condition/block_mixed,instruction/instr_mixed,instruction/i10,蓝,blue,f,square,color_mix,单词,,compatible,2,,,,,,,,0,2,2,2,1,0,1,0,0,37,37,37,,,,,,,,,,,,,,,,,,,,,,,,,,,,,,,,,,,543.2911912999989,543.491809500003,543.4759789000091,543.7752105999971,543.7752105999971,None,544.2760467000189,None,f,1,1.019012799981283,544.2760467000189,None,None,None,545.3110642000102,None,,,,,,,,,,,,,,,,,,,,,11033,1,1,2024_May_31_1502,stroop_task_switching2,2021.2.3,59.69283262482226,
condition/block_mixed,instruction/instr_mixed,instruction/i10,红,red,d,square,color_mix,单词,,compatible,1,,,,,,,,0,2,2,2,1,0,1,0,0,38,38,38,,,,,,,,,,,,,,,,,,,,,,,,,,,,,,,,,,,546.3125592000142,546.5136628000182,546.4963020000141,546.7973822000204,546.7973822000204,None,547.2974590000231,None,d,1,0.9336210000037681,547.2974590000231,None,None,None,548.2488492999983,None,,,,,,,,,,,,,,,,,,,,,11033,1,1,2024_May_31_1502,stroop_task_switching2,2021.2.3,59.69283262482226,
condition/block_mixed,instruction/instr_mixed,instruction/i10,黄,yellow,j,diamond,color_mix,颜色,,compatible,2,,,,,,,,0,2,2,2,1,0,1,0,0,39,39,39,,,,,,,,,,,,,,,,,,,,,,,,,,,,,,,,,,,549.2516430999967,549.4681095000124,549.4337650999951,549.7358126000036,549.7358126000036,None,550.2359827000182,None,j,1,0.6432458000199404,550.2359827000182,None,None,None,550.9028805000125,None,,,,,,,,,,,,,,,,,,,,,11033,1,1,2024_May_31_1502,stroop_task_switching2,2021.2.3,59.69283262482226,
condition/block_mixed,instruction/instr_mixed,instruction/i10,黄,yellow,j,square,color_mix,单词,,compatible,2,,,,,,,,0,2,2,2,1,0,1,0,0,40,40,40,,,,,,,,,,,,,,,,,,,,,,,,,,,,,,,,,,,551.9042289000063,552.1045272000192,552.0881165000028,552.3894604000088,552.3894604000088,None,552.8892994000053,None,j,1,0.5737907000002451,552.8892994000053,None,None,None,553.4898646000074,None,,,,,,,,,,,,,,,,,,,,,11033,1,1,2024_May_31_1502,stroop_task_switching2,2021.2.3,59.69283262482226,
condition/block_mixed,instruction/instr_mixed,instruction/i10,蓝,blue,f,square,color_mix,单词,,compatible,1,,,,,,,,0,2,2,2,1,0,1,0,0,41,41,41,,,,,,,,,,,,,,,,,,,,,,,,,,,,,,,,,,,554.4919365000096,554.6923696000013,554.6765934000141,554.9763683000056,554.9763683000056,None,555.4765112000168,None,f,1,0.5790203000069596,555.4765112000168,None,None,None,556.0781716000056,None,,,,,,,,,,,,,,,,,,,,,11033,1,1,2024_May_31_1502,stroop_task_switching2,2021.2.3,59.69283262482226,
condition/block_mixed,instruction/instr_mixed,instruction/i10,蓝,blue,f,diamond,color_mix,颜色,,compatible,2,,,,,,,,0,2,2,2,1,0,1,0,0,42,42,42,,,,,,,,,,,,,,,,,,,,,,,,,,,,,,,,,,,557.0787081000162,557.2799242000037,557.2623739000119,557.5639738000173,557.5639738000173,None,558.063390700001,None,f,1,0.5117504000081681,558.063390700001,None,None,None,558.5977167999954,None,,,,,,,,,,,,,,,,,,,,,11033,1,1,2024_May_31_1502,stroop_task_switching2,2021.2.3,59.69283262482226,
condition/block_mixed,instruction/instr_mixed,instruction/i10,黄,yellow,j,diamond,color_mix,颜色,,compatible,1,,,,,,,,0,2,2,2,1,0,1,0,0,43,43,43,,,,,,,,,,,,,,,,,,,,,,,,,,,,,,,,,,,559.5996778999979,559.8007368000108,559.7827702000213,560.0855727000162,560.0855727000162,None,560.58410800001,None,j,1,0.7433650000020862,560.58410800001,None,None,None,561.35194220001,None,,,,,,,,,,,,,,,,,,,,,11033,1,1,2024_May_31_1502,stroop_task_switching2,2021.2.3,59.69283262482226,
condition/block_mixed,instruction/instr_mixed,instruction/i10,红,red,d,diamond,color_mix,颜色,,compatible,1,,,,,,,,0,2,2,2,1,0,1,0,0,44,44,44,,,,,,,,,,,,,,,,,,,,,,,,,,,,,,,,,,,562.3534996000235,562.5552901000192,562.5370865000004,562.8392853999976,562.8392853999976,None,563.3387927000003,None,d,1,0.588646999996854,563.3387927000003,None,None,None,563.9555550000223,None,,,,,,,,,,,,,,,,,,,,,11033,1,1,2024_May_31_1502,stroop_task_switching2,2021.2.3,59.69283262482226,
condition/block_mixed,instruction/instr_mixed,instruction/i10,蓝,blue,f,diamond,color_mix,颜色,,compatible,1,,,,,,,,0,2,2,2,1,0,1,0,0,45,45,45,,,,,,,,,,,,,,,,,,,,,,,,,,,,,,,,,,,564.9575308000203,565.1595519999973,565.1408962999994,565.4423525000166,565.4423525000166,None,565.9426643000043,None,f,1,0.6248826000082772,565.9426643000043,None,None,None,566.5930874000187,None,,,,,,,,,,,,,,,,,,,,,11033,1,1,2024_May_31_1502,stroop_task_switching2,2021.2.3,59.69283262482226,
condition/block_mixed,instruction/instr_mixed,instruction/i10,红,red,d,diamond,color_mix,颜色,,compatible,1,,,,,,,,0,2,2,2,1,0,1,0,0,46,46,46,,,,,,,,,,,,,,,,,,,,,,,,,,,,,,,,,,,567.594514299999,567.7959399000101,567.7780518000072,568.0786467000144,568.0786467000144,None,568.5794152000162,None,d,1,0.6842961999936961,568.5794152000162,None,None,None,569.2805420000223,None,,,,,,,,,,,,,,,,,,,,,11033,1,1,2024_May_31_1502,stroop_task_switching2,2021.2.3,59.69283262482226,
condition/block_mixed,instruction/instr_mixed,instruction/i10,红,red,d,square,color_mix,单词,,compatible,2,,,,,,,,0,2,2,2,1,0,1,0,0,47,47,47,,,,,,,,,,,,,,,,,,,,,,,,,,,,,,,,,,,570.2819104000228,570.4826797000133,570.4674038999947,570.7668012000213,570.7668012000213,None,571.2676404000085,None,d,1,0.5165111999958754,571.2676404000085,None,None,None,571.8010293999978,None,,,,,,,,,,,,,,,,,,,,,11033,1,1,2024_May_31_1502,stroop_task_switching2,2021.2.3,59.69283262482226,
condition/block_mixed,instruction/instr_mixed,instruction/i10,红,red,d,diamond,color_mix,颜色,,compatible,2,,,,,,,,0,2,2,2,1,0,1,0,0,48,48,48,,,,,,,,,,,,,,,,,,,,,,,,,,,,,,,,,,,572.8024868000066,573.0027220000047,572.9861077000096,573.2874608999991,573.2874608999991,None,573.7877962000202,None,d,1,0.7561956999998074,573.7877962000202,None,None,None,574.5716640000173,None,,,,,,,,,,,,,,,,,,,,,11033,1,1,2024_May_31_1502,stroop_task_switching2,2021.2.3,59.69283262482226,
condition/block_mixed,instruction/instr_mixed,instruction/i10,,,,,,,,,,,,,,,,,0,2,2,2,1,0,1,0,,,,,,,,,,,,,,,,,,,,,,,,,,,,,,,,,,,,,,,,,,,,,,,,,,,,,,,,575.5733204999997,None,space,4.5314241999876685,575.5733204999997,None,,,,,,,,,,,,,,,11033,1,1,2024_May_31_1502,stroop_task_switching2,2021.2.3,59.69283262482226,
condition/block_mixed,instruction/instr_mixed,instruction/i10,,,,,,,,,,,,,,,,,0,2,2,2,,,,,,,,,,,,,,,,,,,,,,,,,,,,,,,,,,,,,,,,,,,,,,,,,,,,,,,,,,,,,,,,,,,,,,,,,,,,,,,,11033,1,1,2024_May_31_1502,stroop_task_switching2,2021.2.3,59.69283262482226,
,,,红,red,d,square,color_mix,单词,,compatible,0,block_switch1,instruction/ready_test.png,instruction/i11.png,,,,,,,,,,,,,,,,,0,0,0,0,0,0,0,0,,,,,,,,,,,,,,,,,,,584.2371490000223,585.2381317999971,585.2210194000218,586.2248625000066,586.2393755000085,None,583.2515409000043,584.2538856000174,587.2571664999996,587.459356700012,587.459356700012,587.7587533000042,587.7587533000042,None,588.2590510000009,None,d,1,0.8052730000053998,588.2590510000009,None,None,None,,,,,,,,,580.163890900003,None,space,3.060233199998038,580.163890900003,None,,,,,,,,,11033,1,1,2024_May_31_1502,stroop_task_switching2,2021.2.3,59.69283262482226,
,,,绿,green,k,diamond,color_mix,颜色,,compatible,2,block_switch1,instruction/ready_test.png,instruction/i11.png,,,,,,,,,,,,,,,,,0,0,0,0,0,1,1,1,,,,,,,,,,,,,,,,,,,,,,,,,,,589.094268100016,589.2940307999961,589.2787354000029,589.5789332000131,589.5789332000131,None,590.0795918000222,None,k,1,0.9606613999931142,590.0795918000222,None,None,None,,,,,,,,,,,,,,,,,,,,,,,11033,1,1,2024_May_31_1502,stroop_task_switching2,2021.2.3,59.69283262482226,
,,,绿,yellow,j,diamond,color_mix,颜色,,incompatible,1,block_switch1,instruction/ready_test.png,instruction/i11.png,,,,,,,,,,,,,,,,,0,0,0,0,0,2,2,2,,,,,,,,,,,,,,,,,,,,,,,,,,,591.0636607000197,591.2642773000116,591.2483192000072,591.5644391000096,591.5474091000215,None,592.0481221000082,None,j,1,1.1922791999822948,592.0481221000082,None,None,None,,,,,,,,,,,,,,,,,,,,,,,11033,1,1,2024_May_31_1502,stroop_task_switching2,2021.2.3,59.69283262482226,
,,,蓝,blue,f,diamond,color_mix,颜色,,compatible,1,block_switch1,instruction/ready_test.png,instruction/i11.png,,,,,,,,,,,,,,,,,0,0,0,0,0,3,3,3,,,,,,,,,,,,,,,,,,,,,,,,,,,593.2668146000069,593.4673767000204,593.4503491000214,593.7524220000196,593.7524220000196,None,594.2515553999983,None,f,1,0.5651874000031967,594.2515553999983,None,None,None,,,,,,,,,,,,,,,,,,,,,,,11033,1,1,2024_May_31_1502,stroop_task_switching2,2021.2.3,59.69283262482226,
,,,绿,green,k,square,color_mix,单词,,compatible,2,block_switch1,instruction/ready_test.png,instruction/i11.png,,,,,,,,,,,,,,,,,0,0,0,0,0,4,4,4,,,,,,,,,,,,,,,,,,,,,,,,,,,594.8357434000063,595.0359572000161,595.0197088000132,595.3200735000137,595.3200735000137,None,595.8204782000103,None,k,1,0.9801862000022084,595.8204782000103,None,None,None,,,,,,,,,,,,,,,,,,,,,,,11033,1,1,2024_May_31_1502,stroop_task_switching2,2021.2.3,59.69283262482226,
,,,绿,blue,f,diamond,color_mix,颜色,,incompatible,2,block_switch1,instruction/ready_test.png,instruction/i11.png,,,,,,,,,,,,,,,,,0,0,0,0,0,5,5,5,,,,,,,,,,,,,,,,,,,,,,,,,,,596.8220841000148,597.02371150002,597.005545699998,597.3060024000006,597.3060024000006,None,597.8067977000028,None,f,1,1.1217243999999482,597.8067977000028,None,None,None,,,,,,,,,,,,,,,,,,,,,,,11033,1,1,2024_May_31_1502,stroop_task_switching2,2021.2.3,59.69283262482226,
,,,黄,red,j,square,color_mix,单词,,incompatible,2,block_switch1,instruction/ready_test.png,instruction/i11.png,,,,,,,,,,,,,,,,,0,0,0,0,0,6,6,6,,,,,,,,,,,,,,,,,,,,,,,,,,,598.9584928000113,599.1589720000047,599.142857400002,599.4431089000136,599.4431089000136,None,599.9434438000026,None,j,1,1.9131360999890603,599.9434438000026,None,None,None,,,,,,,,,,,,,,,,,,,,,,,11033,1,1,2024_May_31_1502,stroop_task_switching2,2021.2.3,59.69283262482226,
,,,绿,green,k,square,color_mix,单词,,compatible,1,block_switch1,instruction/ready_test.png,instruction/i11.png,,,,,,,,,,,,,,,,,0,0,0,0,0,7,7,7,,,,,,,,,,,,,,,,,,,,,,,,,,,601.8803343000181,602.0798637999978,602.0635617000225,602.364541500021,602.364541500021,None,602.8645715000166,None,k,1,0.7280572000017855,602.8645715000166,None,None,None,,,,,,,,,,,,,,,,,,,,,,,11033,1,1,2024_May_31_1502,stroop_task_switching2,2021.2.3,59.69283262482226,
,,,蓝,blue,f,square,color_mix,单词,,compatible,1,block_switch1,instruction/ready_test.png,instruction/i11.png,,,,,,,,,,,,,,,,,0,0,0,0,0,8,8,8,,,,,,,,,,,,,,,,,,,,,,,,,,,603.6157314000011,603.8175027999969,603.7997015000146,604.100179800007,604.100179800007,None,604.6006724000035,None,f,1,0.7198134000063874,604.6006724000035,None,None,None,,,,,,,,,,,,,,,,,,,,,,,11033,1,1,2024_May_31_1502,stroop_task_switching2,2021.2.3,59.69283262482226,
,,,红,red,d,diamond,color_mix,颜色,,compatible,2,block_switch1,instruction/ready_test.png,instruction/i11.png,,,,,,,,,,,,,,,,,0,0,0,0,0,9,9,9,,,,,,,,,,,,,,,,,,,,,,,,,,,605.3517713000183,605.552514400013,605.5360367000103,605.8358246000134,605.8358246000134,None,606.3364083000051,None,d,1,0.6890615999873262,606.3364083000051,None,None,None,,,,,,,,,,,,,,,,,,,,,,,11033,1,1,2024_May_31_1502,stroop_task_switching2,2021.2.3,59.69283262482226,
,,,黄,yellow,j,diamond,color_mix,颜色,,compatible,1,block_switch1,instruction/ready_test.png,instruction/i11.png,,,,,,,,,,,,,,,,,0,0,0,0,0,10,10,10,,,,,,,,,,,,,,,,,,,,,,,,,,,607.0538976000098,607.2543987999961,607.2382551000046,607.5381576000073,607.5381576000073,None,608.0388573000091,None,j,1,1.7057104000123218,608.0388573000091,None,None,None,,,,,,,,,,,,,,,,,,,,,,,11033,1,1,2024_May_31_1502,stroop_task_switching2,2021.2.3,59.69283262482226,
,,,绿,green,k,square,color_mix,单词,,compatible,2,block_switch1,instruction/ready_test.png,instruction/i11.png,,,,,,,,,,,,,,,,,0,0,0,0,0,11,11,11,,,,,,,,,,,,,,,,,,,,,,,,,,,609.7748120000178,609.9750775000139,609.9586455000099,610.2598299999954,610.2598299999954,None,610.75982810001,None,k,1,1.721858799981419,610.75982810001,None,None,None,,,,,,,,,,,,,,,,,,,,,,,11033,1,1,2024_May_31_1502,stroop_task_switching2,2021.2.3,59.69283262482226,
,,,红,red,d,diamond,color_mix,颜色,,compatible,2,block_switch1,instruction/ready_test.png,instruction/i11.png,,,,,,,,,,,,,,,,,0,0,0,0,0,12,12,12,,,,,,,,,,,,,,,,,,,,,,,,,,,612.4953746999963,612.6968448999978,612.6791794000019,612.9803238000022,612.9803238000022,None,613.4802311999956,None,d,1,0.857167300011497,613.4802311999956,None,None,None,,,,,,,,,,,,,,,,,,,,,,,11033,1,1,2024_May_31_1502,stroop_task_switching2,2021.2.3,59.69283262482226,
,,,红,red,d,diamond,color_mix,颜色,,compatible,1,block_switch1,instruction/ready_test.png,instruction/i11.png,,,,,,,,,,,,,,,,,0,0,0,0,0,13,13,13,,,,,,,,,,,,,,,,,,,,,,,,,,,614.3654343000089,614.5652619000175,614.5487520000024,614.8506445999956,614.8506445999956,None,615.3500449999992,None,d,1,0.5632353000110015,615.3500449999992,None,None,None,,,,,,,,,,,,,,,,,,,,,,,11033,1,1,2024_May_31_1502,stroop_task_switching2,2021.2.3,59.69283262482226,
,,,黄,yellow,j,square,color_mix,单词,,compatible,2,block_switch1,instruction/ready_test.png,instruction/i11.png,,,,,,,,,,,,,,,,,0,0,0,0,0,14,14,14,,,,,,,,,,,,,,,,,,,,,,,,,,,615.9342889999971,616.1368780000194,616.1184889000142,616.4194286999991,616.4194286999991,None,616.9189514000027,None,j,1,0.7944035000109579,616.9189514000027,None,None,None,,,,,,,,,,,,,,,,,,,,,,,11033,1,1,2024_May_31_1502,stroop_task_switching2,2021.2.3,59.69283262482226,
,,,红,green,k,diamond,color_mix,颜色,,incompatible,2,block_switch1,instruction/ready_test.png,instruction/i11.png,,,,,,,,,,,,,,,,,0,0,0,0,0,15,15,15,,,,,,,,,,,,,,,,,,,,,,,,,,,617.7370386999974,617.9385189000168,617.9205422000086,618.2219472000143,618.2219472000143,None,618.7217208000075,None,k,1,2.127394799987087,618.7217208000075,None,None,None,,,,,,,,,,,,,,,,,,,,,,,11033,1,1,2024_May_31_1502,stroop_task_switching2,2021.2.3,59.69283262482226,
,,,蓝,red,d,diamond,color_mix,颜色,,incompatible,1,block_switch1,instruction/ready_test.png,instruction/i11.png,,,,,,,,,,,,,,,,,0,0,0,0,0,16,16,16,,,,,,,,,,,,,,,,,,,,,,,,,,,620.8743690999981,621.0762224000064,621.0584971000208,621.359082800016,621.359082800016,None,621.8598619000113,None,d,1,1.8773901000095066,621.8598619000113,None,None,None,,,,,,,,,,,,,,,,,,,,,,,11033,1,1,2024_May_31_1502,stroop_task_switching2,2021.2.3,59.69283262482226,
,,,黄,green,k,diamond,color_mix,颜色,,incompatible,1,block_switch1,instruction/ready_test.png,instruction/i11.png,,,,,,,,,,,,,,,,,0,0,0,0,0,17,17,17,,,,,,,,,,,,,,,,,,,,,,,,,,,623.7625157000148,623.9637896000058,623.9462600999977,624.2484689000121,624.2484689000121,None,624.74768890001,None,k,1,2.597633400000632,624.74768890001,None,None,None,,,,,,,,,,,,,,,,,,,,,,,11033,1,1,2024_May_31_1502,stroop_task_switching2,2021.2.3,59.69283262482226,
,,,绿,green,k,diamond,color_mix,颜色,,compatible,1,block_switch1,instruction/ready_test.png,instruction/i11.png,,,,,,,,,,,,,,,,,0,0,0,0,0,18,18,18,,,,,,,,,,,,,,,,,,,,,,,,,,,627.3680858000007,627.5696664999996,627.5517232000129,627.8520732000179,627.8520732000179,None,628.352981700009,None,k,1,0.7923158000048716,628.352981700009,None,None,None,,,,,,,,,,,,,,,,,,,,,,,11033,1,1,2024_May_31_1502,stroop_task_switching2,2021.2.3,59.69283262482226,
,,,黄,red,d,diamond,color_mix,颜色,,incompatible,1,block_switch1,instruction/ready_test.png,instruction/i11.png,,,,,,,,,,,,,,,,,0,0,0,0,0,19,19,19,,,,,,,,,,,,,,,,,,,,,,,,,,,629.1708550000039,629.3719088000071,629.3544246999954,629.6552431000164,629.6552431000164,None,630.1554371000093,None,d,1,0.9019459999981336,630.1554371000093,None,None,None,,,,,,,,,,,,,,,,,,,,,,,11033,1,1,2024_May_31_1502,stroop_task_switching2,2021.2.3,59.69283262482226,
,,,绿,yellow,k,square,color_mix,单词,,incompatible,2,block_switch1,instruction/ready_test.png,instruction/i11.png,,,,,,,,,,,,,,,,,0,0,0,0,0,20,20,20,,,,,,,,,,,,,,,,,,,,,,,,,,,631.0735270000005,631.2738830000162,631.2585135000118,631.5588763999986,631.5588763999986,None,632.0584152000083,None,k,1,0.7514776999887545,632.0584152000083,None,None,None,,,,,,,,,,,,,,,,,,,,,,,11033,1,1,2024_May_31_1502,stroop_task_switching2,2021.2.3,59.69283262482226,
,,,绿,yellow,j,diamond,color_mix,颜色,,incompatible,2,block_switch1,instruction/ready_test.png,instruction/i11.png,,,,,,,,,,,,,,,,,0,0,0,0,0,21,21,21,,,,,,,,,,,,,,,,,,,,,,,,,,,632.826242900017,633.0264751000213,633.0111060000199,633.310686700017,633.310686700017,None,633.8118523000157,None,j,1,0.973429900011979,633.8118523000157,None,None,None,,,,,,,,,,,,,,,,,,,,,,,11033,1,1,2024_May_31_1502,stroop_task_switching2,2021.2.3,59.69283262482226,
,,,绿,green,k,square,color_mix,单词,,compatible,2,block_switch1,instruction/ready_test.png,instruction/i11.png,,,,,,,,,,,,,,,,,0,0,0,0,0,22,22,22,,,,,,,,,,,,,,,,,,,,,,,,,,,634.8124918999965,635.0149926000158,634.9963768000016,635.2965863000136,635.2965863000136,None,635.7980805000116,None,k,1,0.8515069999848492,635.7980805000116,None,None,None,,,,,,,,,,,,,,,,,,,,,,,11033,1,1,2024_May_31_1502,stroop_task_switching2,2021.2.3,59.69283262482226,
,,,红,red,d,square,color_mix,单词,,compatible,1,block_switch1,instruction/ready_test.png,instruction/i11.png,,,,,,,,,,,,,,,,,0,0,0,0,0,23,23,23,,,,,,,,,,,,,,,,,,,,,,,,,,,636.6656987000024,636.8665098000201,636.8512600999966,637.166136600019,637.149275600008,None,637.6502815000131,None,d,1,0.8156224000267684,637.6502815000131,None,None,None,,,,,,,,,,,,,,,,,,,,,,,11033,1,1,2024_May_31_1502,stroop_task_switching2,2021.2.3,59.69283262482226,
,,,黄,green,j,square,color_mix,单词,,incompatible,1,block_switch1,instruction/ready_test.png,instruction/i11.png,,,,,,,,,,,,,,,,,0,0,0,0,0,24,24,24,,,,,,,,,,,,,,,,,,,,,,,,,,,638.4850230000156,638.685917099996,638.6684333000157,638.9685853999981,638.9685853999981,None,639.4698150000186,None,j,1,0.7480160999984946,639.4698150000186,None,None,None,,,,,,,,,,,,,,,,,,,,,,,11033,1,1,2024_May_31_1502,stroop_task_switching2,2021.2.3,59.69283262482226,
,,,红,blue,d,square,color_mix,单词,,incompatible,1,block_switch1,instruction/ready_test.png,instruction/i11.png,,,,,,,,,,,,,,,,,0,0,0,0,0,25,25,25,,,,,,,,,,,,,,,,,,,,,,,,,,,640.2373532000056,640.4385140000086,640.4234932000109,640.738953299995,640.7216198999959,None,641.2225292000221,None,d,1,1.067333700018935,641.2225292000221,None,None,None,,,,,,,,,,,,,,,,,,,,,,,11033,1,1,2024_May_31_1502,stroop_task_switching2,2021.2.3,59.69283262482226,
,,,黄,yellow,j,square,color_mix,单词,,compatible,1,block_switch1,instruction/ready_test.png,instruction/i11.png,,,,,,,,,,,,,,,,,0,0,0,0,0,26,26,26,,,,,,,,,,,,,,,,,,,,,,,,,,,642.3071320000163,642.5082151000097,642.492345000006,642.7912055000197,642.7912055000197,None,643.2920544000226,None,j,1,0.7900684000051115,643.2920544000226,None,None,None,,,,,,,,,,,,,,,,,,,,,,,11033,1,1,2024_May_31_1502,stroop_task_switching2,2021.2.3,59.69283262482226,
,,,蓝,green,f,square,color_mix,单词,,incompatible,1,block_switch1,instruction/ready_test.png,instruction/i11.png,,,,,,,,,,,,,,,,,0,0,0,0,0,27,27,27,,,,,,,,,,,,,,,,,,,,,,,,,,,644.1099077000108,644.3117666000035,644.2935641000222,644.594058000017,644.594058000017,None,645.0950852000096,None,f,1,1.5069704999914393,645.0950852000096,None,None,None,,,,,,,,,,,,,,,,,,,,,,,11033,1,1,2024_May_31_1502,stroop_task_switching2,2021.2.3,59.69283262482226,
,,,绿,green,k,diamond,color_mix,颜色,,compatible,2,block_switch1,instruction/ready_test.png,instruction/i11.png,,,,,,,,,,,,,,,,,0,0,0,0,0,28,28,28,,,,,,,,,,,,,,,,,,,,,,,,,,,646.6305460000003,646.8319311999949,646.8141693000216,647.1152211000153,647.1152211000153,None,647.6152561000199,None,k,1,0.5872663000191096,647.6152561000199,None,None,None,,,,,,,,,,,,,,,,,,,,,,,11033,1,1,2024_May_31_1502,stroop_task_switching2,2021.2.3,59.69283262482226,
,,,黄,blue,f,diamond,color_mix,颜色,,incompatible,1,block_switch1,instruction/ready_test.png,instruction/i11.png,,,,,,,,,,,,,,,,,0,0,0,0,0,29,29,29,,,,,,,,,,,,,,,,,,,,,,,,,,,648.232805800013,648.4331366000115,648.4165461999946,648.7169888000062,648.7169888000062,None,649.2175755000208,None,f,1,1.1533148000016809,649.2175755000208,None,None,None,,,,,,,,,,,,,,,,,,,,,,,11033,1,1,2024_May_31_1502,stroop_task_switching2,2021.2.3,59.69283262482226,
,,,绿,green,k,diamond,color_mix,颜色,,compatible,1,block_switch1,instruction/ready_test.png,instruction/i11.png,,,,,,,,,,,,,,,,,0,0,0,0,0,30,30,30,,,,,,,,,,,,,,,,,,,,,,,,,,,650.3859947000165,650.588430200005,650.5697460000229,650.8700262000202,650.8700262000202,None,651.3714804000047,None,k,1,0.9103417000151239,651.3714804000047,None,None,None,,,,,,,,,,,,,,,,,,,,,,,11033,1,1,2024_May_31_1502,stroop_task_switching2,2021.2.3,59.69283262482226,
,,,蓝,blue,f,square,color_mix,单词,,compatible,2,block_switch1,instruction/ready_test.png,instruction/i11.png,,,,,,,,,,,,,,,,,0,0,0,0,0,31,31,31,,,,,,,,,,,,,,,,,,,,,,,,,,,652.3057620000036,652.5073630000115,652.489289500023,652.7911992000008,652.7911992000008,None,653.2911840000015,None,f,1,0.8310328999941703,653.2911840000015,None,None,None,,,,,,,,,,,,,,,,,,,,,,,11033,1,1,2024_May_31_1502,stroop_task_switching2,2021.2.3,59.69283262482226,
,,,红,red,d,square,color_mix,单词,,compatible,1,block_switch1,instruction/ready_test.png,instruction/i11.png,,,,,,,,,,,,,,,,,0,0,0,0,0,32,32,32,,,,,,,,,,,,,,,,,,,,,,,,,,,654.1416813000105,654.3434134999989,654.3262014000211,654.6263441000192,654.6263441000192,None,655.126561800018,None,d,1,0.755929599981755,655.126561800018,None,None,None,,,,,,,,,,,,,,,,,,,,,,,11033,1,1,2024_May_31_1502,stroop_task_switching2,2021.2.3,59.69283262482226,
,,,红,green,d,square,color_mix,单词,,incompatible,1,block_switch1,instruction/ready_test.png,instruction/i11.png,,,,,,,,,,,,,,,,,0,0,0,0,0,33,33,33,,,,,,,,,,,,,,,,,,,,,,,,,,,655.9112165000115,656.1129551000195,656.0947730000189,656.3964125000057,656.3964125000057,None,656.8960325000226,None,d,1,1.186026999988826,656.8960325000226,None,None,None,,,,,,,,,,,,,,,,,,,,,,,11033,1,1,2024_May_31_1502,stroop_task_switching2,2021.2.3,59.69283262482226,
,,,黄,yellow,j,diamond,color_mix,颜色,,compatible,2,block_switch1,instruction/ready_test.png,instruction/i11.png,,,,,,,,,,,,,,,,,0,0,0,0,0,34,34,34,,,,,,,,,,,,,,,,,,,,,,,,,,,658.0976598999987,658.2993141000043,658.2820554000209,658.5815066000214,658.5815066000214,None,659.0825973000028,None,j,1,1.871629800007213,659.0825973000028,None,None,None,,,,,,,,,,,,,,,,,,,,,,,11033,1,1,2024_May_31_1502,stroop_task_switching2,2021.2.3,59.69283262482226,
,,,红,green,k,diamond,color_mix,颜色,,incompatible,1,block_switch1,instruction/ready_test.png,instruction/i11.png,,,,,,,,,,,,,,,,,0,0,0,0,0,35,35,35,,,,,,,,,,,,,,,,,,,,,,,,,,,660.968829999998,661.1689416000154,661.1528250999982,661.4528550000105,661.4528550000105,None,661.9541557000193,None,k,1,1.4080246999801602,661.9541557000193,None,None,None,,,,,,,,,,,,,,,,,,,,,,,11033,1,1,2024_May_31_1502,stroop_task_switching2,2021.2.3,59.69283262482226,
,,,黄,yellow,j,square,color_mix,单词,,compatible,2,block_switch1,instruction/ready_test.png,instruction/i11.png,,,,,,,,,,,,,,,,,0,0,0,0,0,36,36,36,,,,,,,,,,,,,,,,,,,,,,,,,,,663.3891202000086,663.5891641000053,663.5728484000138,663.8740578000143,663.8740578000143,None,664.37418850002,None,j,1,0.7240278999961447,664.37418850002,None,None,None,,,,,,,,,,,,,,,,,,,,,,,11033,1,1,2024_May_31_1502,stroop_task_switching2,2021.2.3,59.69283262482226,
,,,蓝,blue,f,square,color_mix,单词,,compatible,1,block_switch1,instruction/ready_test.png,instruction/i11.png,,,,,,,,,,,,,,,,,0,0,0,0,0,37,37,37,,,,,,,,,,,,,,,,,,,,,,,,,,,665.1250755000219,665.3263165999961,665.3085852000222,665.6102751000144,665.6102751000144,None,666.1104934000177,None,f,1,1.1480098000029102,666.1104934000177,None,None,None,,,,,,,,,,,,,,,,,,,,,,,11033,1,1,2024_May_31_1502,stroop_task_switching2,2021.2.3,59.69283262482226,
,,,绿,red,d,diamond,color_mix,颜色,,incompatible,2,block_switch1,instruction/ready_test.png,instruction/i11.png,,,,,,,,,,,,,,,,,0,0,0,0,0,38,38,38,,,,,,,,,,,,,,,,,,,,,,,,,,,667.2781689999974,667.4800293000008,667.4617020000005,667.7622874000226,667.7622874000226,None,668.2630508000148,None,d,1,1.1555060000100639,668.2630508000148,None,None,None,,,,,,,,,,,,,,,,,,,,,,,11033,1,1,2024_May_31_1502,stroop_task_switching2,2021.2.3,59.69283262482226,
,,,黄,yellow,j,diamond,color_mix,颜色,,compatible,1,block_switch1,instruction/ready_test.png,instruction/i11.png,,,,,,,,,,,,,,,,,0,0,0,0,0,39,39,39,,,,,,,,,,,,,,,,,,,,,,,,,,,669.4482066000055,669.648346300004,669.6317729000002,669.9324269000208,669.9324269000208,None,670.4329873000097,None,j,1,0.9774720999994315,670.4329873000097,None,None,None,,,,,,,,,,,,,,,,,,,,,,,11033,1,1,2024_May_31_1502,stroop_task_switching2,2021.2.3,59.69283262482226,
,,,红,blue,f,diamond,color_mix,颜色,,incompatible,1,block_switch1,instruction/ready_test.png,instruction/i11.png,,,,,,,,,,,,,,,,,0,0,0,0,0,40,40,40,,,,,,,,,,,,,,,,,,,,,,,,,,,671.4344567000226,671.6365733999992,671.6180672000046,671.9207361000008,671.9207361000008,None,672.4193063999992,None,f,1,1.007281199999852,672.4193063999992,None,None,None,,,,,,,,,,,,,,,,,,,,,,,11033,1,1,2024_May_31_1502,stroop_task_switching2,2021.2.3,59.69283262482226,
,,,绿,blue,k,square,color_mix,单词,,incompatible,2,block_switch1,instruction/ready_test.png,instruction/i11.png,,,,,,,,,,,,,,,,,0,0,0,0,0,41,41,41,,,,,,,,,,,,,,,,,,,,,,,,,,,673.4541586000123,673.6550083000038,673.6377102000115,673.9389245000202,673.9389245000202,None,674.4390824000002,None,k,1,1.9635562999756075,674.4390824000002,None,None,None,,,,,,,,,,,,,,,,,,,,,,,11033,1,1,2024_May_31_1502,stroop_task_switching2,2021.2.3,59.69283262482226,
,,,蓝,blue,f,diamond,color_mix,颜色,,compatible,2,block_switch1,instruction/ready_test.png,instruction/i11.png,,,,,,,,,,,,,,,,,0,0,0,0,0,42,42,42,,,,,,,,,,,,,,,,,,,,,,,,,,,676.4254815000168,676.6257433000137,676.609085700009,676.910288700019,676.910288700019,None,677.410191700008,None,f,1,1.376401999994414,677.410191700008,None,None,None,,,,,,,,,,,,,,,,,,,,,,,11033,1,1,2024_May_31_1502,stroop_task_switching2,2021.2.3,59.69283262482226,
,,,红,blue,d,square,color_mix,单词,,incompatible,2,block_switch1,instruction/ready_test.png,instruction/i11.png,,,,,,,,,,,,,,,,,0,0,0,0,0,43,43,43,,,,,,,,,,,,,,,,,,,,,,,,,,,678.8120851000131,679.0125929000205,678.9981825000141,679.3133238000155,679.2961239000142,None,679.7972028000222,None,d,1,0.7897558999829926,679.7972028000222,None,None,None,,,,,,,,,,,,,,,,,,,,,,,11033,1,1,2024_May_31_1502,stroop_task_switching2,2021.2.3,59.69283262482226,
,,,蓝,green,k,diamond,color_mix,颜色,,incompatible,2,block_switch1,instruction/ready_test.png,instruction/i11.png,,,,,,,,,,,,,,,,,0,0,0,0,0,44,44,44,,,,,,,,,,,,,,,,,,,,,,,,,,,680.6149849000212,680.8159242999973,680.7985041000065,681.0991624000017,681.0991624000017,None,681.5997483000101,None,k,1,0.9631057000078727,681.5997483000101,None,None,None,,,,,,,,,,,,,,,,,,,,,,,11033,1,1,2024_May_31_1502,stroop_task_switching2,2021.2.3,59.69283262482226,
,,,黄,yellow,j,square,color_mix,单词,,compatible,2,block_switch1,instruction/ready_test.png,instruction/i11.png,,,,,,,,,,,,,,,,,0,0,0,0,0,45,45,45,,,,,,,,,,,,,,,,,,,,,,,,,,,682.5846506000089,682.7850491999998,682.7684405000182,683.0692169000104,683.0692169000104,None,683.5695883000153,None,j,1,1.185699299996486,683.5695883000153,None,None,None,,,,,,,,,,,,,,,,,,,,,,,11033,1,1,2024_May_31_1502,stroop_task_switching2,2021.2.3,59.69283262482226,
,,,黄,yellow,j,diamond,color_mix,颜色,,compatible,2,block_switch1,instruction/ready_test.png,instruction/i11.png,,,,,,,,,,,,,,,,,0,0,0,0,0,46,46,46,,,,,,,,,,,,,,,,,,,,,,,,,,,684.7713443000102,684.9726334000006,684.9554978000233,685.2561960000021,685.2561960000021,None,685.756074600009,None,j,1,0.7108027999929618,685.756074600009,None,None,None,,,,,,,,,,,,,,,,,,,,,,,11033,1,1,2024_May_31_1502,stroop_task_switching2,2021.2.3,59.69283262482226,
,,,绿,red,k,square,color_mix,单词,,incompatible,2,block_switch1,instruction/ready_test.png,instruction/i11.png,,,,,,,,,,,,,,,,,0,0,0,0,0,47,47,47,,,,,,,,,,,,,,,,,,,,,,,,,,,686.4905816999963,686.6919394000142,686.6740925000049,686.9746911000111,686.9746911000111,None,687.4753277999989,None,k,1,1.57616350002354,687.4753277999989,None,None,None,,,,,,,,,,,,,,,,,,,,,,,11033,1,1,2024_May_31_1502,stroop_task_switching2,2021.2.3,59.69283262482226,
,,,红,red,d,diamond,color_mix,颜色,,compatible,2,block_switch1,instruction/ready_test.png,instruction/i11.png,,,,,,,,,,,,,,,,,0,0,0,0,0,48,48,48,,,,,,,,,,,,,,,,,,,,,,,,,,,689.0778349000029,689.2782373000227,689.2614575000189,689.5619275000063,689.5619275000063,None,690.0625688,None,d,1,0.7327782000065781,690.0625688,None,None,None,,,,,,,,,,,,,,,,,,,,,,,11033,1,1,2024_May_31_1502,stroop_task_switching2,2021.2.3,59.69283262482226,
,,,蓝,blue,f,diamond,color_mix,颜色,,compatible,1,block_switch1,instruction/ready_test.png,instruction/i11.png,,,,,,,,,,,,,,,,,0,0,0,0,0,49,49,49,,,,,,,,,,,,,,,,,,,,,,,,,,,690.8137420999992,691.0140708000108,690.9974526000151,691.2978380999994,691.2978380999994,None,691.7983413000184,None,f,1,1.6853033999796025,691.7983413000184,None,None,None,,,,,,,,,,,,,,,,,,,,,,,11033,1,1,2024_May_31_1502,stroop_task_switching2,2021.2.3,59.69283262482226,
,,,黄,yellow,j,diamond,color_mix,颜色,,compatible,1,block_switch1,instruction/ready_test.png,instruction/i11.png,,,,,,,,,,,,,,,,,0,0,0,0,0,50,50,50,,,,,,,,,,,,,,,,,,,,,,,,,,,693.5010638000094,693.7032890999981,693.6845990000002,693.9852574999968,693.9852574999968,None,694.4859591000131,None,j,1,1.3410283999983221,694.4859591000131,None,None,None,,,,,,,,,,,,,,,,,,,,,,,11033,1,1,2024_May_31_1502,stroop_task_switching2,2021.2.3,59.69283262482226,
,,,红,blue,f,diamond,color_mix,颜色,,incompatible,1,block_switch1,instruction/ready_test.png,instruction/i11.png,,,,,,,,,,,,,,,,,0,0,0,0,0,51,51,51,,,,,,,,,,,,,,,,,,,,,,,,,,,695.8546463999955,696.0549342000159,696.0388541000139,696.3411395000003,696.3411395000003,None,696.8561007000098,None,f,1,1.0269744000106584,696.8561007000098,None,None,None,,,,,,,,,,,,,,,,,,,,,,,11033,1,1,2024_May_31_1502,stroop_task_switching2,2021.2.3,59.69283262482226,
,,,蓝,yellow,j,diamond,color_mix,颜色,,incompatible,1,block_switch1,instruction/ready_test.png,instruction/i11.png,,,,,,,,,,,,,,,,,0,0,0,0,0,52,52,52,,,,,,,,,,,,,,,,,,,,,,,,,,,697.9078664999979,698.1082301000133,698.0926705000165,698.3918321999954,698.3918321999954,None,698.8925647000142,None,j,1,1.18252040000516,698.8925647000142,None,None,None,,,,,,,,,,,,,,,,,,,,,,,11033,1,1,2024_May_31_1502,stroop_task_switching2,2021.2.3,59.69283262482226,
,,,黄,blue,j,square,color_mix,单词,,incompatible,2,block_switch1,instruction/ready_test.png,instruction/i11.png,,,,,,,,,,,,,,,,,0,0,0,0,0,53,53,53,,,,,,,,,,,,,,,,,,,,,,,,,,,700.0943601000181,700.2947428000043,700.2789618000097,700.5791924000077,700.5791924000077,None,701.0791747000185,None,j,1,0.6759068999963347,701.0791747000185,None,None,None,,,,,,,,,,,,,,,,,,,,,,,11033,1,1,2024_May_31_1502,stroop_task_switching2,2021.2.3,59.69283262482226,
,,,蓝,blue,f,diamond,color_mix,颜色,,compatible,2,block_switch1,instruction/ready_test.png,instruction/i11.png,,,,,,,,,,,,,,,,,0,0,0,0,0,54,54,54,,,,,,,,,,,,,,,,,,,,,,,,,,,701.780121000018,701.9823974000174,701.9638021000137,702.264305699995,702.264305699995,None,702.766497500008,None,f,1,1.061646499991184,702.766497500008,None,None,None,,,,,,,,,,,,,,,,,,,,,,,11033,1,1,2024_May_31_1502,stroop_task_switching2,2021.2.3,59.69283262482226,
,,,红,yellow,d,square,color_mix,单词,,incompatible,2,block_switch1,instruction/ready_test.png,instruction/i11.png,,,,,,,,,,,,,,,,,0,0,0,0,0,55,55,55,,,,,,,,,,,,,,,,,,,,,,,,,,,703.8500717999996,704.0504432000162,704.0349083000037,704.3346961000061,704.3346961000061,None,704.8348991000094,None,d,1,1.1047097999835387,704.8348991000094,None,None,None,,,,,,,,,,,,,,,,,,,,,,,11033,1,1,2024_May_31_1502,stroop_task_switching2,2021.2.3,59.69283262482226,
