b_pra,ins_blocks,ins_blocks2,stim_word,stim_color,corrAns,cue_type,trial_type,task_type,rand,compatibility,switch,b_test,w_pic,w_pic2,trials_instr.thisRepN,trials_instr.thisTrialN,trials_instr.thisN,trials_instr.thisIndex,block_pra.thisRepN,block_pra.thisTrialN,block_pra.thisN,block_pra.thisIndex,trials_rep.thisRepN,trials_rep.thisTrialN,trials_rep.thisN,trials_rep.thisIndex,trials_pra.thisRepN,trials_pra.thisTrialN,trials_pra.thisN,trials_pra.thisIndex,trials_3.thisRepN,trials_3.thisTrialN,trials_3.thisN,trials_3.thisIndex,trials_2.thisRepN,trials_2.thisTrialN,trials_2.thisN,trials_2.thisIndex,instr_image.started,instr_image.stopped,instr_key_resp.keys,instr_key_resp.rt,instr_key_resp.started,instr_key_resp.stopped,instr_pra_image.started,instr_pra_image.stopped,ip_key_resp.keys,ip_key_resp.rt,ip_key_resp.started,ip_key_resp.stopped,block_image.started,block_image.stopped,ib_key_resp.keys,ib_key_resp.rt,ib_key_resp.started,ib_key_resp.stopped,cd3.started,cd3.stopped,cd2.started,cd2.stopped,cd1.started,cd1.stopped,cd_text.started,cd_text.stopped,text_fix.started,text_fix.stopped,text_2.started,text_2.stopped,text_4.started,text_4.stopped,text_target.started,text_target.stopped,key_resp.keys,key_resp.corr,key_resp.rt,key_resp.started,key_resp.stopped,sceen_black.started,sceen_black.stopped,text_fb.started,text_fb.stopped,text.started,text.stopped,key_bf.keys,key_bf.rt,key_bf.started,key_bf.stopped,instr_test_image.started,instr_test_image.stopped,instr_exp_key_resp.keys,instr_exp_key_resp.rt,instr_exp_key_resp.started,instr_exp_key_resp.stopped,text_rest.started,text_rest.stopped,key_resp_rest.keys,key_resp_rest.rt,key_resp_rest.started,key_resp_rest.stopped,text_3.started,text_3.stopped,participant,session,balance,date,expName,psychopyVersion,frameRate,
,,,,,,,,,,,,,,,0,0,0,0,,,,,,,,,,,,,,,,,,,,,9.67260299998452,None,right,2.8497207000036724,9.67260299998452,None,,,,,,,,,,,,,,,,,,,,,,,,,,,,,,,,,,,,,,,,,,,,,,,,,,,,,,,,,,11042,2,2,2024_Jun_17_2032,stroop_task_switching2_b,2021.2.3,59.735871867504095,
,,,,,,,,,,,,,,,1,0,1,0,,,,,,,,,,,,,,,,,,,,,12.577105399977881,None,right,104.461217700009,12.577105399977881,None,,,,,,,,,,,,,,,,,,,,,,,,,,,,,,,,,,,,,,,,,,,,,,,,,,,,,,,,,,11042,2,2,2024_Jun_17_2032,stroop_task_switching2_b,2021.2.3,59.735871867504095,
,,,,,,,,,,,,,,,2,0,2,0,,,,,,,,,,,,,,,,,,,,,117.11816610000096,None,right,0.504884599999059,117.11816610000096,None,,,,,,,,,,,,,,,,,,,,,,,,,,,,,,,,,,,,,,,,,,,,,,,,,,,,,,,,,,11042,2,2,2024_Jun_17_2032,stroop_task_switching2_b,2021.2.3,59.735871867504095,
,,,,,,,,,,,,,,,3,0,3,0,,,,,,,,,,,,,,,,,,,,,117.68599259998882,None,right,0.2177679000014905,117.68599259998882,None,,,,,,,,,,,,,,,,,,,,,,,,,,,,,,,,,,,,,,,,,,,,,,,,,,,,,,,,,,11042,2,2,2024_Jun_17_2032,stroop_task_switching2_b,2021.2.3,59.735871867504095,
,,,,,,,,,,,,,,,4,0,4,0,,,,,,,,,,,,,,,,,,,,,117.98637609998696,None,right,4.9184474000066984,117.98637609998696,None,,,,,,,,,,,,,,,,,,,,,,,,,,,,,,,,,,,,,,,,,,,,,,,,,,,,,,,,,,11042,2,2,2024_Jun_17_2032,stroop_task_switching2_b,2021.2.3,59.735871867504095,
,,,,,,,,,,,,,,,5,0,5,0,,,,,,,,,,,,,,,,,,,,,122.9606251999794,None,right,0.42931289999978617,122.9606251999794,None,,,,,,,,,,,,,,,,,,,,,,,,,,,,,,,,,,,,,,,,,,,,,,,,,,,,,,,,,,11042,2,2,2024_Jun_17_2032,stroop_task_switching2_b,2021.2.3,59.735871867504095,
,,,,,,,,,,,,,,,,,,,,,,,,,,,,,,,,,,,,,,,,,,,,,123.42819320000126,None,space,1.529965900001116,123.42819320000126,None,,,,,,,,,,,,,,,,,,,,,,,,,,,,,,,,,,,,,,,,,,,,,,,,,,,,11042,2,2,2024_Jun_17_2032,stroop_task_switching2_b,2021.2.3,59.735871867504095,
condition/block_color_b,instruction/instr_color,instruction/i8_b,XX,red,k,diamond,color_single,颜色,,,,,,,,,,,0,0,0,0,0,0,0,0,0,0,0,0,,,,,,,,,,,,,,,,,,,,,125.02970269997604,None,space,11.056344900018303,125.02970269997604,None,137.18205619999208,138.18370689998847,138.18370689998847,139.18472689998453,139.18472689998453,None,136.21362259998568,137.21688209997956,140.1691813999787,140.36977489999845,140.3535719999927,140.652497699979,140.652497699979,None,141.15480960000423,None,k,1,0.8512145999993663,141.15480960000423,None,None,None,142.02115539999795,None,,,,,,,,,,,,,,,,,,,,,11042,2,2,2024_Jun_17_2032,stroop_task_switching2_b,2021.2.3,59.735871867504095,
condition/block_color_b,instruction/instr_color,instruction/i8_b,XX,green,d,diamond,color_single,颜色,,,,,,,,,,,0,0,0,0,0,0,0,0,0,1,1,1,,,,,,,,,,,,,,,,,,,,,,,,,,,,,,,,,,,143.0240449999983,143.22454460000154,143.20714849999058,143.50761979998788,143.50761979998788,None,144.008216599992,None,d,1,1.0058282999962103,144.008216599992,None,None,None,145.04376699999557,None,,,,,,,,,,,,,,,,,,,,,11042,2,2,2024_Jun_17_2032,stroop_task_switching2_b,2021.2.3,59.735871867504095,
condition/block_color_b,instruction/instr_color,instruction/i8_b,XX,yellow,f,diamond,color_single,颜色,,,,,,,,,,,0,0,0,0,0,0,0,0,0,2,2,2,,,,,,,,,,,,,,,,,,,,,,,,,,,,,,,,,,,146.04508159999386,146.24506029998884,146.22866729999078,146.529106699978,146.529106699978,None,147.0299604999891,None,f,1,0.7690679999941494,147.0299604999891,None,None,None,147.81348769998294,None,,,,,,,,,,,,,,,,,,,,,11042,2,2,2024_Jun_17_2032,stroop_task_switching2_b,2021.2.3,59.735871867504095,
condition/block_color_b,instruction/instr_color,instruction/i8_b,XX,blue,j,diamond,color_single,颜色,,,,,,,,,,,0,0,0,0,0,0,0,0,0,3,3,3,,,,,,,,,,,,,,,,,,,,,,,,,,,,,,,,,,,148.8156420000014,149.01604170000064,148.9992056999763,149.30040469998494,149.30040469998494,None,149.79965169998468,None,j,1,0.9594341999909375,149.79965169998468,None,None,None,150.7854992999928,None,,,,,,,,,,,,,,,,,,,,,11042,2,2,2024_Jun_17_2032,stroop_task_switching2_b,2021.2.3,59.735871867504095,
condition/block_color_b,instruction/instr_color,instruction/i8_b,XX,green,d,diamond,color_single,颜色,,,,,,,,,,,0,0,0,0,0,0,0,0,0,4,4,4,,,,,,,,,,,,,,,,,,,,,,,,,,,,,,,,,,,151.78695239999797,151.98687199997948,151.97098579999874,152.27078069999698,152.27078069999698,None,152.77089869999327,None,d,1,0.7872792000125628,152.77089869999327,None,None,None,153.58887579999282,None,,,,,,,,,,,,,,,,,,,,,11042,2,2,2024_Jun_17_2032,stroop_task_switching2_b,2021.2.3,59.735871867504095,
condition/block_color_b,instruction/instr_color,instruction/i8_b,XX,yellow,f,diamond,color_single,颜色,,,,,,,,,,,0,0,0,0,0,0,0,0,0,5,5,5,,,,,,,,,,,,,,,,,,,,,,,,,,,,,,,,,,,154.59165079999366,154.7914877999865,154.77528149998398,155.0764693999954,155.0764693999954,None,155.57571299999836,None,f,1,0.6789321999822278,155.57571299999836,None,None,None,156.27636229997734,None,,,,,,,,,,,,,,,,,,,,,11042,2,2,2024_Jun_17_2032,stroop_task_switching2_b,2021.2.3,59.735871867504095,
condition/block_color_b,instruction/instr_color,instruction/i8_b,XX,blue,j,diamond,color_single,颜色,,,,,,,,,,,0,0,0,0,0,0,0,0,0,6,6,6,,,,,,,,,,,,,,,,,,,,,,,,,,,,,,,,,,,157.27870399999665,157.47903479999513,157.46214449999388,157.76270520000253,157.76270520000253,None,158.26381239999318,None,j,1,0.6629427000007126,158.26381239999318,None,None,None,158.94791639997857,None,,,,,,,,,,,,,,,,,,,,,11042,2,2,2024_Jun_17_2032,stroop_task_switching2_b,2021.2.3,59.735871867504095,
condition/block_color_b,instruction/instr_color,instruction/i8_b,XX,red,k,diamond,color_single,颜色,,,,,,,,,,,0,0,0,0,0,0,0,0,0,7,7,7,,,,,,,,,,,,,,,,,,,,,,,,,,,,,,,,,,,159.9493408999988,160.14883819999523,160.1324988999986,160.43389240000397,160.43389240000397,None,160.9340508999885,None,k,1,0.45637999998871237,160.9340508999885,None,None,None,161.41755109999212,None,,,,,,,,,,,,,,,,,,,,,11042,2,2,2024_Jun_17_2032,stroop_task_switching2_b,2021.2.3,59.735871867504095,
condition/block_color_b,instruction/instr_color,instruction/i8_b,XX,yellow,f,diamond,color_single,颜色,,,,,,,,,,,0,0,0,0,0,0,0,0,0,8,8,8,,,,,,,,,,,,,,,,,,,,,,,,,,,,,,,,,,,162.41978569998173,162.620051099977,162.60302809998393,162.90528559999075,162.90528559999075,None,163.4210545999813,None,f,1,0.7377344999986235,163.4210545999813,None,None,None,164.18883989998722,None,,,,,,,,,,,,,,,,,,,,,11042,2,2,2024_Jun_17_2032,stroop_task_switching2_b,2021.2.3,59.735871867504095,
condition/block_color_b,instruction/instr_color,instruction/i8_b,XX,blue,j,diamond,color_single,颜色,,,,,,,,,,,0,0,0,0,0,0,0,0,0,9,9,9,,,,,,,,,,,,,,,,,,,,,,,,,,,,,,,,,,,165.19061729998793,165.390814399987,165.37424239999382,165.67467169999145,165.67467169999145,None,166.1753949999984,None,j,1,0.5997557999799028,166.1753949999984,None,None,None,166.79229769998346,None,,,,,,,,,,,,,,,,,,,,,11042,2,2,2024_Jun_17_2032,stroop_task_switching2_b,2021.2.3,59.735871867504095,
condition/block_color_b,instruction/instr_color,instruction/i8_b,XX,red,k,diamond,color_single,颜色,,,,,,,,,,,0,0,0,0,0,0,0,0,0,10,10,10,,,,,,,,,,,,,,,,,,,,,,,,,,,,,,,,,,,167.79490199999418,167.99478519998956,167.97846640000353,168.27842709998367,168.27842709998367,None,168.77927299999283,None,k,1,0.4837917999830097,168.77927299999283,None,None,None,169.27995799999917,None,,,,,,,,,,,,,,,,,,,,,11042,2,2,2024_Jun_17_2032,stroop_task_switching2_b,2021.2.3,59.735871867504095,
condition/block_color_b,instruction/instr_color,instruction/i8_b,XX,green,d,diamond,color_single,颜色,,,,,,,,,,,0,0,0,0,0,0,0,0,0,11,11,11,,,,,,,,,,,,,,,,,,,,,,,,,,,,,,,,,,,170.28158699997584,170.48193690000335,170.46489179998753,170.765407400002,170.765407400002,None,171.2666765000031,None,f,0,0.8123965999984648,171.2666765000031,None,None,None,172.10007439999026,None,,,,,,,,,,,,,,,,,,,,,11042,2,2,2024_Jun_17_2032,stroop_task_switching2_b,2021.2.3,59.735871867504095,
condition/block_color_b,instruction/instr_color,instruction/i8_b,XX,blue,j,diamond,color_single,颜色,,,,,,,,,,,0,0,0,0,0,0,0,0,0,12,12,12,,,,,,,,,,,,,,,,,,,,,,,,,,,,,,,,,,,173.10276889998931,173.30383439999423,173.28517649997957,173.58664209998096,173.58664209998096,None,174.08708450000267,None,j,1,0.6243078999978025,174.08708450000267,None,None,None,174.7386390999891,None,,,,,,,,,,,,,,,,,,,,,11042,2,2,2024_Jun_17_2032,stroop_task_switching2_b,2021.2.3,59.735871867504095,
condition/block_color_b,instruction/instr_color,instruction/i8_b,XX,red,k,diamond,color_single,颜色,,,,,,,,,,,0,0,0,0,0,0,0,0,0,13,13,13,,,,,,,,,,,,,,,,,,,,,,,,,,,,,,,,,,,175.73985149999498,175.9403009999951,175.92347969999537,176.22401309999987,176.22401309999987,None,176.72435730000143,None,k,1,0.5628598000039347,176.72435730000143,None,None,None,177.30777129999478,None,,,,,,,,,,,,,,,,,,,,,11042,2,2,2024_Jun_17_2032,stroop_task_switching2_b,2021.2.3,59.735871867504095,
condition/block_color_b,instruction/instr_color,instruction/i8_b,XX,green,d,diamond,color_single,颜色,,,,,,,,,,,0,0,0,0,0,0,0,0,0,14,14,14,,,,,,,,,,,,,,,,,,,,,,,,,,,,,,,,,,,178.31039349999628,178.509791199991,178.49374249999528,178.7948338999995,178.7948338999995,None,179.29521459998796,None,j,0,1.200426299998071,179.29521459998796,None,None,None,180.51367639997625,None,,,,,,,,,,,,,,,,,,,,,11042,2,2,2024_Jun_17_2032,stroop_task_switching2_b,2021.2.3,59.735871867504095,
condition/block_color_b,instruction/instr_color,instruction/i8_b,XX,yellow,f,diamond,color_single,颜色,,,,,,,,,,,0,0,0,0,0,0,0,0,0,15,15,15,,,,,,,,,,,,,,,,,,,,,,,,,,,,,,,,,,,181.51451979999547,181.71490029999404,181.69772609998472,181.99924259999534,181.99924259999534,None,182.49998409999534,None,f,1,0.6428907999943476,182.49998409999534,None,None,None,183.16713699998218,None,,,,,,,,,,,,,,,,,,,,,11042,2,2,2024_Jun_17_2032,stroop_task_switching2_b,2021.2.3,59.735871867504095,
condition/block_color_b,instruction/instr_color,instruction/i8_b,XX,red,k,diamond,color_single,颜色,,,,,,,,,,,0,0,0,0,0,0,0,0,0,16,16,16,,,,,,,,,,,,,,,,,,,,,,,,,,,,,,,,,,,184.16878819998237,184.36956969997846,184.3527872999839,184.65360229997896,184.65360229997896,None,185.15416710000136,None,k,1,0.549638500000583,185.15416710000136,None,None,None,185.72176429998945,None,,,,,,,,,,,,,,,,,,,,,11042,2,2,2024_Jun_17_2032,stroop_task_switching2_b,2021.2.3,59.735871867504095,
condition/block_color_b,instruction/instr_color,instruction/i8_b,XX,green,d,diamond,color_single,颜色,,,,,,,,,,,0,0,0,0,0,0,0,0,0,17,17,17,,,,,,,,,,,,,,,,,,,,,,,,,,,,,,,,,,,186.7228574999899,186.9233391000016,186.9066636999778,187.2071869999927,187.2071869999927,None,187.70796349999728,None,d,1,1.155277699988801,187.70796349999728,None,None,None,188.89334459998645,None,,,,,,,,,,,,,,,,,,,,,11042,2,2,2024_Jun_17_2032,stroop_task_switching2_b,2021.2.3,59.735871867504095,
condition/block_color_b,instruction/instr_color,instruction/i8_b,XX,yellow,f,diamond,color_single,颜色,,,,,,,,,,,0,0,0,0,0,0,0,0,0,18,18,18,,,,,,,,,,,,,,,,,,,,,,,,,,,,,,,,,,,189.894581200002,190.09489419998135,190.0778928999789,190.37857439997606,190.37857439997606,None,190.87960049998946,None,f,1,0.7518786999862641,190.87960049998946,None,None,None,191.64663409997593,None,,,,,,,,,,,,,,,,,,,,,11042,2,2,2024_Jun_17_2032,stroop_task_switching2_b,2021.2.3,59.735871867504095,
condition/block_color_b,instruction/instr_color,instruction/i8_b,XX,blue,j,diamond,color_single,颜色,,,,,,,,,,,0,0,0,0,0,0,0,0,0,19,19,19,,,,,,,,,,,,,,,,,,,,,,,,,,,,,,,,,,,192.64865599997574,192.84890839998843,192.83355859998846,193.13272369999322,193.13272369999322,None,193.63372569999774,None,j,1,0.6299578000034671,193.63372569999774,None,None,None,194.28409629999078,None,,,,,,,,,,,,,,,,,,,,,11042,2,2,2024_Jun_17_2032,stroop_task_switching2_b,2021.2.3,59.735871867504095,
condition/block_color_b,instruction/instr_color,instruction/i8_b,XX,green,d,diamond,color_single,颜色,,,,,,,,,,,0,0,0,0,0,0,0,0,0,20,20,20,,,,,,,,,,,,,,,,,,,,,,,,,,,,,,,,,,,195.2854555999802,195.48650369999814,195.46988180000335,195.76991429997724,195.76991429997724,None,196.27081200000248,None,d,1,0.7130712000071071,196.27081200000248,None,None,None,197.00486980000278,None,,,,,,,,,,,,,,,,,,,,,11042,2,2,2024_Jun_17_2032,stroop_task_switching2_b,2021.2.3,59.735871867504095,
condition/block_color_b,instruction/instr_color,instruction/i8_b,XX,yellow,f,diamond,color_single,颜色,,,,,,,,,,,0,0,0,0,0,0,0,0,0,21,21,21,,,,,,,,,,,,,,,,,,,,,,,,,,,,,,,,,,,198.00667599998997,198.2066048999841,198.190349099983,198.49091829999816,198.49091829999816,None,198.99205459997756,None,f,1,0.6477958000032231,198.99205459997756,None,None,None,199.65823269999237,None,,,,,,,,,,,,,,,,,,,,,11042,2,2,2024_Jun_17_2032,stroop_task_switching2_b,2021.2.3,59.735871867504095,
condition/block_color_b,instruction/instr_color,instruction/i8_b,XX,blue,j,diamond,color_single,颜色,,,,,,,,,,,0,0,0,0,0,0,0,0,0,22,22,22,,,,,,,,,,,,,,,,,,,,,,,,,,,,,,,,,,,200.66060939998715,200.8610168999876,200.84412189997965,201.14379219998955,201.14379219998955,None,201.6455839999835,None,j,1,0.5463275999936741,201.6455839999835,None,None,None,202.21254269999918,None,,,,,,,,,,,,,,,,,,,,,11042,2,2,2024_Jun_17_2032,stroop_task_switching2_b,2021.2.3,59.735871867504095,
condition/block_color_b,instruction/instr_color,instruction/i8_b,XX,red,k,diamond,color_single,颜色,,,,,,,,,,,0,0,0,0,0,0,0,0,0,23,23,23,,,,,,,,,,,,,,,,,,,,,,,,,,,,,,,,,,,203.21371579999686,203.41414649999933,203.3981430999993,203.69874379999237,203.69874379999237,None,204.19937960000243,None,k,1,0.416610500018578,204.19937960000243,None,None,None,204.63349619999644,None,,,,,,,,,,,,,,,,,,,,,11042,2,2,2024_Jun_17_2032,stroop_task_switching2_b,2021.2.3,59.735871867504095,
condition/block_color_b,instruction/instr_color,instruction/i8_b,,,,,,,,,,,,,,,,,0,0,0,0,0,0,0,0,,,,,,,,,,,,,,,,,,,,,,,,,,,,,,,,,,,,,,,,,,,,,,,,,,,,,,,,205.6840511999908,None,space,2.551609800022561,205.6840511999908,None,,,,,,,,,,,,,,,11042,2,2,2024_Jun_17_2032,stroop_task_switching2_b,2021.2.3,59.735871867504095,
condition/block_color_b,instruction/instr_color,instruction/i8_b,,,,,,,,,,,,,,,,,0,0,0,0,,,,,,,,,,,,,,,,,,,,,,,,,,,,,,,,,,,,,,,,,,,,,,,,,,,,,,,,,,,,,,,,,,,,,,,,,,,,,,,,11042,2,2,2024_Jun_17_2032,stroop_task_switching2_b,2021.2.3,59.735871867504095,
condition/block_word_b,instruction/instr_word,instruction/i9_b,黄,white,f,square,word_single,单词,0.0032461461866890584,,,,,,,,,,0,1,1,1,0,0,0,0,0,0,0,0,,,,,,,,,,,,,,,,,,,,,208.30635259998962,None,space,4.149547500011977,208.30635259998962,None,213.48015889999806,214.48124269998516,214.48124269998516,215.4834251999855,215.4834251999855,None,212.49611529998947,213.49651409999933,216.5355789999885,216.73500929999864,216.71808900000178,217.01869899997837,217.01869899997837,None,217.51996700000018,None,f,1,1.255856900010258,217.51996700000018,None,None,None,218.8037257999822,None,,,,,,,,,,,,,,,,,,,,,11042,2,2,2024_Jun_17_2032,stroop_task_switching2_b,2021.2.3,59.735871867504095,
condition/block_word_b,instruction/instr_word,instruction/i9_b,蓝,white,j,square,word_single,单词,0.060540570646362424,,,,,,,,,,0,1,1,1,0,0,0,0,0,1,1,1,,,,,,,,,,,,,,,,,,,,,,,,,,,,,,,,,,,219.80617149997852,220.00655969997752,219.9899230999872,220.29031650000252,220.29031650000252,None,220.82466129999375,None,j,1,0.7353826000180561,220.82466129999375,None,None,None,221.57495549999294,None,,,,,,,,,,,,,,,,,,,,,11042,2,2,2024_Jun_17_2032,stroop_task_switching2_b,2021.2.3,59.735871867504095,
condition/block_word_b,instruction/instr_word,instruction/i9_b,黄,white,f,square,word_single,单词,0.06994067193778963,,,,,,,,,,0,1,1,1,0,0,0,0,0,2,2,2,,,,,,,,,,,,,,,,,,,,,,,,,,,,,,,,,,,222.57717869998305,222.77637469998444,222.7599865999946,223.06033759997808,223.06033759997808,None,223.5621506999887,None,f,1,0.758108700014418,223.5621506999887,None,None,None,224.3460024999804,None,,,,,,,,,,,,,,,,,,,,,11042,2,2,2024_Jun_17_2032,stroop_task_switching2_b,2021.2.3,59.735871867504095,
condition/block_word_b,instruction/instr_word,instruction/i9_b,蓝,white,j,square,word_single,单词,0.08193765152950094,,,,,,,,,,0,1,1,1,0,0,0,0,0,3,3,3,,,,,,,,,,,,,,,,,,,,,,,,,,,,,,,,,,,225.3469573999755,225.5480042999843,225.5317389999982,225.83170249999966,225.83170249999966,None,226.33325329999207,None,j,1,0.7952684000192676,226.33325329999207,None,None,None,227.15062719999696,None,,,,,,,,,,,,,,,,,,,,,11042,2,2,2024_Jun_17_2032,stroop_task_switching2_b,2021.2.3,59.735871867504095,
condition/block_word_b,instruction/instr_word,instruction/i9_b,红,white,k,square,word_single,单词,0.1279694370605574,,,,,,,,,,0,1,1,1,0,0,0,0,0,4,4,4,,,,,,,,,,,,,,,,,,,,,,,,,,,,,,,,,,,228.15240779999294,228.35223299998324,228.33501209999667,228.6354341999977,228.6354341999977,None,229.13610549998702,None,k,1,0.5691951000189874,229.13610549998702,None,None,None,229.7204148999881,None,,,,,,,,,,,,,,,,,,,,,11042,2,2,2024_Jun_17_2032,stroop_task_switching2_b,2021.2.3,59.735871867504095,
condition/block_word_b,instruction/instr_word,instruction/i9_b,红,white,k,square,word_single,单词,0.18345028784879092,,,,,,,,,,0,1,1,1,0,0,0,0,0,5,5,5,,,,,,,,,,,,,,,,,,,,,,,,,,,,,,,,,,,230.7229488999874,230.92306790000293,230.9061371999851,231.20685239997692,231.20685239997692,None,231.70754799997667,None,k,1,0.5412553000205662,231.70754799997667,None,None,None,232.27509029998328,None,,,,,,,,,,,,,,,,,,,,,11042,2,2,2024_Jun_17_2032,stroop_task_switching2_b,2021.2.3,59.735871867504095,
condition/block_word_b,instruction/instr_word,instruction/i9_b,蓝,white,j,square,word_single,单词,0.19920386223101294,,,,,,,,,,0,1,1,1,0,0,0,0,0,6,6,6,,,,,,,,,,,,,,,,,,,,,,,,,,,,,,,,,,,233.27577959999326,233.47595209997962,233.45981169998413,233.76013310000417,233.76013310000417,None,234.26051729999017,None,j,1,0.8280445999989752,234.26051729999017,None,None,None,235.11275349999778,None,,,,,,,,,,,,,,,,,,,,,11042,2,2,2024_Jun_17_2032,stroop_task_switching2_b,2021.2.3,59.735871867504095,
condition/block_word_b,instruction/instr_word,instruction/i9_b,蓝,white,j,square,word_single,单词,0.26360599864925405,,,,,,,,,,0,1,1,1,0,0,0,0,0,7,7,7,,,,,,,,,,,,,,,,,,,,,,,,,,,,,,,,,,,236.11390080000274,236.31437300000107,236.29789839999285,236.59859119998873,236.59859119998873,None,237.09918930000276,None,j,1,0.5976549999904819,237.09918930000276,None,None,None,237.71620159997838,None,,,,,,,,,,,,,,,,,,,,,11042,2,2,2024_Jun_17_2032,stroop_task_switching2_b,2021.2.3,59.735871867504095,
condition/block_word_b,instruction/instr_word,instruction/i9_b,蓝,white,j,square,word_single,单词,0.358985675745526,,,,,,,,,,0,1,1,1,0,0,0,0,0,8,8,8,,,,,,,,,,,,,,,,,,,,,,,,,,,,,,,,,,,238.71814059998724,238.91846119999536,238.9017444999772,239.20206879999023,239.20206879999023,None,239.70269279999775,None,j,1,0.3857570000109263,239.70269279999775,None,None,None,240.12024079999537,None,,,,,,,,,,,,,,,,,,,,,11042,2,2,2024_Jun_17_2032,stroop_task_switching2_b,2021.2.3,59.735871867504095,
condition/block_word_b,instruction/instr_word,instruction/i9_b,绿,white,d,square,word_single,单词,0.36496733802487347,,,,,,,,,,0,1,1,1,0,0,0,0,0,9,9,9,,,,,,,,,,,,,,,,,,,,,,,,,,,,,,,,,,,241.12179499998456,241.3216135999828,241.30541069997707,241.60575649997918,241.60575649997918,None,242.14039899999625,None,d,1,0.7241876999905799,242.14039899999625,None,None,None,242.89053459998104,None,,,,,,,,,,,,,,,,,,,,,11042,2,2,2024_Jun_17_2032,stroop_task_switching2_b,2021.2.3,59.735871867504095,
condition/block_word_b,instruction/instr_word,instruction/i9_b,黄,white,f,square,word_single,单词,0.3743513623756727,,,,,,,,,,0,1,1,1,0,0,0,0,0,10,10,10,,,,,,,,,,,,,,,,,,,,,,,,,,,,,,,,,,,243.89204289999907,244.09243389999028,244.07623360000434,244.37658459998784,244.37658459998784,None,244.8770226999768,None,f,1,0.40403850001166575,244.8770226999768,None,None,None,245.31096039997647,None,,,,,,,,,,,,,,,,,,,,,11042,2,2,2024_Jun_17_2032,stroop_task_switching2_b,2021.2.3,59.735871867504095,
condition/block_word_b,instruction/instr_word,instruction/i9_b,红,white,k,square,word_single,单词,0.3894803852598544,,,,,,,,,,0,1,1,1,0,0,0,0,0,11,11,11,,,,,,,,,,,,,,,,,,,,,,,,,,,,,,,,,,,246.31273299999884,246.51304669998353,246.4965547999891,246.79673259999254,246.79673259999254,None,247.29786959997728,None,k,1,0.47926269998424686,247.29786959997728,None,None,None,247.7985112000024,None,,,,,,,,,,,,,,,,,,,,,11042,2,2,2024_Jun_17_2032,stroop_task_switching2_b,2021.2.3,59.735871867504095,
condition/block_word_b,instruction/instr_word,instruction/i9_b,绿,white,d,square,word_single,单词,0.5393759672408067,,,,,,,,,,0,1,1,1,0,0,0,0,0,12,12,12,,,,,,,,,,,,,,,,,,,,,,,,,,,,,,,,,,,248.79967839998426,249.00021529998048,248.98360340000363,249.2840475999983,249.2840475999983,None,249.78385529998923,None,d,1,0.761031699978048,249.78385529998923,None,None,None,250.5683300999808,None,,,,,,,,,,,,,,,,,,,,,11042,2,2,2024_Jun_17_2032,stroop_task_switching2_b,2021.2.3,59.735871867504095,
condition/block_word_b,instruction/instr_word,instruction/i9_b,蓝,white,j,square,word_single,单词,0.5995731954831104,,,,,,,,,,0,1,1,1,0,0,0,0,0,13,13,13,,,,,,,,,,,,,,,,,,,,,,,,,,,,,,,,,,,251.57071800000267,251.77102699998068,251.75419019997935,252.0549042999919,252.0549042999919,None,252.55480620000162,None,j,1,0.5903222000051755,252.55480620000162,None,None,None,253.17217079998227,None,,,,,,,,,,,,,,,,,,,,,11042,2,2,2024_Jun_17_2032,stroop_task_switching2_b,2021.2.3,59.735871867504095,
condition/block_word_b,instruction/instr_word,instruction/i9_b,红,white,k,square,word_single,单词,0.6298674479151414,,,,,,,,,,0,1,1,1,0,0,0,0,0,14,14,14,,,,,,,,,,,,,,,,,,,,,,,,,,,,,,,,,,,254.1739090999763,254.37470519999624,254.35803750000196,254.65922359999968,254.65922359999968,None,255.1596092999971,None,k,1,0.37739050001255237,255.1596092999971,None,None,None,255.56041279999772,None,,,,,,,,,,,,,,,,,,,,,11042,2,2,2024_Jun_17_2032,stroop_task_switching2_b,2021.2.3,59.735871867504095,
condition/block_word_b,instruction/instr_word,instruction/i9_b,红,white,k,square,word_single,单词,0.7389942282348904,,,,,,,,,,0,1,1,1,0,0,0,0,0,15,15,15,,,,,,,,,,,,,,,,,,,,,,,,,,,,,,,,,,,256.56171079998603,256.7620509999979,256.74503179997555,257.0454796999984,257.0454796999984,None,257.54652839998016,None,k,1,0.4629177000024356,257.54652839998016,None,None,None,258.02995259998715,None,,,,,,,,,,,,,,,,,,,,,11042,2,2,2024_Jun_17_2032,stroop_task_switching2_b,2021.2.3,59.735871867504095,
condition/block_word_b,instruction/instr_word,instruction/i9_b,绿,white,d,square,word_single,单词,0.7550853947239682,,,,,,,,,,0,1,1,1,0,0,0,0,0,16,16,16,,,,,,,,,,,,,,,,,,,,,,,,,,,,,,,,,,,259.0311422999948,259.2321888000006,259.2158084999828,259.51597569999285,259.51597569999285,None,260.0168784999987,None,d,1,0.8252100999816321,260.0168784999987,None,None,None,260.8682459999982,None,,,,,,,,,,,,,,,,,,,,,11042,2,2,2024_Jun_17_2032,stroop_task_switching2_b,2021.2.3,59.735871867504095,
condition/block_word_b,instruction/instr_word,instruction/i9_b,绿,white,d,square,word_single,单词,0.8019302780428206,,,,,,,,,,0,1,1,1,0,0,0,0,0,17,17,17,,,,,,,,,,,,,,,,,,,,,,,,,,,,,,,,,,,261.8693534999911,262.07018869998865,262.0532287999813,262.35277450000285,262.35277450000285,None,262.8533911999839,None,d,1,0.7078455000009853,262.8533911999839,None,None,None,263.58902009998565,None,,,,,,,,,,,,,,,,,,,,,11042,2,2,2024_Jun_17_2032,stroop_task_switching2_b,2021.2.3,59.735871867504095,
condition/block_word_b,instruction/instr_word,instruction/i9_b,绿,white,d,square,word_single,单词,0.8110702914095343,,,,,,,,,,0,1,1,1,0,0,0,0,0,18,18,18,,,,,,,,,,,,,,,,,,,,,,,,,,,,,,,,,,,264.5904679999803,264.7907736999914,264.77407149999635,265.0736212999909,265.0736212999909,None,265.5747438999824,None,d,1,0.5863989999925252,265.5747438999824,None,None,None,266.19230490000336,None,,,,,,,,,,,,,,,,,,,,,11042,2,2,2024_Jun_17_2032,stroop_task_switching2_b,2021.2.3,59.735871867504095,
condition/block_word_b,instruction/instr_word,instruction/i9_b,黄,white,f,square,word_single,单词,0.8176594937590999,,,,,,,,,,0,1,1,1,0,0,0,0,0,19,19,19,,,,,,,,,,,,,,,,,,,,,,,,,,,,,,,,,,,267.1940818000003,267.39489509997657,267.37718589999713,267.6787759999861,267.6787759999861,None,268.1793173000042,None,f,1,0.5587812000012491,268.1793173000042,None,None,None,268.7620429999952,None,,,,,,,,,,,,,,,,,,,,,11042,2,2,2024_Jun_17_2032,stroop_task_switching2_b,2021.2.3,59.735871867504095,
condition/block_word_b,instruction/instr_word,instruction/i9_b,红,white,k,square,word_single,单词,0.8955794421104841,,,,,,,,,,0,1,1,1,0,0,0,0,0,20,20,20,,,,,,,,,,,,,,,,,,,,,,,,,,,,,,,,,,,269.765030199982,269.9650102999876,269.94865019997815,270.24946789999376,270.24946789999376,None,270.7497911999817,None,k,1,0.5640110000094865,270.7497911999817,None,None,None,271.33411830000114,None,,,,,,,,,,,,,,,,,,,,,11042,2,2,2024_Jun_17_2032,stroop_task_switching2_b,2021.2.3,59.735871867504095,
condition/block_word_b,instruction/instr_word,instruction/i9_b,绿,white,d,square,word_single,单词,0.9113598052474129,,,,,,,,,,0,1,1,1,0,0,0,0,0,21,21,21,,,,,,,,,,,,,,,,,,,,,,,,,,,,,,,,,,,272.335559500003,272.5358713000023,272.5192197999859,272.81858169997577,272.81858169997577,None,273.3203934999765,None,d,1,0.6893148999952246,273.3203934999765,None,None,None,274.03809759998694,None,,,,,,,,,,,,,,,,,,,,,11042,2,2,2024_Jun_17_2032,stroop_task_switching2_b,2021.2.3,59.735871867504095,
condition/block_word_b,instruction/instr_word,instruction/i9_b,黄,white,f,square,word_single,单词,0.9215930958042953,,,,,,,,,,0,1,1,1,0,0,0,0,0,22,22,22,,,,,,,,,,,,,,,,,,,,,,,,,,,,,,,,,,,275.0395294999762,275.23996669999906,275.22311979997903,275.52366499998607,275.52366499998607,None,276.0243652999925,None,f,1,0.6738280999998096,276.0243652999925,None,None,None,276.7252019000007,None,,,,,,,,,,,,,,,,,,,,,11042,2,2,2024_Jun_17_2032,stroop_task_switching2_b,2021.2.3,59.735871867504095,
condition/block_word_b,instruction/instr_word,instruction/i9_b,黄,white,f,square,word_single,单词,0.9493525498837774,,,,,,,,,,0,1,1,1,0,0,0,0,0,23,23,23,,,,,,,,,,,,,,,,,,,,,,,,,,,,,,,,,,,277.726769699977,277.92746459998307,277.9107030000014,278.2112128000008,278.2112128000008,None,278.7117239999934,None,f,1,0.5701846999872942,278.7117239999934,None,None,None,279.3123510000005,None,,,,,,,,,,,,,,,,,,,,,11042,2,2,2024_Jun_17_2032,stroop_task_switching2_b,2021.2.3,59.735871867504095,
condition/block_word_b,instruction/instr_word,instruction/i9_b,,,,,,,,,,,,,,,,,0,1,1,1,0,0,0,0,,,,,,,,,,,,,,,,,,,,,,,,,,,,,,,,,,,,,,,,,,,,,,,,,,,,,,,,280.33143289998407,None,space,2.996411200001603,280.33143289998407,None,,,,,,,,,,,,,,,11042,2,2,2024_Jun_17_2032,stroop_task_switching2_b,2021.2.3,59.735871867504095,
condition/block_word_b,instruction/instr_word,instruction/i9_b,,,,,,,,,,,,,,,,,0,1,1,1,,,,,,,,,,,,,,,,,,,,,,,,,,,,,,,,,,,,,,,,,,,,,,,,,,,,,,,,,,,,,,,,,,,,,,,,,,,,,,,,11042,2,2,2024_Jun_17_2032,stroop_task_switching2_b,2021.2.3,59.735871867504095,
condition/block_mixed_b,instruction/instr_mixed,instruction/i10_b,蓝,red,k,diamond,color_mix,颜色,,incompatible,0,,,,,,,,0,2,2,2,0,0,0,0,0,0,0,0,,,,,,,,,,,,,,,,,,,,,283.4016560000018,None,space,10.176320400001714,283.4016560000018,None,294.6025127999892,295.6040329999814,295.6040329999814,296.60545750000165,296.60545750000165,None,293.6190580999828,294.61922659998527,297.6405416999769,297.84086070000194,297.8241485999897,298.12439939999604,298.12439939999604,None,298.60855569998967,None,k,1,1.2736605000100099,298.60855569998967,None,None,None,299.90979389997665,None,,,,,,,,,,,,,,,,,,,,,11042,2,2,2024_Jun_17_2032,stroop_task_switching2_b,2021.2.3,59.735871867504095,
condition/block_mixed_b,instruction/instr_mixed,instruction/i10_b,绿,yellow,f,diamond,color_mix,颜色,,incompatible,1,,,,,,,,0,2,2,2,0,0,0,0,0,1,1,1,,,,,,,,,,,,,,,,,,,,,,,,,,,,,,,,,,,300.9119621999853,301.11238049998065,301.0955807999999,301.39612879999913,301.39612879999913,None,301.8962594999757,None,f,1,1.4740491000120528,301.8962594999757,None,None,None,303.3980728999886,None,,,,,,,,,,,,,,,,,,,,,11042,2,2,2024_Jun_17_2032,stroop_task_switching2_b,2021.2.3,59.735871867504095,
condition/block_mixed_b,instruction/instr_mixed,instruction/i10_b,红,green,d,diamond,color_mix,颜色,,incompatible,1,,,,,,,,0,2,2,2,0,0,0,0,0,2,2,2,,,,,,,,,,,,,,,,,,,,,,,,,,,,,,,,,,,304.4007694000029,304.60090809999383,304.5841938999947,304.8843159999815,304.8843159999815,None,305.38504279998597,None,d,1,1.7374957999854814,305.38504279998597,None,None,None,307.1367306000029,None,,,,,,,,,,,,,,,,,,,,,11042,2,2,2024_Jun_17_2032,stroop_task_switching2_b,2021.2.3,59.735871867504095,
condition/block_mixed_b,instruction/instr_mixed,instruction/i10_b,蓝,red,k,diamond,color_mix,颜色,,incompatible,1,,,,,,,,0,2,2,2,0,0,0,0,0,3,3,3,,,,,,,,,,,,,,,,,,,,,,,,,,,,,,,,,,,308.1394267999858,308.33972150000045,308.32299719998264,308.62369099998614,308.62369099998614,None,309.12435199998436,None,k,1,1.014159499987727,309.12435199998436,None,None,None,310.15916539999307,None,,,,,,,,,,,,,,,,,,,,,11042,2,2,2024_Jun_17_2032,stroop_task_switching2_b,2021.2.3,59.735871867504095,
condition/block_mixed_b,instruction/instr_mixed,instruction/i10_b,红,blue,j,diamond,color_mix,颜色,,incompatible,1,,,,,,,,0,2,2,2,0,0,0,0,0,4,4,4,,,,,,,,,,,,,,,,,,,,,,,,,,,,,,,,,,,311.16072250000434,311.36111909998,311.3443393999769,311.6447348999791,311.6447348999791,None,312.14544549997663,None,j,1,0.8575109000084922,312.14544549997663,None,None,None,313.03078309999546,None,,,,,,,,,,,,,,,,,,,,,11042,2,2,2024_Jun_17_2032,stroop_task_switching2_b,2021.2.3,59.735871867504095,
condition/block_mixed_b,instruction/instr_mixed,instruction/i10_b,红,blue,k,square,color_mix,单词,,incompatible,2,,,,,,,,0,2,2,2,0,0,0,0,0,5,5,5,,,,,,,,,,,,,,,,,,,,,,,,,,,,,,,,,,,314.0317443999811,314.2320073999872,314.2153494999802,314.51531049999176,314.51531049999176,None,315.01646029998665,None,k,1,1.1860770999919623,315.01646029998665,None,None,None,316.2174354000017,None,,,,,,,,,,,,,,,,,,,,,11042,2,2,2024_Jun_17_2032,stroop_task_switching2_b,2021.2.3,59.735871867504095,
condition/block_mixed_b,instruction/instr_mixed,instruction/i10_b,红,yellow,f,diamond,color_mix,颜色,,incompatible,2,,,,,,,,0,2,2,2,0,0,0,0,0,6,6,6,,,,,,,,,,,,,,,,,,,,,,,,,,,,,,,,,,,317.2198754999845,317.4201415999851,317.4037188999937,317.70327879997785,317.70327879997785,None,318.2050245999999,None,f,1,1.0140270999982022,318.2050245999999,None,None,None,319.23966429999564,None,,,,,,,,,,,,,,,,,,,,,11042,2,2,2024_Jun_17_2032,stroop_task_switching2_b,2021.2.3,59.735871867504095,
condition/block_mixed_b,instruction/instr_mixed,instruction/i10_b,红,yellow,k,square,color_mix,单词,,incompatible,2,,,,,,,,0,2,2,2,0,0,0,0,0,7,7,7,,,,,,,,,,,,,,,,,,,,,,,,,,,,,,,,,,,320.2410598999995,320.4413614999794,320.4246684999962,320.72519519997877,320.72519519997877,None,321.2260216999857,None,f,0,1.8651566999906208,321.2260216999857,None,None,None,323.11104499999783,None,,,,,,,,,,,,,,,,,,,,,11042,2,2,2024_Jun_17_2032,stroop_task_switching2_b,2021.2.3,59.735871867504095,
condition/block_mixed_b,instruction/instr_mixed,instruction/i10_b,绿,blue,d,square,color_mix,单词,,incompatible,1,,,,,,,,0,2,2,2,0,0,0,0,0,8,8,8,,,,,,,,,,,,,,,,,,,,,,,,,,,,,,,,,,,324.1133166999789,324.3138857999875,324.2970030999859,324.59819679998327,324.59819679998327,None,325.09756659998675,None,j,0,2.0656955000013113,325.09756659998675,None,None,None,327.1844925000041,None,,,,,,,,,,,,,,,,,,,,,11042,2,2,2024_Jun_17_2032,stroop_task_switching2_b,2021.2.3,59.735871867504095,
condition/block_mixed_b,instruction/instr_mixed,instruction/i10_b,蓝,green,d,diamond,color_mix,颜色,,incompatible,2,,,,,,,,0,2,2,2,0,0,0,0,0,9,9,9,,,,,,,,,,,,,,,,,,,,,,,,,,,,,,,,,,,328.18609599999036,328.38674679998076,328.3700494999939,328.67040839997935,328.67040839997935,None,329.1709637999884,None,j,0,1.5041101000097115,329.1709637999884,None,None,None,330.7064759999921,None,,,,,,,,,,,,,,,,,,,,,11042,2,2,2024_Jun_17_2032,stroop_task_switching2_b,2021.2.3,59.735871867504095,
condition/block_mixed_b,instruction/instr_mixed,instruction/i10_b,蓝,yellow,j,square,color_mix,单词,,incompatible,2,,,,,,,,0,2,2,2,0,0,0,0,0,10,10,10,,,,,,,,,,,,,,,,,,,,,,,,,,,,,,,,,,,331.70842439998523,331.9085500999936,331.8918466999894,332.1924610999995,332.1924610999995,None,332.6934943999804,None,j,1,1.0381045000103768,332.6934943999804,None,None,None,333.76104749998194,None,,,,,,,,,,,,,,,,,,,,,11042,2,2,2024_Jun_17_2032,stroop_task_switching2_b,2021.2.3,59.735871867504095,
condition/block_mixed_b,instruction/instr_mixed,instruction/i10_b,蓝,green,j,square,color_mix,单词,,incompatible,1,,,,,,,,0,2,2,2,0,0,0,0,0,11,11,11,,,,,,,,,,,,,,,,,,,,,,,,,,,,,,,,,,,334.76299359998666,334.9633613000042,334.9465631999774,335.24723739997717,335.24723739997717,None,335.7480449999857,None,j,1,0.8795559999998659,335.7480449999857,None,None,None,336.64917940000305,None,,,,,,,,,,,,,,,,,,,,,11042,2,2,2024_Jun_17_2032,stroop_task_switching2_b,2021.2.3,59.735871867504095,
condition/block_mixed_b,instruction/instr_mixed,instruction/i10_b,绿,yellow,d,square,color_mix,单词,,incompatible,1,,,,,,,,0,2,2,2,0,0,0,0,0,12,12,12,,,,,,,,,,,,,,,,,,,,,,,,,,,,,,,,,,,337.6501517999859,337.8508608999837,337.83379309999873,338.13500789998216,338.13500789998216,None,338.63545010000234,None,d,1,1.3362339999875985,338.63545010000234,None,None,None,339.9869471999991,None,,,,,,,,,,,,,,,,,,,,,11042,2,2,2024_Jun_17_2032,stroop_task_switching2_b,2021.2.3,59.735871867504095,
condition/block_mixed_b,instruction/instr_mixed,instruction/i10_b,绿,blue,j,diamond,color_mix,颜色,,incompatible,2,,,,,,,,0,2,2,2,0,0,0,0,0,13,13,13,,,,,,,,,,,,,,,,,,,,,,,,,,,,,,,,,,,340.98902439998346,341.18935000000056,341.1724625999923,341.47231869999086,341.47231869999086,None,341.9739066999755,None,j,1,0.781456500000786,341.9739066999755,None,None,None,342.7740622999845,None,,,,,,,,,,,,,,,,,,,,,11042,2,2,2024_Jun_17_2032,stroop_task_switching2_b,2021.2.3,59.735871867504095,
condition/block_mixed_b,instruction/instr_mixed,instruction/i10_b,黄,red,f,square,color_mix,单词,,incompatible,2,,,,,,,,0,2,2,2,0,0,0,0,0,14,14,14,,,,,,,,,,,,,,,,,,,,,,,,,,,,,,,,,,,343.7757934999827,343.9768654999789,343.9600661000004,344.2605663999857,344.2605663999857,None,344.7613321999961,None,f,1,1.506269000004977,344.7613321999961,None,None,None,346.2969755999802,None,,,,,,,,,,,,,,,,,,,,,11042,2,2,2024_Jun_17_2032,stroop_task_switching2_b,2021.2.3,59.735871867504095,
condition/block_mixed_b,instruction/instr_mixed,instruction/i10_b,蓝,yellow,f,diamond,color_mix,颜色,,incompatible,2,,,,,,,,0,2,2,2,0,0,0,0,0,15,15,15,,,,,,,,,,,,,,,,,,,,,,,,,,,,,,,,,,,347.29859279998345,347.49890539998887,347.48219479998806,347.7825714999926,347.7825714999926,None,348.2838501999795,None,f,1,0.7999844000150915,348.2838501999795,None,None,None,349.1013451000035,None,,,,,,,,,,,,,,,,,,,,,11042,2,2,2024_Jun_17_2032,stroop_task_switching2_b,2021.2.3,59.735871867504095,
condition/block_mixed_b,instruction/instr_mixed,instruction/i10_b,黄,red,k,diamond,color_mix,颜色,,incompatible,1,,,,,,,,0,2,2,2,0,0,0,0,0,16,16,16,,,,,,,,,,,,,,,,,,,,,,,,,,,,,,,,,,,350.10298199998215,350.3028090999869,350.2854694999987,350.586771399976,350.586771399976,None,351.0873055999982,None,k,1,0.5011113999935333,351.0873055999982,None,None,None,351.6045732999919,None,,,,,,,,,,,,,,,,,,,,,11042,2,2,2024_Jun_17_2032,stroop_task_switching2_b,2021.2.3,59.735871867504095,
condition/block_mixed_b,instruction/instr_mixed,instruction/i10_b,绿,red,d,square,color_mix,单词,,incompatible,2,,,,,,,,0,2,2,2,0,0,0,0,0,17,17,17,,,,,,,,,,,,,,,,,,,,,,,,,,,,,,,,,,,352.6065538999974,352.805758100003,352.78933299999335,353.0903980000003,353.0903980000003,None,353.5914615999791,None,j,0,1.2121799000015017,353.5914615999791,None,None,None,354.8259751999867,None,,,,,,,,,,,,,,,,,,,,,11042,2,2,2024_Jun_17_2032,stroop_task_switching2_b,2021.2.3,59.735871867504095,
condition/block_mixed_b,instruction/instr_mixed,instruction/i10_b,红,green,k,square,color_mix,单词,,incompatible,1,,,,,,,,0,2,2,2,0,0,0,0,0,18,18,18,,,,,,,,,,,,,,,,,,,,,,,,,,,,,,,,,,,355.8280315999873,356.0275049999764,356.01140809999197,356.31220749998465,356.31220749998465,None,356.81298809999134,None,k,1,2.583239900006447,356.81298809999134,None,None,None,359.4163142000034,None,,,,,,,,,,,,,,,,,,,,,11042,2,2,2024_Jun_17_2032,stroop_task_switching2_b,2021.2.3,59.735871867504095,
condition/block_mixed_b,instruction/instr_mixed,instruction/i10_b,黄,blue,j,diamond,color_mix,颜色,,incompatible,2,,,,,,,,0,2,2,2,0,0,0,0,0,19,19,19,,,,,,,,,,,,,,,,,,,,,,,,,,,,,,,,,,,360.4182933999982,360.6186148999841,360.6017163999786,360.90250299999025,360.90250299999025,None,361.4031560999865,None,j,1,0.6729162999836262,361.4031560999865,None,None,None,362.1042935999867,None,,,,,,,,,,,,,,,,,,,,,11042,2,2,2024_Jun_17_2032,stroop_task_switching2_b,2021.2.3,59.735871867504095,
condition/block_mixed_b,instruction/instr_mixed,instruction/i10_b,黄,green,d,diamond,color_mix,颜色,,incompatible,1,,,,,,,,0,2,2,2,0,0,0,0,0,20,20,20,,,,,,,,,,,,,,,,,,,,,,,,,,,,,,,,,,,363.1057925999921,363.3062004999956,363.28942489999463,363.58954379998613,363.58954379998613,None,364.0896038999781,None,d,1,0.8195663999940734,364.0896038999781,None,None,None,364.92401609997614,None,,,,,,,,,,,,,,,,,,,,,11042,2,2,2024_Jun_17_2032,stroop_task_switching2_b,2021.2.3,59.735871867504095,
condition/block_mixed_b,instruction/instr_mixed,instruction/i10_b,黄,green,f,square,color_mix,单词,,incompatible,2,,,,,,,,0,2,2,2,0,0,0,0,0,21,21,21,,,,,,,,,,,,,,,,,,,,,,,,,,,,,,,,,,,365.9265613000025,366.1266467999958,366.109669700003,366.40996540000197,366.40996540000197,None,366.91110179998213,None,f,1,1.2210363000049256,366.91110179998213,None,None,None,368.16354310000315,None,,,,,,,,,,,,,,,,,,,,,11042,2,2,2024_Jun_17_2032,stroop_task_switching2_b,2021.2.3,59.735871867504095,
condition/block_mixed_b,instruction/instr_mixed,instruction/i10_b,黄,blue,f,square,color_mix,单词,,incompatible,1,,,,,,,,0,2,2,2,0,0,0,0,0,22,22,22,,,,,,,,,,,,,,,,,,,,,,,,,,,,,,,,,,,369.16488669998944,369.36533699999563,369.3488722000038,369.6489610999997,369.6489610999997,None,370.1496136999922,None,f,1,0.830931700009387,370.1496136999922,None,None,None,370.9998415999871,None,,,,,,,,,,,,,,,,,,,,,11042,2,2,2024_Jun_17_2032,stroop_task_switching2_b,2021.2.3,59.735871867504095,
condition/block_mixed_b,instruction/instr_mixed,instruction/i10_b,蓝,red,j,square,color_mix,单词,,incompatible,1,,,,,,,,0,2,2,2,0,0,0,0,0,23,23,23,,,,,,,,,,,,,,,,,,,,,,,,,,,,,,,,,,,372.0022754999809,372.20281049999176,372.18610199997784,372.4861234999844,372.4861234999844,None,372.9862010999932,None,j,1,1.2824168999795802,372.9862010999932,None,None,None,374.28961629999685,None,,,,,,,,,,,,,,,,,,,,,11042,2,2,2024_Jun_17_2032,stroop_task_switching2_b,2021.2.3,59.735871867504095,
condition/block_mixed_b,instruction/instr_mixed,instruction/i10_b,绿,red,k,diamond,color_mix,颜色,,incompatible,2,,,,,,,,0,2,2,2,0,0,0,0,0,24,24,24,,,,,,,,,,,,,,,,,,,,,,,,,,,,,,,,,,,375.29072799999267,375.49110689997906,375.47440690000076,375.7749797999859,375.7749797999859,None,376.2755594999762,None,k,1,0.5527336999948602,376.2755594999762,None,None,None,376.85941129998537,None,,,,,,,,,,,,,,,,,,,,,11042,2,2,2024_Jun_17_2032,stroop_task_switching2_b,2021.2.3,59.735871867504095,
condition/block_mixed_b,instruction/instr_mixed,instruction/i10_b,绿,green,d,diamond,color_mix,颜色,,compatible,1,,,,,,,,0,2,2,2,0,0,0,0,0,25,25,25,,,,,,,,,,,,,,,,,,,,,,,,,,,,,,,,,,,377.86126299999887,378.06108230000245,378.04440739998245,378.34552760000224,378.34552760000224,None,378.84621989997686,None,d,1,0.6864710000227205,378.84621989997686,None,None,None,379.5638782999886,None,,,,,,,,,,,,,,,,,,,,,11042,2,2,2024_Jun_17_2032,stroop_task_switching2_b,2021.2.3,59.735871867504095,
condition/block_mixed_b,instruction/instr_mixed,instruction/i10_b,蓝,blue,j,diamond,color_mix,颜色,,compatible,1,,,,,,,,0,2,2,2,0,0,0,0,0,26,26,26,,,,,,,,,,,,,,,,,,,,,,,,,,,,,,,,,,,380.56565419997787,380.7656904000032,380.749333499989,381.04935089999344,381.04935089999344,None,381.5510210999928,None,j,1,1.0454364999895915,381.5510210999928,None,None,None,382.61843419997604,None,,,,,,,,,,,,,,,,,,,,,11042,2,2,2024_Jun_17_2032,stroop_task_switching2_b,2021.2.3,59.735871867504095,
condition/block_mixed_b,instruction/instr_mixed,instruction/i10_b,绿,green,d,square,color_mix,单词,,compatible,2,,,,,,,,0,2,2,2,0,0,0,0,0,27,27,27,,,,,,,,,,,,,,,,,,,,,,,,,,,,,,,,,,,383.6200070999912,383.8204915999959,383.8030026999768,384.1039665999997,384.1039665999997,None,384.60505309997825,None,d,1,1.4564527999900747,384.60505309997825,None,None,None,386.0901918000018,None,,,,,,,,,,,,,,,,,,,,,11042,2,2,2024_Jun_17_2032,stroop_task_switching2_b,2021.2.3,59.735871867504095,
condition/block_mixed_b,instruction/instr_mixed,instruction/i10_b,绿,green,d,square,color_mix,单词,,compatible,1,,,,,,,,0,2,2,2,0,0,0,0,0,28,28,28,,,,,,,,,,,,,,,,,,,,,,,,,,,,,,,,,,,387.09193949998007,387.2922106999904,387.27554629999213,387.5759666999802,387.5759666999802,None,388.0769321999978,None,d,1,1.279798200004734,388.0769321999978,None,None,None,389.37904010000057,None,,,,,,,,,,,,,,,,,,,,,11042,2,2,2024_Jun_17_2032,stroop_task_switching2_b,2021.2.3,59.735871867504095,
condition/block_mixed_b,instruction/instr_mixed,instruction/i10_b,蓝,blue,j,square,color_mix,单词,,compatible,1,,,,,,,,0,2,2,2,0,0,0,0,0,29,29,29,,,,,,,,,,,,,,,,,,,,,,,,,,,,,,,,,,,390.3801731999847,390.5801800999907,390.56360949997907,390.86425630000303,390.86425630000303,None,391.3652330999903,None,j,1,0.631422799982829,391.3652330999903,None,None,None,392.01500449999,None,,,,,,,,,,,,,,,,,,,,,11042,2,2,2024_Jun_17_2032,stroop_task_switching2_b,2021.2.3,59.735871867504095,
condition/block_mixed_b,instruction/instr_mixed,instruction/i10_b,黄,yellow,f,diamond,color_mix,颜色,,compatible,2,,,,,,,,0,2,2,2,0,0,0,0,0,30,30,30,,,,,,,,,,,,,,,,,,,,,,,,,,,,,,,,,,,393.0166381000017,393.2178180999763,393.19995799998287,393.50264269998297,393.50264269998297,None,394.0044340000022,None,f,1,1.4581103000091389,394.0044340000022,None,None,None,395.4871076999989,None,,,,,,,,,,,,,,,,,,,,,11042,2,2,2024_Jun_17_2032,stroop_task_switching2_b,2021.2.3,59.735871867504095,
condition/block_mixed_b,instruction/instr_mixed,instruction/i10_b,绿,green,d,square,color_mix,单词,,compatible,2,,,,,,,,0,2,2,2,0,0,0,0,0,31,31,31,,,,,,,,,,,,,,,,,,,,,,,,,,,,,,,,,,,396.4894146999868,396.6896610999829,396.67303159998846,396.9734797999845,396.9734797999845,None,397.47417819997645,None,d,1,0.7866334000136703,397.47417819997645,None,None,None,398.2912233999814,None,,,,,,,,,,,,,,,,,,,,,11042,2,2,2024_Jun_17_2032,stroop_task_switching2_b,2021.2.3,59.735871867504095,
condition/block_mixed_b,instruction/instr_mixed,instruction/i10_b,黄,yellow,f,square,color_mix,单词,,compatible,1,,,,,,,,0,2,2,2,0,0,0,0,0,32,32,32,,,,,,,,,,,,,,,,,,,,,,,,,,,,,,,,,,,399.2926228999859,399.4931851000001,399.47630509999,399.77723619999597,399.77723619999597,None,400.277577699977,None,f,1,0.5911230999918189,400.277577699977,None,None,None,400.8949651999865,None,,,,,,,,,,,,,,,,,,,,,11042,2,2,2024_Jun_17_2032,stroop_task_switching2_b,2021.2.3,59.735871867504095,
condition/block_mixed_b,instruction/instr_mixed,instruction/i10_b,绿,green,d,diamond,color_mix,颜色,,compatible,2,,,,,,,,0,2,2,2,0,0,0,0,0,33,33,33,,,,,,,,,,,,,,,,,,,,,,,,,,,,,,,,,,,401.89683399998466,402.0977428999904,402.08028959998046,402.3817887000041,402.3817887000041,None,402.88143389998004,None,d,1,0.8117173000064213,402.88143389998004,None,None,None,403.71602679998614,None,,,,,,,,,,,,,,,,,,,,,11042,2,2,2024_Jun_17_2032,stroop_task_switching2_b,2021.2.3,59.735871867504095,
condition/block_mixed_b,instruction/instr_mixed,instruction/i10_b,红,red,k,square,color_mix,单词,,compatible,2,,,,,,,,0,2,2,2,0,0,0,0,0,34,34,34,,,,,,,,,,,,,,,,,,,,,,,,,,,,,,,,,,,404.71767199999886,404.91876879998017,404.90147969999816,405.2016952999984,405.2016952999984,None,405.7026546999987,None,k,1,1.3585872999974526,405.7026546999987,None,None,None,407.0877767999773,None,,,,,,,,,,,,,,,,,,,,,11042,2,2,2024_Jun_17_2032,stroop_task_switching2_b,2021.2.3,59.735871867504095,
condition/block_mixed_b,instruction/instr_mixed,instruction/i10_b,黄,yellow,f,square,color_mix,单词,,compatible,1,,,,,,,,0,2,2,2,0,0,0,0,0,35,35,35,,,,,,,,,,,,,,,,,,,,,,,,,,,,,,,,,,,408.0891593999986,408.28952829999616,408.27431779998005,408.5729703999823,408.5729703999823,None,409.07419119999395,None,f,1,0.714849600015441,409.07419119999395,None,None,None,409.8085730999883,None,,,,,,,,,,,,,,,,,,,,,11042,2,2,2024_Jun_17_2032,stroop_task_switching2_b,2021.2.3,59.735871867504095,
condition/block_mixed_b,instruction/instr_mixed,instruction/i10_b,绿,green,d,diamond,color_mix,颜色,,compatible,2,,,,,,,,0,2,2,2,0,0,0,0,0,36,36,36,,,,,,,,,,,,,,,,,,,,,,,,,,,,,,,,,,,410.8098873999843,411.0104541000037,410.9937185999879,411.2942289999919,411.2942289999919,None,411.7949419999786,None,d,1,0.7782805000024382,411.7949419999786,None,None,None,412.5959157999896,None,,,,,,,,,,,,,,,,,,,,,11042,2,2,2024_Jun_17_2032,stroop_task_switching2_b,2021.2.3,59.735871867504095,
condition/block_mixed_b,instruction/instr_mixed,instruction/i10_b,蓝,blue,j,square,color_mix,单词,,compatible,2,,,,,,,,0,2,2,2,0,0,0,0,0,37,37,37,,,,,,,,,,,,,,,,,,,,,,,,,,,,,,,,,,,413.5976132999931,413.79804039999726,413.78128090000246,414.0831134999753,414.0831134999753,None,414.58362180000404,None,j,1,1.054029899998568,414.58362180000404,None,None,None,415.6675014999928,None,,,,,,,,,,,,,,,,,,,,,11042,2,2,2024_Jun_17_2032,stroop_task_switching2_b,2021.2.3,59.735871867504095,
condition/block_mixed_b,instruction/instr_mixed,instruction/i10_b,红,red,k,square,color_mix,单词,,compatible,1,,,,,,,,0,2,2,2,0,0,0,0,0,38,38,38,,,,,,,,,,,,,,,,,,,,,,,,,,,,,,,,,,,416.6700787000009,416.8696279999858,416.85315169999376,417.15369779997854,417.15369779997854,None,417.65452129999176,None,k,1,0.6467843999853358,417.65452129999176,None,None,None,418.3212888999842,None,,,,,,,,,,,,,,,,,,,,,11042,2,2,2024_Jun_17_2032,stroop_task_switching2_b,2021.2.3,59.735871867504095,
condition/block_mixed_b,instruction/instr_mixed,instruction/i10_b,黄,yellow,f,diamond,color_mix,颜色,,compatible,2,,,,,,,,0,2,2,2,0,0,0,0,0,39,39,39,,,,,,,,,,,,,,,,,,,,,,,,,,,,,,,,,,,419.3229563999921,419.5242244999972,419.5072326999798,419.8079663999961,419.8079663999961,None,420.3085116999864,None,f,1,0.697470399987651,420.3085116999864,None,None,None,421.0263991999964,None,,,,,,,,,,,,,,,,,,,,,11042,2,2,2024_Jun_17_2032,stroop_task_switching2_b,2021.2.3,59.735871867504095,
condition/block_mixed_b,instruction/instr_mixed,instruction/i10_b,黄,yellow,f,square,color_mix,单词,,compatible,2,,,,,,,,0,2,2,2,0,0,0,0,0,40,40,40,,,,,,,,,,,,,,,,,,,,,,,,,,,,,,,,,,,422.0275416999939,422.2281328999961,422.21113739997963,422.5120320999995,422.5120320999995,None,423.0125313999888,None,f,1,1.0891907000041101,423.0125313999888,None,None,None,424.1310911999899,None,,,,,,,,,,,,,,,,,,,,,11042,2,2,2024_Jun_17_2032,stroop_task_switching2_b,2021.2.3,59.735871867504095,
condition/block_mixed_b,instruction/instr_mixed,instruction/i10_b,蓝,blue,j,square,color_mix,单词,,compatible,1,,,,,,,,0,2,2,2,0,0,0,0,0,41,41,41,,,,,,,,,,,,,,,,,,,,,,,,,,,,,,,,,,,425.1328131999762,425.3333022999868,425.3164243999927,425.61661379999714,425.61661379999714,None,426.1172702999902,None,j,1,0.6166338000039104,426.1172702999902,None,None,None,426.7516858000017,None,,,,,,,,,,,,,,,,,,,,,11042,2,2,2024_Jun_17_2032,stroop_task_switching2_b,2021.2.3,59.735871867504095,
condition/block_mixed_b,instruction/instr_mixed,instruction/i10_b,蓝,blue,j,diamond,color_mix,颜色,,compatible,2,,,,,,,,0,2,2,2,0,0,0,0,0,42,42,42,,,,,,,,,,,,,,,,,,,,,,,,,,,,,,,,,,,427.7527134999982,427.95325479999883,427.936635399994,428.2391723000037,428.2391723000037,None,428.75476719997823,None,j,1,0.4588891000021249,428.75476719997823,None,None,None,429.23880739999004,None,,,,,,,,,,,,,,,,,,,,,11042,2,2,2024_Jun_17_2032,stroop_task_switching2_b,2021.2.3,59.735871867504095,
condition/block_mixed_b,instruction/instr_mixed,instruction/i10_b,黄,yellow,f,diamond,color_mix,颜色,,compatible,1,,,,,,,,0,2,2,2,0,0,0,0,0,43,43,43,,,,,,,,,,,,,,,,,,,,,,,,,,,,,,,,,,,430.24034910000046,430.439524299989,430.4229522999958,430.72435750000295,430.72435750000295,None,431.225054599985,None,f,1,0.45304369999212213,431.225054599985,None,None,None,431.7092192999844,None,,,,,,,,,,,,,,,,,,,,,11042,2,2,2024_Jun_17_2032,stroop_task_switching2_b,2021.2.3,59.735871867504095,
condition/block_mixed_b,instruction/instr_mixed,instruction/i10_b,红,red,k,diamond,color_mix,颜色,,compatible,1,,,,,,,,0,2,2,2,0,0,0,0,0,44,44,44,,,,,,,,,,,,,,,,,,,,,,,,,,,,,,,,,,,432.71066549999523,432.9107616999827,432.89364679998835,433.1947919999948,433.1947919999948,None,433.6943390999804,None,k,1,0.45556329999817535,433.6943390999804,None,None,None,434.1795232000004,None,,,,,,,,,,,,,,,,,,,,,11042,2,2,2024_Jun_17_2032,stroop_task_switching2_b,2021.2.3,59.735871867504095,
condition/block_mixed_b,instruction/instr_mixed,instruction/i10_b,蓝,blue,j,diamond,color_mix,颜色,,compatible,1,,,,,,,,0,2,2,2,0,0,0,0,0,45,45,45,,,,,,,,,,,,,,,,,,,,,,,,,,,,,,,,,,,435.18110600000364,435.3814623999933,435.36458739999216,435.6650112999778,435.6650112999778,None,436.1657563999761,None,j,1,0.7524397000088356,436.1657563999761,None,None,None,436.9335567999806,None,,,,,,,,,,,,,,,,,,,,,11042,2,2,2024_Jun_17_2032,stroop_task_switching2_b,2021.2.3,59.735871867504095,
condition/block_mixed_b,instruction/instr_mixed,instruction/i10_b,红,red,k,diamond,color_mix,颜色,,compatible,1,,,,,,,,0,2,2,2,0,0,0,0,0,46,46,46,,,,,,,,,,,,,,,,,,,,,,,,,,,,,,,,,,,437.9351231000037,438.13566739999806,438.1190678999992,438.419427899993,438.419427899993,None,438.92051579998224,None,k,1,0.6458662000077311,438.92051579998224,None,None,None,439.58813139999984,None,,,,,,,,,,,,,,,,,,,,,11042,2,2,2024_Jun_17_2032,stroop_task_switching2_b,2021.2.3,59.735871867504095,
condition/block_mixed_b,instruction/instr_mixed,instruction/i10_b,红,red,k,square,color_mix,单词,,compatible,2,,,,,,,,0,2,2,2,0,0,0,0,0,47,47,47,,,,,,,,,,,,,,,,,,,,,,,,,,,,,,,,,,,440.5891563000041,440.78956269999617,440.77281049999874,441.0730455000012,441.0730455000012,None,441.57402249998995,None,k,1,0.47220889999880455,441.57402249998995,None,None,None,442.074635099998,None,,,,,,,,,,,,,,,,,,,,,11042,2,2,2024_Jun_17_2032,stroop_task_switching2_b,2021.2.3,59.735871867504095,
condition/block_mixed_b,instruction/instr_mixed,instruction/i10_b,红,red,k,diamond,color_mix,颜色,,compatible,2,,,,,,,,0,2,2,2,0,0,0,0,0,48,48,48,,,,,,,,,,,,,,,,,,,,,,,,,,,,,,,,,,,443.0756616999861,443.27660260000266,443.2587660999852,443.5593957999954,443.5593957999954,None,444.0601381000015,None,k,1,0.3940383000008296,444.0601381000015,None,None,None,444.4774956999754,None,,,,,,,,,,,,,,,,,,,,,11042,2,2,2024_Jun_17_2032,stroop_task_switching2_b,2021.2.3,59.735871867504095,
condition/block_mixed_b,instruction/instr_mixed,instruction/i10_b,,,,,,,,,,,,,,,,,0,2,2,2,0,0,0,0,,,,,,,,,,,,,,,,,,,,,,,,,,,,,,,,,,,,,,,,,,,,,,,,,,,,,,,,445.4972496999835,None,space,5.378161900007399,445.4972496999835,None,,,,,,,,,,,,,,,11042,2,2,2024_Jun_17_2032,stroop_task_switching2_b,2021.2.3,59.735871867504095,
condition/block_mixed_b,instruction/instr_mixed,instruction/i10_b,,,,,,,,,,,,,,,,,0,2,2,2,,,,,,,,,,,,,,,,,,,,,,,,,,,,,,,,,,,,,,,,,,,,,,,,,,,,,,,,,,,,,,,,,,,,,,,,,,,,,,,,11042,2,2,2024_Jun_17_2032,stroop_task_switching2_b,2021.2.3,59.735871867504095,
,,,红,red,k,square,color_mix,单词,,compatible,0,block_switch1_b,instruction/ready_test.png,instruction/i11.png,,,,,,,,,,,,,,,,,0,0,0,0,0,0,0,0,,,,,,,,,,,,,,,,,,,462.93924449998303,463.9411953999952,463.9411953999952,464.94179829998757,464.94179829998757,None,461.9544341999863,462.9562894999981,465.9770493999822,466.17816989999847,466.161128799984,466.4607537999982,466.4607537999982,None,466.9623355999938,None,k,1,0.6445651999965776,466.9623355999938,None,None,None,,,,,,,,,450.97087789999205,None,space,10.956138800014742,450.97087789999205,None,,,,,,,,,11042,2,2,2024_Jun_17_2032,stroop_task_switching2_b,2021.2.3,59.735871867504095,
,,,绿,green,d,diamond,color_mix,颜色,,compatible,2,block_switch1_b,instruction/ready_test.png,instruction/i11.png,,,,,,,,,,,,,,,,,0,0,0,0,0,1,1,1,,,,,,,,,,,,,,,,,,,,,,,,,,,467.6461510999943,467.8476388999843,467.812557199999,468.11412069998914,468.11412069998914,None,468.6144740000018,None,f,0,1.2723914999805856,468.6144740000018,None,None,None,,,,,,,,,,,,,,,,,,,,,,,11042,2,2,2024_Jun_17_2032,stroop_task_switching2_b,2021.2.3,59.735871867504095,
,,,绿,yellow,f,diamond,color_mix,颜色,,incompatible,1,block_switch1_b,instruction/ready_test.png,instruction/i11.png,,,,,,,,,,,,,,,,,0,0,0,0,0,2,2,2,,,,,,,,,,,,,,,,,,,,,,,,,,,469.916914899979,470.11623339998187,470.0995793999755,470.40124330000253,470.40124330000253,None,470.90185829999973,None,d,0,1.6494128000049386,470.90185829999973,None,None,None,,,,,,,,,,,,,,,,,,,,,,,11042,2,2,2024_Jun_17_2032,stroop_task_switching2_b,2021.2.3,59.735871867504095,
,,,蓝,blue,j,diamond,color_mix,颜色,,compatible,1,block_switch1_b,instruction/ready_test.png,instruction/i11.png,,,,,,,,,,,,,,,,,0,0,0,0,0,3,3,3,,,,,,,,,,,,,,,,,,,,,,,,,,,472.57019279999076,472.7701360999781,472.7545701999916,473.0548333999759,473.0548333999759,None,473.55564779997803,None,j,1,0.5795768999960274,473.55564779997803,None,None,None,,,,,,,,,,,,,,,,,,,,,,,11042,2,2,2024_Jun_17_2032,stroop_task_switching2_b,2021.2.3,59.735871867504095,
,,,绿,green,d,square,color_mix,单词,,compatible,2,block_switch1_b,instruction/ready_test.png,instruction/i11.png,,,,,,,,,,,,,,,,,0,0,0,0,0,4,4,4,,,,,,,,,,,,,,,,,,,,,,,,,,,474.1558737999876,474.35690640000394,474.3393087000004,474.6404890999838,474.6404890999838,None,475.1415292999882,None,d,1,1.0584566000034101,475.1415292999882,None,None,None,,,,,,,,,,,,,,,,,,,,,,,11042,2,2,2024_Jun_17_2032,stroop_task_switching2_b,2021.2.3,59.735871867504095,
,,,绿,blue,j,diamond,color_mix,颜色,,incompatible,2,block_switch1_b,instruction/ready_test.png,instruction/i11.png,,,,,,,,,,,,,,,,,0,0,0,0,0,5,5,5,,,,,,,,,,,,,,,,,,,,,,,,,,,476.22565989999566,476.4268111999845,476.4099280999799,476.7104518999986,476.7104518999986,None,477.2110689999827,None,j,1,0.8760463000216987,477.2110689999827,None,None,None,,,,,,,,,,,,,,,,,,,,,,,11042,2,2,2024_Jun_17_2032,stroop_task_switching2_b,2021.2.3,59.735871867504095,
,,,黄,red,f,square,color_mix,单词,,incompatible,2,block_switch1_b,instruction/ready_test.png,instruction/i11.png,,,,,,,,,,,,,,,,,0,0,0,0,0,6,6,6,,,,,,,,,,,,,,,,,,,,,,,,,,,478.1115404999873,478.3123964999977,478.29565990000265,478.5966283000016,478.5966283000016,None,479.09716399997706,None,f,1,2.182410399982473,479.09716399997706,None,None,None,,,,,,,,,,,,,,,,,,,,,,,11042,2,2,2024_Jun_17_2032,stroop_task_switching2_b,2021.2.3,59.735871867504095,
,,,绿,green,d,square,color_mix,单词,,compatible,1,block_switch1_b,instruction/ready_test.png,instruction/i11.png,,,,,,,,,,,,,,,,,0,0,0,0,0,7,7,7,,,,,,,,,,,,,,,,,,,,,,,,,,,481.30002100000274,481.50063949998,481.48378989999765,481.78423399999156,481.78423399999156,None,482.2855218999903,None,d,1,1.1139856000081636,482.2855218999903,None,None,None,,,,,,,,,,,,,,,,,,,,,,,11042,2,2,2024_Jun_17_2032,stroop_task_switching2_b,2021.2.3,59.735871867504095,
,,,蓝,blue,j,square,color_mix,单词,,compatible,1,block_switch1_b,instruction/ready_test.png,instruction/i11.png,,,,,,,,,,,,,,,,,0,0,0,0,0,8,8,8,,,,,,,,,,,,,,,,,,,,,,,,,,,483.4195510999998,483.6206877999939,483.60444309999,483.90470469999127,483.90470469999127,None,484.40517279997584,None,d,0,1.7621062000107486,484.40517279997584,None,None,None,,,,,,,,,,,,,,,,,,,,,,,11042,2,2,2024_Jun_17_2032,stroop_task_switching2_b,2021.2.3,59.735871867504095,
,,,红,red,k,diamond,color_mix,颜色,,compatible,2,block_switch1_b,instruction/ready_test.png,instruction/i11.png,,,,,,,,,,,,,,,,,0,0,0,0,0,9,9,9,,,,,,,,,,,,,,,,,,,,,,,,,,,486.190196999989,486.391624699987,486.374828400003,486.6755335999769,486.6755335999769,None,487.1763346999942,None,k,1,1.8950184999848716,487.1763346999942,None,None,None,,,,,,,,,,,,,,,,,,,,,,,11042,2,2,2024_Jun_17_2032,stroop_task_switching2_b,2021.2.3,59.735871867504095,
,,,黄,yellow,f,diamond,color_mix,颜色,,compatible,1,block_switch1_b,instruction/ready_test.png,instruction/i11.png,,,,,,,,,,,,,,,,,0,0,0,0,0,10,10,10,,,,,,,,,,,,,,,,,,,,,,,,,,,489.0957312999817,489.296231299988,489.27923309998005,489.57964489998994,489.57964489998994,None,490.0804134999926,None,f,1,1.014933700003894,490.0804134999926,None,None,None,,,,,,,,,,,,,,,,,,,,,,,11042,2,2,2024_Jun_17_2032,stroop_task_switching2_b,2021.2.3,59.735871867504095,
,,,绿,green,d,square,color_mix,单词,,compatible,2,block_switch1_b,instruction/ready_test.png,instruction/i11.png,,,,,,,,,,,,,,,,,0,0,0,0,0,11,11,11,,,,,,,,,,,,,,,,,,,,,,,,,,,491.114362399996,491.3160913999891,491.29804219998186,491.59865400000126,491.59865400000126,None,492.09928480000235,None,d,1,1.876217799988808,492.09928480000235,None,None,None,,,,,,,,,,,,,,,,,,,,,,,11042,2,2,2024_Jun_17_2032,stroop_task_switching2_b,2021.2.3,59.735871867504095,
,,,红,red,k,diamond,color_mix,颜色,,compatible,2,block_switch1_b,instruction/ready_test.png,instruction/i11.png,,,,,,,,,,,,,,,,,0,0,0,0,0,12,12,12,,,,,,,,,,,,,,,,,,,,,,,,,,,494.00317309997627,494.20355249999557,494.1864541999821,494.4866703999869,494.4866703999869,None,494.9876682999893,None,k,1,0.5249930999998469,494.9876682999893,None,None,None,,,,,,,,,,,,,,,,,,,,,,,11042,2,2,2024_Jun_17_2032,stroop_task_switching2_b,2021.2.3,59.735871867504095,
,,,红,red,k,diamond,color_mix,颜色,,compatible,1,block_switch1_b,instruction/ready_test.png,instruction/i11.png,,,,,,,,,,,,,,,,,0,0,0,0,0,13,13,13,,,,,,,,,,,,,,,,,,,,,,,,,,,495.5382888999884,495.7390403999889,495.72236819998943,496.02294189998065,496.02294189998065,None,496.5236673000036,None,k,1,0.4518392999889329,496.5236673000036,None,None,None,,,,,,,,,,,,,,,,,,,,,,,11042,2,2,2024_Jun_17_2032,stroop_task_switching2_b,2021.2.3,59.735871867504095,
,,,黄,yellow,f,square,color_mix,单词,,compatible,2,block_switch1_b,instruction/ready_test.png,instruction/i11.png,,,,,,,,,,,,,,,,,0,0,0,0,0,14,14,14,,,,,,,,,,,,,,,,,,,,,,,,,,,496.989949699986,497.1923712999851,497.17365909999353,497.4752354999946,497.4752354999946,None,497.975984699995,None,f,1,0.5517860999971163,497.975984699995,None,None,None,,,,,,,,,,,,,,,,,,,,,,,11042,2,2,2024_Jun_17_2032,stroop_task_switching2_b,2021.2.3,59.735871867504095,
,,,红,green,d,diamond,color_mix,颜色,,incompatible,2,block_switch1_b,instruction/ready_test.png,instruction/i11.png,,,,,,,,,,,,,,,,,0,0,0,0,0,15,15,15,,,,,,,,,,,,,,,,,,,,,,,,,,,498.560556899989,498.7604475999833,498.72701539998525,499.02746159999515,499.02746159999515,None,499.52787319998606,None,d,1,1.1362214999971911,499.52787319998606,None,None,None,,,,,,,,,,,,,,,,,,,,,,,11042,2,2,2024_Jun_17_2032,stroop_task_switching2_b,2021.2.3,59.735871867504095,
,,,蓝,red,k,diamond,color_mix,颜色,,incompatible,1,block_switch1_b,instruction/ready_test.png,instruction/i11.png,,,,,,,,,,,,,,,,,0,0,0,0,0,16,16,16,,,,,,,,,,,,,,,,,,,,,,,,,,,500.6793459999899,500.8803467999969,500.8636605999782,501.1642541999754,501.1642541999754,None,501.66477669999585,None,k,1,0.6314119000162464,501.66477669999585,None,None,None,,,,,,,,,,,,,,,,,,,,,,,11042,2,2,2024_Jun_17_2032,stroop_task_switching2_b,2021.2.3,59.735871867504095,
,,,黄,green,d,diamond,color_mix,颜色,,incompatible,1,block_switch1_b,instruction/ready_test.png,instruction/i11.png,,,,,,,,,,,,,,,,,0,0,0,0,0,17,17,17,,,,,,,,,,,,,,,,,,,,,,,,,,,502.3147920999909,502.5153035999974,502.49926349997986,502.80010269998456,502.80010269998456,None,503.30044110000017,None,j,0,1.1637232000066433,503.30044110000017,None,None,None,,,,,,,,,,,,,,,,,,,,,,,11042,2,2,2024_Jun_17_2032,stroop_task_switching2_b,2021.2.3,59.735871867504095,
,,,绿,green,d,diamond,color_mix,颜色,,compatible,1,block_switch1_b,instruction/ready_test.png,instruction/i11.png,,,,,,,,,,,,,,,,,0,0,0,0,0,18,18,18,,,,,,,,,,,,,,,,,,,,,,,,,,,504.48520359999384,504.6858008999843,504.66911119999713,504.9699462999997,504.9699462999997,None,505.47036199999275,None,d,1,0.6501319000090007,505.47036199999275,None,None,None,,,,,,,,,,,,,,,,,,,,,,,11042,2,2,2024_Jun_17_2032,stroop_task_switching2_b,2021.2.3,59.735871867504095,
,,,黄,red,k,diamond,color_mix,颜色,,incompatible,1,block_switch1_b,instruction/ready_test.png,instruction/i11.png,,,,,,,,,,,,,,,,,0,0,0,0,0,19,19,19,,,,,,,,,,,,,,,,,,,,,,,,,,,506.13744719998795,506.338341900002,506.32148829998914,506.62227779999375,506.62227779999375,None,507.1228548999934,None,k,1,0.5252841000037733,507.1228548999934,None,None,None,,,,,,,,,,,,,,,,,,,,,,,11042,2,2,2024_Jun_17_2032,stroop_task_switching2_b,2021.2.3,59.735871867504095,
,,,绿,yellow,d,square,color_mix,单词,,incompatible,2,block_switch1_b,instruction/ready_test.png,instruction/i11.png,,,,,,,,,,,,,,,,,0,0,0,0,0,20,20,20,,,,,,,,,,,,,,,,,,,,,,,,,,,507.67314649999025,507.8738933999848,507.8570375999843,508.1577488000039,508.1577488000039,None,508.65867779997643,None,d,1,1.5413701999932528,508.65867779997643,None,None,None,,,,,,,,,,,,,,,,,,,,,,,11042,2,2,2024_Jun_17_2032,stroop_task_switching2_b,2021.2.3,59.735871867504095,
,,,绿,yellow,f,diamond,color_mix,颜色,,incompatible,2,block_switch1_b,instruction/ready_test.png,instruction/i11.png,,,,,,,,,,,,,,,,,0,0,0,0,0,21,21,21,,,,,,,,,,,,,,,,,,,,,,,,,,,510.22723709998536,510.4275149999885,510.4109802999883,510.7120709999872,510.7120709999872,None,511.2123568999814,None,f,1,1.595635300007416,511.2123568999814,None,None,None,,,,,,,,,,,,,,,,,,,,,,,11042,2,2,2024_Jun_17_2032,stroop_task_switching2_b,2021.2.3,59.735871867504095,
,,,绿,green,d,square,color_mix,单词,,compatible,2,block_switch1_b,instruction/ready_test.png,instruction/i11.png,,,,,,,,,,,,,,,,,0,0,0,0,0,22,22,22,,,,,,,,,,,,,,,,,,,,,,,,,,,512.8311548999918,513.0321640999755,513.0140219999885,513.3146266999829,513.3146266999829,None,513.8160770999966,None,d,1,1.7281291999970563,513.8160770999966,None,None,None,,,,,,,,,,,,,,,,,,,,,,,11042,2,2,2024_Jun_17_2032,stroop_task_switching2_b,2021.2.3,59.735871867504095,
,,,红,red,k,square,color_mix,单词,,compatible,1,block_switch1_b,instruction/ready_test.png,instruction/i11.png,,,,,,,,,,,,,,,,,0,0,0,0,0,23,23,23,,,,,,,,,,,,,,,,,,,,,,,,,,,515.5685452999896,515.7691758000001,515.7517985999875,516.0528478999913,516.0528478999913,None,516.5539499000006,None,k,1,0.5904315000225324,516.5539499000006,None,None,None,,,,,,,,,,,,,,,,,,,,,,,11042,2,2,2024_Jun_17_2032,stroop_task_switching2_b,2021.2.3,59.735871867504095,
,,,黄,green,f,square,color_mix,单词,,incompatible,1,block_switch1_b,instruction/ready_test.png,instruction/i11.png,,,,,,,,,,,,,,,,,0,0,0,0,0,24,24,24,,,,,,,,,,,,,,,,,,,,,,,,,,,517.1713019000017,517.3713652000006,517.354428599996,517.6548956999904,517.6548956999904,None,518.1554957999906,None,f,1,2.7567718999926,518.1554957999906,None,None,None,,,,,,,,,,,,,,,,,,,,,,,11042,2,2,2024_Jun_17_2032,stroop_task_switching2_b,2021.2.3,59.735871867504095,
,,,红,blue,k,square,color_mix,单词,,incompatible,1,block_switch1_b,instruction/ready_test.png,instruction/i11.png,,,,,,,,,,,,,,,,,0,0,0,0,0,25,25,25,,,,,,,,,,,,,,,,,,,,,,,,,,,520.9426836999774,521.143284299993,521.126280299999,521.4277913999977,521.4277913999977,None,521.9285785999964,None,k,1,1.6161744999990333,521.9285785999964,None,None,None,,,,,,,,,,,,,,,,,,,,,,,11042,2,2,2024_Jun_17_2032,stroop_task_switching2_b,2021.2.3,59.735871867504095,
,,,黄,yellow,f,square,color_mix,单词,,compatible,1,block_switch1_b,instruction/ready_test.png,instruction/i11.png,,,,,,,,,,,,,,,,,0,0,0,0,0,26,26,26,,,,,,,,,,,,,,,,,,,,,,,,,,,523.5641087999975,523.763744099997,523.7471259000013,524.0484987999953,524.0484987999953,None,524.5491576999775,None,f,1,0.7393389999924693,524.5491576999775,None,None,None,,,,,,,,,,,,,,,,,,,,,,,11042,2,2,2024_Jun_17_2032,stroop_task_switching2_b,2021.2.3,59.735871867504095,
,,,蓝,green,j,square,color_mix,单词,,incompatible,1,block_switch1_b,instruction/ready_test.png,instruction/i11.png,,,,,,,,,,,,,,,,,0,0,0,0,0,27,27,27,,,,,,,,,,,,,,,,,,,,,,,,,,,525.3188069000025,525.5329641999851,525.5006707999855,525.8009823999892,525.8009823999892,None,526.301612899988,None,j,1,1.699268900003517,526.301612899988,None,None,None,,,,,,,,,,,,,,,,,,,,,,,11042,2,2,2024_Jun_17_2032,stroop_task_switching2_b,2021.2.3,59.735871867504095,
,,,绿,green,d,diamond,color_mix,颜色,,compatible,2,block_switch1_b,instruction/ready_test.png,instruction/i11.png,,,,,,,,,,,,,,,,,0,0,0,0,0,28,28,28,,,,,,,,,,,,,,,,,,,,,,,,,,,528.0201050000032,528.2213912000007,528.2048651999794,528.5048243999772,528.5048243999772,None,529.0047852999996,None,f,0,0.5801797000167426,529.0047852999996,None,None,None,,,,,,,,,,,,,,,,,,,,,,,11042,2,2,2024_Jun_17_2032,stroop_task_switching2_b,2021.2.3,59.735871867504095,
,,,黄,blue,j,diamond,color_mix,颜色,,incompatible,1,block_switch1_b,instruction/ready_test.png,instruction/i11.png,,,,,,,,,,,,,,,,,0,0,0,0,0,29,29,29,,,,,,,,,,,,,,,,,,,,,,,,,,,529.605871399981,529.8070452999964,529.7901337999792,530.0910135000013,530.0910135000013,None,530.5914379000023,None,j,1,1.8175885999808088,530.5914379000023,None,None,None,,,,,,,,,,,,,,,,,,,,,,,11042,2,2,2024_Jun_17_2032,stroop_task_switching2_b,2021.2.3,59.735871867504095,
,,,绿,green,d,diamond,color_mix,颜色,,compatible,1,block_switch1_b,instruction/ready_test.png,instruction/i11.png,,,,,,,,,,,,,,,,,0,0,0,0,0,30,30,30,,,,,,,,,,,,,,,,,,,,,,,,,,,532.4273739999917,532.6278366000042,532.6108957999968,532.9127954999858,532.9127954999858,None,533.4126593999972,None,d,1,0.9560839000041597,533.4126593999972,None,None,None,,,,,,,,,,,,,,,,,,,,,,,11042,2,2,2024_Jun_17_2032,stroop_task_switching2_b,2021.2.3,59.735871867504095,
,,,蓝,blue,j,square,color_mix,单词,,compatible,2,block_switch1_b,instruction/ready_test.png,instruction/i11.png,,,,,,,,,,,,,,,,,0,0,0,0,0,31,31,31,,,,,,,,,,,,,,,,,,,,,,,,,,,534.3968108999834,534.5976033000043,534.5806177999766,534.8815184999839,534.8815184999839,None,535.3820313999895,None,j,1,1.570937500015134,535.3820313999895,None,None,None,,,,,,,,,,,,,,,,,,,,,,,11042,2,2,2024_Jun_17_2032,stroop_task_switching2_b,2021.2.3,59.735871867504095,
,,,红,red,k,square,color_mix,单词,,compatible,1,block_switch1_b,instruction/ready_test.png,instruction/i11.png,,,,,,,,,,,,,,,,,0,0,0,0,0,32,32,32,,,,,,,,,,,,,,,,,,,,,,,,,,,536.9668277000019,537.1678519999841,537.1514658999804,537.4519985999796,537.4519985999796,None,537.9525087999937,None,k,1,1.2646424999984447,537.9525087999937,None,None,None,,,,,,,,,,,,,,,,,,,,,,,11042,2,2,2024_Jun_17_2032,stroop_task_switching2_b,2021.2.3,59.735871867504095,
,,,红,green,k,square,color_mix,单词,,incompatible,1,block_switch1_b,instruction/ready_test.png,instruction/i11.png,,,,,,,,,,,,,,,,,0,0,0,0,0,33,33,33,,,,,,,,,,,,,,,,,,,,,,,,,,,539.2379836000036,539.4378131999983,539.4213161999942,539.7219874000002,539.7219874000002,None,540.2230517999851,None,d,0,2.0420001999882516,540.2230517999851,None,None,None,,,,,,,,,,,,,,,,,,,,,,,11042,2,2,2024_Jun_17_2032,stroop_task_switching2_b,2021.2.3,59.735871867504095,
,,,黄,yellow,f,diamond,color_mix,颜色,,compatible,2,block_switch1_b,instruction/ready_test.png,instruction/i11.png,,,,,,,,,,,,,,,,,0,0,0,0,0,34,34,34,,,,,,,,,,,,,,,,,,,,,,,,,,,542.2920383999881,542.4929085999902,542.4762028999976,542.7756892000034,542.7756892000034,None,543.2773655999918,None,f,1,0.771881199994823,543.2773655999918,None,None,None,,,,,,,,,,,,,,,,,,,,,,,11042,2,2,2024_Jun_17_2032,stroop_task_switching2_b,2021.2.3,59.735871867504095,
,,,红,green,d,diamond,color_mix,颜色,,incompatible,1,block_switch1_b,instruction/ready_test.png,instruction/i11.png,,,,,,,,,,,,,,,,,0,0,0,0,0,35,35,35,,,,,,,,,,,,,,,,,,,,,,,,,,,544.0783401999797,544.2785876999842,544.2617001000035,544.5627290999983,544.5627290999983,None,545.063619499997,None,d,1,2.6017253999889363,545.063619499997,None,None,None,,,,,,,,,,,,,,,,,,,,,,,11042,2,2,2024_Jun_17_2032,stroop_task_switching2_b,2021.2.3,59.735871867504095,
,,,黄,yellow,f,square,color_mix,单词,,compatible,2,block_switch1_b,instruction/ready_test.png,instruction/i11.png,,,,,,,,,,,,,,,,,0,0,0,0,0,36,36,36,,,,,,,,,,,,,,,,,,,,,,,,,,,547.6831679999887,547.8832618999877,547.8671445999935,548.1681339999777,548.1681339999777,None,548.6688445000036,None,f,1,0.6206592999806162,548.6688445000036,None,None,None,,,,,,,,,,,,,,,,,,,,,,,11042,2,2,2024_Jun_17_2032,stroop_task_switching2_b,2021.2.3,59.735871867504095,
,,,蓝,blue,j,square,color_mix,单词,,compatible,1,block_switch1_b,instruction/ready_test.png,instruction/i11.png,,,,,,,,,,,,,,,,,0,0,0,0,0,37,37,37,,,,,,,,,,,,,,,,,,,,,,,,,,,549.3196396999992,549.5199091999966,549.5029863999807,549.8032685999933,549.8032685999933,None,550.3048537999857,553.3092521999788,None,0,,550.3048537999857,553.3092521999788,553.2925490999769,None,,,,,,,,,,,,,,,,,,,,,,,11042,2,2,2024_Jun_17_2032,stroop_task_switching2_b,2021.2.3,59.735871867504095,
,,,绿,red,k,diamond,color_mix,颜色,,incompatible,2,block_switch1_b,instruction/ready_test.png,instruction/i11.png,,,,,,,,,,,,,,,,,0,0,0,0,0,38,38,38,,,,,,,,,,,,,,,,,,,,,,,,,,,554.0933306999796,554.2938542999909,554.2769955999975,554.5771351000003,554.5771351000003,None,555.0787504999898,None,k,1,0.6585151999897789,555.0787504999898,None,None,None,,,,,,,,,,,,,,,,,,,,,,,11042,2,2,2024_Jun_17_2032,stroop_task_switching2_b,2021.2.3,59.735871867504095,
,,,黄,yellow,f,diamond,color_mix,颜色,,compatible,1,block_switch1_b,instruction/ready_test.png,instruction/i11.png,,,,,,,,,,,,,,,,,0,0,0,0,0,39,39,39,,,,,,,,,,,,,,,,,,,,,,,,,,,555.7627297999861,555.9633446999942,555.9466393000039,556.2461368999793,556.2461368999793,None,556.7475202999776,None,d,0,0.5662296000227798,556.7475202999776,None,None,None,,,,,,,,,,,,,,,,,,,,,,,11042,2,2,2024_Jun_17_2032,stroop_task_switching2_b,2021.2.3,59.735871867504095,
,,,红,blue,j,diamond,color_mix,颜色,,incompatible,1,block_switch1_b,instruction/ready_test.png,instruction/i11.png,,,,,,,,,,,,,,,,,0,0,0,0,0,40,40,40,,,,,,,,,,,,,,,,,,,,,,,,,,,557.3315822999866,557.531852199987,557.5155868000002,557.8158470999915,557.8158470999915,None,558.3167795999907,None,j,1,0.8444907999946736,558.3167795999907,None,None,None,,,,,,,,,,,,,,,,,,,,,,,11042,2,2,2024_Jun_17_2032,stroop_task_switching2_b,2021.2.3,59.735871867504095,
,,,绿,blue,d,square,color_mix,单词,,incompatible,2,block_switch1_b,instruction/ready_test.png,instruction/i11.png,,,,,,,,,,,,,,,,,0,0,0,0,0,41,41,41,,,,,,,,,,,,,,,,,,,,,,,,,,,559.184397999983,559.3850600000005,559.3684127999877,559.6678520999849,559.6678520999849,None,560.1693744999939,None,d,1,1.2159375000046566,560.1693744999939,None,None,None,,,,,,,,,,,,,,,,,,,,,,,11042,2,2,2024_Jun_17_2032,stroop_task_switching2_b,2021.2.3,59.735871867504095,
,,,蓝,blue,j,diamond,color_mix,颜色,,compatible,2,block_switch1_b,instruction/ready_test.png,instruction/i11.png,,,,,,,,,,,,,,,,,0,0,0,0,0,42,42,42,,,,,,,,,,,,,,,,,,,,,,,,,,,561.4045165999851,561.6050466999877,561.58854289999,561.8884518999839,561.8884518999839,None,562.3897455999977,None,j,1,0.611613999994006,562.3897455999977,None,None,None,,,,,,,,,,,,,,,,,,,,,,,11042,2,2,2024_Jun_17_2032,stroop_task_switching2_b,2021.2.3,59.735871867504095,
,,,红,blue,k,square,color_mix,单词,,incompatible,2,block_switch1_b,instruction/ready_test.png,instruction/i11.png,,,,,,,,,,,,,,,,,0,0,0,0,0,43,43,43,,,,,,,,,,,,,,,,,,,,,,,,,,,563.0229384999839,563.2233670999995,563.2065680999949,563.5078398999758,563.5078398999758,None,564.0087360999896,None,k,1,0.6806785000080708,564.0087360999896,None,None,None,,,,,,,,,,,,,,,,,,,,,,,11042,2,2,2024_Jun_17_2032,stroop_task_switching2_b,2021.2.3,59.735871867504095,
,,,蓝,green,d,diamond,color_mix,颜色,,incompatible,2,block_switch1_b,instruction/ready_test.png,instruction/i11.png,,,,,,,,,,,,,,,,,0,0,0,0,0,44,44,44,,,,,,,,,,,,,,,,,,,,,,,,,,,564.7093914999859,564.9098701999756,564.8928978999902,565.1937693999789,565.1937693999789,None,565.6940636999789,None,d,1,0.8274086000164971,565.6940636999789,None,None,None,,,,,,,,,,,,,,,,,,,,,,,11042,2,2,2024_Jun_17_2032,stroop_task_switching2_b,2021.2.3,59.735871867504095,
,,,黄,yellow,f,square,color_mix,单词,,compatible,2,block_switch1_b,instruction/ready_test.png,instruction/i11.png,,,,,,,,,,,,,,,,,0,0,0,0,0,45,45,45,,,,,,,,,,,,,,,,,,,,,,,,,,,566.5456147999794,566.7459622999886,566.7307390999922,567.0466364999884,567.0303453999804,None,567.5307364999899,None,f,1,0.6868713999865577,567.5307364999899,None,None,None,,,,,,,,,,,,,,,,,,,,,,,11042,2,2,2024_Jun_17_2032,stroop_task_switching2_b,2021.2.3,59.735871867504095,
,,,黄,yellow,f,diamond,color_mix,颜色,,compatible,2,block_switch1_b,instruction/ready_test.png,instruction/i11.png,,,,,,,,,,,,,,,,,0,0,0,0,0,46,46,46,,,,,,,,,,,,,,,,,,,,,,,,,,,568.2479835999839,568.4493583999865,568.4320029999944,568.7324477999937,568.7324477999937,None,569.2331307999848,None,f,1,0.5045147000055294,569.2331307999848,None,None,None,,,,,,,,,,,,,,,,,,,,,,,11042,2,2,2024_Jun_17_2032,stroop_task_switching2_b,2021.2.3,59.735871867504095,
,,,绿,red,d,square,color_mix,单词,,incompatible,2,block_switch1_b,instruction/ready_test.png,instruction/i11.png,,,,,,,,,,,,,,,,,0,0,0,0,0,47,47,47,,,,,,,,,,,,,,,,,,,,,,,,,,,569.7680221999763,569.9677140999993,569.9513905999775,570.2513901999919,570.2513901999919,None,570.752232400002,None,d,1,1.0023170999775175,570.752232400002,None,None,None,,,,,,,,,,,,,,,,,,,,,,,11042,2,2,2024_Jun_17_2032,stroop_task_switching2_b,2021.2.3,59.735871867504095,
,,,红,red,k,diamond,color_mix,颜色,,compatible,2,block_switch1_b,instruction/ready_test.png,instruction/i11.png,,,,,,,,,,,,,,,,,0,0,0,0,0,48,48,48,,,,,,,,,,,,,,,,,,,,,,,,,,,571.7699904000037,571.9710456999892,571.9541995000036,572.2541338999872,572.2541338999872,None,572.7540689999878,None,k,1,0.5276431000092998,572.7540689999878,None,None,None,,,,,,,,,,,,,,,,,,,,,,,11042,2,2,2024_Jun_17_2032,stroop_task_switching2_b,2021.2.3,59.735871867504095,
,,,蓝,blue,j,diamond,color_mix,颜色,,compatible,1,block_switch1_b,instruction/ready_test.png,instruction/i11.png,,,,,,,,,,,,,,,,,0,0,0,0,0,49,49,49,,,,,,,,,,,,,,,,,,,,,,,,,,,573.3061718999816,573.5062857999874,573.491079600004,573.7904187999957,573.7904187999957,None,574.2897846999986,None,j,1,0.6559270999860018,574.2897846999986,None,None,None,,,,,,,,,,,,,,,,,,,,,,,11042,2,2,2024_Jun_17_2032,stroop_task_switching2_b,2021.2.3,59.735871867504095,
,,,黄,yellow,f,diamond,color_mix,颜色,,compatible,1,block_switch1_b,instruction/ready_test.png,instruction/i11.png,,,,,,,,,,,,,,,,,0,0,0,0,0,50,50,50,,,,,,,,,,,,,,,,,,,,,,,,,,,574.975265599991,575.1755678999762,575.1589011999895,575.4588615999965,575.4588615999965,None,575.9601701999782,None,f,1,0.6497693000128493,575.9601701999782,None,None,None,,,,,,,,,,,,,,,,,,,,,,,11042,2,2,2024_Jun_17_2032,stroop_task_switching2_b,2021.2.3,59.735871867504095,
,,,红,blue,j,diamond,color_mix,颜色,,incompatible,1,block_switch1_b,instruction/ready_test.png,instruction/i11.png,,,,,,,,,,,,,,,,,0,0,0,0,0,51,51,51,,,,,,,,,,,,,,,,,,,,,,,,,,,576.6275591999874,576.828578399989,576.8115584999905,577.1117505999864,577.1117505999864,None,577.6123124999867,None,j,1,0.8055060000042431,577.6123124999867,None,None,None,,,,,,,,,,,,,,,,,,,,,,,11042,2,2,2024_Jun_17_2032,stroop_task_switching2_b,2021.2.3,59.735871867504095,
,,,蓝,yellow,f,diamond,color_mix,颜色,,incompatible,1,block_switch1_b,instruction/ready_test.png,instruction/i11.png,,,,,,,,,,,,,,,,,0,0,0,0,0,52,52,52,,,,,,,,,,,,,,,,,,,,,,,,,,,578.4471417999885,578.6474635999766,578.6308308999869,578.9314598999918,578.9314598999918,None,579.4320945999934,None,f,1,1.2419134999800008,579.4320945999934,None,None,None,,,,,,,,,,,,,,,,,,,,,,,11042,2,2,2024_Jun_17_2032,stroop_task_switching2_b,2021.2.3,59.735871867504095,
,,,黄,blue,f,square,color_mix,单词,,incompatible,2,block_switch1_b,instruction/ready_test.png,instruction/i11.png,,,,,,,,,,,,,,,,,0,0,0,0,0,53,53,53,,,,,,,,,,,,,,,,,,,,,,,,,,,580.6996399999771,580.9008844999771,580.8843427999818,581.1845124999818,581.1845124999818,None,581.6854191999882,None,f,1,0.9334188999782782,581.6854191999882,None,None,None,,,,,,,,,,,,,,,,,,,,,,,11042,2,2,2024_Jun_17_2032,stroop_task_switching2_b,2021.2.3,59.735871867504095,
,,,蓝,blue,j,diamond,color_mix,颜色,,compatible,2,block_switch1_b,instruction/ready_test.png,instruction/i11.png,,,,,,,,,,,,,,,,,0,0,0,0,0,54,54,54,,,,,,,,,,,,,,,,,,,,,,,,,,,582.6360017999832,582.8374015000009,582.8193162999814,583.1208437999885,583.1208437999885,None,583.6216897999984,None,j,1,0.7326216000074055,583.6216897999984,None,None,None,,,,,,,,,,,,,,,,,,,,,,,11042,2,2,2024_Jun_17_2032,stroop_task_switching2_b,2021.2.3,59.735871867504095,
,,,红,yellow,k,square,color_mix,单词,,incompatible,2,block_switch1_b,instruction/ready_test.png,instruction/i11.png,,,,,,,,,,,,,,,,,0,0,0,0,0,55,55,55,,,,,,,,,,,,,,,,,,,,,,,,,,,584.3719151999976,584.5730581999815,584.5562708999787,584.8568223000038,584.8568223000038,None,585.3574184000026,None,k,1,0.756624700006796,585.3574184000026,None,None,None,,,,,,,,,,,,,,,,,,,,,,,11042,2,2,2024_Jun_17_2032,stroop_task_switching2_b,2021.2.3,59.735871867504095,
,,,蓝,red,j,square,color_mix,单词,,incompatible,1,block_switch1_b,instruction/ready_test.png,instruction/i11.png,,,,,,,,,,,,,,,,,0,0,0,0,0,56,56,56,,,,,,,,,,,,,,,,,,,,,,,,,,,586.1420007999986,586.3424137999828,586.3255997999804,586.6262898999848,586.6262898999848,None,587.1269363999891,None,k,0,1.0674852000083774,587.1269363999891,None,None,None,,,,,,,,,,,,,,,,,,,,,,,11042,2,2,2024_Jun_17_2032,stroop_task_switching2_b,2021.2.3,59.735871867504095,
,,,蓝,blue,j,square,color_mix,单词,,compatible,1,block_switch1_b,instruction/ready_test.png,instruction/i11.png,,,,,,,,,,,,,,,,,0,0,0,0,0,57,57,57,,,,,,,,,,,,,,,,,,,,,,,,,,,588.2116604000039,588.4119728999794,588.3951845999982,588.6958920999896,588.6958920999896,None,589.1968748999934,None,j,1,1.1176455999957398,589.1968748999934,None,None,None,,,,,,,,,,,,,,,,,,,,,,,11042,2,2,2024_Jun_17_2032,stroop_task_switching2_b,2021.2.3,59.735871867504095,
,,,蓝,red,k,diamond,color_mix,颜色,,incompatible,2,block_switch1_b,instruction/ready_test.png,instruction/i11.png,,,,,,,,,,,,,,,,,0,0,0,0,0,58,58,58,,,,,,,,,,,,,,,,,,,,,,,,,,,590.332482400001,590.5487088999944,590.5143188999791,590.8157568000024,590.8157568000024,None,591.3163862999936,None,k,1,0.6462644999846816,591.3163862999936,None,None,None,,,,,,,,,,,,,,,,,,,,,,,11042,2,2,2024_Jun_17_2032,stroop_task_switching2_b,2021.2.3,59.735871867504095,
,,,绿,green,d,diamond,color_mix,颜色,,compatible,1,block_switch1_b,instruction/ready_test.png,instruction/i11.png,,,,,,,,,,,,,,,,,0,0,0,0,0,59,59,59,,,,,,,,,,,,,,,,,,,,,,,,,,,591.9831708999991,592.1845422999759,592.1677501999948,592.4679731999931,592.4679731999931,None,592.9689898999932,None,d,1,0.8176818999927491,592.9689898999932,None,None,None,,,,,,,,,,,,,,,,,,,,,,,11042,2,2,2024_Jun_17_2032,stroop_task_switching2_b,2021.2.3,59.735871867504095,
,,,蓝,blue,j,diamond,color_mix,颜色,,compatible,1,block_switch1_b,instruction/ready_test.png,instruction/i11.png,,,,,,,,,,,,,,,,,0,0,0,0,0,60,60,60,,,,,,,,,,,,,,,,,,,,,,,,,,,593.8026874999923,594.0030252999859,593.9876129999757,594.2877727999876,594.2877727999876,None,594.7884648999898,None,j,1,1.0302339000045322,594.7884648999898,None,None,None,,,,,,,,,,,,,,,,,,,,,,,11042,2,2,2024_Jun_17_2032,stroop_task_switching2_b,2021.2.3,59.735871867504095,
,,,黄,yellow,f,square,color_mix,单词,,compatible,2,block_switch1_b,instruction/ready_test.png,instruction/i11.png,,,,,,,,,,,,,,,,,0,0,0,0,0,61,61,61,,,,,,,,,,,,,,,,,,,,,,,,,,,595.8390445999976,596.0401478999993,596.0244957999967,596.3241232,596.3241232,None,596.8248330999922,None,f,1,0.5535994000092614,596.8248330999922,None,None,None,,,,,,,,,,,,,,,,,,,,,,,11042,2,2,2024_Jun_17_2032,stroop_task_switching2_b,2021.2.3,59.735871867504095,
,,,绿,blue,d,square,color_mix,单词,,incompatible,1,block_switch1_b,instruction/ready_test.png,instruction/i11.png,,,,,,,,,,,,,,,,,0,0,0,0,0,62,62,62,,,,,,,,,,,,,,,,,,,,,,,,,,,597.4079407999816,597.6093671999988,597.592625499994,597.8925871999818,597.8925871999818,None,598.3931382999872,None,f,0,0.7611839999735821,598.3931382999872,None,None,None,,,,,,,,,,,,,,,,,,,,,,,11042,2,2,2024_Jun_17_2032,stroop_task_switching2_b,2021.2.3,59.735871867504095,
,,,蓝,yellow,j,square,color_mix,单词,,incompatible,1,block_switch1_b,instruction/ready_test.png,instruction/i11.png,,,,,,,,,,,,,,,,,0,0,0,0,0,63,63,63,,,,,,,,,,,,,,,,,,,,,,,,,,,599.178333399992,599.3788892999873,599.3619891999988,599.6622491999879,599.6622491999879,None,600.1629243999778,None,f,0,1.9679629000020213,600.1629243999778,None,None,None,,,,,,,,,,,,,,,,,,,,,,,11042,2,2,2024_Jun_17_2032,stroop_task_switching2_b,2021.2.3,59.735871867504095,
,,,黄,yellow,f,diamond,color_mix,颜色,,compatible,2,block_switch1_b,instruction/ready_test.png,instruction/i11.png,,,,,,,,,,,,,,,,,0,0,0,0,0,64,64,64,,,,,,,,,,,,,,,,,,,,,,,,,,,602.1494981999858,602.349066499999,602.3328235999797,602.6335642999911,602.6335642999911,None,603.1345074999845,None,f,1,0.6440415999968536,603.1345074999845,None,None,None,,,,,,,,,,,,,,,,,,,,,,,11042,2,2,2024_Jun_17_2032,stroop_task_switching2_b,2021.2.3,59.735871867504095,
,,,蓝,green,d,diamond,color_mix,颜色,,incompatible,1,block_switch1_b,instruction/ready_test.png,instruction/i11.png,,,,,,,,,,,,,,,,,0,0,0,0,0,65,65,65,,,,,,,,,,,,,,,,,,,,,,,,,,,603.8020174999838,604.0023950999894,603.9854588999879,604.2860932999756,604.2860932999756,None,604.7858161999902,None,j,0,1.1447606000001542,604.7858161999902,None,None,None,,,,,,,,,,,,,,,,,,,,,,,11042,2,2,2024_Jun_17_2032,stroop_task_switching2_b,2021.2.3,59.735871867504095,
,,,红,red,k,diamond,color_mix,颜色,,compatible,1,block_switch1_b,instruction/ready_test.png,instruction/i11.png,,,,,,,,,,,,,,,,,0,0,0,0,0,66,66,66,,,,,,,,,,,,,,,,,,,,,,,,,,,605.9553172999877,606.1557064999943,606.1387595999986,606.4390307999856,606.4390307999856,None,606.9400804000034,None,k,1,1.2149420999921858,606.9400804000034,None,None,None,,,,,,,,,,,,,,,,,,,,,,,11042,2,2,2024_Jun_17_2032,stroop_task_switching2_b,2021.2.3,59.735871867504095,
,,,蓝,yellow,j,square,color_mix,单词,,incompatible,2,block_switch1_b,instruction/ready_test.png,instruction/i11.png,,,,,,,,,,,,,,,,,0,0,0,0,0,67,67,67,,,,,,,,,,,,,,,,,,,,,,,,,,,608.1754130999907,608.3757000999758,608.3588708000025,608.6589513999934,608.6589513999934,None,609.160103799979,None,j,1,2.0825382999901194,609.160103799979,None,None,None,,,,,,,,,,,,,,,,,,,,,,,11042,2,2,2024_Jun_17_2032,stroop_task_switching2_b,2021.2.3,59.735871867504095,
,,,红,yellow,k,square,color_mix,单词,,incompatible,1,block_switch1_b,instruction/ready_test.png,instruction/i11.png,,,,,,,,,,,,,,,,,0,0,0,0,0,68,68,68,,,,,,,,,,,,,,,,,,,,,,,,,,,611.2627330999821,611.4633168999862,611.446806699998,611.7474623000016,611.7474623000016,None,612.2481547999778,None,k,1,0.8585913999995682,612.2481547999778,None,None,None,,,,,,,,,,,,,,,,,,,,,,,11042,2,2,2024_Jun_17_2032,stroop_task_switching2_b,2021.2.3,59.735871867504095,
,,,红,yellow,f,diamond,color_mix,颜色,,incompatible,2,block_switch1_b,instruction/ready_test.png,instruction/i11.png,,,,,,,,,,,,,,,,,0,0,0,0,0,69,69,69,,,,,,,,,,,,,,,,,,,,,,,,,,,613.132422900002,613.3326215999841,613.3164890999906,613.6167587999953,613.6167587999953,None,614.1165163999831,None,f,1,0.8942909000033978,614.1165163999831,None,None,None,,,,,,,,,,,,,,,,,,,,,,,11042,2,2,2024_Jun_17_2032,stroop_task_switching2_b,2021.2.3,59.735871867504095,
,,,蓝,green,j,square,color_mix,单词,,incompatible,2,block_switch1_b,instruction/ready_test.png,instruction/i11.png,,,,,,,,,,,,,,,,,0,0,0,0,0,70,70,70,,,,,,,,,,,,,,,,,,,,,,,,,,,615.0350108999992,615.2358701999765,615.219194699981,615.5198602000019,615.5198602000019,None,616.0203479999909,None,j,1,1.2544252999941818,616.0203479999909,None,None,None,,,,,,,,,,,,,,,,,,,,,,,11042,2,2,2024_Jun_17_2032,stroop_task_switching2_b,2021.2.3,59.735871867504095,
,,,绿,yellow,d,square,color_mix,单词,,incompatible,1,block_switch1_b,instruction/ready_test.png,instruction/i11.png,,,,,,,,,,,,,,,,,0,0,0,0,0,71,71,71,,,,,,,,,,,,,,,,,,,,,,,,,,,617.3048226999817,617.5060421999951,617.4889691999997,617.7900373000011,617.7900373000011,None,618.2904168999812,None,f,0,1.0250942000129726,618.2904168999812,None,None,None,,,,,,,,,,,,,,,,,,,,,,,11042,2,2,2024_Jun_17_2032,stroop_task_switching2_b,2021.2.3,59.735871867504095,
,,,蓝,yellow,f,diamond,color_mix,颜色,,incompatible,2,block_switch1_b,instruction/ready_test.png,instruction/i11.png,,,,,,,,,,,,,,,,,0,0,0,0,0,72,72,72,,,,,,,,,,,,,,,,,,,,,,,,,,,619.3419815999805,619.5426248000003,619.5256683999905,619.8260112999997,619.8260112999997,None,620.3269928999944,None,f,1,0.7720942000159994,620.3269928999944,None,None,None,,,,,,,,,,,,,,,,,,,,,,,11042,2,2,2024_Jun_17_2032,stroop_task_switching2_b,2021.2.3,59.735871867504095,
,,,红,green,k,square,color_mix,单词,,incompatible,2,block_switch1_b,instruction/ready_test.png,instruction/i11.png,,,,,,,,,,,,,,,,,0,0,0,0,0,73,73,73,,,,,,,,,,,,,,,,,,,,,,,,,,,621.1270115999796,621.3283225999912,621.31103729998,621.6124735999911,621.6124735999911,None,622.1128321999859,None,k,1,1.3062421999929938,622.1128321999859,None,None,None,,,,,,,,,,,,,,,,,,,,,,,11042,2,2,2024_Jun_17_2032,stroop_task_switching2_b,2021.2.3,59.735871867504095,
,,,绿,blue,j,diamond,color_mix,颜色,,incompatible,2,block_switch1_b,instruction/ready_test.png,instruction/i11.png,,,,,,,,,,,,,,,,,0,0,0,0,0,74,74,74,,,,,,,,,,,,,,,,,,,,,,,,,,,623.4499956999789,623.6650381999789,623.6319328999962,623.9319827999861,623.9319827999861,None,624.4334686999791,None,j,1,1.1459855000139214,624.4334686999791,None,None,None,,,,,,,,,,,,,,,,,,,,,,,11042,2,2,2024_Jun_17_2032,stroop_task_switching2_b,2021.2.3,59.735871867504095,
,,,红,red,k,square,color_mix,单词,,compatible,2,block_switch1_b,instruction/ready_test.png,instruction/i11.png,,,,,,,,,,,,,,,,,0,0,0,0,0,75,75,75,,,,,,,,,,,,,,,,,,,,,,,,,,,625.6005452999962,625.8018835999828,625.7850307999761,626.0850992999913,626.0850992999913,None,626.5860769999854,None,k,1,0.713176499994006,626.5860769999854,None,None,None,,,,,,,,,,,,,,,,,,,,,,,11042,2,2,2024_Jun_17_2032,stroop_task_switching2_b,2021.2.3,59.735871867504095,
,,,绿,green,d,diamond,color_mix,颜色,,compatible,2,block_switch1_b,instruction/ready_test.png,instruction/i11.png,,,,,,,,,,,,,,,,,0,0,0,0,0,76,76,76,,,,,,,,,,,,,,,,,,,,,,,,,,,627.319775299984,627.5209032999992,627.5039610999811,627.8050091999758,627.8050091999758,None,628.3055929999973,None,d,1,1.1616922999965027,628.3055929999973,None,None,None,,,,,,,,,,,,,,,,,,,,,,,11042,2,2,2024_Jun_17_2032,stroop_task_switching2_b,2021.2.3,59.735871867504095,
,,,黄,red,f,square,color_mix,单词,,incompatible,2,block_switch1_b,instruction/ready_test.png,instruction/i11.png,,,,,,,,,,,,,,,,,0,0,0,0,0,77,77,77,,,,,,,,,,,,,,,,,,,,,,,,,,,629.4901971999789,629.6911244999792,629.6743925999908,629.9748383999977,629.9748383999977,None,630.4758287000004,None,f,1,1.2235446000122465,630.4758287000004,None,None,None,,,,,,,,,,,,,,,,,,,,,,,11042,2,2,2024_Jun_17_2032,stroop_task_switching2_b,2021.2.3,59.735871867504095,
,,,红,red,k,square,color_mix,单词,,compatible,1,block_switch1_b,instruction/ready_test.png,instruction/i11.png,,,,,,,,,,,,,,,,,0,0,0,0,0,78,78,78,,,,,,,,,,,,,,,,,,,,,,,,,,,631.7275412000017,631.9272177999956,631.9111589999811,632.2117813999939,632.2117813999939,None,632.7122930999903,None,k,1,0.9714045999862719,632.7122930999903,None,None,None,,,,,,,,,,,,,,,,,,,,,,,11042,2,2,2024_Jun_17_2032,stroop_task_switching2_b,2021.2.3,59.735871867504095,
,,,黄,yellow,f,square,color_mix,单词,,compatible,1,block_switch1_b,instruction/ready_test.png,instruction/i11.png,,,,,,,,,,,,,,,,,0,0,0,0,0,79,79,79,,,,,,,,,,,,,,,,,,,,,,,,,,,633.7136704000004,633.9140480999777,633.8972872000013,634.1976863000018,634.1976863000018,None,634.6992957999755,None,f,1,0.7206102999916766,634.6992957999755,None,None,None,,,,,,,,,,,,,,,,,,,,,,,11042,2,2,2024_Jun_17_2032,stroop_task_switching2_b,2021.2.3,59.735871867504095,
,,,红,red,k,diamond,color_mix,颜色,,compatible,2,block_switch1_b,instruction/ready_test.png,instruction/i11.png,,,,,,,,,,,,,,,,,0,0,0,0,0,80,80,80,,,,,,,,,,,,,,,,,,,,,,,,,,,635.449655000004,635.6498910999799,635.6332137999998,635.9333726000041,635.9333726000041,None,636.4345752999943,None,k,1,0.7447879000101238,636.4345752999943,None,None,None,,,,,,,,,,,,,,,,,,,,,,,11042,2,2,2024_Jun_17_2032,stroop_task_switching2_b,2021.2.3,59.735871867504095,
,,,红,red,k,square,color_mix,单词,,compatible,2,block_switch1_b,instruction/ready_test.png,instruction/i11.png,,,,,,,,,,,,,,,,,0,0,0,0,0,81,81,81,,,,,,,,,,,,,,,,,,,,,,,,,,,637.2016364999872,637.4016476999968,637.3860690000001,637.6860577999905,637.6860577999905,None,638.1871355999901,None,k,1,0.8323369999998249,638.1871355999901,None,None,None,,,,,,,,,,,,,,,,,,,,,,,11042,2,2,2024_Jun_17_2032,stroop_task_switching2_b,2021.2.3,59.735871867504095,
,,,黄,blue,j,diamond,color_mix,颜色,,incompatible,2,block_switch1_b,instruction/ready_test.png,instruction/i11.png,,,,,,,,,,,,,,,,,0,0,0,0,0,82,82,82,,,,,,,,,,,,,,,,,,,,,,,,,,,639.0387783999904,639.2388418999908,639.2217233999982,639.5226164999767,639.5226164999767,None,640.023606200004,None,j,1,0.6758609999960754,640.023606200004,None,None,None,,,,,,,,,,,,,,,,,,,,,,,11042,2,2,2024_Jun_17_2032,stroop_task_switching2_b,2021.2.3,59.735871867504095,
,,,红,yellow,f,diamond,color_mix,颜色,,incompatible,1,block_switch1_b,instruction/ready_test.png,instruction/i11.png,,,,,,,,,,,,,,,,,0,0,0,0,0,83,83,83,,,,,,,,,,,,,,,,,,,,,,,,,,,640.7246921999904,640.925501699996,640.907791399979,641.2084880999755,641.2084880999755,None,641.708300600003,None,f,1,1.3442445999826305,641.708300600003,None,None,None,,,,,,,,,,,,,,,,,,,,,,,11042,2,2,2024_Jun_17_2032,stroop_task_switching2_b,2021.2.3,59.735871867504095,
,,,黄,red,k,diamond,color_mix,颜色,,incompatible,1,block_switch1_b,instruction/ready_test.png,instruction/i11.png,,,,,,,,,,,,,,,,,0,0,0,0,0,84,84,84,,,,,,,,,,,,,,,,,,,,,,,,,,,643.0777295999869,643.2781160000013,643.2615899999801,643.5613900999888,643.5613900999888,None,644.0622721999825,None,k,1,0.797573799995007,644.0622721999825,None,None,None,,,,,,,,,,,,,,,,,,,,,,,11042,2,2,2024_Jun_17_2032,stroop_task_switching2_b,2021.2.3,59.735871867504095,
,,,蓝,blue,j,square,color_mix,单词,,compatible,2,block_switch1_b,instruction/ready_test.png,instruction/i11.png,,,,,,,,,,,,,,,,,0,0,0,0,0,85,85,85,,,,,,,,,,,,,,,,,,,,,,,,,,,644.8800215999945,645.0810035000031,645.064006200002,645.3647294999973,645.3647294999973,None,645.8655833999801,None,j,1,0.8020917999965604,645.8655833999801,None,None,None,,,,,,,,,,,,,,,,,,,,,,,11042,2,2,2024_Jun_17_2032,stroop_task_switching2_b,2021.2.3,59.735871867504095,
,,,绿,green,d,square,color_mix,单词,,compatible,1,block_switch1_b,instruction/ready_test.png,instruction/i11.png,,,,,,,,,,,,,,,,,0,0,0,0,0,86,86,86,,,,,,,,,,,,,,,,,,,,,,,,,,,646.6826979999896,646.8835918999976,646.8668174999766,647.1670825000037,647.1670825000037,None,647.6680228000041,None,d,1,0.8716983999765944,647.6680228000041,None,None,None,,,,,,,,,,,,,,,,,,,,,,,11042,2,2,2024_Jun_17_2032,stroop_task_switching2_b,2021.2.3,59.735871867504095,
,,,红,red,k,square,color_mix,单词,,compatible,1,block_switch1_b,instruction/ready_test.png,instruction/i11.png,,,,,,,,,,,,,,,,,0,0,0,0,0,87,87,87,,,,,,,,,,,,,,,,,,,,,,,,,,,648.5695123999903,648.7698773999873,648.7529044999974,649.0527739999816,649.0527739999816,None,649.5545733000035,None,k,1,0.8491496999922674,649.5545733000035,None,None,None,,,,,,,,,,,,,,,,,,,,,,,11042,2,2,2024_Jun_17_2032,stroop_task_switching2_b,2021.2.3,59.735871867504095,
,,,黄,green,d,diamond,color_mix,颜色,,incompatible,2,block_switch1_b,instruction/ready_test.png,instruction/i11.png,,,,,,,,,,,,,,,,,0,0,0,0,0,88,88,88,,,,,,,,,,,,,,,,,,,,,,,,,,,650.4212433999928,650.6226764000021,650.605896299996,650.9065014999942,650.9065014999942,None,651.4069189000002,None,d,1,0.9092049000028055,651.4069189000002,None,None,None,,,,,,,,,,,,,,,,,,,,,,,11042,2,2,2024_Jun_17_2032,stroop_task_switching2_b,2021.2.3,59.735871867504095,
,,,绿,red,d,square,color_mix,单词,,incompatible,2,block_switch1_b,instruction/ready_test.png,instruction/i11.png,,,,,,,,,,,,,,,,,0,0,0,0,0,89,89,89,,,,,,,,,,,,,,,,,,,,,,,,,,,652.3410468999937,652.5421443999803,652.5251353999774,652.8264917999913,652.8264917999913,None,653.3267856999882,None,d,1,0.869100600015372,653.3267856999882,None,None,None,,,,,,,,,,,,,,,,,,,,,,,11042,2,2,2024_Jun_17_2032,stroop_task_switching2_b,2021.2.3,59.735871867504095,
,,,黄,green,f,square,color_mix,单词,,incompatible,1,block_switch1_b,instruction/ready_test.png,instruction/i11.png,,,,,,,,,,,,,,,,,0,0,0,0,0,90,90,90,,,,,,,,,,,,,,,,,,,,,,,,,,,654.2105193999887,654.4116207000043,654.3950671999773,654.6956830999989,654.6956830999989,None,655.1963391999889,None,f,1,1.5436173000198323,655.1963391999889,None,None,None,,,,,,,,,,,,,,,,,,,,,,,11042,2,2,2024_Jun_17_2032,stroop_task_switching2_b,2021.2.3,59.735871867504095,
,,,蓝,blue,j,square,color_mix,单词,,compatible,1,block_switch1_b,instruction/ready_test.png,instruction/i11.png,,,,,,,,,,,,,,,,,0,0,0,0,0,91,91,91,,,,,,,,,,,,,,,,,,,,,,,,,,,656.7652107999893,656.9653165999916,656.9488806999871,657.2531032999977,657.2531032999977,None,657.7667604000017,None,j,1,0.6455802999844309,657.7667604000017,None,None,None,,,,,,,,,,,,,,,,,,,,,,,11042,2,2,2024_Jun_17_2032,stroop_task_switching2_b,2021.2.3,59.735871867504095,
,,,蓝,red,j,square,color_mix,单词,,incompatible,1,block_switch1_b,instruction/ready_test.png,instruction/i11.png,,,,,,,,,,,,,,,,,0,0,0,0,0,92,92,92,,,,,,,,,,,,,,,,,,,,,,,,,,,658.4345840000024,658.6345598000044,658.6208944999962,658.9349809999985,658.9183102999814,None,659.4193777999899,None,j,1,1.824793999985559,659.4193777999899,None,None,None,,,,,,,,,,,,,,,,,,,,,,,11042,2,2,2024_Jun_17_2032,stroop_task_switching2_b,2021.2.3,59.735871867504095,
,,,黄,blue,f,square,color_mix,单词,,incompatible,1,block_switch1_b,instruction/ready_test.png,instruction/i11.png,,,,,,,,,,,,,,,,,0,0,0,0,0,93,93,93,,,,,,,,,,,,,,,,,,,,,,,,,,,661.2709668999887,661.4729888000002,661.455203999998,661.7556965999829,661.7556965999829,None,662.2567769000016,None,f,1,2.667784599994775,662.2567769000016,None,None,None,,,,,,,,,,,,,,,,,,,,,,,11042,2,2,2024_Jun_17_2032,stroop_task_switching2_b,2021.2.3,59.735871867504095,
,,,绿,red,k,diamond,color_mix,颜色,,incompatible,2,block_switch1_b,instruction/ready_test.png,instruction/i11.png,,,,,,,,,,,,,,,,,0,0,0,0,0,94,94,94,,,,,,,,,,,,,,,,,,,,,,,,,,,664.9431603999983,665.1447656999808,665.1276873000024,665.4283257999923,665.4283257999923,None,665.9289675999898,None,k,1,1.1875260999950115,665.9289675999898,None,None,None,,,,,,,,,,,,,,,,,,,,,,,11042,2,2,2024_Jun_17_2032,stroop_task_switching2_b,2021.2.3,59.735871867504095,
,,,蓝,blue,j,diamond,color_mix,颜色,,compatible,1,block_switch1_b,instruction/ready_test.png,instruction/i11.png,,,,,,,,,,,,,,,,,0,0,0,0,0,95,95,95,,,,,,,,,,,,,,,,,,,,,,,,,,,667.1476835999929,667.347913399979,667.331091,667.6309976999764,667.6309976999764,None,668.1324320999847,None,j,1,1.007804099994246,668.1324320999847,None,None,None,,,,,,,,,,,,,,,,,,,,,,,11042,2,2,2024_Jun_17_2032,stroop_task_switching2_b,2021.2.3,59.735871867504095,
,,,绿,green,d,square,color_mix,单词,,compatible,2,block_switch1_b,instruction/ready_test.png,instruction/i11.png,,,,,,,,,,,,,,,,,0,0,0,0,0,96,96,96,,,,,,,,,,,,,,,,,,,,,,,,,,,669.1668358999887,669.3678569999756,669.351013699983,669.6508937999897,669.6508937999897,None,670.1515033000032,None,d,1,1.2209523000055924,670.1515033000032,None,None,None,,,,,,,,,,,,,,,,,,,,,,,11042,2,2,2024_Jun_17_2032,stroop_task_switching2_b,2021.2.3,59.735871867504095,
,,,,,,,,,,,,block_switch1_b,instruction/ready_test.png,instruction/i11.png,,,,,,,,,,,,,,,,,0,0,0,0,,,,,,,,,,,,,,,,,,,,,,,,,,,,,,,,,,,,,,,,,,,,,,,,,,,,,,,,,,,,671.3863699999929,None,space,2.050472099974286,671.3863699999929,None,,,11042,2,2,2024_Jun_17_2032,stroop_task_switching2_b,2021.2.3,59.735871867504095,
,,,蓝,blue,j,square,color_mix,单词,,compatible,0,block_switch2_b,instruction/ready_2.png,instruction/i12.png,,,,,,,,,,,,,,,,,0,1,1,1,0,0,0,0,,,,,,,,,,,,,,,,,,,676.9956153999956,677.9974332999846,677.9974332999846,678.9984467999893,678.9984467999893,None,676.010696399986,677.0121848999988,680.0675917999761,680.2675240999961,680.2507403999916,680.5510429999849,680.5510429999849,None,681.0187841999868,None,j,1,1.066616600000998,681.0187841999868,None,None,None,,,,,,,,,673.5062853999843,None,space,2.474634199985303,673.5062853999843,None,,,,,,,,,11042,2,2,2024_Jun_17_2032,stroop_task_switching2_b,2021.2.3,59.735871867504095,
,,,黄,red,k,diamond,color_mix,颜色,,incompatible,2,block_switch2_b,instruction/ready_2.png,instruction/i12.png,,,,,,,,,,,,,,,,,0,1,1,1,0,1,1,1,,,,,,,,,,,,,,,,,,,,,,,,,,,682.1039617999922,682.303216899978,682.2865308999899,682.5873808999895,682.5873808999895,None,683.0873435999965,None,k,1,2.0211860999988858,683.0873435999965,None,None,None,,,,,,,,,,,,,,,,,,,,,,,11042,2,2,2024_Jun_17_2032,stroop_task_switching2_b,2021.2.3,59.735871867504095,
,,,蓝,green,d,diamond,color_mix,颜色,,incompatible,1,block_switch2_b,instruction/ready_2.png,instruction/i12.png,,,,,,,,,,,,,,,,,0,1,1,1,0,2,2,2,,,,,,,,,,,,,,,,,,,,,,,,,,,685.1408229999943,685.3418099999835,685.3240933999768,685.6243090999778,685.6243090999778,None,686.1249677999876,None,d,1,2.0642592000076547,686.1249677999876,None,None,None,,,,,,,,,,,,,,,,,,,,,,,11042,2,2,2024_Jun_17_2032,stroop_task_switching2_b,2021.2.3,59.735871867504095,
,,,红,yellow,f,diamond,color_mix,颜色,,incompatible,1,block_switch2_b,instruction/ready_2.png,instruction/i12.png,,,,,,,,,,,,,,,,,0,1,1,1,0,3,3,3,,,,,,,,,,,,,,,,,,,,,,,,,,,688.2125391000009,688.4121069999819,688.3961538999865,688.6967960999755,688.6967960999755,None,689.1971575999924,None,k,0,0.6557209999882616,689.1971575999924,None,None,None,,,,,,,,,,,,,,,,,,,,,,,11042,2,2,2024_Jun_17_2032,stroop_task_switching2_b,2021.2.3,59.735871867504095,
,,,红,red,k,diamond,color_mix,颜色,,compatible,1,block_switch2_b,instruction/ready_2.png,instruction/i12.png,,,,,,,,,,,,,,,,,0,1,1,1,0,4,4,4,,,,,,,,,,,,,,,,,,,,,,,,,,,689.8815596999775,690.0829086999875,690.0645112999773,690.3658427999762,690.3658427999762,None,690.8655031999806,None,k,1,0.8193437000154518,690.8655031999806,None,None,None,,,,,,,,,,,,,,,,,,,,,,,11042,2,2,2024_Jun_17_2032,stroop_task_switching2_b,2021.2.3,59.735871867504095,
,,,绿,green,d,square,color_mix,单词,,compatible,2,block_switch2_b,instruction/ready_2.png,instruction/i12.png,,,,,,,,,,,,,,,,,0,1,1,1,0,5,5,5,,,,,,,,,,,,,,,,,,,,,,,,,,,691.7170117999776,691.9181382999814,691.9013970999804,692.2019574999867,692.2019574999867,None,692.7024490999756,None,d,1,0.7907162999908905,692.7024490999756,None,None,None,,,,,,,,,,,,,,,,,,,,,,,11042,2,2,2024_Jun_17_2032,stroop_task_switching2_b,2021.2.3,59.735871867504095,
,,,黄,blue,j,diamond,color_mix,颜色,,incompatible,2,block_switch2_b,instruction/ready_2.png,instruction/i12.png,,,,,,,,,,,,,,,,,0,1,1,1,0,6,6,6,,,,,,,,,,,,,,,,,,,,,,,,,,,693.5196471999807,693.7206445999909,693.7041467999807,694.0044934999896,694.0044934999896,None,694.505363299977,None,j,1,0.6194547000050079,694.505363299977,None,None,None,,,,,,,,,,,,,,,,,,,,,,,11042,2,2,2024_Jun_17_2032,stroop_task_switching2_b,2021.2.3,59.735871867504095,
