b_pra,ins_blocks,ins_blocks2,stim_word,stim_color,corrAns,cue_type,trial_type,task_type,rand,compatibility,switch,b_test,w_pic,w_pic2,trials_instr.thisRepN,trials_instr.thisTrialN,trials_instr.thisN,trials_instr.thisIndex,block_pra.thisRepN,block_pra.thisTrialN,block_pra.thisN,block_pra.thisIndex,trials_rep.thisRepN,trials_rep.thisTrialN,trials_rep.thisN,trials_rep.thisIndex,trials_pra.thisRepN,trials_pra.thisTrialN,trials_pra.thisN,trials_pra.thisIndex,trials_3.thisRepN,trials_3.thisTrialN,trials_3.thisN,trials_3.thisIndex,trials_2.thisRepN,trials_2.thisTrialN,trials_2.thisN,trials_2.thisIndex,instr_image.started,instr_image.stopped,instr_key_resp.keys,instr_key_resp.rt,instr_key_resp.started,instr_key_resp.stopped,instr_pra_image.started,instr_pra_image.stopped,ip_key_resp.keys,ip_key_resp.rt,ip_key_resp.started,ip_key_resp.stopped,block_image.started,block_image.stopped,ib_key_resp.keys,ib_key_resp.rt,ib_key_resp.started,ib_key_resp.stopped,cd3.started,cd3.stopped,cd2.started,cd2.stopped,cd1.started,cd1.stopped,cd_text.started,cd_text.stopped,text_fix.started,text_fix.stopped,text_2.started,text_2.stopped,text_4.started,text_4.stopped,text_target.started,text_target.stopped,key_resp.keys,key_resp.corr,key_resp.rt,key_resp.started,key_resp.stopped,sceen_black.started,sceen_black.stopped,text_fb.started,text_fb.stopped,text.started,text.stopped,key_bf.keys,key_bf.rt,key_bf.started,key_bf.stopped,instr_test_image.started,instr_test_image.stopped,instr_exp_key_resp.keys,instr_exp_key_resp.rt,instr_exp_key_resp.started,instr_exp_key_resp.stopped,text_rest.started,text_rest.stopped,key_resp_rest.keys,key_resp_rest.rt,key_resp_rest.started,key_resp_rest.stopped,text_3.started,text_3.stopped,participant,session,balance,date,expName,psychopyVersion,frameRate,
,,,,,,,,,,,,,,,0,0,0,0,,,,,,,,,,,,,,,,,,,,,10.023765999998432,None,right,5.970029800024349,10.023765999998432,None,,,,,,,,,,,,,,,,,,,,,,,,,,,,,,,,,,,,,,,,,,,,,,,,,,,,,,,,,,11043,2,1,2024_Jun_02_1732,stroop_task_switching2,2021.2.3,60.03089188759345,
,,,,,,,,,,,,,,,1,0,1,0,,,,,,,,,,,,,,,,,,,,,16.05105559999356,None,right,46.248143500008155,16.05105559999356,None,,,,,,,,,,,,,,,,,,,,,,,,,,,,,,,,,,,,,,,,,,,,,,,,,,,,,,,,,,11043,2,1,2024_Jun_02_1732,stroop_task_switching2,2021.2.3,60.03089188759345,
,,,,,,,,,,,,,,,2,0,2,0,,,,,,,,,,,,,,,,,,,,,62.3530093000154,None,right,3.434296199993696,62.3530093000154,None,,,,,,,,,,,,,,,,,,,,,,,,,,,,,,,,,,,,,,,,,,,,,,,,,,,,,,,,,,11043,2,1,2024_Jun_02_1732,stroop_task_switching2,2021.2.3,60.03089188759345,
,,,,,,,,,,,,,,,3,0,3,0,,,,,,,,,,,,,,,,,,,,,65.84281479998026,None,right,1.520201800041832,65.84281479998026,None,,,,,,,,,,,,,,,,,,,,,,,,,,,,,,,,,,,,,,,,,,,,,,,,,,,,,,,,,,11043,2,1,2024_Jun_02_1732,stroop_task_switching2,2021.2.3,60.03089188759345,
,,,,,,,,,,,,,,,4,0,4,0,,,,,,,,,,,,,,,,,,,,,67.41178709996166,None,right,4.0071348999626935,67.41178709996166,None,,,,,,,,,,,,,,,,,,,,,,,,,,,,,,,,,,,,,,,,,,,,,,,,,,,,,,,,,,11043,2,1,2024_Jun_02_1732,stroop_task_switching2,2021.2.3,60.03089188759345,
,,,,,,,,,,,,,,,5,0,5,0,,,,,,,,,,,,,,,,,,,,,71.4659859999665,None,right,0.881438700016588,71.4659859999665,None,,,,,,,,,,,,,,,,,,,,,,,,,,,,,,,,,,,,,,,,,,,,,,,,,,,,,,,,,,11043,2,1,2024_Jun_02_1732,stroop_task_switching2,2021.2.3,60.03089188759345,
,,,,,,,,,,,,,,,,,,,,,,,,,,,,,,,,,,,,,,,,,,,,,72.38601199997356,None,space,2.432482299976982,72.38601199997356,None,,,,,,,,,,,,,,,,,,,,,,,,,,,,,,,,,,,,,,,,,,,,,,,,,,,,11043,2,1,2024_Jun_02_1732,stroop_task_switching2,2021.2.3,60.03089188759345,
condition/block_color,instruction/instr_color,instruction/i8,XX,red,d,diamond,color_single,颜色,,,,,,,,,,,0,0,0,0,0,0,0,0,0,0,0,0,,,,,,,,,,,,,,,,,,,,,74.87226839998038,None,space,5.613754999998491,74.87226839998038,None,81.6322957999655,82.63432949996786,82.61669140000595,83.61804019997362,83.61804019997362,None,80.64699599996675,81.6493921999936,84.55423850001534,84.75416579999728,84.73693129996536,85.03799340000842,85.03799340000842,None,85.52215380000416,None,d,1,1.1211934000020847,85.52215380000416,None,None,None,86.67254890000913,None,,,,,,,,,,,,,,,,,,,,,11043,2,1,2024_Jun_02_1732,stroop_task_switching2,2021.2.3,60.03089188759345,
condition/block_color,instruction/instr_color,instruction/i8,XX,green,k,diamond,color_single,颜色,,,,,,,,,,,0,0,0,0,0,0,0,0,0,1,1,1,,,,,,,,,,,,,,,,,,,,,,,,,,,,,,,,,,,87.67477599997073,87.87551189999795,87.85884810000425,88.15936469996814,88.15936469996814,None,88.65997829998378,None,k,1,1.0554953000391833,88.65997829998378,None,None,None,89.74518399999943,None,,,,,,,,,,,,,,,,,,,,,11043,2,1,2024_Jun_02_1732,stroop_task_switching2,2021.2.3,60.03089188759345,
condition/block_color,instruction/instr_color,instruction/i8,XX,yellow,j,diamond,color_single,颜色,,,,,,,,,,,0,0,0,0,0,0,0,0,0,2,2,2,,,,,,,,,,,,,,,,,,,,,,,,,,,,,,,,,,,90.74648400000297,90.94695640000282,90.93018739996478,91.2300654000137,91.2300654000137,None,91.73131150001427,None,j,1,1.0806731000193395,91.73131150001427,None,None,None,92.83204509998905,None,,,,,,,,,,,,,,,,,,,,,11043,2,1,2024_Jun_02_1732,stroop_task_switching2,2021.2.3,60.03089188759345,
condition/block_color,instruction/instr_color,instruction/i8,XX,blue,f,diamond,color_single,颜色,,,,,,,,,,,0,0,0,0,0,0,0,0,0,3,3,3,,,,,,,,,,,,,,,,,,,,,,,,,,,,,,,,,,,93.83430950000184,94.03540359996259,94.01701499999035,94.3175968999858,94.3175968999858,None,94.81927669997094,None,f,1,0.4328387000132352,94.81927669997094,None,None,None,95.26962799998,None,,,,,,,,,,,,,,,,,,,,,11043,2,1,2024_Jun_02_1732,stroop_task_switching2,2021.2.3,60.03089188759345,
condition/block_color,instruction/instr_color,instruction/i8,XX,green,k,diamond,color_single,颜色,,,,,,,,,,,0,0,0,0,0,0,0,0,0,4,4,4,,,,,,,,,,,,,,,,,,,,,,,,,,,,,,,,,,,96.27177369996207,96.47114869998768,96.45506379997823,96.75558579998324,96.75558579998324,None,97.25637439999264,None,k,1,0.6036836000275798,97.25637439999264,None,None,None,97.89008869999088,None,,,,,,,,,,,,,,,,,,,,,11043,2,1,2024_Jun_02_1732,stroop_task_switching2,2021.2.3,60.03089188759345,
condition/block_color,instruction/instr_color,instruction/i8,XX,yellow,j,diamond,color_single,颜色,,,,,,,,,,,0,0,0,0,0,0,0,0,0,5,5,5,,,,,,,,,,,,,,,,,,,,,,,,,,,,,,,,,,,98.89215540001169,99.09250719996635,99.07576989999507,99.37634229997639,99.37634229997639,None,99.87617299996782,None,j,1,0.6635152999660932,99.87617299996782,None,None,None,100.56033299997216,None,,,,,,,,,,,,,,,,,,,,,11043,2,1,2024_Jun_02_1732,stroop_task_switching2,2021.2.3,60.03089188759345,
condition/block_color,instruction/instr_color,instruction/i8,XX,blue,f,diamond,color_single,颜色,,,,,,,,,,,0,0,0,0,0,0,0,0,0,6,6,6,,,,,,,,,,,,,,,,,,,,,,,,,,,,,,,,,,,101.56283830001485,101.76322680001613,101.74694039998576,102.04686199995922,102.04686199995922,None,102.54721809999319,None,k,0,0.6009370000101626,102.54721809999319,None,None,None,103.16396279999753,None,,,,,,,,,,,,,,,,,,,,,11043,2,1,2024_Jun_02_1732,stroop_task_switching2,2021.2.3,60.03089188759345,
condition/block_color,instruction/instr_color,instruction/i8,XX,red,d,diamond,color_single,颜色,,,,,,,,,,,0,0,0,0,0,0,0,0,0,7,7,7,,,,,,,,,,,,,,,,,,,,,,,,,,,,,,,,,,,104.16604809998535,104.36602429999039,104.34939889999805,104.64973349997308,104.64973349997308,None,105.1514006999787,None,d,1,0.8446757000056095,105.1514006999787,None,None,None,106.0184370999923,None,,,,,,,,,,,,,,,,,,,,,11043,2,1,2024_Jun_02_1732,stroop_task_switching2,2021.2.3,60.03089188759345,
condition/block_color,instruction/instr_color,instruction/i8,XX,yellow,j,diamond,color_single,颜色,,,,,,,,,,,0,0,0,0,0,0,0,0,0,8,8,8,,,,,,,,,,,,,,,,,,,,,,,,,,,,,,,,,,,107.020223599975,107.2215757999802,107.20337100001052,107.50476889999118,107.50476889999118,None,108.00601359998109,None,j,1,0.9020510000409558,108.00601359998109,None,None,None,108.9405715999892,None,,,,,,,,,,,,,,,,,,,,,11043,2,1,2024_Jun_02_1732,stroop_task_switching2,2021.2.3,60.03089188759345,
condition/block_color,instruction/instr_color,instruction/i8,XX,blue,f,diamond,color_single,颜色,,,,,,,,,,,0,0,0,0,0,0,0,0,0,9,9,9,,,,,,,,,,,,,,,,,,,,,,,,,,,,,,,,,,,109.94206879998092,110.14222919999156,110.12563279998722,110.42617290001363,110.42617290001363,None,110.9265255999635,None,f,1,0.6375642000348307,110.9265255999635,None,None,None,111.59361789998366,None,,,,,,,,,,,,,,,,,,,,,11043,2,1,2024_Jun_02_1732,stroop_task_switching2,2021.2.3,60.03089188759345,
condition/block_color,instruction/instr_color,instruction/i8,XX,red,d,diamond,color_single,颜色,,,,,,,,,,,0,0,0,0,0,0,0,0,0,10,10,10,,,,,,,,,,,,,,,,,,,,,,,,,,,,,,,,,,,112.59628970001359,112.79638449999038,112.77922929998022,113.07911609997973,113.07911609997973,None,113.5805934999953,None,d,1,1.2396865999908186,113.5805934999953,None,None,None,114.84928779996699,None,,,,,,,,,,,,,,,,,,,,,11043,2,1,2024_Jun_02_1732,stroop_task_switching2,2021.2.3,60.03089188759345,
condition/block_color,instruction/instr_color,instruction/i8,XX,green,k,diamond,color_single,颜色,,,,,,,,,,,0,0,0,0,0,0,0,0,0,11,11,11,,,,,,,,,,,,,,,,,,,,,,,,,,,,,,,,,,,115.85105439997278,116.05142360000173,116.03445340000326,116.33624340000097,116.33624340000097,None,116.83584750001319,None,k,1,0.6490132000180893,116.83584750001319,None,None,None,117.50245979998726,None,,,,,,,,,,,,,,,,,,,,,11043,2,1,2024_Jun_02_1732,stroop_task_switching2,2021.2.3,60.03089188759345,
condition/block_color,instruction/instr_color,instruction/i8,XX,blue,f,diamond,color_single,颜色,,,,,,,,,,,0,0,0,0,0,0,0,0,0,12,12,12,,,,,,,,,,,,,,,,,,,,,,,,,,,,,,,,,,,118.50468600000022,118.70500829996308,118.68867559998762,118.98910880001495,118.98910880001495,None,119.48992199997883,None,f,1,0.762525700032711,119.48992199997883,None,None,None,120.27393919997849,None,,,,,,,,,,,,,,,,,,,,,11043,2,1,2024_Jun_02_1732,stroop_task_switching2,2021.2.3,60.03089188759345,
condition/block_color,instruction/instr_color,instruction/i8,XX,red,d,diamond,color_single,颜色,,,,,,,,,,,0,0,0,0,0,0,0,0,0,13,13,13,,,,,,,,,,,,,,,,,,,,,,,,,,,,,,,,,,,121.27584229997592,121.47610899998108,121.45953130000271,121.75937429995975,121.75937429995975,None,122.26074739999603,None,d,1,0.6877361999941058,122.26074739999603,None,None,None,122.97820419998607,None,,,,,,,,,,,,,,,,,,,,,11043,2,1,2024_Jun_02_1732,stroop_task_switching2,2021.2.3,60.03089188759345,
condition/block_color,instruction/instr_color,instruction/i8,XX,green,k,diamond,color_single,颜色,,,,,,,,,,,0,0,0,0,0,0,0,0,0,14,14,14,,,,,,,,,,,,,,,,,,,,,,,,,,,,,,,,,,,123.9798676999635,124.17922639998142,124.16311059996951,124.4640760999755,124.4640760999755,None,124.9647374000051,None,k,1,0.5120655000209808,124.9647374000051,None,None,None,125.49825259996578,None,,,,,,,,,,,,,,,,,,,,,11043,2,1,2024_Jun_02_1732,stroop_task_switching2,2021.2.3,60.03089188759345,
condition/block_color,instruction/instr_color,instruction/i8,XX,yellow,j,diamond,color_single,颜色,,,,,,,,,,,0,0,0,0,0,0,0,0,0,15,15,15,,,,,,,,,,,,,,,,,,,,,,,,,,,,,,,,,,,126.50042180001037,126.70076869998593,126.68410259997472,126.98446989996592,126.98446989996592,None,127.48516739998013,None,j,1,0.37540860002627596,127.48516739998013,None,None,None,127.88590779999504,None,,,,,,,,,,,,,,,,,,,,,11043,2,1,2024_Jun_02_1732,stroop_task_switching2,2021.2.3,60.03089188759345,
condition/block_color,instruction/instr_color,instruction/i8,XX,red,d,diamond,color_single,颜色,,,,,,,,,,,0,0,0,0,0,0,0,0,0,16,16,16,,,,,,,,,,,,,,,,,,,,,,,,,,,,,,,,,,,128.8873968999833,129.08772050001426,129.07097489997977,129.3713315000059,129.3713315000059,None,129.872108999989,None,d,1,0.5169173000031151,129.872108999989,None,None,None,130.40575809997972,None,,,,,,,,,,,,,,,,,,,,,11043,2,1,2024_Jun_02_1732,stroop_task_switching2,2021.2.3,60.03089188759345,
condition/block_color,instruction/instr_color,instruction/i8,XX,green,k,diamond,color_single,颜色,,,,,,,,,,,0,0,0,0,0,0,0,0,0,17,17,17,,,,,,,,,,,,,,,,,,,,,,,,,,,,,,,,,,,131.40767290000804,131.60807650000788,131.59133440000005,131.8918008999899,131.8918008999899,None,132.39281479996862,None,k,1,0.6919546999852173,132.39281479996862,None,None,None,133.1098921999801,None,,,,,,,,,,,,,,,,,,,,,11043,2,1,2024_Jun_02_1732,stroop_task_switching2,2021.2.3,60.03089188759345,
condition/block_color,instruction/instr_color,instruction/i8,XX,yellow,j,diamond,color_single,颜色,,,,,,,,,,,0,0,0,0,0,0,0,0,0,18,18,18,,,,,,,,,,,,,,,,,,,,,,,,,,,,,,,,,,,134.11186150001595,134.3112645999645,134.29457759996876,134.59613219997846,134.59613219997846,None,135.0956780000124,None,j,1,0.4695713999681175,135.0956780000124,None,None,None,135.5798410999705,None,,,,,,,,,,,,,,,,,,,,,11043,2,1,2024_Jun_02_1732,stroop_task_switching2,2021.2.3,60.03089188759345,
condition/block_color,instruction/instr_color,instruction/i8,XX,blue,f,diamond,color_single,颜色,,,,,,,,,,,0,0,0,0,0,0,0,0,0,19,19,19,,,,,,,,,,,,,,,,,,,,,,,,,,,,,,,,,,,136.58216900000116,136.78225210000528,136.7660140999942,137.06634169997415,137.06634169997415,None,137.56702049996238,None,f,1,0.3899142000009306,137.56702049996238,None,None,None,137.98425009998027,None,,,,,,,,,,,,,,,,,,,,,11043,2,1,2024_Jun_02_1732,stroop_task_switching2,2021.2.3,60.03089188759345,
condition/block_color,instruction/instr_color,instruction/i8,XX,green,k,diamond,color_single,颜色,,,,,,,,,,,0,0,0,0,0,0,0,0,0,20,20,20,,,,,,,,,,,,,,,,,,,,,,,,,,,,,,,,,,,138.98597609996796,139.18639260000782,139.16957989998627,139.4699576999992,139.4699576999992,None,139.97058039996773,None,k,1,0.5147879999713041,139.97058039996773,None,None,None,140.5053633999778,None,,,,,,,,,,,,,,,,,,,,,11043,2,1,2024_Jun_02_1732,stroop_task_switching2,2021.2.3,60.03089188759345,
condition/block_color,instruction/instr_color,instruction/i8,XX,yellow,j,diamond,color_single,颜色,,,,,,,,,,,0,0,0,0,0,0,0,0,0,21,21,21,,,,,,,,,,,,,,,,,,,,,,,,,,,,,,,,,,,141.50609579996672,141.70563340000808,141.68890389997978,141.99041999998735,141.99041999998735,None,142.49089869996533,None,j,1,0.4099440000136383,142.49089869996533,None,None,None,142.92489939997904,None,,,,,,,,,,,,,,,,,,,,,11043,2,1,2024_Jun_02_1732,stroop_task_switching2,2021.2.3,60.03089188759345,
condition/block_color,instruction/instr_color,instruction/i8,XX,blue,f,diamond,color_single,颜色,,,,,,,,,,,0,0,0,0,0,0,0,0,0,22,22,22,,,,,,,,,,,,,,,,,,,,,,,,,,,,,,,,,,,143.92667379998602,144.12700350000523,144.11036910000257,144.41071440000087,144.41071440000087,None,144.9114641000051,None,f,1,0.6055699999560602,144.9114641000051,None,None,None,145.5457516000024,None,,,,,,,,,,,,,,,,,,,,,11043,2,1,2024_Jun_02_1732,stroop_task_switching2,2021.2.3,60.03089188759345,
condition/block_color,instruction/instr_color,instruction/i8,XX,red,d,diamond,color_single,颜色,,,,,,,,,,,0,0,0,0,0,0,0,0,0,23,23,23,,,,,,,,,,,,,,,,,,,,,,,,,,,,,,,,,,,146.5472507000086,146.7475328000146,146.7308394999709,147.03124699997716,147.03124699997716,None,147.5320919000078,None,d,1,0.8654457000084221,147.5320919000078,None,None,None,148.41628140001558,None,,,,,,,,,,,,,,,,,,,,,11043,2,1,2024_Jun_02_1732,stroop_task_switching2,2021.2.3,60.03089188759345,
condition/block_color,instruction/instr_color,instruction/i8,,,,,,,,,,,,,,,,,0,0,0,0,0,0,0,0,,,,,,,,,,,,,,,,,,,,,,,,,,,,,,,,,,,,,,,,,,,,,,,,,,,,,,,,149.45067220000783,None,space,2.8548553000437096,149.45067220000783,None,,,,,,,,,,,,,,,11043,2,1,2024_Jun_02_1732,stroop_task_switching2,2021.2.3,60.03089188759345,
condition/block_color,instruction/instr_color,instruction/i8,,,,,,,,,,,,,,,,,0,0,0,0,,,,,,,,,,,,,,,,,,,,,,,,,,,,,,,,,,,,,,,,,,,,,,,,,,,,,,,,,,,,,,,,,,,,,,,,,,,,,,,,11043,2,1,2024_Jun_02_1732,stroop_task_switching2,2021.2.3,60.03089188759345,
condition/block_word,instruction/instr_word,instruction/i9,黄,white,j,square,word_single,单词,0.0032461461866890584,,,,,,,,,,0,1,1,1,0,0,0,0,0,0,0,0,,,,,,,,,,,,,,,,,,,,,152.35498449997976,None,space,5.037132700032089,152.35498449997976,None,158.41530479997164,159.41680329997325,159.41680329997325,160.41776859998936,160.41776859998936,None,157.43068059999496,158.43181430001277,161.45367489999626,161.66979029995855,161.63570769998478,161.93674209999153,161.93674209999153,None,162.42116109997733,None,f,0,1.0642253000405617,162.42116109997733,None,None,None,163.50511739996728,None,,,,,,,,,,,,,,,,,,,,,11043,2,1,2024_Jun_02_1732,stroop_task_switching2,2021.2.3,60.03089188759345,
condition/block_word,instruction/instr_word,instruction/i9,蓝,white,f,square,word_single,单词,0.060540570646362424,,,,,,,,,,0,1,1,1,0,0,0,0,0,1,1,1,,,,,,,,,,,,,,,,,,,,,,,,,,,,,,,,,,,164.50768899999093,164.7081367999781,164.69121309998445,164.9912309999927,164.9912309999927,None,165.4919007999706,None,f,1,0.5937107999925502,165.4919007999706,None,None,None,166.10897969995858,None,,,,,,,,,,,,,,,,,,,,,11043,2,1,2024_Jun_02_1732,stroop_task_switching2,2021.2.3,60.03089188759345,
condition/block_word,instruction/instr_word,instruction/i9,黄,white,j,square,word_single,单词,0.06994067193778963,,,,,,,,,,0,1,1,1,0,0,0,0,0,2,2,2,,,,,,,,,,,,,,,,,,,,,,,,,,,,,,,,,,,167.1114838999929,167.31187549995957,167.29527719999896,167.59573800000362,167.59573800000362,None,168.0967406000127,None,j,1,0.6608698000200093,168.0967406000127,None,None,None,168.7807511999854,None,,,,,,,,,,,,,,,,,,,,,11043,2,1,2024_Jun_02_1732,stroop_task_switching2,2021.2.3,60.03089188759345,
condition/block_word,instruction/instr_word,instruction/i9,蓝,white,f,square,word_single,单词,0.08193765152950094,,,,,,,,,,0,1,1,1,0,0,0,0,0,3,3,3,,,,,,,,,,,,,,,,,,,,,,,,,,,,,,,,,,,169.78226619999623,169.9827291999827,169.96579210000345,170.2654464999796,170.2654464999796,None,170.76722049998352,None,f,1,0.7425122000277042,170.76722049998352,None,None,None,171.53389560000505,None,,,,,,,,,,,,,,,,,,,,,11043,2,1,2024_Jun_02_1732,stroop_task_switching2,2021.2.3,60.03089188759345,
condition/block_word,instruction/instr_word,instruction/i9,红,white,d,square,word_single,单词,0.1279694370605574,,,,,,,,,,0,1,1,1,0,0,0,0,0,4,4,4,,,,,,,,,,,,,,,,,,,,,,,,,,,,,,,,,,,172.53620599996066,172.7368148000096,172.7199443000136,173.01979109999957,173.01979109999957,None,173.52128769998671,None,d,1,0.44451160001335666,173.52128769998671,None,None,None,173.9887060999754,None,,,,,,,,,,,,,,,,,,,,,11043,2,1,2024_Jun_02_1732,stroop_task_switching2,2021.2.3,60.03089188759345,
condition/block_word,instruction/instr_word,instruction/i9,红,white,d,square,word_single,单词,0.18345028784879092,,,,,,,,,,0,1,1,1,0,0,0,0,0,5,5,5,,,,,,,,,,,,,,,,,,,,,,,,,,,,,,,,,,,174.989881699963,175.19029669999145,175.17375889996765,175.47513989999425,175.47513989999425,None,175.9744486999698,None,d,1,0.5920259999693371,175.9744486999698,None,None,None,176.59236070001498,None,,,,,,,,,,,,,,,,,,,,,11043,2,1,2024_Jun_02_1732,stroop_task_switching2,2021.2.3,60.03089188759345,
condition/block_word,instruction/instr_word,instruction/i9,蓝,white,f,square,word_single,单词,0.19920386223101294,,,,,,,,,,0,1,1,1,0,0,0,0,0,6,6,6,,,,,,,,,,,,,,,,,,,,,,,,,,,,,,,,,,,177.5943597999867,177.79458669997985,177.77719769999385,178.07928569999058,178.07928569999058,None,178.57907129998785,None,f,1,0.9313114000251517,178.57907129998785,None,None,None,179.53020199999446,None,,,,,,,,,,,,,,,,,,,,,11043,2,1,2024_Jun_02_1732,stroop_task_switching2,2021.2.3,60.03089188759345,
condition/block_word,instruction/instr_word,instruction/i9,蓝,white,f,square,word_single,单词,0.26360599864925405,,,,,,,,,,0,1,1,1,0,0,0,0,0,7,7,7,,,,,,,,,,,,,,,,,,,,,,,,,,,,,,,,,,,180.53195239999332,180.73233540001092,180.71553009998752,181.0160681999987,181.0160681999987,None,181.51647289999528,None,f,1,0.593504499993287,181.51647289999528,None,None,None,182.1343482999946,None,,,,,,,,,,,,,,,,,,,,,11043,2,1,2024_Jun_02_1732,stroop_task_switching2,2021.2.3,60.03089188759345,
condition/block_word,instruction/instr_word,instruction/i9,蓝,white,f,square,word_single,单词,0.358985675745526,,,,,,,,,,0,1,1,1,0,0,0,0,0,8,8,8,,,,,,,,,,,,,,,,,,,,,,,,,,,,,,,,,,,183.13634869997622,183.33564830000978,183.31898370001,183.61942509998335,183.61942509998335,None,184.12075679999543,None,f,1,0.4617407000041567,184.12075679999543,None,None,None,184.6050247999956,None,,,,,,,,,,,,,,,,,,,,,11043,2,1,2024_Jun_02_1732,stroop_task_switching2,2021.2.3,60.03089188759345,
condition/block_word,instruction/instr_word,instruction/i9,绿,white,k,square,word_single,单词,0.36496733802487347,,,,,,,,,,0,1,1,1,0,0,0,0,0,9,9,9,,,,,,,,,,,,,,,,,,,,,,,,,,,,,,,,,,,185.6060081999749,185.80653729999904,185.78977069997927,186.09000689996174,186.09000689996174,None,186.59054910001578,None,k,1,0.6316861999803223,186.59054910001578,None,None,None,187.24142989999382,None,,,,,,,,,,,,,,,,,,,,,11043,2,1,2024_Jun_02_1732,stroop_task_switching2,2021.2.3,60.03089188759345,
condition/block_word,instruction/instr_word,instruction/i9,黄,white,j,square,word_single,单词,0.3743513623756727,,,,,,,,,,0,1,1,1,0,0,0,0,0,10,10,10,,,,,,,,,,,,,,,,,,,,,,,,,,,,,,,,,,,188.2435770999873,188.44390800001565,188.42722040001536,188.72734340000898,188.72734340000898,None,189.22761100000935,None,j,1,0.5227253999910317,189.22761100000935,None,None,None,189.77916769997682,None,,,,,,,,,,,,,,,,,,,,,11043,2,1,2024_Jun_02_1732,stroop_task_switching2,2021.2.3,60.03089188759345,
condition/block_word,instruction/instr_word,instruction/i9,红,white,d,square,word_single,单词,0.3894803852598544,,,,,,,,,,0,1,1,1,0,0,0,0,0,11,11,11,,,,,,,,,,,,,,,,,,,,,,,,,,,,,,,,,,,190.7805185999605,190.9806430999888,190.96409439999843,191.26394189998973,191.26394189998973,None,191.7654166999855,None,d,1,0.5373919000267051,191.7654166999855,None,None,None,192.3330558000016,None,,,,,,,,,,,,,,,,,,,,,11043,2,1,2024_Jun_02_1732,stroop_task_switching2,2021.2.3,60.03089188759345,
condition/block_word,instruction/instr_word,instruction/i9,绿,white,k,square,word_single,单词,0.5393759672408067,,,,,,,,,,0,1,1,1,0,0,0,0,0,12,12,12,,,,,,,,,,,,,,,,,,,,,,,,,,,,,,,,,,,193.3334259999683,193.53458380000666,193.51835389999906,193.8185788000119,193.8185788000119,None,194.31833809998352,None,k,1,0.5599587000324391,194.31833809998352,None,None,None,194.90332839998882,None,,,,,,,,,,,,,,,,,,,,,11043,2,1,2024_Jun_02_1732,stroop_task_switching2,2021.2.3,60.03089188759345,
condition/block_word,instruction/instr_word,instruction/i9,蓝,white,f,square,word_single,单词,0.5995731954831104,,,,,,,,,,0,1,1,1,0,0,0,0,0,13,13,13,,,,,,,,,,,,,,,,,,,,,,,,,,,,,,,,,,,195.9044244000106,196.10489029996097,196.0884261999745,196.38902060000692,196.38902060000692,None,196.89009439997608,None,f,1,0.8048781999968924,196.89009439997608,None,None,None,197.72443699999712,None,,,,,,,,,,,,,,,,,,,,,11043,2,1,2024_Jun_02_1732,stroop_task_switching2,2021.2.3,60.03089188759345,
condition/block_word,instruction/instr_word,instruction/i9,红,white,d,square,word_single,单词,0.6298674479151414,,,,,,,,,,0,1,1,1,0,0,0,0,0,14,14,14,,,,,,,,,,,,,,,,,,,,,,,,,,,,,,,,,,,198.7256713999668,198.9262823999743,198.90980989998206,199.21008769999025,199.21008769999025,None,199.71057349996408,None,d,1,0.6084549999795854,199.71057349996408,None,None,None,200.345105699962,None,,,,,,,,,,,,,,,,,,,,,11043,2,1,2024_Jun_02_1732,stroop_task_switching2,2021.2.3,60.03089188759345,
condition/block_word,instruction/instr_word,instruction/i9,红,white,d,square,word_single,单词,0.7389942282348904,,,,,,,,,,0,1,1,1,0,0,0,0,0,15,15,15,,,,,,,,,,,,,,,,,,,,,,,,,,,,,,,,,,,201.34668650000822,201.5467406999669,201.53028000000631,201.83053769997787,201.83053769997787,None,202.33033339999383,None,d,1,0.5486753000295721,202.33033339999383,None,None,None,202.89829949999694,None,,,,,,,,,,,,,,,,,,,,,11043,2,1,2024_Jun_02_1732,stroop_task_switching2,2021.2.3,60.03089188759345,
condition/block_word,instruction/instr_word,instruction/i9,绿,white,k,square,word_single,单词,0.7550853947239682,,,,,,,,,,0,1,1,1,0,0,0,0,0,16,16,16,,,,,,,,,,,,,,,,,,,,,,,,,,,,,,,,,,,203.90045019995887,204.10076050000498,204.08406079997076,204.3843914999743,204.3843914999743,None,204.8849800999742,None,k,1,0.6741855000145733,204.8849800999742,None,None,None,205.585348099994,None,,,,,,,,,,,,,,,,,,,,,11043,2,1,2024_Jun_02_1732,stroop_task_switching2,2021.2.3,60.03089188759345,
condition/block_word,instruction/instr_word,instruction/i9,绿,white,k,square,word_single,单词,0.8019302780428206,,,,,,,,,,0,1,1,1,0,0,0,0,0,17,17,17,,,,,,,,,,,,,,,,,,,,,,,,,,,,,,,,,,,206.58795379998628,206.78829619998578,206.77160059998278,207.0719059999683,207.0719059999683,None,207.57263889996102,None,k,1,0.7539936999673955,207.57263889996102,None,None,None,208.35690329998033,None,,,,,,,,,,,,,,,,,,,,,11043,2,1,2024_Jun_02_1732,stroop_task_switching2,2021.2.3,60.03089188759345,
condition/block_word,instruction/instr_word,instruction/i9,绿,white,k,square,word_single,单词,0.8110702914095343,,,,,,,,,,0,1,1,1,0,0,0,0,0,18,18,18,,,,,,,,,,,,,,,,,,,,,,,,,,,,,,,,,,,209.35885660001077,209.55893200001447,209.54251940001268,209.84263520000968,209.84263520000968,None,210.34356619999744,None,k,1,0.6794262999901548,210.34356619999744,None,None,None,211.04394040000625,None,,,,,,,,,,,,,,,,,,,,,11043,2,1,2024_Jun_02_1732,stroop_task_switching2,2021.2.3,60.03089188759345,
condition/block_word,instruction/instr_word,instruction/i9,黄,white,j,square,word_single,单词,0.8176594937590999,,,,,,,,,,0,1,1,1,0,0,0,0,0,19,19,19,,,,,,,,,,,,,,,,,,,,,,,,,,,,,,,,,,,212.0460695999791,212.24627790000523,212.2294811999891,212.53001789998962,212.53001789998962,None,213.03113109996775,None,j,1,0.8157277000136673,213.03113109996775,None,None,None,213.86530959996162,None,,,,,,,,,,,,,,,,,,,,,11043,2,1,2024_Jun_02_1732,stroop_task_switching2,2021.2.3,60.03089188759345,
condition/block_word,instruction/instr_word,instruction/i9,红,white,d,square,word_single,单词,0.8955794421104841,,,,,,,,,,0,1,1,1,0,0,0,0,0,20,20,20,,,,,,,,,,,,,,,,,,,,,,,,,,,,,,,,,,,214.86725589999696,215.0677771999617,215.051178099995,215.3510561999865,215.3510561999865,None,215.86850739998044,None,d,1,0.48323739995248616,215.86850739998044,None,None,None,216.36895550001645,None,,,,,,,,,,,,,,,,,,,,,11043,2,1,2024_Jun_02_1732,stroop_task_switching2,2021.2.3,60.03089188759345,
condition/block_word,instruction/instr_word,instruction/i9,绿,white,k,square,word_single,单词,0.9113598052474129,,,,,,,,,,0,1,1,1,0,0,0,0,0,21,21,21,,,,,,,,,,,,,,,,,,,,,,,,,,,,,,,,,,,217.37091759999748,217.5713900999981,217.55361269996502,217.85488930001156,217.85488930001156,None,218.35540699999547,None,k,1,0.5959147999528795,218.35540699999547,None,None,None,218.97293889999855,None,,,,,,,,,,,,,,,,,,,,,11043,2,1,2024_Jun_02_1732,stroop_task_switching2,2021.2.3,60.03089188759345,
condition/block_word,instruction/instr_word,instruction/i9,黄,white,j,square,word_single,单词,0.9215930958042953,,,,,,,,,,0,1,1,1,0,0,0,0,0,22,22,22,,,,,,,,,,,,,,,,,,,,,,,,,,,,,,,,,,,219.97456959995907,220.17498429998523,220.15821719996165,220.45906369999284,220.45906369999284,None,220.95945699996082,None,j,1,0.5039762000087649,220.95945699996082,None,None,None,221.49349309998797,None,,,,,,,,,,,,,,,,,,,,,11043,2,1,2024_Jun_02_1732,stroop_task_switching2,2021.2.3,60.03089188759345,
condition/block_word,instruction/instr_word,instruction/i9,黄,white,j,square,word_single,单词,0.9493525498837774,,,,,,,,,,0,1,1,1,0,0,0,0,0,23,23,23,,,,,,,,,,,,,,,,,,,,,,,,,,,,,,,,,,,222.49486330000218,222.6957618999877,222.678904099972,222.97871729999315,222.97871729999315,None,223.4799728000071,None,j,1,0.6953754000132903,223.4799728000071,None,None,None,224.19768619997194,None,,,,,,,,,,,,,,,,,,,,,11043,2,1,2024_Jun_02_1732,stroop_task_switching2,2021.2.3,60.03089188759345,
condition/block_word,instruction/instr_word,instruction/i9,,,,,,,,,,,,,,,,,0,1,1,1,0,0,0,0,,,,,,,,,,,,,,,,,,,,,,,,,,,,,,,,,,,,,,,,,,,,,,,,,,,,,,,,225.19789099995978,None,space,3.4777671999763697,225.19789099995978,None,,,,,,,,,,,,,,,11043,2,1,2024_Jun_02_1732,stroop_task_switching2,2021.2.3,60.03089188759345,
condition/block_word,instruction/instr_word,instruction/i9,,,,,,,,,,,,,,,,,0,1,1,1,,,,,,,,,,,,,,,,,,,,,,,,,,,,,,,,,,,,,,,,,,,,,,,,,,,,,,,,,,,,,,,,,,,,,,,,,,,,,,,,11043,2,1,2024_Jun_02_1732,stroop_task_switching2,2021.2.3,60.03089188759345,
condition/block_mixed,instruction/instr_mixed,instruction/i10,蓝,red,d,diamond,color_mix,颜色,,incompatible,0,,,,,,,,0,2,2,2,0,0,0,0,0,0,0,0,,,,,,,,,,,,,,,,,,,,,228.73735359997954,None,space,21.981953000009526,228.73735359997954,None,251.7392828000011,252.74072379997233,252.74072379997233,253.7419601000147,253.7419601000147,None,250.75510319997557,251.75572539999848,254.77774069999577,254.97761669999454,254.96087339997757,255.26087060000282,255.26087060000282,None,255.74480609997408,None,d,1,1.7996916000265628,255.74480609997408,None,None,None,257.56367679999676,None,,,,,,,,,,,,,,,,,,,,,11043,2,1,2024_Jun_02_1732,stroop_task_switching2,2021.2.3,60.03089188759345,
condition/block_mixed,instruction/instr_mixed,instruction/i10,绿,yellow,j,diamond,color_mix,颜色,,incompatible,1,,,,,,,,0,2,2,2,0,0,0,0,0,1,1,1,,,,,,,,,,,,,,,,,,,,,,,,,,,,,,,,,,,258.566192600003,258.7665299999644,258.7498201999697,259.0501147999894,259.0501147999894,None,259.5513401000062,None,j,1,1.072926599998027,259.5513401000062,None,None,None,260.6517037000158,None,,,,,,,,,,,,,,,,,,,,,11043,2,1,2024_Jun_02_1732,stroop_task_switching2,2021.2.3,60.03089188759345,
condition/block_mixed,instruction/instr_mixed,instruction/i10,红,green,k,diamond,color_mix,颜色,,incompatible,1,,,,,,,,0,2,2,2,0,0,0,0,0,2,2,2,,,,,,,,,,,,,,,,,,,,,,,,,,,,,,,,,,,261.6533449999988,261.85376959998393,261.8375290000113,262.13896359998034,262.13896359998034,None,262.639192099974,None,d,0,1.065565199998673,262.639192099974,None,None,None,263.72292029997334,None,,,,,,,,,,,,,,,,,,,,,11043,2,1,2024_Jun_02_1732,stroop_task_switching2,2021.2.3,60.03089188759345,
condition/block_mixed,instruction/instr_mixed,instruction/i10,蓝,red,d,diamond,color_mix,颜色,,incompatible,1,,,,,,,,0,2,2,2,0,0,0,0,0,3,3,3,,,,,,,,,,,,,,,,,,,,,,,,,,,,,,,,,,,264.72532049997244,264.9256575999898,264.90853959997185,265.20980569999665,265.20980569999665,None,265.7100288000074,None,d,1,0.7706116000190377,265.7100288000074,None,None,None,266.5109557000105,None,,,,,,,,,,,,,,,,,,,,,11043,2,1,2024_Jun_02_1732,stroop_task_switching2,2021.2.3,60.03089188759345,
condition/block_mixed,instruction/instr_mixed,instruction/i10,红,blue,f,diamond,color_mix,颜色,,incompatible,1,,,,,,,,0,2,2,2,0,0,0,0,0,4,4,4,,,,,,,,,,,,,,,,,,,,,,,,,,,,,,,,,,,267.512996800011,267.7132925000042,267.69650690001436,267.996802699985,267.996802699985,None,268.4978742999956,None,f,1,0.9028438999666832,268.4978742999956,None,None,None,269.43191089999164,None,,,,,,,,,,,,,,,,,,,,,11043,2,1,2024_Jun_02_1732,stroop_task_switching2,2021.2.3,60.03089188759345,
condition/block_mixed,instruction/instr_mixed,instruction/i10,红,blue,d,square,color_mix,单词,,incompatible,2,,,,,,,,0,2,2,2,0,0,0,0,0,5,5,5,,,,,,,,,,,,,,,,,,,,,,,,,,,,,,,,,,,270.43398839997826,270.6343949000002,270.6177054999862,270.91829329996835,270.91829329996835,None,271.4192361999885,None,d,1,0.9336105999536812,271.4192361999885,None,None,None,272.36986029997934,None,,,,,,,,,,,,,,,,,,,,,11043,2,1,2024_Jun_02_1732,stroop_task_switching2,2021.2.3,60.03089188759345,
condition/block_mixed,instruction/instr_mixed,instruction/i10,红,yellow,j,diamond,color_mix,颜色,,incompatible,2,,,,,,,,0,2,2,2,0,0,0,0,0,6,6,6,,,,,,,,,,,,,,,,,,,,,,,,,,,,,,,,,,,273.37176549999276,273.5722130999784,273.55551269999705,273.8559910999611,273.8559910999611,None,274.35550509998575,None,j,1,0.9252199999755248,274.35550509998575,None,None,None,275.30746889999136,None,,,,,,,,,,,,,,,,,,,,,11043,2,1,2024_Jun_02_1732,stroop_task_switching2,2021.2.3,60.03089188759345,
condition/block_mixed,instruction/instr_mixed,instruction/i10,红,yellow,d,square,color_mix,单词,,incompatible,2,,,,,,,,0,2,2,2,0,0,0,0,0,7,7,7,,,,,,,,,,,,,,,,,,,,,,,,,,,,,,,,,,,276.30967300001066,276.51005350000923,276.49321350001264,276.79385809996165,276.79385809996165,None,277.29446429997915,None,d,1,0.522121399990283,277.29446429997915,None,None,None,277.8453142999788,None,,,,,,,,,,,,,,,,,,,,,11043,2,1,2024_Jun_02_1732,stroop_task_switching2,2021.2.3,60.03089188759345,
condition/block_mixed,instruction/instr_mixed,instruction/i10,绿,blue,k,square,color_mix,单词,,incompatible,1,,,,,,,,0,2,2,2,0,0,0,0,0,8,8,8,,,,,,,,,,,,,,,,,,,,,,,,,,,,,,,,,,,278.84679999999935,279.04793639999116,279.0294567999663,279.33093699999154,279.33093699999154,None,279.8316338000004,None,k,1,1.4020955999731086,279.8316338000004,None,None,None,281.2494309999747,None,,,,,,,,,,,,,,,,,,,,,11043,2,1,2024_Jun_02_1732,stroop_task_switching2,2021.2.3,60.03089188759345,
condition/block_mixed,instruction/instr_mixed,instruction/i10,蓝,green,k,diamond,color_mix,颜色,,incompatible,2,,,,,,,,0,2,2,2,0,0,0,0,0,9,9,9,,,,,,,,,,,,,,,,,,,,,,,,,,,,,,,,,,,282.25195379997604,282.4522568999673,282.4355088999728,282.73593500000425,282.73593500000425,None,283.2373321999912,None,k,1,0.8118245999794453,283.2373321999912,None,None,None,284.0710365999839,None,,,,,,,,,,,,,,,,,,,,,11043,2,1,2024_Jun_02_1732,stroop_task_switching2,2021.2.3,60.03089188759345,
condition/block_mixed,instruction/instr_mixed,instruction/i10,蓝,yellow,f,square,color_mix,单词,,incompatible,2,,,,,,,,0,2,2,2,0,0,0,0,0,10,10,10,,,,,,,,,,,,,,,,,,,,,,,,,,,,,,,,,,,285.07238679996226,285.2730328000034,285.25601730000926,285.5569389999728,285.5569389999728,None,286.05761899997015,None,f,1,1.3195420000120066,286.05761899997015,None,None,None,287.3921931000077,None,,,,,,,,,,,,,,,,,,,,,11043,2,1,2024_Jun_02_1732,stroop_task_switching2,2021.2.3,60.03089188759345,
condition/block_mixed,instruction/instr_mixed,instruction/i10,蓝,green,f,square,color_mix,单词,,incompatible,1,,,,,,,,0,2,2,2,0,0,0,0,0,11,11,11,,,,,,,,,,,,,,,,,,,,,,,,,,,,,,,,,,,288.39345299999695,288.5945827999967,288.57813939999323,288.8775370999938,288.8775370999938,None,289.3793564999942,None,f,1,0.5416108000208624,289.3793564999942,None,None,None,289.9468365999637,None,,,,,,,,,,,,,,,,,,,,,11043,2,1,2024_Jun_02_1732,stroop_task_switching2,2021.2.3,60.03089188759345,
condition/block_mixed,instruction/instr_mixed,instruction/i10,绿,yellow,k,square,color_mix,单词,,incompatible,1,,,,,,,,0,2,2,2,0,0,0,0,0,12,12,12,,,,,,,,,,,,,,,,,,,,,,,,,,,,,,,,,,,290.9479535999708,291.14871709997533,291.1319025999983,291.4323269999586,291.4323269999586,None,291.9331251999829,None,k,1,0.8522389999707229,291.9331251999829,None,None,None,292.8003058999893,None,,,,,,,,,,,,,,,,,,,,,11043,2,1,2024_Jun_02_1732,stroop_task_switching2,2021.2.3,60.03089188759345,
condition/block_mixed,instruction/instr_mixed,instruction/i10,绿,blue,f,diamond,color_mix,颜色,,incompatible,2,,,,,,,,0,2,2,2,0,0,0,0,0,13,13,13,,,,,,,,,,,,,,,,,,,,,,,,,,,,,,,,,,,293.8027430999791,294.0029235999682,293.98596319998614,294.28670230001444,294.28670230001444,None,294.7877825999749,None,f,1,0.8692436999990605,294.7877825999749,None,None,None,295.68897570000263,None,,,,,,,,,,,,,,,,,,,,,11043,2,1,2024_Jun_02_1732,stroop_task_switching2,2021.2.3,60.03089188759345,
condition/block_mixed,instruction/instr_mixed,instruction/i10,黄,red,j,square,color_mix,单词,,incompatible,2,,,,,,,,0,2,2,2,0,0,0,0,0,14,14,14,,,,,,,,,,,,,,,,,,,,,,,,,,,,,,,,,,,296.6904053000035,296.8918115000124,296.8730598000111,297.17449140001554,297.17449140001554,None,297.67509889998473,None,j,1,0.9344795999932103,297.67509889998473,None,None,None,298.62559129996225,None,,,,,,,,,,,,,,,,,,,,,11043,2,1,2024_Jun_02_1732,stroop_task_switching2,2021.2.3,60.03089188759345,
condition/block_mixed,instruction/instr_mixed,instruction/i10,蓝,yellow,j,diamond,color_mix,颜色,,incompatible,2,,,,,,,,0,2,2,2,0,0,0,0,0,15,15,15,,,,,,,,,,,,,,,,,,,,,,,,,,,,,,,,,,,299.62790610000957,299.8283010000014,299.8118169999798,300.1121444000164,300.1121444000164,None,300.6130398999667,None,j,1,0.8522907000151463,300.6130398999667,None,None,None,301.47976899996866,None,,,,,,,,,,,,,,,,,,,,,11043,2,1,2024_Jun_02_1732,stroop_task_switching2,2021.2.3,60.03089188759345,
condition/block_mixed,instruction/instr_mixed,instruction/i10,黄,red,d,diamond,color_mix,颜色,,incompatible,1,,,,,,,,0,2,2,2,0,0,0,0,0,16,16,16,,,,,,,,,,,,,,,,,,,,,,,,,,,,,,,,,,,302.4826039999607,302.6826939000166,302.6654183999635,302.96654419996776,302.96654419996776,None,303.46732529997826,None,d,1,0.7981508999946527,303.46732529997826,None,None,None,304.28511110000545,None,,,,,,,,,,,,,,,,,,,,,11043,2,1,2024_Jun_02_1732,stroop_task_switching2,2021.2.3,60.03089188759345,
condition/block_mixed,instruction/instr_mixed,instruction/i10,绿,red,k,square,color_mix,单词,,incompatible,2,,,,,,,,0,2,2,2,0,0,0,0,0,17,17,17,,,,,,,,,,,,,,,,,,,,,,,,,,,,,,,,,,,305.28661219996866,305.4870483999839,305.470280700014,305.7708021000144,305.7708021000144,None,306.2711769999587,None,k,1,0.6429053999600001,306.2711769999587,None,None,None,306.93817310000304,None,,,,,,,,,,,,,,,,,,,,,11043,2,1,2024_Jun_02_1732,stroop_task_switching2,2021.2.3,60.03089188759345,
condition/block_mixed,instruction/instr_mixed,instruction/i10,红,green,d,square,color_mix,单词,,incompatible,1,,,,,,,,0,2,2,2,0,0,0,0,0,18,18,18,,,,,,,,,,,,,,,,,,,,,,,,,,,,,,,,,,,307.940746999986,308.14107249997323,308.1241637999774,308.4248593999655,308.4248593999655,None,308.92542539996793,None,d,1,0.5400797000038438,308.92542539996793,None,None,None,309.49260309996316,None,,,,,,,,,,,,,,,,,,,,,11043,2,1,2024_Jun_02_1732,stroop_task_switching2,2021.2.3,60.03089188759345,
condition/block_mixed,instruction/instr_mixed,instruction/i10,黄,blue,f,diamond,color_mix,颜色,,incompatible,2,,,,,,,,0,2,2,2,0,0,0,0,0,19,19,19,,,,,,,,,,,,,,,,,,,,,,,,,,,,,,,,,,,310.4943379999604,310.69469869998284,310.6779688000097,310.9783285000012,310.9783285000012,None,311.4795629999717,None,f,1,0.9698943999828771,311.4795629999717,None,None,None,312.4804141999921,None,,,,,,,,,,,,,,,,,,,,,11043,2,1,2024_Jun_02_1732,stroop_task_switching2,2021.2.3,60.03089188759345,
condition/block_mixed,instruction/instr_mixed,instruction/i10,黄,green,k,diamond,color_mix,颜色,,incompatible,1,,,,,,,,0,2,2,2,0,0,0,0,0,20,20,20,,,,,,,,,,,,,,,,,,,,,,,,,,,,,,,,,,,313.4825325999991,313.68230589997256,313.6656091999612,313.96647049998865,313.96647049998865,None,314.46718510001665,None,k,1,0.7352058000396937,314.46718510001665,None,None,None,315.2174394999747,None,,,,,,,,,,,,,,,,,,,,,11043,2,1,2024_Jun_02_1732,stroop_task_switching2,2021.2.3,60.03089188759345,
condition/block_mixed,instruction/instr_mixed,instruction/i10,黄,green,j,square,color_mix,单词,,incompatible,2,,,,,,,,0,2,2,2,0,0,0,0,0,21,21,21,,,,,,,,,,,,,,,,,,,,,,,,,,,,,,,,,,,316.2195408999687,316.41980400000466,316.40364350000164,316.70365709997714,316.70365709997714,None,317.20461019995855,None,j,1,0.805411399982404,317.20461019995855,None,None,None,318.03879169997526,None,,,,,,,,,,,,,,,,,,,,,11043,2,1,2024_Jun_02_1732,stroop_task_switching2,2021.2.3,60.03089188759345,
condition/block_mixed,instruction/instr_mixed,instruction/i10,黄,blue,j,square,color_mix,单词,,incompatible,1,,,,,,,,0,2,2,2,0,0,0,0,0,22,22,22,,,,,,,,,,,,,,,,,,,,,,,,,,,,,,,,,,,319.0402372999815,319.2410041000112,319.22427890001563,319.5243365999777,319.5243365999777,None,320.0250415999908,None,j,1,1.081258299993351,320.0250415999908,None,None,None,321.1273235999979,None,,,,,,,,,,,,,,,,,,,,,11043,2,1,2024_Jun_02_1732,stroop_task_switching2,2021.2.3,60.03089188759345,
condition/block_mixed,instruction/instr_mixed,instruction/i10,蓝,red,f,square,color_mix,单词,,incompatible,1,,,,,,,,0,2,2,2,0,0,0,0,0,23,23,23,,,,,,,,,,,,,,,,,,,,,,,,,,,,,,,,,,,322.12772839999525,322.3290066999616,322.3122956000152,322.6128088000114,322.6128088000114,None,323.1134213999612,None,k,0,1.344582400051877,323.1134213999612,None,None,None,324.4812159999856,None,,,,,,,,,,,,,,,,,,,,,11043,2,1,2024_Jun_02_1732,stroop_task_switching2,2021.2.3,60.03089188759345,
condition/block_mixed,instruction/instr_mixed,instruction/i10,绿,red,d,diamond,color_mix,颜色,,incompatible,2,,,,,,,,0,2,2,2,0,0,0,0,0,24,24,24,,,,,,,,,,,,,,,,,,,,,,,,,,,,,,,,,,,325.48403280001367,325.68374339997536,325.66729650000343,325.96805179998046,325.96805179998046,None,326.4686246999772,None,d,1,0.7337450999766588,326.4686246999772,None,None,None,327.219234899967,None,,,,,,,,,,,,,,,,,,,,,11043,2,1,2024_Jun_02_1732,stroop_task_switching2,2021.2.3,60.03089188759345,
condition/block_mixed,instruction/instr_mixed,instruction/i10,绿,green,k,diamond,color_mix,颜色,,compatible,1,,,,,,,,0,2,2,2,0,0,0,0,0,25,25,25,,,,,,,,,,,,,,,,,,,,,,,,,,,,,,,,,,,328.2212702999823,328.4217049999861,328.40484009997454,328.7054982999689,328.7054982999689,None,329.20604229997844,None,k,1,0.9644342999672517,329.20604229997844,None,None,None,330.19128119997913,None,,,,,,,,,,,,,,,,,,,,,11043,2,1,2024_Jun_02_1732,stroop_task_switching2,2021.2.3,60.03089188759345,
condition/block_mixed,instruction/instr_mixed,instruction/i10,蓝,blue,f,diamond,color_mix,颜色,,compatible,1,,,,,,,,0,2,2,2,0,0,0,0,0,26,26,26,,,,,,,,,,,,,,,,,,,,,,,,,,,,,,,,,,,331.1922561000101,331.3928045000066,331.3775124999811,331.6930985999643,331.6763856000034,None,332.1772848999826,None,f,1,1.0494602000107989,332.1772848999826,None,None,None,333.2443853999721,None,,,,,,,,,,,,,,,,,,,,,11043,2,1,2024_Jun_02_1732,stroop_task_switching2,2021.2.3,60.03089188759345,
condition/block_mixed,instruction/instr_mixed,instruction/i10,绿,green,k,square,color_mix,单词,,compatible,2,,,,,,,,0,2,2,2,0,0,0,0,0,27,27,27,,,,,,,,,,,,,,,,,,,,,,,,,,,,,,,,,,,334.24700179998763,334.4471211999771,334.4302912999992,334.7310929999803,334.7310929999803,None,335.2317934000166,None,k,1,0.7943869000300765,335.2317934000166,None,None,None,336.0498967000167,None,,,,,,,,,,,,,,,,,,,,,11043,2,1,2024_Jun_02_1732,stroop_task_switching2,2021.2.3,60.03089188759345,
condition/block_mixed,instruction/instr_mixed,instruction/i10,绿,green,k,square,color_mix,单词,,compatible,1,,,,,,,,0,2,2,2,0,0,0,0,0,28,28,28,,,,,,,,,,,,,,,,,,,,,,,,,,,,,,,,,,,337.0510303999763,337.25141590001294,337.2348262000014,337.53516279999167,337.53516279999167,None,338.0360112999915,None,k,1,0.49476819997653365,338.0360112999915,None,None,None,338.5529483999708,None,,,,,,,,,,,,,,,,,,,,,11043,2,1,2024_Jun_02_1732,stroop_task_switching2,2021.2.3,60.03089188759345,
condition/block_mixed,instruction/instr_mixed,instruction/i10,蓝,blue,f,square,color_mix,单词,,compatible,1,,,,,,,,0,2,2,2,0,0,0,0,0,29,29,29,,,,,,,,,,,,,,,,,,,,,,,,,,,,,,,,,,,339.5545734000043,339.75524349999614,339.738544599968,340.03886470000725,340.03886470000725,None,340.53969419997884,None,f,1,0.86309399997117,340.53969419997884,None,None,None,341.4240378999966,None,,,,,,,,,,,,,,,,,,,,,11043,2,1,2024_Jun_02_1732,stroop_task_switching2,2021.2.3,60.03089188759345,
condition/block_mixed,instruction/instr_mixed,instruction/i10,黄,yellow,j,diamond,color_mix,颜色,,compatible,2,,,,,,,,0,2,2,2,0,0,0,0,0,30,30,30,,,,,,,,,,,,,,,,,,,,,,,,,,,,,,,,,,,342.4260078999796,342.6276150000049,342.6088408000069,342.9101813000161,342.9101813000161,None,343.41064899996854,None,j,1,0.9756576000363566,343.41064899996854,None,None,None,344.4115913999849,None,,,,,,,,,,,,,,,,,,,,,11043,2,1,2024_Jun_02_1732,stroop_task_switching2,2021.2.3,60.03089188759345,
condition/block_mixed,instruction/instr_mixed,instruction/i10,绿,green,k,square,color_mix,单词,,compatible,2,,,,,,,,0,2,2,2,0,0,0,0,0,31,31,31,,,,,,,,,,,,,,,,,,,,,,,,,,,,,,,,,,,345.4133719999809,345.6141412999714,345.59764599998016,345.89795999997295,345.89795999997295,None,346.3977546999813,None,k,1,1.1569217999931425,346.3977546999813,None,None,None,347.58395289996406,None,,,,,,,,,,,,,,,,,,,,,11043,2,1,2024_Jun_02_1732,stroop_task_switching2,2021.2.3,60.03089188759345,
condition/block_mixed,instruction/instr_mixed,instruction/i10,黄,yellow,j,square,color_mix,单词,,compatible,1,,,,,,,,0,2,2,2,0,0,0,0,0,32,32,32,,,,,,,,,,,,,,,,,,,,,,,,,,,,,,,,,,,348.58528100000694,348.78518219996477,348.7686456000083,349.06949709996115,349.06949709996115,None,349.569854100002,None,j,1,1.0252023999928497,349.569854100002,None,None,None,350.6217069000122,None,,,,,,,,,,,,,,,,,,,,,11043,2,1,2024_Jun_02_1732,stroop_task_switching2,2021.2.3,60.03089188759345,
condition/block_mixed,instruction/instr_mixed,instruction/i10,绿,green,k,diamond,color_mix,颜色,,compatible,2,,,,,,,,0,2,2,2,0,0,0,0,0,33,33,33,,,,,,,,,,,,,,,,,,,,,,,,,,,,,,,,,,,351.6232682999689,351.8236720999703,351.8068607999594,352.1072854999802,352.1072854999802,None,352.60710949997883,None,k,1,0.8757492000004277,352.60710949997883,None,None,None,353.5087053999887,None,,,,,,,,,,,,,,,,,,,,,11043,2,1,2024_Jun_02_1732,stroop_task_switching2,2021.2.3,60.03089188759345,
condition/block_mixed,instruction/instr_mixed,instruction/i10,红,red,d,square,color_mix,单词,,compatible,2,,,,,,,,0,2,2,2,0,0,0,0,0,34,34,34,,,,,,,,,,,,,,,,,,,,,,,,,,,,,,,,,,,354.5108832999831,354.71095599996625,354.6943028999958,354.9948618999915,354.9948618999915,None,355.4954689000151,None,d,1,0.5713905000011437,355.4954689000151,None,None,None,356.0963357000146,None,,,,,,,,,,,,,,,,,,,,,11043,2,1,2024_Jun_02_1732,stroop_task_switching2,2021.2.3,60.03089188759345,
condition/block_mixed,instruction/instr_mixed,instruction/i10,黄,yellow,j,square,color_mix,单词,,compatible,1,,,,,,,,0,2,2,2,0,0,0,0,0,35,35,35,,,,,,,,,,,,,,,,,,,,,,,,,,,,,,,,,,,357.098171599966,357.2984782999847,357.28182500001276,357.5822348999791,357.5822348999791,None,358.0825996999629,None,j,1,0.6965886999969371,358.0825996999629,None,None,None,358.80033459997503,None,,,,,,,,,,,,,,,,,,,,,11043,2,1,2024_Jun_02_1732,stroop_task_switching2,2021.2.3,60.03089188759345,
condition/block_mixed,instruction/instr_mixed,instruction/i10,绿,green,k,diamond,color_mix,颜色,,compatible,2,,,,,,,,0,2,2,2,0,0,0,0,0,36,36,36,,,,,,,,,,,,,,,,,,,,,,,,,,,,,,,,,,,359.80215599999065,360.00256359996274,359.9857827000087,360.28654309996637,360.28654309996637,None,360.7871684000129,None,k,1,0.6564221999724396,360.7871684000129,None,None,None,361.47117589996196,None,,,,,,,,,,,,,,,,,,,,,11043,2,1,2024_Jun_02_1732,stroop_task_switching2,2021.2.3,60.03089188759345,
condition/block_mixed,instruction/instr_mixed,instruction/i10,蓝,blue,f,square,color_mix,单词,,compatible,2,,,,,,,,0,2,2,2,0,0,0,0,0,37,37,37,,,,,,,,,,,,,,,,,,,,,,,,,,,,,,,,,,,362.4727633000002,362.67208359995857,362.6562673000153,362.95652969996445,362.95652969996445,None,363.45772299997043,None,f,1,0.6336223999969661,363.45772299997043,None,None,None,364.1077063999837,None,,,,,,,,,,,,,,,,,,,,,11043,2,1,2024_Jun_02_1732,stroop_task_switching2,2021.2.3,60.03089188759345,
condition/block_mixed,instruction/instr_mixed,instruction/i10,红,red,d,square,color_mix,单词,,compatible,1,,,,,,,,0,2,2,2,0,0,0,0,0,38,38,38,,,,,,,,,,,,,,,,,,,,,,,,,,,,,,,,,,,365.1099298999761,365.31046499998774,365.29393649997655,365.5944840000011,365.5944840000011,None,366.09496329998365,None,d,1,0.5881739999749698,366.09496329998365,None,None,None,366.7118723000167,None,,,,,,,,,,,,,,,,,,,,,11043,2,1,2024_Jun_02_1732,stroop_task_switching2,2021.2.3,60.03089188759345,
condition/block_mixed,instruction/instr_mixed,instruction/i10,黄,yellow,j,diamond,color_mix,颜色,,compatible,2,,,,,,,,0,2,2,2,0,0,0,0,0,39,39,39,,,,,,,,,,,,,,,,,,,,,,,,,,,,,,,,,,,367.71413749997737,367.9134490999859,367.8977811000077,368.19775029999437,368.19775029999437,None,368.69910249998793,None,j,1,0.960124499979429,368.69910249998793,None,None,None,369.68341399997007,None,,,,,,,,,,,,,,,,,,,,,11043,2,1,2024_Jun_02_1732,stroop_task_switching2,2021.2.3,60.03089188759345,
condition/block_mixed,instruction/instr_mixed,instruction/i10,黄,yellow,j,square,color_mix,单词,,compatible,2,,,,,,,,0,2,2,2,0,0,0,0,0,40,40,40,,,,,,,,,,,,,,,,,,,,,,,,,,,,,,,,,,,370.6845696999808,370.88558830000693,370.8689698000089,371.16907699999865,371.16907699999865,None,371.66914239997277,None,j,1,0.614474700007122,371.66914239997277,None,None,None,372.3040672999923,None,,,,,,,,,,,,,,,,,,,,,11043,2,1,2024_Jun_02_1732,stroop_task_switching2,2021.2.3,60.03089188759345,
condition/block_mixed,instruction/instr_mixed,instruction/i10,蓝,blue,f,square,color_mix,单词,,compatible,1,,,,,,,,0,2,2,2,0,0,0,0,0,41,41,41,,,,,,,,,,,,,,,,,,,,,,,,,,,,,,,,,,,373.3056510000024,373.5061509999796,373.4890834999969,373.78978890000144,373.78978890000144,None,374.2906791999703,None,f,1,1.0334751000045799,374.2906791999703,None,None,None,375.3411083999672,None,,,,,,,,,,,,,,,,,,,,,11043,2,1,2024_Jun_02_1732,stroop_task_switching2,2021.2.3,60.03089188759345,
condition/block_mixed,instruction/instr_mixed,instruction/i10,蓝,blue,f,diamond,color_mix,颜色,,compatible,2,,,,,,,,0,2,2,2,0,0,0,0,0,42,42,42,,,,,,,,,,,,,,,,,,,,,,,,,,,,,,,,,,,376.34363139997004,376.5441997000016,376.52722509996966,376.8278375999653,376.8278375999653,None,377.32888320001075,None,f,1,0.6748856999911368,377.32888320001075,None,None,None,378.02855809999164,None,,,,,,,,,,,,,,,,,,,,,11043,2,1,2024_Jun_02_1732,stroop_task_switching2,2021.2.3,60.03089188759345,
condition/block_mixed,instruction/instr_mixed,instruction/i10,黄,yellow,j,diamond,color_mix,颜色,,compatible,1,,,,,,,,0,2,2,2,0,0,0,0,0,43,43,43,,,,,,,,,,,,,,,,,,,,,,,,,,,,,,,,,,,379.030575199984,379.2316347999731,379.2148186999839,379.51591700001154,379.51591700001154,None,380.01601399999345,None,j,1,0.8836371999932453,380.01601399999345,None,None,None,380.9165118999663,None,,,,,,,,,,,,,,,,,,,,,11043,2,1,2024_Jun_02_1732,stroop_task_switching2,2021.2.3,60.03089188759345,
condition/block_mixed,instruction/instr_mixed,instruction/i10,红,red,d,diamond,color_mix,颜色,,compatible,1,,,,,,,,0,2,2,2,0,0,0,0,0,44,44,44,,,,,,,,,,,,,,,,,,,,,,,,,,,,,,,,,,,381.91916569997557,382.11911799997324,382.1022438000073,382.4031056999811,382.4031056999811,None,382.903673599998,None,d,1,0.6040802999632433,382.903673599998,None,None,None,383.536844199989,None,,,,,,,,,,,,,,,,,,,,,11043,2,1,2024_Jun_02_1732,stroop_task_switching2,2021.2.3,60.03089188759345,
condition/block_mixed,instruction/instr_mixed,instruction/i10,蓝,blue,f,diamond,color_mix,颜色,,compatible,1,,,,,,,,0,2,2,2,0,0,0,0,0,45,45,45,,,,,,,,,,,,,,,,,,,,,,,,,,,,,,,,,,,384.539452099998,384.7397430000128,384.72313629998825,385.0236919000163,385.0236919000163,None,385.5243172000046,None,f,1,1.055608700029552,385.5243172000046,None,None,None,386.60934590001125,None,,,,,,,,,,,,,,,,,,,,,11043,2,1,2024_Jun_02_1732,stroop_task_switching2,2021.2.3,60.03089188759345,
condition/block_mixed,instruction/instr_mixed,instruction/i10,红,red,d,diamond,color_mix,颜色,,compatible,1,,,,,,,,0,2,2,2,0,0,0,0,0,46,46,46,,,,,,,,,,,,,,,,,,,,,,,,,,,,,,,,,,,387.6107236999669,387.81091030000243,387.7943142000004,388.0948761999607,388.0948761999607,None,388.59559019998414,None,d,1,0.6009793999837711,388.59559019998414,None,None,None,389.212185100012,None,,,,,,,,,,,,,,,,,,,,,11043,2,1,2024_Jun_02_1732,stroop_task_switching2,2021.2.3,60.03089188759345,
condition/block_mixed,instruction/instr_mixed,instruction/i10,红,red,d,square,color_mix,单词,,compatible,2,,,,,,,,0,2,2,2,0,0,0,0,0,47,47,47,,,,,,,,,,,,,,,,,,,,,,,,,,,,,,,,,,,390.2147557999706,390.4143546000123,390.3982460999978,390.6985284999828,390.6985284999828,None,391.20104959997116,None,d,1,0.5397721999906935,391.20104959997116,None,None,None,391.766826600011,None,,,,,,,,,,,,,,,,,,,,,11043,2,1,2024_Jun_02_1732,stroop_task_switching2,2021.2.3,60.03089188759345,
condition/block_mixed,instruction/instr_mixed,instruction/i10,红,red,d,diamond,color_mix,颜色,,compatible,2,,,,,,,,0,2,2,2,0,0,0,0,0,48,48,48,,,,,,,,,,,,,,,,,,,,,,,,,,,,,,,,,,,392.76811720000114,392.9688221999677,392.9520988999866,393.2522624999983,393.2522624999983,None,393.75332349998644,None,d,1,0.4425580999813974,393.75332349998644,None,None,None,394.22048439999344,None,,,,,,,,,,,,,,,,,,,,,11043,2,1,2024_Jun_02_1732,stroop_task_switching2,2021.2.3,60.03089188759345,
condition/block_mixed,instruction/instr_mixed,instruction/i10,,,,,,,,,,,,,,,,,0,2,2,2,0,0,0,0,,,,,,,,,,,,,,,,,,,,,,,,,,,,,,,,,,,,,,,,,,,,,,,,,,,,,,,,395.23813670000527,None,space,21.278692599968053,395.23813670000527,None,,,,,,,,,,,,,,,11043,2,1,2024_Jun_02_1732,stroop_task_switching2,2021.2.3,60.03089188759345,
condition/block_mixed,instruction/instr_mixed,instruction/i10,,,,,,,,,,,,,,,,,0,2,2,2,,,,,,,,,,,,,,,,,,,,,,,,,,,,,,,,,,,,,,,,,,,,,,,,,,,,,,,,,,,,,,,,,,,,,,,,,,,,,,,,11043,2,1,2024_Jun_02_1732,stroop_task_switching2,2021.2.3,60.03089188759345,
,,,红,red,d,square,color_mix,单词,,compatible,0,block_switch1,instruction/ready_test.png,instruction/i11.png,,,,,,,,,,,,,,,,,0,0,0,0,0,0,0,0,,,,,,,,,,,,,,,,,,,421.7957049999968,422.79777989996364,422.79777989996364,423.7986891999608,423.7986891999608,None,420.81066129996907,421.8123061999795,424.83392860001186,425.0339624999906,425.01723960001254,425.31876309996005,425.31876309996005,None,425.81767459999537,None,d,1,0.659169600054156,425.81767459999537,None,None,None,,,,,,,,,416.57000040001003,None,space,4.21856690000277,416.57000040001003,None,,,,,,,,,11043,2,1,2024_Jun_02_1732,stroop_task_switching2,2021.2.3,60.03089188759345,
,,,绿,green,k,diamond,color_mix,颜色,,compatible,2,block_switch1,instruction/ready_test.png,instruction/i11.png,,,,,,,,,,,,,,,,,0,0,0,0,0,1,1,1,,,,,,,,,,,,,,,,,,,,,,,,,,,426.50173570000334,426.70201599999564,426.68535009998595,426.98664959997404,426.98664959997404,None,427.48767469997983,None,k,1,0.6293185999966227,427.48767469997983,None,None,None,,,,,,,,,,,,,,,,,,,,,,,11043,2,1,2024_Jun_02_1732,stroop_task_switching2,2021.2.3,60.03089188759345,
,,,绿,yellow,j,diamond,color_mix,颜色,,incompatible,1,block_switch1,instruction/ready_test.png,instruction/i11.png,,,,,,,,,,,,,,,,,0,0,0,0,0,2,2,2,,,,,,,,,,,,,,,,,,,,,,,,,,,428.1379478999879,428.33893699996406,428.3216710999841,428.62260740000056,428.62260740000056,None,429.12330779997865,None,f,0,0.705567000026349,429.12330779997865,None,None,None,,,,,,,,,,,,,,,,,,,,,,,11043,2,1,2024_Jun_02_1732,stroop_task_switching2,2021.2.3,60.03089188759345,
,,,蓝,blue,f,diamond,color_mix,颜色,,compatible,1,block_switch1,instruction/ready_test.png,instruction/i11.png,,,,,,,,,,,,,,,,,0,0,0,0,0,3,3,3,,,,,,,,,,,,,,,,,,,,,,,,,,,429.85681269998895,430.0580710999784,430.04112159996293,430.3418425999698,430.3418425999698,None,430.8426296999678,None,f,1,1.3387406999827363,430.8426296999678,None,None,None,,,,,,,,,,,,,,,,,,,,,,,11043,2,1,2024_Jun_02_1732,stroop_task_switching2,2021.2.3,60.03089188759345,
,,,绿,green,k,square,color_mix,单词,,compatible,2,block_switch1,instruction/ready_test.png,instruction/i11.png,,,,,,,,,,,,,,,,,0,0,0,0,0,4,4,4,,,,,,,,,,,,,,,,,,,,,,,,,,,432.2108007000061,432.4124236999778,432.39391559996875,432.6948171000113,432.6948171000113,None,433.19603629998164,None,k,1,0.5367680999916047,433.19603629998164,None,None,None,,,,,,,,,,,,,,,,,,,,,,,11043,2,1,2024_Jun_02_1732,stroop_task_switching2,2021.2.3,60.03089188759345,
,,,绿,blue,f,diamond,color_mix,颜色,,incompatible,2,block_switch1,instruction/ready_test.png,instruction/i11.png,,,,,,,,,,,,,,,,,0,0,0,0,0,5,5,5,,,,,,,,,,,,,,,,,,,,,,,,,,,433.7630965000135,433.9639376999694,433.9470857999986,434.24780119996285,434.24780119996285,None,434.7479527000105,None,k,0,2.353541199991014,434.7479527000105,None,None,None,,,,,,,,,,,,,,,,,,,,,,,11043,2,1,2024_Jun_02_1732,stroop_task_switching2,2021.2.3,60.03089188759345,
,,,黄,red,j,square,color_mix,单词,,incompatible,2,block_switch1,instruction/ready_test.png,instruction/i11.png,,,,,,,,,,,,,,,,,0,0,0,0,0,6,6,6,,,,,,,,,,,,,,,,,,,,,,,,,,,437.1176904999884,437.3191135000088,437.3024078999879,437.6028723999625,437.6028723999625,None,438.1025701999897,None,d,0,1.3266453000251204,438.1025701999897,None,None,None,,,,,,,,,,,,,,,,,,,,,,,11043,2,1,2024_Jun_02_1732,stroop_task_switching2,2021.2.3,60.03089188759345,
,,,绿,green,k,square,color_mix,单词,,compatible,1,block_switch1,instruction/ready_test.png,instruction/i11.png,,,,,,,,,,,,,,,,,0,0,0,0,0,7,7,7,,,,,,,,,,,,,,,,,,,,,,,,,,,439.4552214000141,439.655506399984,439.639090200013,439.93963360000635,439.93963360000635,None,440.4406075999723,None,k,1,0.956549399998039,440.4406075999723,None,None,None,,,,,,,,,,,,,,,,,,,,,,,11043,2,1,2024_Jun_02_1732,stroop_task_switching2,2021.2.3,60.03089188759345,
,,,蓝,blue,f,square,color_mix,单词,,compatible,1,block_switch1,instruction/ready_test.png,instruction/i11.png,,,,,,,,,,,,,,,,,0,0,0,0,0,8,8,8,,,,,,,,,,,,,,,,,,,,,,,,,,,441.42527349997545,441.6252126999898,441.60888590000104,441.90862080000807,441.90862080000807,None,442.4089831999736,None,f,1,0.8685646999510936,442.4089831999736,None,None,None,,,,,,,,,,,,,,,,,,,,,,,11043,2,1,2024_Jun_02_1732,stroop_task_switching2,2021.2.3,60.03089188759345,
,,,红,red,d,diamond,color_mix,颜色,,compatible,2,block_switch1,instruction/ready_test.png,instruction/i11.png,,,,,,,,,,,,,,,,,0,0,0,0,0,9,9,9,,,,,,,,,,,,,,,,,,,,,,,,,,,443.2941723999684,443.4950350999716,443.4784739000024,443.7784875999787,443.7784875999787,None,444.278513199999,None,d,1,0.5194729999639094,444.278513199999,None,None,None,,,,,,,,,,,,,,,,,,,,,,,11043,2,1,2024_Jun_02_1732,stroop_task_switching2,2021.2.3,60.03089188759345,
,,,黄,yellow,j,diamond,color_mix,颜色,,compatible,1,block_switch1,instruction/ready_test.png,instruction/i11.png,,,,,,,,,,,,,,,,,0,0,0,0,0,10,10,10,,,,,,,,,,,,,,,,,,,,,,,,,,,444.81265529996017,445.0140742000076,444.9973813999677,445.2977739999769,445.2977739999769,None,445.79874130000826,None,j,1,0.767004800029099,445.79874130000826,None,None,None,,,,,,,,,,,,,,,,,,,,,,,11043,2,1,2024_Jun_02_1732,stroop_task_switching2,2021.2.3,60.03089188759345,
,,,绿,green,k,square,color_mix,单词,,compatible,2,block_switch1,instruction/ready_test.png,instruction/i11.png,,,,,,,,,,,,,,,,,0,0,0,0,0,11,11,11,,,,,,,,,,,,,,,,,,,,,,,,,,,446.5820531999925,446.7831543000066,446.76664839999285,447.06613469996955,447.06613469996955,None,447.56672439997783,None,k,1,0.5829978999681771,447.56672439997783,None,None,None,,,,,,,,,,,,,,,,,,,,,,,11043,2,1,2024_Jun_02_1732,stroop_task_switching2,2021.2.3,60.03089188759345,
,,,红,red,d,diamond,color_mix,颜色,,compatible,2,block_switch1,instruction/ready_test.png,instruction/i11.png,,,,,,,,,,,,,,,,,0,0,0,0,0,12,12,12,,,,,,,,,,,,,,,,,,,,,,,,,,,448.1676417000126,448.36952880001627,448.3526385999867,448.65363959997194,448.65363959997194,None,449.15372830000706,None,d,1,0.539531700022053,449.15372830000706,None,None,None,,,,,,,,,,,,,,,,,,,,,,,11043,2,1,2024_Jun_02_1732,stroop_task_switching2,2021.2.3,60.03089188759345,
,,,红,red,d,diamond,color_mix,颜色,,compatible,1,block_switch1,instruction/ready_test.png,instruction/i11.png,,,,,,,,,,,,,,,,,0,0,0,0,0,13,13,13,,,,,,,,,,,,,,,,,,,,,,,,,,,449.7211362000089,449.9213640000089,449.90469409996876,450.2050850999658,450.2050850999658,None,450.7059697000077,None,d,1,0.4517141000251286,450.7059697000077,None,None,None,,,,,,,,,,,,,,,,,,,,,,,11043,2,1,2024_Jun_02_1732,stroop_task_switching2,2021.2.3,60.03089188759345,
,,,黄,yellow,j,square,color_mix,单词,,compatible,2,block_switch1,instruction/ready_test.png,instruction/i11.png,,,,,,,,,,,,,,,,,0,0,0,0,0,14,14,14,,,,,,,,,,,,,,,,,,,,,,,,,,,451.1899984999909,451.3902542999713,451.3570102999802,451.6572448000079,451.6572448000079,None,452.15841309999814,None,j,1,0.5834774000104517,452.15841309999814,None,None,None,,,,,,,,,,,,,,,,,,,,,,,11043,2,1,2024_Jun_02_1732,stroop_task_switching2,2021.2.3,60.03089188759345,
,,,红,green,k,diamond,color_mix,颜色,,incompatible,2,block_switch1,instruction/ready_test.png,instruction/i11.png,,,,,,,,,,,,,,,,,0,0,0,0,0,15,15,15,,,,,,,,,,,,,,,,,,,,,,,,,,,452.75852540001506,452.95925229997374,452.94281689997297,453.2431379999616,453.2431379999616,None,453.7439359999844,None,k,1,0.7015610000235029,453.7439359999844,None,None,None,,,,,,,,,,,,,,,,,,,,,,,11043,2,1,2024_Jun_02_1732,stroop_task_switching2,2021.2.3,60.03089188759345,
,,,蓝,red,d,diamond,color_mix,颜色,,incompatible,1,block_switch1,instruction/ready_test.png,instruction/i11.png,,,,,,,,,,,,,,,,,0,0,0,0,0,16,16,16,,,,,,,,,,,,,,,,,,,,,,,,,,,454.4612890999997,454.6618682999979,454.6448287999956,454.9458130999701,454.9458130999701,None,455.4464045999921,None,d,1,0.783596099994611,455.4464045999921,None,None,None,,,,,,,,,,,,,,,,,,,,,,,11043,2,1,2024_Jun_02_1732,stroop_task_switching2,2021.2.3,60.03089188759345,
,,,黄,green,k,diamond,color_mix,颜色,,incompatible,1,block_switch1,instruction/ready_test.png,instruction/i11.png,,,,,,,,,,,,,,,,,0,0,0,0,0,17,17,17,,,,,,,,,,,,,,,,,,,,,,,,,,,456.24787439999636,456.44887729996117,456.430320399988,456.7317357999855,456.7317357999855,None,457.23234649997903,None,k,1,0.7336961000110023,457.23234649997903,None,None,None,,,,,,,,,,,,,,,,,,,,,,,11043,2,1,2024_Jun_02_1732,stroop_task_switching2,2021.2.3,60.03089188759345,
,,,绿,green,k,diamond,color_mix,颜色,,compatible,1,block_switch1,instruction/ready_test.png,instruction/i11.png,,,,,,,,,,,,,,,,,0,0,0,0,0,18,18,18,,,,,,,,,,,,,,,,,,,,,,,,,,,457.9834355000057,458.18387359997723,458.16718960000435,458.46665550000034,458.46665550000034,None,458.96835320000537,None,k,1,0.5252767999772914,458.96835320000537,None,None,None,,,,,,,,,,,,,,,,,,,,,,,11043,2,1,2024_Jun_02_1732,stroop_task_switching2,2021.2.3,60.03089188759345,
,,,黄,red,d,diamond,color_mix,颜色,,incompatible,1,block_switch1,instruction/ready_test.png,instruction/i11.png,,,,,,,,,,,,,,,,,0,0,0,0,0,19,19,19,,,,,,,,,,,,,,,,,,,,,,,,,,,459.5182134999777,459.71920290001435,459.70410129998345,460.0201177999843,460.00221949996194,None,460.5039913000073,None,d,1,0.8457376000005752,460.5039913000073,None,None,None,,,,,,,,,,,,,,,,,,,,,,,11043,2,1,2024_Jun_02_1732,stroop_task_switching2,2021.2.3,60.03089188759345,
,,,绿,yellow,k,square,color_mix,单词,,incompatible,2,block_switch1,instruction/ready_test.png,instruction/i11.png,,,,,,,,,,,,,,,,,0,0,0,0,0,20,20,20,,,,,,,,,,,,,,,,,,,,,,,,,,,461.37169539998285,461.5720016999985,461.5558605999686,461.8561470999848,461.8561470999848,None,462.3565932000056,None,k,1,0.5931226999964565,462.3565932000056,None,None,None,,,,,,,,,,,,,,,,,,,,,,,11043,2,1,2024_Jun_02_1732,stroop_task_switching2,2021.2.3,60.03089188759345,
,,,绿,yellow,j,diamond,color_mix,颜色,,incompatible,2,block_switch1,instruction/ready_test.png,instruction/i11.png,,,,,,,,,,,,,,,,,0,0,0,0,0,21,21,21,,,,,,,,,,,,,,,,,,,,,,,,,,,462.97330599999987,463.17503159999615,463.1569953999715,463.45757779997075,463.45757779997075,None,463.9591467999853,None,f,0,0.654917000036221,463.9591467999853,None,None,None,,,,,,,,,,,,,,,,,,,,,,,11043,2,1,2024_Jun_02_1732,stroop_task_switching2,2021.2.3,60.03089188759345,
,,,绿,green,k,square,color_mix,单词,,compatible,2,block_switch1,instruction/ready_test.png,instruction/i11.png,,,,,,,,,,,,,,,,,0,0,0,0,0,22,22,22,,,,,,,,,,,,,,,,,,,,,,,,,,,464.6430027000024,464.84395869995933,464.82725709996885,465.1277196999872,465.1277196999872,None,465.62832399999024,None,k,1,0.6421574000269175,465.62832399999024,None,None,None,,,,,,,,,,,,,,,,,,,,,,,11043,2,1,2024_Jun_02_1732,stroop_task_switching2,2021.2.3,60.03089188759345,
,,,红,red,d,square,color_mix,单词,,compatible,1,block_switch1,instruction/ready_test.png,instruction/i11.png,,,,,,,,,,,,,,,,,0,0,0,0,0,23,23,23,,,,,,,,,,,,,,,,,,,,,,,,,,,466.2960649000015,466.4964641999686,466.4798065999639,466.77929340000264,466.77929340000264,None,467.2809361999971,None,d,1,0.5177484999876469,467.2809361999971,None,None,None,,,,,,,,,,,,,,,,,,,,,,,11043,2,1,2024_Jun_02_1732,stroop_task_switching2,2021.2.3,60.03089188759345,
,,,黄,green,j,square,color_mix,单词,,incompatible,1,block_switch1,instruction/ready_test.png,instruction/i11.png,,,,,,,,,,,,,,,,,0,0,0,0,0,24,24,24,,,,,,,,,,,,,,,,,,,,,,,,,,,467.81539629999315,468.01497680001194,467.9980829000124,468.2992166999611,468.2992166999611,None,468.79987689998234,None,k,0,0.837958499963861,468.79987689998234,None,None,None,,,,,,,,,,,,,,,,,,,,,,,11043,2,1,2024_Jun_02_1732,stroop_task_switching2,2021.2.3,60.03089188759345,
,,,红,blue,d,square,color_mix,单词,,incompatible,1,block_switch1,instruction/ready_test.png,instruction/i11.png,,,,,,,,,,,,,,,,,0,0,0,0,0,25,25,25,,,,,,,,,,,,,,,,,,,,,,,,,,,469.66778570000315,469.86817979998887,469.8514051999664,470.15226880001137,470.15226880001137,None,470.65288439998403,None,f,0,1.7533646000083536,470.65288439998403,None,None,None,,,,,,,,,,,,,,,,,,,,,,,11043,2,1,2024_Jun_02_1732,stroop_task_switching2,2021.2.3,60.03089188759345,
,,,黄,yellow,j,square,color_mix,单词,,compatible,1,block_switch1,instruction/ready_test.png,instruction/i11.png,,,,,,,,,,,,,,,,,0,0,0,0,0,26,26,26,,,,,,,,,,,,,,,,,,,,,,,,,,,472.42127950000577,472.6217037999886,472.60563140001614,472.90598979999777,472.90598979999777,None,473.40680609998526,None,j,1,0.7354217999964021,473.40680609998526,None,None,None,,,,,,,,,,,,,,,,,,,,,,,11043,2,1,2024_Jun_02_1732,stroop_task_switching2,2021.2.3,60.03089188759345,
,,,蓝,green,f,square,color_mix,单词,,incompatible,1,block_switch1,instruction/ready_test.png,instruction/i11.png,,,,,,,,,,,,,,,,,0,0,0,0,0,27,27,27,,,,,,,,,,,,,,,,,,,,,,,,,,,474.1569363999879,474.3583590000053,474.3415650000097,474.64183490001597,474.64183490001597,None,475.14234849996865,None,f,1,1.2161383000202477,475.14234849996865,None,None,None,,,,,,,,,,,,,,,,,,,,,,,11043,2,1,2024_Jun_02_1732,stroop_task_switching2,2021.2.3,60.03089188759345,
,,,绿,green,k,diamond,color_mix,颜色,,compatible,2,block_switch1,instruction/ready_test.png,instruction/i11.png,,,,,,,,,,,,,,,,,0,0,0,0,0,28,28,28,,,,,,,,,,,,,,,,,,,,,,,,,,,476.37724950001575,476.57828109996626,476.56154779996723,476.86215719999745,476.86215719999745,None,477.36284949997207,None,k,1,0.6192297000088729,477.36284949997207,None,None,None,,,,,,,,,,,,,,,,,,,,,,,11043,2,1,2024_Jun_02_1732,stroop_task_switching2,2021.2.3,60.03089188759345,
,,,黄,blue,f,diamond,color_mix,颜色,,incompatible,1,block_switch1,instruction/ready_test.png,instruction/i11.png,,,,,,,,,,,,,,,,,0,0,0,0,0,29,29,29,,,,,,,,,,,,,,,,,,,,,,,,,,,478.0135001000017,478.2143761999905,478.19744610000635,478.4978592999978,478.4978592999978,None,478.9985544999945,None,f,1,0.8396840000059456,478.9985544999945,None,None,None,,,,,,,,,,,,,,,,,,,,,,,11043,2,1,2024_Jun_02_1732,stroop_task_switching2,2021.2.3,60.03089188759345,
,,,绿,green,k,diamond,color_mix,颜色,,compatible,1,block_switch1,instruction/ready_test.png,instruction/i11.png,,,,,,,,,,,,,,,,,0,0,0,0,0,30,30,30,,,,,,,,,,,,,,,,,,,,,,,,,,,479.86638059996767,480.0666224999586,480.0503343999735,480.350639799959,480.350639799959,None,480.85139129997697,None,k,1,0.6673059000167996,480.85139129997697,None,None,None,,,,,,,,,,,,,,,,,,,,,,,11043,2,1,2024_Jun_02_1732,stroop_task_switching2,2021.2.3,60.03089188759345,
,,,蓝,blue,f,square,color_mix,单词,,compatible,2,block_switch1,instruction/ready_test.png,instruction/i11.png,,,,,,,,,,,,,,,,,0,0,0,0,0,31,31,31,,,,,,,,,,,,,,,,,,,,,,,,,,,481.5347399999737,481.7362370999763,481.7189928999869,482.0198326999671,482.0198326999671,None,482.51963309996063,None,f,1,0.7990474000107497,482.51963309996063,None,None,None,,,,,,,,,,,,,,,,,,,,,,,11043,2,1,2024_Jun_02_1732,stroop_task_switching2,2021.2.3,60.03089188759345,
,,,红,red,d,square,color_mix,单词,,compatible,1,block_switch1,instruction/ready_test.png,instruction/i11.png,,,,,,,,,,,,,,,,,0,0,0,0,0,32,32,32,,,,,,,,,,,,,,,,,,,,,,,,,,,483.3374318999704,483.5388686999795,483.5221743999864,483.8225941999699,483.8225941999699,None,484.3223739999812,None,d,1,0.7638562000356615,484.3223739999812,None,None,None,,,,,,,,,,,,,,,,,,,,,,,11043,2,1,2024_Jun_02_1732,stroop_task_switching2,2021.2.3,60.03089188759345,
,,,红,green,d,square,color_mix,单词,,incompatible,1,block_switch1,instruction/ready_test.png,instruction/i11.png,,,,,,,,,,,,,,,,,0,0,0,0,0,33,33,33,,,,,,,,,,,,,,,,,,,,,,,,,,,485.1068782999646,485.3071103999973,485.29207079997286,485.5920498999767,485.5920498999767,None,486.092664900003,None,k,0,0.8099275999702513,486.092664900003,None,None,None,,,,,,,,,,,,,,,,,,,,,,,11043,2,1,2024_Jun_02_1732,stroop_task_switching2,2021.2.3,60.03089188759345,
,,,黄,yellow,j,diamond,color_mix,颜色,,compatible,2,block_switch1,instruction/ready_test.png,instruction/i11.png,,,,,,,,,,,,,,,,,0,0,0,0,0,34,34,34,,,,,,,,,,,,,,,,,,,,,,,,,,,486.92701569997007,487.12706839997554,487.1106153000146,487.41143629996805,487.41143629996805,None,487.91208440001355,None,j,1,1.5510355000151321,487.91208440001355,None,None,None,,,,,,,,,,,,,,,,,,,,,,,11043,2,1,2024_Jun_02_1732,stroop_task_switching2,2021.2.3,60.03089188759345,
,,,红,green,k,diamond,color_mix,颜色,,incompatible,1,block_switch1,instruction/ready_test.png,instruction/i11.png,,,,,,,,,,,,,,,,,0,0,0,0,0,35,35,35,,,,,,,,,,,,,,,,,,,,,,,,,,,489.480696899991,489.68094499997096,489.66465719998814,489.96523560001515,489.96523560001515,None,490.46607819997007,None,k,1,1.0123316000099294,490.46607819997007,None,None,None,,,,,,,,,,,,,,,,,,,,,,,11043,2,1,2024_Jun_02_1732,stroop_task_switching2,2021.2.3,60.03089188759345,
,,,黄,yellow,j,square,color_mix,单词,,compatible,2,block_switch1,instruction/ready_test.png,instruction/i11.png,,,,,,,,,,,,,,,,,0,0,0,0,0,36,36,36,,,,,,,,,,,,,,,,,,,,,,,,,,,491.4998442999786,491.702337499999,491.6834474999923,491.98484109999845,491.98484109999845,None,492.48529260000214,None,j,1,1.0334371999488212,492.48529260000214,None,None,None,,,,,,,,,,,,,,,,,,,,,,,11043,2,1,2024_Jun_02_1732,stroop_task_switching2,2021.2.3,60.03089188759345,
,,,蓝,blue,f,square,color_mix,单词,,compatible,1,block_switch1,instruction/ready_test.png,instruction/i11.png,,,,,,,,,,,,,,,,,0,0,0,0,0,37,37,37,,,,,,,,,,,,,,,,,,,,,,,,,,,493.5368827999919,493.7374069999787,493.72060910001164,494.0209810999804,494.0209810999804,None,494.5220287999837,None,f,1,0.5726639999775216,494.5220287999837,None,None,None,,,,,,,,,,,,,,,,,,,,,,,11043,2,1,2024_Jun_02_1732,stroop_task_switching2,2021.2.3,60.03089188759345,
,,,绿,red,d,diamond,color_mix,颜色,,incompatible,2,block_switch1,instruction/ready_test.png,instruction/i11.png,,,,,,,,,,,,,,,,,0,0,0,0,0,38,38,38,,,,,,,,,,,,,,,,,,,,,,,,,,,495.12221289996523,495.3221710000071,495.3067238999647,495.6068241999601,495.6068241999601,None,496.1077557000099,None,d,1,0.6590706999995746,496.1077557000099,None,None,None,,,,,,,,,,,,,,,,,,,,,,,11043,2,1,2024_Jun_02_1732,stroop_task_switching2,2021.2.3,60.03089188759345,
,,,黄,yellow,j,diamond,color_mix,颜色,,compatible,1,block_switch1,instruction/ready_test.png,instruction/i11.png,,,,,,,,,,,,,,,,,0,0,0,0,0,39,39,39,,,,,,,,,,,,,,,,,,,,,,,,,,,496.791717999964,496.991591900005,496.9756027999683,497.2761840999592,497.2761840999592,None,497.7768764999928,None,j,1,1.2141971999662928,497.7768764999928,None,None,None,,,,,,,,,,,,,,,,,,,,,,,11043,2,1,2024_Jun_02_1732,stroop_task_switching2,2021.2.3,60.03089188759345,
,,,红,blue,f,diamond,color_mix,颜色,,incompatible,1,block_switch1,instruction/ready_test.png,instruction/i11.png,,,,,,,,,,,,,,,,,0,0,0,0,0,40,40,40,,,,,,,,,,,,,,,,,,,,,,,,,,,499.01165339996805,499.211985300004,499.1957669999683,499.496009399998,499.496009399998,None,499.9969126000069,None,f,1,1.042657700018026,499.9969126000069,None,None,None,,,,,,,,,,,,,,,,,,,,,,,11043,2,1,2024_Jun_02_1732,stroop_task_switching2,2021.2.3,60.03089188759345,
,,,绿,blue,k,square,color_mix,单词,,incompatible,2,block_switch1,instruction/ready_test.png,instruction/i11.png,,,,,,,,,,,,,,,,,0,0,0,0,0,41,41,41,,,,,,,,,,,,,,,,,,,,,,,,,,,501.06433069997,501.26552159996936,501.248612699972,501.5494466999662,501.5494466999662,None,502.0489656999707,None,k,1,0.5899338999879546,502.0489656999707,None,None,None,,,,,,,,,,,,,,,,,,,,,,,11043,2,1,2024_Jun_02_1732,stroop_task_switching2,2021.2.3,60.03089188759345,
,,,蓝,blue,f,diamond,color_mix,颜色,,compatible,2,block_switch1,instruction/ready_test.png,instruction/i11.png,,,,,,,,,,,,,,,,,0,0,0,0,0,42,42,42,,,,,,,,,,,,,,,,,,,,,,,,,,,502.6665711000096,502.86830119998194,502.85065889998805,503.15159149997635,503.15159149997635,None,503.65218169998843,None,f,1,1.1389189999899827,503.65218169998843,None,None,None,,,,,,,,,,,,,,,,,,,,,,,11043,2,1,2024_Jun_02_1732,stroop_task_switching2,2021.2.3,60.03089188759345,
,,,红,blue,d,square,color_mix,单词,,incompatible,2,block_switch1,instruction/ready_test.png,instruction/i11.png,,,,,,,,,,,,,,,,,0,0,0,0,0,43,43,43,,,,,,,,,,,,,,,,,,,,,,,,,,,504.8216759999632,505.0381511999876,505.0038877999759,505.30472750001354,505.30472750001354,None,505.805641199986,None,d,1,0.9857410999829881,505.805641199986,None,None,None,,,,,,,,,,,,,,,,,,,,,,,11043,2,1,2024_Jun_02_1732,stroop_task_switching2,2021.2.3,60.03089188759345,
,,,蓝,green,k,diamond,color_mix,颜色,,incompatible,2,block_switch1,instruction/ready_test.png,instruction/i11.png,,,,,,,,,,,,,,,,,0,0,0,0,0,44,44,44,,,,,,,,,,,,,,,,,,,,,,,,,,,506.8073826999753,507.00786620000144,506.99082469998393,507.29125889996067,507.29125889996067,None,507.79232030001003,None,k,1,1.1673870999948122,507.79232030001003,None,None,None,,,,,,,,,,,,,,,,,,,,,,,11043,2,1,2024_Jun_02_1732,stroop_task_switching2,2021.2.3,60.03089188759345,
,,,黄,yellow,j,square,color_mix,单词,,compatible,2,block_switch1,instruction/ready_test.png,instruction/i11.png,,,,,,,,,,,,,,,,,0,0,0,0,0,45,45,45,,,,,,,,,,,,,,,,,,,,,,,,,,,508.9761554999859,509.17743769998197,509.16052480001235,509.46118320000824,509.46118320000824,None,509.96183960000053,None,j,1,1.5894051999785006,509.96183960000053,None,None,None,,,,,,,,,,,,,,,,,,,,,,,11043,2,1,2024_Jun_02_1732,stroop_task_switching2,2021.2.3,60.03089188759345,
,,,黄,yellow,j,diamond,color_mix,颜色,,compatible,2,block_switch1,instruction/ready_test.png,instruction/i11.png,,,,,,,,,,,,,,,,,0,0,0,0,0,46,46,46,,,,,,,,,,,,,,,,,,,,,,,,,,,511.579603799968,511.7808338999748,511.7642410999979,512.0651351999841,512.0651351999841,None,512.5656475999858,None,j,1,0.9694089000113308,512.5656475999858,None,None,None,,,,,,,,,,,,,,,,,,,,,,,11043,2,1,2024_Jun_02_1732,stroop_task_switching2,2021.2.3,60.03089188759345,
,,,绿,red,k,square,color_mix,单词,,incompatible,2,block_switch1,instruction/ready_test.png,instruction/i11.png,,,,,,,,,,,,,,,,,0,0,0,0,0,47,47,47,,,,,,,,,,,,,,,,,,,,,,,,,,,513.5678830000106,513.7677822000114,513.7342328999657,514.0347970000003,514.0347970000003,None,514.5351778999902,None,k,1,1.175924599985592,514.5351778999902,None,None,None,,,,,,,,,,,,,,,,,,,,,,,11043,2,1,2024_Jun_02_1732,stroop_task_switching2,2021.2.3,60.03089188759345,
,,,红,red,d,diamond,color_mix,颜色,,compatible,2,block_switch1,instruction/ready_test.png,instruction/i11.png,,,,,,,,,,,,,,,,,0,0,0,0,0,48,48,48,,,,,,,,,,,,,,,,,,,,,,,,,,,515.7372514000162,515.9374214999843,515.9209243999794,516.2212885000044,516.2212885000044,None,516.7218855000101,None,d,1,0.6694871999789029,516.7218855000101,None,None,None,,,,,,,,,,,,,,,,,,,,,,,11043,2,1,2024_Jun_02_1732,stroop_task_switching2,2021.2.3,60.03089188759345,
,,,蓝,blue,f,diamond,color_mix,颜色,,compatible,1,block_switch1,instruction/ready_test.png,instruction/i11.png,,,,,,,,,,,,,,,,,0,0,0,0,0,49,49,49,,,,,,,,,,,,,,,,,,,,,,,,,,,517.4061031999881,517.6058535999618,517.5896489999723,517.8901574999909,517.8901574999909,None,518.3907313999953,None,f,1,0.8251674000057392,518.3907313999953,None,None,None,,,,,,,,,,,,,,,,,,,,,,,11043,2,1,2024_Jun_02_1732,stroop_task_switching2,2021.2.3,60.03089188759345,
,,,黄,yellow,j,diamond,color_mix,颜色,,compatible,1,block_switch1,instruction/ready_test.png,instruction/i11.png,,,,,,,,,,,,,,,,,0,0,0,0,0,50,50,50,,,,,,,,,,,,,,,,,,,,,,,,,,,519.2415154000046,519.4430035999976,519.4263310999959,519.7264838999836,519.7264838999836,None,520.2277736999677,None,j,1,0.6115362999844365,520.2277736999677,None,None,None,,,,,,,,,,,,,,,,,,,,,,,11043,2,1,2024_Jun_02_1732,stroop_task_switching2,2021.2.3,60.03089188759345,
,,,红,blue,f,diamond,color_mix,颜色,,incompatible,1,block_switch1,instruction/ready_test.png,instruction/i11.png,,,,,,,,,,,,,,,,,0,0,0,0,0,51,51,51,,,,,,,,,,,,,,,,,,,,,,,,,,,520.8608009999734,521.0617988000158,521.0453546000062,521.3458061999991,521.3458061999991,None,521.8466652999632,None,f,1,1.008652799995616,521.8466652999632,None,None,None,,,,,,,,,,,,,,,,,,,,,,,11043,2,1,2024_Jun_02_1732,stroop_task_switching2,2021.2.3,60.03089188759345,
,,,蓝,yellow,j,diamond,color_mix,颜色,,incompatible,1,block_switch1,instruction/ready_test.png,instruction/i11.png,,,,,,,,,,,,,,,,,0,0,0,0,0,52,52,52,,,,,,,,,,,,,,,,,,,,,,,,,,,522.8816504999995,523.0817907999735,523.0648527999874,523.365562699968,523.365562699968,None,523.8658427000046,None,j,1,0.6535516000003554,523.8658427000046,None,None,None,,,,,,,,,,,,,,,,,,,,,,,11043,2,1,2024_Jun_02_1732,stroop_task_switching2,2021.2.3,60.03089188759345,
,,,黄,blue,j,square,color_mix,单词,,incompatible,2,block_switch1,instruction/ready_test.png,instruction/i11.png,,,,,,,,,,,,,,,,,0,0,0,0,0,53,53,53,,,,,,,,,,,,,,,,,,,,,,,,,,,524.5504663999891,524.7509636000032,524.7340519999852,525.0344464000082,525.0344464000082,None,525.5356852000114,None,f,0,0.6961049999808893,525.5356852000114,None,None,None,,,,,,,,,,,,,,,,,,,,,,,11043,2,1,2024_Jun_02_1732,stroop_task_switching2,2021.2.3,60.03089188759345,
,,,蓝,blue,f,diamond,color_mix,颜色,,compatible,2,block_switch1,instruction/ready_test.png,instruction/i11.png,,,,,,,,,,,,,,,,,0,0,0,0,0,54,54,54,,,,,,,,,,,,,,,,,,,,,,,,,,,526.252055399993,526.4536266999785,526.4368543999735,526.7369692999637,526.7369692999637,None,527.2380270999856,None,f,1,0.6581695000058971,527.2380270999856,None,None,None,,,,,,,,,,,,,,,,,,,,,,,11043,2,1,2024_Jun_02_1732,stroop_task_switching2,2021.2.3,60.03089188759345,
,,,红,yellow,d,square,color_mix,单词,,incompatible,2,block_switch1,instruction/ready_test.png,instruction/i11.png,,,,,,,,,,,,,,,,,0,0,0,0,0,55,55,55,,,,,,,,,,,,,,,,,,,,,,,,,,,527.9225661999662,528.1226528999978,528.1055022999644,528.4064614999807,528.4064614999807,None,528.9070779999602,None,d,1,1.701382300001569,528.9070779999602,None,None,None,,,,,,,,,,,,,,,,,,,,,,,11043,2,1,2024_Jun_02_1732,stroop_task_switching2,2021.2.3,60.03089188759345,
,,,蓝,red,f,square,color_mix,单词,,incompatible,1,block_switch1,instruction/ready_test.png,instruction/i11.png,,,,,,,,,,,,,,,,,0,0,0,0,0,56,56,56,,,,,,,,,,,,,,,,,,,,,,,,,,,530.6266944999807,530.8263746000011,530.809904499969,531.1103747999878,531.1103747999878,None,531.6117239000159,None,d,0,0.7323156999773346,531.6117239000159,None,None,None,,,,,,,,,,,,,,,,,,,,,,,11043,2,1,2024_Jun_02_1732,stroop_task_switching2,2021.2.3,60.03089188759345,
,,,蓝,blue,f,square,color_mix,单词,,compatible,1,block_switch1,instruction/ready_test.png,instruction/i11.png,,,,,,,,,,,,,,,,,0,0,0,0,0,57,57,57,,,,,,,,,,,,,,,,,,,,,,,,,,,532.3621918999706,532.5626947999699,532.5457861999748,532.8463032,532.8463032,None,533.347222500015,None,k,0,1.372533499961719,533.347222500015,None,None,None,,,,,,,,,,,,,,,,,,,,,,,11043,2,1,2024_Jun_02_1732,stroop_task_switching2,2021.2.3,60.03089188759345,
,,,蓝,red,d,diamond,color_mix,颜色,,incompatible,2,block_switch1,instruction/ready_test.png,instruction/i11.png,,,,,,,,,,,,,,,,,0,0,0,0,0,58,58,58,,,,,,,,,,,,,,,,,,,,,,,,,,,534.7486430999706,534.948707500007,534.9320520999609,535.2334540999727,535.2334540999727,None,535.7339676999836,538.7388657999691,None,0,,535.7339676999836,538.7388657999691,538.7042498000083,None,,,,,,,,,,,,,,,,,,,,,,,11043,2,1,2024_Jun_02_1732,stroop_task_switching2,2021.2.3,60.03089188759345,
,,,绿,green,k,diamond,color_mix,颜色,,compatible,1,block_switch1,instruction/ready_test.png,instruction/i11.png,,,,,,,,,,,,,,,,,0,0,0,0,0,59,59,59,,,,,,,,,,,,,,,,,,,,,,,,,,,539.356190499966,539.5565614000079,539.539570599969,539.8402232999797,539.8402232999797,None,540.3409701999626,None,k,1,0.7147888999897987,540.3409701999626,None,None,None,,,,,,,,,,,,,,,,,,,,,,,11043,2,1,2024_Jun_02_1732,stroop_task_switching2,2021.2.3,60.03089188759345,
,,,蓝,blue,f,diamond,color_mix,颜色,,compatible,1,block_switch1,instruction/ready_test.png,instruction/i11.png,,,,,,,,,,,,,,,,,0,0,0,0,0,60,60,60,,,,,,,,,,,,,,,,,,,,,,,,,,,541.0754457999719,541.2759581999853,541.2592133000144,541.5592629999737,541.5592629999737,None,542.0599979999824,None,f,1,1.0361973000108264,542.0599979999824,None,None,None,,,,,,,,,,,,,,,,,,,,,,,11043,2,1,2024_Jun_02_1732,stroop_task_switching2,2021.2.3,60.03089188759345,
,,,黄,yellow,j,square,color_mix,单词,,compatible,2,block_switch1,instruction/ready_test.png,instruction/i11.png,,,,,,,,,,,,,,,,,0,0,0,0,0,61,61,61,,,,,,,,,,,,,,,,,,,,,,,,,,,543.1106942999759,543.312410100014,543.2952638000133,543.5959546999657,543.5959546999657,None,544.0967552000075,None,j,1,0.8157757000299171,544.0967552000075,None,None,None,,,,,,,,,,,,,,,,,,,,,,,11043,2,1,2024_Jun_02_1732,stroop_task_switching2,2021.2.3,60.03089188759345,
,,,绿,blue,k,square,color_mix,单词,,incompatible,1,block_switch1,instruction/ready_test.png,instruction/i11.png,,,,,,,,,,,,,,,,,0,0,0,0,0,62,62,62,,,,,,,,,,,,,,,,,,,,,,,,,,,544.9310990999802,545.1321846999926,545.1150686999899,545.4150443999679,545.4150443999679,None,545.9159498999943,None,k,1,2.716512499959208,545.9159498999943,None,None,None,,,,,,,,,,,,,,,,,,,,,,,11043,2,1,2024_Jun_02_1732,stroop_task_switching2,2021.2.3,60.03089188759345,
,,,蓝,yellow,f,square,color_mix,单词,,incompatible,1,block_switch1,instruction/ready_test.png,instruction/i11.png,,,,,,,,,,,,,,,,,0,0,0,0,0,63,63,63,,,,,,,,,,,,,,,,,,,,,,,,,,,548.6530822999775,548.8539666999714,548.8372230000095,549.1370724000153,549.1370724000153,None,549.6383619999979,None,f,1,0.9936478000017814,549.6383619999979,None,None,None,,,,,,,,,,,,,,,,,,,,,,,11043,2,1,2024_Jun_02_1732,stroop_task_switching2,2021.2.3,60.03089188759345,
,,,黄,yellow,j,diamond,color_mix,颜色,,compatible,2,block_switch1,instruction/ready_test.png,instruction/i11.png,,,,,,,,,,,,,,,,,0,0,0,0,0,64,64,64,,,,,,,,,,,,,,,,,,,,,,,,,,,550.6738461999921,550.8738496999722,550.8403394999914,551.1407329000067,551.1407329000067,None,551.6404462999781,None,j,1,0.6397395000094548,551.6404462999781,None,None,None,,,,,,,,,,,,,,,,,,,,,,,11043,2,1,2024_Jun_02_1732,stroop_task_switching2,2021.2.3,60.03089188759345,
,,,蓝,green,k,diamond,color_mix,颜色,,incompatible,1,block_switch1,instruction/ready_test.png,instruction/i11.png,,,,,,,,,,,,,,,,,0,0,0,0,0,65,65,65,,,,,,,,,,,,,,,,,,,,,,,,,,,552.3086393999984,552.5093743999605,552.4926334999618,552.7931945999735,552.7931945999735,None,553.2938062999747,None,k,1,1.770440500054974,553.2938062999747,None,None,None,,,,,,,,,,,,,,,,,,,,,,,11043,2,1,2024_Jun_02_1732,stroop_task_switching2,2021.2.3,60.03089188759345,
,,,红,red,d,diamond,color_mix,颜色,,compatible,1,block_switch1,instruction/ready_test.png,instruction/i11.png,,,,,,,,,,,,,,,,,0,0,0,0,0,66,66,66,,,,,,,,,,,,,,,,,,,,,,,,,,,555.079286799999,555.2803196999594,555.2629796999972,555.5639730999828,555.5639730999828,None,556.064870000002,None,d,1,0.6396434999769554,556.064870000002,None,None,None,,,,,,,,,,,,,,,,,,,,,,,11043,2,1,2024_Jun_02_1732,stroop_task_switching2,2021.2.3,60.03089188759345,
,,,蓝,yellow,f,square,color_mix,单词,,incompatible,2,block_switch1,instruction/ready_test.png,instruction/i11.png,,,,,,,,,,,,,,,,,0,0,0,0,0,67,67,67,,,,,,,,,,,,,,,,,,,,,,,,,,,556.7317998000071,556.9322433999623,556.9152572000166,557.216521299968,557.216521299968,None,557.7194798999699,None,f,1,0.8893372000311501,557.7194798999699,None,None,None,,,,,,,,,,,,,,,,,,,,,,,11043,2,1,2024_Jun_02_1732,stroop_task_switching2,2021.2.3,60.03089188759345,
,,,红,yellow,d,square,color_mix,单词,,incompatible,1,block_switch1,instruction/ready_test.png,instruction/i11.png,,,,,,,,,,,,,,,,,0,0,0,0,0,68,68,68,,,,,,,,,,,,,,,,,,,,,,,,,,,558.6348398000118,558.8356680999859,558.8189648999833,559.1196417000028,559.1196417000028,None,559.6202193999779,None,j,0,2.4281018000328913,559.6202193999779,None,None,None,,,,,,,,,,,,,,,,,,,,,,,11043,2,1,2024_Jun_02_1732,stroop_task_switching2,2021.2.3,60.03089188759345,
,,,红,yellow,j,diamond,color_mix,颜色,,incompatible,2,block_switch1,instruction/ready_test.png,instruction/i11.png,,,,,,,,,,,,,,,,,0,0,0,0,0,69,69,69,,,,,,,,,,,,,,,,,,,,,,,,,,,562.073380399961,562.274379200011,562.2575972999912,562.5576389000053,562.5576389000053,None,563.0588283999823,None,j,1,2.1178202999872155,563.0588283999823,None,None,None,,,,,,,,,,,,,,,,,,,,,,,11043,2,1,2024_Jun_02_1732,stroop_task_switching2,2021.2.3,60.03089188759345,
,,,蓝,green,f,square,color_mix,单词,,incompatible,2,block_switch1,instruction/ready_test.png,instruction/i11.png,,,,,,,,,,,,,,,,,0,0,0,0,0,70,70,70,,,,,,,,,,,,,,,,,,,,,,,,,,,565.1948903999873,565.3953581000096,565.3786638999591,565.6791767000104,565.6791767000104,None,566.1798720000079,None,f,1,1.6933149000396952,566.1798720000079,None,None,None,,,,,,,,,,,,,,,,,,,,,,,11043,2,1,2024_Jun_02_1732,stroop_task_switching2,2021.2.3,60.03089188759345,
,,,绿,yellow,k,square,color_mix,单词,,incompatible,1,block_switch1,instruction/ready_test.png,instruction/i11.png,,,,,,,,,,,,,,,,,0,0,0,0,0,71,71,71,,,,,,,,,,,,,,,,,,,,,,,,,,,567.8994000999955,568.0993041999754,568.0828168999869,568.3830796999973,568.3830796999973,None,568.8838315999601,None,k,1,1.3255140000255778,568.8838315999601,None,None,None,,,,,,,,,,,,,,,,,,,,,,,11043,2,1,2024_Jun_02_1732,stroop_task_switching2,2021.2.3,60.03089188759345,
,,,蓝,yellow,j,diamond,color_mix,颜色,,incompatible,2,block_switch1,instruction/ready_test.png,instruction/i11.png,,,,,,,,,,,,,,,,,0,0,0,0,0,72,72,72,,,,,,,,,,,,,,,,,,,,,,,,,,,570.2356321999687,570.4362145999912,570.4193948999746,570.7213370999671,570.7213370999671,None,571.2211086999741,None,j,1,1.0598531999858096,571.2211086999741,None,None,None,,,,,,,,,,,,,,,,,,,,,,,11043,2,1,2024_Jun_02_1732,stroop_task_switching2,2021.2.3,60.03089188759345,
,,,红,green,d,square,color_mix,单词,,incompatible,2,block_switch1,instruction/ready_test.png,instruction/i11.png,,,,,,,,,,,,,,,,,0,0,0,0,0,73,73,73,,,,,,,,,,,,,,,,,,,,,,,,,,,572.30486199999,572.5066412999877,572.4895328999846,572.7898079999723,572.7898079999723,None,573.2904316000058,None,d,1,0.7986762000364251,573.2904316000058,None,None,None,,,,,,,,,,,,,,,,,,,,,,,11043,2,1,2024_Jun_02_1732,stroop_task_switching2,2021.2.3,60.03089188759345,
,,,绿,blue,f,diamond,color_mix,颜色,,incompatible,2,block_switch1,instruction/ready_test.png,instruction/i11.png,,,,,,,,,,,,,,,,,0,0,0,0,0,74,74,74,,,,,,,,,,,,,,,,,,,,,,,,,,,574.1256958000013,574.3451605999726,574.292309899989,574.5928159999894,574.5928159999894,None,575.0931790999603,None,f,1,1.211639399989508,575.0931790999603,None,None,None,,,,,,,,,,,,,,,,,,,,,,,11043,2,1,2024_Jun_02_1732,stroop_task_switching2,2021.2.3,60.03089188759345,
,,,红,red,d,square,color_mix,单词,,compatible,2,block_switch1,instruction/ready_test.png,instruction/i11.png,,,,,,,,,,,,,,,,,0,0,0,0,0,75,75,75,,,,,,,,,,,,,,,,,,,,,,,,,,,576.3286568999756,576.5290749999695,576.512690100004,576.8127698999597,576.8127698999597,None,577.3135330000077,None,d,1,1.3919275000225753,577.3135330000077,None,None,None,,,,,,,,,,,,,,,,,,,,,,,11043,2,1,2024_Jun_02_1732,stroop_task_switching2,2021.2.3,60.03089188759345,
,,,绿,green,k,diamond,color_mix,颜色,,compatible,2,block_switch1,instruction/ready_test.png,instruction/i11.png,,,,,,,,,,,,,,,,,0,0,0,0,0,76,76,76,,,,,,,,,,,,,,,,,,,,,,,,,,,578.7318241999601,578.932794399967,578.9157936999691,579.2161508999998,579.2161508999998,None,579.7172802999848,None,k,1,0.9795944999787025,579.7172802999848,None,None,None,,,,,,,,,,,,,,,,,,,,,,,11043,2,1,2024_Jun_02_1732,stroop_task_switching2,2021.2.3,60.03089188759345,
,,,黄,red,j,square,color_mix,单词,,incompatible,2,block_switch1,instruction/ready_test.png,instruction/i11.png,,,,,,,,,,,,,,,,,0,0,0,0,0,77,77,77,,,,,,,,,,,,,,,,,,,,,,,,,,,580.7185993999592,580.9190140999854,580.9023214000044,581.2024256999721,581.2024256999721,None,581.7025284999982,None,j,1,1.4504808000056073,581.7025284999982,None,None,None,,,,,,,,,,,,,,,,,,,,,,,11043,2,1,2024_Jun_02_1732,stroop_task_switching2,2021.2.3,60.03089188759345,
,,,红,red,d,square,color_mix,单词,,compatible,1,block_switch1,instruction/ready_test.png,instruction/i11.png,,,,,,,,,,,,,,,,,0,0,0,0,0,78,78,78,,,,,,,,,,,,,,,,,,,,,,,,,,,583.1714058999787,583.372494500014,583.3558882999932,583.6562985999626,583.6562985999626,None,584.1571581999888,None,d,1,0.9957971999538131,584.1571581999888,None,None,None,,,,,,,,,,,,,,,,,,,,,,,11043,2,1,2024_Jun_02_1732,stroop_task_switching2,2021.2.3,60.03089188759345,
,,,黄,yellow,j,square,color_mix,单词,,compatible,1,block_switch1,instruction/ready_test.png,instruction/i11.png,,,,,,,,,,,,,,,,,0,0,0,0,0,79,79,79,,,,,,,,,,,,,,,,,,,,,,,,,,,585.1756286000018,585.3754445000086,585.3588172000018,585.6598231999669,585.6598231999669,None,586.1597548999707,None,j,1,0.7942519999924116,586.1597548999707,None,None,None,,,,,,,,,,,,,,,,,,,,,,,11043,2,1,2024_Jun_02_1732,stroop_task_switching2,2021.2.3,60.03089188759345,
,,,红,red,d,diamond,color_mix,颜色,,compatible,2,block_switch1,instruction/ready_test.png,instruction/i11.png,,,,,,,,,,,,,,,,,0,0,0,0,0,80,80,80,,,,,,,,,,,,,,,,,,,,,,,,,,,586.9776204999653,587.1785006999853,587.1617633000133,587.4619402000098,587.4619402000098,None,587.9625960999983,None,d,1,0.6307872000033967,587.9625960999983,None,None,None,,,,,,,,,,,,,,,,,,,,,,,11043,2,1,2024_Jun_02_1732,stroop_task_switching2,2021.2.3,60.03089188759345,
,,,红,red,d,square,color_mix,单词,,compatible,2,block_switch1,instruction/ready_test.png,instruction/i11.png,,,,,,,,,,,,,,,,,0,0,0,0,0,81,81,81,,,,,,,,,,,,,,,,,,,,,,,,,,,588.6131786999758,588.8141995999613,588.7978775000083,589.0978840999887,589.0978840999887,None,589.5986592000118,None,d,1,0.45130829996196553,589.5986592000118,None,None,None,,,,,,,,,,,,,,,,,,,,,,,11043,2,1,2024_Jun_02_1732,stroop_task_switching2,2021.2.3,60.03089188759345,
,,,黄,blue,f,diamond,color_mix,颜色,,incompatible,2,block_switch1,instruction/ready_test.png,instruction/i11.png,,,,,,,,,,,,,,,,,0,0,0,0,0,82,82,82,,,,,,,,,,,,,,,,,,,,,,,,,,,590.0646889999625,590.2659383999999,590.2495418000035,590.5502085000044,590.5502085000044,None,591.0511680999771,None,j,0,2.1741857000160962,591.0511680999771,None,None,None,,,,,,,,,,,,,,,,,,,,,,,11043,2,1,2024_Jun_02_1732,stroop_task_switching2,2021.2.3,60.03089188759345,
,,,红,yellow,j,diamond,color_mix,颜色,,incompatible,1,block_switch1,instruction/ready_test.png,instruction/i11.png,,,,,,,,,,,,,,,,,0,0,0,0,0,83,83,83,,,,,,,,,,,,,,,,,,,,,,,,,,,593.2540287000011,593.4544377999846,593.4376636999659,593.7381859999732,593.7381859999732,None,594.2390287999879,597.2436676999787,None,0,,594.2390287999879,597.2436676999787,597.2268946999684,None,,,,,,,,,,,,,,,,,,,,,,,11043,2,1,2024_Jun_02_1732,stroop_task_switching2,2021.2.3,60.03089188759345,
,,,黄,red,d,diamond,color_mix,颜色,,incompatible,1,block_switch1,instruction/ready_test.png,instruction/i11.png,,,,,,,,,,,,,,,,,0,0,0,0,0,84,84,84,,,,,,,,,,,,,,,,,,,,,,,,,,,597.8101177999633,598.0108896999736,597.9949640000123,598.2951240999973,598.2951240999973,None,598.7959334999905,None,d,1,0.7017911999719217,598.7959334999905,None,None,None,,,,,,,,,,,,,,,,,,,,,,,11043,2,1,2024_Jun_02_1732,stroop_task_switching2,2021.2.3,60.03089188759345,
,,,蓝,blue,f,square,color_mix,单词,,compatible,2,block_switch1,instruction/ready_test.png,instruction/i11.png,,,,,,,,,,,,,,,,,0,0,0,0,0,85,85,85,,,,,,,,,,,,,,,,,,,,,,,,,,,599.5124771000119,599.7130621999968,599.6972213999834,599.9977896999917,599.9977896999917,None,600.4984599999734,None,f,1,1.2870888000470586,600.4984599999734,None,None,None,,,,,,,,,,,,,,,,,,,,,,,11043,2,1,2024_Jun_02_1732,stroop_task_switching2,2021.2.3,60.03089188759345,
,,,绿,green,k,square,color_mix,单词,,compatible,1,block_switch1,instruction/ready_test.png,instruction/i11.png,,,,,,,,,,,,,,,,,0,0,0,0,0,86,86,86,,,,,,,,,,,,,,,,,,,,,,,,,,,601.8169061999652,602.0174948999775,602.0009177000029,602.3013043999672,602.3013043999672,None,602.8011503000162,None,k,1,0.664695399987977,602.8011503000162,None,None,None,,,,,,,,,,,,,,,,,,,,,,,11043,2,1,2024_Jun_02_1732,stroop_task_switching2,2021.2.3,60.03089188759345,
,,,红,red,d,square,color_mix,单词,,compatible,1,block_switch1,instruction/ready_test.png,instruction/i11.png,,,,,,,,,,,,,,,,,0,0,0,0,0,87,87,87,,,,,,,,,,,,,,,,,,,,,,,,,,,603.4865381999989,603.6868183999904,603.6699434999609,603.9705069999909,603.9705069999909,None,604.471107499965,None,d,1,1.2584608999895863,604.471107499965,None,None,None,,,,,,,,,,,,,,,,,,,,,,,11043,2,1,2024_Jun_02_1732,stroop_task_switching2,2021.2.3,60.03089188759345,
,,,黄,green,k,diamond,color_mix,颜色,,incompatible,2,block_switch1,instruction/ready_test.png,instruction/i11.png,,,,,,,,,,,,,,,,,0,0,0,0,0,88,88,88,,,,,,,,,,,,,,,,,,,,,,,,,,,605.7561353999772,605.9563557999791,605.93960589997,606.2399912999826,606.2399912999826,None,606.7403179999674,None,k,1,1.7893190999748185,606.7403179999674,None,None,None,,,,,,,,,,,,,,,,,,,,,,,11043,2,1,2024_Jun_02_1732,stroop_task_switching2,2021.2.3,60.03089188759345,
,,,绿,red,k,square,color_mix,单词,,incompatible,2,block_switch1,instruction/ready_test.png,instruction/i11.png,,,,,,,,,,,,,,,,,0,0,0,0,0,89,89,89,,,,,,,,,,,,,,,,,,,,,,,,,,,608.5599278999725,608.7610188999679,608.743876499997,609.0446727999952,609.0446727999952,None,609.5455571999773,None,d,0,1.569162999978289,609.5455571999773,None,None,None,,,,,,,,,,,,,,,,,,,,,,,11043,2,1,2024_Jun_02_1732,stroop_task_switching2,2021.2.3,60.03089188759345,
,,,黄,green,j,square,color_mix,单词,,incompatible,1,block_switch1,instruction/ready_test.png,instruction/i11.png,,,,,,,,,,,,,,,,,0,0,0,0,0,90,90,90,,,,,,,,,,,,,,,,,,,,,,,,,,,611.131181499979,611.331353000016,611.3145993999788,611.614952199976,611.614952199976,None,612.11610069999,615.1202017999603,None,0,,612.11610069999,615.1202017999603,615.1036754999659,None,,,,,,,,,,,,,,,,,,,,,,,11043,2,1,2024_Jun_02_1732,stroop_task_switching2,2021.2.3,60.03089188759345,
,,,蓝,blue,f,square,color_mix,单词,,compatible,1,block_switch1,instruction/ready_test.png,instruction/i11.png,,,,,,,,,,,,,,,,,0,0,0,0,0,91,91,91,,,,,,,,,,,,,,,,,,,,,,,,,,,615.6713568000123,615.8713209999842,615.8549252999946,616.1554388999939,616.1554388999939,None,616.6560701999697,None,f,1,0.9463407999719493,616.6560701999697,None,None,None,,,,,,,,,,,,,,,,,,,,,,,11043,2,1,2024_Jun_02_1732,stroop_task_switching2,2021.2.3,60.03089188759345,
,,,蓝,red,f,square,color_mix,单词,,incompatible,1,block_switch1,instruction/ready_test.png,instruction/i11.png,,,,,,,,,,,,,,,,,0,0,0,0,0,92,92,92,,,,,,,,,,,,,,,,,,,,,,,,,,,617.6233230999787,617.8244880000129,617.8080372000113,618.1081662999932,618.1081662999932,None,618.6091178999632,None,d,0,0.9291230000089854,618.6091178999632,None,None,None,,,,,,,,,,,,,,,,,,,,,,,11043,2,1,2024_Jun_02_1732,stroop_task_switching2,2021.2.3,60.03089188759345,
,,,黄,blue,j,square,color_mix,单词,,incompatible,1,block_switch1,instruction/ready_test.png,instruction/i11.png,,,,,,,,,,,,,,,,,0,0,0,0,0,93,93,93,,,,,,,,,,,,,,,,,,,,,,,,,,,619.5602971999906,619.7609040999669,619.7441700999625,620.0439057999756,620.0439057999756,None,620.5446636999841,None,f,0,1.426434499968309,620.5446636999841,None,None,None,,,,,,,,,,,,,,,,,,,,,,,11043,2,1,2024_Jun_02_1732,stroop_task_switching2,2021.2.3,60.03089188759345,
,,,绿,red,d,diamond,color_mix,颜色,,incompatible,2,block_switch1,instruction/ready_test.png,instruction/i11.png,,,,,,,,,,,,,,,,,0,0,0,0,0,94,94,94,,,,,,,,,,,,,,,,,,,,,,,,,,,621.9968808999984,622.1979317999794,622.1811063999776,622.4817829999956,622.4817829999956,None,622.9815308999969,None,d,1,0.828586500021629,622.9815308999969,None,None,None,,,,,,,,,,,,,,,,,,,,,,,11043,2,1,2024_Jun_02_1732,stroop_task_switching2,2021.2.3,60.03089188759345,
,,,蓝,blue,f,diamond,color_mix,颜色,,compatible,1,block_switch1,instruction/ready_test.png,instruction/i11.png,,,,,,,,,,,,,,,,,0,0,0,0,0,95,95,95,,,,,,,,,,,,,,,,,,,,,,,,,,,623.8336070000078,624.0340022000019,624.0169481000048,624.3167188999942,624.3167188999942,None,624.8183427999611,None,f,1,1.1684433000045829,624.8183427999611,None,None,None,,,,,,,,,,,,,,,,,,,,,,,11043,2,1,2024_Jun_02_1732,stroop_task_switching2,2021.2.3,60.03089188759345,
,,,绿,green,k,square,color_mix,单词,,compatible,2,block_switch1,instruction/ready_test.png,instruction/i11.png,,,,,,,,,,,,,,,,,0,0,0,0,0,96,96,96,,,,,,,,,,,,,,,,,,,,,,,,,,,626.0028864999767,626.2039422999951,626.1870742999599,626.487713199982,626.487713199982,None,626.9882900000084,None,k,1,1.3823005000012927,626.9882900000084,None,None,None,,,,,,,,,,,,,,,,,,,,,,,11043,2,1,2024_Jun_02_1732,stroop_task_switching2,2021.2.3,60.03089188759345,
,,,,,,,,,,,,block_switch1,instruction/ready_test.png,instruction/i11.png,,,,,,,,,,,,,,,,,0,0,0,0,,,,,,,,,,,,,,,,,,,,,,,,,,,,,,,,,,,,,,,,,,,,,,,,,,,,,,,,,,,,628.3908557000104,None,space,26.132083100033924,628.3908557000104,None,,,11043,2,1,2024_Jun_02_1732,stroop_task_switching2,2021.2.3,60.03089188759345,
,,,蓝,blue,f,square,color_mix,单词,,compatible,0,block_switch2,instruction/ready_2.png,instruction/i12.png,,,,,,,,,,,,,,,,,0,1,1,1,0,0,0,0,,,,,,,,,,,,,,,,,,,657.434545999975,658.4356814000057,658.4356814000057,659.4373427999672,659.4373427999672,None,656.4488422999857,657.4505639999988,660.4728286999743,660.672974999994,660.6557324999594,660.9564572999952,660.9564572999952,None,661.4570092000067,None,f,1,1.1541743999696337,661.4570092000067,None,None,None,,,,,,,,,654.5625421999721,None,space,1.856519200024195,654.5625421999721,None,,,,,,,,,11043,2,1,2024_Jun_02_1732,stroop_task_switching2,2021.2.3,60.03089188759345,
,,,黄,red,d,diamond,color_mix,颜色,,incompatible,2,block_switch2,instruction/ready_2.png,instruction/i12.png,,,,,,,,,,,,,,,,,0,1,1,1,0,1,1,1,,,,,,,,,,,,,,,,,,,,,,,,,,,662.6419942000066,662.8420391000109,662.8255971999606,663.1253110999824,663.1253110999824,None,663.6271463999874,None,d,1,0.6800398999475874,663.6271463999874,None,None,None,,,,,,,,,,,,,,,,,,,,,,,11043,2,1,2024_Jun_02_1732,stroop_task_switching2,2021.2.3,60.03089188759345,
,,,蓝,green,k,diamond,color_mix,颜色,,incompatible,1,block_switch2,instruction/ready_2.png,instruction/i12.png,,,,,,,,,,,,,,,,,0,1,1,1,0,2,2,2,,,,,,,,,,,,,,,,,,,,,,,,,,,664.3265952999936,664.5284450000036,664.5117059999611,664.8117666000035,664.8117666000035,None,665.3127919000108,None,k,1,0.7544995999778621,665.3127919000108,None,None,None,,,,,,,,,,,,,,,,,,,,,,,11043,2,1,2024_Jun_02_1732,stroop_task_switching2,2021.2.3,60.03089188759345,
,,,红,yellow,j,diamond,color_mix,颜色,,incompatible,1,block_switch2,instruction/ready_2.png,instruction/i12.png,,,,,,,,,,,,,,,,,0,1,1,1,0,3,3,3,,,,,,,,,,,,,,,,,,,,,,,,,,,666.0964295999729,666.2976813999703,666.2807238000096,666.5813915999606,666.5813915999606,None,667.0811134999967,None,j,1,0.9383059999672696,667.0811134999967,None,None,None,,,,,,,,,,,,,,,,,,,,,,,11043,2,1,2024_Jun_02_1732,stroop_task_switching2,2021.2.3,60.03089188759345,
,,,红,red,d,diamond,color_mix,颜色,,compatible,1,block_switch2,instruction/ready_2.png,instruction/i12.png,,,,,,,,,,,,,,,,,0,1,1,1,0,4,4,4,,,,,,,,,,,,,,,,,,,,,,,,,,,668.0496468999772,668.2506483999896,668.2339101000107,668.5338168999879,668.5338168999879,None,669.0346781999688,None,d,1,0.6015965000260621,669.0346781999688,None,None,None,,,,,,,,,,,,,,,,,,,,,,,11043,2,1,2024_Jun_02_1732,stroop_task_switching2,2021.2.3,60.03089188759345,
,,,绿,green,k,square,color_mix,单词,,compatible,2,block_switch2,instruction/ready_2.png,instruction/i12.png,,,,,,,,,,,,,,,,,0,1,1,1,0,5,5,5,,,,,,,,,,,,,,,,,,,,,,,,,,,669.6692946999683,669.8695530999685,669.8361655999906,670.13613910001,670.13613910001,None,670.637359299988,None,k,1,0.6860612999880686,670.637359299988,None,None,None,,,,,,,,,,,,,,,,,,,,,,,11043,2,1,2024_Jun_02_1732,stroop_task_switching2,2021.2.3,60.03089188759345,
,,,黄,blue,f,diamond,color_mix,颜色,,incompatible,2,block_switch2,instruction/ready_2.png,instruction/i12.png,,,,,,,,,,,,,,,,,0,1,1,1,0,6,6,6,,,,,,,,,,,,,,,,,,,,,,,,,,,671.338532899972,671.5389189000125,671.5220137999859,671.8226404999732,671.8226404999732,None,672.3229167999816,None,f,1,0.9285160999861546,672.3229167999816,None,None,None,,,,,,,,,,,,,,,,,,,,,,,11043,2,1,2024_Jun_02_1732,stroop_task_switching2,2021.2.3,60.03089188759345,
,,,绿,yellow,k,square,color_mix,单词,,incompatible,2,block_switch2,instruction/ready_2.png,instruction/i12.png,,,,,,,,,,,,,,,,,0,1,1,1,0,7,7,7,,,,,,,,,,,,,,,,,,,,,,,,,,,673.2740815000143,673.4751574000111,673.4582464999985,673.758803899982,673.758803899982,None,674.2596653999644,None,k,1,0.6957689999835566,674.2596653999644,None,None,None,,,,,,,,,,,,,,,,,,,,,,,11043,2,1,2024_Jun_02_1732,stroop_task_switching2,2021.2.3,60.03089188759345,
,,,红,green,d,square,color_mix,单词,,incompatible,1,block_switch2,instruction/ready_2.png,instruction/i12.png,,,,,,,,,,,,,,,,,0,1,1,1,0,8,8,8,,,,,,,,,,,,,,,,,,,,,,,,,,,674.9773826000164,675.1774185000104,675.1611056000111,675.4616570000071,675.4616570000071,None,675.9621705999598,None,d,1,0.505241000035312,675.9621705999598,None,None,None,,,,,,,,,,,,,,,,,,,,,,,11043,2,1,2024_Jun_02_1732,stroop_task_switching2,2021.2.3,60.03089188759345,
,,,黄,yellow,j,square,color_mix,单词,,compatible,1,block_switch2,instruction/ready_2.png,instruction/i12.png,,,,,,,,,,,,,,,,,0,1,1,1,0,9,9,9,,,,,,,,,,,,,,,,,,,,,,,,,,,676.4952853000141,676.6954619999742,676.6790000000037,676.9803060999839,676.9803060999839,None,677.4813481000019,None,j,1,1.035067600023467,677.4813481000019,None,None,None,,,,,,,,,,,,,,,,,,,,,,,11043,2,1,2024_Jun_02_1732,stroop_task_switching2,2021.2.3,60.03089188759345,
