b_pra,ins_blocks,ins_blocks2,stim_word,stim_color,corrAns,cue_type,trial_type,task_type,rand,compatibility,switch,b_test,w_pic,w_pic2,trials_instr.thisRepN,trials_instr.thisTrialN,trials_instr.thisN,trials_instr.thisIndex,block_pra.thisRepN,block_pra.thisTrialN,block_pra.thisN,block_pra.thisIndex,trials_rep.thisRepN,trials_rep.thisTrialN,trials_rep.thisN,trials_rep.thisIndex,trials_pra.thisRepN,trials_pra.thisTrialN,trials_pra.thisN,trials_pra.thisIndex,trials_3.thisRepN,trials_3.thisTrialN,trials_3.thisN,trials_3.thisIndex,trials_2.thisRepN,trials_2.thisTrialN,trials_2.thisN,trials_2.thisIndex,instr_image.started,instr_image.stopped,instr_key_resp.keys,instr_key_resp.rt,instr_key_resp.started,instr_key_resp.stopped,instr_pra_image.started,instr_pra_image.stopped,ip_key_resp.keys,ip_key_resp.rt,ip_key_resp.started,ip_key_resp.stopped,block_image.started,block_image.stopped,ib_key_resp.keys,ib_key_resp.rt,ib_key_resp.started,ib_key_resp.stopped,cd3.started,cd3.stopped,cd2.started,cd2.stopped,cd1.started,cd1.stopped,cd_text.started,cd_text.stopped,text_fix.started,text_fix.stopped,text_2.started,text_2.stopped,text_4.started,text_4.stopped,text_target.started,text_target.stopped,key_resp.keys,key_resp.corr,key_resp.rt,key_resp.started,key_resp.stopped,sceen_black.started,sceen_black.stopped,text_fb.started,text_fb.stopped,text.started,text.stopped,key_bf.keys,key_bf.rt,key_bf.started,key_bf.stopped,instr_test_image.started,instr_test_image.stopped,instr_exp_key_resp.keys,instr_exp_key_resp.rt,instr_exp_key_resp.started,instr_exp_key_resp.stopped,text_rest.started,text_rest.stopped,key_resp_rest.keys,key_resp_rest.rt,key_resp_rest.started,key_resp_rest.stopped,text_3.started,text_3.stopped,participant,session,balance,date,expName,psychopyVersion,frameRate,
,,,,,,,,,,,,,,,0,0,0,0,,,,,,,,,,,,,,,,,,,,,90.45968110000831,None,right,2.0236195000179578,90.45968110000831,None,,,,,,,,,,,,,,,,,,,,,,,,,,,,,,,,,,,,,,,,,,,,,,,,,,,,,,,,,,11041,2,1,2024_May_31_1435,stroop_task_switching2,2021.2.3,60.174844030664794,
,,,,,,,,,,,,,,,1,0,1,0,,,,,,,,,,,,,,,,,,,,,92.52930439999909,None,right,18.88263370000641,92.52930439999909,None,,,,,,,,,,,,,,,,,,,,,,,,,,,,,,,,,,,,,,,,,,,,,,,,,,,,,,,,,,11041,2,1,2024_May_31_1435,stroop_task_switching2,2021.2.3,60.174844030664794,
,,,,,,,,,,,,,,,2,0,2,0,,,,,,,,,,,,,,,,,,,,,111.45787579999887,None,right,15.690948400006164,111.45787579999887,None,,,,,,,,,,,,,,,,,,,,,,,,,,,,,,,,,,,,,,,,,,,,,,,,,,,,,,,,,,11041,2,1,2024_May_31_1435,stroop_task_switching2,2021.2.3,60.174844030664794,
,,,,,,,,,,,,,,,3,0,3,0,,,,,,,,,,,,,,,,,,,,,127.18146900000283,None,right,10.855348200013395,127.18146900000283,None,,,,,,,,,,,,,,,,,,,,,,,,,,,,,,,,,,,,,,,,,,,,,,,,,,,,,,,,,,11041,2,1,2024_May_31_1435,stroop_task_switching2,2021.2.3,60.174844030664794,
,,,,,,,,,,,,,,,4,0,4,0,,,,,,,,,,,,,,,,,,,,,138.08127799999784,None,right,36.46881220000796,138.08127799999784,None,,,,,,,,,,,,,,,,,,,,,,,,,,,,,,,,,,,,,,,,,,,,,,,,,,,,,,,,,,11041,2,1,2024_May_31_1435,stroop_task_switching2,2021.2.3,60.174844030664794,
,,,,,,,,,,,,,,,5,0,5,0,,,,,,,,,,,,,,,,,,,,,174.58647780001047,None,right,1.2352708999824245,174.58647780001047,None,,,,,,,,,,,,,,,,,,,,,,,,,,,,,,,,,,,,,,,,,,,,,,,,,,,,,,,,,,11041,2,1,2024_May_31_1435,stroop_task_switching2,2021.2.3,60.174844030664794,
,,,,,,,,,,,,,,,,,,,,,,,,,,,,,,,,,,,,,,,,,,,,,175.85641550002038,None,space,3.8692417000129353,175.85641550002038,None,,,,,,,,,,,,,,,,,,,,,,,,,,,,,,,,,,,,,,,,,,,,,,,,,,,,11041,2,1,2024_May_31_1435,stroop_task_switching2,2021.2.3,60.174844030664794,
condition/block_color,instruction/instr_color,instruction/i8,XX,red,d,diamond,color_single,颜色,,,,,,,,,,,0,0,0,0,0,0,0,0,0,0,0,0,,,,,,,,,,,,,,,,,,,,,179.7608466000238,None,space,4.589399399992544,179.7608466000238,None,185.40373839999666,186.4054060000053,186.4054060000053,187.4073910000152,187.4073910000152,None,184.43458760000067,185.43629120002151,188.39044760001707,188.59242060000543,188.57420960001764,188.8751858000178,188.8751858000178,None,189.3753726000141,None,d,1,0.6627703999984078,189.3753726000141,None,None,None,190.05970830001752,None,,,,,,,,,,,,,,,,,,,,,11041,2,1,2024_May_31_1435,stroop_task_switching2,2021.2.3,60.174844030664794,
condition/block_color,instruction/instr_color,instruction/i8,XX,green,k,diamond,color_single,颜色,,,,,,,,,,,0,0,0,0,0,0,0,0,0,1,1,1,,,,,,,,,,,,,,,,,,,,,,,,,,,,,,,,,,,191.0617194000224,191.2620969999989,191.24562610001885,191.54576590002398,191.54576590002398,None,192.0461172000214,None,k,1,1.184355700010201,192.0461172000214,None,None,None,193.2478999000159,None,,,,,,,,,,,,,,,,,,,,,11041,2,1,2024_May_31_1435,stroop_task_switching2,2021.2.3,60.174844030664794,
condition/block_color,instruction/instr_color,instruction/i8,XX,yellow,j,diamond,color_single,颜色,,,,,,,,,,,0,0,0,0,0,0,0,0,0,2,2,2,,,,,,,,,,,,,,,,,,,,,,,,,,,,,,,,,,,194.24952569999732,194.45052630000282,194.43304430000717,194.7348103999975,194.7348103999975,None,195.23415880001266,None,j,1,0.7565708000038285,195.23415880001266,None,None,None,196.01883460002136,None,,,,,,,,,,,,,,,,,,,,,11041,2,1,2024_May_31_1435,stroop_task_switching2,2021.2.3,60.174844030664794,
condition/block_color,instruction/instr_color,instruction/i8,XX,blue,f,diamond,color_single,颜色,,,,,,,,,,,0,0,0,0,0,0,0,0,0,3,3,3,,,,,,,,,,,,,,,,,,,,,,,,,,,,,,,,,,,197.02032690000487,197.220464300015,197.20447389999754,197.5042400000093,197.5042400000093,None,198.00511610001558,None,f,1,0.9132612000103109,198.00511610001558,None,None,None,198.93979430000763,None,,,,,,,,,,,,,,,,,,,,,11041,2,1,2024_May_31_1435,stroop_task_switching2,2021.2.3,60.174844030664794,
condition/block_color,instruction/instr_color,instruction/i8,XX,green,k,diamond,color_single,颜色,,,,,,,,,,,0,0,0,0,0,0,0,0,0,4,4,4,,,,,,,,,,,,,,,,,,,,,,,,,,,,,,,,,,,199.94128250001813,200.1430247000244,200.12504780001473,200.42621940001845,200.42621940001845,None,200.92758280001,None,k,1,0.6552976999955717,200.92758280001,None,None,None,201.61176170001272,None,,,,,,,,,,,,,,,,,,,,,11041,2,1,2024_May_31_1435,stroop_task_switching2,2021.2.3,60.174844030664794,
condition/block_color,instruction/instr_color,instruction/i8,XX,yellow,j,diamond,color_single,颜色,,,,,,,,,,,0,0,0,0,0,0,0,0,0,5,5,5,,,,,,,,,,,,,,,,,,,,,,,,,,,,,,,,,,,202.6121938000142,202.81235750002088,202.7956974999979,203.0964215999993,203.0964215999993,None,203.5969693000079,None,j,1,0.5614996000076644,203.5969693000079,None,None,None,204.18153150001308,None,,,,,,,,,,,,,,,,,,,,,11041,2,1,2024_May_31_1435,stroop_task_switching2,2021.2.3,60.174844030664794,
condition/block_color,instruction/instr_color,instruction/i8,XX,blue,f,diamond,color_single,颜色,,,,,,,,,,,0,0,0,0,0,0,0,0,0,6,6,6,,,,,,,,,,,,,,,,,,,,,,,,,,,,,,,,,,,205.1825635000132,205.38296630000696,205.36700610001571,205.66802520002238,205.66802520002238,None,206.16748230002122,None,f,1,0.90311029998702,206.16748230002122,None,None,None,207.10214760000235,None,,,,,,,,,,,,,,,,,,,,,11041,2,1,2024_May_31_1435,stroop_task_switching2,2021.2.3,60.174844030664794,
condition/block_color,instruction/instr_color,instruction/i8,XX,red,d,diamond,color_single,颜色,,,,,,,,,,,0,0,0,0,0,0,0,0,0,7,7,7,,,,,,,,,,,,,,,,,,,,,,,,,,,,,,,,,,,208.10366990001057,208.3038492000196,208.28860080000595,208.5887997999962,208.5887997999962,None,209.08899440002278,None,d,1,0.581958199996734,209.08899440002278,None,None,None,209.68956300002174,None,,,,,,,,,,,,,,,,,,,,,11041,2,1,2024_May_31_1435,stroop_task_switching2,2021.2.3,60.174844030664794,
condition/block_color,instruction/instr_color,instruction/i8,XX,yellow,j,diamond,color_single,颜色,,,,,,,,,,,0,0,0,0,0,0,0,0,0,8,8,8,,,,,,,,,,,,,,,,,,,,,,,,,,,,,,,,,,,210.6914373000036,210.8911378000048,210.87451400002465,211.17570220000925,211.17570220000925,None,211.67581909999717,None,j,1,0.8353226000035647,211.67581909999717,None,None,None,212.527035600011,None,,,,,,,,,,,,,,,,,,,,,11041,2,1,2024_May_31_1435,stroop_task_switching2,2021.2.3,60.174844030664794,
condition/block_color,instruction/instr_color,instruction/i8,XX,blue,f,diamond,color_single,颜色,,,,,,,,,,,0,0,0,0,0,0,0,0,0,9,9,9,,,,,,,,,,,,,,,,,,,,,,,,,,,,,,,,,,,213.52854900000966,213.7299028999987,213.71208140000817,214.01328110002214,214.01328110002214,None,214.51340120000532,None,f,1,0.7337815000209957,214.51340120000532,None,None,None,215.26451130001806,None,,,,,,,,,,,,,,,,,,,,,11041,2,1,2024_May_31_1435,stroop_task_switching2,2021.2.3,60.174844030664794,
condition/block_color,instruction/instr_color,instruction/i8,XX,red,d,diamond,color_single,颜色,,,,,,,,,,,0,0,0,0,0,0,0,0,0,10,10,10,,,,,,,,,,,,,,,,,,,,,,,,,,,,,,,,,,,216.266054000007,216.4669208000123,216.45057670000824,216.75037770002382,216.75037770002382,None,217.25064750001184,None,d,1,0.3806652000057511,217.25064750001184,None,None,None,217.65140790000441,None,,,,,,,,,,,,,,,,,,,,,11041,2,1,2024_May_31_1435,stroop_task_switching2,2021.2.3,60.174844030664794,
condition/block_color,instruction/instr_color,instruction/i8,XX,green,k,diamond,color_single,颜色,,,,,,,,,,,0,0,0,0,0,0,0,0,0,11,11,11,,,,,,,,,,,,,,,,,,,,,,,,,,,,,,,,,,,218.65291830000933,218.85313730000053,218.8365939000214,219.1368908000004,219.1368908000004,None,219.63785910001025,None,k,1,0.7851512000197545,219.63785910001025,None,None,None,220.4392154000234,None,,,,,,,,,,,,,,,,,,,,,11041,2,1,2024_May_31_1435,stroop_task_switching2,2021.2.3,60.174844030664794,
condition/block_color,instruction/instr_color,instruction/i8,XX,blue,f,diamond,color_single,颜色,,,,,,,,,,,0,0,0,0,0,0,0,0,0,12,12,12,,,,,,,,,,,,,,,,,,,,,,,,,,,,,,,,,,,221.44028219999745,221.64203509999788,221.62391330001992,221.925184599997,221.925184599997,None,222.42523400002392,None,f,1,0.7981016999983694,222.42523400002392,None,None,None,223.24319170002127,None,,,,,,,,,,,,,,,,,,,,,11041,2,1,2024_May_31_1435,stroop_task_switching2,2021.2.3,60.174844030664794,
condition/block_color,instruction/instr_color,instruction/i8,XX,red,d,diamond,color_single,颜色,,,,,,,,,,,0,0,0,0,0,0,0,0,0,13,13,13,,,,,,,,,,,,,,,,,,,,,,,,,,,,,,,,,,,224.24576109999907,224.44629859999986,224.42848280002363,224.72880420001457,224.72880420001457,None,225.22937010001624,None,d,1,0.5854599000012968,225.22937010001624,None,None,None,225.83029549999628,None,,,,,,,,,,,,,,,,,,,,,11041,2,1,2024_May_31_1435,stroop_task_switching2,2021.2.3,60.174844030664794,
condition/block_color,instruction/instr_color,instruction/i8,XX,green,k,diamond,color_single,颜色,,,,,,,,,,,0,0,0,0,0,0,0,0,0,14,14,14,,,,,,,,,,,,,,,,,,,,,,,,,,,,,,,,,,,226.8319350000238,227.03243530000327,227.01716760001727,227.317157100013,227.317157100013,None,227.81669130001683,None,k,1,1.935018799995305,227.81669130001683,None,None,None,229.7697165000136,None,,,,,,,,,,,,,,,,,,,,,11041,2,1,2024_May_31_1435,stroop_task_switching2,2021.2.3,60.174844030664794,
condition/block_color,instruction/instr_color,instruction/i8,XX,yellow,j,diamond,color_single,颜色,,,,,,,,,,,0,0,0,0,0,0,0,0,0,15,15,15,,,,,,,,,,,,,,,,,,,,,,,,,,,,,,,,,,,230.77188450001995,230.9721264000109,230.95572110000649,231.2572810999991,231.2572810999991,None,231.75587069999892,None,j,1,0.5872619999863673,231.75587069999892,None,None,None,232.3735891999968,None,,,,,,,,,,,,,,,,,,,,,11041,2,1,2024_May_31_1435,stroop_task_switching2,2021.2.3,60.174844030664794,
condition/block_color,instruction/instr_color,instruction/i8,XX,red,d,diamond,color_single,颜色,,,,,,,,,,,0,0,0,0,0,0,0,0,0,16,16,16,,,,,,,,,,,,,,,,,,,,,,,,,,,,,,,,,,,233.3761521000124,233.5768745999958,233.55860710001434,233.8591299999971,233.8591299999971,None,234.35975730000064,None,d,1,0.6081740999943577,234.35975730000064,None,None,None,234.9942951000121,None,,,,,,,,,,,,,,,,,,,,,11041,2,1,2024_May_31_1435,stroop_task_switching2,2021.2.3,60.174844030664794,
condition/block_color,instruction/instr_color,instruction/i8,XX,green,k,diamond,color_single,颜色,,,,,,,,,,,0,0,0,0,0,0,0,0,0,17,17,17,,,,,,,,,,,,,,,,,,,,,,,,,,,,,,,,,,,235.99628660001326,236.19628780000494,236.17967540002428,236.4800274000154,236.4800274000154,None,236.98099020001246,None,k,1,0.9464138000039384,236.98099020001246,None,None,None,237.94848260001163,None,,,,,,,,,,,,,,,,,,,,,11041,2,1,2024_May_31_1435,stroop_task_switching2,2021.2.3,60.174844030664794,
condition/block_color,instruction/instr_color,instruction/i8,XX,yellow,j,diamond,color_single,颜色,,,,,,,,,,,0,0,0,0,0,0,0,0,0,18,18,18,,,,,,,,,,,,,,,,,,,,,,,,,,,,,,,,,,,238.95028560000355,239.15125180000905,239.13495740000508,239.4355381000205,239.4355381000205,None,239.9349792000139,None,j,1,0.7605303000018466,239.9349792000139,None,None,None,240.71933590000845,None,,,,,,,,,,,,,,,,,,,,,11041,2,1,2024_May_31_1435,stroop_task_switching2,2021.2.3,60.174844030664794,
condition/block_color,instruction/instr_color,instruction/i8,XX,blue,f,diamond,color_single,颜色,,,,,,,,,,,0,0,0,0,0,0,0,0,0,19,19,19,,,,,,,,,,,,,,,,,,,,,,,,,,,,,,,,,,,241.72102050000103,241.92284380001365,241.90454920000047,242.20563450001646,242.20563450001646,None,242.70576250000158,None,f,1,0.7661908000009134,242.70576250000158,None,None,None,243.4902074999991,None,,,,,,,,,,,,,,,,,,,,,11041,2,1,2024_May_31_1435,stroop_task_switching2,2021.2.3,60.174844030664794,
condition/block_color,instruction/instr_color,instruction/i8,XX,green,k,diamond,color_single,颜色,,,,,,,,,,,0,0,0,0,0,0,0,0,0,20,20,20,,,,,,,,,,,,,,,,,,,,,,,,,,,,,,,,,,,244.49269500002265,244.69275020001805,244.67629060000763,244.9770409000048,244.9770409000048,None,245.4766774000018,None,k,1,0.7469262999948114,245.4766774000018,None,None,None,246.24447060000966,None,,,,,,,,,,,,,,,,,,,,,11041,2,1,2024_May_31_1435,stroop_task_switching2,2021.2.3,60.174844030664794,
condition/block_color,instruction/instr_color,instruction/i8,XX,yellow,j,diamond,color_single,颜色,,,,,,,,,,,0,0,0,0,0,0,0,0,0,21,21,21,,,,,,,,,,,,,,,,,,,,,,,,,,,,,,,,,,,247.24590370000806,247.44708440001705,247.43049560001236,247.73126920001232,247.73126920001232,None,248.23067849999643,None,j,1,0.6972698000026867,248.23067849999643,None,None,None,248.94849010001053,None,,,,,,,,,,,,,,,,,,,,,11041,2,1,2024_May_31_1435,stroop_task_switching2,2021.2.3,60.174844030664794,
condition/block_color,instruction/instr_color,instruction/i8,XX,blue,f,diamond,color_single,颜色,,,,,,,,,,,0,0,0,0,0,0,0,0,0,22,22,22,,,,,,,,,,,,,,,,,,,,,,,,,,,,,,,,,,,249.95022110000718,250.15262400000938,250.1336554000154,250.43406160001177,250.43406160001177,None,250.93507840001257,None,f,1,0.7205323000089265,250.93507840001257,None,None,None,251.6859936999972,None,,,,,,,,,,,,,,,,,,,,,11041,2,1,2024_May_31_1435,stroop_task_switching2,2021.2.3,60.174844030664794,
condition/block_color,instruction/instr_color,instruction/i8,XX,red,d,diamond,color_single,颜色,,,,,,,,,,,0,0,0,0,0,0,0,0,0,23,23,23,,,,,,,,,,,,,,,,,,,,,,,,,,,,,,,,,,,252.6875520000176,252.8898897000181,252.87111890001688,253.1719767000177,253.1719767000177,None,253.67328570000245,None,d,1,0.6385786000173539,253.67328570000245,None,None,None,254.3401625000115,None,,,,,,,,,,,,,,,,,,,,,11041,2,1,2024_May_31_1435,stroop_task_switching2,2021.2.3,60.174844030664794,
condition/block_color,instruction/instr_color,instruction/i8,,,,,,,,,,,,,,,,,0,0,0,0,0,0,0,0,,,,,,,,,,,,,,,,,,,,,,,,,,,,,,,,,,,,,,,,,,,,,,,,,,,,,,,,255.37507999999798,None,space,3.689099700015504,255.37507999999798,None,,,,,,,,,,,,,,,11041,2,1,2024_May_31_1435,stroop_task_switching2,2021.2.3,60.174844030664794,
condition/block_color,instruction/instr_color,instruction/i8,,,,,,,,,,,,,,,,,0,0,0,0,,,,,,,,,,,,,,,,,,,,,,,,,,,,,,,,,,,,,,,,,,,,,,,,,,,,,,,,,,,,,,,,,,,,,,,,,,,,,,,,11041,2,1,2024_May_31_1435,stroop_task_switching2,2021.2.3,60.174844030664794,
condition/block_word,instruction/instr_word,instruction/i9,黄,white,j,square,word_single,单词,0.0032461461866890584,,,,,,,,,,0,1,1,1,0,0,0,0,0,0,0,0,,,,,,,,,,,,,,,,,,,,,259.0972267000179,None,space,5.4867576000106055,259.0972267000179,None,265.60703650000505,266.61024940002244,266.61024940002244,267.61213990001124,267.61213990001124,None,264.62287859999924,265.62479500001064,268.6280467000033,268.828290400008,268.81346309999935,269.11312770002405,269.11312770002405,None,269.6133550000086,None,j,1,0.7950541000172962,269.6133550000086,None,None,None,270.43068640001,None,,,,,,,,,,,,,,,,,,,,,11041,2,1,2024_May_31_1435,stroop_task_switching2,2021.2.3,60.174844030664794,
condition/block_word,instruction/instr_word,instruction/i9,蓝,white,f,square,word_single,单词,0.060540570646362424,,,,,,,,,,0,1,1,1,0,0,0,0,0,1,1,1,,,,,,,,,,,,,,,,,,,,,,,,,,,,,,,,,,,271.4331063000136,271.63336730000447,271.61668340000324,271.91787699999986,271.91787699999986,None,272.4173193000024,None,f,1,0.5753123000031337,272.4173193000024,None,None,None,273.019887500006,None,,,,,,,,,,,,,,,,,,,,,11041,2,1,2024_May_31_1435,stroop_task_switching2,2021.2.3,60.174844030664794,
condition/block_word,instruction/instr_word,instruction/i9,黄,white,j,square,word_single,单词,0.06994067193778963,,,,,,,,,,0,1,1,1,0,0,0,0,0,2,2,2,,,,,,,,,,,,,,,,,,,,,,,,,,,,,,,,,,,274.0199802000134,274.2200023000187,274.20418640002026,274.5039119000139,274.5039119000139,None,275.0044063999958,None,j,1,0.9399830000184011,275.0044063999958,None,None,None,275.972677200014,None,,,,,,,,,,,,,,,,,,,,,11041,2,1,2024_May_31_1435,stroop_task_switching2,2021.2.3,60.174844030664794,
condition/block_word,instruction/instr_word,instruction/i9,蓝,white,f,square,word_single,单词,0.08193765152950094,,,,,,,,,,0,1,1,1,0,0,0,0,0,3,3,3,,,,,,,,,,,,,,,,,,,,,,,,,,,,,,,,,,,276.9741295000131,277.1753146999981,277.158445500012,277.45841170000494,277.45841170000494,None,277.95890970001346,None,f,1,0.6653831999865361,277.95890970001346,None,None,None,278.6433217000158,None,,,,,,,,,,,,,,,,,,,,,11041,2,1,2024_May_31_1435,stroop_task_switching2,2021.2.3,60.174844030664794,
condition/block_word,instruction/instr_word,instruction/i9,红,white,d,square,word_single,单词,0.1279694370605574,,,,,,,,,,0,1,1,1,0,0,0,0,0,4,4,4,,,,,,,,,,,,,,,,,,,,,,,,,,,,,,,,,,,279.64507880000747,279.8451642,279.8299552999961,280.1289187000075,280.1289187000075,None,280.62961500001256,None,d,1,0.5149767000111751,280.62961500001256,None,None,None,281.16412630002014,None,,,,,,,,,,,,,,,,,,,,,11041,2,1,2024_May_31_1435,stroop_task_switching2,2021.2.3,60.174844030664794,
condition/block_word,instruction/instr_word,instruction/i9,红,white,d,square,word_single,单词,0.18345028784879092,,,,,,,,,,0,1,1,1,0,0,0,0,0,5,5,5,,,,,,,,,,,,,,,,,,,,,,,,,,,,,,,,,,,282.1659734999994,282.3664678000205,282.3488844000094,282.65068230000907,282.65068230000907,None,283.1506714000134,None,d,1,0.7941270000010263,283.1506714000134,None,None,None,283.96829250000883,None,,,,,,,,,,,,,,,,,,,,,11041,2,1,2024_May_31_1435,stroop_task_switching2,2021.2.3,60.174844030664794,
condition/block_word,instruction/instr_word,instruction/i9,蓝,white,f,square,word_single,单词,0.19920386223101294,,,,,,,,,,0,1,1,1,0,0,0,0,0,6,6,6,,,,,,,,,,,,,,,,,,,,,,,,,,,,,,,,,,,284.9695699000149,285.1698261999991,285.15362590001314,285.4550978000043,285.4550978000043,None,285.95466430002125,None,f,1,0.8777656999882311,285.95466430002125,None,None,None,286.855807200016,None,,,,,,,,,,,,,,,,,,,,,11041,2,1,2024_May_31_1435,stroop_task_switching2,2021.2.3,60.174844030664794,
condition/block_word,instruction/instr_word,instruction/i9,蓝,white,f,square,word_single,单词,0.26360599864925405,,,,,,,,,,0,1,1,1,0,0,0,0,0,7,7,7,,,,,,,,,,,,,,,,,,,,,,,,,,,,,,,,,,,287.8571755000157,288.05774859999656,288.0423522000201,288.3424309999973,288.3424309999973,None,288.8420789000229,None,d,0,0.7107840999960899,288.8420789000229,None,None,None,289.576109000016,None,,,,,,,,,,,,,,,,,,,,,11041,2,1,2024_May_31_1435,stroop_task_switching2,2021.2.3,60.174844030664794,
condition/block_word,instruction/instr_word,instruction/i9,蓝,white,f,square,word_single,单词,0.358985675745526,,,,,,,,,,0,1,1,1,0,0,0,0,0,8,8,8,,,,,,,,,,,,,,,,,,,,,,,,,,,,,,,,,,,290.5782823000045,290.78067780000856,290.76213909999933,291.06299480001326,291.06299480001326,None,291.5629581999965,None,f,1,0.7899603999976534,291.5629581999965,None,None,None,292.3808250000002,None,,,,,,,,,,,,,,,,,,,,,11041,2,1,2024_May_31_1435,stroop_task_switching2,2021.2.3,60.174844030664794,
condition/block_word,instruction/instr_word,instruction/i9,绿,white,k,square,word_single,单词,0.36496733802487347,,,,,,,,,,0,1,1,1,0,0,0,0,0,9,9,9,,,,,,,,,,,,,,,,,,,,,,,,,,,,,,,,,,,293.3839480000024,293.582613400009,293.5670957000111,293.8670977000147,293.8670977000147,None,294.36705749999965,None,k,1,0.8027216999907978,294.36705749999965,None,None,None,295.184866399999,None,,,,,,,,,,,,,,,,,,,,,11041,2,1,2024_May_31_1435,stroop_task_switching2,2021.2.3,60.174844030664794,
condition/block_word,instruction/instr_word,instruction/i9,黄,white,j,square,word_single,单词,0.3743513623756727,,,,,,,,,,0,1,1,1,0,0,0,0,0,10,10,10,,,,,,,,,,,,,,,,,,,,,,,,,,,,,,,,,,,296.186538000009,296.3868985000008,296.37069260000135,296.6709982000175,296.6709982000175,None,297.17129480000585,None,j,1,0.5668376999965403,297.17129480000585,None,None,None,297.7564643000078,None,,,,,,,,,,,,,,,,,,,,,11041,2,1,2024_May_31_1435,stroop_task_switching2,2021.2.3,60.174844030664794,
condition/block_word,instruction/instr_word,instruction/i9,红,white,d,square,word_single,单词,0.3894803852598544,,,,,,,,,,0,1,1,1,0,0,0,0,0,11,11,11,,,,,,,,,,,,,,,,,,,,,,,,,,,,,,,,,,,298.75701760000084,298.95760960000916,298.9424626000109,299.2431883000245,299.2431883000245,None,299.758490600012,None,d,1,0.6910989999887533,299.758490600012,None,None,None,300.47662140001194,None,,,,,,,,,,,,,,,,,,,,,11041,2,1,2024_May_31_1435,stroop_task_switching2,2021.2.3,60.174844030664794,
condition/block_word,instruction/instr_word,instruction/i9,绿,white,k,square,word_single,单词,0.5393759672408067,,,,,,,,,,0,1,1,1,0,0,0,0,0,12,12,12,,,,,,,,,,,,,,,,,,,,,,,,,,,,,,,,,,,301.4786209000158,301.6783248000138,301.66316180001013,301.96173810001346,301.96173810001346,None,302.4625460000243,None,k,1,1.0428511000063736,302.4625460000243,None,None,None,303.5309279000212,None,,,,,,,,,,,,,,,,,,,,,11041,2,1,2024_May_31_1435,stroop_task_switching2,2021.2.3,60.174844030664794,
condition/block_word,instruction/instr_word,instruction/i9,蓝,white,f,square,word_single,单词,0.5995731954831104,,,,,,,,,,0,1,1,1,0,0,0,0,0,13,13,13,,,,,,,,,,,,,,,,,,,,,,,,,,,,,,,,,,,304.53218720000586,304.7343308000127,304.71707929999684,305.0169800000149,305.0169800000149,None,305.5170258000144,None,f,1,0.7485708000021987,305.5170258000144,None,None,None,306.28498540000874,None,,,,,,,,,,,,,,,,,,,,,11041,2,1,2024_May_31_1435,stroop_task_switching2,2021.2.3,60.174844030664794,
condition/block_word,instruction/instr_word,instruction/i9,红,white,d,square,word_single,单词,0.6298674479151414,,,,,,,,,,0,1,1,1,0,0,0,0,0,14,14,14,,,,,,,,,,,,,,,,,,,,,,,,,,,,,,,,,,,307.286416500021,307.48809790000087,307.47067629999947,307.7719698000001,307.7719698000001,None,308.27189350000117,None,d,1,0.6414629000064451,308.27189350000117,None,None,None,308.9403113000153,None,,,,,,,,,,,,,,,,,,,,,11041,2,1,2024_May_31_1435,stroop_task_switching2,2021.2.3,60.174844030664794,
condition/block_word,instruction/instr_word,instruction/i9,红,white,d,square,word_single,单词,0.7389942282348904,,,,,,,,,,0,1,1,1,0,0,0,0,0,15,15,15,,,,,,,,,,,,,,,,,,,,,,,,,,,,,,,,,,,309.9405449000187,310.14259530001436,310.1242246000038,310.42486940001254,310.42486940001254,None,310.92562920000637,None,d,1,0.659909299982246,310.92562920000637,None,None,None,311.6095647000184,None,,,,,,,,,,,,,,,,,,,,,11041,2,1,2024_May_31_1435,stroop_task_switching2,2021.2.3,60.174844030664794,
condition/block_word,instruction/instr_word,instruction/i9,绿,white,k,square,word_single,单词,0.7550853947239682,,,,,,,,,,0,1,1,1,0,0,0,0,0,16,16,16,,,,,,,,,,,,,,,,,,,,,,,,,,,,,,,,,,,312.61166740002227,312.81232440000167,312.79558150001685,313.09542930001044,313.09542930001044,None,313.59594260001904,None,k,1,1.1577068000042345,313.59594260001904,None,None,None,314.7814471000165,None,,,,,,,,,,,,,,,,,,,,,11041,2,1,2024_May_31_1435,stroop_task_switching2,2021.2.3,60.174844030664794,
condition/block_word,instruction/instr_word,instruction/i9,绿,white,k,square,word_single,单词,0.8019302780428206,,,,,,,,,,0,1,1,1,0,0,0,0,0,17,17,17,,,,,,,,,,,,,,,,,,,,,,,,,,,,,,,,,,,315.78253580001183,315.98419790001935,315.96640060000937,316.26677650000784,316.26677650000784,None,316.767459900002,None,k,1,0.578816099994583,316.767459900002,None,None,None,317.3684553000203,None,,,,,,,,,,,,,,,,,,,,,11041,2,1,2024_May_31_1435,stroop_task_switching2,2021.2.3,60.174844030664794,
condition/block_word,instruction/instr_word,instruction/i9,绿,white,k,square,word_single,单词,0.8110702914095343,,,,,,,,,,0,1,1,1,0,0,0,0,0,18,18,18,,,,,,,,,,,,,,,,,,,,,,,,,,,,,,,,,,,318.36977800002205,318.5707464000152,318.55433650000487,318.8551102000056,318.8551102000056,None,319.3557347000169,None,k,1,0.5977883000159636,319.3557347000169,None,None,None,319.9722469999979,None,,,,,,,,,,,,,,,,,,,,,11041,2,1,2024_May_31_1435,stroop_task_switching2,2021.2.3,60.174844030664794,
condition/block_word,instruction/instr_word,instruction/i9,黄,white,j,square,word_single,单词,0.8176594937590999,,,,,,,,,,0,1,1,1,0,0,0,0,0,19,19,19,,,,,,,,,,,,,,,,,,,,,,,,,,,,,,,,,,,320.9739210999978,321.17592450001393,321.15769230001024,321.4592356000212,321.4592356000212,None,321.95867250001174,None,j,1,0.6994955000118352,321.95867250001174,None,None,None,322.6765512000129,None,,,,,,,,,,,,,,,,,,,,,11041,2,1,2024_May_31_1435,stroop_task_switching2,2021.2.3,60.174844030664794,
condition/block_word,instruction/instr_word,instruction/i9,红,white,d,square,word_single,单词,0.8955794421104841,,,,,,,,,,0,1,1,1,0,0,0,0,0,20,20,20,,,,,,,,,,,,,,,,,,,,,,,,,,,,,,,,,,,323.67765350002446,323.878226300003,323.86145350002334,324.1633657000202,324.1633657000202,None,324.6626934000233,None,d,1,0.7949054000200704,324.6626934000233,None,None,None,325.4803658000019,None,,,,,,,,,,,,,,,,,,,,,11041,2,1,2024_May_31_1435,stroop_task_switching2,2021.2.3,60.174844030664794,
condition/block_word,instruction/instr_word,instruction/i9,绿,white,k,square,word_single,单词,0.9113598052474129,,,,,,,,,,0,1,1,1,0,0,0,0,0,21,21,21,,,,,,,,,,,,,,,,,,,,,,,,,,,,,,,,,,,326.48211490001995,326.6832254000183,326.66666230000556,326.9665636999998,326.9665636999998,None,327.466513100022,None,k,1,0.7191948000108823,327.466513100022,None,None,None,328.20137049999903,None,,,,,,,,,,,,,,,,,,,,,11041,2,1,2024_May_31_1435,stroop_task_switching2,2021.2.3,60.174844030664794,
condition/block_word,instruction/instr_word,instruction/i9,黄,white,j,square,word_single,单词,0.9215930958042953,,,,,,,,,,0,1,1,1,0,0,0,0,0,22,22,22,,,,,,,,,,,,,,,,,,,,,,,,,,,,,,,,,,,329.202772300021,329.4038552000129,329.3878706000105,329.68760000000475,329.68760000000475,None,330.1877688000095,None,j,1,1.7186372000142,330.1877688000095,None,None,None,331.92412630000035,None,,,,,,,,,,,,,,,,,,,,,11041,2,1,2024_May_31_1435,stroop_task_switching2,2021.2.3,60.174844030664794,
condition/block_word,instruction/instr_word,instruction/i9,黄,white,j,square,word_single,单词,0.9493525498837774,,,,,,,,,,0,1,1,1,0,0,0,0,0,23,23,23,,,,,,,,,,,,,,,,,,,,,,,,,,,,,,,,,,,332.9253450999968,333.12662389999605,333.10935880002216,333.4105875000241,333.4105875000241,None,333.91034840000793,None,j,1,0.6278734999941662,333.91034840000793,None,None,None,334.5611384000222,None,,,,,,,,,,,,,,,,,,,,,11041,2,1,2024_May_31_1435,stroop_task_switching2,2021.2.3,60.174844030664794,
condition/block_word,instruction/instr_word,instruction/i9,,,,,,,,,,,,,,,,,0,1,1,1,0,0,0,0,,,,,,,,,,,,,,,,,,,,,,,,,,,,,,,,,,,,,,,,,,,,,,,,,,,,,,,,335.5620682000008,None,space,6.040635400015162,335.5620682000008,None,,,,,,,,,,,,,,,11041,2,1,2024_May_31_1435,stroop_task_switching2,2021.2.3,60.174844030664794,
condition/block_word,instruction/instr_word,instruction/i9,,,,,,,,,,,,,,,,,0,1,1,1,,,,,,,,,,,,,,,,,,,,,,,,,,,,,,,,,,,,,,,,,,,,,,,,,,,,,,,,,,,,,,,,,,,,,,,,,,,,,,,,11041,2,1,2024_May_31_1435,stroop_task_switching2,2021.2.3,60.174844030664794,
condition/block_mixed,instruction/instr_mixed,instruction/i10,蓝,red,d,diamond,color_mix,颜色,,incompatible,0,,,,,,,,0,2,2,2,0,0,0,0,0,0,0,0,,,,,,,,,,,,,,,,,,,,,341.6385598000197,None,space,7.5560395999928005,341.6385598000197,None,350.21786170001724,351.2206909000233,351.2206909000233,352.22297750000143,352.22297750000143,None,349.23314769999706,350.23507160000736,353.2572894000041,353.47297980001895,353.43950220002444,353.74018459999934,353.74018459999934,None,354.2240154000174,None,d,1,2.242675799992867,354.2240154000174,None,None,None,356.49415390001377,None,,,,,,,,,,,,,,,,,,,,,11041,2,1,2024_May_31_1435,stroop_task_switching2,2021.2.3,60.174844030664794,
condition/block_mixed,instruction/instr_mixed,instruction/i10,绿,yellow,j,diamond,color_mix,颜色,,incompatible,1,,,,,,,,0,2,2,2,0,0,0,0,0,1,1,1,,,,,,,,,,,,,,,,,,,,,,,,,,,,,,,,,,,357.4961978000065,357.69739440002013,357.67934270002297,357.98076299999957,357.98076299999957,None,358.48119980000774,None,j,1,1.0736344000033569,358.48119980000774,None,None,None,359.58192970001255,None,,,,,,,,,,,,,,,,,,,,,11041,2,1,2024_May_31_1435,stroop_task_switching2,2021.2.3,60.174844030664794,
condition/block_mixed,instruction/instr_mixed,instruction/i10,红,green,k,diamond,color_mix,颜色,,incompatible,1,,,,,,,,0,2,2,2,0,0,0,0,0,2,2,2,,,,,,,,,,,,,,,,,,,,,,,,,,,,,,,,,,,360.5839357000077,360.78393570001936,360.7679126000148,361.0682192000095,361.0682192000095,None,361.5689961000171,None,k,1,2.418304299993906,361.5689961000171,None,None,None,364.0053719000134,None,,,,,,,,,,,,,,,,,,,,,11041,2,1,2024_May_31_1435,stroop_task_switching2,2021.2.3,60.174844030664794,
condition/block_mixed,instruction/instr_mixed,instruction/i10,蓝,red,d,diamond,color_mix,颜色,,incompatible,1,,,,,,,,0,2,2,2,0,0,0,0,0,3,3,3,,,,,,,,,,,,,,,,,,,,,,,,,,,,,,,,,,,365.00678600001265,365.20922119999886,365.1906299999973,365.49151110000093,365.49151110000093,None,365.99271079999744,None,d,1,1.9940656000107992,365.99271079999744,None,None,None,368.0116411000199,None,,,,,,,,,,,,,,,,,,,,,11041,2,1,2024_May_31_1435,stroop_task_switching2,2021.2.3,60.174844030664794,
condition/block_mixed,instruction/instr_mixed,instruction/i10,红,blue,f,diamond,color_mix,颜色,,incompatible,1,,,,,,,,0,2,2,2,0,0,0,0,0,4,4,4,,,,,,,,,,,,,,,,,,,,,,,,,,,,,,,,,,,369.0130000000063,369.2139223999984,369.19658740001614,369.4976045000076,369.4976045000076,None,369.997785900021,None,f,1,1.6292295999883208,369.997785900021,None,None,None,371.6506042999972,None,,,,,,,,,,,,,,,,,,,,,11041,2,1,2024_May_31_1435,stroop_task_switching2,2021.2.3,60.174844030664794,
condition/block_mixed,instruction/instr_mixed,instruction/i10,红,blue,d,square,color_mix,单词,,incompatible,2,,,,,,,,0,2,2,2,0,0,0,0,0,5,5,5,,,,,,,,,,,,,,,,,,,,,,,,,,,,,,,,,,,372.6520922000054,372.8521597000072,372.8354007000162,373.13679550000234,373.13679550000234,None,373.6366341999965,None,d,1,0.7747532000066712,373.6366341999965,None,None,None,374.4378043000179,None,,,,,,,,,,,,,,,,,,,,,11041,2,1,2024_May_31_1435,stroop_task_switching2,2021.2.3,60.174844030664794,
condition/block_mixed,instruction/instr_mixed,instruction/i10,红,yellow,j,diamond,color_mix,颜色,,incompatible,2,,,,,,,,0,2,2,2,0,0,0,0,0,6,6,6,,,,,,,,,,,,,,,,,,,,,,,,,,,,,,,,,,,375.4395825000247,375.6395484000095,375.62325060000876,375.92315710001276,375.92315710001276,None,376.4240043000027,None,j,1,0.9951829999918118,376.4240043000027,None,None,None,377.442369700002,None,,,,,,,,,,,,,,,,,,,,,11041,2,1,2024_May_31_1435,stroop_task_switching2,2021.2.3,60.174844030664794,
condition/block_mixed,instruction/instr_mixed,instruction/i10,红,yellow,d,square,color_mix,单词,,incompatible,2,,,,,,,,0,2,2,2,0,0,0,0,0,7,7,7,,,,,,,,,,,,,,,,,,,,,,,,,,,,,,,,,,,378.4449115000025,378.6440523000201,378.627398200013,378.9277929000091,378.9277929000091,None,379.42861160001485,None,d,1,1.4386596999829635,379.42861160001485,None,None,None,380.8973314000177,None,,,,,,,,,,,,,,,,,,,,,11041,2,1,2024_May_31_1435,stroop_task_switching2,2021.2.3,60.174844030664794,
condition/block_mixed,instruction/instr_mixed,instruction/i10,绿,blue,k,square,color_mix,单词,,incompatible,1,,,,,,,,0,2,2,2,0,0,0,0,0,8,8,8,,,,,,,,,,,,,,,,,,,,,,,,,,,,,,,,,,,381.9002529999998,382.09964930001297,382.08352909999667,382.3836614000029,382.3836614000029,None,382.88378050000756,None,f,0,1.9916652000101749,382.88378050000756,None,None,None,384.90350250000483,None,,,,,,,,,,,,,,,,,,,,,11041,2,1,2024_May_31_1435,stroop_task_switching2,2021.2.3,60.174844030664794,
condition/block_mixed,instruction/instr_mixed,instruction/i10,蓝,green,k,diamond,color_mix,颜色,,incompatible,2,,,,,,,,0,2,2,2,0,0,0,0,0,9,9,9,,,,,,,,,,,,,,,,,,,,,,,,,,,,,,,,,,,385.9051052000141,386.1054535000003,386.08938700001454,386.3898332999961,386.3898332999961,None,386.8906472000235,None,k,1,1.4171964999986812,386.8906472000235,None,None,None,388.3253590000095,None,,,,,,,,,,,,,,,,,,,,,11041,2,1,2024_May_31_1435,stroop_task_switching2,2021.2.3,60.174844030664794,
condition/block_mixed,instruction/instr_mixed,instruction/i10,蓝,yellow,f,square,color_mix,单词,,incompatible,2,,,,,,,,0,2,2,2,0,0,0,0,0,10,10,10,,,,,,,,,,,,,,,,,,,,,,,,,,,,,,,,,,,389.3269094999996,389.52817210002104,389.5105656000087,389.81111880001845,389.81111880001845,None,390.3119834000245,None,f,1,2.0756410000030883,390.3119834000245,None,None,None,392.4148754000198,None,,,,,,,,,,,,,,,,,,,,,11041,2,1,2024_May_31_1435,stroop_task_switching2,2021.2.3,60.174844030664794,
condition/block_mixed,instruction/instr_mixed,instruction/i10,蓝,green,f,square,color_mix,单词,,incompatible,1,,,,,,,,0,2,2,2,0,0,0,0,0,11,11,11,,,,,,,,,,,,,,,,,,,,,,,,,,,,,,,,,,,393.4174533000041,393.6169469000015,393.60083870001836,393.9011505000235,393.9011505000235,None,394.4016604000062,None,f,1,1.6828203000186477,394.4016604000062,None,None,None,396.10369560000254,None,,,,,,,,,,,,,,,,,,,,,11041,2,1,2024_May_31_1435,stroop_task_switching2,2021.2.3,60.174844030664794,
condition/block_mixed,instruction/instr_mixed,instruction/i10,绿,yellow,k,square,color_mix,单词,,incompatible,1,,,,,,,,0,2,2,2,0,0,0,0,0,12,12,12,,,,,,,,,,,,,,,,,,,,,,,,,,,,,,,,,,,397.10613850000664,397.3061056000006,397.29029240002274,397.5893713000114,397.5893713000114,None,398.08999269999913,None,k,1,1.3698360999987926,398.08999269999913,None,None,None,399.4755189999996,None,,,,,,,,,,,,,,,,,,,,,11041,2,1,2024_May_31_1435,stroop_task_switching2,2021.2.3,60.174844030664794,
condition/block_mixed,instruction/instr_mixed,instruction/i10,绿,blue,f,diamond,color_mix,颜色,,incompatible,2,,,,,,,,0,2,2,2,0,0,0,0,0,13,13,13,,,,,,,,,,,,,,,,,,,,,,,,,,,,,,,,,,,400.47687280000537,400.67719010001747,400.66180240001995,400.9620266999991,400.9620266999991,None,401.46197669999674,None,k,0,2.069945099996403,401.46197669999674,None,None,None,403.54844150002464,None,,,,,,,,,,,,,,,,,,,,,11041,2,1,2024_May_31_1435,stroop_task_switching2,2021.2.3,60.174844030664794,
condition/block_mixed,instruction/instr_mixed,instruction/i10,黄,red,j,square,color_mix,单词,,incompatible,2,,,,,,,,0,2,2,2,0,0,0,0,0,14,14,14,,,,,,,,,,,,,,,,,,,,,,,,,,,,,,,,,,,404.5495870000159,404.75138329999754,404.7332772000227,405.03390650000074,405.03390650000074,None,405.53532900000573,None,j,1,2.004665799991926,405.53532900000573,None,None,None,407.57112970002345,None,,,,,,,,,,,,,,,,,,,,,11041,2,1,2024_May_31_1435,stroop_task_switching2,2021.2.3,60.174844030664794,
condition/block_mixed,instruction/instr_mixed,instruction/i10,蓝,yellow,j,diamond,color_mix,颜色,,incompatible,2,,,,,,,,0,2,2,2,0,0,0,0,0,15,15,15,,,,,,,,,,,,,,,,,,,,,,,,,,,,,,,,,,,408.5730586000136,408.77329380001174,408.7568333000236,409.0566191000107,409.0566191000107,None,409.557690000016,None,j,1,1.1663476999965496,409.557690000016,None,None,None,410.7422939000244,None,,,,,,,,,,,,,,,,,,,,,11041,2,1,2024_May_31_1435,stroop_task_switching2,2021.2.3,60.174844030664794,
condition/block_mixed,instruction/instr_mixed,instruction/i10,黄,red,d,diamond,color_mix,颜色,,incompatible,1,,,,,,,,0,2,2,2,0,0,0,0,0,16,16,16,,,,,,,,,,,,,,,,,,,,,,,,,,,,,,,,,,,411.7442002000171,411.9443355000112,411.9276490000193,412.2281176999968,412.2281176999968,None,412.7297319000063,None,d,1,2.5068736000102945,412.7297319000063,None,None,None,415.26594390001264,None,,,,,,,,,,,,,,,,,,,,,11041,2,1,2024_May_31_1435,stroop_task_switching2,2021.2.3,60.174844030664794,
condition/block_mixed,instruction/instr_mixed,instruction/i10,绿,red,k,square,color_mix,单词,,incompatible,2,,,,,,,,0,2,2,2,0,0,0,0,0,17,17,17,,,,,,,,,,,,,,,,,,,,,,,,,,,,,,,,,,,416.26736250001704,416.46810850000475,416.4512994000106,416.7531852000102,416.7531852000102,None,417.25363010002184,None,k,1,2.870833399996627,417.25363010002184,None,None,None,420.15669410000555,None,,,,,,,,,,,,,,,,,,,,,11041,2,1,2024_May_31_1435,stroop_task_switching2,2021.2.3,60.174844030664794,
condition/block_mixed,instruction/instr_mixed,instruction/i10,红,green,d,square,color_mix,单词,,incompatible,1,,,,,,,,0,2,2,2,0,0,0,0,0,18,18,18,,,,,,,,,,,,,,,,,,,,,,,,,,,,,,,,,,,421.1583384000114,421.3600751000049,421.3419533999986,421.64269860001514,421.64269860001514,None,422.14291690001846,425.1480075000145,None,0,,422.14291690001846,425.1480075000145,425.1308501000167,None,425.66533250000793,None,,,,,,,,,,,,,,,,,,,,,11041,2,1,2024_May_31_1435,stroop_task_switching2,2021.2.3,60.174844030664794,
condition/block_mixed,instruction/instr_mixed,instruction/i10,黄,blue,f,diamond,color_mix,颜色,,incompatible,2,,,,,,,,0,2,2,2,0,0,0,0,0,19,19,19,,,,,,,,,,,,,,,,,,,,,,,,,,,,,,,,,,,426.666461100016,426.8683912999986,426.85135750001064,427.15231100001256,427.15231100001256,None,427.6512661000015,None,f,1,1.8974605999828782,427.6512661000015,None,None,None,429.5708072000125,None,,,,,,,,,,,,,,,,,,,,,11041,2,1,2024_May_31_1435,stroop_task_switching2,2021.2.3,60.174844030664794,
condition/block_mixed,instruction/instr_mixed,instruction/i10,黄,green,k,diamond,color_mix,颜色,,incompatible,1,,,,,,,,0,2,2,2,0,0,0,0,0,20,20,20,,,,,,,,,,,,,,,,,,,,,,,,,,,,,,,,,,,430.57324550001067,430.77495040002395,430.7558470000222,431.05648160001147,431.05648160001147,None,431.55803890002426,None,k,1,1.566741999995429,431.55803890002426,None,None,None,433.14293450000696,None,,,,,,,,,,,,,,,,,,,,,11041,2,1,2024_May_31_1435,stroop_task_switching2,2021.2.3,60.174844030664794,
condition/block_mixed,instruction/instr_mixed,instruction/i10,黄,green,j,square,color_mix,单词,,incompatible,2,,,,,,,,0,2,2,2,0,0,0,0,0,21,21,21,,,,,,,,,,,,,,,,,,,,,,,,,,,,,,,,,,,434.1451750000124,434.34476430001087,434.32837200001813,434.6286534999963,434.6286534999963,None,435.12917050000397,None,j,1,1.5875081999984104,435.12917050000397,None,None,None,436.73186290002195,None,,,,,,,,,,,,,,,,,,,,,11041,2,1,2024_May_31_1435,stroop_task_switching2,2021.2.3,60.174844030664794,
condition/block_mixed,instruction/instr_mixed,instruction/i10,黄,blue,j,square,color_mix,单词,,incompatible,1,,,,,,,,0,2,2,2,0,0,0,0,0,22,22,22,,,,,,,,,,,,,,,,,,,,,,,,,,,,,,,,,,,437.733154800022,437.93389939999906,437.91679170000134,438.21743089999654,438.21743089999654,None,438.7183233000105,None,j,1,1.0386544000066351,438.7183233000105,None,None,None,439.786479900009,None,,,,,,,,,,,,,,,,,,,,,11041,2,1,2024_May_31_1435,stroop_task_switching2,2021.2.3,60.174844030664794,
condition/block_mixed,instruction/instr_mixed,instruction/i10,蓝,red,f,square,color_mix,单词,,incompatible,1,,,,,,,,0,2,2,2,0,0,0,0,0,23,23,23,,,,,,,,,,,,,,,,,,,,,,,,,,,,,,,,,,,440.78785049999715,440.98867340001743,440.97234720000415,441.2724085000227,441.2724085000227,None,441.7725537000224,None,f,1,2.4006434000039008,441.7725537000224,None,None,None,444.19288370001595,None,,,,,,,,,,,,,,,,,,,,,11041,2,1,2024_May_31_1435,stroop_task_switching2,2021.2.3,60.174844030664794,
condition/block_mixed,instruction/instr_mixed,instruction/i10,绿,red,d,diamond,color_mix,颜色,,incompatible,2,,,,,,,,0,2,2,2,0,0,0,0,0,24,24,24,,,,,,,,,,,,,,,,,,,,,,,,,,,,,,,,,,,445.1950770000112,445.39519550002296,445.37834210001165,445.68035770001006,445.68035770001006,None,446.18030960002216,None,d,1,1.0327780000225175,446.18030960002216,None,None,None,447.2308045999962,None,,,,,,,,,,,,,,,,,,,,,11041,2,1,2024_May_31_1435,stroop_task_switching2,2021.2.3,60.174844030664794,
condition/block_mixed,instruction/instr_mixed,instruction/i10,绿,green,k,diamond,color_mix,颜色,,compatible,1,,,,,,,,0,2,2,2,0,0,0,0,0,25,25,25,,,,,,,,,,,,,,,,,,,,,,,,,,,,,,,,,,,448.23238530001254,448.43264310000814,448.41654410000774,448.71633130000555,448.71633130000555,None,449.21734450000804,None,k,1,1.2036976999952458,449.21734450000804,None,None,None,450.4523874000006,None,,,,,,,,,,,,,,,,,,,,,11041,2,1,2024_May_31_1435,stroop_task_switching2,2021.2.3,60.174844030664794,
condition/block_mixed,instruction/instr_mixed,instruction/i10,蓝,blue,f,diamond,color_mix,颜色,,compatible,1,,,,,,,,0,2,2,2,0,0,0,0,0,26,26,26,,,,,,,,,,,,,,,,,,,,,,,,,,,,,,,,,,,451.45387540000957,451.6554942000075,451.6374743000197,451.93805430000066,451.93805430000066,None,452.4387726999994,None,f,1,0.9106193000043277,452.4387726999994,None,None,None,453.3740184000053,None,,,,,,,,,,,,,,,,,,,,,11041,2,1,2024_May_31_1435,stroop_task_switching2,2021.2.3,60.174844030664794,
condition/block_mixed,instruction/instr_mixed,instruction/i10,绿,green,k,square,color_mix,单词,,compatible,2,,,,,,,,0,2,2,2,0,0,0,0,0,27,27,27,,,,,,,,,,,,,,,,,,,,,,,,,,,,,,,,,,,454.3752761000069,454.5760223999969,454.5595019000175,454.859840500023,454.859840500023,None,455.3597509000101,None,k,1,1.4374584000033792,455.3597509000101,None,None,None,456.8285902000207,None,,,,,,,,,,,,,,,,,,,,,11041,2,1,2024_May_31_1435,stroop_task_switching2,2021.2.3,60.174844030664794,
condition/block_mixed,instruction/instr_mixed,instruction/i10,绿,green,k,square,color_mix,单词,,compatible,1,,,,,,,,0,2,2,2,0,0,0,0,0,28,28,28,,,,,,,,,,,,,,,,,,,,,,,,,,,,,,,,,,,457.83008240000345,458.0314673000248,458.0138478000008,458.31431800001883,458.31431800001883,None,458.8146912000084,None,k,1,0.894775299995672,458.8146912000084,None,None,None,459.73307580000255,None,,,,,,,,,,,,,,,,,,,,,11041,2,1,2024_May_31_1435,stroop_task_switching2,2021.2.3,60.174844030664794,
condition/block_mixed,instruction/instr_mixed,instruction/i10,蓝,blue,f,square,color_mix,单词,,compatible,1,,,,,,,,0,2,2,2,0,0,0,0,0,29,29,29,,,,,,,,,,,,,,,,,,,,,,,,,,,,,,,,,,,460.735190300009,460.93564820001484,460.91800900001545,461.2187197000021,461.2187197000021,None,461.7207877000037,None,f,1,1.0207408999849577,461.7207877000037,None,None,None,462.7709599000227,None,,,,,,,,,,,,,,,,,,,,,11041,2,1,2024_May_31_1435,stroop_task_switching2,2021.2.3,60.174844030664794,
condition/block_mixed,instruction/instr_mixed,instruction/i10,黄,yellow,j,diamond,color_mix,颜色,,compatible,2,,,,,,,,0,2,2,2,0,0,0,0,0,30,30,30,,,,,,,,,,,,,,,,,,,,,,,,,,,,,,,,,,,463.7722420000064,463.9726976000238,463.95657520001987,464.2570057999983,464.2570057999983,None,464.7572174000088,None,j,1,0.8885887000069488,464.7572174000088,None,None,None,465.67554340002243,None,,,,,,,,,,,,,,,,,,,,,11041,2,1,2024_May_31_1435,stroop_task_switching2,2021.2.3,60.174844030664794,
condition/block_mixed,instruction/instr_mixed,instruction/i10,绿,green,k,square,color_mix,单词,,compatible,2,,,,,,,,0,2,2,2,0,0,0,0,0,31,31,31,,,,,,,,,,,,,,,,,,,,,,,,,,,,,,,,,,,466.67719710001256,466.8770320000185,466.8607651000202,467.1614633999998,467.1614633999998,None,467.6615228000155,None,k,1,1.5526191999961156,467.6615228000155,None,None,None,469.23077880000346,None,,,,,,,,,,,,,,,,,,,,,11041,2,1,2024_May_31_1435,stroop_task_switching2,2021.2.3,60.174844030664794,
condition/block_mixed,instruction/instr_mixed,instruction/i10,黄,yellow,j,square,color_mix,单词,,compatible,1,,,,,,,,0,2,2,2,0,0,0,0,0,32,32,32,,,,,,,,,,,,,,,,,,,,,,,,,,,,,,,,,,,470.23240490001626,470.4337846999988,470.4159752000123,470.71619940001983,470.71619940001983,None,471.21713050000835,None,j,1,0.7975329000037163,471.21713050000835,None,None,None,472.0347027000098,None,,,,,,,,,,,,,,,,,,,,,11041,2,1,2024_May_31_1435,stroop_task_switching2,2021.2.3,60.174844030664794,
condition/block_mixed,instruction/instr_mixed,instruction/i10,绿,green,k,diamond,color_mix,颜色,,compatible,2,,,,,,,,0,2,2,2,0,0,0,0,0,33,33,33,,,,,,,,,,,,,,,,,,,,,,,,,,,,,,,,,,,473.0364475000242,473.2367723000061,473.22119750001,473.5204272000119,473.5204272000119,None,474.02106490000733,None,k,1,1.2410158999846317,474.02106490000733,None,None,None,475.2898930000083,None,,,,,,,,,,,,,,,,,,,,,11041,2,1,2024_May_31_1435,stroop_task_switching2,2021.2.3,60.174844030664794,
condition/block_mixed,instruction/instr_mixed,instruction/i10,红,red,d,square,color_mix,单词,,compatible,2,,,,,,,,0,2,2,2,0,0,0,0,0,34,34,34,,,,,,,,,,,,,,,,,,,,,,,,,,,,,,,,,,,476.29167289999896,476.4931945000135,476.4750011000142,476.7767412000103,476.7767412000103,None,477.2762129000039,None,d,1,0.6575656999775674,477.2762129000039,None,None,None,477.96047010002076,None,,,,,,,,,,,,,,,,,,,,,11041,2,1,2024_May_31_1435,stroop_task_switching2,2021.2.3,60.174844030664794,
condition/block_mixed,instruction/instr_mixed,instruction/i10,黄,yellow,j,square,color_mix,单词,,compatible,1,,,,,,,,0,2,2,2,0,0,0,0,0,35,35,35,,,,,,,,,,,,,,,,,,,,,,,,,,,,,,,,,,,478.961944700015,479.1622083999973,479.1454999000125,479.4462373999995,479.4462373999995,None,479.94668910000473,None,j,1,0.9726388000126462,479.94668910000473,None,None,None,480.9483872000128,None,,,,,,,,,,,,,,,,,,,,,11041,2,1,2024_May_31_1435,stroop_task_switching2,2021.2.3,60.174844030664794,
condition/block_mixed,instruction/instr_mixed,instruction/i10,绿,green,k,diamond,color_mix,颜色,,compatible,2,,,,,,,,0,2,2,2,0,0,0,0,0,36,36,36,,,,,,,,,,,,,,,,,,,,,,,,,,,,,,,,,,,481.9506927000184,482.15093410000554,482.1342128000106,482.4345790000225,482.4345790000225,None,482.9346589000197,None,k,1,0.6954793999902904,482.9346589000197,None,None,None,483.65240570000606,None,,,,,,,,,,,,,,,,,,,,,11041,2,1,2024_May_31_1435,stroop_task_switching2,2021.2.3,60.174844030664794,
condition/block_mixed,instruction/instr_mixed,instruction/i10,蓝,blue,f,square,color_mix,单词,,compatible,2,,,,,,,,0,2,2,2,0,0,0,0,0,37,37,37,,,,,,,,,,,,,,,,,,,,,,,,,,,,,,,,,,,484.6540477000235,484.8548765000014,484.8377426000079,485.1380209000199,485.1380209000199,None,485.6391299000243,None,f,1,0.998933799972292,485.6391299000243,None,None,None,486.6569107999967,None,,,,,,,,,,,,,,,,,,,,,11041,2,1,2024_May_31_1435,stroop_task_switching2,2021.2.3,60.174844030664794,
condition/block_mixed,instruction/instr_mixed,instruction/i10,红,red,d,square,color_mix,单词,,compatible,1,,,,,,,,0,2,2,2,0,0,0,0,0,38,38,38,,,,,,,,,,,,,,,,,,,,,,,,,,,,,,,,,,,487.65926400001626,487.86008199999924,487.8432447000232,488.14382970001316,488.14382970001316,None,488.6433264000225,None,d,1,1.0350238000100944,488.6433264000225,None,None,None,489.69494010001654,None,,,,,,,,,,,,,,,,,,,,,11041,2,1,2024_May_31_1435,stroop_task_switching2,2021.2.3,60.174844030664794,
condition/block_mixed,instruction/instr_mixed,instruction/i10,黄,yellow,j,diamond,color_mix,颜色,,compatible,2,,,,,,,,0,2,2,2,0,0,0,0,0,39,39,39,,,,,,,,,,,,,,,,,,,,,,,,,,,,,,,,,,,490.6963902999996,490.8968869000091,490.88021190001746,491.18179370000144,491.18179370000144,None,491.68135980001534,None,j,1,0.7332030000106897,491.68135980001534,None,None,None,492.43227879999904,None,,,,,,,,,,,,,,,,,,,,,11041,2,1,2024_May_31_1435,stroop_task_switching2,2021.2.3,60.174844030664794,
condition/block_mixed,instruction/instr_mixed,instruction/i10,黄,yellow,j,square,color_mix,单词,,compatible,2,,,,,,,,0,2,2,2,0,0,0,0,0,40,40,40,,,,,,,,,,,,,,,,,,,,,,,,,,,,,,,,,,,493.43378300001496,493.6348098000162,493.61825200001476,493.9185635000176,493.9185635000176,None,494.4187276000157,None,j,1,0.9317628999997396,494.4187276000157,None,None,None,495.3700672000123,None,,,,,,,,,,,,,,,,,,,,,11041,2,1,2024_May_31_1435,stroop_task_switching2,2021.2.3,60.174844030664794,
condition/block_mixed,instruction/instr_mixed,instruction/i10,蓝,blue,f,square,color_mix,单词,,compatible,1,,,,,,,,0,2,2,2,0,0,0,0,0,41,41,41,,,,,,,,,,,,,,,,,,,,,,,,,,,,,,,,,,,496.37320770000224,496.5889260999975,496.55524030001834,496.85678790000384,496.85678790000384,None,497.3572604000219,None,f,1,1.0092447999923024,497.3572604000219,None,None,None,498.39159360001213,None,,,,,,,,,,,,,,,,,,,,,11041,2,1,2024_May_31_1435,stroop_task_switching2,2021.2.3,60.174844030664794,
condition/block_mixed,instruction/instr_mixed,instruction/i10,蓝,blue,f,diamond,color_mix,颜色,,compatible,2,,,,,,,,0,2,2,2,0,0,0,0,0,42,42,42,,,,,,,,,,,,,,,,,,,,,,,,,,,,,,,,,,,499.3928845000046,499.59312299999874,499.5767180999974,499.8792372000171,499.8792372000171,None,500.39431070000865,None,f,1,0.844166499999119,500.39431070000865,None,None,None,501.26227390000713,None,,,,,,,,,,,,,,,,,,,,,11041,2,1,2024_May_31_1435,stroop_task_switching2,2021.2.3,60.174844030664794,
condition/block_mixed,instruction/instr_mixed,instruction/i10,黄,yellow,j,diamond,color_mix,颜色,,compatible,1,,,,,,,,0,2,2,2,0,0,0,0,0,43,43,43,,,,,,,,,,,,,,,,,,,,,,,,,,,,,,,,,,,502.2640750000137,502.4640611000068,502.4473394000088,502.748642200022,502.748642200022,None,503.24882010000874,None,j,1,0.6460538000101224,503.24882010000874,None,None,None,503.9162550000183,None,,,,,,,,,,,,,,,,,,,,,11041,2,1,2024_May_31_1435,stroop_task_switching2,2021.2.3,60.174844030664794,
condition/block_mixed,instruction/instr_mixed,instruction/i10,红,red,d,diamond,color_mix,颜色,,compatible,1,,,,,,,,0,2,2,2,0,0,0,0,0,44,44,44,,,,,,,,,,,,,,,,,,,,,,,,,,,,,,,,,,,504.91820200000075,505.11866570002167,505.101782200014,505.4036696999974,505.4036696999974,None,505.903423700016,None,d,1,0.6239045000111219,505.903423700016,None,None,None,506.55358730000444,None,,,,,,,,,,,,,,,,,,,,,11041,2,1,2024_May_31_1435,stroop_task_switching2,2021.2.3,60.174844030664794,
condition/block_mixed,instruction/instr_mixed,instruction/i10,蓝,blue,f,diamond,color_mix,颜色,,compatible,1,,,,,,,,0,2,2,2,0,0,0,0,0,45,45,45,,,,,,,,,,,,,,,,,,,,,,,,,,,,,,,,,,,507.5560189000098,507.75778050001827,507.7390817000123,508.0403567000176,508.0403567000176,None,508.5403603000159,None,f,1,1.0829620999866165,508.5403603000159,None,None,None,509.64161550000426,None,,,,,,,,,,,,,,,,,,,,,11041,2,1,2024_May_31_1435,stroop_task_switching2,2021.2.3,60.174844030664794,
condition/block_mixed,instruction/instr_mixed,instruction/i10,红,red,d,diamond,color_mix,颜色,,compatible,1,,,,,,,,0,2,2,2,0,0,0,0,0,46,46,46,,,,,,,,,,,,,,,,,,,,,,,,,,,,,,,,,,,510.6439220000175,510.8447609000141,510.82682630000636,511.12919850001344,511.12919850001344,None,511.62789299999713,None,d,1,0.9710361000034027,511.62789299999713,None,None,None,512.6293921000033,None,,,,,,,,,,,,,,,,,,,,,11041,2,1,2024_May_31_1435,stroop_task_switching2,2021.2.3,60.174844030664794,
condition/block_mixed,instruction/instr_mixed,instruction/i10,红,red,d,square,color_mix,单词,,compatible,2,,,,,,,,0,2,2,2,0,0,0,0,0,47,47,47,,,,,,,,,,,,,,,,,,,,,,,,,,,,,,,,,,,513.6309463000216,513.8310411999992,513.8165902000037,514.1317098000145,514.1150430999987,None,514.616111100011,None,d,1,0.735018500010483,514.616111100011,None,None,None,515.366921000008,None,,,,,,,,,,,,,,,,,,,,,11041,2,1,2024_May_31_1435,stroop_task_switching2,2021.2.3,60.174844030664794,
condition/block_mixed,instruction/instr_mixed,instruction/i10,红,red,d,diamond,color_mix,颜色,,compatible,2,,,,,,,,0,2,2,2,0,0,0,0,0,48,48,48,,,,,,,,,,,,,,,,,,,,,,,,,,,,,,,,,,,516.3684967000154,516.5696219000092,516.5520550000074,516.8530632000184,516.8530632000184,None,517.3532815000217,None,d,1,0.9587910000118427,517.3532815000217,None,None,None,518.3379890000215,None,,,,,,,,,,,,,,,,,,,,,11041,2,1,2024_May_31_1435,stroop_task_switching2,2021.2.3,60.174844030664794,
condition/block_mixed,instruction/instr_mixed,instruction/i10,,,,,,,,,,,,,,,,,0,2,2,2,0,0,0,0,,,,,,,,,,,,,,,,,,,,,,,,,,,,,,,,,,,,,,,,,,,,,,,,,,,,,,,,519.3394940000144,None,space,32.55655290000141,519.3394940000144,None,,,,,,,,,,,,,,,11041,2,1,2024_May_31_1435,stroop_task_switching2,2021.2.3,60.174844030664794,
condition/block_mixed,instruction/instr_mixed,instruction/i10,,,,,,,,,,,,,,,,,0,2,2,2,,,,,,,,,,,,,,,,,,,,,,,,,,,,,,,,,,,,,,,,,,,,,,,,,,,,,,,,,,,,,,,,,,,,,,,,,,,,,,,,11041,2,1,2024_May_31_1435,stroop_task_switching2,2021.2.3,60.174844030664794,
,,,红,red,d,square,color_mix,单词,,compatible,0,block_switch1,instruction/ready_test.png,instruction/i11.png,,,,,,,,,,,,,,,,,0,0,0,0,0,0,0,0,,,,,,,,,,,,,,,,,,,556.1470304999966,557.1475199999986,557.1475199999986,558.1480669000011,558.1480669000011,None,555.1601335000014,556.1615680000104,559.1657463000156,559.3666775000165,559.3666775000165,559.6683658999973,559.6683658999973,None,560.1685151999991,None,d,1,1.0716388000000734,560.1685151999991,None,None,None,,,,,,,,,551.9557480000076,None,space,3.1800292000116315,551.9557480000076,None,,,,,,,,,11041,2,1,2024_May_31_1435,stroop_task_switching2,2021.2.3,60.174844030664794,
,,,绿,green,k,diamond,color_mix,颜色,,compatible,2,block_switch1,instruction/ready_test.png,instruction/i11.png,,,,,,,,,,,,,,,,,0,0,0,0,0,1,1,1,,,,,,,,,,,,,,,,,,,,,,,,,,,561.269471800013,561.47071590001,561.4531091000244,561.7549679000222,561.7549679000222,None,562.2540488000086,None,k,1,0.70624569998472,562.2540488000086,None,None,None,,,,,,,,,,,,,,,,,,,,,,,11041,2,1,2024_May_31_1435,stroop_task_switching2,2021.2.3,60.174844030664794,
,,,绿,yellow,j,diamond,color_mix,颜色,,incompatible,1,block_switch1,instruction/ready_test.png,instruction/i11.png,,,,,,,,,,,,,,,,,0,0,0,0,0,2,2,2,,,,,,,,,,,,,,,,,,,,,,,,,,,562.988744000002,563.1911830000172,563.1722632000165,563.4733802000119,563.4733802000119,None,563.9753245000029,None,j,1,1.6730037999805063,563.9753245000029,None,None,None,,,,,,,,,,,,,,,,,,,,,,,11041,2,1,2024_May_31_1435,stroop_task_switching2,2021.2.3,60.174844030664794,
,,,蓝,blue,f,diamond,color_mix,颜色,,compatible,1,block_switch1,instruction/ready_test.png,instruction/i11.png,,,,,,,,,,,,,,,,,0,0,0,0,0,3,3,3,,,,,,,,,,,,,,,,,,,,,,,,,,,565.676083600003,565.8764338000037,565.8609661000082,566.1601604000025,566.1601604000025,None,566.6609545999963,None,f,1,0.9797396999783814,566.6609545999963,None,None,None,,,,,,,,,,,,,,,,,,,,,,,11041,2,1,2024_May_31_1435,stroop_task_switching2,2021.2.3,60.174844030664794,
,,,绿,green,k,square,color_mix,单词,,compatible,2,block_switch1,instruction/ready_test.png,instruction/i11.png,,,,,,,,,,,,,,,,,0,0,0,0,0,4,4,4,,,,,,,,,,,,,,,,,,,,,,,,,,,567.6627493000124,567.8640710000182,567.8459854999965,568.1465717000247,568.1465717000247,None,568.6478731000097,None,k,1,0.7367245000205003,568.6478731000097,None,None,None,,,,,,,,,,,,,,,,,,,,,,,11041,2,1,2024_May_31_1435,stroop_task_switching2,2021.2.3,60.174844030664794,
,,,绿,blue,f,diamond,color_mix,颜色,,incompatible,2,block_switch1,instruction/ready_test.png,instruction/i11.png,,,,,,,,,,,,,,,,,0,0,0,0,0,5,5,5,,,,,,,,,,,,,,,,,,,,,,,,,,,569.4149908999971,569.6159844000067,569.5985316000006,569.9005900000047,569.9005900000047,None,570.3999761000159,None,f,1,1.3125204000098165,570.3999761000159,None,None,None,,,,,,,,,,,,,,,,,,,,,,,11041,2,1,2024_May_31_1435,stroop_task_switching2,2021.2.3,60.174844030664794,
,,,黄,red,j,square,color_mix,单词,,incompatible,2,block_switch1,instruction/ready_test.png,instruction/i11.png,,,,,,,,,,,,,,,,,0,0,0,0,0,6,6,6,,,,,,,,,,,,,,,,,,,,,,,,,,,571.7352099000127,571.9355370000121,571.9189296000113,572.220238400012,572.220238400012,None,572.7199776000052,None,j,1,1.6806185000168625,572.7199776000052,None,None,None,,,,,,,,,,,,,,,,,,,,,,,11041,2,1,2024_May_31_1435,stroop_task_switching2,2021.2.3,60.174844030664794,
,,,绿,green,k,square,color_mix,单词,,compatible,1,block_switch1,instruction/ready_test.png,instruction/i11.png,,,,,,,,,,,,,,,,,0,0,0,0,0,7,7,7,,,,,,,,,,,,,,,,,,,,,,,,,,,574.4227232999983,574.6241277000227,574.606360100006,574.9077964000171,574.9077964000171,None,575.4085763000185,None,k,1,0.6641161000006832,575.4085763000185,None,None,None,,,,,,,,,,,,,,,,,,,,,,,11041,2,1,2024_May_31_1435,stroop_task_switching2,2021.2.3,60.174844030664794,
,,,蓝,blue,f,square,color_mix,单词,,compatible,1,block_switch1,instruction/ready_test.png,instruction/i11.png,,,,,,,,,,,,,,,,,0,0,0,0,0,8,8,8,,,,,,,,,,,,,,,,,,,,,,,,,,,576.0918069000181,576.2920226000133,576.2761925000232,576.5758723000181,576.5758723000181,None,577.0767182999989,None,f,1,0.8757696999819018,577.0767182999989,None,None,None,,,,,,,,,,,,,,,,,,,,,,,11041,2,1,2024_May_31_1435,stroop_task_switching2,2021.2.3,60.174844030664794,
,,,红,red,d,diamond,color_mix,颜色,,compatible,2,block_switch1,instruction/ready_test.png,instruction/i11.png,,,,,,,,,,,,,,,,,0,0,0,0,0,9,9,9,,,,,,,,,,,,,,,,,,,,,,,,,,,577.9780155000044,578.1807570000237,578.1621433999971,578.4635054000246,578.4635054000246,None,578.9627549000143,None,d,1,0.6781211000052281,578.9627549000143,None,None,None,,,,,,,,,,,,,,,,,,,,,,,11041,2,1,2024_May_31_1435,stroop_task_switching2,2021.2.3,60.174844030664794,
,,,黄,yellow,j,diamond,color_mix,颜色,,compatible,1,block_switch1,instruction/ready_test.png,instruction/i11.png,,,,,,,,,,,,,,,,,0,0,0,0,0,10,10,10,,,,,,,,,,,,,,,,,,,,,,,,,,,579.6640131000022,579.8650511000014,579.8474746000138,580.1484068999998,580.1484068999998,None,580.6498804000148,None,j,1,1.014837399998214,580.6498804000148,None,None,None,,,,,,,,,,,,,,,,,,,,,,,11041,2,1,2024_May_31_1435,stroop_task_switching2,2021.2.3,60.174844030664794,
,,,绿,green,k,square,color_mix,单词,,compatible,2,block_switch1,instruction/ready_test.png,instruction/i11.png,,,,,,,,,,,,,,,,,0,0,0,0,0,11,11,11,,,,,,,,,,,,,,,,,,,,,,,,,,,581.6836366000061,581.8838341000082,581.8671674000216,582.1678774000029,582.1678774000029,None,582.6700086000201,None,k,1,0.6906868999940343,582.6700086000201,None,None,None,,,,,,,,,,,,,,,,,,,,,,,11041,2,1,2024_May_31_1435,stroop_task_switching2,2021.2.3,60.174844030664794,
,,,红,red,d,diamond,color_mix,颜色,,compatible,2,block_switch1,instruction/ready_test.png,instruction/i11.png,,,,,,,,,,,,,,,,,0,0,0,0,0,12,12,12,,,,,,,,,,,,,,,,,,,,,,,,,,,583.3861928000115,583.5865316000127,583.5698714000173,583.8703004000126,583.8703004000126,None,584.3709292999993,None,d,1,0.8781215000199154,584.3709292999993,None,None,None,,,,,,,,,,,,,,,,,,,,,,,11041,2,1,2024_May_31_1435,stroop_task_switching2,2021.2.3,60.174844030664794,
,,,红,red,d,diamond,color_mix,颜色,,compatible,1,block_switch1,instruction/ready_test.png,instruction/i11.png,,,,,,,,,,,,,,,,,0,0,0,0,0,13,13,13,,,,,,,,,,,,,,,,,,,,,,,,,,,585.272205700021,585.4726784000231,585.4559447000211,585.7564695000183,585.7564695000183,None,586.2575148000033,None,d,1,0.5993110999988858,586.2575148000033,None,None,None,,,,,,,,,,,,,,,,,,,,,,,11041,2,1,2024_May_31_1435,stroop_task_switching2,2021.2.3,60.174844030664794,
,,,黄,yellow,j,square,color_mix,单词,,compatible,2,block_switch1,instruction/ready_test.png,instruction/i11.png,,,,,,,,,,,,,,,,,0,0,0,0,0,14,14,14,,,,,,,,,,,,,,,,,,,,,,,,,,,586.8748540000233,587.0754875999992,587.0593437000061,587.3589749000093,587.3589749000093,None,587.8596154999977,None,j,1,0.685190899996087,587.8596154999977,None,None,None,,,,,,,,,,,,,,,,,,,,,,,11041,2,1,2024_May_31_1435,stroop_task_switching2,2021.2.3,60.174844030664794,
,,,红,green,k,diamond,color_mix,颜色,,incompatible,2,block_switch1,instruction/ready_test.png,instruction/i11.png,,,,,,,,,,,,,,,,,0,0,0,0,0,15,15,15,,,,,,,,,,,,,,,,,,,,,,,,,,,588.5605937000073,588.7624437000195,588.7442465000204,589.046224300022,589.046224300022,None,589.5461178999976,None,k,1,1.606909199996153,589.5461178999976,None,None,None,,,,,,,,,,,,,,,,,,,,,,,11041,2,1,2024_May_31_1435,stroop_task_switching2,2021.2.3,60.174844030664794,
,,,蓝,red,d,diamond,color_mix,颜色,,incompatible,1,block_switch1,instruction/ready_test.png,instruction/i11.png,,,,,,,,,,,,,,,,,0,0,0,0,0,16,16,16,,,,,,,,,,,,,,,,,,,,,,,,,,,591.1812881000224,591.3824075000011,591.365056700015,591.6657524000038,591.6657524000038,None,592.1661453999986,None,d,1,2.170952300017234,592.1661453999986,None,None,None,,,,,,,,,,,,,,,,,,,,,,,11041,2,1,2024_May_31_1435,stroop_task_switching2,2021.2.3,60.174844030664794,
,,,黄,green,k,diamond,color_mix,颜色,,incompatible,1,block_switch1,instruction/ready_test.png,instruction/i11.png,,,,,,,,,,,,,,,,,0,0,0,0,0,17,17,17,,,,,,,,,,,,,,,,,,,,,,,,,,,594.3525046000141,594.5538460000244,594.537536000018,594.8375359000056,594.8375359000056,None,595.3376122000045,None,k,1,1.2234269000182394,595.3376122000045,None,None,None,,,,,,,,,,,,,,,,,,,,,,,11041,2,1,2024_May_31_1435,stroop_task_switching2,2021.2.3,60.174844030664794,
,,,绿,green,k,diamond,color_mix,颜色,,compatible,1,block_switch1,instruction/ready_test.png,instruction/i11.png,,,,,,,,,,,,,,,,,0,0,0,0,0,18,18,18,,,,,,,,,,,,,,,,,,,,,,,,,,,596.5892276000232,596.7904030000209,596.7730560000055,597.073988100019,597.073988100019,None,597.5745226000145,None,k,1,0.6673731000046246,597.5745226000145,None,None,None,,,,,,,,,,,,,,,,,,,,,,,11041,2,1,2024_May_31_1435,stroop_task_switching2,2021.2.3,60.174844030664794,
,,,黄,red,d,diamond,color_mix,颜色,,incompatible,1,block_switch1,instruction/ready_test.png,instruction/i11.png,,,,,,,,,,,,,,,,,0,0,0,0,0,19,19,19,,,,,,,,,,,,,,,,,,,,,,,,,,,598.2588185000059,598.4607328000129,598.4426642000035,598.742742500006,598.742742500006,None,599.2433917000017,None,d,1,0.9741061999811791,599.2433917000017,None,None,None,,,,,,,,,,,,,,,,,,,,,,,11041,2,1,2024_May_31_1435,stroop_task_switching2,2021.2.3,60.174844030664794,
,,,绿,yellow,k,square,color_mix,单词,,incompatible,2,block_switch1,instruction/ready_test.png,instruction/i11.png,,,,,,,,,,,,,,,,,0,0,0,0,0,20,20,20,,,,,,,,,,,,,,,,,,,,,,,,,,,600.2450262000202,600.4459459000209,600.4284811000107,600.7302192000207,600.7302192000207,None,601.2302024000091,None,k,1,1.0193362999998499,601.2302024000091,None,None,None,,,,,,,,,,,,,,,,,,,,,,,11041,2,1,2024_May_31_1435,stroop_task_switching2,2021.2.3,60.174844030664794,
,,,绿,yellow,j,diamond,color_mix,颜色,,incompatible,2,block_switch1,instruction/ready_test.png,instruction/i11.png,,,,,,,,,,,,,,,,,0,0,0,0,0,21,21,21,,,,,,,,,,,,,,,,,,,,,,,,,,,602.2814459000074,602.4818182000017,602.465969700017,602.766524000006,602.766524000006,None,603.2668626000232,None,j,1,1.0945314999844413,603.2668626000232,None,None,None,,,,,,,,,,,,,,,,,,,,,,,11041,2,1,2024_May_31_1435,stroop_task_switching2,2021.2.3,60.174844030664794,
,,,绿,green,k,square,color_mix,单词,,compatible,2,block_switch1,instruction/ready_test.png,instruction/i11.png,,,,,,,,,,,,,,,,,0,0,0,0,0,22,22,22,,,,,,,,,,,,,,,,,,,,,,,,,,,604.3845399999991,604.5864906000206,604.5682167000195,604.8691018000245,604.8691018000245,None,605.369268600014,None,k,1,0.8882515000004787,605.369268600014,None,None,None,,,,,,,,,,,,,,,,,,,,,,,11041,2,1,2024_May_31_1435,stroop_task_switching2,2021.2.3,60.174844030664794,
,,,红,red,d,square,color_mix,单词,,compatible,1,block_switch1,instruction/ready_test.png,instruction/i11.png,,,,,,,,,,,,,,,,,0,0,0,0,0,23,23,23,,,,,,,,,,,,,,,,,,,,,,,,,,,606.2875771000108,606.4876915000204,606.4727621000202,606.7713174000091,606.7713174000091,None,607.2723849000176,None,d,1,1.9381780999829061,607.2723849000176,None,None,None,,,,,,,,,,,,,,,,,,,,,,,11041,2,1,2024_May_31_1435,stroop_task_switching2,2021.2.3,60.174844030664794,
,,,黄,green,j,square,color_mix,单词,,incompatible,1,block_switch1,instruction/ready_test.png,instruction/i11.png,,,,,,,,,,,,,,,,,0,0,0,0,0,24,24,24,,,,,,,,,,,,,,,,,,,,,,,,,,,609.2251548000204,609.4270348999999,609.4086274000001,609.7098065000027,609.7098065000027,None,610.2099156000186,None,j,1,1.1194538999989163,610.2099156000186,None,None,None,,,,,,,,,,,,,,,,,,,,,,,11041,2,1,2024_May_31_1435,stroop_task_switching2,2021.2.3,60.174844030664794,
,,,红,blue,d,square,color_mix,单词,,incompatible,1,block_switch1,instruction/ready_test.png,instruction/i11.png,,,,,,,,,,,,,,,,,0,0,0,0,0,25,25,25,,,,,,,,,,,,,,,,,,,,,,,,,,,611.3450620000076,611.5454655000067,611.5308319000178,611.8457862000214,611.8310209000192,None,612.3297906000225,None,d,1,1.208018200006336,612.3297906000225,None,None,None,,,,,,,,,,,,,,,,,,,,,,,11041,2,1,2024_May_31_1435,stroop_task_switching2,2021.2.3,60.174844030664794,
,,,黄,yellow,j,square,color_mix,单词,,compatible,1,block_switch1,instruction/ready_test.png,instruction/i11.png,,,,,,,,,,,,,,,,,0,0,0,0,0,26,26,26,,,,,,,,,,,,,,,,,,,,,,,,,,,613.5653150000144,613.7669531000138,613.7485987000109,614.0496007000038,614.0496007000038,None,614.5497614000051,None,j,1,0.7238733999838587,614.5497614000051,None,None,None,,,,,,,,,,,,,,,,,,,,,,,11041,2,1,2024_May_31_1435,stroop_task_switching2,2021.2.3,60.174844030664794,
,,,蓝,green,f,square,color_mix,单词,,incompatible,1,block_switch1,instruction/ready_test.png,instruction/i11.png,,,,,,,,,,,,,,,,,0,0,0,0,0,27,27,27,,,,,,,,,,,,,,,,,,,,,,,,,,,615.3009408000216,615.5012812000059,615.4845987000153,615.7849814000074,615.7849814000074,None,616.2856384000042,None,f,1,0.7328692000010051,616.2856384000042,None,None,None,,,,,,,,,,,,,,,,,,,,,,,11041,2,1,2024_May_31_1435,stroop_task_switching2,2021.2.3,60.174844030664794,
,,,绿,green,k,diamond,color_mix,颜色,,compatible,2,block_switch1,instruction/ready_test.png,instruction/i11.png,,,,,,,,,,,,,,,,,0,0,0,0,0,28,28,28,,,,,,,,,,,,,,,,,,,,,,,,,,,617.036978100019,617.2380384000135,617.220496599999,617.5221280000114,617.5221280000114,None,618.0230854999973,None,k,1,0.7865823000029195,618.0230854999973,None,None,None,,,,,,,,,,,,,,,,,,,,,,,11041,2,1,2024_May_31_1435,stroop_task_switching2,2021.2.3,60.174844030664794,
,,,黄,blue,f,diamond,color_mix,颜色,,incompatible,1,block_switch1,instruction/ready_test.png,instruction/i11.png,,,,,,,,,,,,,,,,,0,0,0,0,0,29,29,29,,,,,,,,,,,,,,,,,,,,,,,,,,,618.8397527000052,619.0408499000187,619.0238879999961,619.3249830999994,619.3249830999994,None,619.8245277999958,None,j,0,0.9053256000042893,619.8245277999958,None,None,None,,,,,,,,,,,,,,,,,,,,,,,11041,2,1,2024_May_31_1435,stroop_task_switching2,2021.2.3,60.174844030664794,
,,,绿,green,k,diamond,color_mix,颜色,,compatible,1,block_switch1,instruction/ready_test.png,instruction/i11.png,,,,,,,,,,,,,,,,,0,0,0,0,0,30,30,30,,,,,,,,,,,,,,,,,,,,,,,,,,,620.7593013000151,620.9622960000124,620.9428457000176,621.2439513000136,621.2439513000136,None,621.7440750999958,None,k,1,1.4744477999920491,621.7440750999958,None,None,None,,,,,,,,,,,,,,,,,,,,,,,11041,2,1,2024_May_31_1435,stroop_task_switching2,2021.2.3,60.174844030664794,
,,,蓝,blue,f,square,color_mix,单词,,compatible,2,block_switch1,instruction/ready_test.png,instruction/i11.png,,,,,,,,,,,,,,,,,0,0,0,0,0,31,31,31,,,,,,,,,,,,,,,,,,,,,,,,,,,623.2464161000098,623.4467043000041,623.4300460000231,623.73118230002,623.73118230002,None,624.2311078000057,None,f,1,0.86760199998389,624.2311078000057,None,None,None,,,,,,,,,,,,,,,,,,,,,,,11041,2,1,2024_May_31_1435,stroop_task_switching2,2021.2.3,60.174844030664794,
,,,红,red,d,square,color_mix,单词,,compatible,1,block_switch1,instruction/ready_test.png,instruction/i11.png,,,,,,,,,,,,,,,,,0,0,0,0,0,32,32,32,,,,,,,,,,,,,,,,,,,,,,,,,,,625.1157753000152,625.3165634000034,625.3018359999987,625.5999649000005,625.5999649000005,None,626.1003903000092,None,d,1,0.7256001000059769,626.1003903000092,None,None,None,,,,,,,,,,,,,,,,,,,,,,,11041,2,1,2024_May_31_1435,stroop_task_switching2,2021.2.3,60.174844030664794,
,,,红,green,d,square,color_mix,单词,,incompatible,1,block_switch1,instruction/ready_test.png,instruction/i11.png,,,,,,,,,,,,,,,,,0,0,0,0,0,33,33,33,,,,,,,,,,,,,,,,,,,,,,,,,,,626.8515612000192,627.052173700009,627.0369406000245,627.3534118000243,627.337883500004,None,627.8369939000113,None,d,1,1.237341700005345,627.8369939000113,None,None,None,,,,,,,,,,,,,,,,,,,,,,,11041,2,1,2024_May_31_1435,stroop_task_switching2,2021.2.3,60.174844030664794,
,,,黄,yellow,j,diamond,color_mix,颜色,,compatible,2,block_switch1,instruction/ready_test.png,instruction/i11.png,,,,,,,,,,,,,,,,,0,0,0,0,0,34,34,34,,,,,,,,,,,,,,,,,,,,,,,,,,,629.0883708000183,629.289761699998,629.2719298000156,629.5731005000125,629.5731005000125,None,630.0732613000146,None,j,1,0.552674400008982,630.0732613000146,None,None,None,,,,,,,,,,,,,,,,,,,,,,,11041,2,1,2024_May_31_1435,stroop_task_switching2,2021.2.3,60.174844030664794,
,,,红,green,k,diamond,color_mix,颜色,,incompatible,1,block_switch1,instruction/ready_test.png,instruction/i11.png,,,,,,,,,,,,,,,,,0,0,0,0,0,35,35,35,,,,,,,,,,,,,,,,,,,,,,,,,,,630.6574704000086,630.8576670000039,630.841035999998,631.1425431000243,631.1425431000243,None,631.6422300999984,None,k,1,1.5924537999962922,631.6422300999984,None,None,None,,,,,,,,,,,,,,,,,,,,,,,11041,2,1,2024_May_31_1435,stroop_task_switching2,2021.2.3,60.174844030664794,
,,,黄,yellow,j,square,color_mix,单词,,compatible,2,block_switch1,instruction/ready_test.png,instruction/i11.png,,,,,,,,,,,,,,,,,0,0,0,0,0,36,36,36,,,,,,,,,,,,,,,,,,,,,,,,,,,633.2612628000206,633.4628861000238,633.444939500012,633.7454653000168,633.7454653000168,None,634.2462346000248,None,j,1,0.7162161000014748,634.2462346000248,None,None,None,,,,,,,,,,,,,,,,,,,,,,,11041,2,1,2024_May_31_1435,stroop_task_switching2,2021.2.3,60.174844030664794,
,,,蓝,blue,f,square,color_mix,单词,,compatible,1,block_switch1,instruction/ready_test.png,instruction/i11.png,,,,,,,,,,,,,,,,,0,0,0,0,0,37,37,37,,,,,,,,,,,,,,,,,,,,,,,,,,,634.9806526000029,635.1814895000134,635.1645585000224,635.4658313000109,635.4658313000109,None,635.9655019000056,None,f,1,1.2289007999934256,635.9655019000056,None,None,None,,,,,,,,,,,,,,,,,,,,,,,11041,2,1,2024_May_31_1435,stroop_task_switching2,2021.2.3,60.174844030664794,
,,,绿,red,d,diamond,color_mix,颜色,,incompatible,2,block_switch1,instruction/ready_test.png,instruction/i11.png,,,,,,,,,,,,,,,,,0,0,0,0,0,38,38,38,,,,,,,,,,,,,,,,,,,,,,,,,,,637.2172499000153,637.418499499996,637.4012050000019,637.7021383000247,637.7021383000247,None,638.2020263000159,None,d,1,1.200823599996511,638.2020263000159,None,None,None,,,,,,,,,,,,,,,,,,,,,,,11041,2,1,2024_May_31_1435,stroop_task_switching2,2021.2.3,60.174844030664794,
,,,黄,yellow,j,diamond,color_mix,颜色,,compatible,1,block_switch1,instruction/ready_test.png,instruction/i11.png,,,,,,,,,,,,,,,,,0,0,0,0,0,39,39,39,,,,,,,,,,,,,,,,,,,,,,,,,,,639.4206574000127,639.6215505000146,639.6053532000224,639.905639900011,639.905639900011,None,640.4053650000133,None,j,1,1.0129359999846201,640.4053650000133,None,None,None,,,,,,,,,,,,,,,,,,,,,,,11041,2,1,2024_May_31_1435,stroop_task_switching2,2021.2.3,60.174844030664794,
,,,红,blue,f,diamond,color_mix,颜色,,incompatible,1,block_switch1,instruction/ready_test.png,instruction/i11.png,,,,,,,,,,,,,,,,,0,0,0,0,0,40,40,40,,,,,,,,,,,,,,,,,,,,,,,,,,,641.4404078000225,641.6407872000127,641.624612500018,641.9243578000169,641.9243578000169,None,642.4260041000089,None,f,1,1.9763502000132576,642.4260041000089,None,None,None,,,,,,,,,,,,,,,,,,,,,,,11041,2,1,2024_May_31_1435,stroop_task_switching2,2021.2.3,60.174844030664794,
,,,绿,blue,k,square,color_mix,单词,,incompatible,2,block_switch1,instruction/ready_test.png,instruction/i11.png,,,,,,,,,,,,,,,,,0,0,0,0,0,41,41,41,,,,,,,,,,,,,,,,,,,,,,,,,,,644.4280523000052,644.6294602999988,644.6127606000227,644.912287300016,644.912287300016,None,645.4129378000216,None,k,1,0.6616420000209473,645.4129378000216,None,None,None,,,,,,,,,,,,,,,,,,,,,,,11041,2,1,2024_May_31_1435,stroop_task_switching2,2021.2.3,60.174844030664794,
,,,蓝,blue,f,diamond,color_mix,颜色,,compatible,2,block_switch1,instruction/ready_test.png,instruction/i11.png,,,,,,,,,,,,,,,,,0,0,0,0,0,42,42,42,,,,,,,,,,,,,,,,,,,,,,,,,,,646.0972326000046,646.2976044000243,646.2824518000125,646.5814597000135,646.5814597000135,None,647.0823024999991,None,f,1,1.1202718000276946,647.0823024999991,None,None,None,,,,,,,,,,,,,,,,,,,,,,,11041,2,1,2024_May_31_1435,stroop_task_switching2,2021.2.3,60.174844030664794,
,,,红,blue,d,square,color_mix,单词,,incompatible,2,block_switch1,instruction/ready_test.png,instruction/i11.png,,,,,,,,,,,,,,,,,0,0,0,0,0,43,43,43,,,,,,,,,,,,,,,,,,,,,,,,,,,648.2173005000222,648.4184204000048,648.4029693000193,648.7024210000236,648.7024210000236,None,649.2027000000235,None,d,1,0.9038202000083402,649.2027000000235,None,None,None,,,,,,,,,,,,,,,,,,,,,,,11041,2,1,2024_May_31_1435,stroop_task_switching2,2021.2.3,60.174844030664794,
,,,蓝,green,k,diamond,color_mix,颜色,,incompatible,2,block_switch1,instruction/ready_test.png,instruction/i11.png,,,,,,,,,,,,,,,,,0,0,0,0,0,44,44,44,,,,,,,,,,,,,,,,,,,,,,,,,,,650.1366417999961,650.3369544000016,650.3225631999958,650.6225341000245,650.6225341000245,None,651.1215935000218,None,k,1,1.0490375999943353,651.1215935000218,None,None,None,,,,,,,,,,,,,,,,,,,,,,,11041,2,1,2024_May_31_1435,stroop_task_switching2,2021.2.3,60.174844030664794,
,,,黄,yellow,j,square,color_mix,单词,,compatible,2,block_switch1,instruction/ready_test.png,instruction/i11.png,,,,,,,,,,,,,,,,,0,0,0,0,0,45,45,45,,,,,,,,,,,,,,,,,,,,,,,,,,,652.1898508000013,652.3918744999974,652.3736266000196,652.6750202999974,652.6750202999974,None,653.1747729000053,None,j,1,1.204136499989545,653.1747729000053,None,None,None,,,,,,,,,,,,,,,,,,,,,,,11041,2,1,2024_May_31_1435,stroop_task_switching2,2021.2.3,60.174844030664794,
,,,黄,yellow,j,diamond,color_mix,颜色,,compatible,2,block_switch1,instruction/ready_test.png,instruction/i11.png,,,,,,,,,,,,,,,,,0,0,0,0,0,46,46,46,,,,,,,,,,,,,,,,,,,,,,,,,,,654.3930695000163,654.5947884000198,654.577088799997,654.8793634000176,654.8793634000176,None,655.3781331000209,None,j,1,0.72071659998619,655.3781331000209,None,None,None,,,,,,,,,,,,,,,,,,,,,,,11041,2,1,2024_May_31_1435,stroop_task_switching2,2021.2.3,60.174844030664794,
,,,绿,red,k,square,color_mix,单词,,incompatible,2,block_switch1,instruction/ready_test.png,instruction/i11.png,,,,,,,,,,,,,,,,,0,0,0,0,0,47,47,47,,,,,,,,,,,,,,,,,,,,,,,,,,,656.1295529000054,656.3305912000069,656.3128653000167,656.6139931000071,656.6139931000071,None,657.1138769000245,None,k,1,1.5369169999903534,657.1138769000245,None,None,None,,,,,,,,,,,,,,,,,,,,,,,11041,2,1,2024_May_31_1435,stroop_task_switching2,2021.2.3,60.174844030664794,
,,,红,red,d,diamond,color_mix,颜色,,compatible,2,block_switch1,instruction/ready_test.png,instruction/i11.png,,,,,,,,,,,,,,,,,0,0,0,0,0,48,48,48,,,,,,,,,,,,,,,,,,,,,,,,,,,658.6662440000218,658.8667546000215,658.8504126000043,659.1506969000038,659.1506969000038,None,659.6510256000038,None,d,1,0.6800326000084169,659.6510256000038,None,None,None,,,,,,,,,,,,,,,,,,,,,,,11041,2,1,2024_May_31_1435,stroop_task_switching2,2021.2.3,60.174844030664794,
,,,蓝,blue,f,diamond,color_mix,颜色,,compatible,1,block_switch1,instruction/ready_test.png,instruction/i11.png,,,,,,,,,,,,,,,,,0,0,0,0,0,49,49,49,,,,,,,,,,,,,,,,,,,,,,,,,,,660.352572600008,660.5525128000008,660.5359576000192,660.8369333000155,660.8369333000155,None,661.3372851000167,None,f,1,0.8815416999859735,661.3372851000167,None,None,None,,,,,,,,,,,,,,,,,,,,,,,11041,2,1,2024_May_31_1435,stroop_task_switching2,2021.2.3,60.174844030664794,
,,,黄,yellow,j,diamond,color_mix,颜色,,compatible,1,block_switch1,instruction/ready_test.png,instruction/i11.png,,,,,,,,,,,,,,,,,0,0,0,0,0,50,50,50,,,,,,,,,,,,,,,,,,,,,,,,,,,662.2383673000149,662.4387388000032,662.4219697000226,662.7225521000219,662.7225521000219,None,663.2232168000191,None,j,1,1.1558574000082444,663.2232168000191,None,None,None,,,,,,,,,,,,,,,,,,,,,,,11041,2,1,2024_May_31_1435,stroop_task_switching2,2021.2.3,60.174844030664794,
,,,红,blue,f,diamond,color_mix,颜色,,incompatible,1,block_switch1,instruction/ready_test.png,instruction/i11.png,,,,,,,,,,,,,,,,,0,0,0,0,0,51,51,51,,,,,,,,,,,,,,,,,,,,,,,,,,,664.4083011000184,664.6096290000132,664.5917993000185,664.8923782000202,664.8923782000202,None,665.3930541000154,None,f,1,2.114341600012267,665.3930541000154,None,None,None,,,,,,,,,,,,,,,,,,,,,,,11041,2,1,2024_May_31_1435,stroop_task_switching2,2021.2.3,60.174844030664794,
,,,蓝,yellow,j,diamond,color_mix,颜色,,incompatible,1,block_switch1,instruction/ready_test.png,instruction/i11.png,,,,,,,,,,,,,,,,,0,0,0,0,0,52,52,52,,,,,,,,,,,,,,,,,,,,,,,,,,,667.5296982,667.7297640000179,667.714747400023,668.014317299996,668.014317299996,None,668.5145555000054,None,j,1,1.3608097999822348,668.5145555000054,None,None,None,,,,,,,,,,,,,,,,,,,,,,,11041,2,1,2024_May_31_1435,stroop_task_switching2,2021.2.3,60.174844030664794,
,,,黄,blue,j,square,color_mix,单词,,incompatible,2,block_switch1,instruction/ready_test.png,instruction/i11.png,,,,,,,,,,,,,,,,,0,0,0,0,0,53,53,53,,,,,,,,,,,,,,,,,,,,,,,,,,,669.8999820000026,670.1010472000053,670.0843730000197,670.3839465000201,670.3839465000201,None,670.8849037000036,None,j,1,0.7506823999865446,670.8849037000036,None,None,None,,,,,,,,,,,,,,,,,,,,,,,11041,2,1,2024_May_31_1435,stroop_task_switching2,2021.2.3,60.174844030664794,
,,,蓝,blue,f,diamond,color_mix,颜色,,compatible,2,block_switch1,instruction/ready_test.png,instruction/i11.png,,,,,,,,,,,,,,,,,0,0,0,0,0,54,54,54,,,,,,,,,,,,,,,,,,,,,,,,,,,671.6526870000234,671.8543070000014,671.8360436000221,672.1365306000225,672.1365306000225,None,672.6381018000247,None,f,1,1.7333446999837179,672.6381018000247,None,None,None,,,,,,,,,,,,,,,,,,,,,,,11041,2,1,2024_May_31_1435,stroop_task_switching2,2021.2.3,60.174844030664794,
,,,红,yellow,d,square,color_mix,单词,,incompatible,2,block_switch1,instruction/ready_test.png,instruction/i11.png,,,,,,,,,,,,,,,,,0,0,0,0,0,55,55,55,,,,,,,,,,,,,,,,,,,,,,,,,,,674.3899628000217,674.5903555999976,674.5758528000151,674.875574900012,674.875574900012,None,675.3749259000178,None,d,1,1.6365639999858104,675.3749259000178,None,None,None,,,,,,,,,,,,,,,,,,,,,,,11041,2,1,2024_May_31_1435,stroop_task_switching2,2021.2.3,60.174844030664794,
,,,蓝,red,f,square,color_mix,单词,,incompatible,1,block_switch1,instruction/ready_test.png,instruction/i11.png,,,,,,,,,,,,,,,,,0,0,0,0,0,56,56,56,,,,,,,,,,,,,,,,,,,,,,,,,,,677.0273641000094,677.2283193000185,677.2109943999967,677.5130571000045,677.5130571000045,None,678.0120126999973,None,f,1,1.2474119999969844,678.0120126999973,None,None,None,,,,,,,,,,,,,,,,,,,,,,,11041,2,1,2024_May_31_1435,stroop_task_switching2,2021.2.3,60.174844030664794,
,,,蓝,blue,f,square,color_mix,单词,,compatible,1,block_switch1,instruction/ready_test.png,instruction/i11.png,,,,,,,,,,,,,,,,,0,0,0,0,0,57,57,57,,,,,,,,,,,,,,,,,,,,,,,,,,,679.2804995000188,679.4809545000026,679.4645500000042,679.7670041000238,679.7670041000238,None,680.2662881000142,None,f,1,0.641226200008532,680.2662881000142,None,None,None,,,,,,,,,,,,,,,,,,,,,,,11041,2,1,2024_May_31_1435,stroop_task_switching2,2021.2.3,60.174844030664794,
,,,蓝,red,d,diamond,color_mix,颜色,,incompatible,2,block_switch1,instruction/ready_test.png,instruction/i11.png,,,,,,,,,,,,,,,,,0,0,0,0,0,58,58,58,,,,,,,,,,,,,,,,,,,,,,,,,,,680.9333367000218,681.134406600002,681.1182539000001,681.4180511000159,681.4180511000159,None,681.9181519999984,None,d,1,0.8852049999986775,681.9181519999984,None,None,None,,,,,,,,,,,,,,,,,,,,,,,11041,2,1,2024_May_31_1435,stroop_task_switching2,2021.2.3,60.174844030664794,
,,,绿,green,k,diamond,color_mix,颜色,,compatible,1,block_switch1,instruction/ready_test.png,instruction/i11.png,,,,,,,,,,,,,,,,,0,0,0,0,0,59,59,59,,,,,,,,,,,,,,,,,,,,,,,,,,,682.819615800021,683.0216087000153,683.0032702000171,683.305725800019,683.305725800019,None,683.8043245000008,None,k,1,1.7997927000105847,683.8043245000008,None,None,None,,,,,,,,,,,,,,,,,,,,,,,11041,2,1,2024_May_31_1435,stroop_task_switching2,2021.2.3,60.174844030664794,
,,,蓝,blue,f,diamond,color_mix,颜色,,compatible,1,block_switch1,instruction/ready_test.png,instruction/i11.png,,,,,,,,,,,,,,,,,0,0,0,0,0,60,60,60,,,,,,,,,,,,,,,,,,,,,,,,,,,685.6236016000039,685.823993500002,685.8073210000002,686.1086837000039,686.1086837000039,None,686.6085374999966,None,f,1,1.4911626999964938,686.6085374999966,None,None,None,,,,,,,,,,,,,,,,,,,,,,,11041,2,1,2024_May_31_1435,stroop_task_switching2,2021.2.3,60.174844030664794,
,,,黄,yellow,j,square,color_mix,单词,,compatible,2,block_switch1,instruction/ready_test.png,instruction/i11.png,,,,,,,,,,,,,,,,,0,0,0,0,0,61,61,61,,,,,,,,,,,,,,,,,,,,,,,,,,,688.1273761000193,688.3277034000203,688.3109758000064,688.6122398000152,688.6122398000152,None,689.1122584000113,None,j,1,1.6754842000082135,689.1122584000113,None,None,None,,,,,,,,,,,,,,,,,,,,,,,11041,2,1,2024_May_31_1435,stroop_task_switching2,2021.2.3,60.174844030664794,
,,,绿,blue,k,square,color_mix,单词,,incompatible,1,block_switch1,instruction/ready_test.png,instruction/i11.png,,,,,,,,,,,,,,,,,0,0,0,0,0,62,62,62,,,,,,,,,,,,,,,,,,,,,,,,,,,690.814867100009,691.0151164999988,690.999108500022,691.2988289000059,691.2988289000059,None,691.8014833000198,None,k,1,2.426387399988016,691.8014833000198,None,None,None,,,,,,,,,,,,,,,,,,,,,,,11041,2,1,2024_May_31_1435,stroop_task_switching2,2021.2.3,60.174844030664794,
,,,蓝,yellow,f,square,color_mix,单词,,incompatible,1,block_switch1,instruction/ready_test.png,instruction/i11.png,,,,,,,,,,,,,,,,,0,0,0,0,0,63,63,63,,,,,,,,,,,,,,,,,,,,,,,,,,,694.2533612000116,694.45578020002,694.4377013000194,694.7376308000239,694.7376308000239,None,695.2380859999976,None,f,1,1.1977730999933556,695.2380859999976,None,None,None,,,,,,,,,,,,,,,,,,,,,,,11041,2,1,2024_May_31_1435,stroop_task_switching2,2021.2.3,60.174844030664794,
,,,黄,yellow,j,diamond,color_mix,颜色,,compatible,2,block_switch1,instruction/ready_test.png,instruction/i11.png,,,,,,,,,,,,,,,,,0,0,0,0,0,64,64,64,,,,,,,,,,,,,,,,,,,,,,,,,,,696.4566867999965,696.6575482000189,696.640392500005,696.940574600012,696.940574600012,None,697.4417861000111,None,j,1,0.706204499991145,697.4417861000111,None,None,None,,,,,,,,,,,,,,,,,,,,,,,11041,2,1,2024_May_31_1435,stroop_task_switching2,2021.2.3,60.174844030664794,
,,,蓝,green,k,diamond,color_mix,颜色,,incompatible,1,block_switch1,instruction/ready_test.png,instruction/i11.png,,,,,,,,,,,,,,,,,0,0,0,0,0,65,65,65,,,,,,,,,,,,,,,,,,,,,,,,,,,698.1760617000109,698.3777745999978,698.3595149000175,698.660756199999,698.660756199999,None,699.1607097000233,None,k,1,0.9953534000087529,699.1607097000233,None,None,None,,,,,,,,,,,,,,,,,,,,,,,11041,2,1,2024_May_31_1435,stroop_task_switching2,2021.2.3,60.174844030664794,
,,,红,red,d,diamond,color_mix,颜色,,compatible,1,block_switch1,instruction/ready_test.png,instruction/i11.png,,,,,,,,,,,,,,,,,0,0,0,0,0,66,66,66,,,,,,,,,,,,,,,,,,,,,,,,,,,700.1789444000169,700.3790662999963,700.363310100016,700.6630482000182,700.6630482000182,None,701.1641229000234,None,d,1,1.0638986000267323,701.1641229000234,None,None,None,,,,,,,,,,,,,,,,,,,,,,,11041,2,1,2024_May_31_1435,stroop_task_switching2,2021.2.3,60.174844030664794,
,,,蓝,yellow,f,square,color_mix,单词,,incompatible,2,block_switch1,instruction/ready_test.png,instruction/i11.png,,,,,,,,,,,,,,,,,0,0,0,0,0,67,67,67,,,,,,,,,,,,,,,,,,,,,,,,,,,702.2485512999992,702.4496607000183,702.4326976000157,702.7326503000222,702.7326503000222,None,703.2340183000197,None,f,1,1.8506926000118256,703.2340183000197,None,None,None,,,,,,,,,,,,,,,,,,,,,,,11041,2,1,2024_May_31_1435,stroop_task_switching2,2021.2.3,60.174844030664794,
,,,红,yellow,d,square,color_mix,单词,,incompatible,1,block_switch1,instruction/ready_test.png,instruction/i11.png,,,,,,,,,,,,,,,,,0,0,0,0,0,68,68,68,,,,,,,,,,,,,,,,,,,,,,,,,,,705.1029957999999,705.3033672000165,705.2881331000244,705.5880810000235,705.5880810000235,None,706.087789000012,None,d,1,0.580146499996772,706.087789000012,None,None,None,,,,,,,,,,,,,,,,,,,,,,,11041,2,1,2024_May_31_1435,stroop_task_switching2,2021.2.3,60.174844030664794,
,,,红,yellow,j,diamond,color_mix,颜色,,incompatible,2,block_switch1,instruction/ready_test.png,instruction/i11.png,,,,,,,,,,,,,,,,,0,0,0,0,0,69,69,69,,,,,,,,,,,,,,,,,,,,,,,,,,,706.6890559000021,706.8900389000191,706.8725661000062,707.1726818000025,707.1726818000025,None,707.674259100022,None,j,1,1.1062954999797512,707.674259100022,None,None,None,,,,,,,,,,,,,,,,,,,,,,,11041,2,1,2024_May_31_1435,stroop_task_switching2,2021.2.3,60.174844030664794,
,,,蓝,green,f,square,color_mix,单词,,incompatible,2,block_switch1,instruction/ready_test.png,instruction/i11.png,,,,,,,,,,,,,,,,,0,0,0,0,0,70,70,70,,,,,,,,,,,,,,,,,,,,,,,,,,,708.808560000005,709.0102079000208,708.992209500022,709.2927109000157,709.2927109000157,None,709.7934727000247,None,k,0,1.9708052999922074,709.7934727000247,None,None,None,,,,,,,,,,,,,,,,,,,,,,,11041,2,1,2024_May_31_1435,stroop_task_switching2,2021.2.3,60.174844030664794,
,,,绿,yellow,k,square,color_mix,单词,,incompatible,1,block_switch1,instruction/ready_test.png,instruction/i11.png,,,,,,,,,,,,,,,,,0,0,0,0,0,71,71,71,,,,,,,,,,,,,,,,,,,,,,,,,,,711.7796005000127,711.9804845000035,711.9634396000183,712.2637602000032,712.2637602000032,None,712.7645708000055,None,k,1,2.343774699984351,712.7645708000055,None,None,None,,,,,,,,,,,,,,,,,,,,,,,11041,2,1,2024_May_31_1435,stroop_task_switching2,2021.2.3,60.174844030664794,
,,,蓝,yellow,j,diamond,color_mix,颜色,,incompatible,2,block_switch1,instruction/ready_test.png,instruction/i11.png,,,,,,,,,,,,,,,,,0,0,0,0,0,72,72,72,,,,,,,,,,,,,,,,,,,,,,,,,,,715.1347189000226,715.335805300012,715.3183262000093,715.6215422000096,715.6215422000096,None,716.1362318000174,None,j,1,0.9962247000075877,716.1362318000174,None,None,None,,,,,,,,,,,,,,,,,,,,,,,11041,2,1,2024_May_31_1435,stroop_task_switching2,2021.2.3,60.174844030664794,
,,,红,green,d,square,color_mix,单词,,incompatible,2,block_switch1,instruction/ready_test.png,instruction/i11.png,,,,,,,,,,,,,,,,,0,0,0,0,0,73,73,73,,,,,,,,,,,,,,,,,,,,,,,,,,,717.1543876000214,717.3549672000227,717.3388265000249,717.6389898000052,717.6389898000052,None,718.1394717000076,None,k,0,2.0571768000081647,718.1394717000076,None,None,None,,,,,,,,,,,,,,,,,,,,,,,11041,2,1,2024_May_31_1435,stroop_task_switching2,2021.2.3,60.174844030664794,
,,,绿,blue,f,diamond,color_mix,颜色,,incompatible,2,block_switch1,instruction/ready_test.png,instruction/i11.png,,,,,,,,,,,,,,,,,0,0,0,0,0,74,74,74,,,,,,,,,,,,,,,,,,,,,,,,,,,720.2258510999964,720.4272390000115,720.4108038000122,720.7095622000052,720.7095622000052,None,721.2111702999973,None,f,1,1.2255236000055447,721.2111702999973,None,None,None,,,,,,,,,,,,,,,,,,,,,,,11041,2,1,2024_May_31_1435,stroop_task_switching2,2021.2.3,60.174844030664794,
,,,红,red,d,square,color_mix,单词,,compatible,2,block_switch1,instruction/ready_test.png,instruction/i11.png,,,,,,,,,,,,,,,,,0,0,0,0,0,75,75,75,,,,,,,,,,,,,,,,,,,,,,,,,,,722.4625647000212,722.6634449000121,722.646180700016,722.9465770999959,722.9465770999959,None,723.4482786000008,None,d,1,0.5563668999820948,723.4482786000008,None,None,None,,,,,,,,,,,,,,,,,,,,,,,11041,2,1,2024_May_31_1435,stroop_task_switching2,2021.2.3,60.174844030664794,
,,,绿,green,k,diamond,color_mix,颜色,,compatible,2,block_switch1,instruction/ready_test.png,instruction/i11.png,,,,,,,,,,,,,,,,,0,0,0,0,0,76,76,76,,,,,,,,,,,,,,,,,,,,,,,,,,,724.0312887000036,724.2316939000157,724.2156074000231,724.5164433000027,724.5164433000027,None,725.0164300000179,None,k,1,0.9083238999883179,725.0164300000179,None,None,None,,,,,,,,,,,,,,,,,,,,,,,11041,2,1,2024_May_31_1435,stroop_task_switching2,2021.2.3,60.174844030664794,
,,,黄,red,j,square,color_mix,单词,,incompatible,2,block_switch1,instruction/ready_test.png,instruction/i11.png,,,,,,,,,,,,,,,,,0,0,0,0,0,77,77,77,,,,,,,,,,,,,,,,,,,,,,,,,,,725.9513795000094,726.151701499999,726.1351309000165,726.4351446000219,726.4351446000219,None,726.9360616000195,None,j,1,2.029180900019128,726.9360616000195,None,None,None,,,,,,,,,,,,,,,,,,,,,,,11041,2,1,2024_May_31_1435,stroop_task_switching2,2021.2.3,60.174844030664794,
,,,红,red,d,square,color_mix,单词,,compatible,1,block_switch1,instruction/ready_test.png,instruction/i11.png,,,,,,,,,,,,,,,,,0,0,0,0,0,78,78,78,,,,,,,,,,,,,,,,,,,,,,,,,,,728.9889566000202,729.1892971000052,729.1736758000043,729.473510700016,729.473510700016,None,729.9738978999958,None,d,1,0.6227823999943212,729.9738978999958,None,None,None,,,,,,,,,,,,,,,,,,,,,,,11041,2,1,2024_May_31_1435,stroop_task_switching2,2021.2.3,60.174844030664794,
,,,黄,yellow,j,square,color_mix,单词,,compatible,1,block_switch1,instruction/ready_test.png,instruction/i11.png,,,,,,,,,,,,,,,,,0,0,0,0,0,79,79,79,,,,,,,,,,,,,,,,,,,,,,,,,,,730.6247800000128,730.8248998000054,730.8092879000178,731.1088743,731.1088743,None,731.6097214000183,None,j,1,1.083780699991621,731.6097214000183,None,None,None,,,,,,,,,,,,,,,,,,,,,,,11041,2,1,2024_May_31_1435,stroop_task_switching2,2021.2.3,60.174844030664794,
,,,红,red,d,diamond,color_mix,颜色,,compatible,2,block_switch1,instruction/ready_test.png,instruction/i11.png,,,,,,,,,,,,,,,,,0,0,0,0,0,80,80,80,,,,,,,,,,,,,,,,,,,,,,,,,,,732.7112816000008,732.9133242000244,732.8949123000202,733.1976798000105,733.1976798000105,None,733.6962353000126,None,d,1,0.8927076999971177,733.6962353000126,None,None,None,,,,,,,,,,,,,,,,,,,,,,,11041,2,1,2024_May_31_1435,stroop_task_switching2,2021.2.3,60.174844030664794,
,,,红,red,d,square,color_mix,单词,,compatible,2,block_switch1,instruction/ready_test.png,instruction/i11.png,,,,,,,,,,,,,,,,,0,0,0,0,0,81,81,81,,,,,,,,,,,,,,,,,,,,,,,,,,,734.6147925000114,734.8151866999979,734.7978624000098,735.0981790000224,735.0981790000224,None,735.5987239000096,None,d,1,0.6302436999976635,735.5987239000096,None,None,None,,,,,,,,,,,,,,,,,,,,,,,11041,2,1,2024_May_31_1435,stroop_task_switching2,2021.2.3,60.174844030664794,
,,,黄,blue,f,diamond,color_mix,颜色,,incompatible,2,block_switch1,instruction/ready_test.png,instruction/i11.png,,,,,,,,,,,,,,,,,0,0,0,0,0,82,82,82,,,,,,,,,,,,,,,,,,,,,,,,,,,736.249873599998,736.451049299998,736.4352619000128,736.7509200000204,736.733944800013,None,737.2356542000198,None,f,1,1.0093770000094082,737.2356542000198,None,None,None,,,,,,,,,,,,,,,,,,,,,,,11041,2,1,2024_May_31_1435,stroop_task_switching2,2021.2.3,60.174844030664794,
,,,红,yellow,j,diamond,color_mix,颜色,,incompatible,1,block_switch1,instruction/ready_test.png,instruction/i11.png,,,,,,,,,,,,,,,,,0,0,0,0,0,83,83,83,,,,,,,,,,,,,,,,,,,,,,,,,,,738.2697450999985,738.4706737000088,738.4533609000209,738.7549926000065,738.7549926000065,None,739.2545664000208,None,j,1,1.1432559000095353,739.2545664000208,None,None,None,,,,,,,,,,,,,,,,,,,,,,,11041,2,1,2024_May_31_1435,stroop_task_switching2,2021.2.3,60.174844030664794,
,,,黄,red,d,diamond,color_mix,颜色,,incompatible,1,block_switch1,instruction/ready_test.png,instruction/i11.png,,,,,,,,,,,,,,,,,0,0,0,0,0,84,84,84,,,,,,,,,,,,,,,,,,,,,,,,,,,740.4227970000065,740.6235193000175,740.6064365000057,740.907812200021,740.907812200021,None,741.4077937999973,None,d,1,1.9018976999795996,741.4077937999973,None,None,None,,,,,,,,,,,,,,,,,,,,,,,11041,2,1,2024_May_31_1435,stroop_task_switching2,2021.2.3,60.174844030664794,
,,,蓝,blue,f,square,color_mix,单词,,compatible,2,block_switch1,instruction/ready_test.png,instruction/i11.png,,,,,,,,,,,,,,,,,0,0,0,0,0,85,85,85,,,,,,,,,,,,,,,,,,,,,,,,,,,743.3275162000209,743.5284134000249,743.511590500013,743.8119846000045,743.8119846000045,None,744.3122249000007,None,f,1,0.749011200008681,744.3122249000007,None,None,None,,,,,,,,,,,,,,,,,,,,,,,11041,2,1,2024_May_31_1435,stroop_task_switching2,2021.2.3,60.174844030664794,
,,,绿,green,k,square,color_mix,单词,,compatible,1,block_switch1,instruction/ready_test.png,instruction/i11.png,,,,,,,,,,,,,,,,,0,0,0,0,0,86,86,86,,,,,,,,,,,,,,,,,,,,,,,,,,,745.0800469000242,745.2803359000245,745.263893299998,745.5653618000215,745.5653618000215,None,746.0648769999971,None,k,1,0.8041716000007,746.0648769999971,None,None,None,,,,,,,,,,,,,,,,,,,,,,,11041,2,1,2024_May_31_1435,stroop_task_switching2,2021.2.3,60.174844030664794,
,,,红,red,d,square,color_mix,单词,,compatible,1,block_switch1,instruction/ready_test.png,instruction/i11.png,,,,,,,,,,,,,,,,,0,0,0,0,0,87,87,87,,,,,,,,,,,,,,,,,,,,,,,,,,,746.899348100007,747.0993643999973,747.083475100022,747.3832510000211,747.3832510000211,None,747.8849770000088,None,d,1,1.0243184000137262,747.8849770000088,None,None,None,,,,,,,,,,,,,,,,,,,,,,,11041,2,1,2024_May_31_1435,stroop_task_switching2,2021.2.3,60.174844030664794,
,,,黄,green,k,diamond,color_mix,颜色,,incompatible,2,block_switch1,instruction/ready_test.png,instruction/i11.png,,,,,,,,,,,,,,,,,0,0,0,0,0,88,88,88,,,,,,,,,,,,,,,,,,,,,,,,,,,748.9358700000157,749.1362225000048,749.120173400006,749.4217584000144,749.4217584000144,None,749.9205779000185,None,k,1,1.7248351000016555,749.9205779000185,None,None,None,,,,,,,,,,,,,,,,,,,,,,,11041,2,1,2024_May_31_1435,stroop_task_switching2,2021.2.3,60.174844030664794,
,,,绿,red,k,square,color_mix,单词,,incompatible,2,block_switch1,instruction/ready_test.png,instruction/i11.png,,,,,,,,,,,,,,,,,0,0,0,0,0,89,89,89,,,,,,,,,,,,,,,,,,,,,,,,,,,751.6734975000145,751.8736402000068,751.8567908999976,752.1587712000182,752.1587712000182,None,752.657927000022,755.6628433000005,None,0,,752.657927000022,755.6628433000005,755.6459096000181,None,,,,,,,,,,,,,,,,,,,,,,,11041,2,1,2024_May_31_1435,stroop_task_switching2,2021.2.3,60.174844030664794,
,,,黄,green,j,square,color_mix,单词,,incompatible,1,block_switch1,instruction/ready_test.png,instruction/i11.png,,,,,,,,,,,,,,,,,0,0,0,0,0,90,90,90,,,,,,,,,,,,,,,,,,,,,,,,,,,756.2143706000061,756.4143333999964,756.396919300023,756.6997391000041,756.6997391000041,None,757.1994653000147,None,j,1,1.4700485999928787,757.1994653000147,None,None,None,,,,,,,,,,,,,,,,,,,,,,,11041,2,1,2024_May_31_1435,stroop_task_switching2,2021.2.3,60.174844030664794,
,,,蓝,blue,f,square,color_mix,单词,,compatible,1,block_switch1,instruction/ready_test.png,instruction/i11.png,,,,,,,,,,,,,,,,,0,0,0,0,0,91,91,91,,,,,,,,,,,,,,,,,,,,,,,,,,,758.7005820000195,758.9006617999985,758.8847486000159,759.1847163000202,759.1847163000202,None,759.6855015000037,None,f,1,0.8005584999918938,759.6855015000037,None,None,None,,,,,,,,,,,,,,,,,,,,,,,11041,2,1,2024_May_31_1435,stroop_task_switching2,2021.2.3,60.174844030664794,
,,,蓝,red,f,square,color_mix,单词,,incompatible,1,block_switch1,instruction/ready_test.png,instruction/i11.png,,,,,,,,,,,,,,,,,0,0,0,0,0,92,92,92,,,,,,,,,,,,,,,,,,,,,,,,,,,760.5031728000031,760.7046881999995,760.6868620000023,760.9873631000228,760.9873631000228,None,761.4894074000185,None,f,1,1.3486141000175849,761.4894074000185,None,None,None,,,,,,,,,,,,,,,,,,,,,,,11041,2,1,2024_May_31_1435,stroop_task_switching2,2021.2.3,60.174844030664794,
,,,黄,blue,j,square,color_mix,单词,,incompatible,1,block_switch1,instruction/ready_test.png,instruction/i11.png,,,,,,,,,,,,,,,,,0,0,0,0,0,93,93,93,,,,,,,,,,,,,,,,,,,,,,,,,,,762.8569123000198,763.0587078000244,763.0407343000115,763.3408590000181,763.3408590000181,None,763.8415291999991,None,j,1,0.7325315999914892,763.8415291999991,None,None,None,,,,,,,,,,,,,,,,,,,,,,,11041,2,1,2024_May_31_1435,stroop_task_switching2,2021.2.3,60.174844030664794,
,,,绿,red,d,diamond,color_mix,颜色,,incompatible,2,block_switch1,instruction/ready_test.png,instruction/i11.png,,,,,,,,,,,,,,,,,0,0,0,0,0,94,94,94,,,,,,,,,,,,,,,,,,,,,,,,,,,764.5925738000078,764.7949542000133,764.7765023999964,765.0776387000224,765.0776387000224,None,765.577655400004,None,k,0,0.9960484000039287,765.577655400004,None,None,None,,,,,,,,,,,,,,,,,,,,,,,11041,2,1,2024_May_31_1435,stroop_task_switching2,2021.2.3,60.174844030664794,
,,,蓝,blue,f,diamond,color_mix,颜色,,compatible,1,block_switch1,instruction/ready_test.png,instruction/i11.png,,,,,,,,,,,,,,,,,0,0,0,0,0,95,95,95,,,,,,,,,,,,,,,,,,,,,,,,,,,766.5956987000245,766.796562500007,766.779171800008,767.0808837000222,767.0808837000222,None,767.5807465999969,None,f,1,0.8570183999836445,767.5807465999969,None,None,None,,,,,,,,,,,,,,,,,,,,,,,11041,2,1,2024_May_31_1435,stroop_task_switching2,2021.2.3,60.174844030664794,
,,,绿,green,k,square,color_mix,单词,,compatible,2,block_switch1,instruction/ready_test.png,instruction/i11.png,,,,,,,,,,,,,,,,,0,0,0,0,0,96,96,96,,,,,,,,,,,,,,,,,,,,,,,,,,,768.4652926000126,768.6653814000019,768.6485665000218,768.9495201999962,768.9495201999962,None,769.4508446000109,None,k,1,1.3473977000103332,769.4508446000109,None,None,None,,,,,,,,,,,,,,,,,,,,,,,11041,2,1,2024_May_31_1435,stroop_task_switching2,2021.2.3,60.174844030664794,
,,,,,,,,,,,,block_switch1,instruction/ready_test.png,instruction/i11.png,,,,,,,,,,,,,,,,,0,0,0,0,,,,,,,,,,,,,,,,,,,,,,,,,,,,,,,,,,,,,,,,,,,,,,,,,,,,,,,,,,,,770.8186459999997,None,space,5.339380400022492,770.8186459999997,None,,,11041,2,1,2024_May_31_1435,stroop_task_switching2,2021.2.3,60.174844030664794,
,,,蓝,blue,f,square,color_mix,单词,,compatible,0,block_switch2,instruction/ready_2.png,instruction/i12.png,,,,,,,,,,,,,,,,,0,1,1,1,0,0,0,0,,,,,,,,,,,,,,,,,,,786.7429286999977,787.744245000009,787.744245000009,788.7461022000061,788.7461022000061,None,785.7580764000013,786.7601534000132,789.7817178000114,789.9817575000052,789.9644625000074,790.2660133000172,790.2660133000172,None,790.7655942999991,None,f,1,0.9131851999845821,790.7655942999991,None,None,None,,,,,,,,,776.1946487000096,None,space,9.531817799987039,776.1946487000096,None,,,,,,,,,11041,2,1,2024_May_31_1435,stroop_task_switching2,2021.2.3,60.174844030664794,
,,,黄,red,d,diamond,color_mix,颜色,,incompatible,2,block_switch2,instruction/ready_2.png,instruction/i12.png,,,,,,,,,,,,,,,,,0,1,1,1,0,1,1,1,,,,,,,,,,,,,,,,,,,,,,,,,,,791.7002935000055,791.9004582000198,791.8853614999971,792.1842290000059,792.1842290000059,None,792.685005700012,None,d,1,1.9540859000117052,792.685005700012,None,None,None,,,,,,,,,,,,,,,,,,,,,,,11041,2,1,2024_May_31_1435,stroop_task_switching2,2021.2.3,60.174844030664794,
,,,蓝,green,k,diamond,color_mix,颜色,,incompatible,1,block_switch2,instruction/ready_2.png,instruction/i12.png,,,,,,,,,,,,,,,,,0,1,1,1,0,2,2,2,,,,,,,,,,,,,,,,,,,,,,,,,,,794.6545174000203,794.8553983000165,794.8382567000226,795.1388463000185,795.1388463000185,None,795.639462000021,None,k,1,0.9669953999982681,795.639462000021,None,None,None,,,,,,,,,,,,,,,,,,,,,,,11041,2,1,2024_May_31_1435,stroop_task_switching2,2021.2.3,60.174844030664794,
,,,红,yellow,j,diamond,color_mix,颜色,,incompatible,1,block_switch2,instruction/ready_2.png,instruction/i12.png,,,,,,,,,,,,,,,,,0,1,1,1,0,3,3,3,,,,,,,,,,,,,,,,,,,,,,,,,,,796.6249339000206,796.8252380000195,796.8089548000135,797.1084248000116,797.1084248000116,None,797.6090644000215,None,j,1,1.7258505999925546,797.6090644000215,None,None,None,,,,,,,,,,,,,,,,,,,,,,,11041,2,1,2024_May_31_1435,stroop_task_switching2,2021.2.3,60.174844030664794,
,,,红,red,d,diamond,color_mix,颜色,,compatible,1,block_switch2,instruction/ready_2.png,instruction/i12.png,,,,,,,,,,,,,,,,,0,1,1,1,0,4,4,4,,,,,,,,,,,,,,,,,,,,,,,,,,,799.3620985000161,799.5628564000071,799.5455770000117,799.845839400019,799.845839400019,None,800.3466025000089,None,d,1,2.1400503999902867,800.3466025000089,None,None,None,,,,,,,,,,,,,,,,,,,,,,,11041,2,1,2024_May_31_1435,stroop_task_switching2,2021.2.3,60.174844030664794,
,,,绿,green,k,square,color_mix,单词,,compatible,2,block_switch2,instruction/ready_2.png,instruction/i12.png,,,,,,,,,,,,,,,,,0,1,1,1,0,5,5,5,,,,,,,,,,,,,,,,,,,,,,,,,,,802.5165869000193,802.7178719000076,802.7001567000116,803.0007691000064,803.0007691000064,None,803.5015746999998,None,k,1,0.6176916999975219,803.5015746999998,None,None,None,,,,,,,,,,,,,,,,,,,,,,,11041,2,1,2024_May_31_1435,stroop_task_switching2,2021.2.3,60.174844030664794,
,,,黄,blue,f,diamond,color_mix,颜色,,incompatible,2,block_switch2,instruction/ready_2.png,instruction/i12.png,,,,,,,,,,,,,,,,,0,1,1,1,0,6,6,6,,,,,,,,,,,,,,,,,,,,,,,,,,,804.1361592000176,804.3365280000144,804.3206706000201,804.6205602000118,804.6205602000118,None,805.1204011000227,None,f,1,0.862841499998467,805.1204011000227,None,None,None,,,,,,,,,,,,,,,,,,,,,,,11041,2,1,2024_May_31_1435,stroop_task_switching2,2021.2.3,60.174844030664794,
,,,绿,yellow,k,square,color_mix,单词,,incompatible,2,block_switch2,instruction/ready_2.png,instruction/i12.png,,,,,,,,,,,,,,,,,0,1,1,1,0,7,7,7,,,,,,,,,,,,,,,,,,,,,,,,,,,806.0052821999998,806.2052361000096,806.1887719000224,806.489169700013,806.489169700013,None,806.9910011000175,None,k,1,1.6163517000095453,806.9910011000175,None,None,None,,,,,,,,,,,,,,,,,,,,,,,11041,2,1,2024_May_31_1435,stroop_task_switching2,2021.2.3,60.174844030664794,
,,,红,green,d,square,color_mix,单词,,incompatible,1,block_switch2,instruction/ready_2.png,instruction/i12.png,,,,,,,,,,,,,,,,,0,1,1,1,0,8,8,8,,,,,,,,,,,,,,,,,,,,,,,,,,,808.6258767000108,808.8262902999995,808.8094121000031,809.1099557999987,809.1099557999987,None,809.610554200015,None,d,1,1.0848760000080802,809.610554200015,None,None,None,,,,,,,,,,,,,,,,,,,,,,,11041,2,1,2024_May_31_1435,stroop_task_switching2,2021.2.3,60.174844030664794,
,,,黄,yellow,j,square,color_mix,单词,,compatible,1,block_switch2,instruction/ready_2.png,instruction/i12.png,,,,,,,,,,,,,,,,,0,1,1,1,0,9,9,9,,,,,,,,,,,,,,,,,,,,,,,,,,,810.7130226000154,810.9149931000138,810.8960977999959,811.1980531000008,811.1980531000008,None,811.6969881000114,None,j,1,0.7421143999963533,811.6969881000114,None,None,None,,,,,,,,,,,,,,,,,,,,,,,11041,2,1,2024_May_31_1435,stroop_task_switching2,2021.2.3,60.174844030664794,
