b_pra,ins_blocks,ins_blocks2,stim_word,stim_color,corrAns,cue_type,trial_type,task_type,rand,compatibility,switch,b_test,w_pic,w_pic2,trials_instr.thisRepN,trials_instr.thisTrialN,trials_instr.thisN,trials_instr.thisIndex,block_pra.thisRepN,block_pra.thisTrialN,block_pra.thisN,block_pra.thisIndex,trials_rep.thisRepN,trials_rep.thisTrialN,trials_rep.thisN,trials_rep.thisIndex,trials_pra.thisRepN,trials_pra.thisTrialN,trials_pra.thisN,trials_pra.thisIndex,trials_3.thisRepN,trials_3.thisTrialN,trials_3.thisN,trials_3.thisIndex,trials_2.thisRepN,trials_2.thisTrialN,trials_2.thisN,trials_2.thisIndex,instr_image.started,instr_image.stopped,instr_key_resp.keys,instr_key_resp.rt,instr_key_resp.started,instr_key_resp.stopped,instr_pra_image.started,instr_pra_image.stopped,ip_key_resp.keys,ip_key_resp.rt,ip_key_resp.started,ip_key_resp.stopped,block_image.started,block_image.stopped,ib_key_resp.keys,ib_key_resp.rt,ib_key_resp.started,ib_key_resp.stopped,cd3.started,cd3.stopped,cd2.started,cd2.stopped,cd1.started,cd1.stopped,cd_text.started,cd_text.stopped,text_fix.started,text_fix.stopped,text_2.started,text_2.stopped,text_4.started,text_4.stopped,text_target.started,text_target.stopped,key_resp.keys,key_resp.corr,key_resp.rt,key_resp.started,key_resp.stopped,sceen_black.started,sceen_black.stopped,text_fb.started,text_fb.stopped,text.started,text.stopped,key_bf.keys,key_bf.rt,key_bf.started,key_bf.stopped,instr_test_image.started,instr_test_image.stopped,instr_exp_key_resp.keys,instr_exp_key_resp.rt,instr_exp_key_resp.started,instr_exp_key_resp.stopped,text_rest.started,text_rest.stopped,key_resp_rest.keys,key_resp_rest.rt,key_resp_rest.started,key_resp_rest.stopped,text_3.started,text_3.stopped,participant,session,balance,date,expName,psychopyVersion,frameRate,
,,,,,,,,,,,,,,,0,0,0,0,,,,,,,,,,,,,,,,,,,,,13.441660900018178,None,right,1.3651206999784335,13.441660900018178,None,,,,,,,,,,,,,,,,,,,,,,,,,,,,,,,,,,,,,,,,,,,,,,,,,,,,,,,,,,11045,2,1,2024_Jun_01_1634,stroop_task_switching2,2021.2.3,59.99649620587999,
,,,,,,,,,,,,,,,1,0,1,0,,,,,,,,,,,,,,,,,,,,,14.894812000042293,None,right,20.56829150003614,14.894812000042293,None,,,,,,,,,,,,,,,,,,,,,,,,,,,,,,,,,,,,,,,,,,,,,,,,,,,,,,,,,,11045,2,1,2024_Jun_01_1634,stroop_task_switching2,2021.2.3,59.99649620587999,
,,,,,,,,,,,,,,,2,0,2,0,,,,,,,,,,,,,,,,,,,,,35.55883560003713,None,right,6.0642980999546126,35.55883560003713,None,,,,,,,,,,,,,,,,,,,,,,,,,,,,,,,,,,,,,,,,,,,,,,,,,,,,,,,,,,11045,2,1,2024_Jun_01_1634,stroop_task_switching2,2021.2.3,59.99649620587999,
,,,,,,,,,,,,,,,3,0,3,0,,,,,,,,,,,,,,,,,,,,,41.71796360000735,None,right,3.2093538000481203,41.71796360000735,None,,,,,,,,,,,,,,,,,,,,,,,,,,,,,,,,,,,,,,,,,,,,,,,,,,,,,,,,,,11045,2,1,2024_Jun_01_1634,stroop_task_switching2,2021.2.3,59.99649620587999,
,,,,,,,,,,,,,,,4,0,4,0,,,,,,,,,,,,,,,,,,,,,45.02298230002634,None,right,13.41639769996982,45.02298230002634,None,,,,,,,,,,,,,,,,,,,,,,,,,,,,,,,,,,,,,,,,,,,,,,,,,,,,,,,,,,11045,2,1,2024_Jun_01_1634,stroop_task_switching2,2021.2.3,59.99649620587999,
,,,,,,,,,,,,,,,5,0,5,0,,,,,,,,,,,,,,,,,,,,,58.49204080004711,None,right,0.6593234000029042,58.49204080004711,None,,,,,,,,,,,,,,,,,,,,,,,,,,,,,,,,,,,,,,,,,,,,,,,,,,,,,,,,,,11045,2,1,2024_Jun_01_1634,stroop_task_switching2,2021.2.3,59.99649620587999,
,,,,,,,,,,,,,,,,,,,,,,,,,,,,,,,,,,,,,,,,,,,,,59.194689900032245,None,space,1.6736779999919236,59.194689900032245,None,,,,,,,,,,,,,,,,,,,,,,,,,,,,,,,,,,,,,,,,,,,,,,,,,,,,11045,2,1,2024_Jun_01_1634,stroop_task_switching2,2021.2.3,59.99649620587999,
condition/block_color,instruction/instr_color,instruction/i8,XX,red,d,diamond,color_single,颜色,,,,,,,,,,,0,0,0,0,0,0,0,0,0,0,0,0,,,,,,,,,,,,,,,,,,,,,60.91232340002898,None,space,2.1263788000214845,60.91232340002898,None,64.15237320004962,65.15345010004239,65.15345010004239,66.15513960004319,66.15513960004319,None,63.184069900016766,64.1849430000293,67.14096640003845,67.35617490002187,67.32326010003453,67.6240308000124,67.6240308000124,None,68.07431080000242,None,d,1,1.7183276999858208,68.07431080000242,None,None,None,69.82824160001474,None,,,,,,,,,,,,,,,,,,,,,11045,2,1,2024_Jun_01_1634,stroop_task_switching2,2021.2.3,59.99649620587999,
condition/block_color,instruction/instr_color,instruction/i8,XX,green,k,diamond,color_single,颜色,,,,,,,,,,,0,0,0,0,0,0,0,0,0,1,1,1,,,,,,,,,,,,,,,,,,,,,,,,,,,,,,,,,,,70.82813610002631,71.029017199995,71.01231489999918,71.31278219999513,71.31278219999513,None,71.81347390002338,74.8180721999961,None,0,,71.81347390002338,74.8180721999961,74.78464410000015,None,75.31766270002117,None,,,,,,,,,,,,,,,,,,,,,11045,2,1,2024_Jun_01_1634,stroop_task_switching2,2021.2.3,59.99649620587999,
condition/block_color,instruction/instr_color,instruction/i8,XX,yellow,j,diamond,color_single,颜色,,,,,,,,,,,0,0,0,0,0,0,0,0,0,2,2,2,,,,,,,,,,,,,,,,,,,,,,,,,,,,,,,,,,,76.3198750000447,76.52006500004791,76.50358840002446,76.80388750002021,76.80388750002021,None,77.30487450002693,None,j,1,1.2072323000174947,77.30487450002693,None,None,None,78.54001040000003,None,,,,,,,,,,,,,,,,,,,,,11045,2,1,2024_Jun_01_1634,stroop_task_switching2,2021.2.3,59.99649620587999,
condition/block_color,instruction/instr_color,instruction/i8,XX,blue,f,diamond,color_single,颜色,,,,,,,,,,,0,0,0,0,0,0,0,0,0,3,3,3,,,,,,,,,,,,,,,,,,,,,,,,,,,,,,,,,,,79.54185420001158,79.7420993000269,79.72524220001651,80.02589660004014,80.02589660004014,None,80.52640610001981,None,f,1,1.009725499956403,80.52640610001981,None,None,None,81.56044990004739,None,,,,,,,,,,,,,,,,,,,,,11045,2,1,2024_Jun_01_1634,stroop_task_switching2,2021.2.3,59.99649620587999,
condition/block_color,instruction/instr_color,instruction/i8,XX,green,k,diamond,color_single,颜色,,,,,,,,,,,0,0,0,0,0,0,0,0,0,4,4,4,,,,,,,,,,,,,,,,,,,,,,,,,,,,,,,,,,,82.56240700004855,82.76299020001898,82.7468169000349,83.04607120004948,83.04607120004948,None,83.54790610005148,None,k,1,1.893435700039845,83.54790610005148,None,None,None,85.46712370001478,None,,,,,,,,,,,,,,,,,,,,,11045,2,1,2024_Jun_01_1634,stroop_task_switching2,2021.2.3,59.99649620587999,
condition/block_color,instruction/instr_color,instruction/i8,XX,yellow,j,diamond,color_single,颜色,,,,,,,,,,,0,0,0,0,0,0,0,0,0,5,5,5,,,,,,,,,,,,,,,,,,,,,,,,,,,,,,,,,,,86.4687782000401,86.66908260004129,86.65241910004988,86.95305609999923,86.95305609999923,None,87.4538065000088,None,j,1,0.9786790999933146,87.4538065000088,None,None,None,88.45446130004711,None,,,,,,,,,,,,,,,,,,,,,11045,2,1,2024_Jun_01_1634,stroop_task_switching2,2021.2.3,59.99649620587999,
condition/block_color,instruction/instr_color,instruction/i8,XX,blue,f,diamond,color_single,颜色,,,,,,,,,,,0,0,0,0,0,0,0,0,0,6,6,6,,,,,,,,,,,,,,,,,,,,,,,,,,,,,,,,,,,89.45684340002481,89.65723820001585,89.6400183000369,89.94004600000335,89.94004600000335,None,90.44157110003289,None,f,1,1.3512039000052027,90.44157110003289,None,None,None,91.80970840004738,None,,,,,,,,,,,,,,,,,,,,,11045,2,1,2024_Jun_01_1634,stroop_task_switching2,2021.2.3,59.99649620587999,
condition/block_color,instruction/instr_color,instruction/i8,XX,red,d,diamond,color_single,颜色,,,,,,,,,,,0,0,0,0,0,0,0,0,0,7,7,7,,,,,,,,,,,,,,,,,,,,,,,,,,,,,,,,,,,92.81171070004348,93.01205890002893,92.99532570003066,93.29577120003523,93.29577120003523,None,93.79668970004423,None,d,1,0.6598287000088021,93.79668970004423,None,None,None,94.48093800002243,None,,,,,,,,,,,,,,,,,,,,,11045,2,1,2024_Jun_01_1634,stroop_task_switching2,2021.2.3,59.99649620587999,
condition/block_color,instruction/instr_color,instruction/i8,XX,yellow,j,diamond,color_single,颜色,,,,,,,,,,,0,0,0,0,0,0,0,0,0,8,8,8,,,,,,,,,,,,,,,,,,,,,,,,,,,,,,,,,,,95.48223880003206,95.68290559999878,95.66615720000118,95.9664996000356,95.9664996000356,None,96.46755460003624,None,j,1,0.8853446000139229,96.46755460003624,None,None,None,97.36906470003305,None,,,,,,,,,,,,,,,,,,,,,11045,2,1,2024_Jun_01_1634,stroop_task_switching2,2021.2.3,59.99649620587999,
condition/block_color,instruction/instr_color,instruction/i8,XX,blue,f,diamond,color_single,颜色,,,,,,,,,,,0,0,0,0,0,0,0,0,0,9,9,9,,,,,,,,,,,,,,,,,,,,,,,,,,,,,,,,,,,98.37005389999831,98.57044310000492,98.55379400000675,98.85318220005138,98.85318220005138,None,99.35547980002593,None,f,1,0.8132426000083797,99.35547980002593,None,None,None,100.18946320004761,None,,,,,,,,,,,,,,,,,,,,,11045,2,1,2024_Jun_01_1634,stroop_task_switching2,2021.2.3,59.99649620587999,
condition/block_color,instruction/instr_color,instruction/i8,XX,red,d,diamond,color_single,颜色,,,,,,,,,,,0,0,0,0,0,0,0,0,0,10,10,10,,,,,,,,,,,,,,,,,,,,,,,,,,,,,,,,,,,101.19123670004774,101.39156680001179,101.37472429999616,101.67533220001496,101.67533220001496,None,102.1759946999955,None,d,1,0.6332092000520788,102.1759946999955,None,None,None,102.82678780000424,None,,,,,,,,,,,,,,,,,,,,,11045,2,1,2024_Jun_01_1634,stroop_task_switching2,2021.2.3,59.99649620587999,
condition/block_color,instruction/instr_color,instruction/i8,XX,green,k,diamond,color_single,颜色,,,,,,,,,,,0,0,0,0,0,0,0,0,0,11,11,11,,,,,,,,,,,,,,,,,,,,,,,,,,,,,,,,,,,103.82881000003545,104.02856380003504,104.01200980000431,104.31262270000298,104.31262270000298,None,104.81333840003936,None,k,1,0.9639787999913096,104.81333840003936,None,None,None,105.79819590004627,None,,,,,,,,,,,,,,,,,,,,,11045,2,1,2024_Jun_01_1634,stroop_task_switching2,2021.2.3,59.99649620587999,
condition/block_color,instruction/instr_color,instruction/i8,XX,blue,f,diamond,color_single,颜色,,,,,,,,,,,0,0,0,0,0,0,0,0,0,12,12,12,,,,,,,,,,,,,,,,,,,,,,,,,,,,,,,,,,,106.79940160003025,106.99959340004716,106.98522720002802,107.3003360000439,107.28388699999778,None,107.78446290001739,None,f,1,0.6490072999731638,107.78446290001739,None,None,None,108.45109420001972,None,,,,,,,,,,,,,,,,,,,,,11045,2,1,2024_Jun_01_1634,stroop_task_switching2,2021.2.3,59.99649620587999,
condition/block_color,instruction/instr_color,instruction/i8,XX,red,d,diamond,color_single,颜色,,,,,,,,,,,0,0,0,0,0,0,0,0,0,13,13,13,,,,,,,,,,,,,,,,,,,,,,,,,,,,,,,,,,,109.45337410003413,109.65392450004583,109.63724130002083,109.93718579999404,109.93718579999404,None,110.43836930004181,None,d,1,0.9387082000030205,110.43836930004181,None,None,None,111.40618010004982,None,,,,,,,,,,,,,,,,,,,,,11045,2,1,2024_Jun_01_1634,stroop_task_switching2,2021.2.3,59.99649620587999,
condition/block_color,instruction/instr_color,instruction/i8,XX,green,k,diamond,color_single,颜色,,,,,,,,,,,0,0,0,0,0,0,0,0,0,14,14,14,,,,,,,,,,,,,,,,,,,,,,,,,,,,,,,,,,,112.40816740004811,112.60828190000029,112.59179200005019,112.89214410004206,112.89214410004206,None,113.39265069999965,None,j,0,0.7524309000000358,113.39265069999965,None,None,None,114.16004310001153,None,,,,,,,,,,,,,,,,,,,,,11045,2,1,2024_Jun_01_1634,stroop_task_switching2,2021.2.3,59.99649620587999,
condition/block_color,instruction/instr_color,instruction/i8,XX,yellow,j,diamond,color_single,颜色,,,,,,,,,,,0,0,0,0,0,0,0,0,0,15,15,15,,,,,,,,,,,,,,,,,,,,,,,,,,,,,,,,,,,115.16232550004497,115.36238910001703,115.34593800001312,115.64609880000353,115.64609880000353,None,116.14645040000323,None,j,1,0.7426228999975137,116.14645040000323,None,None,None,116.91415950004011,None,,,,,,,,,,,,,,,,,,,,,11045,2,1,2024_Jun_01_1634,stroop_task_switching2,2021.2.3,59.99649620587999,
condition/block_color,instruction/instr_color,instruction/i8,XX,red,d,diamond,color_single,颜色,,,,,,,,,,,0,0,0,0,0,0,0,0,0,16,16,16,,,,,,,,,,,,,,,,,,,,,,,,,,,,,,,,,,,117.9166508000344,118.1169319000328,118.10003590001725,118.39999150001677,118.39999150001677,None,118.90100340003846,None,d,1,0.5882855000090785,118.90100340003846,None,None,None,119.51880120002897,None,,,,,,,,,,,,,,,,,,,,,11045,2,1,2024_Jun_01_1634,stroop_task_switching2,2021.2.3,59.99649620587999,
condition/block_color,instruction/instr_color,instruction/i8,XX,green,k,diamond,color_single,颜色,,,,,,,,,,,0,0,0,0,0,0,0,0,0,17,17,17,,,,,,,,,,,,,,,,,,,,,,,,,,,,,,,,,,,120.51978630002122,120.72030970000196,120.70366890000878,121.00400110002374,121.00400110002374,None,121.50511080003344,None,k,1,0.6806005999678746,121.50511080003344,None,None,None,122.2055578000145,None,,,,,,,,,,,,,,,,,,,,,11045,2,1,2024_Jun_01_1634,stroop_task_switching2,2021.2.3,59.99649620587999,
condition/block_color,instruction/instr_color,instruction/i8,XX,yellow,j,diamond,color_single,颜色,,,,,,,,,,,0,0,0,0,0,0,0,0,0,18,18,18,,,,,,,,,,,,,,,,,,,,,,,,,,,,,,,,,,,123.20775020000292,123.40814820001833,123.39113350003026,123.69174720003502,123.69174720003502,None,124.19227340002544,None,j,1,0.7215995999868028,124.19227340002544,None,None,None,124.9429449000163,None,,,,,,,,,,,,,,,,,,,,,11045,2,1,2024_Jun_01_1634,stroop_task_switching2,2021.2.3,59.99649620587999,
condition/block_color,instruction/instr_color,instruction/i8,XX,blue,f,diamond,color_single,颜色,,,,,,,,,,,0,0,0,0,0,0,0,0,0,19,19,19,,,,,,,,,,,,,,,,,,,,,,,,,,,,,,,,,,,125.94471040001372,126.14497070002835,126.12857130001066,126.42925970000215,126.42925970000215,None,126.92994760000147,None,f,1,0.8877315000281669,126.92994760000147,None,None,None,127.84825989999808,None,,,,,,,,,,,,,,,,,,,,,11045,2,1,2024_Jun_01_1634,stroop_task_switching2,2021.2.3,59.99649620587999,
condition/block_color,instruction/instr_color,instruction/i8,XX,green,k,diamond,color_single,颜色,,,,,,,,,,,0,0,0,0,0,0,0,0,0,20,20,20,,,,,,,,,,,,,,,,,,,,,,,,,,,,,,,,,,,128.8484909000108,129.0492861000239,129.03291920002084,129.3334416000289,129.3334416000289,None,129.83470490004402,None,k,1,0.9914203999796882,129.83470490004402,None,None,None,130.85217820003163,None,,,,,,,,,,,,,,,,,,,,,11045,2,1,2024_Jun_01_1634,stroop_task_switching2,2021.2.3,59.99649620587999,
condition/block_color,instruction/instr_color,instruction/i8,XX,yellow,j,diamond,color_single,颜色,,,,,,,,,,,0,0,0,0,0,0,0,0,0,21,21,21,,,,,,,,,,,,,,,,,,,,,,,,,,,,,,,,,,,131.85412950004684,132.0540404000203,132.03776209999342,132.33811760001117,132.33811760001117,None,132.83864720002748,None,j,1,0.6269886000081897,132.83864720002748,None,None,None,133.48912939999718,None,,,,,,,,,,,,,,,,,,,,,11045,2,1,2024_Jun_01_1634,stroop_task_switching2,2021.2.3,59.99649620587999,
condition/block_color,instruction/instr_color,instruction/i8,XX,blue,f,diamond,color_single,颜色,,,,,,,,,,,0,0,0,0,0,0,0,0,0,22,22,22,,,,,,,,,,,,,,,,,,,,,,,,,,,,,,,,,,,134.4910908000311,134.6918033999973,134.6747122000088,134.97642350004753,134.97642350004753,None,135.47604760003742,None,f,1,0.7020605000434443,135.47604760003742,None,None,None,136.19358750001993,None,,,,,,,,,,,,,,,,,,,,,11045,2,1,2024_Jun_01_1634,stroop_task_switching2,2021.2.3,59.99649620587999,
condition/block_color,instruction/instr_color,instruction/i8,XX,red,d,diamond,color_single,颜色,,,,,,,,,,,0,0,0,0,0,0,0,0,0,23,23,23,,,,,,,,,,,,,,,,,,,,,,,,,,,,,,,,,,,137.19556640001247,137.3957341000205,137.37894320004852,137.67953370005125,137.67953370005125,None,138.18025999999372,None,d,1,0.7418490999843925,138.18025999999372,None,None,None,138.9473893000395,None,,,,,,,,,,,,,,,,,,,,,11045,2,1,2024_Jun_01_1634,stroop_task_switching2,2021.2.3,59.99649620587999,
condition/block_color,instruction/instr_color,instruction/i8,,,,,,,,,,,,,,,,,0,0,0,0,0,0,0,0,,,,,,,,,,,,,,,,,,,,,,,,,,,,,,,,,,,,,,,,,,,,,,,,,,,,,,,,139.98283680004533,None,space,5.160008599981666,139.98283680004533,None,,,,,,,,,,,,,,,11045,2,1,2024_Jun_01_1634,stroop_task_switching2,2021.2.3,59.99649620587999,
condition/block_color,instruction/instr_color,instruction/i8,,,,,,,,,,,,,,,,,0,0,0,0,,,,,,,,,,,,,,,,,,,,,,,,,,,,,,,,,,,,,,,,,,,,,,,,,,,,,,,,,,,,,,,,,,,,,,,,,,,,,,,,11045,2,1,2024_Jun_01_1634,stroop_task_switching2,2021.2.3,59.99649620587999,
condition/block_word,instruction/instr_word,instruction/i9,黄,white,j,square,word_single,单词,0.0032461461866890584,,,,,,,,,,0,1,1,1,0,0,0,0,0,0,0,0,,,,,,,,,,,,,,,,,,,,,145.19073650002247,None,space,3.4412310000043362,145.19073650002247,None,149.6638910000329,150.6656992000062,150.6656992000062,151.66733260004548,151.66733260004548,None,148.68042119999882,149.68022370000836,152.73585170001024,152.93636089999927,152.91915210004663,153.21974080003565,153.21974080003565,None,153.67044980003266,None,j,1,1.5959581999923103,153.67044980003266,None,None,None,155.2893533000024,None,,,,,,,,,,,,,,,,,,,,,11045,2,1,2024_Jun_01_1634,stroop_task_switching2,2021.2.3,59.99649620587999,
condition/block_word,instruction/instr_word,instruction/i9,蓝,white,f,square,word_single,单词,0.060540570646362424,,,,,,,,,,0,1,1,1,0,0,0,0,0,1,1,1,,,,,,,,,,,,,,,,,,,,,,,,,,,,,,,,,,,156.29078040004242,156.49108680000063,156.47449160000542,156.7748398000258,156.7748398000258,None,157.27560560003622,None,f,1,0.9587821000022814,157.27560560003622,None,None,None,158.26081730000442,None,,,,,,,,,,,,,,,,,,,,,11045,2,1,2024_Jun_01_1634,stroop_task_switching2,2021.2.3,59.99649620587999,
condition/block_word,instruction/instr_word,instruction/i9,黄,white,j,square,word_single,单词,0.06994067193778963,,,,,,,,,,0,1,1,1,0,0,0,0,0,2,2,2,,,,,,,,,,,,,,,,,,,,,,,,,,,,,,,,,,,159.26204570004484,159.4623111000401,159.445747699996,159.74513759999536,159.74513759999536,None,160.24681570002576,None,j,1,1.3481083000078797,160.24681570002576,None,None,None,161.61497240001336,None,,,,,,,,,,,,,,,,,,,,,11045,2,1,2024_Jun_01_1634,stroop_task_switching2,2021.2.3,59.99649620587999,
condition/block_word,instruction/instr_word,instruction/i9,蓝,white,f,square,word_single,单词,0.08193765152950094,,,,,,,,,,0,1,1,1,0,0,0,0,0,3,3,3,,,,,,,,,,,,,,,,,,,,,,,,,,,,,,,,,,,162.6169228000217,162.81746440002462,162.8007665000041,163.10111560003133,163.10111560003133,None,163.60165940003935,None,f,1,0.9367506999988109,163.60165940003935,None,None,None,164.57005010003923,None,,,,,,,,,,,,,,,,,,,,,11045,2,1,2024_Jun_01_1634,stroop_task_switching2,2021.2.3,59.99649620587999,
condition/block_word,instruction/instr_word,instruction/i9,红,white,d,square,word_single,单词,0.1279694370605574,,,,,,,,,,0,1,1,1,0,0,0,0,0,4,4,4,,,,,,,,,,,,,,,,,,,,,,,,,,,,,,,,,,,165.57108780002454,165.77163410000503,165.755196800048,166.0552632000181,166.0552632000181,None,166.5554378000088,None,d,1,0.4632137999869883,166.5554378000088,None,None,None,167.0403600000427,None,,,,,,,,,,,,,,,,,,,,,11045,2,1,2024_Jun_01_1634,stroop_task_switching2,2021.2.3,59.99649620587999,
condition/block_word,instruction/instr_word,instruction/i9,红,white,d,square,word_single,单词,0.18345028784879092,,,,,,,,,,0,1,1,1,0,0,0,0,0,5,5,5,,,,,,,,,,,,,,,,,,,,,,,,,,,,,,,,,,,168.04152130003786,168.24222050001845,168.22548730002018,168.52622280002106,168.52622280002106,None,169.0268113000202,None,d,1,0.6085985999670811,169.0268113000202,None,None,None,169.6598370000138,None,,,,,,,,,,,,,,,,,,,,,11045,2,1,2024_Jun_01_1634,stroop_task_switching2,2021.2.3,59.99649620587999,
condition/block_word,instruction/instr_word,instruction/i9,蓝,white,f,square,word_single,单词,0.19920386223101294,,,,,,,,,,0,1,1,1,0,0,0,0,0,6,6,6,,,,,,,,,,,,,,,,,,,,,,,,,,,,,,,,,,,170.66207720001694,170.86430880002445,170.84530380001524,171.14651690004393,171.14651690004393,None,171.6465571000008,None,f,1,0.3966381999780424,171.6465571000008,None,None,None,172.06468670000322,None,,,,,,,,,,,,,,,,,,,,,11045,2,1,2024_Jun_01_1634,stroop_task_switching2,2021.2.3,59.99649620587999,
condition/block_word,instruction/instr_word,instruction/i9,蓝,white,f,square,word_single,单词,0.26360599864925405,,,,,,,,,,0,1,1,1,0,0,0,0,0,7,7,7,,,,,,,,,,,,,,,,,,,,,,,,,,,,,,,,,,,173.06616129999747,173.26622700004373,173.24971600004937,173.5501114000217,173.5501114000217,None,174.0510607000324,None,f,1,0.5039171999669634,174.0510607000324,None,None,None,174.58458110003266,None,,,,,,,,,,,,,,,,,,,,,11045,2,1,2024_Jun_01_1634,stroop_task_switching2,2021.2.3,59.99649620587999,
condition/block_word,instruction/instr_word,instruction/i9,蓝,white,f,square,word_single,单词,0.358985675745526,,,,,,,,,,0,1,1,1,0,0,0,0,0,8,8,8,,,,,,,,,,,,,,,,,,,,,,,,,,,,,,,,,,,175.5867547999951,175.78669520001858,175.7701170000364,176.07018610002706,176.07018610002706,None,176.57139610004378,None,f,1,0.3838081000139937,176.57139610004378,None,None,None,176.97106569999596,None,,,,,,,,,,,,,,,,,,,,,11045,2,1,2024_Jun_01_1634,stroop_task_switching2,2021.2.3,59.99649620587999,
condition/block_word,instruction/instr_word,instruction/i9,绿,white,k,square,word_single,单词,0.36496733802487347,,,,,,,,,,0,1,1,1,0,0,0,0,0,9,9,9,,,,,,,,,,,,,,,,,,,,,,,,,,,,,,,,,,,177.97352240001783,178.1738284000312,178.1569954000297,178.45729600003688,178.45729600003688,None,178.95847360003972,None,k,1,0.7724695000215434,178.95847360003972,None,None,None,179.7603615000262,None,,,,,,,,,,,,,,,,,,,,,11045,2,1,2024_Jun_01_1634,stroop_task_switching2,2021.2.3,59.99649620587999,
condition/block_word,instruction/instr_word,instruction/i9,黄,white,j,square,word_single,单词,0.3743513623756727,,,,,,,,,,0,1,1,1,0,0,0,0,0,10,10,10,,,,,,,,,,,,,,,,,,,,,,,,,,,,,,,,,,,180.76107440004125,180.96138779999455,180.9443679000251,181.24506590003148,181.24506590003148,None,181.74622200004524,None,j,1,0.6330789000494406,181.74622200004524,None,None,None,182.3970018000109,None,,,,,,,,,,,,,,,,,,,,,11045,2,1,2024_Jun_01_1634,stroop_task_switching2,2021.2.3,59.99649620587999,
condition/block_word,instruction/instr_word,instruction/i9,红,white,d,square,word_single,单词,0.3894803852598544,,,,,,,,,,0,1,1,1,0,0,0,0,0,11,11,11,,,,,,,,,,,,,,,,,,,,,,,,,,,,,,,,,,,183.39834710001014,183.5984956000466,183.58264100004453,183.88229670003057,183.88229670003057,None,184.3832159000449,None,d,1,0.5003423999878578,184.3832159000449,None,None,None,184.90050950000295,None,,,,,,,,,,,,,,,,,,,,,11045,2,1,2024_Jun_01_1634,stroop_task_switching2,2021.2.3,59.99649620587999,
condition/block_word,instruction/instr_word,instruction/i9,绿,white,k,square,word_single,单词,0.5393759672408067,,,,,,,,,,0,1,1,1,0,0,0,0,0,12,12,12,,,,,,,,,,,,,,,,,,,,,,,,,,,,,,,,,,,185.90228209999623,186.10238520003622,186.08573120000074,186.38604100001976,186.38604100001976,None,186.8867162000388,None,k,1,0.6603175000054762,186.8867162000388,None,None,None,187.57032270001946,None,,,,,,,,,,,,,,,,,,,,,11045,2,1,2024_Jun_01_1634,stroop_task_switching2,2021.2.3,59.99649620587999,
condition/block_word,instruction/instr_word,instruction/i9,蓝,white,f,square,word_single,单词,0.5995731954831104,,,,,,,,,,0,1,1,1,0,0,0,0,0,13,13,13,,,,,,,,,,,,,,,,,,,,,,,,,,,,,,,,,,,188.5726506000501,188.77274730004137,188.75651830004063,189.05644730001222,189.05644730001222,None,189.55766590003623,None,f,1,1.085409699997399,189.55766590003623,None,None,None,190.6760749000241,None,,,,,,,,,,,,,,,,,,,,,11045,2,1,2024_Jun_01_1634,stroop_task_switching2,2021.2.3,59.99649620587999,
condition/block_word,instruction/instr_word,instruction/i9,红,white,d,square,word_single,单词,0.6298674479151414,,,,,,,,,,0,1,1,1,0,0,0,0,0,14,14,14,,,,,,,,,,,,,,,,,,,,,,,,,,,,,,,,,,,191.67723820003448,191.87688630004413,191.8602086000028,192.16080420004437,192.16080420004437,None,192.662348700047,None,d,1,0.6128057999885641,192.662348700047,None,None,None,193.29558400000678,None,,,,,,,,,,,,,,,,,,,,,11045,2,1,2024_Jun_01_1634,stroop_task_switching2,2021.2.3,59.99649620587999,
condition/block_word,instruction/instr_word,instruction/i9,红,white,d,square,word_single,单词,0.7389942282348904,,,,,,,,,,0,1,1,1,0,0,0,0,0,15,15,15,,,,,,,,,,,,,,,,,,,,,,,,,,,,,,,,,,,194.29714430001331,194.49752340000123,194.4807420000434,194.7811160000274,194.7811160000274,None,195.2816958000185,None,d,1,0.5533960000029765,195.2816958000185,None,None,None,195.86590520001482,None,,,,,,,,,,,,,,,,,,,,,11045,2,1,2024_Jun_01_1634,stroop_task_switching2,2021.2.3,59.99649620587999,
condition/block_word,instruction/instr_word,instruction/i9,绿,white,k,square,word_single,单词,0.7550853947239682,,,,,,,,,,0,1,1,1,0,0,0,0,0,16,16,16,,,,,,,,,,,,,,,,,,,,,,,,,,,,,,,,,,,196.86773390002782,197.068660799996,197.05141920002643,197.3532916000113,197.3532916000113,None,197.85236670001177,None,j,0,0.7110063000000082,197.85236670001177,None,None,None,198.58683129999554,None,,,,,,,,,,,,,,,,,,,,,11045,2,1,2024_Jun_01_1634,stroop_task_switching2,2021.2.3,59.99649620587999,
condition/block_word,instruction/instr_word,instruction/i9,绿,white,k,square,word_single,单词,0.8019302780428206,,,,,,,,,,0,1,1,1,0,0,0,0,0,17,17,17,,,,,,,,,,,,,,,,,,,,,,,,,,,,,,,,,,,199.5883227000013,199.78959450003458,199.7720060000429,200.07265820004977,200.07265820004977,None,200.57345690001966,None,k,1,0.7740289000212215,200.57345690001966,None,None,None,201.37448009999935,None,,,,,,,,,,,,,,,,,,,,,11045,2,1,2024_Jun_01_1634,stroop_task_switching2,2021.2.3,59.99649620587999,
condition/block_word,instruction/instr_word,instruction/i9,绿,white,k,square,word_single,单词,0.8110702914095343,,,,,,,,,,0,1,1,1,0,0,0,0,0,18,18,18,,,,,,,,,,,,,,,,,,,,,,,,,,,,,,,,,,,202.37693820003187,202.5776812999975,202.56086730002426,202.86114930000622,202.86114930000622,None,203.36068550002528,None,k,1,0.4350143000483513,203.36068550002528,None,None,None,203.8119290000177,None,,,,,,,,,,,,,,,,,,,,,11045,2,1,2024_Jun_01_1634,stroop_task_switching2,2021.2.3,59.99649620587999,
condition/block_word,instruction/instr_word,instruction/i9,黄,white,j,square,word_single,单词,0.8176594937590999,,,,,,,,,,0,1,1,1,0,0,0,0,0,19,19,19,,,,,,,,,,,,,,,,,,,,,,,,,,,,,,,,,,,204.81389780004974,205.0146456999937,204.9965794000309,205.29829550004797,205.29829550004797,None,205.79910010000458,None,j,1,0.7404468000167981,205.79910010000458,None,None,None,206.56629490002524,None,,,,,,,,,,,,,,,,,,,,,11045,2,1,2024_Jun_01_1634,stroop_task_switching2,2021.2.3,59.99649620587999,
condition/block_word,instruction/instr_word,instruction/i9,红,white,d,square,word_single,单词,0.8955794421104841,,,,,,,,,,0,1,1,1,0,0,0,0,0,20,20,20,,,,,,,,,,,,,,,,,,,,,,,,,,,,,,,,,,,207.5679216000135,207.76980050001293,207.7514608000056,208.05165570002282,208.05165570002282,None,208.55197830003453,None,d,1,0.7720197000307962,208.55197830003453,None,None,None,209.35332310001832,None,,,,,,,,,,,,,,,,,,,,,11045,2,1,2024_Jun_01_1634,stroop_task_switching2,2021.2.3,59.99649620587999,
condition/block_word,instruction/instr_word,instruction/i9,绿,white,k,square,word_single,单词,0.9113598052474129,,,,,,,,,,0,1,1,1,0,0,0,0,0,21,21,21,,,,,,,,,,,,,,,,,,,,,,,,,,,,,,,,,,,210.35575220000464,210.5549558000057,210.54044220002834,210.83871040004306,210.83871040004306,None,211.33940380002605,None,k,1,0.6883217000286095,211.33940380002605,None,None,None,212.05723580002086,None,,,,,,,,,,,,,,,,,,,,,11045,2,1,2024_Jun_01_1634,stroop_task_switching2,2021.2.3,59.99649620587999,
condition/block_word,instruction/instr_word,instruction/i9,黄,white,j,square,word_single,单词,0.9215930958042953,,,,,,,,,,0,1,1,1,0,0,0,0,0,22,22,22,,,,,,,,,,,,,,,,,,,,,,,,,,,,,,,,,,,213.0596377000329,213.25966260000132,213.243085300026,213.54490900004748,213.54490900004748,None,214.06030510005075,None,j,1,0.7193038000259548,214.06030510005075,None,None,None,214.8113334000227,None,,,,,,,,,,,,,,,,,,,,,11045,2,1,2024_Jun_01_1634,stroop_task_switching2,2021.2.3,59.99649620587999,
condition/block_word,instruction/instr_word,instruction/i9,黄,white,j,square,word_single,单词,0.9493525498837774,,,,,,,,,,0,1,1,1,0,0,0,0,0,23,23,23,,,,,,,,,,,,,,,,,,,,,,,,,,,,,,,,,,,215.81321760005085,216.01471990003483,215.99625760002527,216.29762890003622,216.29762890003622,None,216.79891700000735,None,j,1,0.5731488000019453,216.79891700000735,None,None,None,217.39859490003437,None,,,,,,,,,,,,,,,,,,,,,11045,2,1,2024_Jun_01_1634,stroop_task_switching2,2021.2.3,59.99649620587999,
condition/block_word,instruction/instr_word,instruction/i9,,,,,,,,,,,,,,,,,0,1,1,1,0,0,0,0,,,,,,,,,,,,,,,,,,,,,,,,,,,,,,,,,,,,,,,,,,,,,,,,,,,,,,,,218.39947590004886,None,space,3.315608000033535,218.39947590004886,None,,,,,,,,,,,,,,,11045,2,1,2024_Jun_01_1634,stroop_task_switching2,2021.2.3,59.99649620587999,
condition/block_word,instruction/instr_word,instruction/i9,,,,,,,,,,,,,,,,,0,1,1,1,,,,,,,,,,,,,,,,,,,,,,,,,,,,,,,,,,,,,,,,,,,,,,,,,,,,,,,,,,,,,,,,,,,,,,,,,,,,,,,,11045,2,1,2024_Jun_01_1634,stroop_task_switching2,2021.2.3,59.99649620587999,
condition/block_mixed,instruction/instr_mixed,instruction/i10,蓝,red,d,diamond,color_mix,颜色,,incompatible,0,,,,,,,,0,2,2,2,0,0,0,0,0,0,0,0,,,,,,,,,,,,,,,,,,,,,221.75523150002118,None,space,3.5598365999758244,221.75523150002118,None,226.34617640002398,227.34751210000832,227.34751210000832,228.34973760001594,228.34973760001594,None,225.36204800003907,226.36195430002408,229.38426150003215,229.58531610004138,229.56681079999544,229.8687404000084,229.8687404000084,None,230.35259240004234,None,d,1,1.540201399999205,230.35259240004234,None,None,None,231.92121230001794,None,,,,,,,,,,,,,,,,,,,,,11045,2,1,2024_Jun_01_1634,stroop_task_switching2,2021.2.3,59.99649620587999,
condition/block_mixed,instruction/instr_mixed,instruction/i10,绿,yellow,j,diamond,color_mix,颜色,,incompatible,1,,,,,,,,0,2,2,2,0,0,0,0,0,1,1,1,,,,,,,,,,,,,,,,,,,,,,,,,,,,,,,,,,,232.92254400003003,233.12252100004116,233.10682220000308,233.40675180003745,233.40675180003745,None,233.90761180000845,None,j,1,0.8406821000389755,233.90761180000845,None,None,None,234.774928800005,None,,,,,,,,,,,,,,,,,,,,,11045,2,1,2024_Jun_01_1634,stroop_task_switching2,2021.2.3,59.99649620587999,
condition/block_mixed,instruction/instr_mixed,instruction/i10,红,green,k,diamond,color_mix,颜色,,incompatible,1,,,,,,,,0,2,2,2,0,0,0,0,0,2,2,2,,,,,,,,,,,,,,,,,,,,,,,,,,,,,,,,,,,235.77704770001583,235.97734610002954,235.9605409000069,236.26044080004795,236.26044080004795,None,236.76120090001496,None,k,1,1.3478926999960095,236.76120090001496,None,None,None,238.12977230001707,None,,,,,,,,,,,,,,,,,,,,,11045,2,1,2024_Jun_01_1634,stroop_task_switching2,2021.2.3,59.99649620587999,
condition/block_mixed,instruction/instr_mixed,instruction/i10,蓝,red,d,diamond,color_mix,颜色,,incompatible,1,,,,,,,,0,2,2,2,0,0,0,0,0,3,3,3,,,,,,,,,,,,,,,,,,,,,,,,,,,,,,,,,,,239.1322782000061,239.33281670004362,239.3157804000075,239.6164566000225,239.6164566000225,None,240.11604250001255,None,d,1,0.6971339999581687,240.11604250001255,None,None,None,240.83387630002107,None,,,,,,,,,,,,,,,,,,,,,11045,2,1,2024_Jun_01_1634,stroop_task_switching2,2021.2.3,59.99649620587999,
condition/block_mixed,instruction/instr_mixed,instruction/i10,红,blue,f,diamond,color_mix,颜色,,incompatible,1,,,,,,,,0,2,2,2,0,0,0,0,0,4,4,4,,,,,,,,,,,,,,,,,,,,,,,,,,,,,,,,,,,241.83622220001416,242.03637470002286,242.01995760004502,242.31958430004306,242.31958430004306,None,242.82005979999667,None,f,1,1.1602689000428654,242.82005979999667,None,None,None,244.00582250003936,None,,,,,,,,,,,,,,,,,,,,,11045,2,1,2024_Jun_01_1634,stroop_task_switching2,2021.2.3,59.99649620587999,
condition/block_mixed,instruction/instr_mixed,instruction/i10,红,blue,d,square,color_mix,单词,,incompatible,2,,,,,,,,0,2,2,2,0,0,0,0,0,5,5,5,,,,,,,,,,,,,,,,,,,,,,,,,,,,,,,,,,,245.00674650003202,245.20953410002403,245.19062120001763,245.4917997000157,245.4917997000157,None,245.9918134000036,None,f,0,0.7648363999905996,245.9918134000036,None,None,None,246.77630050003063,None,,,,,,,,,,,,,,,,,,,,,11045,2,1,2024_Jun_01_1634,stroop_task_switching2,2021.2.3,59.99649620587999,
condition/block_mixed,instruction/instr_mixed,instruction/i10,红,yellow,j,diamond,color_mix,颜色,,incompatible,2,,,,,,,,0,2,2,2,0,0,0,0,0,6,6,6,,,,,,,,,,,,,,,,,,,,,,,,,,,,,,,,,,,247.7788700000383,247.97925650002435,247.96154119999846,248.26316830003634,248.26316830003634,None,248.76337440003408,None,j,1,1.3774489000206813,248.76337440003408,None,None,None,250.16458830004558,None,,,,,,,,,,,,,,,,,,,,,11045,2,1,2024_Jun_01_1634,stroop_task_switching2,2021.2.3,59.99649620587999,
condition/block_mixed,instruction/instr_mixed,instruction/i10,红,yellow,d,square,color_mix,单词,,incompatible,2,,,,,,,,0,2,2,2,0,0,0,0,0,7,7,7,,,,,,,,,,,,,,,,,,,,,,,,,,,,,,,,,,,251.16612670000177,251.36766340001486,251.3497548000305,251.65105700003915,251.65105700003915,None,252.151028399996,None,j,0,0.7427652000333183,252.151028399996,None,None,None,252.91896860004636,None,,,,,,,,,,,,,,,,,,,,,11045,2,1,2024_Jun_01_1634,stroop_task_switching2,2021.2.3,59.99649620587999,
condition/block_mixed,instruction/instr_mixed,instruction/i10,绿,blue,k,square,color_mix,单词,,incompatible,1,,,,,,,,0,2,2,2,0,0,0,0,0,8,8,8,,,,,,,,,,,,,,,,,,,,,,,,,,,,,,,,,,,253.92130170000019,254.1213146999944,254.10478540003533,254.4059949000366,254.4059949000366,None,254.90595020004548,None,f,0,0.7954705000156537,254.90595020004548,None,None,None,255.7239630999975,None,,,,,,,,,,,,,,,,,,,,,11045,2,1,2024_Jun_01_1634,stroop_task_switching2,2021.2.3,59.99649620587999,
condition/block_mixed,instruction/instr_mixed,instruction/i10,蓝,green,k,diamond,color_mix,颜色,,incompatible,2,,,,,,,,0,2,2,2,0,0,0,0,0,9,9,9,,,,,,,,,,,,,,,,,,,,,,,,,,,,,,,,,,,256.72446590004256,256.9247808000073,256.9089462000411,257.210133900051,257.210133900051,None,257.7099906000076,None,k,1,0.9680945000145584,257.7099906000076,None,None,None,258.69434550002916,None,,,,,,,,,,,,,,,,,,,,,11045,2,1,2024_Jun_01_1634,stroop_task_switching2,2021.2.3,59.99649620587999,
condition/block_mixed,instruction/instr_mixed,instruction/i10,蓝,yellow,f,square,color_mix,单词,,incompatible,2,,,,,,,,0,2,2,2,0,0,0,0,0,10,10,10,,,,,,,,,,,,,,,,,,,,,,,,,,,,,,,,,,,259.6956804000074,259.895936600049,259.87921610003104,260.18066070001805,260.18066070001805,None,260.6813089000061,None,j,0,0.8917352000134997,260.6813089000061,None,None,None,261.5987082000356,None,,,,,,,,,,,,,,,,,,,,,11045,2,1,2024_Jun_01_1634,stroop_task_switching2,2021.2.3,59.99649620587999,
condition/block_mixed,instruction/instr_mixed,instruction/i10,蓝,green,f,square,color_mix,单词,,incompatible,1,,,,,,,,0,2,2,2,0,0,0,0,0,11,11,11,,,,,,,,,,,,,,,,,,,,,,,,,,,,,,,,,,,262.6011662000092,262.80139999999665,262.78454040002543,263.0842359000235,263.0842359000235,None,263.58552190003684,None,f,1,1.4676558999926783,263.58552190003684,None,None,None,265.070506100019,None,,,,,,,,,,,,,,,,,,,,,11045,2,1,2024_Jun_01_1634,stroop_task_switching2,2021.2.3,59.99649620587999,
condition/block_mixed,instruction/instr_mixed,instruction/i10,绿,yellow,k,square,color_mix,单词,,incompatible,1,,,,,,,,0,2,2,2,0,0,0,0,0,12,12,12,,,,,,,,,,,,,,,,,,,,,,,,,,,,,,,,,,,266.07202690001577,266.2723072000081,266.2573403000133,266.55607180000516,266.55607180000516,None,267.0567276000511,None,j,0,1.1724898000247777,267.0567276000511,None,None,None,268.25869310001144,None,,,,,,,,,,,,,,,,,,,,,11045,2,1,2024_Jun_01_1634,stroop_task_switching2,2021.2.3,59.99649620587999,
condition/block_mixed,instruction/instr_mixed,instruction/i10,绿,blue,f,diamond,color_mix,颜色,,incompatible,2,,,,,,,,0,2,2,2,0,0,0,0,0,13,13,13,,,,,,,,,,,,,,,,,,,,,,,,,,,,,,,,,,,269.260834500019,269.4604213000275,269.4446913000429,269.7439449999947,269.7439449999947,None,270.24497340002563,None,f,1,0.9700265999999829,270.24497340002563,None,None,None,271.22957990004215,None,,,,,,,,,,,,,,,,,,,,,11045,2,1,2024_Jun_01_1634,stroop_task_switching2,2021.2.3,59.99649620587999,
condition/block_mixed,instruction/instr_mixed,instruction/i10,黄,red,j,square,color_mix,单词,,incompatible,2,,,,,,,,0,2,2,2,0,0,0,0,0,14,14,14,,,,,,,,,,,,,,,,,,,,,,,,,,,,,,,,,,,272.2321228000219,272.4331549000344,272.41497199999867,272.7198423999944,272.7198423999944,None,273.2325732000172,None,d,0,1.0210136999958195,273.2325732000172,None,None,None,274.26777229999425,None,,,,,,,,,,,,,,,,,,,,,11045,2,1,2024_Jun_01_1634,stroop_task_switching2,2021.2.3,59.99649620587999,
condition/block_mixed,instruction/instr_mixed,instruction/i10,蓝,yellow,j,diamond,color_mix,颜色,,incompatible,2,,,,,,,,0,2,2,2,0,0,0,0,0,15,15,15,,,,,,,,,,,,,,,,,,,,,,,,,,,,,,,,,,,275.26929320005,275.4696031000349,275.4527703000349,275.75329580000835,275.75329580000835,None,276.2540483000339,None,j,1,1.6398818000452593,276.2540483000339,None,None,None,277.9231678000069,None,,,,,,,,,,,,,,,,,,,,,11045,2,1,2024_Jun_01_1634,stroop_task_switching2,2021.2.3,59.99649620587999,
condition/block_mixed,instruction/instr_mixed,instruction/i10,黄,red,d,diamond,color_mix,颜色,,incompatible,1,,,,,,,,0,2,2,2,0,0,0,0,0,16,16,16,,,,,,,,,,,,,,,,,,,,,,,,,,,,,,,,,,,278.9246356000076,279.1260127000278,279.1091414000257,279.4091607000446,279.4091607000446,None,279.9096742999973,None,d,1,0.9759694000240415,279.9096742999973,None,None,None,280.91108390002046,None,,,,,,,,,,,,,,,,,,,,,11045,2,1,2024_Jun_01_1634,stroop_task_switching2,2021.2.3,59.99649620587999,
condition/block_mixed,instruction/instr_mixed,instruction/i10,绿,red,k,square,color_mix,单词,,incompatible,2,,,,,,,,0,2,2,2,0,0,0,0,0,17,17,17,,,,,,,,,,,,,,,,,,,,,,,,,,,,,,,,,,,281.91246040002443,282.11462260002736,282.09611830004724,282.3976184000494,282.3976184000494,None,282.8975113000488,None,k,1,1.7640393000328913,282.8975113000488,None,None,None,284.6835069000372,None,,,,,,,,,,,,,,,,,,,,,11045,2,1,2024_Jun_01_1634,stroop_task_switching2,2021.2.3,59.99649620587999,
condition/block_mixed,instruction/instr_mixed,instruction/i10,红,green,d,square,color_mix,单词,,incompatible,1,,,,,,,,0,2,2,2,0,0,0,0,0,18,18,18,,,,,,,,,,,,,,,,,,,,,,,,,,,,,,,,,,,285.68500550003955,285.8851252000313,285.8695934000425,286.16882660001284,286.16882660001284,None,286.66979600000195,None,d,1,1.4160299999639392,286.66979600000195,None,None,None,288.10528960003285,None,,,,,,,,,,,,,,,,,,,,,11045,2,1,2024_Jun_01_1634,stroop_task_switching2,2021.2.3,59.99649620587999,
condition/block_mixed,instruction/instr_mixed,instruction/i10,黄,blue,f,diamond,color_mix,颜色,,incompatible,2,,,,,,,,0,2,2,2,0,0,0,0,0,19,19,19,,,,,,,,,,,,,,,,,,,,,,,,,,,,,,,,,,,289.10758910002187,289.3076186000253,289.2912338000024,289.5917446000385,289.5917446000385,None,290.091507300036,None,f,1,1.7541573000489734,290.091507300036,None,None,None,291.8609900000156,None,,,,,,,,,,,,,,,,,,,,,11045,2,1,2024_Jun_01_1634,stroop_task_switching2,2021.2.3,59.99649620587999,
condition/block_mixed,instruction/instr_mixed,instruction/i10,黄,green,k,diamond,color_mix,颜色,,incompatible,1,,,,,,,,0,2,2,2,0,0,0,0,0,20,20,20,,,,,,,,,,,,,,,,,,,,,,,,,,,,,,,,,,,292.8623418000061,293.06367090001004,293.0470020000357,293.3480197000317,293.3480197000317,None,293.8472400000319,None,k,1,0.799772500002291,293.8472400000319,None,None,None,294.6651440000278,None,,,,,,,,,,,,,,,,,,,,,11045,2,1,2024_Jun_01_1634,stroop_task_switching2,2021.2.3,59.99649620587999,
condition/block_mixed,instruction/instr_mixed,instruction/i10,黄,green,j,square,color_mix,单词,,incompatible,2,,,,,,,,0,2,2,2,0,0,0,0,0,21,21,21,,,,,,,,,,,,,,,,,,,,,,,,,,,,,,,,,,,295.6681043000426,295.8836627000128,295.85015360004036,296.15142180002294,296.15142180002294,None,296.65197180001996,None,j,1,1.0421683000167832,296.65197180001996,None,None,None,297.7203647000133,None,,,,,,,,,,,,,,,,,,,,,11045,2,1,2024_Jun_01_1634,stroop_task_switching2,2021.2.3,59.99649620587999,
condition/block_mixed,instruction/instr_mixed,instruction/i10,黄,blue,j,square,color_mix,单词,,incompatible,1,,,,,,,,0,2,2,2,0,0,0,0,0,22,22,22,,,,,,,,,,,,,,,,,,,,,,,,,,,,,,,,,,,298.7218866000185,298.92196470004274,298.90521500003524,299.20704720000504,299.20704720000504,None,299.70611990004545,None,j,1,1.3239919999614358,299.70611990004545,None,None,None,301.05827130004764,None,,,,,,,,,,,,,,,,,,,,,11045,2,1,2024_Jun_01_1634,stroop_task_switching2,2021.2.3,59.99649620587999,
condition/block_mixed,instruction/instr_mixed,instruction/i10,蓝,red,f,square,color_mix,单词,,incompatible,1,,,,,,,,0,2,2,2,0,0,0,0,0,23,23,23,,,,,,,,,,,,,,,,,,,,,,,,,,,,,,,,,,,302.0596781000495,302.2610831000493,302.24422360002063,302.54628370003775,302.54628370003775,None,303.06169679999584,None,f,1,1.0407774999621324,303.06169679999584,None,None,None,304.12932800001,None,,,,,,,,,,,,,,,,,,,,,11045,2,1,2024_Jun_01_1634,stroop_task_switching2,2021.2.3,59.99649620587999,
condition/block_mixed,instruction/instr_mixed,instruction/i10,绿,red,d,diamond,color_mix,颜色,,incompatible,2,,,,,,,,0,2,2,2,0,0,0,0,0,24,24,24,,,,,,,,,,,,,,,,,,,,,,,,,,,,,,,,,,,305.13094180001644,305.3314851000323,305.31453680002596,305.61630460002925,305.61630460002925,None,306.11564020003425,None,d,1,1.5630234000273049,306.11564020003425,None,None,None,307.70207060000394,None,,,,,,,,,,,,,,,,,,,,,11045,2,1,2024_Jun_01_1634,stroop_task_switching2,2021.2.3,59.99649620587999,
condition/block_mixed,instruction/instr_mixed,instruction/i10,绿,green,k,diamond,color_mix,颜色,,compatible,1,,,,,,,,0,2,2,2,0,0,0,0,0,25,25,25,,,,,,,,,,,,,,,,,,,,,,,,,,,,,,,,,,,308.70438130002003,308.90385640005115,308.8875317000202,309.1869569999981,309.1869569999981,None,309.68866830004845,None,k,1,1.5343803000287153,309.68866830004845,None,None,None,311.24078430002555,None,,,,,,,,,,,,,,,,,,,,,11045,2,1,2024_Jun_01_1634,stroop_task_switching2,2021.2.3,59.99649620587999,
condition/block_mixed,instruction/instr_mixed,instruction/i10,蓝,blue,f,diamond,color_mix,颜色,,compatible,1,,,,,,,,0,2,2,2,0,0,0,0,0,26,26,26,,,,,,,,,,,,,,,,,,,,,,,,,,,,,,,,,,,312.2422819000203,312.44271890004165,312.4252090000082,312.7256694000098,312.7256694000098,None,313.22730389999924,None,f,1,0.7954629000159912,313.22730389999924,None,None,None,314.04444210004294,None,,,,,,,,,,,,,,,,,,,,,11045,2,1,2024_Jun_01_1634,stroop_task_switching2,2021.2.3,59.99649620587999,
condition/block_mixed,instruction/instr_mixed,instruction/i10,绿,green,k,square,color_mix,单词,,compatible,2,,,,,,,,0,2,2,2,0,0,0,0,0,27,27,27,,,,,,,,,,,,,,,,,,,,,,,,,,,,,,,,,,,315.045719500049,315.2469245000393,315.2303308999981,315.5306305999984,315.5306305999984,None,316.0319827000494,None,k,1,1.070631599985063,316.0319827000494,None,None,None,317.1323942000163,None,,,,,,,,,,,,,,,,,,,,,11045,2,1,2024_Jun_01_1634,stroop_task_switching2,2021.2.3,59.99649620587999,
condition/block_mixed,instruction/instr_mixed,instruction/i10,绿,green,k,square,color_mix,单词,,compatible,1,,,,,,,,0,2,2,2,0,0,0,0,0,28,28,28,,,,,,,,,,,,,,,,,,,,,,,,,,,,,,,,,,,318.13498960004654,318.33418190001976,318.3181275000097,318.61843730002875,318.61843730002875,None,319.1195957000018,None,k,1,0.8072097999975085,319.1195957000018,None,None,None,319.9532746000332,None,,,,,,,,,,,,,,,,,,,,,11045,2,1,2024_Jun_01_1634,stroop_task_switching2,2021.2.3,59.99649620587999,
condition/block_mixed,instruction/instr_mixed,instruction/i10,蓝,blue,f,square,color_mix,单词,,compatible,1,,,,,,,,0,2,2,2,0,0,0,0,0,29,29,29,,,,,,,,,,,,,,,,,,,,,,,,,,,,,,,,,,,320.95547250000527,321.15668330003973,321.13849040004425,321.440015900007,321.440015900007,None,321.93955080001615,None,f,1,1.0754275000072084,321.93955080001615,None,None,None,323.0414880000171,None,,,,,,,,,,,,,,,,,,,,,11045,2,1,2024_Jun_01_1634,stroop_task_switching2,2021.2.3,59.99649620587999,
condition/block_mixed,instruction/instr_mixed,instruction/i10,黄,yellow,j,diamond,color_mix,颜色,,compatible,2,,,,,,,,0,2,2,2,0,0,0,0,0,30,30,30,,,,,,,,,,,,,,,,,,,,,,,,,,,,,,,,,,,324.04274530004477,324.24504760000855,324.22701150004286,324.5277402000502,324.5277402000502,None,325.02752550004516,None,j,1,0.9234632999869063,325.02752550004516,None,None,None,325.97888780001085,None,,,,,,,,,,,,,,,,,,,,,11045,2,1,2024_Jun_01_1634,stroop_task_switching2,2021.2.3,59.99649620587999,
condition/block_mixed,instruction/instr_mixed,instruction/i10,绿,green,k,square,color_mix,单词,,compatible,2,,,,,,,,0,2,2,2,0,0,0,0,0,31,31,31,,,,,,,,,,,,,,,,,,,,,,,,,,,,,,,,,,,326.98072039999533,327.1811848000507,327.16477360000135,327.4645933000138,327.4645933000138,None,327.96678539999994,None,k,1,1.0018472999799997,327.96678539999994,None,None,None,328.9834716000478,None,,,,,,,,,,,,,,,,,,,,,11045,2,1,2024_Jun_01_1634,stroop_task_switching2,2021.2.3,59.99649620587999,
condition/block_mixed,instruction/instr_mixed,instruction/i10,黄,yellow,j,square,color_mix,单词,,compatible,1,,,,,,,,0,2,2,2,0,0,0,0,0,32,32,32,,,,,,,,,,,,,,,,,,,,,,,,,,,,,,,,,,,329.9851090000011,330.18579100002535,330.168900699995,330.4689906000276,330.4689906000276,None,330.9707264000317,None,j,1,1.4446626999997534,330.9707264000317,None,None,None,332.4388004000066,None,,,,,,,,,,,,,,,,,,,,,11045,2,1,2024_Jun_01_1634,stroop_task_switching2,2021.2.3,59.99649620587999,
condition/block_mixed,instruction/instr_mixed,instruction/i10,绿,green,k,diamond,color_mix,颜色,,compatible,2,,,,,,,,0,2,2,2,0,0,0,0,0,33,33,33,,,,,,,,,,,,,,,,,,,,,,,,,,,,,,,,,,,333.44055150001077,333.64057680004044,333.6244702000404,333.9242162000155,333.9242162000155,None,334.42580240004463,None,k,1,0.8851415999815799,334.42580240004463,None,None,None,335.3263266000431,None,,,,,,,,,,,,,,,,,,,,,11045,2,1,2024_Jun_01_1634,stroop_task_switching2,2021.2.3,59.99649620587999,
condition/block_mixed,instruction/instr_mixed,instruction/i10,红,red,d,square,color_mix,单词,,compatible,2,,,,,,,,0,2,2,2,0,0,0,0,0,34,34,34,,,,,,,,,,,,,,,,,,,,,,,,,,,,,,,,,,,336.32850630005123,336.52911310002673,336.51354160002666,336.81288929999573,336.81288929999573,None,337.31321580003714,None,d,1,0.5738486000336707,337.31321580003714,None,None,None,337.91435140004614,None,,,,,,,,,,,,,,,,,,,,,11045,2,1,2024_Jun_01_1634,stroop_task_switching2,2021.2.3,59.99649620587999,
condition/block_mixed,instruction/instr_mixed,instruction/i10,黄,yellow,j,square,color_mix,单词,,compatible,1,,,,,,,,0,2,2,2,0,0,0,0,0,35,35,35,,,,,,,,,,,,,,,,,,,,,,,,,,,,,,,,,,,338.9151320999954,339.11610300000757,339.0995501000434,339.39970720000565,339.39970720000565,None,339.89997399999993,None,f,0,0.5074136999901384,339.89997399999993,None,None,None,340.4340700000175,None,,,,,,,,,,,,,,,,,,,,,11045,2,1,2024_Jun_01_1634,stroop_task_switching2,2021.2.3,59.99649620587999,
condition/block_mixed,instruction/instr_mixed,instruction/i10,绿,green,k,diamond,color_mix,颜色,,compatible,2,,,,,,,,0,2,2,2,0,0,0,0,0,36,36,36,,,,,,,,,,,,,,,,,,,,,,,,,,,,,,,,,,,341.43580140004633,341.6366949000512,341.61995630001184,341.91970810003113,341.91970810003113,None,342.42065810004715,None,k,1,0.8026858999510296,342.42065810004715,None,None,None,343.2551257000305,None,,,,,,,,,,,,,,,,,,,,,11045,2,1,2024_Jun_01_1634,stroop_task_switching2,2021.2.3,59.99649620587999,
condition/block_mixed,instruction/instr_mixed,instruction/i10,蓝,blue,f,square,color_mix,单词,,compatible,2,,,,,,,,0,2,2,2,0,0,0,0,0,37,37,37,,,,,,,,,,,,,,,,,,,,,,,,,,,,,,,,,,,344.2577144000097,344.4585130000487,344.4402991000097,344.7408645999967,344.7408645999967,None,345.2414623000077,None,f,1,1.045809899980668,345.2414623000077,None,None,None,346.3097781999968,None,,,,,,,,,,,,,,,,,,,,,11045,2,1,2024_Jun_01_1634,stroop_task_switching2,2021.2.3,59.99649620587999,
condition/block_mixed,instruction/instr_mixed,instruction/i10,红,red,d,square,color_mix,单词,,compatible,1,,,,,,,,0,2,2,2,0,0,0,0,0,38,38,38,,,,,,,,,,,,,,,,,,,,,,,,,,,,,,,,,,,347.3124635000131,347.512906900025,347.49563030002173,347.79636940005,347.79636940005,None,348.29632980003953,None,d,1,0.5271027000271715,348.29632980003953,None,None,None,348.84730680001667,None,,,,,,,,,,,,,,,,,,,,,11045,2,1,2024_Jun_01_1634,stroop_task_switching2,2021.2.3,59.99649620587999,
condition/block_mixed,instruction/instr_mixed,instruction/i10,黄,yellow,j,diamond,color_mix,颜色,,compatible,2,,,,,,,,0,2,2,2,0,0,0,0,0,39,39,39,,,,,,,,,,,,,,,,,,,,,,,,,,,,,,,,,,,349.84883490001084,350.05113950005034,350.0328026000061,350.3337099000346,350.3337099000346,None,350.83398220001254,None,j,1,1.1734041000017896,350.83398220001254,None,None,None,352.03485729999375,None,,,,,,,,,,,,,,,,,,,,,11045,2,1,2024_Jun_01_1634,stroop_task_switching2,2021.2.3,59.99649620587999,
condition/block_mixed,instruction/instr_mixed,instruction/i10,黄,yellow,j,square,color_mix,单词,,compatible,2,,,,,,,,0,2,2,2,0,0,0,0,0,40,40,40,,,,,,,,,,,,,,,,,,,,,,,,,,,,,,,,,,,353.03636570001254,353.2391900999937,353.21997910004575,353.52136390004307,353.52136390004307,None,354.02137660002336,None,j,1,0.7063325999770314,354.02137660002336,None,None,None,354.755709100049,None,,,,,,,,,,,,,,,,,,,,,11045,2,1,2024_Jun_01_1634,stroop_task_switching2,2021.2.3,59.99649620587999,
condition/block_mixed,instruction/instr_mixed,instruction/i10,蓝,blue,f,square,color_mix,单词,,compatible,1,,,,,,,,0,2,2,2,0,0,0,0,0,41,41,41,,,,,,,,,,,,,,,,,,,,,,,,,,,,,,,,,,,355.75715750001837,355.9582801000215,355.9408834000351,356.2414049000363,356.2414049000363,None,356.74186270002974,None,d,0,0.713722400018014,356.74186270002974,None,None,None,357.4763848000439,None,,,,,,,,,,,,,,,,,,,,,11045,2,1,2024_Jun_01_1634,stroop_task_switching2,2021.2.3,59.99649620587999,
condition/block_mixed,instruction/instr_mixed,instruction/i10,蓝,blue,f,diamond,color_mix,颜色,,compatible,2,,,,,,,,0,2,2,2,0,0,0,0,0,42,42,42,,,,,,,,,,,,,,,,,,,,,,,,,,,,,,,,,,,358.4780551000149,358.6781907000113,358.6615746000316,358.9623266000417,358.9623266000417,None,359.4626234000316,None,f,1,0.976874099986162,359.4626234000316,None,None,None,360.46424550004303,None,,,,,,,,,,,,,,,,,,,,,11045,2,1,2024_Jun_01_1634,stroop_task_switching2,2021.2.3,59.99649620587999,
condition/block_mixed,instruction/instr_mixed,instruction/i10,黄,yellow,j,diamond,color_mix,颜色,,compatible,1,,,,,,,,0,2,2,2,0,0,0,0,0,43,43,43,,,,,,,,,,,,,,,,,,,,,,,,,,,,,,,,,,,361.465625700017,361.6660526000196,361.65032430004794,361.9506476999959,361.9340709000244,None,362.4339280000422,None,j,1,0.7579399000387639,362.4339280000422,None,None,None,363.2191912000417,None,,,,,,,,,,,,,,,,,,,,,11045,2,1,2024_Jun_01_1634,stroop_task_switching2,2021.2.3,59.99649620587999,
condition/block_mixed,instruction/instr_mixed,instruction/i10,红,red,d,diamond,color_mix,颜色,,compatible,1,,,,,,,,0,2,2,2,0,0,0,0,0,44,44,44,,,,,,,,,,,,,,,,,,,,,,,,,,,,,,,,,,,364.2209053999977,364.4212665000232,364.4044455999974,364.70396390004316,364.70396390004316,None,365.2046755000483,None,d,1,0.715781299979426,365.2046755000483,None,None,None,365.9391774000251,None,,,,,,,,,,,,,,,,,,,,,11045,2,1,2024_Jun_01_1634,stroop_task_switching2,2021.2.3,59.99649620587999,
condition/block_mixed,instruction/instr_mixed,instruction/i10,蓝,blue,f,diamond,color_mix,颜色,,compatible,1,,,,,,,,0,2,2,2,0,0,0,0,0,45,45,45,,,,,,,,,,,,,,,,,,,,,,,,,,,,,,,,,,,366.9415318000247,367.14105310000014,367.1243790000444,367.4250930999988,367.4250930999988,None,367.92546440003207,None,j,0,0.9863890000269748,367.92546440003207,None,None,None,368.9272329999949,None,,,,,,,,,,,,,,,,,,,,,11045,2,1,2024_Jun_01_1634,stroop_task_switching2,2021.2.3,59.99649620587999,
condition/block_mixed,instruction/instr_mixed,instruction/i10,红,red,d,diamond,color_mix,颜色,,compatible,1,,,,,,,,0,2,2,2,0,0,0,0,0,46,46,46,,,,,,,,,,,,,,,,,,,,,,,,,,,,,,,,,,,369.92957560002105,370.12994000001345,370.11227360001067,370.41278610000154,370.41278610000154,None,370.9141914000502,None,d,1,0.5579770000185817,370.9141914000502,None,None,None,371.4981328000431,None,,,,,,,,,,,,,,,,,,,,,11045,2,1,2024_Jun_01_1634,stroop_task_switching2,2021.2.3,59.99649620587999,
condition/block_mixed,instruction/instr_mixed,instruction/i10,红,red,d,square,color_mix,单词,,compatible,2,,,,,,,,0,2,2,2,0,0,0,0,0,47,47,47,,,,,,,,,,,,,,,,,,,,,,,,,,,,,,,,,,,372.5000297999941,372.699621900043,372.6828211999964,372.9840404000133,372.9840404000133,None,373.48501600004965,None,d,1,0.6511161999660544,373.48501600004965,None,None,None,374.15162800002145,None,,,,,,,,,,,,,,,,,,,,,11045,2,1,2024_Jun_01_1634,stroop_task_switching2,2021.2.3,59.99649620587999,
condition/block_mixed,instruction/instr_mixed,instruction/i10,红,red,d,diamond,color_mix,颜色,,compatible,2,,,,,,,,0,2,2,2,0,0,0,0,0,48,48,48,,,,,,,,,,,,,,,,,,,,,,,,,,,,,,,,,,,375.15323240001453,375.35350590001326,375.33795930002816,375.63719800004037,375.63719800004037,None,376.1378748000134,None,d,1,0.6229109999840148,376.1378748000134,None,None,None,376.78904120001243,None,,,,,,,,,,,,,,,,,,,,,11045,2,1,2024_Jun_01_1634,stroop_task_switching2,2021.2.3,59.99649620587999,
condition/block_mixed,instruction/instr_mixed,instruction/i10,,,,,,,,,,,,,,,,,0,2,2,2,0,0,0,0,,,,,,,,,,,,,,,,,,,,,,,,,,,,,,,,,,,,,,,,,,,,,,,,,,,,,,,,377.7901851000497,None,space,13.138824000023305,377.7901851000497,None,,,,,,,,,,,,,,,11045,2,1,2024_Jun_01_1634,stroop_task_switching2,2021.2.3,59.99649620587999,
condition/block_mixed,instruction/instr_mixed,instruction/i10,,,,,,,,,,,,,,,,,0,2,2,2,,,,,,,,,,,,,,,,,,,,,,,,,,,,,,,,,,,,,,,,,,,,,,,,,,,,,,,,,,,,,,,,,,,,,,,,,,,,,,,,11045,2,1,2024_Jun_01_1634,stroop_task_switching2,2021.2.3,59.99649620587999,
,,,红,red,d,square,color_mix,单词,,compatible,0,block_switch1,instruction/ready_test.png,instruction/i11.png,,,,,,,,,,,,,,,,,0,0,0,0,0,0,0,0,,,,,,,,,,,,,,,,,,,396.60283250000793,397.60480130004,397.60480130004,398.6052558000083,398.6052558000083,None,395.6174374000402,396.6190667000483,399.64048000000184,399.8414476000471,399.8245494000148,400.12449790001847,400.12449790001847,None,400.624827200023,None,d,1,0.8645348999998532,400.624827200023,None,None,None,,,,,,,,,390.99528380000265,None,space,4.606422699987888,390.99528380000265,None,,,,,,,,,11045,2,1,2024_Jun_01_1634,stroop_task_switching2,2021.2.3,59.99649620587999,
,,,绿,green,k,diamond,color_mix,颜色,,compatible,2,block_switch1,instruction/ready_test.png,instruction/i11.png,,,,,,,,,,,,,,,,,0,0,0,0,0,1,1,1,,,,,,,,,,,,,,,,,,,,,,,,,,,401.5095023000031,401.711127400049,401.6932918000384,401.99357730004704,401.99357730004704,None,402.49515370000154,None,k,1,1.5149903999990784,402.49515370000154,None,None,None,,,,,,,,,,,,,,,,,,,,,,,11045,2,1,2024_Jun_01_1634,stroop_task_switching2,2021.2.3,59.99649620587999,
,,,绿,yellow,j,diamond,color_mix,颜色,,incompatible,1,block_switch1,instruction/ready_test.png,instruction/i11.png,,,,,,,,,,,,,,,,,0,0,0,0,0,2,2,2,,,,,,,,,,,,,,,,,,,,,,,,,,,404.0298845000216,404.2309601000161,404.2154945000075,404.5145698999986,404.5145698999986,None,405.0155420000083,None,j,1,0.9855405000271276,405.0155420000083,None,None,None,,,,,,,,,,,,,,,,,,,,,,,11045,2,1,2024_Jun_01_1634,stroop_task_switching2,2021.2.3,59.99649620587999,
,,,蓝,blue,f,diamond,color_mix,颜色,,compatible,1,block_switch1,instruction/ready_test.png,instruction/i11.png,,,,,,,,,,,,,,,,,0,0,0,0,0,3,3,3,,,,,,,,,,,,,,,,,,,,,,,,,,,406.03411170002073,406.23444030003157,406.21667520003393,406.51717210002244,406.51717210002244,None,407.0178715000511,None,f,1,0.7191826999769546,407.0178715000511,None,None,None,,,,,,,,,,,,,,,,,,,,,,,11045,2,1,2024_Jun_01_1634,stroop_task_switching2,2021.2.3,59.99649620587999,
,,,绿,green,k,square,color_mix,单词,,compatible,2,block_switch1,instruction/ready_test.png,instruction/i11.png,,,,,,,,,,,,,,,,,0,0,0,0,0,4,4,4,,,,,,,,,,,,,,,,,,,,,,,,,,,407.76985480001895,407.96952969999984,407.95360330003314,408.253520200029,408.253520200029,None,408.7539660000475,None,j,0,1.0869678999879397,408.7539660000475,None,None,None,,,,,,,,,,,,,,,,,,,,,,,11045,2,1,2024_Jun_01_1634,stroop_task_switching2,2021.2.3,59.99649620587999,
,,,绿,blue,f,diamond,color_mix,颜色,,incompatible,2,block_switch1,instruction/ready_test.png,instruction/i11.png,,,,,,,,,,,,,,,,,0,0,0,0,0,5,5,5,,,,,,,,,,,,,,,,,,,,,,,,,,,409.87205330003053,410.0740485000424,410.0558316000388,410.3568108000327,410.3568108000327,None,410.8571083000279,None,f,1,1.7925054999650456,410.8571083000279,None,None,None,,,,,,,,,,,,,,,,,,,,,,,11045,2,1,2024_Jun_01_1634,stroop_task_switching2,2021.2.3,59.99649620587999,
,,,黄,red,j,square,color_mix,单词,,incompatible,2,block_switch1,instruction/ready_test.png,instruction/i11.png,,,,,,,,,,,,,,,,,0,0,0,0,0,6,6,6,,,,,,,,,,,,,,,,,,,,,,,,,,,412.6773707999964,412.8778841000167,412.86125180003,413.16070360003505,413.16070360003505,None,413.662496200006,None,j,1,2.571295299974736,413.662496200006,None,None,None,,,,,,,,,,,,,,,,,,,,,,,11045,2,1,2024_Jun_01_1634,stroop_task_switching2,2021.2.3,59.99649620587999,
,,,绿,green,k,square,color_mix,单词,,compatible,1,block_switch1,instruction/ready_test.png,instruction/i11.png,,,,,,,,,,,,,,,,,0,0,0,0,0,7,7,7,,,,,,,,,,,,,,,,,,,,,,,,,,,416.24836389999837,416.44878219999373,416.43307020002976,416.73239280004054,416.73239280004054,None,417.23327270004665,None,k,1,1.7122913000057451,417.23327270004665,None,None,None,,,,,,,,,,,,,,,,,,,,,,,11045,2,1,2024_Jun_01_1634,stroop_task_switching2,2021.2.3,59.99649620587999,
,,,蓝,blue,f,square,color_mix,单词,,compatible,1,block_switch1,instruction/ready_test.png,instruction/i11.png,,,,,,,,,,,,,,,,,0,0,0,0,0,8,8,8,,,,,,,,,,,,,,,,,,,,,,,,,,,418.9692405000096,419.1708036000491,419.15286210004706,419.45311380003113,419.45311380003113,None,419.9539257000433,None,f,1,1.2883802000433207,419.9539257000433,None,None,None,,,,,,,,,,,,,,,,,,,,,,,11045,2,1,2024_Jun_01_1634,stroop_task_switching2,2021.2.3,59.99649620587999,
,,,红,red,d,diamond,color_mix,颜色,,compatible,2,block_switch1,instruction/ready_test.png,instruction/i11.png,,,,,,,,,,,,,,,,,0,0,0,0,0,9,9,9,,,,,,,,,,,,,,,,,,,,,,,,,,,421.2724036000436,421.4728677000385,421.4574628000264,421.75690940005006,421.75690940005006,None,422.25755750003736,None,d,1,0.968754000030458,422.25755750003736,None,None,None,,,,,,,,,,,,,,,,,,,,,,,11045,2,1,2024_Jun_01_1634,stroop_task_switching2,2021.2.3,59.99649620587999,
,,,黄,yellow,j,diamond,color_mix,颜色,,compatible,1,block_switch1,instruction/ready_test.png,instruction/i11.png,,,,,,,,,,,,,,,,,0,0,0,0,0,10,10,10,,,,,,,,,,,,,,,,,,,,,,,,,,,423.24228700000094,423.4442999000312,423.42653810000047,423.7282152000116,423.7282152000116,None,424.22808110003825,None,j,1,0.8855955000035465,424.22808110003825,None,None,None,,,,,,,,,,,,,,,,,,,,,,,11045,2,1,2024_Jun_01_1634,stroop_task_switching2,2021.2.3,59.99649620587999,
,,,绿,green,k,square,color_mix,单词,,compatible,2,block_switch1,instruction/ready_test.png,instruction/i11.png,,,,,,,,,,,,,,,,,0,0,0,0,0,11,11,11,,,,,,,,,,,,,,,,,,,,,,,,,,,425.12845150002977,425.3286865000264,425.3122482000035,425.61335850000614,425.61335850000614,None,426.1139912000508,None,k,1,0.911722099990584,426.1139912000508,None,None,None,,,,,,,,,,,,,,,,,,,,,,,11045,2,1,2024_Jun_01_1634,stroop_task_switching2,2021.2.3,59.99649620587999,
,,,红,red,d,diamond,color_mix,颜色,,compatible,2,block_switch1,instruction/ready_test.png,instruction/i11.png,,,,,,,,,,,,,,,,,0,0,0,0,0,12,12,12,,,,,,,,,,,,,,,,,,,,,,,,,,,427.0480434000492,427.2492148000165,427.23264970001765,427.53259630000684,427.53259630000684,None,428.03224770003,None,d,1,0.929547099978663,428.03224770003,None,None,None,,,,,,,,,,,,,,,,,,,,,,,11045,2,1,2024_Jun_01_1634,stroop_task_switching2,2021.2.3,59.99649620587999,
,,,红,red,d,diamond,color_mix,颜色,,compatible,1,block_switch1,instruction/ready_test.png,instruction/i11.png,,,,,,,,,,,,,,,,,0,0,0,0,0,13,13,13,,,,,,,,,,,,,,,,,,,,,,,,,,,428.98412060004193,429.18536590004805,429.1679110000259,429.47076640004525,429.47076640004525,None,429.9691145000397,None,d,1,0.9365987000055611,429.9691145000397,None,None,None,,,,,,,,,,,,,,,,,,,,,,,11045,2,1,2024_Jun_01_1634,stroop_task_switching2,2021.2.3,59.99649620587999,
,,,黄,yellow,j,square,color_mix,单词,,compatible,2,block_switch1,instruction/ready_test.png,instruction/i11.png,,,,,,,,,,,,,,,,,0,0,0,0,0,14,14,14,,,,,,,,,,,,,,,,,,,,,,,,,,,430.9373799000168,431.1385844000033,431.1210146000376,431.421912699996,431.421912699996,None,431.9221285000094,None,j,1,1.063561299990397,431.9221285000094,None,None,None,,,,,,,,,,,,,,,,,,,,,,,11045,2,1,2024_Jun_01_1634,stroop_task_switching2,2021.2.3,59.99649620587999,
,,,红,green,k,diamond,color_mix,颜色,,incompatible,2,block_switch1,instruction/ready_test.png,instruction/i11.png,,,,,,,,,,,,,,,,,0,0,0,0,0,15,15,15,,,,,,,,,,,,,,,,,,,,,,,,,,,433.0070286000264,433.20920500002103,433.190682800021,433.49114320002263,433.49114320002263,None,433.99203470000066,None,d,0,1.5137494999798946,433.99203470000066,None,None,None,,,,,,,,,,,,,,,,,,,,,,,11045,2,1,2024_Jun_01_1634,stroop_task_switching2,2021.2.3,59.99649620587999,
,,,蓝,red,d,diamond,color_mix,颜色,,incompatible,1,block_switch1,instruction/ready_test.png,instruction/i11.png,,,,,,,,,,,,,,,,,0,0,0,0,0,16,16,16,,,,,,,,,,,,,,,,,,,,,,,,,,,435.5275350000011,435.72841300000437,435.7117175000021,436.0115577999968,436.0115577999968,None,436.5125157000148,None,d,1,0.6016164000029676,436.5125157000148,None,None,None,,,,,,,,,,,,,,,,,,,,,,,11045,2,1,2024_Jun_01_1634,stroop_task_switching2,2021.2.3,59.99649620587999,
,,,黄,green,k,diamond,color_mix,颜色,,incompatible,1,block_switch1,instruction/ready_test.png,instruction/i11.png,,,,,,,,,,,,,,,,,0,0,0,0,0,17,17,17,,,,,,,,,,,,,,,,,,,,,,,,,,,437.12992140004644,437.3302846000297,437.3139119000407,437.61503869999433,437.61503869999433,None,438.1154326000251,None,k,1,1.0468179000308737,438.1154326000251,None,None,None,,,,,,,,,,,,,,,,,,,,,,,11045,2,1,2024_Jun_01_1634,stroop_task_switching2,2021.2.3,59.99649620587999,
,,,绿,green,k,diamond,color_mix,颜色,,compatible,1,block_switch1,instruction/ready_test.png,instruction/i11.png,,,,,,,,,,,,,,,,,0,0,0,0,0,18,18,18,,,,,,,,,,,,,,,,,,,,,,,,,,,439.1831066000159,439.3836925000069,439.3674136000336,439.6686420000042,439.6686420000042,None,440.168748600001,None,k,1,0.4892428999883123,440.168748600001,None,None,None,,,,,,,,,,,,,,,,,,,,,,,11045,2,1,2024_Jun_01_1634,stroop_task_switching2,2021.2.3,59.99649620587999,
,,,黄,red,d,diamond,color_mix,颜色,,incompatible,1,block_switch1,instruction/ready_test.png,instruction/i11.png,,,,,,,,,,,,,,,,,0,0,0,0,0,19,19,19,,,,,,,,,,,,,,,,,,,,,,,,,,,440.68608340003993,440.88712870003656,440.8688581000315,441.169969300041,441.169969300041,None,441.6700922000455,None,d,1,0.5797702999552712,441.6700922000455,None,None,None,,,,,,,,,,,,,,,,,,,,,,,11045,2,1,2024_Jun_01_1634,stroop_task_switching2,2021.2.3,59.99649620587999,
,,,绿,yellow,k,square,color_mix,单词,,incompatible,2,block_switch1,instruction/ready_test.png,instruction/i11.png,,,,,,,,,,,,,,,,,0,0,0,0,0,20,20,20,,,,,,,,,,,,,,,,,,,,,,,,,,,442.27103620005073,442.4714850000455,442.45550720003666,442.75587320001796,442.75587320001796,None,443.256517300033,None,j,0,0.8819147000322118,443.256517300033,None,None,None,,,,,,,,,,,,,,,,,,,,,,,11045,2,1,2024_Jun_01_1634,stroop_task_switching2,2021.2.3,59.99649620587999,
,,,绿,yellow,j,diamond,color_mix,颜色,,incompatible,2,block_switch1,instruction/ready_test.png,instruction/i11.png,,,,,,,,,,,,,,,,,0,0,0,0,0,21,21,21,,,,,,,,,,,,,,,,,,,,,,,,,,,444.1579530000454,444.3582958000479,444.3417430000263,444.6417391000432,444.6417391000432,None,445.14292240003124,None,j,1,2.395104600000195,445.14292240003124,None,None,None,,,,,,,,,,,,,,,,,,,,,,,11045,2,1,2024_Jun_01_1634,stroop_task_switching2,2021.2.3,59.99649620587999,
,,,绿,green,k,square,color_mix,单词,,compatible,2,block_switch1,instruction/ready_test.png,instruction/i11.png,,,,,,,,,,,,,,,,,0,0,0,0,0,22,22,22,,,,,,,,,,,,,,,,,,,,,,,,,,,447.56221110001206,447.7627358000027,447.7470042000059,448.0469715000363,448.0469715000363,None,448.5480213999981,None,k,1,1.046344299975317,448.5480213999981,None,None,None,,,,,,,,,,,,,,,,,,,,,,,11045,2,1,2024_Jun_01_1634,stroop_task_switching2,2021.2.3,59.99649620587999,
,,,红,red,d,square,color_mix,单词,,compatible,1,block_switch1,instruction/ready_test.png,instruction/i11.png,,,,,,,,,,,,,,,,,0,0,0,0,0,23,23,23,,,,,,,,,,,,,,,,,,,,,,,,,,,449.6156675000093,449.8168803000008,449.79995730001247,450.1006763000041,450.1006763000041,None,450.599915400031,None,d,1,0.8185671000392176,450.599915400031,None,None,None,,,,,,,,,,,,,,,,,,,,,,,11045,2,1,2024_Jun_01_1634,stroop_task_switching2,2021.2.3,59.99649620587999,
,,,黄,green,j,square,color_mix,单词,,incompatible,1,block_switch1,instruction/ready_test.png,instruction/i11.png,,,,,,,,,,,,,,,,,0,0,0,0,0,24,24,24,,,,,,,,,,,,,,,,,,,,,,,,,,,451.43540960003156,451.63567620003596,451.6184087000438,451.9187819000217,451.9187819000217,None,452.4197105000494,None,k,0,1.8558157000225037,452.4197105000494,None,None,None,,,,,,,,,,,,,,,,,,,,,,,11045,2,1,2024_Jun_01_1634,stroop_task_switching2,2021.2.3,59.99649620587999,
,,,红,blue,d,square,color_mix,单词,,incompatible,1,block_switch1,instruction/ready_test.png,instruction/i11.png,,,,,,,,,,,,,,,,,0,0,0,0,0,25,25,25,,,,,,,,,,,,,,,,,,,,,,,,,,,454.2890332000097,454.4903562000254,454.4737558000488,454.77407570002833,454.77407570002833,None,455.2745942000183,None,f,0,0.7117903999751434,455.2745942000183,None,None,None,,,,,,,,,,,,,,,,,,,,,,,11045,2,1,2024_Jun_01_1634,stroop_task_switching2,2021.2.3,59.99649620587999,
,,,黄,yellow,j,square,color_mix,单词,,compatible,1,block_switch1,instruction/ready_test.png,instruction/i11.png,,,,,,,,,,,,,,,,,0,0,0,0,0,26,26,26,,,,,,,,,,,,,,,,,,,,,,,,,,,456.0083892000257,456.2092884000158,456.19286640000064,456.4939647000283,456.4939647000283,None,456.993220400007,None,j,1,1.0182648999616504,456.993220400007,None,None,None,,,,,,,,,,,,,,,,,,,,,,,11045,2,1,2024_Jun_01_1634,stroop_task_switching2,2021.2.3,59.99649620587999,
,,,蓝,green,f,square,color_mix,单词,,incompatible,1,block_switch1,instruction/ready_test.png,instruction/i11.png,,,,,,,,,,,,,,,,,0,0,0,0,0,27,27,27,,,,,,,,,,,,,,,,,,,,,,,,,,,458.028240500018,458.22925259999465,458.2125149000203,458.51297989999875,458.51297989999875,None,459.0143661000184,None,f,1,2.72399690002203,459.0143661000184,None,None,None,,,,,,,,,,,,,,,,,,,,,,,11045,2,1,2024_Jun_01_1634,stroop_task_switching2,2021.2.3,59.99649620587999,
,,,绿,green,k,diamond,color_mix,颜色,,compatible,2,block_switch1,instruction/ready_test.png,instruction/i11.png,,,,,,,,,,,,,,,,,0,0,0,0,0,28,28,28,,,,,,,,,,,,,,,,,,,,,,,,,,,461.7671575000277,461.9670696000103,461.951756399998,462.25157170003513,462.25157170003513,None,462.7532113000052,None,k,1,1.2974610999808647,462.7532113000052,None,None,None,,,,,,,,,,,,,,,,,,,,,,,11045,2,1,2024_Jun_01_1634,stroop_task_switching2,2021.2.3,59.99649620587999,
,,,黄,blue,f,diamond,color_mix,颜色,,incompatible,1,block_switch1,instruction/ready_test.png,instruction/i11.png,,,,,,,,,,,,,,,,,0,0,0,0,0,29,29,29,,,,,,,,,,,,,,,,,,,,,,,,,,,464.07095640001353,464.2718476000009,464.254871800018,464.55445370002417,464.55445370002417,None,465.0561977000325,None,f,1,1.2027495999936946,465.0561977000325,None,None,None,,,,,,,,,,,,,,,,,,,,,,,11045,2,1,2024_Jun_01_1634,stroop_task_switching2,2021.2.3,59.99649620587999,
,,,绿,green,k,diamond,color_mix,颜色,,compatible,1,block_switch1,instruction/ready_test.png,instruction/i11.png,,,,,,,,,,,,,,,,,0,0,0,0,0,30,30,30,,,,,,,,,,,,,,,,,,,,,,,,,,,466.2905939000193,466.4927308000042,466.4745023000287,466.77459310000995,466.77459310000995,None,467.27534570003627,None,k,1,0.7034134999848902,467.27534570003627,None,None,None,,,,,,,,,,,,,,,,,,,,,,,11045,2,1,2024_Jun_01_1634,stroop_task_switching2,2021.2.3,59.99649620587999,
,,,蓝,blue,f,square,color_mix,单词,,compatible,2,block_switch1,instruction/ready_test.png,instruction/i11.png,,,,,,,,,,,,,,,,,0,0,0,0,0,31,31,31,,,,,,,,,,,,,,,,,,,,,,,,,,,468.010147300025,468.2107002999983,468.1941369000124,468.4945073000272,468.4945073000272,None,468.9948878000141,None,f,1,1.0482043999945745,468.9948878000141,None,None,None,,,,,,,,,,,,,,,,,,,,,,,11045,2,1,2024_Jun_01_1634,stroop_task_switching2,2021.2.3,59.99649620587999,
,,,红,red,d,square,color_mix,单词,,compatible,1,block_switch1,instruction/ready_test.png,instruction/i11.png,,,,,,,,,,,,,,,,,0,0,0,0,0,32,32,32,,,,,,,,,,,,,,,,,,,,,,,,,,,470.0630139000132,470.26457680005115,470.2465269000386,470.54757110000355,470.54757110000355,None,471.0478082000045,None,d,1,0.5874070000136271,471.0478082000045,None,None,None,,,,,,,,,,,,,,,,,,,,,,,11045,2,1,2024_Jun_01_1634,stroop_task_switching2,2021.2.3,59.99649620587999,
,,,红,green,d,square,color_mix,单词,,incompatible,1,block_switch1,instruction/ready_test.png,instruction/i11.png,,,,,,,,,,,,,,,,,0,0,0,0,0,33,33,33,,,,,,,,,,,,,,,,,,,,,,,,,,,471.66533950000303,471.86632400000235,471.85019470000407,472.149408199999,472.149408199999,None,472.65023710002424,None,k,0,0.960670400003437,472.65023710002424,None,None,None,,,,,,,,,,,,,,,,,,,,,,,11045,2,1,2024_Jun_01_1634,stroop_task_switching2,2021.2.3,59.99649620587999,
,,,黄,yellow,j,diamond,color_mix,颜色,,compatible,2,block_switch1,instruction/ready_test.png,instruction/i11.png,,,,,,,,,,,,,,,,,0,0,0,0,0,34,34,34,,,,,,,,,,,,,,,,,,,,,,,,,,,473.63532150001265,473.83570060000056,473.8208547999966,474.1189861000166,474.1189861000166,None,474.62058470002376,None,j,1,1.1180367000051774,474.62058470002376,None,None,None,,,,,,,,,,,,,,,,,,,,,,,11045,2,1,2024_Jun_01_1634,stroop_task_switching2,2021.2.3,59.99649620587999,
,,,红,green,k,diamond,color_mix,颜色,,incompatible,1,block_switch1,instruction/ready_test.png,instruction/i11.png,,,,,,,,,,,,,,,,,0,0,0,0,0,35,35,35,,,,,,,,,,,,,,,,,,,,,,,,,,,475.75477729999693,475.9561430000467,475.93903639999917,476.2389958000276,476.2389958000276,None,476.73967770003946,None,k,1,1.295320100034587,476.73967770003946,None,None,None,,,,,,,,,,,,,,,,,,,,,,,11045,2,1,2024_Jun_01_1634,stroop_task_switching2,2021.2.3,59.99649620587999,
,,,黄,yellow,j,square,color_mix,单词,,compatible,2,block_switch1,instruction/ready_test.png,instruction/i11.png,,,,,,,,,,,,,,,,,0,0,0,0,0,36,36,36,,,,,,,,,,,,,,,,,,,,,,,,,,,478.0584716000012,478.25864519999595,478.24241760000587,478.54357480001636,478.54357480001636,None,479.0439340000157,None,j,1,1.6073088999837637,479.0439340000157,None,None,None,,,,,,,,,,,,,,,,,,,,,,,11045,2,1,2024_Jun_01_1634,stroop_task_switching2,2021.2.3,59.99649620587999,
,,,蓝,blue,f,square,color_mix,单词,,compatible,1,block_switch1,instruction/ready_test.png,instruction/i11.png,,,,,,,,,,,,,,,,,0,0,0,0,0,37,37,37,,,,,,,,,,,,,,,,,,,,,,,,,,,480.67907450004714,480.88104090001434,480.86254500004,481.1631061999942,481.1631061999942,None,481.66470560000744,None,f,1,0.762885499978438,481.66470560000744,None,None,None,,,,,,,,,,,,,,,,,,,,,,,11045,2,1,2024_Jun_01_1634,stroop_task_switching2,2021.2.3,59.99649620587999,
,,,绿,red,d,diamond,color_mix,颜色,,incompatible,2,block_switch1,instruction/ready_test.png,instruction/i11.png,,,,,,,,,,,,,,,,,0,0,0,0,0,38,38,38,,,,,,,,,,,,,,,,,,,,,,,,,,,482.44828950002557,482.6506462999969,482.63223540002946,482.93219750002027,482.93219750002027,None,483.43367410002975,None,d,1,2.009493499994278,483.43367410002975,None,None,None,,,,,,,,,,,,,,,,,,,,,,,11045,2,1,2024_Jun_01_1634,stroop_task_switching2,2021.2.3,59.99649620587999,
,,,黄,yellow,j,diamond,color_mix,颜色,,compatible,1,block_switch1,instruction/ready_test.png,instruction/i11.png,,,,,,,,,,,,,,,,,0,0,0,0,0,39,39,39,,,,,,,,,,,,,,,,,,,,,,,,,,,485.4703780999989,485.6715919999988,485.65308380004717,485.9545485000126,485.9545485000126,None,486.4542558999965,None,j,1,1.141108500014525,486.4542558999965,None,None,None,,,,,,,,,,,,,,,,,,,,,,,11045,2,1,2024_Jun_01_1634,stroop_task_switching2,2021.2.3,59.99649620587999,
,,,红,blue,f,diamond,color_mix,颜色,,incompatible,1,block_switch1,instruction/ready_test.png,instruction/i11.png,,,,,,,,,,,,,,,,,0,0,0,0,0,40,40,40,,,,,,,,,,,,,,,,,,,,,,,,,,,487.62284570001066,487.8229116000002,487.8065702000167,488.10746210004436,488.10746210004436,None,488.6079631000175,None,f,1,1.507875100011006,488.6079631000175,None,None,None,,,,,,,,,,,,,,,,,,,,,,,11045,2,1,2024_Jun_01_1634,stroop_task_switching2,2021.2.3,59.99649620587999,
,,,绿,blue,k,square,color_mix,单词,,incompatible,2,block_switch1,instruction/ready_test.png,instruction/i11.png,,,,,,,,,,,,,,,,,0,0,0,0,0,41,41,41,,,,,,,,,,,,,,,,,,,,,,,,,,,490.14322430000175,490.3451156000374,490.3275055999984,490.62966710003093,490.62966710003093,None,491.1289955000393,None,k,1,1.178394099988509,491.1289955000393,None,None,None,,,,,,,,,,,,,,,,,,,,,,,11045,2,1,2024_Jun_01_1634,stroop_task_switching2,2021.2.3,59.99649620587999,
,,,蓝,blue,f,diamond,color_mix,颜色,,compatible,2,block_switch1,instruction/ready_test.png,instruction/i11.png,,,,,,,,,,,,,,,,,0,0,0,0,0,42,42,42,,,,,,,,,,,,,,,,,,,,,,,,,,,492.33042569999816,492.5308550000191,492.5135314000072,492.8138404000201,492.8138404000201,None,493.3146790000028,None,f,1,0.8891154999728315,493.3146790000028,None,None,None,,,,,,,,,,,,,,,,,,,,,,,11045,2,1,2024_Jun_01_1634,stroop_task_switching2,2021.2.3,59.99649620587999,
,,,红,blue,d,square,color_mix,单词,,incompatible,2,block_switch1,instruction/ready_test.png,instruction/i11.png,,,,,,,,,,,,,,,,,0,0,0,0,0,43,43,43,,,,,,,,,,,,,,,,,,,,,,,,,,,494.23265429999446,494.43299750000006,494.41645780002,494.71692380000604,494.71692380000604,None,495.21771110000554,None,d,1,1.8337917000171728,495.21771110000554,None,None,None,,,,,,,,,,,,,,,,,,,,,,,11045,2,1,2024_Jun_01_1634,stroop_task_switching2,2021.2.3,59.99649620587999,
,,,蓝,green,k,diamond,color_mix,颜色,,incompatible,2,block_switch1,instruction/ready_test.png,instruction/i11.png,,,,,,,,,,,,,,,,,0,0,0,0,0,44,44,44,,,,,,,,,,,,,,,,,,,,,,,,,,,497.0706608000328,497.27050710003823,497.2542216000147,497.55553830001736,497.55553830001736,None,498.05578070000047,None,k,1,1.2757686999975704,498.05578070000047,None,None,None,,,,,,,,,,,,,,,,,,,,,,,11045,2,1,2024_Jun_01_1634,stroop_task_switching2,2021.2.3,59.99649620587999,
,,,黄,yellow,j,square,color_mix,单词,,compatible,2,block_switch1,instruction/ready_test.png,instruction/i11.png,,,,,,,,,,,,,,,,,0,0,0,0,0,45,45,45,,,,,,,,,,,,,,,,,,,,,,,,,,,499.35716690000845,499.55807830003323,499.54254200001014,499.84197110001696,499.84197110001696,None,500.34293100005016,None,j,1,1.5085577000281774,500.34293100005016,None,None,None,,,,,,,,,,,,,,,,,,,,,,,11045,2,1,2024_Jun_01_1634,stroop_task_switching2,2021.2.3,59.99649620587999,
,,,黄,yellow,j,diamond,color_mix,颜色,,compatible,2,block_switch1,instruction/ready_test.png,instruction/i11.png,,,,,,,,,,,,,,,,,0,0,0,0,0,46,46,46,,,,,,,,,,,,,,,,,,,,,,,,,,,501.87814260000596,502.07887960004155,502.06113460002234,502.3628023000201,502.3628023000201,None,502.86233550001634,None,j,1,0.9338687999988906,502.86233550001634,None,None,None,,,,,,,,,,,,,,,,,,,,,,,11045,2,1,2024_Jun_01_1634,stroop_task_switching2,2021.2.3,59.99649620587999,
,,,绿,red,k,square,color_mix,单词,,incompatible,2,block_switch1,instruction/ready_test.png,instruction/i11.png,,,,,,,,,,,,,,,,,0,0,0,0,0,47,47,47,,,,,,,,,,,,,,,,,,,,,,,,,,,503.81353660003515,504.0157869000104,503.9973178000073,504.29900580004323,504.29900580004323,None,504.79863269999623,None,k,1,1.6697257999912836,504.79863269999623,None,None,None,,,,,,,,,,,,,,,,,,,,,,,11045,2,1,2024_Jun_01_1634,stroop_task_switching2,2021.2.3,59.99649620587999,
,,,红,red,d,diamond,color_mix,颜色,,compatible,2,block_switch1,instruction/ready_test.png,instruction/i11.png,,,,,,,,,,,,,,,,,0,0,0,0,0,48,48,48,,,,,,,,,,,,,,,,,,,,,,,,,,,506.4844925000216,506.68568410002626,506.66897020000033,506.96967970003607,506.96967970003607,None,507.4691937000025,None,d,1,0.958543200045824,507.4691937000025,None,None,None,,,,,,,,,,,,,,,,,,,,,,,11045,2,1,2024_Jun_01_1634,stroop_task_switching2,2021.2.3,59.99649620587999,
,,,蓝,blue,f,diamond,color_mix,颜色,,compatible,1,block_switch1,instruction/ready_test.png,instruction/i11.png,,,,,,,,,,,,,,,,,0,0,0,0,0,49,49,49,,,,,,,,,,,,,,,,,,,,,,,,,,,508.45424650004134,508.65503570000874,508.6387436000514,508.9395856000483,508.9395856000483,None,509.43984780000756,None,f,1,1.0920363999903202,509.43984780000756,None,None,None,,,,,,,,,,,,,,,,,,,,,,,11045,2,1,2024_Jun_01_1634,stroop_task_switching2,2021.2.3,59.99649620587999,
,,,黄,yellow,j,diamond,color_mix,颜色,,compatible,1,block_switch1,instruction/ready_test.png,instruction/i11.png,,,,,,,,,,,,,,,,,0,0,0,0,0,50,50,50,,,,,,,,,,,,,,,,,,,,,,,,,,,510.55761150002945,510.7589888999937,510.7414545000065,511.0419465000159,511.0419465000159,None,511.5421590000042,None,j,1,1.3022909000283107,511.5421590000042,None,None,None,,,,,,,,,,,,,,,,,,,,,,,11045,2,1,2024_Jun_01_1634,stroop_task_switching2,2021.2.3,59.99649620587999,
,,,红,blue,f,diamond,color_mix,颜色,,incompatible,1,block_switch1,instruction/ready_test.png,instruction/i11.png,,,,,,,,,,,,,,,,,0,0,0,0,0,51,51,51,,,,,,,,,,,,,,,,,,,,,,,,,,,512.8608123000013,513.0617313000257,513.045158700028,513.3462331000483,513.3462331000483,None,513.8461609000224,None,f,1,0.9820801000460051,513.8461609000224,None,None,None,,,,,,,,,,,,,,,,,,,,,,,11045,2,1,2024_Jun_01_1634,stroop_task_switching2,2021.2.3,59.99649620587999,
,,,蓝,yellow,j,diamond,color_mix,颜色,,incompatible,1,block_switch1,instruction/ready_test.png,instruction/i11.png,,,,,,,,,,,,,,,,,0,0,0,0,0,52,52,52,,,,,,,,,,,,,,,,,,,,,,,,,,,514.8471954000415,515.0493751000031,515.0309270000434,515.3320666000363,515.3320666000363,None,515.8320480000111,None,j,1,1.596042099990882,515.8320480000111,None,None,None,,,,,,,,,,,,,,,,,,,,,,,11045,2,1,2024_Jun_01_1634,stroop_task_switching2,2021.2.3,59.99649620587999,
,,,黄,blue,j,square,color_mix,单词,,incompatible,2,block_switch1,instruction/ready_test.png,instruction/i11.png,,,,,,,,,,,,,,,,,0,0,0,0,0,53,53,53,,,,,,,,,,,,,,,,,,,,,,,,,,,517.4512396000209,517.6518896000343,517.6346277000266,517.9362129000365,517.9362129000365,None,518.4367190000485,None,j,1,2.5036359999794513,518.4367190000485,None,None,None,,,,,,,,,,,,,,,,,,,,,,,11045,2,1,2024_Jun_01_1634,stroop_task_switching2,2021.2.3,59.99649620587999,
,,,蓝,blue,f,diamond,color_mix,颜色,,compatible,2,block_switch1,instruction/ready_test.png,instruction/i11.png,,,,,,,,,,,,,,,,,0,0,0,0,0,54,54,54,,,,,,,,,,,,,,,,,,,,,,,,,,,520.9564255000441,521.1573425999959,521.1408154999954,521.4421143000363,521.4421143000363,None,521.9417415000498,None,f,1,0.8544759000069462,521.9417415000498,None,None,None,,,,,,,,,,,,,,,,,,,,,,,11045,2,1,2024_Jun_01_1634,stroop_task_switching2,2021.2.3,59.99649620587999,
,,,红,yellow,d,square,color_mix,单词,,incompatible,2,block_switch1,instruction/ready_test.png,instruction/i11.png,,,,,,,,,,,,,,,,,0,0,0,0,0,55,55,55,,,,,,,,,,,,,,,,,,,,,,,,,,,522.8258308000513,523.0271777000162,523.0100149000064,523.310455000028,523.310455000028,None,523.8105252000387,None,d,1,1.593749799998477,523.8105252000387,None,None,None,,,,,,,,,,,,,,,,,,,,,,,11045,2,1,2024_Jun_01_1634,stroop_task_switching2,2021.2.3,59.99649620587999,
,,,蓝,red,f,square,color_mix,单词,,incompatible,1,block_switch1,instruction/ready_test.png,instruction/i11.png,,,,,,,,,,,,,,,,,0,0,0,0,0,56,56,56,,,,,,,,,,,,,,,,,,,,,,,,,,,525.4304627000238,525.6309813000262,525.6140221999958,525.9144270000397,525.9144270000397,None,526.4152360000298,None,f,1,1.6212730999686755,526.4152360000298,None,None,None,,,,,,,,,,,,,,,,,,,,,,,11045,2,1,2024_Jun_01_1634,stroop_task_switching2,2021.2.3,59.99649620587999,
,,,蓝,blue,f,square,color_mix,单词,,compatible,1,block_switch1,instruction/ready_test.png,instruction/i11.png,,,,,,,,,,,,,,,,,0,0,0,0,0,57,57,57,,,,,,,,,,,,,,,,,,,,,,,,,,,528.0502817000379,528.2518615000299,528.2356352000497,528.535226500011,528.535226500011,None,529.0352235000464,None,f,1,1.0414025000063702,529.0352235000464,None,None,None,,,,,,,,,,,,,,,,,,,,,,,11045,2,1,2024_Jun_01_1634,stroop_task_switching2,2021.2.3,59.99649620587999,
,,,蓝,red,d,diamond,color_mix,颜色,,incompatible,2,block_switch1,instruction/ready_test.png,instruction/i11.png,,,,,,,,,,,,,,,,,0,0,0,0,0,58,58,58,,,,,,,,,,,,,,,,,,,,,,,,,,,530.1033596000052,530.3043472000281,530.2878334000125,530.5875921000261,530.5875921000261,None,531.088314099994,None,d,1,0.9965605000033975,531.088314099994,None,None,None,,,,,,,,,,,,,,,,,,,,,,,11045,2,1,2024_Jun_01_1634,stroop_task_switching2,2021.2.3,59.99649620587999,
,,,绿,green,k,diamond,color_mix,颜色,,compatible,1,block_switch1,instruction/ready_test.png,instruction/i11.png,,,,,,,,,,,,,,,,,0,0,0,0,0,59,59,59,,,,,,,,,,,,,,,,,,,,,,,,,,,532.1065504000289,532.3085067000357,532.2899052000139,532.5913287000149,532.5913287000149,None,533.0919912999962,None,k,1,0.9526091000298038,533.0919912999962,None,None,None,,,,,,,,,,,,,,,,,,,,,,,11045,2,1,2024_Jun_01_1634,stroop_task_switching2,2021.2.3,59.99649620587999,
,,,蓝,blue,f,diamond,color_mix,颜色,,compatible,1,block_switch1,instruction/ready_test.png,instruction/i11.png,,,,,,,,,,,,,,,,,0,0,0,0,0,60,60,60,,,,,,,,,,,,,,,,,,,,,,,,,,,534.0595806000056,534.2598115000292,534.2430002000183,534.5441630000132,534.5441630000132,None,535.044075700047,None,f,1,0.7688162000267766,535.044075700047,None,None,None,,,,,,,,,,,,,,,,,,,,,,,11045,2,1,2024_Jun_01_1634,stroop_task_switching2,2021.2.3,59.99649620587999,
,,,黄,yellow,j,square,color_mix,单词,,compatible,2,block_switch1,instruction/ready_test.png,instruction/i11.png,,,,,,,,,,,,,,,,,0,0,0,0,0,61,61,61,,,,,,,,,,,,,,,,,,,,,,,,,,,535.8288300000131,536.0292486000108,536.0124537000083,536.3139647000353,536.3139647000353,None,536.8141763000167,None,j,1,1.2149000000208616,536.8141763000167,None,None,None,,,,,,,,,,,,,,,,,,,,,,,11045,2,1,2024_Jun_01_1634,stroop_task_switching2,2021.2.3,59.99649620587999,
,,,绿,blue,k,square,color_mix,单词,,incompatible,1,block_switch1,instruction/ready_test.png,instruction/i11.png,,,,,,,,,,,,,,,,,0,0,0,0,0,62,62,62,,,,,,,,,,,,,,,,,,,,,,,,,,,538.0493606000091,538.2498963000253,538.2331518999999,538.5335027000401,538.5335027000401,None,539.0336065000156,None,k,1,1.9869642999838106,539.0336065000156,None,None,None,,,,,,,,,,,,,,,,,,,,,,,11045,2,1,2024_Jun_01_1634,stroop_task_switching2,2021.2.3,59.99649620587999,
,,,蓝,yellow,f,square,color_mix,单词,,incompatible,1,block_switch1,instruction/ready_test.png,instruction/i11.png,,,,,,,,,,,,,,,,,0,0,0,0,0,63,63,63,,,,,,,,,,,,,,,,,,,,,,,,,,,541.0365313000511,541.2376624000026,541.220066000009,541.5206965000252,541.5206965000252,None,542.0219299000455,None,f,1,1.5911257999832742,542.0219299000455,None,None,None,,,,,,,,,,,,,,,,,,,,,,,11045,2,1,2024_Jun_01_1634,stroop_task_switching2,2021.2.3,59.99649620587999,
,,,黄,yellow,j,diamond,color_mix,颜色,,compatible,2,block_switch1,instruction/ready_test.png,instruction/i11.png,,,,,,,,,,,,,,,,,0,0,0,0,0,64,64,64,,,,,,,,,,,,,,,,,,,,,,,,,,,543.6416764000314,543.8420234000077,543.8255036000046,544.1259236000478,544.1259236000478,None,544.625908200047,None,j,1,0.7950215999735519,544.625908200047,None,None,None,,,,,,,,,,,,,,,,,,,,,,,11045,2,1,2024_Jun_01_1634,stroop_task_switching2,2021.2.3,59.99649620587999,
,,,蓝,green,k,diamond,color_mix,颜色,,incompatible,1,block_switch1,instruction/ready_test.png,instruction/i11.png,,,,,,,,,,,,,,,,,0,0,0,0,0,65,65,65,,,,,,,,,,,,,,,,,,,,,,,,,,,545.4431574000046,545.6445179000148,545.6276546000154,545.9278663000441,545.9278663000441,None,546.4279361999943,None,k,1,1.6730652999831364,546.4279361999943,None,None,None,,,,,,,,,,,,,,,,,,,,,,,11045,2,1,2024_Jun_01_1634,stroop_task_switching2,2021.2.3,59.99649620587999,
,,,红,red,d,diamond,color_mix,颜色,,compatible,1,block_switch1,instruction/ready_test.png,instruction/i11.png,,,,,,,,,,,,,,,,,0,0,0,0,0,66,66,66,,,,,,,,,,,,,,,,,,,,,,,,,,,548.1317297000205,548.3312033000402,548.3154099000385,548.6161202000221,548.6161202000221,None,549.116751900001,None,d,1,0.9520773999975063,549.116751900001,None,None,None,,,,,,,,,,,,,,,,,,,,,,,11045,2,1,2024_Jun_01_1634,stroop_task_switching2,2021.2.3,59.99649620587999,
,,,蓝,yellow,f,square,color_mix,单词,,incompatible,2,block_switch1,instruction/ready_test.png,instruction/i11.png,,,,,,,,,,,,,,,,,0,0,0,0,0,67,67,67,,,,,,,,,,,,,,,,,,,,,,,,,,,550.1002993000438,550.3020242000348,550.2840503000189,550.584839600022,550.584839600022,None,551.0852447000216,None,f,1,1.464125900005456,551.0852447000216,None,None,None,,,,,,,,,,,,,,,,,,,,,,,11045,2,1,2024_Jun_01_1634,stroop_task_switching2,2021.2.3,59.99649620587999,
,,,红,yellow,d,square,color_mix,单词,,incompatible,1,block_switch1,instruction/ready_test.png,instruction/i11.png,,,,,,,,,,,,,,,,,0,0,0,0,0,68,68,68,,,,,,,,,,,,,,,,,,,,,,,,,,,552.5707175999996,552.7722952000331,552.7541909000138,553.0546646000003,553.0546646000003,None,553.5565113000339,None,d,1,0.897079499962274,553.5565113000339,None,None,None,,,,,,,,,,,,,,,,,,,,,,,11045,2,1,2024_Jun_01_1634,stroop_task_switching2,2021.2.3,59.99649620587999,
,,,红,yellow,j,diamond,color_mix,颜色,,incompatible,2,block_switch1,instruction/ready_test.png,instruction/i11.png,,,,,,,,,,,,,,,,,0,0,0,0,0,69,69,69,,,,,,,,,,,,,,,,,,,,,,,,,,,554.4737133000162,554.6738776999991,554.6580134000396,554.9585700000171,554.9585700000171,None,555.4582863000105,None,j,1,0.8362351999967359,555.4582863000105,None,None,None,,,,,,,,,,,,,,,,,,,,,,,11045,2,1,2024_Jun_01_1634,stroop_task_switching2,2021.2.3,59.99649620587999,
,,,蓝,green,f,square,color_mix,单词,,incompatible,2,block_switch1,instruction/ready_test.png,instruction/i11.png,,,,,,,,,,,,,,,,,0,0,0,0,0,70,70,70,,,,,,,,,,,,,,,,,,,,,,,,,,,556.3098310000496,556.5106438000221,556.494463900046,556.7944447000045,556.7944447000045,None,557.2943728000391,None,f,1,1.7750161999720149,557.2943728000391,None,None,None,,,,,,,,,,,,,,,,,,,,,,,11045,2,1,2024_Jun_01_1634,stroop_task_switching2,2021.2.3,59.99649620587999,
,,,绿,yellow,k,square,color_mix,单词,,incompatible,1,block_switch1,instruction/ready_test.png,instruction/i11.png,,,,,,,,,,,,,,,,,0,0,0,0,0,71,71,71,,,,,,,,,,,,,,,,,,,,,,,,,,,559.097086600028,559.298937500047,559.2807479000185,559.5820505000302,559.5820505000302,None,560.0821046000347,None,k,1,1.1876225000014529,560.0821046000347,None,None,None,,,,,,,,,,,,,,,,,,,,,,,11045,2,1,2024_Jun_01_1634,stroop_task_switching2,2021.2.3,59.99649620587999,
,,,蓝,yellow,j,diamond,color_mix,颜色,,incompatible,2,block_switch1,instruction/ready_test.png,instruction/i11.png,,,,,,,,,,,,,,,,,0,0,0,0,0,72,72,72,,,,,,,,,,,,,,,,,,,,,,,,,,,561.3005403000279,561.5008271000115,561.4841578000342,561.785130000033,561.785130000033,None,562.2853515000315,None,j,1,1.0642164000310004,562.2853515000315,None,None,None,,,,,,,,,,,,,,,,,,,,,,,11045,2,1,2024_Jun_01_1634,stroop_task_switching2,2021.2.3,59.99649620587999,
,,,红,green,d,square,color_mix,单词,,incompatible,2,block_switch1,instruction/ready_test.png,instruction/i11.png,,,,,,,,,,,,,,,,,0,0,0,0,0,73,73,73,,,,,,,,,,,,,,,,,,,,,,,,,,,563.3703270000406,563.5705674000201,563.5542571000406,563.8555521999951,563.8555521999951,None,564.3551845000475,None,k,0,1.8511843000305817,564.3551845000475,None,None,None,,,,,,,,,,,,,,,,,,,,,,,11045,2,1,2024_Jun_01_1634,stroop_task_switching2,2021.2.3,59.99649620587999,
,,,绿,blue,f,diamond,color_mix,颜色,,incompatible,2,block_switch1,instruction/ready_test.png,instruction/i11.png,,,,,,,,,,,,,,,,,0,0,0,0,0,74,74,74,,,,,,,,,,,,,,,,,,,,,,,,,,,566.2246980000054,566.4255678000045,566.4082494000322,566.7110839000088,566.7110839000088,None,567.2260179000441,None,f,1,1.2277751000365242,567.2260179000441,None,None,None,,,,,,,,,,,,,,,,,,,,,,,11045,2,1,2024_Jun_01_1634,stroop_task_switching2,2021.2.3,59.99649620587999,
,,,红,red,d,square,color_mix,单词,,compatible,2,block_switch1,instruction/ready_test.png,instruction/i11.png,,,,,,,,,,,,,,,,,0,0,0,0,0,75,75,75,,,,,,,,,,,,,,,,,,,,,,,,,,,568.4787095000502,568.6787510000286,568.6618459000019,568.9624885999947,568.9624885999947,None,569.4626770000323,None,d,1,0.7587252999655902,569.4626770000323,None,None,None,,,,,,,,,,,,,,,,,,,,,,,11045,2,1,2024_Jun_01_1634,stroop_task_switching2,2021.2.3,59.99649620587999,
,,,绿,green,k,diamond,color_mix,颜色,,compatible,2,block_switch1,instruction/ready_test.png,instruction/i11.png,,,,,,,,,,,,,,,,,0,0,0,0,0,76,76,76,,,,,,,,,,,,,,,,,,,,,,,,,,,570.247228400025,570.4484425000264,570.4318099000375,570.7327504000277,570.7327504000277,None,571.2330263000331,None,k,1,1.7084695000085048,571.2330263000331,None,None,None,,,,,,,,,,,,,,,,,,,,,,,11045,2,1,2024_Jun_01_1634,stroop_task_switching2,2021.2.3,59.99649620587999,
,,,黄,red,j,square,color_mix,单词,,incompatible,2,block_switch1,instruction/ready_test.png,instruction/i11.png,,,,,,,,,,,,,,,,,0,0,0,0,0,77,77,77,,,,,,,,,,,,,,,,,,,,,,,,,,,572.9679598000366,573.1682309000171,573.1532263000263,573.4529827000224,573.4529827000224,None,573.9535466000088,None,j,1,1.7083295999909751,573.9535466000088,None,None,None,,,,,,,,,,,,,,,,,,,,,,,11045,2,1,2024_Jun_01_1634,stroop_task_switching2,2021.2.3,59.99649620587999,
,,,红,red,d,square,color_mix,单词,,compatible,1,block_switch1,instruction/ready_test.png,instruction/i11.png,,,,,,,,,,,,,,,,,0,0,0,0,0,78,78,78,,,,,,,,,,,,,,,,,,,,,,,,,,,575.688879400026,575.8892086000415,575.8730187000474,576.1729790000245,576.1729790000245,None,576.6738526000408,None,d,1,0.8920100000104867,576.6738526000408,None,None,None,,,,,,,,,,,,,,,,,,,,,,,11045,2,1,2024_Jun_01_1634,stroop_task_switching2,2021.2.3,59.99649620587999,
,,,黄,yellow,j,square,color_mix,单词,,compatible,1,block_switch1,instruction/ready_test.png,instruction/i11.png,,,,,,,,,,,,,,,,,0,0,0,0,0,79,79,79,,,,,,,,,,,,,,,,,,,,,,,,,,,577.5923164000269,577.7928855000064,577.776242699998,578.075794400007,578.075794400007,None,578.5771337000187,None,j,1,0.7971241999766789,578.5771337000187,None,None,None,,,,,,,,,,,,,,,,,,,,,,,11045,2,1,2024_Jun_01_1634,stroop_task_switching2,2021.2.3,59.99649620587999,
,,,红,red,d,diamond,color_mix,颜色,,compatible,2,block_switch1,instruction/ready_test.png,instruction/i11.png,,,,,,,,,,,,,,,,,0,0,0,0,0,80,80,80,,,,,,,,,,,,,,,,,,,,,,,,,,,579.3952576000011,579.5953054000274,579.5790142000187,579.8805092000403,579.8805092000403,None,580.396669400041,None,d,1,0.7691057000192814,580.396669400041,None,None,None,,,,,,,,,,,,,,,,,,,,,,,11045,2,1,2024_Jun_01_1634,stroop_task_switching2,2021.2.3,59.99649620587999,
,,,红,red,d,square,color_mix,单词,,compatible,2,block_switch1,instruction/ready_test.png,instruction/i11.png,,,,,,,,,,,,,,,,,0,0,0,0,0,81,81,81,,,,,,,,,,,,,,,,,,,,,,,,,,,581.1969940999988,581.3980834000395,581.3807475000503,581.6812581000268,581.6812581000268,None,582.1829266000423,None,d,1,0.5430567999719642,582.1829266000423,None,None,None,,,,,,,,,,,,,,,,,,,,,,,11045,2,1,2024_Jun_01_1634,stroop_task_switching2,2021.2.3,59.99649620587999,
,,,黄,blue,f,diamond,color_mix,颜色,,incompatible,2,block_switch1,instruction/ready_test.png,instruction/i11.png,,,,,,,,,,,,,,,,,0,0,0,0,0,82,82,82,,,,,,,,,,,,,,,,,,,,,,,,,,,582.749326899997,582.9497138000443,582.9336355000269,583.2335547000403,583.2335547000403,None,583.7352371000452,None,f,1,1.3107206000131555,583.7352371000452,None,None,None,,,,,,,,,,,,,,,,,,,,,,,11045,2,1,2024_Jun_01_1634,stroop_task_switching2,2021.2.3,59.99649620587999,
,,,红,yellow,j,diamond,color_mix,颜色,,incompatible,1,block_switch1,instruction/ready_test.png,instruction/i11.png,,,,,,,,,,,,,,,,,0,0,0,0,0,83,83,83,,,,,,,,,,,,,,,,,,,,,,,,,,,585.0696178000071,585.2698652000399,585.2541703000315,585.5545065000188,585.5545065000188,None,586.0554193000426,None,j,1,1.0227346000028774,586.0554193000426,None,None,None,,,,,,,,,,,,,,,,,,,,,,,11045,2,1,2024_Jun_01_1634,stroop_task_switching2,2021.2.3,59.99649620587999,
,,,黄,red,d,diamond,color_mix,颜色,,incompatible,1,block_switch1,instruction/ready_test.png,instruction/i11.png,,,,,,,,,,,,,,,,,0,0,0,0,0,84,84,84,,,,,,,,,,,,,,,,,,,,,,,,,,,587.106181900017,587.3065471000155,587.2909587000031,587.5906664000358,587.5906664000358,None,588.0908225000021,None,d,1,1.2430266999872401,588.0908225000021,None,None,None,,,,,,,,,,,,,,,,,,,,,,,11045,2,1,2024_Jun_01_1634,stroop_task_switching2,2021.2.3,59.99649620587999,
,,,蓝,blue,f,square,color_mix,单词,,compatible,2,block_switch1,instruction/ready_test.png,instruction/i11.png,,,,,,,,,,,,,,,,,0,0,0,0,0,85,85,85,,,,,,,,,,,,,,,,,,,,,,,,,,,589.3593570000376,589.5614286000491,589.543221800006,589.8455851000035,589.8455851000035,None,590.344416900014,None,f,1,0.909610100032296,590.344416900014,None,None,None,,,,,,,,,,,,,,,,,,,,,,,11045,2,1,2024_Jun_01_1634,stroop_task_switching2,2021.2.3,59.99649620587999,
,,,绿,green,k,square,color_mix,单词,,compatible,1,block_switch1,instruction/ready_test.png,instruction/i11.png,,,,,,,,,,,,,,,,,0,0,0,0,0,86,86,86,,,,,,,,,,,,,,,,,,,,,,,,,,,591.2790833000327,591.4802196000237,591.4633229000028,591.7636715000262,591.7636715000262,None,592.2638788000331,None,k,1,1.2063433000002988,592.2638788000331,None,None,None,,,,,,,,,,,,,,,,,,,,,,,11045,2,1,2024_Jun_01_1634,stroop_task_switching2,2021.2.3,59.99649620587999,
,,,红,red,d,square,color_mix,单词,,compatible,1,block_switch1,instruction/ready_test.png,instruction/i11.png,,,,,,,,,,,,,,,,,0,0,0,0,0,87,87,87,,,,,,,,,,,,,,,,,,,,,,,,,,,593.4989715000265,593.6995505000232,593.6847093999968,593.9848016000469,593.9848016000469,None,594.4851799000171,None,d,1,0.97749289998319,594.4851799000171,None,None,None,,,,,,,,,,,,,,,,,,,,,,,11045,2,1,2024_Jun_01_1634,stroop_task_switching2,2021.2.3,59.99649620587999,
,,,黄,green,k,diamond,color_mix,颜色,,incompatible,2,block_switch1,instruction/ready_test.png,instruction/i11.png,,,,,,,,,,,,,,,,,0,0,0,0,0,88,88,88,,,,,,,,,,,,,,,,,,,,,,,,,,,595.4853716000216,595.6871190000093,595.6690684000496,595.9699867000454,595.9699867000454,None,596.4712648999994,None,k,1,0.8627561000175774,596.4712648999994,None,None,None,,,,,,,,,,,,,,,,,,,,,,,11045,2,1,2024_Jun_01_1634,stroop_task_switching2,2021.2.3,59.99649620587999,
,,,绿,red,k,square,color_mix,单词,,incompatible,2,block_switch1,instruction/ready_test.png,instruction/i11.png,,,,,,,,,,,,,,,,,0,0,0,0,0,89,89,89,,,,,,,,,,,,,,,,,,,,,,,,,,,597.3545822000015,597.5561007000506,597.5395423000446,597.8389549000422,597.8389549000422,None,598.3398326000315,None,k,1,1.5152170999790542,598.3398326000315,None,None,None,,,,,,,,,,,,,,,,,,,,,,,11045,2,1,2024_Jun_01_1634,stroop_task_switching2,2021.2.3,59.99649620587999,
,,,黄,green,j,square,color_mix,单词,,incompatible,1,block_switch1,instruction/ready_test.png,instruction/i11.png,,,,,,,,,,,,,,,,,0,0,0,0,0,90,90,90,,,,,,,,,,,,,,,,,,,,,,,,,,,599.8753679000074,600.0770449000411,600.0598368000356,600.3600617000484,600.3600617000484,None,600.8602572000236,None,j,1,1.8421566999750212,600.8602572000236,None,None,None,,,,,,,,,,,,,,,,,,,,,,,11045,2,1,2024_Jun_01_1634,stroop_task_switching2,2021.2.3,59.99649620587999,
,,,蓝,blue,f,square,color_mix,单词,,compatible,1,block_switch1,instruction/ready_test.png,instruction/i11.png,,,,,,,,,,,,,,,,,0,0,0,0,0,91,91,91,,,,,,,,,,,,,,,,,,,,,,,,,,,602.7296587000019,602.9307674000156,602.9144861000241,603.2152776000439,603.2152776000439,None,603.7153130000224,None,f,1,1.1316484999842942,603.7153130000224,None,None,None,,,,,,,,,,,,,,,,,,,,,,,11045,2,1,2024_Jun_01_1634,stroop_task_switching2,2021.2.3,59.99649620587999,
,,,蓝,red,f,square,color_mix,单词,,incompatible,1,block_switch1,instruction/ready_test.png,instruction/i11.png,,,,,,,,,,,,,,,,,0,0,0,0,0,92,92,92,,,,,,,,,,,,,,,,,,,,,,,,,,,604.8660394000472,605.066415600013,605.050145300047,605.3507994000101,605.3507994000101,None,605.8518115000334,None,f,1,1.314733300008811,605.8518115000334,None,None,None,,,,,,,,,,,,,,,,,,,,,,,11045,2,1,2024_Jun_01_1634,stroop_task_switching2,2021.2.3,59.99649620587999,
,,,黄,blue,j,square,color_mix,单词,,incompatible,1,block_switch1,instruction/ready_test.png,instruction/i11.png,,,,,,,,,,,,,,,,,0,0,0,0,0,93,93,93,,,,,,,,,,,,,,,,,,,,,,,,,,,607.1863882000325,607.3878689000267,607.3700076999958,607.6713060000329,607.6713060000329,None,608.1711728000082,None,j,1,1.8833537999889813,608.1711728000082,None,None,None,,,,,,,,,,,,,,,,,,,,,,,11045,2,1,2024_Jun_01_1634,stroop_task_switching2,2021.2.3,59.99649620587999,
,,,绿,red,d,diamond,color_mix,颜色,,incompatible,2,block_switch1,instruction/ready_test.png,instruction/i11.png,,,,,,,,,,,,,,,,,0,0,0,0,0,94,94,94,,,,,,,,,,,,,,,,,,,,,,,,,,,610.0743072000332,610.2749179000384,610.2584764000494,610.5592691000202,610.5592691000202,None,611.0595595000195,None,k,0,2.5951197000104003,611.0595595000195,None,None,None,,,,,,,,,,,,,,,,,,,,,,,11045,2,1,2024_Jun_01_1634,stroop_task_switching2,2021.2.3,59.99649620587999,
,,,蓝,blue,f,diamond,color_mix,颜色,,compatible,1,block_switch1,instruction/ready_test.png,instruction/i11.png,,,,,,,,,,,,,,,,,0,0,0,0,0,95,95,95,,,,,,,,,,,,,,,,,,,,,,,,,,,613.6793612000183,613.881200200005,613.8630371000036,614.1641058000387,614.1641058000387,None,614.6642935000127,None,f,1,1.5190898000146262,614.6642935000127,None,None,None,,,,,,,,,,,,,,,,,,,,,,,11045,2,1,2024_Jun_01_1634,stroop_task_switching2,2021.2.3,59.99649620587999,
,,,绿,green,k,square,color_mix,单词,,compatible,2,block_switch1,instruction/ready_test.png,instruction/i11.png,,,,,,,,,,,,,,,,,0,0,0,0,0,96,96,96,,,,,,,,,,,,,,,,,,,,,,,,,,,616.2007753000362,616.4017254000064,616.3837011000142,616.6840486000292,616.6840486000292,None,617.1847283000243,None,k,1,1.182211599953007,617.1847283000243,None,None,None,,,,,,,,,,,,,,,,,,,,,,,11045,2,1,2024_Jun_01_1634,stroop_task_switching2,2021.2.3,59.99649620587999,
,,,,,,,,,,,,block_switch1,instruction/ready_test.png,instruction/i11.png,,,,,,,,,,,,,,,,,0,0,0,0,,,,,,,,,,,,,,,,,,,,,,,,,,,,,,,,,,,,,,,,,,,,,,,,,,,,,,,,,,,,618.3865712000406,None,space,7.9963569000246935,618.3865712000406,None,,,11045,2,1,2024_Jun_01_1634,stroop_task_switching2,2021.2.3,59.99649620587999,
,,,蓝,blue,f,square,color_mix,单词,,compatible,0,block_switch2,instruction/ready_2.png,instruction/i12.png,,,,,,,,,,,,,,,,,0,1,1,1,0,0,0,0,,,,,,,,,,,,,,,,,,,628.9859348000027,629.9873283000197,629.9873283000197,630.98903170001,630.98903170001,None,628.0010025000083,629.002649400034,632.025037400017,632.2249856000417,632.2081596000353,632.5099233000074,632.5099233000074,None,633.0088844000129,None,f,1,1.1672311999718659,633.0088844000129,None,None,None,,,,,,,,,626.415337500046,None,space,1.5597631999989972,626.415337500046,None,,,,,,,,,11045,2,1,2024_Jun_01_1634,stroop_task_switching2,2021.2.3,59.99649620587999,
,,,黄,red,d,diamond,color_mix,颜色,,incompatible,2,block_switch2,instruction/ready_2.png,instruction/i12.png,,,,,,,,,,,,,,,,,0,1,1,1,0,1,1,1,,,,,,,,,,,,,,,,,,,,,,,,,,,634.193840300024,634.3948474000208,634.3782412,634.6792566000368,634.6792566000368,None,635.1796825000201,None,d,1,1.1557550999568775,635.1796825000201,None,None,None,,,,,,,,,,,,,,,,,,,,,,,11045,2,1,2024_Jun_01_1634,stroop_task_switching2,2021.2.3,59.99649620587999,
,,,蓝,green,k,diamond,color_mix,颜色,,incompatible,1,block_switch2,instruction/ready_2.png,instruction/i12.png,,,,,,,,,,,,,,,,,0,1,1,1,0,2,2,2,,,,,,,,,,,,,,,,,,,,,,,,,,,636.3640038000303,636.5646863000002,636.5488948000129,636.8486290000146,636.8486290000146,None,637.3495352000464,None,k,1,0.8739244000171311,637.3495352000464,None,None,None,,,,,,,,,,,,,,,,,,,,,,,11045,2,1,2024_Jun_01_1634,stroop_task_switching2,2021.2.3,59.99649620587999,
,,,红,yellow,j,diamond,color_mix,颜色,,incompatible,1,block_switch2,instruction/ready_2.png,instruction/i12.png,,,,,,,,,,,,,,,,,0,1,1,1,0,3,3,3,,,,,,,,,,,,,,,,,,,,,,,,,,,638.2495730000082,638.4516349000041,638.4334491000045,638.7339727000217,638.7339727000217,None,639.2346365000121,None,j,1,0.8206819999613799,639.2346365000121,None,None,None,,,,,,,,,,,,,,,,,,,,,,,11045,2,1,2024_Jun_01_1634,stroop_task_switching2,2021.2.3,59.99649620587999,
,,,红,red,d,diamond,color_mix,颜色,,compatible,1,block_switch2,instruction/ready_2.png,instruction/i12.png,,,,,,,,,,,,,,,,,0,1,1,1,0,4,4,4,,,,,,,,,,,,,,,,,,,,,,,,,,,640.0858719000244,640.2884391000262,640.269587000017,640.5700944000273,640.5700944000273,None,641.0714736999944,None,d,1,0.6810091999941505,641.0714736999944,None,None,None,,,,,,,,,,,,,,,,,,,,,,,11045,2,1,2024_Jun_01_1634,stroop_task_switching2,2021.2.3,59.99649620587999,
,,,绿,green,k,square,color_mix,单词,,compatible,2,block_switch2,instruction/ready_2.png,instruction/i12.png,,,,,,,,,,,,,,,,,0,1,1,1,0,5,5,5,,,,,,,,,,,,,,,,,,,,,,,,,,,641.7719546000008,641.9729705000063,641.9553496000008,642.2564068000065,642.2564068000065,None,642.7566235000268,None,k,1,1.026806799985934,642.7566235000268,None,None,None,,,,,,,,,,,,,,,,,,,,,,,11045,2,1,2024_Jun_01_1634,stroop_task_switching2,2021.2.3,59.99649620587999,
,,,黄,blue,f,diamond,color_mix,颜色,,incompatible,2,block_switch2,instruction/ready_2.png,instruction/i12.png,,,,,,,,,,,,,,,,,0,1,1,1,0,6,6,6,,,,,,,,,,,,,,,,,,,,,,,,,,,643.8082103000488,644.0092733000056,643.9930004000198,644.2922316000331,644.2922316000331,None,644.7940130000352,None,f,1,0.9182705000275746,644.7940130000352,None,None,None,,,,,,,,,,,,,,,,,,,,,,,11045,2,1,2024_Jun_01_1634,stroop_task_switching2,2021.2.3,59.99649620587999,
,,,绿,yellow,k,square,color_mix,单词,,incompatible,2,block_switch2,instruction/ready_2.png,instruction/i12.png,,,,,,,,,,,,,,,,,0,1,1,1,0,7,7,7,,,,,,,,,,,,,,,,,,,,,,,,,,,645.7278453000472,645.9282344999956,645.9123091000365,646.2119792000158,646.2119792000158,None,646.713603500044,None,k,1,1.1901897999923676,646.713603500044,None,None,None,,,,,,,,,,,,,,,,,,,,,,,11045,2,1,2024_Jun_01_1634,stroop_task_switching2,2021.2.3,59.99649620587999,
,,,红,green,d,square,color_mix,单词,,incompatible,1,block_switch2,instruction/ready_2.png,instruction/i12.png,,,,,,,,,,,,,,,,,0,1,1,1,0,8,8,8,,,,,,,,,,,,,,,,,,,,,,,,,,,647.9312532000476,648.1313771000132,648.114822100033,648.41583730001,648.41583730001,None,648.9157364999992,None,d,1,1.1799623999977484,648.9157364999992,None,None,None,,,,,,,,,,,,,,,,,,,,,,,11045,2,1,2024_Jun_01_1634,stroop_task_switching2,2021.2.3,59.99649620587999,
,,,黄,yellow,j,square,color_mix,单词,,compatible,1,block_switch2,instruction/ready_2.png,instruction/i12.png,,,,,,,,,,,,,,,,,0,1,1,1,0,9,9,9,,,,,,,,,,,,,,,,,,,,,,,,,,,650.1178082000115,650.3190021000337,650.3014932000078,650.6024952000007,650.6024952000007,None,651.1038943000021,None,j,1,0.880225499975495,651.1038943000021,None,None,None,,,,,,,,,,,,,,,,,,,,,,,11045,2,1,2024_Jun_01_1634,stroop_task_switching2,2021.2.3,59.99649620587999,
