b_pra,ins_blocks,ins_blocks2,stim_word,stim_color,corrAns,cue_type,trial_type,task_type,rand,compatibility,switch,b_test,w_pic,w_pic2,trials_instr.thisRepN,trials_instr.thisTrialN,trials_instr.thisN,trials_instr.thisIndex,block_pra.thisRepN,block_pra.thisTrialN,block_pra.thisN,block_pra.thisIndex,trials_rep.thisRepN,trials_rep.thisTrialN,trials_rep.thisN,trials_rep.thisIndex,trials_pra.thisRepN,trials_pra.thisTrialN,trials_pra.thisN,trials_pra.thisIndex,trials_3.thisRepN,trials_3.thisTrialN,trials_3.thisN,trials_3.thisIndex,trials_2.thisRepN,trials_2.thisTrialN,trials_2.thisN,trials_2.thisIndex,instr_image.started,instr_image.stopped,instr_key_resp.keys,instr_key_resp.rt,instr_key_resp.started,instr_key_resp.stopped,instr_pra_image.started,instr_pra_image.stopped,ip_key_resp.keys,ip_key_resp.rt,ip_key_resp.started,ip_key_resp.stopped,block_image.started,block_image.stopped,ib_key_resp.keys,ib_key_resp.rt,ib_key_resp.started,ib_key_resp.stopped,cd3.started,cd3.stopped,cd2.started,cd2.stopped,cd1.started,cd1.stopped,cd_text.started,cd_text.stopped,text_fix.started,text_fix.stopped,text_2.started,text_2.stopped,text_4.started,text_4.stopped,text_target.started,text_target.stopped,key_resp.keys,key_resp.corr,key_resp.rt,key_resp.started,key_resp.stopped,sceen_black.started,sceen_black.stopped,text_fb.started,text_fb.stopped,text.started,text.stopped,key_bf.keys,key_bf.rt,key_bf.started,key_bf.stopped,instr_test_image.started,instr_test_image.stopped,instr_exp_key_resp.keys,instr_exp_key_resp.rt,instr_exp_key_resp.started,instr_exp_key_resp.stopped,text_rest.started,text_rest.stopped,key_resp_rest.keys,key_resp_rest.rt,key_resp_rest.started,key_resp_rest.stopped,text_3.started,text_3.stopped,participant,session,balance,date,expName,psychopyVersion,frameRate,
,,,,,,,,,,,,,,,0,0,0,0,,,,,,,,,,,,,,,,,,,,,9.407569599992712,None,right,1.0213098999956856,9.407569599992712,None,,,,,,,,,,,,,,,,,,,,,,,,,,,,,,,,,,,,,,,,,,,,,,,,,,,,,,,,,,11046,2,2,2024_Jun_07_1827,stroop_task_switching2_b,2021.2.3,59.96469278880057,
,,,,,,,,,,,,,,,1,0,1,0,,,,,,,,,,,,,,,,,,,,,10.475670999992872,None,right,34.458529600000475,10.475670999992872,None,,,,,,,,,,,,,,,,,,,,,,,,,,,,,,,,,,,,,,,,,,,,,,,,,,,,,,,,,,11046,2,2,2024_Jun_07_1827,stroop_task_switching2_b,2021.2.3,59.96469278880057,
,,,,,,,,,,,,,,,2,0,2,0,,,,,,,,,,,,,,,,,,,,,44.97788770000625,None,right,0.5639031000027899,44.97788770000625,None,,,,,,,,,,,,,,,,,,,,,,,,,,,,,,,,,,,,,,,,,,,,,,,,,,,,,,,,,,11046,2,2,2024_Jun_07_1827,stroop_task_switching2_b,2021.2.3,59.96469278880057,
,,,,,,,,,,,,,,,3,0,3,0,,,,,,,,,,,,,,,,,,,,,45.57876049999322,None,right,0.1400846000033198,45.57876049999322,None,,,,,,,,,,,,,,,,,,,,,,,,,,,,,,,,,,,,,,,,,,,,,,,,,,,,,,,,,,11046,2,2,2024_Jun_07_1827,stroop_task_switching2_b,2021.2.3,59.96469278880057,
,,,,,,,,,,,,,,,4,0,4,0,,,,,,,,,,,,,,,,,,,,,45.76241399999708,None,right,0.32349640000029467,45.76241399999708,None,,,,,,,,,,,,,,,,,,,,,,,,,,,,,,,,,,,,,,,,,,,,,,,,,,,,,,,,,,11046,2,2,2024_Jun_07_1827,stroop_task_switching2_b,2021.2.3,59.96469278880057,
,,,,,,,,,,,,,,,5,0,5,0,,,,,,,,,,,,,,,,,,,,,46.12970309999946,None,right,0.7328708999993978,46.12970309999946,None,,,,,,,,,,,,,,,,,,,,,,,,,,,,,,,,,,,,,,,,,,,,,,,,,,,,,,,,,,11046,2,2,2024_Jun_07_1827,stroop_task_switching2_b,2021.2.3,59.96469278880057,
,,,,,,,,,,,,,,,,,,,,,,,,,,,,,,,,,,,,,,,,,,,,,46.89777460000187,None,space,0.8505820999998832,46.89777460000187,None,,,,,,,,,,,,,,,,,,,,,,,,,,,,,,,,,,,,,,,,,,,,,,,,,,,,11046,2,2,2024_Jun_07_1827,stroop_task_switching2_b,2021.2.3,59.96469278880057,
condition/block_color_b,instruction/instr_color,instruction/i8_b,XX,red,k,diamond,color_single,颜色,,,,,,,,,,,0,0,0,0,0,0,0,0,0,0,0,0,,,,,,,,,,,,,,,,,,,,,47.78211250000459,None,space,14.768532200003392,47.78211250000459,None,63.62292690000322,64.62511860000086,64.62511860000086,65.62561560000177,65.62561560000177,None,62.6382181999943,63.64113129999896,66.5936148000037,66.7949690999958,66.77787619999435,67.07872320000024,67.07872320000024,None,67.57872979999229,None,k,1,1.1079863000049954,67.57872979999229,None,None,None,68.71355369999947,None,,,,,,,,,,,,,,,,,,,,,11046,2,2,2024_Jun_07_1827,stroop_task_switching2_b,2021.2.3,59.96469278880057,
condition/block_color_b,instruction/instr_color,instruction/i8_b,XX,green,d,diamond,color_single,颜色,,,,,,,,,,,0,0,0,0,0,0,0,0,0,1,1,1,,,,,,,,,,,,,,,,,,,,,,,,,,,,,,,,,,,69.71521490000305,69.91675910000049,69.89895839999372,70.199827000004,70.199827000004,None,70.69994659999793,None,d,1,1.1306517000048188,70.69994659999793,None,None,None,71.85144759999821,None,,,,,,,,,,,,,,,,,,,,,11046,2,2,2024_Jun_07_1827,stroop_task_switching2_b,2021.2.3,59.96469278880057,
condition/block_color_b,instruction/instr_color,instruction/i8_b,XX,yellow,f,diamond,color_single,颜色,,,,,,,,,,,0,0,0,0,0,0,0,0,0,2,2,2,,,,,,,,,,,,,,,,,,,,,,,,,,,,,,,,,,,72.85324840000249,73.0534966999985,73.03760140000668,73.33718940000108,73.33718940000108,None,73.83805279999797,None,f,1,0.9847059000021545,73.83805279999797,None,None,None,74.83974250000028,None,,,,,,,,,,,,,,,,,,,,,11046,2,2,2024_Jun_07_1827,stroop_task_switching2_b,2021.2.3,59.96469278880057,
condition/block_color_b,instruction/instr_color,instruction/i8_b,XX,blue,j,diamond,color_single,颜色,,,,,,,,,,,0,0,0,0,0,0,0,0,0,3,3,3,,,,,,,,,,,,,,,,,,,,,,,,,,,,,,,,,,,75.84101689999807,76.0424495000043,76.0254336999933,76.32680999999866,76.32680999999866,None,76.82608220000111,None,j,1,0.9007726999989245,76.82608220000111,None,None,None,77.74401840000064,None,,,,,,,,,,,,,,,,,,,,,11046,2,2,2024_Jun_07_1827,stroop_task_switching2_b,2021.2.3,59.96469278880057,
condition/block_color_b,instruction/instr_color,instruction/i8_b,XX,green,d,diamond,color_single,颜色,,,,,,,,,,,0,0,0,0,0,0,0,0,0,4,4,4,,,,,,,,,,,,,,,,,,,,,,,,,,,,,,,,,,,78.74597560000257,78.94626300000527,78.93134860000282,79.24624269999913,79.22995510000328,None,79.73009260000254,None,d,1,0.8606799999979557,79.73009260000254,None,None,None,80.61513409999316,None,,,,,,,,,,,,,,,,,,,,,11046,2,2,2024_Jun_07_1827,stroop_task_switching2_b,2021.2.3,59.96469278880057,
condition/block_color_b,instruction/instr_color,instruction/i8_b,XX,yellow,f,diamond,color_single,颜色,,,,,,,,,,,0,0,0,0,0,0,0,0,0,5,5,5,,,,,,,,,,,,,,,,,,,,,,,,,,,,,,,,,,,81.61641370000143,81.8173703999928,81.79985809999926,82.10064439999405,82.10064439999405,None,82.60117579999496,None,f,1,0.48583000000508036,82.60117579999496,None,None,None,83.10199300000386,None,,,,,,,,,,,,,,,,,,,,,11046,2,2,2024_Jun_07_1827,stroop_task_switching2_b,2021.2.3,59.96469278880057,
condition/block_color_b,instruction/instr_color,instruction/i8_b,XX,blue,j,diamond,color_single,颜色,,,,,,,,,,,0,0,0,0,0,0,0,0,0,6,6,6,,,,,,,,,,,,,,,,,,,,,,,,,,,,,,,,,,,84.10402749999776,84.30385599999863,84.28828449999855,84.58753330000036,84.58753330000036,None,85.08838849999302,None,j,1,0.6070261999993818,85.08838849999302,None,None,None,85.72258580000198,None,,,,,,,,,,,,,,,,,,,,,11046,2,2,2024_Jun_07_1827,stroop_task_switching2_b,2021.2.3,59.96469278880057,
condition/block_color_b,instruction/instr_color,instruction/i8_b,XX,red,k,diamond,color_single,颜色,,,,,,,,,,,0,0,0,0,0,0,0,0,0,7,7,7,,,,,,,,,,,,,,,,,,,,,,,,,,,,,,,,,,,86.72398070000054,86.92553300000145,86.9094727000047,87.2083272000018,87.2083272000018,None,87.70905259999563,None,k,1,0.4021128000022145,87.70905259999563,None,None,None,88.14328970000497,None,,,,,,,,,,,,,,,,,,,,,11046,2,2,2024_Jun_07_1827,stroop_task_switching2_b,2021.2.3,59.96469278880057,
condition/block_color_b,instruction/instr_color,instruction/i8_b,XX,yellow,f,diamond,color_single,颜色,,,,,,,,,,,0,0,0,0,0,0,0,0,0,8,8,8,,,,,,,,,,,,,,,,,,,,,,,,,,,,,,,,,,,89.14452689999598,89.34632969999802,89.32820099999662,89.62949799999478,89.62949799999478,None,90.1299652000016,None,f,1,0.7332845000055386,90.1299652000016,None,None,None,90.88047899999947,None,,,,,,,,,,,,,,,,,,,,,11046,2,2,2024_Jun_07_1827,stroop_task_switching2_b,2021.2.3,59.96469278880057,
condition/block_color_b,instruction/instr_color,instruction/i8_b,XX,blue,j,diamond,color_single,颜色,,,,,,,,,,,0,0,0,0,0,0,0,0,0,9,9,9,,,,,,,,,,,,,,,,,,,,,,,,,,,,,,,,,,,91.88302130000375,92.08219499999541,92.06557249999605,92.36612760000571,92.36612760000571,None,92.86744299999555,None,j,1,0.7799259000021266,92.86744299999555,None,None,None,93.66787950000435,None,,,,,,,,,,,,,,,,,,,,,11046,2,2,2024_Jun_07_1827,stroop_task_switching2_b,2021.2.3,59.96469278880057,
condition/block_color_b,instruction/instr_color,instruction/i8_b,XX,red,k,diamond,color_single,颜色,,,,,,,,,,,0,0,0,0,0,0,0,0,0,10,10,10,,,,,,,,,,,,,,,,,,,,,,,,,,,,,,,,,,,94.67079220000596,94.87047730000631,94.85386469999503,95.1544203999947,95.1544203999947,None,95.65483569999924,None,k,1,0.5925369000033243,95.65483569999924,None,None,None,96.27184289999423,None,,,,,,,,,,,,,,,,,,,,,11046,2,2,2024_Jun_07_1827,stroop_task_switching2_b,2021.2.3,59.96469278880057,
condition/block_color_b,instruction/instr_color,instruction/i8_b,XX,green,d,diamond,color_single,颜色,,,,,,,,,,,0,0,0,0,0,0,0,0,0,11,11,11,,,,,,,,,,,,,,,,,,,,,,,,,,,,,,,,,,,97.27341209999577,97.47458769999503,97.4570195999986,97.75846169999568,97.75846169999568,None,98.25830040000437,101.26271520000591,None,0,,98.25830040000437,101.26271520000591,101.22953019999841,None,101.81378959999711,None,,,,,,,,,,,,,,,,,,,,,11046,2,2,2024_Jun_07_1827,stroop_task_switching2_b,2021.2.3,59.96469278880057,
condition/block_color_b,instruction/instr_color,instruction/i8_b,XX,blue,j,diamond,color_single,颜色,,,,,,,,,,,0,0,0,0,0,0,0,0,0,12,12,12,,,,,,,,,,,,,,,,,,,,,,,,,,,,,,,,,,,102.815234099995,103.0176277999999,102.98311909999757,103.28304070000013,103.29904509999324,None,103.80016499999329,None,j,1,1.007606899991515,103.80016499999329,None,None,None,104.8351038999972,None,,,,,,,,,,,,,,,,,,,,,11046,2,2,2024_Jun_07_1827,stroop_task_switching2_b,2021.2.3,59.96469278880057,
condition/block_color_b,instruction/instr_color,instruction/i8_b,XX,red,k,diamond,color_single,颜色,,,,,,,,,,,0,0,0,0,0,0,0,0,0,13,13,13,,,,,,,,,,,,,,,,,,,,,,,,,,,,,,,,,,,105.83701770000334,106.03657799999928,106.02012889999605,106.32035739999264,106.32035739999264,None,106.82114400000137,None,k,1,0.6505946000106633,106.82114400000137,None,None,None,107.48870859999442,None,,,,,,,,,,,,,,,,,,,,,11046,2,2,2024_Jun_07_1827,stroop_task_switching2_b,2021.2.3,59.96469278880057,
condition/block_color_b,instruction/instr_color,instruction/i8_b,XX,green,d,diamond,color_single,颜色,,,,,,,,,,,0,0,0,0,0,0,0,0,0,14,14,14,,,,,,,,,,,,,,,,,,,,,,,,,,,,,,,,,,,108.49040830000013,108.69061269999656,108.67425729999377,108.97606139999698,108.97606139999698,None,109.47501779999584,None,d,1,0.7174128999904497,109.47501779999584,None,None,None,110.20962520000467,None,,,,,,,,,,,,,,,,,,,,,11046,2,2,2024_Jun_07_1827,stroop_task_switching2_b,2021.2.3,59.96469278880057,
condition/block_color_b,instruction/instr_color,instruction/i8_b,XX,yellow,f,diamond,color_single,颜色,,,,,,,,,,,0,0,0,0,0,0,0,0,0,15,15,15,,,,,,,,,,,,,,,,,,,,,,,,,,,,,,,,,,,111.21164589999535,111.4121856999991,111.39472939999541,111.69514670000353,111.69514670000353,None,112.19567509999615,None,f,1,0.6853148000082001,112.19567509999615,None,None,None,112.89706780000415,None,,,,,,,,,,,,,,,,,,,,,11046,2,2,2024_Jun_07_1827,stroop_task_switching2_b,2021.2.3,59.96469278880057,
condition/block_color_b,instruction/instr_color,instruction/i8_b,XX,red,k,diamond,color_single,颜色,,,,,,,,,,,0,0,0,0,0,0,0,0,0,16,16,16,,,,,,,,,,,,,,,,,,,,,,,,,,,,,,,,,,,113.89861210000527,114.10035340000468,114.08211519999895,114.38352629999281,114.38352629999281,None,114.8840182999993,None,k,1,0.860006600007182,114.8840182999993,None,None,None,115.76790989999427,None,,,,,,,,,,,,,,,,,,,,,11046,2,2,2024_Jun_07_1827,stroop_task_switching2_b,2021.2.3,59.96469278880057,
condition/block_color_b,instruction/instr_color,instruction/i8_b,XX,green,d,diamond,color_single,颜色,,,,,,,,,,,0,0,0,0,0,0,0,0,0,17,17,17,,,,,,,,,,,,,,,,,,,,,,,,,,,,,,,,,,,116.76941090000037,116.97075100000075,116.95342099999834,117.25479190000624,117.25479190000624,None,117.75447770000028,None,d,1,0.6775932000018656,117.75447770000028,None,None,None,118.45513879999635,None,,,,,,,,,,,,,,,,,,,,,11046,2,2,2024_Jun_07_1827,stroop_task_switching2_b,2021.2.3,59.96469278880057,
condition/block_color_b,instruction/instr_color,instruction/i8_b,XX,yellow,f,diamond,color_single,颜色,,,,,,,,,,,0,0,0,0,0,0,0,0,0,18,18,18,,,,,,,,,,,,,,,,,,,,,,,,,,,,,,,,,,,119.45699249999598,119.65766880000592,119.64079259999562,119.94111549999798,119.94111549999798,None,120.44169429999602,None,f,1,0.4063685000000987,120.44169429999602,None,None,None,120.87581349999527,None,,,,,,,,,,,,,,,,,,,,,11046,2,2,2024_Jun_07_1827,stroop_task_switching2_b,2021.2.3,59.96469278880057,
condition/block_color_b,instruction/instr_color,instruction/i8_b,XX,blue,j,diamond,color_single,颜色,,,,,,,,,,,0,0,0,0,0,0,0,0,0,19,19,19,,,,,,,,,,,,,,,,,,,,,,,,,,,,,,,,,,,121.87728529999731,122.07824649999384,122.06071669999801,122.36156439999468,122.36156439999468,None,122.86176830000477,None,j,1,0.5464058999932604,122.86176830000477,None,None,None,123.42941729999438,None,,,,,,,,,,,,,,,,,,,,,11046,2,2,2024_Jun_07_1827,stroop_task_switching2_b,2021.2.3,59.96469278880057,
condition/block_color_b,instruction/instr_color,instruction/i8_b,XX,green,d,diamond,color_single,颜色,,,,,,,,,,,0,0,0,0,0,0,0,0,0,20,20,20,,,,,,,,,,,,,,,,,,,,,,,,,,,,,,,,,,,124.43184790000669,124.63242460000038,124.61458429999766,124.91565890000493,124.91565890000493,None,125.41584950000106,None,d,1,0.6244986000092467,125.41584950000106,None,None,None,126.06738399999449,None,,,,,,,,,,,,,,,,,,,,,11046,2,2,2024_Jun_07_1827,stroop_task_switching2_b,2021.2.3,59.96469278880057,
condition/block_color_b,instruction/instr_color,instruction/i8_b,XX,yellow,f,diamond,color_single,颜色,,,,,,,,,,,0,0,0,0,0,0,0,0,0,21,21,21,,,,,,,,,,,,,,,,,,,,,,,,,,,,,,,,,,,127.06832320000103,127.2691913000017,127.25301939999918,127.55369479999354,127.55369479999354,None,128.05338139999367,None,f,1,0.4750010999996448,128.05338139999367,None,None,None,128.5537583999976,None,,,,,,,,,,,,,,,,,,,,,11046,2,2,2024_Jun_07_1827,stroop_task_switching2_b,2021.2.3,59.96469278880057,
condition/block_color_b,instruction/instr_color,instruction/i8_b,XX,blue,j,diamond,color_single,颜色,,,,,,,,,,,0,0,0,0,0,0,0,0,0,22,22,22,,,,,,,,,,,,,,,,,,,,,,,,,,,,,,,,,,,129.55570509999234,129.7562872999988,129.7396141999925,130.04065179999452,130.04065179999452,None,130.54017100000056,None,j,1,0.4281865000084508,130.54017100000056,None,None,None,130.9911054999975,None,,,,,,,,,,,,,,,,,,,,,11046,2,2,2024_Jun_07_1827,stroop_task_switching2_b,2021.2.3,59.96469278880057,
condition/block_color_b,instruction/instr_color,instruction/i8_b,XX,red,k,diamond,color_single,颜色,,,,,,,,,,,0,0,0,0,0,0,0,0,0,23,23,23,,,,,,,,,,,,,,,,,,,,,,,,,,,,,,,,,,,131.99257170000055,132.19312569999602,132.1759938000032,132.4765638999961,132.4765638999961,None,132.97718810000515,None,k,1,0.38377610000316054,132.97718810000515,None,None,None,133.37779660000524,None,,,,,,,,,,,,,,,,,,,,,11046,2,2,2024_Jun_07_1827,stroop_task_switching2_b,2021.2.3,59.96469278880057,
condition/block_color_b,instruction/instr_color,instruction/i8_b,,,,,,,,,,,,,,,,,0,0,0,0,0,0,0,0,,,,,,,,,,,,,,,,,,,,,,,,,,,,,,,,,,,,,,,,,,,,,,,,,,,,,,,,134.3958425000019,None,space,5.308975700012525,134.3958425000019,None,,,,,,,,,,,,,,,11046,2,2,2024_Jun_07_1827,stroop_task_switching2_b,2021.2.3,59.96469278880057,
condition/block_color_b,instruction/instr_color,instruction/i8_b,,,,,,,,,,,,,,,,,0,0,0,0,,,,,,,,,,,,,,,,,,,,,,,,,,,,,,,,,,,,,,,,,,,,,,,,,,,,,,,,,,,,,,,,,,,,,,,,,,,,,,,,11046,2,2,2024_Jun_07_1827,stroop_task_switching2_b,2021.2.3,59.96469278880057,
condition/block_word_b,instruction/instr_word,instruction/i9_b,黄,white,f,square,word_single,单词,0.0032461461866890584,,,,,,,,,,0,1,1,1,0,0,0,0,0,0,0,0,,,,,,,,,,,,,,,,,,,,,139.73732230000314,None,space,4.479473899991717,139.73732230000314,None,145.24561840000388,146.24727180000627,146.24727180000627,147.24878629999876,147.24878629999876,None,144.26182759999938,145.26362119999249,148.26702090000617,148.4678275000042,148.4505274999974,148.75272999999288,148.75272999999288,None,149.25166110000282,None,f,1,0.7653238999919267,149.25166110000282,None,None,None,150.03751449999982,None,,,,,,,,,,,,,,,,,,,,,11046,2,2,2024_Jun_07_1827,stroop_task_switching2_b,2021.2.3,59.96469278880057,
condition/block_word_b,instruction/instr_word,instruction/i9_b,蓝,white,j,square,word_single,单词,0.060540570646362424,,,,,,,,,,0,1,1,1,0,0,0,0,0,1,1,1,,,,,,,,,,,,,,,,,,,,,,,,,,,,,,,,,,,151.0380010999943,151.23951109999325,151.2229922999977,151.5229274000012,151.5229274000012,None,152.02239729999565,None,j,1,0.8827727000025334,152.02239729999565,None,None,None,152.9236757000035,None,,,,,,,,,,,,,,,,,,,,,11046,2,2,2024_Jun_07_1827,stroop_task_switching2_b,2021.2.3,59.96469278880057,
condition/block_word_b,instruction/instr_word,instruction/i9_b,黄,white,f,square,word_single,单词,0.06994067193778963,,,,,,,,,,0,1,1,1,0,0,0,0,0,2,2,2,,,,,,,,,,,,,,,,,,,,,,,,,,,,,,,,,,,153.9254973000061,154.12621000000217,154.10899949999293,154.40963369999372,154.40963369999372,None,154.911064800006,None,f,1,0.937958599999547,154.911064800006,None,None,None,155.87825039999734,None,,,,,,,,,,,,,,,,,,,,,11046,2,2,2024_Jun_07_1827,stroop_task_switching2_b,2021.2.3,59.96469278880057,
condition/block_word_b,instruction/instr_word,instruction/i9_b,蓝,white,j,square,word_single,单词,0.08193765152950094,,,,,,,,,,0,1,1,1,0,0,0,0,0,3,3,3,,,,,,,,,,,,,,,,,,,,,,,,,,,,,,,,,,,156.88060839999525,157.08120600000257,157.0635889999976,157.36473719999776,157.36473719999776,None,157.8646410999936,None,j,1,0.9525049999938346,157.8646410999936,None,None,None,158.83285170000454,None,,,,,,,,,,,,,,,,,,,,,11046,2,2,2024_Jun_07_1827,stroop_task_switching2_b,2021.2.3,59.96469278880057,
condition/block_word_b,instruction/instr_word,instruction/i9_b,红,white,k,square,word_single,单词,0.1279694370605574,,,,,,,,,,0,1,1,1,0,0,0,0,0,4,4,4,,,,,,,,,,,,,,,,,,,,,,,,,,,,,,,,,,,159.83469089999562,160.03563790000044,160.0186129999929,160.3201842999988,160.3201842999988,None,160.83651680000185,None,k,1,1.0047166000003926,160.83651680000185,None,None,None,161.87087309999333,None,,,,,,,,,,,,,,,,,,,,,11046,2,2,2024_Jun_07_1827,stroop_task_switching2_b,2021.2.3,59.96469278880057,
condition/block_word_b,instruction/instr_word,instruction/i9_b,红,white,k,square,word_single,单词,0.18345028784879092,,,,,,,,,,0,1,1,1,0,0,0,0,0,5,5,5,,,,,,,,,,,,,,,,,,,,,,,,,,,,,,,,,,,162.87232969999604,163.07253109999874,163.05664549999346,163.3565452000039,163.3565452000039,None,163.85814490000485,None,k,1,0.6390816000057384,163.85814490000485,None,None,None,164.52462739999464,None,,,,,,,,,,,,,,,,,,,,,11046,2,2,2024_Jun_07_1827,stroop_task_switching2_b,2021.2.3,59.96469278880057,
condition/block_word_b,instruction/instr_word,instruction/i9_b,蓝,white,j,square,word_single,单词,0.19920386223101294,,,,,,,,,,0,1,1,1,0,0,0,0,0,6,6,6,,,,,,,,,,,,,,,,,,,,,,,,,,,,,,,,,,,165.52625579999585,165.72668599999452,165.7103783000057,166.01229769999918,166.01229769999918,None,166.52754729999288,None,j,1,0.6502062000072328,166.52754729999288,None,None,None,167.19549899999402,None,,,,,,,,,,,,,,,,,,,,,11046,2,2,2024_Jun_07_1827,stroop_task_switching2_b,2021.2.3,59.96469278880057,
condition/block_word_b,instruction/instr_word,instruction/i9_b,蓝,white,j,square,word_single,单词,0.26360599864925405,,,,,,,,,,0,1,1,1,0,0,0,0,0,7,7,7,,,,,,,,,,,,,,,,,,,,,,,,,,,,,,,,,,,168.19691290000628,168.3971668000013,168.3809062999935,168.68244469999627,168.68244469999627,None,169.1819123000023,None,j,1,0.6355267000035383,169.1819123000023,None,None,None,169.83275380000123,None,,,,,,,,,,,,,,,,,,,,,11046,2,2,2024_Jun_07_1827,stroop_task_switching2_b,2021.2.3,59.96469278880057,
condition/block_word_b,instruction/instr_word,instruction/i9_b,蓝,white,j,square,word_single,单词,0.358985675745526,,,,,,,,,,0,1,1,1,0,0,0,0,0,8,8,8,,,,,,,,,,,,,,,,,,,,,,,,,,,,,,,,,,,170.83441919999314,171.03461439999228,171.01820409999345,171.3183668999991,171.302311499996,None,171.80381060000218,None,j,1,0.5502944000036223,171.80381060000218,None,None,None,172.37016160000348,None,,,,,,,,,,,,,,,,,,,,,11046,2,2,2024_Jun_07_1827,stroop_task_switching2_b,2021.2.3,59.96469278880057,
condition/block_word_b,instruction/instr_word,instruction/i9_b,绿,white,d,square,word_single,单词,0.36496733802487347,,,,,,,,,,0,1,1,1,0,0,0,0,0,9,9,9,,,,,,,,,,,,,,,,,,,,,,,,,,,,,,,,,,,173.3714600999956,173.5716717000032,173.55627000000095,173.85635950000142,173.85635950000142,None,174.35632279999845,None,d,1,0.9652080000087153,174.35632279999845,None,None,None,175.34103830000095,None,,,,,,,,,,,,,,,,,,,,,11046,2,2,2024_Jun_07_1827,stroop_task_switching2_b,2021.2.3,59.96469278880057,
condition/block_word_b,instruction/instr_word,instruction/i9_b,黄,white,f,square,word_single,单词,0.3743513623756727,,,,,,,,,,0,1,1,1,0,0,0,0,0,10,10,10,,,,,,,,,,,,,,,,,,,,,,,,,,,,,,,,,,,176.34264810000604,176.54369819999556,176.52619530000084,176.82655300000624,176.82655300000624,None,177.32754090000526,None,j,0,0.7541141999972751,177.32754090000526,None,None,None,178.1119017000019,None,,,,,,,,,,,,,,,,,,,,,11046,2,2,2024_Jun_07_1827,stroop_task_switching2_b,2021.2.3,59.96469278880057,
condition/block_word_b,instruction/instr_word,instruction/i9_b,红,white,k,square,word_single,单词,0.3894803852598544,,,,,,,,,,0,1,1,1,0,0,0,0,0,11,11,11,,,,,,,,,,,,,,,,,,,,,,,,,,,,,,,,,,,179.11353679999593,179.3155190999969,179.29722670000046,179.5984427999938,179.5984427999938,None,180.09835359999852,None,k,1,0.8072095999959856,180.09835359999852,None,None,None,180.93297280000115,None,,,,,,,,,,,,,,,,,,,,,11046,2,2,2024_Jun_07_1827,stroop_task_switching2_b,2021.2.3,59.96469278880057,
condition/block_word_b,instruction/instr_word,instruction/i9_b,绿,white,d,square,word_single,单词,0.5393759672408067,,,,,,,,,,0,1,1,1,0,0,0,0,0,12,12,12,,,,,,,,,,,,,,,,,,,,,,,,,,,,,,,,,,,181.93447100000049,182.13481960000354,182.11900279999827,182.42105220000667,182.42105220000667,None,182.93593839999812,None,j,0,1.1061556999920867,182.93593839999812,None,None,None,184.0710196,None,,,,,,,,,,,,,,,,,,,,,11046,2,2,2024_Jun_07_1827,stroop_task_switching2_b,2021.2.3,59.96469278880057,
condition/block_word_b,instruction/instr_word,instruction/i9_b,蓝,white,j,square,word_single,单词,0.5995731954831104,,,,,,,,,,0,1,1,1,0,0,0,0,0,13,13,13,,,,,,,,,,,,,,,,,,,,,,,,,,,,,,,,,,,185.0724995000055,185.27290860000357,185.25622140000632,185.5566034999938,185.5566034999938,None,186.0573041000025,None,j,1,0.736415899998974,186.0573041000025,None,None,None,186.80852409999352,None,,,,,,,,,,,,,,,,,,,,,11046,2,2,2024_Jun_07_1827,stroop_task_switching2_b,2021.2.3,59.96469278880057,
condition/block_word_b,instruction/instr_word,instruction/i9_b,红,white,k,square,word_single,单词,0.6298674479151414,,,,,,,,,,0,1,1,1,0,0,0,0,0,14,14,14,,,,,,,,,,,,,,,,,,,,,,,,,,,,,,,,,,,187.81044010000187,188.01149239999359,187.9937396000023,188.29409389999637,188.29409389999637,None,188.79469419999805,None,k,1,0.7522966999968048,188.79469419999805,None,None,None,189.56269079999765,None,,,,,,,,,,,,,,,,,,,,,11046,2,2,2024_Jun_07_1827,stroop_task_switching2_b,2021.2.3,59.96469278880057,
condition/block_word_b,instruction/instr_word,instruction/i9_b,红,white,k,square,word_single,单词,0.7389942282348904,,,,,,,,,,0,1,1,1,0,0,0,0,0,15,15,15,,,,,,,,,,,,,,,,,,,,,,,,,,,,,,,,,,,190.5650900000037,190.7656755999924,190.74836800000048,191.049182200004,191.049182200004,None,191.549036299999,None,k,1,0.7810393999970984,191.549036299999,None,None,None,192.3504466000013,None,,,,,,,,,,,,,,,,,,,,,11046,2,2,2024_Jun_07_1827,stroop_task_switching2_b,2021.2.3,59.96469278880057,
condition/block_word_b,instruction/instr_word,instruction/i9_b,绿,white,d,square,word_single,单词,0.7550853947239682,,,,,,,,,,0,1,1,1,0,0,0,0,0,16,16,16,,,,,,,,,,,,,,,,,,,,,,,,,,,,,,,,,,,193.3520525000058,193.55191049999848,193.5357406999974,193.83621680000215,193.83621680000215,None,194.33723619999364,None,d,1,0.5617813999997452,194.33723619999364,None,None,None,194.92062530000112,None,,,,,,,,,,,,,,,,,,,,,11046,2,2,2024_Jun_07_1827,stroop_task_switching2_b,2021.2.3,59.96469278880057,
condition/block_word_b,instruction/instr_word,instruction/i9_b,绿,white,d,square,word_single,单词,0.8019302780428206,,,,,,,,,,0,1,1,1,0,0,0,0,0,17,17,17,,,,,,,,,,,,,,,,,,,,,,,,,,,,,,,,,,,195.9235161999968,196.1224513000052,196.10731859999942,196.4086122000008,196.4086122000008,None,196.90793770000164,None,d,1,0.742155100000673,196.90793770000164,None,None,None,197.6746609999973,None,,,,,,,,,,,,,,,,,,,,,11046,2,2,2024_Jun_07_1827,stroop_task_switching2_b,2021.2.3,59.96469278880057,
condition/block_word_b,instruction/instr_word,instruction/i9_b,绿,white,d,square,word_single,单词,0.8110702914095343,,,,,,,,,,0,1,1,1,0,0,0,0,0,18,18,18,,,,,,,,,,,,,,,,,,,,,,,,,,,,,,,,,,,198.6763765999931,198.87832639999397,198.86002569999255,199.16182910000498,199.16182910000498,None,199.66196490000584,None,d,1,0.5242632000008598,199.66196490000584,None,None,None,200.2118502999947,None,,,,,,,,,,,,,,,,,,,,,11046,2,2,2024_Jun_07_1827,stroop_task_switching2_b,2021.2.3,59.96469278880057,
condition/block_word_b,instruction/instr_word,instruction/i9_b,黄,white,f,square,word_single,单词,0.8176594937590999,,,,,,,,,,0,1,1,1,0,0,0,0,0,19,19,19,,,,,,,,,,,,,,,,,,,,,,,,,,,,,,,,,,,201.2135186999949,201.415519400005,201.39731709999614,201.69749190000584,201.69749190000584,None,202.19822239999485,None,f,1,0.6279407999973046,202.19822239999485,None,None,None,202.84948710000026,None,,,,,,,,,,,,,,,,,,,,,11046,2,2,2024_Jun_07_1827,stroop_task_switching2_b,2021.2.3,59.96469278880057,
condition/block_word_b,instruction/instr_word,instruction/i9_b,红,white,k,square,word_single,单词,0.8955794421104841,,,,,,,,,,0,1,1,1,0,0,0,0,0,20,20,20,,,,,,,,,,,,,,,,,,,,,,,,,,,,,,,,,,,203.85141249999288,204.05130140000256,204.03481280000415,204.33548890000384,204.33548890000384,None,204.83559669999522,None,k,1,0.6468715999944834,204.83559669999522,None,None,None,205.50321619999886,None,,,,,,,,,,,,,,,,,,,,,11046,2,2,2024_Jun_07_1827,stroop_task_switching2_b,2021.2.3,59.96469278880057,
condition/block_word_b,instruction/instr_word,instruction/i9_b,绿,white,d,square,word_single,单词,0.9113598052474129,,,,,,,,,,0,1,1,1,0,0,0,0,0,21,21,21,,,,,,,,,,,,,,,,,,,,,,,,,,,,,,,,,,,206.50496979999298,206.70637729999726,206.68836719999672,206.9900120999955,206.9900120999955,None,207.48953489999985,None,d,1,0.641071500009275,207.48953489999985,None,None,None,208.15711210000154,None,,,,,,,,,,,,,,,,,,,,,11046,2,2,2024_Jun_07_1827,stroop_task_switching2_b,2021.2.3,59.96469278880057,
condition/block_word_b,instruction/instr_word,instruction/i9_b,黄,white,f,square,word_single,单词,0.9215930958042953,,,,,,,,,,0,1,1,1,0,0,0,0,0,22,22,22,,,,,,,,,,,,,,,,,,,,,,,,,,,,,,,,,,,209.15877579999506,209.35908579999523,209.34239380000508,209.6439367999992,209.6439367999992,None,210.14434480000637,None,f,1,0.7543244999978924,210.14434480000637,None,None,None,210.92815849999897,None,,,,,,,,,,,,,,,,,,,,,11046,2,2,2024_Jun_07_1827,stroop_task_switching2_b,2021.2.3,59.96469278880057,
condition/block_word_b,instruction/instr_word,instruction/i9_b,黄,white,f,square,word_single,单词,0.9493525498837774,,,,,,,,,,0,1,1,1,0,0,0,0,0,23,23,23,,,,,,,,,,,,,,,,,,,,,,,,,,,,,,,,,,,211.92968469999323,212.1299994000001,212.11415500000294,212.4145681999944,212.4145681999944,None,212.91446279999218,None,f,1,0.7846395999949891,212.91446279999218,None,None,None,213.71554570000444,None,,,,,,,,,,,,,,,,,,,,,11046,2,2,2024_Jun_07_1827,stroop_task_switching2_b,2021.2.3,59.96469278880057,
condition/block_word_b,instruction/instr_word,instruction/i9_b,,,,,,,,,,,,,,,,,0,1,1,1,0,0,0,0,,,,,,,,,,,,,,,,,,,,,,,,,,,,,,,,,,,,,,,,,,,,,,,,,,,,,,,,214.71694600000046,None,space,8.629845800009207,214.71694600000046,None,,,,,,,,,,,,,,,11046,2,2,2024_Jun_07_1827,stroop_task_switching2_b,2021.2.3,59.96469278880057,
condition/block_word_b,instruction/instr_word,instruction/i9_b,,,,,,,,,,,,,,,,,0,1,1,1,,,,,,,,,,,,,,,,,,,,,,,,,,,,,,,,,,,,,,,,,,,,,,,,,,,,,,,,,,,,,,,,,,,,,,,,,,,,,,,,11046,2,2,2024_Jun_07_1827,stroop_task_switching2_b,2021.2.3,59.96469278880057,
condition/block_mixed_b,instruction/instr_mixed,instruction/i10_b,蓝,red,k,diamond,color_mix,颜色,,incompatible,0,,,,,,,,0,2,2,2,0,0,0,0,0,0,0,0,,,,,,,,,,,,,,,,,,,,,223.38014490000205,None,space,5.063082000007853,223.38014490000205,None,229.47332299999835,230.47538459999487,230.47538459999487,231.47577069999534,231.47577069999534,None,228.48820370000612,229.49019959999714,232.51160319999326,232.71081269999559,232.69504489999963,232.99523080000654,232.99523080000654,None,233.47980390000157,None,k,1,1.259439300003578,233.47980390000157,None,None,None,234.7641988999967,None,,,,,,,,,,,,,,,,,,,,,11046,2,2,2024_Jun_07_1827,stroop_task_switching2_b,2021.2.3,59.96469278880057,
condition/block_mixed_b,instruction/instr_mixed,instruction/i10_b,绿,yellow,f,diamond,color_mix,颜色,,incompatible,1,,,,,,,,0,2,2,2,0,0,0,0,0,1,1,1,,,,,,,,,,,,,,,,,,,,,,,,,,,,,,,,,,,235.7661908000009,235.96669319999637,235.94928739999887,236.2497466000059,236.2497466000059,None,236.7501562999969,None,f,1,0.9970567999989726,236.7501562999969,None,None,None,237.76924920000602,None,,,,,,,,,,,,,,,,,,,,,11046,2,2,2024_Jun_07_1827,stroop_task_switching2_b,2021.2.3,59.96469278880057,
condition/block_mixed_b,instruction/instr_mixed,instruction/i10_b,红,green,d,diamond,color_mix,颜色,,incompatible,1,,,,,,,,0,2,2,2,0,0,0,0,0,2,2,2,,,,,,,,,,,,,,,,,,,,,,,,,,,,,,,,,,,238.77013609999267,238.97129620000487,238.95601530000567,239.27098990000377,239.25415300000168,None,239.75481299999228,None,d,1,1.3292848999990383,239.75481299999228,None,None,None,241.10710720000498,None,,,,,,,,,,,,,,,,,,,,,11046,2,2,2024_Jun_07_1827,stroop_task_switching2_b,2021.2.3,59.96469278880057,
condition/block_mixed_b,instruction/instr_mixed,instruction/i10_b,蓝,red,k,diamond,color_mix,颜色,,incompatible,1,,,,,,,,0,2,2,2,0,0,0,0,0,3,3,3,,,,,,,,,,,,,,,,,,,,,,,,,,,,,,,,,,,242.10838639999565,242.3093949000031,242.292807299993,242.59249439999985,242.59249439999985,None,243.09322349999275,None,k,1,1.0382293000002392,243.09322349999275,None,None,None,244.16153470000427,None,,,,,,,,,,,,,,,,,,,,,11046,2,2,2024_Jun_07_1827,stroop_task_switching2_b,2021.2.3,59.96469278880057,
condition/block_mixed_b,instruction/instr_mixed,instruction/i10_b,红,blue,j,diamond,color_mix,颜色,,incompatible,1,,,,,,,,0,2,2,2,0,0,0,0,0,4,4,4,,,,,,,,,,,,,,,,,,,,,,,,,,,,,,,,,,,245.16307919999235,245.36437500000466,245.34691819999716,245.64866809999512,245.64866809999512,None,246.14816199999768,None,j,1,0.9594339999894146,246.14816199999768,None,None,None,247.13274580000143,None,,,,,,,,,,,,,,,,,,,,,11046,2,2,2024_Jun_07_1827,stroop_task_switching2_b,2021.2.3,59.96469278880057,
condition/block_mixed_b,instruction/instr_mixed,instruction/i10_b,红,blue,k,square,color_mix,单词,,incompatible,2,,,,,,,,0,2,2,2,0,0,0,0,0,5,5,5,,,,,,,,,,,,,,,,,,,,,,,,,,,,,,,,,,,248.13420460000634,248.334554999994,248.3176359999925,248.61995399999432,248.61995399999432,None,249.1190709999937,None,k,1,1.0525322000030428,249.1190709999937,None,None,None,250.18716719999793,None,,,,,,,,,,,,,,,,,,,,,11046,2,2,2024_Jun_07_1827,stroop_task_switching2_b,2021.2.3,59.96469278880057,
condition/block_mixed_b,instruction/instr_mixed,instruction/i10_b,红,yellow,f,diamond,color_mix,颜色,,incompatible,2,,,,,,,,0,2,2,2,0,0,0,0,0,6,6,6,,,,,,,,,,,,,,,,,,,,,,,,,,,,,,,,,,,251.1888212000049,251.3899381999945,251.37307020000299,251.6750977000047,251.6750977000047,None,252.19021529999736,None,f,1,0.8614958999969531,252.19021529999736,None,None,None,253.0749153999932,None,,,,,,,,,,,,,,,,,,,,,11046,2,2,2024_Jun_07_1827,stroop_task_switching2_b,2021.2.3,59.96469278880057,
condition/block_mixed_b,instruction/instr_mixed,instruction/i10_b,红,yellow,k,square,color_mix,单词,,incompatible,2,,,,,,,,0,2,2,2,0,0,0,0,0,7,7,7,,,,,,,,,,,,,,,,,,,,,,,,,,,,,,,,,,,254.07649160000437,254.27842800000508,254.2600730999984,254.560401499999,254.560401499999,None,255.06230970000615,None,k,1,0.821404900008929,255.06230970000615,None,None,None,255.91248389999964,None,,,,,,,,,,,,,,,,,,,,,11046,2,2,2024_Jun_07_1827,stroop_task_switching2_b,2021.2.3,59.96469278880057,
condition/block_mixed_b,instruction/instr_mixed,instruction/i10_b,绿,blue,d,square,color_mix,单词,,incompatible,1,,,,,,,,0,2,2,2,0,0,0,0,0,8,8,8,,,,,,,,,,,,,,,,,,,,,,,,,,,,,,,,,,,256.9140839000029,257.11571769999864,257.09763139999995,257.3988970000064,257.3988970000064,None,257.8989164999948,None,d,1,1.1129694999981439,257.8989164999948,None,None,None,259.03439260000596,None,,,,,,,,,,,,,,,,,,,,,11046,2,2,2024_Jun_07_1827,stroop_task_switching2_b,2021.2.3,59.96469278880057,
condition/block_mixed_b,instruction/instr_mixed,instruction/i10_b,蓝,green,d,diamond,color_mix,颜色,,incompatible,2,,,,,,,,0,2,2,2,0,0,0,0,0,9,9,9,,,,,,,,,,,,,,,,,,,,,,,,,,,,,,,,,,,260.0354176999972,260.23578469999484,260.2204061999946,260.52002450000145,260.52002450000145,None,261.0202985999931,None,d,1,1.8078967000037665,261.0202985999931,None,None,None,262.8562283999927,None,,,,,,,,,,,,,,,,,,,,,11046,2,2,2024_Jun_07_1827,stroop_task_switching2_b,2021.2.3,59.96469278880057,
condition/block_mixed_b,instruction/instr_mixed,instruction/i10_b,蓝,yellow,j,square,color_mix,单词,,incompatible,2,,,,,,,,0,2,2,2,0,0,0,0,0,10,10,10,,,,,,,,,,,,,,,,,,,,,,,,,,,,,,,,,,,263.8580404999957,264.0583259999985,264.04159910000453,264.3439117999951,264.3439117999951,None,264.84267060000275,None,j,1,1.8734767999994801,264.84267060000275,None,None,None,266.74563409999246,None,,,,,,,,,,,,,,,,,,,,,11046,2,2,2024_Jun_07_1827,stroop_task_switching2_b,2021.2.3,59.96469278880057,
condition/block_mixed_b,instruction/instr_mixed,instruction/i10_b,蓝,green,j,square,color_mix,单词,,incompatible,1,,,,,,,,0,2,2,2,0,0,0,0,0,11,11,11,,,,,,,,,,,,,,,,,,,,,,,,,,,,,,,,,,,267.7468472000037,267.94727249999414,267.9306513000047,268.23234430000593,268.23234430000593,None,268.7318544000009,None,j,1,0.8723222000116948,268.7318544000009,None,None,None,269.6332701999927,None,,,,,,,,,,,,,,,,,,,,,11046,2,2,2024_Jun_07_1827,stroop_task_switching2_b,2021.2.3,59.96469278880057,
condition/block_mixed_b,instruction/instr_mixed,instruction/i10_b,绿,yellow,d,square,color_mix,单词,,incompatible,1,,,,,,,,0,2,2,2,0,0,0,0,0,12,12,12,,,,,,,,,,,,,,,,,,,,,,,,,,,,,,,,,,,270.6356220000016,270.83606780000264,270.8184973000025,271.1189200999943,271.1189200999943,None,271.6195216000051,None,d,1,0.6645129999960773,271.6195216000051,None,None,None,272.3040488999977,None,,,,,,,,,,,,,,,,,,,,,11046,2,2,2024_Jun_07_1827,stroop_task_switching2_b,2021.2.3,59.96469278880057,
condition/block_mixed_b,instruction/instr_mixed,instruction/i10_b,绿,blue,j,diamond,color_mix,颜色,,incompatible,2,,,,,,,,0,2,2,2,0,0,0,0,0,13,13,13,,,,,,,,,,,,,,,,,,,,,,,,,,,,,,,,,,,273.3056607000035,273.50585010000214,273.48906979999447,273.79058950000035,273.79058950000035,None,274.2903415000037,None,j,1,1.3621363999991445,274.2903415000037,None,None,None,275.67580389999785,None,,,,,,,,,,,,,,,,,,,,,11046,2,2,2024_Jun_07_1827,stroop_task_switching2_b,2021.2.3,59.96469278880057,
condition/block_mixed_b,instruction/instr_mixed,instruction/i10_b,黄,red,f,square,color_mix,单词,,incompatible,2,,,,,,,,0,2,2,2,0,0,0,0,0,14,14,14,,,,,,,,,,,,,,,,,,,,,,,,,,,,,,,,,,,276.67730719999236,276.8784789000056,276.86275469999237,277.1624892999971,277.1624892999971,None,277.6630600000062,None,f,1,0.8691296000033617,277.6630600000062,None,None,None,278.5633722000057,None,,,,,,,,,,,,,,,,,,,,,11046,2,2,2024_Jun_07_1827,stroop_task_switching2_b,2021.2.3,59.96469278880057,
condition/block_mixed_b,instruction/instr_mixed,instruction/i10_b,蓝,yellow,f,diamond,color_mix,颜色,,incompatible,2,,,,,,,,0,2,2,2,0,0,0,0,0,15,15,15,,,,,,,,,,,,,,,,,,,,,,,,,,,,,,,,,,,279.5653216000064,279.76524880000215,279.74919610000507,280.0493950999953,280.0493950999953,None,280.5499282999954,None,f,1,2.071910200000275,280.5499282999954,None,None,None,282.6362750999979,None,,,,,,,,,,,,,,,,,,,,,11046,2,2,2024_Jun_07_1827,stroop_task_switching2_b,2021.2.3,59.96469278880057,
condition/block_mixed_b,instruction/instr_mixed,instruction/i10_b,黄,red,k,diamond,color_mix,颜色,,incompatible,1,,,,,,,,0,2,2,2,0,0,0,0,0,16,16,16,,,,,,,,,,,,,,,,,,,,,,,,,,,,,,,,,,,283.6376891999971,283.8386249000032,283.8214493999985,284.1229495000007,284.1229495000007,None,284.6224050000019,None,k,1,0.9583098000002792,284.6224050000019,None,None,None,285.60769509999955,None,,,,,,,,,,,,,,,,,,,,,11046,2,2,2024_Jun_07_1827,stroop_task_switching2_b,2021.2.3,59.96469278880057,
condition/block_mixed_b,instruction/instr_mixed,instruction/i10_b,绿,red,d,square,color_mix,单词,,incompatible,2,,,,,,,,0,2,2,2,0,0,0,0,0,17,17,17,,,,,,,,,,,,,,,,,,,,,,,,,,,,,,,,,,,286.60949499999697,286.8114562999981,286.79320610000286,287.09301660000347,287.09301660000347,None,287.5939603000006,None,d,1,1.9070241000008537,287.5939603000006,None,None,None,289.53070849999494,None,,,,,,,,,,,,,,,,,,,,,11046,2,2,2024_Jun_07_1827,stroop_task_switching2_b,2021.2.3,59.96469278880057,
condition/block_mixed_b,instruction/instr_mixed,instruction/i10_b,红,green,k,square,color_mix,单词,,incompatible,1,,,,,,,,0,2,2,2,0,0,0,0,0,18,18,18,,,,,,,,,,,,,,,,,,,,,,,,,,,,,,,,,,,290.5313790999935,290.7330077999941,290.71509080000396,291.0175442000036,291.0175442000036,None,291.53293790000316,None,k,1,0.9529834999993909,291.53293790000316,None,None,None,292.5010959000065,None,,,,,,,,,,,,,,,,,,,,,11046,2,2,2024_Jun_07_1827,stroop_task_switching2_b,2021.2.3,59.96469278880057,
condition/block_mixed_b,instruction/instr_mixed,instruction/i10_b,黄,blue,j,diamond,color_mix,颜色,,incompatible,2,,,,,,,,0,2,2,2,0,0,0,0,0,19,19,19,,,,,,,,,,,,,,,,,,,,,,,,,,,,,,,,,,,293.5035249999928,293.7208155999979,293.68585569999414,293.98844260000624,293.98844260000624,None,294.4875574000034,None,j,1,1.9093658000056166,294.4875574000034,None,None,None,296.4238883999933,None,,,,,,,,,,,,,,,,,,,,,11046,2,2,2024_Jun_07_1827,stroop_task_switching2_b,2021.2.3,59.96469278880057,
condition/block_mixed_b,instruction/instr_mixed,instruction/i10_b,黄,green,d,diamond,color_mix,颜色,,incompatible,1,,,,,,,,0,2,2,2,0,0,0,0,0,20,20,20,,,,,,,,,,,,,,,,,,,,,,,,,,,,,,,,,,,297.42601559999457,297.62613659999624,297.60889030000544,297.9107401999936,297.9107401999936,None,298.4111700000067,None,d,1,0.8897820999991382,298.4111700000067,None,None,None,299.3280975999951,None,,,,,,,,,,,,,,,,,,,,,11046,2,2,2024_Jun_07_1827,stroop_task_switching2_b,2021.2.3,59.96469278880057,
condition/block_mixed_b,instruction/instr_mixed,instruction/i10_b,黄,green,f,square,color_mix,单词,,incompatible,2,,,,,,,,0,2,2,2,0,0,0,0,0,21,21,21,,,,,,,,,,,,,,,,,,,,,,,,,,,,,,,,,,,300.3301236999978,300.5318263999943,300.5130366999947,300.81369159999304,300.81369159999304,None,301.3142491000035,None,f,1,2.482903299998725,301.3142491000035,None,None,None,303.81815279999864,None,,,,,,,,,,,,,,,,,,,,,11046,2,2,2024_Jun_07_1827,stroop_task_switching2_b,2021.2.3,59.96469278880057,
condition/block_mixed_b,instruction/instr_mixed,instruction/i10_b,黄,blue,f,square,color_mix,单词,,incompatible,1,,,,,,,,0,2,2,2,0,0,0,0,0,22,22,22,,,,,,,,,,,,,,,,,,,,,,,,,,,,,,,,,,,304.8195020999992,305.02011420000053,305.0033618000016,305.3045603000064,305.3045603000064,None,305.8045252000011,None,f,1,1.6968790999962948,305.8045252000011,None,None,None,307.5237875000021,None,,,,,,,,,,,,,,,,,,,,,11046,2,2,2024_Jun_07_1827,stroop_task_switching2_b,2021.2.3,59.96469278880057,
condition/block_mixed_b,instruction/instr_mixed,instruction/i10_b,蓝,red,j,square,color_mix,单词,,incompatible,1,,,,,,,,0,2,2,2,0,0,0,0,0,23,23,23,,,,,,,,,,,,,,,,,,,,,,,,,,,,,,,,,,,308.52583830000367,308.7260587000055,308.7090388999932,309.0090601999982,309.0090601999982,None,309.5101855999965,None,j,1,0.8709021999966353,309.5101855999965,None,None,None,310.4119417000038,None,,,,,,,,,,,,,,,,,,,,,11046,2,2,2024_Jun_07_1827,stroop_task_switching2_b,2021.2.3,59.96469278880057,
condition/block_mixed_b,instruction/instr_mixed,instruction/i10_b,绿,red,k,diamond,color_mix,颜色,,incompatible,2,,,,,,,,0,2,2,2,0,0,0,0,0,24,24,24,,,,,,,,,,,,,,,,,,,,,,,,,,,,,,,,,,,311.4138163000025,311.61406039999565,311.5970759000047,311.89715079999587,311.89715079999587,None,312.3982615999994,None,k,1,0.7835664999875007,312.3982615999994,None,None,None,313.1989847999939,None,,,,,,,,,,,,,,,,,,,,,11046,2,2,2024_Jun_07_1827,stroop_task_switching2_b,2021.2.3,59.96469278880057,
condition/block_mixed_b,instruction/instr_mixed,instruction/i10_b,绿,green,d,diamond,color_mix,颜色,,compatible,1,,,,,,,,0,2,2,2,0,0,0,0,0,25,25,25,,,,,,,,,,,,,,,,,,,,,,,,,,,,,,,,,,,314.20105990000593,314.40224140000646,314.3841512999934,314.6845014999999,314.6845014999999,None,315.1854048999958,None,d,1,1.5479658999975072,315.1854048999958,None,None,None,316.75427419999323,None,,,,,,,,,,,,,,,,,,,,,11046,2,2,2024_Jun_07_1827,stroop_task_switching2_b,2021.2.3,59.96469278880057,
condition/block_mixed_b,instruction/instr_mixed,instruction/i10_b,蓝,blue,j,diamond,color_mix,颜色,,compatible,1,,,,,,,,0,2,2,2,0,0,0,0,0,26,26,26,,,,,,,,,,,,,,,,,,,,,,,,,,,,,,,,,,,317.75650429999223,317.9562098000024,317.9417618000007,318.2584315999993,318.2411274000042,None,318.7405151999992,None,j,1,1.2651936000038404,318.7405151999992,None,None,None,320.02575519999664,None,,,,,,,,,,,,,,,,,,,,,11046,2,2,2024_Jun_07_1827,stroop_task_switching2_b,2021.2.3,59.96469278880057,
condition/block_mixed_b,instruction/instr_mixed,instruction/i10_b,绿,green,d,square,color_mix,单词,,compatible,2,,,,,,,,0,2,2,2,0,0,0,0,0,27,27,27,,,,,,,,,,,,,,,,,,,,,,,,,,,,,,,,,,,321.027402599997,321.22784910000337,321.21179739999934,321.5114493000001,321.5114493000001,None,322.0123913999996,None,d,1,0.9452916000009282,322.0123913999996,None,None,None,322.98022359999595,None,,,,,,,,,,,,,,,,,,,,,11046,2,2,2024_Jun_07_1827,stroop_task_switching2_b,2021.2.3,59.96469278880057,
condition/block_mixed_b,instruction/instr_mixed,instruction/i10_b,绿,green,d,square,color_mix,单词,,compatible,1,,,,,,,,0,2,2,2,0,0,0,0,0,28,28,28,,,,,,,,,,,,,,,,,,,,,,,,,,,,,,,,,,,323.9823719999986,324.1821512000024,324.16656490000605,324.4675123000052,324.4675123000052,None,324.9668829000002,None,d,1,0.8710630999994464,324.9668829000002,None,None,None,325.86820660000376,None,,,,,,,,,,,,,,,,,,,,,11046,2,2,2024_Jun_07_1827,stroop_task_switching2_b,2021.2.3,59.96469278880057,
condition/block_mixed_b,instruction/instr_mixed,instruction/i10_b,蓝,blue,j,square,color_mix,单词,,compatible,1,,,,,,,,0,2,2,2,0,0,0,0,0,29,29,29,,,,,,,,,,,,,,,,,,,,,,,,,,,,,,,,,,,326.8696712999954,327.0699244999996,327.0547951000044,327.37029079999775,327.3563410999923,None,327.87122070000623,None,j,1,1.0705098000034923,327.87122070000623,None,None,None,328.9560307000065,None,,,,,,,,,,,,,,,,,,,,,11046,2,2,2024_Jun_07_1827,stroop_task_switching2_b,2021.2.3,59.96469278880057,
condition/block_mixed_b,instruction/instr_mixed,instruction/i10_b,黄,yellow,f,diamond,color_mix,颜色,,compatible,2,,,,,,,,0,2,2,2,0,0,0,0,0,30,30,30,,,,,,,,,,,,,,,,,,,,,,,,,,,,,,,,,,,329.95759000000544,330.1586418999941,330.1420478999935,330.44179409999924,330.44179409999924,None,330.9423434000055,None,f,1,0.9598601999896346,330.9423434000055,None,None,None,331.9273572999955,None,,,,,,,,,,,,,,,,,,,,,11046,2,2,2024_Jun_07_1827,stroop_task_switching2_b,2021.2.3,59.96469278880057,
condition/block_mixed_b,instruction/instr_mixed,instruction/i10_b,绿,green,d,square,color_mix,单词,,compatible,2,,,,,,,,0,2,2,2,0,0,0,0,0,31,31,31,,,,,,,,,,,,,,,,,,,,,,,,,,,,,,,,,,,332.9287775999983,333.1297371999972,333.1131788000057,333.4127368000045,333.4127368000045,None,333.91402100000414,None,d,1,0.811895499995444,333.91402100000414,None,None,None,334.7483574999933,None,,,,,,,,,,,,,,,,,,,,,11046,2,2,2024_Jun_07_1827,stroop_task_switching2_b,2021.2.3,59.96469278880057,
condition/block_mixed_b,instruction/instr_mixed,instruction/i10_b,黄,yellow,f,square,color_mix,单词,,compatible,1,,,,,,,,0,2,2,2,0,0,0,0,0,32,32,32,,,,,,,,,,,,,,,,,,,,,,,,,,,,,,,,,,,335.7498164999997,335.9510459000012,335.93330449999485,336.2345249999926,336.2345249999926,None,336.7345745000057,None,f,1,0.8315619999921182,336.7345745000057,None,None,None,337.5869015000062,None,,,,,,,,,,,,,,,,,,,,,11046,2,2,2024_Jun_07_1827,stroop_task_switching2_b,2021.2.3,59.96469278880057,
condition/block_mixed_b,instruction/instr_mixed,instruction/i10_b,绿,green,d,diamond,color_mix,颜色,,compatible,2,,,,,,,,0,2,2,2,0,0,0,0,0,33,33,33,,,,,,,,,,,,,,,,,,,,,,,,,,,,,,,,,,,338.5882322999969,338.78759219999483,338.7719331999979,339.07253419999324,339.07253419999324,None,339.5725706999947,None,d,1,0.713461899998947,339.5725706999947,None,None,None,340.30685330000415,None,,,,,,,,,,,,,,,,,,,,,11046,2,2,2024_Jun_07_1827,stroop_task_switching2_b,2021.2.3,59.96469278880057,
condition/block_mixed_b,instruction/instr_mixed,instruction/i10_b,红,red,k,square,color_mix,单词,,compatible,2,,,,,,,,0,2,2,2,0,0,0,0,0,34,34,34,,,,,,,,,,,,,,,,,,,,,,,,,,,,,,,,,,,341.3080228000035,341.50842670000566,341.4923908000055,341.7928855999926,341.7928855999926,None,342.2951042000059,None,k,1,0.815365299989935,342.2951042000059,None,None,None,343.1274153999984,None,,,,,,,,,,,,,,,,,,,,,11046,2,2,2024_Jun_07_1827,stroop_task_switching2_b,2021.2.3,59.96469278880057,
condition/block_mixed_b,instruction/instr_mixed,instruction/i10_b,黄,yellow,f,square,color_mix,单词,,compatible,1,,,,,,,,0,2,2,2,0,0,0,0,0,35,35,35,,,,,,,,,,,,,,,,,,,,,,,,,,,,,,,,,,,344.1289429000026,344.3311587999924,344.31379970000125,344.61469289999513,344.61469289999513,None,345.11396400000376,None,f,1,0.772140799992485,345.11396400000376,None,None,None,345.9149561999948,None,,,,,,,,,,,,,,,,,,,,,11046,2,2,2024_Jun_07_1827,stroop_task_switching2_b,2021.2.3,59.96469278880057,
condition/block_mixed_b,instruction/instr_mixed,instruction/i10_b,绿,green,d,diamond,color_mix,颜色,,compatible,2,,,,,,,,0,2,2,2,0,0,0,0,0,36,36,36,,,,,,,,,,,,,,,,,,,,,,,,,,,,,,,,,,,346.9165359000035,347.1173320999951,347.10042370000156,347.4020943999931,347.4020943999931,None,347.9023978000041,None,d,1,0.655937499992433,347.9023978000041,None,None,None,348.58572200000344,None,,,,,,,,,,,,,,,,,,,,,11046,2,2,2024_Jun_07_1827,stroop_task_switching2_b,2021.2.3,59.96469278880057,
condition/block_mixed_b,instruction/instr_mixed,instruction/i10_b,蓝,blue,j,square,color_mix,单词,,compatible,2,,,,,,,,0,2,2,2,0,0,0,0,0,37,37,37,,,,,,,,,,,,,,,,,,,,,,,,,,,,,,,,,,,349.58722669999406,349.787491199997,349.7718375999975,350.0713868000021,350.0713868000021,None,350.57190169999376,None,j,1,0.8346771000069566,350.57190169999376,None,None,None,351.4232537999924,None,,,,,,,,,,,,,,,,,,,,,11046,2,2,2024_Jun_07_1827,stroop_task_switching2_b,2021.2.3,59.96469278880057,
condition/block_mixed_b,instruction/instr_mixed,instruction/i10_b,红,red,k,square,color_mix,单词,,compatible,1,,,,,,,,0,2,2,2,0,0,0,0,0,38,38,38,,,,,,,,,,,,,,,,,,,,,,,,,,,,,,,,,,,352.4249060000002,352.62528710000333,352.60854289999406,352.91050159999577,352.91050159999577,None,353.4095549000049,None,k,1,0.7649937999958638,353.4095549000049,None,None,None,354.194219099998,None,,,,,,,,,,,,,,,,,,,,,11046,2,2,2024_Jun_07_1827,stroop_task_switching2_b,2021.2.3,59.96469278880057,
condition/block_mixed_b,instruction/instr_mixed,instruction/i10_b,黄,yellow,f,diamond,color_mix,颜色,,compatible,2,,,,,,,,0,2,2,2,0,0,0,0,0,39,39,39,,,,,,,,,,,,,,,,,,,,,,,,,,,,,,,,,,,355.1964086999942,355.3960944999999,355.38021200000367,355.67999869999767,355.67999869999767,None,356.18047469999874,None,f,1,1.3864343000022927,356.18047469999874,None,None,None,357.5827053999965,None,,,,,,,,,,,,,,,,,,,,,11046,2,2,2024_Jun_07_1827,stroop_task_switching2_b,2021.2.3,59.96469278880057,
condition/block_mixed_b,instruction/instr_mixed,instruction/i10_b,黄,yellow,f,square,color_mix,单词,,compatible,2,,,,,,,,0,2,2,2,0,0,0,0,0,40,40,40,,,,,,,,,,,,,,,,,,,,,,,,,,,,,,,,,,,358.58414019999327,358.78555210000195,358.76783050000085,359.06873050000286,359.06873050000286,None,359.56942549999803,None,f,1,0.6770724999951199,359.56942549999803,None,None,None,360.2698800999933,None,,,,,,,,,,,,,,,,,,,,,11046,2,2,2024_Jun_07_1827,stroop_task_switching2_b,2021.2.3,59.96469278880057,
condition/block_mixed_b,instruction/instr_mixed,instruction/i10_b,蓝,blue,j,square,color_mix,单词,,compatible,1,,,,,,,,0,2,2,2,0,0,0,0,0,41,41,41,,,,,,,,,,,,,,,,,,,,,,,,,,,,,,,,,,,361.2725308999943,361.47177780000493,361.45720049999363,361.7560150000063,361.7560150000063,None,362.25702229999297,None,j,1,0.8695324000000255,362.25702229999297,None,None,None,363.157581499996,None,,,,,,,,,,,,,,,,,,,,,11046,2,2,2024_Jun_07_1827,stroop_task_switching2_b,2021.2.3,59.96469278880057,
condition/block_mixed_b,instruction/instr_mixed,instruction/i10_b,蓝,blue,j,diamond,color_mix,颜色,,compatible,2,,,,,,,,0,2,2,2,0,0,0,0,0,42,42,42,,,,,,,,,,,,,,,,,,,,,,,,,,,,,,,,,,,364.1592001999961,364.3598786999937,364.3427179999999,364.6451126000029,364.6451126000029,None,365.143885700003,None,j,1,0.6633786000020336,365.143885700003,None,None,None,365.82853060000343,None,,,,,,,,,,,,,,,,,,,,,11046,2,2,2024_Jun_07_1827,stroop_task_switching2_b,2021.2.3,59.96469278880057,
condition/block_mixed_b,instruction/instr_mixed,instruction/i10_b,黄,yellow,f,diamond,color_mix,颜色,,compatible,1,,,,,,,,0,2,2,2,0,0,0,0,0,43,43,43,,,,,,,,,,,,,,,,,,,,,,,,,,,,,,,,,,,366.8298300000024,367.0311920999957,367.0144438999996,367.31481399999757,367.31481399999757,None,367.81472029999713,None,f,1,0.7522595999907935,367.81472029999713,None,None,None,368.58262309999554,None,,,,,,,,,,,,,,,,,,,,,11046,2,2,2024_Jun_07_1827,stroop_task_switching2_b,2021.2.3,59.96469278880057,
condition/block_mixed_b,instruction/instr_mixed,instruction/i10_b,红,red,k,diamond,color_mix,颜色,,compatible,1,,,,,,,,0,2,2,2,0,0,0,0,0,44,44,44,,,,,,,,,,,,,,,,,,,,,,,,,,,,,,,,,,,369.5840795999975,369.7844841000042,369.76840309999534,370.06827879999764,370.06827879999764,None,370.56888370000524,None,k,1,0.5980795999930706,370.56888370000524,None,None,None,371.18648449999455,None,,,,,,,,,,,,,,,,,,,,,11046,2,2,2024_Jun_07_1827,stroop_task_switching2_b,2021.2.3,59.96469278880057,
condition/block_mixed_b,instruction/instr_mixed,instruction/i10_b,蓝,blue,j,diamond,color_mix,颜色,,compatible,1,,,,,,,,0,2,2,2,0,0,0,0,0,45,45,45,,,,,,,,,,,,,,,,,,,,,,,,,,,,,,,,,,,372.1879037000035,372.3886055000039,372.3724962999986,372.67324129999906,372.67324129999906,None,373.1727546000038,None,j,1,0.9861854999908246,373.1727546000038,None,None,None,374.17434830000275,None,,,,,,,,,,,,,,,,,,,,,11046,2,2,2024_Jun_07_1827,stroop_task_switching2_b,2021.2.3,59.96469278880057,
condition/block_mixed_b,instruction/instr_mixed,instruction/i10_b,红,red,k,diamond,color_mix,颜色,,compatible,1,,,,,,,,0,2,2,2,0,0,0,0,0,46,46,46,,,,,,,,,,,,,,,,,,,,,,,,,,,,,,,,,,,375.17576250000275,375.3769603999972,375.3595140999969,375.66109520000464,375.66109520000464,None,376.160692999998,None,k,1,0.7348821999912616,376.160692999998,None,None,None,376.9117850000039,None,,,,,,,,,,,,,,,,,,,,,11046,2,2,2024_Jun_07_1827,stroop_task_switching2_b,2021.2.3,59.96469278880057,
condition/block_mixed_b,instruction/instr_mixed,instruction/i10_b,红,red,k,square,color_mix,单词,,compatible,2,,,,,,,,0,2,2,2,0,0,0,0,0,47,47,47,,,,,,,,,,,,,,,,,,,,,,,,,,,,,,,,,,,377.9133481000026,378.1140640999947,378.09713520000514,378.3981422999932,378.3981422999932,None,378.90154439999606,None,k,1,0.5216692000103649,378.90154439999606,None,None,None,379.44899600000645,None,,,,,,,,,,,,,,,,,,,,,11046,2,2,2024_Jun_07_1827,stroop_task_switching2_b,2021.2.3,59.96469278880057,
condition/block_mixed_b,instruction/instr_mixed,instruction/i10_b,红,red,k,diamond,color_mix,颜色,,compatible,2,,,,,,,,0,2,2,2,0,0,0,0,0,48,48,48,,,,,,,,,,,,,,,,,,,,,,,,,,,,,,,,,,,380.45034080000187,380.65067329999874,380.63535359999514,380.934597200001,380.934597200001,None,381.4352300000028,None,k,1,0.460017199991853,381.4352300000028,None,None,None,381.9193727999955,None,,,,,,,,,,,,,,,,,,,,,11046,2,2,2024_Jun_07_1827,stroop_task_switching2_b,2021.2.3,59.96469278880057,
condition/block_mixed_b,instruction/instr_mixed,instruction/i10_b,,,,,,,,,,,,,,,,,0,2,2,2,0,0,0,0,,,,,,,,,,,,,,,,,,,,,,,,,,,,,,,,,,,,,,,,,,,,,,,,,,,,,,,,382.92085660000157,None,space,4.014605699994718,382.92085660000157,None,,,,,,,,,,,,,,,11046,2,2,2024_Jun_07_1827,stroop_task_switching2_b,2021.2.3,59.96469278880057,
condition/block_mixed_b,instruction/instr_mixed,instruction/i10_b,,,,,,,,,,,,,,,,,0,2,2,2,,,,,,,,,,,,,,,,,,,,,,,,,,,,,,,,,,,,,,,,,,,,,,,,,,,,,,,,,,,,,,,,,,,,,,,,,,,,,,,,11046,2,2,2024_Jun_07_1827,stroop_task_switching2_b,2021.2.3,59.96469278880057,
,,,红,red,k,square,color_mix,单词,,compatible,0,block_switch1_b,instruction/ready_test.png,instruction/i11.png,,,,,,,,,,,,,,,,,0,0,0,0,0,0,0,0,,,,,,,,,,,,,,,,,,,398.4285153999954,399.4293769999931,399.4293769999931,400.4318498000066,400.4318498000066,None,397.4427624999953,398.4444558999967,401.44837410000036,401.64966199999617,401.64966199999617,401.95166219999373,401.95166219999373,None,402.45188860000053,None,k,1,0.8037214999931166,402.45188860000053,None,None,None,,,,,,,,,386.99359769999865,None,space,10.430100800003856,386.99359769999865,None,,,,,,,,,11046,2,2,2024_Jun_07_1827,stroop_task_switching2_b,2021.2.3,59.96469278880057,
,,,绿,green,d,diamond,color_mix,颜色,,compatible,2,block_switch1_b,instruction/ready_test.png,instruction/i11.png,,,,,,,,,,,,,,,,,0,0,0,0,0,1,1,1,,,,,,,,,,,,,,,,,,,,,,,,,,,403.2848825999972,403.48536479999893,403.46956769999815,403.77117360000557,403.77117360000557,None,404.26981860000524,None,d,1,1.1940718999976525,404.26981860000524,None,None,None,,,,,,,,,,,,,,,,,,,,,,,11046,2,2,2024_Jun_07_1827,stroop_task_switching2_b,2021.2.3,59.96469278880057,
,,,绿,yellow,f,diamond,color_mix,颜色,,incompatible,1,block_switch1_b,instruction/ready_test.png,instruction/i11.png,,,,,,,,,,,,,,,,,0,0,0,0,0,2,2,2,,,,,,,,,,,,,,,,,,,,,,,,,,,405.48801830000593,405.689796000006,405.671848900005,405.97287480000523,405.97287480000523,None,406.4741479999939,None,f,1,2.4464131999993697,406.4741479999939,None,None,None,,,,,,,,,,,,,,,,,,,,,,,11046,2,2,2024_Jun_07_1827,stroop_task_switching2_b,2021.2.3,59.96469278880057,
,,,蓝,blue,j,diamond,color_mix,颜色,,compatible,1,block_switch1_b,instruction/ready_test.png,instruction/i11.png,,,,,,,,,,,,,,,,,0,0,0,0,0,3,3,3,,,,,,,,,,,,,,,,,,,,,,,,,,,408.9439710000006,409.14582950000477,409.1276125000004,409.4275396000012,409.4275396000012,None,409.9280338999961,None,j,1,1.5600604999926873,409.9280338999961,None,None,None,,,,,,,,,,,,,,,,,,,,,,,11046,2,2,2024_Jun_07_1827,stroop_task_switching2_b,2021.2.3,59.96469278880057,
,,,绿,green,d,square,color_mix,单词,,compatible,2,block_switch1_b,instruction/ready_test.png,instruction/i11.png,,,,,,,,,,,,,,,,,0,0,0,0,0,4,4,4,,,,,,,,,,,,,,,,,,,,,,,,,,,411.5139335999993,411.714324200002,411.69829539999773,411.99978060000285,411.99978060000285,None,412.49872449999384,None,d,1,1.1732817000010982,412.49872449999384,None,None,None,,,,,,,,,,,,,,,,,,,,,,,11046,2,2,2024_Jun_07_1827,stroop_task_switching2_b,2021.2.3,59.96469278880057,
,,,绿,blue,j,diamond,color_mix,颜色,,incompatible,2,block_switch1_b,instruction/ready_test.png,instruction/i11.png,,,,,,,,,,,,,,,,,0,0,0,0,0,5,5,5,,,,,,,,,,,,,,,,,,,,,,,,,,,413.7006706999964,413.9008804000041,413.88623659999575,414.2025220999931,414.18459760000405,None,414.68525569999474,None,j,1,1.2027903999987757,414.68525569999474,None,None,None,,,,,,,,,,,,,,,,,,,,,,,11046,2,2,2024_Jun_07_1827,stroop_task_switching2_b,2021.2.3,59.96469278880057,
,,,黄,red,f,square,color_mix,单词,,incompatible,2,block_switch1_b,instruction/ready_test.png,instruction/i11.png,,,,,,,,,,,,,,,,,0,0,0,0,0,6,6,6,,,,,,,,,,,,,,,,,,,,,,,,,,,415.90450079999573,416.1042038000014,416.08809889999975,416.3892477000045,416.3892477000045,None,416.8889063999959,None,f,1,1.1433470000047237,416.8889063999959,None,None,None,,,,,,,,,,,,,,,,,,,,,,,11046,2,2,2024_Jun_07_1827,stroop_task_switching2_b,2021.2.3,59.96469278880057,
,,,绿,green,d,square,color_mix,单词,,compatible,1,block_switch1_b,instruction/ready_test.png,instruction/i11.png,,,,,,,,,,,,,,,,,0,0,0,0,0,7,7,7,,,,,,,,,,,,,,,,,,,,,,,,,,,418.05742949999694,418.2582088000054,418.24066520000633,418.5410445000016,418.5410445000016,None,419.0419816000067,None,d,1,1.4701522999966983,419.0419816000067,None,None,None,,,,,,,,,,,,,,,,,,,,,,,11046,2,2,2024_Jun_07_1827,stroop_task_switching2_b,2021.2.3,59.96469278880057,
,,,蓝,blue,j,square,color_mix,单词,,compatible,1,block_switch1_b,instruction/ready_test.png,instruction/i11.png,,,,,,,,,,,,,,,,,0,0,0,0,0,8,8,8,,,,,,,,,,,,,,,,,,,,,,,,,,,420.52734309999505,420.7288075999968,420.71156500000507,421.01400609999837,421.01400609999837,None,421.5134518999985,None,j,1,1.7190039999986766,421.5134518999985,None,None,None,,,,,,,,,,,,,,,,,,,,,,,11046,2,2,2024_Jun_07_1827,stroop_task_switching2_b,2021.2.3,59.96469278880057,
,,,红,red,k,diamond,color_mix,颜色,,compatible,2,block_switch1_b,instruction/ready_test.png,instruction/i11.png,,,,,,,,,,,,,,,,,0,0,0,0,0,9,9,9,,,,,,,,,,,,,,,,,,,,,,,,,,,423.24854790000245,423.4488130999962,423.43245279999974,423.73344329999236,423.73344329999236,None,424.2331545000052,None,k,1,1.0792461000091862,424.2331545000052,None,None,None,,,,,,,,,,,,,,,,,,,,,,,11046,2,2,2024_Jun_07_1827,stroop_task_switching2_b,2021.2.3,59.96469278880057,
,,,黄,yellow,f,diamond,color_mix,颜色,,compatible,1,block_switch1_b,instruction/ready_test.png,instruction/i11.png,,,,,,,,,,,,,,,,,0,0,0,0,0,10,10,10,,,,,,,,,,,,,,,,,,,,,,,,,,,425.3346751000063,425.53582160000224,425.5184164999955,425.81969980000576,425.81969980000576,None,426.3196101999929,None,j,0,1.168935199995758,426.3196101999929,None,None,None,,,,,,,,,,,,,,,,,,,,,,,11046,2,2,2024_Jun_07_1827,stroop_task_switching2_b,2021.2.3,59.96469278880057,
,,,绿,green,d,square,color_mix,单词,,compatible,2,block_switch1_b,instruction/ready_test.png,instruction/i11.png,,,,,,,,,,,,,,,,,0,0,0,0,0,11,11,11,,,,,,,,,,,,,,,,,,,,,,,,,,,427.5046299999958,427.70485920000647,427.68959310000355,427.9904278000031,427.9904278000031,None,428.4895025000005,None,d,1,2.8229889999929583,428.4895025000005,None,None,None,,,,,,,,,,,,,,,,,,,,,,,11046,2,2,2024_Jun_07_1827,stroop_task_switching2_b,2021.2.3,59.96469278880057,
,,,红,red,k,diamond,color_mix,颜色,,compatible,2,block_switch1_b,instruction/ready_test.png,instruction/i11.png,,,,,,,,,,,,,,,,,0,0,0,0,0,12,12,12,,,,,,,,,,,,,,,,,,,,,,,,,,,431.3271986000036,431.5274214999954,431.51110360000166,431.81243740000355,431.81243740000355,None,432.3119561000058,None,k,1,1.2645499000063865,432.3119561000058,None,None,None,,,,,,,,,,,,,,,,,,,,,,,11046,2,2,2024_Jun_07_1827,stroop_task_switching2_b,2021.2.3,59.96469278880057,
,,,红,red,k,diamond,color_mix,颜色,,compatible,1,block_switch1_b,instruction/ready_test.png,instruction/i11.png,,,,,,,,,,,,,,,,,0,0,0,0,0,13,13,13,,,,,,,,,,,,,,,,,,,,,,,,,,,433.59710189999896,433.79872140000225,433.78080249999766,434.0814518999978,434.0814518999978,None,434.58172780000314,None,k,1,1.8511348999891197,434.58172780000314,None,None,None,,,,,,,,,,,,,,,,,,,,,,,11046,2,2,2024_Jun_07_1827,stroop_task_switching2_b,2021.2.3,59.96469278880057,
,,,黄,yellow,f,square,color_mix,单词,,compatible,2,block_switch1_b,instruction/ready_test.png,instruction/i11.png,,,,,,,,,,,,,,,,,0,0,0,0,0,14,14,14,,,,,,,,,,,,,,,,,,,,,,,,,,,436.4515478999965,436.6541522000043,436.6357019999996,436.9356189999962,436.9356189999962,None,437.43627659999765,None,f,1,1.52510749999783,437.43627659999765,None,None,None,,,,,,,,,,,,,,,,,,,,,,,11046,2,2,2024_Jun_07_1827,stroop_task_switching2_b,2021.2.3,59.96469278880057,
,,,红,green,d,diamond,color_mix,颜色,,incompatible,2,block_switch1_b,instruction/ready_test.png,instruction/i11.png,,,,,,,,,,,,,,,,,0,0,0,0,0,15,15,15,,,,,,,,,,,,,,,,,,,,,,,,,,,438.9885651999939,439.1896948999929,439.1723769999953,439.47261840000283,439.47261840000283,None,439.9733489999926,None,d,1,1.7153161999885924,439.9733489999926,None,None,None,,,,,,,,,,,,,,,,,,,,,,,11046,2,2,2024_Jun_07_1827,stroop_task_switching2_b,2021.2.3,59.96469278880057,
,,,蓝,red,k,diamond,color_mix,颜色,,incompatible,1,block_switch1_b,instruction/ready_test.png,instruction/i11.png,,,,,,,,,,,,,,,,,0,0,0,0,0,16,16,16,,,,,,,,,,,,,,,,,,,,,,,,,,,441.7093857,441.9097477000032,441.89346300000034,442.1934794999979,442.1934794999979,None,442.6955001000024,445.6996419999923,None,0,,442.6955001000024,445.6996419999923,445.66541469999356,None,,,,,,,,,,,,,,,,,,,,,,,11046,2,2,2024_Jun_07_1827,stroop_task_switching2_b,2021.2.3,59.96469278880057,
,,,黄,green,d,diamond,color_mix,颜色,,incompatible,1,block_switch1_b,instruction/ready_test.png,instruction/i11.png,,,,,,,,,,,,,,,,,0,0,0,0,0,17,17,17,,,,,,,,,,,,,,,,,,,,,,,,,,,446.2511288999958,446.4503174999991,446.4348092,446.73478420000174,446.73478420000174,None,447.23531170000206,None,d,1,2.0218384999898262,447.23531170000206,None,None,None,,,,,,,,,,,,,,,,,,,,,,,11046,2,2,2024_Jun_07_1827,stroop_task_switching2_b,2021.2.3,59.96469278880057,
,,,绿,green,d,diamond,color_mix,颜色,,compatible,1,block_switch1_b,instruction/ready_test.png,instruction/i11.png,,,,,,,,,,,,,,,,,0,0,0,0,0,18,18,18,,,,,,,,,,,,,,,,,,,,,,,,,,,449.28746249999676,449.48860939999577,449.47124389999954,449.77160860000004,449.77160860000004,None,450.2723917999974,None,d,1,0.7288305000110995,450.2723917999974,None,None,None,,,,,,,,,,,,,,,,,,,,,,,11046,2,2,2024_Jun_07_1827,stroop_task_switching2_b,2021.2.3,59.96469278880057,
,,,黄,red,k,diamond,color_mix,颜色,,incompatible,1,block_switch1_b,instruction/ready_test.png,instruction/i11.png,,,,,,,,,,,,,,,,,0,0,0,0,0,19,19,19,,,,,,,,,,,,,,,,,,,,,,,,,,,451.02375089999987,451.2243266000005,451.2070753000007,451.50761780000175,451.50761780000175,None,452.0090496000048,None,k,1,1.0239751000044635,452.0090496000048,None,None,None,,,,,,,,,,,,,,,,,,,,,,,11046,2,2,2024_Jun_07_1827,stroop_task_switching2_b,2021.2.3,59.96469278880057,
,,,绿,yellow,d,square,color_mix,单词,,incompatible,2,block_switch1_b,instruction/ready_test.png,instruction/i11.png,,,,,,,,,,,,,,,,,0,0,0,0,0,20,20,20,,,,,,,,,,,,,,,,,,,,,,,,,,,453.0598197999934,453.2601735999924,453.2449762000033,453.5446879999945,453.5446879999945,None,454.04474630000186,None,d,1,0.7884992000035709,454.04474630000186,None,None,None,,,,,,,,,,,,,,,,,,,,,,,11046,2,2,2024_Jun_07_1827,stroop_task_switching2_b,2021.2.3,59.96469278880057,
,,,绿,yellow,f,diamond,color_mix,颜色,,incompatible,2,block_switch1_b,instruction/ready_test.png,instruction/i11.png,,,,,,,,,,,,,,,,,0,0,0,0,0,21,21,21,,,,,,,,,,,,,,,,,,,,,,,,,,,454.8625890999974,455.06329760000517,455.04612199999974,455.34823089999554,455.34823089999554,None,455.8473718000023,None,f,1,1.4739987999928417,455.8473718000023,None,None,None,,,,,,,,,,,,,,,,,,,,,,,11046,2,2,2024_Jun_07_1827,stroop_task_switching2_b,2021.2.3,59.96469278880057,
,,,绿,green,d,square,color_mix,单词,,compatible,2,block_switch1_b,instruction/ready_test.png,instruction/i11.png,,,,,,,,,,,,,,,,,0,0,0,0,0,22,22,22,,,,,,,,,,,,,,,,,,,,,,,,,,,457.3496986999962,457.5516235999967,457.53341059999366,457.83432559999346,457.83432559999346,None,458.33450769999763,None,d,1,0.7633230999927036,458.33450769999763,None,None,None,,,,,,,,,,,,,,,,,,,,,,,11046,2,2,2024_Jun_07_1827,stroop_task_switching2_b,2021.2.3,59.96469278880057,
,,,红,red,k,square,color_mix,单词,,compatible,1,block_switch1_b,instruction/ready_test.png,instruction/i11.png,,,,,,,,,,,,,,,,,0,0,0,0,0,23,23,23,,,,,,,,,,,,,,,,,,,,,,,,,,,459.11912580000353,459.3206480999943,459.3024404000025,459.6040670999937,459.6040670999937,None,460.1038919999992,None,k,1,0.7214294000004884,460.1038919999992,None,None,None,,,,,,,,,,,,,,,,,,,,,,,11046,2,2,2024_Jun_07_1827,stroop_task_switching2_b,2021.2.3,59.96469278880057,
,,,黄,green,f,square,color_mix,单词,,incompatible,1,block_switch1_b,instruction/ready_test.png,instruction/i11.png,,,,,,,,,,,,,,,,,0,0,0,0,0,24,24,24,,,,,,,,,,,,,,,,,,,,,,,,,,,460.85502430000633,461.05598190000455,461.03971349999483,461.33964469999773,461.33964469999773,None,461.8400219000032,None,f,1,1.2413044999993872,461.8400219000032,None,None,None,,,,,,,,,,,,,,,,,,,,,,,11046,2,2,2024_Jun_07_1827,stroop_task_switching2_b,2021.2.3,59.96469278880057,
,,,红,blue,k,square,color_mix,单词,,incompatible,1,block_switch1_b,instruction/ready_test.png,instruction/i11.png,,,,,,,,,,,,,,,,,0,0,0,0,0,25,25,25,,,,,,,,,,,,,,,,,,,,,,,,,,,463.10827419999987,463.3091082000028,463.29291259999445,463.593212199994,463.593212199994,None,464.0931588999956,None,j,0,2.0603128999937326,464.0931588999956,None,None,None,,,,,,,,,,,,,,,,,,,,,,,11046,2,2,2024_Jun_07_1827,stroop_task_switching2_b,2021.2.3,59.96469278880057,
,,,黄,yellow,f,square,color_mix,单词,,compatible,1,block_switch1_b,instruction/ready_test.png,instruction/i11.png,,,,,,,,,,,,,,,,,0,0,0,0,0,26,26,26,,,,,,,,,,,,,,,,,,,,,,,,,,,466.1798029000056,466.379992999995,466.3634213000041,466.6638010000024,466.6638010000024,None,467.164431600002,None,f,1,1.8771221000060905,467.164431600002,None,None,None,,,,,,,,,,,,,,,,,,,,,,,11046,2,2,2024_Jun_07_1827,stroop_task_switching2_b,2021.2.3,59.96469278880057,
,,,蓝,green,j,square,color_mix,单词,,incompatible,1,block_switch1_b,instruction/ready_test.png,instruction/i11.png,,,,,,,,,,,,,,,,,0,0,0,0,0,27,27,27,,,,,,,,,,,,,,,,,,,,,,,,,,,469.06744790000084,469.2676711999957,469.2510307000048,469.552193800002,469.552193800002,None,470.05213430000003,None,d,0,1.5179668000055244,470.05213430000003,None,None,None,,,,,,,,,,,,,,,,,,,,,,,11046,2,2,2024_Jun_07_1827,stroop_task_switching2_b,2021.2.3,59.96469278880057,
,,,绿,green,d,diamond,color_mix,颜色,,compatible,2,block_switch1_b,instruction/ready_test.png,instruction/i11.png,,,,,,,,,,,,,,,,,0,0,0,0,0,28,28,28,,,,,,,,,,,,,,,,,,,,,,,,,,,471.58810140000423,471.78968509999686,471.7714116999996,472.07233239999914,472.07233239999914,None,472.57351149999886,None,d,1,2.836399399995571,472.57351149999886,None,None,None,,,,,,,,,,,,,,,,,,,,,,,11046,2,2,2024_Jun_07_1827,stroop_task_switching2_b,2021.2.3,59.96469278880057,
,,,黄,blue,j,diamond,color_mix,颜色,,incompatible,1,block_switch1_b,instruction/ready_test.png,instruction/i11.png,,,,,,,,,,,,,,,,,0,0,0,0,0,29,29,29,,,,,,,,,,,,,,,,,,,,,,,,,,,475.42683090000355,475.6282929000008,475.6105547000043,475.9112441000034,475.9112441000034,None,476.41177209999296,None,j,1,2.9664495999895735,476.41177209999296,None,479.3997665299947,None,,,,,,,,,,,,,,,,,,,,,,,11046,2,2,2024_Jun_07_1827,stroop_task_switching2_b,2021.2.3,59.96469278880057,
,,,绿,green,d,diamond,color_mix,颜色,,compatible,1,block_switch1_b,instruction/ready_test.png,instruction/i11.png,,,,,,,,,,,,,,,,,0,0,0,0,0,30,30,30,,,,,,,,,,,,,,,,,,,,,,,,,,,479.39954189999844,479.59989199999836,479.58437729999423,479.8850611999951,479.8850611999951,None,480.38423630000034,None,d,1,1.7457009999925504,480.38423630000034,None,None,None,,,,,,,,,,,,,,,,,,,,,,,11046,2,2,2024_Jun_07_1827,stroop_task_switching2_b,2021.2.3,59.96469278880057,
,,,蓝,blue,j,square,color_mix,单词,,compatible,2,block_switch1_b,instruction/ready_test.png,instruction/i11.png,,,,,,,,,,,,,,,,,0,0,0,0,0,31,31,31,,,,,,,,,,,,,,,,,,,,,,,,,,,482.1543621000019,482.35468439999386,482.3380826000066,482.6377555999934,482.6377555999934,None,483.1386719000002,None,j,1,2.4875686000013957,483.1386719000002,None,None,None,,,,,,,,,,,,,,,,,,,,,,,11046,2,2,2024_Jun_07_1827,stroop_task_switching2_b,2021.2.3,59.96469278880057,
,,,红,red,k,square,color_mix,单词,,compatible,1,block_switch1_b,instruction/ready_test.png,instruction/i11.png,,,,,,,,,,,,,,,,,0,0,0,0,0,32,32,32,,,,,,,,,,,,,,,,,,,,,,,,,,,485.64215539999714,485.84389449999435,485.8259304999956,486.1264814000024,486.1264814000024,None,486.62851870000304,None,k,1,2.421823399999994,486.62851870000304,None,None,None,,,,,,,,,,,,,,,,,,,,,,,11046,2,2,2024_Jun_07_1827,stroop_task_switching2_b,2021.2.3,59.96469278880057,
,,,红,green,k,square,color_mix,单词,,incompatible,1,block_switch1_b,instruction/ready_test.png,instruction/i11.png,,,,,,,,,,,,,,,,,0,0,0,0,0,33,33,33,,,,,,,,,,,,,,,,,,,,,,,,,,,489.08089250000194,489.28217989999393,489.2650025000039,489.56518730000244,489.56518730000244,None,490.0656549999985,None,k,1,2.2167705000028946,490.0656549999985,None,None,None,,,,,,,,,,,,,,,,,,,,,,,11046,2,2,2024_Jun_07_1827,stroop_task_switching2_b,2021.2.3,59.96469278880057,
,,,黄,yellow,f,diamond,color_mix,颜色,,compatible,2,block_switch1_b,instruction/ready_test.png,instruction/i11.png,,,,,,,,,,,,,,,,,0,0,0,0,0,34,34,34,,,,,,,,,,,,,,,,,,,,,,,,,,,492.3022536000062,492.50353119999636,492.4860991000023,492.7872631999926,492.7872631999926,None,493.28821480000624,None,f,1,1.178061799990246,493.28821480000624,None,None,None,,,,,,,,,,,,,,,,,,,,,,,11046,2,2,2024_Jun_07_1827,stroop_task_switching2_b,2021.2.3,59.96469278880057,
,,,红,green,d,diamond,color_mix,颜色,,incompatible,1,block_switch1_b,instruction/ready_test.png,instruction/i11.png,,,,,,,,,,,,,,,,,0,0,0,0,0,35,35,35,,,,,,,,,,,,,,,,,,,,,,,,,,,494.4890557000035,494.6892235999985,494.6726789999957,494.97319750000315,494.97319750000315,None,495.4739277000044,None,d,1,2.0166442999907304,495.4739277000044,None,None,None,,,,,,,,,,,,,,,,,,,,,,,11046,2,2,2024_Jun_07_1827,stroop_task_switching2_b,2021.2.3,59.96469278880057,
,,,黄,yellow,f,square,color_mix,单词,,compatible,2,block_switch1_b,instruction/ready_test.png,instruction/i11.png,,,,,,,,,,,,,,,,,0,0,0,0,0,36,36,36,,,,,,,,,,,,,,,,,,,,,,,,,,,497.51060629999847,497.7111925000063,497.69517029999406,497.99567540000135,497.99567540000135,None,498.4949815,None,f,1,1.5397698000015225,498.4949815,None,None,None,,,,,,,,,,,,,,,,,,,,,,,11046,2,2,2024_Jun_07_1827,stroop_task_switching2_b,2021.2.3,59.96469278880057,
,,,蓝,blue,j,square,color_mix,单词,,compatible,1,block_switch1_b,instruction/ready_test.png,instruction/i11.png,,,,,,,,,,,,,,,,,0,0,0,0,0,37,37,37,,,,,,,,,,,,,,,,,,,,,,,,,,,500.064031300004,500.26453119999496,500.2488551999995,500.54805260000285,500.54805260000285,None,501.04883909999626,None,j,1,1.657743699994171,501.04883909999626,None,None,None,,,,,,,,,,,,,,,,,,,,,,,11046,2,2,2024_Jun_07_1827,stroop_task_switching2_b,2021.2.3,59.96469278880057,
,,,绿,red,k,diamond,color_mix,颜色,,incompatible,2,block_switch1_b,instruction/ready_test.png,instruction/i11.png,,,,,,,,,,,,,,,,,0,0,0,0,0,38,38,38,,,,,,,,,,,,,,,,,,,,,,,,,,,502.7345889999997,502.9358887999988,502.9185981000046,503.2198519999947,503.2198519999947,None,503.71950809999544,None,k,1,1.995219399992493,503.71950809999544,None,None,None,,,,,,,,,,,,,,,,,,,,,,,11046,2,2,2024_Jun_07_1827,stroop_task_switching2_b,2021.2.3,59.96469278880057,
,,,黄,yellow,f,diamond,color_mix,颜色,,compatible,1,block_switch1_b,instruction/ready_test.png,instruction/i11.png,,,,,,,,,,,,,,,,,0,0,0,0,0,39,39,39,,,,,,,,,,,,,,,,,,,,,,,,,,,505.7396434999973,505.9396831000049,505.92349669999385,506.2242330000008,506.2242330000008,None,506.72558019999997,None,f,1,1.3334272999927634,506.72558019999997,None,None,None,,,,,,,,,,,,,,,,,,,,,,,11046,2,2,2024_Jun_07_1827,stroop_task_switching2_b,2021.2.3,59.96469278880057,
,,,红,blue,j,diamond,color_mix,颜色,,incompatible,1,block_switch1_b,instruction/ready_test.png,instruction/i11.png,,,,,,,,,,,,,,,,,0,0,0,0,0,40,40,40,,,,,,,,,,,,,,,,,,,,,,,,,,,508.07600580000144,508.2787873000052,508.25981590000447,508.56044790000306,508.56044790000306,None,509.061169099994,None,j,1,2.1017288000002736,509.061169099994,None,None,None,,,,,,,,,,,,,,,,,,,,,,,11046,2,2,2024_Jun_07_1827,stroop_task_switching2_b,2021.2.3,59.96469278880057,
,,,绿,blue,d,square,color_mix,单词,,incompatible,2,block_switch1_b,instruction/ready_test.png,instruction/i11.png,,,,,,,,,,,,,,,,,0,0,0,0,0,41,41,41,,,,,,,,,,,,,,,,,,,,,,,,,,,511.1807780999952,511.381444300001,511.3642852000048,511.6660911999934,511.6660911999934,None,512.1663791000028,None,j,0,2.3404194000031566,512.1663791000028,None,None,None,,,,,,,,,,,,,,,,,,,,,,,11046,2,2,2024_Jun_07_1827,stroop_task_switching2_b,2021.2.3,59.96469278880057,
,,,蓝,blue,j,diamond,color_mix,颜色,,compatible,2,block_switch1_b,instruction/ready_test.png,instruction/i11.png,,,,,,,,,,,,,,,,,0,0,0,0,0,42,42,42,,,,,,,,,,,,,,,,,,,,,,,,,,,514.536179799994,514.7361512000061,514.7195567000017,515.0200076000037,515.0200076000037,None,515.5210762999923,None,j,1,1.2500556999875698,515.5210762999923,None,None,None,,,,,,,,,,,,,,,,,,,,,,,11046,2,2,2024_Jun_07_1827,stroop_task_switching2_b,2021.2.3,59.96469278880057,
,,,红,blue,k,square,color_mix,单词,,incompatible,2,block_switch1_b,instruction/ready_test.png,instruction/i11.png,,,,,,,,,,,,,,,,,0,0,0,0,0,43,43,43,,,,,,,,,,,,,,,,,,,,,,,,,,,516.7893483999942,516.9903924999962,516.9738581999991,517.273543599993,517.273543599993,None,517.7741567000048,520.7796399999934,None,0,,517.7741567000048,520.7796399999934,520.7621409999992,None,,,,,,,,,,,,,,,,,,,,,,,11046,2,2,2024_Jun_07_1827,stroop_task_switching2_b,2021.2.3,59.96469278880057,
,,,蓝,green,d,diamond,color_mix,颜色,,incompatible,2,block_switch1_b,instruction/ready_test.png,instruction/i11.png,,,,,,,,,,,,,,,,,0,0,0,0,0,44,44,44,,,,,,,,,,,,,,,,,,,,,,,,,,,521.4473354999936,521.6466928000009,521.631610299999,521.9481790999998,521.9305008999945,None,522.4310602000041,None,d,1,1.4198449999967124,522.4310602000041,None,None,None,,,,,,,,,,,,,,,,,,,,,,,11046,2,2,2024_Jun_07_1827,stroop_task_switching2_b,2021.2.3,59.96469278880057,
,,,黄,yellow,f,square,color_mix,单词,,compatible,2,block_switch1_b,instruction/ready_test.png,instruction/i11.png,,,,,,,,,,,,,,,,,0,0,0,0,0,45,45,45,,,,,,,,,,,,,,,,,,,,,,,,,,,523.8666517999955,524.0669055000035,524.0503581999947,524.350809800002,524.350809800002,None,524.8515404000063,None,f,1,1.0957154000061564,524.8515404000063,None,None,None,,,,,,,,,,,,,,,,,,,,,,,11046,2,2,2024_Jun_07_1827,stroop_task_switching2_b,2021.2.3,59.96469278880057,
,,,黄,yellow,f,diamond,color_mix,颜色,,compatible,2,block_switch1_b,instruction/ready_test.png,instruction/i11.png,,,,,,,,,,,,,,,,,0,0,0,0,0,46,46,46,,,,,,,,,,,,,,,,,,,,,,,,,,,525.969977899993,526.1699669999944,526.1535542000056,526.4539810999995,526.4539810999995,None,526.9558315000031,None,f,1,1.0473452000005636,526.9558315000031,None,None,None,,,,,,,,,,,,,,,,,,,,,,,11046,2,2,2024_Jun_07_1827,stroop_task_switching2_b,2021.2.3,59.96469278880057,
,,,绿,red,d,square,color_mix,单词,,incompatible,2,block_switch1_b,instruction/ready_test.png,instruction/i11.png,,,,,,,,,,,,,,,,,0,0,0,0,0,47,47,47,,,,,,,,,,,,,,,,,,,,,,,,,,,528.0233843000024,528.2232248999935,528.2075124999974,528.5096328999934,528.5096328999934,None,529.0245112999983,None,d,1,1.2829332000110298,529.0245112999983,None,None,None,,,,,,,,,,,,,,,,,,,,,,,11046,2,2,2024_Jun_07_1827,stroop_task_switching2_b,2021.2.3,59.96469278880057,
,,,红,red,k,diamond,color_mix,颜色,,compatible,2,block_switch1_b,instruction/ready_test.png,instruction/i11.png,,,,,,,,,,,,,,,,,0,0,0,0,0,48,48,48,,,,,,,,,,,,,,,,,,,,,,,,,,,530.3264196999953,530.5273582999944,530.5099456000025,530.8107272000052,530.8107272000052,None,531.3117515000049,None,k,1,1.084212400004617,531.3117515000049,None,None,None,,,,,,,,,,,,,,,,,,,,,,,11046,2,2,2024_Jun_07_1827,stroop_task_switching2_b,2021.2.3,59.96469278880057,
,,,蓝,blue,j,diamond,color_mix,颜色,,compatible,1,block_switch1_b,instruction/ready_test.png,instruction/i11.png,,,,,,,,,,,,,,,,,0,0,0,0,0,49,49,49,,,,,,,,,,,,,,,,,,,,,,,,,,,532.4130144999945,532.6136044000013,532.596397500005,532.8976387000002,532.8976387000002,None,533.3978174999938,None,j,1,1.0056899999908637,533.3978174999938,None,None,None,,,,,,,,,,,,,,,,,,,,,,,11046,2,2,2024_Jun_07_1827,stroop_task_switching2_b,2021.2.3,59.96469278880057,
,,,黄,yellow,f,diamond,color_mix,颜色,,compatible,1,block_switch1_b,instruction/ready_test.png,instruction/i11.png,,,,,,,,,,,,,,,,,0,0,0,0,0,50,50,50,,,,,,,,,,,,,,,,,,,,,,,,,,,534.4325536999968,534.6333894999989,534.6162683000002,534.917786799997,534.917786799997,None,535.417446499996,None,f,1,1.3146878000115976,535.417446499996,None,None,None,,,,,,,,,,,,,,,,,,,,,,,11046,2,2,2024_Jun_07_1827,stroop_task_switching2_b,2021.2.3,59.96469278880057,
,,,红,blue,j,diamond,color_mix,颜色,,incompatible,1,block_switch1_b,instruction/ready_test.png,instruction/i11.png,,,,,,,,,,,,,,,,,0,0,0,0,0,51,51,51,,,,,,,,,,,,,,,,,,,,,,,,,,,536.752813500003,536.9539124000003,536.9369027999928,537.2381877000007,537.2381877000007,None,537.7376145000017,None,j,1,2.754476500005694,537.7376145000017,None,None,None,,,,,,,,,,,,,,,,,,,,,,,11046,2,2,2024_Jun_07_1827,stroop_task_switching2_b,2021.2.3,59.96469278880057,
,,,蓝,yellow,f,diamond,color_mix,颜色,,incompatible,1,block_switch1_b,instruction/ready_test.png,instruction/i11.png,,,,,,,,,,,,,,,,,0,0,0,0,0,52,52,52,,,,,,,,,,,,,,,,,,,,,,,,,,,540.5086584999954,540.7095069999923,540.6919823000062,540.9932182000048,540.9932182000048,None,541.493198199998,None,f,1,1.7985617000085767,541.493198199998,None,None,None,,,,,,,,,,,,,,,,,,,,,,,11046,2,2,2024_Jun_07_1827,stroop_task_switching2_b,2021.2.3,59.96469278880057,
,,,黄,blue,f,square,color_mix,单词,,incompatible,2,block_switch1_b,instruction/ready_test.png,instruction/i11.png,,,,,,,,,,,,,,,,,0,0,0,0,0,53,53,53,,,,,,,,,,,,,,,,,,,,,,,,,,,543.3125893999968,543.5150093999982,543.4963139000029,543.7978950999968,543.7978950999968,None,544.2975966999948,None,f,1,2.025971600000048,544.2975966999948,None,None,None,,,,,,,,,,,,,,,,,,,,,,,11046,2,2,2024_Jun_07_1827,stroop_task_switching2_b,2021.2.3,59.96469278880057,
,,,蓝,blue,j,diamond,color_mix,颜色,,compatible,2,block_switch1_b,instruction/ready_test.png,instruction/i11.png,,,,,,,,,,,,,,,,,0,0,0,0,0,54,54,54,,,,,,,,,,,,,,,,,,,,,,,,,,,546.3505764000001,546.5523350000003,546.534839999993,546.835945400002,546.835945400002,None,547.3352644999977,None,j,1,1.3086536999908276,547.3352644999977,None,None,None,,,,,,,,,,,,,,,,,,,,,,,11046,2,2,2024_Jun_07_1827,stroop_task_switching2_b,2021.2.3,59.96469278880057,
,,,红,yellow,k,square,color_mix,单词,,incompatible,2,block_switch1_b,instruction/ready_test.png,instruction/i11.png,,,,,,,,,,,,,,,,,0,0,0,0,0,55,55,55,,,,,,,,,,,,,,,,,,,,,,,,,,,548.6707859000016,548.8718507000012,548.8543324000057,549.1552163000015,549.1552163000015,None,549.6554804000043,None,k,1,1.8533334000094328,549.6554804000043,None,None,None,,,,,,,,,,,,,,,,,,,,,,,11046,2,2,2024_Jun_07_1827,stroop_task_switching2_b,2021.2.3,59.96469278880057,
,,,蓝,red,j,square,color_mix,单词,,incompatible,1,block_switch1_b,instruction/ready_test.png,instruction/i11.png,,,,,,,,,,,,,,,,,0,0,0,0,0,56,56,56,,,,,,,,,,,,,,,,,,,,,,,,,,,551.5253575999959,551.7270894999965,551.7085946000007,552.0092217000056,552.0092217000056,None,552.5099231000058,None,j,1,1.0064472999947611,552.5099231000058,None,None,None,,,,,,,,,,,,,,,,,,,,,,,11046,2,2,2024_Jun_07_1827,stroop_task_switching2_b,2021.2.3,59.96469278880057,
,,,蓝,blue,j,square,color_mix,单词,,compatible,1,block_switch1_b,instruction/ready_test.png,instruction/i11.png,,,,,,,,,,,,,,,,,0,0,0,0,0,57,57,57,,,,,,,,,,,,,,,,,,,,,,,,,,,553.5464133999922,553.7627436000039,553.7282948999928,554.029331800004,554.029331800004,None,554.5296113999939,None,j,1,0.7473667000012938,554.5296113999939,None,None,None,,,,,,,,,,,,,,,,,,,,,,,11046,2,2,2024_Jun_07_1827,stroop_task_switching2_b,2021.2.3,59.96469278880057,
,,,蓝,red,k,diamond,color_mix,颜色,,incompatible,2,block_switch1_b,instruction/ready_test.png,instruction/i11.png,,,,,,,,,,,,,,,,,0,0,0,0,0,58,58,58,,,,,,,,,,,,,,,,,,,,,,,,,,,555.2973963999975,555.4980089000019,555.4815366999974,555.7814163000003,555.7814163000003,None,556.2821427000017,None,j,0,1.1063008999917656,556.2821427000017,None,None,None,,,,,,,,,,,,,,,,,,,,,,,11046,2,2,2024_Jun_07_1827,stroop_task_switching2_b,2021.2.3,59.96469278880057,
,,,绿,green,d,diamond,color_mix,颜色,,compatible,1,block_switch1_b,instruction/ready_test.png,instruction/i11.png,,,,,,,,,,,,,,,,,0,0,0,0,0,59,59,59,,,,,,,,,,,,,,,,,,,,,,,,,,,557.417411500006,557.6177261999983,557.6016116999963,557.9026778999978,557.9026778999978,None,558.4020068999962,None,d,1,1.4503262999933213,558.4020068999962,None,None,None,,,,,,,,,,,,,,,,,,,,,,,11046,2,2,2024_Jun_07_1827,stroop_task_switching2_b,2021.2.3,59.96469278880057,
,,,蓝,blue,j,diamond,color_mix,颜色,,compatible,1,block_switch1_b,instruction/ready_test.png,instruction/i11.png,,,,,,,,,,,,,,,,,0,0,0,0,0,60,60,60,,,,,,,,,,,,,,,,,,,,,,,,,,,559.8709647999931,560.0722008000012,560.0546097000042,560.3566085000057,560.3566085000057,None,560.8561846999946,None,j,1,1.5239418999990448,560.8561846999946,None,None,None,,,,,,,,,,,,,,,,,,,,,,,11046,2,2,2024_Jun_07_1827,stroop_task_switching2_b,2021.2.3,59.96469278880057,
,,,黄,yellow,f,square,color_mix,单词,,compatible,2,block_switch1_b,instruction/ready_test.png,instruction/i11.png,,,,,,,,,,,,,,,,,0,0,0,0,0,61,61,61,,,,,,,,,,,,,,,,,,,,,,,,,,,562.4082998999947,562.610474400004,562.5919405000022,562.8922373999958,562.8922373999958,None,563.3929878000054,None,f,1,0.8593810000020312,563.3929878000054,None,None,None,,,,,,,,,,,,,,,,,,,,,,,11046,2,2,2024_Jun_07_1827,stroop_task_switching2_b,2021.2.3,59.96469278880057,
,,,绿,blue,d,square,color_mix,单词,,incompatible,1,block_switch1_b,instruction/ready_test.png,instruction/i11.png,,,,,,,,,,,,,,,,,0,0,0,0,0,62,62,62,,,,,,,,,,,,,,,,,,,,,,,,,,,564.2776422000024,564.4794552999956,564.4612109000009,564.7615380000061,564.7615380000061,None,565.2623199999944,None,d,1,2.5738708000135375,565.2623199999944,None,None,None,,,,,,,,,,,,,,,,,,,,,,,11046,2,2,2024_Jun_07_1827,stroop_task_switching2_b,2021.2.3,59.96469278880057,
,,,蓝,yellow,j,square,color_mix,单词,,incompatible,1,block_switch1_b,instruction/ready_test.png,instruction/i11.png,,,,,,,,,,,,,,,,,0,0,0,0,0,63,63,63,,,,,,,,,,,,,,,,,,,,,,,,,,,567.8664412999933,568.066977800001,568.0506093000004,568.350299400001,568.350299400001,None,568.8515181999974,None,j,1,0.9369078000017907,568.8515181999974,None,None,None,,,,,,,,,,,,,,,,,,,,,,,11046,2,2,2024_Jun_07_1827,stroop_task_switching2_b,2021.2.3,59.96469278880057,
,,,黄,yellow,f,diamond,color_mix,颜色,,compatible,2,block_switch1_b,instruction/ready_test.png,instruction/i11.png,,,,,,,,,,,,,,,,,0,0,0,0,0,64,64,64,,,,,,,,,,,,,,,,,,,,,,,,,,,569.8194425999973,570.0196225999971,570.0031555000023,570.3038114999945,570.3038114999945,None,570.8040432999987,None,f,1,1.4246232000004966,570.8040432999987,None,None,None,,,,,,,,,,,,,,,,,,,,,,,11046,2,2,2024_Jun_07_1827,stroop_task_switching2_b,2021.2.3,59.96469278880057,
,,,蓝,green,d,diamond,color_mix,颜色,,incompatible,1,block_switch1_b,instruction/ready_test.png,instruction/i11.png,,,,,,,,,,,,,,,,,0,0,0,0,0,65,65,65,,,,,,,,,,,,,,,,,,,,,,,,,,,572.256157900003,572.4575825999927,572.4408017999958,572.7405486000062,572.7405486000062,None,573.2413950000046,None,d,1,1.7550463999941712,573.2413950000046,None,None,None,,,,,,,,,,,,,,,,,,,,,,,11046,2,2,2024_Jun_07_1827,stroop_task_switching2_b,2021.2.3,59.96469278880057,
,,,红,red,k,diamond,color_mix,颜色,,compatible,1,block_switch1_b,instruction/ready_test.png,instruction/i11.png,,,,,,,,,,,,,,,,,0,0,0,0,0,66,66,66,,,,,,,,,,,,,,,,,,,,,,,,,,,575.027231,575.2286856999999,575.211647499993,575.5111972000013,575.5111972000013,None,576.0119648999971,None,k,1,1.0486668999947142,576.0119648999971,None,None,None,,,,,,,,,,,,,,,,,,,,,,,11046,2,2,2024_Jun_07_1827,stroop_task_switching2_b,2021.2.3,59.96469278880057,
,,,蓝,yellow,j,square,color_mix,单词,,incompatible,2,block_switch1_b,instruction/ready_test.png,instruction/i11.png,,,,,,,,,,,,,,,,,0,0,0,0,0,67,67,67,,,,,,,,,,,,,,,,,,,,,,,,,,,577.0802175999997,577.2818777000066,577.2638658999931,577.5650230000028,577.5650230000028,None,578.0651682000025,None,d,0,1.651768700001412,578.0651682000025,None,None,None,,,,,,,,,,,,,,,,,,,,,,,11046,2,2,2024_Jun_07_1827,stroop_task_switching2_b,2021.2.3,59.96469278880057,
,,,红,yellow,k,square,color_mix,单词,,incompatible,1,block_switch1_b,instruction/ready_test.png,instruction/i11.png,,,,,,,,,,,,,,,,,0,0,0,0,0,68,68,68,,,,,,,,,,,,,,,,,,,,,,,,,,,579.7342755999998,579.9347336000064,579.9194592999993,580.2182610000018,580.2182610000018,None,580.7194395999977,None,f,0,2.29346539999824,580.7194395999977,None,None,None,,,,,,,,,,,,,,,,,,,,,,,11046,2,2,2024_Jun_07_1827,stroop_task_switching2_b,2021.2.3,59.96469278880057,
,,,红,yellow,f,diamond,color_mix,颜色,,incompatible,2,block_switch1_b,instruction/ready_test.png,instruction/i11.png,,,,,,,,,,,,,,,,,0,0,0,0,0,69,69,69,,,,,,,,,,,,,,,,,,,,,,,,,,,583.0393165999994,583.239493400004,583.2232491000032,583.5235131999943,583.5235131999943,None,584.023883899994,None,f,1,1.5891291000007186,584.023883899994,None,None,None,,,,,,,,,,,,,,,,,,,,,,,11046,2,2,2024_Jun_07_1827,stroop_task_switching2_b,2021.2.3,59.96469278880057,
,,,蓝,green,j,square,color_mix,单词,,incompatible,2,block_switch1_b,instruction/ready_test.png,instruction/i11.png,,,,,,,,,,,,,,,,,0,0,0,0,0,70,70,70,,,,,,,,,,,,,,,,,,,,,,,,,,,585.6431294999929,585.8435769000062,585.8265313000011,586.1275778999989,586.1275778999989,None,586.6279443999956,None,j,1,1.9930446999933338,586.6279443999956,None,None,None,,,,,,,,,,,,,,,,,,,,,,,11046,2,2,2024_Jun_07_1827,stroop_task_switching2_b,2021.2.3,59.96469278880057,
,,,绿,yellow,d,square,color_mix,单词,,incompatible,1,block_switch1_b,instruction/ready_test.png,instruction/i11.png,,,,,,,,,,,,,,,,,0,0,0,0,0,71,71,71,,,,,,,,,,,,,,,,,,,,,,,,,,,588.6484236999968,588.8481409999949,588.8312560000049,589.1315892999992,589.1315892999992,None,589.6325596999959,None,d,1,0.9169192000117619,589.6325596999959,None,None,None,,,,,,,,,,,,,,,,,,,,,,,11046,2,2,2024_Jun_07_1827,stroop_task_switching2_b,2021.2.3,59.96469278880057,
,,,蓝,yellow,f,diamond,color_mix,颜色,,incompatible,2,block_switch1_b,instruction/ready_test.png,instruction/i11.png,,,,,,,,,,,,,,,,,0,0,0,0,0,72,72,72,,,,,,,,,,,,,,,,,,,,,,,,,,,590.5672536000056,590.7688770999957,590.7508371000004,591.0519117999938,591.0519117999938,None,591.5520718000043,None,f,1,0.989884800001164,591.5520718000043,None,None,None,,,,,,,,,,,,,,,,,,,,,,,11046,2,2,2024_Jun_07_1827,stroop_task_switching2_b,2021.2.3,59.96469278880057,
,,,红,green,k,square,color_mix,单词,,incompatible,2,block_switch1_b,instruction/ready_test.png,instruction/i11.png,,,,,,,,,,,,,,,,,0,0,0,0,0,73,73,73,,,,,,,,,,,,,,,,,,,,,,,,,,,592.570490099999,592.771560299996,592.7539785999979,593.0546376999991,593.0546376999991,None,593.5551406000013,None,k,1,1.5060821000079159,593.5551406000013,None,None,None,,,,,,,,,,,,,,,,,,,,,,,11046,2,2,2024_Jun_07_1827,stroop_task_switching2_b,2021.2.3,59.96469278880057,
,,,绿,blue,j,diamond,color_mix,颜色,,incompatible,2,block_switch1_b,instruction/ready_test.png,instruction/i11.png,,,,,,,,,,,,,,,,,0,0,0,0,0,74,74,74,,,,,,,,,,,,,,,,,,,,,,,,,,,595.0907413999957,595.2917662999971,595.2744515999948,595.5749159999978,595.5749159999978,None,596.0757133000006,None,j,1,1.721474499994656,596.0757133000006,None,None,None,,,,,,,,,,,,,,,,,,,,,,,11046,2,2,2024_Jun_07_1827,stroop_task_switching2_b,2021.2.3,59.96469278880057,
,,,红,red,k,square,color_mix,单词,,compatible,2,block_switch1_b,instruction/ready_test.png,instruction/i11.png,,,,,,,,,,,,,,,,,0,0,0,0,0,75,75,75,,,,,,,,,,,,,,,,,,,,,,,,,,,597.8280603000021,598.0295612000045,598.0118669999938,598.3132486999966,598.3132486999966,None,598.8129543999967,None,k,1,0.8404760999983409,598.8129543999967,None,None,None,,,,,,,,,,,,,,,,,,,,,,,11046,2,2,2024_Jun_07_1827,stroop_task_switching2_b,2021.2.3,59.96469278880057,
,,,绿,green,d,diamond,color_mix,颜色,,compatible,2,block_switch1_b,instruction/ready_test.png,instruction/i11.png,,,,,,,,,,,,,,,,,0,0,0,0,0,76,76,76,,,,,,,,,,,,,,,,,,,,,,,,,,,599.6810797999933,599.8837854000012,599.8653880000056,600.1653093000059,600.1653093000059,None,600.6669886000018,None,d,1,1.2103974000056041,600.6669886000018,None,None,None,,,,,,,,,,,,,,,,,,,,,,,11046,2,2,2024_Jun_07_1827,stroop_task_switching2_b,2021.2.3,59.96469278880057,
,,,黄,red,f,square,color_mix,单词,,incompatible,2,block_switch1_b,instruction/ready_test.png,instruction/i11.png,,,,,,,,,,,,,,,,,0,0,0,0,0,77,77,77,,,,,,,,,,,,,,,,,,,,,,,,,,,601.9010984000051,602.1016141,602.0847095999925,602.3866596000007,602.3866596000007,None,602.8856926000008,None,f,1,1.127528600001824,602.8856926000008,None,None,None,,,,,,,,,,,,,,,,,,,,,,,11046,2,2,2024_Jun_07_1827,stroop_task_switching2_b,2021.2.3,59.96469278880057,
,,,红,red,k,square,color_mix,单词,,compatible,1,block_switch1_b,instruction/ready_test.png,instruction/i11.png,,,,,,,,,,,,,,,,,0,0,0,0,0,78,78,78,,,,,,,,,,,,,,,,,,,,,,,,,,,604.0374597000045,604.2379371999996,604.2212990999979,604.5223538999999,604.5223538999999,None,605.0224811999942,None,k,1,1.1187006999971345,605.0224811999942,None,None,None,,,,,,,,,,,,,,,,,,,,,,,11046,2,2,2024_Jun_07_1827,stroop_task_switching2_b,2021.2.3,59.96469278880057,
,,,黄,yellow,f,square,color_mix,单词,,compatible,1,block_switch1_b,instruction/ready_test.png,instruction/i11.png,,,,,,,,,,,,,,,,,0,0,0,0,0,79,79,79,,,,,,,,,,,,,,,,,,,,,,,,,,,606.1575045999925,606.3577198999992,606.3423638999957,606.6414517999947,606.6414517999947,None,607.1421753000031,None,f,1,0.8311584000039147,607.1421753000031,None,None,None,,,,,,,,,,,,,,,,,,,,,,,11046,2,2,2024_Jun_07_1827,stroop_task_switching2_b,2021.2.3,59.96469278880057,
,,,红,red,k,diamond,color_mix,颜色,,compatible,2,block_switch1_b,instruction/ready_test.png,instruction/i11.png,,,,,,,,,,,,,,,,,0,0,0,0,0,80,80,80,,,,,,,,,,,,,,,,,,,,,,,,,,,607.9935341999953,608.1946928999969,608.1788694999996,608.4950160000008,608.4795701999974,None,608.9785879999981,None,k,1,0.7228508000116562,608.9785879999981,None,None,None,,,,,,,,,,,,,,,,,,,,,,,11046,2,2,2024_Jun_07_1827,stroop_task_switching2_b,2021.2.3,59.96469278880057,
,,,红,red,k,square,color_mix,单词,,compatible,2,block_switch1_b,instruction/ready_test.png,instruction/i11.png,,,,,,,,,,,,,,,,,0,0,0,0,0,81,81,81,,,,,,,,,,,,,,,,,,,,,,,,,,,609.7296840000054,609.9303357000026,609.9132546000037,610.2134832000011,610.2134832000011,None,610.7143348999962,None,k,1,0.859353399995598,610.7143348999962,None,None,None,,,,,,,,,,,,,,,,,,,,,,,11046,2,2,2024_Jun_07_1827,stroop_task_switching2_b,2021.2.3,59.96469278880057,
,,,黄,blue,j,diamond,color_mix,颜色,,incompatible,2,block_switch1_b,instruction/ready_test.png,instruction/i11.png,,,,,,,,,,,,,,,,,0,0,0,0,0,82,82,82,,,,,,,,,,,,,,,,,,,,,,,,,,,611.5989839999966,611.8008700000064,611.7833533999947,612.0830903000024,612.0830903000024,None,612.5837927999964,None,j,1,2.661926400003722,612.5837927999964,None,None,None,,,,,,,,,,,,,,,,,,,,,,,11046,2,2,2024_Jun_07_1827,stroop_task_switching2_b,2021.2.3,59.96469278880057,
,,,红,yellow,f,diamond,color_mix,颜色,,incompatible,1,block_switch1_b,instruction/ready_test.png,instruction/i11.png,,,,,,,,,,,,,,,,,0,0,0,0,0,83,83,83,,,,,,,,,,,,,,,,,,,,,,,,,,,615.2710948000022,615.4718400999991,615.4549159000017,615.7551964000013,615.7551964000013,None,616.2558629999985,None,f,1,1.5579666000121506,616.2558629999985,None,None,None,,,,,,,,,,,,,,,,,,,,,,,11046,2,2,2024_Jun_07_1827,stroop_task_switching2_b,2021.2.3,59.96469278880057,
,,,黄,red,k,diamond,color_mix,颜色,,incompatible,1,block_switch1_b,instruction/ready_test.png,instruction/i11.png,,,,,,,,,,,,,,,,,0,0,0,0,0,84,84,84,,,,,,,,,,,,,,,,,,,,,,,,,,,617.8416754999926,618.0420993000007,618.0272534999967,618.3430716000003,618.3257459000015,None,618.8265514999948,None,k,1,1.6671541999967303,618.8265514999948,None,None,None,,,,,,,,,,,,,,,,,,,,,,,11046,2,2,2024_Jun_07_1827,stroop_task_switching2_b,2021.2.3,59.96469278880057,
,,,蓝,blue,j,square,color_mix,单词,,compatible,2,block_switch1_b,instruction/ready_test.png,instruction/i11.png,,,,,,,,,,,,,,,,,0,0,0,0,0,85,85,85,,,,,,,,,,,,,,,,,,,,,,,,,,,620.5125059999991,620.7132802999986,620.6962109000015,620.9965253999981,620.9965253999981,None,621.4976842000033,None,j,1,0.9723149000055855,621.4976842000033,None,None,None,,,,,,,,,,,,,,,,,,,,,,,11046,2,2,2024_Jun_07_1827,stroop_task_switching2_b,2021.2.3,59.96469278880057,
,,,绿,green,d,square,color_mix,单词,,compatible,1,block_switch1_b,instruction/ready_test.png,instruction/i11.png,,,,,,,,,,,,,,,,,0,0,0,0,0,86,86,86,,,,,,,,,,,,,,,,,,,,,,,,,,,622.4986401999922,622.7000757999922,622.6827603999991,622.9836106000002,622.9836106000002,None,623.4838576000038,None,d,1,0.8818113999877824,623.4838576000038,None,None,None,,,,,,,,,,,,,,,,,,,,,,,11046,2,2,2024_Jun_07_1827,stroop_task_switching2_b,2021.2.3,59.96469278880057,
,,,红,red,k,square,color_mix,单词,,compatible,1,block_switch1_b,instruction/ready_test.png,instruction/i11.png,,,,,,,,,,,,,,,,,0,0,0,0,0,87,87,87,,,,,,,,,,,,,,,,,,,,,,,,,,,624.3850135999965,624.5858932999981,624.5698815999931,624.8699441000063,624.8699441000063,None,625.3697817000066,None,k,1,0.8121312000002945,625.3697817000066,None,None,None,,,,,,,,,,,,,,,,,,,,,,,11046,2,2,2024_Jun_07_1827,stroop_task_switching2_b,2021.2.3,59.96469278880057,
,,,黄,green,d,diamond,color_mix,颜色,,incompatible,2,block_switch1_b,instruction/ready_test.png,instruction/i11.png,,,,,,,,,,,,,,,,,0,0,0,0,0,88,88,88,,,,,,,,,,,,,,,,,,,,,,,,,,,626.2041590000008,626.4048991000018,626.3877341000043,626.6886985000019,626.6886985000019,None,627.1894334999961,630.1954554999975,None,0,,627.1894334999961,630.1954554999975,630.1783651000005,None,,,,,,,,,,,,,,,,,,,,,,,11046,2,2,2024_Jun_07_1827,stroop_task_switching2_b,2021.2.3,59.96469278880057,
,,,绿,red,d,square,color_mix,单词,,incompatible,2,block_switch1_b,instruction/ready_test.png,instruction/i11.png,,,,,,,,,,,,,,,,,0,0,0,0,0,89,89,89,,,,,,,,,,,,,,,,,,,,,,,,,,,630.8446604000055,631.0457361000008,631.0282401000004,631.328720599995,631.328720599995,None,631.8295351999986,None,d,1,1.8969215999968583,631.8295351999986,None,None,None,,,,,,,,,,,,,,,,,,,,,,,11046,2,2,2024_Jun_07_1827,stroop_task_switching2_b,2021.2.3,59.96469278880057,
,,,黄,green,f,square,color_mix,单词,,incompatible,1,block_switch1_b,instruction/ready_test.png,instruction/i11.png,,,,,,,,,,,,,,,,,0,0,0,0,0,90,90,90,,,,,,,,,,,,,,,,,,,,,,,,,,,633.7491158000048,633.9496436000045,633.9343176999973,634.2350372999936,634.2350372999936,None,634.7338330000057,None,f,1,1.8882681999966735,634.7338330000057,None,None,None,,,,,,,,,,,,,,,,,,,,,,,11046,2,2,2024_Jun_07_1827,stroop_task_switching2_b,2021.2.3,59.96469278880057,
,,,蓝,blue,j,square,color_mix,单词,,compatible,1,block_switch1_b,instruction/ready_test.png,instruction/i11.png,,,,,,,,,,,,,,,,,0,0,0,0,0,91,91,91,,,,,,,,,,,,,,,,,,,,,,,,,,,636.6533778000012,636.854934899995,636.8388125000056,637.1384689999977,637.1384689999977,None,637.6386712999956,None,j,1,1.0955855999927735,637.6386712999956,None,None,None,,,,,,,,,,,,,,,,,,,,,,,11046,2,2,2024_Jun_07_1827,stroop_task_switching2_b,2021.2.3,59.96469278880057,
,,,蓝,red,j,square,color_mix,单词,,incompatible,1,block_switch1_b,instruction/ready_test.png,instruction/i11.png,,,,,,,,,,,,,,,,,0,0,0,0,0,92,92,92,,,,,,,,,,,,,,,,,,,,,,,,,,,638.7565818000003,638.9577133999992,638.9402532999957,639.2407092000067,639.2407092000067,None,639.7413169999927,None,k,0,2.1129230999940773,639.7413169999927,None,None,None,,,,,,,,,,,,,,,,,,,,,,,11046,2,2,2024_Jun_07_1827,stroop_task_switching2_b,2021.2.3,59.96469278880057,
,,,黄,blue,f,square,color_mix,单词,,incompatible,1,block_switch1_b,instruction/ready_test.png,instruction/i11.png,,,,,,,,,,,,,,,,,0,0,0,0,0,93,93,93,,,,,,,,,,,,,,,,,,,,,,,,,,,641.8779677999992,642.0793082000018,642.0616426000051,642.3634093000001,642.3634093000001,None,642.8635556999943,None,j,0,1.7510841000039363,642.8635556999943,None,None,None,,,,,,,,,,,,,,,,,,,,,,,11046,2,2,2024_Jun_07_1827,stroop_task_switching2_b,2021.2.3,59.96469278880057,
,,,绿,red,k,diamond,color_mix,颜色,,incompatible,2,block_switch1_b,instruction/ready_test.png,instruction/i11.png,,,,,,,,,,,,,,,,,0,0,0,0,0,94,94,94,,,,,,,,,,,,,,,,,,,,,,,,,,,644.6320311000018,644.8324147999956,644.8166302000027,645.1171193000046,645.1171193000046,None,645.6167366000009,None,k,1,1.2059754999936558,645.6167366000009,None,None,None,,,,,,,,,,,,,,,,,,,,,,,11046,2,2,2024_Jun_07_1827,stroop_task_switching2_b,2021.2.3,59.96469278880057,
,,,蓝,blue,j,diamond,color_mix,颜色,,compatible,1,block_switch1_b,instruction/ready_test.png,instruction/i11.png,,,,,,,,,,,,,,,,,0,0,0,0,0,95,95,95,,,,,,,,,,,,,,,,,,,,,,,,,,,646.8522871000023,647.0526149999932,647.0358768000006,647.3371175000066,647.3371175000066,None,647.8368568000005,None,j,1,1.1776478999963729,647.8368568000005,None,None,None,,,,,,,,,,,,,,,,,,,,,,,11046,2,2,2024_Jun_07_1827,stroop_task_switching2_b,2021.2.3,59.96469278880057,
,,,绿,green,d,square,color_mix,单词,,compatible,2,block_switch1_b,instruction/ready_test.png,instruction/i11.png,,,,,,,,,,,,,,,,,0,0,0,0,0,96,96,96,,,,,,,,,,,,,,,,,,,,,,,,,,,649.0388613999967,649.240832800002,649.2228739999991,649.5244313000003,649.5244313000003,None,650.0235969999922,None,d,1,1.6469188000046415,650.0235969999922,None,None,None,,,,,,,,,,,,,,,,,,,,,,,11046,2,2,2024_Jun_07_1827,stroop_task_switching2_b,2021.2.3,59.96469278880057,
,,,,,,,,,,,,block_switch1_b,instruction/ready_test.png,instruction/i11.png,,,,,,,,,,,,,,,,,0,0,0,0,,,,,,,,,,,,,,,,,,,,,,,,,,,,,,,,,,,,,,,,,,,,,,,,,,,,,,,,,,,,651.6927291000029,None,space,27.123088899999857,651.6927291000029,None,,,11046,2,2,2024_Jun_07_1827,stroop_task_switching2_b,2021.2.3,59.96469278880057,
,,,蓝,blue,j,square,color_mix,单词,,compatible,0,block_switch2_b,instruction/ready_2.png,instruction/i12.png,,,,,,,,,,,,,,,,,0,1,1,1,0,0,0,0,,,,,,,,,,,,,,,,,,,681.5876395999949,682.5893397000036,682.5893397000036,683.5911064999964,683.5911064999964,None,680.6031605000026,681.6050372000027,684.6085206999996,684.811760800003,684.811760800003,685.1264873000036,685.0930474000052,None,685.5936744000064,None,j,1,1.301968300002045,685.5936744000064,None,None,None,,,,,,,,,678.8504715000017,None,space,1.72504150000168,678.8504715000017,None,,,,,,,,,11046,2,2,2024_Jun_07_1827,stroop_task_switching2_b,2021.2.3,59.96469278880057,
,,,黄,red,k,diamond,color_mix,颜色,,incompatible,2,block_switch2_b,instruction/ready_2.png,instruction/i12.png,,,,,,,,,,,,,,,,,0,1,1,1,0,1,1,1,,,,,,,,,,,,,,,,,,,,,,,,,,,686.9125984999991,687.1131752999936,687.0975349999935,687.3966712999973,687.3966712999973,None,687.8977001000021,None,f,0,2.3022045999969123,687.8977001000021,None,None,None,,,,,,,,,,,,,,,,,,,,,,,11046,2,2,2024_Jun_07_1827,stroop_task_switching2_b,2021.2.3,59.96469278880057,
,,,蓝,green,d,diamond,color_mix,颜色,,incompatible,1,block_switch2_b,instruction/ready_2.png,instruction/i12.png,,,,,,,,,,,,,,,,,0,1,1,1,0,2,2,2,,,,,,,,,,,,,,,,,,,,,,,,,,,690.2174592999945,690.4182045000052,690.4013208999968,690.7024037999945,690.7024037999945,None,691.2023896000028,None,d,1,0.9811997999931918,691.2023896000028,None,None,None,,,,,,,,,,,,,,,,,,,,,,,11046,2,2,2024_Jun_07_1827,stroop_task_switching2_b,2021.2.3,59.96469278880057,
,,,红,yellow,f,diamond,color_mix,颜色,,incompatible,1,block_switch2_b,instruction/ready_2.png,instruction/i12.png,,,,,,,,,,,,,,,,,0,1,1,1,0,3,3,3,,,,,,,,,,,,,,,,,,,,,,,,,,,692.2037970999954,692.4055444999976,692.3882676999929,692.6880616999988,692.6880616999988,None,693.1885900000052,None,f,1,1.1472185000020545,693.1885900000052,None,None,None,,,,,,,,,,,,,,,,,,,,,,,11046,2,2,2024_Jun_07_1827,stroop_task_switching2_b,2021.2.3,59.96469278880057,
,,,红,red,k,diamond,color_mix,颜色,,compatible,1,block_switch2_b,instruction/ready_2.png,instruction/i12.png,,,,,,,,,,,,,,,,,0,1,1,1,0,4,4,4,,,,,,,,,,,,,,,,,,,,,,,,,,,694.3572537,694.5576208999992,694.5413179000025,694.8411987,694.8411987,None,695.3417568000004,None,k,1,0.9219937000016216,695.3417568000004,None,None,None,,,,,,,,,,,,,,,,,,,,,,,11046,2,2,2024_Jun_07_1827,stroop_task_switching2_b,2021.2.3,59.96469278880057,
,,,绿,green,d,square,color_mix,单词,,compatible,2,block_switch2_b,instruction/ready_2.png,instruction/i12.png,,,,,,,,,,,,,,,,,0,1,1,1,0,5,5,5,,,,,,,,,,,,,,,,,,,,,,,,,,,696.2932486999925,696.4938815999922,696.4775326999952,696.7793780000065,696.7793780000065,None,697.2782753000065,None,d,1,0.8658872000087285,697.2782753000065,None,None,None,,,,,,,,,,,,,,,,,,,,,,,11046,2,2,2024_Jun_07_1827,stroop_task_switching2_b,2021.2.3,59.96469278880057,
,,,黄,blue,j,diamond,color_mix,颜色,,incompatible,2,block_switch2_b,instruction/ready_2.png,instruction/i12.png,,,,,,,,,,,,,,,,,0,1,1,1,0,6,6,6,,,,,,,,,,,,,,,,,,,,,,,,,,,698.1630900000018,698.3641516999924,698.3463614999928,698.6479245999944,698.6479245999944,None,699.1483041000029,None,f,0,1.6840265000064392,699.1483041000029,None,None,None,,,,,,,,,,,,,,,,,,,,,,,11046,2,2,2024_Jun_07_1827,stroop_task_switching2_b,2021.2.3,59.96469278880057,
,,,绿,yellow,d,square,color_mix,单词,,incompatible,2,block_switch2_b,instruction/ready_2.png,instruction/i12.png,,,,,,,,,,,,,,,,,0,1,1,1,0,7,7,7,,,,,,,,,,,,,,,,,,,,,,,,,,,700.8503309999942,701.0505598000018,701.0354026999994,701.3342948000063,701.3342948000063,None,701.8351251999993,None,d,1,0.8927277000038885,701.8351251999993,None,None,None,,,,,,,,,,,,,,,,,,,,,,,11046,2,2,2024_Jun_07_1827,stroop_task_switching2_b,2021.2.3,59.96469278880057,
