b_pra,ins_blocks,ins_blocks2,stim_word,stim_color,corrAns,cue_type,trial_type,task_type,rand,compatibility,switch,b_test,w_pic,w_pic2,trials_instr.thisRepN,trials_instr.thisTrialN,trials_instr.thisN,trials_instr.thisIndex,block_pra.thisRepN,block_pra.thisTrialN,block_pra.thisN,block_pra.thisIndex,trials_rep.thisRepN,trials_rep.thisTrialN,trials_rep.thisN,trials_rep.thisIndex,trials_pra.thisRepN,trials_pra.thisTrialN,trials_pra.thisN,trials_pra.thisIndex,trials_3.thisRepN,trials_3.thisTrialN,trials_3.thisN,trials_3.thisIndex,trials_2.thisRepN,trials_2.thisTrialN,trials_2.thisN,trials_2.thisIndex,instr_image.started,instr_image.stopped,instr_key_resp.keys,instr_key_resp.rt,instr_key_resp.started,instr_key_resp.stopped,instr_pra_image.started,instr_pra_image.stopped,ip_key_resp.keys,ip_key_resp.rt,ip_key_resp.started,ip_key_resp.stopped,block_image.started,block_image.stopped,ib_key_resp.keys,ib_key_resp.rt,ib_key_resp.started,ib_key_resp.stopped,cd3.started,cd3.stopped,cd2.started,cd2.stopped,cd1.started,cd1.stopped,cd_text.started,cd_text.stopped,text_fix.started,text_fix.stopped,text_2.started,text_2.stopped,text_4.started,text_4.stopped,text_target.started,text_target.stopped,key_resp.keys,key_resp.corr,key_resp.rt,key_resp.started,key_resp.stopped,sceen_black.started,sceen_black.stopped,text_fb.started,text_fb.stopped,text.started,text.stopped,key_bf.keys,key_bf.rt,key_bf.started,key_bf.stopped,instr_test_image.started,instr_test_image.stopped,instr_exp_key_resp.keys,instr_exp_key_resp.rt,instr_exp_key_resp.started,instr_exp_key_resp.stopped,text_rest.started,text_rest.stopped,key_resp_rest.keys,key_resp_rest.rt,key_resp_rest.started,key_resp_rest.stopped,text_3.started,text_3.stopped,participant,session,balance,date,expName,psychopyVersion,frameRate,
,,,,,,,,,,,,,,,0,0,0,0,,,,,,,,,,,,,,,,,,,,,1081.2143509000307,None,right,29.72468579991255,1081.2143509000307,None,,,,,,,,,,,,,,,,,,,,,,,,,,,,,,,,,,,,,,,,,,,,,,,,,,,,,,,,,,11040,1,1,2024_Jun_04_1004,stroop_task_switching2,2021.2.3,59.938060025567516,
,,,,,,,,,,,,,,,1,0,1,0,,,,,,,,,,,,,,,,,,,,,1110.9755423000315,None,right,45.4205493000336,1110.9755423000315,None,,,,,,,,,,,,,,,,,,,,,,,,,,,,,,,,,,,,,,,,,,,,,,,,,,,,,,,,,,11040,1,1,2024_Jun_04_1004,stroop_task_switching2,2021.2.3,59.938060025567516,
,,,,,,,,,,,,,,,2,0,2,0,,,,,,,,,,,,,,,,,,,,,1156.4281083000824,None,right,0.4242301000049338,1156.4281083000824,None,,,,,,,,,,,,,,,,,,,,,,,,,,,,,,,,,,,,,,,,,,,,,,,,,,,,,,,,,,11040,1,1,2024_Jun_04_1004,stroop_task_switching2,2021.2.3,59.938060025567516,
,,,,,,,,,,,,,,,3,0,3,0,,,,,,,,,,,,,,,,,,,,,1156.8955973000266,None,right,0.15667880000546575,1156.8955973000266,None,,,,,,,,,,,,,,,,,,,,,,,,,,,,,,,,,,,,,,,,,,,,,,,,,,,,,,,,,,11040,1,1,2024_Jun_04_1004,stroop_task_switching2,2021.2.3,59.938060025567516,
,,,,,,,,,,,,,,,4,0,4,0,,,,,,,,,,,,,,,,,,,,,1157.0958513000514,None,right,0.1083710000384599,1157.0958513000514,None,,,,,,,,,,,,,,,,,,,,,,,,,,,,,,,,,,,,,,,,,,,,,,,,,,,,,,,,,,11040,1,1,2024_Jun_04_1004,stroop_task_switching2,2021.2.3,59.938060025567516,
,,,,,,,,,,,,,,,5,0,5,0,,,,,,,,,,,,,,,,,,,,,1157.245960200089,None,right,0.6541249000001699,1157.245960200089,None,,,,,,,,,,,,,,,,,,,,,,,,,,,,,,,,,,,,,,,,,,,,,,,,,,,,,,,,,,11040,1,1,2024_Jun_04_1004,stroop_task_switching2,2021.2.3,59.938060025567516,
,,,,,,,,,,,,,,,,,,,,,,,,,,,,,,,,,,,,,,,,,,,,,1157.947380800033,None,space,1.8144921000348404,1157.947380800033,None,,,,,,,,,,,,,,,,,,,,,,,,,,,,,,,,,,,,,,,,,,,,,,,,,,,,11040,1,1,2024_Jun_04_1004,stroop_task_switching2,2021.2.3,59.938060025567516,
condition/block_color,instruction/instr_color,instruction/i8,XX,red,d,diamond,color_single,颜色,,,,,,,,,,,0,0,0,0,0,0,0,0,0,0,0,0,,,,,,,,,,,,,,,,,,,,,1159.7997133000754,None,space,6.97287789999973,1159.7997133000754,None,1167.8468541000038,1168.847415400087,1168.847415400087,1169.8495189000387,1169.8315005000914,None,1166.8605071000056,1167.8633820000105,1170.8157145000296,1171.0167388999835,1171.0008795000613,1171.3006468000822,1171.3006468000822,None,1171.8014387000585,None,d,1,0.6592585999751464,1171.8014387000585,None,None,None,1172.5525134000927,None,,,,,,,,,,,,,,,,,,,,,11040,1,1,2024_Jun_04_1004,stroop_task_switching2,2021.2.3,59.938060025567516,
condition/block_color,instruction/instr_color,instruction/i8,XX,green,k,diamond,color_single,颜色,,,,,,,,,,,0,0,0,0,0,0,0,0,0,1,1,1,,,,,,,,,,,,,,,,,,,,,,,,,,,,,,,,,,,1173.5039540000726,1173.7047352000372,1173.6707914000144,1173.971687000012,1173.971687000012,None,1174.471931100008,None,k,1,0.860619300045073,1174.471931100008,None,None,None,1175.3565142999869,None,,,,,,,,,,,,,,,,,,,,,11040,1,1,2024_Jun_04_1004,stroop_task_switching2,2021.2.3,59.938060025567516,
condition/block_color,instruction/instr_color,instruction/i8,XX,yellow,j,diamond,color_single,颜色,,,,,,,,,,,0,0,0,0,0,0,0,0,0,2,2,2,,,,,,,,,,,,,,,,,,,,,,,,,,,,,,,,,,,1176.3582113999873,1176.5592589000007,1176.5418024000246,1176.8421580999857,1176.8421580999857,None,1177.3431063999888,None,j,1,0.7019537999294698,1177.3431063999888,None,None,None,1178.0607428000076,None,,,,,,,,,,,,,,,,,,,,,11040,1,1,2024_Jun_04_1004,stroop_task_switching2,2021.2.3,59.938060025567516,
condition/block_color,instruction/instr_color,instruction/i8,XX,blue,f,diamond,color_single,颜色,,,,,,,,,,,0,0,0,0,0,0,0,0,0,3,3,3,,,,,,,,,,,,,,,,,,,,,,,,,,,,,,,,,,,1179.0621583000757,1179.2625536000123,1179.2460717000067,1179.5463472000556,1179.5463472000556,None,1180.046994100092,None,f,1,0.6538105000508949,1180.046994100092,None,None,None,1180.748396400013,None,,,,,,,,,,,,,,,,,,,,,11040,1,1,2024_Jun_04_1004,stroop_task_switching2,2021.2.3,59.938060025567516,
condition/block_color,instruction/instr_color,instruction/i8,XX,green,k,diamond,color_single,颜色,,,,,,,,,,,0,0,0,0,0,0,0,0,0,4,4,4,,,,,,,,,,,,,,,,,,,,,,,,,,,,,,,,,,,1181.7497239999939,1181.950140100089,1181.9333057000767,1182.2358585000038,1182.2172338000964,None,1182.7176620999817,None,k,1,0.6794050000607967,1182.7176620999817,None,None,None,1183.4188024000032,None,,,,,,,,,,,,,,,,,,,,,11040,1,1,2024_Jun_04_1004,stroop_task_switching2,2021.2.3,59.938060025567516,
condition/block_color,instruction/instr_color,instruction/i8,XX,yellow,j,diamond,color_single,颜色,,,,,,,,,,,0,0,0,0,0,0,0,0,0,5,5,5,,,,,,,,,,,,,,,,,,,,,,,,,,,,,,,,,,,1184.4203184000216,1184.6220333999954,1184.6039486000082,1184.904754200019,1184.904754200019,None,1185.4055207000347,None,j,1,0.7596213000360876,1185.4055207000347,None,None,None,1186.189656100003,None,,,,,,,,,,,,,,,,,,,,,11040,1,1,2024_Jun_04_1004,stroop_task_switching2,2021.2.3,59.938060025567516,
condition/block_color,instruction/instr_color,instruction/i8,XX,blue,f,diamond,color_single,颜色,,,,,,,,,,,0,0,0,0,0,0,0,0,0,6,6,6,,,,,,,,,,,,,,,,,,,,,,,,,,,,,,,,,,,1187.1915758000687,1187.3920767999953,1187.3746937999967,1187.675089700031,1187.675089700031,None,1188.1761212000856,None,f,1,0.6368734000716358,1188.1761212000856,None,None,None,1188.8431704000104,None,,,,,,,,,,,,,,,,,,,,,11040,1,1,2024_Jun_04_1004,stroop_task_switching2,2021.2.3,59.938060025567516,
condition/block_color,instruction/instr_color,instruction/i8,XX,red,d,diamond,color_single,颜色,,,,,,,,,,,0,0,0,0,0,0,0,0,0,7,7,7,,,,,,,,,,,,,,,,,,,,,,,,,,,,,,,,,,,1189.8451318000443,1190.0465005000588,1190.0296864000848,1190.3307070999872,1190.3307070999872,None,1190.8299954000395,None,d,1,0.6072422000579536,1190.8299954000395,None,None,None,1191.4642968000844,None,,,,,,,,,,,,,,,,,,,,,11040,1,1,2024_Jun_04_1004,stroop_task_switching2,2021.2.3,59.938060025567516,
condition/block_color,instruction/instr_color,instruction/i8,XX,yellow,j,diamond,color_single,颜色,,,,,,,,,,,0,0,0,0,0,0,0,0,0,8,8,8,,,,,,,,,,,,,,,,,,,,,,,,,,,,,,,,,,,1192.4659955999814,1192.6667172000743,1192.6493536999915,1192.9508522000397,1192.9508522000397,None,1193.450771600008,None,j,1,0.7306544999592006,1193.450771600008,None,None,None,1194.20181150001,None,,,,,,,,,,,,,,,,,,,,,11040,1,1,2024_Jun_04_1004,stroop_task_switching2,2021.2.3,59.938060025567516,
condition/block_color,instruction/instr_color,instruction/i8,XX,blue,f,diamond,color_single,颜色,,,,,,,,,,,0,0,0,0,0,0,0,0,0,9,9,9,,,,,,,,,,,,,,,,,,,,,,,,,,,,,,,,,,,1195.2034388000611,1195.4041297000367,1195.3873541000066,1195.6873631000053,1195.6873631000053,None,1196.188167000073,None,f,1,0.6972483999561518,1196.188167000073,None,None,None,1196.9058772000717,None,,,,,,,,,,,,,,,,,,,,,11040,1,1,2024_Jun_04_1004,stroop_task_switching2,2021.2.3,59.938060025567516,
condition/block_color,instruction/instr_color,instruction/i8,XX,red,d,diamond,color_single,颜色,,,,,,,,,,,0,0,0,0,0,0,0,0,0,10,10,10,,,,,,,,,,,,,,,,,,,,,,,,,,,,,,,,,,,1197.9075585000683,1198.1080482000252,1198.0909239000175,1198.392041800078,1198.392041800078,None,1198.8922915000003,None,d,1,0.5931528999935836,1198.8922915000003,None,None,None,1199.5103530000197,None,,,,,,,,,,,,,,,,,,,,,11040,1,1,2024_Jun_04_1004,stroop_task_switching2,2021.2.3,59.938060025567516,
condition/block_color,instruction/instr_color,instruction/i8,XX,green,k,diamond,color_single,颜色,,,,,,,,,,,0,0,0,0,0,0,0,0,0,11,11,11,,,,,,,,,,,,,,,,,,,,,,,,,,,,,,,,,,,1200.5111310000066,1200.7128246000502,1200.6947441000957,1200.9951792000793,1200.9951792000793,None,1201.4959717000602,None,k,1,0.7413611999945715,1201.4959717000602,None,None,None,1202.2640105000464,None,,,,,,,,,,,,,,,,,,,,,11040,1,1,2024_Jun_04_1004,stroop_task_switching2,2021.2.3,59.938060025567516,
condition/block_color,instruction/instr_color,instruction/i8,XX,blue,f,diamond,color_single,颜色,,,,,,,,,,,0,0,0,0,0,0,0,0,0,12,12,12,,,,,,,,,,,,,,,,,,,,,,,,,,,,,,,,,,,1203.2656888000201,1203.466248300043,1203.4488963000476,1203.7495894000167,1203.7495894000167,None,1204.2501829999965,None,f,1,0.6115301999961957,1204.2501829999965,None,None,None,1204.8843999000965,None,,,,,,,,,,,,,,,,,,,,,11040,1,1,2024_Jun_04_1004,stroop_task_switching2,2021.2.3,59.938060025567516,
condition/block_color,instruction/instr_color,instruction/i8,XX,red,d,diamond,color_single,颜色,,,,,,,,,,,0,0,0,0,0,0,0,0,0,13,13,13,,,,,,,,,,,,,,,,,,,,,,,,,,,,,,,,,,,1205.886247800081,1206.0869889000896,1206.06968220009,1206.3704787000315,1206.3704787000315,None,1206.871153700049,None,d,1,0.5585355999646708,1206.871153700049,None,None,None,1207.4549354000483,None,,,,,,,,,,,,,,,,,,,,,11040,1,1,2024_Jun_04_1004,stroop_task_switching2,2021.2.3,59.938060025567516,
condition/block_color,instruction/instr_color,instruction/i8,XX,green,k,diamond,color_single,颜色,,,,,,,,,,,0,0,0,0,0,0,0,0,0,14,14,14,,,,,,,,,,,,,,,,,,,,,,,,,,,,,,,,,,,1208.4569140000967,1208.6574946000474,1208.6401735000545,1208.9416640000418,1208.9416640000418,None,1209.4414639000315,None,k,1,0.9009705000789836,1209.4414639000315,None,None,None,1210.3596003000857,None,,,,,,,,,,,,,,,,,,,,,11040,1,1,2024_Jun_04_1004,stroop_task_switching2,2021.2.3,59.938060025567516,
condition/block_color,instruction/instr_color,instruction/i8,XX,yellow,j,diamond,color_single,颜色,,,,,,,,,,,0,0,0,0,0,0,0,0,0,15,15,15,,,,,,,,,,,,,,,,,,,,,,,,,,,,,,,,,,,1211.360883400077,1211.5616979000624,1211.5445136000635,1211.8448203000007,1211.8448203000007,None,1212.3458943000296,None,j,1,0.7799696000292897,1212.3458943000296,None,None,None,1213.1467906000325,None,,,,,,,,,,,,,,,,,,,,,11040,1,1,2024_Jun_04_1004,stroop_task_switching2,2021.2.3,59.938060025567516,
condition/block_color,instruction/instr_color,instruction/i8,XX,red,d,diamond,color_single,颜色,,,,,,,,,,,0,0,0,0,0,0,0,0,0,16,16,16,,,,,,,,,,,,,,,,,,,,,,,,,,,,,,,,,,,1214.148779900046,1214.3488127000164,1214.3328169999877,1214.6327610000735,1214.6327610000735,None,1215.1332756000338,None,d,1,0.6086198000703007,1215.1332756000338,None,None,None,1215.7675705000293,None,,,,,,,,,,,,,,,,,,,,,11040,1,1,2024_Jun_04_1004,stroop_task_switching2,2021.2.3,59.938060025567516,
condition/block_color,instruction/instr_color,instruction/i8,XX,green,k,diamond,color_single,颜色,,,,,,,,,,,0,0,0,0,0,0,0,0,0,17,17,17,,,,,,,,,,,,,,,,,,,,,,,,,,,,,,,,,,,1216.7692235000432,1216.969442200032,1216.953392000054,1217.2531013999833,1217.2531013999833,None,1217.753900700016,None,k,1,0.700187100097537,1217.753900700016,None,None,None,1218.471598300035,None,,,,,,,,,,,,,,,,,,,,,11040,1,1,2024_Jun_04_1004,stroop_task_switching2,2021.2.3,59.938060025567516,
condition/block_color,instruction/instr_color,instruction/i8,XX,yellow,j,diamond,color_single,颜色,,,,,,,,,,,0,0,0,0,0,0,0,0,0,18,18,18,,,,,,,,,,,,,,,,,,,,,,,,,,,,,,,,,,,1219.4731913000578,1219.674561400083,1219.6568585000932,1219.95750280004,1219.95750280004,None,1220.4583968000952,None,j,1,0.8036282999673858,1220.4583968000952,None,None,None,1221.292034400045,None,,,,,,,,,,,,,,,,,,,,,11040,1,1,2024_Jun_04_1004,stroop_task_switching2,2021.2.3,59.938060025567516,
condition/block_color,instruction/instr_color,instruction/i8,XX,blue,f,diamond,color_single,颜色,,,,,,,,,,,0,0,0,0,0,0,0,0,0,19,19,19,,,,,,,,,,,,,,,,,,,,,,,,,,,,,,,,,,,1222.294135000091,1222.4950335000176,1222.4776150999824,1222.7789433000144,1222.7789433000144,None,1223.2787427000003,None,f,1,0.6391933999257162,1223.2787427000003,None,None,None,1223.9464023000328,None,,,,,,,,,,,,,,,,,,,,,11040,1,1,2024_Jun_04_1004,stroop_task_switching2,2021.2.3,59.938060025567516,
condition/block_color,instruction/instr_color,instruction/i8,XX,green,k,diamond,color_single,颜色,,,,,,,,,,,0,0,0,0,0,0,0,0,0,20,20,20,,,,,,,,,,,,,,,,,,,,,,,,,,,,,,,,,,,1224.9483073999872,1225.149593200069,1225.1317813000642,1225.4320279000094,1225.4320279000094,None,1225.932960200007,None,k,1,0.6091910999966785,1225.932960200007,None,None,None,1226.567060600035,None,,,,,,,,,,,,,,,,,,,,,11040,1,1,2024_Jun_04_1004,stroop_task_switching2,2021.2.3,59.938060025567516,
condition/block_color,instruction/instr_color,instruction/i8,XX,yellow,j,diamond,color_single,颜色,,,,,,,,,,,0,0,0,0,0,0,0,0,0,21,21,21,,,,,,,,,,,,,,,,,,,,,,,,,,,,,,,,,,,1227.5687820999883,1227.7690981000196,1227.752368699992,1228.0527116000885,1228.0527116000885,None,1228.5533477000427,None,j,1,0.8047779999906197,1228.5533477000427,None,None,None,1229.3876549000852,None,,,,,,,,,,,,,,,,,,,,,11040,1,1,2024_Jun_04_1004,stroop_task_switching2,2021.2.3,59.938060025567516,
condition/block_color,instruction/instr_color,instruction/i8,XX,blue,f,diamond,color_single,颜色,,,,,,,,,,,0,0,0,0,0,0,0,0,0,22,22,22,,,,,,,,,,,,,,,,,,,,,,,,,,,,,,,,,,,1230.3895406000083,1230.5904206000268,1230.5734030000167,1230.8742850000272,1230.8742850000272,None,1231.3743883999996,None,f,1,0.6799323000013828,1231.3743883999996,None,None,None,1232.0753778000362,None,,,,,,,,,,,,,,,,,,,,,11040,1,1,2024_Jun_04_1004,stroop_task_switching2,2021.2.3,59.938060025567516,
condition/block_color,instruction/instr_color,instruction/i8,XX,red,d,diamond,color_single,颜色,,,,,,,,,,,0,0,0,0,0,0,0,0,0,23,23,23,,,,,,,,,,,,,,,,,,,,,,,,,,,,,,,,,,,1233.0777217000723,1233.2774223000742,1233.2607402000576,1233.5615395000204,1233.5615395000204,None,1234.0618221000768,None,d,1,0.31259520002640784,1234.0618221000768,None,None,None,1234.3954720000038,None,,,,,,,,,,,,,,,,,,,,,11040,1,1,2024_Jun_04_1004,stroop_task_switching2,2021.2.3,59.938060025567516,
condition/block_color,instruction/instr_color,instruction/i8,,,,,,,,,,,,,,,,,0,0,0,0,0,0,0,0,,,,,,,,,,,,,,,,,,,,,,,,,,,,,,,,,,,,,,,,,,,,,,,,,,,,,,,,1235.4139454000397,None,space,2.6015327000059187,1235.4139454000397,None,,,,,,,,,,,,,,,11040,1,1,2024_Jun_04_1004,stroop_task_switching2,2021.2.3,59.938060025567516,
condition/block_color,instruction/instr_color,instruction/i8,,,,,,,,,,,,,,,,,0,0,0,0,,,,,,,,,,,,,,,,,,,,,,,,,,,,,,,,,,,,,,,,,,,,,,,,,,,,,,,,,,,,,,,,,,,,,,,,,,,,,,,,11040,1,1,2024_Jun_04_1004,stroop_task_switching2,2021.2.3,59.938060025567516,
condition/block_word,instruction/instr_word,instruction/i9,黄,white,j,square,word_single,单词,0.0032461461866890584,,,,,,,,,,0,1,1,1,0,0,0,0,0,0,0,0,,,,,,,,,,,,,,,,,,,,,1238.0678525000112,None,space,8.762861100025475,1238.0678525000112,None,1247.8495198000455,1248.851055999985,1248.851055999985,1249.853456599987,1249.853456599987,None,1246.864487700048,1247.8661110000685,1250.8703671999974,1251.0709610000486,1251.0709610000486,1251.3717031000415,1251.3717031000415,None,1251.8552708000643,None,j,1,0.8957307999953628,1251.8552708000643,None,None,None,1252.8069849000312,None,,,,,,,,,,,,,,,,,,,,,11040,1,1,2024_Jun_04_1004,stroop_task_switching2,2021.2.3,59.938060025567516,
condition/block_word,instruction/instr_word,instruction/i9,蓝,white,f,square,word_single,单词,0.060540570646362424,,,,,,,,,,0,1,1,1,0,0,0,0,0,1,1,1,,,,,,,,,,,,,,,,,,,,,,,,,,,,,,,,,,,1253.7916134999832,1253.9932753000176,1253.9752201000229,1254.275996100041,1254.275996100041,None,1254.7762925000861,None,f,1,2.29448009992484,1254.7762925000861,None,None,None,1257.0965684000403,None,,,,,,,,,,,,,,,,,,,,,11040,1,1,2024_Jun_04_1004,stroop_task_switching2,2021.2.3,59.938060025567516,
condition/block_word,instruction/instr_word,instruction/i9,黄,white,j,square,word_single,单词,0.06994067193778963,,,,,,,,,,0,1,1,1,0,0,0,0,0,2,2,2,,,,,,,,,,,,,,,,,,,,,,,,,,,,,,,,,,,1258.098173400038,1258.298528400017,1258.2815318000503,1258.5838406999828,1258.5838406999828,None,1259.0996273000492,None,j,1,0.7636596000520512,1259.0996273000492,None,None,None,1259.8842410000507,None,,,,,,,,,,,,,,,,,,,,,11040,1,1,2024_Jun_04_1004,stroop_task_switching2,2021.2.3,59.938060025567516,
condition/block_word,instruction/instr_word,instruction/i9,蓝,white,f,square,word_single,单词,0.08193765152950094,,,,,,,,,,0,1,1,1,0,0,0,0,0,3,3,3,,,,,,,,,,,,,,,,,,,,,,,,,,,,,,,,,,,1260.8863902000012,1261.0876933999825,1261.0693657000083,1261.3697027000599,1261.3697027000599,None,1261.8705257000402,None,f,1,0.6012025000527501,1261.8705257000402,None,None,None,1262.4879281000467,None,,,,,,,,,,,,,,,,,,,,,11040,1,1,2024_Jun_04_1004,stroop_task_switching2,2021.2.3,59.938060025567516,
condition/block_word,instruction/instr_word,instruction/i9,红,white,d,square,word_single,单词,0.1279694370605574,,,,,,,,,,0,1,1,1,0,0,0,0,0,4,4,4,,,,,,,,,,,,,,,,,,,,,,,,,,,,,,,,,,,1263.4894602000713,1263.6902718000347,1263.67312520009,1263.9743457000004,1263.9743457000004,None,1264.4743247000733,None,d,1,0.48517100000754,1264.4743247000733,None,None,None,1264.975164600066,None,,,,,,,,,,,,,,,,,,,,,11040,1,1,2024_Jun_04_1004,stroop_task_switching2,2021.2.3,59.938060025567516,
condition/block_word,instruction/instr_word,instruction/i9,红,white,d,square,word_single,单词,0.18345028784879092,,,,,,,,,,0,1,1,1,0,0,0,0,0,5,5,5,,,,,,,,,,,,,,,,,,,,,,,,,,,,,,,,,,,1265.976464400068,1266.177294800058,1266.1600798000582,1266.4608643000247,1266.4608643000247,None,1266.9613642999902,None,d,1,0.5181188000133261,1266.9613642999902,None,None,None,1267.495522000012,None,,,,,,,,,,,,,,,,,,,,,11040,1,1,2024_Jun_04_1004,stroop_task_switching2,2021.2.3,59.938060025567516,
condition/block_word,instruction/instr_word,instruction/i9,蓝,white,f,square,word_single,单词,0.19920386223101294,,,,,,,,,,0,1,1,1,0,0,0,0,0,6,6,6,,,,,,,,,,,,,,,,,,,,,,,,,,,,,,,,,,,1268.4971192000667,1268.6975525000598,1268.6819061000133,1268.9823898000177,1268.9823898000177,None,1269.4819921000162,None,f,1,0.6531841000542045,1269.4819921000162,None,None,None,1270.1831694000866,None,,,,,,,,,,,,,,,,,,,,,11040,1,1,2024_Jun_04_1004,stroop_task_switching2,2021.2.3,59.938060025567516,
condition/block_word,instruction/instr_word,instruction/i9,蓝,white,f,square,word_single,单词,0.26360599864925405,,,,,,,,,,0,1,1,1,0,0,0,0,0,7,7,7,,,,,,,,,,,,,,,,,,,,,,,,,,,,,,,,,,,1271.1844418999972,1271.3849009000696,1271.351565900026,1271.651720300084,1271.651720300084,None,1272.15264320001,None,f,1,0.6310154999373481,1272.15264320001,None,None,None,1272.8035386999836,None,,,,,,,,,,,,,,,,,,,,,11040,1,1,2024_Jun_04_1004,stroop_task_switching2,2021.2.3,59.938060025567516,
condition/block_word,instruction/instr_word,instruction/i9,蓝,white,f,square,word_single,单词,0.358985675745526,,,,,,,,,,0,1,1,1,0,0,0,0,0,8,8,8,,,,,,,,,,,,,,,,,,,,,,,,,,,,,,,,,,,1273.8052638000809,1274.0053552000318,1273.9887947000097,1274.2895978000015,1274.2895978000015,None,1274.7900000000373,None,f,1,0.5617332000983879,1274.7900000000373,None,None,None,1275.3740172000835,None,,,,,,,,,,,,,,,,,,,,,11040,1,1,2024_Jun_04_1004,stroop_task_switching2,2021.2.3,59.938060025567516,
condition/block_word,instruction/instr_word,instruction/i9,绿,white,k,square,word_single,单词,0.36496733802487347,,,,,,,,,,0,1,1,1,0,0,0,0,0,9,9,9,,,,,,,,,,,,,,,,,,,,,,,,,,,,,,,,,,,1276.3757715000538,1276.5760567000834,1276.5593362000072,1276.8599158000434,1276.8599158000434,None,1277.3604036000324,None,k,1,0.791241200058721,1277.3604036000324,None,None,None,1278.17850550008,None,,,,,,,,,,,,,,,,,,,,,11040,1,1,2024_Jun_04_1004,stroop_task_switching2,2021.2.3,59.938060025567516,
condition/block_word,instruction/instr_word,instruction/i9,黄,white,j,square,word_single,单词,0.3743513623756727,,,,,,,,,,0,1,1,1,0,0,0,0,0,10,10,10,,,,,,,,,,,,,,,,,,,,,,,,,,,,,,,,,,,1279.1800392000005,1279.3812210999895,1279.3634454000276,1279.6654183000792,1279.6654183000792,None,1280.1647607000777,None,j,1,0.474929399904795,1280.1647607000777,None,None,None,1280.6653889000881,None,,,,,,,,,,,,,,,,,,,,,11040,1,1,2024_Jun_04_1004,stroop_task_switching2,2021.2.3,59.938060025567516,
condition/block_word,instruction/instr_word,instruction/i9,红,white,d,square,word_single,单词,0.3894803852598544,,,,,,,,,,0,1,1,1,0,0,0,0,0,11,11,11,,,,,,,,,,,,,,,,,,,,,,,,,,,,,,,,,,,1281.6670477000298,1281.8691559000872,1281.8506384000648,1282.1511169000296,1282.1511169000296,None,1282.6519468000624,None,d,1,0.5397156999679282,1282.6519468000624,None,None,None,1283.219276000047,None,,,,,,,,,,,,,,,,,,,,,11040,1,1,2024_Jun_04_1004,stroop_task_switching2,2021.2.3,59.938060025567516,
condition/block_word,instruction/instr_word,instruction/i9,绿,white,k,square,word_single,单词,0.5393759672408067,,,,,,,,,,0,1,1,1,0,0,0,0,0,12,12,12,,,,,,,,,,,,,,,,,,,,,,,,,,,,,,,,,,,1284.220817000023,1284.4216324000154,1284.4047060000012,1284.7047269000905,1284.7047269000905,None,1285.2053947000531,None,k,1,0.5223209999967366,1285.2053947000531,None,None,None,1285.7564860000275,None,,,,,,,,,,,,,,,,,,,,,11040,1,1,2024_Jun_04_1004,stroop_task_switching2,2021.2.3,59.938060025567516,
condition/block_word,instruction/instr_word,instruction/i9,蓝,white,f,square,word_single,单词,0.5995731954831104,,,,,,,,,,0,1,1,1,0,0,0,0,0,13,13,13,,,,,,,,,,,,,,,,,,,,,,,,,,,,,,,,,,,1286.7579186999938,1286.959343100083,1286.941849200055,1287.2422609000932,1287.2422609000932,None,1287.74294190004,None,f,1,0.4649977999506518,1287.74294190004,None,None,None,1288.2267592999851,None,,,,,,,,,,,,,,,,,,,,,11040,1,1,2024_Jun_04_1004,stroop_task_switching2,2021.2.3,59.938060025567516,
condition/block_word,instruction/instr_word,instruction/i9,红,white,d,square,word_single,单词,0.6298674479151414,,,,,,,,,,0,1,1,1,0,0,0,0,0,14,14,14,,,,,,,,,,,,,,,,,,,,,,,,,,,,,,,,,,,1289.228350099991,1289.4291945000878,1289.4120353000471,1289.7125702000922,1289.7125702000922,None,1290.2132086000638,None,d,1,0.5226803000550717,1290.2132086000638,None,None,None,1290.7639803000493,None,,,,,,,,,,,,,,,,,,,,,11040,1,1,2024_Jun_04_1004,stroop_task_switching2,2021.2.3,59.938060025567516,
condition/block_word,instruction/instr_word,instruction/i9,红,white,d,square,word_single,单词,0.7389942282348904,,,,,,,,,,0,1,1,1,0,0,0,0,0,15,15,15,,,,,,,,,,,,,,,,,,,,,,,,,,,,,,,,,,,1291.7656664000824,1291.9658977000508,1291.950628700084,1292.249479399994,1292.249479399994,None,1292.7504345000489,None,d,1,0.39378030004445463,1292.7504345000489,None,None,None,1293.1675742000807,None,,,,,,,,,,,,,,,,,,,,,11040,1,1,2024_Jun_04_1004,stroop_task_switching2,2021.2.3,59.938060025567516,
condition/block_word,instruction/instr_word,instruction/i9,绿,white,k,square,word_single,单词,0.7550853947239682,,,,,,,,,,0,1,1,1,0,0,0,0,0,16,16,16,,,,,,,,,,,,,,,,,,,,,,,,,,,,,,,,,,,1294.1691459000576,1294.3706032000482,1294.3527157000499,1294.6543515000958,1294.6543515000958,None,1295.1541169000557,None,k,1,0.6142296000616625,1295.1541169000557,None,None,None,1295.7882654999848,None,,,,,,,,,,,,,,,,,,,,,11040,1,1,2024_Jun_04_1004,stroop_task_switching2,2021.2.3,59.938060025567516,
condition/block_word,instruction/instr_word,instruction/i9,绿,white,k,square,word_single,单词,0.8019302780428206,,,,,,,,,,0,1,1,1,0,0,0,0,0,17,17,17,,,,,,,,,,,,,,,,,,,,,,,,,,,,,,,,,,,1296.7896300000139,1296.991148400004,1296.973267100053,1297.2745433000382,1297.2745433000382,None,1297.7748125999933,None,k,1,0.5293830999871716,1297.7748125999933,None,None,None,1298.3253500000574,None,,,,,,,,,,,,,,,,,,,,,11040,1,1,2024_Jun_04_1004,stroop_task_switching2,2021.2.3,59.938060025567516,
condition/block_word,instruction/instr_word,instruction/i9,绿,white,k,square,word_single,单词,0.8110702914095343,,,,,,,,,,0,1,1,1,0,0,0,0,0,18,18,18,,,,,,,,,,,,,,,,,,,,,,,,,,,,,,,,,,,1299.3269174000015,1299.5286583000561,1299.5103864000412,1299.8109903000295,1299.8109903000295,None,1300.3120205000741,None,k,1,0.5282584999222308,1300.3120205000741,None,None,None,1300.8626568000764,None,,,,,,,,,,,,,,,,,,,,,11040,1,1,2024_Jun_04_1004,stroop_task_switching2,2021.2.3,59.938060025567516,
condition/block_word,instruction/instr_word,instruction/i9,黄,white,j,square,word_single,单词,0.8176594937590999,,,,,,,,,,0,1,1,1,0,0,0,0,0,19,19,19,,,,,,,,,,,,,,,,,,,,,,,,,,,,,,,,,,,1301.864140800084,1302.065183000057,1302.0478610000573,1302.349185100058,1302.349185100058,None,1302.848805100075,None,j,1,0.4394341000588611,1302.848805100075,None,None,None,1303.3163615000667,None,,,,,,,,,,,,,,,,,,,,,11040,1,1,2024_Jun_04_1004,stroop_task_switching2,2021.2.3,59.938060025567516,
condition/block_word,instruction/instr_word,instruction/i9,红,white,d,square,word_single,单词,0.8955794421104841,,,,,,,,,,0,1,1,1,0,0,0,0,0,20,20,20,,,,,,,,,,,,,,,,,,,,,,,,,,,,,,,,,,,1304.3176206999924,1304.5182611000491,1304.5025469000684,1304.8025396000594,1304.8025396000594,None,1305.3028604000574,None,d,1,0.593538900022395,1305.3028604000574,None,None,None,1305.9201270000776,None,,,,,,,,,,,,,,,,,,,,,11040,1,1,2024_Jun_04_1004,stroop_task_switching2,2021.2.3,59.938060025567516,
condition/block_word,instruction/instr_word,instruction/i9,绿,white,k,square,word_single,单词,0.9113598052474129,,,,,,,,,,0,1,1,1,0,0,0,0,0,21,21,21,,,,,,,,,,,,,,,,,,,,,,,,,,,,,,,,,,,1306.9218985000625,1307.1220285000745,1307.105562300072,1307.4056009000633,1307.4056009000633,None,1307.9065114000114,None,k,1,0.6058259999845177,1307.9065114000114,None,None,None,1308.5410586000653,None,,,,,,,,,,,,,,,,,,,,,11040,1,1,2024_Jun_04_1004,stroop_task_switching2,2021.2.3,59.938060025567516,
condition/block_word,instruction/instr_word,instruction/i9,黄,white,j,square,word_single,单词,0.9215930958042953,,,,,,,,,,0,1,1,1,0,0,0,0,0,22,22,22,,,,,,,,,,,,,,,,,,,,,,,,,,,,,,,,,,,1309.5426545999944,1309.7435104000615,1309.7259277000558,1310.026186900097,1310.026186900097,None,1310.5269417000236,None,j,1,0.5214766000863165,1310.5269417000236,None,None,None,1311.0778570000548,None,,,,,,,,,,,,,,,,,,,,,11040,1,1,2024_Jun_04_1004,stroop_task_switching2,2021.2.3,59.938060025567516,
condition/block_word,instruction/instr_word,instruction/i9,黄,white,j,square,word_single,单词,0.9493525498837774,,,,,,,,,,0,1,1,1,0,0,0,0,0,23,23,23,,,,,,,,,,,,,,,,,,,,,,,,,,,,,,,,,,,1312.0794133000309,1312.2800934000406,1312.2630335000576,1312.5646767000435,1312.5646767000435,None,1313.0643389000325,None,j,1,0.4479018000420183,1313.0643389000325,None,None,None,1313.5315879000118,None,,,,,,,,,,,,,,,,,,,,,11040,1,1,2024_Jun_04_1004,stroop_task_switching2,2021.2.3,59.938060025567516,
condition/block_word,instruction/instr_word,instruction/i9,,,,,,,,,,,,,,,,,0,1,1,1,0,0,0,0,,,,,,,,,,,,,,,,,,,,,,,,,,,,,,,,,,,,,,,,,,,,,,,,,,,,,,,,1314.532953200047,None,space,3.178668300039135,1314.532953200047,None,,,,,,,,,,,,,,,11040,1,1,2024_Jun_04_1004,stroop_task_switching2,2021.2.3,59.938060025567516,
condition/block_word,instruction/instr_word,instruction/i9,,,,,,,,,,,,,,,,,0,1,1,1,,,,,,,,,,,,,,,,,,,,,,,,,,,,,,,,,,,,,,,,,,,,,,,,,,,,,,,,,,,,,,,,,,,,,,,,,,,,,,,,11040,1,1,2024_Jun_04_1004,stroop_task_switching2,2021.2.3,59.938060025567516,
condition/block_mixed,instruction/instr_mixed,instruction/i10,蓝,red,d,diamond,color_mix,颜色,,incompatible,0,,,,,,,,0,2,2,2,0,0,0,0,0,0,0,0,,,,,,,,,,,,,,,,,,,,,1317.7715852999827,None,space,18.045386500074528,1317.7715852999827,None,1336.8514246999985,1337.8514549999963,1337.8514549999963,1338.8535691000288,1338.8535691000288,None,1335.8654286999954,1336.8668636000948,1339.8881642000051,1340.088263200014,1340.0719687000383,1340.3738371999934,1340.3738371999934,None,1340.8563140000915,None,d,1,1.0009765999857336,1340.8563140000915,None,None,None,1341.9084919000743,None,,,,,,,,,,,,,,,,,,,,,11040,1,1,2024_Jun_04_1004,stroop_task_switching2,2021.2.3,59.938060025567516,
condition/block_mixed,instruction/instr_mixed,instruction/i10,绿,yellow,j,diamond,color_mix,颜色,,incompatible,1,,,,,,,,0,2,2,2,0,0,0,0,0,1,1,1,,,,,,,,,,,,,,,,,,,,,,,,,,,,,,,,,,,1342.8926408999832,1343.0950171999866,1343.0761360999895,1343.3768268000567,1343.3768268000567,None,1343.877624600078,None,j,1,1.4037070999620482,1343.877624600078,None,None,None,1345.2961794000585,None,,,,,,,,,,,,,,,,,,,,,11040,1,1,2024_Jun_04_1004,stroop_task_switching2,2021.2.3,59.938060025567516,
condition/block_mixed,instruction/instr_mixed,instruction/i10,红,green,k,diamond,color_mix,颜色,,incompatible,1,,,,,,,,0,2,2,2,0,0,0,0,0,2,2,2,,,,,,,,,,,,,,,,,,,,,,,,,,,,,,,,,,,1346.297514899983,1346.4991671000607,1346.4812676000874,1346.78302610002,1346.78302610002,None,1347.2827692000428,None,k,1,1.8788316000718623,1347.2827692000428,None,None,None,1349.1854645999847,None,,,,,,,,,,,,,,,,,,,,,11040,1,1,2024_Jun_04_1004,stroop_task_switching2,2021.2.3,59.938060025567516,
condition/block_mixed,instruction/instr_mixed,instruction/i10,蓝,red,d,diamond,color_mix,颜色,,incompatible,1,,,,,,,,0,2,2,2,0,0,0,0,0,3,3,3,,,,,,,,,,,,,,,,,,,,,,,,,,,,,,,,,,,1350.186897900072,1350.3884282000363,1350.3704991000704,1350.671846800018,1350.671846800018,None,1351.1717163000721,None,d,1,1.0696847999934107,1351.1717163000721,None,None,None,1352.2732513000956,None,,,,,,,,,,,,,,,,,,,,,11040,1,1,2024_Jun_04_1004,stroop_task_switching2,2021.2.3,59.938060025567516,
condition/block_mixed,instruction/instr_mixed,instruction/i10,红,blue,f,diamond,color_mix,颜色,,incompatible,1,,,,,,,,0,2,2,2,0,0,0,0,0,4,4,4,,,,,,,,,,,,,,,,,,,,,,,,,,,,,,,,,,,1353.274692600011,1353.4753978000954,1353.4584493000293,1353.7604194000596,1353.7604194000596,None,1354.2597103000153,None,f,1,0.6779351000441238,1354.2597103000153,None,None,None,1354.9607466000598,None,,,,,,,,,,,,,,,,,,,,,11040,1,1,2024_Jun_04_1004,stroop_task_switching2,2021.2.3,59.938060025567516,
condition/block_mixed,instruction/instr_mixed,instruction/i10,红,blue,d,square,color_mix,单词,,incompatible,2,,,,,,,,0,2,2,2,0,0,0,0,0,5,5,5,,,,,,,,,,,,,,,,,,,,,,,,,,,,,,,,,,,1355.9623734999914,1356.1636549000395,1356.1459529000567,1356.4466595000122,1356.4466595000122,None,1356.9468721000012,None,d,1,0.6628204999724403,1356.9468721000012,None,None,None,1357.631546700024,None,,,,,,,,,,,,,,,,,,,,,11040,1,1,2024_Jun_04_1004,stroop_task_switching2,2021.2.3,59.938060025567516,
condition/block_mixed,instruction/instr_mixed,instruction/i10,红,yellow,j,diamond,color_mix,颜色,,incompatible,2,,,,,,,,0,2,2,2,0,0,0,0,0,6,6,6,,,,,,,,,,,,,,,,,,,,,,,,,,,,,,,,,,,1358.6329430000624,1358.8350880000507,1358.816766200005,1359.1185048000189,1359.1185048000189,None,1359.6178586999886,None,j,1,1.6960466000018641,1359.6178586999886,None,None,None,1361.33689590008,None,,,,,,,,,,,,,,,,,,,,,11040,1,1,2024_Jun_04_1004,stroop_task_switching2,2021.2.3,59.938060025567516,
condition/block_mixed,instruction/instr_mixed,instruction/i10,红,yellow,d,square,color_mix,单词,,incompatible,2,,,,,,,,0,2,2,2,0,0,0,0,0,7,7,7,,,,,,,,,,,,,,,,,,,,,,,,,,,,,,,,,,,1362.3385612000711,1362.5396954000462,1362.5221608000575,1362.82381229999,1362.82381229999,None,1363.323498700047,None,d,1,0.5182736000278965,1363.323498700047,None,None,None,1363.8576117000775,None,,,,,,,,,,,,,,,,,,,,,11040,1,1,2024_Jun_04_1004,stroop_task_switching2,2021.2.3,59.938060025567516,
condition/block_mixed,instruction/instr_mixed,instruction/i10,绿,blue,k,square,color_mix,单词,,incompatible,1,,,,,,,,0,2,2,2,0,0,0,0,0,8,8,8,,,,,,,,,,,,,,,,,,,,,,,,,,,,,,,,,,,1364.8592942000832,1365.0598444000352,1365.0427345000207,1365.3442007000558,1365.3442007000558,None,1365.8439350000117,None,k,1,1.2940936000086367,1365.8439350000117,None,None,None,1367.1626129000215,None,,,,,,,,,,,,,,,,,,,,,11040,1,1,2024_Jun_04_1004,stroop_task_switching2,2021.2.3,59.938060025567516,
condition/block_mixed,instruction/instr_mixed,instruction/i10,蓝,green,k,diamond,color_mix,颜色,,incompatible,2,,,,,,,,0,2,2,2,0,0,0,0,0,9,9,9,,,,,,,,,,,,,,,,,,,,,,,,,,,,,,,,,,,1368.1639708000002,1368.365938300034,1368.3475785000483,1368.6481523000402,1368.6481523000402,None,1369.14888480003,None,f,0,1.3579007000662386,1369.14888480003,None,None,None,1370.53407230007,None,,,,,,,,,,,,,,,,,,,,,11040,1,1,2024_Jun_04_1004,stroop_task_switching2,2021.2.3,59.938060025567516,
condition/block_mixed,instruction/instr_mixed,instruction/i10,蓝,yellow,f,square,color_mix,单词,,incompatible,2,,,,,,,,0,2,2,2,0,0,0,0,0,10,10,10,,,,,,,,,,,,,,,,,,,,,,,,,,,,,,,,,,,1371.5357253000839,1371.7360829000827,1371.7207808000967,1372.0197159000672,1372.0197159000672,None,1372.5203749000793,None,j,0,1.729674099944532,1372.5203749000793,None,None,None,1374.2732088000048,None,,,,,,,,,,,,,,,,,,,,,11040,1,1,2024_Jun_04_1004,stroop_task_switching2,2021.2.3,59.938060025567516,
condition/block_mixed,instruction/instr_mixed,instruction/i10,蓝,green,f,square,color_mix,单词,,incompatible,1,,,,,,,,0,2,2,2,0,0,0,0,0,11,11,11,,,,,,,,,,,,,,,,,,,,,,,,,,,,,,,,,,,1375.2745406000176,1375.4758146000095,1375.4583154000575,1375.7595475000562,1375.7595475000562,None,1376.2596687000478,None,f,1,1.7746096999617293,1376.2596687000478,None,None,None,1378.06209510006,None,,,,,,,,,,,,,,,,,,,,,11040,1,1,2024_Jun_04_1004,stroop_task_switching2,2021.2.3,59.938060025567516,
condition/block_mixed,instruction/instr_mixed,instruction/i10,绿,yellow,k,square,color_mix,单词,,incompatible,1,,,,,,,,0,2,2,2,0,0,0,0,0,12,12,12,,,,,,,,,,,,,,,,,,,,,,,,,,,,,,,,,,,1379.0643964000046,1379.2650588999968,1379.2475133000407,1379.5478594000451,1379.5478594000451,None,1380.0485963000683,None,j,0,1.0416722999652848,1380.0485963000683,None,None,None,1381.1168773000827,None,,,,,,,,,,,,,,,,,,,,,11040,1,1,2024_Jun_04_1004,stroop_task_switching2,2021.2.3,59.938060025567516,
condition/block_mixed,instruction/instr_mixed,instruction/i10,绿,blue,f,diamond,color_mix,颜色,,incompatible,2,,,,,,,,0,2,2,2,0,0,0,0,0,13,13,13,,,,,,,,,,,,,,,,,,,,,,,,,,,,,,,,,,,1382.118380800006,1382.3195323999971,1382.302262900048,1382.6025416000048,1382.6025416000048,None,1383.1033004000783,None,f,1,2.4272825999651104,1383.1033004000783,None,None,None,1385.5568629000336,None,,,,,,,,,,,,,,,,,,,,,11040,1,1,2024_Jun_04_1004,stroop_task_switching2,2021.2.3,59.938060025567516,
condition/block_mixed,instruction/instr_mixed,instruction/i10,黄,red,j,square,color_mix,单词,,incompatible,2,,,,,,,,0,2,2,2,0,0,0,0,0,14,14,14,,,,,,,,,,,,,,,,,,,,,,,,,,,,,,,,,,,1386.5584610000951,1386.7592708000448,1386.7420469000936,1387.0427404000657,1387.0427404000657,None,1387.5432636000914,1390.548155000084,None,0,,1387.5432636000914,1390.548155000084,1390.530876200064,None,1391.1486456000712,None,,,,,,,,,,,,,,,,,,,,,11040,1,1,2024_Jun_04_1004,stroop_task_switching2,2021.2.3,59.938060025567516,
condition/block_mixed,instruction/instr_mixed,instruction/i10,蓝,yellow,j,diamond,color_mix,颜色,,incompatible,2,,,,,,,,0,2,2,2,0,0,0,0,0,15,15,15,,,,,,,,,,,,,,,,,,,,,,,,,,,,,,,,,,,1392.1501565000508,1392.3512797000585,1392.333767700009,1392.6356555999955,1392.6356555999955,None,1393.135306400014,None,j,1,1.1233826000243425,1393.135306400014,None,None,None,1394.2867889000336,None,,,,,,,,,,,,,,,,,,,,,11040,1,1,2024_Jun_04_1004,stroop_task_switching2,2021.2.3,59.938060025567516,
condition/block_mixed,instruction/instr_mixed,instruction/i10,黄,red,d,diamond,color_mix,颜色,,incompatible,1,,,,,,,,0,2,2,2,0,0,0,0,0,16,16,16,,,,,,,,,,,,,,,,,,,,,,,,,,,,,,,,,,,1395.2884933000896,1395.4885171999922,1395.4733785000863,1395.789152399986,1395.773825100041,None,1396.2733594999881,None,d,1,0.9292630000272766,1396.2733594999881,None,None,None,1397.2245569000952,None,,,,,,,,,,,,,,,,,,,,,11040,1,1,2024_Jun_04_1004,stroop_task_switching2,2021.2.3,59.938060025567516,
condition/block_mixed,instruction/instr_mixed,instruction/i10,绿,red,k,square,color_mix,单词,,incompatible,2,,,,,,,,0,2,2,2,0,0,0,0,0,17,17,17,,,,,,,,,,,,,,,,,,,,,,,,,,,,,,,,,,,1398.2259648999898,1398.4281679000705,1398.409900900093,1398.7111686000135,1398.7111686000135,None,1399.2108872000827,None,k,1,0.8718839000212029,1399.2108872000827,None,None,None,1400.1297275000252,None,,,,,,,,,,,,,,,,,,,,,11040,1,1,2024_Jun_04_1004,stroop_task_switching2,2021.2.3,59.938060025567516,
condition/block_mixed,instruction/instr_mixed,instruction/i10,红,green,d,square,color_mix,单词,,incompatible,1,,,,,,,,0,2,2,2,0,0,0,0,0,18,18,18,,,,,,,,,,,,,,,,,,,,,,,,,,,,,,,,,,,1401.1312556000194,1401.3308467000024,1401.29745120008,1401.5992838999955,1401.5992838999955,None,1402.0984994000755,None,d,1,0.8082202000077814,1402.0984994000755,None,None,None,1402.93313270004,None,,,,,,,,,,,,,,,,,,,,,11040,1,1,2024_Jun_04_1004,stroop_task_switching2,2021.2.3,59.938060025567516,
condition/block_mixed,instruction/instr_mixed,instruction/i10,黄,blue,f,diamond,color_mix,颜色,,incompatible,2,,,,,,,,0,2,2,2,0,0,0,0,0,19,19,19,,,,,,,,,,,,,,,,,,,,,,,,,,,,,,,,,,,1403.934720500023,1404.1357187000103,1404.1186716000084,1404.4190738000907,1404.4190738000907,None,1404.9194971000543,None,f,1,2.9393993000267074,1404.9194971000543,None,None,None,1407.8906681000954,None,,,,,,,,,,,,,,,,,,,,,11040,1,1,2024_Jun_04_1004,stroop_task_switching2,2021.2.3,59.938060025567516,
condition/block_mixed,instruction/instr_mixed,instruction/i10,黄,green,k,diamond,color_mix,颜色,,incompatible,1,,,,,,,,0,2,2,2,0,0,0,0,0,20,20,20,,,,,,,,,,,,,,,,,,,,,,,,,,,,,,,,,,,1408.892229899997,1409.092574600014,1409.0770094000036,1409.3772343000164,1409.3772343000164,None,1409.8770034000045,None,k,1,0.8539702000562102,1409.8770034000045,None,None,None,1410.7617666000733,None,,,,,,,,,,,,,,,,,,,,,11040,1,1,2024_Jun_04_1004,stroop_task_switching2,2021.2.3,59.938060025567516,
condition/block_mixed,instruction/instr_mixed,instruction/i10,黄,green,j,square,color_mix,单词,,incompatible,2,,,,,,,,0,2,2,2,0,0,0,0,0,21,21,21,,,,,,,,,,,,,,,,,,,,,,,,,,,,,,,,,,,1411.76316219999,1411.9645916000009,1411.947065000073,1412.2471125000156,1412.2471125000156,None,1412.747908600024,None,j,1,1.2555361000122502,1412.747908600024,None,None,None,1414.0333121999865,None,,,,,,,,,,,,,,,,,,,,,11040,1,1,2024_Jun_04_1004,stroop_task_switching2,2021.2.3,59.938060025567516,
condition/block_mixed,instruction/instr_mixed,instruction/i10,黄,blue,j,square,color_mix,单词,,incompatible,1,,,,,,,,0,2,2,2,0,0,0,0,0,22,22,22,,,,,,,,,,,,,,,,,,,,,,,,,,,,,,,,,,,1415.0347025000956,1415.2358425999992,1415.2184927000199,1415.5202291000169,1415.5202291000169,None,1416.0194021000061,None,j,1,0.9920372000196949,1416.0194021000061,None,None,None,1417.03771579999,None,,,,,,,,,,,,,,,,,,,,,11040,1,1,2024_Jun_04_1004,stroop_task_switching2,2021.2.3,59.938060025567516,
condition/block_mixed,instruction/instr_mixed,instruction/i10,蓝,red,f,square,color_mix,单词,,incompatible,1,,,,,,,,0,2,2,2,0,0,0,0,0,23,23,23,,,,,,,,,,,,,,,,,,,,,,,,,,,,,,,,,,,1418.0391551000066,1418.2398697000463,1418.2228430000832,1418.5232960000867,1418.5232960000867,None,1419.0240546000423,None,k,0,0.9238433000864461,1419.0240546000423,None,None,None,1419.9754597999854,None,,,,,,,,,,,,,,,,,,,,,11040,1,1,2024_Jun_04_1004,stroop_task_switching2,2021.2.3,59.938060025567516,
condition/block_mixed,instruction/instr_mixed,instruction/i10,绿,red,d,diamond,color_mix,颜色,,incompatible,2,,,,,,,,0,2,2,2,0,0,0,0,0,24,24,24,,,,,,,,,,,,,,,,,,,,,,,,,,,,,,,,,,,1420.976974899997,1421.1781564999837,1421.1605441999855,1421.4614236000925,1421.4614236000925,None,1421.9618021000642,None,d,1,2.1215285999933258,1421.9618021000642,None,None,None,1424.1150682000443,None,,,,,,,,,,,,,,,,,,,,,11040,1,1,2024_Jun_04_1004,stroop_task_switching2,2021.2.3,59.938060025567516,
condition/block_mixed,instruction/instr_mixed,instruction/i10,绿,green,k,diamond,color_mix,颜色,,compatible,1,,,,,,,,0,2,2,2,0,0,0,0,0,25,25,25,,,,,,,,,,,,,,,,,,,,,,,,,,,,,,,,,,,1425.1165711000795,1425.316787900054,1425.3001941000111,1425.6008772000205,1425.6008772000205,None,1426.1012323000468,1429.1061160000972,None,0,,1426.1012323000468,1429.1061160000972,1429.0724126000423,None,1429.673362600035,None,,,,,,,,,,,,,,,,,,,,,11040,1,1,2024_Jun_04_1004,stroop_task_switching2,2021.2.3,59.938060025567516,
condition/block_mixed,instruction/instr_mixed,instruction/i10,蓝,blue,f,diamond,color_mix,颜色,,compatible,1,,,,,,,,0,2,2,2,0,0,0,0,0,26,26,26,,,,,,,,,,,,,,,,,,,,,,,,,,,,,,,,,,,1430.674862600048,1430.875167399994,1430.860147700063,1431.1597817000002,1431.1597817000002,None,1431.6597165000858,None,f,1,1.2078698000404984,1431.6597165000858,None,None,None,1432.8949252000311,None,,,,,,,,,,,,,,,,,,,,,11040,1,1,2024_Jun_04_1004,stroop_task_switching2,2021.2.3,59.938060025567516,
condition/block_mixed,instruction/instr_mixed,instruction/i10,绿,green,k,square,color_mix,单词,,compatible,2,,,,,,,,0,2,2,2,0,0,0,0,0,27,27,27,,,,,,,,,,,,,,,,,,,,,,,,,,,,,,,,,,,1433.8964332999894,1434.0973812000593,1434.0803655000636,1434.381648999988,1434.381648999988,None,1434.8814205999952,None,k,1,0.6745236000278965,1434.8814205999952,None,None,None,1435.5824292000616,None,,,,,,,,,,,,,,,,,,,,,11040,1,1,2024_Jun_04_1004,stroop_task_switching2,2021.2.3,59.938060025567516,
condition/block_mixed,instruction/instr_mixed,instruction/i10,绿,green,k,square,color_mix,单词,,compatible,1,,,,,,,,0,2,2,2,0,0,0,0,0,28,28,28,,,,,,,,,,,,,,,,,,,,,,,,,,,,,,,,,,,1436.583804700058,1436.7850593000185,1436.767355500022,1437.06816600007,1437.06816600007,None,1437.5691668000072,None,k,1,0.7226040998939425,1437.5691668000072,None,None,None,1438.3198192000855,None,,,,,,,,,,,,,,,,,,,,,11040,1,1,2024_Jun_04_1004,stroop_task_switching2,2021.2.3,59.938060025567516,
condition/block_mixed,instruction/instr_mixed,instruction/i10,蓝,blue,f,square,color_mix,单词,,compatible,1,,,,,,,,0,2,2,2,0,0,0,0,0,29,29,29,,,,,,,,,,,,,,,,,,,,,,,,,,,,,,,,,,,1439.3211932000704,1439.5223201999906,1439.504815399996,1439.8061115000164,1439.8061115000164,None,1440.306192100048,None,f,1,1.377996199997142,1440.306192100048,None,None,None,1441.7082164000021,None,,,,,,,,,,,,,,,,,,,,,11040,1,1,2024_Jun_04_1004,stroop_task_switching2,2021.2.3,59.938060025567516,
condition/block_mixed,instruction/instr_mixed,instruction/i10,黄,yellow,j,diamond,color_mix,颜色,,compatible,2,,,,,,,,0,2,2,2,0,0,0,0,0,30,30,30,,,,,,,,,,,,,,,,,,,,,,,,,,,,,,,,,,,1442.7097609000048,1442.9102638000622,1442.8935251000803,1443.194378199987,1443.194378199987,None,1443.694473600015,None,j,1,0.8614474999485537,1443.694473600015,None,None,None,1444.5792339000618,None,,,,,,,,,,,,,,,,,,,,,11040,1,1,2024_Jun_04_1004,stroop_task_switching2,2021.2.3,59.938060025567516,
condition/block_mixed,instruction/instr_mixed,instruction/i10,绿,green,k,square,color_mix,单词,,compatible,2,,,,,,,,0,2,2,2,0,0,0,0,0,31,31,31,,,,,,,,,,,,,,,,,,,,,,,,,,,,,,,,,,,1445.580842000083,1445.781497900025,1445.7646263000788,1446.0659532999853,1446.0659532999853,None,1446.5660153999925,None,k,1,0.9183961999369785,1446.5660153999925,None,None,None,1447.5003021000884,None,,,,,,,,,,,,,,,,,,,,,11040,1,1,2024_Jun_04_1004,stroop_task_switching2,2021.2.3,59.938060025567516,
condition/block_mixed,instruction/instr_mixed,instruction/i10,黄,yellow,j,square,color_mix,单词,,compatible,1,,,,,,,,0,2,2,2,0,0,0,0,0,32,32,32,,,,,,,,,,,,,,,,,,,,,,,,,,,,,,,,,,,1448.5016688000178,1448.7041049000109,1448.6854121000506,1448.9865194000304,1448.9865194000304,None,1449.486655100016,None,j,1,1.0300705999834463,1449.486655100016,None,None,None,1450.5383157000178,None,,,,,,,,,,,,,,,,,,,,,11040,1,1,2024_Jun_04_1004,stroop_task_switching2,2021.2.3,59.938060025567516,
condition/block_mixed,instruction/instr_mixed,instruction/i10,绿,green,k,diamond,color_mix,颜色,,compatible,2,,,,,,,,0,2,2,2,0,0,0,0,0,33,33,33,,,,,,,,,,,,,,,,,,,,,,,,,,,,,,,,,,,1451.539754300029,1451.7410954000661,1451.7233810999896,1452.0237246000906,1452.0237246000906,None,1452.5244057000382,None,k,1,0.8077236000681296,1452.5244057000382,None,None,None,1453.359290100052,None,,,,,,,,,,,,,,,,,,,,,11040,1,1,2024_Jun_04_1004,stroop_task_switching2,2021.2.3,59.938060025567516,
condition/block_mixed,instruction/instr_mixed,instruction/i10,红,red,d,square,color_mix,单词,,compatible,2,,,,,,,,0,2,2,2,0,0,0,0,0,34,34,34,,,,,,,,,,,,,,,,,,,,,,,,,,,,,,,,,,,1454.3605138000567,1454.5611633000663,1454.5442913000006,1454.8451753000263,1454.8451753000263,None,1455.3455188000808,None,d,1,0.8510524000739679,1455.3455188000808,None,None,None,1456.2134798000334,None,,,,,,,,,,,,,,,,,,,,,11040,1,1,2024_Jun_04_1004,stroop_task_switching2,2021.2.3,59.938060025567516,
condition/block_mixed,instruction/instr_mixed,instruction/i10,黄,yellow,j,square,color_mix,单词,,compatible,1,,,,,,,,0,2,2,2,0,0,0,0,0,35,35,35,,,,,,,,,,,,,,,,,,,,,,,,,,,,,,,,,,,1457.215042600059,1457.415348200011,1457.398648200091,1457.6989105000393,1457.6989105000393,None,1458.2003490000498,None,j,1,0.9320316999219358,1458.2003490000498,None,None,None,1459.1513188000536,None,,,,,,,,,,,,,,,,,,,,,11040,1,1,2024_Jun_04_1004,stroop_task_switching2,2021.2.3,59.938060025567516,
condition/block_mixed,instruction/instr_mixed,instruction/i10,绿,green,k,diamond,color_mix,颜色,,compatible,2,,,,,,,,0,2,2,2,0,0,0,0,0,36,36,36,,,,,,,,,,,,,,,,,,,,,,,,,,,,,,,,,,,1460.1529936000006,1460.3537555000512,1460.3363727000542,1460.6368310999824,1460.6368310999824,None,1461.137412799988,None,k,1,1.6191185000352561,1461.137412799988,None,None,None,1462.7732733000303,None,,,,,,,,,,,,,,,,,,,,,11040,1,1,2024_Jun_04_1004,stroop_task_switching2,2021.2.3,59.938060025567516,
condition/block_mixed,instruction/instr_mixed,instruction/i10,蓝,blue,f,square,color_mix,单词,,compatible,2,,,,,,,,0,2,2,2,0,0,0,0,0,37,37,37,,,,,,,,,,,,,,,,,,,,,,,,,,,,,,,,,,,1463.774852200062,1463.976809600019,1463.9585180000868,1464.2595298000379,1464.2595298000379,None,1464.7598958000308,None,f,1,0.9730143999913707,1464.7598958000308,None,None,None,1465.7611937000183,None,,,,,,,,,,,,,,,,,,,,,11040,1,1,2024_Jun_04_1004,stroop_task_switching2,2021.2.3,59.938060025567516,
condition/block_mixed,instruction/instr_mixed,instruction/i10,红,red,d,square,color_mix,单词,,compatible,1,,,,,,,,0,2,2,2,0,0,0,0,0,38,38,38,,,,,,,,,,,,,,,,,,,,,,,,,,,,,,,,,,,1466.762658599997,1466.9630633000052,1466.9296290000202,1467.2302150999894,1467.246684600017,None,1467.747332500061,None,d,1,1.0335621000267565,1467.747332500061,None,None,None,1468.799138100003,None,,,,,,,,,,,,,,,,,,,,,11040,1,1,2024_Jun_04_1004,stroop_task_switching2,2021.2.3,59.938060025567516,
condition/block_mixed,instruction/instr_mixed,instruction/i10,黄,yellow,j,diamond,color_mix,颜色,,compatible,2,,,,,,,,0,2,2,2,0,0,0,0,0,39,39,39,,,,,,,,,,,,,,,,,,,,,,,,,,,,,,,,,,,1469.8005633000284,1470.0016241000267,1469.9844960999908,1470.2858116000425,1470.2858116000425,None,1470.785445400048,None,j,1,0.6516061000293121,1470.785445400048,None,None,None,1471.4533116000239,None,,,,,,,,,,,,,,,,,,,,,11040,1,1,2024_Jun_04_1004,stroop_task_switching2,2021.2.3,59.938060025567516,
condition/block_mixed,instruction/instr_mixed,instruction/i10,黄,yellow,j,square,color_mix,单词,,compatible,2,,,,,,,,0,2,2,2,0,0,0,0,0,40,40,40,,,,,,,,,,,,,,,,,,,,,,,,,,,,,,,,,,,1472.4547351000365,1472.6560086000245,1472.6385201000376,1472.9396926000481,1472.9396926000481,None,1473.4393682000227,None,j,1,1.3018745000008494,1473.4393682000227,None,None,None,1474.7581373000285,None,,,,,,,,,,,,,,,,,,,,,11040,1,1,2024_Jun_04_1004,stroop_task_switching2,2021.2.3,59.938060025567516,
condition/block_mixed,instruction/instr_mixed,instruction/i10,蓝,blue,f,square,color_mix,单词,,compatible,1,,,,,,,,0,2,2,2,0,0,0,0,0,41,41,41,,,,,,,,,,,,,,,,,,,,,,,,,,,,,,,,,,,1475.7597200000891,1475.9608729000902,1475.943399199983,1476.244765700074,1476.244765700074,None,1476.7443858000915,None,f,1,1.4527535999659449,1476.7443858000915,None,None,None,1478.2132819000399,None,,,,,,,,,,,,,,,,,,,,,11040,1,1,2024_Jun_04_1004,stroop_task_switching2,2021.2.3,59.938060025567516,
condition/block_mixed,instruction/instr_mixed,instruction/i10,蓝,blue,f,diamond,color_mix,颜色,,compatible,2,,,,,,,,0,2,2,2,0,0,0,0,0,42,42,42,,,,,,,,,,,,,,,,,,,,,,,,,,,,,,,,,,,1479.214801400085,1479.4165189000778,1479.3984708000207,1479.6991831000196,1479.6991831000196,None,1480.1995363000315,None,f,1,0.8777319000801072,1480.1995363000315,None,None,None,1481.10120740009,None,,,,,,,,,,,,,,,,,,,,,11040,1,1,2024_Jun_04_1004,stroop_task_switching2,2021.2.3,59.938060025567516,
condition/block_mixed,instruction/instr_mixed,instruction/i10,黄,yellow,j,diamond,color_mix,颜色,,compatible,1,,,,,,,,0,2,2,2,0,0,0,0,0,43,43,43,,,,,,,,,,,,,,,,,,,,,,,,,,,,,,,,,,,1482.1026662000222,1482.3030174000887,1482.2870605000062,1482.5868131000316,1482.5868131000316,None,1483.0873130999971,None,j,1,0.5579236999619752,1483.0873130999971,None,None,None,1483.6717396000167,None,,,,,,,,,,,,,,,,,,,,,11040,1,1,2024_Jun_04_1004,stroop_task_switching2,2021.2.3,59.938060025567516,
condition/block_mixed,instruction/instr_mixed,instruction/i10,红,red,d,diamond,color_mix,颜色,,compatible,1,,,,,,,,0,2,2,2,0,0,0,0,0,44,44,44,,,,,,,,,,,,,,,,,,,,,,,,,,,,,,,,,,,1484.673141999985,1484.8732692000922,1484.8565420000814,1485.1570979000535,1485.1570979000535,None,1485.6581792000216,None,d,1,0.5868270000210032,1485.6581792000216,None,None,None,1486.2753489000024,None,,,,,,,,,,,,,,,,,,,,,11040,1,1,2024_Jun_04_1004,stroop_task_switching2,2021.2.3,59.938060025567516,
condition/block_mixed,instruction/instr_mixed,instruction/i10,蓝,blue,f,diamond,color_mix,颜色,,compatible,1,,,,,,,,0,2,2,2,0,0,0,0,0,45,45,45,,,,,,,,,,,,,,,,,,,,,,,,,,,,,,,,,,,1487.2772732999874,1487.477970100008,1487.4605938000605,1487.7614856000291,1487.7614856000291,None,1488.261821400025,None,f,1,0.599318900029175,1488.261821400025,None,None,None,1488.8792966000037,None,,,,,,,,,,,,,,,,,,,,,11040,1,1,2024_Jun_04_1004,stroop_task_switching2,2021.2.3,59.938060025567516,
condition/block_mixed,instruction/instr_mixed,instruction/i10,红,red,d,diamond,color_mix,颜色,,compatible,1,,,,,,,,0,2,2,2,0,0,0,0,0,46,46,46,,,,,,,,,,,,,,,,,,,,,,,,,,,,,,,,,,,1489.8809979000362,1490.0825635000365,1490.0645340000046,1490.3654763000086,1490.3654763000086,None,1490.8655895000556,None,d,1,0.571661000023596,1490.8655895000556,None,None,None,1491.4665795000037,None,,,,,,,,,,,,,,,,,,,,,11040,1,1,2024_Jun_04_1004,stroop_task_switching2,2021.2.3,59.938060025567516,
condition/block_mixed,instruction/instr_mixed,instruction/i10,红,red,d,square,color_mix,单词,,compatible,2,,,,,,,,0,2,2,2,0,0,0,0,0,47,47,47,,,,,,,,,,,,,,,,,,,,,,,,,,,,,,,,,,,1492.4681885000318,1492.6682487000944,1492.6546899999958,1492.9694143000524,1492.952173100086,None,1493.4530682000332,None,d,1,0.624421100015752,1493.4530682000332,None,None,None,1494.1039612999884,None,,,,,,,,,,,,,,,,,,,,,11040,1,1,2024_Jun_04_1004,stroop_task_switching2,2021.2.3,59.938060025567516,
condition/block_mixed,instruction/instr_mixed,instruction/i10,红,red,d,diamond,color_mix,颜色,,compatible,2,,,,,,,,0,2,2,2,0,0,0,0,0,48,48,48,,,,,,,,,,,,,,,,,,,,,,,,,,,,,,,,,,,1495.1057597000618,1495.3065883000381,1495.2892937000142,1495.591071400093,1495.591071400093,None,1496.0908135999925,None,d,1,1.3864905999507755,1496.0908135999925,None,None,None,1497.5092590000713,None,,,,,,,,,,,,,,,,,,,,,11040,1,1,2024_Jun_04_1004,stroop_task_switching2,2021.2.3,59.938060025567516,
condition/block_mixed,instruction/instr_mixed,instruction/i10,,,,,,,,,,,,,,,,,0,2,2,2,0,0,0,0,,,,,,,,,,,,,,,,,,,,,,,,,,,,,,,,,,,,,,,,,,,,,,,,,,,,,,,,1498.5280869000126,None,space,12.981888400041498,1498.5280869000126,None,,,,,,,,,,,,,,,11040,1,1,2024_Jun_04_1004,stroop_task_switching2,2021.2.3,59.938060025567516,
condition/block_mixed,instruction/instr_mixed,instruction/i10,,,,,,,,,,,,,,,,,0,2,2,2,,,,,,,,,,,,,,,,,,,,,,,,,,,,,,,,,,,,,,,,,,,,,,,,,,,,,,,,,,,,,,,,,,,,,,,,,,,,,,,,11040,1,1,2024_Jun_04_1004,stroop_task_switching2,2021.2.3,59.938060025567516,
,,,红,red,d,square,color_mix,单词,,compatible,0,block_switch1,instruction/ready_test.png,instruction/i11.png,,,,,,,,,,,,,,,,,0,0,0,0,0,0,0,0,,,,,,,,,,,,,,,,,,,1520.6446098000742,1521.6453128000721,1521.6453128000721,1522.6471366999904,1522.6471366999904,None,1519.6589268000098,1520.661383400089,1523.6818389000837,1523.883299200097,1523.8653519999934,1524.1665446000407,1524.1665446000407,None,1524.6665915000485,None,d,1,0.6917925999732688,1524.6665915000485,None,None,None,,,,,,,,,1511.5629321000306,None,space,8.067227900028229,1511.5629321000306,None,,,,,,,,,11040,1,1,2024_Jun_04_1004,stroop_task_switching2,2021.2.3,59.938060025567516,
,,,绿,green,k,diamond,color_mix,颜色,,compatible,2,block_switch1,instruction/ready_test.png,instruction/i11.png,,,,,,,,,,,,,,,,,0,0,0,0,0,1,1,1,,,,,,,,,,,,,,,,,,,,,,,,,,,1525.4184600000735,1525.6193311000243,1525.5680667000124,1525.868307900033,1525.868307900033,None,1526.3693907000124,None,k,1,1.0367821999825537,1526.3693907000124,None,None,None,,,,,,,,,,,,,,,,,,,,,,,11040,1,1,2024_Jun_04_1004,stroop_task_switching2,2021.2.3,59.938060025567516,
,,,绿,yellow,j,diamond,color_mix,颜色,,incompatible,1,block_switch1,instruction/ready_test.png,instruction/i11.png,,,,,,,,,,,,,,,,,0,0,0,0,0,2,2,2,,,,,,,,,,,,,,,,,,,,,,,,,,,1527.4553551999852,1527.6555543000577,1527.6211034000153,1527.921997700003,1527.921997700003,None,1528.4222070000833,None,j,1,0.6882911999709904,1528.4222070000833,None,None,None,,,,,,,,,,,,,,,,,,,,,,,11040,1,1,2024_Jun_04_1004,stroop_task_switching2,2021.2.3,59.938060025567516,
,,,蓝,blue,f,diamond,color_mix,颜色,,compatible,1,block_switch1,instruction/ready_test.png,instruction/i11.png,,,,,,,,,,,,,,,,,0,0,0,0,0,3,3,3,,,,,,,,,,,,,,,,,,,,,,,,,,,1529.1578949000686,1529.3582944000373,1529.323795100092,1529.6243005000288,1529.6243005000288,None,1530.1247790000634,None,f,1,0.473513700067997,1530.1247790000634,None,None,None,,,,,,,,,,,,,,,,,,,,,,,11040,1,1,2024_Jun_04_1004,stroop_task_switching2,2021.2.3,59.938060025567516,
,,,绿,green,k,square,color_mix,单词,,compatible,2,block_switch1,instruction/ready_test.png,instruction/i11.png,,,,,,,,,,,,,,,,,0,0,0,0,0,4,4,4,,,,,,,,,,,,,,,,,,,,,,,,,,,1530.6256800000556,1530.8257546999957,1530.8093714000424,1531.1100400000578,1531.1100400000578,None,1531.610669500078,None,k,1,0.7636726999189705,1531.610669500078,None,None,None,,,,,,,,,,,,,,,,,,,,,,,11040,1,1,2024_Jun_04_1004,stroop_task_switching2,2021.2.3,59.938060025567516,
,,,绿,blue,f,diamond,color_mix,颜色,,incompatible,2,block_switch1,instruction/ready_test.png,instruction/i11.png,,,,,,,,,,,,,,,,,0,0,0,0,0,5,5,5,,,,,,,,,,,,,,,,,,,,,,,,,,,1532.3954306000378,1532.5957686000038,1532.5788885999937,1532.8789362000534,1532.8789362000534,None,1533.3796634000028,None,f,1,1.9469764999812469,1533.3796634000028,None,None,None,,,,,,,,,,,,,,,,,,,,,,,11040,1,1,2024_Jun_04_1004,stroop_task_switching2,2021.2.3,59.938060025567516,
,,,黄,red,j,square,color_mix,单词,,incompatible,2,block_switch1,instruction/ready_test.png,instruction/i11.png,,,,,,,,,,,,,,,,,0,0,0,0,0,6,6,6,,,,,,,,,,,,,,,,,,,,,,,,,,,1535.3495786000276,1535.5506472000852,1535.5331767000025,1535.8339000000851,1535.8339000000851,None,1536.3340497000609,None,j,1,1.14468480006326,1536.3340497000609,None,None,None,,,,,,,,,,,,,,,,,,,,,,,11040,1,1,2024_Jun_04_1004,stroop_task_switching2,2021.2.3,59.938060025567516,
,,,绿,green,k,square,color_mix,单词,,compatible,1,block_switch1,instruction/ready_test.png,instruction/i11.png,,,,,,,,,,,,,,,,,0,0,0,0,0,7,7,7,,,,,,,,,,,,,,,,,,,,,,,,,,,1537.502759300056,1537.7050157000776,1537.686875000014,1537.9870115000522,1537.9870115000522,None,1538.4875934000593,None,k,1,1.3029241999611259,1538.4875934000593,None,None,None,,,,,,,,,,,,,,,,,,,,,,,11040,1,1,2024_Jun_04_1004,stroop_task_switching2,2021.2.3,59.938060025567516,
,,,蓝,blue,f,square,color_mix,单词,,compatible,1,block_switch1,instruction/ready_test.png,instruction/i11.png,,,,,,,,,,,,,,,,,0,0,0,0,0,8,8,8,,,,,,,,,,,,,,,,,,,,,,,,,,,1539.8063760000514,1540.0076021000277,1539.9896525000222,1540.2901622999925,1540.2901622999925,None,1540.7912268000655,None,f,1,0.7835970000596717,1540.7912268000655,None,None,None,,,,,,,,,,,,,,,,,,,,,,,11040,1,1,2024_Jun_04_1004,stroop_task_switching2,2021.2.3,59.938060025567516,
,,,红,red,d,diamond,color_mix,颜色,,compatible,2,block_switch1,instruction/ready_test.png,instruction/i11.png,,,,,,,,,,,,,,,,,0,0,0,0,0,9,9,9,,,,,,,,,,,,,,,,,,,,,,,,,,,1541.5922154000727,1541.792537500034,1541.7762979000108,1542.077065700083,1542.077065700083,None,1542.5769369000336,None,d,1,0.4458915999857709,1542.5769369000336,None,None,None,,,,,,,,,,,,,,,,,,,,,,,11040,1,1,2024_Jun_04_1004,stroop_task_switching2,2021.2.3,59.938060025567516,
,,,黄,yellow,j,diamond,color_mix,颜色,,compatible,1,block_switch1,instruction/ready_test.png,instruction/i11.png,,,,,,,,,,,,,,,,,0,0,0,0,0,10,10,10,,,,,,,,,,,,,,,,,,,,,,,,,,,1543.0443628000794,1543.2447204000782,1543.228041100083,1543.5293990999926,1543.5293990999926,None,1544.0296903999988,None,j,1,0.6015025000087917,1544.0296903999988,None,None,None,,,,,,,,,,,,,,,,,,,,,,,11040,1,1,2024_Jun_04_1004,stroop_task_switching2,2021.2.3,59.938060025567516,
,,,绿,green,k,square,color_mix,单词,,compatible,2,block_switch1,instruction/ready_test.png,instruction/i11.png,,,,,,,,,,,,,,,,,0,0,0,0,0,11,11,11,,,,,,,,,,,,,,,,,,,,,,,,,,,1544.6467024000594,1544.8474230000284,1544.8306106000673,1545.1308709000004,1545.1308709000004,None,1545.6317176000448,None,k,1,0.9992247000336647,1545.6317176000448,None,None,None,,,,,,,,,,,,,,,,,,,,,,,11040,1,1,2024_Jun_04_1004,stroop_task_switching2,2021.2.3,59.938060025567516,
,,,红,red,d,diamond,color_mix,颜色,,compatible,2,block_switch1,instruction/ready_test.png,instruction/i11.png,,,,,,,,,,,,,,,,,0,0,0,0,0,12,12,12,,,,,,,,,,,,,,,,,,,,,,,,,,,1546.6498052000534,1546.8501908000326,1546.8348481000867,1547.1339496000437,1547.1339496000437,None,1547.6346006999956,None,d,1,1.0926210000179708,1547.6346006999956,None,None,None,,,,,,,,,,,,,,,,,,,,,,,11040,1,1,2024_Jun_04_1004,stroop_task_switching2,2021.2.3,59.938060025567516,
,,,红,red,d,diamond,color_mix,颜色,,compatible,1,block_switch1,instruction/ready_test.png,instruction/i11.png,,,,,,,,,,,,,,,,,0,0,0,0,0,13,13,13,,,,,,,,,,,,,,,,,,,,,,,,,,,1548.7531104000518,1548.9534654000308,1548.936597699998,1549.2371121000033,1549.2371121000033,None,1549.7377701000078,None,d,1,0.3812497000908479,1549.7377701000078,None,None,None,,,,,,,,,,,,,,,,,,,,,,,11040,1,1,2024_Jun_04_1004,stroop_task_switching2,2021.2.3,59.938060025567516,
,,,黄,yellow,j,square,color_mix,单词,,compatible,2,block_switch1,instruction/ready_test.png,instruction/i11.png,,,,,,,,,,,,,,,,,0,0,0,0,0,14,14,14,,,,,,,,,,,,,,,,,,,,,,,,,,,1550.13832560007,1550.3396934000775,1550.3221394000575,1550.6224417000776,1550.6224417000776,None,1551.1239723000908,None,j,1,0.5950782999861985,1551.1239723000908,None,None,None,,,,,,,,,,,,,,,,,,,,,,,11040,1,1,2024_Jun_04_1004,stroop_task_switching2,2021.2.3,59.938060025567516,
,,,红,green,k,diamond,color_mix,颜色,,incompatible,2,block_switch1,instruction/ready_test.png,instruction/i11.png,,,,,,,,,,,,,,,,,0,0,0,0,0,15,15,15,,,,,,,,,,,,,,,,,,,,,,,,,,,1551.7407132000662,1551.9424144000513,1551.924213899998,1552.2251626000507,1552.2251626000507,None,1552.7256922000088,None,k,1,1.7295005000196397,1552.7256922000088,None,None,None,,,,,,,,,,,,,,,,,,,,,,,11040,1,1,2024_Jun_04_1004,stroop_task_switching2,2021.2.3,59.938060025567516,
,,,蓝,red,d,diamond,color_mix,颜色,,incompatible,1,block_switch1,instruction/ready_test.png,instruction/i11.png,,,,,,,,,,,,,,,,,0,0,0,0,0,16,16,16,,,,,,,,,,,,,,,,,,,,,,,,,,,1554.478173600044,1554.6784842000343,1554.66168010002,1554.9635536000133,1554.9635536000133,None,1555.4630177000072,None,d,1,1.215943199931644,1555.4630177000072,None,None,None,,,,,,,,,,,,,,,,,,,,,,,11040,1,1,2024_Jun_04_1004,stroop_task_switching2,2021.2.3,59.938060025567516,
,,,黄,green,k,diamond,color_mix,颜色,,incompatible,1,block_switch1,instruction/ready_test.png,instruction/i11.png,,,,,,,,,,,,,,,,,0,0,0,0,0,17,17,17,,,,,,,,,,,,,,,,,,,,,,,,,,,1556.698220500024,1556.8998595000012,1556.8818300000858,1557.182963600033,1557.182963600033,None,1557.683070500032,None,j,0,0.8199476000154391,1557.683070500032,None,None,None,,,,,,,,,,,,,,,,,,,,,,,11040,1,1,2024_Jun_04_1004,stroop_task_switching2,2021.2.3,59.938060025567516,
,,,绿,green,k,diamond,color_mix,颜色,,compatible,1,block_switch1,instruction/ready_test.png,instruction/i11.png,,,,,,,,,,,,,,,,,0,0,0,0,0,18,18,18,,,,,,,,,,,,,,,,,,,,,,,,,,,1558.5341173000634,1558.7356277999934,1558.7180829000426,1559.020313300076,1559.020313300076,None,1559.536003599991,None,k,1,1.3191807999974117,1559.536003599991,None,None,None,,,,,,,,,,,,,,,,,,,,,,,11040,1,1,2024_Jun_04_1004,stroop_task_switching2,2021.2.3,59.938060025567516,
,,,黄,red,d,diamond,color_mix,颜色,,incompatible,1,block_switch1,instruction/ready_test.png,instruction/i11.png,,,,,,,,,,,,,,,,,0,0,0,0,0,19,19,19,,,,,,,,,,,,,,,,,,,,,,,,,,,1560.8713072000537,1561.072247800068,1561.0548739000224,1561.355391500052,1561.355391500052,None,1561.8560822000727,None,d,1,1.1993990000337362,1561.8560822000727,None,None,None,,,,,,,,,,,,,,,,,,,,,,,11040,1,1,2024_Jun_04_1004,stroop_task_switching2,2021.2.3,59.938060025567516,
,,,绿,yellow,k,square,color_mix,单词,,incompatible,2,block_switch1,instruction/ready_test.png,instruction/i11.png,,,,,,,,,,,,,,,,,0,0,0,0,0,20,20,20,,,,,,,,,,,,,,,,,,,,,,,,,,,1563.0745937000029,1563.2758761000587,1563.258231200045,1563.5588834000519,1563.5588834000519,None,1564.0593611000804,None,k,1,0.9638870001072064,1564.0593611000804,None,None,None,,,,,,,,,,,,,,,,,,,,,,,11040,1,1,2024_Jun_04_1004,stroop_task_switching2,2021.2.3,59.938060025567516,
,,,绿,yellow,j,diamond,color_mix,颜色,,incompatible,2,block_switch1,instruction/ready_test.png,instruction/i11.png,,,,,,,,,,,,,,,,,0,0,0,0,0,21,21,21,,,,,,,,,,,,,,,,,,,,,,,,,,,1565.0441717000213,1565.2450788000133,1565.2278607999906,1565.528157300083,1565.528157300083,None,1566.0305207000347,None,j,1,1.6808012999827042,1566.0305207000347,None,None,None,,,,,,,,,,,,,,,,,,,,,,,11040,1,1,2024_Jun_04_1004,stroop_task_switching2,2021.2.3,59.938060025567516,
,,,绿,green,k,square,color_mix,单词,,compatible,2,block_switch1,instruction/ready_test.png,instruction/i11.png,,,,,,,,,,,,,,,,,0,0,0,0,0,22,22,22,,,,,,,,,,,,,,,,,,,,,,,,,,,1567.7319970000535,1567.934159800061,1567.9152929000556,1568.2167615999933,1568.2167615999933,None,1568.7167719000718,None,k,1,0.9306798999896273,1568.7167719000718,None,None,None,,,,,,,,,,,,,,,,,,,,,,,11040,1,1,2024_Jun_04_1004,stroop_task_switching2,2021.2.3,59.938060025567516,
,,,红,red,d,square,color_mix,单词,,compatible,1,block_switch1,instruction/ready_test.png,instruction/i11.png,,,,,,,,,,,,,,,,,0,0,0,0,0,23,23,23,,,,,,,,,,,,,,,,,,,,,,,,,,,1569.667957100086,1569.8688727000263,1569.8516327000689,1570.1521317000734,1570.1521317000734,None,1570.652731899987,None,d,1,2.1626697999890894,1570.652731899987,None,None,None,,,,,,,,,,,,,,,,,,,,,,,11040,1,1,2024_Jun_04_1004,stroop_task_switching2,2021.2.3,59.938060025567516,
,,,黄,green,j,square,color_mix,单词,,incompatible,1,block_switch1,instruction/ready_test.png,instruction/i11.png,,,,,,,,,,,,,,,,,0,0,0,0,0,24,24,24,,,,,,,,,,,,,,,,,,,,,,,,,,,1572.839099700097,1573.0394641000312,1573.0229010999901,1573.3243364000227,1573.3243364000227,None,1573.824087999994,None,j,1,1.527568099903874,1573.824087999994,None,None,None,,,,,,,,,,,,,,,,,,,,,,,11040,1,1,2024_Jun_04_1004,stroop_task_switching2,2021.2.3,59.938060025567516,
,,,红,blue,d,square,color_mix,单词,,incompatible,1,block_switch1,instruction/ready_test.png,instruction/i11.png,,,,,,,,,,,,,,,,,0,0,0,0,0,25,25,25,,,,,,,,,,,,,,,,,,,,,,,,,,,1575.3765447000042,1575.5795346000232,1575.5601583999814,1575.860559700057,1575.860559700057,None,1576.3614560000133,None,d,1,0.8464764000382274,1576.3614560000133,None,None,None,,,,,,,,,,,,,,,,,,,,,,,11040,1,1,2024_Jun_04_1004,stroop_task_switching2,2021.2.3,59.938060025567516,
,,,黄,yellow,j,square,color_mix,单词,,compatible,1,block_switch1,instruction/ready_test.png,instruction/i11.png,,,,,,,,,,,,,,,,,0,0,0,0,0,26,26,26,,,,,,,,,,,,,,,,,,,,,,,,,,,1577.2291830000468,1577.4297793000005,1577.4128491000738,1577.7133710000198,1577.7133710000198,None,1578.214028300019,None,j,1,0.8258133000927046,1578.214028300019,None,None,None,,,,,,,,,,,,,,,,,,,,,,,11040,1,1,2024_Jun_04_1004,stroop_task_switching2,2021.2.3,59.938060025567516,
,,,蓝,green,f,square,color_mix,单词,,incompatible,1,block_switch1,instruction/ready_test.png,instruction/i11.png,,,,,,,,,,,,,,,,,0,0,0,0,0,27,27,27,,,,,,,,,,,,,,,,,,,,,,,,,,,1579.0651920000091,1579.2663410999812,1579.248884200002,1579.5501960000256,1579.5501960000256,None,1580.0502666999819,None,f,1,1.7254246999509633,1580.0502666999819,None,None,None,,,,,,,,,,,,,,,,,,,,,,,11040,1,1,2024_Jun_04_1004,stroop_task_switching2,2021.2.3,59.938060025567516,
,,,绿,green,k,diamond,color_mix,颜色,,compatible,2,block_switch1,instruction/ready_test.png,instruction/i11.png,,,,,,,,,,,,,,,,,0,0,0,0,0,28,28,28,,,,,,,,,,,,,,,,,,,,,,,,,,,1581.8028756000567,1582.0041504000546,1581.9863635000074,1582.2869075000053,1582.2869075000053,None,1582.787645000033,None,k,1,1.0282723000273108,1582.787645000033,None,None,None,,,,,,,,,,,,,,,,,,,,,,,11040,1,1,2024_Jun_04_1004,stroop_task_switching2,2021.2.3,59.938060025567516,
,,,黄,blue,f,diamond,color_mix,颜色,,incompatible,1,block_switch1,instruction/ready_test.png,instruction/i11.png,,,,,,,,,,,,,,,,,0,0,0,0,0,29,29,29,,,,,,,,,,,,,,,,,,,,,,,,,,,1583.8389963000081,1584.0401320999954,1584.0226822000695,1584.3255246999906,1584.3255246999906,None,1584.8241938999854,None,f,1,1.160195800010115,1584.8241938999854,None,None,None,,,,,,,,,,,,,,,,,,,,,,,11040,1,1,2024_Jun_04_1004,stroop_task_switching2,2021.2.3,59.938060025567516,
,,,绿,green,k,diamond,color_mix,颜色,,compatible,1,block_switch1,instruction/ready_test.png,instruction/i11.png,,,,,,,,,,,,,,,,,0,0,0,0,0,30,30,30,,,,,,,,,,,,,,,,,,,,,,,,,,,1586.0092502000043,1586.2101453000214,1586.1928378000157,1586.4945043000625,1586.4945043000625,None,1586.9938552000094,None,k,1,1.1185153999831527,1586.9938552000094,None,None,None,,,,,,,,,,,,,,,,,,,,,,,11040,1,1,2024_Jun_04_1004,stroop_task_switching2,2021.2.3,59.938060025567516,
,,,蓝,blue,f,square,color_mix,单词,,compatible,2,block_switch1,instruction/ready_test.png,instruction/i11.png,,,,,,,,,,,,,,,,,0,0,0,0,0,31,31,31,,,,,,,,,,,,,,,,,,,,,,,,,,,1588.1289487000322,1588.3299882999854,1588.3126019000774,1588.6143528000684,1588.6143528000684,None,1589.1139924000017,None,f,1,0.7982750999508426,1589.1139924000017,None,None,None,,,,,,,,,,,,,,,,,,,,,,,11040,1,1,2024_Jun_04_1004,stroop_task_switching2,2021.2.3,59.938060025567516,
,,,红,red,d,square,color_mix,单词,,compatible,1,block_switch1,instruction/ready_test.png,instruction/i11.png,,,,,,,,,,,,,,,,,0,0,0,0,0,32,32,32,,,,,,,,,,,,,,,,,,,,,,,,,,,1589.9316785000265,1590.1323771000607,1590.1152039000299,1590.417594300001,1590.417594300001,None,1590.916586700012,None,d,1,0.7713195000542328,1590.916586700012,None,None,None,,,,,,,,,,,,,,,,,,,,,,,11040,1,1,2024_Jun_04_1004,stroop_task_switching2,2021.2.3,59.938060025567516,
,,,红,green,d,square,color_mix,单词,,incompatible,1,block_switch1,instruction/ready_test.png,instruction/i11.png,,,,,,,,,,,,,,,,,0,0,0,0,0,33,33,33,,,,,,,,,,,,,,,,,,,,,,,,,,,1591.717596200062,1591.918161700014,1591.9025860000402,1592.2025769000174,1592.2025769000174,None,1592.7024953000946,None,k,0,2.2735451000044122,1592.7024953000946,None,None,None,,,,,,,,,,,,,,,,,,,,,,,11040,1,1,2024_Jun_04_1004,stroop_task_switching2,2021.2.3,59.938060025567516,
,,,黄,yellow,j,diamond,color_mix,颜色,,compatible,2,block_switch1,instruction/ready_test.png,instruction/i11.png,,,,,,,,,,,,,,,,,0,0,0,0,0,34,34,34,,,,,,,,,,,,,,,,,,,,,,,,,,,1595.0061793000204,1595.20627100009,1595.1910718000727,1595.4905010000803,1595.4905010000803,None,1595.9909590000752,None,j,1,0.6735078999772668,1595.9909590000752,None,None,None,,,,,,,,,,,,,,,,,,,,,,,11040,1,1,2024_Jun_04_1004,stroop_task_switching2,2021.2.3,59.938060025567516,
,,,红,green,k,diamond,color_mix,颜色,,incompatible,1,block_switch1,instruction/ready_test.png,instruction/i11.png,,,,,,,,,,,,,,,,,0,0,0,0,0,35,35,35,,,,,,,,,,,,,,,,,,,,,,,,,,,1596.6918501000619,1596.8924986000638,1596.8754302000161,1597.1767957999837,1597.1767957999837,None,1597.6767343000975,None,k,1,1.2594969000201672,1597.6767343000975,None,None,None,,,,,,,,,,,,,,,,,,,,,,,11040,1,1,2024_Jun_04_1004,stroop_task_switching2,2021.2.3,59.938060025567516,
,,,黄,yellow,j,square,color_mix,单词,,compatible,2,block_switch1,instruction/ready_test.png,instruction/i11.png,,,,,,,,,,,,,,,,,0,0,0,0,0,36,36,36,,,,,,,,,,,,,,,,,,,,,,,,,,,1598.9619205000345,1599.163153200061,1599.145934900036,1599.4470139000332,1599.4470139000332,None,1599.9468386000954,None,j,1,0.629643699969165,1599.9468386000954,None,None,None,,,,,,,,,,,,,,,,,,,,,,,11040,1,1,2024_Jun_04_1004,stroop_task_switching2,2021.2.3,59.938060025567516,
,,,蓝,blue,f,square,color_mix,单词,,compatible,1,block_switch1,instruction/ready_test.png,instruction/i11.png,,,,,,,,,,,,,,,,,0,0,0,0,0,37,37,37,,,,,,,,,,,,,,,,,,,,,,,,,,,1600.5979643000755,1600.7982039999915,1600.7816182000097,1601.0819478000049,1601.0819478000049,None,1601.5827287000138,None,f,1,1.2021598999854177,1601.5827287000138,None,None,None,,,,,,,,,,,,,,,,,,,,,,,11040,1,1,2024_Jun_04_1004,stroop_task_switching2,2021.2.3,59.938060025567516,
,,,绿,red,d,diamond,color_mix,颜色,,incompatible,2,block_switch1,instruction/ready_test.png,instruction/i11.png,,,,,,,,,,,,,,,,,0,0,0,0,0,38,38,38,,,,,,,,,,,,,,,,,,,,,,,,,,,1602.8010775999865,1603.0021167000523,1602.984873300069,1603.285116199986,1603.285116199986,None,1603.7860016000923,None,k,0,0.8945301999337971,1603.7860016000923,None,None,None,,,,,,,,,,,,,,,,,,,,,,,11040,1,1,2024_Jun_04_1004,stroop_task_switching2,2021.2.3,59.938060025567516,
,,,黄,yellow,j,diamond,color_mix,颜色,,compatible,1,block_switch1,instruction/ready_test.png,instruction/i11.png,,,,,,,,,,,,,,,,,0,0,0,0,0,39,39,39,,,,,,,,,,,,,,,,,,,,,,,,,,,1604.7040509000653,1604.9059246000834,1604.8878056000685,1605.1885780000594,1605.1885780000594,None,1605.688723500003,None,j,1,1.8876769000198692,1605.688723500003,None,None,None,,,,,,,,,,,,,,,,,,,,,,,11040,1,1,2024_Jun_04_1004,stroop_task_switching2,2021.2.3,59.938060025567516,
,,,红,blue,f,diamond,color_mix,颜色,,incompatible,1,block_switch1,instruction/ready_test.png,instruction/i11.png,,,,,,,,,,,,,,,,,0,0,0,0,0,40,40,40,,,,,,,,,,,,,,,,,,,,,,,,,,,1607.60845290008,1607.809593699989,1607.7921524000121,1608.0931175000733,1608.0931175000733,None,1608.593400600017,None,f,1,1.031062199966982,1608.593400600017,None,None,None,,,,,,,,,,,,,,,,,,,,,,,11040,1,1,2024_Jun_04_1004,stroop_task_switching2,2021.2.3,59.938060025567516,
,,,绿,blue,k,square,color_mix,单词,,incompatible,2,block_switch1,instruction/ready_test.png,instruction/i11.png,,,,,,,,,,,,,,,,,0,0,0,0,0,41,41,41,,,,,,,,,,,,,,,,,,,,,,,,,,,1609.6449047999922,1609.8469934000168,1609.8288598000072,1610.1291212000651,1610.1291212000651,None,1610.6298172000097,None,k,1,0.9149692999199033,1610.6298172000097,None,None,None,,,,,,,,,,,,,,,,,,,,,,,11040,1,1,2024_Jun_04_1004,stroop_task_switching2,2021.2.3,59.938060025567516,
,,,蓝,blue,f,diamond,color_mix,颜色,,compatible,2,block_switch1,instruction/ready_test.png,instruction/i11.png,,,,,,,,,,,,,,,,,0,0,0,0,0,42,42,42,,,,,,,,,,,,,,,,,,,,,,,,,,,1611.5642371000722,1611.7659161000047,1611.748046200024,1612.0492145000026,1612.0492145000026,None,1612.5491906000534,None,f,1,0.9315698000136763,1612.5491906000534,None,None,None,,,,,,,,,,,,,,,,,,,,,,,11040,1,1,2024_Jun_04_1004,stroop_task_switching2,2021.2.3,59.938060025567516,
,,,红,blue,d,square,color_mix,单词,,incompatible,2,block_switch1,instruction/ready_test.png,instruction/i11.png,,,,,,,,,,,,,,,,,0,0,0,0,0,43,43,43,,,,,,,,,,,,,,,,,,,,,,,,,,,1613.5006320000393,1613.7023921000073,1613.6847442000872,1613.9852070000488,1613.9852070000488,None,1614.4852423000848,None,d,1,1.2676467000273988,1614.4852423000848,None,None,None,,,,,,,,,,,,,,,,,,,,,,,11040,1,1,2024_Jun_04_1004,stroop_task_switching2,2021.2.3,59.938060025567516,
,,,蓝,green,k,diamond,color_mix,颜色,,incompatible,2,block_switch1,instruction/ready_test.png,instruction/i11.png,,,,,,,,,,,,,,,,,0,0,0,0,0,44,44,44,,,,,,,,,,,,,,,,,,,,,,,,,,,1615.7706541999942,1615.971150199999,1615.9541229000315,1616.25487840001,1616.25487840001,None,1616.7556545999832,None,k,1,2.2612423000391573,1616.7556545999832,None,None,None,,,,,,,,,,,,,,,,,,,,,,,11040,1,1,2024_Jun_04_1004,stroop_task_switching2,2021.2.3,59.938060025567516,
,,,黄,yellow,j,square,color_mix,单词,,compatible,2,block_switch1,instruction/ready_test.png,instruction/i11.png,,,,,,,,,,,,,,,,,0,0,0,0,0,45,45,45,,,,,,,,,,,,,,,,,,,,,,,,,,,1619.0423749000765,1619.2435544000473,1619.2257565000327,1619.5272770000156,1619.5272770000156,None,1620.0272563000908,None,j,1,0.8456559999613091,1620.0272563000908,None,None,None,,,,,,,,,,,,,,,,,,,,,,,11040,1,1,2024_Jun_04_1004,stroop_task_switching2,2021.2.3,59.938060025567516,
,,,黄,yellow,j,diamond,color_mix,颜色,,compatible,2,block_switch1,instruction/ready_test.png,instruction/i11.png,,,,,,,,,,,,,,,,,0,0,0,0,0,46,46,46,,,,,,,,,,,,,,,,,,,,,,,,,,,1620.8950901000062,1621.0953612000449,1621.0796045000898,1621.3792097000405,1621.3792097000405,None,1621.8799277000362,None,j,1,0.912771699950099,1621.8799277000362,None,None,None,,,,,,,,,,,,,,,,,,,,,,,11040,1,1,2024_Jun_04_1004,stroop_task_switching2,2021.2.3,59.938060025567516,
,,,绿,red,k,square,color_mix,单词,,incompatible,2,block_switch1,instruction/ready_test.png,instruction/i11.png,,,,,,,,,,,,,,,,,0,0,0,0,0,47,47,47,,,,,,,,,,,,,,,,,,,,,,,,,,,1622.8146813000785,1623.015671400004,1622.998314400087,1623.2985961000668,1623.2985961000668,None,1623.799501700094,None,k,1,1.9056129000382498,1623.799501700094,None,None,None,,,,,,,,,,,,,,,,,,,,,,,11040,1,1,2024_Jun_04_1004,stroop_task_switching2,2021.2.3,59.938060025567516,
,,,红,red,d,diamond,color_mix,颜色,,compatible,2,block_switch1,instruction/ready_test.png,instruction/i11.png,,,,,,,,,,,,,,,,,0,0,0,0,0,48,48,48,,,,,,,,,,,,,,,,,,,,,,,,,,,1625.7358317000326,1625.9363788000774,1625.9194377000676,1626.2197678000666,1626.2197678000666,None,1626.7206046000356,None,d,1,1.0325816000113264,1626.7206046000356,None,None,None,,,,,,,,,,,,,,,,,,,,,,,11040,1,1,2024_Jun_04_1004,stroop_task_switching2,2021.2.3,59.938060025567516,
,,,蓝,blue,f,diamond,color_mix,颜色,,compatible,1,block_switch1,instruction/ready_test.png,instruction/i11.png,,,,,,,,,,,,,,,,,0,0,0,0,0,49,49,49,,,,,,,,,,,,,,,,,,,,,,,,,,,1627.772071900079,1627.9732379000634,1627.95586430002,1628.2563879000954,1628.2563879000954,None,1628.7570488000056,None,f,1,1.803962199948728,1628.7570488000056,None,None,None,,,,,,,,,,,,,,,,,,,,,,,11040,1,1,2024_Jun_04_1004,stroop_task_switching2,2021.2.3,59.938060025567516,
,,,黄,yellow,j,diamond,color_mix,颜色,,compatible,1,block_switch1,instruction/ready_test.png,instruction/i11.png,,,,,,,,,,,,,,,,,0,0,0,0,0,50,50,50,,,,,,,,,,,,,,,,,,,,,,,,,,,1630.57665120007,1630.7777727000648,1630.7601690000156,1631.0626865000231,1631.0626865000231,None,1631.5779463000363,None,j,1,1.3033908000215888,1631.5779463000363,None,None,None,,,,,,,,,,,,,,,,,,,,,,,11040,1,1,2024_Jun_04_1004,stroop_task_switching2,2021.2.3,59.938060025567516,
,,,红,blue,f,diamond,color_mix,颜色,,incompatible,1,block_switch1,instruction/ready_test.png,instruction/i11.png,,,,,,,,,,,,,,,,,0,0,0,0,0,51,51,51,,,,,,,,,,,,,,,,,,,,,,,,,,,1632.8964782999828,1633.096928999992,1633.08229270007,1633.3973084000172,1633.3804209000664,None,1633.8814646999817,None,f,1,0.9119395000161603,1633.8814646999817,None,None,None,,,,,,,,,,,,,,,,,,,,,,,11040,1,1,2024_Jun_04_1004,stroop_task_switching2,2021.2.3,59.938060025567516,
,,,蓝,yellow,j,diamond,color_mix,颜色,,incompatible,1,block_switch1,instruction/ready_test.png,instruction/i11.png,,,,,,,,,,,,,,,,,0,0,0,0,0,52,52,52,,,,,,,,,,,,,,,,,,,,,,,,,,,1634.8161525999894,1635.0173697000137,1634.9998198000249,1635.3001750999829,1635.3001750999829,None,1635.8009287000168,None,j,1,0.9284623001003638,1635.8009287000168,None,None,None,,,,,,,,,,,,,,,,,,,,,,,11040,1,1,2024_Jun_04_1004,stroop_task_switching2,2021.2.3,59.938060025567516,
,,,黄,blue,j,square,color_mix,单词,,incompatible,2,block_switch1,instruction/ready_test.png,instruction/i11.png,,,,,,,,,,,,,,,,,0,0,0,0,0,53,53,53,,,,,,,,,,,,,,,,,,,,,,,,,,,1636.7522711000638,1636.9535266000312,1636.9359312000452,1637.2378121000947,1637.2378121000947,None,1637.7371613000287,None,j,1,1.1040643999585882,1637.7371613000287,None,None,None,,,,,,,,,,,,,,,,,,,,,,,11040,1,1,2024_Jun_04_1004,stroop_task_switching2,2021.2.3,59.938060025567516,
,,,蓝,blue,f,diamond,color_mix,颜色,,compatible,2,block_switch1,instruction/ready_test.png,instruction/i11.png,,,,,,,,,,,,,,,,,0,0,0,0,0,54,54,54,,,,,,,,,,,,,,,,,,,,,,,,,,,1638.8721010000445,1639.0727269999916,1639.0557178000454,1639.3569536000723,1639.3569536000723,None,1639.8571009000298,None,f,1,0.8645070000784472,1639.8571009000298,None,None,None,,,,,,,,,,,,,,,,,,,,,,,11040,1,1,2024_Jun_04_1004,stroop_task_switching2,2021.2.3,59.938060025567516,
,,,红,yellow,d,square,color_mix,单词,,incompatible,2,block_switch1,instruction/ready_test.png,instruction/i11.png,,,,,,,,,,,,,,,,,0,0,0,0,0,55,55,55,,,,,,,,,,,,,,,,,,,,,,,,,,,1640.741826600046,1640.9430071000243,1640.9254224000033,1641.2270018000854,1641.2270018000854,None,1641.7265708000632,None,d,1,1.331029299995862,1641.7265708000632,None,None,None,,,,,,,,,,,,,,,,,,,,,,,11040,1,1,2024_Jun_04_1004,stroop_task_switching2,2021.2.3,59.938060025567516,
,,,蓝,red,f,square,color_mix,单词,,incompatible,1,block_switch1,instruction/ready_test.png,instruction/i11.png,,,,,,,,,,,,,,,,,0,0,0,0,0,56,56,56,,,,,,,,,,,,,,,,,,,,,,,,,,,1643.078500600066,1643.2786530000158,1643.2621112000197,1643.56344310008,1643.56344310008,None,1644.0633864999982,None,f,1,1.6823366999160498,1644.0633864999982,None,None,None,,,,,,,,,,,,,,,,,,,,,,,11040,1,1,2024_Jun_04_1004,stroop_task_switching2,2021.2.3,59.938060025567516,
,,,蓝,blue,f,square,color_mix,单词,,compatible,1,block_switch1,instruction/ready_test.png,instruction/i11.png,,,,,,,,,,,,,,,,,0,0,0,0,0,57,57,57,,,,,,,,,,,,,,,,,,,,,,,,,,,1645.7659306999994,1645.9663201000076,1645.9499789000256,1646.2501288000494,1646.2501288000494,None,1646.7508849999867,None,f,1,0.6268049000063911,1646.7508849999867,None,None,None,,,,,,,,,,,,,,,,,,,,,,,11040,1,1,2024_Jun_04_1004,stroop_task_switching2,2021.2.3,59.938060025567516,
,,,蓝,red,d,diamond,color_mix,颜色,,incompatible,2,block_switch1,instruction/ready_test.png,instruction/i11.png,,,,,,,,,,,,,,,,,0,0,0,0,0,58,58,58,,,,,,,,,,,,,,,,,,,,,,,,,,,1647.4017520000925,1647.6021991000744,1647.585459700087,1647.8857301999815,1647.8857301999815,None,1648.3865749000106,None,d,1,1.5509312000358477,1648.3865749000106,None,None,None,,,,,,,,,,,,,,,,,,,,,,,11040,1,1,2024_Jun_04_1004,stroop_task_switching2,2021.2.3,59.938060025567516,
,,,绿,green,k,diamond,color_mix,颜色,,compatible,1,block_switch1,instruction/ready_test.png,instruction/i11.png,,,,,,,,,,,,,,,,,0,0,0,0,0,59,59,59,,,,,,,,,,,,,,,,,,,,,,,,,,,1649.9554938999936,1650.1558396000182,1650.140339500038,1650.4405202000635,1650.4405202000635,None,1650.940496700001,None,k,1,0.9813168999971822,1650.940496700001,None,None,None,,,,,,,,,,,,,,,,,,,,,,,11040,1,1,2024_Jun_04_1004,stroop_task_switching2,2021.2.3,59.938060025567516,
,,,蓝,blue,f,diamond,color_mix,颜色,,compatible,1,block_switch1,instruction/ready_test.png,instruction/i11.png,,,,,,,,,,,,,,,,,0,0,0,0,0,60,60,60,,,,,,,,,,,,,,,,,,,,,,,,,,,1651.9418059000745,1652.1431365000317,1652.1256072000833,1652.42757420009,1652.42757420009,None,1652.9267924000742,None,f,1,1.563052300014533,1652.9267924000742,None,None,None,,,,,,,,,,,,,,,,,,,,,,,11040,1,1,2024_Jun_04_1004,stroop_task_switching2,2021.2.3,59.938060025567516,
,,,黄,yellow,j,square,color_mix,单词,,compatible,2,block_switch1,instruction/ready_test.png,instruction/i11.png,,,,,,,,,,,,,,,,,0,0,0,0,0,61,61,61,,,,,,,,,,,,,,,,,,,,,,,,,,,1654.5123230000027,1654.713341500028,1654.6959366000956,1654.9965874000918,1654.9965874000918,None,1655.4973685999867,None,j,1,0.6085351000074297,1655.4973685999867,None,None,None,,,,,,,,,,,,,,,,,,,,,,,11040,1,1,2024_Jun_04_1004,stroop_task_switching2,2021.2.3,59.938060025567516,
,,,绿,blue,k,square,color_mix,单词,,incompatible,1,block_switch1,instruction/ready_test.png,instruction/i11.png,,,,,,,,,,,,,,,,,0,0,0,0,0,62,62,62,,,,,,,,,,,,,,,,,,,,,,,,,,,1656.131454300019,1656.333030100097,1656.315026700031,1656.6157184999902,1656.6157184999902,None,1657.1164078000002,None,k,1,1.3577623000601307,1657.1164078000002,None,None,None,,,,,,,,,,,,,,,,,,,,,,,11040,1,1,2024_Jun_04_1004,stroop_task_switching2,2021.2.3,59.938060025567516,
,,,蓝,yellow,f,square,color_mix,单词,,incompatible,1,block_switch1,instruction/ready_test.png,instruction/i11.png,,,,,,,,,,,,,,,,,0,0,0,0,0,63,63,63,,,,,,,,,,,,,,,,,,,,,,,,,,,1658.5017238000873,1658.7027105999878,1658.6866255000932,1658.9858325000387,1658.9858325000387,None,1659.486527500092,None,f,1,1.395661799935624,1659.486527500092,None,None,None,,,,,,,,,,,,,,,,,,,,,,,11040,1,1,2024_Jun_04_1004,stroop_task_switching2,2021.2.3,59.938060025567516,
,,,黄,yellow,j,diamond,color_mix,颜色,,compatible,2,block_switch1,instruction/ready_test.png,instruction/i11.png,,,,,,,,,,,,,,,,,0,0,0,0,0,64,64,64,,,,,,,,,,,,,,,,,,,,,,,,,,,1660.9054267000174,1661.1057545000222,1661.0902395000448,1661.3908830999862,1661.3908830999862,None,1661.8904881000053,None,j,1,0.8153906000079587,1661.8904881000053,None,None,None,,,,,,,,,,,,,,,,,,,,,,,11040,1,1,2024_Jun_04_1004,stroop_task_switching2,2021.2.3,59.938060025567516,
,,,蓝,green,k,diamond,color_mix,颜色,,incompatible,1,block_switch1,instruction/ready_test.png,instruction/i11.png,,,,,,,,,,,,,,,,,0,0,0,0,0,65,65,65,,,,,,,,,,,,,,,,,,,,,,,,,,,1662.724758299999,1662.9261370000895,1662.90824410005,1663.2098065000027,1663.2098065000027,None,1663.7097794000292,None,k,1,1.2603661000030115,1663.7097794000292,None,None,None,,,,,,,,,,,,,,,,,,,,,,,11040,1,1,2024_Jun_04_1004,stroop_task_switching2,2021.2.3,59.938060025567516,
,,,红,red,d,diamond,color_mix,颜色,,compatible,1,block_switch1,instruction/ready_test.png,instruction/i11.png,,,,,,,,,,,,,,,,,0,0,0,0,0,66,66,66,,,,,,,,,,,,,,,,,,,,,,,,,,,1664.9949712000089,1665.1959376999876,1665.1786077000434,1665.4795458000153,1665.4795458000153,None,1665.9805595000507,None,d,1,1.2133805999765173,1665.9805595000507,None,None,None,,,,,,,,,,,,,,,,,,,,,,,11040,1,1,2024_Jun_04_1004,stroop_task_switching2,2021.2.3,59.938060025567516,
,,,蓝,yellow,f,square,color_mix,单词,,incompatible,2,block_switch1,instruction/ready_test.png,instruction/i11.png,,,,,,,,,,,,,,,,,0,0,0,0,0,67,67,67,,,,,,,,,,,,,,,,,,,,,,,,,,,1667.2149616000243,1667.4161302000284,1667.3985721000936,1667.699732100009,1667.699732100009,None,1668.1998514999868,None,f,1,2.5464155999943614,1668.1998514999868,None,None,None,,,,,,,,,,,,,,,,,,,,,,,11040,1,1,2024_Jun_04_1004,stroop_task_switching2,2021.2.3,59.938060025567516,
,,,红,yellow,d,square,color_mix,单词,,incompatible,1,block_switch1,instruction/ready_test.png,instruction/i11.png,,,,,,,,,,,,,,,,,0,0,0,0,0,68,68,68,,,,,,,,,,,,,,,,,,,,,,,,,,,1670.7702314000344,1670.9718087000074,1670.954391000094,1671.2557896000799,1671.2557896000799,None,1671.7550139999948,None,d,1,0.9753559000091627,1671.7550139999948,None,None,None,,,,,,,,,,,,,,,,,,,,,,,11040,1,1,2024_Jun_04_1004,stroop_task_switching2,2021.2.3,59.938060025567516,
,,,红,yellow,j,diamond,color_mix,颜色,,incompatible,2,block_switch1,instruction/ready_test.png,instruction/i11.png,,,,,,,,,,,,,,,,,0,0,0,0,0,69,69,69,,,,,,,,,,,,,,,,,,,,,,,,,,,1672.7566317000892,1672.9579262000043,1672.940325200092,1673.2419365000678,1673.2419365000678,None,1673.7414799000835,None,d,0,1.252881000051275,1673.7414799000835,None,None,None,,,,,,,,,,,,,,,,,,,,,,,11040,1,1,2024_Jun_04_1004,stroop_task_switching2,2021.2.3,59.938060025567516,
,,,蓝,green,f,square,color_mix,单词,,incompatible,2,block_switch1,instruction/ready_test.png,instruction/i11.png,,,,,,,,,,,,,,,,,0,0,0,0,0,70,70,70,,,,,,,,,,,,,,,,,,,,,,,,,,,1675.0098316000076,1675.211135999998,1675.1935164000606,1675.4944954999955,1675.4944954999955,None,1675.994826600072,1679.0005463000853,None,0,,1675.994826600072,1679.0005463000853,1678.9827535999939,None,,,,,,,,,,,,,,,,,,,,,,,11040,1,1,2024_Jun_04_1004,stroop_task_switching2,2021.2.3,59.938060025567516,
,,,绿,yellow,k,square,color_mix,单词,,incompatible,1,block_switch1,instruction/ready_test.png,instruction/i11.png,,,,,,,,,,,,,,,,,0,0,0,0,0,71,71,71,,,,,,,,,,,,,,,,,,,,,,,,,,,1679.616957899998,1679.8177491000388,1679.8005812000483,1680.1018338000868,1680.1018338000868,None,1680.6017393000657,None,k,1,0.6730651999823749,1680.6017393000657,None,None,None,,,,,,,,,,,,,,,,,,,,,,,11040,1,1,2024_Jun_04_1004,stroop_task_switching2,2021.2.3,59.938060025567516,
,,,蓝,yellow,j,diamond,color_mix,颜色,,incompatible,2,block_switch1,instruction/ready_test.png,instruction/i11.png,,,,,,,,,,,,,,,,,0,0,0,0,0,72,72,72,,,,,,,,,,,,,,,,,,,,,,,,,,,1681.3031389000826,1681.505211599986,1681.486424600007,1681.7867947000777,1681.7867947000777,None,1682.2877755000954,1685.2920347000472,None,0,,1682.2877755000954,1685.2920347000472,1685.2754085999914,None,,,,,,,,,,,,,,,,,,,,,,,11040,1,1,2024_Jun_04_1004,stroop_task_switching2,2021.2.3,59.938060025567516,
,,,红,green,d,square,color_mix,单词,,incompatible,2,block_switch1,instruction/ready_test.png,instruction/i11.png,,,,,,,,,,,,,,,,,0,0,0,0,0,73,73,73,,,,,,,,,,,,,,,,,,,,,,,,,,,1685.8428922999883,1686.0434384000255,1686.028247200069,1686.3272586000385,1686.3272586000385,None,1686.8279225000879,None,d,1,1.6948703000089154,1686.8279225000879,None,None,None,,,,,,,,,,,,,,,,,,,,,,,11040,1,1,2024_Jun_04_1004,stroop_task_switching2,2021.2.3,59.938060025567516,
,,,绿,blue,f,diamond,color_mix,颜色,,incompatible,2,block_switch1,instruction/ready_test.png,instruction/i11.png,,,,,,,,,,,,,,,,,0,0,0,0,0,74,74,74,,,,,,,,,,,,,,,,,,,,,,,,,,,1688.5471837000223,1688.7473921000492,1688.7307925000787,1689.0316761999857,1689.0316761999857,None,1689.5319648000877,None,f,1,1.0706071000313386,1689.5319648000877,None,None,None,,,,,,,,,,,,,,,,,,,,,,,11040,1,1,2024_Jun_04_1004,stroop_task_switching2,2021.2.3,59.938060025567516,
,,,红,red,d,square,color_mix,单词,,compatible,2,block_switch1,instruction/ready_test.png,instruction/i11.png,,,,,,,,,,,,,,,,,0,0,0,0,0,75,75,75,,,,,,,,,,,,,,,,,,,,,,,,,,,1690.6335892000934,1690.8340261999983,1690.8189434000524,1691.1342372000217,1691.1186817000853,None,1691.6184679000871,None,d,1,1.9689352000132203,1691.6184679000871,None,None,None,,,,,,,,,,,,,,,,,,,,,,,11040,1,1,2024_Jun_04_1004,stroop_task_switching2,2021.2.3,59.938060025567516,
,,,绿,green,k,diamond,color_mix,颜色,,compatible,2,block_switch1,instruction/ready_test.png,instruction/i11.png,,,,,,,,,,,,,,,,,0,0,0,0,0,76,76,76,,,,,,,,,,,,,,,,,,,,,,,,,,,1693.6048315000953,1693.8056206000037,1693.788408100023,1694.0887090000324,1694.0887090000324,None,1694.589650399983,None,k,1,1.253164800000377,1694.589650399983,None,None,None,,,,,,,,,,,,,,,,,,,,,,,11040,1,1,2024_Jun_04_1004,stroop_task_switching2,2021.2.3,59.938060025567516,
,,,黄,red,j,square,color_mix,单词,,incompatible,2,block_switch1,instruction/ready_test.png,instruction/i11.png,,,,,,,,,,,,,,,,,0,0,0,0,0,77,77,77,,,,,,,,,,,,,,,,,,,,,,,,,,,1695.8750163000077,1696.0761891000438,1696.0584973000223,1696.3591209000442,1696.3591209000442,None,1696.859732300043,None,j,1,1.1673038000008091,1696.859732300043,None,None,None,,,,,,,,,,,,,,,,,,,,,,,11040,1,1,2024_Jun_04_1004,stroop_task_switching2,2021.2.3,59.938060025567516,
,,,红,red,d,square,color_mix,单词,,compatible,1,block_switch1,instruction/ready_test.png,instruction/i11.png,,,,,,,,,,,,,,,,,0,0,0,0,0,78,78,78,,,,,,,,,,,,,,,,,,,,,,,,,,,1698.0447530000238,1698.2458207000745,1698.2284563999856,1698.5287734000012,1698.5287734000012,None,1699.029858599999,None,d,1,0.8292560999980196,1699.029858599999,None,None,None,,,,,,,,,,,,,,,,,,,,,,,11040,1,1,2024_Jun_04_1004,stroop_task_switching2,2021.2.3,59.938060025567516,
,,,黄,yellow,j,square,color_mix,单词,,compatible,1,block_switch1,instruction/ready_test.png,instruction/i11.png,,,,,,,,,,,,,,,,,0,0,0,0,0,79,79,79,,,,,,,,,,,,,,,,,,,,,,,,,,,1699.8812432000414,1700.0821582000935,1700.0645236000419,1700.3652202000376,1700.3652202000376,None,1700.8658695000922,None,j,1,0.6497389000141993,1700.8658695000922,None,None,None,,,,,,,,,,,,,,,,,,,,,,,11040,1,1,2024_Jun_04_1004,stroop_task_switching2,2021.2.3,59.938060025567516,
,,,红,red,d,diamond,color_mix,颜色,,compatible,2,block_switch1,instruction/ready_test.png,instruction/i11.png,,,,,,,,,,,,,,,,,0,0,0,0,0,80,80,80,,,,,,,,,,,,,,,,,,,,,,,,,,,1701.5333861000836,1701.7343057000544,1701.717078900081,1702.0173881000374,1702.0173881000374,None,1702.5179737000726,None,d,1,1.1653453999897465,1702.5179737000726,None,None,None,,,,,,,,,,,,,,,,,,,,,,,11040,1,1,2024_Jun_04_1004,stroop_task_switching2,2021.2.3,59.938060025567516,
,,,红,red,d,square,color_mix,单词,,compatible,2,block_switch1,instruction/ready_test.png,instruction/i11.png,,,,,,,,,,,,,,,,,0,0,0,0,0,81,81,81,,,,,,,,,,,,,,,,,,,,,,,,,,,1703.7032833000412,1703.9047257000348,1703.8869285000255,1704.1875742999837,1704.1875742999837,None,1704.6881750000175,None,d,1,1.4508781998883933,1704.6881750000175,None,None,None,,,,,,,,,,,,,,,,,,,,,,,11040,1,1,2024_Jun_04_1004,stroop_task_switching2,2021.2.3,59.938060025567516,
,,,黄,blue,f,diamond,color_mix,颜色,,incompatible,2,block_switch1,instruction/ready_test.png,instruction/i11.png,,,,,,,,,,,,,,,,,0,0,0,0,0,82,82,82,,,,,,,,,,,,,,,,,,,,,,,,,,,1706.1570547000738,1706.3571969000623,1706.3407782000722,1706.64169389999,1706.64169389999,None,1707.1416986000258,None,f,1,1.1336158000631258,1707.1416986000258,None,None,None,,,,,,,,,,,,,,,,,,,,,,,11040,1,1,2024_Jun_04_1004,stroop_task_switching2,2021.2.3,59.938060025567516,
,,,红,yellow,j,diamond,color_mix,颜色,,incompatible,1,block_switch1,instruction/ready_test.png,instruction/i11.png,,,,,,,,,,,,,,,,,0,0,0,0,0,83,83,83,,,,,,,,,,,,,,,,,,,,,,,,,,,1708.2935583000071,1708.493934600032,1708.4783597000642,1708.7775549000362,1708.7775549000362,None,1709.2785876999842,None,j,1,0.8525209999643266,1709.2785876999842,None,None,None,,,,,,,,,,,,,,,,,,,,,,,11040,1,1,2024_Jun_04_1004,stroop_task_switching2,2021.2.3,59.938060025567516,
,,,黄,red,d,diamond,color_mix,颜色,,incompatible,1,block_switch1,instruction/ready_test.png,instruction/i11.png,,,,,,,,,,,,,,,,,0,0,0,0,0,84,84,84,,,,,,,,,,,,,,,,,,,,,,,,,,,1710.1631347000366,1710.3645566999912,1710.3491001999937,1710.6637734000105,1710.6480370000936,None,1711.1477635999909,None,d,1,1.0557113999966532,1711.1477635999909,None,None,None,,,,,,,,,,,,,,,,,,,,,,,11040,1,1,2024_Jun_04_1004,stroop_task_switching2,2021.2.3,59.938060025567516,
,,,蓝,blue,f,square,color_mix,单词,,compatible,2,block_switch1,instruction/ready_test.png,instruction/i11.png,,,,,,,,,,,,,,,,,0,0,0,0,0,85,85,85,,,,,,,,,,,,,,,,,,,,,,,,,,,1712.2327550000045,1712.4342602000106,1712.4165584000293,1712.7185694000218,1712.7185694000218,None,1713.2176071000285,None,f,1,0.9139436000259593,1713.2176071000285,None,None,None,,,,,,,,,,,,,,,,,,,,,,,11040,1,1,2024_Jun_04_1004,stroop_task_switching2,2021.2.3,59.938060025567516,
,,,绿,green,k,square,color_mix,单词,,compatible,1,block_switch1,instruction/ready_test.png,instruction/i11.png,,,,,,,,,,,,,,,,,0,0,0,0,0,86,86,86,,,,,,,,,,,,,,,,,,,,,,,,,,,1714.152361100074,1714.353870299994,1714.3360169000225,1714.6364452000707,1714.6364452000707,None,1715.1373402000172,None,k,1,1.3860281999222934,1715.1373402000172,None,None,None,,,,,,,,,,,,,,,,,,,,,,,11040,1,1,2024_Jun_04_1004,stroop_task_switching2,2021.2.3,59.938060025567516,
,,,红,red,d,square,color_mix,单词,,compatible,1,block_switch1,instruction/ready_test.png,instruction/i11.png,,,,,,,,,,,,,,,,,0,0,0,0,0,87,87,87,,,,,,,,,,,,,,,,,,,,,,,,,,,1716.5392351000337,1716.7401348000858,1716.7228617999936,1717.0237294000108,1717.0237294000108,None,1717.5242263000691,None,d,1,1.2155392999993637,1717.5242263000691,None,None,None,,,,,,,,,,,,,,,,,,,,,,,11040,1,1,2024_Jun_04_1004,stroop_task_switching2,2021.2.3,59.938060025567516,
,,,黄,green,k,diamond,color_mix,颜色,,incompatible,2,block_switch1,instruction/ready_test.png,instruction/i11.png,,,,,,,,,,,,,,,,,0,0,0,0,0,88,88,88,,,,,,,,,,,,,,,,,,,,,,,,,,,1718.7593773000408,1718.96055180009,1718.942972299992,1719.2451109000249,1719.2451109000249,None,1719.760668800096,None,k,1,0.8996162000112236,1719.760668800096,None,None,None,,,,,,,,,,,,,,,,,,,,,,,11040,1,1,2024_Jun_04_1004,stroop_task_switching2,2021.2.3,59.938060025567516,
,,,绿,red,k,square,color_mix,单词,,incompatible,2,block_switch1,instruction/ready_test.png,instruction/i11.png,,,,,,,,,,,,,,,,,0,0,0,0,0,89,89,89,,,,,,,,,,,,,,,,,,,,,,,,,,,1720.6786728000734,1720.8794590000762,1720.8641976000508,1721.1797130000778,1721.1637752000242,None,1721.6636611000868,None,k,1,0.8683103999355808,1721.6636611000868,None,None,None,,,,,,,,,,,,,,,,,,,,,,,11040,1,1,2024_Jun_04_1004,stroop_task_switching2,2021.2.3,59.938060025567516,
,,,黄,green,j,square,color_mix,单词,,incompatible,1,block_switch1,instruction/ready_test.png,instruction/i11.png,,,,,,,,,,,,,,,,,0,0,0,0,0,90,90,90,,,,,,,,,,,,,,,,,,,,,,,,,,,1722.5483451000182,1722.7487112000817,1722.731944500003,1723.0335242000874,1723.0335242000874,None,1723.5333947000327,None,j,1,1.2701427999418229,1723.5333947000327,None,None,None,,,,,,,,,,,,,,,,,,,,,,,11040,1,1,2024_Jun_04_1004,stroop_task_switching2,2021.2.3,59.938060025567516,
,,,蓝,blue,f,square,color_mix,单词,,compatible,1,block_switch1,instruction/ready_test.png,instruction/i11.png,,,,,,,,,,,,,,,,,0,0,0,0,0,91,91,91,,,,,,,,,,,,,,,,,,,,,,,,,,,1724.835144600016,1725.0359913000138,1725.0189021000406,1725.3193881000625,1725.3193881000625,None,1725.819824700011,None,f,1,0.8159866000059992,1725.819824700011,None,None,None,,,,,,,,,,,,,,,,,,,,,,,11040,1,1,2024_Jun_04_1004,stroop_task_switching2,2021.2.3,59.938060025567516,
,,,蓝,red,f,square,color_mix,单词,,incompatible,1,block_switch1,instruction/ready_test.png,instruction/i11.png,,,,,,,,,,,,,,,,,0,0,0,0,0,92,92,92,,,,,,,,,,,,,,,,,,,,,,,,,,,1726.654529200052,1726.8557031000964,1726.8382023000158,1727.1385727000888,1727.1385727000888,None,1727.639415099984,None,f,1,1.0604385000187904,1727.639415099984,None,None,None,,,,,,,,,,,,,,,,,,,,,,,11040,1,1,2024_Jun_04_1004,stroop_task_switching2,2021.2.3,59.938060025567516,
,,,黄,blue,j,square,color_mix,单词,,incompatible,1,block_switch1,instruction/ready_test.png,instruction/i11.png,,,,,,,,,,,,,,,,,0,0,0,0,0,93,93,93,,,,,,,,,,,,,,,,,,,,,,,,,,,1728.724483900005,1728.9253396000713,1728.9081975000445,1729.2095832000487,1729.2095832000487,None,1729.7091278000735,None,j,1,0.7267661000369117,1729.7091278000735,None,None,None,,,,,,,,,,,,,,,,,,,,,,,11040,1,1,2024_Jun_04_1004,stroop_task_switching2,2021.2.3,59.938060025567516,
,,,绿,red,d,diamond,color_mix,颜色,,incompatible,2,block_switch1,instruction/ready_test.png,instruction/i11.png,,,,,,,,,,,,,,,,,0,0,0,0,0,94,94,94,,,,,,,,,,,,,,,,,,,,,,,,,,,1730.4603292000247,1730.661315400037,1730.6440732000628,1730.9449674000498,1730.9449674000498,None,1731.4451153000118,None,d,1,1.543855500058271,1731.4451153000118,None,None,None,,,,,,,,,,,,,,,,,,,,,,,11040,1,1,2024_Jun_04_1004,stroop_task_switching2,2021.2.3,59.938060025567516,
,,,蓝,blue,f,diamond,color_mix,颜色,,compatible,1,block_switch1,instruction/ready_test.png,instruction/i11.png,,,,,,,,,,,,,,,,,0,0,0,0,0,95,95,95,,,,,,,,,,,,,,,,,,,,,,,,,,,1733.01417520002,1733.216347000096,1733.1976886000484,1733.498236100073,1733.498236100073,None,1733.9990731000435,None,f,1,0.8290868999902159,1733.9990731000435,None,None,None,,,,,,,,,,,,,,,,,,,,,,,11040,1,1,2024_Jun_04_1004,stroop_task_switching2,2021.2.3,59.938060025567516,
,,,绿,green,k,square,color_mix,单词,,compatible,2,block_switch1,instruction/ready_test.png,instruction/i11.png,,,,,,,,,,,,,,,,,0,0,0,0,0,96,96,96,,,,,,,,,,,,,,,,,,,,,,,,,,,1734.8501854999922,1735.0504776000744,1735.0338848000392,1735.335256600054,1735.335256600054,None,1735.8351528000785,None,k,1,0.7367802000371739,1735.8351528000785,None,None,None,,,,,,,,,,,,,,,,,,,,,,,11040,1,1,2024_Jun_04_1004,stroop_task_switching2,2021.2.3,59.938060025567516,
,,,,,,,,,,,,block_switch1,instruction/ready_test.png,instruction/i11.png,,,,,,,,,,,,,,,,,0,0,0,0,,,,,,,,,,,,,,,,,,,,,,,,,,,,,,,,,,,,,,,,,,,,,,,,,,,,,,,,,,,,1736.6029396000085,None,space,12.857536799972877,1736.6029396000085,None,,,11040,1,1,2024_Jun_04_1004,stroop_task_switching2,2021.2.3,59.938060025567516,
,,,蓝,blue,f,square,color_mix,单词,,compatible,0,block_switch2,instruction/ready_2.png,instruction/i12.png,,,,,,,,,,,,,,,,,0,1,1,1,0,0,0,0,,,,,,,,,,,,,,,,,,,1755.8984821999911,1756.9002673000796,1756.9002673000796,1757.9016359000234,1757.9016359000234,None,1754.913816699991,1755.9156941000838,1758.9366782000288,1759.1373337000841,1759.1223797000712,1759.42057940003,1759.42057940003,None,1759.9211452000309,None,f,1,0.7794379000551999,1759.9211452000309,None,None,None,,,,,,,,,1749.5055929000955,None,space,5.386991500039585,1749.5055929000955,None,,,,,,,,,11040,1,1,2024_Jun_04_1004,stroop_task_switching2,2021.2.3,59.938060025567516,
,,,黄,red,d,diamond,color_mix,颜色,,incompatible,2,block_switch2,instruction/ready_2.png,instruction/i12.png,,,,,,,,,,,,,,,,,0,1,1,1,0,1,1,1,,,,,,,,,,,,,,,,,,,,,,,,,,,1760.7561144999927,1760.9567657000152,1760.906206500018,1761.2066977000795,1761.2066977000795,None,1761.7075518000638,None,j,0,0.8897556998999789,1761.7075518000638,None,None,None,,,,,,,,,,,,,,,,,,,,,,,11040,1,1,2024_Jun_04_1004,stroop_task_switching2,2021.2.3,59.938060025567516,
,,,蓝,green,k,diamond,color_mix,颜色,,incompatible,1,block_switch2,instruction/ready_2.png,instruction/i12.png,,,,,,,,,,,,,,,,,0,1,1,1,0,2,2,2,,,,,,,,,,,,,,,,,,,,,,,,,,,1762.6249743000371,1762.8264811000554,1762.8091150000691,1763.1101053000893,1763.1101053000893,None,1763.6104726000922,None,k,1,0.7225772999227047,1763.6104726000922,None,None,None,,,,,,,,,,,,,,,,,,,,,,,11040,1,1,2024_Jun_04_1004,stroop_task_switching2,2021.2.3,59.938060025567516,
,,,红,yellow,j,diamond,color_mix,颜色,,incompatible,1,block_switch2,instruction/ready_2.png,instruction/i12.png,,,,,,,,,,,,,,,,,0,1,1,1,0,3,3,3,,,,,,,,,,,,,,,,,,,,,,,,,,,1764.361363300006,1764.5626125000417,1764.545256100013,1764.8455587000353,1764.8455587000353,None,1765.3464703999925,None,d,0,0.9225214999169111,1765.3464703999925,None,None,None,,,,,,,,,,,,,,,,,,,,,,,11040,1,1,2024_Jun_04_1004,stroop_task_switching2,2021.2.3,59.938060025567516,
,,,红,red,d,diamond,color_mix,颜色,,compatible,1,block_switch2,instruction/ready_2.png,instruction/i12.png,,,,,,,,,,,,,,,,,0,1,1,1,0,4,4,4,,,,,,,,,,,,,,,,,,,,,,,,,,,1766.2977303999942,1766.4985607999843,1766.4813632000005,1766.7816484000068,1766.7816484000068,None,1767.2823723000474,None,d,1,1.4991914000129327,1767.2823723000474,None,None,None,,,,,,,,,,,,,,,,,,,,,,,11040,1,1,2024_Jun_04_1004,stroop_task_switching2,2021.2.3,59.938060025567516,
,,,绿,green,k,square,color_mix,单词,,compatible,2,block_switch2,instruction/ready_2.png,instruction/i12.png,,,,,,,,,,,,,,,,,0,1,1,1,0,5,5,5,,,,,,,,,,,,,,,,,,,,,,,,,,,1768.8013951000758,1769.0033305999823,1768.985086800065,1769.2855045000324,1769.2855045000324,None,1769.7862678000238,None,k,1,0.6424737999914214,1769.7862678000238,None,None,None,,,,,,,,,,,,,,,,,,,,,,,11040,1,1,2024_Jun_04_1004,stroop_task_switching2,2021.2.3,59.938060025567516,
,,,黄,blue,f,diamond,color_mix,颜色,,incompatible,2,block_switch2,instruction/ready_2.png,instruction/i12.png,,,,,,,,,,,,,,,,,0,1,1,1,0,6,6,6,,,,,,,,,,,,,,,,,,,,,,,,,,,1770.453913400066,1770.6542713000672,1770.6391499000601,1770.9562871000962,1770.9385344000766,None,1771.4391986000119,None,f,1,0.9339113000314683,1771.4391986000119,None,None,None,,,,,,,,,,,,,,,,,,,,,,,11040,1,1,2024_Jun_04_1004,stroop_task_switching2,2021.2.3,59.938060025567516,
,,,绿,yellow,k,square,color_mix,单词,,incompatible,2,block_switch2,instruction/ready_2.png,instruction/i12.png,,,,,,,,,,,,,,,,,0,1,1,1,0,7,7,7,,,,,,,,,,,,,,,,,,,,,,,,,,,1772.3917966000736,1772.6070282000583,1772.5738943000324,1772.874991800054,1772.874991800054,None,1773.3750521000475,None,k,1,1.1180238999659196,1773.3750521000475,None,None,None,,,,,,,,,,,,,,,,,,,,,,,11040,1,1,2024_Jun_04_1004,stroop_task_switching2,2021.2.3,59.938060025567516,
