b_pra,ins_blocks,ins_blocks2,stim_word,stim_color,corrAns,cue_type,trial_type,task_type,rand,compatibility,switch,b_test,w_pic,w_pic2,trials_instr.thisRepN,trials_instr.thisTrialN,trials_instr.thisN,trials_instr.thisIndex,block_pra.thisRepN,block_pra.thisTrialN,block_pra.thisN,block_pra.thisIndex,trials_rep.thisRepN,trials_rep.thisTrialN,trials_rep.thisN,trials_rep.thisIndex,trials_pra.thisRepN,trials_pra.thisTrialN,trials_pra.thisN,trials_pra.thisIndex,trials_3.thisRepN,trials_3.thisTrialN,trials_3.thisN,trials_3.thisIndex,trials_2.thisRepN,trials_2.thisTrialN,trials_2.thisN,trials_2.thisIndex,instr_image.started,instr_image.stopped,instr_key_resp.keys,instr_key_resp.rt,instr_key_resp.started,instr_key_resp.stopped,instr_pra_image.started,instr_pra_image.stopped,ip_key_resp.keys,ip_key_resp.rt,ip_key_resp.started,ip_key_resp.stopped,block_image.started,block_image.stopped,ib_key_resp.keys,ib_key_resp.rt,ib_key_resp.started,ib_key_resp.stopped,cd3.started,cd3.stopped,cd2.started,cd2.stopped,cd1.started,cd1.stopped,cd_text.started,cd_text.stopped,text_fix.started,text_fix.stopped,text_2.started,text_2.stopped,text_4.started,text_4.stopped,text_target.started,text_target.stopped,key_resp.keys,key_resp.corr,key_resp.rt,key_resp.started,key_resp.stopped,sceen_black.started,sceen_black.stopped,text_fb.started,text_fb.stopped,text.started,text.stopped,key_bf.keys,key_bf.rt,key_bf.started,key_bf.stopped,instr_test_image.started,instr_test_image.stopped,instr_exp_key_resp.keys,instr_exp_key_resp.rt,instr_exp_key_resp.started,instr_exp_key_resp.stopped,text_rest.started,text_rest.stopped,key_resp_rest.keys,key_resp_rest.rt,key_resp_rest.started,key_resp_rest.stopped,text_3.started,text_3.stopped,participant,session,balance,date,expName,psychopyVersion,frameRate,
,,,,,,,,,,,,,,,0,0,0,0,,,,,,,,,,,,,,,,,,,,,8.48420810000971,None,right,1.0728959999978542,8.48420810000971,None,,,,,,,,,,,,,,,,,,,,,,,,,,,,,,,,,,,,,,,,,,,,,,,,,,,,,,,,,,12004,1,2,2024_Jun_13_1356,stroop_task_switching2_b,2021.2.3,60.002832099358365,
,,,,,,,,,,,,,,,1,0,1,0,,,,,,,,,,,,,,,,,,,,,9.61923209996894,None,right,52.93122560007032,9.61923209996894,None,,,,,,,,,,,,,,,,,,,,,,,,,,,,,,,,,,,,,,,,,,,,,,,,,,,,,,,,,,12004,1,2,2024_Jun_13_1356,stroop_task_switching2_b,2021.2.3,60.002832099358365,
,,,,,,,,,,,,,,,2,0,2,0,,,,,,,,,,,,,,,,,,,,,62.599682300002314,None,right,5.126792100025341,62.599682300002314,None,,,,,,,,,,,,,,,,,,,,,,,,,,,,,,,,,,,,,,,,,,,,,,,,,,,,,,,,,,12004,1,2,2024_Jun_13_1356,stroop_task_switching2_b,2021.2.3,60.002832099358365,
,,,,,,,,,,,,,,,3,0,3,0,,,,,,,,,,,,,,,,,,,,,67.77346900000703,None,right,4.713587800040841,67.77346900000703,None,,,,,,,,,,,,,,,,,,,,,,,,,,,,,,,,,,,,,,,,,,,,,,,,,,,,,,,,,,12004,1,2,2024_Jun_13_1356,stroop_task_switching2_b,2021.2.3,60.002832099358365,
,,,,,,,,,,,,,,,4,0,4,0,,,,,,,,,,,,,,,,,,,,,72.53060139995068,None,right,16.836766499909572,72.53060139995068,None,,,,,,,,,,,,,,,,,,,,,,,,,,,,,,,,,,,,,,,,,,,,,,,,,,,,,,,,,,12004,1,2,2024_Jun_13_1356,stroop_task_switching2_b,2021.2.3,60.002832099358365,
,,,,,,,,,,,,,,,5,0,5,0,,,,,,,,,,,,,,,,,,,,,89.40605089999735,None,right,1.5454313000664115,89.40605089999735,None,,,,,,,,,,,,,,,,,,,,,,,,,,,,,,,,,,,,,,,,,,,,,,,,,,,,,,,,,,12004,1,2,2024_Jun_13_1356,stroop_task_switching2_b,2021.2.3,60.002832099358365,
,,,,,,,,,,,,,,,,,,,,,,,,,,,,,,,,,,,,,,,,,,,,,90.99331309995614,None,space,5.3779911999590695,90.99331309995614,None,,,,,,,,,,,,,,,,,,,,,,,,,,,,,,,,,,,,,,,,,,,,,,,,,,,,12004,1,2,2024_Jun_13_1356,stroop_task_switching2_b,2021.2.3,60.002832099358365,
condition/block_color_b,instruction/instr_color,instruction/i8_b,XX,red,k,diamond,color_single,颜色,,,,,,,,,,,0,0,0,0,0,0,0,0,0,0,0,0,,,,,,,,,,,,,,,,,,,,,96.43465289997403,None,space,5.64196339994669,96.43465289997403,None,103.14350160001777,104.14517329994123,104.12923870002851,105.131223400007,105.131223400007,None,102.15942010004073,103.16175730002578,106.1324406999629,106.3343426999636,106.31531990005169,106.61573129997123,106.61573129997123,None,107.09963119996246,None,k,1,1.9804316000081599,107.09963119996246,None,None,None,109.10258309997153,None,,,,,,,,,,,,,,,,,,,,,12004,1,2,2024_Jun_13_1356,stroop_task_switching2_b,2021.2.3,60.002832099358365,
condition/block_color_b,instruction/instr_color,instruction/i8_b,XX,green,d,diamond,color_single,颜色,,,,,,,,,,,0,0,0,0,0,0,0,0,0,1,1,1,,,,,,,,,,,,,,,,,,,,,,,,,,,,,,,,,,,110.10544419998769,110.30547400005162,110.28880930005107,110.58920229994692,110.58920229994692,None,111.09004919999279,None,d,1,1.5184982999926433,111.09004919999279,None,None,None,112.62460470001679,None,,,,,,,,,,,,,,,,,,,,,12004,1,2,2024_Jun_13_1356,stroop_task_switching2_b,2021.2.3,60.002832099358365,
condition/block_color_b,instruction/instr_color,instruction/i8_b,XX,yellow,f,diamond,color_single,颜色,,,,,,,,,,,0,0,0,0,0,0,0,0,0,2,2,2,,,,,,,,,,,,,,,,,,,,,,,,,,,,,,,,,,,113.62715660000686,113.82735060004052,113.81051560002379,114.11082149995491,114.11082149995491,None,114.61088289995678,None,f,1,1.0530347999883816,114.61088289995678,None,None,None,115.67930279998109,None,,,,,,,,,,,,,,,,,,,,,12004,1,2,2024_Jun_13_1356,stroop_task_switching2_b,2021.2.3,60.002832099358365,
condition/block_color_b,instruction/instr_color,instruction/i8_b,XX,blue,j,diamond,color_single,颜色,,,,,,,,,,,0,0,0,0,0,0,0,0,0,3,3,3,,,,,,,,,,,,,,,,,,,,,,,,,,,,,,,,,,,116.6806981000118,116.88250890001655,116.86439410003368,117.16503729997203,117.16503729997203,None,117.66556250001304,None,j,1,0.9024102999828756,117.66556250001304,None,None,None,118.58364870003425,None,,,,,,,,,,,,,,,,,,,,,12004,1,2,2024_Jun_13_1356,stroop_task_switching2_b,2021.2.3,60.002832099358365,
condition/block_color_b,instruction/instr_color,instruction/i8_b,XX,green,d,diamond,color_single,颜色,,,,,,,,,,,0,0,0,0,0,0,0,0,0,4,4,4,,,,,,,,,,,,,,,,,,,,,,,,,,,,,,,,,,,119.58511200000066,119.78550250001717,119.7694437999744,120.07006039994303,120.07006039994303,None,120.56973430002108,None,d,1,1.3985404999693856,120.56973430002108,None,None,None,121.988790399977,None,,,,,,,,,,,,,,,,,,,,,12004,1,2,2024_Jun_13_1356,stroop_task_switching2_b,2021.2.3,60.002832099358365,
condition/block_color_b,instruction/instr_color,instruction/i8_b,XX,yellow,f,diamond,color_single,颜色,,,,,,,,,,,0,0,0,0,0,0,0,0,0,5,5,5,,,,,,,,,,,,,,,,,,,,,,,,,,,,,,,,,,,122.99018680001609,123.19242360000499,123.17390960000921,123.47487260005437,123.47487260005437,None,123.97575700003654,None,f,1,1.0807093000039458,123.97575700003654,None,None,None,125.07701639994048,None,,,,,,,,,,,,,,,,,,,,,12004,1,2,2024_Jun_13_1356,stroop_task_switching2_b,2021.2.3,60.002832099358365,
condition/block_color_b,instruction/instr_color,instruction/i8_b,XX,blue,j,diamond,color_single,颜色,,,,,,,,,,,0,0,0,0,0,0,0,0,0,6,6,6,,,,,,,,,,,,,,,,,,,,,,,,,,,,,,,,,,,126.07963950000703,126.29595549998339,126.26157339999918,126.56302370002959,126.56302370002959,None,127.06317730003502,None,j,1,0.6974915000610054,127.06317730003502,None,None,None,127.78071399999317,None,,,,,,,,,,,,,,,,,,,,,12004,1,2,2024_Jun_13_1356,stroop_task_switching2_b,2021.2.3,60.002832099358365,
condition/block_color_b,instruction/instr_color,instruction/i8_b,XX,red,k,diamond,color_single,颜色,,,,,,,,,,,0,0,0,0,0,0,0,0,0,7,7,7,,,,,,,,,,,,,,,,,,,,,,,,,,,,,,,,,,,128.78293210000265,128.98500830004923,128.9664458000334,129.26668070000596,129.26668070000596,None,129.76838130003307,None,k,1,1.0484112000558525,129.76838130003307,None,None,None,130.8354811000172,None,,,,,,,,,,,,,,,,,,,,,12004,1,2,2024_Jun_13_1356,stroop_task_switching2_b,2021.2.3,60.002832099358365,
condition/block_color_b,instruction/instr_color,instruction/i8_b,XX,yellow,f,diamond,color_single,颜色,,,,,,,,,,,0,0,0,0,0,0,0,0,0,8,8,8,,,,,,,,,,,,,,,,,,,,,,,,,,,,,,,,,,,131.8370936999563,132.03793650004081,132.0204417000059,132.32248870003968,132.32248870003968,None,132.8218126000138,None,f,1,1.1786040000151843,132.8218126000138,None,None,None,134.02357760001905,None,,,,,,,,,,,,,,,,,,,,,12004,1,2,2024_Jun_13_1356,stroop_task_switching2_b,2021.2.3,60.002832099358365,
condition/block_color_b,instruction/instr_color,instruction/i8_b,XX,blue,j,diamond,color_single,颜色,,,,,,,,,,,0,0,0,0,0,0,0,0,0,9,9,9,,,,,,,,,,,,,,,,,,,,,,,,,,,,,,,,,,,135.02513900003396,135.22703680000268,135.20982740004547,135.510291100014,135.510291100014,None,136.0108624000568,None,j,1,0.7898570999968797,136.0108624000568,None,None,None,136.8278500000015,None,,,,,,,,,,,,,,,,,,,,,12004,1,2,2024_Jun_13_1356,stroop_task_switching2_b,2021.2.3,60.002832099358365,
condition/block_color_b,instruction/instr_color,instruction/i8_b,XX,red,k,diamond,color_single,颜色,,,,,,,,,,,0,0,0,0,0,0,0,0,0,10,10,10,,,,,,,,,,,,,,,,,,,,,,,,,,,,,,,,,,,137.8290184000507,138.03220669995062,138.01373669994064,138.31339429994114,138.31339429994114,None,138.81430319999345,None,k,1,0.8422699000220746,138.81430319999345,None,None,None,139.68216109997593,None,,,,,,,,,,,,,,,,,,,,,12004,1,2,2024_Jun_13_1356,stroop_task_switching2_b,2021.2.3,60.002832099358365,
condition/block_color_b,instruction/instr_color,instruction/i8_b,XX,green,d,diamond,color_single,颜色,,,,,,,,,,,0,0,0,0,0,0,0,0,0,11,11,11,,,,,,,,,,,,,,,,,,,,,,,,,,,,,,,,,,,140.68553400004748,140.90185699996073,140.86719749995973,141.16767160000745,141.16767160000745,None,141.66822909994517,None,j,0,0.9730138999875635,141.66822909994517,None,None,None,142.66970520000905,None,,,,,,,,,,,,,,,,,,,,,12004,1,2,2024_Jun_13_1356,stroop_task_switching2_b,2021.2.3,60.002832099358365,
condition/block_color_b,instruction/instr_color,instruction/i8_b,XX,blue,j,diamond,color_single,颜色,,,,,,,,,,,0,0,0,0,0,0,0,0,0,12,12,12,,,,,,,,,,,,,,,,,,,,,,,,,,,,,,,,,,,143.67130639997777,143.87224569998216,143.85608229995705,144.1561120999977,144.1561120999977,None,144.6561307000229,None,j,1,0.6169979000696912,144.6561307000229,None,None,None,145.29065169999376,None,,,,,,,,,,,,,,,,,,,,,12004,1,2,2024_Jun_13_1356,stroop_task_switching2_b,2021.2.3,60.002832099358365,
condition/block_color_b,instruction/instr_color,instruction/i8_b,XX,red,k,diamond,color_single,颜色,,,,,,,,,,,0,0,0,0,0,0,0,0,0,13,13,13,,,,,,,,,,,,,,,,,,,,,,,,,,,,,,,,,,,146.2929609999992,146.49351850000676,146.47574969998095,146.77753800002392,146.77753800002392,None,147.27672810002696,None,k,1,1.2124581000534818,147.27672810002696,None,None,None,148.51221479999367,None,,,,,,,,,,,,,,,,,,,,,12004,1,2,2024_Jun_13_1356,stroop_task_switching2_b,2021.2.3,60.002832099358365,
condition/block_color_b,instruction/instr_color,instruction/i8_b,XX,green,d,diamond,color_single,颜色,,,,,,,,,,,0,0,0,0,0,0,0,0,0,14,14,14,,,,,,,,,,,,,,,,,,,,,,,,,,,,,,,,,,,149.5141133000143,149.71470540005248,149.69921630003955,149.99919270002283,149.99919270002283,None,150.49892689997796,None,d,1,1.3422190999845043,150.49892689997796,None,None,None,151.8671324000461,None,,,,,,,,,,,,,,,,,,,,,12004,1,2,2024_Jun_13_1356,stroop_task_switching2_b,2021.2.3,60.002832099358365,
condition/block_color_b,instruction/instr_color,instruction/i8_b,XX,yellow,f,diamond,color_single,颜色,,,,,,,,,,,0,0,0,0,0,0,0,0,0,15,15,15,,,,,,,,,,,,,,,,,,,,,,,,,,,,,,,,,,,152.868385400041,153.07035239995457,153.05225619999692,153.35278069996275,153.35278069996275,None,153.85395010001957,None,f,1,1.0355333000188693,153.85395010001957,None,None,None,154.90505679999478,None,,,,,,,,,,,,,,,,,,,,,12004,1,2,2024_Jun_13_1356,stroop_task_switching2_b,2021.2.3,60.002832099358365,
condition/block_color_b,instruction/instr_color,instruction/i8_b,XX,red,k,diamond,color_single,颜色,,,,,,,,,,,0,0,0,0,0,0,0,0,0,16,16,16,,,,,,,,,,,,,,,,,,,,,,,,,,,,,,,,,,,155.90659919998143,156.1069268999854,156.0901357999537,156.391012600041,156.391012600041,None,156.89124250004534,None,k,1,0.8059224999742582,156.89124250004534,None,None,None,157.72606180002913,None,,,,,,,,,,,,,,,,,,,,,12004,1,2,2024_Jun_13_1356,stroop_task_switching2_b,2021.2.3,60.002832099358365,
condition/block_color_b,instruction/instr_color,instruction/i8_b,XX,green,d,diamond,color_single,颜色,,,,,,,,,,,0,0,0,0,0,0,0,0,0,17,17,17,,,,,,,,,,,,,,,,,,,,,,,,,,,,,,,,,,,158.72749119997025,158.92859400005545,158.91186190000735,159.21213959995657,159.21213959995657,None,159.7136816000566,None,d,1,1.2153799999505281,159.7136816000566,None,None,None,160.94769369997084,None,,,,,,,,,,,,,,,,,,,,,12004,1,2,2024_Jun_13_1356,stroop_task_switching2_b,2021.2.3,60.002832099358365,
condition/block_color_b,instruction/instr_color,instruction/i8_b,XX,yellow,f,diamond,color_single,颜色,,,,,,,,,,,0,0,0,0,0,0,0,0,0,18,18,18,,,,,,,,,,,,,,,,,,,,,,,,,,,,,,,,,,,161.9494538999861,162.15029170003254,162.13306669995654,162.43380889995024,162.43380889995024,None,162.9338209000416,None,f,1,0.7153573000105098,162.9338209000416,None,None,None,163.6685658999486,None,,,,,,,,,,,,,,,,,,,,,12004,1,2,2024_Jun_13_1356,stroop_task_switching2_b,2021.2.3,60.002832099358365,
condition/block_color_b,instruction/instr_color,instruction/i8_b,XX,blue,j,diamond,color_single,颜色,,,,,,,,,,,0,0,0,0,0,0,0,0,0,19,19,19,,,,,,,,,,,,,,,,,,,,,,,,,,,,,,,,,,,164.6698214999633,164.87026680004783,164.854265699978,165.1548032000428,165.1548032000428,None,165.65519299998414,None,j,1,0.3624241000507027,165.65519299998414,None,None,None,166.0388893999625,None,,,,,,,,,,,,,,,,,,,,,12004,1,2,2024_Jun_13_1356,stroop_task_switching2_b,2021.2.3,60.002832099358365,
condition/block_color_b,instruction/instr_color,instruction/i8_b,XX,green,d,diamond,color_single,颜色,,,,,,,,,,,0,0,0,0,0,0,0,0,0,20,20,20,,,,,,,,,,,,,,,,,,,,,,,,,,,,,,,,,,,167.04007710004225,167.24098739994224,167.223529699957,167.5248720999807,167.5248720999807,None,168.0256253000116,None,d,1,0.9358619999838993,168.0256253000116,None,None,None,168.97631940001156,None,,,,,,,,,,,,,,,,,,,,,12004,1,2,2024_Jun_13_1356,stroop_task_switching2_b,2021.2.3,60.002832099358365,
condition/block_color_b,instruction/instr_color,instruction/i8_b,XX,yellow,f,diamond,color_single,颜色,,,,,,,,,,,0,0,0,0,0,0,0,0,0,21,21,21,,,,,,,,,,,,,,,,,,,,,,,,,,,,,,,,,,,169.9790982999839,170.17998380004428,170.162025299971,170.46369290002622,170.46369290002622,None,170.96361770003568,None,f,1,0.4942932999692857,170.96361770003568,None,None,None,171.4800254999427,None,,,,,,,,,,,,,,,,,,,,,12004,1,2,2024_Jun_13_1356,stroop_task_switching2_b,2021.2.3,60.002832099358365,
condition/block_color_b,instruction/instr_color,instruction/i8_b,XX,blue,j,diamond,color_single,颜色,,,,,,,,,,,0,0,0,0,0,0,0,0,0,22,22,22,,,,,,,,,,,,,,,,,,,,,,,,,,,,,,,,,,,172.48132340004668,172.68416309996974,172.66572080005426,172.96546930004843,172.96546930004843,None,173.46771750005428,None,j,1,0.4539109000470489,173.46771750005428,None,None,None,173.95050110004377,None,,,,,,,,,,,,,,,,,,,,,12004,1,2,2024_Jun_13_1356,stroop_task_switching2_b,2021.2.3,60.002832099358365,
condition/block_color_b,instruction/instr_color,instruction/i8_b,XX,red,k,diamond,color_single,颜色,,,,,,,,,,,0,0,0,0,0,0,0,0,0,23,23,23,,,,,,,,,,,,,,,,,,,,,,,,,,,,,,,,,,,174.95271380001213,175.15235170000233,175.13609789998736,175.4361325999489,175.4361325999489,None,175.93698380002752,None,k,1,0.32858229998964816,175.93698380002752,None,None,None,176.28721280000173,None,,,,,,,,,,,,,,,,,,,,,12004,1,2,2024_Jun_13_1356,stroop_task_switching2_b,2021.2.3,60.002832099358365,
condition/block_color_b,instruction/instr_color,instruction/i8_b,,,,,,,,,,,,,,,,,0,0,0,0,0,0,0,0,,,,,,,,,,,,,,,,,,,,,,,,,,,,,,,,,,,,,,,,,,,,,,,,,,,,,,,,177.30464500002563,None,space,2.6284168999409303,177.30464500002563,None,,,,,,,,,,,,,,,12004,1,2,2024_Jun_13_1356,stroop_task_switching2_b,2021.2.3,60.002832099358365,
condition/block_color_b,instruction/instr_color,instruction/i8_b,,,,,,,,,,,,,,,,,0,0,0,0,,,,,,,,,,,,,,,,,,,,,,,,,,,,,,,,,,,,,,,,,,,,,,,,,,,,,,,,,,,,,,,,,,,,,,,,,,,,,,,,12004,1,2,2024_Jun_13_1356,stroop_task_switching2_b,2021.2.3,60.002832099358365,
condition/block_word_b,instruction/instr_word,instruction/i9_b,黄,white,f,square,word_single,单词,0.0032461461866890584,,,,,,,,,,0,1,1,1,0,0,0,0,0,0,0,0,,,,,,,,,,,,,,,,,,,,,179.97582809999585,None,space,5.249822000041604,179.97582809999585,None,186.25212349998765,187.25383970001712,187.25383970001712,188.25624170002993,188.25624170002993,None,185.2694816000294,186.270003200043,189.29146990005393,189.49171440000646,189.4738667999627,189.7752592000179,189.7752592000179,None,190.2583565999521,None,f,1,1.32041579997167,190.2583565999521,None,None,None,191.59383399994113,None,,,,,,,,,,,,,,,,,,,,,12004,1,2,2024_Jun_13_1356,stroop_task_switching2_b,2021.2.3,60.002832099358365,
condition/block_word_b,instruction/instr_word,instruction/i9_b,蓝,white,j,square,word_single,单词,0.060540570646362424,,,,,,,,,,0,1,1,1,0,0,0,0,0,1,1,1,,,,,,,,,,,,,,,,,,,,,,,,,,,,,,,,,,,192.59516999998596,192.79607859998941,192.77889670000877,193.07910750003066,193.07910750003066,None,193.58011239999905,None,j,1,0.43073530006222427,193.58011239999905,None,None,None,194.03070120001212,None,,,,,,,,,,,,,,,,,,,,,12004,1,2,2024_Jun_13_1356,stroop_task_switching2_b,2021.2.3,60.002832099358365,
condition/block_word_b,instruction/instr_word,instruction/i9_b,黄,white,f,square,word_single,单词,0.06994067193778963,,,,,,,,,,0,1,1,1,0,0,0,0,0,2,2,2,,,,,,,,,,,,,,,,,,,,,,,,,,,,,,,,,,,195.0330959999701,195.2332964000525,195.21643449994735,195.51715309999418,195.51715309999418,None,196.01825359999202,None,f,1,0.8719260001089424,196.01825359999202,None,None,None,196.91857900004834,None,,,,,,,,,,,,,,,,,,,,,12004,1,2,2024_Jun_13_1356,stroop_task_switching2_b,2021.2.3,60.002832099358365,
condition/block_word_b,instruction/instr_word,instruction/i9_b,蓝,white,j,square,word_single,单词,0.08193765152950094,,,,,,,,,,0,1,1,1,0,0,0,0,0,3,3,3,,,,,,,,,,,,,,,,,,,,,,,,,,,,,,,,,,,197.91996009997092,198.12083919998258,198.10372839996126,198.40390919998754,198.40390919998754,None,198.90613519994076,None,j,1,0.7122502999845892,198.90613519994076,None,None,None,199.63903990003746,None,,,,,,,,,,,,,,,,,,,,,12004,1,2,2024_Jun_13_1356,stroop_task_switching2_b,2021.2.3,60.002832099358365,
condition/block_word_b,instruction/instr_word,instruction/i9_b,红,white,k,square,word_single,单词,0.1279694370605574,,,,,,,,,,0,1,1,1,0,0,0,0,0,4,4,4,,,,,,,,,,,,,,,,,,,,,,,,,,,,,,,,,,,200.64071830001194,200.84181769995485,200.8249679999426,201.12567470001522,201.12567470001522,None,201.62572949996684,None,k,1,0.8407930999528617,201.62572949996684,None,None,None,202.49414039996918,None,,,,,,,,,,,,,,,,,,,,,12004,1,2,2024_Jun_13_1356,stroop_task_switching2_b,2021.2.3,60.002832099358365,
condition/block_word_b,instruction/instr_word,instruction/i9_b,红,white,k,square,word_single,单词,0.18345028784879092,,,,,,,,,,0,1,1,1,0,0,0,0,0,5,5,5,,,,,,,,,,,,,,,,,,,,,,,,,,,,,,,,,,,203.49570860003587,203.69615269999485,203.67983369994909,203.97963309998158,203.97963309998158,None,204.48117929999717,None,k,1,0.6093890001066029,204.48117929999717,None,None,None,205.11423369997647,None,,,,,,,,,,,,,,,,,,,,,12004,1,2,2024_Jun_13_1356,stroop_task_switching2_b,2021.2.3,60.002832099358365,
condition/block_word_b,instruction/instr_word,instruction/i9_b,蓝,white,j,square,word_single,单词,0.19920386223101294,,,,,,,,,,0,1,1,1,0,0,0,0,0,6,6,6,,,,,,,,,,,,,,,,,,,,,,,,,,,,,,,,,,,206.11572710005566,206.31793180003297,206.29922699998133,206.59947599994484,206.59947599994484,None,207.10048559994902,None,j,1,0.6618607999989763,207.10048559994902,None,None,None,207.78464169998188,None,,,,,,,,,,,,,,,,,,,,,12004,1,2,2024_Jun_13_1356,stroop_task_switching2_b,2021.2.3,60.002832099358365,
condition/block_word_b,instruction/instr_word,instruction/i9_b,蓝,white,j,square,word_single,单词,0.26360599864925405,,,,,,,,,,0,1,1,1,0,0,0,0,0,7,7,7,,,,,,,,,,,,,,,,,,,,,,,,,,,,,,,,,,,208.7864077000413,208.9874215000309,208.97057570004836,209.27152830001432,209.27152830001432,None,209.77255150000565,None,j,1,0.638091400032863,209.77255150000565,None,None,None,210.43936479999684,None,,,,,,,,,,,,,,,,,,,,,12004,1,2,2024_Jun_13_1356,stroop_task_switching2_b,2021.2.3,60.002832099358365,
condition/block_word_b,instruction/instr_word,instruction/i9_b,蓝,white,j,square,word_single,单词,0.358985675745526,,,,,,,,,,0,1,1,1,0,0,0,0,0,8,8,8,,,,,,,,,,,,,,,,,,,,,,,,,,,,,,,,,,,211.44029259996023,211.64062930003274,211.6239078999497,211.9266580999829,211.9266580999829,None,212.4419466999825,None,j,1,0.5210621999576688,212.4419466999825,None,None,None,212.99333930003922,None,,,,,,,,,,,,,,,,,,,,,12004,1,2,2024_Jun_13_1356,stroop_task_switching2_b,2021.2.3,60.002832099358365,
condition/block_word_b,instruction/instr_word,instruction/i9_b,绿,white,d,square,word_single,单词,0.36496733802487347,,,,,,,,,,0,1,1,1,0,0,0,0,0,9,9,9,,,,,,,,,,,,,,,,,,,,,,,,,,,,,,,,,,,213.99410430004355,214.1957174000563,214.17884750000667,214.47890910005663,214.47890910005663,None,214.97914159996435,None,d,1,1.143566699931398,214.97914159996435,None,None,None,216.14835999999195,None,,,,,,,,,,,,,,,,,,,,,12004,1,2,2024_Jun_13_1356,stroop_task_switching2_b,2021.2.3,60.002832099358365,
condition/block_word_b,instruction/instr_word,instruction/i9_b,黄,white,f,square,word_single,单词,0.3743513623756727,,,,,,,,,,0,1,1,1,0,0,0,0,0,10,10,10,,,,,,,,,,,,,,,,,,,,,,,,,,,,,,,,,,,217.148912500008,217.35005610005464,217.33444170001894,217.6328811000567,217.6328811000567,None,218.13518199999817,None,f,1,0.41142140002921224,218.13518199999817,None,None,None,218.56822080002166,None,,,,,,,,,,,,,,,,,,,,,12004,1,2,2024_Jun_13_1356,stroop_task_switching2_b,2021.2.3,60.002832099358365,
condition/block_word_b,instruction/instr_word,instruction/i9_b,红,white,k,square,word_single,单词,0.3894803852598544,,,,,,,,,,0,1,1,1,0,0,0,0,0,11,11,11,,,,,,,,,,,,,,,,,,,,,,,,,,,,,,,,,,,219.57012050005142,219.7696821000427,219.7542817000067,220.0532974000089,220.0532974000089,None,220.5539518999867,None,k,1,0.6179790000896901,220.5539518999867,None,None,None,221.1890516000567,None,,,,,,,,,,,,,,,,,,,,,12004,1,2,2024_Jun_13_1356,stroop_task_switching2_b,2021.2.3,60.002832099358365,
condition/block_word_b,instruction/instr_word,instruction/i9_b,绿,white,d,square,word_single,单词,0.5393759672408067,,,,,,,,,,0,1,1,1,0,0,0,0,0,12,12,12,,,,,,,,,,,,,,,,,,,,,,,,,,,,,,,,,,,222.18991099996492,222.3901099000359,222.37489770003594,222.67486889997963,222.67486889997963,None,223.1753074999433,None,d,1,0.6279382000211626,223.1753074999433,None,None,None,223.82561309996527,None,,,,,,,,,,,,,,,,,,,,,12004,1,2,2024_Jun_13_1356,stroop_task_switching2_b,2021.2.3,60.002832099358365,
condition/block_word_b,instruction/instr_word,instruction/i9_b,蓝,white,j,square,word_single,单词,0.5995731954831104,,,,,,,,,,0,1,1,1,0,0,0,0,0,13,13,13,,,,,,,,,,,,,,,,,,,,,,,,,,,,,,,,,,,224.8274028999731,225.0274954000488,225.0109756999882,225.31126260000747,225.31126260000747,None,225.81314019998536,None,j,1,0.5503718999680132,225.81314019998536,None,None,None,226.37953280005604,None,,,,,,,,,,,,,,,,,,,,,12004,1,2,2024_Jun_13_1356,stroop_task_switching2_b,2021.2.3,60.002832099358365,
condition/block_word_b,instruction/instr_word,instruction/i9_b,红,white,k,square,word_single,单词,0.6298674479151414,,,,,,,,,,0,1,1,1,0,0,0,0,0,14,14,14,,,,,,,,,,,,,,,,,,,,,,,,,,,,,,,,,,,227.38231969997287,227.5826706000371,227.56521499995142,227.8671759000281,227.8671759000281,None,228.36573560000397,None,k,1,0.8696359999012202,228.36573560000397,None,None,None,229.26713299995754,None,,,,,,,,,,,,,,,,,,,,,12004,1,2,2024_Jun_13_1356,stroop_task_switching2_b,2021.2.3,60.002832099358365,
condition/block_word_b,instruction/instr_word,instruction/i9_b,红,white,k,square,word_single,单词,0.7389942282348904,,,,,,,,,,0,1,1,1,0,0,0,0,0,15,15,15,,,,,,,,,,,,,,,,,,,,,,,,,,,,,,,,,,,230.26862969994545,230.47003279998899,230.4533971999772,230.7539968000492,230.7539968000492,None,231.2548066000454,None,k,1,0.7805637998972088,231.2548066000454,None,None,None,232.05524200003128,None,,,,,,,,,,,,,,,,,,,,,12004,1,2,2024_Jun_13_1356,stroop_task_switching2_b,2021.2.3,60.002832099358365,
condition/block_word_b,instruction/instr_word,instruction/i9_b,绿,white,d,square,word_single,单词,0.7550853947239682,,,,,,,,,,0,1,1,1,0,0,0,0,0,16,16,16,,,,,,,,,,,,,,,,,,,,,,,,,,,,,,,,,,,233.05629920004867,233.25631700002123,233.24071469996125,233.54150829999708,233.54150829999708,None,234.0411295000231,None,d,1,0.9462055000476539,234.0411295000231,None,None,None,235.00940019998234,None,,,,,,,,,,,,,,,,,,,,,12004,1,2,2024_Jun_13_1356,stroop_task_switching2_b,2021.2.3,60.002832099358365,
condition/block_word_b,instruction/instr_word,instruction/i9_b,绿,white,d,square,word_single,单词,0.8019302780428206,,,,,,,,,,0,1,1,1,0,0,0,0,0,17,17,17,,,,,,,,,,,,,,,,,,,,,,,,,,,,,,,,,,,236.01207489997614,236.2119072000496,236.19547120004427,236.49559629999567,236.49559629999567,None,236.99554879998323,None,d,1,0.8638032000744715,236.99554879998323,None,None,None,237.88015790004283,None,,,,,,,,,,,,,,,,,,,,,12004,1,2,2024_Jun_13_1356,stroop_task_switching2_b,2021.2.3,60.002832099358365,
condition/block_word_b,instruction/instr_word,instruction/i9_b,绿,white,d,square,word_single,单词,0.8110702914095343,,,,,,,,,,0,1,1,1,0,0,0,0,0,18,18,18,,,,,,,,,,,,,,,,,,,,,,,,,,,,,,,,,,,238.88151610002387,239.08278379996773,239.06608120002784,239.36638809996657,239.36638809996657,None,239.8666082000127,None,d,1,0.7852969000814483,239.8666082000127,None,None,None,240.6677112999605,None,,,,,,,,,,,,,,,,,,,,,12004,1,2,2024_Jun_13_1356,stroop_task_switching2_b,2021.2.3,60.002832099358365,
condition/block_word_b,instruction/instr_word,instruction/i9_b,黄,white,f,square,word_single,单词,0.8176594937590999,,,,,,,,,,0,1,1,1,0,0,0,0,0,19,19,19,,,,,,,,,,,,,,,,,,,,,,,,,,,,,,,,,,,241.66922030004207,241.87130240001716,241.85330750001594,242.1540629999945,242.1540629999945,None,242.6540511000203,None,f,1,0.9018056000350043,242.6540511000203,None,None,None,243.57199980004225,None,,,,,,,,,,,,,,,,,,,,,12004,1,2,2024_Jun_13_1356,stroop_task_switching2_b,2021.2.3,60.002832099358365,
condition/block_word_b,instruction/instr_word,instruction/i9_b,红,white,k,square,word_single,单词,0.8955794421104841,,,,,,,,,,0,1,1,1,0,0,0,0,0,20,20,20,,,,,,,,,,,,,,,,,,,,,,,,,,,,,,,,,,,244.57507739996072,244.79116689995863,244.7571121000219,245.0586247999454,245.0586247999454,None,245.5598073999863,None,k,1,0.5718411001143977,245.5598073999863,None,None,None,246.1595858000219,None,,,,,,,,,,,,,,,,,,,,,12004,1,2,2024_Jun_13_1356,stroop_task_switching2_b,2021.2.3,60.002832099358365,
condition/block_word_b,instruction/instr_word,instruction/i9_b,绿,white,d,square,word_single,单词,0.9113598052474129,,,,,,,,,,0,1,1,1,0,0,0,0,0,21,21,21,,,,,,,,,,,,,,,,,,,,,,,,,,,,,,,,,,,247.16093919996638,247.36094229994342,247.34598530002404,247.6451059000101,247.6451059000101,None,248.14560379995964,None,d,1,0.6901484999107197,248.14560379995964,None,None,None,248.86429109994788,None,,,,,,,,,,,,,,,,,,,,,12004,1,2,2024_Jun_13_1356,stroop_task_switching2_b,2021.2.3,60.002832099358365,
condition/block_word_b,instruction/instr_word,instruction/i9_b,黄,white,f,square,word_single,单词,0.9215930958042953,,,,,,,,,,0,1,1,1,0,0,0,0,0,22,22,22,,,,,,,,,,,,,,,,,,,,,,,,,,,,,,,,,,,249.8649952999549,250.06583790003788,250.04910199996084,250.3507729000412,250.3507729000412,None,250.86651650001295,None,f,1,0.3775283999275416,250.86651650001295,None,None,None,251.26688480004668,None,,,,,,,,,,,,,,,,,,,,,12004,1,2,2024_Jun_13_1356,stroop_task_switching2_b,2021.2.3,60.002832099358365,
condition/block_word_b,instruction/instr_word,instruction/i9_b,黄,white,f,square,word_single,单词,0.9493525498837774,,,,,,,,,,0,1,1,1,0,0,0,0,0,23,23,23,,,,,,,,,,,,,,,,,,,,,,,,,,,,,,,,,,,252.2690839000279,252.4706462000031,252.45207700005267,252.75244750001002,252.75244750001002,None,253.25327999994624,None,f,1,0.6702955999644473,253.25327999994624,None,None,None,253.95445359998848,None,,,,,,,,,,,,,,,,,,,,,12004,1,2,2024_Jun_13_1356,stroop_task_switching2_b,2021.2.3,60.002832099358365,
condition/block_word_b,instruction/instr_word,instruction/i9_b,,,,,,,,,,,,,,,,,0,1,1,1,0,0,0,0,,,,,,,,,,,,,,,,,,,,,,,,,,,,,,,,,,,,,,,,,,,,,,,,,,,,,,,,254.95591270003933,None,space,4.592719599953853,254.95591270003933,None,,,,,,,,,,,,,,,12004,1,2,2024_Jun_13_1356,stroop_task_switching2_b,2021.2.3,60.002832099358365,
condition/block_word_b,instruction/instr_word,instruction/i9_b,,,,,,,,,,,,,,,,,0,1,1,1,,,,,,,,,,,,,,,,,,,,,,,,,,,,,,,,,,,,,,,,,,,,,,,,,,,,,,,,,,,,,,,,,,,,,,,,,,,,,,,,12004,1,2,2024_Jun_13_1356,stroop_task_switching2_b,2021.2.3,60.002832099358365,
condition/block_mixed_b,instruction/instr_mixed,instruction/i10_b,蓝,red,k,diamond,color_mix,颜色,,incompatible,0,,,,,,,,0,2,2,2,0,0,0,0,0,0,0,0,,,,,,,,,,,,,,,,,,,,,259.5962851999793,None,space,18.584194700000808,259.5962851999793,None,279.2092388999881,280.21069440001156,280.21069440001156,281.21293599996716,281.21293599996716,None,278.2251149000367,279.2260914000217,282.24860589997843,282.46513799997047,282.4307233999716,282.73238189995755,282.73238189995755,None,283.21511450002436,None,j,0,0.9416894000023603,283.21511450002436,None,None,None,284.18331780005246,None,,,,,,,,,,,,,,,,,,,,,12004,1,2,2024_Jun_13_1356,stroop_task_switching2_b,2021.2.3,60.002832099358365,
condition/block_mixed_b,instruction/instr_mixed,instruction/i10_b,绿,yellow,f,diamond,color_mix,颜色,,incompatible,1,,,,,,,,0,2,2,2,0,0,0,0,0,1,1,1,,,,,,,,,,,,,,,,,,,,,,,,,,,,,,,,,,,285.1849332000129,285.38583100005053,285.36905149999075,285.6704730000347,285.6704730000347,None,286.1704149999423,None,d,0,2.0984071999555454,286.1704149999423,None,None,None,288.28969420003705,None,,,,,,,,,,,,,,,,,,,,,12004,1,2,2024_Jun_13_1356,stroop_task_switching2_b,2021.2.3,60.002832099358365,
condition/block_mixed_b,instruction/instr_mixed,instruction/i10_b,红,green,d,diamond,color_mix,颜色,,incompatible,1,,,,,,,,0,2,2,2,0,0,0,0,0,2,2,2,,,,,,,,,,,,,,,,,,,,,,,,,,,,,,,,,,,289.29113679996226,289.49245489994064,289.47475099994335,289.77567280002404,289.77567280002404,None,290.27576390001923,None,d,1,1.7208197999279946,290.27576390001923,None,None,None,292.01177270000335,None,,,,,,,,,,,,,,,,,,,,,12004,1,2,2024_Jun_13_1356,stroop_task_switching2_b,2021.2.3,60.002832099358365,
condition/block_mixed_b,instruction/instr_mixed,instruction/i10_b,蓝,red,k,diamond,color_mix,颜色,,incompatible,1,,,,,,,,0,2,2,2,0,0,0,0,0,3,3,3,,,,,,,,,,,,,,,,,,,,,,,,,,,,,,,,,,,293.0133890999714,293.2136166000273,293.1967965000076,293.49896959995385,293.49896959995385,None,293.99882970005274,None,k,1,2.006626999936998,293.99882970005274,None,None,None,296.0345349999843,None,,,,,,,,,,,,,,,,,,,,,12004,1,2,2024_Jun_13_1356,stroop_task_switching2_b,2021.2.3,60.002832099358365,
condition/block_mixed_b,instruction/instr_mixed,instruction/i10_b,红,blue,j,diamond,color_mix,颜色,,incompatible,1,,,,,,,,0,2,2,2,0,0,0,0,0,4,4,4,,,,,,,,,,,,,,,,,,,,,,,,,,,,,,,,,,,297.03604999999516,297.2371249999851,297.22048230003566,297.52106539998204,297.52106539998204,None,298.02191779995337,None,j,1,0.791256699943915,298.02191779995337,None,None,None,298.83880899997894,None,,,,,,,,,,,,,,,,,,,,,12004,1,2,2024_Jun_13_1356,stroop_task_switching2_b,2021.2.3,60.002832099358365,
condition/block_mixed_b,instruction/instr_mixed,instruction/i10_b,红,blue,k,square,color_mix,单词,,incompatible,2,,,,,,,,0,2,2,2,0,0,0,0,0,5,5,5,,,,,,,,,,,,,,,,,,,,,,,,,,,,,,,,,,,299.84027199994307,300.04087519994937,300.02434320002794,300.326292200014,300.326292200014,None,300.8251974999439,None,k,1,1.8049012999981642,300.8251974999439,None,None,None,302.6444823000347,None,,,,,,,,,,,,,,,,,,,,,12004,1,2,2024_Jun_13_1356,stroop_task_switching2_b,2021.2.3,60.002832099358365,
condition/block_mixed_b,instruction/instr_mixed,instruction/i10_b,红,yellow,f,diamond,color_mix,颜色,,incompatible,2,,,,,,,,0,2,2,2,0,0,0,0,0,6,6,6,,,,,,,,,,,,,,,,,,,,,,,,,,,,,,,,,,,303.64690880000126,303.84620489994995,303.829443500028,304.13192359998357,304.13192359998357,None,304.64824999996927,None,k,0,1.3179482999257743,304.64824999996927,None,None,None,305.982921399991,None,,,,,,,,,,,,,,,,,,,,,12004,1,2,2024_Jun_13_1356,stroop_task_switching2_b,2021.2.3,60.002832099358365,
condition/block_mixed_b,instruction/instr_mixed,instruction/i10_b,红,yellow,k,square,color_mix,单词,,incompatible,2,,,,,,,,0,2,2,2,0,0,0,0,0,7,7,7,,,,,,,,,,,,,,,,,,,,,,,,,,,,,,,,,,,306.98427240003366,307.18654779996723,307.1680392000126,307.4697706999723,307.4697706999723,None,307.96915499994066,None,k,1,1.828085699933581,307.96915499994066,None,None,None,309.8224821999902,None,,,,,,,,,,,,,,,,,,,,,12004,1,2,2024_Jun_13_1356,stroop_task_switching2_b,2021.2.3,60.002832099358365,
condition/block_mixed_b,instruction/instr_mixed,instruction/i10_b,绿,blue,d,square,color_mix,单词,,incompatible,1,,,,,,,,0,2,2,2,0,0,0,0,0,8,8,8,,,,,,,,,,,,,,,,,,,,,,,,,,,,,,,,,,,310.82354310003575,311.0244234999409,311.00836730003357,311.3086757999845,311.3086757999845,None,311.80886109999847,None,d,1,1.4524514999939129,311.80886109999847,None,None,None,313.27720470004715,None,,,,,,,,,,,,,,,,,,,,,12004,1,2,2024_Jun_13_1356,stroop_task_switching2_b,2021.2.3,60.002832099358365,
condition/block_mixed_b,instruction/instr_mixed,instruction/i10_b,蓝,green,d,diamond,color_mix,颜色,,incompatible,2,,,,,,,,0,2,2,2,0,0,0,0,0,9,9,9,,,,,,,,,,,,,,,,,,,,,,,,,,,,,,,,,,,314.2793035999639,314.47903629997745,314.46325070003513,314.7628716999898,314.7628716999898,None,315.2634726000251,None,j,0,1.1739027999574319,315.2634726000251,None,None,None,316.4653320000507,None,,,,,,,,,,,,,,,,,,,,,12004,1,2,2024_Jun_13_1356,stroop_task_switching2_b,2021.2.3,60.002832099358365,
condition/block_mixed_b,instruction/instr_mixed,instruction/i10_b,蓝,yellow,j,square,color_mix,单词,,incompatible,2,,,,,,,,0,2,2,2,0,0,0,0,0,10,10,10,,,,,,,,,,,,,,,,,,,,,,,,,,,,,,,,,,,317.466702900012,317.6671672000084,317.6510361999972,317.95205580000766,317.95205580000766,None,318.4517878999468,None,j,1,2.354378799907863,318.4517878999468,None,None,None,320.82275339995977,None,,,,,,,,,,,,,,,,,,,,,12004,1,2,2024_Jun_13_1356,stroop_task_switching2_b,2021.2.3,60.002832099358365,
condition/block_mixed_b,instruction/instr_mixed,instruction/i10_b,蓝,green,j,square,color_mix,单词,,incompatible,1,,,,,,,,0,2,2,2,0,0,0,0,0,11,11,11,,,,,,,,,,,,,,,,,,,,,,,,,,,,,,,,,,,321.8243841000367,322.02441429998726,322.0068274999503,322.3083601000253,322.3083601000253,None,322.80840600002557,None,j,1,1.4218549999641255,322.80840600002557,None,None,None,324.26036499999464,None,,,,,,,,,,,,,,,,,,,,,12004,1,2,2024_Jun_13_1356,stroop_task_switching2_b,2021.2.3,60.002832099358365,
condition/block_mixed_b,instruction/instr_mixed,instruction/i10_b,绿,yellow,d,square,color_mix,单词,,incompatible,1,,,,,,,,0,2,2,2,0,0,0,0,0,12,12,12,,,,,,,,,,,,,,,,,,,,,,,,,,,,,,,,,,,325.2620497000171,325.46480870002415,325.44560470001306,325.74611659999937,325.74611659999937,None,326.24760969995987,None,d,1,2.3582676999503747,326.24760969995987,None,None,None,328.6336143000517,None,,,,,,,,,,,,,,,,,,,,,12004,1,2,2024_Jun_13_1356,stroop_task_switching2_b,2021.2.3,60.002832099358365,
condition/block_mixed_b,instruction/instr_mixed,instruction/i10_b,绿,blue,j,diamond,color_mix,颜色,,incompatible,2,,,,,,,,0,2,2,2,0,0,0,0,0,13,13,13,,,,,,,,,,,,,,,,,,,,,,,,,,,,,,,,,,,329.63602340000216,329.8355222999817,329.81960040004924,330.12083959998563,330.12083959998563,None,330.62001860002056,None,d,0,1.0580865000374615,330.62001860002056,None,None,None,331.70490360003896,None,,,,,,,,,,,,,,,,,,,,,12004,1,2,2024_Jun_13_1356,stroop_task_switching2_b,2021.2.3,60.002832099358365,
condition/block_mixed_b,instruction/instr_mixed,instruction/i10_b,黄,red,f,square,color_mix,单词,,incompatible,2,,,,,,,,0,2,2,2,0,0,0,0,0,14,14,14,,,,,,,,,,,,,,,,,,,,,,,,,,,,,,,,,,,332.7064603000181,332.90682449995074,332.89065279997885,333.1917935999809,333.1917935999809,None,333.69194940000307,336.6968610000331,None,0,,333.69194940000307,336.6968610000331,336.6801389999455,None,337.26361090003047,None,,,,,,,,,,,,,,,,,,,,,12004,1,2,2024_Jun_13_1356,stroop_task_switching2_b,2021.2.3,60.002832099358365,
condition/block_mixed_b,instruction/instr_mixed,instruction/i10_b,蓝,yellow,f,diamond,color_mix,颜色,,incompatible,2,,,,,,,,0,2,2,2,0,0,0,0,0,15,15,15,,,,,,,,,,,,,,,,,,,,,,,,,,,,,,,,,,,338.266206100001,338.46646350005176,338.44869079999626,338.7487785000121,338.7487785000121,None,339.2507872999413,None,f,1,1.8993520999792963,339.2507872999413,None,None,None,341.1694005000172,None,,,,,,,,,,,,,,,,,,,,,12004,1,2,2024_Jun_13_1356,stroop_task_switching2_b,2021.2.3,60.002832099358365,
condition/block_mixed_b,instruction/instr_mixed,instruction/i10_b,黄,red,k,diamond,color_mix,颜色,,incompatible,1,,,,,,,,0,2,2,2,0,0,0,0,0,16,16,16,,,,,,,,,,,,,,,,,,,,,,,,,,,,,,,,,,,342.1706164999632,342.3713229999412,342.3541040000273,342.65564929996617,342.65564929996617,None,343.1555230000522,None,k,1,1.3549701999872923,343.1555230000522,None,None,None,344.5409641000442,None,,,,,,,,,,,,,,,,,,,,,12004,1,2,2024_Jun_13_1356,stroop_task_switching2_b,2021.2.3,60.002832099358365,
condition/block_mixed_b,instruction/instr_mixed,instruction/i10_b,绿,red,d,square,color_mix,单词,,incompatible,2,,,,,,,,0,2,2,2,0,0,0,0,0,17,17,17,,,,,,,,,,,,,,,,,,,,,,,,,,,,,,,,,,,345.54256550001446,345.74465510004666,345.7261239000363,346.02781270002015,346.02781270002015,None,346.5282161999494,None,d,1,2.1499142999527976,346.5282161999494,None,None,None,348.6973332000198,None,,,,,,,,,,,,,,,,,,,,,12004,1,2,2024_Jun_13_1356,stroop_task_switching2_b,2021.2.3,60.002832099358365,
condition/block_mixed_b,instruction/instr_mixed,instruction/i10_b,红,green,k,square,color_mix,单词,,incompatible,1,,,,,,,,0,2,2,2,0,0,0,0,0,18,18,18,,,,,,,,,,,,,,,,,,,,,,,,,,,,,,,,,,,349.69990240002517,349.8998478000285,349.8832617000444,350.1837634999538,350.1837634999538,None,350.6843010999728,None,k,1,0.9943217999534681,350.6843010999728,None,None,None,351.70173089997843,None,,,,,,,,,,,,,,,,,,,,,12004,1,2,2024_Jun_13_1356,stroop_task_switching2_b,2021.2.3,60.002832099358365,
condition/block_mixed_b,instruction/instr_mixed,instruction/i10_b,黄,blue,j,diamond,color_mix,颜色,,incompatible,2,,,,,,,,0,2,2,2,0,0,0,0,0,19,19,19,,,,,,,,,,,,,,,,,,,,,,,,,,,,,,,,,,,352.70326720003504,352.9036557000363,352.8877560000401,353.18749110004865,353.18749110004865,None,353.68891020002775,None,j,1,1.8216168000362813,353.68891020002775,None,None,None,355.54188559995964,None,,,,,,,,,,,,,,,,,,,,,12004,1,2,2024_Jun_13_1356,stroop_task_switching2_b,2021.2.3,60.002832099358365,
condition/block_mixed_b,instruction/instr_mixed,instruction/i10_b,黄,green,d,diamond,color_mix,颜色,,incompatible,1,,,,,,,,0,2,2,2,0,0,0,0,0,20,20,20,,,,,,,,,,,,,,,,,,,,,,,,,,,,,,,,,,,356.54317269998137,356.7434602000285,356.7267367000459,357.02892680000514,357.02892680000514,None,357.52732090000063,None,j,0,2.2072951999725774,357.52732090000063,None,None,None,359.76378120004665,None,,,,,,,,,,,,,,,,,,,,,12004,1,2,2024_Jun_13_1356,stroop_task_switching2_b,2021.2.3,60.002832099358365,
condition/block_mixed_b,instruction/instr_mixed,instruction/i10_b,黄,green,f,square,color_mix,单词,,incompatible,2,,,,,,,,0,2,2,2,0,0,0,0,0,21,21,21,,,,,,,,,,,,,,,,,,,,,,,,,,,,,,,,,,,360.76600029994734,360.966323700035,360.9499031000305,361.25126579997595,361.25126579997595,None,361.76704499998596,None,f,1,0.7917915999423712,361.76704499998596,None,None,None,362.58478629996534,None,,,,,,,,,,,,,,,,,,,,,12004,1,2,2024_Jun_13_1356,stroop_task_switching2_b,2021.2.3,60.002832099358365,
condition/block_mixed_b,instruction/instr_mixed,instruction/i10_b,黄,blue,f,square,color_mix,单词,,incompatible,1,,,,,,,,0,2,2,2,0,0,0,0,0,22,22,22,,,,,,,,,,,,,,,,,,,,,,,,,,,,,,,,,,,363.5866601000307,363.7872213999508,363.7700577999931,364.07093869999517,364.07093869999517,None,364.5712797000306,None,f,1,0.8035254999995232,364.5712797000306,None,None,None,365.40581160003785,None,,,,,,,,,,,,,,,,,,,,,12004,1,2,2024_Jun_13_1356,stroop_task_switching2_b,2021.2.3,60.002832099358365,
condition/block_mixed_b,instruction/instr_mixed,instruction/i10_b,蓝,red,j,square,color_mix,单词,,incompatible,1,,,,,,,,0,2,2,2,0,0,0,0,0,23,23,23,,,,,,,,,,,,,,,,,,,,,,,,,,,,,,,,,,,366.4082296000561,366.6087965000188,366.59205420000944,366.8922277999809,366.8922277999809,None,367.39303979999386,None,j,1,0.8056763000786304,367.39303979999386,None,None,None,368.22672869998496,None,,,,,,,,,,,,,,,,,,,,,12004,1,2,2024_Jun_13_1356,stroop_task_switching2_b,2021.2.3,60.002832099358365,
condition/block_mixed_b,instruction/instr_mixed,instruction/i10_b,绿,red,k,diamond,color_mix,颜色,,incompatible,2,,,,,,,,0,2,2,2,0,0,0,0,0,24,24,24,,,,,,,,,,,,,,,,,,,,,,,,,,,,,,,,,,,369.22818610002287,369.4287008000538,369.41249839996453,369.7132905999897,369.7132905999897,None,370.2128941999981,None,k,1,2.034212400089018,370.2128941999981,None,None,None,372.26613590004854,None,,,,,,,,,,,,,,,,,,,,,12004,1,2,2024_Jun_13_1356,stroop_task_switching2_b,2021.2.3,60.002832099358365,
condition/block_mixed_b,instruction/instr_mixed,instruction/i10_b,绿,green,d,diamond,color_mix,颜色,,compatible,1,,,,,,,,0,2,2,2,0,0,0,0,0,25,25,25,,,,,,,,,,,,,,,,,,,,,,,,,,,,,,,,,,,373.2682326999493,373.4680262999609,373.4530375000322,373.7520338000031,373.7520338000031,None,374.25403059995733,None,d,1,1.7612531000049785,374.25403059995733,None,None,None,376.0385629000375,None,,,,,,,,,,,,,,,,,,,,,12004,1,2,2024_Jun_13_1356,stroop_task_switching2_b,2021.2.3,60.002832099358365,
condition/block_mixed_b,instruction/instr_mixed,instruction/i10_b,蓝,blue,j,diamond,color_mix,颜色,,compatible,1,,,,,,,,0,2,2,2,0,0,0,0,0,26,26,26,,,,,,,,,,,,,,,,,,,,,,,,,,,,,,,,,,,377.04091900005005,377.2411307999864,377.2236937000416,377.52400920004584,377.52400920004584,None,378.0248521999456,None,j,1,1.438452999922447,378.0248521999456,None,None,None,379.49370069999713,None,,,,,,,,,,,,,,,,,,,,,12004,1,2,2024_Jun_13_1356,stroop_task_switching2_b,2021.2.3,60.002832099358365,
condition/block_mixed_b,instruction/instr_mixed,instruction/i10_b,绿,green,d,square,color_mix,单词,,compatible,2,,,,,,,,0,2,2,2,0,0,0,0,0,27,27,27,,,,,,,,,,,,,,,,,,,,,,,,,,,,,,,,,,,380.4960957999574,380.69651589996647,380.680468800012,380.9803104000166,380.9803104000166,None,381.48013150005136,None,d,1,1.239370100083761,381.48013150005136,None,None,None,382.7488178999629,None,,,,,,,,,,,,,,,,,,,,,12004,1,2,2024_Jun_13_1356,stroop_task_switching2_b,2021.2.3,60.002832099358365,
condition/block_mixed_b,instruction/instr_mixed,instruction/i10_b,绿,green,d,square,color_mix,单词,,compatible,1,,,,,,,,0,2,2,2,0,0,0,0,0,28,28,28,,,,,,,,,,,,,,,,,,,,,,,,,,,,,,,,,,,383.75022909999825,383.9504139999626,383.9361798999598,384.25094109994825,384.2350237000501,None,384.73580919997767,None,d,1,0.60045349993743,384.73580919997767,None,None,None,385.35321590001695,None,,,,,,,,,,,,,,,,,,,,,12004,1,2,2024_Jun_13_1356,stroop_task_switching2_b,2021.2.3,60.002832099358365,
condition/block_mixed_b,instruction/instr_mixed,instruction/i10_b,蓝,blue,j,square,color_mix,单词,,compatible,1,,,,,,,,0,2,2,2,0,0,0,0,0,29,29,29,,,,,,,,,,,,,,,,,,,,,,,,,,,,,,,,,,,386.3553796999622,386.555172399967,386.5382873000344,386.84013569995295,386.84013569995295,None,387.33888819999993,None,j,1,0.6765648000873625,387.33888819999993,None,None,None,388.03970269998536,None,,,,,,,,,,,,,,,,,,,,,12004,1,2,2024_Jun_13_1356,stroop_task_switching2_b,2021.2.3,60.002832099358365,
condition/block_mixed_b,instruction/instr_mixed,instruction/i10_b,黄,yellow,f,diamond,color_mix,颜色,,compatible,2,,,,,,,,0,2,2,2,0,0,0,0,0,30,30,30,,,,,,,,,,,,,,,,,,,,,,,,,,,,,,,,,,,389.04210760002024,389.24240029999055,389.22504619997926,389.52651700004935,389.52651700004935,None,390.02620209997986,None,f,1,1.3337297000689432,390.02620209997986,None,None,None,391.3782039999496,None,,,,,,,,,,,,,,,,,,,,,12004,1,2,2024_Jun_13_1356,stroop_task_switching2_b,2021.2.3,60.002832099358365,
condition/block_mixed_b,instruction/instr_mixed,instruction/i10_b,绿,green,d,square,color_mix,单词,,compatible,2,,,,,,,,0,2,2,2,0,0,0,0,0,31,31,31,,,,,,,,,,,,,,,,,,,,,,,,,,,,,,,,,,,392.38041860004887,392.5809241000097,392.5642907000147,392.86388730001636,392.86388730001636,None,393.36469509999733,None,d,1,1.3474309999728575,393.36469509999733,None,None,None,394.7334225999657,None,,,,,,,,,,,,,,,,,,,,,12004,1,2,2024_Jun_13_1356,stroop_task_switching2_b,2021.2.3,60.002832099358365,
condition/block_mixed_b,instruction/instr_mixed,instruction/i10_b,黄,yellow,f,square,color_mix,单词,,compatible,1,,,,,,,,0,2,2,2,0,0,0,0,0,32,32,32,,,,,,,,,,,,,,,,,,,,,,,,,,,,,,,,,,,395.7348258999409,395.9368065999588,395.91837410000153,396.22077490005177,396.22077490005177,None,396.7197441000026,None,f,1,0.6157978000119328,396.7197441000026,None,None,None,397.35429070005193,None,,,,,,,,,,,,,,,,,,,,,12004,1,2,2024_Jun_13_1356,stroop_task_switching2_b,2021.2.3,60.002832099358365,
condition/block_mixed_b,instruction/instr_mixed,instruction/i10_b,绿,green,d,diamond,color_mix,颜色,,compatible,2,,,,,,,,0,2,2,2,0,0,0,0,0,33,33,33,,,,,,,,,,,,,,,,,,,,,,,,,,,,,,,,,,,398.3555141000543,398.5559118000092,398.54003050003666,398.83953450003173,398.83953450003173,None,399.3407076000003,None,d,1,1.699410600005649,399.3407076000003,None,None,None,401.05946549994405,None,,,,,,,,,,,,,,,,,,,,,12004,1,2,2024_Jun_13_1356,stroop_task_switching2_b,2021.2.3,60.002832099358365,
condition/block_mixed_b,instruction/instr_mixed,instruction/i10_b,红,red,k,square,color_mix,单词,,compatible,2,,,,,,,,0,2,2,2,0,0,0,0,0,34,34,34,,,,,,,,,,,,,,,,,,,,,,,,,,,,,,,,,,,402.06159659998957,402.26343010005075,402.24481319996994,402.5453577999724,402.5453577999724,None,403.0456551000243,None,k,1,1.5463707000017166,403.0456551000243,None,None,None,404.61488420004025,None,,,,,,,,,,,,,,,,,,,,,12004,1,2,2024_Jun_13_1356,stroop_task_switching2_b,2021.2.3,60.002832099358365,
condition/block_mixed_b,instruction/instr_mixed,instruction/i10_b,黄,yellow,f,square,color_mix,单词,,compatible,1,,,,,,,,0,2,2,2,0,0,0,0,0,35,35,35,,,,,,,,,,,,,,,,,,,,,,,,,,,,,,,,,,,405.6173777000513,405.8177006000187,405.80067579995375,406.1021280999994,406.1021280999994,None,406.6014519999735,None,f,1,1.0623357000295073,406.6014519999735,None,None,None,407.6861833999865,None,,,,,,,,,,,,,,,,,,,,,12004,1,2,2024_Jun_13_1356,stroop_task_switching2_b,2021.2.3,60.002832099358365,
condition/block_mixed_b,instruction/instr_mixed,instruction/i10_b,绿,green,d,diamond,color_mix,颜色,,compatible,2,,,,,,,,0,2,2,2,0,0,0,0,0,36,36,36,,,,,,,,,,,,,,,,,,,,,,,,,,,,,,,,,,,408.68788169999607,408.88825309998356,408.871296599973,409.17240170005243,409.17240170005243,None,409.67244410002604,None,d,1,0.8643645999254659,409.67244410002604,None,None,None,410.5574916000478,None,,,,,,,,,,,,,,,,,,,,,12004,1,2,2024_Jun_13_1356,stroop_task_switching2_b,2021.2.3,60.002832099358365,
condition/block_mixed_b,instruction/instr_mixed,instruction/i10_b,蓝,blue,j,square,color_mix,单词,,compatible,2,,,,,,,,0,2,2,2,0,0,0,0,0,37,37,37,,,,,,,,,,,,,,,,,,,,,,,,,,,,,,,,,,,411.55999520001933,411.7605743999593,411.7425636999542,412.04322989995126,412.04322989995126,None,412.54410439997446,None,j,1,1.224026499898173,412.54410439997446,None,None,None,413.7954280000413,None,,,,,,,,,,,,,,,,,,,,,12004,1,2,2024_Jun_13_1356,stroop_task_switching2_b,2021.2.3,60.002832099358365,
condition/block_mixed_b,instruction/instr_mixed,instruction/i10_b,红,red,k,square,color_mix,单词,,compatible,1,,,,,,,,0,2,2,2,0,0,0,0,0,38,38,38,,,,,,,,,,,,,,,,,,,,,,,,,,,,,,,,,,,414.7975122999633,414.99709179997444,414.98231750004925,415.29893659998197,415.28175439999904,None,415.7824388999725,None,k,1,1.4660243999678642,415.7824388999725,None,None,None,417.26730089995544,None,,,,,,,,,,,,,,,,,,,,,12004,1,2,2024_Jun_13_1356,stroop_task_switching2_b,2021.2.3,60.002832099358365,
condition/block_mixed_b,instruction/instr_mixed,instruction/i10_b,黄,yellow,f,diamond,color_mix,颜色,,compatible,2,,,,,,,,0,2,2,2,0,0,0,0,0,39,39,39,,,,,,,,,,,,,,,,,,,,,,,,,,,,,,,,,,,418.26973499997985,418.4702409999445,418.45243149995804,418.7534439000301,418.7534439000301,None,419.253696699976,None,f,1,1.0033789000008255,419.253696699976,None,None,None,420.27189640002325,None,,,,,,,,,,,,,,,,,,,,,12004,1,2,2024_Jun_13_1356,stroop_task_switching2_b,2021.2.3,60.002832099358365,
condition/block_mixed_b,instruction/instr_mixed,instruction/i10_b,黄,yellow,f,square,color_mix,单词,,compatible,2,,,,,,,,0,2,2,2,0,0,0,0,0,40,40,40,,,,,,,,,,,,,,,,,,,,,,,,,,,,,,,,,,,421.273937299964,421.4749281000113,421.4569195000222,421.75956829998177,421.75956829998177,None,422.25859740003943,None,f,1,0.6376514000585303,422.25859740003943,None,None,None,422.92702329996973,None,,,,,,,,,,,,,,,,,,,,,12004,1,2,2024_Jun_13_1356,stroop_task_switching2_b,2021.2.3,60.002832099358365,
condition/block_mixed_b,instruction/instr_mixed,instruction/i10_b,蓝,blue,j,square,color_mix,单词,,compatible,1,,,,,,,,0,2,2,2,0,0,0,0,0,41,41,41,,,,,,,,,,,,,,,,,,,,,,,,,,,,,,,,,,,423.9273975000251,424.1279142999556,424.1116460999474,424.41211000003386,424.41211000003386,None,424.91236509999726,None,j,1,0.5203229000326246,424.91236509999726,None,None,None,425.4629299000371,None,,,,,,,,,,,,,,,,,,,,,12004,1,2,2024_Jun_13_1356,stroop_task_switching2_b,2021.2.3,60.002832099358365,
condition/block_mixed_b,instruction/instr_mixed,instruction/i10_b,蓝,blue,j,diamond,color_mix,颜色,,compatible,2,,,,,,,,0,2,2,2,0,0,0,0,0,42,42,42,,,,,,,,,,,,,,,,,,,,,,,,,,,,,,,,,,,426.4653329999419,426.6649946999969,426.6488583999453,426.9487572000362,426.9487572000362,None,427.44930840004236,None,j,1,1.6631377000594512,427.44930840004236,None,None,None,429.13527830003295,None,,,,,,,,,,,,,,,,,,,,,12004,1,2,2024_Jun_13_1356,stroop_task_switching2_b,2021.2.3,60.002832099358365,
condition/block_mixed_b,instruction/instr_mixed,instruction/i10_b,黄,yellow,f,diamond,color_mix,颜色,,compatible,1,,,,,,,,0,2,2,2,0,0,0,0,0,43,43,43,,,,,,,,,,,,,,,,,,,,,,,,,,,,,,,,,,,430.136765299947,430.3370644999668,430.3217262000544,430.62148610001896,430.62148610001896,None,431.1220226000296,None,f,1,0.5586837000446394,431.1220226000296,None,None,None,431.70683060004376,None,,,,,,,,,,,,,,,,,,,,,12004,1,2,2024_Jun_13_1356,stroop_task_switching2_b,2021.2.3,60.002832099358365,
condition/block_mixed_b,instruction/instr_mixed,instruction/i10_b,红,red,k,diamond,color_mix,颜色,,compatible,1,,,,,,,,0,2,2,2,0,0,0,0,0,44,44,44,,,,,,,,,,,,,,,,,,,,,,,,,,,,,,,,,,,432.7079977999674,432.90823920001276,432.8908068999881,433.19140480004717,433.19140480004717,None,433.6921033000108,None,k,1,1.2445137000177056,433.6921033000108,None,None,None,434.9607427000301,None,,,,,,,,,,,,,,,,,,,,,12004,1,2,2024_Jun_13_1356,stroop_task_switching2_b,2021.2.3,60.002832099358365,
condition/block_mixed_b,instruction/instr_mixed,instruction/i10_b,蓝,blue,j,diamond,color_mix,颜色,,compatible,1,,,,,,,,0,2,2,2,0,0,0,0,0,45,45,45,,,,,,,,,,,,,,,,,,,,,,,,,,,,,,,,,,,435.9632248999551,436.163365000044,436.14761119999457,436.46393139997963,436.4476377000101,None,436.94712629995774,None,j,1,0.6622515999479219,436.94712629995774,None,None,None,437.6314349999884,None,,,,,,,,,,,,,,,,,,,,,12004,1,2,2024_Jun_13_1356,stroop_task_switching2_b,2021.2.3,60.002832099358365,
condition/block_mixed_b,instruction/instr_mixed,instruction/i10_b,红,red,k,diamond,color_mix,颜色,,compatible,1,,,,,,,,0,2,2,2,0,0,0,0,0,46,46,46,,,,,,,,,,,,,,,,,,,,,,,,,,,,,,,,,,,438.6332675999729,438.8339226000244,438.8174398000119,439.1168498999905,439.1168498999905,None,439.6185462999856,None,k,1,0.6310649999650195,439.6185462999856,None,None,None,440.26884160004556,None,,,,,,,,,,,,,,,,,,,,,12004,1,2,2024_Jun_13_1356,stroop_task_switching2_b,2021.2.3,60.002832099358365,
condition/block_mixed_b,instruction/instr_mixed,instruction/i10_b,红,red,k,square,color_mix,单词,,compatible,2,,,,,,,,0,2,2,2,0,0,0,0,0,47,47,47,,,,,,,,,,,,,,,,,,,,,,,,,,,,,,,,,,,441.27156390005257,441.4715696000494,441.4550020999741,441.7563013000181,441.7563013000181,None,442.25567250000313,None,k,1,1.4493045000126585,442.25567250000313,None,None,None,443.72396480001044,None,,,,,,,,,,,,,,,,,,,,,12004,1,2,2024_Jun_13_1356,stroop_task_switching2_b,2021.2.3,60.002832099358365,
condition/block_mixed_b,instruction/instr_mixed,instruction/i10_b,红,red,k,diamond,color_mix,颜色,,compatible,2,,,,,,,,0,2,2,2,0,0,0,0,0,48,48,48,,,,,,,,,,,,,,,,,,,,,,,,,,,,,,,,,,,444.72570680000354,444.92557209997904,444.9112564000534,445.2275665999623,445.20962510001846,None,445.7103524999693,None,k,1,1.3386668000603095,445.7103524999693,None,None,None,447.0788135000039,None,,,,,,,,,,,,,,,,,,,,,12004,1,2,2024_Jun_13_1356,stroop_task_switching2_b,2021.2.3,60.002832099358365,
condition/block_mixed_b,instruction/instr_mixed,instruction/i10_b,,,,,,,,,,,,,,,,,0,2,2,2,0,0,0,0,,,,,,,,,,,,,,,,,,,,,,,,,,,,,,,,,,,,,,,,,,,,,,,,,,,,,,,,448.0810628000181,None,space,11.949951500049792,448.0810628000181,None,,,,,,,,,,,,,,,12004,1,2,2024_Jun_13_1356,stroop_task_switching2_b,2021.2.3,60.002832099358365,
condition/block_mixed_b,instruction/instr_mixed,instruction/i10_b,,,,,,,,,,,,,,,,,0,2,2,2,,,,,,,,,,,,,,,,,,,,,,,,,,,,,,,,,,,,,,,,,,,,,,,,,,,,,,,,,,,,,,,,,,,,,,,,,,,,,,,,12004,1,2,2024_Jun_13_1356,stroop_task_switching2_b,2021.2.3,60.002832099358365,
,,,红,red,k,square,color_mix,单词,,compatible,0,block_switch1_b,instruction/ready_test.png,instruction/i11.png,,,,,,,,,,,,,,,,,0,0,0,0,0,0,0,0,,,,,,,,,,,,,,,,,,,467.0430723000318,468.04509529995266,468.04509529995266,469.045365100028,469.045365100028,None,466.0575442999834,467.06062899995595,470.0816387999803,470.2980956999818,470.2638925999636,470.5653845999623,470.5653845999623,None,471.06516989995725,None,k,1,0.7692142000887543,471.06516989995725,None,None,None,,,,,,,,,460.08204250002746,None,space,5.951832100050524,460.08204250002746,None,,,,,,,,,12004,1,2,2024_Jun_13_1356,stroop_task_switching2_b,2021.2.3,60.002832099358365,
,,,绿,green,d,diamond,color_mix,颜色,,compatible,2,block_switch1_b,instruction/ready_test.png,instruction/i11.png,,,,,,,,,,,,,,,,,0,0,0,0,0,1,1,1,,,,,,,,,,,,,,,,,,,,,,,,,,,471.84953290002886,472.0508402000414,472.03401249996386,472.33396069996525,472.33396069996525,None,472.83541729999706,None,d,1,0.790205099969171,472.83541729999706,None,None,None,,,,,,,,,,,,,,,,,,,,,,,12004,1,2,2024_Jun_13_1356,stroop_task_switching2_b,2021.2.3,60.002832099358365,
,,,绿,yellow,f,diamond,color_mix,颜色,,incompatible,1,block_switch1_b,instruction/ready_test.png,instruction/i11.png,,,,,,,,,,,,,,,,,0,0,0,0,0,2,2,2,,,,,,,,,,,,,,,,,,,,,,,,,,,473.652408999973,473.85256000002846,473.83622269995976,474.13655769999605,474.13655769999605,None,474.6370141999796,None,f,1,1.8611845000414178,474.6370141999796,None,None,None,,,,,,,,,,,,,,,,,,,,,,,12004,1,2,2024_Jun_13_1356,stroop_task_switching2_b,2021.2.3,60.002832099358365,
,,,蓝,blue,j,diamond,color_mix,颜色,,compatible,1,block_switch1_b,instruction/ready_test.png,instruction/i11.png,,,,,,,,,,,,,,,,,0,0,0,0,0,3,3,3,,,,,,,,,,,,,,,,,,,,,,,,,,,476.5236823000014,476.7243465000065,476.7077269000001,477.007417100016,477.007417100016,None,477.5081563999411,None,j,1,0.9823321000440046,477.5081563999411,None,None,None,,,,,,,,,,,,,,,,,,,,,,,12004,1,2,2024_Jun_13_1356,stroop_task_switching2_b,2021.2.3,60.002832099358365,
,,,绿,green,d,square,color_mix,单词,,compatible,2,block_switch1_b,instruction/ready_test.png,instruction/i11.png,,,,,,,,,,,,,,,,,0,0,0,0,0,4,4,4,,,,,,,,,,,,,,,,,,,,,,,,,,,478.50978650001343,478.7113459999673,478.69316749996506,478.99490579997655,478.99490579997655,None,479.4946255000541,None,f,0,0.9644055999815464,479.4946255000541,None,None,None,,,,,,,,,,,,,,,,,,,,,,,12004,1,2,2024_Jun_13_1356,stroop_task_switching2_b,2021.2.3,60.002832099358365,
,,,绿,blue,j,diamond,color_mix,颜色,,incompatible,2,block_switch1_b,instruction/ready_test.png,instruction/i11.png,,,,,,,,,,,,,,,,,0,0,0,0,0,5,5,5,,,,,,,,,,,,,,,,,,,,,,,,,,,480.47937940002885,480.67978979996406,480.6635564999888,480.9635169999674,480.9635169999674,None,481.464305600035,None,j,1,2.0980069000506774,481.464305600035,None,None,None,,,,,,,,,,,,,,,,,,,,,,,12004,1,2,2024_Jun_13_1356,stroop_task_switching2_b,2021.2.3,60.002832099358365,
,,,黄,red,f,square,color_mix,单词,,incompatible,2,block_switch1_b,instruction/ready_test.png,instruction/i11.png,,,,,,,,,,,,,,,,,0,0,0,0,0,6,6,6,,,,,,,,,,,,,,,,,,,,,,,,,,,483.58403829997405,483.7852926000487,483.7682891000295,484.0681876000017,484.0681876000017,None,484.56882289994974,None,f,1,1.8173039000248536,484.56882289994974,None,None,None,,,,,,,,,,,,,,,,,,,,,,,12004,1,2,2024_Jun_13_1356,stroop_task_switching2_b,2021.2.3,60.002832099358365,
,,,绿,green,d,square,color_mix,单词,,compatible,1,block_switch1_b,instruction/ready_test.png,instruction/i11.png,,,,,,,,,,,,,,,,,0,0,0,0,0,7,7,7,,,,,,,,,,,,,,,,,,,,,,,,,,,486.4049607999623,486.60577190003823,486.59028550004587,486.8905910999747,486.8905910999747,None,487.3897278000368,None,d,1,0.9007487000199035,487.3897278000368,None,None,None,,,,,,,,,,,,,,,,,,,,,,,12004,1,2,2024_Jun_13_1356,stroop_task_switching2_b,2021.2.3,60.002832099358365,
,,,蓝,blue,j,square,color_mix,单词,,compatible,1,block_switch1_b,instruction/ready_test.png,instruction/i11.png,,,,,,,,,,,,,,,,,0,0,0,0,0,8,8,8,,,,,,,,,,,,,,,,,,,,,,,,,,,488.30783039995003,488.5081415999448,488.49146679998375,488.7918748999946,488.7918748999946,None,489.29352750000544,None,j,1,0.748950400040485,489.29352750000544,None,None,None,,,,,,,,,,,,,,,,,,,,,,,12004,1,2,2024_Jun_13_1356,stroop_task_switching2_b,2021.2.3,60.002832099358365,
,,,红,red,k,diamond,color_mix,颜色,,compatible,2,block_switch1_b,instruction/ready_test.png,instruction/i11.png,,,,,,,,,,,,,,,,,0,0,0,0,0,9,9,9,,,,,,,,,,,,,,,,,,,,,,,,,,,490.06080990005285,490.26167160004843,490.2442049999954,490.54611829994246,490.54611829994246,None,491.04539260000456,None,k,1,0.9328094000229612,491.04539260000456,None,None,None,,,,,,,,,,,,,,,,,,,,,,,12004,1,2,2024_Jun_13_1356,stroop_task_switching2_b,2021.2.3,60.002832099358365,
,,,黄,yellow,f,diamond,color_mix,颜色,,compatible,1,block_switch1_b,instruction/ready_test.png,instruction/i11.png,,,,,,,,,,,,,,,,,0,0,0,0,0,10,10,10,,,,,,,,,,,,,,,,,,,,,,,,,,,491.9967697999673,492.19761739997193,492.18094170000404,492.4812900000252,492.4812900000252,None,492.9817660000408,None,f,1,1.7646819000365213,492.9817660000408,None,None,None,,,,,,,,,,,,,,,,,,,,,,,12004,1,2,2024_Jun_13_1356,stroop_task_switching2_b,2021.2.3,60.002832099358365,
,,,绿,green,d,square,color_mix,单词,,compatible,2,block_switch1_b,instruction/ready_test.png,instruction/i11.png,,,,,,,,,,,,,,,,,0,0,0,0,0,11,11,11,,,,,,,,,,,,,,,,,,,,,,,,,,,494.7673949999735,494.967717200052,494.9514280000003,495.2517678999575,495.2517678999575,None,495.75234580005053,None,d,1,0.706726900069043,495.75234580005053,None,None,None,,,,,,,,,,,,,,,,,,,,,,,12004,1,2,2024_Jun_13_1356,stroop_task_switching2_b,2021.2.3,60.002832099358365,
,,,红,red,k,diamond,color_mix,颜色,,compatible,2,block_switch1_b,instruction/ready_test.png,instruction/i11.png,,,,,,,,,,,,,,,,,0,0,0,0,0,12,12,12,,,,,,,,,,,,,,,,,,,,,,,,,,,496.4870305999648,496.6870765000349,496.67167820001487,496.971768300049,496.971768300049,None,497.47176139999647,None,k,1,2.019301400054246,497.47176139999647,None,None,None,,,,,,,,,,,,,,,,,,,,,,,12004,1,2,2024_Jun_13_1356,stroop_task_switching2_b,2021.2.3,60.002832099358365,
,,,红,red,k,diamond,color_mix,颜色,,compatible,1,block_switch1_b,instruction/ready_test.png,instruction/i11.png,,,,,,,,,,,,,,,,,0,0,0,0,0,13,13,13,,,,,,,,,,,,,,,,,,,,,,,,,,,499.50795829994604,499.70920259994455,499.69249279994983,499.9920351000037,499.9920351000037,None,500.4939005000051,None,k,1,0.6134046000661328,500.4939005000051,None,None,None,,,,,,,,,,,,,,,,,,,,,,,12004,1,2,2024_Jun_13_1356,stroop_task_switching2_b,2021.2.3,60.002832099358365,
,,,黄,yellow,f,square,color_mix,单词,,compatible,2,block_switch1_b,instruction/ready_test.png,instruction/i11.png,,,,,,,,,,,,,,,,,0,0,0,0,0,14,14,14,,,,,,,,,,,,,,,,,,,,,,,,,,,501.1270583999576,501.3279697999824,501.31191329995636,501.611324199941,501.611324199941,None,502.111928600003,505.1170535000274,None,0,,502.111928600003,505.1170535000274,505.1000663000159,None,,,,,,,,,,,,,,,,,,,,,,,12004,1,2,2024_Jun_13_1356,stroop_task_switching2_b,2021.2.3,60.002832099358365,
,,,红,green,d,diamond,color_mix,颜色,,incompatible,2,block_switch1_b,instruction/ready_test.png,instruction/i11.png,,,,,,,,,,,,,,,,,0,0,0,0,0,15,15,15,,,,,,,,,,,,,,,,,,,,,,,,,,,505.73388409998734,505.93446480005514,505.9176967999665,506.21819100005087,506.21819100005087,None,506.7198569000466,509.72515259997454,None,0,,506.7198569000466,509.72515259997454,509.7066536999773,None,,,,,,,,,,,,,,,,,,,,,,,12004,1,2,2024_Jun_13_1356,stroop_task_switching2_b,2021.2.3,60.002832099358365,
,,,蓝,red,k,diamond,color_mix,颜色,,incompatible,1,block_switch1_b,instruction/ready_test.png,instruction/i11.png,,,,,,,,,,,,,,,,,0,0,0,0,0,16,16,16,,,,,,,,,,,,,,,,,,,,,,,,,,,510.4245020999806,510.6249637999572,510.6079527999973,510.90940630005207,510.90940630005207,None,511.40938850003295,None,k,1,1.7613111999817193,511.40938850003295,None,None,None,,,,,,,,,,,,,,,,,,,,,,,12004,1,2,2024_Jun_13_1356,stroop_task_switching2_b,2021.2.3,60.002832099358365,
,,,黄,green,d,diamond,color_mix,颜色,,incompatible,1,block_switch1_b,instruction/ready_test.png,instruction/i11.png,,,,,,,,,,,,,,,,,0,0,0,0,0,17,17,17,,,,,,,,,,,,,,,,,,,,,,,,,,,513.1955296000233,513.3968375000404,513.3790303999558,513.6798538999865,513.6798538999865,None,514.181086699944,None,d,1,1.9101489998865873,514.181086699944,None,None,None,,,,,,,,,,,,,,,,,,,,,,,12004,1,2,2024_Jun_13_1356,stroop_task_switching2_b,2021.2.3,60.002832099358365,
,,,绿,green,d,diamond,color_mix,颜色,,compatible,1,block_switch1_b,instruction/ready_test.png,instruction/i11.png,,,,,,,,,,,,,,,,,0,0,0,0,0,18,18,18,,,,,,,,,,,,,,,,,,,,,,,,,,,516.1164305999409,516.3171009999933,516.3001223000465,516.6026554999407,516.6026554999407,None,517.1012812999543,None,d,1,1.5024987000506371,517.1012812999543,None,None,None,,,,,,,,,,,,,,,,,,,,,,,12004,1,2,2024_Jun_13_1356,stroop_task_switching2_b,2021.2.3,60.002832099358365,
,,,黄,red,k,diamond,color_mix,颜色,,incompatible,1,block_switch1_b,instruction/ready_test.png,instruction/i11.png,,,,,,,,,,,,,,,,,0,0,0,0,0,19,19,19,,,,,,,,,,,,,,,,,,,,,,,,,,,518.6202038000338,518.8210878999671,518.803775700042,519.1043584999861,519.1043584999861,None,519.6051933999406,None,k,1,1.21409110003151,519.6051933999406,None,None,None,,,,,,,,,,,,,,,,,,,,,,,12004,1,2,2024_Jun_13_1356,stroop_task_switching2_b,2021.2.3,60.002832099358365,
,,,绿,yellow,d,square,color_mix,单词,,incompatible,2,block_switch1_b,instruction/ready_test.png,instruction/i11.png,,,,,,,,,,,,,,,,,0,0,0,0,0,20,20,20,,,,,,,,,,,,,,,,,,,,,,,,,,,520.8404432999669,521.041105399956,521.0246504000388,521.3248400000157,521.3248400000157,None,521.8249897999922,None,d,1,1.0904976000310853,521.8249897999922,None,None,None,,,,,,,,,,,,,,,,,,,,,,,12004,1,2,2024_Jun_13_1356,stroop_task_switching2_b,2021.2.3,60.002832099358365,
,,,绿,yellow,f,diamond,color_mix,颜色,,incompatible,2,block_switch1_b,instruction/ready_test.png,instruction/i11.png,,,,,,,,,,,,,,,,,0,0,0,0,0,21,21,21,,,,,,,,,,,,,,,,,,,,,,,,,,,522.94347129995,523.1437224999536,523.1270497000078,523.4285328000551,523.4285328000551,None,523.9278970999876,None,f,1,1.1952305000741035,523.9278970999876,None,None,None,,,,,,,,,,,,,,,,,,,,,,,12004,1,2,2024_Jun_13_1356,stroop_task_switching2_b,2021.2.3,60.002832099358365,
,,,绿,green,d,square,color_mix,单词,,compatible,2,block_switch1_b,instruction/ready_test.png,instruction/i11.png,,,,,,,,,,,,,,,,,0,0,0,0,0,22,22,22,,,,,,,,,,,,,,,,,,,,,,,,,,,525.1467936000554,525.3488930000458,525.3303570999997,525.6327670000028,525.6327670000028,None,526.1481968000298,None,d,1,1.7834918999578804,526.1481968000298,None,None,None,,,,,,,,,,,,,,,,,,,,,,,12004,1,2,2024_Jun_13_1356,stroop_task_switching2_b,2021.2.3,60.002832099358365,
,,,红,red,k,square,color_mix,单词,,compatible,1,block_switch1_b,instruction/ready_test.png,instruction/i11.png,,,,,,,,,,,,,,,,,0,0,0,0,0,23,23,23,,,,,,,,,,,,,,,,,,,,,,,,,,,527.9509534999961,528.151334599941,528.135976599995,528.4356891999487,528.4356891999487,None,528.9373659000266,None,k,1,1.2261164999799803,528.9373659000266,None,None,None,,,,,,,,,,,,,,,,,,,,,,,12004,1,2,2024_Jun_13_1356,stroop_task_switching2_b,2021.2.3,60.002832099358365,
,,,黄,green,f,square,color_mix,单词,,incompatible,1,block_switch1_b,instruction/ready_test.png,instruction/i11.png,,,,,,,,,,,,,,,,,0,0,0,0,0,24,24,24,,,,,,,,,,,,,,,,,,,,,,,,,,,530.1875681000529,530.3880483000539,530.3731711000437,530.6896028999472,530.6718370999442,None,531.1722689999733,None,f,1,1.3354147999780253,531.1722689999733,None,None,None,,,,,,,,,,,,,,,,,,,,,,,12004,1,2,2024_Jun_13_1356,stroop_task_switching2_b,2021.2.3,60.002832099358365,
,,,红,blue,k,square,color_mix,单词,,incompatible,1,block_switch1_b,instruction/ready_test.png,instruction/i11.png,,,,,,,,,,,,,,,,,0,0,0,0,0,25,25,25,,,,,,,,,,,,,,,,,,,,,,,,,,,532.5244749999838,532.7255335999653,532.7086124999914,533.0083814000245,533.0083814000245,None,533.5094225000357,None,k,1,2.4542857999913394,533.5094225000357,None,None,None,,,,,,,,,,,,,,,,,,,,,,,12004,1,2,2024_Jun_13_1356,stroop_task_switching2_b,2021.2.3,60.002832099358365,
,,,黄,yellow,f,square,color_mix,单词,,compatible,1,block_switch1_b,instruction/ready_test.png,instruction/i11.png,,,,,,,,,,,,,,,,,0,0,0,0,0,26,26,26,,,,,,,,,,,,,,,,,,,,,,,,,,,535.979637100012,536.180085,536.164041299955,536.4646347999806,536.4646347999806,None,536.9643502000254,None,f,1,1.103043399984017,536.9643502000254,None,None,None,,,,,,,,,,,,,,,,,,,,,,,12004,1,2,2024_Jun_13_1356,stroop_task_switching2_b,2021.2.3,60.002832099358365,
,,,蓝,green,j,square,color_mix,单词,,incompatible,1,block_switch1_b,instruction/ready_test.png,instruction/i11.png,,,,,,,,,,,,,,,,,0,0,0,0,0,27,27,27,,,,,,,,,,,,,,,,,,,,,,,,,,,538.0828727999469,538.2837591000134,538.2665019000415,538.5678146999562,538.5678146999562,None,539.0684331000084,None,j,1,1.8310407000826672,539.0684331000084,None,None,None,,,,,,,,,,,,,,,,,,,,,,,12004,1,2,2024_Jun_13_1356,stroop_task_switching2_b,2021.2.3,60.002832099358365,
,,,绿,green,d,diamond,color_mix,颜色,,compatible,2,block_switch1_b,instruction/ready_test.png,instruction/i11.png,,,,,,,,,,,,,,,,,0,0,0,0,0,28,28,28,,,,,,,,,,,,,,,,,,,,,,,,,,,540.9205184000311,541.1227701000171,541.1047028000467,541.4050879999995,541.4050879999995,None,541.9052422000095,None,d,1,0.9308891000691801,541.9052422000095,None,None,None,,,,,,,,,,,,,,,,,,,,,,,12004,1,2,2024_Jun_13_1356,stroop_task_switching2_b,2021.2.3,60.002832099358365,
,,,黄,blue,j,diamond,color_mix,颜色,,incompatible,1,block_switch1_b,instruction/ready_test.png,instruction/i11.png,,,,,,,,,,,,,,,,,0,0,0,0,0,29,29,29,,,,,,,,,,,,,,,,,,,,,,,,,,,542.8566455000546,543.0568710999796,543.0402968999697,543.3418825999834,543.3418825999834,None,543.8416320000542,None,j,1,2.5623250000644475,543.8416320000542,None,None,None,,,,,,,,,,,,,,,,,,,,,,,12004,1,2,2024_Jun_13_1356,stroop_task_switching2_b,2021.2.3,60.002832099358365,
,,,绿,green,d,diamond,color_mix,颜色,,compatible,1,block_switch1_b,instruction/ready_test.png,instruction/i11.png,,,,,,,,,,,,,,,,,0,0,0,0,0,30,30,30,,,,,,,,,,,,,,,,,,,,,,,,,,,546.4288201000309,546.6296472999966,546.613544999971,546.9130782999564,546.9130782999564,None,547.4149783999892,None,f,0,1.7887446000240743,547.4149783999892,None,None,None,,,,,,,,,,,,,,,,,,,,,,,12004,1,2,2024_Jun_13_1356,stroop_task_switching2_b,2021.2.3,60.002832099358365,
,,,蓝,blue,j,square,color_mix,单词,,compatible,2,block_switch1_b,instruction/ready_test.png,instruction/i11.png,,,,,,,,,,,,,,,,,0,0,0,0,0,31,31,31,,,,,,,,,,,,,,,,,,,,,,,,,,,549.2329739000415,549.4333369999658,549.417488600011,549.717115300009,549.717115300009,None,550.217826899956,None,j,1,1.4582511999178678,550.217826899956,None,None,None,,,,,,,,,,,,,,,,,,,,,,,12004,1,2,2024_Jun_13_1356,stroop_task_switching2_b,2021.2.3,60.002832099358365,
,,,红,red,k,square,color_mix,单词,,compatible,1,block_switch1_b,instruction/ready_test.png,instruction/i11.png,,,,,,,,,,,,,,,,,0,0,0,0,0,32,32,32,,,,,,,,,,,,,,,,,,,,,,,,,,,551.7033680999884,551.9050507999491,551.8872616000008,552.1886628000066,552.1886628000066,None,552.6892492000479,None,k,1,2.090880300034769,552.6892492000479,None,None,None,,,,,,,,,,,,,,,,,,,,,,,12004,1,2,2024_Jun_13_1356,stroop_task_switching2_b,2021.2.3,60.002832099358365,
,,,红,green,k,square,color_mix,单词,,incompatible,1,block_switch1_b,instruction/ready_test.png,instruction/i11.png,,,,,,,,,,,,,,,,,0,0,0,0,0,33,33,33,,,,,,,,,,,,,,,,,,,,,,,,,,,554.8079383999575,555.0092803000007,554.9927965999814,555.2928896000376,555.2928896000376,None,555.7929508000379,None,k,1,1.0432823000010103,555.7929508000379,None,None,None,,,,,,,,,,,,,,,,,,,,,,,12004,1,2,2024_Jun_13_1356,stroop_task_switching2_b,2021.2.3,60.002832099358365,
,,,黄,yellow,f,diamond,color_mix,颜色,,compatible,2,block_switch1_b,instruction/ready_test.png,instruction/i11.png,,,,,,,,,,,,,,,,,0,0,0,0,0,34,34,34,,,,,,,,,,,,,,,,,,,,,,,,,,,556.8612674999749,557.062212800025,557.0447576999431,557.346185100032,557.346185100032,None,557.8466319999425,None,f,1,0.6778706000186503,557.8466319999425,None,None,None,,,,,,,,,,,,,,,,,,,,,,,12004,1,2,2024_Jun_13_1356,stroop_task_switching2_b,2021.2.3,60.002832099358365,
,,,红,green,d,diamond,color_mix,颜色,,incompatible,1,block_switch1_b,instruction/ready_test.png,instruction/i11.png,,,,,,,,,,,,,,,,,0,0,0,0,0,35,35,35,,,,,,,,,,,,,,,,,,,,,,,,,,,558.5477381000528,558.7474729999667,558.7326518000336,559.0492461000104,559.0331482000183,None,559.5318892999785,None,d,1,2.024351100088097,559.5318892999785,None,None,None,,,,,,,,,,,,,,,,,,,,,,,12004,1,2,2024_Jun_13_1356,stroop_task_switching2_b,2021.2.3,60.002832099358365,
,,,黄,yellow,f,square,color_mix,单词,,compatible,2,block_switch1_b,instruction/ready_test.png,instruction/i11.png,,,,,,,,,,,,,,,,,0,0,0,0,0,36,36,36,,,,,,,,,,,,,,,,,,,,,,,,,,,561.5856740999734,561.7866340000182,561.7687152000144,562.0697589999763,562.0697589999763,None,562.5707079999847,None,f,1,0.7614341001026332,562.5707079999847,None,None,None,,,,,,,,,,,,,,,,,,,,,,,12004,1,2,2024_Jun_13_1356,stroop_task_switching2_b,2021.2.3,60.002832099358365,
,,,蓝,blue,j,square,color_mix,单词,,compatible,1,block_switch1_b,instruction/ready_test.png,instruction/i11.png,,,,,,,,,,,,,,,,,0,0,0,0,0,37,37,37,,,,,,,,,,,,,,,,,,,,,,,,,,,563.3545225999551,563.5554114000406,563.5378399000037,563.8390966999577,563.8390966999577,None,564.3401142000221,None,j,1,1.408142299973406,564.3401142000221,None,None,None,,,,,,,,,,,,,,,,,,,,,,,12004,1,2,2024_Jun_13_1356,stroop_task_switching2_b,2021.2.3,60.002832099358365,
,,,绿,red,k,diamond,color_mix,颜色,,incompatible,2,block_switch1_b,instruction/ready_test.png,instruction/i11.png,,,,,,,,,,,,,,,,,0,0,0,0,0,38,38,38,,,,,,,,,,,,,,,,,,,,,,,,,,,565.7744394999463,565.9750661000144,565.9606338000158,566.2755704999436,566.2593190999469,None,566.7594945000019,None,k,1,0.9730031000217423,566.7594945000019,None,None,None,,,,,,,,,,,,,,,,,,,,,,,12004,1,2,2024_Jun_13_1356,stroop_task_switching2_b,2021.2.3,60.002832099358365,
,,,黄,yellow,f,diamond,color_mix,颜色,,compatible,1,block_switch1_b,instruction/ready_test.png,instruction/i11.png,,,,,,,,,,,,,,,,,0,0,0,0,0,39,39,39,,,,,,,,,,,,,,,,,,,,,,,,,,,567.7606018000515,567.962099700002,567.9448840999976,568.2451603000518,568.2451603000518,None,568.7464750000509,None,f,1,1.3377683000871912,568.7464750000509,None,None,None,,,,,,,,,,,,,,,,,,,,,,,12004,1,2,2024_Jun_13_1356,stroop_task_switching2_b,2021.2.3,60.002832099358365,
,,,红,blue,j,diamond,color_mix,颜色,,incompatible,1,block_switch1_b,instruction/ready_test.png,instruction/i11.png,,,,,,,,,,,,,,,,,0,0,0,0,0,40,40,40,,,,,,,,,,,,,,,,,,,,,,,,,,,570.1145956000546,570.3155991999665,570.2990305999992,570.6005996000022,570.6005996000022,None,571.0993352000369,None,j,1,1.7854005999397486,571.0993352000369,None,None,None,,,,,,,,,,,,,,,,,,,,,,,12004,1,2,2024_Jun_13_1356,stroop_task_switching2_b,2021.2.3,60.002832099358365,
,,,绿,blue,d,square,color_mix,单词,,incompatible,2,block_switch1_b,instruction/ready_test.png,instruction/i11.png,,,,,,,,,,,,,,,,,0,0,0,0,0,41,41,41,,,,,,,,,,,,,,,,,,,,,,,,,,,572.902267599944,573.103754300042,573.0856743999757,573.3876336000394,573.3876336000394,None,573.888116999995,None,d,1,1.1246121000731364,573.888116999995,None,None,None,,,,,,,,,,,,,,,,,,,,,,,12004,1,2,2024_Jun_13_1356,stroop_task_switching2_b,2021.2.3,60.002832099358365,
,,,蓝,blue,j,diamond,color_mix,颜色,,compatible,2,block_switch1_b,instruction/ready_test.png,instruction/i11.png,,,,,,,,,,,,,,,,,0,0,0,0,0,42,42,42,,,,,,,,,,,,,,,,,,,,,,,,,,,575.0390442999778,575.239978000056,575.2221847999608,575.5240236000391,575.5240236000391,None,576.0232772999443,None,j,1,1.0775638999184594,576.0232772999443,None,None,None,,,,,,,,,,,,,,,,,,,,,,,12004,1,2,2024_Jun_13_1356,stroop_task_switching2_b,2021.2.3,60.002832099358365,
,,,红,blue,k,square,color_mix,单词,,incompatible,2,block_switch1_b,instruction/ready_test.png,instruction/i11.png,,,,,,,,,,,,,,,,,0,0,0,0,0,43,43,43,,,,,,,,,,,,,,,,,,,,,,,,,,,577.1250619000057,577.3261953999754,577.3095374000259,577.609121000045,577.609121000045,None,578.1098993000342,None,k,1,1.9908919000299647,578.1098993000342,None,None,None,,,,,,,,,,,,,,,,,,,,,,,12004,1,2,2024_Jun_13_1356,stroop_task_switching2_b,2021.2.3,60.002832099358365,
,,,蓝,green,d,diamond,color_mix,颜色,,incompatible,2,block_switch1_b,instruction/ready_test.png,instruction/i11.png,,,,,,,,,,,,,,,,,0,0,0,0,0,44,44,44,,,,,,,,,,,,,,,,,,,,,,,,,,,580.1301055999938,580.3306452999823,580.314564100001,580.6145682999631,580.6145682999631,None,581.115472799982,None,d,1,2.1531495000235736,581.115472799982,None,None,None,,,,,,,,,,,,,,,,,,,,,,,12004,1,2,2024_Jun_13_1356,stroop_task_switching2_b,2021.2.3,60.002832099358365,
,,,黄,yellow,f,square,color_mix,单词,,compatible,2,block_switch1_b,instruction/ready_test.png,instruction/i11.png,,,,,,,,,,,,,,,,,0,0,0,0,0,45,45,45,,,,,,,,,,,,,,,,,,,,,,,,,,,583.284355700016,583.4846518000122,583.468035900034,583.7685007000109,583.7685007000109,None,584.2711054000538,None,f,1,2.621837600017898,584.2711054000538,None,None,None,,,,,,,,,,,,,,,,,,,,,,,12004,1,2,2024_Jun_13_1356,stroop_task_switching2_b,2021.2.3,60.002832099358365,
,,,黄,yellow,f,diamond,color_mix,颜色,,compatible,2,block_switch1_b,instruction/ready_test.png,instruction/i11.png,,,,,,,,,,,,,,,,,0,0,0,0,0,46,46,46,,,,,,,,,,,,,,,,,,,,,,,,,,,586.9064951000037,587.1071080999682,587.0916888000211,587.4084371000063,587.3905021999963,None,587.8918143999763,None,f,1,1.0975419000023976,587.8918143999763,None,None,None,,,,,,,,,,,,,,,,,,,,,,,12004,1,2,2024_Jun_13_1356,stroop_task_switching2_b,2021.2.3,60.002832099358365,
,,,绿,red,d,square,color_mix,单词,,incompatible,2,block_switch1_b,instruction/ready_test.png,instruction/i11.png,,,,,,,,,,,,,,,,,0,0,0,0,0,47,47,47,,,,,,,,,,,,,,,,,,,,,,,,,,,589.0096250999486,589.2105388999917,589.1940628000302,589.4942033999832,589.4942033999832,None,589.9946188000031,None,d,1,1.4183980000671,589.9946188000031,None,None,None,,,,,,,,,,,,,,,,,,,,,,,12004,1,2,2024_Jun_13_1356,stroop_task_switching2_b,2021.2.3,60.002832099358365,
,,,红,red,k,diamond,color_mix,颜色,,compatible,2,block_switch1_b,instruction/ready_test.png,instruction/i11.png,,,,,,,,,,,,,,,,,0,0,0,0,0,48,48,48,,,,,,,,,,,,,,,,,,,,,,,,,,,591.4299366000341,591.6311372000491,591.614337499952,591.9146079999628,591.9146079999628,None,592.4146987999557,None,k,1,1.606382399913855,592.4146987999557,None,None,None,,,,,,,,,,,,,,,,,,,,,,,12004,1,2,2024_Jun_13_1356,stroop_task_switching2_b,2021.2.3,60.002832099358365,
,,,蓝,blue,j,diamond,color_mix,颜色,,compatible,1,block_switch1_b,instruction/ready_test.png,instruction/i11.png,,,,,,,,,,,,,,,,,0,0,0,0,0,49,49,49,,,,,,,,,,,,,,,,,,,,,,,,,,,594.0503845999483,594.2516587999417,594.2352971000364,594.5348501000553,594.5348501000553,None,595.0355019000126,None,j,1,1.0739017999731004,595.0355019000126,None,None,None,,,,,,,,,,,,,,,,,,,,,,,12004,1,2,2024_Jun_13_1356,stroop_task_switching2_b,2021.2.3,60.002832099358365,
,,,黄,yellow,f,diamond,color_mix,颜色,,compatible,1,block_switch1_b,instruction/ready_test.png,instruction/i11.png,,,,,,,,,,,,,,,,,0,0,0,0,0,50,50,50,,,,,,,,,,,,,,,,,,,,,,,,,,,596.1370741999708,596.3373906000052,596.3214249999728,596.6222545000492,596.6222545000492,None,597.1217240999686,None,f,1,2.1081166999647394,597.1217240999686,None,None,None,,,,,,,,,,,,,,,,,,,,,,,12004,1,2,2024_Jun_13_1356,stroop_task_switching2_b,2021.2.3,60.002832099358365,
,,,红,blue,j,diamond,color_mix,颜色,,incompatible,1,block_switch1_b,instruction/ready_test.png,instruction/i11.png,,,,,,,,,,,,,,,,,0,0,0,0,0,51,51,51,,,,,,,,,,,,,,,,,,,,,,,,,,,599.2592101000482,599.4604506000178,599.442163700005,599.7433043000055,599.7433043000055,None,600.2430361999432,None,j,1,1.8987301999004558,600.2430361999432,None,None,None,,,,,,,,,,,,,,,,,,,,,,,12004,1,2,2024_Jun_13_1356,stroop_task_switching2_b,2021.2.3,60.002832099358365,
,,,蓝,yellow,f,diamond,color_mix,颜色,,incompatible,1,block_switch1_b,instruction/ready_test.png,instruction/i11.png,,,,,,,,,,,,,,,,,0,0,0,0,0,52,52,52,,,,,,,,,,,,,,,,,,,,,,,,,,,602.1630808999762,602.3631458999589,602.3483665999956,602.6476413999917,602.6476413999917,None,603.148748400039,None,f,1,1.4810116000007838,603.148748400039,None,None,None,,,,,,,,,,,,,,,,,,,,,,,12004,1,2,2024_Jun_13_1356,stroop_task_switching2_b,2021.2.3,60.002832099358365,
,,,黄,blue,f,square,color_mix,单词,,incompatible,2,block_switch1_b,instruction/ready_test.png,instruction/i11.png,,,,,,,,,,,,,,,,,0,0,0,0,0,53,53,53,,,,,,,,,,,,,,,,,,,,,,,,,,,604.6505281999707,604.8512087999843,604.8344656999689,605.1342925999779,605.1342925999779,None,605.6346688000485,None,j,0,2.234874799964018,605.6346688000485,None,None,None,,,,,,,,,,,,,,,,,,,,,,,12004,1,2,2024_Jun_13_1356,stroop_task_switching2_b,2021.2.3,60.002832099358365,
,,,蓝,blue,j,diamond,color_mix,颜色,,compatible,2,block_switch1_b,instruction/ready_test.png,instruction/i11.png,,,,,,,,,,,,,,,,,0,0,0,0,0,54,54,54,,,,,,,,,,,,,,,,,,,,,,,,,,,607.8886204999872,608.0890181999421,608.0724989000009,608.3734303000383,608.3734303000383,None,608.8730146000162,None,j,1,1.0607539999764413,608.8730146000162,None,None,None,,,,,,,,,,,,,,,,,,,,,,,12004,1,2,2024_Jun_13_1356,stroop_task_switching2_b,2021.2.3,60.002832099358365,
,,,红,yellow,k,square,color_mix,单词,,incompatible,2,block_switch1_b,instruction/ready_test.png,instruction/i11.png,,,,,,,,,,,,,,,,,0,0,0,0,0,55,55,55,,,,,,,,,,,,,,,,,,,,,,,,,,,609.9583912000526,610.1596328000305,610.141539299977,610.4428784999764,610.4428784999764,None,610.9431084999815,None,k,1,1.9587513000005856,610.9431084999815,None,None,None,,,,,,,,,,,,,,,,,,,,,,,12004,1,2,2024_Jun_13_1356,stroop_task_switching2_b,2021.2.3,60.002832099358365,
,,,蓝,red,j,square,color_mix,单词,,incompatible,1,block_switch1_b,instruction/ready_test.png,instruction/i11.png,,,,,,,,,,,,,,,,,0,0,0,0,0,56,56,56,,,,,,,,,,,,,,,,,,,,,,,,,,,612.9290029000258,613.1303825000068,613.1142682000063,613.4131576999789,613.4131576999789,None,613.9139222999802,None,j,1,2.1000911000883207,613.9139222999802,None,None,None,,,,,,,,,,,,,,,,,,,,,,,12004,1,2,2024_Jun_13_1356,stroop_task_switching2_b,2021.2.3,60.002832099358365,
,,,蓝,blue,j,square,color_mix,单词,,compatible,1,block_switch1_b,instruction/ready_test.png,instruction/i11.png,,,,,,,,,,,,,,,,,0,0,0,0,0,57,57,57,,,,,,,,,,,,,,,,,,,,,,,,,,,616.0337237999775,616.235430700006,616.2174284999492,616.5180934000527,616.5180934000527,None,617.0194159999955,None,j,1,0.5383930000243708,617.0194159999955,None,None,None,,,,,,,,,,,,,,,,,,,,,,,12004,1,2,2024_Jun_13_1356,stroop_task_switching2_b,2021.2.3,60.002832099358365,
,,,蓝,red,k,diamond,color_mix,颜色,,incompatible,2,block_switch1_b,instruction/ready_test.png,instruction/i11.png,,,,,,,,,,,,,,,,,0,0,0,0,0,58,58,58,,,,,,,,,,,,,,,,,,,,,,,,,,,617.5867569999536,617.7880044999765,617.7714102000464,618.0710294999881,618.0710294999881,None,618.5708776999963,None,k,1,1.219359099981375,618.5708776999963,None,None,None,,,,,,,,,,,,,,,,,,,,,,,12004,1,2,2024_Jun_13_1356,stroop_task_switching2_b,2021.2.3,60.002832099358365,
,,,绿,green,d,diamond,color_mix,颜色,,compatible,1,block_switch1_b,instruction/ready_test.png,instruction/i11.png,,,,,,,,,,,,,,,,,0,0,0,0,0,59,59,59,,,,,,,,,,,,,,,,,,,,,,,,,,,619.8062215000391,620.0078796000453,619.9896746999584,620.2918751999969,620.2918751999969,None,620.7908862000331,None,d,1,2.4791116999695078,620.7908862000331,None,None,None,,,,,,,,,,,,,,,,,,,,,,,12004,1,2,2024_Jun_13_1356,stroop_task_switching2_b,2021.2.3,60.002832099358365,
,,,蓝,blue,j,diamond,color_mix,颜色,,compatible,1,block_switch1_b,instruction/ready_test.png,instruction/i11.png,,,,,,,,,,,,,,,,,0,0,0,0,0,60,60,60,,,,,,,,,,,,,,,,,,,,,,,,,,,623.2955484000267,623.4958001000341,623.4784458000213,623.7792924999958,623.7792924999958,None,624.2802467000438,None,j,1,1.5020622999873012,624.2802467000438,None,None,None,,,,,,,,,,,,,,,,,,,,,,,12004,1,2,2024_Jun_13_1356,stroop_task_switching2_b,2021.2.3,60.002832099358365,
,,,黄,yellow,f,square,color_mix,单词,,compatible,2,block_switch1_b,instruction/ready_test.png,instruction/i11.png,,,,,,,,,,,,,,,,,0,0,0,0,0,61,61,61,,,,,,,,,,,,,,,,,,,,,,,,,,,625.7985947000561,625.9990794999758,625.9831875000382,626.2834189999849,626.2834189999849,None,626.7838434999576,None,f,1,0.7666349000064656,626.7838434999576,None,None,None,,,,,,,,,,,,,,,,,,,,,,,12004,1,2,2024_Jun_13_1356,stroop_task_switching2_b,2021.2.3,60.002832099358365,
,,,绿,blue,d,square,color_mix,单词,,incompatible,1,block_switch1_b,instruction/ready_test.png,instruction/i11.png,,,,,,,,,,,,,,,,,0,0,0,0,0,62,62,62,,,,,,,,,,,,,,,,,,,,,,,,,,,627.567903200048,627.7699750999454,627.7514478999656,628.051921300008,628.051921300008,None,628.5532799999928,None,d,1,1.5806136999744922,628.5532799999928,None,None,None,,,,,,,,,,,,,,,,,,,,,,,12004,1,2,2024_Jun_13_1356,stroop_task_switching2_b,2021.2.3,60.002832099358365,
,,,蓝,yellow,j,square,color_mix,单词,,incompatible,1,block_switch1_b,instruction/ready_test.png,instruction/i11.png,,,,,,,,,,,,,,,,,0,0,0,0,0,63,63,63,,,,,,,,,,,,,,,,,,,,,,,,,,,630.1548745000036,630.3558778000297,630.3385510999942,630.6392075000331,630.6392075000331,None,631.1404613000341,None,j,1,0.9298807999584824,631.1404613000341,None,None,None,,,,,,,,,,,,,,,,,,,,,,,12004,1,2,2024_Jun_13_1356,stroop_task_switching2_b,2021.2.3,60.002832099358365,
,,,黄,yellow,f,diamond,color_mix,颜色,,compatible,2,block_switch1_b,instruction/ready_test.png,instruction/i11.png,,,,,,,,,,,,,,,,,0,0,0,0,0,64,64,64,,,,,,,,,,,,,,,,,,,,,,,,,,,632.0915066000307,632.2921927999705,632.2756218999857,632.5756094000535,632.5756094000535,None,633.0758492000168,None,f,1,1.874308199970983,633.0758492000168,None,None,None,,,,,,,,,,,,,,,,,,,,,,,12004,1,2,2024_Jun_13_1356,stroop_task_switching2_b,2021.2.3,60.002832099358365,
,,,蓝,green,d,diamond,color_mix,颜色,,incompatible,1,block_switch1_b,instruction/ready_test.png,instruction/i11.png,,,,,,,,,,,,,,,,,0,0,0,0,0,65,65,65,,,,,,,,,,,,,,,,,,,,,,,,,,,634.9789788000053,635.1808451999677,635.1623896999517,635.4638479000423,635.4638479000423,None,635.9638845999725,None,j,0,2.658572499989532,635.9638845999725,None,None,None,,,,,,,,,,,,,,,,,,,,,,,12004,1,2,2024_Jun_13_1356,stroop_task_switching2_b,2021.2.3,60.002832099358365,
,,,红,red,k,diamond,color_mix,颜色,,compatible,1,block_switch1_b,instruction/ready_test.png,instruction/i11.png,,,,,,,,,,,,,,,,,0,0,0,0,0,66,66,66,,,,,,,,,,,,,,,,,,,,,,,,,,,638.6510107000358,638.8526392000495,638.8347773000132,639.1359116999665,639.1359116999665,None,639.63613670005,None,k,1,2.14644749998115,639.63613670005,None,None,None,,,,,,,,,,,,,,,,,,,,,,,12004,1,2,2024_Jun_13_1356,stroop_task_switching2_b,2021.2.3,60.002832099358365,
,,,蓝,yellow,j,square,color_mix,单词,,incompatible,2,block_switch1_b,instruction/ready_test.png,instruction/i11.png,,,,,,,,,,,,,,,,,0,0,0,0,0,67,67,67,,,,,,,,,,,,,,,,,,,,,,,,,,,641.8060730999568,642.0069984999718,641.991447599954,642.2910941999871,642.2910941999871,None,642.7907276999904,None,j,1,1.335667600040324,642.7907276999904,None,None,None,,,,,,,,,,,,,,,,,,,,,,,12004,1,2,2024_Jun_13_1356,stroop_task_switching2_b,2021.2.3,60.002832099358365,
,,,红,yellow,k,square,color_mix,单词,,incompatible,1,block_switch1_b,instruction/ready_test.png,instruction/i11.png,,,,,,,,,,,,,,,,,0,0,0,0,0,68,68,68,,,,,,,,,,,,,,,,,,,,,,,,,,,644.1427119999425,644.3448989000171,644.3265534000238,644.6272192000179,644.6272192000179,None,645.1284510999685,None,k,1,1.3263190999859944,645.1284510999685,None,None,None,,,,,,,,,,,,,,,,,,,,,,,12004,1,2,2024_Jun_13_1356,stroop_task_switching2_b,2021.2.3,60.002832099358365,
,,,红,yellow,f,diamond,color_mix,颜色,,incompatible,2,block_switch1_b,instruction/ready_test.png,instruction/i11.png,,,,,,,,,,,,,,,,,0,0,0,0,0,69,69,69,,,,,,,,,,,,,,,,,,,,,,,,,,,646.4799022000516,646.6814673000481,646.6633659000508,646.9647539999569,646.9647539999569,None,647.4647096999688,None,f,1,1.6382051999680698,647.4647096999688,None,None,None,,,,,,,,,,,,,,,,,,,,,,,12004,1,2,2024_Jun_13_1356,stroop_task_switching2_b,2021.2.3,60.002832099358365,
,,,蓝,green,j,square,color_mix,单词,,incompatible,2,block_switch1_b,instruction/ready_test.png,instruction/i11.png,,,,,,,,,,,,,,,,,0,0,0,0,0,70,70,70,,,,,,,,,,,,,,,,,,,,,,,,,,,649.1336615999462,649.3350000999635,649.3173837000504,649.617717999965,649.617717999965,None,650.1183847000357,None,j,1,0.560449100099504,650.1183847000357,None,None,None,,,,,,,,,,,,,,,,,,,,,,,12004,1,2,2024_Jun_13_1356,stroop_task_switching2_b,2021.2.3,60.002832099358365,
,,,绿,yellow,d,square,color_mix,单词,,incompatible,1,block_switch1_b,instruction/ready_test.png,instruction/i11.png,,,,,,,,,,,,,,,,,0,0,0,0,0,71,71,71,,,,,,,,,,,,,,,,,,,,,,,,,,,650.7027799000498,650.9039961999515,650.8884891000343,651.204107800033,651.188014299958,None,651.6874820999801,None,d,1,0.8231824000831693,651.6874820999801,None,None,None,,,,,,,,,,,,,,,,,,,,,,,12004,1,2,2024_Jun_13_1356,stroop_task_switching2_b,2021.2.3,60.002832099358365,
,,,蓝,yellow,f,diamond,color_mix,颜色,,incompatible,2,block_switch1_b,instruction/ready_test.png,instruction/i11.png,,,,,,,,,,,,,,,,,0,0,0,0,0,72,72,72,,,,,,,,,,,,,,,,,,,,,,,,,,,652.5387595000211,652.7409027999965,652.7223295000149,653.0229625999928,653.0229625999928,None,653.5240486999974,None,f,1,1.0107323999982327,653.5240486999974,None,None,None,,,,,,,,,,,,,,,,,,,,,,,12004,1,2,2024_Jun_13_1356,stroop_task_switching2_b,2021.2.3,60.002832099358365,
,,,红,green,k,square,color_mix,单词,,incompatible,2,block_switch1_b,instruction/ready_test.png,instruction/i11.png,,,,,,,,,,,,,,,,,0,0,0,0,0,73,73,73,,,,,,,,,,,,,,,,,,,,,,,,,,,654.5584848000435,654.760088799987,654.742954300018,655.0432622999651,655.0432622999651,None,655.5432217000052,None,k,1,1.2237055000150576,655.5432217000052,None,None,None,,,,,,,,,,,,,,,,,,,,,,,12004,1,2,2024_Jun_13_1356,stroop_task_switching2_b,2021.2.3,60.002832099358365,
,,,绿,blue,j,diamond,color_mix,颜色,,incompatible,2,block_switch1_b,instruction/ready_test.png,instruction/i11.png,,,,,,,,,,,,,,,,,0,0,0,0,0,74,74,74,,,,,,,,,,,,,,,,,,,,,,,,,,,656.7953921000008,656.9970413000556,656.9789709999459,657.2800203999504,657.2800203999504,None,657.7801321999868,None,j,1,0.9397197000216693,657.7801321999868,None,None,None,,,,,,,,,,,,,,,,,,,,,,,12004,1,2,2024_Jun_13_1356,stroop_task_switching2_b,2021.2.3,60.002832099358365,
,,,红,red,k,square,color_mix,单词,,compatible,2,block_switch1_b,instruction/ready_test.png,instruction/i11.png,,,,,,,,,,,,,,,,,0,0,0,0,0,75,75,75,,,,,,,,,,,,,,,,,,,,,,,,,,,658.7485470999964,658.9494041999569,658.9325027000159,659.2336679999717,659.2336679999717,None,659.7330146000022,None,k,1,1.378155899932608,659.7330146000022,None,None,None,,,,,,,,,,,,,,,,,,,,,,,12004,1,2,2024_Jun_13_1356,stroop_task_switching2_b,2021.2.3,60.002832099358365,
,,,绿,green,d,diamond,color_mix,颜色,,compatible,2,block_switch1_b,instruction/ready_test.png,instruction/i11.png,,,,,,,,,,,,,,,,,0,0,0,0,0,76,76,76,,,,,,,,,,,,,,,,,,,,,,,,,,,661.1350242999615,661.3354174999986,661.3196673999773,661.6201821999857,661.6201821999857,None,662.120215700008,None,f,0,1.631541799986735,662.120215700008,None,None,None,,,,,,,,,,,,,,,,,,,,,,,12004,1,2,2024_Jun_13_1356,stroop_task_switching2_b,2021.2.3,60.002832099358365,
,,,黄,red,f,square,color_mix,单词,,incompatible,2,block_switch1_b,instruction/ready_test.png,instruction/i11.png,,,,,,,,,,,,,,,,,0,0,0,0,0,77,77,77,,,,,,,,,,,,,,,,,,,,,,,,,,,663.772219000035,663.9735318999738,663.9566143000266,664.2572834000457,664.2572834000457,None,664.7572258999571,None,f,1,1.274020400014706,664.7572258999571,None,None,None,,,,,,,,,,,,,,,,,,,,,,,12004,1,2,2024_Jun_13_1356,stroop_task_switching2_b,2021.2.3,60.002832099358365,
,,,红,red,k,square,color_mix,单词,,compatible,1,block_switch1_b,instruction/ready_test.png,instruction/i11.png,,,,,,,,,,,,,,,,,0,0,0,0,0,78,78,78,,,,,,,,,,,,,,,,,,,,,,,,,,,666.0591782999691,666.2605525000254,666.2440289000515,666.5433369999519,666.5433369999519,None,667.0441436000401,None,k,1,1.8355407000053674,667.0441436000401,None,None,None,,,,,,,,,,,,,,,,,,,,,,,12004,1,2,2024_Jun_13_1356,stroop_task_switching2_b,2021.2.3,60.002832099358365,
,,,黄,yellow,f,square,color_mix,单词,,compatible,1,block_switch1_b,instruction/ready_test.png,instruction/i11.png,,,,,,,,,,,,,,,,,0,0,0,0,0,79,79,79,,,,,,,,,,,,,,,,,,,,,,,,,,,668.8966848000418,669.0989512000233,669.0803646000568,669.3807599999709,669.3807599999709,None,669.8817676999606,None,f,1,0.8934084000065923,669.8817676999606,None,None,None,,,,,,,,,,,,,,,,,,,,,,,12004,1,2,2024_Jun_13_1356,stroop_task_switching2_b,2021.2.3,60.002832099358365,
,,,红,red,k,diamond,color_mix,颜色,,compatible,2,block_switch1_b,instruction/ready_test.png,instruction/i11.png,,,,,,,,,,,,,,,,,0,0,0,0,0,80,80,80,,,,,,,,,,,,,,,,,,,,,,,,,,,670.799763899995,670.9997571000131,670.9833612999646,671.2849308999721,671.2849308999721,None,671.785305700032,None,k,1,2.039298600051552,671.785305700032,None,None,None,,,,,,,,,,,,,,,,,,,,,,,12004,1,2,2024_Jun_13_1356,stroop_task_switching2_b,2021.2.3,60.002832099358365,
,,,红,red,k,square,color_mix,单词,,compatible,2,block_switch1_b,instruction/ready_test.png,instruction/i11.png,,,,,,,,,,,,,,,,,0,0,0,0,0,81,81,81,,,,,,,,,,,,,,,,,,,,,,,,,,,673.8369728999678,674.0397519000107,674.0223040999845,674.3229596000165,674.3229596000165,None,674.8222940999549,None,k,1,1.0411931000417098,674.8222940999549,None,None,None,,,,,,,,,,,,,,,,,,,,,,,12004,1,2,2024_Jun_13_1356,stroop_task_switching2_b,2021.2.3,60.002832099358365,
,,,黄,blue,j,diamond,color_mix,颜色,,incompatible,2,block_switch1_b,instruction/ready_test.png,instruction/i11.png,,,,,,,,,,,,,,,,,0,0,0,0,0,82,82,82,,,,,,,,,,,,,,,,,,,,,,,,,,,675.8906268000137,676.0911768999649,676.0744853999931,676.3757877999451,676.3757877999451,None,676.876189499977,None,j,1,1.3714230000041425,676.876189499977,None,None,None,,,,,,,,,,,,,,,,,,,,,,,12004,1,2,2024_Jun_13_1356,stroop_task_switching2_b,2021.2.3,60.002832099358365,
,,,红,yellow,f,diamond,color_mix,颜色,,incompatible,1,block_switch1_b,instruction/ready_test.png,instruction/i11.png,,,,,,,,,,,,,,,,,0,0,0,0,0,83,83,83,,,,,,,,,,,,,,,,,,,,,,,,,,,678.2777116999496,678.4792096000165,678.4613083000295,678.7626177000348,678.7626177000348,None,679.262515499955,None,f,1,1.881349500035867,679.262515499955,None,None,None,,,,,,,,,,,,,,,,,,,,,,,12004,1,2,2024_Jun_13_1356,stroop_task_switching2_b,2021.2.3,60.002832099358365,
,,,黄,red,k,diamond,color_mix,颜色,,incompatible,1,block_switch1_b,instruction/ready_test.png,instruction/i11.png,,,,,,,,,,,,,,,,,0,0,0,0,0,84,84,84,,,,,,,,,,,,,,,,,,,,,,,,,,,681.1659592000069,681.3665156000061,681.3488267000066,681.6502190999454,681.6502190999454,None,682.1509367000544,None,k,1,2.2176486999960616,682.1509367000544,None,None,None,,,,,,,,,,,,,,,,,,,,,,,12004,1,2,2024_Jun_13_1356,stroop_task_switching2_b,2021.2.3,60.002832099358365,
,,,蓝,blue,j,square,color_mix,单词,,compatible,2,block_switch1_b,instruction/ready_test.png,instruction/i11.png,,,,,,,,,,,,,,,,,0,0,0,0,0,85,85,85,,,,,,,,,,,,,,,,,,,,,,,,,,,684.3868425999535,684.5879066999769,684.5704730999423,684.8712891000323,684.8712891000323,None,685.3715519000543,None,j,1,1.1963836000068113,685.3715519000543,None,None,None,,,,,,,,,,,,,,,,,,,,,,,12004,1,2,2024_Jun_13_1356,stroop_task_switching2_b,2021.2.3,60.002832099358365,
,,,绿,green,d,square,color_mix,单词,,compatible,1,block_switch1_b,instruction/ready_test.png,instruction/i11.png,,,,,,,,,,,,,,,,,0,0,0,0,0,86,86,86,,,,,,,,,,,,,,,,,,,,,,,,,,,686.5910488000372,686.792347199982,686.773881000001,687.0743985000299,687.0743985000299,None,687.5757773000514,None,d,1,0.7199555000988767,687.5757773000514,None,None,None,,,,,,,,,,,,,,,,,,,,,,,12004,1,2,2024_Jun_13_1356,stroop_task_switching2_b,2021.2.3,60.002832099358365,
,,,红,red,k,square,color_mix,单词,,compatible,1,block_switch1_b,instruction/ready_test.png,instruction/i11.png,,,,,,,,,,,,,,,,,0,0,0,0,0,87,87,87,,,,,,,,,,,,,,,,,,,,,,,,,,,688.326094500022,688.5275517000118,688.5098968000384,688.8115440000547,688.8115440000547,None,689.3108004999813,None,k,1,1.497211999958381,689.3108004999813,None,None,None,,,,,,,,,,,,,,,,,,,,,,,12004,1,2,2024_Jun_13_1356,stroop_task_switching2_b,2021.2.3,60.002832099358365,
,,,黄,green,d,diamond,color_mix,颜色,,incompatible,2,block_switch1_b,instruction/ready_test.png,instruction/i11.png,,,,,,,,,,,,,,,,,0,0,0,0,0,88,88,88,,,,,,,,,,,,,,,,,,,,,,,,,,,690.8299482000293,691.0299659000011,691.0140677000163,691.3138819000451,691.3138819000451,None,691.8157393999863,None,f,0,1.4323906999779865,691.8157393999863,None,None,None,,,,,,,,,,,,,,,,,,,,,,,12004,1,2,2024_Jun_13_1356,stroop_task_switching2_b,2021.2.3,60.002832099358365,
,,,绿,red,d,square,color_mix,单词,,incompatible,2,block_switch1_b,instruction/ready_test.png,instruction/i11.png,,,,,,,,,,,,,,,,,0,0,0,0,0,89,89,89,,,,,,,,,,,,,,,,,,,,,,,,,,,693.2669025999494,693.468828800018,693.4505710999947,693.7510303000454,693.7510303000454,None,694.2517351999413,None,d,1,2.4840008000610396,694.2517351999413,None,None,None,,,,,,,,,,,,,,,,,,,,,,,12004,1,2,2024_Jun_13_1356,stroop_task_switching2_b,2021.2.3,60.002832099358365,
,,,黄,green,f,square,color_mix,单词,,incompatible,1,block_switch1_b,instruction/ready_test.png,instruction/i11.png,,,,,,,,,,,,,,,,,0,0,0,0,0,90,90,90,,,,,,,,,,,,,,,,,,,,,,,,,,,696.7554584000027,696.957525899983,696.9390310000163,697.2400096999481,697.2400096999481,None,697.7406106999842,None,f,1,0.7800610000267625,697.7406106999842,None,None,None,,,,,,,,,,,,,,,,,,,,,,,12004,1,2,2024_Jun_13_1356,stroop_task_switching2_b,2021.2.3,60.002832099358365,
,,,蓝,blue,j,square,color_mix,单词,,compatible,1,block_switch1_b,instruction/ready_test.png,instruction/i11.png,,,,,,,,,,,,,,,,,0,0,0,0,0,91,91,91,,,,,,,,,,,,,,,,,,,,,,,,,,,698.5429002000019,698.7584757000441,698.7251984999748,699.0254770000465,699.0254770000465,None,699.5261860999744,None,j,1,1.0818769000470638,699.5261860999744,None,None,None,,,,,,,,,,,,,,,,,,,,,,,12004,1,2,2024_Jun_13_1356,stroop_task_switching2_b,2021.2.3,60.002832099358365,
,,,蓝,red,j,square,color_mix,单词,,incompatible,1,block_switch1_b,instruction/ready_test.png,instruction/i11.png,,,,,,,,,,,,,,,,,0,0,0,0,0,92,92,92,,,,,,,,,,,,,,,,,,,,,,,,,,,700.627895200043,700.8282372000394,700.8127711999696,701.111995000043,701.111995000043,None,701.6136952999514,None,j,1,0.730657699983567,701.6136952999514,None,None,None,,,,,,,,,,,,,,,,,,,,,,,12004,1,2,2024_Jun_13_1356,stroop_task_switching2_b,2021.2.3,60.002832099358365,
,,,黄,blue,f,square,color_mix,单词,,incompatible,1,block_switch1_b,instruction/ready_test.png,instruction/i11.png,,,,,,,,,,,,,,,,,0,0,0,0,0,93,93,93,,,,,,,,,,,,,,,,,,,,,,,,,,,702.3639660000335,702.5665600999491,702.5484046000056,702.8485957999947,702.8485957999947,None,703.3485604999587,None,f,1,1.7555958000011742,703.3485604999587,None,None,None,,,,,,,,,,,,,,,,,,,,,,,12004,1,2,2024_Jun_13_1356,stroop_task_switching2_b,2021.2.3,60.002832099358365,
,,,绿,red,k,diamond,color_mix,颜色,,incompatible,2,block_switch1_b,instruction/ready_test.png,instruction/i11.png,,,,,,,,,,,,,,,,,0,0,0,0,0,94,94,94,,,,,,,,,,,,,,,,,,,,,,,,,,,705.1349006999517,705.3351197999436,705.3192810999462,705.6189186000265,705.6189186000265,None,706.1197326000547,None,k,1,1.7527523000026122,706.1197326000547,None,None,None,,,,,,,,,,,,,,,,,,,,,,,12004,1,2,2024_Jun_13_1356,stroop_task_switching2_b,2021.2.3,60.002832099358365,
,,,蓝,blue,j,diamond,color_mix,颜色,,compatible,1,block_switch1_b,instruction/ready_test.png,instruction/i11.png,,,,,,,,,,,,,,,,,0,0,0,0,0,95,95,95,,,,,,,,,,,,,,,,,,,,,,,,,,,707.8889826999512,708.0901664999546,708.0735053999815,708.3748468999984,708.3748468999984,None,708.8740309999557,None,j,1,1.1343274000100791,708.8740309999557,None,None,None,,,,,,,,,,,,,,,,,,,,,,,12004,1,2,2024_Jun_13_1356,stroop_task_switching2_b,2021.2.3,60.002832099358365,
,,,绿,green,d,square,color_mix,单词,,compatible,2,block_switch1_b,instruction/ready_test.png,instruction/i11.png,,,,,,,,,,,,,,,,,0,0,0,0,0,96,96,96,,,,,,,,,,,,,,,,,,,,,,,,,,,710.0255678000394,710.2266141000437,710.2091458999785,710.5094495000085,710.5094495000085,None,711.0103918999666,None,d,1,0.9660586999962106,711.0103918999666,None,None,None,,,,,,,,,,,,,,,,,,,,,,,12004,1,2,2024_Jun_13_1356,stroop_task_switching2_b,2021.2.3,60.002832099358365,
,,,,,,,,,,,,block_switch1_b,instruction/ready_test.png,instruction/i11.png,,,,,,,,,,,,,,,,,0,0,0,0,,,,,,,,,,,,,,,,,,,,,,,,,,,,,,,,,,,,,,,,,,,,,,,,,,,,,,,,,,,,711.996219899971,None,space,5.788522999966517,711.996219899971,None,,,12004,1,2,2024_Jun_13_1356,stroop_task_switching2_b,2021.2.3,60.002832099358365,
,,,蓝,blue,j,square,color_mix,单词,,compatible,0,block_switch2_b,instruction/ready_2.png,instruction/i12.png,,,,,,,,,,,,,,,,,0,1,1,1,0,0,0,0,,,,,,,,,,,,,,,,,,,720.6249793999596,721.6280463000294,721.6280463000294,722.6292993000243,722.6292993000243,None,719.6400712999748,720.6417050999589,723.6637203999562,723.8630402999697,723.8470612999517,724.1468227000441,724.1468227000441,None,724.6475903999526,None,j,1,0.7771243000170216,724.6475903999526,None,None,None,,,,,,,,,717.8221338000149,None,space,1.8028300000587478,717.8221338000149,None,,,,,,,,,12004,1,2,2024_Jun_13_1356,stroop_task_switching2_b,2021.2.3,60.002832099358365,
,,,黄,red,k,diamond,color_mix,颜色,,incompatible,2,block_switch2_b,instruction/ready_2.png,instruction/i12.png,,,,,,,,,,,,,,,,,0,1,1,1,0,1,1,1,,,,,,,,,,,,,,,,,,,,,,,,,,,725.4486918000039,725.6492390000494,725.6329984000186,725.9338358000387,725.9338358000387,None,726.4350719000213,None,k,1,0.9416588000021875,726.4350719000213,None,None,None,,,,,,,,,,,,,,,,,,,,,,,12004,1,2,2024_Jun_13_1356,stroop_task_switching2_b,2021.2.3,60.002832099358365,
,,,蓝,green,d,diamond,color_mix,颜色,,incompatible,1,block_switch2_b,instruction/ready_2.png,instruction/i12.png,,,,,,,,,,,,,,,,,0,1,1,1,0,2,2,2,,,,,,,,,,,,,,,,,,,,,,,,,,,727.4019669999834,727.6036983999657,727.5853358999593,727.8859120999696,727.8859120999696,None,728.3872360000387,None,f,0,0.9736647000536323,728.3872360000387,None,None,None,,,,,,,,,,,,,,,,,,,,,,,12004,1,2,2024_Jun_13_1356,stroop_task_switching2_b,2021.2.3,60.002832099358365,
,,,红,yellow,f,diamond,color_mix,颜色,,incompatible,1,block_switch2_b,instruction/ready_2.png,instruction/i12.png,,,,,,,,,,,,,,,,,0,1,1,1,0,3,3,3,,,,,,,,,,,,,,,,,,,,,,,,,,,729.387925600051,729.589617199963,729.5715440999484,729.8721682999749,729.8721682999749,None,730.3728366999421,None,f,1,1.1322836999315768,730.3728366999421,None,None,None,,,,,,,,,,,,,,,,,,,,,,,12004,1,2,2024_Jun_13_1356,stroop_task_switching2_b,2021.2.3,60.002832099358365,
,,,红,red,k,diamond,color_mix,颜色,,compatible,1,block_switch2_b,instruction/ready_2.png,instruction/i12.png,,,,,,,,,,,,,,,,,0,1,1,1,0,4,4,4,,,,,,,,,,,,,,,,,,,,,,,,,,,731.5247189999791,731.7267136999872,731.7081876000157,732.0093978999648,732.0093978999648,None,732.5098985000513,None,k,1,1.515445000026375,732.5098985000513,None,None,None,,,,,,,,,,,,,,,,,,,,,,,12004,1,2,2024_Jun_13_1356,stroop_task_switching2_b,2021.2.3,60.002832099358365,
,,,绿,green,d,square,color_mix,单词,,compatible,2,block_switch2_b,instruction/ready_2.png,instruction/i12.png,,,,,,,,,,,,,,,,,0,1,1,1,0,5,5,5,,,,,,,,,,,,,,,,,,,,,,,,,,,734.0450257000048,734.2460828999756,734.228551200009,734.5294659000356,734.5294659000356,None,735.03009809996,None,d,1,1.1470740999793634,735.03009809996,None,None,None,,,,,,,,,,,,,,,,,,,,,,,12004,1,2,2024_Jun_13_1356,stroop_task_switching2_b,2021.2.3,60.002832099358365,
,,,黄,blue,j,diamond,color_mix,颜色,,incompatible,2,block_switch2_b,instruction/ready_2.png,instruction/i12.png,,,,,,,,,,,,,,,,,0,1,1,1,0,6,6,6,,,,,,,,,,,,,,,,,,,,,,,,,,,736.2001542999642,736.4157622000203,736.3819598000264,736.683084600023,736.683084600023,None,737.1837016999489,None,j,1,2.5787191999843344,737.1837016999489,None,None,None,,,,,,,,,,,,,,,,,,,,,,,12004,1,2,2024_Jun_13_1356,stroop_task_switching2_b,2021.2.3,60.002832099358365,
