b_pra,ins_blocks,ins_blocks2,stim_word,stim_color,corrAns,cue_type,trial_type,task_type,rand,compatibility,switch,b_test,w_pic,w_pic2,trials_instr.thisRepN,trials_instr.thisTrialN,trials_instr.thisN,trials_instr.thisIndex,block_pra.thisRepN,block_pra.thisTrialN,block_pra.thisN,block_pra.thisIndex,trials_rep.thisRepN,trials_rep.thisTrialN,trials_rep.thisN,trials_rep.thisIndex,trials_pra.thisRepN,trials_pra.thisTrialN,trials_pra.thisN,trials_pra.thisIndex,trials_3.thisRepN,trials_3.thisTrialN,trials_3.thisN,trials_3.thisIndex,trials_2.thisRepN,trials_2.thisTrialN,trials_2.thisN,trials_2.thisIndex,instr_image.started,instr_image.stopped,instr_key_resp.keys,instr_key_resp.rt,instr_key_resp.started,instr_key_resp.stopped,instr_pra_image.started,instr_pra_image.stopped,ip_key_resp.keys,ip_key_resp.rt,ip_key_resp.started,ip_key_resp.stopped,block_image.started,block_image.stopped,ib_key_resp.keys,ib_key_resp.rt,ib_key_resp.started,ib_key_resp.stopped,cd3.started,cd3.stopped,cd2.started,cd2.stopped,cd1.started,cd1.stopped,cd_text.started,cd_text.stopped,text_fix.started,text_fix.stopped,text_2.started,text_2.stopped,text_4.started,text_4.stopped,text_target.started,text_target.stopped,key_resp.keys,key_resp.corr,key_resp.rt,key_resp.started,key_resp.stopped,sceen_black.started,sceen_black.stopped,text_fb.started,text_fb.stopped,text.started,text.stopped,key_bf.keys,key_bf.rt,key_bf.started,key_bf.stopped,instr_test_image.started,instr_test_image.stopped,instr_exp_key_resp.keys,instr_exp_key_resp.rt,instr_exp_key_resp.started,instr_exp_key_resp.stopped,text_rest.started,text_rest.stopped,key_resp_rest.keys,key_resp_rest.rt,key_resp_rest.started,key_resp_rest.stopped,text_3.started,text_3.stopped,participant,session,balance,date,expName,psychopyVersion,frameRate,
,,,,,,,,,,,,,,,0,0,0,0,,,,,,,,,,,,,,,,,,,,,9.448709400021471,None,right,1.395424099988304,9.448709400021471,None,,,,,,,,,,,,,,,,,,,,,,,,,,,,,,,,,,,,,,,,,,,,,,,,,,,,,,,,,,12006,1,2,2024_Jun_13_1748,stroop_task_switching2_b,2021.2.3,59.76246810837527,
,,,,,,,,,,,,,,,1,0,1,0,,,,,,,,,,,,,,,,,,,,,10.884019799996167,None,right,48.65780480008107,10.884019799996167,None,,,,,,,,,,,,,,,,,,,,,,,,,,,,,,,,,,,,,,,,,,,,,,,,,,,,,,,,,,12006,1,2,2024_Jun_13_1748,stroop_task_switching2_b,2021.2.3,59.76246810837527,
,,,,,,,,,,,,,,,2,0,2,0,,,,,,,,,,,,,,,,,,,,,59.573916999972425,None,right,0.27197930007241666,59.573916999972425,None,,,,,,,,,,,,,,,,,,,,,,,,,,,,,,,,,,,,,,,,,,,,,,,,,,,,,,,,,,12006,1,2,2024_Jun_13_1748,stroop_task_switching2_b,2021.2.3,59.76246810837527,
,,,,,,,,,,,,,,,3,0,3,0,,,,,,,,,,,,,,,,,,,,,59.89212299999781,None,right,0.13727549999020994,59.89212299999781,None,,,,,,,,,,,,,,,,,,,,,,,,,,,,,,,,,,,,,,,,,,,,,,,,,,,,,,,,,,12006,1,2,2024_Jun_13_1748,stroop_task_switching2_b,2021.2.3,59.76246810837527,
,,,,,,,,,,,,,,,4,0,4,0,,,,,,,,,,,,,,,,,,,,,60.07507529994473,None,right,0.12263719993643463,60.07507529994473,None,,,,,,,,,,,,,,,,,,,,,,,,,,,,,,,,,,,,,,,,,,,,,,,,,,,,,,,,,,12006,1,2,2024_Jun_13_1748,stroop_task_switching2_b,2021.2.3,59.76246810837527,
,,,,,,,,,,,,,,,5,0,5,0,,,,,,,,,,,,,,,,,,,,,60.24187669996172,None,right,0.6598517999518663,60.24187669996172,None,,,,,,,,,,,,,,,,,,,,,,,,,,,,,,,,,,,,,,,,,,,,,,,,,,,,,,,,,,12006,1,2,2024_Jun_13_1748,stroop_task_switching2_b,2021.2.3,59.76246810837527,
,,,,,,,,,,,,,,,,,,,,,,,,,,,,,,,,,,,,,,,,,,,,,60.94449629995506,None,space,1.1254300000146031,60.94449629995506,None,,,,,,,,,,,,,,,,,,,,,,,,,,,,,,,,,,,,,,,,,,,,,,,,,,,,12006,1,2,2024_Jun_13_1748,stroop_task_switching2_b,2021.2.3,59.76246810837527,
condition/block_color_b,instruction/instr_color,instruction/i8_b,XX,red,k,diamond,color_single,颜色,,,,,,,,,,,0,0,0,0,0,0,0,0,0,0,0,0,,,,,,,,,,,,,,,,,,,,,62.11138619994745,None,space,10.795180800021626,62.11138619994745,None,73.97943519998807,74.98155330005102,74.98155330005102,75.98293920001015,75.98293920001015,None,72.99585099995602,73.99730789999012,76.9504737999523,77.15146259998437,77.13596290000714,77.43493830005173,77.43493830005173,None,77.93511439999565,None,j,0,0.7028363000135869,77.93511439999565,None,None,None,78.75341739994474,None,,,,,,,,,,,,,,,,,,,,,12006,1,2,2024_Jun_13_1748,stroop_task_switching2_b,2021.2.3,59.76246810837527,
condition/block_color_b,instruction/instr_color,instruction/i8_b,XX,green,d,diamond,color_single,颜色,,,,,,,,,,,0,0,0,0,0,0,0,0,0,1,1,1,,,,,,,,,,,,,,,,,,,,,,,,,,,,,,,,,,,79.67148789996281,79.87362770002801,79.85502500005532,80.15617750003003,80.15617750003003,None,80.65685889997985,None,d,1,1.052952199941501,80.65685889997985,None,None,None,81.75791399995796,None,,,,,,,,,,,,,,,,,,,,,12006,1,2,2024_Jun_13_1748,stroop_task_switching2_b,2021.2.3,59.76246810837527,
condition/block_color_b,instruction/instr_color,instruction/i8_b,XX,yellow,f,diamond,color_single,颜色,,,,,,,,,,,0,0,0,0,0,0,0,0,0,2,2,2,,,,,,,,,,,,,,,,,,,,,,,,,,,,,,,,,,,82.7593597000232,82.95950610004365,82.92681239999365,83.22720359999221,83.22720359999221,None,83.72739879996516,None,f,1,0.9827067999867722,83.72739879996516,None,None,None,84.72886070003733,None,,,,,,,,,,,,,,,,,,,,,12006,1,2,2024_Jun_13_1748,stroop_task_switching2_b,2021.2.3,59.76246810837527,
condition/block_color_b,instruction/instr_color,instruction/i8_b,XX,blue,j,diamond,color_single,颜色,,,,,,,,,,,0,0,0,0,0,0,0,0,0,3,3,3,,,,,,,,,,,,,,,,,,,,,,,,,,,,,,,,,,,85.73051260004286,85.93145170004573,85.91419719997793,86.21550639998168,86.21550639998168,None,86.71515599999111,None,j,1,0.875057699973695,86.71515599999111,None,None,None,87.61711310001556,None,,,,,,,,,,,,,,,,,,,,,12006,1,2,2024_Jun_13_1748,stroop_task_switching2_b,2021.2.3,59.76246810837527,
condition/block_color_b,instruction/instr_color,instruction/i8_b,XX,green,d,diamond,color_single,颜色,,,,,,,,,,,0,0,0,0,0,0,0,0,0,4,4,4,,,,,,,,,,,,,,,,,,,,,,,,,,,,,,,,,,,88.61878569994587,88.81846770003904,88.80213369999547,89.10301510000136,89.10301510000136,None,89.60375200002454,None,f,0,0.7141885000746697,89.60375200002454,None,None,None,90.33774490002543,None,,,,,,,,,,,,,,,,,,,,,12006,1,2,2024_Jun_13_1748,stroop_task_switching2_b,2021.2.3,59.76246810837527,
condition/block_color_b,instruction/instr_color,instruction/i8_b,XX,yellow,f,diamond,color_single,颜色,,,,,,,,,,,0,0,0,0,0,0,0,0,0,5,5,5,,,,,,,,,,,,,,,,,,,,,,,,,,,,,,,,,,,91.33879349997733,91.54076360003091,91.52262029994745,91.8249502000399,91.8249502000399,None,92.3237656999845,None,f,1,0.9224548001075163,92.3237656999845,None,None,None,93.29204800003208,None,,,,,,,,,,,,,,,,,,,,,12006,1,2,2024_Jun_13_1748,stroop_task_switching2_b,2021.2.3,59.76246810837527,
condition/block_color_b,instruction/instr_color,instruction/i8_b,XX,blue,j,diamond,color_single,颜色,,,,,,,,,,,0,0,0,0,0,0,0,0,0,6,6,6,,,,,,,,,,,,,,,,,,,,,,,,,,,,,,,,,,,94.29432590003125,94.49460149998777,94.46112500003073,94.76064690004569,94.76064690004569,None,95.26139470003545,None,j,1,0.7688053000019863,95.26139470003545,None,None,None,96.04600189998746,None,,,,,,,,,,,,,,,,,,,,,12006,1,2,2024_Jun_13_1748,stroop_task_switching2_b,2021.2.3,59.76246810837527,
condition/block_color_b,instruction/instr_color,instruction/i8_b,XX,red,k,diamond,color_single,颜色,,,,,,,,,,,0,0,0,0,0,0,0,0,0,7,7,7,,,,,,,,,,,,,,,,,,,,,,,,,,,,,,,,,,,97.04754299996421,97.247661100002,97.23102479998488,97.53148600005079,97.53148600005079,None,98.03283379995264,None,k,1,0.9255783000262454,98.03283379995264,None,None,None,98.98378060001414,None,,,,,,,,,,,,,,,,,,,,,12006,1,2,2024_Jun_13_1748,stroop_task_switching2_b,2021.2.3,59.76246810837527,
condition/block_color_b,instruction/instr_color,instruction/i8_b,XX,yellow,f,diamond,color_single,颜色,,,,,,,,,,,0,0,0,0,0,0,0,0,0,8,8,8,,,,,,,,,,,,,,,,,,,,,,,,,,,,,,,,,,,99.98638829996344,100.18693720002193,100.17026359995361,100.47008300002199,100.47008300002199,None,100.97003870003391,None,f,1,0.4925707000074908,100.97003870003391,None,None,None,101.487488499959,None,,,,,,,,,,,,,,,,,,,,,12006,1,2,2024_Jun_13_1748,stroop_task_switching2_b,2021.2.3,59.76246810837527,
condition/block_color_b,instruction/instr_color,instruction/i8_b,XX,blue,j,diamond,color_single,颜色,,,,,,,,,,,0,0,0,0,0,0,0,0,0,9,9,9,,,,,,,,,,,,,,,,,,,,,,,,,,,,,,,,,,,102.48894559999462,102.69072880002204,102.67260389996227,102.9729811999714,102.9729811999714,None,103.47378450003453,None,j,1,0.6527153999777511,103.47378450003453,None,None,None,104.14159869996365,None,,,,,,,,,,,,,,,,,,,,,12006,1,2,2024_Jun_13_1748,stroop_task_switching2_b,2021.2.3,59.76246810837527,
condition/block_color_b,instruction/instr_color,instruction/i8_b,XX,red,k,diamond,color_single,颜色,,,,,,,,,,,0,0,0,0,0,0,0,0,0,10,10,10,,,,,,,,,,,,,,,,,,,,,,,,,,,,,,,,,,,105.14320040005259,105.34348439995665,105.32667290000245,105.62792450003326,105.62792450003326,None,106.12891990004573,None,k,1,0.4138228000374511,106.12891990004573,None,None,None,106.56173810001928,None,,,,,,,,,,,,,,,,,,,,,12006,1,2,2024_Jun_13_1748,stroop_task_switching2_b,2021.2.3,59.76246810837527,
condition/block_color_b,instruction/instr_color,instruction/i8_b,XX,green,d,diamond,color_single,颜色,,,,,,,,,,,0,0,0,0,0,0,0,0,0,11,11,11,,,,,,,,,,,,,,,,,,,,,,,,,,,,,,,,,,,107.56394380005077,107.76511899998877,107.7468376000179,108.04851380002219,108.04851380002219,None,108.54896489996463,None,d,1,0.7780415999004617,108.54896489996463,None,None,None,109.34952479996718,None,,,,,,,,,,,,,,,,,,,,,12006,1,2,2024_Jun_13_1748,stroop_task_switching2_b,2021.2.3,59.76246810837527,
condition/block_color_b,instruction/instr_color,instruction/i8_b,XX,blue,j,diamond,color_single,颜色,,,,,,,,,,,0,0,0,0,0,0,0,0,0,12,12,12,,,,,,,,,,,,,,,,,,,,,,,,,,,,,,,,,,,110.3516859000083,110.55203899997286,110.53549319994636,110.8349276999943,110.8349276999943,None,111.33662730001379,None,j,1,0.6300628000171855,111.33662730001379,None,None,None,111.98673560004681,None,,,,,,,,,,,,,,,,,,,,,12006,1,2,2024_Jun_13_1748,stroop_task_switching2_b,2021.2.3,59.76246810837527,
condition/block_color_b,instruction/instr_color,instruction/i8_b,XX,red,k,diamond,color_single,颜色,,,,,,,,,,,0,0,0,0,0,0,0,0,0,13,13,13,,,,,,,,,,,,,,,,,,,,,,,,,,,,,,,,,,,112.98801049997564,113.18868889997248,113.17338940000627,113.47410009999294,113.47410009999294,None,113.97309189999942,None,k,1,0.3857960000168532,113.97309189999942,None,None,None,114.37402069999371,None,,,,,,,,,,,,,,,,,,,,,12006,1,2,2024_Jun_13_1748,stroop_task_switching2_b,2021.2.3,59.76246810837527,
condition/block_color_b,instruction/instr_color,instruction/i8_b,XX,green,d,diamond,color_single,颜色,,,,,,,,,,,0,0,0,0,0,0,0,0,0,14,14,14,,,,,,,,,,,,,,,,,,,,,,,,,,,,,,,,,,,115.37605469999835,115.57744569994975,115.5588481000159,115.86003790004179,115.86003790004179,None,116.36075830005575,None,d,1,0.6859624000499025,116.36075830005575,None,None,None,117.094962400035,None,,,,,,,,,,,,,,,,,,,,,12006,1,2,2024_Jun_13_1748,stroop_task_switching2_b,2021.2.3,59.76246810837527,
condition/block_color_b,instruction/instr_color,instruction/i8_b,XX,yellow,f,diamond,color_single,颜色,,,,,,,,,,,0,0,0,0,0,0,0,0,0,15,15,15,,,,,,,,,,,,,,,,,,,,,,,,,,,,,,,,,,,118.0967784000095,118.29711170005612,118.28012490004767,118.58201410004403,118.56333839998115,None,119.06442289997358,None,f,1,0.38356149999890476,119.06442289997358,None,None,None,119.46503660001326,None,,,,,,,,,,,,,,,,,,,,,12006,1,2,2024_Jun_13_1748,stroop_task_switching2_b,2021.2.3,59.76246810837527,
condition/block_color_b,instruction/instr_color,instruction/i8_b,XX,red,k,diamond,color_single,颜色,,,,,,,,,,,0,0,0,0,0,0,0,0,0,16,16,16,,,,,,,,,,,,,,,,,,,,,,,,,,,,,,,,,,,120.4670643999707,120.66820900002494,120.64987790002488,120.95011460001115,120.95011460001115,None,121.4521094999509,None,j,0,0.49069390003569424,121.4521094999509,None,None,None,121.96819479996338,None,,,,,,,,,,,,,,,,,,,,,12006,1,2,2024_Jun_13_1748,stroop_task_switching2_b,2021.2.3,59.76246810837527,
condition/block_color_b,instruction/instr_color,instruction/i8_b,XX,green,d,diamond,color_single,颜色,,,,,,,,,,,0,0,0,0,0,0,0,0,0,17,17,17,,,,,,,,,,,,,,,,,,,,,,,,,,,,,,,,,,,122.97071559994947,123.17249420005828,123.1535921000177,123.45502280001529,123.45502280001529,None,123.955437000026,None,d,1,0.5803283000132069,123.955437000026,None,None,None,124.55545730004087,None,,,,,,,,,,,,,,,,,,,,,12006,1,2,2024_Jun_13_1748,stroop_task_switching2_b,2021.2.3,59.76246810837527,
condition/block_color_b,instruction/instr_color,instruction/i8_b,XX,yellow,f,diamond,color_single,颜色,,,,,,,,,,,0,0,0,0,0,0,0,0,0,18,18,18,,,,,,,,,,,,,,,,,,,,,,,,,,,,,,,,,,,125.55836959998123,125.77426610002294,125.74070880003273,126.04265580000356,126.04265580000356,None,126.54288560000714,None,f,1,0.48006970004644245,126.54288560000714,None,None,None,127.04466260003392,None,,,,,,,,,,,,,,,,,,,,,12006,1,2,2024_Jun_13_1748,stroop_task_switching2_b,2021.2.3,59.76246810837527,
condition/block_color_b,instruction/instr_color,instruction/i8_b,XX,blue,j,diamond,color_single,颜色,,,,,,,,,,,0,0,0,0,0,0,0,0,0,19,19,19,,,,,,,,,,,,,,,,,,,,,,,,,,,,,,,,,,,128.0440863999538,128.2452101999661,128.2283110000426,128.52947710000444,128.52947710000444,None,129.0297898000572,None,j,1,0.48175369994714856,129.0297898000572,None,None,None,129.5310099000344,None,,,,,,,,,,,,,,,,,,,,,12006,1,2,2024_Jun_13_1748,stroop_task_switching2_b,2021.2.3,59.76246810837527,
condition/block_color_b,instruction/instr_color,instruction/i8_b,XX,green,d,diamond,color_single,颜色,,,,,,,,,,,0,0,0,0,0,0,0,0,0,20,20,20,,,,,,,,,,,,,,,,,,,,,,,,,,,,,,,,,,,130.53218470001593,130.73255750001408,130.7154586999677,131.01544660003856,131.01544660003856,None,131.516193700023,None,d,1,0.7150252000428736,131.516193700023,None,None,None,132.2504008000251,None,,,,,,,,,,,,,,,,,,,,,12006,1,2,2024_Jun_13_1748,stroop_task_switching2_b,2021.2.3,59.76246810837527,
condition/block_color_b,instruction/instr_color,instruction/i8_b,XX,yellow,f,diamond,color_single,颜色,,,,,,,,,,,0,0,0,0,0,0,0,0,0,21,21,21,,,,,,,,,,,,,,,,,,,,,,,,,,,,,,,,,,,133.25209740002174,133.45398170000408,133.435746400035,133.7380110999802,133.7380110999802,None,134.25430559995584,None,f,1,0.5210096999071538,134.25430559995584,None,None,None,134.80538569996133,None,,,,,,,,,,,,,,,,,,,,,12006,1,2,2024_Jun_13_1748,stroop_task_switching2_b,2021.2.3,59.76246810837527,
condition/block_color_b,instruction/instr_color,instruction/i8_b,XX,blue,j,diamond,color_single,颜色,,,,,,,,,,,0,0,0,0,0,0,0,0,0,22,22,22,,,,,,,,,,,,,,,,,,,,,,,,,,,,,,,,,,,135.80588470003568,136.0081635999959,135.98955059994478,136.29136529995594,136.29136529995594,None,136.7916793000186,None,j,1,0.3597972000716254,136.7916793000186,None,None,None,137.1746193000581,None,,,,,,,,,,,,,,,,,,,,,12006,1,2,2024_Jun_13_1748,stroop_task_switching2_b,2021.2.3,59.76246810837527,
condition/block_color_b,instruction/instr_color,instruction/i8_b,XX,red,k,diamond,color_single,颜色,,,,,,,,,,,0,0,0,0,0,0,0,0,0,23,23,23,,,,,,,,,,,,,,,,,,,,,,,,,,,,,,,,,,,138.17620119999629,138.37825650000013,138.35981449997053,138.6601984000299,138.6601984000299,None,139.16169510001782,None,k,1,0.36695990001317114,139.16169510001782,None,None,None,139.54492080002092,None,,,,,,,,,,,,,,,,,,,,,12006,1,2,2024_Jun_13_1748,stroop_task_switching2_b,2021.2.3,59.76246810837527,
condition/block_color_b,instruction/instr_color,instruction/i8_b,,,,,,,,,,,,,,,,,0,0,0,0,0,0,0,0,,,,,,,,,,,,,,,,,,,,,,,,,,,,,,,,,,,,,,,,,,,,,,,,,,,,,,,,140.56321449996904,None,space,7.194093500031158,140.56321449996904,None,,,,,,,,,,,,,,,12006,1,2,2024_Jun_13_1748,stroop_task_switching2_b,2021.2.3,59.76246810837527,
condition/block_color_b,instruction/instr_color,instruction/i8_b,,,,,,,,,,,,,,,,,0,0,0,0,,,,,,,,,,,,,,,,,,,,,,,,,,,,,,,,,,,,,,,,,,,,,,,,,,,,,,,,,,,,,,,,,,,,,,,,,,,,,,,,12006,1,2,2024_Jun_13_1748,stroop_task_switching2_b,2021.2.3,59.76246810837527,
condition/block_word_b,instruction/instr_word,instruction/i9_b,黄,white,f,square,word_single,单词,0.0032461461866890584,,,,,,,,,,0,1,1,1,0,0,0,0,0,0,0,0,,,,,,,,,,,,,,,,,,,,,147.79018210002687,None,space,5.9500056999968365,147.79018210002687,None,154.76775790005922,155.76945240003988,155.76945240003988,156.77104150003288,156.77104150003288,None,153.78372880001552,154.78538220003247,157.7890003999928,157.98966069996823,157.97440820001066,158.27384359994903,158.27384359994903,None,158.77413030003663,None,f,1,0.8099947000155225,158.77413030003663,None,None,None,159.64164499996696,None,,,,,,,,,,,,,,,,,,,,,12006,1,2,2024_Jun_13_1748,stroop_task_switching2_b,2021.2.3,59.76246810837527,
condition/block_word_b,instruction/instr_word,instruction/i9_b,蓝,white,j,square,word_single,单词,0.060540570646362424,,,,,,,,,,0,1,1,1,0,0,0,0,0,1,1,1,,,,,,,,,,,,,,,,,,,,,,,,,,,,,,,,,,,160.62683650001418,160.82681750005577,160.81102440005634,161.11313439998776,161.11313439998776,None,161.61146120005287,None,d,0,1.0124858999624848,161.61146120005287,None,None,None,162.64645710005425,None,,,,,,,,,,,,,,,,,,,,,12006,1,2,2024_Jun_13_1748,stroop_task_switching2_b,2021.2.3,59.76246810837527,
condition/block_word_b,instruction/instr_word,instruction/i9_b,黄,white,f,square,word_single,单词,0.06994067193778963,,,,,,,,,,0,1,1,1,0,0,0,0,0,2,2,2,,,,,,,,,,,,,,,,,,,,,,,,,,,,,,,,,,,163.64786170003936,163.84844169998541,163.83146689995192,164.13189590000547,164.13189590000547,None,164.63369259994943,None,f,1,1.2944881999865174,164.63369259994943,None,None,None,165.95149210002273,None,,,,,,,,,,,,,,,,,,,,,12006,1,2,2024_Jun_13_1748,stroop_task_switching2_b,2021.2.3,59.76246810837527,
condition/block_word_b,instruction/instr_word,instruction/i9_b,蓝,white,j,square,word_single,单词,0.08193765152950094,,,,,,,,,,0,1,1,1,0,0,0,0,0,3,3,3,,,,,,,,,,,,,,,,,,,,,,,,,,,,,,,,,,,166.95307060005143,167.1539395999862,167.13712359999772,167.4381250999868,167.4381250999868,None,167.93868749996182,None,j,1,1.253735699923709,167.93868749996182,None,None,None,169.24068389995955,None,,,,,,,,,,,,,,,,,,,,,12006,1,2,2024_Jun_13_1748,stroop_task_switching2_b,2021.2.3,59.76246810837527,
condition/block_word_b,instruction/instr_word,instruction/i9_b,红,white,k,square,word_single,单词,0.1279694370605574,,,,,,,,,,0,1,1,1,0,0,0,0,0,4,4,4,,,,,,,,,,,,,,,,,,,,,,,,,,,,,,,,,,,170.22538289998192,170.42499950004276,170.4090620999923,170.70975519996136,170.70975519996136,None,171.2107300000498,None,k,1,0.6614524000324309,171.2107300000498,None,None,None,171.8936697000172,None,,,,,,,,,,,,,,,,,,,,,12006,1,2,2024_Jun_13_1748,stroop_task_switching2_b,2021.2.3,59.76246810837527,
condition/block_word_b,instruction/instr_word,instruction/i9_b,红,white,k,square,word_single,单词,0.18345028784879092,,,,,,,,,,0,1,1,1,0,0,0,0,0,5,5,5,,,,,,,,,,,,,,,,,,,,,,,,,,,,,,,,,,,172.89599790005013,173.09616559999995,173.07940679998137,173.37992570002098,173.37992570002098,None,173.8797564000124,None,k,1,0.5609052999643609,173.8797564000124,None,None,None,174.4644277000334,None,,,,,,,,,,,,,,,,,,,,,12006,1,2,2024_Jun_13_1748,stroop_task_switching2_b,2021.2.3,59.76246810837527,
condition/block_word_b,instruction/instr_word,instruction/i9_b,蓝,white,j,square,word_single,单词,0.19920386223101294,,,,,,,,,,0,1,1,1,0,0,0,0,0,6,6,6,,,,,,,,,,,,,,,,,,,,,,,,,,,,,,,,,,,175.4666608000407,175.66753139998764,175.65002689999528,175.9501876999857,175.9501876999857,None,176.4508163999999,None,j,1,0.7503140000626445,176.4508163999999,None,None,None,177.21855119999964,None,,,,,,,,,,,,,,,,,,,,,12006,1,2,2024_Jun_13_1748,stroop_task_switching2_b,2021.2.3,59.76246810837527,
condition/block_word_b,instruction/instr_word,instruction/i9_b,蓝,white,j,square,word_single,单词,0.26360599864925405,,,,,,,,,,0,1,1,1,0,0,0,0,0,7,7,7,,,,,,,,,,,,,,,,,,,,,,,,,,,,,,,,,,,178.2204201000277,178.42274700000416,178.4035290000029,178.7050925999647,178.7050925999647,None,179.20562210003845,None,j,1,1.0671435999684036,179.20562210003845,None,None,None,180.2894985000603,None,,,,,,,,,,,,,,,,,,,,,12006,1,2,2024_Jun_13_1748,stroop_task_switching2_b,2021.2.3,59.76246810837527,
condition/block_word_b,instruction/instr_word,instruction/i9_b,蓝,white,j,square,word_single,单词,0.358985675745526,,,,,,,,,,0,1,1,1,0,0,0,0,0,8,8,8,,,,,,,,,,,,,,,,,,,,,,,,,,,,,,,,,,,181.2920635000337,181.4921267000027,181.4748689000262,181.77671460004058,181.77671460004058,None,182.27628550003283,None,j,1,0.4605317000532523,182.27628550003283,None,None,None,182.76015690003987,None,,,,,,,,,,,,,,,,,,,,,12006,1,2,2024_Jun_13_1748,stroop_task_switching2_b,2021.2.3,59.76246810837527,
condition/block_word_b,instruction/instr_word,instruction/i9_b,绿,white,d,square,word_single,单词,0.36496733802487347,,,,,,,,,,0,1,1,1,0,0,0,0,0,9,9,9,,,,,,,,,,,,,,,,,,,,,,,,,,,,,,,,,,,183.7612880000379,183.96212020004168,183.94508009997662,184.24679510004353,184.24679510004353,None,184.7463807000313,None,d,1,0.774683199939318,184.7463807000313,None,None,None,185.54824589996133,None,,,,,,,,,,,,,,,,,,,,,12006,1,2,2024_Jun_13_1748,stroop_task_switching2_b,2021.2.3,59.76246810837527,
condition/block_word_b,instruction/instr_word,instruction/i9_b,黄,white,f,square,word_single,单词,0.3743513623756727,,,,,,,,,,0,1,1,1,0,0,0,0,0,10,10,10,,,,,,,,,,,,,,,,,,,,,,,,,,,,,,,,,,,186.550592900021,186.75062439998146,186.73439660004806,187.05050709994975,187.0349366000155,None,187.55075139994733,None,f,1,0.5140668000094593,187.55075139994733,None,None,None,188.08465800003614,None,,,,,,,,,,,,,,,,,,,,,12006,1,2,2024_Jun_13_1748,stroop_task_switching2_b,2021.2.3,59.76246810837527,
condition/block_word_b,instruction/instr_word,instruction/i9_b,红,white,k,square,word_single,单词,0.3894803852598544,,,,,,,,,,0,1,1,1,0,0,0,0,0,11,11,11,,,,,,,,,,,,,,,,,,,,,,,,,,,,,,,,,,,189.08642890001647,189.2873655000003,189.27082690002862,189.57081579999067,189.57081579999067,None,190.07125799998175,None,k,1,0.7777465000981465,190.07125799998175,None,None,None,190.87303210003302,None,,,,,,,,,,,,,,,,,,,,,12006,1,2,2024_Jun_13_1748,stroop_task_switching2_b,2021.2.3,59.76246810837527,
condition/block_word_b,instruction/instr_word,instruction/i9_b,绿,white,d,square,word_single,单词,0.5393759672408067,,,,,,,,,,0,1,1,1,0,0,0,0,0,12,12,12,,,,,,,,,,,,,,,,,,,,,,,,,,,,,,,,,,,191.87402780004777,192.07455709995702,192.0573722999543,192.3587612999836,192.3587612999836,None,192.858910299954,None,d,1,0.6465544999809936,192.858910299954,None,None,None,193.52664369996637,None,,,,,,,,,,,,,,,,,,,,,12006,1,2,2024_Jun_13_1748,stroop_task_switching2_b,2021.2.3,59.76246810837527,
condition/block_word_b,instruction/instr_word,instruction/i9_b,蓝,white,j,square,word_single,单词,0.5995731954831104,,,,,,,,,,0,1,1,1,0,0,0,0,0,13,13,13,,,,,,,,,,,,,,,,,,,,,,,,,,,,,,,,,,,194.52777779998723,194.72902910003904,194.71142770000733,195.01258270000108,195.01258270000108,None,195.51363299996592,None,j,1,1.0880279999691993,195.51363299996592,None,None,None,196.64905320003163,None,,,,,,,,,,,,,,,,,,,,,12006,1,2,2024_Jun_13_1748,stroop_task_switching2_b,2021.2.3,59.76246810837527,
condition/block_word_b,instruction/instr_word,instruction/i9_b,红,white,k,square,word_single,单词,0.6298674479151414,,,,,,,,,,0,1,1,1,0,0,0,0,0,14,14,14,,,,,,,,,,,,,,,,,,,,,,,,,,,,,,,,,,,197.63338829996064,197.83295329997782,197.81619939999655,198.116644200054,198.10078470001463,None,198.60201360005885,None,k,1,0.5509552999865264,198.60201360005885,None,None,None,199.2018438000232,None,,,,,,,,,,,,,,,,,,,,,12006,1,2,2024_Jun_13_1748,stroop_task_switching2_b,2021.2.3,59.76246810837527,
condition/block_word_b,instruction/instr_word,instruction/i9_b,红,white,k,square,word_single,单词,0.7389942282348904,,,,,,,,,,0,1,1,1,0,0,0,0,0,15,15,15,,,,,,,,,,,,,,,,,,,,,,,,,,,,,,,,,,,200.2031078999862,200.40351219999138,200.38733509997837,200.68828170001507,200.67139889998361,None,201.17272559995763,None,k,1,0.5724768999498338,201.17272559995763,None,None,None,201.77229750005063,None,,,,,,,,,,,,,,,,,,,,,12006,1,2,2024_Jun_13_1748,stroop_task_switching2_b,2021.2.3,59.76246810837527,
condition/block_word_b,instruction/instr_word,instruction/i9_b,绿,white,d,square,word_single,单词,0.7550853947239682,,,,,,,,,,0,1,1,1,0,0,0,0,0,16,16,16,,,,,,,,,,,,,,,,,,,,,,,,,,,,,,,,,,,202.7735745999962,202.9762893000152,202.95743609999772,203.25800459994934,203.25800459994934,None,203.75829819997307,None,d,1,1.2511344000231475,203.75829819997307,None,None,None,205.02701139997225,None,,,,,,,,,,,,,,,,,,,,,12006,1,2,2024_Jun_13_1748,stroop_task_switching2_b,2021.2.3,59.76246810837527,
condition/block_word_b,instruction/instr_word,instruction/i9_b,绿,white,d,square,word_single,单词,0.8019302780428206,,,,,,,,,,0,1,1,1,0,0,0,0,0,17,17,17,,,,,,,,,,,,,,,,,,,,,,,,,,,,,,,,,,,206.0289695999818,206.2296067000134,206.21251870004926,206.51349170005415,206.51349170005415,None,207.01394189998973,None,d,1,0.5472524000797421,207.01394189998973,None,None,None,207.58111370005645,None,,,,,,,,,,,,,,,,,,,,,12006,1,2,2024_Jun_13_1748,stroop_task_switching2_b,2021.2.3,59.76246810837527,
condition/block_word_b,instruction/instr_word,instruction/i9_b,绿,white,d,square,word_single,单词,0.8110702914095343,,,,,,,,,,0,1,1,1,0,0,0,0,0,18,18,18,,,,,,,,,,,,,,,,,,,,,,,,,,,,,,,,,,,208.5834702999564,208.78247930004727,208.76611209998373,209.0675075999461,209.0675075999461,None,209.5678559000371,None,d,1,0.5055125000653788,209.5678559000371,None,None,None,210.10200219997205,None,,,,,,,,,,,,,,,,,,,,,12006,1,2,2024_Jun_13_1748,stroop_task_switching2_b,2021.2.3,59.76246810837527,
condition/block_word_b,instruction/instr_word,instruction/i9_b,黄,white,f,square,word_single,单词,0.8176594937590999,,,,,,,,,,0,1,1,1,0,0,0,0,0,19,19,19,,,,,,,,,,,,,,,,,,,,,,,,,,,,,,,,,,,211.10272249998525,211.30411380005535,211.28714879998006,211.58777179999743,211.58777179999743,None,212.08894180005882,None,f,1,0.3523289000149816,212.08894180005882,None,None,None,212.4714123000158,None,,,,,,,,,,,,,,,,,,,,,12006,1,2,2024_Jun_13_1748,stroop_task_switching2_b,2021.2.3,59.76246810837527,
condition/block_word_b,instruction/instr_word,instruction/i9_b,红,white,k,square,word_single,单词,0.8955794421104841,,,,,,,,,,0,1,1,1,0,0,0,0,0,20,20,20,,,,,,,,,,,,,,,,,,,,,,,,,,,,,,,,,,,213.47379189997446,213.67424550000578,213.6567218999844,213.957981799962,213.957981799962,None,214.45877110003494,None,k,1,0.6547899000579491,214.45877110003494,None,None,None,215.1429149999749,None,,,,,,,,,,,,,,,,,,,,,12006,1,2,2024_Jun_13_1748,stroop_task_switching2_b,2021.2.3,59.76246810837527,
condition/block_word_b,instruction/instr_word,instruction/i9_b,绿,white,d,square,word_single,单词,0.9113598052474129,,,,,,,,,,0,1,1,1,0,0,0,0,0,21,21,21,,,,,,,,,,,,,,,,,,,,,,,,,,,,,,,,,,,216.1441068999702,216.3447919000173,216.3278928999789,216.62924270005897,216.62924270005897,None,217.12936230003834,None,d,1,0.7361875000642613,217.12936230003834,None,None,None,217.89634870004375,None,,,,,,,,,,,,,,,,,,,,,12006,1,2,2024_Jun_13_1748,stroop_task_switching2_b,2021.2.3,59.76246810837527,
condition/block_word_b,instruction/instr_word,instruction/i9_b,黄,white,f,square,word_single,单词,0.9215930958042953,,,,,,,,,,0,1,1,1,0,0,0,0,0,22,22,22,,,,,,,,,,,,,,,,,,,,,,,,,,,,,,,,,,,218.89848079998046,219.09920739999507,219.0816939000506,219.38240999996196,219.38240999996196,None,219.88363930000924,None,f,1,0.4781637000851333,219.88363930000924,None,None,None,220.38344140001573,None,,,,,,,,,,,,,,,,,,,,,12006,1,2,2024_Jun_13_1748,stroop_task_switching2_b,2021.2.3,59.76246810837527,
condition/block_word_b,instruction/instr_word,instruction/i9_b,黄,white,f,square,word_single,单词,0.9493525498837774,,,,,,,,,,0,1,1,1,0,0,0,0,0,23,23,23,,,,,,,,,,,,,,,,,,,,,,,,,,,,,,,,,,,221.38500660005957,221.58766820002347,221.56872880004812,221.8695850999793,221.8695850999793,None,222.3696484999964,None,f,1,0.9602451999671757,222.3696484999964,None,None,None,223.35492339998018,None,,,,,,,,,,,,,,,,,,,,,12006,1,2,2024_Jun_13_1748,stroop_task_switching2_b,2021.2.3,59.76246810837527,
condition/block_word_b,instruction/instr_word,instruction/i9_b,,,,,,,,,,,,,,,,,0,1,1,1,0,0,0,0,,,,,,,,,,,,,,,,,,,,,,,,,,,,,,,,,,,,,,,,,,,,,,,,,,,,,,,,224.3560620000353,None,space,2.8314052000641823,224.3560620000353,None,,,,,,,,,,,,,,,12006,1,2,2024_Jun_13_1748,stroop_task_switching2_b,2021.2.3,59.76246810837527,
condition/block_word_b,instruction/instr_word,instruction/i9_b,,,,,,,,,,,,,,,,,0,1,1,1,,,,,,,,,,,,,,,,,,,,,,,,,,,,,,,,,,,,,,,,,,,,,,,,,,,,,,,,,,,,,,,,,,,,,,,,,,,,,,,,12006,1,2,2024_Jun_13_1748,stroop_task_switching2_b,2021.2.3,59.76246810837527,
condition/block_mixed_b,instruction/instr_mixed,instruction/i10_b,蓝,red,k,diamond,color_mix,颜色,,incompatible,0,,,,,,,,0,2,2,2,0,0,0,0,0,0,0,0,,,,,,,,,,,,,,,,,,,,,227.24427999998443,None,space,21.641434099990875,227.24427999998443,None,249.91144539997913,250.9137959999498,250.9137959999498,251.91585949994624,251.91585949994624,None,248.92778899997938,249.93011760001536,252.9508335000137,253.16740170004778,253.1328574999934,253.43341890000738,253.43341890000738,None,253.91839749994688,None,k,1,1.9487895000493154,253.91839749994688,None,None,None,255.9198492000578,None,,,,,,,,,,,,,,,,,,,,,12006,1,2,2024_Jun_13_1748,stroop_task_switching2_b,2021.2.3,59.76246810837527,
condition/block_mixed_b,instruction/instr_mixed,instruction/i10_b,绿,yellow,f,diamond,color_mix,颜色,,incompatible,1,,,,,,,,0,2,2,2,0,0,0,0,0,1,1,1,,,,,,,,,,,,,,,,,,,,,,,,,,,,,,,,,,,256.9053423999576,257.10570199997164,257.0895730999764,257.3911911000032,257.3911911000032,None,257.90808399999514,None,f,1,1.2228130000876263,257.90808399999514,None,None,None,259.15846429998055,None,,,,,,,,,,,,,,,,,,,,,12006,1,2,2024_Jun_13_1748,stroop_task_switching2_b,2021.2.3,59.76246810837527,
condition/block_mixed_b,instruction/instr_mixed,instruction/i10_b,红,green,d,diamond,color_mix,颜色,,incompatible,1,,,,,,,,0,2,2,2,0,0,0,0,0,2,2,2,,,,,,,,,,,,,,,,,,,,,,,,,,,,,,,,,,,260.16094500001054,260.3610024000518,260.34449529997073,260.64464459999,260.64464459999,None,261.1450127999997,None,d,1,0.9858603000175208,261.1450127999997,None,None,None,262.14657169999555,None,,,,,,,,,,,,,,,,,,,,,12006,1,2,2024_Jun_13_1748,stroop_task_switching2_b,2021.2.3,59.76246810837527,
condition/block_mixed_b,instruction/instr_mixed,instruction/i10_b,蓝,red,k,diamond,color_mix,颜色,,incompatible,1,,,,,,,,0,2,2,2,0,0,0,0,0,3,3,3,,,,,,,,,,,,,,,,,,,,,,,,,,,,,,,,,,,263.1490177999949,263.34840669995174,263.3328998000361,263.63391640002374,263.63391640002374,None,264.13307970005553,None,k,1,1.0778808000031859,264.13307970005553,None,None,None,265.23429699998815,None,,,,,,,,,,,,,,,,,,,,,12006,1,2,2024_Jun_13_1748,stroop_task_switching2_b,2021.2.3,59.76246810837527,
condition/block_mixed_b,instruction/instr_mixed,instruction/i10_b,红,blue,j,diamond,color_mix,颜色,,incompatible,1,,,,,,,,0,2,2,2,0,0,0,0,0,4,4,4,,,,,,,,,,,,,,,,,,,,,,,,,,,,,,,,,,,266.23662480001803,266.43730250000954,266.4196700999746,266.7214281000197,266.7214281000197,None,267.221459900029,None,j,1,0.9416756000136957,267.221459900029,None,None,None,268.18894070002716,None,,,,,,,,,,,,,,,,,,,,,12006,1,2,2024_Jun_13_1748,stroop_task_switching2_b,2021.2.3,59.76246810837527,
condition/block_mixed_b,instruction/instr_mixed,instruction/i10_b,红,blue,k,square,color_mix,单词,,incompatible,2,,,,,,,,0,2,2,2,0,0,0,0,0,5,5,5,,,,,,,,,,,,,,,,,,,,,,,,,,,,,,,,,,,269.1904962999979,269.39159430004656,269.37467259995174,269.6752899000421,269.6752899000421,None,270.175070199999,None,j,0,0.652822699979879,270.175070199999,None,None,None,270.8428375000367,None,,,,,,,,,,,,,,,,,,,,,12006,1,2,2024_Jun_13_1748,stroop_task_switching2_b,2021.2.3,59.76246810837527,
condition/block_mixed_b,instruction/instr_mixed,instruction/i10_b,红,yellow,f,diamond,color_mix,颜色,,incompatible,2,,,,,,,,0,2,2,2,0,0,0,0,0,6,6,6,,,,,,,,,,,,,,,,,,,,,,,,,,,,,,,,,,,271.84532109997235,272.0457645000424,272.02951589995064,272.3292087999871,272.3292087999871,None,272.82919239997864,None,f,1,0.9741728999651968,272.82919239997864,None,None,None,273.83056459994987,None,,,,,,,,,,,,,,,,,,,,,12006,1,2,2024_Jun_13_1748,stroop_task_switching2_b,2021.2.3,59.76246810837527,
condition/block_mixed_b,instruction/instr_mixed,instruction/i10_b,红,yellow,k,square,color_mix,单词,,incompatible,2,,,,,,,,0,2,2,2,0,0,0,0,0,7,7,7,,,,,,,,,,,,,,,,,,,,,,,,,,,,,,,,,,,274.83310639997944,275.0327107999474,275.0158718000166,275.3181907000253,275.3181907000253,None,275.8171008999925,None,f,0,0.619105500052683,275.8171008999925,None,None,None,276.45142269995995,None,,,,,,,,,,,,,,,,,,,,,12006,1,2,2024_Jun_13_1748,stroop_task_switching2_b,2021.2.3,59.76246810837527,
condition/block_mixed_b,instruction/instr_mixed,instruction/i10_b,绿,blue,d,square,color_mix,单词,,incompatible,1,,,,,,,,0,2,2,2,0,0,0,0,0,8,8,8,,,,,,,,,,,,,,,,,,,,,,,,,,,,,,,,,,,277.4535868000239,277.65442919998895,277.63650959997904,277.936791599961,277.936791599961,None,278.4376041999785,None,j,0,2.566130599938333,278.4376041999785,None,None,None,281.02489610004704,None,,,,,,,,,,,,,,,,,,,,,12006,1,2,2024_Jun_13_1748,stroop_task_switching2_b,2021.2.3,59.76246810837527,
condition/block_mixed_b,instruction/instr_mixed,instruction/i10_b,蓝,green,d,diamond,color_mix,颜色,,incompatible,2,,,,,,,,0,2,2,2,0,0,0,0,0,9,9,9,,,,,,,,,,,,,,,,,,,,,,,,,,,,,,,,,,,282.0265038999496,282.22678020002786,282.21104600001127,282.5115678999573,282.5115678999573,None,283.0125842000125,None,d,1,1.4228979999898002,283.0125842000125,None,None,None,284.48079249996226,None,,,,,,,,,,,,,,,,,,,,,12006,1,2,2024_Jun_13_1748,stroop_task_switching2_b,2021.2.3,59.76246810837527,
condition/block_mixed_b,instruction/instr_mixed,instruction/i10_b,蓝,yellow,j,square,color_mix,单词,,incompatible,2,,,,,,,,0,2,2,2,0,0,0,0,0,10,10,10,,,,,,,,,,,,,,,,,,,,,,,,,,,,,,,,,,,285.48158789996523,285.6831444000127,285.66534569999203,285.96867850003764,285.96867850003764,None,286.4671988999471,None,j,1,0.9925302000483498,286.4671988999471,None,None,None,287.4846573000541,None,,,,,,,,,,,,,,,,,,,,,12006,1,2,2024_Jun_13_1748,stroop_task_switching2_b,2021.2.3,59.76246810837527,
condition/block_mixed_b,instruction/instr_mixed,instruction/i10_b,蓝,green,j,square,color_mix,单词,,incompatible,1,,,,,,,,0,2,2,2,0,0,0,0,0,11,11,11,,,,,,,,,,,,,,,,,,,,,,,,,,,,,,,,,,,288.4862662999658,288.68817259999923,288.6700659999624,288.97232369997073,288.97232369997073,None,289.4877482999582,None,j,1,0.6279120000544935,289.4877482999582,None,None,None,290.13880189997144,None,,,,,,,,,,,,,,,,,,,,,12006,1,2,2024_Jun_13_1748,stroop_task_switching2_b,2021.2.3,59.76246810837527,
condition/block_mixed_b,instruction/instr_mixed,instruction/i10_b,绿,yellow,d,square,color_mix,单词,,incompatible,1,,,,,,,,0,2,2,2,0,0,0,0,0,12,12,12,,,,,,,,,,,,,,,,,,,,,,,,,,,,,,,,,,,291.14098190004006,291.3407512999838,291.3244994999841,291.6242002999643,291.6242002999643,None,292.1250723999692,None,d,1,1.6149808999616653,292.1250723999692,None,None,None,293.7607808000175,None,,,,,,,,,,,,,,,,,,,,,12006,1,2,2024_Jun_13_1748,stroop_task_switching2_b,2021.2.3,59.76246810837527,
condition/block_mixed_b,instruction/instr_mixed,instruction/i10_b,绿,blue,j,diamond,color_mix,颜色,,incompatible,2,,,,,,,,0,2,2,2,0,0,0,0,0,13,13,13,,,,,,,,,,,,,,,,,,,,,,,,,,,,,,,,,,,294.7631865000585,294.9648157999618,294.9458665000275,295.2461601999821,295.2461601999821,None,295.74707549996674,None,j,1,1.1690436999779195,295.74707549996674,None,None,None,296.9322663999628,None,,,,,,,,,,,,,,,,,,,,,12006,1,2,2024_Jun_13_1748,stroop_task_switching2_b,2021.2.3,59.76246810837527,
condition/block_mixed_b,instruction/instr_mixed,instruction/i10_b,黄,red,f,square,color_mix,单词,,incompatible,2,,,,,,,,0,2,2,2,0,0,0,0,0,14,14,14,,,,,,,,,,,,,,,,,,,,,,,,,,,,,,,,,,,297.9337461000541,298.135792999994,298.11758319998626,298.42011319997255,298.42011319997255,None,298.9191824999871,None,f,1,1.077079699956812,298.9191824999871,None,None,None,300.02030500001274,None,,,,,,,,,,,,,,,,,,,,,12006,1,2,2024_Jun_13_1748,stroop_task_switching2_b,2021.2.3,59.76246810837527,
condition/block_mixed_b,instruction/instr_mixed,instruction/i10_b,蓝,yellow,f,diamond,color_mix,颜色,,incompatible,2,,,,,,,,0,2,2,2,0,0,0,0,0,15,15,15,,,,,,,,,,,,,,,,,,,,,,,,,,,,,,,,,,,301.02158249996137,301.22246229997836,301.2060593999922,301.506785799982,301.506785799982,None,302.00715239997953,None,f,1,1.4854247000766918,302.00715239997953,None,None,None,303.5089030000381,None,,,,,,,,,,,,,,,,,,,,,12006,1,2,2024_Jun_13_1748,stroop_task_switching2_b,2021.2.3,59.76246810837527,
condition/block_mixed_b,instruction/instr_mixed,instruction/i10_b,黄,red,k,diamond,color_mix,颜色,,incompatible,1,,,,,,,,0,2,2,2,0,0,0,0,0,16,16,16,,,,,,,,,,,,,,,,,,,,,,,,,,,,,,,,,,,304.51037629996426,304.71140879997984,304.693904499989,304.9959228000371,304.9959228000371,None,305.49519279995,None,k,1,0.741375399986282,305.49519279995,None,None,None,306.2630829999689,None,,,,,,,,,,,,,,,,,,,,,12006,1,2,2024_Jun_13_1748,stroop_task_switching2_b,2021.2.3,59.76246810837527,
condition/block_mixed_b,instruction/instr_mixed,instruction/i10_b,绿,red,d,square,color_mix,单词,,incompatible,2,,,,,,,,0,2,2,2,0,0,0,0,0,17,17,17,,,,,,,,,,,,,,,,,,,,,,,,,,,,,,,,,,,307.26519329997245,307.4663819000125,307.4486399999587,307.74938439996913,307.74938439996913,None,308.24952740001027,None,d,1,0.8993161999387667,308.24952740001027,None,None,None,309.1674049999565,None,,,,,,,,,,,,,,,,,,,,,12006,1,2,2024_Jun_13_1748,stroop_task_switching2_b,2021.2.3,59.76246810837527,
condition/block_mixed_b,instruction/instr_mixed,instruction/i10_b,红,green,k,square,color_mix,单词,,incompatible,1,,,,,,,,0,2,2,2,0,0,0,0,0,18,18,18,,,,,,,,,,,,,,,,,,,,,,,,,,,,,,,,,,,310.1689494999591,310.3707029999932,310.35248680005316,310.6550619000336,310.6550619000336,None,311.1710354000097,None,k,1,1.8173481000121683,311.1710354000097,None,None,None,313.006548400037,None,,,,,,,,,,,,,,,,,,,,,12006,1,2,2024_Jun_13_1748,stroop_task_switching2_b,2021.2.3,59.76246810837527,
condition/block_mixed_b,instruction/instr_mixed,instruction/i10_b,黄,blue,j,diamond,color_mix,颜色,,incompatible,2,,,,,,,,0,2,2,2,0,0,0,0,0,19,19,19,,,,,,,,,,,,,,,,,,,,,,,,,,,,,,,,,,,314.01019709999673,314.2248947999906,314.19231840001885,314.4927428000374,314.4927428000374,None,314.99315969995223,None,j,1,1.0272682999493554,314.99315969995223,None,None,None,316.0452985999873,None,,,,,,,,,,,,,,,,,,,,,12006,1,2,2024_Jun_13_1748,stroop_task_switching2_b,2021.2.3,59.76246810837527,
condition/block_mixed_b,instruction/instr_mixed,instruction/i10_b,黄,green,d,diamond,color_mix,颜色,,incompatible,1,,,,,,,,0,2,2,2,0,0,0,0,0,20,20,20,,,,,,,,,,,,,,,,,,,,,,,,,,,,,,,,,,,317.04643220000435,317.2484637000598,317.2301260000095,317.5305507000303,317.5305507000303,None,318.0305952000199,None,d,1,0.81424540001899,318.0305952000199,None,None,None,318.86529250000603,None,,,,,,,,,,,,,,,,,,,,,12006,1,2,2024_Jun_13_1748,stroop_task_switching2_b,2021.2.3,59.76246810837527,
condition/block_mixed_b,instruction/instr_mixed,instruction/i10_b,黄,green,f,square,color_mix,单词,,incompatible,2,,,,,,,,0,2,2,2,0,0,0,0,0,21,21,21,,,,,,,,,,,,,,,,,,,,,,,,,,,,,,,,,,,319.8677216999931,320.0669596999651,320.05049910000525,320.3528868999565,320.3528868999565,None,320.8518101000227,None,f,1,0.8485832000151277,320.8518101000227,None,None,None,321.71948309999425,None,,,,,,,,,,,,,,,,,,,,,12006,1,2,2024_Jun_13_1748,stroop_task_switching2_b,2021.2.3,59.76246810837527,
condition/block_mixed_b,instruction/instr_mixed,instruction/i10_b,黄,blue,f,square,color_mix,单词,,incompatible,1,,,,,,,,0,2,2,2,0,0,0,0,0,22,22,22,,,,,,,,,,,,,,,,,,,,,,,,,,,,,,,,,,,322.7212354999501,322.9224190999521,322.90684940002393,323.22187430004124,323.2057567000156,None,323.7067687000381,None,f,1,0.9698894000612199,323.7067687000381,None,None,None,324.69085250003263,None,,,,,,,,,,,,,,,,,,,,,12006,1,2,2024_Jun_13_1748,stroop_task_switching2_b,2021.2.3,59.76246810837527,
condition/block_mixed_b,instruction/instr_mixed,instruction/i10_b,蓝,red,j,square,color_mix,单词,,incompatible,1,,,,,,,,0,2,2,2,0,0,0,0,0,23,23,23,,,,,,,,,,,,,,,,,,,,,,,,,,,,,,,,,,,325.69242009997834,325.89344550005626,325.87669349997304,326.1763539999956,326.1763539999956,None,326.6771347000031,None,j,1,0.7759219000581652,326.6771347000031,None,None,None,327.47837350005284,None,,,,,,,,,,,,,,,,,,,,,12006,1,2,2024_Jun_13_1748,stroop_task_switching2_b,2021.2.3,59.76246810837527,
condition/block_mixed_b,instruction/instr_mixed,instruction/i10_b,绿,red,k,diamond,color_mix,颜色,,incompatible,2,,,,,,,,0,2,2,2,0,0,0,0,0,24,24,24,,,,,,,,,,,,,,,,,,,,,,,,,,,,,,,,,,,328.4797724999953,328.6823019000003,328.663336000056,328.96629400004167,328.96629400004167,None,329.48123809997924,None,k,1,1.2436284000286832,329.48123809997924,None,None,None,330.7498605999863,None,,,,,,,,,,,,,,,,,,,,,12006,1,2,2024_Jun_13_1748,stroop_task_switching2_b,2021.2.3,59.76246810837527,
condition/block_mixed_b,instruction/instr_mixed,instruction/i10_b,绿,green,d,diamond,color_mix,颜色,,compatible,1,,,,,,,,0,2,2,2,0,0,0,0,0,25,25,25,,,,,,,,,,,,,,,,,,,,,,,,,,,,,,,,,,,331.7514920999529,331.95288760005496,331.93545079999603,332.2360978999641,332.2360978999641,None,332.7361044000136,None,d,1,0.9650888999458402,332.7361044000136,None,None,None,333.72110920003615,None,,,,,,,,,,,,,,,,,,,,,12006,1,2,2024_Jun_13_1748,stroop_task_switching2_b,2021.2.3,59.76246810837527,
condition/block_mixed_b,instruction/instr_mixed,instruction/i10_b,蓝,blue,j,diamond,color_mix,颜色,,compatible,1,,,,,,,,0,2,2,2,0,0,0,0,0,26,26,26,,,,,,,,,,,,,,,,,,,,,,,,,,,,,,,,,,,334.7233048999915,334.9226616000524,334.9062149999663,335.2080806000158,335.2080806000158,None,335.70721380005125,None,j,1,0.7377757999347523,335.70721380005125,None,None,None,336.4751394999912,None,,,,,,,,,,,,,,,,,,,,,12006,1,2,2024_Jun_13_1748,stroop_task_switching2_b,2021.2.3,59.76246810837527,
condition/block_mixed_b,instruction/instr_mixed,instruction/i10_b,绿,green,d,square,color_mix,单词,,compatible,2,,,,,,,,0,2,2,2,0,0,0,0,0,27,27,27,,,,,,,,,,,,,,,,,,,,,,,,,,,,,,,,,,,337.47661330003757,337.6768496000441,337.6603203000268,337.9606769999955,337.9606769999955,None,338.4622218000004,None,d,1,0.8316892000148073,338.4622218000004,None,None,None,339.31288019998465,None,,,,,,,,,,,,,,,,,,,,,12006,1,2,2024_Jun_13_1748,stroop_task_switching2_b,2021.2.3,59.76246810837527,
condition/block_mixed_b,instruction/instr_mixed,instruction/i10_b,绿,green,d,square,color_mix,单词,,compatible,1,,,,,,,,0,2,2,2,0,0,0,0,0,28,28,28,,,,,,,,,,,,,,,,,,,,,,,,,,,,,,,,,,,340.31517039996106,340.51585590001196,340.4978666000534,340.7993167999666,340.7993167999666,None,341.3003834000556,None,d,1,0.49703650001902133,341.3003834000556,None,None,None,341.81657040002756,None,,,,,,,,,,,,,,,,,,,,,12006,1,2,2024_Jun_13_1748,stroop_task_switching2_b,2021.2.3,59.76246810837527,
condition/block_mixed_b,instruction/instr_mixed,instruction/i10_b,蓝,blue,j,square,color_mix,单词,,compatible,1,,,,,,,,0,2,2,2,0,0,0,0,0,29,29,29,,,,,,,,,,,,,,,,,,,,,,,,,,,,,,,,,,,342.8180767999729,343.0195992999943,343.00170719996095,343.3032033999916,343.3032033999916,None,343.8028594000498,None,j,1,0.6421520999865606,343.8028594000498,None,None,None,344.4705799999647,None,,,,,,,,,,,,,,,,,,,,,12006,1,2,2024_Jun_13_1748,stroop_task_switching2_b,2021.2.3,59.76246810837527,
condition/block_mixed_b,instruction/instr_mixed,instruction/i10_b,黄,yellow,f,diamond,color_mix,颜色,,compatible,2,,,,,,,,0,2,2,2,0,0,0,0,0,30,30,30,,,,,,,,,,,,,,,,,,,,,,,,,,,,,,,,,,,345.47227110003587,345.67410870001186,345.6557599999942,345.95636720000766,345.95636720000766,None,346.4569224000443,None,f,1,0.9492266000015661,346.4569224000443,None,None,None,347.4251068000449,None,,,,,,,,,,,,,,,,,,,,,12006,1,2,2024_Jun_13_1748,stroop_task_switching2_b,2021.2.3,59.76246810837527,
condition/block_mixed_b,instruction/instr_mixed,instruction/i10_b,绿,green,d,square,color_mix,单词,,compatible,2,,,,,,,,0,2,2,2,0,0,0,0,0,31,31,31,,,,,,,,,,,,,,,,,,,,,,,,,,,,,,,,,,,348.42674509994686,348.627553600003,348.61111709999386,348.9118286999874,348.9118286999874,None,349.4112585999537,None,d,1,0.8504802000243217,349.4112585999537,None,None,None,350.2794919000007,None,,,,,,,,,,,,,,,,,,,,,12006,1,2,2024_Jun_13_1748,stroop_task_switching2_b,2021.2.3,59.76246810837527,
condition/block_mixed_b,instruction/instr_mixed,instruction/i10_b,黄,yellow,f,square,color_mix,单词,,compatible,1,,,,,,,,0,2,2,2,0,0,0,0,0,32,32,32,,,,,,,,,,,,,,,,,,,,,,,,,,,,,,,,,,,351.28224289999343,351.48264089995064,351.4650291999569,351.76502329995856,351.76502329995856,None,352.26563140004873,None,f,1,0.8756364999571815,352.26563140004873,None,None,None,353.167078700033,None,,,,,,,,,,,,,,,,,,,,,12006,1,2,2024_Jun_13_1748,stroop_task_switching2_b,2021.2.3,59.76246810837527,
condition/block_mixed_b,instruction/instr_mixed,instruction/i10_b,绿,green,d,diamond,color_mix,颜色,,compatible,2,,,,,,,,0,2,2,2,0,0,0,0,0,33,33,33,,,,,,,,,,,,,,,,,,,,,,,,,,,,,,,,,,,354.16996049997397,354.36876119999215,354.3526192000136,354.652540900046,354.652540900046,None,355.15350560005754,None,d,1,0.7240719000110403,355.15350560005754,None,None,None,355.90440230001695,None,,,,,,,,,,,,,,,,,,,,,12006,1,2,2024_Jun_13_1748,stroop_task_switching2_b,2021.2.3,59.76246810837527,
condition/block_mixed_b,instruction/instr_mixed,instruction/i10_b,红,red,k,square,color_mix,单词,,compatible,2,,,,,,,,0,2,2,2,0,0,0,0,0,34,34,34,,,,,,,,,,,,,,,,,,,,,,,,,,,,,,,,,,,356.9060602999525,357.1085470999824,357.09049099998083,357.3913492000429,357.3913492000429,None,357.89049470005557,None,k,1,1.0191654999507591,357.89049470005557,None,None,None,358.9255815000506,None,,,,,,,,,,,,,,,,,,,,,12006,1,2,2024_Jun_13_1748,stroop_task_switching2_b,2021.2.3,59.76246810837527,
condition/block_mixed_b,instruction/instr_mixed,instruction/i10_b,黄,yellow,f,square,color_mix,单词,,compatible,1,,,,,,,,0,2,2,2,0,0,0,0,0,35,35,35,,,,,,,,,,,,,,,,,,,,,,,,,,,,,,,,,,,359.9279428999871,360.12784219998866,360.1114860000089,360.4124806999462,360.4124806999462,None,360.912646700046,None,f,1,0.8848404999589548,360.912646700046,None,None,None,361.8133985999739,None,,,,,,,,,,,,,,,,,,,,,12006,1,2,2024_Jun_13_1748,stroop_task_switching2_b,2021.2.3,59.76246810837527,
condition/block_mixed_b,instruction/instr_mixed,instruction/i10_b,绿,green,d,diamond,color_mix,颜色,,compatible,2,,,,,,,,0,2,2,2,0,0,0,0,0,36,36,36,,,,,,,,,,,,,,,,,,,,,,,,,,,,,,,,,,,362.8148443000391,363.0165377999656,362.99951500003226,363.2990404999582,363.2990404999582,None,363.7996401999844,None,d,1,0.6706208999967203,363.7996401999844,None,None,None,364.50084540003445,None,,,,,,,,,,,,,,,,,,,,,12006,1,2,2024_Jun_13_1748,stroop_task_switching2_b,2021.2.3,59.76246810837527,
condition/block_mixed_b,instruction/instr_mixed,instruction/i10_b,蓝,blue,j,square,color_mix,单词,,compatible,2,,,,,,,,0,2,2,2,0,0,0,0,0,37,37,37,,,,,,,,,,,,,,,,,,,,,,,,,,,,,,,,,,,365.50241269997787,365.70441050000954,365.686017,365.98673160001636,365.98673160001636,None,366.48723590001464,None,j,1,0.7347803000593558,366.48723590001464,None,None,None,367.2388272000244,None,,,,,,,,,,,,,,,,,,,,,12006,1,2,2024_Jun_13_1748,stroop_task_switching2_b,2021.2.3,59.76246810837527,
condition/block_mixed_b,instruction/instr_mixed,instruction/i10_b,红,red,k,square,color_mix,单词,,compatible,1,,,,,,,,0,2,2,2,0,0,0,0,0,38,38,38,,,,,,,,,,,,,,,,,,,,,,,,,,,,,,,,,,,368.2397614000365,368.441730099963,368.42412169999443,368.7237662000116,368.7237662000116,None,369.2248946999898,None,k,1,0.5972589000593871,369.2248946999898,None,None,None,369.8420533000026,None,,,,,,,,,,,,,,,,,,,,,12006,1,2,2024_Jun_13_1748,stroop_task_switching2_b,2021.2.3,59.76246810837527,
condition/block_mixed_b,instruction/instr_mixed,instruction/i10_b,黄,yellow,f,diamond,color_mix,颜色,,compatible,2,,,,,,,,0,2,2,2,0,0,0,0,0,39,39,39,,,,,,,,,,,,,,,,,,,,,,,,,,,,,,,,,,,370.84440000006,371.0446102999849,371.02809989999514,371.32827149995137,371.32827149995137,None,371.82847700000275,None,f,1,0.5852709000464529,371.82847700000275,None,None,None,372.42935210000724,None,,,,,,,,,,,,,,,,,,,,,12006,1,2,2024_Jun_13_1748,stroop_task_switching2_b,2021.2.3,59.76246810837527,
condition/block_mixed_b,instruction/instr_mixed,instruction/i10_b,黄,yellow,f,square,color_mix,单词,,compatible,2,,,,,,,,0,2,2,2,0,0,0,0,0,40,40,40,,,,,,,,,,,,,,,,,,,,,,,,,,,,,,,,,,,373.43215180002153,373.6312581000384,373.61541510000825,373.9150494999485,373.9150494999485,None,374.4157568999799,None,f,1,0.5347116000484675,374.4157568999799,None,None,None,374.96671840001363,None,,,,,,,,,,,,,,,,,,,,,12006,1,2,2024_Jun_13_1748,stroop_task_switching2_b,2021.2.3,59.76246810837527,
condition/block_mixed_b,instruction/instr_mixed,instruction/i10_b,蓝,blue,j,square,color_mix,单词,,compatible,1,,,,,,,,0,2,2,2,0,0,0,0,0,41,41,41,,,,,,,,,,,,,,,,,,,,,,,,,,,,,,,,,,,375.9688318000408,376.17014269996434,376.1524539999664,376.4529788000509,376.4529788000509,None,376.95301719999406,None,j,1,0.733349799993448,376.95301719999406,None,None,None,377.7041959000053,None,,,,,,,,,,,,,,,,,,,,,12006,1,2,2024_Jun_13_1748,stroop_task_switching2_b,2021.2.3,59.76246810837527,
condition/block_mixed_b,instruction/instr_mixed,instruction/i10_b,蓝,blue,j,diamond,color_mix,颜色,,compatible,2,,,,,,,,0,2,2,2,0,0,0,0,0,42,42,42,,,,,,,,,,,,,,,,,,,,,,,,,,,,,,,,,,,378.7069524000399,378.92410199996084,378.8891682999674,379.19035339995753,379.19035339995753,None,379.6903986999532,None,j,1,0.7316509999800473,379.6903986999532,None,None,None,380.44151809997857,None,,,,,,,,,,,,,,,,,,,,,12006,1,2,2024_Jun_13_1748,stroop_task_switching2_b,2021.2.3,59.76246810837527,
condition/block_mixed_b,instruction/instr_mixed,instruction/i10_b,黄,yellow,f,diamond,color_mix,颜色,,compatible,1,,,,,,,,0,2,2,2,0,0,0,0,0,43,43,43,,,,,,,,,,,,,,,,,,,,,,,,,,,,,,,,,,,381.4430125999497,381.64429099997506,381.6267322000349,381.9284653000068,381.9284653000068,None,382.4277550999541,None,f,1,0.7702621999196708,382.4277550999541,None,None,None,383.2122916999506,None,,,,,,,,,,,,,,,,,,,,,12006,1,2,2024_Jun_13_1748,stroop_task_switching2_b,2021.2.3,59.76246810837527,
condition/block_mixed_b,instruction/instr_mixed,instruction/i10_b,红,red,k,diamond,color_mix,颜色,,compatible,1,,,,,,,,0,2,2,2,0,0,0,0,0,44,44,44,,,,,,,,,,,,,,,,,,,,,,,,,,,,,,,,,,,384.2142008000519,384.41426049999427,384.3985272999853,384.6981158000417,384.6981158000417,None,385.20017540000845,None,k,1,0.8144326000474393,385.20017540000845,None,None,None,386.0333149000071,None,,,,,,,,,,,,,,,,,,,,,12006,1,2,2024_Jun_13_1748,stroop_task_switching2_b,2021.2.3,59.76246810837527,
condition/block_mixed_b,instruction/instr_mixed,instruction/i10_b,蓝,blue,j,diamond,color_mix,颜色,,compatible,1,,,,,,,,0,2,2,2,0,0,0,0,0,45,45,45,,,,,,,,,,,,,,,,,,,,,,,,,,,,,,,,,,,387.03485759999603,387.236308200052,387.2193955000257,387.52076029998716,387.52076029998716,None,388.03625310002826,None,j,1,0.7060368999373168,388.03625310002826,None,None,None,388.7706817999715,None,,,,,,,,,,,,,,,,,,,,,12006,1,2,2024_Jun_13_1748,stroop_task_switching2_b,2021.2.3,59.76246810837527,
condition/block_mixed_b,instruction/instr_mixed,instruction/i10_b,红,red,k,diamond,color_mix,颜色,,compatible,1,,,,,,,,0,2,2,2,0,0,0,0,0,46,46,46,,,,,,,,,,,,,,,,,,,,,,,,,,,,,,,,,,,389.77318979997654,389.9726306999801,389.95578660001047,390.257043599966,390.257043599966,None,390.75782890000846,None,k,1,0.8166884999955073,390.75782890000846,None,None,None,391.59207200002857,None,,,,,,,,,,,,,,,,,,,,,12006,1,2,2024_Jun_13_1748,stroop_task_switching2_b,2021.2.3,59.76246810837527,
condition/block_mixed_b,instruction/instr_mixed,instruction/i10_b,红,red,k,square,color_mix,单词,,compatible,2,,,,,,,,0,2,2,2,0,0,0,0,0,47,47,47,,,,,,,,,,,,,,,,,,,,,,,,,,,,,,,,,,,392.59401720005553,392.7955737999873,392.77702479995787,393.0780187000055,393.0780187000055,None,393.5783711000113,None,k,1,0.4922351000132039,393.5783711000113,None,None,None,394.0954151999904,None,,,,,,,,,,,,,,,,,,,,,12006,1,2,2024_Jun_13_1748,stroop_task_switching2_b,2021.2.3,59.76246810837527,
condition/block_mixed_b,instruction/instr_mixed,instruction/i10_b,红,red,k,diamond,color_mix,颜色,,compatible,2,,,,,,,,0,2,2,2,0,0,0,0,0,48,48,48,,,,,,,,,,,,,,,,,,,,,,,,,,,,,,,,,,,395.09781519998796,395.29714210005477,395.2813941000495,395.5830975000281,395.5830975000281,None,396.081851099967,None,k,1,0.5656388000352308,396.081851099967,None,None,None,396.6659982999554,None,,,,,,,,,,,,,,,,,,,,,12006,1,2,2024_Jun_13_1748,stroop_task_switching2_b,2021.2.3,59.76246810837527,
condition/block_mixed_b,instruction/instr_mixed,instruction/i10_b,,,,,,,,,,,,,,,,,0,2,2,2,0,0,0,0,,,,,,,,,,,,,,,,,,,,,,,,,,,,,,,,,,,,,,,,,,,,,,,,,,,,,,,,397.66848610003944,None,space,16.994433299987577,397.66848610003944,None,,,,,,,,,,,,,,,12006,1,2,2024_Jun_13_1748,stroop_task_switching2_b,2021.2.3,59.76246810837527,
condition/block_mixed_b,instruction/instr_mixed,instruction/i10_b,,,,,,,,,,,,,,,,,0,2,2,2,,,,,,,,,,,,,,,,,,,,,,,,,,,,,,,,,,,,,,,,,,,,,,,,,,,,,,,,,,,,,,,,,,,,,,,,,,,,,,,,12006,1,2,2024_Jun_13_1748,stroop_task_switching2_b,2021.2.3,59.76246810837527,
,,,红,red,k,square,color_mix,单词,,compatible,0,block_switch1_b,instruction/ready_test.png,instruction/i11.png,,,,,,,,,,,,,,,,,0,0,0,0,0,0,0,0,,,,,,,,,,,,,,,,,,,418.08154110005125,419.0840251999907,419.0840251999907,420.0855490999529,420.0855490999529,None,417.09657080005854,418.09822629997507,421.1203753000591,421.3209067999851,421.3038806000259,421.60412140004337,421.60412140004337,None,422.104767599958,None,k,1,0.6547400000272319,422.104767599958,None,None,None,,,,,,,,,414.74486169999,None,space,2.326484499964863,414.74486169999,None,,,,,,,,,12006,1,2,2024_Jun_13_1748,stroop_task_switching2_b,2021.2.3,59.76246810837527,
,,,绿,green,d,diamond,color_mix,颜色,,compatible,2,block_switch1_b,instruction/ready_test.png,instruction/i11.png,,,,,,,,,,,,,,,,,0,0,0,0,0,1,1,1,,,,,,,,,,,,,,,,,,,,,,,,,,,422.82205770001747,423.0233213000465,423.00568249996286,423.3073353000218,423.3073353000218,None,423.8070039000595,None,d,1,0.8801715000299737,423.8070039000595,None,None,None,,,,,,,,,,,,,,,,,,,,,,,12006,1,2,2024_Jun_13_1748,stroop_task_switching2_b,2021.2.3,59.76246810837527,
,,,绿,yellow,f,diamond,color_mix,颜色,,incompatible,1,block_switch1_b,instruction/ready_test.png,instruction/i11.png,,,,,,,,,,,,,,,,,0,0,0,0,0,2,2,2,,,,,,,,,,,,,,,,,,,,,,,,,,,424.7083145000506,424.9086429999443,424.89185999997426,425.193993999972,425.193993999972,None,425.6930465999758,None,f,1,1.0663132999325171,425.6930465999758,None,None,None,,,,,,,,,,,,,,,,,,,,,,,12006,1,2,2024_Jun_13_1748,stroop_task_switching2_b,2021.2.3,59.76246810837527,
,,,蓝,blue,j,diamond,color_mix,颜色,,compatible,1,block_switch1_b,instruction/ready_test.png,instruction/i11.png,,,,,,,,,,,,,,,,,0,0,0,0,0,3,3,3,,,,,,,,,,,,,,,,,,,,,,,,,,,426.7780767000513,426.9799215999665,426.962326799985,427.26204099995084,427.26204099995084,None,427.7639514999464,None,j,1,0.7713660999434069,427.7639514999464,None,None,None,,,,,,,,,,,,,,,,,,,,,,,12006,1,2,2024_Jun_13_1748,stroop_task_switching2_b,2021.2.3,59.76246810837527,
,,,绿,green,d,square,color_mix,单词,,compatible,2,block_switch1_b,instruction/ready_test.png,instruction/i11.png,,,,,,,,,,,,,,,,,0,0,0,0,0,4,4,4,,,,,,,,,,,,,,,,,,,,,,,,,,,428.5811915999511,428.78106309997384,428.747644499992,429.04949210002087,429.04949210002087,None,429.5489657999715,None,d,1,0.8266247001010925,429.5489657999715,None,None,None,,,,,,,,,,,,,,,,,,,,,,,12006,1,2,2024_Jun_13_1748,stroop_task_switching2_b,2021.2.3,59.76246810837527,
,,,绿,blue,j,diamond,color_mix,颜色,,incompatible,2,block_switch1_b,instruction/ready_test.png,instruction/i11.png,,,,,,,,,,,,,,,,,0,0,0,0,0,5,5,5,,,,,,,,,,,,,,,,,,,,,,,,,,,430.40011729998514,430.60231159999967,430.5838117999956,430.885626400006,430.885626400006,None,431.38563399994746,None,j,1,0.8938905999530107,431.38563399994746,None,None,None,,,,,,,,,,,,,,,,,,,,,,,12006,1,2,2024_Jun_13_1748,stroop_task_switching2_b,2021.2.3,59.76246810837527,
,,,黄,red,f,square,color_mix,单词,,incompatible,2,block_switch1_b,instruction/ready_test.png,instruction/i11.png,,,,,,,,,,,,,,,,,0,0,0,0,0,6,6,6,,,,,,,,,,,,,,,,,,,,,,,,,,,432.3028992000036,432.50408750004135,432.48739759996533,432.7887120000087,432.7887120000087,None,433.28844399994705,None,f,1,1.1672222999623045,433.28844399994705,None,None,None,,,,,,,,,,,,,,,,,,,,,,,12006,1,2,2024_Jun_13_1748,stroop_task_switching2_b,2021.2.3,59.76246810837527,
,,,绿,green,d,square,color_mix,单词,,compatible,1,block_switch1_b,instruction/ready_test.png,instruction/i11.png,,,,,,,,,,,,,,,,,0,0,0,0,0,7,7,7,,,,,,,,,,,,,,,,,,,,,,,,,,,434.47281579999253,434.67320389999077,434.65669900004286,434.9586225999519,434.9586225999519,None,435.45777550002094,None,d,1,0.7741513999644667,435.45777550002094,None,None,None,,,,,,,,,,,,,,,,,,,,,,,12006,1,2,2024_Jun_13_1748,stroop_task_switching2_b,2021.2.3,59.76246810837527,
,,,蓝,blue,j,square,color_mix,单词,,compatible,1,block_switch1_b,instruction/ready_test.png,instruction/i11.png,,,,,,,,,,,,,,,,,0,0,0,0,0,8,8,8,,,,,,,,,,,,,,,,,,,,,,,,,,,436.27649760001805,436.4767320000101,436.4432186000049,436.7438186999643,436.7438186999643,None,437.2438865000149,None,j,1,0.6280690999701619,437.2438865000149,None,None,None,,,,,,,,,,,,,,,,,,,,,,,12006,1,2,2024_Jun_13_1748,stroop_task_switching2_b,2021.2.3,59.76246810837527,
,,,红,red,k,diamond,color_mix,颜色,,compatible,2,block_switch1_b,instruction/ready_test.png,instruction/i11.png,,,,,,,,,,,,,,,,,0,0,0,0,0,9,9,9,,,,,,,,,,,,,,,,,,,,,,,,,,,437.8948388999561,438.09770969999954,438.0789703000337,438.37986780004576,438.37986780004576,None,438.8805365000153,None,k,1,0.5593082000268623,438.8805365000153,None,None,None,,,,,,,,,,,,,,,,,,,,,,,12006,1,2,2024_Jun_13_1748,stroop_task_switching2_b,2021.2.3,59.76246810837527,
,,,黄,yellow,f,diamond,color_mix,颜色,,compatible,1,block_switch1_b,instruction/ready_test.png,instruction/i11.png,,,,,,,,,,,,,,,,,0,0,0,0,0,10,10,10,,,,,,,,,,,,,,,,,,,,,,,,,,,439.46362239995506,439.66461269999854,439.64716699998826,439.94942720001563,439.94942720001563,None,440.448598899995,None,f,1,0.6794367000693455,440.448598899995,None,None,None,,,,,,,,,,,,,,,,,,,,,,,12006,1,2,2024_Jun_13_1748,stroop_task_switching2_b,2021.2.3,59.76246810837527,
,,,绿,green,d,square,color_mix,单词,,compatible,2,block_switch1_b,instruction/ready_test.png,instruction/i11.png,,,,,,,,,,,,,,,,,0,0,0,0,0,11,11,11,,,,,,,,,,,,,,,,,,,,,,,,,,,441.14950569998473,441.35070680000354,441.33452270005364,441.6342260000529,441.6342260000529,None,442.13543919997755,None,d,1,1.2731749000959098,442.13543919997755,None,None,None,,,,,,,,,,,,,,,,,,,,,,,12006,1,2,2024_Jun_13_1748,stroop_task_switching2_b,2021.2.3,59.76246810837527,
,,,红,red,k,diamond,color_mix,颜色,,compatible,2,block_switch1_b,instruction/ready_test.png,instruction/i11.png,,,,,,,,,,,,,,,,,0,0,0,0,0,12,12,12,,,,,,,,,,,,,,,,,,,,,,,,,,,443.4364538999507,443.6379531000275,443.6203040999826,443.92124229995534,443.92124229995534,None,444.4216217000503,None,k,1,0.6980986000271514,444.4216217000503,None,None,None,,,,,,,,,,,,,,,,,,,,,,,12006,1,2,2024_Jun_13_1748,stroop_task_switching2_b,2021.2.3,59.76246810837527,
,,,红,red,k,diamond,color_mix,颜色,,compatible,1,block_switch1_b,instruction/ready_test.png,instruction/i11.png,,,,,,,,,,,,,,,,,0,0,0,0,0,13,13,13,,,,,,,,,,,,,,,,,,,,,,,,,,,445.13917860004585,445.33953550003935,445.32276540005114,445.6231316999765,445.6231316999765,None,446.12459879997186,None,k,1,0.46809960005339235,446.12459879997186,None,None,None,,,,,,,,,,,,,,,,,,,,,,,12006,1,2,2024_Jun_13_1748,stroop_task_switching2_b,2021.2.3,59.76246810837527,
,,,黄,yellow,f,square,color_mix,单词,,compatible,2,block_switch1_b,instruction/ready_test.png,instruction/i11.png,,,,,,,,,,,,,,,,,0,0,0,0,0,14,14,14,,,,,,,,,,,,,,,,,,,,,,,,,,,446.60800490004476,446.809509600047,446.79144109995104,447.09295399999246,447.09295399999246,None,447.59333569998853,None,f,1,0.5587571000214666,447.59333569998853,None,None,None,,,,,,,,,,,,,,,,,,,,,,,12006,1,2,2024_Jun_13_1748,stroop_task_switching2_b,2021.2.3,59.76246810837527,
,,,红,green,d,diamond,color_mix,颜色,,incompatible,2,block_switch1_b,instruction/ready_test.png,instruction/i11.png,,,,,,,,,,,,,,,,,0,0,0,0,0,15,15,15,,,,,,,,,,,,,,,,,,,,,,,,,,,448.1772267000051,448.37853979994543,448.36054959998,448.6628004000522,448.6628004000522,None,449.1621662999969,None,d,1,1.5188829000107944,449.1621662999969,None,None,None,,,,,,,,,,,,,,,,,,,,,,,12006,1,2,2024_Jun_13_1748,stroop_task_switching2_b,2021.2.3,59.76246810837527,
,,,蓝,red,k,diamond,color_mix,颜色,,incompatible,1,block_switch1_b,instruction/ready_test.png,instruction/i11.png,,,,,,,,,,,,,,,,,0,0,0,0,0,16,16,16,,,,,,,,,,,,,,,,,,,,,,,,,,,450.6973014000105,450.8989640000509,450.88226620003115,451.1831515999511,451.1831515999511,None,451.68226969998796,None,k,1,1.1898886000271887,451.68226969998796,None,None,None,,,,,,,,,,,,,,,,,,,,,,,12006,1,2,2024_Jun_13_1748,stroop_task_switching2_b,2021.2.3,59.76246810837527,
,,,黄,green,d,diamond,color_mix,颜色,,incompatible,1,block_switch1_b,instruction/ready_test.png,instruction/i11.png,,,,,,,,,,,,,,,,,0,0,0,0,0,17,17,17,,,,,,,,,,,,,,,,,,,,,,,,,,,452.91788860003,453.1214565000264,453.08452320005745,453.3849459999474,453.3849459999474,None,453.88565469998866,None,d,1,0.9470453999238089,453.88565469998866,None,None,None,,,,,,,,,,,,,,,,,,,,,,,12006,1,2,2024_Jun_13_1748,stroop_task_switching2_b,2021.2.3,59.76246810837527,
,,,绿,green,d,diamond,color_mix,颜色,,compatible,1,block_switch1_b,instruction/ready_test.png,instruction/i11.png,,,,,,,,,,,,,,,,,0,0,0,0,0,18,18,18,,,,,,,,,,,,,,,,,,,,,,,,,,,454.85482949996367,455.05633359996136,455.0374581000069,455.3380918999901,455.3380918999901,None,455.83863460004795,None,d,1,0.7295915000140667,455.83863460004795,None,None,None,,,,,,,,,,,,,,,,,,,,,,,12006,1,2,2024_Jun_13_1748,stroop_task_switching2_b,2021.2.3,59.76246810837527,
,,,黄,red,k,diamond,color_mix,颜色,,incompatible,1,block_switch1_b,instruction/ready_test.png,instruction/i11.png,,,,,,,,,,,,,,,,,0,0,0,0,0,19,19,19,,,,,,,,,,,,,,,,,,,,,,,,,,,456.5898346999893,456.7906197999837,456.7748089999659,457.07439950003754,457.07439950003754,None,457.5745202000253,None,k,1,0.698216599994339,457.5745202000253,None,None,None,,,,,,,,,,,,,,,,,,,,,,,12006,1,2,2024_Jun_13_1748,stroop_task_switching2_b,2021.2.3,59.76246810837527,
,,,绿,yellow,d,square,color_mix,单词,,incompatible,2,block_switch1_b,instruction/ready_test.png,instruction/i11.png,,,,,,,,,,,,,,,,,0,0,0,0,0,20,20,20,,,,,,,,,,,,,,,,,,,,,,,,,,,458.2928059999831,458.49417279998306,458.47648579999804,458.77704059996177,458.77704059996177,None,459.2777918999782,None,f,0,1.1623583999462426,459.2777918999782,None,None,None,,,,,,,,,,,,,,,,,,,,,,,12006,1,2,2024_Jun_13_1748,stroop_task_switching2_b,2021.2.3,59.76246810837527,
,,,绿,yellow,f,diamond,color_mix,颜色,,incompatible,2,block_switch1_b,instruction/ready_test.png,instruction/i11.png,,,,,,,,,,,,,,,,,0,0,0,0,0,21,21,21,,,,,,,,,,,,,,,,,,,,,,,,,,,460.4624046999961,460.6624600000214,460.646568999975,460.94615319999866,460.94615319999866,None,461.4480979000218,None,f,1,0.8644946999847889,461.4480979000218,None,None,None,,,,,,,,,,,,,,,,,,,,,,,12006,1,2,2024_Jun_13_1748,stroop_task_switching2_b,2021.2.3,59.76246810837527,
,,,绿,green,d,square,color_mix,单词,,compatible,2,block_switch1_b,instruction/ready_test.png,instruction/i11.png,,,,,,,,,,,,,,,,,0,0,0,0,0,22,22,22,,,,,,,,,,,,,,,,,,,,,,,,,,,462.3325519999489,462.5325824000174,462.51528149994556,462.81666460004635,462.81666460004635,None,463.3162187000271,None,d,1,0.8203516999492422,463.3162187000271,None,None,None,,,,,,,,,,,,,,,,,,,,,,,12006,1,2,2024_Jun_13_1748,stroop_task_switching2_b,2021.2.3,59.76246810837527,
,,,红,red,k,square,color_mix,单词,,compatible,1,block_switch1_b,instruction/ready_test.png,instruction/i11.png,,,,,,,,,,,,,,,,,0,0,0,0,0,23,23,23,,,,,,,,,,,,,,,,,,,,,,,,,,,464.16784729994833,464.3687858999474,464.35237059998326,464.6531773000024,464.6531773000024,None,465.1524801000487,None,k,1,0.680570499971509,465.1524801000487,None,None,None,,,,,,,,,,,,,,,,,,,,,,,12006,1,2,2024_Jun_13_1748,stroop_task_switching2_b,2021.2.3,59.76246810837527,
,,,黄,green,f,square,color_mix,单词,,incompatible,1,block_switch1_b,instruction/ready_test.png,instruction/i11.png,,,,,,,,,,,,,,,,,0,0,0,0,0,24,24,24,,,,,,,,,,,,,,,,,,,,,,,,,,,465.85390750004444,466.05514119996224,466.0374282000121,466.33937659999356,466.33937659999356,None,466.83858280000277,None,f,1,0.7538974999915808,466.83858280000277,None,None,None,,,,,,,,,,,,,,,,,,,,,,,12006,1,2,2024_Jun_13_1748,stroop_task_switching2_b,2021.2.3,59.76246810837527,
,,,红,blue,k,square,color_mix,单词,,incompatible,1,block_switch1_b,instruction/ready_test.png,instruction/i11.png,,,,,,,,,,,,,,,,,0,0,0,0,0,25,25,25,,,,,,,,,,,,,,,,,,,,,,,,,,,467.6237234000582,467.825748299947,467.80668759997934,468.1070997000206,468.1070997000206,None,468.60802329995204,None,j,0,0.8808514999691397,468.60802329995204,None,None,None,,,,,,,,,,,,,,,,,,,,,,,12006,1,2,2024_Jun_13_1748,stroop_task_switching2_b,2021.2.3,59.76246810837527,
,,,黄,yellow,f,square,color_mix,单词,,compatible,1,block_switch1_b,instruction/ready_test.png,instruction/i11.png,,,,,,,,,,,,,,,,,0,0,0,0,0,26,26,26,,,,,,,,,,,,,,,,,,,,,,,,,,,469.50958179996815,469.71042819996364,469.6928289999487,469.994824500056,469.994824500056,None,470.4949751000386,None,f,1,1.7776628999272361,470.4949751000386,None,None,None,,,,,,,,,,,,,,,,,,,,,,,12006,1,2,2024_Jun_13_1748,stroop_task_switching2_b,2021.2.3,59.76246810837527,
,,,蓝,green,j,square,color_mix,单词,,incompatible,1,block_switch1_b,instruction/ready_test.png,instruction/i11.png,,,,,,,,,,,,,,,,,0,0,0,0,0,27,27,27,,,,,,,,,,,,,,,,,,,,,,,,,,,472.29666009999346,472.49842970003374,472.4802161999978,472.7808968999889,472.7808968999889,None,473.28214759996627,None,j,1,1.3264605000149459,473.28214759996627,None,None,None,,,,,,,,,,,,,,,,,,,,,,,12006,1,2,2024_Jun_13_1748,stroop_task_switching2_b,2021.2.3,59.76246810837527,
,,,绿,green,d,diamond,color_mix,颜色,,compatible,2,block_switch1_b,instruction/ready_test.png,instruction/i11.png,,,,,,,,,,,,,,,,,0,0,0,0,0,28,28,28,,,,,,,,,,,,,,,,,,,,,,,,,,,474.6340052000014,474.8346764999442,474.81725780002307,475.1188940999564,475.1188940999564,None,475.6192451999523,None,d,1,0.9739313999889418,475.6192451999523,None,None,None,,,,,,,,,,,,,,,,,,,,,,,12006,1,2,2024_Jun_13_1748,stroop_task_switching2_b,2021.2.3,59.76246810837527,
,,,黄,blue,j,diamond,color_mix,颜色,,incompatible,1,block_switch1_b,instruction/ready_test.png,instruction/i11.png,,,,,,,,,,,,,,,,,0,0,0,0,0,29,29,29,,,,,,,,,,,,,,,,,,,,,,,,,,,476.6199316000566,476.8208712999476,476.80421109998133,477.10468440002296,477.10468440002296,None,477.6044444000581,None,j,1,1.349078599945642,477.6044444000581,None,None,None,,,,,,,,,,,,,,,,,,,,,,,12006,1,2,2024_Jun_13_1748,stroop_task_switching2_b,2021.2.3,59.76246810837527,
,,,绿,green,d,diamond,color_mix,颜色,,compatible,1,block_switch1_b,instruction/ready_test.png,instruction/i11.png,,,,,,,,,,,,,,,,,0,0,0,0,0,30,30,30,,,,,,,,,,,,,,,,,,,,,,,,,,,478.97355110000353,479.1736180000007,479.1584122000495,479.4574774999637,479.4574774999637,None,479.95839479996357,None,d,1,1.1385112999705598,479.95839479996357,None,None,None,,,,,,,,,,,,,,,,,,,,,,,12006,1,2,2024_Jun_13_1748,stroop_task_switching2_b,2021.2.3,59.76246810837527,
,,,蓝,blue,j,square,color_mix,单词,,compatible,2,block_switch1_b,instruction/ready_test.png,instruction/i11.png,,,,,,,,,,,,,,,,,0,0,0,0,0,31,31,31,,,,,,,,,,,,,,,,,,,,,,,,,,,481.1266207000008,481.32813369994983,481.3101874999702,481.611265799962,481.611265799962,None,482.1124497000128,None,j,1,0.8886779000749812,482.1124497000128,None,None,None,,,,,,,,,,,,,,,,,,,,,,,12006,1,2,2024_Jun_13_1748,stroop_task_switching2_b,2021.2.3,59.76246810837527,
,,,红,red,k,square,color_mix,单词,,compatible,1,block_switch1_b,instruction/ready_test.png,instruction/i11.png,,,,,,,,,,,,,,,,,0,0,0,0,0,32,32,32,,,,,,,,,,,,,,,,,,,,,,,,,,,483.0303431999637,483.2302122999681,483.2138113999972,483.51463860005606,483.51463860005606,None,484.0145122000249,None,k,1,1.514569399994798,484.0145122000249,None,None,None,,,,,,,,,,,,,,,,,,,,,,,12006,1,2,2024_Jun_13_1748,stroop_task_switching2_b,2021.2.3,59.76246810837527,
,,,红,green,k,square,color_mix,单词,,incompatible,1,block_switch1_b,instruction/ready_test.png,instruction/i11.png,,,,,,,,,,,,,,,,,0,0,0,0,0,33,33,33,,,,,,,,,,,,,,,,,,,,,,,,,,,485.55028880003374,485.7502698999597,485.73376039997675,486.0348227999639,486.0348227999639,None,486.5354379999917,None,k,1,0.6178437999915332,486.5354379999917,None,None,None,,,,,,,,,,,,,,,,,,,,,,,12006,1,2,2024_Jun_13_1748,stroop_task_switching2_b,2021.2.3,59.76246810837527,
,,,黄,yellow,f,diamond,color_mix,颜色,,compatible,2,block_switch1_b,instruction/ready_test.png,instruction/i11.png,,,,,,,,,,,,,,,,,0,0,0,0,0,34,34,34,,,,,,,,,,,,,,,,,,,,,,,,,,,487.1690836000489,487.37083749996964,487.3525857999921,487.655109000043,487.655109000043,None,488.1707238999661,None,f,1,0.958477700012736,488.1707238999661,None,None,None,,,,,,,,,,,,,,,,,,,,,,,12006,1,2,2024_Jun_13_1748,stroop_task_switching2_b,2021.2.3,59.76246810837527,
,,,红,green,d,diamond,color_mix,颜色,,incompatible,1,block_switch1_b,instruction/ready_test.png,instruction/i11.png,,,,,,,,,,,,,,,,,0,0,0,0,0,35,35,35,,,,,,,,,,,,,,,,,,,,,,,,,,,489.1553331000032,489.3566866000183,489.33969219995197,489.63942150003277,489.63942150003277,None,490.140294300043,None,d,1,1.516765599953942,490.140294300043,None,None,None,,,,,,,,,,,,,,,,,,,,,,,12006,1,2,2024_Jun_13_1748,stroop_task_switching2_b,2021.2.3,59.76246810837527,
,,,黄,yellow,f,square,color_mix,单词,,compatible,2,block_switch1_b,instruction/ready_test.png,instruction/i11.png,,,,,,,,,,,,,,,,,0,0,0,0,0,36,36,36,,,,,,,,,,,,,,,,,,,,,,,,,,,491.6758731000591,491.87682100001257,491.85953839996364,492.1610946999863,492.1610946999863,None,492.66196900000796,None,f,1,1.267310900031589,492.66196900000796,None,None,None,,,,,,,,,,,,,,,,,,,,,,,12006,1,2,2024_Jun_13_1748,stroop_task_switching2_b,2021.2.3,59.76246810837527,
,,,蓝,blue,j,square,color_mix,单词,,compatible,1,block_switch1_b,instruction/ready_test.png,instruction/i11.png,,,,,,,,,,,,,,,,,0,0,0,0,0,37,37,37,,,,,,,,,,,,,,,,,,,,,,,,,,,493.9459091000026,494.1462720000418,494.13114309997763,494.4300946999574,494.4300946999574,None,494.9308033999987,None,j,1,0.7663561999797821,494.9308033999987,None,None,None,,,,,,,,,,,,,,,,,,,,,,,12006,1,2,2024_Jun_13_1748,stroop_task_switching2_b,2021.2.3,59.76246810837527,
,,,绿,red,k,diamond,color_mix,颜色,,incompatible,2,block_switch1_b,instruction/ready_test.png,instruction/i11.png,,,,,,,,,,,,,,,,,0,0,0,0,0,38,38,38,,,,,,,,,,,,,,,,,,,,,,,,,,,495.7153965999605,495.91622120002285,495.9008060999913,496.21627780003473,496.20201390003785,None,496.7169011000078,None,k,1,1.0285229999572039,496.7169011000078,None,None,None,,,,,,,,,,,,,,,,,,,,,,,12006,1,2,2024_Jun_13_1748,stroop_task_switching2_b,2021.2.3,59.76246810837527,
,,,黄,yellow,f,diamond,color_mix,颜色,,compatible,1,block_switch1_b,instruction/ready_test.png,instruction/i11.png,,,,,,,,,,,,,,,,,0,0,0,0,0,39,39,39,,,,,,,,,,,,,,,,,,,,,,,,,,,497.76838470005896,497.96868569997605,497.95305709994864,498.25434930005576,498.25434930005576,None,498.7698793000309,None,f,1,0.7193839000537992,498.7698793000309,None,None,None,,,,,,,,,,,,,,,,,,,,,,,12006,1,2,2024_Jun_13_1748,stroop_task_switching2_b,2021.2.3,59.76246810837527,
,,,红,blue,j,diamond,color_mix,颜色,,incompatible,1,block_switch1_b,instruction/ready_test.png,instruction/i11.png,,,,,,,,,,,,,,,,,0,0,0,0,0,40,40,40,,,,,,,,,,,,,,,,,,,,,,,,,,,499.50444819999393,499.70619000005536,499.68805280001834,499.98840689996723,499.98840689996723,None,500.48926249996293,None,j,1,1.1283216000301763,500.48926249996293,None,None,None,,,,,,,,,,,,,,,,,,,,,,,12006,1,2,2024_Jun_13_1748,stroop_task_switching2_b,2021.2.3,59.76246810837527,
,,,绿,blue,d,square,color_mix,单词,,incompatible,2,block_switch1_b,instruction/ready_test.png,instruction/i11.png,,,,,,,,,,,,,,,,,0,0,0,0,0,41,41,41,,,,,,,,,,,,,,,,,,,,,,,,,,,501.6407881999621,501.84149819996674,501.82645119994413,502.14283539995085,502.1262116000289,None,502.62647929997183,None,d,1,1.135001300019212,502.62647929997183,None,None,None,,,,,,,,,,,,,,,,,,,,,,,12006,1,2,2024_Jun_13_1748,stroop_task_switching2_b,2021.2.3,59.76246810837527,
,,,蓝,blue,j,diamond,color_mix,颜色,,compatible,2,block_switch1_b,instruction/ready_test.png,instruction/i11.png,,,,,,,,,,,,,,,,,0,0,0,0,0,42,42,42,,,,,,,,,,,,,,,,,,,,,,,,,,,503.7775526000187,503.97848179994617,503.9611683000112,504.2620760999853,504.2620760999853,None,504.76237530005164,None,j,1,0.8231862999964505,504.76237530005164,None,None,None,,,,,,,,,,,,,,,,,,,,,,,12006,1,2,2024_Jun_13_1748,stroop_task_switching2_b,2021.2.3,59.76246810837527,
,,,红,blue,k,square,color_mix,单词,,incompatible,2,block_switch1_b,instruction/ready_test.png,instruction/i11.png,,,,,,,,,,,,,,,,,0,0,0,0,0,43,43,43,,,,,,,,,,,,,,,,,,,,,,,,,,,505.61359910003375,505.8139169999631,505.79796650004573,506.0988396999892,506.0988396999892,None,506.5984579999931,None,k,1,2.3872422000858933,506.5984579999931,None,None,None,,,,,,,,,,,,,,,,,,,,,,,12006,1,2,2024_Jun_13_1748,stroop_task_switching2_b,2021.2.3,59.76246810837527,
,,,蓝,green,d,diamond,color_mix,颜色,,incompatible,2,block_switch1_b,instruction/ready_test.png,instruction/i11.png,,,,,,,,,,,,,,,,,0,0,0,0,0,44,44,44,,,,,,,,,,,,,,,,,,,,,,,,,,,509.001930700033,509.20314999995753,509.1854245000286,509.4867975000525,509.4867975000525,None,509.98733729997184,None,d,1,1.0944203999824822,509.98733729997184,None,None,None,,,,,,,,,,,,,,,,,,,,,,,12006,1,2,2024_Jun_13_1748,stroop_task_switching2_b,2021.2.3,59.76246810837527,
,,,黄,yellow,f,square,color_mix,单词,,compatible,2,block_switch1_b,instruction/ready_test.png,instruction/i11.png,,,,,,,,,,,,,,,,,0,0,0,0,0,45,45,45,,,,,,,,,,,,,,,,,,,,,,,,,,,511.1057944999775,511.30700320005417,511.288831199985,511.5896185999736,511.5896185999736,None,512.0900618999731,None,f,1,1.431570200016722,512.0900618999731,None,None,None,,,,,,,,,,,,,,,,,,,,,,,12006,1,2,2024_Jun_13_1748,stroop_task_switching2_b,2021.2.3,59.76246810837527,
,,,黄,yellow,f,diamond,color_mix,颜色,,compatible,2,block_switch1_b,instruction/ready_test.png,instruction/i11.png,,,,,,,,,,,,,,,,,0,0,0,0,0,46,46,46,,,,,,,,,,,,,,,,,,,,,,,,,,,513.5421955999918,513.7433171999874,513.7264280000236,514.0268824000377,514.0268824000377,None,514.5270751999924,None,d,0,0.6351751000620425,514.5270751999924,None,None,None,,,,,,,,,,,,,,,,,,,,,,,12006,1,2,2024_Jun_13_1748,stroop_task_switching2_b,2021.2.3,59.76246810837527,
,,,绿,red,d,square,color_mix,单词,,incompatible,2,block_switch1_b,instruction/ready_test.png,instruction/i11.png,,,,,,,,,,,,,,,,,0,0,0,0,0,47,47,47,,,,,,,,,,,,,,,,,,,,,,,,,,,515.1780189999845,515.3793899000157,515.3617225999478,515.662300099968,515.662300099968,None,516.1628409000114,519.1680866000243,None,0,,516.1628409000114,519.1680866000243,519.1514217000222,None,,,,,,,,,,,,,,,,,,,,,,,12006,1,2,2024_Jun_13_1748,stroop_task_switching2_b,2021.2.3,59.76246810837527,
,,,红,red,k,diamond,color_mix,颜色,,compatible,2,block_switch1_b,instruction/ready_test.png,instruction/i11.png,,,,,,,,,,,,,,,,,0,0,0,0,0,48,48,48,,,,,,,,,,,,,,,,,,,,,,,,,,,519.735578999971,519.9367893000599,519.9186329999939,520.2198578000534,520.2198578000534,None,520.7207235000096,None,k,1,0.8174486000789329,520.7207235000096,None,None,None,,,,,,,,,,,,,,,,,,,,,,,12006,1,2,2024_Jun_13_1748,stroop_task_switching2_b,2021.2.3,59.76246810837527,
,,,蓝,blue,j,diamond,color_mix,颜色,,compatible,1,block_switch1_b,instruction/ready_test.png,instruction/i11.png,,,,,,,,,,,,,,,,,0,0,0,0,0,49,49,49,,,,,,,,,,,,,,,,,,,,,,,,,,,521.5544197000563,521.7559222000418,521.7380180000328,522.0396702999715,522.0396702999715,None,522.5391243000049,None,j,1,0.7429239999037236,522.5391243000049,None,None,None,,,,,,,,,,,,,,,,,,,,,,,12006,1,2,2024_Jun_13_1748,stroop_task_switching2_b,2021.2.3,59.76246810837527,
,,,黄,yellow,f,diamond,color_mix,颜色,,compatible,1,block_switch1_b,instruction/ready_test.png,instruction/i11.png,,,,,,,,,,,,,,,,,0,0,0,0,0,50,50,50,,,,,,,,,,,,,,,,,,,,,,,,,,,523.3070236999774,523.5081602999708,523.4915740999859,523.7921834000153,523.7921834000153,None,524.2925847000442,None,f,1,0.5253243999322876,524.2925847000442,None,None,None,,,,,,,,,,,,,,,,,,,,,,,12006,1,2,2024_Jun_13_1748,stroop_task_switching2_b,2021.2.3,59.76246810837527,
,,,红,blue,j,diamond,color_mix,颜色,,incompatible,1,block_switch1_b,instruction/ready_test.png,instruction/i11.png,,,,,,,,,,,,,,,,,0,0,0,0,0,51,51,51,,,,,,,,,,,,,,,,,,,,,,,,,,,524.8428006999893,525.0428974999813,525.0268246999476,525.3264663000591,525.3264663000591,None,525.8276168999728,None,j,1,1.062995999935083,525.8276168999728,None,None,None,,,,,,,,,,,,,,,,,,,,,,,12006,1,2,2024_Jun_13_1748,stroop_task_switching2_b,2021.2.3,59.76246810837527,
,,,蓝,yellow,f,diamond,color_mix,颜色,,incompatible,1,block_switch1_b,instruction/ready_test.png,instruction/i11.png,,,,,,,,,,,,,,,,,0,0,0,0,0,52,52,52,,,,,,,,,,,,,,,,,,,,,,,,,,,526.9124197999481,527.1136292000301,527.0970258000307,527.3971191999735,527.3971191999735,None,527.8972656000406,None,f,1,1.0889151999726892,527.8972656000406,None,None,None,,,,,,,,,,,,,,,,,,,,,,,12006,1,2,2024_Jun_13_1748,stroop_task_switching2_b,2021.2.3,59.76246810837527,
,,,黄,blue,f,square,color_mix,单词,,incompatible,2,block_switch1_b,instruction/ready_test.png,instruction/i11.png,,,,,,,,,,,,,,,,,0,0,0,0,0,53,53,53,,,,,,,,,,,,,,,,,,,,,,,,,,,529.0155739999609,529.2159287000541,529.1999161000131,529.5007937999908,529.5007937999908,None,530.0011304999935,None,f,1,0.96126950008329,530.0011304999935,None,None,None,,,,,,,,,,,,,,,,,,,,,,,12006,1,2,2024_Jun_13_1748,stroop_task_switching2_b,2021.2.3,59.76246810837527,
,,,蓝,blue,j,diamond,color_mix,颜色,,compatible,2,block_switch1_b,instruction/ready_test.png,instruction/i11.png,,,,,,,,,,,,,,,,,0,0,0,0,0,54,54,54,,,,,,,,,,,,,,,,,,,,,,,,,,,530.9851411000127,531.1856781999813,531.1692188000306,531.4701281000162,531.4701281000162,None,531.9701486000558,None,j,1,0.7042211999651045,531.9701486000558,None,None,None,,,,,,,,,,,,,,,,,,,,,,,12006,1,2,2024_Jun_13_1748,stroop_task_switching2_b,2021.2.3,59.76246810837527,
,,,红,yellow,k,square,color_mix,单词,,incompatible,2,block_switch1_b,instruction/ready_test.png,instruction/i11.png,,,,,,,,,,,,,,,,,0,0,0,0,0,55,55,55,,,,,,,,,,,,,,,,,,,,,,,,,,,532.7044308000477,532.9061712999828,532.8893014000496,533.1882545000408,533.1882545000408,None,533.6893586999504,None,k,1,1.2569274000125006,533.6893586999504,None,None,None,,,,,,,,,,,,,,,,,,,,,,,12006,1,2,2024_Jun_13_1748,stroop_task_switching2_b,2021.2.3,59.76246810837527,
,,,蓝,red,j,square,color_mix,单词,,incompatible,1,block_switch1_b,instruction/ready_test.png,instruction/i11.png,,,,,,,,,,,,,,,,,0,0,0,0,0,56,56,56,,,,,,,,,,,,,,,,,,,,,,,,,,,534.974608700024,535.1769454999594,535.1586316999746,535.458777599968,535.458777599968,None,535.960210600053,None,j,1,0.898810499929823,535.960210600053,None,None,None,,,,,,,,,,,,,,,,,,,,,,,12006,1,2,2024_Jun_13_1748,stroop_task_switching2_b,2021.2.3,59.76246810837527,
,,,蓝,blue,j,square,color_mix,单词,,compatible,1,block_switch1_b,instruction/ready_test.png,instruction/i11.png,,,,,,,,,,,,,,,,,0,0,0,0,0,57,57,57,,,,,,,,,,,,,,,,,,,,,,,,,,,536.8773230999941,537.0793483000016,537.0609952999512,537.3614993999945,537.3614993999945,None,537.862919999985,None,j,1,0.5644042999483645,537.862919999985,None,None,None,,,,,,,,,,,,,,,,,,,,,,,12006,1,2,2024_Jun_13_1748,stroop_task_switching2_b,2021.2.3,59.76246810837527,
,,,蓝,red,k,diamond,color_mix,颜色,,incompatible,2,block_switch1_b,instruction/ready_test.png,instruction/i11.png,,,,,,,,,,,,,,,,,0,0,0,0,0,58,58,58,,,,,,,,,,,,,,,,,,,,,,,,,,,538.4464439000003,538.6474843999604,538.6300195000367,538.9304288000567,538.9304288000567,None,539.4312208000338,None,k,1,1.1635856999782845,539.4312208000338,None,None,None,,,,,,,,,,,,,,,,,,,,,,,12006,1,2,2024_Jun_13_1748,stroop_task_switching2_b,2021.2.3,59.76246810837527,
,,,绿,green,d,diamond,color_mix,颜色,,compatible,1,block_switch1_b,instruction/ready_test.png,instruction/i11.png,,,,,,,,,,,,,,,,,0,0,0,0,0,59,59,59,,,,,,,,,,,,,,,,,,,,,,,,,,,540.6163832000457,540.8167592999525,540.8005829999456,541.1011793999933,541.1011793999933,None,541.6011990000261,None,d,1,0.7772833000635728,541.6011990000261,None,None,None,,,,,,,,,,,,,,,,,,,,,,,12006,1,2,2024_Jun_13_1748,stroop_task_switching2_b,2021.2.3,59.76246810837527,
,,,蓝,blue,j,diamond,color_mix,颜色,,compatible,1,block_switch1_b,instruction/ready_test.png,instruction/i11.png,,,,,,,,,,,,,,,,,0,0,0,0,0,60,60,60,,,,,,,,,,,,,,,,,,,,,,,,,,,542.4023516000016,542.603957299958,542.5861102000345,542.8871417000191,542.8871417000191,None,543.3872417999664,None,j,1,1.2631695000454783,543.3872417999664,None,None,None,,,,,,,,,,,,,,,,,,,,,,,12006,1,2,2024_Jun_13_1748,stroop_task_switching2_b,2021.2.3,59.76246810837527,
,,,黄,yellow,f,square,color_mix,单词,,compatible,2,block_switch1_b,instruction/ready_test.png,instruction/i11.png,,,,,,,,,,,,,,,,,0,0,0,0,0,61,61,61,,,,,,,,,,,,,,,,,,,,,,,,,,,544.6726055999752,544.8732395999832,544.8570097000338,545.1565583000192,545.1565583000192,None,545.6570511000464,None,f,1,1.7542522998992354,545.6570511000464,None,None,None,,,,,,,,,,,,,,,,,,,,,,,12006,1,2,2024_Jun_13_1748,stroop_task_switching2_b,2021.2.3,59.76246810837527,
,,,绿,blue,d,square,color_mix,单词,,incompatible,1,block_switch1_b,instruction/ready_test.png,instruction/i11.png,,,,,,,,,,,,,,,,,0,0,0,0,0,62,62,62,,,,,,,,,,,,,,,,,,,,,,,,,,,547.4265633999603,547.6270921999821,547.610942899948,547.9107593999943,547.9107593999943,None,548.4128384999931,None,d,1,0.9500535000115633,548.4128384999931,None,None,None,,,,,,,,,,,,,,,,,,,,,,,12006,1,2,2024_Jun_13_1748,stroop_task_switching2_b,2021.2.3,59.76246810837527,
,,,蓝,yellow,j,square,color_mix,单词,,incompatible,1,block_switch1_b,instruction/ready_test.png,instruction/i11.png,,,,,,,,,,,,,,,,,0,0,0,0,0,63,63,63,,,,,,,,,,,,,,,,,,,,,,,,,,,549.3810354999732,549.59799629997,549.5632340000011,549.8644691000227,549.8644691000227,None,550.3643659000518,None,j,1,0.767018299899064,550.3643659000518,None,None,None,,,,,,,,,,,,,,,,,,,,,,,12006,1,2,2024_Jun_13_1748,stroop_task_switching2_b,2021.2.3,59.76246810837527,
,,,黄,yellow,f,diamond,color_mix,颜色,,compatible,2,block_switch1_b,instruction/ready_test.png,instruction/i11.png,,,,,,,,,,,,,,,,,0,0,0,0,0,64,64,64,,,,,,,,,,,,,,,,,,,,,,,,,,,551.1489528999664,551.3499487000518,551.3331213999772,551.6338871000335,551.6338871000335,None,552.1342925999779,None,f,1,0.6128648000303656,552.1342925999779,None,None,None,,,,,,,,,,,,,,,,,,,,,,,12006,1,2,2024_Jun_13_1748,stroop_task_switching2_b,2021.2.3,59.76246810837527,
,,,蓝,green,d,diamond,color_mix,颜色,,incompatible,1,block_switch1_b,instruction/ready_test.png,instruction/i11.png,,,,,,,,,,,,,,,,,0,0,0,0,0,65,65,65,,,,,,,,,,,,,,,,,,,,,,,,,,,552.7681678000372,552.9682794000255,552.9521616999991,553.253026099992,553.253026099992,None,553.7528274999931,None,d,1,1.4905829000053927,553.7528274999931,None,None,None,,,,,,,,,,,,,,,,,,,,,,,12006,1,2,2024_Jun_13_1748,stroop_task_switching2_b,2021.2.3,59.76246810837527,
,,,红,red,k,diamond,color_mix,颜色,,compatible,1,block_switch1_b,instruction/ready_test.png,instruction/i11.png,,,,,,,,,,,,,,,,,0,0,0,0,0,66,66,66,,,,,,,,,,,,,,,,,,,,,,,,,,,555.2716751999687,555.4722470999695,555.4562210000586,555.7569660999579,555.7569660999579,None,556.2577149999561,None,k,1,0.6494907999876887,556.2577149999561,None,None,None,,,,,,,,,,,,,,,,,,,,,,,12006,1,2,2024_Jun_13_1748,stroop_task_switching2_b,2021.2.3,59.76246810837527,
,,,蓝,yellow,j,square,color_mix,单词,,incompatible,2,block_switch1_b,instruction/ready_test.png,instruction/i11.png,,,,,,,,,,,,,,,,,0,0,0,0,0,67,67,67,,,,,,,,,,,,,,,,,,,,,,,,,,,556.9243497999851,557.1253674000036,557.1085025999928,557.4083408999722,557.4083408999722,None,557.9091902000364,None,j,1,2.30999039998278,557.9091902000364,None,None,None,,,,,,,,,,,,,,,,,,,,,,,12006,1,2,2024_Jun_13_1748,stroop_task_switching2_b,2021.2.3,59.76246810837527,
,,,红,yellow,k,square,color_mix,单词,,incompatible,1,block_switch1_b,instruction/ready_test.png,instruction/i11.png,,,,,,,,,,,,,,,,,0,0,0,0,0,68,68,68,,,,,,,,,,,,,,,,,,,,,,,,,,,560.2459295999724,560.4484671000391,560.429528699955,560.729926400003,560.729926400003,None,561.2308668999467,None,k,1,0.5881498999660835,561.2308668999467,None,None,None,,,,,,,,,,,,,,,,,,,,,,,12006,1,2,2024_Jun_13_1748,stroop_task_switching2_b,2021.2.3,59.76246810837527,
,,,红,yellow,f,diamond,color_mix,颜色,,incompatible,2,block_switch1_b,instruction/ready_test.png,instruction/i11.png,,,,,,,,,,,,,,,,,0,0,0,0,0,69,69,69,,,,,,,,,,,,,,,,,,,,,,,,,,,561.8485237000277,562.0501752999844,562.0332860000199,562.3325054000597,562.3325054000597,None,562.8342678999761,None,k,0,0.4966656999895349,562.8342678999761,None,None,None,,,,,,,,,,,,,,,,,,,,,,,12006,1,2,2024_Jun_13_1748,stroop_task_switching2_b,2021.2.3,59.76246810837527,
,,,蓝,green,j,square,color_mix,单词,,incompatible,2,block_switch1_b,instruction/ready_test.png,instruction/i11.png,,,,,,,,,,,,,,,,,0,0,0,0,0,70,70,70,,,,,,,,,,,,,,,,,,,,,,,,,,,563.3502806000179,563.5515123000368,563.5367573000258,563.8531866000267,563.8346007999498,None,564.3366392999887,None,j,1,0.8347032000310719,564.3366392999887,None,None,None,,,,,,,,,,,,,,,,,,,,,,,12006,1,2,2024_Jun_13_1748,stroop_task_switching2_b,2021.2.3,59.76246810837527,
,,,绿,yellow,d,square,color_mix,单词,,incompatible,1,block_switch1_b,instruction/ready_test.png,instruction/i11.png,,,,,,,,,,,,,,,,,0,0,0,0,0,71,71,71,,,,,,,,,,,,,,,,,,,,,,,,,,,565.1868462000275,565.38765160006,565.3704366000602,565.672883399995,565.672883399995,None,566.1729676000541,None,d,1,1.030462299939245,566.1729676000541,None,None,None,,,,,,,,,,,,,,,,,,,,,,,12006,1,2,2024_Jun_13_1748,stroop_task_switching2_b,2021.2.3,59.76246810837527,
,,,蓝,yellow,f,diamond,color_mix,颜色,,incompatible,2,block_switch1_b,instruction/ready_test.png,instruction/i11.png,,,,,,,,,,,,,,,,,0,0,0,0,0,72,72,72,,,,,,,,,,,,,,,,,,,,,,,,,,,567.2234398999717,567.4252643999644,567.4068487000186,567.7073497000383,567.7073497000383,None,568.2080722999526,None,f,1,0.9550133999437094,568.2080722999526,None,None,None,,,,,,,,,,,,,,,,,,,,,,,12006,1,2,2024_Jun_13_1748,stroop_task_switching2_b,2021.2.3,59.76246810837527,
,,,红,green,k,square,color_mix,单词,,incompatible,2,block_switch1_b,instruction/ready_test.png,instruction/i11.png,,,,,,,,,,,,,,,,,0,0,0,0,0,73,73,73,,,,,,,,,,,,,,,,,,,,,,,,,,,569.1930616999744,569.3944167000009,569.3775999000063,569.6770018000389,569.6770018000389,None,570.1782004999695,None,k,1,1.9141925999429077,570.1782004999695,None,None,None,,,,,,,,,,,,,,,,,,,,,,,12006,1,2,2024_Jun_13_1748,stroop_task_switching2_b,2021.2.3,59.76246810837527,
,,,绿,blue,j,diamond,color_mix,颜色,,incompatible,2,block_switch1_b,instruction/ready_test.png,instruction/i11.png,,,,,,,,,,,,,,,,,0,0,0,0,0,74,74,74,,,,,,,,,,,,,,,,,,,,,,,,,,,572.1140933999559,572.3153416999849,572.2985466000391,572.5990505999653,572.5990505999653,None,573.0999592000153,None,j,1,1.3755655999993905,573.0999592000153,None,None,None,,,,,,,,,,,,,,,,,,,,,,,12006,1,2,2024_Jun_13_1748,stroop_task_switching2_b,2021.2.3,59.76246810837527,
,,,红,red,k,square,color_mix,单词,,compatible,2,block_switch1_b,instruction/ready_test.png,instruction/i11.png,,,,,,,,,,,,,,,,,0,0,0,0,0,75,75,75,,,,,,,,,,,,,,,,,,,,,,,,,,,574.5006614000304,574.7015062000137,574.6842643000418,574.9859529000241,574.9859529000241,None,575.4856366999447,None,k,1,0.7738546000327915,575.4856366999447,None,None,None,,,,,,,,,,,,,,,,,,,,,,,12006,1,2,2024_Jun_13_1748,stroop_task_switching2_b,2021.2.3,59.76246810837527,
,,,绿,green,d,diamond,color_mix,颜色,,compatible,2,block_switch1_b,instruction/ready_test.png,instruction/i11.png,,,,,,,,,,,,,,,,,0,0,0,0,0,76,76,76,,,,,,,,,,,,,,,,,,,,,,,,,,,576.286931599956,576.4879607999464,576.4711189999944,576.7729668000247,576.7729668000247,None,577.2726528999628,None,d,1,0.7308536999626085,577.2726528999628,None,None,None,,,,,,,,,,,,,,,,,,,,,,,12006,1,2,2024_Jun_13_1748,stroop_task_switching2_b,2021.2.3,59.76246810837527,
,,,黄,red,f,square,color_mix,单词,,incompatible,2,block_switch1_b,instruction/ready_test.png,instruction/i11.png,,,,,,,,,,,,,,,,,0,0,0,0,0,77,77,77,,,,,,,,,,,,,,,,,,,,,,,,,,,578.0229022999993,578.2231654999778,578.2064149000216,578.5067816999508,578.5067816999508,None,579.0077887000516,None,f,1,2.339789199992083,579.0077887000516,None,None,None,,,,,,,,,,,,,,,,,,,,,,,12006,1,2,2024_Jun_13_1748,stroop_task_switching2_b,2021.2.3,59.76246810837527,
,,,红,red,k,square,color_mix,单词,,compatible,1,block_switch1_b,instruction/ready_test.png,instruction/i11.png,,,,,,,,,,,,,,,,,0,0,0,0,0,78,78,78,,,,,,,,,,,,,,,,,,,,,,,,,,,581.3783624999924,581.5791734999511,581.5634339000098,581.8792060000123,581.8632452000165,None,582.363481599954,None,k,1,0.7845578999258578,582.363481599954,None,None,None,,,,,,,,,,,,,,,,,,,,,,,12006,1,2,2024_Jun_13_1748,stroop_task_switching2_b,2021.2.3,59.76246810837527,
,,,黄,yellow,f,square,color_mix,单词,,compatible,1,block_switch1_b,instruction/ready_test.png,instruction/i11.png,,,,,,,,,,,,,,,,,0,0,0,0,0,79,79,79,,,,,,,,,,,,,,,,,,,,,,,,,,,583.163780999952,583.3655688000144,583.3477124000201,583.6483753999928,583.6483753999928,None,584.148797199945,None,f,1,1.7510938999475911,584.148797199945,None,None,None,,,,,,,,,,,,,,,,,,,,,,,12006,1,2,2024_Jun_13_1748,stroop_task_switching2_b,2021.2.3,59.76246810837527,
,,,红,red,k,diamond,color_mix,颜色,,compatible,2,block_switch1_b,instruction/ready_test.png,instruction/i11.png,,,,,,,,,,,,,,,,,0,0,0,0,0,80,80,80,,,,,,,,,,,,,,,,,,,,,,,,,,,585.9180683000013,586.1190817999886,586.1029048999771,586.4039827999659,586.4039827999659,None,586.9205082999542,None,k,1,0.6433923000004143,586.9205082999542,None,None,None,,,,,,,,,,,,,,,,,,,,,,,12006,1,2,2024_Jun_13_1748,stroop_task_switching2_b,2021.2.3,59.76246810837527,
,,,红,red,k,square,color_mix,单词,,compatible,2,block_switch1_b,instruction/ready_test.png,instruction/i11.png,,,,,,,,,,,,,,,,,0,0,0,0,0,81,81,81,,,,,,,,,,,,,,,,,,,,,,,,,,,587.5871685999446,587.7876528999768,587.7707993000513,588.0714584999951,588.0714584999951,None,588.5732302999822,None,k,1,0.6550308000296354,588.5732302999822,None,None,None,,,,,,,,,,,,,,,,,,,,,,,12006,1,2,2024_Jun_13_1748,stroop_task_switching2_b,2021.2.3,59.76246810837527,
,,,黄,blue,j,diamond,color_mix,颜色,,incompatible,2,block_switch1_b,instruction/ready_test.png,instruction/i11.png,,,,,,,,,,,,,,,,,0,0,0,0,0,82,82,82,,,,,,,,,,,,,,,,,,,,,,,,,,,589.2564252000302,589.4584241999546,589.4401132999919,589.7404363000533,589.7404363000533,None,590.2411238000495,None,j,1,1.1871108999475837,590.2411238000495,None,None,None,,,,,,,,,,,,,,,,,,,,,,,12006,1,2,2024_Jun_13_1748,stroop_task_switching2_b,2021.2.3,59.76246810837527,
,,,红,yellow,f,diamond,color_mix,颜色,,incompatible,1,block_switch1_b,instruction/ready_test.png,instruction/i11.png,,,,,,,,,,,,,,,,,0,0,0,0,0,83,83,83,,,,,,,,,,,,,,,,,,,,,,,,,,,591.4604751999723,591.6607291999971,591.6441299000289,591.9438599999994,591.9438599999994,None,592.444571100059,None,f,1,0.8477036999538541,592.444571100059,None,None,None,,,,,,,,,,,,,,,,,,,,,,,12006,1,2,2024_Jun_13_1748,stroop_task_switching2_b,2021.2.3,59.76246810837527,
,,,黄,red,k,diamond,color_mix,颜色,,incompatible,1,block_switch1_b,instruction/ready_test.png,instruction/i11.png,,,,,,,,,,,,,,,,,0,0,0,0,0,84,84,84,,,,,,,,,,,,,,,,,,,,,,,,,,,593.3125031000236,593.5133173000067,593.4967527999543,593.7978988999967,593.7978988999967,None,594.2971848000307,None,k,1,1.9310170999960974,594.2971848000307,None,None,None,,,,,,,,,,,,,,,,,,,,,,,12006,1,2,2024_Jun_13_1748,stroop_task_switching2_b,2021.2.3,59.76246810837527,
,,,蓝,blue,j,square,color_mix,单词,,compatible,2,block_switch1_b,instruction/ready_test.png,instruction/i11.png,,,,,,,,,,,,,,,,,0,0,0,0,0,85,85,85,,,,,,,,,,,,,,,,,,,,,,,,,,,596.2503930999665,596.4514556999784,596.434934400022,596.7350614999887,596.7350614999887,None,597.2360325000482,None,j,1,0.8966147999744862,597.2360325000482,None,None,None,,,,,,,,,,,,,,,,,,,,,,,12006,1,2,2024_Jun_13_1748,stroop_task_switching2_b,2021.2.3,59.76246810837527,
,,,绿,green,d,square,color_mix,单词,,compatible,1,block_switch1_b,instruction/ready_test.png,instruction/i11.png,,,,,,,,,,,,,,,,,0,0,0,0,0,86,86,86,,,,,,,,,,,,,,,,,,,,,,,,,,,598.1530073999893,598.3538465000456,598.3374825000064,598.6392055000179,598.6392055000179,None,599.137926400057,None,d,1,1.2187273999443278,599.137926400057,None,None,None,,,,,,,,,,,,,,,,,,,,,,,12006,1,2,2024_Jun_13_1748,stroop_task_switching2_b,2021.2.3,59.76246810837527,
,,,红,red,k,square,color_mix,单词,,compatible,1,block_switch1_b,instruction/ready_test.png,instruction/i11.png,,,,,,,,,,,,,,,,,0,0,0,0,0,87,87,87,,,,,,,,,,,,,,,,,,,,,,,,,,,600.3729620999657,600.5740819999482,600.556807899964,600.8571738000028,600.8571738000028,None,601.357987800031,None,k,1,1.1909537999890745,601.357987800031,None,None,None,,,,,,,,,,,,,,,,,,,,,,,12006,1,2,2024_Jun_13_1748,stroop_task_switching2_b,2021.2.3,59.76246810837527,
,,,黄,green,d,diamond,color_mix,颜色,,incompatible,2,block_switch1_b,instruction/ready_test.png,instruction/i11.png,,,,,,,,,,,,,,,,,0,0,0,0,0,88,88,88,,,,,,,,,,,,,,,,,,,,,,,,,,,602.576446800027,602.7767493999563,602.7614193999907,603.0611902000383,603.0611902000383,None,603.5621128999628,None,d,1,0.9541706999298185,603.5621128999628,None,None,None,,,,,,,,,,,,,,,,,,,,,,,12006,1,2,2024_Jun_13_1748,stroop_task_switching2_b,2021.2.3,59.76246810837527,
,,,绿,red,d,square,color_mix,单词,,incompatible,2,block_switch1_b,instruction/ready_test.png,instruction/i11.png,,,,,,,,,,,,,,,,,0,0,0,0,0,89,89,89,,,,,,,,,,,,,,,,,,,,,,,,,,,604.5467144000577,604.7472767999861,604.72973859997,605.0301530000288,605.0301530000288,None,605.5310404000338,None,d,1,0.7534794999519363,605.5310404000338,None,None,None,,,,,,,,,,,,,,,,,,,,,,,12006,1,2,2024_Jun_13_1748,stroop_task_switching2_b,2021.2.3,59.76246810837527,
,,,黄,green,f,square,color_mix,单词,,incompatible,1,block_switch1_b,instruction/ready_test.png,instruction/i11.png,,,,,,,,,,,,,,,,,0,0,0,0,0,90,90,90,,,,,,,,,,,,,,,,,,,,,,,,,,,606.3154514000053,606.5168416999513,606.4997936000582,606.8009947000537,606.8009947000537,None,607.3009765000315,None,f,1,1.263252199976705,607.3009765000315,None,None,None,,,,,,,,,,,,,,,,,,,,,,,12006,1,2,2024_Jun_13_1748,stroop_task_switching2_b,2021.2.3,59.76246810837527,
,,,蓝,blue,j,square,color_mix,单词,,compatible,1,block_switch1_b,instruction/ready_test.png,instruction/i11.png,,,,,,,,,,,,,,,,,0,0,0,0,0,91,91,91,,,,,,,,,,,,,,,,,,,,,,,,,,,608.5854150999803,608.7882802999811,608.7690478999866,609.0708196000196,609.0708196000196,None,609.570452600019,None,j,1,0.6344421999529004,609.570452600019,None,None,None,,,,,,,,,,,,,,,,,,,,,,,12006,1,2,2024_Jun_13_1748,stroop_task_switching2_b,2021.2.3,59.76246810837527,
,,,蓝,red,j,square,color_mix,单词,,incompatible,1,block_switch1_b,instruction/ready_test.png,instruction/i11.png,,,,,,,,,,,,,,,,,0,0,0,0,0,92,92,92,,,,,,,,,,,,,,,,,,,,,,,,,,,610.2212801000569,610.4214140999829,610.4058996000094,610.7060625000158,610.7060625000158,None,611.2063354999991,None,j,1,0.6143935000291094,611.2063354999991,None,None,None,,,,,,,,,,,,,,,,,,,,,,,12006,1,2,2024_Jun_13_1748,stroop_task_switching2_b,2021.2.3,59.76246810837527,
,,,黄,blue,f,square,color_mix,单词,,incompatible,1,block_switch1_b,instruction/ready_test.png,instruction/i11.png,,,,,,,,,,,,,,,,,0,0,0,0,0,93,93,93,,,,,,,,,,,,,,,,,,,,,,,,,,,611.840598299983,612.0410164999776,612.0261278999969,612.3419712999603,612.3260885999771,None,612.8253633000422,None,f,1,1.31513849995099,612.8253633000422,None,None,None,,,,,,,,,,,,,,,,,,,,,,,12006,1,2,2024_Jun_13_1748,stroop_task_switching2_b,2021.2.3,59.76246810837527,
,,,绿,red,k,diamond,color_mix,颜色,,incompatible,2,block_switch1_b,instruction/ready_test.png,instruction/i11.png,,,,,,,,,,,,,,,,,0,0,0,0,0,94,94,94,,,,,,,,,,,,,,,,,,,,,,,,,,,614.1605296999915,614.362020200002,614.3442805999657,614.646023600013,614.646023600013,None,615.1454162000446,None,k,1,1.2994901000056416,615.1454162000446,None,None,None,,,,,,,,,,,,,,,,,,,,,,,12006,1,2,2024_Jun_13_1748,stroop_task_switching2_b,2021.2.3,59.76246810837527,
,,,蓝,blue,j,diamond,color_mix,颜色,,compatible,1,block_switch1_b,instruction/ready_test.png,instruction/i11.png,,,,,,,,,,,,,,,,,0,0,0,0,0,95,95,95,,,,,,,,,,,,,,,,,,,,,,,,,,,616.4639675000217,616.6642749999883,616.6481498000212,616.9498130000429,616.9498130000429,None,617.4489838000154,None,j,1,1.3883406000677496,617.4489838000154,None,None,None,,,,,,,,,,,,,,,,,,,,,,,12006,1,2,2024_Jun_13_1748,stroop_task_switching2_b,2021.2.3,59.76246810837527,
,,,绿,green,d,square,color_mix,单词,,compatible,2,block_switch1_b,instruction/ready_test.png,instruction/i11.png,,,,,,,,,,,,,,,,,0,0,0,0,0,96,96,96,,,,,,,,,,,,,,,,,,,,,,,,,,,618.8676869999617,619.0699759999989,619.0513907000422,619.3540777999442,619.3540777999442,None,619.8529599000467,None,d,1,1.7043377999216318,619.8529599000467,None,None,None,,,,,,,,,,,,,,,,,,,,,,,12006,1,2,2024_Jun_13_1748,stroop_task_switching2_b,2021.2.3,59.76246810837527,
,,,,,,,,,,,,block_switch1_b,instruction/ready_test.png,instruction/i11.png,,,,,,,,,,,,,,,,,0,0,0,0,,,,,,,,,,,,,,,,,,,,,,,,,,,,,,,,,,,,,,,,,,,,,,,,,,,,,,,,,,,,621.5717395000393,None,space,1.2976463000522926,621.5717395000393,None,,,12006,1,2,2024_Jun_13_1748,stroop_task_switching2_b,2021.2.3,59.76246810837527,
,,,蓝,blue,j,square,color_mix,单词,,compatible,0,block_switch2_b,instruction/ready_2.png,instruction/i12.png,,,,,,,,,,,,,,,,,0,1,1,1,0,0,0,0,,,,,,,,,,,,,,,,,,,624.793354799971,625.7952804999659,625.7952804999659,626.7974063999718,626.7974063999718,None,623.8083580000093,624.8115186999785,627.8139645999763,628.0147674999898,627.998895799974,628.3005373999476,628.3005373999476,None,628.7992165000178,None,j,1,1.0298600000096485,628.7992165000178,None,None,None,,,,,,,,,622.9069533000002,None,space,0.8825701999012381,622.9069533000002,None,,,,,,,,,12006,1,2,2024_Jun_13_1748,stroop_task_switching2_b,2021.2.3,59.76246810837527,
,,,黄,red,k,diamond,color_mix,颜色,,incompatible,2,block_switch2_b,instruction/ready_2.png,instruction/i12.png,,,,,,,,,,,,,,,,,0,1,1,1,0,1,1,1,,,,,,,,,,,,,,,,,,,,,,,,,,,629.8837187000317,630.0847079999512,630.0345613999525,630.3367873999523,630.3367873999523,None,630.8370452000527,None,k,1,1.4645368000492454,630.8370452000527,None,None,None,,,,,,,,,,,,,,,,,,,,,,,12006,1,2,2024_Jun_13_1748,stroop_task_switching2_b,2021.2.3,59.76246810837527,
,,,蓝,green,d,diamond,color_mix,颜色,,incompatible,1,block_switch2_b,instruction/ready_2.png,instruction/i12.png,,,,,,,,,,,,,,,,,0,1,1,1,0,2,2,2,,,,,,,,,,,,,,,,,,,,,,,,,,,632.3212390999543,632.5217168000527,632.5056487000547,632.8053876999766,632.8053876999766,None,633.3061937999446,None,d,1,0.7709341999143362,633.3061937999446,None,None,None,,,,,,,,,,,,,,,,,,,,,,,12006,1,2,2024_Jun_13_1748,stroop_task_switching2_b,2021.2.3,59.76246810837527,
,,,红,yellow,f,diamond,color_mix,颜色,,incompatible,1,block_switch2_b,instruction/ready_2.png,instruction/i12.png,,,,,,,,,,,,,,,,,0,1,1,1,0,3,3,3,,,,,,,,,,,,,,,,,,,,,,,,,,,634.124362600036,634.3250586000504,634.291294900002,634.5914831999689,634.5914831999689,None,635.0922415000387,None,f,1,1.104894799995236,635.0922415000387,None,None,None,,,,,,,,,,,,,,,,,,,,,,,12006,1,2,2024_Jun_13_1748,stroop_task_switching2_b,2021.2.3,59.76246810837527,
,,,红,red,k,diamond,color_mix,颜色,,compatible,1,block_switch2_b,instruction/ready_2.png,instruction/i12.png,,,,,,,,,,,,,,,,,0,1,1,1,0,4,4,4,,,,,,,,,,,,,,,,,,,,,,,,,,,636.2446792999981,636.4461963999784,636.4115457000444,636.712272600038,636.712272600038,None,637.2120041999733,None,k,1,0.5371750000631437,637.2120041999733,None,None,None,,,,,,,,,,,,,,,,,,,,,,,12006,1,2,2024_Jun_13_1748,stroop_task_switching2_b,2021.2.3,59.76246810837527,
,,,绿,green,d,square,color_mix,单词,,compatible,2,block_switch2_b,instruction/ready_2.png,instruction/i12.png,,,,,,,,,,,,,,,,,0,1,1,1,0,5,5,5,,,,,,,,,,,,,,,,,,,,,,,,,,,637.7965104000177,637.9968700000318,637.9643207000336,638.2642846000381,638.2642846000381,None,638.7652397999773,None,d,1,1.0643330999882892,638.7652397999773,None,None,None,,,,,,,,,,,,,,,,,,,,,,,12006,1,2,2024_Jun_13_1748,stroop_task_switching2_b,2021.2.3,59.76246810837527,
,,,黄,blue,j,diamond,color_mix,颜色,,incompatible,2,block_switch2_b,instruction/ready_2.png,instruction/i12.png,,,,,,,,,,,,,,,,,0,1,1,1,0,6,6,6,,,,,,,,,,,,,,,,,,,,,,,,,,,639.8492519999854,640.0504589000484,640.0332293000538,640.3356377000455,640.3356377000455,None,640.8508964000503,None,j,1,0.9312944000121206,640.8508964000503,None,None,None,,,,,,,,,,,,,,,,,,,,,,,12006,1,2,2024_Jun_13_1748,stroop_task_switching2_b,2021.2.3,59.76246810837527,
,,,绿,yellow,d,square,color_mix,单词,,incompatible,2,block_switch2_b,instruction/ready_2.png,instruction/i12.png,,,,,,,,,,,,,,,,,0,1,1,1,0,7,7,7,,,,,,,,,,,,,,,,,,,,,,,,,,,641.8022171000484,642.0052405999741,641.9864021999529,642.2871898000594,642.2871898000594,None,642.7873631999828,None,d,1,1.1781191000482067,642.7873631999828,None,None,None,,,,,,,,,,,,,,,,,,,,,,,12006,1,2,2024_Jun_13_1748,stroop_task_switching2_b,2021.2.3,59.76246810837527,
