b_pra,ins_blocks,ins_blocks2,stim_word,stim_color,corrAns,cue_type,trial_type,task_type,rand,compatibility,switch,b_test,w_pic,w_pic2,trials_instr.thisRepN,trials_instr.thisTrialN,trials_instr.thisN,trials_instr.thisIndex,block_pra.thisRepN,block_pra.thisTrialN,block_pra.thisN,block_pra.thisIndex,trials_rep.thisRepN,trials_rep.thisTrialN,trials_rep.thisN,trials_rep.thisIndex,trials_pra.thisRepN,trials_pra.thisTrialN,trials_pra.thisN,trials_pra.thisIndex,trials_3.thisRepN,trials_3.thisTrialN,trials_3.thisN,trials_3.thisIndex,trials_2.thisRepN,trials_2.thisTrialN,trials_2.thisN,trials_2.thisIndex,instr_image.started,instr_image.stopped,instr_key_resp.keys,instr_key_resp.rt,instr_key_resp.started,instr_key_resp.stopped,instr_pra_image.started,instr_pra_image.stopped,ip_key_resp.keys,ip_key_resp.rt,ip_key_resp.started,ip_key_resp.stopped,block_image.started,block_image.stopped,ib_key_resp.keys,ib_key_resp.rt,ib_key_resp.started,ib_key_resp.stopped,cd3.started,cd3.stopped,cd2.started,cd2.stopped,cd1.started,cd1.stopped,cd_text.started,cd_text.stopped,text_fix.started,text_fix.stopped,text_2.started,text_2.stopped,text_4.started,text_4.stopped,text_target.started,text_target.stopped,key_resp.keys,key_resp.corr,key_resp.rt,key_resp.started,key_resp.stopped,sceen_black.started,sceen_black.stopped,text_fb.started,text_fb.stopped,text.started,text.stopped,key_bf.keys,key_bf.rt,key_bf.started,key_bf.stopped,instr_test_image.started,instr_test_image.stopped,instr_exp_key_resp.keys,instr_exp_key_resp.rt,instr_exp_key_resp.started,instr_exp_key_resp.stopped,text_rest.started,text_rest.stopped,key_resp_rest.keys,key_resp_rest.rt,key_resp_rest.started,key_resp_rest.stopped,text_3.started,text_3.stopped,participant,session,balance,date,expName,psychopyVersion,frameRate,
,,,,,,,,,,,,,,,0,0,0,0,,,,,,,,,,,,,,,,,,,,,13.921077199978754,None,right,16.6053619000013,13.921077199978754,None,,,,,,,,,,,,,,,,,,,,,,,,,,,,,,,,,,,,,,,,,,,,,,,,,,,,,,,,,,12002,1,2,2024_Jun_02_1821,stroop_task_switching2_b,2021.2.3,59.35059762618678,
,,,,,,,,,,,,,,,1,0,1,0,,,,,,,,,,,,,,,,,,,,,30.61242849996779,None,right,74.68490440002643,30.61242849996779,None,,,,,,,,,,,,,,,,,,,,,,,,,,,,,,,,,,,,,,,,,,,,,,,,,,,,,,,,,,12002,1,2,2024_Jun_02_1821,stroop_task_switching2_b,2021.2.3,59.35059762618678,
,,,,,,,,,,,,,,,2,0,2,0,,,,,,,,,,,,,,,,,,,,,105.39323940000031,None,right,3.1437837000121363,105.39323940000031,None,,,,,,,,,,,,,,,,,,,,,,,,,,,,,,,,,,,,,,,,,,,,,,,,,,,,,,,,,,12002,1,2,2024_Jun_02_1821,stroop_task_switching2_b,2021.2.3,59.35059762618678,
,,,,,,,,,,,,,,,3,0,3,0,,,,,,,,,,,,,,,,,,,,,108.63144109997666,None,right,1.4173928999807686,108.63144109997666,None,,,,,,,,,,,,,,,,,,,,,,,,,,,,,,,,,,,,,,,,,,,,,,,,,,,,,,,,,,12002,1,2,2024_Jun_02_1821,stroop_task_switching2_b,2021.2.3,59.35059762618678,
,,,,,,,,,,,,,,,4,0,4,0,,,,,,,,,,,,,,,,,,,,,110.13254959997721,None,right,2.628621000039857,110.13254959997721,None,,,,,,,,,,,,,,,,,,,,,,,,,,,,,,,,,,,,,,,,,,,,,,,,,,,,,,,,,,12002,1,2,2024_Jun_02_1821,stroop_task_switching2_b,2021.2.3,59.35059762618678,
,,,,,,,,,,,,,,,5,0,5,0,,,,,,,,,,,,,,,,,,,,,112.80274770001415,None,right,1.1264475000207312,112.80274770001415,None,,,,,,,,,,,,,,,,,,,,,,,,,,,,,,,,,,,,,,,,,,,,,,,,,,,,,,,,,,12002,1,2,2024_Jun_02_1821,stroop_task_switching2_b,2021.2.3,59.35059762618678,
,,,,,,,,,,,,,,,,,,,,,,,,,,,,,,,,,,,,,,,,,,,,,113.97353919997113,None,space,3.387367199989967,113.97353919997113,None,,,,,,,,,,,,,,,,,,,,,,,,,,,,,,,,,,,,,,,,,,,,,,,,,,,,12002,1,2,2024_Jun_02_1821,stroop_task_switching2_b,2021.2.3,59.35059762618678,
condition/block_color_b,instruction/instr_color,instruction/i8_b,XX,red,k,diamond,color_single,颜色,,,,,,,,,,,0,0,0,0,0,0,0,0,0,0,0,0,,,,,,,,,,,,,,,,,,,,,117.4437850000104,None,space,3.496938400028739,117.4437850000104,None,122.05105299997376,123.05283830000553,123.05283830000553,124.05465399997775,124.05465399997775,None,121.08371470001293,122.08437409996986,125.0394304000074,125.23898640001426,125.22292359999847,125.52329619997181,125.52329619997181,None,125.97387839999283,None,k,1,1.339147699996829,125.97387839999283,None,None,None,127.44346019998193,None,,,,,,,,,,,,,,,,,,,,,12002,1,2,2024_Jun_02_1821,stroop_task_switching2_b,2021.2.3,59.35059762618678,
condition/block_color_b,instruction/instr_color,instruction/i8_b,XX,green,d,diamond,color_single,颜色,,,,,,,,,,,0,0,0,0,0,0,0,0,0,1,1,1,,,,,,,,,,,,,,,,,,,,,,,,,,,,,,,,,,,128.444179299986,128.64401360001648,128.62761460000183,128.92855830001645,128.92855830001645,None,129.42882999998983,None,d,1,0.5242360000265762,129.42882999998983,None,None,None,129.97898279997753,None,,,,,,,,,,,,,,,,,,,,,12002,1,2,2024_Jun_02_1821,stroop_task_switching2_b,2021.2.3,59.35059762618678,
condition/block_color_b,instruction/instr_color,instruction/i8_b,XX,yellow,f,diamond,color_single,颜色,,,,,,,,,,,0,0,0,0,0,0,0,0,0,2,2,2,,,,,,,,,,,,,,,,,,,,,,,,,,,,,,,,,,,130.9816553000128,131.18117499997607,131.16485379997175,131.46571159997256,131.46571159997256,None,131.9664574000053,None,f,1,0.6350627000210807,131.9664574000053,None,None,None,132.61602730001323,None,,,,,,,,,,,,,,,,,,,,,12002,1,2,2024_Jun_02_1821,stroop_task_switching2_b,2021.2.3,59.35059762618678,
condition/block_color_b,instruction/instr_color,instruction/i8_b,XX,blue,j,diamond,color_single,颜色,,,,,,,,,,,0,0,0,0,0,0,0,0,0,3,3,3,,,,,,,,,,,,,,,,,,,,,,,,,,,,,,,,,,,133.61884999996983,133.81886820000364,133.8024823999731,134.10311109997565,134.10311109997565,None,134.60351699998137,None,j,1,0.3416782999993302,134.60351699998137,None,None,None,134.96972079999978,None,,,,,,,,,,,,,,,,,,,,,12002,1,2,2024_Jun_02_1821,stroop_task_switching2_b,2021.2.3,59.35059762618678,
condition/block_color_b,instruction/instr_color,instruction/i8_b,XX,green,d,diamond,color_single,颜色,,,,,,,,,,,0,0,0,0,0,0,0,0,0,4,4,4,,,,,,,,,,,,,,,,,,,,,,,,,,,,,,,,,,,135.97223229997326,136.17245060001733,136.1558864999679,136.4566820000182,136.4566820000182,None,136.95697709999513,None,d,1,0.6762920999899507,136.95697709999513,None,None,None,137.65720899996813,None,,,,,,,,,,,,,,,,,,,,,12002,1,2,2024_Jun_02_1821,stroop_task_switching2_b,2021.2.3,59.35059762618678,
condition/block_color_b,instruction/instr_color,instruction/i8_b,XX,yellow,f,diamond,color_single,颜色,,,,,,,,,,,0,0,0,0,0,0,0,0,0,5,5,5,,,,,,,,,,,,,,,,,,,,,,,,,,,,,,,,,,,138.65979190001963,138.8601719000144,138.84338139998727,139.1437318000244,139.1437318000244,None,139.6444442999782,None,f,1,0.5649596999865025,139.6444442999782,None,None,None,140.22749219997786,None,,,,,,,,,,,,,,,,,,,,,12002,1,2,2024_Jun_02_1821,stroop_task_switching2_b,2021.2.3,59.35059762618678,
condition/block_color_b,instruction/instr_color,instruction/i8_b,XX,blue,j,diamond,color_single,颜色,,,,,,,,,,,0,0,0,0,0,0,0,0,0,6,6,6,,,,,,,,,,,,,,,,,,,,,,,,,,,,,,,,,,,141.22921820002375,141.43078860000242,141.4139297999791,141.71423949999735,141.71423949999735,None,142.21492609998677,None,j,1,0.3706088999751955,142.21492609998677,None,None,None,142.63152150000678,None,,,,,,,,,,,,,,,,,,,,,12002,1,2,2024_Jun_02_1821,stroop_task_switching2_b,2021.2.3,59.35059762618678,
condition/block_color_b,instruction/instr_color,instruction/i8_b,XX,red,k,diamond,color_single,颜色,,,,,,,,,,,0,0,0,0,0,0,0,0,0,7,7,7,,,,,,,,,,,,,,,,,,,,,,,,,,,,,,,,,,,143.6334650000208,143.83411250001518,143.81705740001053,144.11772239999846,144.11772239999846,None,144.6178020000225,None,k,1,0.4241148000000976,144.6178020000225,None,None,None,145.06816409999738,None,,,,,,,,,,,,,,,,,,,,,12002,1,2,2024_Jun_02_1821,stroop_task_switching2_b,2021.2.3,59.35059762618678,
condition/block_color_b,instruction/instr_color,instruction/i8_b,XX,yellow,f,diamond,color_single,颜色,,,,,,,,,,,0,0,0,0,0,0,0,0,0,8,8,8,,,,,,,,,,,,,,,,,,,,,,,,,,,,,,,,,,,146.07069829996908,146.27129659999628,146.2563235000125,146.5712443999946,146.55495169997448,None,147.05533750000177,None,f,1,0.7382616000249982,147.05533750000177,None,None,None,147.83946569997352,None,,,,,,,,,,,,,,,,,,,,,12002,1,2,2024_Jun_02_1821,stroop_task_switching2_b,2021.2.3,59.35059762618678,
condition/block_color_b,instruction/instr_color,instruction/i8_b,XX,blue,j,diamond,color_single,颜色,,,,,,,,,,,0,0,0,0,0,0,0,0,0,9,9,9,,,,,,,,,,,,,,,,,,,,,,,,,,,,,,,,,,,148.84162239998113,149.04204929998377,149.02544320002198,149.3259473000071,149.3259473000071,None,149.82643050001934,None,j,1,0.5519095999770798,149.82643050001934,None,None,None,150.39296680002008,None,,,,,,,,,,,,,,,,,,,,,12002,1,2,2024_Jun_02_1821,stroop_task_switching2_b,2021.2.3,59.35059762618678,
condition/block_color_b,instruction/instr_color,instruction/i8_b,XX,red,k,diamond,color_single,颜色,,,,,,,,,,,0,0,0,0,0,0,0,0,0,10,10,10,,,,,,,,,,,,,,,,,,,,,,,,,,,,,,,,,,,151.39562419999857,151.59580900002038,151.57897059997777,151.87979269999778,151.87979269999778,None,152.38042250002036,None,k,1,0.5180333000025712,152.38042250002036,None,None,None,152.91340499999933,None,,,,,,,,,,,,,,,,,,,,,12002,1,2,2024_Jun_02_1821,stroop_task_switching2_b,2021.2.3,59.35059762618678,
condition/block_color_b,instruction/instr_color,instruction/i8_b,XX,green,d,diamond,color_single,颜色,,,,,,,,,,,0,0,0,0,0,0,0,0,0,11,11,11,,,,,,,,,,,,,,,,,,,,,,,,,,,,,,,,,,,153.9162573000067,154.117139399983,154.09863169997698,154.40005509997718,154.40005509997718,None,154.90082069998607,None,d,1,0.741502600023523,154.90082069998607,None,None,None,155.66780479997396,None,,,,,,,,,,,,,,,,,,,,,12002,1,2,2024_Jun_02_1821,stroop_task_switching2_b,2021.2.3,59.35059762618678,
condition/block_color_b,instruction/instr_color,instruction/i8_b,XX,blue,j,diamond,color_single,颜色,,,,,,,,,,,0,0,0,0,0,0,0,0,0,12,12,12,,,,,,,,,,,,,,,,,,,,,,,,,,,,,,,,,,,156.66946870001266,156.87009420001414,156.85350309999194,157.1540595999686,157.1540595999686,None,157.65497490001144,None,j,1,0.554930400045123,157.65497490001144,None,None,None,158.25528159999521,None,,,,,,,,,,,,,,,,,,,,,12002,1,2,2024_Jun_02_1821,stroop_task_switching2_b,2021.2.3,59.35059762618678,
condition/block_color_b,instruction/instr_color,instruction/i8_b,XX,red,k,diamond,color_single,颜色,,,,,,,,,,,0,0,0,0,0,0,0,0,0,13,13,13,,,,,,,,,,,,,,,,,,,,,,,,,,,,,,,,,,,159.25635520002106,159.45733279996784,159.4400437999866,159.74150850001024,159.7248649999965,None,160.22492930002045,None,k,1,0.3850351999863051,160.22492930002045,None,None,None,160.62523559998954,None,,,,,,,,,,,,,,,,,,,,,12002,1,2,2024_Jun_02_1821,stroop_task_switching2_b,2021.2.3,59.35059762618678,
condition/block_color_b,instruction/instr_color,instruction/i8_b,XX,green,d,diamond,color_single,颜色,,,,,,,,,,,0,0,0,0,0,0,0,0,0,14,14,14,,,,,,,,,,,,,,,,,,,,,,,,,,,,,,,,,,,161.62714499997674,161.8278266999987,161.8108744000201,162.1113323000027,162.1113323000027,None,162.6121299000224,None,d,1,0.4536049999878742,162.6121299000224,None,None,None,163.11256109998794,None,,,,,,,,,,,,,,,,,,,,,12002,1,2,2024_Jun_02_1821,stroop_task_switching2_b,2021.2.3,59.35059762618678,
condition/block_color_b,instruction/instr_color,instruction/i8_b,XX,yellow,f,diamond,color_single,颜色,,,,,,,,,,,0,0,0,0,0,0,0,0,0,15,15,15,,,,,,,,,,,,,,,,,,,,,,,,,,,,,,,,,,,164.1136594999698,164.3148385999957,164.2981989000109,164.59873570001218,164.59873570001218,None,165.09916659997543,None,f,1,0.3835452999919653,165.09916659997543,None,None,None,165.49913180002477,None,,,,,,,,,,,,,,,,,,,,,12002,1,2,2024_Jun_02_1821,stroop_task_switching2_b,2021.2.3,59.35059762618678,
condition/block_color_b,instruction/instr_color,instruction/i8_b,XX,red,k,diamond,color_single,颜色,,,,,,,,,,,0,0,0,0,0,0,0,0,0,16,16,16,,,,,,,,,,,,,,,,,,,,,,,,,,,,,,,,,,,166.5015306000132,166.70201100001577,166.68534889997682,166.98475439997856,166.98475439997856,None,167.48680169996805,None,k,1,0.6837045999709517,167.48680169996805,None,None,None,168.186485800019,None,,,,,,,,,,,,,,,,,,,,,12002,1,2,2024_Jun_02_1821,stroop_task_switching2_b,2021.2.3,59.35059762618678,
condition/block_color_b,instruction/instr_color,instruction/i8_b,XX,green,d,diamond,color_single,颜色,,,,,,,,,,,0,0,0,0,0,0,0,0,0,17,17,17,,,,,,,,,,,,,,,,,,,,,,,,,,,,,,,,,,,169.1890652999864,169.38951910001924,169.37267700000666,169.67332950001583,169.67332950001583,None,170.17391750001116,None,d,1,0.41246760002104566,170.17391750001116,None,None,None,170.6068475000211,None,,,,,,,,,,,,,,,,,,,,,12002,1,2,2024_Jun_02_1821,stroop_task_switching2_b,2021.2.3,59.35059762618678,
condition/block_color_b,instruction/instr_color,instruction/i8_b,XX,yellow,f,diamond,color_single,颜色,,,,,,,,,,,0,0,0,0,0,0,0,0,0,18,18,18,,,,,,,,,,,,,,,,,,,,,,,,,,,,,,,,,,,171.60902759997407,171.8097430000198,171.7929920000024,172.09343080001418,172.09343080001418,None,172.59351749997586,None,f,1,0.5047317999997176,172.59351749997586,None,None,None,173.14431619999232,None,,,,,,,,,,,,,,,,,,,,,12002,1,2,2024_Jun_02_1821,stroop_task_switching2_b,2021.2.3,59.35059762618678,
condition/block_color_b,instruction/instr_color,instruction/i8_b,XX,blue,j,diamond,color_single,颜色,,,,,,,,,,,0,0,0,0,0,0,0,0,0,19,19,19,,,,,,,,,,,,,,,,,,,,,,,,,,,,,,,,,,,174.12887740001315,174.32999729999574,174.31342279998353,174.6157746000099,174.6157746000099,None,175.13019170000916,None,j,1,0.5120851999963634,175.13019170000916,None,None,None,175.66522809996968,None,,,,,,,,,,,,,,,,,,,,,12002,1,2,2024_Jun_02_1821,stroop_task_switching2_b,2021.2.3,59.35059762618678,
condition/block_color_b,instruction/instr_color,instruction/i8_b,XX,green,d,diamond,color_single,颜色,,,,,,,,,,,0,0,0,0,0,0,0,0,0,20,20,20,,,,,,,,,,,,,,,,,,,,,,,,,,,,,,,,,,,176.666965899989,176.8672434000182,176.84985170001164,177.15097600000445,177.15097600000445,None,177.65182039997308,None,d,1,0.6229438000009395,177.65182039997308,None,None,None,178.30220149998786,None,,,,,,,,,,,,,,,,,,,,,12002,1,2,2024_Jun_02_1821,stroop_task_switching2_b,2021.2.3,59.35059762618678,
condition/block_color_b,instruction/instr_color,instruction/i8_b,XX,yellow,f,diamond,color_single,颜色,,,,,,,,,,,0,0,0,0,0,0,0,0,0,21,21,21,,,,,,,,,,,,,,,,,,,,,,,,,,,,,,,,,,,179.30411460000323,179.50461250002263,179.4877215999877,179.7883178999764,179.7883178999764,None,180.28853839996736,None,f,1,0.5140666000079364,180.28853839996736,None,None,None,180.82329410000239,None,,,,,,,,,,,,,,,,,,,,,12002,1,2,2024_Jun_02_1821,stroop_task_switching2_b,2021.2.3,59.35059762618678,
condition/block_color_b,instruction/instr_color,instruction/i8_b,XX,blue,j,diamond,color_single,颜色,,,,,,,,,,,0,0,0,0,0,0,0,0,0,22,22,22,,,,,,,,,,,,,,,,,,,,,,,,,,,,,,,,,,,181.8247837999952,182.0250967000029,182.00815930002136,182.30891809996683,182.30891809996683,None,182.80954190000193,None,j,1,0.40147790004266426,182.80954190000193,None,None,None,183.22644120000768,None,,,,,,,,,,,,,,,,,,,,,12002,1,2,2024_Jun_02_1821,stroop_task_switching2_b,2021.2.3,59.35059762618678,
condition/block_color_b,instruction/instr_color,instruction/i8_b,XX,red,k,diamond,color_single,颜色,,,,,,,,,,,0,0,0,0,0,0,0,0,0,23,23,23,,,,,,,,,,,,,,,,,,,,,,,,,,,,,,,,,,,184.22803679999197,184.42884539999068,184.41204119997565,184.7126491999952,184.7126491999952,None,185.21308090002276,None,k,1,0.42969919997267425,185.21308090002276,None,None,None,185.66287589998683,None,,,,,,,,,,,,,,,,,,,,,12002,1,2,2024_Jun_02_1821,stroop_task_switching2_b,2021.2.3,59.35059762618678,
condition/block_color_b,instruction/instr_color,instruction/i8_b,,,,,,,,,,,,,,,,,0,0,0,0,0,0,0,0,,,,,,,,,,,,,,,,,,,,,,,,,,,,,,,,,,,,,,,,,,,,,,,,,,,,,,,,186.6807241999777,None,space,3.3334192999755032,186.6807241999777,None,,,,,,,,,,,,,,,12002,1,2,2024_Jun_02_1821,stroop_task_switching2_b,2021.2.3,59.35059762618678,
condition/block_color_b,instruction/instr_color,instruction/i8_b,,,,,,,,,,,,,,,,,0,0,0,0,,,,,,,,,,,,,,,,,,,,,,,,,,,,,,,,,,,,,,,,,,,,,,,,,,,,,,,,,,,,,,,,,,,,,,,,,,,,,,,,12002,1,2,2024_Jun_02_1821,stroop_task_switching2_b,2021.2.3,59.35059762618678,
condition/block_word_b,instruction/instr_word,instruction/i9_b,黄,white,f,square,word_single,单词,0.0032461461866890584,,,,,,,,,,0,1,1,1,0,0,0,0,0,0,0,0,,,,,,,,,,,,,,,,,,,,,190.10284050001064,None,space,6.263502899964806,190.10284050001064,None,197.39836779999314,198.39968849997967,198.39968849997967,199.40095089998795,199.40095089998795,None,196.4135122000007,197.41492160002235,200.47001450002426,200.66948560002493,200.65328620001674,200.95338560000528,200.95338560000528,None,201.4043698000023,None,f,1,0.5585786000010557,201.4043698000023,None,None,None,202.02098239999032,None,,,,,,,,,,,,,,,,,,,,,12002,1,2,2024_Jun_02_1821,stroop_task_switching2_b,2021.2.3,59.35059762618678,
condition/block_word_b,instruction/instr_word,instruction/i9_b,蓝,white,j,square,word_single,单词,0.060540570646362424,,,,,,,,,,0,1,1,1,0,0,0,0,0,1,1,1,,,,,,,,,,,,,,,,,,,,,,,,,,,,,,,,,,,203.00653090002015,203.20684449997498,203.1901961999829,203.49076519999653,203.49076519999653,None,203.99133799999254,None,j,1,1.3478068000404164,203.99133799999254,None,None,None,205.3594363000011,None,,,,,,,,,,,,,,,,,,,,,12002,1,2,2024_Jun_02_1821,stroop_task_switching2_b,2021.2.3,59.35059762618678,
condition/block_word_b,instruction/instr_word,instruction/i9_b,黄,white,f,square,word_single,单词,0.06994067193778963,,,,,,,,,,0,1,1,1,0,0,0,0,0,2,2,2,,,,,,,,,,,,,,,,,,,,,,,,,,,,,,,,,,,206.36191109998617,206.56224300002214,206.5454696000088,206.84578079998028,206.84578079998028,None,207.34659370000008,None,f,1,0.9765264000161551,207.34659370000008,None,None,None,208.3470084000146,None,,,,,,,,,,,,,,,,,,,,,12002,1,2,2024_Jun_02_1821,stroop_task_switching2_b,2021.2.3,59.35059762618678,
condition/block_word_b,instruction/instr_word,instruction/i9_b,蓝,white,j,square,word_single,单词,0.08193765152950094,,,,,,,,,,0,1,1,1,0,0,0,0,0,3,3,3,,,,,,,,,,,,,,,,,,,,,,,,,,,,,,,,,,,209.3486811000039,209.54897130001336,209.53219609998632,209.83314699999755,209.83314699999755,None,210.3343802000163,None,j,1,0.5414332000073045,210.3343802000163,None,None,None,210.90082779998193,None,,,,,,,,,,,,,,,,,,,,,12002,1,2,2024_Jun_02_1821,stroop_task_switching2_b,2021.2.3,59.35059762618678,
condition/block_word_b,instruction/instr_word,instruction/i9_b,红,white,k,square,word_single,单词,0.1279694370605574,,,,,,,,,,0,1,1,1,0,0,0,0,0,4,4,4,,,,,,,,,,,,,,,,,,,,,,,,,,,,,,,,,,,211.9031026000157,212.10339489998296,212.08667250000872,212.38757349998923,212.38757349998923,None,212.88808699999936,None,k,1,0.37913539999863133,212.88808699999936,None,None,None,213.28762979997555,None,,,,,,,,,,,,,,,,,,,,,12002,1,2,2024_Jun_02_1821,stroop_task_switching2_b,2021.2.3,59.35059762618678,
condition/block_word_b,instruction/instr_word,instruction/i9_b,红,white,k,square,word_single,单词,0.18345028784879092,,,,,,,,,,0,1,1,1,0,0,0,0,0,5,5,5,,,,,,,,,,,,,,,,,,,,,,,,,,,,,,,,,,,214.2903481000103,214.49045410001418,214.47394050000003,214.77465679997113,214.77465679997113,None,215.2743546999991,None,k,1,0.553189400001429,215.2743546999991,None,None,None,215.8585432000109,None,,,,,,,,,,,,,,,,,,,,,12002,1,2,2024_Jun_02_1821,stroop_task_switching2_b,2021.2.3,59.35059762618678,
condition/block_word_b,instruction/instr_word,instruction/i9_b,蓝,white,j,square,word_single,单词,0.19920386223101294,,,,,,,,,,0,1,1,1,0,0,0,0,0,6,6,6,,,,,,,,,,,,,,,,,,,,,,,,,,,,,,,,,,,216.86096339998767,217.06128460000036,217.04433529998641,217.34488370001782,217.34488370001782,None,217.84530990000349,None,j,1,0.7427507999818772,217.84530990000349,None,None,None,218.61246719997143,None,,,,,,,,,,,,,,,,,,,,,12002,1,2,2024_Jun_02_1821,stroop_task_switching2_b,2021.2.3,59.35059762618678,
condition/block_word_b,instruction/instr_word,instruction/i9_b,蓝,white,j,square,word_single,单词,0.26360599864925405,,,,,,,,,,0,1,1,1,0,0,0,0,0,7,7,7,,,,,,,,,,,,,,,,,,,,,,,,,,,,,,,,,,,219.61504389997572,219.81515829998534,219.79855289997067,220.09920090000378,220.09920090000378,None,220.59989730000962,None,j,1,0.5556363000068814,220.59989730000962,None,None,None,221.18292140000267,None,,,,,,,,,,,,,,,,,,,,,12002,1,2,2024_Jun_02_1821,stroop_task_switching2_b,2021.2.3,59.35059762618678,
condition/block_word_b,instruction/instr_word,instruction/i9_b,蓝,white,j,square,word_single,单词,0.358985675745526,,,,,,,,,,0,1,1,1,0,0,0,0,0,8,8,8,,,,,,,,,,,,,,,,,,,,,,,,,,,,,,,,,,,222.18558089999715,222.3859295999864,222.3690117999795,222.66981799999485,222.66981799999485,None,223.17034289997537,None,j,1,0.5136237999540754,223.17034289997537,None,None,None,223.703708200017,None,,,,,,,,,,,,,,,,,,,,,12002,1,2,2024_Jun_02_1821,stroop_task_switching2_b,2021.2.3,59.35059762618678,
condition/block_word_b,instruction/instr_word,instruction/i9_b,绿,white,d,square,word_single,单词,0.36496733802487347,,,,,,,,,,0,1,1,1,0,0,0,0,0,9,9,9,,,,,,,,,,,,,,,,,,,,,,,,,,,,,,,,,,,224.7058819999802,224.90684409998357,224.8899437999935,225.19010659999913,225.19010659999913,None,225.69100709998747,None,d,1,0.4085009000264108,225.69100709998747,None,None,None,226.12356889998773,None,,,,,,,,,,,,,,,,,,,,,12002,1,2,2024_Jun_02_1821,stroop_task_switching2_b,2021.2.3,59.35059762618678,
condition/block_word_b,instruction/instr_word,instruction/i9_b,黄,white,f,square,word_single,单词,0.3743513623756727,,,,,,,,,,0,1,1,1,0,0,0,0,0,10,10,10,,,,,,,,,,,,,,,,,,,,,,,,,,,,,,,,,,,227.12640940002166,227.3266540999757,227.30984850000823,227.6101869000122,227.6101869000122,None,228.11032809998142,None,f,1,0.469356500019785,228.11032809998142,None,None,None,228.59417220001342,None,,,,,,,,,,,,,,,,,,,,,12002,1,2,2024_Jun_02_1821,stroop_task_switching2_b,2021.2.3,59.35059762618678,
condition/block_word_b,instruction/instr_word,instruction/i9_b,红,white,k,square,word_single,单词,0.3894803852598544,,,,,,,,,,0,1,1,1,0,0,0,0,0,11,11,11,,,,,,,,,,,,,,,,,,,,,,,,,,,,,,,,,,,229.59660380001878,229.79715629998827,229.7804380999878,230.08078570000362,230.08078570000362,None,230.5812163000228,None,k,1,0.46295489999465644,230.5812163000228,None,None,None,231.06470420002006,None,,,,,,,,,,,,,,,,,,,,,12002,1,2,2024_Jun_02_1821,stroop_task_switching2_b,2021.2.3,59.35059762618678,
condition/block_word_b,instruction/instr_word,instruction/i9_b,绿,white,d,square,word_single,单词,0.5393759672408067,,,,,,,,,,0,1,1,1,0,0,0,0,0,12,12,12,,,,,,,,,,,,,,,,,,,,,,,,,,,,,,,,,,,232.06721780000953,232.26663979998557,232.25004409998655,232.55090779997408,232.55090779997408,None,233.0519578999956,None,d,1,0.8396853000158444,233.0519578999956,None,None,None,233.9361074999906,None,,,,,,,,,,,,,,,,,,,,,12002,1,2,2024_Jun_02_1821,stroop_task_switching2_b,2021.2.3,59.35059762618678,
condition/block_word_b,instruction/instr_word,instruction/i9_b,蓝,white,j,square,word_single,单词,0.5995731954831104,,,,,,,,,,0,1,1,1,0,0,0,0,0,13,13,13,,,,,,,,,,,,,,,,,,,,,,,,,,,,,,,,,,,234.93833500001347,235.13851149997208,235.12167500000214,235.42233179998584,235.42233179998584,None,235.9227753999876,None,f,0,0.3690375000005588,235.9227753999876,None,None,None,236.3055792999803,None,,,,,,,,,,,,,,,,,,,,,12002,1,2,2024_Jun_02_1821,stroop_task_switching2_b,2021.2.3,59.35059762618678,
condition/block_word_b,instruction/instr_word,instruction/i9_b,红,white,k,square,word_single,单词,0.6298674479151414,,,,,,,,,,0,1,1,1,0,0,0,0,0,14,14,14,,,,,,,,,,,,,,,,,,,,,,,,,,,,,,,,,,,237.30847340001492,237.50883220002288,237.49184329999844,237.7915542999981,237.7915542999981,None,238.2933918000199,None,k,1,0.5512790000066161,238.2933918000199,None,None,None,238.8596213000128,None,,,,,,,,,,,,,,,,,,,,,12002,1,2,2024_Jun_02_1821,stroop_task_switching2_b,2021.2.3,59.35059762618678,
condition/block_word_b,instruction/instr_word,instruction/i9_b,红,white,k,square,word_single,单词,0.7389942282348904,,,,,,,,,,0,1,1,1,0,0,0,0,0,15,15,15,,,,,,,,,,,,,,,,,,,,,,,,,,,,,,,,,,,239.8619888999965,240.06243459996767,240.04597629996715,240.34597600001143,240.34597600001143,None,240.84673759998986,None,k,1,0.5814417999936268,240.84673759998986,None,None,None,241.44705080002313,None,,,,,,,,,,,,,,,,,,,,,12002,1,2,2024_Jun_02_1821,stroop_task_switching2_b,2021.2.3,59.35059762618678,
condition/block_word_b,instruction/instr_word,instruction/i9_b,绿,white,d,square,word_single,单词,0.7550853947239682,,,,,,,,,,0,1,1,1,0,0,0,0,0,16,16,16,,,,,,,,,,,,,,,,,,,,,,,,,,,,,,,,,,,242.44934420002392,242.64988280000398,242.63299630000256,242.93349680001847,242.93349680001847,None,243.4346970000188,None,d,1,0.5855104000074789,243.4346970000188,None,None,None,244.06810949998908,None,,,,,,,,,,,,,,,,,,,,,12002,1,2,2024_Jun_02_1821,stroop_task_switching2_b,2021.2.3,59.35059762618678,
condition/block_word_b,instruction/instr_word,instruction/i9_b,绿,white,d,square,word_single,单词,0.8019302780428206,,,,,,,,,,0,1,1,1,0,0,0,0,0,17,17,17,,,,,,,,,,,,,,,,,,,,,,,,,,,,,,,,,,,245.07052259997,245.2871619000216,245.2527592999977,245.5539451999939,245.5539451999939,None,246.05479049996939,None,d,1,0.6454838000354357,246.05479049996939,None,None,None,246.72156939998968,None,,,,,,,,,,,,,,,,,,,,,12002,1,2,2024_Jun_02_1821,stroop_task_switching2_b,2021.2.3,59.35059762618678,
condition/block_word_b,instruction/instr_word,instruction/i9_b,绿,white,d,square,word_single,单词,0.8110702914095343,,,,,,,,,,0,1,1,1,0,0,0,0,0,18,18,18,,,,,,,,,,,,,,,,,,,,,,,,,,,,,,,,,,,247.7238077999791,247.92445210000733,247.9077793000033,248.20782569999574,248.20782569999574,None,248.70839739998337,None,d,1,0.5520035999943502,248.70839739998337,None,None,None,249.2762389999698,None,,,,,,,,,,,,,,,,,,,,,12002,1,2,2024_Jun_02_1821,stroop_task_switching2_b,2021.2.3,59.35059762618678,
condition/block_word_b,instruction/instr_word,instruction/i9_b,黄,white,f,square,word_single,单词,0.8176594937590999,,,,,,,,,,0,1,1,1,0,0,0,0,0,19,19,19,,,,,,,,,,,,,,,,,,,,,,,,,,,,,,,,,,,250.27802759996848,250.4773564999923,250.46172129997285,250.76174380001612,250.76174380001612,None,251.26181429997087,None,f,1,0.422686799953226,251.26181429997087,None,None,None,251.71338650002144,None,,,,,,,,,,,,,,,,,,,,,12002,1,2,2024_Jun_02_1821,stroop_task_switching2_b,2021.2.3,59.35059762618678,
condition/block_word_b,instruction/instr_word,instruction/i9_b,红,white,k,square,word_single,单词,0.8955794421104841,,,,,,,,,,0,1,1,1,0,0,0,0,0,20,20,20,,,,,,,,,,,,,,,,,,,,,,,,,,,,,,,,,,,252.7149101999821,252.91536809998797,252.89856960001634,253.19880499999272,253.19880499999272,None,253.7001563999802,None,k,1,0.5202408999903128,253.7001563999802,None,None,None,254.24961210001493,None,,,,,,,,,,,,,,,,,,,,,12002,1,2,2024_Jun_02_1821,stroop_task_switching2_b,2021.2.3,59.35059762618678,
condition/block_word_b,instruction/instr_word,instruction/i9_b,绿,white,d,square,word_single,单词,0.9113598052474129,,,,,,,,,,0,1,1,1,0,0,0,0,0,21,21,21,,,,,,,,,,,,,,,,,,,,,,,,,,,,,,,,,,,255.25125769997248,255.45212640002137,255.43578200001502,255.73551179998321,255.73551179998321,None,256.23583540000254,None,d,1,0.6727776000043377,256.23583540000254,None,None,None,256.93779659998836,None,,,,,,,,,,,,,,,,,,,,,12002,1,2,2024_Jun_02_1821,stroop_task_switching2_b,2021.2.3,59.35059762618678,
condition/block_word_b,instruction/instr_word,instruction/i9_b,黄,white,f,square,word_single,单词,0.9215930958042953,,,,,,,,,,0,1,1,1,0,0,0,0,0,22,22,22,,,,,,,,,,,,,,,,,,,,,,,,,,,,,,,,,,,257.9395566000021,258.1396250000107,258.12315699999453,258.423728499969,258.423728499969,None,258.92433999996865,None,f,1,0.5921344999806024,258.92433999996865,None,None,None,259.54198290000204,None,,,,,,,,,,,,,,,,,,,,,12002,1,2,2024_Jun_02_1821,stroop_task_switching2_b,2021.2.3,59.35059762618678,
condition/block_word_b,instruction/instr_word,instruction/i9_b,黄,white,f,square,word_single,单词,0.9493525498837774,,,,,,,,,,0,1,1,1,0,0,0,0,0,23,23,23,,,,,,,,,,,,,,,,,,,,,,,,,,,,,,,,,,,260.54356730001746,260.7433224999695,260.72701440000674,261.027675899968,261.027675899968,None,261.5280988999875,None,f,1,0.6768234000192024,261.5280988999875,None,None,None,262.22899979999056,None,,,,,,,,,,,,,,,,,,,,,12002,1,2,2024_Jun_02_1821,stroop_task_switching2_b,2021.2.3,59.35059762618678,
condition/block_word_b,instruction/instr_word,instruction/i9_b,,,,,,,,,,,,,,,,,0,1,1,1,0,0,0,0,,,,,,,,,,,,,,,,,,,,,,,,,,,,,,,,,,,,,,,,,,,,,,,,,,,,,,,,263.2469750000164,None,space,3.1054236000054516,263.2469750000164,None,,,,,,,,,,,,,,,12002,1,2,2024_Jun_02_1821,stroop_task_switching2_b,2021.2.3,59.35059762618678,
condition/block_word_b,instruction/instr_word,instruction/i9_b,,,,,,,,,,,,,,,,,0,1,1,1,,,,,,,,,,,,,,,,,,,,,,,,,,,,,,,,,,,,,,,,,,,,,,,,,,,,,,,,,,,,,,,,,,,,,,,,,,,,,,,,12002,1,2,2024_Jun_02_1821,stroop_task_switching2_b,2021.2.3,59.35059762618678,
condition/block_mixed_b,instruction/instr_mixed,instruction/i10_b,蓝,red,k,diamond,color_mix,颜色,,incompatible,0,,,,,,,,0,2,2,2,0,0,0,0,0,0,0,0,,,,,,,,,,,,,,,,,,,,,266.40261869999813,None,space,21.411698999989312,266.40261869999813,None,288.8363095999812,289.83780139999,289.83780139999,290.83875409996836,290.83875409996836,None,287.8512933999882,288.8527420000173,291.9070742999902,292.1076488000108,292.0908608000027,292.39124169998104,292.39124169998104,None,292.84201590000885,None,k,1,0.8033205000101589,292.84201590000885,None,None,None,293.7094716000138,None,,,,,,,,,,,,,,,,,,,,,12002,1,2,2024_Jun_02_1821,stroop_task_switching2_b,2021.2.3,59.35059762618678,
condition/block_mixed_b,instruction/instr_mixed,instruction/i10_b,绿,yellow,f,diamond,color_mix,颜色,,incompatible,1,,,,,,,,0,2,2,2,0,0,0,0,0,1,1,1,,,,,,,,,,,,,,,,,,,,,,,,,,,,,,,,,,,294.7116946000024,294.91195510001853,294.8954711999977,295.1953528000158,295.1953528000158,None,295.69639930000994,None,d,0,1.6291682999581099,295.69639930000994,None,None,None,297.3479411000153,None,,,,,,,,,,,,,,,,,,,,,12002,1,2,2024_Jun_02_1821,stroop_task_switching2_b,2021.2.3,59.35059762618678,
condition/block_mixed_b,instruction/instr_mixed,instruction/i10_b,红,green,d,diamond,color_mix,颜色,,incompatible,1,,,,,,,,0,2,2,2,0,0,0,0,0,2,2,2,,,,,,,,,,,,,,,,,,,,,,,,,,,,,,,,,,,298.35026099998504,298.5509105999954,298.5338454999728,298.8344512999756,298.8344512999756,None,299.3354083999875,None,d,1,0.7823849999695085,299.3354083999875,None,None,None,300.1355966000119,None,,,,,,,,,,,,,,,,,,,,,12002,1,2,2024_Jun_02_1821,stroop_task_switching2_b,2021.2.3,59.35059762618678,
condition/block_mixed_b,instruction/instr_mixed,instruction/i10_b,蓝,red,k,diamond,color_mix,颜色,,incompatible,1,,,,,,,,0,2,2,2,0,0,0,0,0,3,3,3,,,,,,,,,,,,,,,,,,,,,,,,,,,,,,,,,,,301.13793259998783,301.33845969999675,301.32170919998316,301.6220826000208,301.6220826000208,None,302.1227792999707,None,k,1,0.8269618999911472,302.1227792999707,None,None,None,302.97303539997665,None,,,,,,,,,,,,,,,,,,,,,12002,1,2,2024_Jun_02_1821,stroop_task_switching2_b,2021.2.3,59.35059762618678,
condition/block_mixed_b,instruction/instr_mixed,instruction/i10_b,红,blue,j,diamond,color_mix,颜色,,incompatible,1,,,,,,,,0,2,2,2,0,0,0,0,0,4,4,4,,,,,,,,,,,,,,,,,,,,,,,,,,,,,,,,,,,303.97540529997787,304.1759585000109,304.1592179000145,304.45979150000494,304.45979150000494,None,304.96040209999774,None,j,1,0.6054413000238128,304.96040209999774,None,None,None,305.6109734000056,None,,,,,,,,,,,,,,,,,,,,,12002,1,2,2024_Jun_02_1821,stroop_task_switching2_b,2021.2.3,59.35059762618678,
condition/block_mixed_b,instruction/instr_mixed,instruction/i10_b,红,blue,k,square,color_mix,单词,,incompatible,2,,,,,,,,0,2,2,2,0,0,0,0,0,5,5,5,,,,,,,,,,,,,,,,,,,,,,,,,,,,,,,,,,,306.6126699000015,306.8133633999969,306.79643789998954,307.0967310999986,307.0967310999986,None,307.59720389998984,None,k,1,0.4887457999866456,307.59720389998984,None,None,None,308.1308779999963,None,,,,,,,,,,,,,,,,,,,,,12002,1,2,2024_Jun_02_1821,stroop_task_switching2_b,2021.2.3,59.35059762618678,
condition/block_mixed_b,instruction/instr_mixed,instruction/i10_b,红,yellow,f,diamond,color_mix,颜色,,incompatible,2,,,,,,,,0,2,2,2,0,0,0,0,0,6,6,6,,,,,,,,,,,,,,,,,,,,,,,,,,,,,,,,,,,309.13325169996824,309.3335216999985,309.31837270001415,309.6164456999977,309.6164456999977,None,310.1179129999946,None,f,1,0.5360609000199474,310.1179129999946,None,None,None,310.70183540001744,None,,,,,,,,,,,,,,,,,,,,,12002,1,2,2024_Jun_02_1821,stroop_task_switching2_b,2021.2.3,59.35059762618678,
condition/block_mixed_b,instruction/instr_mixed,instruction/i10_b,红,yellow,k,square,color_mix,单词,,incompatible,2,,,,,,,,0,2,2,2,0,0,0,0,0,7,7,7,,,,,,,,,,,,,,,,,,,,,,,,,,,,,,,,,,,311.70406610000646,311.9042563000112,311.8875634999713,312.1882091999869,312.1882091999869,None,312.6881713999901,None,f,0,0.6938248000224121,312.6881713999901,None,None,None,313.40546330000507,None,,,,,,,,,,,,,,,,,,,,,12002,1,2,2024_Jun_02_1821,stroop_task_switching2_b,2021.2.3,59.35059762618678,
condition/block_mixed_b,instruction/instr_mixed,instruction/i10_b,绿,blue,d,square,color_mix,单词,,incompatible,1,,,,,,,,0,2,2,2,0,0,0,0,0,8,8,8,,,,,,,,,,,,,,,,,,,,,,,,,,,,,,,,,,,314.40806689998135,314.6082535000169,314.59161719999975,314.89199540001573,314.89199540001573,None,315.39277769997716,None,j,0,1.1418735000188462,315.39277769997716,None,None,None,316.56022639997536,None,,,,,,,,,,,,,,,,,,,,,12002,1,2,2024_Jun_02_1821,stroop_task_switching2_b,2021.2.3,59.35059762618678,
condition/block_mixed_b,instruction/instr_mixed,instruction/i10_b,蓝,green,d,diamond,color_mix,颜色,,incompatible,2,,,,,,,,0,2,2,2,0,0,0,0,0,9,9,9,,,,,,,,,,,,,,,,,,,,,,,,,,,,,,,,,,,317.56230920000235,317.7631549999933,317.7454336999799,318.04635949997464,318.04635949997464,None,318.54765550000593,None,d,1,1.0187822000007145,318.54765550000593,None,None,None,319.5990823999746,None,,,,,,,,,,,,,,,,,,,,,12002,1,2,2024_Jun_02_1821,stroop_task_switching2_b,2021.2.3,59.35059762618678,
condition/block_mixed_b,instruction/instr_mixed,instruction/i10_b,蓝,yellow,j,square,color_mix,单词,,incompatible,2,,,,,,,,0,2,2,2,0,0,0,0,0,10,10,10,,,,,,,,,,,,,,,,,,,,,,,,,,,,,,,,,,,320.60073369997554,320.8011046000174,320.78434790001484,321.08442849997664,321.08442849997664,None,321.5854324999964,None,f,0,1.741192699992098,321.5854324999964,None,None,None,323.35370819998207,None,,,,,,,,,,,,,,,,,,,,,12002,1,2,2024_Jun_02_1821,stroop_task_switching2_b,2021.2.3,59.35059762618678,
condition/block_mixed_b,instruction/instr_mixed,instruction/i10_b,蓝,green,j,square,color_mix,单词,,incompatible,1,,,,,,,,0,2,2,2,0,0,0,0,0,11,11,11,,,,,,,,,,,,,,,,,,,,,,,,,,,,,,,,,,,324.3564215999795,324.55661249998957,324.53927269997075,324.8406379999942,324.8406379999942,None,325.3411484999815,None,j,1,1.0814242999767885,325.3411484999815,None,None,None,326.44171009998536,None,,,,,,,,,,,,,,,,,,,,,12002,1,2,2024_Jun_02_1821,stroop_task_switching2_b,2021.2.3,59.35059762618678,
condition/block_mixed_b,instruction/instr_mixed,instruction/i10_b,绿,yellow,d,square,color_mix,单词,,incompatible,1,,,,,,,,0,2,2,2,0,0,0,0,0,12,12,12,,,,,,,,,,,,,,,,,,,,,,,,,,,,,,,,,,,327.4443302999716,327.64412000001175,327.6277852000203,327.9286243999959,327.9286243999959,None,328.4291933000204,None,d,1,0.969251099973917,328.4291933000204,None,None,None,329.41281299997354,None,,,,,,,,,,,,,,,,,,,,,12002,1,2,2024_Jun_02_1821,stroop_task_switching2_b,2021.2.3,59.35059762618678,
condition/block_mixed_b,instruction/instr_mixed,instruction/i10_b,绿,blue,j,diamond,color_mix,颜色,,incompatible,2,,,,,,,,0,2,2,2,0,0,0,0,0,13,13,13,,,,,,,,,,,,,,,,,,,,,,,,,,,,,,,,,,,330.4156261999742,330.61495999997715,330.599034200015,330.9000242999755,330.9000242999755,None,331.4005299999844,None,j,1,1.1505802999599837,331.4005299999844,None,None,None,332.56776750000427,None,,,,,,,,,,,,,,,,,,,,,12002,1,2,2024_Jun_02_1821,stroop_task_switching2_b,2021.2.3,59.35059762618678,
condition/block_mixed_b,instruction/instr_mixed,instruction/i10_b,黄,red,f,square,color_mix,单词,,incompatible,2,,,,,,,,0,2,2,2,0,0,0,0,0,14,14,14,,,,,,,,,,,,,,,,,,,,,,,,,,,,,,,,,,,333.56990750000114,333.7705751999747,333.7532945999992,334.054241899983,334.054241899983,None,334.55484310002066,None,f,1,1.764536600036081,334.55484310002066,None,None,None,336.3399500999949,None,,,,,,,,,,,,,,,,,,,,,12002,1,2,2024_Jun_02_1821,stroop_task_switching2_b,2021.2.3,59.35059762618678,
condition/block_mixed_b,instruction/instr_mixed,instruction/i10_b,蓝,yellow,f,diamond,color_mix,颜色,,incompatible,2,,,,,,,,0,2,2,2,0,0,0,0,0,15,15,15,,,,,,,,,,,,,,,,,,,,,,,,,,,,,,,,,,,337.3420484000235,337.5420633999747,337.5252440000186,337.8267630999908,337.8267630999908,None,338.32735699997284,None,j,0,2.1521002000081353,338.32735699997284,None,None,None,340.49622530001216,None,,,,,,,,,,,,,,,,,,,,,12002,1,2,2024_Jun_02_1821,stroop_task_switching2_b,2021.2.3,59.35059762618678,
condition/block_mixed_b,instruction/instr_mixed,instruction/i10_b,黄,red,k,diamond,color_mix,颜色,,incompatible,1,,,,,,,,0,2,2,2,0,0,0,0,0,16,16,16,,,,,,,,,,,,,,,,,,,,,,,,,,,,,,,,,,,341.4987928000046,341.6985519999871,341.6825130999787,341.98421419999795,341.98421419999795,None,342.4834827000159,None,k,1,2.1553930999943987,342.4834827000159,None,None,None,344.6861121999682,None,,,,,,,,,,,,,,,,,,,,,12002,1,2,2024_Jun_02_1821,stroop_task_switching2_b,2021.2.3,59.35059762618678,
condition/block_mixed_b,instruction/instr_mixed,instruction/i10_b,绿,red,d,square,color_mix,单词,,incompatible,2,,,,,,,,0,2,2,2,0,0,0,0,0,17,17,17,,,,,,,,,,,,,,,,,,,,,,,,,,,,,,,,,,,345.68858499999624,345.8886988000013,345.87182679999387,346.1723746000207,346.1723746000207,None,346.6730501999846,None,j,0,1.5099528999999166,346.6730501999846,None,None,None,348.20766469999216,None,,,,,,,,,,,,,,,,,,,,,12002,1,2,2024_Jun_02_1821,stroop_task_switching2_b,2021.2.3,59.35059762618678,
condition/block_mixed_b,instruction/instr_mixed,instruction/i10_b,红,green,k,square,color_mix,单词,,incompatible,1,,,,,,,,0,2,2,2,0,0,0,0,0,18,18,18,,,,,,,,,,,,,,,,,,,,,,,,,,,,,,,,,,,349.21055209997576,349.4104109000182,349.39348089997657,349.69370030000573,349.69370030000573,None,350.1952945999801,None,k,1,1.4367789000389166,350.1952945999801,None,None,None,351.64682339999126,None,,,,,,,,,,,,,,,,,,,,,12002,1,2,2024_Jun_02_1821,stroop_task_switching2_b,2021.2.3,59.35059762618678,
condition/block_mixed_b,instruction/instr_mixed,instruction/i10_b,黄,blue,j,diamond,color_mix,颜色,,incompatible,2,,,,,,,,0,2,2,2,0,0,0,0,0,19,19,19,,,,,,,,,,,,,,,,,,,,,,,,,,,,,,,,,,,352.6490172999911,352.84934219997376,352.8326219000155,353.1330264999997,353.1330264999997,None,353.63414899999043,None,j,1,1.701479899988044,353.63414899999043,None,None,None,355.3529297999921,None,,,,,,,,,,,,,,,,,,,,,12002,1,2,2024_Jun_02_1821,stroop_task_switching2_b,2021.2.3,59.35059762618678,
condition/block_mixed_b,instruction/instr_mixed,instruction/i10_b,黄,green,d,diamond,color_mix,颜色,,incompatible,1,,,,,,,,0,2,2,2,0,0,0,0,0,20,20,20,,,,,,,,,,,,,,,,,,,,,,,,,,,,,,,,,,,356.35468729998684,356.55403589998605,356.5371424999903,356.8386488999822,356.8386488999822,None,357.3393855000031,None,k,0,0.724668400012888,357.3393855000031,None,None,None,358.08961979998276,None,,,,,,,,,,,,,,,,,,,,,12002,1,2,2024_Jun_02_1821,stroop_task_switching2_b,2021.2.3,59.35059762618678,
condition/block_mixed_b,instruction/instr_mixed,instruction/i10_b,黄,green,f,square,color_mix,单词,,incompatible,2,,,,,,,,0,2,2,2,0,0,0,0,0,21,21,21,,,,,,,,,,,,,,,,,,,,,,,,,,,,,,,,,,,359.0931798000238,359.3080385000212,359.2753591000219,359.5762001000112,359.5762001000112,None,360.07677719998173,None,j,0,1.386659600015264,360.07677719998173,None,None,None,361.4782624000218,None,,,,,,,,,,,,,,,,,,,,,12002,1,2,2024_Jun_02_1821,stroop_task_switching2_b,2021.2.3,59.35059762618678,
condition/block_mixed_b,instruction/instr_mixed,instruction/i10_b,黄,blue,f,square,color_mix,单词,,incompatible,1,,,,,,,,0,2,2,2,0,0,0,0,0,22,22,22,,,,,,,,,,,,,,,,,,,,,,,,,,,,,,,,,,,362.48023579997243,362.68073740002,362.66431929997634,362.9637827000115,362.9637827000115,None,363.46509979997063,None,f,1,1.286642400023993,363.46509979997063,None,None,None,364.7665836000233,None,,,,,,,,,,,,,,,,,,,,,12002,1,2,2024_Jun_02_1821,stroop_task_switching2_b,2021.2.3,59.35059762618678,
condition/block_mixed_b,instruction/instr_mixed,instruction/i10_b,蓝,red,j,square,color_mix,单词,,incompatible,1,,,,,,,,0,2,2,2,0,0,0,0,0,23,23,23,,,,,,,,,,,,,,,,,,,,,,,,,,,,,,,,,,,365.7683336000191,365.96854189998703,365.9519058999722,366.25226109998766,366.25226109998766,None,366.7535107000149,None,j,1,1.590099100023508,366.7535107000149,None,None,None,368.37271269998746,None,,,,,,,,,,,,,,,,,,,,,12002,1,2,2024_Jun_02_1821,stroop_task_switching2_b,2021.2.3,59.35059762618678,
condition/block_mixed_b,instruction/instr_mixed,instruction/i10_b,绿,red,k,diamond,color_mix,颜色,,incompatible,2,,,,,,,,0,2,2,2,0,0,0,0,0,24,24,24,,,,,,,,,,,,,,,,,,,,,,,,,,,,,,,,,,,369.3742437000037,369.57457330002217,369.5578986000037,369.85839950002264,369.85839950002264,None,370.35907090001274,None,k,1,1.0407930999645032,370.35907090001274,None,None,None,371.4261920999852,None,,,,,,,,,,,,,,,,,,,,,12002,1,2,2024_Jun_02_1821,stroop_task_switching2_b,2021.2.3,59.35059762618678,
condition/block_mixed_b,instruction/instr_mixed,instruction/i10_b,绿,green,d,diamond,color_mix,颜色,,compatible,1,,,,,,,,0,2,2,2,0,0,0,0,0,25,25,25,,,,,,,,,,,,,,,,,,,,,,,,,,,,,,,,,,,372.4289674999891,372.6291213000077,372.6125443999772,372.91279689996736,372.91279689996736,None,373.4131151000038,None,d,1,0.9626079000299796,373.4131151000038,None,None,None,374.39791529998183,None,,,,,,,,,,,,,,,,,,,,,12002,1,2,2024_Jun_02_1821,stroop_task_switching2_b,2021.2.3,59.35059762618678,
condition/block_mixed_b,instruction/instr_mixed,instruction/i10_b,蓝,blue,j,diamond,color_mix,颜色,,compatible,1,,,,,,,,0,2,2,2,0,0,0,0,0,26,26,26,,,,,,,,,,,,,,,,,,,,,,,,,,,,,,,,,,,375.39975219999906,375.6000598000246,375.58318820002023,375.8839568999829,375.8839568999829,None,376.3850253999699,None,j,1,1.4786597000202164,376.3850253999699,None,None,None,377.88606659998186,None,,,,,,,,,,,,,,,,,,,,,12002,1,2,2024_Jun_02_1821,stroop_task_switching2_b,2021.2.3,59.35059762618678,
condition/block_mixed_b,instruction/instr_mixed,instruction/i10_b,绿,green,d,square,color_mix,单词,,compatible,2,,,,,,,,0,2,2,2,0,0,0,0,0,27,27,27,,,,,,,,,,,,,,,,,,,,,,,,,,,,,,,,,,,378.8883780000033,379.0890297999722,379.0720818999689,379.3722364999703,379.3722364999703,None,379.8732988999691,None,d,1,1.1905693999724463,379.8732988999691,None,None,None,381.09182370000053,None,,,,,,,,,,,,,,,,,,,,,12002,1,2,2024_Jun_02_1821,stroop_task_switching2_b,2021.2.3,59.35059762618678,
condition/block_mixed_b,instruction/instr_mixed,instruction/i10_b,绿,green,d,square,color_mix,单词,,compatible,1,,,,,,,,0,2,2,2,0,0,0,0,0,28,28,28,,,,,,,,,,,,,,,,,,,,,,,,,,,,,,,,,,,382.09247149998555,382.29367829998955,382.2769908999908,382.57751660002396,382.57751660002396,None,383.07806739996886,None,d,1,0.6659394000307657,383.07806739996886,None,None,None,383.7615462000249,None,,,,,,,,,,,,,,,,,,,,,12002,1,2,2024_Jun_02_1821,stroop_task_switching2_b,2021.2.3,59.35059762618678,
condition/block_mixed_b,instruction/instr_mixed,instruction/i10_b,蓝,blue,j,square,color_mix,单词,,compatible,1,,,,,,,,0,2,2,2,0,0,0,0,0,29,29,29,,,,,,,,,,,,,,,,,,,,,,,,,,,,,,,,,,,384.76418220001506,384.96448630001396,384.9477714999812,385.249389900011,385.249389900011,None,385.74857900000643,None,j,1,1.4838943000067957,385.74857900000643,None,None,None,387.2504672000068,None,,,,,,,,,,,,,,,,,,,,,12002,1,2,2024_Jun_02_1821,stroop_task_switching2_b,2021.2.3,59.35059762618678,
condition/block_mixed_b,instruction/instr_mixed,instruction/i10_b,黄,yellow,f,diamond,color_mix,颜色,,compatible,2,,,,,,,,0,2,2,2,0,0,0,0,0,30,30,30,,,,,,,,,,,,,,,,,,,,,,,,,,,,,,,,,,,388.2527844000142,388.4529979000217,388.4363747999887,388.736280800018,388.736280800018,None,389.2378504999797,None,f,1,0.9781527000013739,389.2378504999797,None,None,None,390.2381407999783,None,,,,,,,,,,,,,,,,,,,,,12002,1,2,2024_Jun_02_1821,stroop_task_switching2_b,2021.2.3,59.35059762618678,
condition/block_mixed_b,instruction/instr_mixed,instruction/i10_b,绿,green,d,square,color_mix,单词,,compatible,2,,,,,,,,0,2,2,2,0,0,0,0,0,31,31,31,,,,,,,,,,,,,,,,,,,,,,,,,,,,,,,,,,,391.24006999999983,391.44037329999264,391.4243209999986,391.72424309997587,391.72424309997587,None,392.22468659997685,None,d,1,1.1275089000118896,392.22468659997685,None,None,None,393.3771062999731,None,,,,,,,,,,,,,,,,,,,,,12002,1,2,2024_Jun_02_1821,stroop_task_switching2_b,2021.2.3,59.35059762618678,
condition/block_mixed_b,instruction/instr_mixed,instruction/i10_b,黄,yellow,f,square,color_mix,单词,,compatible,1,,,,,,,,0,2,2,2,0,0,0,0,0,32,32,32,,,,,,,,,,,,,,,,,,,,,,,,,,,,,,,,,,,394.37836590001825,394.57841830002144,394.56205639999826,394.8631246999721,394.8631246999721,None,395.3633314999752,None,f,1,1.1812989999889396,395.3633314999752,None,None,None,396.5642851999728,None,,,,,,,,,,,,,,,,,,,,,12002,1,2,2024_Jun_02_1821,stroop_task_switching2_b,2021.2.3,59.35059762618678,
condition/block_mixed_b,instruction/instr_mixed,instruction/i10_b,绿,green,d,diamond,color_mix,颜色,,compatible,2,,,,,,,,0,2,2,2,0,0,0,0,0,33,33,33,,,,,,,,,,,,,,,,,,,,,,,,,,,,,,,,,,,397.5666623999714,397.76674489997094,397.7503756000078,398.05044760002056,398.05044760002056,None,398.551671299967,None,d,1,1.0330674999859184,398.551671299967,None,None,None,399.60288859996945,None,,,,,,,,,,,,,,,,,,,,,12002,1,2,2024_Jun_02_1821,stroop_task_switching2_b,2021.2.3,59.35059762618678,
condition/block_mixed_b,instruction/instr_mixed,instruction/i10_b,红,red,k,square,color_mix,单词,,compatible,2,,,,,,,,0,2,2,2,0,0,0,0,0,34,34,34,,,,,,,,,,,,,,,,,,,,,,,,,,,,,,,,,,,400.60502199997427,400.8049346000189,400.78850610001246,401.0884352999856,401.0884352999856,None,401.58970519999275,None,k,1,1.0107241999940015,401.58970519999275,None,None,None,402.62390000000596,None,,,,,,,,,,,,,,,,,,,,,12002,1,2,2024_Jun_02_1821,stroop_task_switching2_b,2021.2.3,59.35059762618678,
condition/block_mixed_b,instruction/instr_mixed,instruction/i10_b,黄,yellow,f,square,color_mix,单词,,compatible,1,,,,,,,,0,2,2,2,0,0,0,0,0,35,35,35,,,,,,,,,,,,,,,,,,,,,,,,,,,,,,,,,,,403.62542499997653,403.82526329997927,403.8094017999829,404.11027469998226,404.11027469998226,None,404.6100580000202,None,f,1,0.6943843999761157,404.6100580000202,None,None,None,405.32736469997326,None,,,,,,,,,,,,,,,,,,,,,12002,1,2,2024_Jun_02_1821,stroop_task_switching2_b,2021.2.3,59.35059762618678,
condition/block_mixed_b,instruction/instr_mixed,instruction/i10_b,绿,green,d,diamond,color_mix,颜色,,compatible,2,,,,,,,,0,2,2,2,0,0,0,0,0,36,36,36,,,,,,,,,,,,,,,,,,,,,,,,,,,,,,,,,,,406.329909699969,406.5303496000124,406.5134757999913,406.8130802999949,406.8130802999949,None,407.31364269996993,None,d,1,1.6949960999772884,407.31364269996993,None,None,None,409.0330921999994,None,,,,,,,,,,,,,,,,,,,,,12002,1,2,2024_Jun_02_1821,stroop_task_switching2_b,2021.2.3,59.35059762618678,
condition/block_mixed_b,instruction/instr_mixed,instruction/i10_b,蓝,blue,j,square,color_mix,单词,,compatible,2,,,,,,,,0,2,2,2,0,0,0,0,0,37,37,37,,,,,,,,,,,,,,,,,,,,,,,,,,,,,,,,,,,410.03532429999905,410.2355837000068,410.2191192000173,410.51955749996705,410.51955749996705,None,411.02031449996866,None,j,1,1.0692580999457277,411.02031449996866,None,None,None,412.1047580000013,None,,,,,,,,,,,,,,,,,,,,,12002,1,2,2024_Jun_02_1821,stroop_task_switching2_b,2021.2.3,59.35059762618678,
condition/block_mixed_b,instruction/instr_mixed,instruction/i10_b,红,red,k,square,color_mix,单词,,compatible,1,,,,,,,,0,2,2,2,0,0,0,0,0,38,38,38,,,,,,,,,,,,,,,,,,,,,,,,,,,,,,,,,,,413.10668640001677,413.30634940002346,413.2900053000194,413.59093030000804,413.59093030000804,None,414.09152459999314,None,k,1,0.6136869000038132,414.09152459999314,None,None,None,414.72616339998785,None,,,,,,,,,,,,,,,,,,,,,12002,1,2,2024_Jun_02_1821,stroop_task_switching2_b,2021.2.3,59.35059762618678,
condition/block_mixed_b,instruction/instr_mixed,instruction/i10_b,黄,yellow,f,diamond,color_mix,颜色,,compatible,2,,,,,,,,0,2,2,2,0,0,0,0,0,39,39,39,,,,,,,,,,,,,,,,,,,,,,,,,,,,,,,,,,,415.7274454999715,415.928021300002,415.9111143000191,416.211339499976,416.211339499976,None,416.71123329998227,None,f,1,0.5456997000146657,416.71123329998227,None,None,None,417.2791452999809,None,,,,,,,,,,,,,,,,,,,,,12002,1,2,2024_Jun_02_1821,stroop_task_switching2_b,2021.2.3,59.35059762618678,
condition/block_mixed_b,instruction/instr_mixed,instruction/i10_b,黄,yellow,f,square,color_mix,单词,,compatible,2,,,,,,,,0,2,2,2,0,0,0,0,0,40,40,40,,,,,,,,,,,,,,,,,,,,,,,,,,,,,,,,,,,418.2807698000106,418.48164219997125,418.46509800001513,418.76512910000747,418.76512910000747,None,419.26620159996673,None,f,1,0.5752215999527834,419.26620159996673,None,None,None,419.8669809999992,None,,,,,,,,,,,,,,,,,,,,,12002,1,2,2024_Jun_02_1821,stroop_task_switching2_b,2021.2.3,59.35059762618678,
condition/block_mixed_b,instruction/instr_mixed,instruction/i10_b,蓝,blue,j,square,color_mix,单词,,compatible,1,,,,,,,,0,2,2,2,0,0,0,0,0,41,41,41,,,,,,,,,,,,,,,,,,,,,,,,,,,,,,,,,,,420.8685714000021,421.06890620000195,421.0521108999965,421.3521548999706,421.3521548999706,None,421.85297060001176,None,j,1,0.8439825999666937,421.85297060001176,None,None,None,422.72135140001774,None,,,,,,,,,,,,,,,,,,,,,12002,1,2,2024_Jun_02_1821,stroop_task_switching2_b,2021.2.3,59.35059762618678,
condition/block_mixed_b,instruction/instr_mixed,instruction/i10_b,蓝,blue,j,diamond,color_mix,颜色,,compatible,2,,,,,,,,0,2,2,2,0,0,0,0,0,42,42,42,,,,,,,,,,,,,,,,,,,,,,,,,,,,,,,,,,,423.7230284999823,423.9230811999878,423.90679789998103,424.2068105000071,424.2068105000071,None,424.7076225000201,None,j,1,0.7579389000311494,424.7076225000201,None,None,None,425.4915726999752,None,,,,,,,,,,,,,,,,,,,,,12002,1,2,2024_Jun_02_1821,stroop_task_switching2_b,2021.2.3,59.35059762618678,
condition/block_mixed_b,instruction/instr_mixed,instruction/i10_b,黄,yellow,f,diamond,color_mix,颜色,,compatible,1,,,,,,,,0,2,2,2,0,0,0,0,0,43,43,43,,,,,,,,,,,,,,,,,,,,,,,,,,,,,,,,,,,426.4936301999842,426.6931303999736,426.6764691999997,426.97723560000304,426.97723560000304,None,427.47847999999067,None,f,1,0.5867606999818236,427.47847999999067,None,None,None,428.0963740000152,None,,,,,,,,,,,,,,,,,,,,,12002,1,2,2024_Jun_02_1821,stroop_task_switching2_b,2021.2.3,59.35059762618678,
condition/block_mixed_b,instruction/instr_mixed,instruction/i10_b,红,red,k,diamond,color_mix,颜色,,compatible,1,,,,,,,,0,2,2,2,0,0,0,0,0,44,44,44,,,,,,,,,,,,,,,,,,,,,,,,,,,,,,,,,,,429.0974104999914,429.29788550001103,429.2812918999698,429.581180499983,429.581180499983,None,430.0824735999922,None,k,1,0.6946361000300385,430.0824735999922,None,None,None,430.7991419999744,None,,,,,,,,,,,,,,,,,,,,,12002,1,2,2024_Jun_02_1821,stroop_task_switching2_b,2021.2.3,59.35059762618678,
condition/block_mixed_b,instruction/instr_mixed,instruction/i10_b,蓝,blue,j,diamond,color_mix,颜色,,compatible,1,,,,,,,,0,2,2,2,0,0,0,0,0,45,45,45,,,,,,,,,,,,,,,,,,,,,,,,,,,,,,,,,,,431.80166569998255,432.0019455999718,431.9852648000233,432.2854211999802,432.2854211999802,None,432.78652839997085,None,j,1,0.646789800026454,432.78652839997085,None,None,None,433.4537262999802,None,,,,,,,,,,,,,,,,,,,,,12002,1,2,2024_Jun_02_1821,stroop_task_switching2_b,2021.2.3,59.35059762618678,
condition/block_mixed_b,instruction/instr_mixed,instruction/i10_b,红,red,k,diamond,color_mix,颜色,,compatible,1,,,,,,,,0,2,2,2,0,0,0,0,0,46,46,46,,,,,,,,,,,,,,,,,,,,,,,,,,,,,,,,,,,434.4556942000054,434.65596349997213,434.6390607000212,434.93892179999966,434.93892179999966,None,435.44007650000276,None,k,1,0.5533312000334263,435.44007650000276,None,None,None,436.0069376999745,None,,,,,,,,,,,,,,,,,,,,,12002,1,2,2024_Jun_02_1821,stroop_task_switching2_b,2021.2.3,59.35059762618678,
condition/block_mixed_b,instruction/instr_mixed,instruction/i10_b,红,red,k,square,color_mix,单词,,compatible,2,,,,,,,,0,2,2,2,0,0,0,0,0,47,47,47,,,,,,,,,,,,,,,,,,,,,,,,,,,,,,,,,,,437.0091506000026,437.20983359997626,437.1931284000166,437.4936153999879,437.4936153999879,None,437.99438370001735,None,k,1,0.5835735999862663,437.99438370001735,None,None,None,438.594145399984,None,,,,,,,,,,,,,,,,,,,,,12002,1,2,2024_Jun_02_1821,stroop_task_switching2_b,2021.2.3,59.35059762618678,
condition/block_mixed_b,instruction/instr_mixed,instruction/i10_b,红,red,k,diamond,color_mix,颜色,,compatible,2,,,,,,,,0,2,2,2,0,0,0,0,0,48,48,48,,,,,,,,,,,,,,,,,,,,,,,,,,,,,,,,,,,439.59657749999315,439.797043700004,439.7803922999883,440.080492899986,440.080492899986,None,440.5817240999895,None,k,1,0.5400879000080749,440.5817240999895,None,None,None,441.1486217000056,None,,,,,,,,,,,,,,,,,,,,,12002,1,2,2024_Jun_02_1821,stroop_task_switching2_b,2021.2.3,59.35059762618678,
condition/block_mixed_b,instruction/instr_mixed,instruction/i10_b,,,,,,,,,,,,,,,,,0,2,2,2,0,0,0,0,,,,,,,,,,,,,,,,,,,,,,,,,,,,,,,,,,,,,,,,,,,,,,,,,,,,,,,,442.1675274000154,None,space,3.066074500035029,442.1675274000154,None,,,,,,,,,,,,,,,12002,1,2,2024_Jun_02_1821,stroop_task_switching2_b,2021.2.3,59.35059762618678,
condition/block_mixed_b,instruction/instr_mixed,instruction/i10_b,,,,,,,,,,,,,,,,,0,2,2,2,,,,,,,,,,,,,,,,,,,,,,,,,,,,,,,,,,,,,,,,,,,,,,,,,,,,,,,,,,,,,,,,,,,,,,,,,,,,,,,,12002,1,2,2024_Jun_02_1821,stroop_task_switching2_b,2021.2.3,59.35059762618678,
,,,红,red,k,square,color_mix,单词,,compatible,0,block_switch1_b,instruction/ready_test.png,instruction/i11.png,,,,,,,,,,,,,,,,,0,0,0,0,0,0,0,0,,,,,,,,,,,,,,,,,,,460.06001949997153,461.0620603999705,461.0620603999705,462.06386310001835,462.06386310001835,None,459.07568249996984,460.0782230999903,463.1322841999936,463.33229890000075,463.3155607000226,463.6162989999866,463.6162989999866,None,464.0833268999704,None,k,1,0.4635924000176601,464.0833268999704,None,None,None,,,,,,,,,445.2876418000087,None,space,13.76228619995527,445.2876418000087,None,,,,,,,,,12002,1,2,2024_Jun_02_1821,stroop_task_switching2_b,2021.2.3,59.35059762618678,
,,,绿,green,d,diamond,color_mix,颜色,,compatible,2,block_switch1_b,instruction/ready_test.png,instruction/i11.png,,,,,,,,,,,,,,,,,0,0,0,0,0,1,1,1,,,,,,,,,,,,,,,,,,,,,,,,,,,464.59985529998085,464.8014502999722,464.75107489997754,465.05116169998655,465.05116169998655,None,465.5526197999716,None,d,1,0.6580022000125609,465.5526197999716,None,None,None,,,,,,,,,,,,,,,,,,,,,,,12002,1,2,2024_Jun_02_1821,stroop_task_switching2_b,2021.2.3,59.35059762618678,
,,,绿,yellow,f,diamond,color_mix,颜色,,incompatible,1,block_switch1_b,instruction/ready_test.png,instruction/i11.png,,,,,,,,,,,,,,,,,0,0,0,0,0,2,2,2,,,,,,,,,,,,,,,,,,,,,,,,,,,466.2360098999925,466.43706159997964,466.4199481999967,466.72131559997797,466.72131559997797,None,467.22175289998995,None,d,0,0.6131067999522202,467.22175289998995,None,None,None,,,,,,,,,,,,,,,,,,,,,,,12002,1,2,2024_Jun_02_1821,stroop_task_switching2_b,2021.2.3,59.35059762618678,
,,,蓝,blue,j,diamond,color_mix,颜色,,compatible,1,block_switch1_b,instruction/ready_test.png,instruction/i11.png,,,,,,,,,,,,,,,,,0,0,0,0,0,3,3,3,,,,,,,,,,,,,,,,,,,,,,,,,,,467.8549701999873,468.0558462999761,468.0395091000246,468.34036390000256,468.34036390000256,None,468.84084489999805,None,d,0,1.1055722999735735,468.84084489999805,None,None,None,,,,,,,,,,,,,,,,,,,,,,,12002,1,2,2024_Jun_02_1821,stroop_task_switching2_b,2021.2.3,59.35059762618678,
,,,绿,green,d,square,color_mix,单词,,compatible,2,block_switch1_b,instruction/ready_test.png,instruction/i11.png,,,,,,,,,,,,,,,,,0,0,0,0,0,4,4,4,,,,,,,,,,,,,,,,,,,,,,,,,,,469.992237199971,470.19277039996814,470.1584967999952,470.4600922000245,470.4600922000245,None,470.96056969999336,None,d,1,1.3864119999925606,470.96056969999336,None,None,None,,,,,,,,,,,,,,,,,,,,,,,12002,1,2,2024_Jun_02_1821,stroop_task_switching2_b,2021.2.3,59.35059762618678,
,,,绿,blue,j,diamond,color_mix,颜色,,incompatible,2,block_switch1_b,instruction/ready_test.png,instruction/i11.png,,,,,,,,,,,,,,,,,0,0,0,0,0,5,5,5,,,,,,,,,,,,,,,,,,,,,,,,,,,472.36155490000965,472.56271769996965,472.5458260999876,472.8469315000111,472.8469315000111,None,473.3476058000233,None,d,0,0.783987500006333,473.3476058000233,None,None,None,,,,,,,,,,,,,,,,,,,,,,,12002,1,2,2024_Jun_02_1821,stroop_task_switching2_b,2021.2.3,59.35059762618678,
,,,黄,red,f,square,color_mix,单词,,incompatible,2,block_switch1_b,instruction/ready_test.png,instruction/i11.png,,,,,,,,,,,,,,,,,0,0,0,0,0,6,6,6,,,,,,,,,,,,,,,,,,,,,,,,,,,474.14764380001,474.34995180001715,474.3316237999825,474.63272599998163,474.63272599998163,None,475.1338386000134,None,k,0,1.5888959000003524,475.1338386000134,None,None,None,,,,,,,,,,,,,,,,,,,,,,,12002,1,2,2024_Jun_02_1821,stroop_task_switching2_b,2021.2.3,59.35059762618678,
,,,绿,green,d,square,color_mix,单词,,compatible,1,block_switch1_b,instruction/ready_test.png,instruction/i11.png,,,,,,,,,,,,,,,,,0,0,0,0,0,7,7,7,,,,,,,,,,,,,,,,,,,,,,,,,,,476.7696482000174,476.9699346999987,476.9354071000125,477.23677690001205,477.23677690001205,None,477.7374838999822,None,d,1,0.825148000032641,477.7374838999822,None,None,None,,,,,,,,,,,,,,,,,,,,,,,12002,1,2,2024_Jun_02_1821,stroop_task_switching2_b,2021.2.3,59.35059762618678,
,,,蓝,blue,j,square,color_mix,单词,,compatible,1,block_switch1_b,instruction/ready_test.png,instruction/i11.png,,,,,,,,,,,,,,,,,0,0,0,0,0,8,8,8,,,,,,,,,,,,,,,,,,,,,,,,,,,478.587726400001,478.7882307000109,478.77277169999434,479.07295319996774,479.07295319996774,None,479.5736253000214,None,j,1,0.8929174999939278,479.5736253000214,None,None,None,,,,,,,,,,,,,,,,,,,,,,,12002,1,2,2024_Jun_02_1821,stroop_task_switching2_b,2021.2.3,59.35059762618678,
,,,红,red,k,diamond,color_mix,颜色,,compatible,2,block_switch1_b,instruction/ready_test.png,instruction/i11.png,,,,,,,,,,,,,,,,,0,0,0,0,0,9,9,9,,,,,,,,,,,,,,,,,,,,,,,,,,,480.490752600017,480.6917844999698,480.67496849998133,480.97595689998707,480.97595689998707,None,481.47657040000195,None,k,1,1.4863720999564976,481.47657040000195,None,None,None,,,,,,,,,,,,,,,,,,,,,,,12002,1,2,2024_Jun_02_1821,stroop_task_switching2_b,2021.2.3,59.35059762618678,
,,,黄,yellow,f,diamond,color_mix,颜色,,compatible,1,block_switch1_b,instruction/ready_test.png,instruction/i11.png,,,,,,,,,,,,,,,,,0,0,0,0,0,10,10,10,,,,,,,,,,,,,,,,,,,,,,,,,,,482.9778301999904,483.1794656999991,483.16207969997777,483.46430990000954,483.46430990000954,None,483.96353469998576,None,f,1,0.8080518000060692,483.96353469998576,None,None,None,,,,,,,,,,,,,,,,,,,,,,,12002,1,2,2024_Jun_02_1821,stroop_task_switching2_b,2021.2.3,59.35059762618678,
,,,绿,green,d,square,color_mix,单词,,compatible,2,block_switch1_b,instruction/ready_test.png,instruction/i11.png,,,,,,,,,,,,,,,,,0,0,0,0,0,11,11,11,,,,,,,,,,,,,,,,,,,,,,,,,,,484.79719780001324,484.99826770002255,484.9814881000202,485.2823309000232,485.2823309000232,None,485.78257639997173,None,d,1,0.525188600004185,485.78257639997173,None,None,None,,,,,,,,,,,,,,,,,,,,,,,12002,1,2,2024_Jun_02_1821,stroop_task_switching2_b,2021.2.3,59.35059762618678,
,,,红,red,k,diamond,color_mix,颜色,,compatible,2,block_switch1_b,instruction/ready_test.png,instruction/i11.png,,,,,,,,,,,,,,,,,0,0,0,0,0,12,12,12,,,,,,,,,,,,,,,,,,,,,,,,,,,486.33286650001537,486.53387149999617,486.51765479997266,486.8172112000175,486.8172112000175,None,487.3177532000118,None,k,1,0.9658691000076942,487.3177532000118,None,None,None,,,,,,,,,,,,,,,,,,,,,,,12002,1,2,2024_Jun_02_1821,stroop_task_switching2_b,2021.2.3,59.35059762618678,
,,,红,red,k,diamond,color_mix,颜色,,compatible,1,block_switch1_b,instruction/ready_test.png,instruction/i11.png,,,,,,,,,,,,,,,,,0,0,0,0,0,13,13,13,,,,,,,,,,,,,,,,,,,,,,,,,,,488.30244140001014,488.5033513000235,488.4868501999881,488.78777549997903,488.78777549997903,None,489.2883609000128,None,k,1,0.46682370000053197,489.2883609000128,None,None,None,,,,,,,,,,,,,,,,,,,,,,,12002,1,2,2024_Jun_02_1821,stroop_task_switching2_b,2021.2.3,59.35059762618678,
,,,黄,yellow,f,square,color_mix,单词,,compatible,2,block_switch1_b,instruction/ready_test.png,instruction/i11.png,,,,,,,,,,,,,,,,,0,0,0,0,0,14,14,14,,,,,,,,,,,,,,,,,,,,,,,,,,,489.77128789998824,489.9726721000043,489.9558351999731,490.2565820000018,490.2565820000018,None,490.7571946000098,None,f,1,2.3499971999553964,490.7571946000098,None,None,None,,,,,,,,,,,,,,,,,,,,,,,12002,1,2,2024_Jun_02_1821,stroop_task_switching2_b,2021.2.3,59.35059762618678,
,,,红,green,d,diamond,color_mix,颜色,,incompatible,2,block_switch1_b,instruction/ready_test.png,instruction/i11.png,,,,,,,,,,,,,,,,,0,0,0,0,0,15,15,15,,,,,,,,,,,,,,,,,,,,,,,,,,,493.1264503999846,493.32827469997574,493.3100855000084,493.61161750002066,493.61161750002066,None,494.11185889999615,None,d,1,2.075163799978327,494.11185889999615,None,None,None,,,,,,,,,,,,,,,,,,,,,,,12002,1,2,2024_Jun_02_1821,stroop_task_switching2_b,2021.2.3,59.35059762618678,
,,,蓝,red,k,diamond,color_mix,颜色,,incompatible,1,block_switch1_b,instruction/ready_test.png,instruction/i11.png,,,,,,,,,,,,,,,,,0,0,0,0,0,16,16,16,,,,,,,,,,,,,,,,,,,,,,,,,,,496.21444619999966,496.41646719997516,496.3980354000232,496.6995018000016,496.6995018000016,None,497.200323499972,None,j,0,1.690892300044652,497.200323499972,None,None,None,,,,,,,,,,,,,,,,,,,,,,,12002,1,2,2024_Jun_02_1821,stroop_task_switching2_b,2021.2.3,59.35059762618678,
,,,黄,green,d,diamond,color_mix,颜色,,incompatible,1,block_switch1_b,instruction/ready_test.png,instruction/i11.png,,,,,,,,,,,,,,,,,0,0,0,0,0,17,17,17,,,,,,,,,,,,,,,,,,,,,,,,,,,498.918625899998,499.11934879998444,499.10312410001643,499.4035780999693,499.4035780999693,None,499.90446699998574,None,d,1,1.4512203999911435,499.90446699998574,None,None,None,,,,,,,,,,,,,,,,,,,,,,,12002,1,2,2024_Jun_02_1821,stroop_task_switching2_b,2021.2.3,59.35059762618678,
,,,绿,green,d,diamond,color_mix,颜色,,compatible,1,block_switch1_b,instruction/ready_test.png,instruction/i11.png,,,,,,,,,,,,,,,,,0,0,0,0,0,18,18,18,,,,,,,,,,,,,,,,,,,,,,,,,,,501.3722120000166,501.5726327999728,501.55591809999896,501.85730039997725,501.85730039997725,None,502.3577090000035,None,d,1,0.5502156000002287,502.3577090000035,None,None,None,,,,,,,,,,,,,,,,,,,,,,,12002,1,2,2024_Jun_02_1821,stroop_task_switching2_b,2021.2.3,59.35059762618678,
,,,黄,red,k,diamond,color_mix,颜色,,incompatible,1,block_switch1_b,instruction/ready_test.png,instruction/i11.png,,,,,,,,,,,,,,,,,0,0,0,0,0,19,19,19,,,,,,,,,,,,,,,,,,,,,,,,,,,502.9255641999771,503.125429000007,503.10912049998296,503.40993259998504,503.40993259998504,None,503.9105494999676,None,k,1,0.8286920000100508,503.9105494999676,None,None,None,,,,,,,,,,,,,,,,,,,,,,,12002,1,2,2024_Jun_02_1821,stroop_task_switching2_b,2021.2.3,59.35059762618678,
,,,绿,yellow,d,square,color_mix,单词,,incompatible,2,block_switch1_b,instruction/ready_test.png,instruction/i11.png,,,,,,,,,,,,,,,,,0,0,0,0,0,20,20,20,,,,,,,,,,,,,,,,,,,,,,,,,,,504.7611848000088,504.9618327000062,504.94626220001373,505.2460144999786,505.2460144999786,None,505.7454350999906,None,d,1,0.9377497999812476,505.7454350999906,None,None,None,,,,,,,,,,,,,,,,,,,,,,,12002,1,2,2024_Jun_02_1821,stroop_task_switching2_b,2021.2.3,59.35059762618678,
,,,绿,yellow,f,diamond,color_mix,颜色,,incompatible,2,block_switch1_b,instruction/ready_test.png,instruction/i11.png,,,,,,,,,,,,,,,,,0,0,0,0,0,21,21,21,,,,,,,,,,,,,,,,,,,,,,,,,,,506.71423350000987,506.9139888000209,506.8973130999948,507.1988331999746,507.1988331999746,None,507.69849440001417,None,f,1,1.3610493000014685,507.69849440001417,None,None,None,,,,,,,,,,,,,,,,,,,,,,,12002,1,2,2024_Jun_02_1821,stroop_task_switching2_b,2021.2.3,59.35059762618678,
,,,绿,green,d,square,color_mix,单词,,compatible,2,block_switch1_b,instruction/ready_test.png,instruction/i11.png,,,,,,,,,,,,,,,,,0,0,0,0,0,22,22,22,,,,,,,,,,,,,,,,,,,,,,,,,,,509.08359330001986,509.28420300001744,509.2674464000156,509.56803580000997,509.56803580000997,None,510.0694390999852,None,d,1,0.7505236000288278,510.0694390999852,None,None,None,,,,,,,,,,,,,,,,,,,,,,,12002,1,2,2024_Jun_02_1821,stroop_task_switching2_b,2021.2.3,59.35059762618678,
,,,红,red,k,square,color_mix,单词,,compatible,1,block_switch1_b,instruction/ready_test.png,instruction/i11.png,,,,,,,,,,,,,,,,,0,0,0,0,0,23,23,23,,,,,,,,,,,,,,,,,,,,,,,,,,,510.83637069998076,511.0376436000224,511.0205969000235,511.32067300000926,511.32067300000926,None,511.82236479996936,None,k,1,0.5333264000364579,511.82236479996936,None,None,None,,,,,,,,,,,,,,,,,,,,,,,12002,1,2,2024_Jun_02_1821,stroop_task_switching2_b,2021.2.3,59.35059762618678,
,,,黄,green,f,square,color_mix,单词,,incompatible,1,block_switch1_b,instruction/ready_test.png,instruction/i11.png,,,,,,,,,,,,,,,,,0,0,0,0,0,24,24,24,,,,,,,,,,,,,,,,,,,,,,,,,,,512.3729277999955,512.5731263000052,512.5569480999839,512.8568512999918,512.8568512999918,None,513.3580116999801,None,f,1,0.9893187999841757,513.3580116999801,None,None,None,,,,,,,,,,,,,,,,,,,,,,,12002,1,2,2024_Jun_02_1821,stroop_task_switching2_b,2021.2.3,59.35059762618678,
,,,红,blue,k,square,color_mix,单词,,incompatible,1,block_switch1_b,instruction/ready_test.png,instruction/i11.png,,,,,,,,,,,,,,,,,0,0,0,0,0,25,25,25,,,,,,,,,,,,,,,,,,,,,,,,,,,514.3757923999801,514.5767307999777,514.5587010000017,514.8604288999923,514.8604288999923,None,515.3606076000142,None,d,0,1.2193917999975383,515.3606076000142,None,None,None,,,,,,,,,,,,,,,,,,,,,,,12002,1,2,2024_Jun_02_1821,stroop_task_switching2_b,2021.2.3,59.35059762618678,
,,,黄,yellow,f,square,color_mix,单词,,compatible,1,block_switch1_b,instruction/ready_test.png,instruction/i11.png,,,,,,,,,,,,,,,,,0,0,0,0,0,26,26,26,,,,,,,,,,,,,,,,,,,,,,,,,,,516.5950466999784,516.796754400013,516.7799114999943,517.0809854000108,517.0809854000108,None,517.5807284999755,None,f,1,1.519562200002838,517.5807284999755,None,None,None,,,,,,,,,,,,,,,,,,,,,,,12002,1,2,2024_Jun_02_1821,stroop_task_switching2_b,2021.2.3,59.35059762618678,
,,,蓝,green,j,square,color_mix,单词,,incompatible,1,block_switch1_b,instruction/ready_test.png,instruction/i11.png,,,,,,,,,,,,,,,,,0,0,0,0,0,27,27,27,,,,,,,,,,,,,,,,,,,,,,,,,,,519.1167034999817,519.3170105000027,519.3003327000188,519.6008134000003,519.6008134000003,None,520.100933699985,None,d,0,0.894691800000146,520.100933699985,None,None,None,,,,,,,,,,,,,,,,,,,,,,,12002,1,2,2024_Jun_02_1821,stroop_task_switching2_b,2021.2.3,59.35059762618678,
,,,绿,green,d,diamond,color_mix,颜色,,compatible,2,block_switch1_b,instruction/ready_test.png,instruction/i11.png,,,,,,,,,,,,,,,,,0,0,0,0,0,28,28,28,,,,,,,,,,,,,,,,,,,,,,,,,,,521.0185246000183,521.2190900999703,521.2026683000149,521.5036753999884,521.5036753999884,None,522.0042397999787,None,d,1,1.967848900007084,522.0042397999787,None,None,None,,,,,,,,,,,,,,,,,,,,,,,12002,1,2,2024_Jun_02_1821,stroop_task_switching2_b,2021.2.3,59.35059762618678,
,,,黄,blue,j,diamond,color_mix,颜色,,incompatible,1,block_switch1_b,instruction/ready_test.png,instruction/i11.png,,,,,,,,,,,,,,,,,0,0,0,0,0,29,29,29,,,,,,,,,,,,,,,,,,,,,,,,,,,523.9902992999996,524.1908756999765,524.1749272000161,524.4747814000002,524.4747814000002,None,524.9754754999885,None,f,0,1.4283162000356242,524.9754754999885,None,None,None,,,,,,,,,,,,,,,,,,,,,,,12002,1,2,2024_Jun_02_1821,stroop_task_switching2_b,2021.2.3,59.35059762618678,
,,,绿,green,d,diamond,color_mix,颜色,,compatible,1,block_switch1_b,instruction/ready_test.png,instruction/i11.png,,,,,,,,,,,,,,,,,0,0,0,0,0,30,30,30,,,,,,,,,,,,,,,,,,,,,,,,,,,526.4267346999841,526.6279471999733,526.6112491000094,526.9115540999919,526.9115540999919,None,527.4125337000005,None,d,1,0.6476929999771528,527.4125337000005,None,None,None,,,,,,,,,,,,,,,,,,,,,,,12002,1,2,2024_Jun_02_1821,stroop_task_switching2_b,2021.2.3,59.35059762618678,
,,,蓝,blue,j,square,color_mix,单词,,compatible,2,block_switch1_b,instruction/ready_test.png,instruction/i11.png,,,,,,,,,,,,,,,,,0,0,0,0,0,31,31,31,,,,,,,,,,,,,,,,,,,,,,,,,,,528.0792544999858,528.280550299969,528.263862999971,528.5641577999922,528.5641577999922,None,529.0650941000204,532.0694545999868,None,0,,529.0650941000204,532.0694545999868,532.0525892999722,None,,,,,,,,,,,,,,,,,,,,,,,12002,1,2,2024_Jun_02_1821,stroop_task_switching2_b,2021.2.3,59.35059762618678,
,,,红,red,k,square,color_mix,单词,,compatible,1,block_switch1_b,instruction/ready_test.png,instruction/i11.png,,,,,,,,,,,,,,,,,0,0,0,0,0,32,32,32,,,,,,,,,,,,,,,,,,,,,,,,,,,532.6360542000039,532.8366828999715,532.8198709000135,533.1212541999994,533.1212541999994,None,533.6217562999809,None,k,1,1.0942926999996416,533.6217562999809,None,None,None,,,,,,,,,,,,,,,,,,,,,,,12002,1,2,2024_Jun_02_1821,stroop_task_switching2_b,2021.2.3,59.35059762618678,
,,,红,green,k,square,color_mix,单词,,incompatible,1,block_switch1_b,instruction/ready_test.png,instruction/i11.png,,,,,,,,,,,,,,,,,0,0,0,0,0,33,33,33,,,,,,,,,,,,,,,,,,,,,,,,,,,534.7402308000019,534.9409394999966,534.9238798000151,535.2235981000122,535.2235981000122,None,535.7241311999969,None,k,1,1.336615999985952,535.7241311999969,None,None,None,,,,,,,,,,,,,,,,,,,,,,,12002,1,2,2024_Jun_02_1821,stroop_task_switching2_b,2021.2.3,59.35059762618678,
,,,黄,yellow,f,diamond,color_mix,颜色,,compatible,2,block_switch1_b,instruction/ready_test.png,instruction/i11.png,,,,,,,,,,,,,,,,,0,0,0,0,0,34,34,34,,,,,,,,,,,,,,,,,,,,,,,,,,,537.0758048999705,537.2773953999858,537.2604857999831,537.5610914999852,537.5610914999852,None,538.0616706999717,None,f,1,0.7908889999962412,538.0616706999717,None,None,None,,,,,,,,,,,,,,,,,,,,,,,12002,1,2,2024_Jun_02_1821,stroop_task_switching2_b,2021.2.3,59.35059762618678,
,,,红,green,d,diamond,color_mix,颜色,,incompatible,1,block_switch1_b,instruction/ready_test.png,instruction/i11.png,,,,,,,,,,,,,,,,,0,0,0,0,0,35,35,35,,,,,,,,,,,,,,,,,,,,,,,,,,,538.8798169000074,539.080149699992,539.0642840000219,539.3628964999807,539.3628964999807,None,539.8647133000195,None,d,1,0.9717762999935076,539.8647133000195,None,None,None,,,,,,,,,,,,,,,,,,,,,,,12002,1,2,2024_Jun_02_1821,stroop_task_switching2_b,2021.2.3,59.35059762618678,
,,,黄,yellow,f,square,color_mix,单词,,compatible,2,block_switch1_b,instruction/ready_test.png,instruction/i11.png,,,,,,,,,,,,,,,,,0,0,0,0,0,36,36,36,,,,,,,,,,,,,,,,,,,,,,,,,,,540.8659096999909,541.0664391000173,541.0491309000063,541.3503040000214,541.3503040000214,None,541.850877400022,None,f,1,1.3373374000075273,541.850877400022,None,None,None,,,,,,,,,,,,,,,,,,,,,,,12002,1,2,2024_Jun_02_1821,stroop_task_switching2_b,2021.2.3,59.35059762618678,
,,,蓝,blue,j,square,color_mix,单词,,compatible,1,block_switch1_b,instruction/ready_test.png,instruction/i11.png,,,,,,,,,,,,,,,,,0,0,0,0,0,37,37,37,,,,,,,,,,,,,,,,,,,,,,,,,,,543.2199790999875,543.4199501000112,543.403581599996,543.7037710999721,543.7037710999721,None,544.2044256000081,None,j,1,0.9842537000076845,544.2044256000081,None,None,None,,,,,,,,,,,,,,,,,,,,,,,12002,1,2,2024_Jun_02_1821,stroop_task_switching2_b,2021.2.3,59.35059762618678,
,,,绿,red,k,diamond,color_mix,颜色,,incompatible,2,block_switch1_b,instruction/ready_test.png,instruction/i11.png,,,,,,,,,,,,,,,,,0,0,0,0,0,38,38,38,,,,,,,,,,,,,,,,,,,,,,,,,,,545.2053669000161,545.4065651000128,545.3891463999753,545.6894944999949,545.6894944999949,None,546.190830699983,None,k,1,0.8934195000329055,546.190830699983,None,None,None,,,,,,,,,,,,,,,,,,,,,,,12002,1,2,2024_Jun_02_1821,stroop_task_switching2_b,2021.2.3,59.35059762618678,
,,,黄,yellow,f,diamond,color_mix,颜色,,compatible,1,block_switch1_b,instruction/ready_test.png,instruction/i11.png,,,,,,,,,,,,,,,,,0,0,0,0,0,39,39,39,,,,,,,,,,,,,,,,,,,,,,,,,,,547.1078329000156,547.3089588999865,547.2922002999694,547.5930333000142,547.5930333000142,None,548.0937170999823,None,f,1,0.7354909999994561,548.0937170999823,None,None,None,,,,,,,,,,,,,,,,,,,,,,,12002,1,2,2024_Jun_02_1821,stroop_task_switching2_b,2021.2.3,59.35059762618678,
,,,红,blue,j,diamond,color_mix,颜色,,incompatible,1,block_switch1_b,instruction/ready_test.png,instruction/i11.png,,,,,,,,,,,,,,,,,0,0,0,0,0,40,40,40,,,,,,,,,,,,,,,,,,,,,,,,,,,548.8436494999914,549.0457452000119,549.0273722999846,549.3285208999878,549.3285208999878,None,549.8291864999919,None,j,1,1.1753862999612466,549.8291864999919,None,None,None,,,,,,,,,,,,,,,,,,,,,,,12002,1,2,2024_Jun_02_1821,stroop_task_switching2_b,2021.2.3,59.35059762618678,
,,,绿,blue,d,square,color_mix,单词,,incompatible,2,block_switch1_b,instruction/ready_test.png,instruction/i11.png,,,,,,,,,,,,,,,,,0,0,0,0,0,41,41,41,,,,,,,,,,,,,,,,,,,,,,,,,,,551.030798199994,551.2316197999753,551.214771399973,551.515448399994,551.515448399994,None,552.0164375000168,None,d,1,0.7482515999581665,552.0164375000168,None,None,None,,,,,,,,,,,,,,,,,,,,,,,12002,1,2,2024_Jun_02_1821,stroop_task_switching2_b,2021.2.3,59.35059762618678,
,,,蓝,blue,j,diamond,color_mix,颜色,,compatible,2,block_switch1_b,instruction/ready_test.png,instruction/i11.png,,,,,,,,,,,,,,,,,0,0,0,0,0,42,42,42,,,,,,,,,,,,,,,,,,,,,,,,,,,552.7830307999975,552.9843914000085,552.967524799984,553.2683607999934,553.2683607999934,None,553.7689270999981,None,j,1,0.9719510999857448,553.7689270999981,None,None,None,,,,,,,,,,,,,,,,,,,,,,,12002,1,2,2024_Jun_02_1821,stroop_task_switching2_b,2021.2.3,59.35059762618678,
,,,红,blue,k,square,color_mix,单词,,incompatible,2,block_switch1_b,instruction/ready_test.png,instruction/i11.png,,,,,,,,,,,,,,,,,0,0,0,0,0,43,43,43,,,,,,,,,,,,,,,,,,,,,,,,,,,554.7699103999767,554.9706601999933,554.9542691999814,555.2545347000123,555.2545347000123,None,555.7550164000131,None,k,1,1.1865748999989592,555.7550164000131,None,None,None,,,,,,,,,,,,,,,,,,,,,,,12002,1,2,2024_Jun_02_1821,stroop_task_switching2_b,2021.2.3,59.35059762618678,
,,,蓝,green,d,diamond,color_mix,颜色,,incompatible,2,block_switch1_b,instruction/ready_test.png,instruction/i11.png,,,,,,,,,,,,,,,,,0,0,0,0,0,44,44,44,,,,,,,,,,,,,,,,,,,,,,,,,,,556.9739802000113,557.1899460999994,557.1396035000216,557.4409770999919,557.4409770999919,None,557.9415736999945,None,d,1,1.943475300038699,557.9415736999945,None,None,None,,,,,,,,,,,,,,,,,,,,,,,12002,1,2,2024_Jun_02_1821,stroop_task_switching2_b,2021.2.3,59.35059762618678,
,,,黄,yellow,f,square,color_mix,单词,,compatible,2,block_switch1_b,instruction/ready_test.png,instruction/i11.png,,,,,,,,,,,,,,,,,0,0,0,0,0,45,45,45,,,,,,,,,,,,,,,,,,,,,,,,,,,559.9284138000221,560.1276419999776,560.0949627999798,560.395689899975,560.395689899975,None,560.8962325999746,None,f,1,0.9251032000174746,560.8962325999746,None,None,None,,,,,,,,,,,,,,,,,,,,,,,12002,1,2,2024_Jun_02_1821,stroop_task_switching2_b,2021.2.3,59.35059762618678,
,,,黄,yellow,f,diamond,color_mix,颜色,,compatible,2,block_switch1_b,instruction/ready_test.png,instruction/i11.png,,,,,,,,,,,,,,,,,0,0,0,0,0,46,46,46,,,,,,,,,,,,,,,,,,,,,,,,,,,561.8466556000058,562.0491127999849,562.0303482000018,562.3317791000009,562.3317791000009,None,562.8319358999724,None,f,1,1.060880500008352,562.8319358999724,None,None,None,,,,,,,,,,,,,,,,,,,,,,,12002,1,2,2024_Jun_02_1821,stroop_task_switching2_b,2021.2.3,59.35059762618678,
,,,绿,red,d,square,color_mix,单词,,incompatible,2,block_switch1_b,instruction/ready_test.png,instruction/i11.png,,,,,,,,,,,,,,,,,0,0,0,0,0,47,47,47,,,,,,,,,,,,,,,,,,,,,,,,,,,563.9164760999847,564.1177658999804,564.1015289999777,564.4016488000052,564.4016488000052,None,564.9018619999988,None,d,1,1.375158199982252,564.9018619999988,None,None,None,,,,,,,,,,,,,,,,,,,,,,,12002,1,2,2024_Jun_02_1821,stroop_task_switching2_b,2021.2.3,59.35059762618678,
,,,红,red,k,diamond,color_mix,颜色,,compatible,2,block_switch1_b,instruction/ready_test.png,instruction/i11.png,,,,,,,,,,,,,,,,,0,0,0,0,0,48,48,48,,,,,,,,,,,,,,,,,,,,,,,,,,,566.3033709999872,566.5048354999744,566.4883935999824,566.7884030999849,566.7884030999849,None,567.2892113999696,None,k,1,1.0927244000486098,567.2892113999696,None,None,None,,,,,,,,,,,,,,,,,,,,,,,12002,1,2,2024_Jun_02_1821,stroop_task_switching2_b,2021.2.3,59.35059762618678,
,,,蓝,blue,j,diamond,color_mix,颜色,,compatible,1,block_switch1_b,instruction/ready_test.png,instruction/i11.png,,,,,,,,,,,,,,,,,0,0,0,0,0,49,49,49,,,,,,,,,,,,,,,,,,,,,,,,,,,568.4073882999946,568.6072659000056,568.591242800001,568.8917144999723,568.8917144999723,None,569.3925390000222,None,j,1,0.7967090000165626,569.3925390000222,None,None,None,,,,,,,,,,,,,,,,,,,,,,,12002,1,2,2024_Jun_02_1821,stroop_task_switching2_b,2021.2.3,59.35059762618678,
,,,黄,yellow,f,diamond,color_mix,颜色,,compatible,1,block_switch1_b,instruction/ready_test.png,instruction/i11.png,,,,,,,,,,,,,,,,,0,0,0,0,0,50,50,50,,,,,,,,,,,,,,,,,,,,,,,,,,,570.2105488000088,570.4099356000079,570.3935740999877,570.6946803000174,570.6946803000174,None,571.1953035999904,None,f,1,0.6907605999731459,571.1953035999904,None,None,None,,,,,,,,,,,,,,,,,,,,,,,12002,1,2,2024_Jun_02_1821,stroop_task_switching2_b,2021.2.3,59.35059762618678,
,,,红,blue,j,diamond,color_mix,颜色,,incompatible,1,block_switch1_b,instruction/ready_test.png,instruction/i11.png,,,,,,,,,,,,,,,,,0,0,0,0,0,51,51,51,,,,,,,,,,,,,,,,,,,,,,,,,,,571.9127322999993,572.1130968999933,572.0963990999735,572.3961763000116,572.3961763000116,None,572.8980305999867,None,f,0,1.7003220000187866,572.8980305999867,None,None,None,,,,,,,,,,,,,,,,,,,,,,,12002,1,2,2024_Jun_02_1821,stroop_task_switching2_b,2021.2.3,59.35059762618678,
,,,蓝,yellow,f,diamond,color_mix,颜色,,incompatible,1,block_switch1_b,instruction/ready_test.png,instruction/i11.png,,,,,,,,,,,,,,,,,0,0,0,0,0,52,52,52,,,,,,,,,,,,,,,,,,,,,,,,,,,574.616145899985,574.8169064999674,574.8016278999858,575.101168299967,575.101168299967,None,575.6016817999771,None,f,1,0.9638344999984838,575.6016817999771,None,None,None,,,,,,,,,,,,,,,,,,,,,,,12002,1,2,2024_Jun_02_1821,stroop_task_switching2_b,2021.2.3,59.35059762618678,
,,,黄,blue,f,square,color_mix,单词,,incompatible,2,block_switch1_b,instruction/ready_test.png,instruction/i11.png,,,,,,,,,,,,,,,,,0,0,0,0,0,53,53,53,,,,,,,,,,,,,,,,,,,,,,,,,,,576.5856223999872,576.7869245000184,576.770566799969,577.0708075999864,577.0708075999864,None,577.5715270999935,None,j,0,1.8496904000057839,577.5715270999935,None,None,None,,,,,,,,,,,,,,,,,,,,,,,12002,1,2,2024_Jun_02_1821,stroop_task_switching2_b,2021.2.3,59.35059762618678,
,,,蓝,blue,j,diamond,color_mix,颜色,,compatible,2,block_switch1_b,instruction/ready_test.png,instruction/i11.png,,,,,,,,,,,,,,,,,0,0,0,0,0,54,54,54,,,,,,,,,,,,,,,,,,,,,,,,,,,579.4398577000247,579.6413168999716,579.6246120000142,579.9251109000179,579.9251109000179,None,580.4261108000064,None,j,1,0.5077197999926284,580.4261108000064,None,None,None,,,,,,,,,,,,,,,,,,,,,,,12002,1,2,2024_Jun_02_1821,stroop_task_switching2_b,2021.2.3,59.35059762618678,
,,,红,yellow,k,square,color_mix,单词,,incompatible,2,block_switch1_b,instruction/ready_test.png,instruction/i11.png,,,,,,,,,,,,,,,,,0,0,0,0,0,55,55,55,,,,,,,,,,,,,,,,,,,,,,,,,,,580.9767368999892,581.1770388999721,581.1430068999762,581.4440011999686,581.4440011999686,None,581.9445013999939,None,k,1,0.8855229999753647,581.9445013999939,None,None,None,,,,,,,,,,,,,,,,,,,,,,,12002,1,2,2024_Jun_02_1821,stroop_task_switching2_b,2021.2.3,59.35059762618678,
,,,蓝,red,j,square,color_mix,单词,,incompatible,1,block_switch1_b,instruction/ready_test.png,instruction/i11.png,,,,,,,,,,,,,,,,,0,0,0,0,0,56,56,56,,,,,,,,,,,,,,,,,,,,,,,,,,,582.8451486999984,583.0464282999747,583.0295586999855,583.3296660999767,583.3296660999767,None,583.8309579999768,None,k,0,0.7590628000325523,583.8309579999768,None,None,None,,,,,,,,,,,,,,,,,,,,,,,12002,1,2,2024_Jun_02_1821,stroop_task_switching2_b,2021.2.3,59.35059762618678,
,,,蓝,blue,j,square,color_mix,单词,,compatible,1,block_switch1_b,instruction/ready_test.png,instruction/i11.png,,,,,,,,,,,,,,,,,0,0,0,0,0,57,57,57,,,,,,,,,,,,,,,,,,,,,,,,,,,584.6152682999964,584.8158271000138,584.7990986999939,585.0993212999892,585.0993212999892,None,585.5997764000203,None,j,1,2.1340924999676645,585.5997764000203,None,None,None,,,,,,,,,,,,,,,,,,,,,,,12002,1,2,2024_Jun_02_1821,stroop_task_switching2_b,2021.2.3,59.35059762618678,
,,,蓝,red,k,diamond,color_mix,颜色,,incompatible,2,block_switch1_b,instruction/ready_test.png,instruction/i11.png,,,,,,,,,,,,,,,,,0,0,0,0,0,58,58,58,,,,,,,,,,,,,,,,,,,,,,,,,,,587.7523036000202,587.9539054000052,587.9372583000222,588.2374337000074,588.2374337000074,None,588.7383380000247,None,k,1,1.0519575999933295,588.7383380000247,None,None,None,,,,,,,,,,,,,,,,,,,,,,,12002,1,2,2024_Jun_02_1821,stroop_task_switching2_b,2021.2.3,59.35059762618678,
,,,绿,green,d,diamond,color_mix,颜色,,compatible,1,block_switch1_b,instruction/ready_test.png,instruction/i11.png,,,,,,,,,,,,,,,,,0,0,0,0,0,59,59,59,,,,,,,,,,,,,,,,,,,,,,,,,,,589.8069559999858,590.0067211000132,589.9903513999889,590.2907366,590.2907366,None,590.7914678999805,None,d,1,0.9665986000327393,590.7914678999805,None,None,None,,,,,,,,,,,,,,,,,,,,,,,12002,1,2,2024_Jun_02_1821,stroop_task_switching2_b,2021.2.3,59.35059762618678,
,,,蓝,blue,j,diamond,color_mix,颜色,,compatible,1,block_switch1_b,instruction/ready_test.png,instruction/i11.png,,,,,,,,,,,,,,,,,0,0,0,0,0,60,60,60,,,,,,,,,,,,,,,,,,,,,,,,,,,591.7756445999839,591.9768865000224,591.9596744999872,592.2601933999686,592.2601933999686,None,592.7608953000163,None,j,1,1.204636099981144,592.7608953000163,None,None,None,,,,,,,,,,,,,,,,,,,,,,,12002,1,2,2024_Jun_02_1821,stroop_task_switching2_b,2021.2.3,59.35059762618678,
,,,黄,yellow,f,square,color_mix,单词,,compatible,2,block_switch1_b,instruction/ready_test.png,instruction/i11.png,,,,,,,,,,,,,,,,,0,0,0,0,0,61,61,61,,,,,,,,,,,,,,,,,,,,,,,,,,,593.9952277999837,594.1966628999799,594.1799138999777,594.4803727999679,594.4803727999679,None,594.9803888999741,None,f,1,1.43397430004552,594.9803888999741,None,None,None,,,,,,,,,,,,,,,,,,,,,,,12002,1,2,2024_Jun_02_1821,stroop_task_switching2_b,2021.2.3,59.35059762618678,
,,,绿,blue,d,square,color_mix,单词,,incompatible,1,block_switch1_b,instruction/ready_test.png,instruction/i11.png,,,,,,,,,,,,,,,,,0,0,0,0,0,62,62,62,,,,,,,,,,,,,,,,,,,,,,,,,,,596.4335248999996,596.6335261000204,596.6164953999687,596.9173435000121,596.9173435000121,None,597.4180229000049,None,d,1,1.107817099953536,597.4180229000049,None,None,None,,,,,,,,,,,,,,,,,,,,,,,12002,1,2,2024_Jun_02_1821,stroop_task_switching2_b,2021.2.3,59.35059762618678,
,,,蓝,yellow,j,square,color_mix,单词,,incompatible,1,block_switch1_b,instruction/ready_test.png,instruction/i11.png,,,,,,,,,,,,,,,,,0,0,0,0,0,63,63,63,,,,,,,,,,,,,,,,,,,,,,,,,,,598.5530863999738,598.7523670999799,598.7362210999709,599.0372306000208,599.0372306000208,None,599.5369326000218,None,f,0,0.9730152999982238,599.5369326000218,None,None,None,,,,,,,,,,,,,,,,,,,,,,,12002,1,2,2024_Jun_02_1821,stroop_task_switching2_b,2021.2.3,59.35059762618678,
,,,黄,yellow,f,diamond,color_mix,颜色,,compatible,2,block_switch1_b,instruction/ready_test.png,instruction/i11.png,,,,,,,,,,,,,,,,,0,0,0,0,0,64,64,64,,,,,,,,,,,,,,,,,,,,,,,,,,,600.5381536000059,600.7393126999959,600.7228546999977,601.0240197000094,601.0240197000094,None,601.5241995999822,None,f,1,0.7536209000390954,601.5241995999822,None,None,None,,,,,,,,,,,,,,,,,,,,,,,12002,1,2,2024_Jun_02_1821,stroop_task_switching2_b,2021.2.3,59.35059762618678,
,,,蓝,green,d,diamond,color_mix,颜色,,incompatible,1,block_switch1_b,instruction/ready_test.png,instruction/i11.png,,,,,,,,,,,,,,,,,0,0,0,0,0,65,65,65,,,,,,,,,,,,,,,,,,,,,,,,,,,602.3085686999839,602.5091365000117,602.492749899975,602.7925390999881,602.7925390999881,None,603.293365599995,None,d,1,2.0246899999910966,603.293365599995,None,None,None,,,,,,,,,,,,,,,,,,,,,,,12002,1,2,2024_Jun_02_1821,stroop_task_switching2_b,2021.2.3,59.35059762618678,
,,,红,red,k,diamond,color_mix,颜色,,compatible,1,block_switch1_b,instruction/ready_test.png,instruction/i11.png,,,,,,,,,,,,,,,,,0,0,0,0,0,66,66,66,,,,,,,,,,,,,,,,,,,,,,,,,,,605.3460341999889,605.5471106999903,605.5304772999953,605.8303110999987,605.8303110999987,None,606.3310882999795,None,k,1,1.2033655000268482,606.3310882999795,None,None,None,,,,,,,,,,,,,,,,,,,,,,,12002,1,2,2024_Jun_02_1821,stroop_task_switching2_b,2021.2.3,59.35059762618678,
,,,蓝,yellow,j,square,color_mix,单词,,incompatible,2,block_switch1_b,instruction/ready_test.png,instruction/i11.png,,,,,,,,,,,,,,,,,0,0,0,0,0,67,67,67,,,,,,,,,,,,,,,,,,,,,,,,,,,607.5665398999699,607.767070700007,607.7334242999787,608.0338177999947,608.0338177999947,None,608.5351310999831,None,j,1,0.9755517999874428,608.5351310999831,None,None,None,,,,,,,,,,,,,,,,,,,,,,,12002,1,2,2024_Jun_02_1821,stroop_task_switching2_b,2021.2.3,59.35059762618678,
,,,红,yellow,k,square,color_mix,单词,,incompatible,1,block_switch1_b,instruction/ready_test.png,instruction/i11.png,,,,,,,,,,,,,,,,,0,0,0,0,0,68,68,68,,,,,,,,,,,,,,,,,,,,,,,,,,,609.5357885999838,609.7363584999694,609.7207335999701,610.0202982000192,610.0202982000192,None,610.5211934999679,None,k,1,1.605221799982246,610.5211934999679,None,None,None,,,,,,,,,,,,,,,,,,,,,,,12002,1,2,2024_Jun_02_1821,stroop_task_switching2_b,2021.2.3,59.35059762618678,
,,,红,yellow,f,diamond,color_mix,颜色,,incompatible,2,block_switch1_b,instruction/ready_test.png,instruction/i11.png,,,,,,,,,,,,,,,,,0,0,0,0,0,69,69,69,,,,,,,,,,,,,,,,,,,,,,,,,,,612.1567765999935,612.3573580000084,612.3406141999876,612.6411471000174,612.6411471000174,None,613.1417884000111,None,k,0,0.760400400031358,613.1417884000111,None,None,None,,,,,,,,,,,,,,,,,,,,,,,12002,1,2,2024_Jun_02_1821,stroop_task_switching2_b,2021.2.3,59.35059762618678,
,,,蓝,green,j,square,color_mix,单词,,incompatible,2,block_switch1_b,instruction/ready_test.png,instruction/i11.png,,,,,,,,,,,,,,,,,0,0,0,0,0,70,70,70,,,,,,,,,,,,,,,,,,,,,,,,,,,613.9251838999917,614.1264242000179,614.109691300022,614.4106799999718,614.4106799999718,None,614.9112790999934,None,j,1,2.4389077000087127,614.9112790999934,None,None,None,,,,,,,,,,,,,,,,,,,,,,,12002,1,2,2024_Jun_02_1821,stroop_task_switching2_b,2021.2.3,59.35059762618678,
,,,绿,yellow,d,square,color_mix,单词,,incompatible,1,block_switch1_b,instruction/ready_test.png,instruction/i11.png,,,,,,,,,,,,,,,,,0,0,0,0,0,71,71,71,,,,,,,,,,,,,,,,,,,,,,,,,,,617.3805221000221,617.5818372999784,617.564655299997,617.8656848999672,617.8656848999672,None,618.3653954999754,None,d,1,1.0333910000044852,618.3653954999754,None,None,None,,,,,,,,,,,,,,,,,,,,,,,12002,1,2,2024_Jun_02_1821,stroop_task_switching2_b,2021.2.3,59.35059762618678,
,,,蓝,yellow,f,diamond,color_mix,颜色,,incompatible,2,block_switch1_b,instruction/ready_test.png,instruction/i11.png,,,,,,,,,,,,,,,,,0,0,0,0,0,72,72,72,,,,,,,,,,,,,,,,,,,,,,,,,,,619.4178932000068,619.6182737000054,619.6015514999744,619.9015631999937,619.9015631999937,None,620.4027582000126,None,f,1,0.7239120999583974,620.4027582000126,None,None,None,,,,,,,,,,,,,,,,,,,,,,,12002,1,2,2024_Jun_02_1821,stroop_task_switching2_b,2021.2.3,59.35059762618678,
,,,红,green,k,square,color_mix,单词,,incompatible,2,block_switch1_b,instruction/ready_test.png,instruction/i11.png,,,,,,,,,,,,,,,,,0,0,0,0,0,73,73,73,,,,,,,,,,,,,,,,,,,,,,,,,,,621.1525346999988,621.3542834999971,621.3375990000204,621.6379083999782,621.6379083999782,None,622.1386393000139,None,k,1,0.9719000999466516,622.1386393000139,None,None,None,,,,,,,,,,,,,,,,,,,,,,,12002,1,2,2024_Jun_02_1821,stroop_task_switching2_b,2021.2.3,59.35059762618678,
,,,绿,blue,j,diamond,color_mix,颜色,,incompatible,2,block_switch1_b,instruction/ready_test.png,instruction/i11.png,,,,,,,,,,,,,,,,,0,0,0,0,0,74,74,74,,,,,,,,,,,,,,,,,,,,,,,,,,,623.140314600023,623.3400856999797,623.3238204999943,623.6241960999905,623.6241960999905,None,624.1252198999864,None,j,1,0.8976506000035442,624.1252198999864,None,None,None,,,,,,,,,,,,,,,,,,,,,,,12002,1,2,2024_Jun_02_1821,stroop_task_switching2_b,2021.2.3,59.35059762618678,
,,,红,red,k,square,color_mix,单词,,compatible,2,block_switch1_b,instruction/ready_test.png,instruction/i11.png,,,,,,,,,,,,,,,,,0,0,0,0,0,75,75,75,,,,,,,,,,,,,,,,,,,,,,,,,,,625.0429844000028,625.2432989000226,625.2263868000009,625.5261156000197,625.5261156000197,None,626.0279998999904,None,k,1,1.0749833000008948,626.0279998999904,None,None,None,,,,,,,,,,,,,,,,,,,,,,,12002,1,2,2024_Jun_02_1821,stroop_task_switching2_b,2021.2.3,59.35059762618678,
,,,绿,green,d,diamond,color_mix,颜色,,compatible,2,block_switch1_b,instruction/ready_test.png,instruction/i11.png,,,,,,,,,,,,,,,,,0,0,0,0,0,76,76,76,,,,,,,,,,,,,,,,,,,,,,,,,,,627.1291226000176,627.3292159999837,627.3124111000216,627.6138560000109,627.6138560000109,None,628.1144401999773,None,d,1,0.6521783000207506,628.1144401999773,None,None,None,,,,,,,,,,,,,,,,,,,,,,,12002,1,2,2024_Jun_02_1821,stroop_task_switching2_b,2021.2.3,59.35059762618678,
,,,黄,red,f,square,color_mix,单词,,incompatible,2,block_switch1_b,instruction/ready_test.png,instruction/i11.png,,,,,,,,,,,,,,,,,0,0,0,0,0,77,77,77,,,,,,,,,,,,,,,,,,,,,,,,,,,628.7992255999707,628.9991123999935,628.9657209999859,629.2659699000069,629.2659699000069,None,629.767025100009,None,f,1,1.1523758000112139,629.767025100009,None,None,None,,,,,,,,,,,,,,,,,,,,,,,12002,1,2,2024_Jun_02_1821,stroop_task_switching2_b,2021.2.3,59.35059762618678,
,,,红,red,k,square,color_mix,单词,,compatible,1,block_switch1_b,instruction/ready_test.png,instruction/i11.png,,,,,,,,,,,,,,,,,0,0,0,0,0,78,78,78,,,,,,,,,,,,,,,,,,,,,,,,,,,630.9345409999951,631.1355056000175,631.1189064999926,631.4190432999749,631.4190432999749,None,631.9200668999692,None,k,1,0.6068285000510514,631.9200668999692,None,None,None,,,,,,,,,,,,,,,,,,,,,,,12002,1,2,2024_Jun_02_1821,stroop_task_switching2_b,2021.2.3,59.35059762618678,
,,,黄,yellow,f,square,color_mix,单词,,compatible,1,block_switch1_b,instruction/ready_test.png,instruction/i11.png,,,,,,,,,,,,,,,,,0,0,0,0,0,79,79,79,,,,,,,,,,,,,,,,,,,,,,,,,,,632.5537144999835,632.7547431999701,632.7378814999829,633.0385565999895,633.0385565999895,None,633.5388864999986,None,f,1,1.3884395000059158,633.5388864999986,None,None,None,,,,,,,,,,,,,,,,,,,,,,,12002,1,2,2024_Jun_02_1821,stroop_task_switching2_b,2021.2.3,59.35059762618678,
,,,红,red,k,diamond,color_mix,颜色,,compatible,2,block_switch1_b,instruction/ready_test.png,instruction/i11.png,,,,,,,,,,,,,,,,,0,0,0,0,0,80,80,80,,,,,,,,,,,,,,,,,,,,,,,,,,,634.9579096999951,635.1576139000244,635.1412023999728,635.441877699981,635.441877699981,None,635.9428020999767,None,k,1,0.8561653000069782,635.9428020999767,None,None,None,,,,,,,,,,,,,,,,,,,,,,,12002,1,2,2024_Jun_02_1821,stroop_task_switching2_b,2021.2.3,59.35059762618678,
,,,红,red,k,square,color_mix,单词,,compatible,2,block_switch1_b,instruction/ready_test.png,instruction/i11.png,,,,,,,,,,,,,,,,,0,0,0,0,0,81,81,81,,,,,,,,,,,,,,,,,,,,,,,,,,,636.8272796000238,637.0277824000223,637.0111067999969,637.3106005999725,637.3106005999725,None,637.8125396000105,None,k,1,1.3147332999506034,637.8125396000105,None,None,None,,,,,,,,,,,,,,,,,,,,,,,12002,1,2,2024_Jun_02_1821,stroop_task_switching2_b,2021.2.3,59.35059762618678,
,,,黄,blue,j,diamond,color_mix,颜色,,incompatible,2,block_switch1_b,instruction/ready_test.png,instruction/i11.png,,,,,,,,,,,,,,,,,0,0,0,0,0,82,82,82,,,,,,,,,,,,,,,,,,,,,,,,,,,639.1465253999922,639.3474924999755,639.3310791999684,639.6317990999669,639.6317990999669,None,640.1315860999748,None,j,1,1.9713710999931209,640.1315860999748,None,None,None,,,,,,,,,,,,,,,,,,,,,,,12002,1,2,2024_Jun_02_1821,stroop_task_switching2_b,2021.2.3,59.35059762618678,
,,,红,yellow,f,diamond,color_mix,颜色,,incompatible,1,block_switch1_b,instruction/ready_test.png,instruction/i11.png,,,,,,,,,,,,,,,,,0,0,0,0,0,83,83,83,,,,,,,,,,,,,,,,,,,,,,,,,,,642.1183241999825,642.318512399972,642.3023058999679,642.6027784000034,642.6027784000034,None,643.1037086999859,None,f,1,0.9114220999763347,643.1037086999859,None,None,None,,,,,,,,,,,,,,,,,,,,,,,12002,1,2,2024_Jun_02_1821,stroop_task_switching2_b,2021.2.3,59.35059762618678,
,,,黄,red,k,diamond,color_mix,颜色,,incompatible,1,block_switch1_b,instruction/ready_test.png,instruction/i11.png,,,,,,,,,,,,,,,,,0,0,0,0,0,84,84,84,,,,,,,,,,,,,,,,,,,,,,,,,,,644.0383918000152,644.2388209999772,644.2221286999993,644.521464999998,644.521464999998,None,645.0233080000035,None,k,1,2.5283301000017673,645.0233080000035,None,None,None,,,,,,,,,,,,,,,,,,,,,,,12002,1,2,2024_Jun_02_1821,stroop_task_switching2_b,2021.2.3,59.35059762618678,
,,,蓝,blue,j,square,color_mix,单词,,compatible,2,block_switch1_b,instruction/ready_test.png,instruction/i11.png,,,,,,,,,,,,,,,,,0,0,0,0,0,85,85,85,,,,,,,,,,,,,,,,,,,,,,,,,,,647.5763722999836,647.7770251000184,647.7607081999886,648.0611211999785,648.0611211999785,None,648.5618991000229,None,j,1,1.7180883000255562,648.5618991000229,None,None,None,,,,,,,,,,,,,,,,,,,,,,,12002,1,2,2024_Jun_02_1821,stroop_task_switching2_b,2021.2.3,59.35059762618678,
,,,绿,green,d,square,color_mix,单词,,compatible,1,block_switch1_b,instruction/ready_test.png,instruction/i11.png,,,,,,,,,,,,,,,,,0,0,0,0,0,86,86,86,,,,,,,,,,,,,,,,,,,,,,,,,,,650.2969928000239,650.4981184999924,650.4816186999669,650.7817735999706,650.7817735999706,None,651.2818813999766,None,d,1,1.4612924000248313,651.2818813999766,None,None,None,,,,,,,,,,,,,,,,,,,,,,,12002,1,2,2024_Jun_02_1821,stroop_task_switching2_b,2021.2.3,59.35059762618678,
,,,红,red,k,square,color_mix,单词,,compatible,1,block_switch1_b,instruction/ready_test.png,instruction/i11.png,,,,,,,,,,,,,,,,,0,0,0,0,0,87,87,87,,,,,,,,,,,,,,,,,,,,,,,,,,,652.76831949997,652.9681783000124,652.9511340999743,653.2534088999964,653.2534088999964,None,653.7532074999763,None,k,1,0.8381984999869019,653.7532074999763,None,None,None,,,,,,,,,,,,,,,,,,,,,,,12002,1,2,2024_Jun_02_1821,stroop_task_switching2_b,2021.2.3,59.35059762618678,
,,,黄,green,d,diamond,color_mix,颜色,,incompatible,2,block_switch1_b,instruction/ready_test.png,instruction/i11.png,,,,,,,,,,,,,,,,,0,0,0,0,0,88,88,88,,,,,,,,,,,,,,,,,,,,,,,,,,,654.6201949999668,654.8226638999768,654.803777299996,655.1050793000031,655.1050793000031,None,655.6059392999741,None,d,1,0.9614115000003949,655.6059392999741,None,None,None,,,,,,,,,,,,,,,,,,,,,,,12002,1,2,2024_Jun_02_1821,stroop_task_switching2_b,2021.2.3,59.35059762618678,
,,,绿,red,d,square,color_mix,单词,,incompatible,2,block_switch1_b,instruction/ready_test.png,instruction/i11.png,,,,,,,,,,,,,,,,,0,0,0,0,0,89,89,89,,,,,,,,,,,,,,,,,,,,,,,,,,,656.5895196999772,656.7911031999975,656.7741798000061,657.0742254999932,657.0742254999932,None,657.5752041999949,None,d,1,1.5122365999850444,657.5752041999949,None,None,None,,,,,,,,,,,,,,,,,,,,,,,12002,1,2,2024_Jun_02_1821,stroop_task_switching2_b,2021.2.3,59.35059762618678,
,,,黄,green,f,square,color_mix,单词,,incompatible,1,block_switch1_b,instruction/ready_test.png,instruction/i11.png,,,,,,,,,,,,,,,,,0,0,0,0,0,90,90,90,,,,,,,,,,,,,,,,,,,,,,,,,,,659.1101466999971,659.3113559000194,659.294789800013,659.594708300021,659.594708300021,None,660.0956737999804,None,f,1,1.5437879000091925,660.0956737999804,None,None,None,,,,,,,,,,,,,,,,,,,,,,,12002,1,2,2024_Jun_02_1821,stroop_task_switching2_b,2021.2.3,59.35059762618678,
,,,蓝,blue,j,square,color_mix,单词,,compatible,1,block_switch1_b,instruction/ready_test.png,instruction/i11.png,,,,,,,,,,,,,,,,,0,0,0,0,0,91,91,91,,,,,,,,,,,,,,,,,,,,,,,,,,,661.6638898000238,661.8651922999998,661.8489670999697,662.1488960999995,662.1488960999995,None,662.6498149000108,None,j,1,2.229825799993705,662.6498149000108,None,None,None,,,,,,,,,,,,,,,,,,,,,,,12002,1,2,2024_Jun_02_1821,stroop_task_switching2_b,2021.2.3,59.35059762618678,
,,,蓝,red,j,square,color_mix,单词,,incompatible,1,block_switch1_b,instruction/ready_test.png,instruction/i11.png,,,,,,,,,,,,,,,,,0,0,0,0,0,92,92,92,,,,,,,,,,,,,,,,,,,,,,,,,,,664.903171700018,665.1036187999998,665.0867472999962,665.3863453000085,665.3863453000085,None,665.8883459999925,None,j,1,1.575192300020717,665.8883459999925,None,None,None,,,,,,,,,,,,,,,,,,,,,,,12002,1,2,2024_Jun_02_1821,stroop_task_switching2_b,2021.2.3,59.35059762618678,
,,,黄,blue,f,square,color_mix,单词,,incompatible,1,block_switch1_b,instruction/ready_test.png,instruction/i11.png,,,,,,,,,,,,,,,,,0,0,0,0,0,93,93,93,,,,,,,,,,,,,,,,,,,,,,,,,,,667.4892552000238,667.6902286999975,667.673703700013,667.9742168000084,667.9742168000084,None,668.4750859999913,None,f,1,0.7256118000368588,668.4750859999913,None,None,None,,,,,,,,,,,,,,,,,,,,,,,12002,1,2,2024_Jun_02_1821,stroop_task_switching2_b,2021.2.3,59.35059762618678,
,,,绿,red,k,diamond,color_mix,颜色,,incompatible,2,block_switch1_b,instruction/ready_test.png,instruction/i11.png,,,,,,,,,,,,,,,,,0,0,0,0,0,94,94,94,,,,,,,,,,,,,,,,,,,,,,,,,,,669.2253131999751,669.4266621000133,669.4100219000247,669.7104470999911,669.7104470999911,None,670.2112099999795,None,k,1,0.9012833000160754,670.2112099999795,None,None,None,,,,,,,,,,,,,,,,,,,,,,,12002,1,2,2024_Jun_02_1821,stroop_task_switching2_b,2021.2.3,59.35059762618678,
,,,蓝,blue,j,diamond,color_mix,颜色,,compatible,1,block_switch1_b,instruction/ready_test.png,instruction/i11.png,,,,,,,,,,,,,,,,,0,0,0,0,0,95,95,95,,,,,,,,,,,,,,,,,,,,,,,,,,,671.1283146999776,671.3295481000096,671.3128963999916,671.6128480000189,671.6128480000189,None,672.1138002999942,None,j,1,2.326659899961669,672.1138002999942,None,None,None,,,,,,,,,,,,,,,,,,,,,,,12002,1,2,2024_Jun_02_1821,stroop_task_switching2_b,2021.2.3,59.35059762618678,
,,,绿,green,d,square,color_mix,单词,,compatible,2,block_switch1_b,instruction/ready_test.png,instruction/i11.png,,,,,,,,,,,,,,,,,0,0,0,0,0,96,96,96,,,,,,,,,,,,,,,,,,,,,,,,,,,674.4674969000043,674.6667658999795,674.6501684999675,674.9517317999853,674.9517317999853,None,675.4522643000237,None,d,1,1.356187299999874,675.4522643000237,None,None,None,,,,,,,,,,,,,,,,,,,,,,,12002,1,2,2024_Jun_02_1821,stroop_task_switching2_b,2021.2.3,59.35059762618678,
,,,,,,,,,,,,block_switch1_b,instruction/ready_test.png,instruction/i11.png,,,,,,,,,,,,,,,,,0,0,0,0,,,,,,,,,,,,,,,,,,,,,,,,,,,,,,,,,,,,,,,,,,,,,,,,,,,,,,,,,,,,676.8377542999806,None,space,28.019031600037124,676.8377542999806,None,,,12002,1,2,2024_Jun_02_1821,stroop_task_switching2_b,2021.2.3,59.35059762618678,
,,,蓝,blue,j,square,color_mix,单词,,compatible,0,block_switch2_b,instruction/ready_2.png,instruction/i12.png,,,,,,,,,,,,,,,,,0,1,1,1,0,0,0,0,,,,,,,,,,,,,,,,,,,707.6333229999873,708.6347912999918,708.6347912999918,709.637173199968,709.637173199968,None,706.6484557000222,707.6512764000217,710.7055058999686,710.9059974999982,710.8725513999816,711.1726010999992,711.1726010999992,None,711.6571181999752,None,j,1,0.759830100054387,711.6571181999752,None,None,None,,,,,,,,,704.8968188000144,None,space,1.7279082000022754,704.8968188000144,None,,,,,,,,,12002,1,2,2024_Jun_02_1821,stroop_task_switching2_b,2021.2.3,59.35059762618678,
,,,黄,red,k,diamond,color_mix,颜色,,incompatible,2,block_switch2_b,instruction/ready_2.png,instruction/i12.png,,,,,,,,,,,,,,,,,0,1,1,1,0,1,1,1,,,,,,,,,,,,,,,,,,,,,,,,,,,712.4739983999752,712.674880800012,712.6248556000064,712.9256829000078,712.9256829000078,None,713.4253139999928,None,k,1,0.6561811999999918,713.4253139999928,None,None,None,,,,,,,,,,,,,,,,,,,,,,,12002,1,2,2024_Jun_02_1821,stroop_task_switching2_b,2021.2.3,59.35059762618678,
,,,蓝,green,d,diamond,color_mix,颜色,,incompatible,1,block_switch2_b,instruction/ready_2.png,instruction/i12.png,,,,,,,,,,,,,,,,,0,1,1,1,0,2,2,2,,,,,,,,,,,,,,,,,,,,,,,,,,,714.1265016999678,714.3274696000153,714.2944036999834,714.5949610999669,714.5949610999669,None,715.094479100022,None,f,0,0.8906248999992386,715.094479100022,None,None,None,,,,,,,,,,,,,,,,,,,,,,,12002,1,2,2024_Jun_02_1821,stroop_task_switching2_b,2021.2.3,59.35059762618678,
,,,红,yellow,f,diamond,color_mix,颜色,,incompatible,1,block_switch2_b,instruction/ready_2.png,instruction/i12.png,,,,,,,,,,,,,,,,,0,1,1,1,0,3,3,3,,,,,,,,,,,,,,,,,,,,,,,,,,,716.0292679999839,716.2306554999668,716.196172899974,716.4973936000024,716.4973936000024,None,716.9983474999899,None,f,1,1.4513259999803267,716.9983474999899,None,None,None,,,,,,,,,,,,,,,,,,,,,,,12002,1,2,2024_Jun_02_1821,stroop_task_switching2_b,2021.2.3,59.35059762618678,
,,,红,red,k,diamond,color_mix,颜色,,compatible,1,block_switch2_b,instruction/ready_2.png,instruction/i12.png,,,,,,,,,,,,,,,,,0,1,1,1,0,4,4,4,,,,,,,,,,,,,,,,,,,,,,,,,,,718.4661272999947,718.6666085000033,718.6500628999784,718.9514216000098,718.9514216000098,None,719.4510818999843,None,k,1,0.7820020000217482,719.4510818999843,None,None,None,,,,,,,,,,,,,,,,,,,,,,,12002,1,2,2024_Jun_02_1821,stroop_task_switching2_b,2021.2.3,59.35059762618678,
,,,绿,green,d,square,color_mix,单词,,compatible,2,block_switch2_b,instruction/ready_2.png,instruction/i12.png,,,,,,,,,,,,,,,,,0,1,1,1,0,5,5,5,,,,,,,,,,,,,,,,,,,,,,,,,,,720.2521942000021,720.453187600011,720.4365630000248,720.7369926999672,720.7369926999672,None,721.2380832000053,None,d,1,0.587167399993632,721.2380832000053,None,None,None,,,,,,,,,,,,,,,,,,,,,,,12002,1,2,2024_Jun_02_1821,stroop_task_switching2_b,2021.2.3,59.35059762618678,
,,,黄,blue,j,diamond,color_mix,颜色,,incompatible,2,block_switch2_b,instruction/ready_2.png,instruction/i12.png,,,,,,,,,,,,,,,,,0,1,1,1,0,6,6,6,,,,,,,,,,,,,,,,,,,,,,,,,,,721.871800999972,722.072895499994,722.0393280999851,722.3394714000169,722.3394714000169,None,722.8407161000068,None,j,1,0.7369291000068188,722.8407161000068,None,None,None,,,,,,,,,,,,,,,,,,,,,,,12002,1,2,2024_Jun_02_1821,stroop_task_switching2_b,2021.2.3,59.35059762618678,
,,,绿,yellow,d,square,color_mix,单词,,incompatible,2,block_switch2_b,instruction/ready_2.png,instruction/i12.png,,,,,,,,,,,,,,,,,0,1,1,1,0,7,7,7,,,,,,,,,,,,,,,,,,,,,,,,,,,723.6258283000207,723.8250909000053,723.7921702999738,724.0924557999824,724.0924557999824,None,724.5924439000082,None,d,1,0.7288154999841936,724.5924439000082,None,None,None,,,,,,,,,,,,,,,,,,,,,,,12002,1,2,2024_Jun_02_1821,stroop_task_switching2_b,2021.2.3,59.35059762618678,
