b_pra,ins_blocks,ins_blocks2,stim_word,stim_color,corrAns,cue_type,trial_type,task_type,rand,compatibility,switch,b_test,w_pic,w_pic2,trials_instr.thisRepN,trials_instr.thisTrialN,trials_instr.thisN,trials_instr.thisIndex,block_pra.thisRepN,block_pra.thisTrialN,block_pra.thisN,block_pra.thisIndex,trials_rep.thisRepN,trials_rep.thisTrialN,trials_rep.thisN,trials_rep.thisIndex,trials_pra.thisRepN,trials_pra.thisTrialN,trials_pra.thisN,trials_pra.thisIndex,trials_3.thisRepN,trials_3.thisTrialN,trials_3.thisN,trials_3.thisIndex,trials_2.thisRepN,trials_2.thisTrialN,trials_2.thisN,trials_2.thisIndex,instr_image.started,instr_image.stopped,instr_key_resp.keys,instr_key_resp.rt,instr_key_resp.started,instr_key_resp.stopped,instr_pra_image.started,instr_pra_image.stopped,ip_key_resp.keys,ip_key_resp.rt,ip_key_resp.started,ip_key_resp.stopped,block_image.started,block_image.stopped,ib_key_resp.keys,ib_key_resp.rt,ib_key_resp.started,ib_key_resp.stopped,cd3.started,cd3.stopped,cd2.started,cd2.stopped,cd1.started,cd1.stopped,cd_text.started,cd_text.stopped,text_fix.started,text_fix.stopped,text_2.started,text_2.stopped,text_4.started,text_4.stopped,text_target.started,text_target.stopped,key_resp.keys,key_resp.corr,key_resp.rt,key_resp.started,key_resp.stopped,sceen_black.started,sceen_black.stopped,text_fb.started,text_fb.stopped,text.started,text.stopped,key_bf.keys,key_bf.rt,key_bf.started,key_bf.stopped,instr_test_image.started,instr_test_image.stopped,instr_exp_key_resp.keys,instr_exp_key_resp.rt,instr_exp_key_resp.started,instr_exp_key_resp.stopped,text_rest.started,text_rest.stopped,key_resp_rest.keys,key_resp_rest.rt,key_resp_rest.started,key_resp_rest.stopped,text_3.started,text_3.stopped,participant,session,balance,date,expName,psychopyVersion,frameRate,
,,,,,,,,,,,,,,,0,0,0,0,,,,,,,,,,,,,,,,,,,,,10.936061199987307,None,right,1.4367913000751287,10.936061199987307,None,,,,,,,,,,,,,,,,,,,,,,,,,,,,,,,,,,,,,,,,,,,,,,,,,,,,,,,,,,12005,2,2,2024_Jun_13_1651,stroop_task_switching2_b,2021.2.3,59.773041771844774,
,,,,,,,,,,,,,,,1,0,1,0,,,,,,,,,,,,,,,,,,,,,12.42031479999423,None,right,31.416475500096567,12.42031479999423,None,,,,,,,,,,,,,,,,,,,,,,,,,,,,,,,,,,,,,,,,,,,,,,,,,,,,,,,,,,12005,2,2,2024_Jun_13_1651,stroop_task_switching2_b,2021.2.3,59.773041771844774,
,,,,,,,,,,,,,,,2,0,2,0,,,,,,,,,,,,,,,,,,,,,43.884346200036816,None,right,0.7366735000396147,43.884346200036816,None,,,,,,,,,,,,,,,,,,,,,,,,,,,,,,,,,,,,,,,,,,,,,,,,,,,,,,,,,,12005,2,2,2024_Jun_13_1651,stroop_task_switching2_b,2021.2.3,59.773041771844774,
,,,,,,,,,,,,,,,3,0,3,0,,,,,,,,,,,,,,,,,,,,,44.66910519998055,None,right,0.11990300007164478,44.66910519998055,None,,,,,,,,,,,,,,,,,,,,,,,,,,,,,,,,,,,,,,,,,,,,,,,,,,,,,,,,,,12005,2,2,2024_Jun_13_1651,stroop_task_switching2_b,2021.2.3,59.773041771844774,
,,,,,,,,,,,,,,,4,0,4,0,,,,,,,,,,,,,,,,,,,,,44.835698100039735,None,right,0.12138619995675981,44.835698100039735,None,,,,,,,,,,,,,,,,,,,,,,,,,,,,,,,,,,,,,,,,,,,,,,,,,,,,,,,,,,12005,2,2,2024_Jun_13_1651,stroop_task_switching2_b,2021.2.3,59.773041771844774,
,,,,,,,,,,,,,,,5,0,5,0,,,,,,,,,,,,,,,,,,,,,45.0027605999494,None,right,0.13012119999621063,45.0027605999494,None,,,,,,,,,,,,,,,,,,,,,,,,,,,,,,,,,,,,,,,,,,,,,,,,,,,,,,,,,,12005,2,2,2024_Jun_13_1651,stroop_task_switching2_b,2021.2.3,59.773041771844774,
,,,,,,,,,,,,,,,,,,,,,,,,,,,,,,,,,,,,,,,,,,,,,45.17017349996604,None,space,1.3715403999667615,45.17017349996604,None,,,,,,,,,,,,,,,,,,,,,,,,,,,,,,,,,,,,,,,,,,,,,,,,,,,,12005,2,2,2024_Jun_13_1651,stroop_task_switching2_b,2021.2.3,59.773041771844774,
condition/block_color_b,instruction/instr_color,instruction/i8_b,XX,red,k,diamond,color_single,颜色,,,,,,,,,,,0,0,0,0,0,0,0,0,0,0,0,0,,,,,,,,,,,,,,,,,,,,,46.58848829998169,None,space,3.63275099999737,46.58848829998169,None,51.29611270001624,52.29786839999724,52.29786839999724,53.29921209998429,53.29921209998429,None,50.31180989998393,51.31431749998592,54.26647200004663,54.466772399959154,54.466772399959154,54.767365299980156,54.75073640001938,None,55.25168330001179,None,k,1,1.4738669999642298,55.25168330001179,None,None,None,56.85395110002719,None,,,,,,,,,,,,,,,,,,,,,12005,2,2,2024_Jun_13_1651,stroop_task_switching2_b,2021.2.3,59.773041771844774,
condition/block_color_b,instruction/instr_color,instruction/i8_b,XX,green,d,diamond,color_single,颜色,,,,,,,,,,,0,0,0,0,0,0,0,0,0,1,1,1,,,,,,,,,,,,,,,,,,,,,,,,,,,,,,,,,,,57.85554130002856,58.056277700001374,58.03959790000226,58.34032499999739,58.34032499999739,None,58.84118430002127,None,d,1,1.404157100012526,58.84118430002127,None,None,None,60.29337710002437,None,,,,,,,,,,,,,,,,,,,,,12005,2,2,2024_Jun_13_1651,stroop_task_switching2_b,2021.2.3,59.773041771844774,
condition/block_color_b,instruction/instr_color,instruction/i8_b,XX,yellow,f,diamond,color_single,颜色,,,,,,,,,,,0,0,0,0,0,0,0,0,0,2,2,2,,,,,,,,,,,,,,,,,,,,,,,,,,,,,,,,,,,61.295042200013995,61.495325800031424,61.46072239999194,61.76210950000677,61.76210950000677,None,62.26331549999304,None,f,1,1.0141686000861228,62.26331549999304,None,None,None,63.29694010003004,None,,,,,,,,,,,,,,,,,,,,,12005,2,2,2024_Jun_13_1651,stroop_task_switching2_b,2021.2.3,59.773041771844774,
condition/block_color_b,instruction/instr_color,instruction/i8_b,XX,blue,j,diamond,color_single,颜色,,,,,,,,,,,0,0,0,0,0,0,0,0,0,3,3,3,,,,,,,,,,,,,,,,,,,,,,,,,,,,,,,,,,,64.29842060001101,64.49925170000643,64.48272830003407,64.78346529998817,64.78346529998817,None,65.28425789996982,None,j,1,0.8578879999695346,65.28425789996982,None,None,None,66.16843059996609,None,,,,,,,,,,,,,,,,,,,,,12005,2,2,2024_Jun_13_1651,stroop_task_switching2_b,2021.2.3,59.773041771844774,
condition/block_color_b,instruction/instr_color,instruction/i8_b,XX,green,d,diamond,color_single,颜色,,,,,,,,,,,0,0,0,0,0,0,0,0,0,4,4,4,,,,,,,,,,,,,,,,,,,,,,,,,,,,,,,,,,,67.17100039997604,67.36982979997993,67.35404100001324,67.65419549995568,67.65419549995568,None,68.15428100002464,None,d,1,0.9313697000034153,68.15428100002464,None,None,None,69.10576840001158,None,,,,,,,,,,,,,,,,,,,,,12005,2,2,2024_Jun_13_1651,stroop_task_switching2_b,2021.2.3,59.773041771844774,
condition/block_color_b,instruction/instr_color,instruction/i8_b,XX,yellow,f,diamond,color_single,颜色,,,,,,,,,,,0,0,0,0,0,0,0,0,0,5,5,5,,,,,,,,,,,,,,,,,,,,,,,,,,,,,,,,,,,70.10833339998499,70.30840600002557,70.29184429999441,70.59264459996484,70.59264459996484,None,71.09300560003612,None,f,1,0.8969927000580356,71.09300560003612,None,None,None,72.01013900001999,None,,,,,,,,,,,,,,,,,,,,,12005,2,2,2024_Jun_13_1651,stroop_task_switching2_b,2021.2.3,59.773041771844774,
condition/block_color_b,instruction/instr_color,instruction/i8_b,XX,blue,j,diamond,color_single,颜色,,,,,,,,,,,0,0,0,0,0,0,0,0,0,6,6,6,,,,,,,,,,,,,,,,,,,,,,,,,,,,,,,,,,,73.01251190004405,73.21222730004229,73.1950045999838,73.49567199999001,73.49567199999001,None,73.99644430004992,None,j,1,0.3852636000374332,73.99644430004992,None,None,None,74.39701169996988,None,,,,,,,,,,,,,,,,,,,,,12005,2,2,2024_Jun_13_1651,stroop_task_switching2_b,2021.2.3,59.773041771844774,
condition/block_color_b,instruction/instr_color,instruction/i8_b,XX,red,k,diamond,color_single,颜色,,,,,,,,,,,0,0,0,0,0,0,0,0,0,7,7,7,,,,,,,,,,,,,,,,,,,,,,,,,,,,,,,,,,,75.39838429994415,75.59962410002481,75.58310459996574,75.88376370002516,75.88376370002516,None,76.38431889994536,None,k,1,0.34129839995875955,76.38431889994536,None,None,None,76.75056860002223,None,,,,,,,,,,,,,,,,,,,,,12005,2,2,2024_Jun_13_1651,stroop_task_switching2_b,2021.2.3,59.773041771844774,
condition/block_color_b,instruction/instr_color,instruction/i8_b,XX,yellow,f,diamond,color_single,颜色,,,,,,,,,,,0,0,0,0,0,0,0,0,0,8,8,8,,,,,,,,,,,,,,,,,,,,,,,,,,,,,,,,,,,77.75215950002894,77.95413780002855,77.93566740001552,78.23718169995118,78.23718169995118,None,78.7370328999823,None,f,1,0.685579500044696,78.7370328999823,None,None,None,79.43775629997253,None,,,,,,,,,,,,,,,,,,,,,12005,2,2,2024_Jun_13_1651,stroop_task_switching2_b,2021.2.3,59.773041771844774,
condition/block_color_b,instruction/instr_color,instruction/i8_b,XX,blue,j,diamond,color_single,颜色,,,,,,,,,,,0,0,0,0,0,0,0,0,0,9,9,9,,,,,,,,,,,,,,,,,,,,,,,,,,,,,,,,,,,80.43952559994068,80.64097139996011,80.62314809998497,80.92480050004087,80.92480050004087,None,81.42488369997591,None,j,1,0.3176206999924034,81.42488369997591,None,None,None,81.75814409996383,None,,,,,,,,,,,,,,,,,,,,,12005,2,2,2024_Jun_13_1651,stroop_task_switching2_b,2021.2.3,59.773041771844774,
condition/block_color_b,instruction/instr_color,instruction/i8_b,XX,red,k,diamond,color_single,颜色,,,,,,,,,,,0,0,0,0,0,0,0,0,0,10,10,10,,,,,,,,,,,,,,,,,,,,,,,,,,,,,,,,,,,82.7595474999398,82.96132460003719,82.94332790002227,83.24468889995478,83.24468889995478,None,83.74557739996817,None,k,1,0.46152000001166016,83.74557739996817,None,None,None,84.22835640003905,None,,,,,,,,,,,,,,,,,,,,,12005,2,2,2024_Jun_13_1651,stroop_task_switching2_b,2021.2.3,59.773041771844774,
condition/block_color_b,instruction/instr_color,instruction/i8_b,XX,green,d,diamond,color_single,颜色,,,,,,,,,,,0,0,0,0,0,0,0,0,0,11,11,11,,,,,,,,,,,,,,,,,,,,,,,,,,,,,,,,,,,85.23005809995811,85.43125479994342,85.41355139994994,85.71415210003033,85.71415210003033,None,86.21568689995911,None,d,1,0.7587293999968097,86.21568689995911,None,None,None,86.99932429997716,None,,,,,,,,,,,,,,,,,,,,,12005,2,2,2024_Jun_13_1651,stroop_task_switching2_b,2021.2.3,59.773041771844774,
condition/block_color_b,instruction/instr_color,instruction/i8_b,XX,blue,j,diamond,color_single,颜色,,,,,,,,,,,0,0,0,0,0,0,0,0,0,12,12,12,,,,,,,,,,,,,,,,,,,,,,,,,,,,,,,,,,,88.00212910003029,88.20125419995748,88.18456460000016,88.48668810003437,88.48668810003437,None,89.00246420002077,None,j,1,0.8200470999581739,89.00246420002077,None,None,None,89.83702950004954,None,,,,,,,,,,,,,,,,,,,,,12005,2,2,2024_Jun_13_1651,stroop_task_switching2_b,2021.2.3,59.773041771844774,
condition/block_color_b,instruction/instr_color,instruction/i8_b,XX,red,k,diamond,color_single,颜色,,,,,,,,,,,0,0,0,0,0,0,0,0,0,13,13,13,,,,,,,,,,,,,,,,,,,,,,,,,,,,,,,,,,,90.83852420002222,91.03855900000781,91.02193899999838,91.32270489993971,91.32270489993971,None,91.82402489997912,None,k,1,0.5984695999650285,91.82402489997912,None,None,None,92.44097680004779,None,,,,,,,,,,,,,,,,,,,,,12005,2,2,2024_Jun_13_1651,stroop_task_switching2_b,2021.2.3,59.773041771844774,
condition/block_color_b,instruction/instr_color,instruction/i8_b,XX,green,d,diamond,color_single,颜色,,,,,,,,,,,0,0,0,0,0,0,0,0,0,14,14,14,,,,,,,,,,,,,,,,,,,,,,,,,,,,,,,,,,,93.44329189998098,93.64277429995127,93.62640169996303,93.92796090000775,93.92796090000775,None,94.42733059998136,None,d,1,0.5867151999846101,94.42733059998136,None,None,None,95.02792649995536,None,,,,,,,,,,,,,,,,,,,,,12005,2,2,2024_Jun_13_1651,stroop_task_switching2_b,2021.2.3,59.773041771844774,
condition/block_color_b,instruction/instr_color,instruction/i8_b,XX,yellow,f,diamond,color_single,颜色,,,,,,,,,,,0,0,0,0,0,0,0,0,0,15,15,15,,,,,,,,,,,,,,,,,,,,,,,,,,,,,,,,,,,96.03060840000398,96.2305412000278,96.21408720000181,96.51622610003687,96.51622610003687,None,97.01443969993852,None,f,1,0.5759982999879867,97.01443969993852,None,None,None,97.61557340004947,None,,,,,,,,,,,,,,,,,,,,,12005,2,2,2024_Jun_13_1651,stroop_task_switching2_b,2021.2.3,59.773041771844774,
condition/block_color_b,instruction/instr_color,instruction/i8_b,XX,red,k,diamond,color_single,颜色,,,,,,,,,,,0,0,0,0,0,0,0,0,0,16,16,16,,,,,,,,,,,,,,,,,,,,,,,,,,,,,,,,,,,98.61697049997747,98.81860340002459,98.80061629996635,99.1012553999899,99.1012553999899,None,99.60155110002961,None,k,1,0.5410870999330655,99.60155110002961,None,None,None,100.16939239995554,None,,,,,,,,,,,,,,,,,,,,,12005,2,2,2024_Jun_13_1651,stroop_task_switching2_b,2021.2.3,59.773041771844774,
condition/block_color_b,instruction/instr_color,instruction/i8_b,XX,green,d,diamond,color_single,颜色,,,,,,,,,,,0,0,0,0,0,0,0,0,0,17,17,17,,,,,,,,,,,,,,,,,,,,,,,,,,,,,,,,,,,101.17173479998019,101.37172099994496,101.35510980000254,101.65589880000334,101.65589880000334,None,102.1554336999543,None,d,1,0.6749459999846295,102.1554336999543,None,None,None,102.85655529994983,None,,,,,,,,,,,,,,,,,,,,,12005,2,2,2024_Jun_13_1651,stroop_task_switching2_b,2021.2.3,59.773041771844774,
condition/block_color_b,instruction/instr_color,instruction/i8_b,XX,yellow,f,diamond,color_single,颜色,,,,,,,,,,,0,0,0,0,0,0,0,0,0,18,18,18,,,,,,,,,,,,,,,,,,,,,,,,,,,,,,,,,,,103.85819840000477,104.05999900004826,104.04180460004136,104.34325309994165,104.34325309994165,None,104.84282400005031,None,f,1,0.5236161999637261,104.84282400005031,None,None,None,105.39391199999955,None,,,,,,,,,,,,,,,,,,,,,12005,2,2,2024_Jun_13_1651,stroop_task_switching2_b,2021.2.3,59.773041771844774,
condition/block_color_b,instruction/instr_color,instruction/i8_b,XX,blue,j,diamond,color_single,颜色,,,,,,,,,,,0,0,0,0,0,0,0,0,0,19,19,19,,,,,,,,,,,,,,,,,,,,,,,,,,,,,,,,,,,106.3961465000175,106.59582919999957,106.58051400003023,106.89677760004997,106.88063579995651,None,107.38078679994214,None,j,1,0.6501319000963122,107.38078679994214,None,None,None,108.04759760003071,None,,,,,,,,,,,,,,,,,,,,,12005,2,2,2024_Jun_13_1651,stroop_task_switching2_b,2021.2.3,59.773041771844774,
condition/block_color_b,instruction/instr_color,instruction/i8_b,XX,green,d,diamond,color_single,颜色,,,,,,,,,,,0,0,0,0,0,0,0,0,0,20,20,20,,,,,,,,,,,,,,,,,,,,,,,,,,,,,,,,,,,109.05022029997781,109.24946099997032,109.2335793999955,109.53334610001184,109.53334610001184,None,110.03416319994722,None,d,1,0.5167566000018269,110.03416319994722,None,None,None,110.5685986999888,None,,,,,,,,,,,,,,,,,,,,,12005,2,2,2024_Jun_13_1651,stroop_task_switching2_b,2021.2.3,59.773041771844774,
condition/block_color_b,instruction/instr_color,instruction/i8_b,XX,yellow,f,diamond,color_single,颜色,,,,,,,,,,,0,0,0,0,0,0,0,0,0,21,21,21,,,,,,,,,,,,,,,,,,,,,,,,,,,,,,,,,,,111.5697987000458,111.77036740002222,111.75315210002009,112.05501699994784,112.03708209993783,None,112.53782610001508,None,f,1,0.6531002999981865,112.53782610001508,None,None,None,113.2063600999536,None,,,,,,,,,,,,,,,,,,,,,12005,2,2,2024_Jun_13_1651,stroop_task_switching2_b,2021.2.3,59.773041771844774,
condition/block_color_b,instruction/instr_color,instruction/i8_b,XX,blue,j,diamond,color_single,颜色,,,,,,,,,,,0,0,0,0,0,0,0,0,0,22,22,22,,,,,,,,,,,,,,,,,,,,,,,,,,,,,,,,,,,114.20709010004066,114.40821809996851,114.39058879995719,114.69128160004038,114.69128160004038,None,115.19254139997065,None,j,1,0.4383572000078857,115.19254139997065,None,None,None,115.659209299949,None,,,,,,,,,,,,,,,,,,,,,12005,2,2,2024_Jun_13_1651,stroop_task_switching2_b,2021.2.3,59.773041771844774,
condition/block_color_b,instruction/instr_color,instruction/i8_b,XX,red,k,diamond,color_single,颜色,,,,,,,,,,,0,0,0,0,0,0,0,0,0,23,23,23,,,,,,,,,,,,,,,,,,,,,,,,,,,,,,,,,,,116.66116879996844,116.86098029999994,116.8443821000401,117.14578919997439,117.12814329995308,None,117.62906179996207,None,k,1,0.48209659999702126,117.62906179996207,None,None,None,118.12976030004211,None,,,,,,,,,,,,,,,,,,,,,12005,2,2,2024_Jun_13_1651,stroop_task_switching2_b,2021.2.3,59.773041771844774,
condition/block_color_b,instruction/instr_color,instruction/i8_b,,,,,,,,,,,,,,,,,0,0,0,0,0,0,0,0,,,,,,,,,,,,,,,,,,,,,,,,,,,,,,,,,,,,,,,,,,,,,,,,,,,,,,,,119.14804000000004,None,space,2.9442480000434443,119.14804000000004,None,,,,,,,,,,,,,,,12005,2,2,2024_Jun_13_1651,stroop_task_switching2_b,2021.2.3,59.773041771844774,
condition/block_color_b,instruction/instr_color,instruction/i8_b,,,,,,,,,,,,,,,,,0,0,0,0,,,,,,,,,,,,,,,,,,,,,,,,,,,,,,,,,,,,,,,,,,,,,,,,,,,,,,,,,,,,,,,,,,,,,,,,,,,,,,,,12005,2,2,2024_Jun_13_1651,stroop_task_switching2_b,2021.2.3,59.773041771844774,
condition/block_word_b,instruction/instr_word,instruction/i9_b,黄,white,f,square,word_single,单词,0.0032461461866890584,,,,,,,,,,0,1,1,1,0,0,0,0,0,0,0,0,,,,,,,,,,,,,,,,,,,,,122.15332649997436,None,space,4.6700042999582365,122.15332649997436,None,127.84600639995188,128.84649369993713,128.84649369993713,129.8473592000082,129.8473592000082,None,126.86081790004391,127.86173929995857,130.86494470003527,131.06639829999767,131.04902110004332,131.35049880004954,131.35049880004954,None,131.851048200042,None,f,1,0.8365743999602273,131.851048200042,None,None,None,132.75180760002695,None,,,,,,,,,,,,,,,,,,,,,12005,2,2,2024_Jun_13_1651,stroop_task_switching2_b,2021.2.3,59.773041771844774,
condition/block_word_b,instruction/instr_word,instruction/i9_b,蓝,white,j,square,word_single,单词,0.060540570646362424,,,,,,,,,,0,1,1,1,0,0,0,0,0,1,1,1,,,,,,,,,,,,,,,,,,,,,,,,,,,,,,,,,,,133.75309320003726,133.95345959998667,133.93695500004105,134.23811699997168,134.23811699997168,None,134.73812979995273,None,j,1,0.6696788999252021,134.73812979995273,None,None,None,135.42227179999463,None,,,,,,,,,,,,,,,,,,,,,12005,2,2,2024_Jun_13_1651,stroop_task_switching2_b,2021.2.3,59.773041771844774,
condition/block_word_b,instruction/instr_word,instruction/i9_b,黄,white,f,square,word_single,单词,0.06994067193778963,,,,,,,,,,0,1,1,1,0,0,0,0,0,2,2,2,,,,,,,,,,,,,,,,,,,,,,,,,,,,,,,,,,,136.4245676000137,136.6244551000418,136.60799869999755,136.90901619999204,136.90901619999204,None,137.40863820002414,None,d,0,0.8867203999543563,137.40863820002414,None,None,None,138.3438050999539,None,,,,,,,,,,,,,,,,,,,,,12005,2,2,2024_Jun_13_1651,stroop_task_switching2_b,2021.2.3,59.773041771844774,
condition/block_word_b,instruction/instr_word,instruction/i9_b,蓝,white,j,square,word_single,单词,0.08193765152950094,,,,,,,,,,0,1,1,1,0,0,0,0,0,3,3,3,,,,,,,,,,,,,,,,,,,,,,,,,,,,,,,,,,,139.34556219994556,139.54614450002555,139.52859729994088,139.82923419994768,139.81292749999557,None,140.31310399994254,None,j,1,0.6149044000776485,140.31310399994254,None,None,None,140.9473823000444,None,,,,,,,,,,,,,,,,,,,,,12005,2,2,2024_Jun_13_1651,stroop_task_switching2_b,2021.2.3,59.773041771844774,
condition/block_word_b,instruction/instr_word,instruction/i9_b,红,white,k,square,word_single,单词,0.1279694370605574,,,,,,,,,,0,1,1,1,0,0,0,0,0,4,4,4,,,,,,,,,,,,,,,,,,,,,,,,,,,,,,,,,,,141.94956350000575,142.15003040002193,142.13338390004355,142.43358489999082,142.43358489999082,None,142.93357909994666,None,k,1,0.7699515999993309,142.93357909994666,None,None,None,143.75249480002094,None,,,,,,,,,,,,,,,,,,,,,12005,2,2,2024_Jun_13_1651,stroop_task_switching2_b,2021.2.3,59.773041771844774,
condition/block_word_b,instruction/instr_word,instruction/i9_b,红,white,k,square,word_single,单词,0.18345028784879092,,,,,,,,,,0,1,1,1,0,0,0,0,0,5,5,5,,,,,,,,,,,,,,,,,,,,,,,,,,,,,,,,,,,144.75534389994573,144.97198339994065,144.92070060002152,145.22053219994996,145.22053219994996,None,145.72221749997698,None,k,1,0.8294156000483781,145.72221749997698,None,None,None,146.57238030002918,None,,,,,,,,,,,,,,,,,,,,,12005,2,2,2024_Jun_13_1651,stroop_task_switching2_b,2021.2.3,59.773041771844774,
condition/block_word_b,instruction/instr_word,instruction/i9_b,蓝,white,j,square,word_single,单词,0.19920386223101294,,,,,,,,,,0,1,1,1,0,0,0,0,0,6,6,6,,,,,,,,,,,,,,,,,,,,,,,,,,,,,,,,,,,147.57508720003534,147.7745636999607,147.75766979996115,148.05905140005052,148.04122909996659,None,148.54332349996548,None,j,1,0.8402506000129506,148.54332349996548,None,None,None,149.4103995000478,None,,,,,,,,,,,,,,,,,,,,,12005,2,2,2024_Jun_13_1651,stroop_task_switching2_b,2021.2.3,59.773041771844774,
condition/block_word_b,instruction/instr_word,instruction/i9_b,蓝,white,j,square,word_single,单词,0.26360599864925405,,,,,,,,,,0,1,1,1,0,0,0,0,0,7,7,7,,,,,,,,,,,,,,,,,,,,,,,,,,,,,,,,,,,150.41165320004802,150.6128416999709,150.59618300001603,150.89575070003048,150.89575070003048,None,151.39643820002675,None,j,1,0.4435823999810964,151.39643820002675,None,None,None,151.86398849997204,None,,,,,,,,,,,,,,,,,,,,,12005,2,2,2024_Jun_13_1651,stroop_task_switching2_b,2021.2.3,59.773041771844774,
condition/block_word_b,instruction/instr_word,instruction/i9_b,蓝,white,j,square,word_single,单词,0.358985675745526,,,,,,,,,,0,1,1,1,0,0,0,0,0,8,8,8,,,,,,,,,,,,,,,,,,,,,,,,,,,,,,,,,,,152.86615499993786,153.06733059999533,153.04910459998064,153.35024189995602,153.35024189995602,None,153.8501650999533,None,j,1,0.5577307000057772,153.8501650999533,None,None,None,154.43551049998496,None,,,,,,,,,,,,,,,,,,,,,12005,2,2,2024_Jun_13_1651,stroop_task_switching2_b,2021.2.3,59.773041771844774,
condition/block_word_b,instruction/instr_word,instruction/i9_b,绿,white,d,square,word_single,单词,0.36496733802487347,,,,,,,,,,0,1,1,1,0,0,0,0,0,9,9,9,,,,,,,,,,,,,,,,,,,,,,,,,,,,,,,,,,,155.43592630000785,155.63631710002664,155.62002969998866,155.92209200002253,155.92209200002253,None,156.43756979994942,None,d,1,0.5223579999292269,156.43756979994942,None,None,None,157.00526090001222,None,,,,,,,,,,,,,,,,,,,,,12005,2,2,2024_Jun_13_1651,stroop_task_switching2_b,2021.2.3,59.773041771844774,
condition/block_word_b,instruction/instr_word,instruction/i9_b,黄,white,f,square,word_single,单词,0.3743513623756727,,,,,,,,,,0,1,1,1,0,0,0,0,0,10,10,10,,,,,,,,,,,,,,,,,,,,,,,,,,,,,,,,,,,158.0083720999537,158.20656279998366,158.17349560000002,158.4740899000317,158.4740899000317,None,158.97601209999993,None,f,1,0.6400643000379205,158.97601209999993,None,None,None,159.64234879997093,None,,,,,,,,,,,,,,,,,,,,,12005,2,2,2024_Jun_13_1651,stroop_task_switching2_b,2021.2.3,59.773041771844774,
condition/block_word_b,instruction/instr_word,instruction/i9_b,红,white,k,square,word_single,单词,0.3894803852598544,,,,,,,,,,0,1,1,1,0,0,0,0,0,11,11,11,,,,,,,,,,,,,,,,,,,,,,,,,,,,,,,,,,,160.64474789996166,160.84484559996054,160.82740670000203,161.12849040003493,161.12849040003493,None,161.62944779999088,None,k,1,0.7470119000645354,161.62944779999088,None,None,None,162.39664029993583,None,,,,,,,,,,,,,,,,,,,,,12005,2,2,2024_Jun_13_1651,stroop_task_switching2_b,2021.2.3,59.773041771844774,
condition/block_word_b,instruction/instr_word,instruction/i9_b,绿,white,d,square,word_single,单词,0.5393759672408067,,,,,,,,,,0,1,1,1,0,0,0,0,0,12,12,12,,,,,,,,,,,,,,,,,,,,,,,,,,,,,,,,,,,163.39788619999308,163.59828269993886,163.58250579994638,163.88220180000644,163.88220180000644,None,164.3843355999561,None,d,1,0.7197729999898002,164.3843355999561,None,None,None,165.1506379999919,None,,,,,,,,,,,,,,,,,,,,,12005,2,2,2024_Jun_13_1651,stroop_task_switching2_b,2021.2.3,59.773041771844774,
condition/block_word_b,instruction/instr_word,instruction/i9_b,蓝,white,j,square,word_single,单词,0.5995731954831104,,,,,,,,,,0,1,1,1,0,0,0,0,0,13,13,13,,,,,,,,,,,,,,,,,,,,,,,,,,,,,,,,,,,166.15229839994572,166.35300340002868,166.3197722999612,166.61975469999015,166.61975469999015,None,167.1203048999887,None,j,1,1.0478784000733867,167.1203048999887,None,None,None,168.1886101999553,None,,,,,,,,,,,,,,,,,,,,,12005,2,2,2024_Jun_13_1651,stroop_task_switching2_b,2021.2.3,59.773041771844774,
condition/block_word_b,instruction/instr_word,instruction/i9_b,红,white,k,square,word_single,单词,0.6298674479151414,,,,,,,,,,0,1,1,1,0,0,0,0,0,14,14,14,,,,,,,,,,,,,,,,,,,,,,,,,,,,,,,,,,,169.18986459996086,169.3921256000176,169.3736069999868,169.6755492000375,169.6755492000375,None,170.1749752999749,None,k,1,0.37748290004674345,170.1749752999749,None,None,None,170.575323499972,None,,,,,,,,,,,,,,,,,,,,,12005,2,2,2024_Jun_13_1651,stroop_task_switching2_b,2021.2.3,59.773041771844774,
condition/block_word_b,instruction/instr_word,instruction/i9_b,红,white,k,square,word_single,单词,0.7389942282348904,,,,,,,,,,0,1,1,1,0,0,0,0,0,15,15,15,,,,,,,,,,,,,,,,,,,,,,,,,,,,,,,,,,,171.57739480002783,171.7775536000263,171.76186740002595,172.06146160000935,172.06146160000935,None,172.56182399997488,None,k,1,0.4706156998872757,172.56182399997488,None,None,None,173.0800159999635,None,,,,,,,,,,,,,,,,,,,,,12005,2,2,2024_Jun_13_1651,stroop_task_switching2_b,2021.2.3,59.773041771844774,
condition/block_word_b,instruction/instr_word,instruction/i9_b,绿,white,d,square,word_single,单词,0.7550853947239682,,,,,,,,,,0,1,1,1,0,0,0,0,0,16,16,16,,,,,,,,,,,,,,,,,,,,,,,,,,,,,,,,,,,174.08075199997984,174.28155569999944,174.24907929997426,174.5498447000282,174.5498447000282,None,175.0662266999716,None,d,1,0.6385892999824136,175.0662266999716,None,None,None,175.7501489999704,None,,,,,,,,,,,,,,,,,,,,,12005,2,2,2024_Jun_13_1651,stroop_task_switching2_b,2021.2.3,59.773041771844774,
condition/block_word_b,instruction/instr_word,instruction/i9_b,绿,white,d,square,word_single,单词,0.8019302780428206,,,,,,,,,,0,1,1,1,0,0,0,0,0,17,17,17,,,,,,,,,,,,,,,,,,,,,,,,,,,,,,,,,,,176.75213869998697,176.95206030004192,176.93579929997213,177.2359990000259,177.21876790001988,None,177.72029309999198,None,d,1,0.80830750009045,177.72029309999198,None,None,None,178.55397559993435,None,,,,,,,,,,,,,,,,,,,,,12005,2,2,2024_Jun_13_1651,stroop_task_switching2_b,2021.2.3,59.773041771844774,
condition/block_word_b,instruction/instr_word,instruction/i9_b,绿,white,d,square,word_single,单词,0.8110702914095343,,,,,,,,,,0,1,1,1,0,0,0,0,0,18,18,18,,,,,,,,,,,,,,,,,,,,,,,,,,,,,,,,,,,179.55638059997,179.75597880000714,179.7401204999769,180.04059250000864,180.04059250000864,None,180.54150659998413,None,d,1,0.37892739998642355,180.54150659998413,None,None,None,180.94138229999226,None,,,,,,,,,,,,,,,,,,,,,12005,2,2,2024_Jun_13_1651,stroop_task_switching2_b,2021.2.3,59.773041771844774,
condition/block_word_b,instruction/instr_word,instruction/i9_b,黄,white,f,square,word_single,单词,0.8176594937590999,,,,,,,,,,0,1,1,1,0,0,0,0,0,19,19,19,,,,,,,,,,,,,,,,,,,,,,,,,,,,,,,,,,,181.94319809996523,182.14321849995758,182.12675990001298,182.4267040999839,182.4267040999839,None,182.9284437999595,None,f,1,0.6882122999522835,182.9284437999595,None,None,None,183.6449813999934,None,,,,,,,,,,,,,,,,,,,,,12005,2,2,2024_Jun_13_1651,stroop_task_switching2_b,2021.2.3,59.773041771844774,
condition/block_word_b,instruction/instr_word,instruction/i9_b,红,white,k,square,word_single,单词,0.8955794421104841,,,,,,,,,,0,1,1,1,0,0,0,0,0,20,20,20,,,,,,,,,,,,,,,,,,,,,,,,,,,,,,,,,,,184.64667929999996,184.84768410003744,184.8302907999605,185.13125430000946,185.13125430000946,None,185.63243340002373,None,k,1,0.5848029999760911,185.63243340002373,None,None,None,186.23225390003063,None,,,,,,,,,,,,,,,,,,,,,12005,2,2,2024_Jun_13_1651,stroop_task_switching2_b,2021.2.3,59.773041771844774,
condition/block_word_b,instruction/instr_word,instruction/i9_b,绿,white,d,square,word_single,单词,0.9113598052474129,,,,,,,,,,0,1,1,1,0,0,0,0,0,21,21,21,,,,,,,,,,,,,,,,,,,,,,,,,,,,,,,,,,,187.2344807999907,187.4368554999819,187.41836619994137,187.71864269999787,187.71864269999787,None,188.21992299996782,None,d,1,0.5014942999696359,188.21992299996782,None,None,None,188.73607099999208,None,,,,,,,,,,,,,,,,,,,,,12005,2,2,2024_Jun_13_1651,stroop_task_switching2_b,2021.2.3,59.773041771844774,
condition/block_word_b,instruction/instr_word,instruction/i9_b,黄,white,f,square,word_single,单词,0.9215930958042953,,,,,,,,,,0,1,1,1,0,0,0,0,0,22,22,22,,,,,,,,,,,,,,,,,,,,,,,,,,,,,,,,,,,189.7378802000312,189.93788919993676,189.9211009000428,190.2224995000288,190.2224995000288,None,190.7226137999678,None,f,1,0.9104079999960959,190.7226137999678,None,None,None,191.65734759997576,None,,,,,,,,,,,,,,,,,,,,,12005,2,2,2024_Jun_13_1651,stroop_task_switching2_b,2021.2.3,59.773041771844774,
condition/block_word_b,instruction/instr_word,instruction/i9_b,黄,white,f,square,word_single,单词,0.9493525498837774,,,,,,,,,,0,1,1,1,0,0,0,0,0,23,23,23,,,,,,,,,,,,,,,,,,,,,,,,,,,,,,,,,,,192.65874690003693,192.85956789995544,192.84235409996472,193.14305489999242,193.14305489999242,None,193.64393959997687,None,f,1,0.5335760000161827,193.64393959997687,None,None,None,194.19444280001335,None,,,,,,,,,,,,,,,,,,,,,12005,2,2,2024_Jun_13_1651,stroop_task_switching2_b,2021.2.3,59.773041771844774,
condition/block_word_b,instruction/instr_word,instruction/i9_b,,,,,,,,,,,,,,,,,0,1,1,1,0,0,0,0,,,,,,,,,,,,,,,,,,,,,,,,,,,,,,,,,,,,,,,,,,,,,,,,,,,,,,,,195.21299839997664,None,space,3.2392662999918684,195.21299839997664,None,,,,,,,,,,,,,,,12005,2,2,2024_Jun_13_1651,stroop_task_switching2_b,2021.2.3,59.773041771844774,
condition/block_word_b,instruction/instr_word,instruction/i9_b,,,,,,,,,,,,,,,,,0,1,1,1,,,,,,,,,,,,,,,,,,,,,,,,,,,,,,,,,,,,,,,,,,,,,,,,,,,,,,,,,,,,,,,,,,,,,,,,,,,,,,,,12005,2,2,2024_Jun_13_1651,stroop_task_switching2_b,2021.2.3,59.773041771844774,
condition/block_mixed_b,instruction/instr_mixed,instruction/i10_b,蓝,red,k,diamond,color_mix,颜色,,incompatible,0,,,,,,,,0,2,2,2,0,0,0,0,0,0,0,0,,,,,,,,,,,,,,,,,,,,,198.50070109998342,None,space,4.524807200068608,198.50070109998342,None,204.04374270001426,205.04454849998,205.04454849998,206.04572379996534,206.04572379996534,None,203.05899119994137,204.0591595999431,207.08115770004224,207.28068169998005,207.26478339999449,207.56458290002774,207.56458290002774,None,208.04996169998776,None,k,1,0.9836378999752924,208.04996169998776,None,None,None,209.08355400001165,None,,,,,,,,,,,,,,,,,,,,,12005,2,2,2024_Jun_13_1651,stroop_task_switching2_b,2021.2.3,59.773041771844774,
condition/block_mixed_b,instruction/instr_mixed,instruction/i10_b,绿,yellow,f,diamond,color_mix,颜色,,incompatible,1,,,,,,,,0,2,2,2,0,0,0,0,0,1,1,1,,,,,,,,,,,,,,,,,,,,,,,,,,,,,,,,,,,210.06879849999677,210.26849389995914,210.2349771000445,210.53646870004013,210.55311640002765,None,211.05383250000887,None,f,1,0.819373800070025,211.05383250000887,None,None,None,211.92135229997803,None,,,,,,,,,,,,,,,,,,,,,12005,2,2,2024_Jun_13_1651,stroop_task_switching2_b,2021.2.3,59.773041771844774,
condition/block_mixed_b,instruction/instr_mixed,instruction/i10_b,红,green,d,diamond,color_mix,颜色,,incompatible,1,,,,,,,,0,2,2,2,0,0,0,0,0,2,2,2,,,,,,,,,,,,,,,,,,,,,,,,,,,,,,,,,,,212.92374050000217,213.12423840002157,213.1068894000491,213.40760449995287,213.40760449995287,None,213.9072858999716,None,d,1,0.7262483000522479,213.9072858999716,None,None,None,214.6583778000204,None,,,,,,,,,,,,,,,,,,,,,12005,2,2,2024_Jun_13_1651,stroop_task_switching2_b,2021.2.3,59.773041771844774,
condition/block_mixed_b,instruction/instr_mixed,instruction/i10_b,蓝,red,k,diamond,color_mix,颜色,,incompatible,1,,,,,,,,0,2,2,2,0,0,0,0,0,3,3,3,,,,,,,,,,,,,,,,,,,,,,,,,,,,,,,,,,,215.6600247999886,215.8602582999738,215.8440658999607,216.14595589996316,216.14595589996316,None,216.64544809993822,None,k,1,0.8844839999219403,216.64544809993822,None,None,None,217.5459886000026,None,,,,,,,,,,,,,,,,,,,,,12005,2,2,2024_Jun_13_1651,stroop_task_switching2_b,2021.2.3,59.773041771844774,
condition/block_mixed_b,instruction/instr_mixed,instruction/i10_b,红,blue,j,diamond,color_mix,颜色,,incompatible,1,,,,,,,,0,2,2,2,0,0,0,0,0,4,4,4,,,,,,,,,,,,,,,,,,,,,,,,,,,,,,,,,,,218.5477495000232,218.7488178999629,218.73209549998865,219.0316584999673,219.0316584999673,None,219.53347070002928,None,j,1,0.8202882000477985,219.53347070002928,None,None,None,220.40057789999992,None,,,,,,,,,,,,,,,,,,,,,12005,2,2,2024_Jun_13_1651,stroop_task_switching2_b,2021.2.3,59.773041771844774,
condition/block_mixed_b,instruction/instr_mixed,instruction/i10_b,红,blue,k,square,color_mix,单词,,incompatible,2,,,,,,,,0,2,2,2,0,0,0,0,0,5,5,5,,,,,,,,,,,,,,,,,,,,,,,,,,,,,,,,,,,221.40183490002528,221.60353980003856,221.58730120002292,221.8865162000293,221.8865162000293,None,222.38841000001412,None,k,1,0.6935119000263512,222.38841000001412,None,None,None,223.1045798000414,None,,,,,,,,,,,,,,,,,,,,,12005,2,2,2024_Jun_13_1651,stroop_task_switching2_b,2021.2.3,59.773041771844774,
condition/block_mixed_b,instruction/instr_mixed,instruction/i10_b,红,yellow,f,diamond,color_mix,颜色,,incompatible,2,,,,,,,,0,2,2,2,0,0,0,0,0,6,6,6,,,,,,,,,,,,,,,,,,,,,,,,,,,,,,,,,,,224.106196800014,224.30657420004718,224.2914040000178,224.6068616999546,224.5906139999861,None,225.0908100999659,None,k,0,1.2633024000097066,225.0908100999659,None,None,None,226.37599359999876,None,,,,,,,,,,,,,,,,,,,,,12005,2,2,2024_Jun_13_1651,stroop_task_switching2_b,2021.2.3,59.773041771844774,
condition/block_mixed_b,instruction/instr_mixed,instruction/i10_b,红,yellow,k,square,color_mix,单词,,incompatible,2,,,,,,,,0,2,2,2,0,0,0,0,0,7,7,7,,,,,,,,,,,,,,,,,,,,,,,,,,,,,,,,,,,227.3778289000038,227.57831070001703,227.5621083000442,227.86249530001078,227.86249530001078,None,228.3629784999648,None,f,0,0.679540199926123,228.3629784999648,None,None,None,229.0636837000493,None,,,,,,,,,,,,,,,,,,,,,12005,2,2,2024_Jun_13_1651,stroop_task_switching2_b,2021.2.3,59.773041771844774,
condition/block_mixed_b,instruction/instr_mixed,instruction/i10_b,绿,blue,d,square,color_mix,单词,,incompatible,1,,,,,,,,0,2,2,2,0,0,0,0,0,8,8,8,,,,,,,,,,,,,,,,,,,,,,,,,,,,,,,,,,,230.0660853999434,230.26651079999283,230.24891810002737,230.55058209993877,230.55058209993877,None,231.05002720002085,None,d,1,0.8318795999512076,231.05002720002085,None,None,None,231.90116709994618,None,,,,,,,,,,,,,,,,,,,,,12005,2,2,2024_Jun_13_1651,stroop_task_switching2_b,2021.2.3,59.773041771844774,
condition/block_mixed_b,instruction/instr_mixed,instruction/i10_b,蓝,green,d,diamond,color_mix,颜色,,incompatible,2,,,,,,,,0,2,2,2,0,0,0,0,0,9,9,9,,,,,,,,,,,,,,,,,,,,,,,,,,,,,,,,,,,232.90313770005014,233.10311909997836,233.08718060003594,233.3874237999553,233.3874237999553,None,233.88740609993692,None,d,1,0.9864493999630213,233.88740609993692,None,None,None,234.8890769999707,None,,,,,,,,,,,,,,,,,,,,,12005,2,2,2024_Jun_13_1651,stroop_task_switching2_b,2021.2.3,59.773041771844774,
condition/block_mixed_b,instruction/instr_mixed,instruction/i10_b,蓝,yellow,j,square,color_mix,单词,,incompatible,2,,,,,,,,0,2,2,2,0,0,0,0,0,10,10,10,,,,,,,,,,,,,,,,,,,,,,,,,,,,,,,,,,,235.89074019994587,236.09062919998541,236.0752094000345,236.37520290003158,236.37520290003158,None,236.87666449998505,None,j,1,0.8055051000555977,236.87666449998505,None,None,None,237.72675769997295,None,,,,,,,,,,,,,,,,,,,,,12005,2,2,2024_Jun_13_1651,stroop_task_switching2_b,2021.2.3,59.773041771844774,
condition/block_mixed_b,instruction/instr_mixed,instruction/i10_b,蓝,green,j,square,color_mix,单词,,incompatible,1,,,,,,,,0,2,2,2,0,0,0,0,0,11,11,11,,,,,,,,,,,,,,,,,,,,,,,,,,,,,,,,,,,238.72828449995723,238.9292711999733,238.91182209993713,239.21238539996557,239.19646290002856,None,239.69698899996,None,j,1,0.714192199986428,239.69698899996,None,None,None,240.43124179996084,None,,,,,,,,,,,,,,,,,,,,,12005,2,2,2024_Jun_13_1651,stroop_task_switching2_b,2021.2.3,59.773041771844774,
condition/block_mixed_b,instruction/instr_mixed,instruction/i10_b,绿,yellow,d,square,color_mix,单词,,incompatible,1,,,,,,,,0,2,2,2,0,0,0,0,0,12,12,12,,,,,,,,,,,,,,,,,,,,,,,,,,,,,,,,,,,241.43213930004276,241.6326627000235,241.6167195000453,241.91633269994054,241.91633269994054,None,242.4177501000231,None,d,1,1.4087119000032544,242.4177501000231,None,None,None,243.8526736999629,None,,,,,,,,,,,,,,,,,,,,,12005,2,2,2024_Jun_13_1651,stroop_task_switching2_b,2021.2.3,59.773041771844774,
condition/block_mixed_b,instruction/instr_mixed,instruction/i10_b,绿,blue,j,diamond,color_mix,颜色,,incompatible,2,,,,,,,,0,2,2,2,0,0,0,0,0,13,13,13,,,,,,,,,,,,,,,,,,,,,,,,,,,,,,,,,,,244.85390650003683,245.05650029995013,245.0378474999452,245.33850549999624,245.33850549999624,None,245.83898250001948,None,j,1,0.9321364000206813,245.83898250001948,None,None,None,246.79027829994448,None,,,,,,,,,,,,,,,,,,,,,12005,2,2,2024_Jun_13_1651,stroop_task_switching2_b,2021.2.3,59.773041771844774,
condition/block_mixed_b,instruction/instr_mixed,instruction/i10_b,黄,red,f,square,color_mix,单词,,incompatible,2,,,,,,,,0,2,2,2,0,0,0,0,0,14,14,14,,,,,,,,,,,,,,,,,,,,,,,,,,,,,,,,,,,247.7928389000008,247.9919703999767,247.97615070000757,248.27658860001247,248.27658860001247,None,248.77824110002257,None,f,1,1.4649908000137657,248.77824110002257,None,None,None,250.26209279999603,None,,,,,,,,,,,,,,,,,,,,,12005,2,2,2024_Jun_13_1651,stroop_task_switching2_b,2021.2.3,59.773041771844774,
condition/block_mixed_b,instruction/instr_mixed,instruction/i10_b,蓝,yellow,f,diamond,color_mix,颜色,,incompatible,2,,,,,,,,0,2,2,2,0,0,0,0,0,15,15,15,,,,,,,,,,,,,,,,,,,,,,,,,,,,,,,,,,,251.26385859993752,251.46416470000986,251.44820109999273,251.7481645999942,251.7481645999942,None,252.248890100047,None,f,1,0.9621579999802634,252.248890100047,None,None,None,253.23331719997805,None,,,,,,,,,,,,,,,,,,,,,12005,2,2,2024_Jun_13_1651,stroop_task_switching2_b,2021.2.3,59.773041771844774,
condition/block_mixed_b,instruction/instr_mixed,instruction/i10_b,黄,red,k,diamond,color_mix,颜色,,incompatible,1,,,,,,,,0,2,2,2,0,0,0,0,0,16,16,16,,,,,,,,,,,,,,,,,,,,,,,,,,,,,,,,,,,254.2348650000058,254.43603840004653,254.420727299992,254.7364285000367,254.71888499998022,None,255.2197527999524,None,k,1,0.6787051999708638,255.2197527999524,None,None,None,255.9205986999441,None,,,,,,,,,,,,,,,,,,,,,12005,2,2,2024_Jun_13_1651,stroop_task_switching2_b,2021.2.3,59.773041771844774,
condition/block_mixed_b,instruction/instr_mixed,instruction/i10_b,绿,red,d,square,color_mix,单词,,incompatible,2,,,,,,,,0,2,2,2,0,0,0,0,0,17,17,17,,,,,,,,,,,,,,,,,,,,,,,,,,,,,,,,,,,256.92243579996284,257.1237335000187,257.10693769995123,257.4081010000082,257.4081010000082,None,257.92363989993464,None,d,1,0.9357098999898881,257.92363989993464,None,None,None,258.87544980004895,None,,,,,,,,,,,,,,,,,,,,,12005,2,2,2024_Jun_13_1651,stroop_task_switching2_b,2021.2.3,59.773041771844774,
condition/block_mixed_b,instruction/instr_mixed,instruction/i10_b,红,green,k,square,color_mix,单词,,incompatible,1,,,,,,,,0,2,2,2,0,0,0,0,0,18,18,18,,,,,,,,,,,,,,,,,,,,,,,,,,,,,,,,,,,259.87685240001883,260.0782810000237,260.0605238999706,260.3615346000297,260.3615346000297,None,260.86165139998775,None,k,1,0.8452098000561818,260.86165139998775,None,None,None,261.7296538000228,None,,,,,,,,,,,,,,,,,,,,,12005,2,2,2024_Jun_13_1651,stroop_task_switching2_b,2021.2.3,59.773041771844774,
condition/block_mixed_b,instruction/instr_mixed,instruction/i10_b,黄,blue,j,diamond,color_mix,颜色,,incompatible,2,,,,,,,,0,2,2,2,0,0,0,0,0,19,19,19,,,,,,,,,,,,,,,,,,,,,,,,,,,,,,,,,,,262.7314098000061,262.9318448000122,262.91587170003913,263.21545649995096,263.21545649995096,None,263.7157927999506,None,j,1,0.9363107999088243,263.7157927999506,None,None,None,264.6673004999757,None,,,,,,,,,,,,,,,,,,,,,12005,2,2,2024_Jun_13_1651,stroop_task_switching2_b,2021.2.3,59.773041771844774,
condition/block_mixed_b,instruction/instr_mixed,instruction/i10_b,黄,green,d,diamond,color_mix,颜色,,incompatible,1,,,,,,,,0,2,2,2,0,0,0,0,0,20,20,20,,,,,,,,,,,,,,,,,,,,,,,,,,,,,,,,,,,265.6695997000206,265.8708486999385,265.852302000043,266.1528663999634,266.1528663999634,None,266.6536226000171,None,d,1,0.7572506000287831,266.6536226000171,None,None,None,267.4384803000139,None,,,,,,,,,,,,,,,,,,,,,12005,2,2,2024_Jun_13_1651,stroop_task_switching2_b,2021.2.3,59.773041771844774,
condition/block_mixed_b,instruction/instr_mixed,instruction/i10_b,黄,green,f,square,color_mix,单词,,incompatible,2,,,,,,,,0,2,2,2,0,0,0,0,0,21,21,21,,,,,,,,,,,,,,,,,,,,,,,,,,,,,,,,,,,268.4397628000006,268.64049699995667,268.62396160000935,268.92473870003596,268.92473870003596,None,269.4246622000355,None,f,1,0.5705557999899611,269.4246622000355,None,None,None,270.0252850999823,None,,,,,,,,,,,,,,,,,,,,,12005,2,2,2024_Jun_13_1651,stroop_task_switching2_b,2021.2.3,59.773041771844774,
condition/block_mixed_b,instruction/instr_mixed,instruction/i10_b,黄,blue,f,square,color_mix,单词,,incompatible,1,,,,,,,,0,2,2,2,0,0,0,0,0,22,22,22,,,,,,,,,,,,,,,,,,,,,,,,,,,,,,,,,,,271.0275010999758,271.2280660000397,271.2105071999831,271.5110788999591,271.5110788999591,None,272.0125181999756,None,j,0,0.7747706999070942,272.0125181999756,None,None,None,272.8127621000167,None,,,,,,,,,,,,,,,,,,,,,12005,2,2,2024_Jun_13_1651,stroop_task_switching2_b,2021.2.3,59.773041771844774,
condition/block_mixed_b,instruction/instr_mixed,instruction/i10_b,蓝,red,j,square,color_mix,单词,,incompatible,1,,,,,,,,0,2,2,2,0,0,0,0,0,23,23,23,,,,,,,,,,,,,,,,,,,,,,,,,,,,,,,,,,,273.8144317000406,274.01475500001106,273.998613200034,274.30067679996137,274.30067679996137,None,274.7990417999681,None,k,0,1.4600998000241816,274.7990417999681,None,None,None,276.28472739993595,None,,,,,,,,,,,,,,,,,,,,,12005,2,2,2024_Jun_13_1651,stroop_task_switching2_b,2021.2.3,59.773041771844774,
condition/block_mixed_b,instruction/instr_mixed,instruction/i10_b,绿,red,k,diamond,color_mix,颜色,,incompatible,2,,,,,,,,0,2,2,2,0,0,0,0,0,24,24,24,,,,,,,,,,,,,,,,,,,,,,,,,,,,,,,,,,,277.2870829999447,277.4877749000443,277.47020909993444,277.7713572999928,277.7713572999928,None,278.2718155999901,None,k,1,1.3795564000029117,278.2718155999901,None,None,None,279.6732672000071,None,,,,,,,,,,,,,,,,,,,,,12005,2,2,2024_Jun_13_1651,stroop_task_switching2_b,2021.2.3,59.773041771844774,
condition/block_mixed_b,instruction/instr_mixed,instruction/i10_b,绿,green,d,diamond,color_mix,颜色,,compatible,1,,,,,,,,0,2,2,2,0,0,0,0,0,25,25,25,,,,,,,,,,,,,,,,,,,,,,,,,,,,,,,,,,,280.6747625999851,280.87625339999795,280.85873969993554,281.15970850002486,281.15970850002486,None,281.66066809999757,None,d,1,0.8550929999910295,281.66066809999757,None,None,None,282.5441706000129,None,,,,,,,,,,,,,,,,,,,,,12005,2,2,2024_Jun_13_1651,stroop_task_switching2_b,2021.2.3,59.773041771844774,
condition/block_mixed_b,instruction/instr_mixed,instruction/i10_b,蓝,blue,j,diamond,color_mix,颜色,,compatible,1,,,,,,,,0,2,2,2,0,0,0,0,0,26,26,26,,,,,,,,,,,,,,,,,,,,,,,,,,,,,,,,,,,283.5459409999894,283.74770109995734,283.7293762000045,284.03087569994386,284.03087569994386,None,284.531245399965,None,j,1,1.3051015998935327,284.531245399965,None,None,None,285.8658687999705,None,,,,,,,,,,,,,,,,,,,,,12005,2,2,2024_Jun_13_1651,stroop_task_switching2_b,2021.2.3,59.773041771844774,
condition/block_mixed_b,instruction/instr_mixed,instruction/i10_b,绿,green,d,square,color_mix,单词,,compatible,2,,,,,,,,0,2,2,2,0,0,0,0,0,27,27,27,,,,,,,,,,,,,,,,,,,,,,,,,,,,,,,,,,,286.8688916999381,287.0853926000418,287.05109940003604,287.3524641999975,287.3524641999975,None,287.8522801999934,None,d,1,1.1598125000018626,287.8522801999934,None,None,None,289.0375136999646,None,,,,,,,,,,,,,,,,,,,,,12005,2,2,2024_Jun_13_1651,stroop_task_switching2_b,2021.2.3,59.773041771844774,
condition/block_mixed_b,instruction/instr_mixed,instruction/i10_b,绿,green,d,square,color_mix,单词,,compatible,1,,,,,,,,0,2,2,2,0,0,0,0,0,28,28,28,,,,,,,,,,,,,,,,,,,,,,,,,,,,,,,,,,,290.0401085000485,290.2405389000196,290.22252439998556,290.5235528999474,290.5235528999474,None,291.0237253999803,None,d,1,0.5402624000562355,291.0237253999803,None,None,None,291.5911468999693,None,,,,,,,,,,,,,,,,,,,,,12005,2,2,2024_Jun_13_1651,stroop_task_switching2_b,2021.2.3,59.773041771844774,
condition/block_mixed_b,instruction/instr_mixed,instruction/i10_b,蓝,blue,j,square,color_mix,单词,,compatible,1,,,,,,,,0,2,2,2,0,0,0,0,0,29,29,29,,,,,,,,,,,,,,,,,,,,,,,,,,,,,,,,,,,292.5934855999658,292.7943052999908,292.77628780005034,293.07681650004815,293.07681650004815,None,293.5785292999353,None,j,1,1.065016399952583,293.5785292999353,None,None,None,294.6624475000426,None,,,,,,,,,,,,,,,,,,,,,12005,2,2,2024_Jun_13_1651,stroop_task_switching2_b,2021.2.3,59.773041771844774,
condition/block_mixed_b,instruction/instr_mixed,instruction/i10_b,黄,yellow,f,diamond,color_mix,颜色,,compatible,2,,,,,,,,0,2,2,2,0,0,0,0,0,30,30,30,,,,,,,,,,,,,,,,,,,,,,,,,,,,,,,,,,,295.6650130000198,295.86547800002154,295.84772489999887,296.1480742000276,296.1480742000276,None,296.6487014000304,None,f,1,0.7709898999892175,296.6487014000304,None,None,None,297.45058339997195,None,,,,,,,,,,,,,,,,,,,,,12005,2,2,2024_Jun_13_1651,stroop_task_switching2_b,2021.2.3,59.773041771844774,
condition/block_mixed_b,instruction/instr_mixed,instruction/i10_b,绿,green,d,square,color_mix,单词,,compatible,2,,,,,,,,0,2,2,2,0,0,0,0,0,31,31,31,,,,,,,,,,,,,,,,,,,,,,,,,,,,,,,,,,,298.4515566000482,298.65236690000165,298.6350278999889,298.93574879993685,298.93574879993685,None,299.4371923999861,None,d,1,0.783144999993965,299.4371923999861,None,None,None,300.2376856999472,None,,,,,,,,,,,,,,,,,,,,,12005,2,2,2024_Jun_13_1651,stroop_task_switching2_b,2021.2.3,59.773041771844774,
condition/block_mixed_b,instruction/instr_mixed,instruction/i10_b,黄,yellow,f,square,color_mix,单词,,compatible,1,,,,,,,,0,2,2,2,0,0,0,0,0,32,32,32,,,,,,,,,,,,,,,,,,,,,,,,,,,,,,,,,,,301.2390684999991,301.4393512000097,301.42368300003,301.7235581999412,301.7235581999412,None,302.22391459997743,None,f,1,1.3489532000385225,302.22391459997743,None,None,None,303.59251450002193,None,,,,,,,,,,,,,,,,,,,,,12005,2,2,2024_Jun_13_1651,stroop_task_switching2_b,2021.2.3,59.773041771844774,
condition/block_mixed_b,instruction/instr_mixed,instruction/i10_b,绿,green,d,diamond,color_mix,颜色,,compatible,2,,,,,,,,0,2,2,2,0,0,0,0,0,33,33,33,,,,,,,,,,,,,,,,,,,,,,,,,,,,,,,,,,,304.5942653999664,304.7944881999865,304.7784663999919,305.0797154000029,305.0797154000029,None,305.5788711999776,None,d,1,0.5771948000183329,305.5788711999776,None,None,None,306.179943599971,None,,,,,,,,,,,,,,,,,,,,,12005,2,2,2024_Jun_13_1651,stroop_task_switching2_b,2021.2.3,59.773041771844774,
condition/block_mixed_b,instruction/instr_mixed,instruction/i10_b,红,red,k,square,color_mix,单词,,compatible,2,,,,,,,,0,2,2,2,0,0,0,0,0,34,34,34,,,,,,,,,,,,,,,,,,,,,,,,,,,,,,,,,,,307.18140809994657,307.38215029996354,307.36561330000404,307.6655478000175,307.6655478000175,None,308.1660147999646,None,k,1,0.6859621999319643,308.1660147999646,None,None,None,308.8672643000027,None,,,,,,,,,,,,,,,,,,,,,12005,2,2,2024_Jun_13_1651,stroop_task_switching2_b,2021.2.3,59.773041771844774,
condition/block_mixed_b,instruction/instr_mixed,instruction/i10_b,黄,yellow,f,square,color_mix,单词,,compatible,1,,,,,,,,0,2,2,2,0,0,0,0,0,35,35,35,,,,,,,,,,,,,,,,,,,,,,,,,,,,,,,,,,,309.86883930000477,310.06956079998054,310.0537747000344,310.3536776000401,310.3536776000401,None,310.85366679995786,None,f,1,1.4635811999905854,310.85366679995786,None,None,None,312.3393217000412,None,,,,,,,,,,,,,,,,,,,,,12005,2,2,2024_Jun_13_1651,stroop_task_switching2_b,2021.2.3,59.773041771844774,
condition/block_mixed_b,instruction/instr_mixed,instruction/i10_b,绿,green,d,diamond,color_mix,颜色,,compatible,2,,,,,,,,0,2,2,2,0,0,0,0,0,36,36,36,,,,,,,,,,,,,,,,,,,,,,,,,,,,,,,,,,,313.3416587000247,313.54141569999047,313.52538889995776,313.82621500000823,313.82621500000823,None,314.32560999994166,None,d,1,0.5431851999601349,314.32560999994166,None,None,None,314.89309030002914,None,,,,,,,,,,,,,,,,,,,,,12005,2,2,2024_Jun_13_1651,stroop_task_switching2_b,2021.2.3,59.773041771844774,
condition/block_mixed_b,instruction/instr_mixed,instruction/i10_b,蓝,blue,j,square,color_mix,单词,,compatible,2,,,,,,,,0,2,2,2,0,0,0,0,0,37,37,37,,,,,,,,,,,,,,,,,,,,,,,,,,,,,,,,,,,315.8955980000319,316.0959506999934,316.07917939999606,316.3812263000291,316.3812263000291,None,316.89607210003305,None,j,1,0.8449452000204474,316.89607210003305,None,None,None,317.7639764000196,None,,,,,,,,,,,,,,,,,,,,,12005,2,2,2024_Jun_13_1651,stroop_task_switching2_b,2021.2.3,59.773041771844774,
condition/block_mixed_b,instruction/instr_mixed,instruction/i10_b,红,red,k,square,color_mix,单词,,compatible,1,,,,,,,,0,2,2,2,0,0,0,0,0,38,38,38,,,,,,,,,,,,,,,,,,,,,,,,,,,,,,,,,,,318.766385099967,318.96747100003995,318.9492782000452,319.2502910000039,319.2502910000039,None,319.7504206999438,None,k,1,0.5741874000523239,319.7504206999438,None,None,None,320.3512056999607,None,,,,,,,,,,,,,,,,,,,,,12005,2,2,2024_Jun_13_1651,stroop_task_switching2_b,2021.2.3,59.773041771844774,
condition/block_mixed_b,instruction/instr_mixed,instruction/i10_b,黄,yellow,f,diamond,color_mix,颜色,,compatible,2,,,,,,,,0,2,2,2,0,0,0,0,0,39,39,39,,,,,,,,,,,,,,,,,,,,,,,,,,,,,,,,,,,321.3526716999477,321.55481290002353,321.5363998999819,321.8375616000267,321.8375616000267,None,322.3374250000343,None,f,1,1.0923889999976382,322.3374250000343,None,None,None,323.4558845999418,None,,,,,,,,,,,,,,,,,,,,,12005,2,2,2024_Jun_13_1651,stroop_task_switching2_b,2021.2.3,59.773041771844774,
condition/block_mixed_b,instruction/instr_mixed,instruction/i10_b,黄,yellow,f,square,color_mix,单词,,compatible,2,,,,,,,,0,2,2,2,0,0,0,0,0,40,40,40,,,,,,,,,,,,,,,,,,,,,,,,,,,,,,,,,,,324.45838840003125,324.65847050002776,324.64096300001256,324.9429006000282,324.9429006000282,None,325.4434133999748,None,f,1,1.45744669996202,325.4434133999748,None,None,None,326.9279644000344,None,,,,,,,,,,,,,,,,,,,,,12005,2,2,2024_Jun_13_1651,stroop_task_switching2_b,2021.2.3,59.773041771844774,
condition/block_mixed_b,instruction/instr_mixed,instruction/i10_b,蓝,blue,j,square,color_mix,单词,,compatible,1,,,,,,,,0,2,2,2,0,0,0,0,0,41,41,41,,,,,,,,,,,,,,,,,,,,,,,,,,,,,,,,,,,327.9293800999876,328.1303614999633,328.11380940000527,328.41366500000004,328.41366500000004,None,328.91400160000194,None,j,1,0.6995688000461087,328.91400160000194,None,None,None,329.63210599997547,None,,,,,,,,,,,,,,,,,,,,,12005,2,2,2024_Jun_13_1651,stroop_task_switching2_b,2021.2.3,59.773041771844774,
condition/block_mixed_b,instruction/instr_mixed,instruction/i10_b,蓝,blue,j,diamond,color_mix,颜色,,compatible,2,,,,,,,,0,2,2,2,0,0,0,0,0,42,42,42,,,,,,,,,,,,,,,,,,,,,,,,,,,,,,,,,,,330.63353480002843,330.83376609999686,330.81790749996435,331.1189258999657,331.1189258999657,None,331.6183167999843,None,j,1,0.7705798000097275,331.6183167999843,None,None,None,332.4029681000393,None,,,,,,,,,,,,,,,,,,,,,12005,2,2,2024_Jun_13_1651,stroop_task_switching2_b,2021.2.3,59.773041771844774,
condition/block_mixed_b,instruction/instr_mixed,instruction/i10_b,黄,yellow,f,diamond,color_mix,颜色,,compatible,1,,,,,,,,0,2,2,2,0,0,0,0,0,43,43,43,,,,,,,,,,,,,,,,,,,,,,,,,,,,,,,,,,,333.40454899996985,333.60537370003294,333.5878445999697,333.8882887000218,333.8882887000218,None,334.39014210004825,None,f,1,0.6626943999435753,334.39014210004825,None,None,None,335.0734332000138,None,,,,,,,,,,,,,,,,,,,,,12005,2,2,2024_Jun_13_1651,stroop_task_switching2_b,2021.2.3,59.773041771844774,
condition/block_mixed_b,instruction/instr_mixed,instruction/i10_b,红,red,k,diamond,color_mix,颜色,,compatible,1,,,,,,,,0,2,2,2,0,0,0,0,0,44,44,44,,,,,,,,,,,,,,,,,,,,,,,,,,,,,,,,,,,336.07513370004017,336.27537499996834,336.26010519999545,336.5771662000334,336.5613283000421,None,337.07644860004075,None,k,1,0.7044516999740154,337.07644860004075,None,None,None,337.81091470003594,None,,,,,,,,,,,,,,,,,,,,,12005,2,2,2024_Jun_13_1651,stroop_task_switching2_b,2021.2.3,59.773041771844774,
condition/block_mixed_b,instruction/instr_mixed,instruction/i10_b,蓝,blue,j,diamond,color_mix,颜色,,compatible,1,,,,,,,,0,2,2,2,0,0,0,0,0,45,45,45,,,,,,,,,,,,,,,,,,,,,,,,,,,,,,,,,,,338.8124520999845,339.01365959993564,338.99689279997256,339.29668729996774,339.29668729996774,None,339.79726679995656,None,j,1,0.8640116000315174,339.79726679995656,None,None,None,340.6820255999919,None,,,,,,,,,,,,,,,,,,,,,12005,2,2,2024_Jun_13_1651,stroop_task_switching2_b,2021.2.3,59.773041771844774,
condition/block_mixed_b,instruction/instr_mixed,instruction/i10_b,红,red,k,diamond,color_mix,颜色,,compatible,1,,,,,,,,0,2,2,2,0,0,0,0,0,46,46,46,,,,,,,,,,,,,,,,,,,,,,,,,,,,,,,,,,,341.68341429997236,341.8837684999453,341.867776399944,342.1680489999708,342.1680489999708,None,342.66818000003695,None,k,1,0.7528345000464469,342.66818000003695,None,None,None,343.43615480000153,None,,,,,,,,,,,,,,,,,,,,,12005,2,2,2024_Jun_13_1651,stroop_task_switching2_b,2021.2.3,59.773041771844774,
condition/block_mixed_b,instruction/instr_mixed,instruction/i10_b,红,red,k,square,color_mix,单词,,compatible,2,,,,,,,,0,2,2,2,0,0,0,0,0,47,47,47,,,,,,,,,,,,,,,,,,,,,,,,,,,,,,,,,,,344.4381740000099,344.63980190001894,344.6213239999488,344.92224590003025,344.92224590003025,None,345.42351929994766,None,k,1,0.8535639999900013,345.42351929994766,None,None,None,346.30696179997176,None,,,,,,,,,,,,,,,,,,,,,12005,2,2,2024_Jun_13_1651,stroop_task_switching2_b,2021.2.3,59.773041771844774,
condition/block_mixed_b,instruction/instr_mixed,instruction/i10_b,红,red,k,diamond,color_mix,颜色,,compatible,2,,,,,,,,0,2,2,2,0,0,0,0,0,48,48,48,,,,,,,,,,,,,,,,,,,,,,,,,,,,,,,,,,,347.30862050002906,347.5090360000031,347.49264499999117,347.7946348999394,347.7946348999394,None,348.2944519999437,None,k,1,0.5270913999993354,348.2944519999437,None,None,None,348.84422910003923,None,,,,,,,,,,,,,,,,,,,,,12005,2,2,2024_Jun_13_1651,stroop_task_switching2_b,2021.2.3,59.773041771844774,
condition/block_mixed_b,instruction/instr_mixed,instruction/i10_b,,,,,,,,,,,,,,,,,0,2,2,2,0,0,0,0,,,,,,,,,,,,,,,,,,,,,,,,,,,,,,,,,,,,,,,,,,,,,,,,,,,,,,,,349.8456465000054,None,space,7.235124700004235,349.8456465000054,None,,,,,,,,,,,,,,,12005,2,2,2024_Jun_13_1651,stroop_task_switching2_b,2021.2.3,59.773041771844774,
condition/block_mixed_b,instruction/instr_mixed,instruction/i10_b,,,,,,,,,,,,,,,,,0,2,2,2,,,,,,,,,,,,,,,,,,,,,,,,,,,,,,,,,,,,,,,,,,,,,,,,,,,,,,,,,,,,,,,,,,,,,,,,,,,,,,,,12005,2,2,2024_Jun_13_1651,stroop_task_switching2_b,2021.2.3,59.773041771844774,
,,,红,red,k,square,color_mix,单词,,compatible,0,block_switch1_b,instruction/ready_test.png,instruction/i11.png,,,,,,,,,,,,,,,,,0,0,0,0,0,0,0,0,,,,,,,,,,,,,,,,,,,366.5375028999988,367.5413577000145,367.5413577000145,368.5404184999643,368.5404184999643,None,365.5540197000373,366.555256200023,369.5766924000345,369.7765354999574,369.76019830000587,370.06104709999636,370.06104709999636,None,370.5612453999929,None,k,1,0.6447956999763846,370.5612453999929,None,None,None,,,,,,,,,357.1398264999734,None,space,8.386058300035074,357.1398264999734,None,,,,,,,,,12005,2,2,2024_Jun_13_1651,stroop_task_switching2_b,2021.2.3,59.773041771844774,
,,,绿,green,d,diamond,color_mix,颜色,,compatible,2,block_switch1_b,instruction/ready_test.png,instruction/i11.png,,,,,,,,,,,,,,,,,0,0,0,0,0,1,1,1,,,,,,,,,,,,,,,,,,,,,,,,,,,371.2609649000224,371.4625028000446,371.4127174000023,371.71360659995116,371.71360659995116,None,372.2138461000286,None,d,1,0.5280212999787182,372.2138461000286,None,None,None,,,,,,,,,,,,,,,,,,,,,,,12005,2,2,2024_Jun_13_1651,stroop_task_switching2_b,2021.2.3,59.773041771844774,
,,,绿,yellow,f,diamond,color_mix,颜色,,incompatible,1,block_switch1_b,instruction/ready_test.png,instruction/i11.png,,,,,,,,,,,,,,,,,0,0,0,0,0,2,2,2,,,,,,,,,,,,,,,,,,,,,,,,,,,372.7635043000337,372.96476829994936,372.94818219996523,373.24868580000475,373.24868580000475,None,373.7493228999665,None,f,1,0.9046266000950709,373.7493228999665,None,None,None,,,,,,,,,,,,,,,,,,,,,,,12005,2,2,2024_Jun_13_1651,stroop_task_switching2_b,2021.2.3,59.773041771844774,
,,,蓝,blue,j,diamond,color_mix,颜色,,compatible,1,block_switch1_b,instruction/ready_test.png,instruction/i11.png,,,,,,,,,,,,,,,,,0,0,0,0,0,3,3,3,,,,,,,,,,,,,,,,,,,,,,,,,,,374.6832417999394,374.88522990001366,374.8668304999592,375.16728089994285,375.16728089994285,None,375.6678460999392,None,j,1,0.689968700055033,375.6678460999392,None,None,None,,,,,,,,,,,,,,,,,,,,,,,12005,2,2,2024_Jun_13_1651,stroop_task_switching2_b,2021.2.3,59.773041771844774,
,,,绿,green,d,square,color_mix,单词,,compatible,2,block_switch1_b,instruction/ready_test.png,instruction/i11.png,,,,,,,,,,,,,,,,,0,0,0,0,0,4,4,4,,,,,,,,,,,,,,,,,,,,,,,,,,,376.3858462999342,376.58614999998827,376.569820899982,376.87224930000957,376.87224930000957,None,377.3871759000467,None,d,1,0.5867265000706539,377.3871759000467,None,None,None,,,,,,,,,,,,,,,,,,,,,,,12005,2,2,2024_Jun_13_1651,stroop_task_switching2_b,2021.2.3,59.773041771844774,
,,,绿,blue,j,diamond,color_mix,颜色,,incompatible,2,block_switch1_b,instruction/ready_test.png,instruction/i11.png,,,,,,,,,,,,,,,,,0,0,0,0,0,5,5,5,,,,,,,,,,,,,,,,,,,,,,,,,,,378.02283939998597,378.2218148999382,378.19063560001086,378.5069618000416,378.48906769999303,None,378.98992580000777,None,j,1,0.7682081999955699,378.98992580000777,None,None,None,,,,,,,,,,,,,,,,,,,,,,,12005,2,2,2024_Jun_13_1651,stroop_task_switching2_b,2021.2.3,59.773041771844774,
,,,黄,red,f,square,color_mix,单词,,incompatible,2,block_switch1_b,instruction/ready_test.png,instruction/i11.png,,,,,,,,,,,,,,,,,0,0,0,0,0,6,6,6,,,,,,,,,,,,,,,,,,,,,,,,,,,379.8083480000496,380.0092052000109,379.9746099000331,380.27486530004535,380.27486530004535,None,380.77576700004283,None,k,0,0.942309100064449,380.77576700004283,None,None,None,,,,,,,,,,,,,,,,,,,,,,,12005,2,2,2024_Jun_13_1651,stroop_task_switching2_b,2021.2.3,59.773041771844774,
,,,绿,green,d,square,color_mix,单词,,compatible,1,block_switch1_b,instruction/ready_test.png,instruction/i11.png,,,,,,,,,,,,,,,,,0,0,0,0,0,7,7,7,,,,,,,,,,,,,,,,,,,,,,,,,,,381.7437530000461,381.9452482999768,381.92731069994625,382.2289869999513,382.2289869999513,None,382.7286958999466,None,d,1,0.8618957999860868,382.7286958999466,None,None,None,,,,,,,,,,,,,,,,,,,,,,,12005,2,2,2024_Jun_13_1651,stroop_task_switching2_b,2021.2.3,59.773041771844774,
,,,蓝,blue,j,square,color_mix,单词,,compatible,1,block_switch1_b,instruction/ready_test.png,instruction/i11.png,,,,,,,,,,,,,,,,,0,0,0,0,0,8,8,8,,,,,,,,,,,,,,,,,,,,,,,,,,,383.61317449994385,383.8140507999342,383.796791199944,384.0999889000086,384.0999889000086,None,384.6158008000348,None,j,1,0.9343784999800846,384.6158008000348,None,None,None,,,,,,,,,,,,,,,,,,,,,,,12005,2,2,2024_Jun_13_1651,stroop_task_switching2_b,2021.2.3,59.773041771844774,
,,,红,red,k,diamond,color_mix,颜色,,compatible,2,block_switch1_b,instruction/ready_test.png,instruction/i11.png,,,,,,,,,,,,,,,,,0,0,0,0,0,9,9,9,,,,,,,,,,,,,,,,,,,,,,,,,,,385.5662584999809,385.76739199995063,385.75121070002206,386.0679210999515,386.0502318999497,None,386.5512482000049,None,k,1,0.6156952999299392,386.5512482000049,None,None,None,,,,,,,,,,,,,,,,,,,,,,,12005,2,2,2024_Jun_13_1651,stroop_task_switching2_b,2021.2.3,59.773041771844774,
,,,黄,yellow,f,diamond,color_mix,颜色,,compatible,1,block_switch1_b,instruction/ready_test.png,instruction/i11.png,,,,,,,,,,,,,,,,,0,0,0,0,0,10,10,10,,,,,,,,,,,,,,,,,,,,,,,,,,,387.18548979994375,387.3866263999371,387.37191300000995,387.68661680002697,387.669442399987,None,388.170058800024,None,f,1,1.0683718000072986,388.170058800024,None,None,None,,,,,,,,,,,,,,,,,,,,,,,12005,2,2,2024_Jun_13_1651,stroop_task_switching2_b,2021.2.3,59.773041771844774,
,,,绿,green,d,square,color_mix,单词,,compatible,2,block_switch1_b,instruction/ready_test.png,instruction/i11.png,,,,,,,,,,,,,,,,,0,0,0,0,0,11,11,11,,,,,,,,,,,,,,,,,,,,,,,,,,,389.25502609997056,389.4572838000022,389.4387369999895,389.74019389995374,389.74019389995374,None,390.23991530004423,None,d,1,0.5823190999217331,390.23991530004423,None,None,None,,,,,,,,,,,,,,,,,,,,,,,12005,2,2,2024_Jun_13_1651,stroop_task_switching2_b,2021.2.3,59.773041771844774,
,,,红,red,k,diamond,color_mix,颜色,,compatible,2,block_switch1_b,instruction/ready_test.png,instruction/i11.png,,,,,,,,,,,,,,,,,0,0,0,0,0,12,12,12,,,,,,,,,,,,,,,,,,,,,,,,,,,390.84093049995136,391.0422812999459,391.0256245000055,391.32659029995557,391.32659029995557,None,391.84362179995514,None,k,1,0.5870360999833792,391.84362179995514,None,None,None,,,,,,,,,,,,,,,,,,,,,,,12005,2,2,2024_Jun_13_1651,stroop_task_switching2_b,2021.2.3,59.773041771844774,
,,,红,red,k,diamond,color_mix,颜色,,compatible,1,block_switch1_b,instruction/ready_test.png,instruction/i11.png,,,,,,,,,,,,,,,,,0,0,0,0,0,13,13,13,,,,,,,,,,,,,,,,,,,,,,,,,,,392.4782007000176,392.69367509998847,392.643961600028,392.94412150001153,392.94412150001153,None,393.4446919000475,None,k,1,0.873714700108394,393.4446919000475,None,None,None,,,,,,,,,,,,,,,,,,,,,,,12005,2,2,2024_Jun_13_1651,stroop_task_switching2_b,2021.2.3,59.773041771844774,
,,,黄,yellow,f,square,color_mix,单词,,compatible,2,block_switch1_b,instruction/ready_test.png,instruction/i11.png,,,,,,,,,,,,,,,,,0,0,0,0,0,14,14,14,,,,,,,,,,,,,,,,,,,,,,,,,,,394.36359940003604,394.5629939000355,394.5312126999488,394.8304751999676,394.8304751999676,None,395.3320123000303,None,f,1,0.6987832000013441,395.3320123000303,None,None,None,,,,,,,,,,,,,,,,,,,,,,,12005,2,2,2024_Jun_13_1651,stroop_task_switching2_b,2021.2.3,59.773041771844774,
,,,红,green,d,diamond,color_mix,颜色,,incompatible,2,block_switch1_b,instruction/ready_test.png,instruction/i11.png,,,,,,,,,,,,,,,,,0,0,0,0,0,15,15,15,,,,,,,,,,,,,,,,,,,,,,,,,,,396.04899179993663,396.2504802000476,396.23222490004264,396.5334057,396.5334057,None,397.03349589998834,None,d,1,1.5489351000869647,397.03349589998834,None,None,None,,,,,,,,,,,,,,,,,,,,,,,12005,2,2,2024_Jun_13_1651,stroop_task_switching2_b,2021.2.3,59.773041771844774,
,,,蓝,red,k,diamond,color_mix,颜色,,incompatible,1,block_switch1_b,instruction/ready_test.png,instruction/i11.png,,,,,,,,,,,,,,,,,0,0,0,0,0,16,16,16,,,,,,,,,,,,,,,,,,,,,,,,,,,398.60282160004135,398.8046806999482,398.786446299986,399.0867009999929,399.0867009999929,None,399.5880229000468,None,k,1,1.0194722999585792,399.5880229000468,None,None,None,,,,,,,,,,,,,,,,,,,,,,,12005,2,2,2024_Jun_13_1651,stroop_task_switching2_b,2021.2.3,59.773041771844774,
,,,黄,green,d,diamond,color_mix,颜色,,incompatible,1,block_switch1_b,instruction/ready_test.png,instruction/i11.png,,,,,,,,,,,,,,,,,0,0,0,0,0,17,17,17,,,,,,,,,,,,,,,,,,,,,,,,,,,400.6221246999921,400.82353269995656,400.8058907999657,401.10824740002863,401.10824740002863,None,401.60696100001223,None,d,1,0.8959790000226349,401.60696100001223,None,None,None,,,,,,,,,,,,,,,,,,,,,,,12005,2,2,2024_Jun_13_1651,stroop_task_switching2_b,2021.2.3,59.773041771844774,
,,,绿,green,d,diamond,color_mix,颜色,,compatible,1,block_switch1_b,instruction/ready_test.png,instruction/i11.png,,,,,,,,,,,,,,,,,0,0,0,0,0,18,18,18,,,,,,,,,,,,,,,,,,,,,,,,,,,402.5251096000429,402.72605109994765,402.7090010000393,403.00989919994026,403.00989919994026,None,403.5102054999443,None,d,1,0.4808742000022903,403.5102054999443,None,None,None,,,,,,,,,,,,,,,,,,,,,,,12005,2,2,2024_Jun_13_1651,stroop_task_switching2_b,2021.2.3,59.773041771844774,
,,,黄,red,k,diamond,color_mix,颜色,,incompatible,1,block_switch1_b,instruction/ready_test.png,instruction/i11.png,,,,,,,,,,,,,,,,,0,0,0,0,0,19,19,19,,,,,,,,,,,,,,,,,,,,,,,,,,,404.01102989993524,404.2110801000381,404.19465550000314,404.4973622999387,404.4973622999387,None,405.0129916999722,None,k,1,0.6738680999260396,405.0129916999722,None,None,None,,,,,,,,,,,,,,,,,,,,,,,12005,2,2,2024_Jun_13_1651,stroop_task_switching2_b,2021.2.3,59.773041771844774,
,,,绿,yellow,d,square,color_mix,单词,,incompatible,2,block_switch1_b,instruction/ready_test.png,instruction/i11.png,,,,,,,,,,,,,,,,,0,0,0,0,0,20,20,20,,,,,,,,,,,,,,,,,,,,,,,,,,,405.71336990001146,405.91478190000635,405.89707439998165,406.1986361000454,406.1986361000454,None,406.6983332999516,None,d,1,1.3406400999519974,406.6983332999516,None,None,None,,,,,,,,,,,,,,,,,,,,,,,12005,2,2,2024_Jun_13_1651,stroop_task_switching2_b,2021.2.3,59.773041771844774,
,,,绿,yellow,f,diamond,color_mix,颜色,,incompatible,2,block_switch1_b,instruction/ready_test.png,instruction/i11.png,,,,,,,,,,,,,,,,,0,0,0,0,0,21,21,21,,,,,,,,,,,,,,,,,,,,,,,,,,,408.0669041000074,408.26799690001644,408.251642899937,408.55203649995383,408.55203649995383,None,409.0515777999535,None,f,1,1.659210899961181,409.0515777999535,None,None,None,,,,,,,,,,,,,,,,,,,,,,,12005,2,2,2024_Jun_13_1651,stroop_task_switching2_b,2021.2.3,59.773041771844774,
,,,绿,green,d,square,color_mix,单词,,compatible,2,block_switch1_b,instruction/ready_test.png,instruction/i11.png,,,,,,,,,,,,,,,,,0,0,0,0,0,22,22,22,,,,,,,,,,,,,,,,,,,,,,,,,,,410.7374921999872,410.9379641000414,410.9217845000094,411.2227305000415,411.2227305000415,None,411.72311409993563,None,d,1,0.6282953999470919,411.72311409993563,None,None,None,,,,,,,,,,,,,,,,,,,,,,,12005,2,2,2024_Jun_13_1651,stroop_task_switching2_b,2021.2.3,59.773041771844774,
,,,红,red,k,square,color_mix,单词,,compatible,1,block_switch1_b,instruction/ready_test.png,instruction/i11.png,,,,,,,,,,,,,,,,,0,0,0,0,0,23,23,23,,,,,,,,,,,,,,,,,,,,,,,,,,,412.3734533999814,412.5748734000372,412.5578788999701,412.85832650004886,412.85832650004886,None,413.3596113999374,None,k,1,0.7192196999676526,413.3596113999374,None,None,None,,,,,,,,,,,,,,,,,,,,,,,12005,2,2,2024_Jun_13_1651,stroop_task_switching2_b,2021.2.3,59.773041771844774,
,,,黄,green,f,square,color_mix,单词,,incompatible,1,block_switch1_b,instruction/ready_test.png,instruction/i11.png,,,,,,,,,,,,,,,,,0,0,0,0,0,24,24,24,,,,,,,,,,,,,,,,,,,,,,,,,,,414.109859899967,414.3104903999483,414.293786299997,414.5955480999546,414.5955480999546,None,415.0942866000114,None,f,1,1.1608607999514788,415.0942866000114,None,None,None,,,,,,,,,,,,,,,,,,,,,,,12005,2,2,2024_Jun_13_1651,stroop_task_switching2_b,2021.2.3,59.773041771844774,
,,,红,blue,k,square,color_mix,单词,,incompatible,1,block_switch1_b,instruction/ready_test.png,instruction/i11.png,,,,,,,,,,,,,,,,,0,0,0,0,0,25,25,25,,,,,,,,,,,,,,,,,,,,,,,,,,,416.2793206999777,416.4803723000223,416.4628234000411,416.76495109999087,416.76495109999087,None,417.265152100008,None,k,1,1.702352200052701,417.265152100008,None,None,None,,,,,,,,,,,,,,,,,,,,,,,12005,2,2,2024_Jun_13_1651,stroop_task_switching2_b,2021.2.3,59.773041771844774,
,,,黄,yellow,f,square,color_mix,单词,,compatible,1,block_switch1_b,instruction/ready_test.png,instruction/i11.png,,,,,,,,,,,,,,,,,0,0,0,0,0,26,26,26,,,,,,,,,,,,,,,,,,,,,,,,,,,418.9835047000088,419.18375460000243,419.1677894999739,419.4675875999965,419.4675875999965,None,419.969124599942,None,f,1,1.262613600003533,419.969124599942,None,None,None,,,,,,,,,,,,,,,,,,,,,,,12005,2,2,2024_Jun_13_1651,stroop_task_switching2_b,2021.2.3,59.773041771844774,
,,,蓝,green,j,square,color_mix,单词,,incompatible,1,block_switch1_b,instruction/ready_test.png,instruction/i11.png,,,,,,,,,,,,,,,,,0,0,0,0,0,27,27,27,,,,,,,,,,,,,,,,,,,,,,,,,,,421.2536653999705,421.4545209000353,421.4390348000452,421.7542387000285,421.73907769995276,None,422.23824099998455,None,d,0,0.7772024000296369,422.23824099998455,None,None,None,,,,,,,,,,,,,,,,,,,,,,,12005,2,2,2024_Jun_13_1651,stroop_task_switching2_b,2021.2.3,59.773041771844774,
,,,绿,green,d,diamond,color_mix,颜色,,compatible,2,block_switch1_b,instruction/ready_test.png,instruction/i11.png,,,,,,,,,,,,,,,,,0,0,0,0,0,28,28,28,,,,,,,,,,,,,,,,,,,,,,,,,,,423.03970710001886,423.2411783999996,423.2231535000028,423.5252170000458,423.5252170000458,None,424.02499489998445,None,d,1,1.1102348000276834,424.02499489998445,None,None,None,,,,,,,,,,,,,,,,,,,,,,,12005,2,2,2024_Jun_13_1651,stroop_task_switching2_b,2021.2.3,59.773041771844774,
,,,黄,blue,j,diamond,color_mix,颜色,,incompatible,1,block_switch1_b,instruction/ready_test.png,instruction/i11.png,,,,,,,,,,,,,,,,,0,0,0,0,0,29,29,29,,,,,,,,,,,,,,,,,,,,,,,,,,,425.159264100017,425.3621449000202,425.34304509998765,425.64392930001486,425.64392930001486,None,426.14389910001773,None,j,1,1.3594605999533087,426.14389910001773,None,None,None,,,,,,,,,,,,,,,,,,,,,,,12005,2,2,2024_Jun_13_1651,stroop_task_switching2_b,2021.2.3,59.773041771844774,
,,,绿,green,d,diamond,color_mix,颜色,,compatible,1,block_switch1_b,instruction/ready_test.png,instruction/i11.png,,,,,,,,,,,,,,,,,0,0,0,0,0,30,30,30,,,,,,,,,,,,,,,,,,,,,,,,,,,427.5296582999872,427.72987739997916,427.71401100000367,428.014170999988,428.014170999988,None,428.51424609997775,None,d,1,0.589347199886106,428.51424609997775,None,None,None,,,,,,,,,,,,,,,,,,,,,,,12005,2,2,2024_Jun_13_1651,stroop_task_switching2_b,2021.2.3,59.773041771844774,
,,,蓝,blue,j,square,color_mix,单词,,compatible,2,block_switch1_b,instruction/ready_test.png,instruction/i11.png,,,,,,,,,,,,,,,,,0,0,0,0,0,31,31,31,,,,,,,,,,,,,,,,,,,,,,,,,,,429.1319893000182,429.33334110002033,429.31614020001143,429.6175921999384,429.6175921999384,None,430.1174683000427,None,j,1,1.6502393999835476,430.1174683000427,None,None,None,,,,,,,,,,,,,,,,,,,,,,,12005,2,2,2024_Jun_13_1651,stroop_task_switching2_b,2021.2.3,59.773041771844774,
,,,红,red,k,square,color_mix,单词,,compatible,1,block_switch1_b,instruction/ready_test.png,instruction/i11.png,,,,,,,,,,,,,,,,,0,0,0,0,0,32,32,32,,,,,,,,,,,,,,,,,,,,,,,,,,,431.78590869996697,431.9861479999963,431.9704224000452,432.2707878999645,432.2707878999645,None,432.77080479997676,None,k,1,1.189517099992372,432.77080479997676,None,None,None,,,,,,,,,,,,,,,,,,,,,,,12005,2,2,2024_Jun_13_1651,stroop_task_switching2_b,2021.2.3,59.773041771844774,
,,,红,green,k,square,color_mix,单词,,incompatible,1,block_switch1_b,instruction/ready_test.png,instruction/i11.png,,,,,,,,,,,,,,,,,0,0,0,0,0,33,33,33,,,,,,,,,,,,,,,,,,,,,,,,,,,433.99004409997724,434.1905187999364,434.17370769998524,434.4742941999575,434.4742941999575,None,434.9746908999514,None,k,1,1.7208756000036374,434.9746908999514,None,None,None,,,,,,,,,,,,,,,,,,,,,,,12005,2,2,2024_Jun_13_1651,stroop_task_switching2_b,2021.2.3,59.773041771844774,
,,,黄,yellow,f,diamond,color_mix,颜色,,compatible,2,block_switch1_b,instruction/ready_test.png,instruction/i11.png,,,,,,,,,,,,,,,,,0,0,0,0,0,34,34,34,,,,,,,,,,,,,,,,,,,,,,,,,,,436.72681669995654,436.9274731000187,436.91042289999314,437.21198879997246,437.21198879997246,None,437.71218599996064,None,f,1,0.8233264000155032,437.71218599996064,None,None,None,,,,,,,,,,,,,,,,,,,,,,,12005,2,2,2024_Jun_13_1651,stroop_task_switching2_b,2021.2.3,59.773041771844774,
,,,红,green,d,diamond,color_mix,颜色,,incompatible,1,block_switch1_b,instruction/ready_test.png,instruction/i11.png,,,,,,,,,,,,,,,,,0,0,0,0,0,35,35,35,,,,,,,,,,,,,,,,,,,,,,,,,,,438.5636742999777,438.76408390002325,438.74884589994326,439.06439369998407,439.04760129994247,None,439.54758629994467,None,d,1,1.348970799939707,439.54758629994467,None,None,None,,,,,,,,,,,,,,,,,,,,,,,12005,2,2,2024_Jun_13_1651,stroop_task_switching2_b,2021.2.3,59.773041771844774,
,,,黄,yellow,f,square,color_mix,单词,,compatible,2,block_switch1_b,instruction/ready_test.png,instruction/i11.png,,,,,,,,,,,,,,,,,0,0,0,0,0,36,36,36,,,,,,,,,,,,,,,,,,,,,,,,,,,440.91661760001443,441.1178757000016,441.1000568999443,441.4010586999357,441.4010586999357,None,441.9024785000365,None,f,1,0.8572647999972105,441.9024785000365,None,None,None,,,,,,,,,,,,,,,,,,,,,,,12005,2,2,2024_Jun_13_1651,stroop_task_switching2_b,2021.2.3,59.773041771844774,
,,,蓝,blue,j,square,color_mix,单词,,compatible,1,block_switch1_b,instruction/ready_test.png,instruction/i11.png,,,,,,,,,,,,,,,,,0,0,0,0,0,37,37,37,,,,,,,,,,,,,,,,,,,,,,,,,,,442.78599390003365,442.9874556999421,442.9703936999431,443.27050929993857,443.27050929993857,None,443.772297999938,None,j,1,0.6116593999322504,443.772297999938,None,None,None,,,,,,,,,,,,,,,,,,,,,,,12005,2,2,2024_Jun_13_1651,stroop_task_switching2_b,2021.2.3,59.773041771844774,
,,,绿,red,k,diamond,color_mix,颜色,,incompatible,2,block_switch1_b,instruction/ready_test.png,instruction/i11.png,,,,,,,,,,,,,,,,,0,0,0,0,0,38,38,38,,,,,,,,,,,,,,,,,,,,,,,,,,,444.40508789999876,444.605442399974,444.58950420003384,444.8900264999829,444.8900264999829,None,445.39015009999275,None,k,1,0.8494976999936625,445.39015009999275,None,None,None,,,,,,,,,,,,,,,,,,,,,,,12005,2,2,2024_Jun_13_1651,stroop_task_switching2_b,2021.2.3,59.773041771844774,
,,,黄,yellow,f,diamond,color_mix,颜色,,compatible,1,block_switch1_b,instruction/ready_test.png,instruction/i11.png,,,,,,,,,,,,,,,,,0,0,0,0,0,39,39,39,,,,,,,,,,,,,,,,,,,,,,,,,,,446.2578543999698,446.4589363000123,446.4423014000058,446.7418306999607,446.7418306999607,None,447.2424527000403,None,f,1,0.8697287000250071,447.2424527000403,None,None,None,,,,,,,,,,,,,,,,,,,,,,,12005,2,2,2024_Jun_13_1651,stroop_task_switching2_b,2021.2.3,59.773041771844774,
,,,红,blue,j,diamond,color_mix,颜色,,incompatible,1,block_switch1_b,instruction/ready_test.png,instruction/i11.png,,,,,,,,,,,,,,,,,0,0,0,0,0,40,40,40,,,,,,,,,,,,,,,,,,,,,,,,,,,448.12712479999755,448.3286071999464,448.31078299996443,448.61280430003535,448.61280430003535,None,449.1125418000156,None,j,1,0.7594515000237152,449.1125418000156,None,None,None,,,,,,,,,,,,,,,,,,,,,,,12005,2,2,2024_Jun_13_1651,stroop_task_switching2_b,2021.2.3,59.773041771844774,
,,,绿,blue,d,square,color_mix,单词,,incompatible,2,block_switch1_b,instruction/ready_test.png,instruction/i11.png,,,,,,,,,,,,,,,,,0,0,0,0,0,41,41,41,,,,,,,,,,,,,,,,,,,,,,,,,,,449.8967271000147,450.09695160004776,450.08077160001267,450.38096870004665,450.38096870004665,None,450.8814636999741,None,d,1,0.9508707000641152,450.8814636999741,None,None,None,,,,,,,,,,,,,,,,,,,,,,,12005,2,2,2024_Jun_13_1651,stroop_task_switching2_b,2021.2.3,59.773041771844774,
,,,蓝,blue,j,diamond,color_mix,颜色,,compatible,2,block_switch1_b,instruction/ready_test.png,instruction/i11.png,,,,,,,,,,,,,,,,,0,0,0,0,0,42,42,42,,,,,,,,,,,,,,,,,,,,,,,,,,,451.84982480003964,452.05064349994063,452.0330585000338,452.3349781000288,452.3349781000288,None,452.8344371999847,None,j,1,0.6855774000287056,452.8344371999847,None,None,None,,,,,,,,,,,,,,,,,,,,,,,12005,2,2,2024_Jun_13_1651,stroop_task_switching2_b,2021.2.3,59.773041771844774,
,,,红,blue,k,square,color_mix,单词,,incompatible,2,block_switch1_b,instruction/ready_test.png,instruction/i11.png,,,,,,,,,,,,,,,,,0,0,0,0,0,43,43,43,,,,,,,,,,,,,,,,,,,,,,,,,,,453.53543940000236,453.7375121000223,453.71902880002744,454.0205886999611,454.0205886999611,None,454.5208517999854,None,k,1,1.6800407000118867,454.5208517999854,None,None,None,,,,,,,,,,,,,,,,,,,,,,,12005,2,2,2024_Jun_13_1651,stroop_task_switching2_b,2021.2.3,59.773041771844774,
,,,蓝,green,d,diamond,color_mix,颜色,,incompatible,2,block_switch1_b,instruction/ready_test.png,instruction/i11.png,,,,,,,,,,,,,,,,,0,0,0,0,0,44,44,44,,,,,,,,,,,,,,,,,,,,,,,,,,,456.22281890001614,456.42362639994826,456.40652079996653,456.70874929998536,456.70874929998536,None,457.2088160000276,None,d,1,1.215370999998413,457.2088160000276,None,None,None,,,,,,,,,,,,,,,,,,,,,,,12005,2,2,2024_Jun_13_1651,stroop_task_switching2_b,2021.2.3,59.773041771844774,
,,,黄,yellow,f,square,color_mix,单词,,compatible,2,block_switch1_b,instruction/ready_test.png,instruction/i11.png,,,,,,,,,,,,,,,,,0,0,0,0,0,45,45,45,,,,,,,,,,,,,,,,,,,,,,,,,,,458.4429114999948,458.64434739993885,458.626661599963,458.92688429995906,458.92688429995906,None,459.4283468000358,None,f,1,0.9325113999657333,459.4283468000358,None,None,None,,,,,,,,,,,,,,,,,,,,,,,12005,2,2,2024_Jun_13_1651,stroop_task_switching2_b,2021.2.3,59.773041771844774,
,,,黄,yellow,f,diamond,color_mix,颜色,,compatible,2,block_switch1_b,instruction/ready_test.png,instruction/i11.png,,,,,,,,,,,,,,,,,0,0,0,0,0,46,46,46,,,,,,,,,,,,,,,,,,,,,,,,,,,460.3792278999463,460.58048110001255,460.56274620001204,460.86371579999104,460.86371579999104,None,461.3649425000185,None,f,1,0.715635500033386,461.3649425000185,None,None,None,,,,,,,,,,,,,,,,,,,,,,,12005,2,2,2024_Jun_13_1651,stroop_task_switching2_b,2021.2.3,59.773041771844774,
,,,绿,red,d,square,color_mix,单词,,incompatible,2,block_switch1_b,instruction/ready_test.png,instruction/i11.png,,,,,,,,,,,,,,,,,0,0,0,0,0,47,47,47,,,,,,,,,,,,,,,,,,,,,,,,,,,462.09822869999334,462.2988680000417,462.28377189999446,462.5838551999768,462.5838551999768,None,463.08320580003783,None,d,1,1.1652518000919372,463.08320580003783,None,None,None,,,,,,,,,,,,,,,,,,,,,,,12005,2,2,2024_Jun_13_1651,stroop_task_switching2_b,2021.2.3,59.773041771844774,
,,,红,red,k,diamond,color_mix,颜色,,compatible,2,block_switch1_b,instruction/ready_test.png,instruction/i11.png,,,,,,,,,,,,,,,,,0,0,0,0,0,48,48,48,,,,,,,,,,,,,,,,,,,,,,,,,,,464.2680738000199,464.46982380002737,464.4517964000115,464.7525083000073,464.7525083000073,None,465.2531713999342,None,k,1,1.2358857999788597,465.2531713999342,None,None,None,,,,,,,,,,,,,,,,,,,,,,,12005,2,2,2024_Jun_13_1651,stroop_task_switching2_b,2021.2.3,59.773041771844774,
,,,蓝,blue,j,diamond,color_mix,颜色,,compatible,1,block_switch1_b,instruction/ready_test.png,instruction/i11.png,,,,,,,,,,,,,,,,,0,0,0,0,0,49,49,49,,,,,,,,,,,,,,,,,,,,,,,,,,,466.50542609998956,466.7060184000293,466.6885095000034,466.9890949999681,466.9890949999681,None,467.4897787999362,None,j,1,0.9667262000730261,467.4897787999362,None,None,None,,,,,,,,,,,,,,,,,,,,,,,12005,2,2,2024_Jun_13_1651,stroop_task_switching2_b,2021.2.3,59.773041771844774,
,,,黄,yellow,f,diamond,color_mix,颜色,,compatible,1,block_switch1_b,instruction/ready_test.png,instruction/i11.png,,,,,,,,,,,,,,,,,0,0,0,0,0,50,50,50,,,,,,,,,,,,,,,,,,,,,,,,,,,468.47507859999314,468.6765982999932,468.65925030002836,468.9587575000478,468.9587575000478,None,469.46017129998654,None,f,1,0.8764768000692129,469.46017129998654,None,None,None,,,,,,,,,,,,,,,,,,,,,,,12005,2,2,2024_Jun_13_1651,stroop_task_switching2_b,2021.2.3,59.773041771844774,
,,,红,blue,j,diamond,color_mix,颜色,,incompatible,1,block_switch1_b,instruction/ready_test.png,instruction/i11.png,,,,,,,,,,,,,,,,,0,0,0,0,0,51,51,51,,,,,,,,,,,,,,,,,,,,,,,,,,,470.36063689994626,470.56300780002493,470.54441149998456,470.84613249998074,470.84613249998074,None,471.34567640000023,None,k,0,1.3511995000299066,471.34567640000023,None,None,None,,,,,,,,,,,,,,,,,,,,,,,12005,2,2,2024_Jun_13_1651,stroop_task_switching2_b,2021.2.3,59.773041771844774,
,,,蓝,yellow,f,diamond,color_mix,颜色,,incompatible,1,block_switch1_b,instruction/ready_test.png,instruction/i11.png,,,,,,,,,,,,,,,,,0,0,0,0,0,52,52,52,,,,,,,,,,,,,,,,,,,,,,,,,,,472.71432299993467,472.9152280000271,472.89786629995797,473.2002723000478,473.2002723000478,None,473.6998557000188,None,j,0,1.2852650000713766,473.6998557000188,None,None,None,,,,,,,,,,,,,,,,,,,,,,,12005,2,2,2024_Jun_13_1651,stroop_task_switching2_b,2021.2.3,59.773041771844774,
,,,黄,blue,f,square,color_mix,单词,,incompatible,2,block_switch1_b,instruction/ready_test.png,instruction/i11.png,,,,,,,,,,,,,,,,,0,0,0,0,0,53,53,53,,,,,,,,,,,,,,,,,,,,,,,,,,,475.00109379994683,475.2033658999717,475.18474729999434,475.48613500001375,475.48613500001375,None,475.98687050002627,None,f,1,1.8781075000297278,475.98687050002627,None,None,None,,,,,,,,,,,,,,,,,,,,,,,12005,2,2,2024_Jun_13_1651,stroop_task_switching2_b,2021.2.3,59.773041771844774,
,,,蓝,blue,j,diamond,color_mix,颜色,,compatible,2,block_switch1_b,instruction/ready_test.png,instruction/i11.png,,,,,,,,,,,,,,,,,0,0,0,0,0,54,54,54,,,,,,,,,,,,,,,,,,,,,,,,,,,477.88872429996263,478.0900957999984,478.0723566999659,478.37404569995124,478.37404569995124,None,478.8744873999385,None,j,1,0.9103365000337362,478.8744873999385,None,None,None,,,,,,,,,,,,,,,,,,,,,,,12005,2,2,2024_Jun_13_1651,stroop_task_switching2_b,2021.2.3,59.773041771844774,
,,,红,yellow,k,square,color_mix,单词,,incompatible,2,block_switch1_b,instruction/ready_test.png,instruction/i11.png,,,,,,,,,,,,,,,,,0,0,0,0,0,55,55,55,,,,,,,,,,,,,,,,,,,,,,,,,,,479.8097348000156,480.0087883999804,479.99209910002537,480.2926196999615,480.2926196999615,None,480.7932449999498,None,f,0,2.1757840999634936,480.7932449999498,None,None,None,,,,,,,,,,,,,,,,,,,,,,,12005,2,2,2024_Jun_13_1651,stroop_task_switching2_b,2021.2.3,59.773041771844774,
,,,蓝,red,j,square,color_mix,单词,,incompatible,1,block_switch1_b,instruction/ready_test.png,instruction/i11.png,,,,,,,,,,,,,,,,,0,0,0,0,0,56,56,56,,,,,,,,,,,,,,,,,,,,,,,,,,,482.9966038999846,483.198380399961,483.18017089995556,483.48147170001175,483.48147170001175,None,483.98132469994016,None,j,1,1.531748600071296,483.98132469994016,None,None,None,,,,,,,,,,,,,,,,,,,,,,,12005,2,2,2024_Jun_13_1651,stroop_task_switching2_b,2021.2.3,59.773041771844774,
,,,蓝,blue,j,square,color_mix,单词,,compatible,1,block_switch1_b,instruction/ready_test.png,instruction/i11.png,,,,,,,,,,,,,,,,,0,0,0,0,0,57,57,57,,,,,,,,,,,,,,,,,,,,,,,,,,,485.53370389994234,485.73467160004657,485.71725059999153,486.01937720004935,486.01937720004935,None,486.51859300001524,None,j,1,0.7145710000768304,486.51859300001524,None,None,None,,,,,,,,,,,,,,,,,,,,,,,12005,2,2,2024_Jun_13_1651,stroop_task_switching2_b,2021.2.3,59.773041771844774,
,,,蓝,red,k,diamond,color_mix,颜色,,incompatible,2,block_switch1_b,instruction/ready_test.png,instruction/i11.png,,,,,,,,,,,,,,,,,0,0,0,0,0,58,58,58,,,,,,,,,,,,,,,,,,,,,,,,,,,487.2532289000228,487.45465840003453,487.4365257000318,487.7378978000488,487.7378978000488,None,488.23781069996767,None,k,1,0.9556776999961585,488.23781069996767,None,None,None,,,,,,,,,,,,,,,,,,,,,,,12005,2,2,2024_Jun_13_1651,stroop_task_switching2_b,2021.2.3,59.773041771844774,
,,,绿,green,d,diamond,color_mix,颜色,,compatible,1,block_switch1_b,instruction/ready_test.png,instruction/i11.png,,,,,,,,,,,,,,,,,0,0,0,0,0,59,59,59,,,,,,,,,,,,,,,,,,,,,,,,,,,489.2224782999838,489.42426909995265,489.40703330002725,489.7083393000066,489.7083393000066,None,490.20831110002473,None,d,1,1.1528046999592334,490.20831110002473,None,None,None,,,,,,,,,,,,,,,,,,,,,,,12005,2,2,2024_Jun_13_1651,stroop_task_switching2_b,2021.2.3,59.773041771844774,
,,,蓝,blue,j,diamond,color_mix,颜色,,compatible,1,block_switch1_b,instruction/ready_test.png,instruction/i11.png,,,,,,,,,,,,,,,,,0,0,0,0,0,60,60,60,,,,,,,,,,,,,,,,,,,,,,,,,,,491.39240470004734,491.5936147000175,491.5760986999376,491.8775873000268,491.8775873000268,None,492.3772304999875,None,j,1,1.2647973999846727,492.3772304999875,None,None,None,,,,,,,,,,,,,,,,,,,,,,,12005,2,2,2024_Jun_13_1651,stroop_task_switching2_b,2021.2.3,59.773041771844774,
,,,黄,yellow,f,square,color_mix,单词,,compatible,2,block_switch1_b,instruction/ready_test.png,instruction/i11.png,,,,,,,,,,,,,,,,,0,0,0,0,0,61,61,61,,,,,,,,,,,,,,,,,,,,,,,,,,,493.66271259996574,493.86446890002117,493.8462957999436,494.14752869994845,494.14752869994845,None,494.64747099997476,None,f,1,0.7142620999366045,494.64747099997476,None,None,None,,,,,,,,,,,,,,,,,,,,,,,12005,2,2,2024_Jun_13_1651,stroop_task_switching2_b,2021.2.3,59.773041771844774,
,,,绿,blue,d,square,color_mix,单词,,incompatible,1,block_switch1_b,instruction/ready_test.png,instruction/i11.png,,,,,,,,,,,,,,,,,0,0,0,0,0,62,62,62,,,,,,,,,,,,,,,,,,,,,,,,,,,495.38184449996334,495.58223780000117,495.5662416999694,495.8669487000443,495.8669487000443,None,496.3666151999496,None,d,1,0.9946468999842182,496.3666151999496,None,None,None,,,,,,,,,,,,,,,,,,,,,,,12005,2,2,2024_Jun_13_1651,stroop_task_switching2_b,2021.2.3,59.773041771844774,
,,,蓝,yellow,j,square,color_mix,单词,,incompatible,1,block_switch1_b,instruction/ready_test.png,instruction/i11.png,,,,,,,,,,,,,,,,,0,0,0,0,0,63,63,63,,,,,,,,,,,,,,,,,,,,,,,,,,,497.38498540001456,497.5871449999977,497.56891030003317,497.86885440000333,497.86885440000333,None,498.36975890002213,None,j,1,1.143827399937436,498.36975890002213,None,None,None,,,,,,,,,,,,,,,,,,,,,,,12005,2,2,2024_Jun_13_1651,stroop_task_switching2_b,2021.2.3,59.773041771844774,
,,,黄,yellow,f,diamond,color_mix,颜色,,compatible,2,block_switch1_b,instruction/ready_test.png,instruction/i11.png,,,,,,,,,,,,,,,,,0,0,0,0,0,64,64,64,,,,,,,,,,,,,,,,,,,,,,,,,,,499.53798729996197,499.73966510000173,499.72313870000653,500.0231948000146,500.0231948000146,None,500.5228646999458,None,f,1,1.4384288999717683,500.5228646999458,None,None,None,,,,,,,,,,,,,,,,,,,,,,,12005,2,2,2024_Jun_13_1651,stroop_task_switching2_b,2021.2.3,59.773041771844774,
,,,蓝,green,d,diamond,color_mix,颜色,,incompatible,1,block_switch1_b,instruction/ready_test.png,instruction/i11.png,,,,,,,,,,,,,,,,,0,0,0,0,0,65,65,65,,,,,,,,,,,,,,,,,,,,,,,,,,,501.99194940004963,502.19217499997467,502.1763153000502,502.47599679999985,502.47599679999985,None,502.97738359996583,None,d,1,0.7762003999669105,502.97738359996583,None,None,None,,,,,,,,,,,,,,,,,,,,,,,12005,2,2,2024_Jun_13_1651,stroop_task_switching2_b,2021.2.3,59.773041771844774,
,,,红,red,k,diamond,color_mix,颜色,,compatible,1,block_switch1_b,instruction/ready_test.png,instruction/i11.png,,,,,,,,,,,,,,,,,0,0,0,0,0,66,66,66,,,,,,,,,,,,,,,,,,,,,,,,,,,503.7780047999695,503.98015319998376,503.96161809994373,504.2631379000377,504.2631379000377,None,504.7628173000412,None,k,1,0.630972099956125,504.7628173000412,None,None,None,,,,,,,,,,,,,,,,,,,,,,,12005,2,2,2024_Jun_13_1651,stroop_task_switching2_b,2021.2.3,59.773041771844774,
,,,蓝,yellow,j,square,color_mix,单词,,incompatible,2,block_switch1_b,instruction/ready_test.png,instruction/i11.png,,,,,,,,,,,,,,,,,0,0,0,0,0,67,67,67,,,,,,,,,,,,,,,,,,,,,,,,,,,505.4136445999611,505.6138430000283,505.59910710004624,505.8975455999607,505.8975455999607,None,506.39862570003606,None,j,1,1.2990370999323204,506.39862570003606,None,None,None,,,,,,,,,,,,,,,,,,,,,,,12005,2,2,2024_Jun_13_1651,stroop_task_switching2_b,2021.2.3,59.773041771844774,
,,,红,yellow,k,square,color_mix,单词,,incompatible,1,block_switch1_b,instruction/ready_test.png,instruction/i11.png,,,,,,,,,,,,,,,,,0,0,0,0,0,68,68,68,,,,,,,,,,,,,,,,,,,,,,,,,,,507.7173304000171,507.9181636000285,507.9017809999641,508.2018881000113,508.2018881000113,None,508.7018922000425,None,k,1,1.6204561999766156,508.7018922000425,None,None,None,,,,,,,,,,,,,,,,,,,,,,,12005,2,2,2024_Jun_13_1651,stroop_task_switching2_b,2021.2.3,59.773041771844774,
,,,红,yellow,f,diamond,color_mix,颜色,,incompatible,2,block_switch1_b,instruction/ready_test.png,instruction/i11.png,,,,,,,,,,,,,,,,,0,0,0,0,0,69,69,69,,,,,,,,,,,,,,,,,,,,,,,,,,,510.3378877999494,510.53813380002975,510.5212160999654,510.8233010999393,510.8233010999393,None,511.322601199965,None,d,0,1.51913929998409,511.322601199965,None,None,None,,,,,,,,,,,,,,,,,,,,,,,12005,2,2,2024_Jun_13_1651,stroop_task_switching2_b,2021.2.3,59.773041771844774,
,,,蓝,green,j,square,color_mix,单词,,incompatible,2,block_switch1_b,instruction/ready_test.png,instruction/i11.png,,,,,,,,,,,,,,,,,0,0,0,0,0,70,70,70,,,,,,,,,,,,,,,,,,,,,,,,,,,512.8582445000065,513.0595432999544,513.0432326999726,513.3432620000094,513.3432620000094,None,513.8430857999483,None,j,1,1.3829451000783592,513.8430857999483,None,None,None,,,,,,,,,,,,,,,,,,,,,,,12005,2,2,2024_Jun_13_1651,stroop_task_switching2_b,2021.2.3,59.773041771844774,
,,,绿,yellow,d,square,color_mix,单词,,incompatible,1,block_switch1_b,instruction/ready_test.png,instruction/i11.png,,,,,,,,,,,,,,,,,0,0,0,0,0,71,71,71,,,,,,,,,,,,,,,,,,,,,,,,,,,515.2449775999412,515.4464539999608,515.4287014999427,515.7292160999496,515.7292160999496,None,516.2300192000112,None,f,0,1.2121318000135943,516.2300192000112,None,None,None,,,,,,,,,,,,,,,,,,,,,,,12005,2,2,2024_Jun_13_1651,stroop_task_switching2_b,2021.2.3,59.773041771844774,
,,,蓝,yellow,f,diamond,color_mix,颜色,,incompatible,2,block_switch1_b,instruction/ready_test.png,instruction/i11.png,,,,,,,,,,,,,,,,,0,0,0,0,0,72,72,72,,,,,,,,,,,,,,,,,,,,,,,,,,,517.4650905999588,517.6670886999927,517.6486852000235,517.950106299948,517.950106299948,None,518.4499141999986,None,f,1,2.016484300023876,518.4499141999986,None,None,None,,,,,,,,,,,,,,,,,,,,,,,12005,2,2,2024_Jun_13_1651,stroop_task_switching2_b,2021.2.3,59.773041771844774,
,,,红,green,k,square,color_mix,单词,,incompatible,2,block_switch1_b,instruction/ready_test.png,instruction/i11.png,,,,,,,,,,,,,,,,,0,0,0,0,0,73,73,73,,,,,,,,,,,,,,,,,,,,,,,,,,,520.4863077000482,520.6881782000419,520.6700610000407,520.9702709999401,520.9702709999401,None,521.4715272999601,None,k,1,1.210715499939397,521.4715272999601,None,None,None,,,,,,,,,,,,,,,,,,,,,,,12005,2,2,2024_Jun_13_1651,stroop_task_switching2_b,2021.2.3,59.773041771844774,
,,,绿,blue,j,diamond,color_mix,颜色,,incompatible,2,block_switch1_b,instruction/ready_test.png,instruction/i11.png,,,,,,,,,,,,,,,,,0,0,0,0,0,74,74,74,,,,,,,,,,,,,,,,,,,,,,,,,,,522.7064984999597,522.9092926000012,522.8900496000424,523.1924292000476,523.1924292000476,None,523.6912021000171,None,j,1,1.1518272999674082,523.6912021000171,None,None,None,,,,,,,,,,,,,,,,,,,,,,,12005,2,2,2024_Jun_13_1651,stroop_task_switching2_b,2021.2.3,59.773041771844774,
,,,红,red,k,square,color_mix,单词,,compatible,2,block_switch1_b,instruction/ready_test.png,instruction/i11.png,,,,,,,,,,,,,,,,,0,0,0,0,0,75,75,75,,,,,,,,,,,,,,,,,,,,,,,,,,,524.8597255999921,525.060691599967,525.0448842999758,525.3446712000296,525.3446712000296,None,525.8446096000262,None,k,1,0.9504822000162676,525.8446096000262,None,None,None,,,,,,,,,,,,,,,,,,,,,,,12005,2,2,2024_Jun_13_1651,stroop_task_switching2_b,2021.2.3,59.773041771844774,
,,,绿,green,d,diamond,color_mix,颜色,,compatible,2,block_switch1_b,instruction/ready_test.png,instruction/i11.png,,,,,,,,,,,,,,,,,0,0,0,0,0,76,76,76,,,,,,,,,,,,,,,,,,,,,,,,,,,526.8124712000135,527.0129477999872,526.9976946000243,527.2984338999959,527.2984338999959,None,527.8143360000104,None,d,1,0.8436559999827296,527.8143360000104,None,None,None,,,,,,,,,,,,,,,,,,,,,,,12005,2,2,2024_Jun_13_1651,stroop_task_switching2_b,2021.2.3,59.773041771844774,
,,,黄,red,f,square,color_mix,单词,,incompatible,2,block_switch1_b,instruction/ready_test.png,instruction/i11.png,,,,,,,,,,,,,,,,,0,0,0,0,0,77,77,77,,,,,,,,,,,,,,,,,,,,,,,,,,,528.6820646999404,528.8835847999435,528.8667875999818,529.167303299997,529.167303299997,None,529.6672719999915,None,f,1,1.2547900000354275,529.6672719999915,None,None,None,,,,,,,,,,,,,,,,,,,,,,,12005,2,2,2024_Jun_13_1651,stroop_task_switching2_b,2021.2.3,59.773041771844774,
,,,红,red,k,square,color_mix,单词,,compatible,1,block_switch1_b,instruction/ready_test.png,instruction/i11.png,,,,,,,,,,,,,,,,,0,0,0,0,0,78,78,78,,,,,,,,,,,,,,,,,,,,,,,,,,,530.9533500999678,531.1532765999436,531.1357932999963,531.4381531999679,531.4381531999679,None,531.936933399993,None,k,1,0.8093370000133291,531.936933399993,None,None,None,,,,,,,,,,,,,,,,,,,,,,,12005,2,2,2024_Jun_13_1651,stroop_task_switching2_b,2021.2.3,59.773041771844774,
,,,黄,yellow,f,square,color_mix,单词,,compatible,1,block_switch1_b,instruction/ready_test.png,instruction/i11.png,,,,,,,,,,,,,,,,,0,0,0,0,0,79,79,79,,,,,,,,,,,,,,,,,,,,,,,,,,,532.7716494000051,532.9728071000427,532.9561349999858,533.2565593000036,533.2565593000036,None,533.7562973999884,None,f,1,1.2304281999822706,533.7562973999884,None,None,None,,,,,,,,,,,,,,,,,,,,,,,12005,2,2,2024_Jun_13_1651,stroop_task_switching2_b,2021.2.3,59.773041771844774,
,,,红,red,k,diamond,color_mix,颜色,,compatible,2,block_switch1_b,instruction/ready_test.png,instruction/i11.png,,,,,,,,,,,,,,,,,0,0,0,0,0,80,80,80,,,,,,,,,,,,,,,,,,,,,,,,,,,535.0083796000108,535.2095897999825,535.1920050999615,535.4923331999453,535.4923331999453,None,535.993958099978,None,k,1,0.8170237999875098,535.993958099978,None,None,None,,,,,,,,,,,,,,,,,,,,,,,12005,2,2,2024_Jun_13_1651,stroop_task_switching2_b,2021.2.3,59.773041771844774,
,,,红,red,k,square,color_mix,单词,,compatible,2,block_switch1_b,instruction/ready_test.png,instruction/i11.png,,,,,,,,,,,,,,,,,0,0,0,0,0,81,81,81,,,,,,,,,,,,,,,,,,,,,,,,,,,536.8276360000018,537.0280490999576,537.0112748999381,537.3118927000323,537.3118927000323,None,537.8133181999438,None,k,1,1.2774028999265283,537.8133181999438,None,None,None,,,,,,,,,,,,,,,,,,,,,,,12005,2,2,2024_Jun_13_1651,stroop_task_switching2_b,2021.2.3,59.773041771844774,
,,,黄,blue,j,diamond,color_mix,颜色,,incompatible,2,block_switch1_b,instruction/ready_test.png,instruction/i11.png,,,,,,,,,,,,,,,,,0,0,0,0,0,82,82,82,,,,,,,,,,,,,,,,,,,,,,,,,,,539.1146214000182,539.315705499961,539.2989134000381,539.6002623999957,539.6002623999957,None,540.1000698000425,None,j,1,1.1023448000196368,540.1000698000425,None,None,None,,,,,,,,,,,,,,,,,,,,,,,12005,2,2,2024_Jun_13_1651,stroop_task_switching2_b,2021.2.3,59.773041771844774,
,,,红,yellow,f,diamond,color_mix,颜色,,incompatible,1,block_switch1_b,instruction/ready_test.png,instruction/i11.png,,,,,,,,,,,,,,,,,0,0,0,0,0,83,83,83,,,,,,,,,,,,,,,,,,,,,,,,,,,541.2349335999461,541.4347558999434,541.4190441999817,541.7184226999525,541.7184226999525,None,542.2189967000159,None,f,1,0.9516334000509232,542.2189967000159,None,None,None,,,,,,,,,,,,,,,,,,,,,,,12005,2,2,2024_Jun_13_1651,stroop_task_switching2_b,2021.2.3,59.773041771844774,
,,,黄,red,k,diamond,color_mix,颜色,,incompatible,1,block_switch1_b,instruction/ready_test.png,instruction/i11.png,,,,,,,,,,,,,,,,,0,0,0,0,0,84,84,84,,,,,,,,,,,,,,,,,,,,,,,,,,,543.1873421999626,543.3881709999405,543.3724248999497,543.6722698999802,543.6722698999802,None,544.1729739999864,None,k,1,1.4377034000353888,544.1729739999864,None,None,None,,,,,,,,,,,,,,,,,,,,,,,12005,2,2,2024_Jun_13_1651,stroop_task_switching2_b,2021.2.3,59.773041771844774,
,,,蓝,blue,j,square,color_mix,单词,,compatible,2,block_switch1_b,instruction/ready_test.png,instruction/i11.png,,,,,,,,,,,,,,,,,0,0,0,0,0,85,85,85,,,,,,,,,,,,,,,,,,,,,,,,,,,545.6411230999511,545.8418080999982,545.825038800016,546.1259248999413,546.1259248999413,None,546.6257516000187,None,j,1,1.184998600045219,546.6257516000187,None,None,None,,,,,,,,,,,,,,,,,,,,,,,12005,2,2,2024_Jun_13_1651,stroop_task_switching2_b,2021.2.3,59.773041771844774,
,,,绿,green,d,square,color_mix,单词,,compatible,1,block_switch1_b,instruction/ready_test.png,instruction/i11.png,,,,,,,,,,,,,,,,,0,0,0,0,0,86,86,86,,,,,,,,,,,,,,,,,,,,,,,,,,,547.82767290005,548.0291088999948,548.0113513999386,548.3122963999631,548.3122963999631,None,548.8122446000343,None,f,0,0.9029180000070482,548.8122446000343,None,None,None,,,,,,,,,,,,,,,,,,,,,,,12005,2,2,2024_Jun_13_1651,stroop_task_switching2_b,2021.2.3,59.773041771844774,
,,,红,red,k,square,color_mix,单词,,compatible,1,block_switch1_b,instruction/ready_test.png,instruction/i11.png,,,,,,,,,,,,,,,,,0,0,0,0,0,87,87,87,,,,,,,,,,,,,,,,,,,,,,,,,,,549.7302452999866,549.9308244000422,549.9153760999907,550.2158337000292,550.2158337000292,None,550.7152494000038,None,k,1,1.6477752999635413,550.7152494000038,None,None,None,,,,,,,,,,,,,,,,,,,,,,,12005,2,2,2024_Jun_13_1651,stroop_task_switching2_b,2021.2.3,59.773041771844774,
,,,黄,green,d,diamond,color_mix,颜色,,incompatible,2,block_switch1_b,instruction/ready_test.png,instruction/i11.png,,,,,,,,,,,,,,,,,0,0,0,0,0,88,88,88,,,,,,,,,,,,,,,,,,,,,,,,,,,552.3844382000389,552.5856909999857,552.5686822000425,552.8695566999959,552.8695566999959,None,553.3704424999887,None,d,1,0.8247415000805631,553.3704424999887,None,None,None,,,,,,,,,,,,,,,,,,,,,,,12005,2,2,2024_Jun_13_1651,stroop_task_switching2_b,2021.2.3,59.773041771844774,
,,,绿,red,d,square,color_mix,单词,,incompatible,2,block_switch1_b,instruction/ready_test.png,instruction/i11.png,,,,,,,,,,,,,,,,,0,0,0,0,0,89,89,89,,,,,,,,,,,,,,,,,,,,,,,,,,,554.2207701000152,554.4215929999482,554.4047042999882,554.7046556000132,554.7046556000132,None,555.2056415999541,None,d,1,1.3330400999402627,555.2056415999541,None,None,None,,,,,,,,,,,,,,,,,,,,,,,12005,2,2,2024_Jun_13_1651,stroop_task_switching2_b,2021.2.3,59.773041771844774,
,,,黄,green,f,square,color_mix,单词,,incompatible,1,block_switch1_b,instruction/ready_test.png,instruction/i11.png,,,,,,,,,,,,,,,,,0,0,0,0,0,90,90,90,,,,,,,,,,,,,,,,,,,,,,,,,,,556.5580412000418,556.7587865999667,556.7411889999639,557.0414890999673,557.0414890999673,None,557.5422485000454,None,f,1,0.8926475000334904,557.5422485000454,None,None,None,,,,,,,,,,,,,,,,,,,,,,,12005,2,2,2024_Jun_13_1651,stroop_task_switching2_b,2021.2.3,59.773041771844774,
,,,蓝,blue,j,square,color_mix,单词,,compatible,1,block_switch1_b,instruction/ready_test.png,instruction/i11.png,,,,,,,,,,,,,,,,,0,0,0,0,0,91,91,91,,,,,,,,,,,,,,,,,,,,,,,,,,,558.4608338000253,558.6613930000458,558.6445169999497,558.9449935000157,558.9449935000157,None,559.4452317999676,None,j,1,0.7338295000372455,559.4452317999676,None,None,None,,,,,,,,,,,,,,,,,,,,,,,12005,2,2,2024_Jun_13_1651,stroop_task_switching2_b,2021.2.3,59.773041771844774,
,,,蓝,red,j,square,color_mix,单词,,incompatible,1,block_switch1_b,instruction/ready_test.png,instruction/i11.png,,,,,,,,,,,,,,,,,0,0,0,0,0,92,92,92,,,,,,,,,,,,,,,,,,,,,,,,,,,560.196235600044,560.398051999975,560.3799105000217,560.6817526000086,560.6817526000086,None,561.1816482000286,None,j,1,0.6774738000240177,561.1816482000286,None,None,None,,,,,,,,,,,,,,,,,,,,,,,12005,2,2,2024_Jun_13_1651,stroop_task_switching2_b,2021.2.3,59.773041771844774,
,,,黄,blue,f,square,color_mix,单词,,incompatible,1,block_switch1_b,instruction/ready_test.png,instruction/i11.png,,,,,,,,,,,,,,,,,0,0,0,0,0,93,93,93,,,,,,,,,,,,,,,,,,,,,,,,,,,561.8822545999428,562.0837136999471,562.0657930000452,562.3670567999361,562.3670567999361,None,562.8670446999604,None,f,1,1.0482360000023618,562.8670446999604,None,None,None,,,,,,,,,,,,,,,,,,,,,,,12005,2,2,2024_Jun_13_1651,stroop_task_switching2_b,2021.2.3,59.773041771844774,
,,,绿,red,k,diamond,color_mix,颜色,,incompatible,2,block_switch1_b,instruction/ready_test.png,instruction/i11.png,,,,,,,,,,,,,,,,,0,0,0,0,0,94,94,94,,,,,,,,,,,,,,,,,,,,,,,,,,,563.935250599985,564.136461099959,564.1194231000263,564.4201611999888,564.4201611999888,None,564.9213243999984,None,d,0,1.3059072999749333,564.9213243999984,None,None,None,,,,,,,,,,,,,,,,,,,,,,,12005,2,2,2024_Jun_13_1651,stroop_task_switching2_b,2021.2.3,59.773041771844774,
,,,蓝,blue,j,diamond,color_mix,颜色,,compatible,1,block_switch1_b,instruction/ready_test.png,instruction/i11.png,,,,,,,,,,,,,,,,,0,0,0,0,0,95,95,95,,,,,,,,,,,,,,,,,,,,,,,,,,,566.2551467999583,566.4565616999753,566.4389725000365,566.7407166999765,566.7407166999765,None,567.2409225000301,None,j,1,1.6584170999703929,567.2409225000301,None,None,None,,,,,,,,,,,,,,,,,,,,,,,12005,2,2,2024_Jun_13_1651,stroop_task_switching2_b,2021.2.3,59.773041771844774,
,,,绿,green,d,square,color_mix,单词,,compatible,2,block_switch1_b,instruction/ready_test.png,instruction/i11.png,,,,,,,,,,,,,,,,,0,0,0,0,0,96,96,96,,,,,,,,,,,,,,,,,,,,,,,,,,,568.9260812000139,569.1276786000235,569.1098476999905,569.410227800021,569.410227800021,None,569.9115215999773,None,d,1,1.1721628999803215,569.9115215999773,None,None,None,,,,,,,,,,,,,,,,,,,,,,,12005,2,2,2024_Jun_13_1651,stroop_task_switching2_b,2021.2.3,59.773041771844774,
,,,,,,,,,,,,block_switch1_b,instruction/ready_test.png,instruction/i11.png,,,,,,,,,,,,,,,,,0,0,0,0,,,,,,,,,,,,,,,,,,,,,,,,,,,,,,,,,,,,,,,,,,,,,,,,,,,,,,,,,,,,571.1127371999901,None,space,8.627538400003687,571.1127371999901,None,,,12005,2,2,2024_Jun_13_1651,stroop_task_switching2_b,2021.2.3,59.773041771844774,
,,,蓝,blue,j,square,color_mix,单词,,compatible,0,block_switch2_b,instruction/ready_2.png,instruction/i12.png,,,,,,,,,,,,,,,,,0,1,1,1,0,0,0,0,,,,,,,,,,,,,,,,,,,581.9137973999605,582.9146041000495,582.9146041000495,583.9168351000408,583.9168351000408,None,580.9273628999945,581.9291019999655,584.9332821000135,585.1351048999932,585.1180226999568,585.4185212999582,585.4185212999582,None,585.9190016000066,None,j,1,1.149192100041546,585.9190016000066,None,None,None,,,,,,,,,579.7758056999883,None,space,1.1241457000141963,579.7758056999883,None,,,,,,,,,12005,2,2,2024_Jun_13_1651,stroop_task_switching2_b,2021.2.3,59.773041771844774,
,,,黄,red,k,diamond,color_mix,颜色,,incompatible,2,block_switch2_b,instruction/ready_2.png,instruction/i12.png,,,,,,,,,,,,,,,,,0,1,1,1,0,1,1,1,,,,,,,,,,,,,,,,,,,,,,,,,,,587.1201290000463,587.3204430999467,587.270505500026,587.5722589000361,587.5722589000361,None,588.0716976999538,None,k,1,0.8283791999565437,588.0716976999538,None,None,None,,,,,,,,,,,,,,,,,,,,,,,12005,2,2,2024_Jun_13_1651,stroop_task_switching2_b,2021.2.3,59.773041771844774,
,,,蓝,green,d,diamond,color_mix,颜色,,incompatible,1,block_switch2_b,instruction/ready_2.png,instruction/i12.png,,,,,,,,,,,,,,,,,0,1,1,1,0,2,2,2,,,,,,,,,,,,,,,,,,,,,,,,,,,588.9229655000381,589.1234759000363,589.1074494000059,589.4081317000091,589.4081317000091,None,589.9077851000475,None,d,1,0.8964713999303058,589.9077851000475,None,None,None,,,,,,,,,,,,,,,,,,,,,,,12005,2,2,2024_Jun_13_1651,stroop_task_switching2_b,2021.2.3,59.773041771844774,
,,,红,yellow,f,diamond,color_mix,颜色,,incompatible,1,block_switch2_b,instruction/ready_2.png,instruction/i12.png,,,,,,,,,,,,,,,,,0,1,1,1,0,3,3,3,,,,,,,,,,,,,,,,,,,,,,,,,,,590.8255419000052,591.0274267999921,591.0093669999624,591.3107154000318,591.3107154000318,None,591.8107463000342,None,f,1,0.7209196999901906,591.8107463000342,None,None,None,,,,,,,,,,,,,,,,,,,,,,,12005,2,2,2024_Jun_13_1651,stroop_task_switching2_b,2021.2.3,59.773041771844774,
,,,红,red,k,diamond,color_mix,颜色,,compatible,1,block_switch2_b,instruction/ready_2.png,instruction/i12.png,,,,,,,,,,,,,,,,,0,1,1,1,0,4,4,4,,,,,,,,,,,,,,,,,,,,,,,,,,,592.5793344000122,592.7786911999574,592.7460325999418,593.0472773000365,593.0472773000365,None,593.5466416999698,None,k,1,0.4414117999840528,593.5466416999698,None,None,None,,,,,,,,,,,,,,,,,,,,,,,12005,2,2,2024_Jun_13_1651,stroop_task_switching2_b,2021.2.3,59.773041771844774,
,,,绿,green,d,square,color_mix,单词,,compatible,2,block_switch2_b,instruction/ready_2.png,instruction/i12.png,,,,,,,,,,,,,,,,,0,1,1,1,0,5,5,5,,,,,,,,,,,,,,,,,,,,,,,,,,,594.0138790999772,594.2149998999666,594.1974246000173,594.4979061000049,594.4979061000049,None,594.9987891999772,None,d,1,0.7732118000276387,594.9987891999772,None,None,None,,,,,,,,,,,,,,,,,,,,,,,12005,2,2,2024_Jun_13_1651,stroop_task_switching2_b,2021.2.3,59.773041771844774,
,,,黄,blue,j,diamond,color_mix,颜色,,incompatible,2,block_switch2_b,instruction/ready_2.png,instruction/i12.png,,,,,,,,,,,,,,,,,0,1,1,1,0,6,6,6,,,,,,,,,,,,,,,,,,,,,,,,,,,595.7998769000405,596.0002205000492,595.9839520000387,596.284633000032,596.284633000032,None,596.7848937000381,None,j,1,1.5472183000529185,596.7848937000381,None,None,None,,,,,,,,,,,,,,,,,,,,,,,12005,2,2,2024_Jun_13_1651,stroop_task_switching2_b,2021.2.3,59.773041771844774,
