b_pra,ins_blocks,ins_blocks2,stim_word,stim_color,corrAns,cue_type,trial_type,task_type,rand,compatibility,switch,b_test,w_pic,w_pic2,trials_instr.thisRepN,trials_instr.thisTrialN,trials_instr.thisN,trials_instr.thisIndex,block_pra.thisRepN,block_pra.thisTrialN,block_pra.thisN,block_pra.thisIndex,trials_rep.thisRepN,trials_rep.thisTrialN,trials_rep.thisN,trials_rep.thisIndex,trials_pra.thisRepN,trials_pra.thisTrialN,trials_pra.thisN,trials_pra.thisIndex,trials_3.thisRepN,trials_3.thisTrialN,trials_3.thisN,trials_3.thisIndex,trials_2.thisRepN,trials_2.thisTrialN,trials_2.thisN,trials_2.thisIndex,instr_image.started,instr_image.stopped,instr_key_resp.keys,instr_key_resp.rt,instr_key_resp.started,instr_key_resp.stopped,instr_pra_image.started,instr_pra_image.stopped,ip_key_resp.keys,ip_key_resp.rt,ip_key_resp.started,ip_key_resp.stopped,block_image.started,block_image.stopped,ib_key_resp.keys,ib_key_resp.rt,ib_key_resp.started,ib_key_resp.stopped,cd3.started,cd3.stopped,cd2.started,cd2.stopped,cd1.started,cd1.stopped,cd_text.started,cd_text.stopped,text_fix.started,text_fix.stopped,text_2.started,text_2.stopped,text_4.started,text_4.stopped,text_target.started,text_target.stopped,key_resp.keys,key_resp.corr,key_resp.rt,key_resp.started,key_resp.stopped,sceen_black.started,sceen_black.stopped,text_fb.started,text_fb.stopped,text.started,text.stopped,key_bf.keys,key_bf.rt,key_bf.started,key_bf.stopped,instr_test_image.started,instr_test_image.stopped,instr_exp_key_resp.keys,instr_exp_key_resp.rt,instr_exp_key_resp.started,instr_exp_key_resp.stopped,text_rest.started,text_rest.stopped,key_resp_rest.keys,key_resp_rest.rt,key_resp_rest.started,key_resp_rest.stopped,text_3.started,text_3.stopped,participant,session,balance,date,expName,psychopyVersion,frameRate,
,,,,,,,,,,,,,,,0,0,0,0,,,,,,,,,,,,,,,,,,,,,11.39755100000184,None,right,0.9145324999699369,11.39755100000184,None,,,,,,,,,,,,,,,,,,,,,,,,,,,,,,,,,,,,,,,,,,,,,,,,,,,,,,,,,,12008,2,2,2024_Jun_14_1757,stroop_task_switching2_b,2021.2.3,59.84666087444117,
,,,,,,,,,,,,,,,1,0,1,0,,,,,,,,,,,,,,,,,,,,,12.348740600049496,None,right,50.44482670002617,12.348740600049496,None,,,,,,,,,,,,,,,,,,,,,,,,,,,,,,,,,,,,,,,,,,,,,,,,,,,,,,,,,,12008,2,2,2024_Jun_14_1757,stroop_task_switching2_b,2021.2.3,59.84666087444117,
,,,,,,,,,,,,,,,2,0,2,0,,,,,,,,,,,,,,,,,,,,,62.82458230003249,None,right,0.19281979999504983,62.82458230003249,None,,,,,,,,,,,,,,,,,,,,,,,,,,,,,,,,,,,,,,,,,,,,,,,,,,,,,,,,,,12008,2,2,2024_Jun_14_1757,stroop_task_switching2_b,2021.2.3,59.84666087444117,
,,,,,,,,,,,,,,,3,0,3,0,,,,,,,,,,,,,,,,,,,,,63.058936699992046,None,right,0.14226039999630302,63.058936699992046,None,,,,,,,,,,,,,,,,,,,,,,,,,,,,,,,,,,,,,,,,,,,,,,,,,,,,,,,,,,12008,2,2,2024_Jun_14_1757,stroop_task_switching2_b,2021.2.3,59.84666087444117,
,,,,,,,,,,,,,,,4,0,4,0,,,,,,,,,,,,,,,,,,,,,63.24231800006237,None,right,0.1509971999330446,63.24231800006237,None,,,,,,,,,,,,,,,,,,,,,,,,,,,,,,,,,,,,,,,,,,,,,,,,,,,,,,,,,,12008,2,2,2024_Jun_14_1757,stroop_task_switching2_b,2021.2.3,59.84666087444117,
,,,,,,,,,,,,,,,5,0,5,0,,,,,,,,,,,,,,,,,,,,,63.42611670005135,None,right,0.44700120005290955,63.42611670005135,None,,,,,,,,,,,,,,,,,,,,,,,,,,,,,,,,,,,,,,,,,,,,,,,,,,,,,,,,,,12008,2,2,2024_Jun_14_1757,stroop_task_switching2_b,2021.2.3,59.84666087444117,
,,,,,,,,,,,,,,,,,,,,,,,,,,,,,,,,,,,,,,,,,,,,,63.91221219999716,None,space,1.453274599974975,63.91221219999716,None,,,,,,,,,,,,,,,,,,,,,,,,,,,,,,,,,,,,,,,,,,,,,,,,,,,,12008,2,2,2024_Jun_14_1757,stroop_task_switching2_b,2021.2.3,59.84666087444117,
condition/block_color_b,instruction/instr_color,instruction/i8_b,XX,red,k,diamond,color_single,颜色,,,,,,,,,,,0,0,0,0,0,0,0,0,0,0,0,0,,,,,,,,,,,,,,,,,,,,,65.41193910001311,None,space,14.692601700080559,65.41193910001311,None,81.18644409999251,82.18850970000494,82.18850970000494,83.1896870000055,83.1896870000055,None,80.20153730001766,81.20440689998213,84.1571945999749,84.3580304000061,84.3580304000061,84.65897390001919,84.65897390001919,None,85.14215690002311,None,d,0,0.7076653999974951,85.14215690002311,None,None,None,85.9099358000094,None,,,,,,,,,,,,,,,,,,,,,12008,2,2,2024_Jun_14_1757,stroop_task_switching2_b,2021.2.3,59.84666087444117,
condition/block_color_b,instruction/instr_color,instruction/i8_b,XX,green,d,diamond,color_single,颜色,,,,,,,,,,,0,0,0,0,0,0,0,0,0,1,1,1,,,,,,,,,,,,,,,,,,,,,,,,,,,,,,,,,,,86.89658679999411,87.0951911000302,87.06202459998894,87.36238429998048,87.36238429998048,None,87.86328060005326,None,d,1,1.074741299962625,87.86328060005326,None,None,None,88.96463180007413,None,,,,,,,,,,,,,,,,,,,,,12008,2,2,2024_Jun_14_1757,stroop_task_switching2_b,2021.2.3,59.84666087444117,
condition/block_color_b,instruction/instr_color,instruction/i8_b,XX,yellow,f,diamond,color_single,颜色,,,,,,,,,,,0,0,0,0,0,0,0,0,0,2,2,2,,,,,,,,,,,,,,,,,,,,,,,,,,,,,,,,,,,89.96743650001008,90.16764440003317,90.1497930000769,90.45100380002987,90.45100380002987,None,90.95207700005267,None,f,1,0.6822363999672234,90.95207700005267,None,None,None,91.65198119997513,None,,,,,,,,,,,,,,,,,,,,,12008,2,2,2024_Jun_14_1757,stroop_task_switching2_b,2021.2.3,59.84666087444117,
condition/block_color_b,instruction/instr_color,instruction/i8_b,XX,blue,j,diamond,color_single,颜色,,,,,,,,,,,0,0,0,0,0,0,0,0,0,3,3,3,,,,,,,,,,,,,,,,,,,,,,,,,,,,,,,,,,,92.65478390001226,92.85556160006672,92.83721680007875,93.13837050006259,93.13837050006259,None,93.63848389999475,None,j,1,0.7075565999839455,93.63848389999475,None,None,None,94.3732060000766,None,,,,,,,,,,,,,,,,,,,,,12008,2,2,2024_Jun_14_1757,stroop_task_switching2_b,2021.2.3,59.84666087444117,
condition/block_color_b,instruction/instr_color,instruction/i8_b,XX,green,d,diamond,color_single,颜色,,,,,,,,,,,0,0,0,0,0,0,0,0,0,4,4,4,,,,,,,,,,,,,,,,,,,,,,,,,,,,,,,,,,,95.37424460006878,95.57459690002725,95.55791159998626,95.8583696000278,95.8583696000278,None,96.35990430007223,None,d,1,0.5781907000346109,96.35990430007223,None,None,None,96.96010889997706,None,,,,,,,,,,,,,,,,,,,,,12008,2,2,2024_Jun_14_1757,stroop_task_switching2_b,2021.2.3,59.84666087444117,
condition/block_color_b,instruction/instr_color,instruction/i8_b,XX,yellow,f,diamond,color_single,颜色,,,,,,,,,,,0,0,0,0,0,0,0,0,0,5,5,5,,,,,,,,,,,,,,,,,,,,,,,,,,,,,,,,,,,97.96212869998999,98.16282740002498,98.14591610000934,98.44656740000937,98.44656740000937,None,98.94734980002977,None,f,1,0.6549367000116035,98.94734980002977,None,None,None,99.64798860007431,None,,,,,,,,,,,,,,,,,,,,,12008,2,2,2024_Jun_14_1757,stroop_task_switching2_b,2021.2.3,59.84666087444117,
condition/block_color_b,instruction/instr_color,instruction/i8_b,XX,blue,j,diamond,color_single,颜色,,,,,,,,,,,0,0,0,0,0,0,0,0,0,6,6,6,,,,,,,,,,,,,,,,,,,,,,,,,,,,,,,,,,,100.64989240001887,100.85109420004301,100.81605790008325,101.11715140007436,101.11715140007436,None,101.61704140005168,None,j,1,0.4493863000534475,101.61704140005168,None,None,None,102.08466549997684,None,,,,,,,,,,,,,,,,,,,,,12008,2,2,2024_Jun_14_1757,stroop_task_switching2_b,2021.2.3,59.84666087444117,
condition/block_color_b,instruction/instr_color,instruction/i8_b,XX,red,k,diamond,color_single,颜色,,,,,,,,,,,0,0,0,0,0,0,0,0,0,7,7,7,,,,,,,,,,,,,,,,,,,,,,,,,,,,,,,,,,,103.08753580006305,103.28679450007621,103.2700684000738,103.56990410003345,103.56990410003345,None,104.07088500005193,None,k,1,0.45145239995326847,104.07088500005193,None,None,None,104.53806940000504,None,,,,,,,,,,,,,,,,,,,,,12008,2,2,2024_Jun_14_1757,stroop_task_switching2_b,2021.2.3,59.84666087444117,
condition/block_color_b,instruction/instr_color,instruction/i8_b,XX,yellow,f,diamond,color_single,颜色,,,,,,,,,,,0,0,0,0,0,0,0,0,0,8,8,8,,,,,,,,,,,,,,,,,,,,,,,,,,,,,,,,,,,105.54141489998437,105.74136870005168,105.72418340004515,106.02578590007033,106.02578590007033,None,106.54121000005398,None,f,1,0.7814579999540001,106.54121000005398,None,None,None,107.34269219997805,None,,,,,,,,,,,,,,,,,,,,,12008,2,2,2024_Jun_14_1757,stroop_task_switching2_b,2021.2.3,59.84666087444117,
condition/block_color_b,instruction/instr_color,instruction/i8_b,XX,blue,j,diamond,color_single,颜色,,,,,,,,,,,0,0,0,0,0,0,0,0,0,9,9,9,,,,,,,,,,,,,,,,,,,,,,,,,,,,,,,,,,,108.34470720007084,108.54411480005365,108.52765920001548,108.82934430008754,108.82934430008754,None,109.32874180004,None,j,1,0.7696880999719724,109.32874180004,None,None,None,110.12947759998497,None,,,,,,,,,,,,,,,,,,,,,12008,2,2,2024_Jun_14_1757,stroop_task_switching2_b,2021.2.3,59.84666087444117,
condition/block_color_b,instruction/instr_color,instruction/i8_b,XX,red,k,diamond,color_single,颜色,,,,,,,,,,,0,0,0,0,0,0,0,0,0,10,10,10,,,,,,,,,,,,,,,,,,,,,,,,,,,,,,,,,,,111.13131840003189,111.33182650001254,111.31561230006628,111.6172822000226,111.6172822000226,None,112.1163500000257,None,k,1,0.35791679995600134,112.1163500000257,None,None,None,112.50059010006953,None,,,,,,,,,,,,,,,,,,,,,12008,2,2,2024_Jun_14_1757,stroop_task_switching2_b,2021.2.3,59.84666087444117,
condition/block_color_b,instruction/instr_color,instruction/i8_b,XX,green,d,diamond,color_single,颜色,,,,,,,,,,,0,0,0,0,0,0,0,0,0,11,11,11,,,,,,,,,,,,,,,,,,,,,,,,,,,,,,,,,,,113.50184490007814,113.70264610007871,113.6852186000906,113.98843070003204,113.98843070003204,None,114.48688019998372,None,d,1,0.3800291999941692,114.48688019998372,None,None,None,114.8876957000466,None,,,,,,,,,,,,,,,,,,,,,12008,2,2,2024_Jun_14_1757,stroop_task_switching2_b,2021.2.3,59.84666087444117,
condition/block_color_b,instruction/instr_color,instruction/i8_b,XX,blue,j,diamond,color_single,颜色,,,,,,,,,,,0,0,0,0,0,0,0,0,0,12,12,12,,,,,,,,,,,,,,,,,,,,,,,,,,,,,,,,,,,115.88864230003674,116.09004360006656,116.07317540002987,116.37285839999095,116.37285839999095,None,116.87352969998028,None,j,1,0.4730247000698,116.87352969998028,None,None,None,117.37442110001575,None,,,,,,,,,,,,,,,,,,,,,12008,2,2,2024_Jun_14_1757,stroop_task_switching2_b,2021.2.3,59.84666087444117,
condition/block_color_b,instruction/instr_color,instruction/i8_b,XX,red,k,diamond,color_single,颜色,,,,,,,,,,,0,0,0,0,0,0,0,0,0,13,13,13,,,,,,,,,,,,,,,,,,,,,,,,,,,,,,,,,,,118.3765164000215,118.57620700006373,118.56037590000778,118.86029280000366,118.86029280000366,None,119.3604450999992,None,k,1,0.6192192999878898,119.3604450999992,None,None,None,119.9947929000482,None,,,,,,,,,,,,,,,,,,,,,12008,2,2,2024_Jun_14_1757,stroop_task_switching2_b,2021.2.3,59.84666087444117,
condition/block_color_b,instruction/instr_color,instruction/i8_b,XX,green,d,diamond,color_single,颜色,,,,,,,,,,,0,0,0,0,0,0,0,0,0,14,14,14,,,,,,,,,,,,,,,,,,,,,,,,,,,,,,,,,,,120.99635030003265,121.19662649999373,121.18161339999642,121.49752279999666,121.48124220001046,None,121.98118760006037,None,d,1,0.6696189000504091,121.98118760006037,None,None,None,122.66548980004154,None,,,,,,,,,,,,,,,,,,,,,12008,2,2,2024_Jun_14_1757,stroop_task_switching2_b,2021.2.3,59.84666087444117,
condition/block_color_b,instruction/instr_color,instruction/i8_b,XX,yellow,f,diamond,color_single,颜色,,,,,,,,,,,0,0,0,0,0,0,0,0,0,15,15,15,,,,,,,,,,,,,,,,,,,,,,,,,,,,,,,,,,,123.6679111000849,123.86973700008821,123.85065300005954,124.15263230004348,124.15263230004348,None,124.65274550009053,None,f,1,0.47024619998410344,124.65274550009053,None,None,None,125.170469100005,None,,,,,,,,,,,,,,,,,,,,,12008,2,2,2024_Jun_14_1757,stroop_task_switching2_b,2021.2.3,59.84666087444117,
condition/block_color_b,instruction/instr_color,instruction/i8_b,XX,red,k,diamond,color_single,颜色,,,,,,,,,,,0,0,0,0,0,0,0,0,0,16,16,16,,,,,,,,,,,,,,,,,,,,,,,,,,,,,,,,,,,126.17212980007753,126.3713786000153,126.33778709999751,126.63950180006213,126.63950180006213,None,127.1398165000137,None,k,1,0.4952990000601858,127.1398165000137,None,None,None,127.65658130007796,None,,,,,,,,,,,,,,,,,,,,,12008,2,2,2024_Jun_14_1757,stroop_task_switching2_b,2021.2.3,59.84666087444117,
condition/block_color_b,instruction/instr_color,instruction/i8_b,XX,green,d,diamond,color_single,颜色,,,,,,,,,,,0,0,0,0,0,0,0,0,0,17,17,17,,,,,,,,,,,,,,,,,,,,,,,,,,,,,,,,,,,128.65906460001133,128.8582712999778,128.84314610005822,129.14327520004008,129.14327520004008,None,129.6439110999927,None,d,1,0.575003799982369,129.6439110999927,None,None,None,130.2438431000337,None,,,,,,,,,,,,,,,,,,,,,12008,2,2,2024_Jun_14_1757,stroop_task_switching2_b,2021.2.3,59.84666087444117,
condition/block_color_b,instruction/instr_color,instruction/i8_b,XX,yellow,f,diamond,color_single,颜色,,,,,,,,,,,0,0,0,0,0,0,0,0,0,18,18,18,,,,,,,,,,,,,,,,,,,,,,,,,,,,,,,,,,,131.24588140007108,131.44535280007403,131.4297927999869,131.72954540001228,131.72954540001228,None,132.2300486000022,None,f,1,0.4928753999993205,132.2300486000022,None,None,None,132.74734330002684,None,,,,,,,,,,,,,,,,,,,,,12008,2,2,2024_Jun_14_1757,stroop_task_switching2_b,2021.2.3,59.84666087444117,
condition/block_color_b,instruction/instr_color,instruction/i8_b,XX,blue,j,diamond,color_single,颜色,,,,,,,,,,,0,0,0,0,0,0,0,0,0,19,19,19,,,,,,,,,,,,,,,,,,,,,,,,,,,,,,,,,,,133.75061920005828,133.95017790002748,133.93367130006664,134.2337947000051,134.2337947000051,None,134.73410290002357,None,j,1,0.38893280003685504,134.73410290002357,None,None,None,135.15107450005598,None,,,,,,,,,,,,,,,,,,,,,12008,2,2,2024_Jun_14_1757,stroop_task_switching2_b,2021.2.3,59.84666087444117,
condition/block_color_b,instruction/instr_color,instruction/i8_b,XX,green,d,diamond,color_single,颜色,,,,,,,,,,,0,0,0,0,0,0,0,0,0,20,20,20,,,,,,,,,,,,,,,,,,,,,,,,,,,,,,,,,,,136.15345700003672,136.35378790006507,136.33666750008706,136.63708090002183,136.63708090002183,None,137.1373973999871,None,d,1,0.48970519995782524,137.1373973999871,None,None,None,137.6549204000039,None,,,,,,,,,,,,,,,,,,,,,12008,2,2,2024_Jun_14_1757,stroop_task_switching2_b,2021.2.3,59.84666087444117,
condition/block_color_b,instruction/instr_color,instruction/i8_b,XX,yellow,f,diamond,color_single,颜色,,,,,,,,,,,0,0,0,0,0,0,0,0,0,21,21,21,,,,,,,,,,,,,,,,,,,,,,,,,,,,,,,,,,,138.65662290004548,138.85659700003453,138.8399232000811,139.14116710005328,139.14116710005328,None,139.6414792999858,None,f,1,0.5619595000753179,139.6414792999858,None,None,None,140.22612460004166,None,,,,,,,,,,,,,,,,,,,,,12008,2,2,2024_Jun_14_1757,stroop_task_switching2_b,2021.2.3,59.84666087444117,
condition/block_color_b,instruction/instr_color,instruction/i8_b,XX,blue,j,diamond,color_single,颜色,,,,,,,,,,,0,0,0,0,0,0,0,0,0,22,22,22,,,,,,,,,,,,,,,,,,,,,,,,,,,,,,,,,,,141.2267695000628,141.4270393999759,141.41051210009027,141.71125880000181,141.71125880000181,None,142.21175970009062,None,j,1,0.552052199956961,142.21175970009062,None,None,None,142.77937330002896,None,,,,,,,,,,,,,,,,,,,,,12008,2,2,2024_Jun_14_1757,stroop_task_switching2_b,2021.2.3,59.84666087444117,
condition/block_color_b,instruction/instr_color,instruction/i8_b,XX,red,k,diamond,color_single,颜色,,,,,,,,,,,0,0,0,0,0,0,0,0,0,23,23,23,,,,,,,,,,,,,,,,,,,,,,,,,,,,,,,,,,,143.7816953000147,143.98232890001964,143.96460820001084,144.26556980004534,144.26556980004534,None,144.76629469997715,None,k,1,0.2769243000075221,144.76629469997715,None,None,None,145.0660420000786,None,,,,,,,,,,,,,,,,,,,,,12008,2,2,2024_Jun_14_1757,stroop_task_switching2_b,2021.2.3,59.84666087444117,
condition/block_color_b,instruction/instr_color,instruction/i8_b,,,,,,,,,,,,,,,,,0,0,0,0,0,0,0,0,,,,,,,,,,,,,,,,,,,,,,,,,,,,,,,,,,,,,,,,,,,,,,,,,,,,,,,,146.0843981000362,None,space,2.7278487000148743,146.0843981000362,None,,,,,,,,,,,,,,,12008,2,2,2024_Jun_14_1757,stroop_task_switching2_b,2021.2.3,59.84666087444117,
condition/block_color_b,instruction/instr_color,instruction/i8_b,,,,,,,,,,,,,,,,,0,0,0,0,,,,,,,,,,,,,,,,,,,,,,,,,,,,,,,,,,,,,,,,,,,,,,,,,,,,,,,,,,,,,,,,,,,,,,,,,,,,,,,,12008,2,2,2024_Jun_14_1757,stroop_task_switching2_b,2021.2.3,59.84666087444117,
condition/block_word_b,instruction/instr_word,instruction/i9_b,黄,white,f,square,word_single,单词,0.0032461461866890584,,,,,,,,,,0,1,1,1,0,0,0,0,0,0,0,0,,,,,,,,,,,,,,,,,,,,,148.87284710002132,None,space,7.115350799984299,148.87284710002132,None,157.01730220008176,158.01979320007376,158.01979320007376,159.02126449998468,159.02126449998468,None,156.03327650006395,157.0345860000234,160.05620280001312,160.25652230007108,160.23961090005469,160.53942490008194,160.53942490008194,None,161.0233537000604,None,f,1,1.1084646999370307,161.0233537000604,None,None,None,162.19172350002918,None,,,,,,,,,,,,,,,,,,,,,12008,2,2,2024_Jun_14_1757,stroop_task_switching2_b,2021.2.3,59.84666087444117,
condition/block_word_b,instruction/instr_word,instruction/i9_b,蓝,white,j,square,word_single,单词,0.060540570646362424,,,,,,,,,,0,1,1,1,0,0,0,0,0,1,1,1,,,,,,,,,,,,,,,,,,,,,,,,,,,,,,,,,,,163.1768532000715,163.37747669999953,163.3443849000614,163.64366260007955,163.64366260007955,None,164.14459030004218,None,j,1,0.6192359999986365,164.14459030004218,None,None,None,164.77899320004508,None,,,,,,,,,,,,,,,,,,,,,12008,2,2,2024_Jun_14_1757,stroop_task_switching2_b,2021.2.3,59.84666087444117,
condition/block_word_b,instruction/instr_word,instruction/i9_b,黄,white,f,square,word_single,单词,0.06994067193778963,,,,,,,,,,0,1,1,1,0,0,0,0,0,2,2,2,,,,,,,,,,,,,,,,,,,,,,,,,,,,,,,,,,,165.78182030003518,165.98189350008033,165.9645527000539,166.2647006000625,166.2647006000625,None,166.76545260008425,None,f,1,0.7350497000152245,166.76545260008425,None,None,None,167.51650580007117,None,,,,,,,,,,,,,,,,,,,,,12008,2,2,2024_Jun_14_1757,stroop_task_switching2_b,2021.2.3,59.84666087444117,
condition/block_word_b,instruction/instr_word,instruction/i9_b,蓝,white,j,square,word_single,单词,0.08193765152950094,,,,,,,,,,0,1,1,1,0,0,0,0,0,3,3,3,,,,,,,,,,,,,,,,,,,,,,,,,,,,,,,,,,,168.51817180006765,168.71845110005233,168.70266459998675,169.00338590005413,169.00338590005413,None,169.5032236999832,None,j,1,0.5650992000009865,169.5032236999832,None,None,None,170.08732990000863,None,,,,,,,,,,,,,,,,,,,,,12008,2,2,2024_Jun_14_1757,stroop_task_switching2_b,2021.2.3,59.84666087444117,
condition/block_word_b,instruction/instr_word,instruction/i9_b,红,white,k,square,word_single,单词,0.1279694370605574,,,,,,,,,,0,1,1,1,0,0,0,0,0,4,4,4,,,,,,,,,,,,,,,,,,,,,,,,,,,,,,,,,,,171.0895408000797,171.28970249998383,171.2743653000798,171.5906952000223,171.57371869997587,None,172.07336670008954,None,k,1,0.5152680999599397,172.07336670008954,None,None,None,172.60753670008853,None,,,,,,,,,,,,,,,,,,,,,12008,2,2,2024_Jun_14_1757,stroop_task_switching2_b,2021.2.3,59.84666087444117,
condition/block_word_b,instruction/instr_word,instruction/i9_b,红,white,k,square,word_single,单词,0.18345028784879092,,,,,,,,,,0,1,1,1,0,0,0,0,0,5,5,5,,,,,,,,,,,,,,,,,,,,,,,,,,,,,,,,,,,173.6101044000825,173.80997140007094,173.79337119997945,174.09347130008973,174.09347130008973,None,174.59484490007162,None,j,0,0.9772796999895945,174.59484490007162,None,None,None,175.59538890002295,None,,,,,,,,,,,,,,,,,,,,,12008,2,2,2024_Jun_14_1757,stroop_task_switching2_b,2021.2.3,59.84666087444117,
condition/block_word_b,instruction/instr_word,instruction/i9_b,蓝,white,j,square,word_single,单词,0.19920386223101294,,,,,,,,,,0,1,1,1,0,0,0,0,0,6,6,6,,,,,,,,,,,,,,,,,,,,,,,,,,,,,,,,,,,176.59695710008964,176.79832110006828,176.78042349999305,177.0821282999823,177.0821282999823,None,177.58196410001256,None,j,1,0.5027192999841645,177.58196410001256,None,None,None,178.0990769000491,None,,,,,,,,,,,,,,,,,,,,,12008,2,2,2024_Jun_14_1757,stroop_task_switching2_b,2021.2.3,59.84666087444117,
condition/block_word_b,instruction/instr_word,instruction/i9_b,蓝,white,j,square,word_single,单词,0.26360599864925405,,,,,,,,,,0,1,1,1,0,0,0,0,0,7,7,7,,,,,,,,,,,,,,,,,,,,,,,,,,,,,,,,,,,179.10157449997496,179.30121790000703,179.2849506000057,179.58495789999142,179.58495789999142,None,180.08636200008914,None,j,1,0.5176354999421164,180.08636200008914,None,None,None,180.61943209997844,None,,,,,,,,,,,,,,,,,,,,,12008,2,2,2024_Jun_14_1757,stroop_task_switching2_b,2021.2.3,59.84666087444117,
condition/block_word_b,instruction/instr_word,instruction/i9_b,蓝,white,j,square,word_single,单词,0.358985675745526,,,,,,,,,,0,1,1,1,0,0,0,0,0,8,8,8,,,,,,,,,,,,,,,,,,,,,,,,,,,,,,,,,,,181.62183050008025,181.82151440007146,181.80484490003437,182.1075858999975,182.1075858999975,None,182.62357579998206,None,j,1,0.5488109999569133,182.62357579998206,None,None,None,183.18998899997678,None,,,,,,,,,,,,,,,,,,,,,12008,2,2,2024_Jun_14_1757,stroop_task_switching2_b,2021.2.3,59.84666087444117,
condition/block_word_b,instruction/instr_word,instruction/i9_b,绿,white,d,square,word_single,单词,0.36496733802487347,,,,,,,,,,0,1,1,1,0,0,0,0,0,9,9,9,,,,,,,,,,,,,,,,,,,,,,,,,,,,,,,,,,,184.19191420008428,184.39271949999966,184.37527309998404,184.6767272000434,184.6767272000434,None,185.17669880005997,None,f,0,0.5877521999645978,185.17669880005997,None,None,None,185.79431810008828,None,,,,,,,,,,,,,,,,,,,,,12008,2,2,2024_Jun_14_1757,stroop_task_switching2_b,2021.2.3,59.84666087444117,
condition/block_word_b,instruction/instr_word,instruction/i9_b,黄,white,f,square,word_single,单词,0.3743513623756727,,,,,,,,,,0,1,1,1,0,0,0,0,0,10,10,10,,,,,,,,,,,,,,,,,,,,,,,,,,,,,,,,,,,186.79614470002707,186.9960601000348,186.97960399999283,187.27946730004624,187.27946730004624,None,187.78085980005562,None,f,1,0.7756407000124454,187.78085980005562,None,None,None,188.5816978000803,None,,,,,,,,,,,,,,,,,,,,,12008,2,2,2024_Jun_14_1757,stroop_task_switching2_b,2021.2.3,59.84666087444117,
condition/block_word_b,instruction/instr_word,instruction/i9_b,红,white,k,square,word_single,单词,0.3894803852598544,,,,,,,,,,0,1,1,1,0,0,0,0,0,11,11,11,,,,,,,,,,,,,,,,,,,,,,,,,,,,,,,,,,,189.5845889999764,189.78435000008903,189.7673833000008,190.06782420002855,190.06782420002855,None,190.56831130001228,None,k,1,0.6763821999775246,190.56831130001228,None,None,None,191.2688883000519,None,,,,,,,,,,,,,,,,,,,,,12008,2,2,2024_Jun_14_1757,stroop_task_switching2_b,2021.2.3,59.84666087444117,
condition/block_word_b,instruction/instr_word,instruction/i9_b,绿,white,d,square,word_single,单词,0.5393759672408067,,,,,,,,,,0,1,1,1,0,0,0,0,0,12,12,12,,,,,,,,,,,,,,,,,,,,,,,,,,,,,,,,,,,192.27110060001723,192.4716175000649,192.45443719998002,192.7553688000189,192.7553688000189,None,193.2554752000142,None,d,1,0.6374348000390455,193.2554752000142,None,None,None,193.94010060001165,None,,,,,,,,,,,,,,,,,,,,,12008,2,2,2024_Jun_14_1757,stroop_task_switching2_b,2021.2.3,59.84666087444117,
condition/block_word_b,instruction/instr_word,instruction/i9_b,蓝,white,j,square,word_single,单词,0.5995731954831104,,,,,,,,,,0,1,1,1,0,0,0,0,0,13,13,13,,,,,,,,,,,,,,,,,,,,,,,,,,,,,,,,,,,194.9422810000833,195.14281960006338,195.1253026999766,195.4255205000518,195.40958620002493,None,195.90933290007524,None,j,1,0.5832937000086531,195.90933290007524,None,None,None,196.51030199998058,None,,,,,,,,,,,,,,,,,,,,,12008,2,2,2024_Jun_14_1757,stroop_task_switching2_b,2021.2.3,59.84666087444117,
condition/block_word_b,instruction/instr_word,instruction/i9_b,红,white,k,square,word_single,单词,0.6298674479151414,,,,,,,,,,0,1,1,1,0,0,0,0,0,14,14,14,,,,,,,,,,,,,,,,,,,,,,,,,,,,,,,,,,,197.5121586000314,197.71307040005922,197.69619950000197,197.996934600058,197.996934600058,None,198.4967292000074,None,k,1,0.5485441000200808,198.4967292000074,None,None,None,199.0641072000144,None,,,,,,,,,,,,,,,,,,,,,12008,2,2,2024_Jun_14_1757,stroop_task_switching2_b,2021.2.3,59.84666087444117,
condition/block_word_b,instruction/instr_word,instruction/i9_b,红,white,k,square,word_single,单词,0.7389942282348904,,,,,,,,,,0,1,1,1,0,0,0,0,0,15,15,15,,,,,,,,,,,,,,,,,,,,,,,,,,,,,,,,,,,200.06564010004513,200.26675070007332,200.24998650001362,200.5499070000369,200.5499070000369,None,201.05039580003358,None,k,1,0.6993307999800891,201.05039580003358,None,None,None,201.76804250001442,None,,,,,,,,,,,,,,,,,,,,,12008,2,2,2024_Jun_14_1757,stroop_task_switching2_b,2021.2.3,59.84666087444117,
condition/block_word_b,instruction/instr_word,instruction/i9_b,绿,white,d,square,word_single,单词,0.7550853947239682,,,,,,,,,,0,1,1,1,0,0,0,0,0,16,16,16,,,,,,,,,,,,,,,,,,,,,,,,,,,,,,,,,,,202.76962530007586,202.9703637000639,202.95486120006535,203.2556188000599,203.2556188000599,None,203.75460230000317,None,d,1,0.7152645000023767,203.75460230000317,None,None,None,204.48889809998218,None,,,,,,,,,,,,,,,,,,,,,12008,2,2,2024_Jun_14_1757,stroop_task_switching2_b,2021.2.3,59.84666087444117,
condition/block_word_b,instruction/instr_word,instruction/i9_b,绿,white,d,square,word_single,单词,0.8019302780428206,,,,,,,,,,0,1,1,1,0,0,0,0,0,17,17,17,,,,,,,,,,,,,,,,,,,,,,,,,,,,,,,,,,,205.49095110001508,205.6923271000851,205.6740486000199,205.9744619000703,205.9744619000703,None,206.47528690006584,None,d,1,0.7380911000072956,206.47528690006584,None,None,None,207.26036600000225,None,,,,,,,,,,,,,,,,,,,,,12008,2,2,2024_Jun_14_1757,stroop_task_switching2_b,2021.2.3,59.84666087444117,
condition/block_word_b,instruction/instr_word,instruction/i9_b,绿,white,d,square,word_single,单词,0.8110702914095343,,,,,,,,,,0,1,1,1,0,0,0,0,0,18,18,18,,,,,,,,,,,,,,,,,,,,,,,,,,,,,,,,,,,208.26187120005488,208.46221140003763,208.44654190004803,208.74631840002257,208.72974580002483,None,209.23018010007218,None,d,1,0.6314849000191316,209.23018010007218,None,None,None,209.88047139998525,None,,,,,,,,,,,,,,,,,,,,,12008,2,2,2024_Jun_14_1757,stroop_task_switching2_b,2021.2.3,59.84666087444117,
condition/block_word_b,instruction/instr_word,instruction/i9_b,黄,white,f,square,word_single,单词,0.8176594937590999,,,,,,,,,,0,1,1,1,0,0,0,0,0,19,19,19,,,,,,,,,,,,,,,,,,,,,,,,,,,,,,,,,,,210.88175420009065,211.08226080005988,211.06583640002646,211.36608409998007,211.36608409998007,None,211.86686090007424,None,f,1,0.5787535000126809,211.86686090007424,None,None,None,212.46811000001617,None,,,,,,,,,,,,,,,,,,,,,12008,2,2,2024_Jun_14_1757,stroop_task_switching2_b,2021.2.3,59.84666087444117,
condition/block_word_b,instruction/instr_word,instruction/i9_b,红,white,k,square,word_single,单词,0.8955794421104841,,,,,,,,,,0,1,1,1,0,0,0,0,0,20,20,20,,,,,,,,,,,,,,,,,,,,,,,,,,,,,,,,,,,213.4702105000615,213.67188909999095,213.65309270005673,213.95570060005412,213.95570060005412,None,214.4709654999897,None,k,1,0.5427009999984875,214.4709654999897,None,None,None,215.03824640007224,None,,,,,,,,,,,,,,,,,,,,,12008,2,2,2024_Jun_14_1757,stroop_task_switching2_b,2021.2.3,59.84666087444117,
condition/block_word_b,instruction/instr_word,instruction/i9_b,绿,white,d,square,word_single,单词,0.9113598052474129,,,,,,,,,,0,1,1,1,0,0,0,0,0,21,21,21,,,,,,,,,,,,,,,,,,,,,,,,,,,,,,,,,,,216.03943000000436,216.24148600001354,216.22356110007968,216.52496880001854,216.52496880001854,None,217.02455020009074,None,d,1,0.636831899988465,217.02455020009074,None,None,None,217.69232050003484,None,,,,,,,,,,,,,,,,,,,,,12008,2,2,2024_Jun_14_1757,stroop_task_switching2_b,2021.2.3,59.84666087444117,
condition/block_word_b,instruction/instr_word,instruction/i9_b,黄,white,f,square,word_single,单词,0.9215930958042953,,,,,,,,,,0,1,1,1,0,0,0,0,0,22,22,22,,,,,,,,,,,,,,,,,,,,,,,,,,,,,,,,,,,218.6941012000898,218.89455369999632,218.87806890008505,219.17870430008043,219.17870430008043,None,219.67853240005206,None,f,1,0.5671603999799117,219.67853240005206,None,None,None,220.26269140001386,None,,,,,,,,,,,,,,,,,,,,,12008,2,2,2024_Jun_14_1757,stroop_task_switching2_b,2021.2.3,59.84666087444117,
condition/block_word_b,instruction/instr_word,instruction/i9_b,黄,white,f,square,word_single,单词,0.9493525498837774,,,,,,,,,,0,1,1,1,0,0,0,0,0,23,23,23,,,,,,,,,,,,,,,,,,,,,,,,,,,,,,,,,,,221.264113000012,221.46605130005628,221.44831160001922,221.74823610007297,221.74823610007297,None,222.25049220002256,None,f,1,0.6033591000596061,222.25049220002256,None,None,None,222.88390240003355,None,,,,,,,,,,,,,,,,,,,,,12008,2,2,2024_Jun_14_1757,stroop_task_switching2_b,2021.2.3,59.84666087444117,
condition/block_word_b,instruction/instr_word,instruction/i9_b,,,,,,,,,,,,,,,,,0,1,1,1,0,0,0,0,,,,,,,,,,,,,,,,,,,,,,,,,,,,,,,,,,,,,,,,,,,,,,,,,,,,,,,,223.88453220005613,None,space,3.070790800033137,223.88453220005613,None,,,,,,,,,,,,,,,12008,2,2,2024_Jun_14_1757,stroop_task_switching2_b,2021.2.3,59.84666087444117,
condition/block_word_b,instruction/instr_word,instruction/i9_b,,,,,,,,,,,,,,,,,0,1,1,1,,,,,,,,,,,,,,,,,,,,,,,,,,,,,,,,,,,,,,,,,,,,,,,,,,,,,,,,,,,,,,,,,,,,,,,,,,,,,,,,12008,2,2,2024_Jun_14_1757,stroop_task_switching2_b,2021.2.3,59.84666087444117,
condition/block_mixed_b,instruction/instr_mixed,instruction/i10_b,蓝,red,k,diamond,color_mix,颜色,,incompatible,0,,,,,,,,0,2,2,2,0,0,0,0,0,0,0,0,,,,,,,,,,,,,,,,,,,,,227.0064234000165,None,space,17.055670099915005,227.0064234000165,None,245.08526700001676,246.085821100045,246.085821100045,247.08742070000153,247.08742070000153,None,244.09943930001464,245.10052870004438,248.12281960004475,248.32271780003794,248.30616889998782,248.60555330000352,248.60555330000352,None,249.08945040008985,252.09457539999858,None,0,,249.08945040008985,252.09457539999858,252.06096040003467,None,252.66232110001147,None,,,,,,,,,,,,,,,,,,,,,12008,2,2,2024_Jun_14_1757,stroop_task_switching2_b,2021.2.3,59.84666087444117,
condition/block_mixed_b,instruction/instr_mixed,instruction/i10_b,绿,yellow,f,diamond,color_mix,颜色,,incompatible,1,,,,,,,,0,2,2,2,0,0,0,0,0,1,1,1,,,,,,,,,,,,,,,,,,,,,,,,,,,,,,,,,,,253.66338659997564,253.8636419000104,253.84901760006323,254.14749380003195,254.14749380003195,None,254.648719000048,None,d,0,1.1417711999965832,254.648719000048,None,None,None,255.84958949999418,None,,,,,,,,,,,,,,,,,,,,,12008,2,2,2024_Jun_14_1757,stroop_task_switching2_b,2021.2.3,59.84666087444117,
condition/block_mixed_b,instruction/instr_mixed,instruction/i10_b,红,green,d,diamond,color_mix,颜色,,incompatible,1,,,,,,,,0,2,2,2,0,0,0,0,0,2,2,2,,,,,,,,,,,,,,,,,,,,,,,,,,,,,,,,,,,256.8345572000835,257.0355421000859,257.0181365000317,257.31980370008387,257.30214200005867,None,257.8029112999793,None,d,1,2.011695900000632,257.8029112999793,None,None,None,259.8391372000333,None,,,,,,,,,,,,,,,,,,,,,12008,2,2,2024_Jun_14_1757,stroop_task_switching2_b,2021.2.3,59.84666087444117,
condition/block_mixed_b,instruction/instr_mixed,instruction/i10_b,蓝,red,k,diamond,color_mix,颜色,,incompatible,1,,,,,,,,0,2,2,2,0,0,0,0,0,3,3,3,,,,,,,,,,,,,,,,,,,,,,,,,,,,,,,,,,,260.8404957000166,261.0408889000537,261.0251176999882,261.3256363000255,261.3256363000255,None,261.8253986000782,None,k,1,0.7894186000339687,261.8253986000782,None,None,None,262.6431416000705,None,,,,,,,,,,,,,,,,,,,,,12008,2,2,2024_Jun_14_1757,stroop_task_switching2_b,2021.2.3,59.84666087444117,
condition/block_mixed_b,instruction/instr_mixed,instruction/i10_b,红,blue,j,diamond,color_mix,颜色,,incompatible,1,,,,,,,,0,2,2,2,0,0,0,0,0,4,4,4,,,,,,,,,,,,,,,,,,,,,,,,,,,,,,,,,,,263.6448026000289,263.84512730001006,263.8292466000421,264.12905640003737,264.12905640003737,None,264.63031100004446,None,k,0,0.9763108999468386,264.63031100004446,None,None,None,265.6310933000641,None,,,,,,,,,,,,,,,,,,,,,12008,2,2,2024_Jun_14_1757,stroop_task_switching2_b,2021.2.3,59.84666087444117,
condition/block_mixed_b,instruction/instr_mixed,instruction/i10_b,红,blue,k,square,color_mix,单词,,incompatible,2,,,,,,,,0,2,2,2,0,0,0,0,0,5,5,5,,,,,,,,,,,,,,,,,,,,,,,,,,,,,,,,,,,266.6326203000499,266.83318820002023,266.81630080007017,267.11836740002036,267.11836740002036,None,267.61778790003154,None,j,0,0.781354199978523,267.61778790003154,None,None,None,268.41905090003274,None,,,,,,,,,,,,,,,,,,,,,12008,2,2,2024_Jun_14_1757,stroop_task_switching2_b,2021.2.3,59.84666087444117,
condition/block_mixed_b,instruction/instr_mixed,instruction/i10_b,红,yellow,f,diamond,color_mix,颜色,,incompatible,2,,,,,,,,0,2,2,2,0,0,0,0,0,6,6,6,,,,,,,,,,,,,,,,,,,,,,,,,,,,,,,,,,,269.4201790000079,269.62215499999,269.60370149998926,269.90488020004705,269.90488020004705,None,270.4058841000078,None,f,1,2.401331300032325,270.4058841000078,None,None,None,272.8252860000357,None,,,,,,,,,,,,,,,,,,,,,12008,2,2,2024_Jun_14_1757,stroop_task_switching2_b,2021.2.3,59.84666087444117,
condition/block_mixed_b,instruction/instr_mixed,instruction/i10_b,红,yellow,k,square,color_mix,单词,,incompatible,2,,,,,,,,0,2,2,2,0,0,0,0,0,7,7,7,,,,,,,,,,,,,,,,,,,,,,,,,,,,,,,,,,,273.82776090002153,274.02952420001384,274.0107597000897,274.3130133000668,274.3130133000668,None,274.8125592999859,None,k,1,1.8826246000826359,274.8125592999859,None,None,None,276.7146546000149,None,,,,,,,,,,,,,,,,,,,,,12008,2,2,2024_Jun_14_1757,stroop_task_switching2_b,2021.2.3,59.84666087444117,
condition/block_mixed_b,instruction/instr_mixed,instruction/i10_b,绿,blue,d,square,color_mix,单词,,incompatible,1,,,,,,,,0,2,2,2,0,0,0,0,0,8,8,8,,,,,,,,,,,,,,,,,,,,,,,,,,,,,,,,,,,277.71592330001295,277.9162331999978,277.8996341000311,278.20012699998915,278.20012699998915,None,278.70083019998856,None,d,1,0.8022598000243306,278.70083019998856,None,None,None,279.5186478000833,None,,,,,,,,,,,,,,,,,,,,,12008,2,2,2024_Jun_14_1757,stroop_task_switching2_b,2021.2.3,59.84666087444117,
condition/block_mixed_b,instruction/instr_mixed,instruction/i10_b,蓝,green,d,diamond,color_mix,颜色,,incompatible,2,,,,,,,,0,2,2,2,0,0,0,0,0,9,9,9,,,,,,,,,,,,,,,,,,,,,,,,,,,,,,,,,,,280.52106380008627,280.72065540007316,280.7047651000321,281.00568850000855,281.00568850000855,None,281.5058167000534,None,f,0,1.4372305000433698,281.5058167000534,None,None,None,282.99179510003887,None,,,,,,,,,,,,,,,,,,,,,12008,2,2,2024_Jun_14_1757,stroop_task_switching2_b,2021.2.3,59.84666087444117,
condition/block_mixed_b,instruction/instr_mixed,instruction/i10_b,蓝,yellow,j,square,color_mix,单词,,incompatible,2,,,,,,,,0,2,2,2,0,0,0,0,0,10,10,10,,,,,,,,,,,,,,,,,,,,,,,,,,,,,,,,,,,283.99220079998486,284.19336000003386,284.17662620008923,284.4775262000039,284.4775262000039,None,284.97704150003847,None,j,1,0.6623482999857515,284.97704150003847,None,None,None,285.6614119000733,None,,,,,,,,,,,,,,,,,,,,,12008,2,2,2024_Jun_14_1757,stroop_task_switching2_b,2021.2.3,59.84666087444117,
condition/block_mixed_b,instruction/instr_mixed,instruction/i10_b,蓝,green,j,square,color_mix,单词,,incompatible,1,,,,,,,,0,2,2,2,0,0,0,0,0,11,11,11,,,,,,,,,,,,,,,,,,,,,,,,,,,,,,,,,,,286.6638674000278,286.864301100024,286.84679560002405,287.1489061000757,287.1489061000757,None,287.64755900006276,None,j,1,0.6322547000600025,287.64755900006276,None,None,None,288.2989337000763,None,,,,,,,,,,,,,,,,,,,,,12008,2,2,2024_Jun_14_1757,stroop_task_switching2_b,2021.2.3,59.84666087444117,
condition/block_mixed_b,instruction/instr_mixed,instruction/i10_b,绿,yellow,d,square,color_mix,单词,,incompatible,1,,,,,,,,0,2,2,2,0,0,0,0,0,12,12,12,,,,,,,,,,,,,,,,,,,,,,,,,,,,,,,,,,,289.3007605000166,289.5006117000012,289.48417230008636,289.7847462000791,289.767420600052,None,290.26831050007604,None,d,1,0.6276196000399068,290.26831050007604,None,None,None,290.9192171000177,None,,,,,,,,,,,,,,,,,,,,,12008,2,2,2024_Jun_14_1757,stroop_task_switching2_b,2021.2.3,59.84666087444117,
condition/block_mixed_b,instruction/instr_mixed,instruction/i10_b,绿,blue,j,diamond,color_mix,颜色,,incompatible,2,,,,,,,,0,2,2,2,0,0,0,0,0,13,13,13,,,,,,,,,,,,,,,,,,,,,,,,,,,,,,,,,,,291.9210241000401,292.1210933000548,292.1046814000001,292.40591279999353,292.40591279999353,None,292.90537520009093,None,f,0,1.9738667999627069,292.90537520009093,None,None,None,294.9258621999761,None,,,,,,,,,,,,,,,,,,,,,12008,2,2,2024_Jun_14_1757,stroop_task_switching2_b,2021.2.3,59.84666087444117,
condition/block_mixed_b,instruction/instr_mixed,instruction/i10_b,黄,red,f,square,color_mix,单词,,incompatible,2,,,,,,,,0,2,2,2,0,0,0,0,0,14,14,14,,,,,,,,,,,,,,,,,,,,,,,,,,,,,,,,,,,295.92770290002227,296.1270719000604,296.11043900006916,296.41139050002676,296.41139050002676,None,296.9123542000307,None,j,0,2.064535000012256,296.9123542000307,None,None,None,298.99831529997755,None,,,,,,,,,,,,,,,,,,,,,12008,2,2,2024_Jun_14_1757,stroop_task_switching2_b,2021.2.3,59.84666087444117,
condition/block_mixed_b,instruction/instr_mixed,instruction/i10_b,蓝,yellow,f,diamond,color_mix,颜色,,incompatible,2,,,,,,,,0,2,2,2,0,0,0,0,0,15,15,15,,,,,,,,,,,,,,,,,,,,,,,,,,,,,,,,,,,300.000637600082,300.19982430001255,300.1850018000696,300.50132949999534,300.4852487000171,None,300.9842602000572,None,j,0,2.111476399935782,300.9842602000572,None,None,None,303.12111800001003,None,,,,,,,,,,,,,,,,,,,,,12008,2,2,2024_Jun_14_1757,stroop_task_switching2_b,2021.2.3,59.84666087444117,
condition/block_mixed_b,instruction/instr_mixed,instruction/i10_b,黄,red,k,diamond,color_mix,颜色,,incompatible,1,,,,,,,,0,2,2,2,0,0,0,0,0,16,16,16,,,,,,,,,,,,,,,,,,,,,,,,,,,,,,,,,,,304.12258620001376,304.3248813999817,304.30625240004156,304.60696360003203,304.590815500007,None,305.0912178000435,None,k,1,2.1967709000455216,305.0912178000435,None,None,None,307.31124300009105,None,,,,,,,,,,,,,,,,,,,,,12008,2,2,2024_Jun_14_1757,stroop_task_switching2_b,2021.2.3,59.84666087444117,
condition/block_mixed_b,instruction/instr_mixed,instruction/i10_b,绿,red,d,square,color_mix,单词,,incompatible,2,,,,,,,,0,2,2,2,0,0,0,0,0,17,17,17,,,,,,,,,,,,,,,,,,,,,,,,,,,,,,,,,,,308.3132120000664,308.5151547000278,308.49630290002096,308.79716409998946,308.79716409998946,None,309.29808990005404,None,d,1,1.7183314999565482,309.29808990005404,None,None,None,311.0327908000909,None,,,,,,,,,,,,,,,,,,,,,12008,2,2,2024_Jun_14_1757,stroop_task_switching2_b,2021.2.3,59.84666087444117,
condition/block_mixed_b,instruction/instr_mixed,instruction/i10_b,红,green,k,square,color_mix,单词,,incompatible,1,,,,,,,,0,2,2,2,0,0,0,0,0,18,18,18,,,,,,,,,,,,,,,,,,,,,,,,,,,,,,,,,,,312.03432720003184,312.23641260003205,312.2183578000404,312.51959739997983,312.51959739997983,None,313.01929590001237,None,k,1,0.933434100006707,313.01929590001237,None,None,None,313.9705143000465,None,,,,,,,,,,,,,,,,,,,,,12008,2,2,2024_Jun_14_1757,stroop_task_switching2_b,2021.2.3,59.84666087444117,
condition/block_mixed_b,instruction/instr_mixed,instruction/i10_b,黄,blue,j,diamond,color_mix,颜色,,incompatible,2,,,,,,,,0,2,2,2,0,0,0,0,0,19,19,19,,,,,,,,,,,,,,,,,,,,,,,,,,,,,,,,,,,314.97231300000567,315.17254649999086,315.15659320005216,315.4572406000225,315.4572406000225,None,315.9573650000384,None,j,1,0.8507050999905914,315.9573650000384,None,None,None,316.82500509999227,None,,,,,,,,,,,,,,,,,,,,,12008,2,2,2024_Jun_14_1757,stroop_task_switching2_b,2021.2.3,59.84666087444117,
condition/block_mixed_b,instruction/instr_mixed,instruction/i10_b,黄,green,d,diamond,color_mix,颜色,,incompatible,1,,,,,,,,0,2,2,2,0,0,0,0,0,20,20,20,,,,,,,,,,,,,,,,,,,,,,,,,,,,,,,,,,,317.82647470000666,318.02794930001255,318.01041360001545,318.31146500003524,318.31146500003524,None,318.8119076000294,None,d,1,2.0602398000191897,318.8119076000294,None,None,None,320.897925300058,None,,,,,,,,,,,,,,,,,,,,,12008,2,2,2024_Jun_14_1757,stroop_task_switching2_b,2021.2.3,59.84666087444117,
condition/block_mixed_b,instruction/instr_mixed,instruction/i10_b,黄,green,f,square,color_mix,单词,,incompatible,2,,,,,,,,0,2,2,2,0,0,0,0,0,21,21,21,,,,,,,,,,,,,,,,,,,,,,,,,,,,,,,,,,,321.89945570006967,322.1005235000048,322.082807400031,322.3841036000522,322.3841036000522,None,322.88482190005016,None,f,1,0.9396491999505088,322.88482190005016,None,None,None,323.8524109000573,None,,,,,,,,,,,,,,,,,,,,,12008,2,2,2024_Jun_14_1757,stroop_task_switching2_b,2021.2.3,59.84666087444117,
condition/block_mixed_b,instruction/instr_mixed,instruction/i10_b,黄,blue,f,square,color_mix,单词,,incompatible,1,,,,,,,,0,2,2,2,0,0,0,0,0,22,22,22,,,,,,,,,,,,,,,,,,,,,,,,,,,,,,,,,,,324.8539363000309,325.05545580002945,325.0387784000486,325.3383843000047,325.3383843000047,None,325.83905549999326,None,f,1,1.0816094999900088,325.83905549999326,None,None,None,326.9404554000357,None,,,,,,,,,,,,,,,,,,,,,12008,2,2,2024_Jun_14_1757,stroop_task_switching2_b,2021.2.3,59.84666087444117,
condition/block_mixed_b,instruction/instr_mixed,instruction/i10_b,蓝,red,j,square,color_mix,单词,,incompatible,1,,,,,,,,0,2,2,2,0,0,0,0,0,23,23,23,,,,,,,,,,,,,,,,,,,,,,,,,,,,,,,,,,,327.9415274000494,328.1419239999959,328.12679050001316,328.42643210000824,328.42643210000824,None,328.92666370002553,None,j,1,1.994612600072287,328.92666370002553,None,None,None,330.94640520005487,None,,,,,,,,,,,,,,,,,,,,,12008,2,2,2024_Jun_14_1757,stroop_task_switching2_b,2021.2.3,59.84666087444117,
condition/block_mixed_b,instruction/instr_mixed,instruction/i10_b,绿,red,k,diamond,color_mix,颜色,,incompatible,2,,,,,,,,0,2,2,2,0,0,0,0,0,24,24,24,,,,,,,,,,,,,,,,,,,,,,,,,,,,,,,,,,,331.9478428000584,332.14897400001064,332.1321748000337,332.4319271000568,332.4319271000568,None,332.93299030000344,None,k,1,0.7803422999568284,332.93299030000344,None,None,None,333.7341016000137,None,,,,,,,,,,,,,,,,,,,,,12008,2,2,2024_Jun_14_1757,stroop_task_switching2_b,2021.2.3,59.84666087444117,
condition/block_mixed_b,instruction/instr_mixed,instruction/i10_b,绿,green,d,diamond,color_mix,颜色,,compatible,1,,,,,,,,0,2,2,2,0,0,0,0,0,25,25,25,,,,,,,,,,,,,,,,,,,,,,,,,,,,,,,,,,,334.7352684000507,334.93662440008484,334.91885820007883,335.220333400066,335.220333400066,None,335.72103780007455,None,d,1,1.0874635999789461,335.72103780007455,None,None,None,336.83902349998243,None,,,,,,,,,,,,,,,,,,,,,12008,2,2,2024_Jun_14_1757,stroop_task_switching2_b,2021.2.3,59.84666087444117,
condition/block_mixed_b,instruction/instr_mixed,instruction/i10_b,蓝,blue,j,diamond,color_mix,颜色,,compatible,1,,,,,,,,0,2,2,2,0,0,0,0,0,26,26,26,,,,,,,,,,,,,,,,,,,,,,,,,,,,,,,,,,,337.84103330003563,338.0420571999857,338.0237084000837,338.32416479999665,338.32416479999665,None,338.82482169999275,None,j,1,0.752688099979423,338.82482169999275,None,None,None,339.5926812000107,None,,,,,,,,,,,,,,,,,,,,,12008,2,2,2024_Jun_14_1757,stroop_task_switching2_b,2021.2.3,59.84666087444117,
condition/block_mixed_b,instruction/instr_mixed,instruction/i10_b,绿,green,d,square,color_mix,单词,,compatible,2,,,,,,,,0,2,2,2,0,0,0,0,0,27,27,27,,,,,,,,,,,,,,,,,,,,,,,,,,,,,,,,,,,340.5951053000754,340.79562650003936,340.7787618000293,341.0791705000447,341.0791705000447,None,341.5797193000326,None,d,1,1.0208225999958813,341.5797193000326,None,None,None,342.6306499000639,None,,,,,,,,,,,,,,,,,,,,,12008,2,2,2024_Jun_14_1757,stroop_task_switching2_b,2021.2.3,59.84666087444117,
condition/block_mixed_b,instruction/instr_mixed,instruction/i10_b,绿,green,d,square,color_mix,单词,,compatible,1,,,,,,,,0,2,2,2,0,0,0,0,0,28,28,28,,,,,,,,,,,,,,,,,,,,,,,,,,,,,,,,,,,343.63225350005087,343.8334853000706,343.81647369998973,344.1208177000517,344.1208177000517,None,344.63358630007133,None,d,1,0.8480091999517754,344.63358630007133,None,None,None,345.5014906000579,None,,,,,,,,,,,,,,,,,,,,,12008,2,2,2024_Jun_14_1757,stroop_task_switching2_b,2021.2.3,59.84666087444117,
condition/block_mixed_b,instruction/instr_mixed,instruction/i10_b,蓝,blue,j,square,color_mix,单词,,compatible,1,,,,,,,,0,2,2,2,0,0,0,0,0,29,29,29,,,,,,,,,,,,,,,,,,,,,,,,,,,,,,,,,,,346.5029678000137,346.70525760005694,346.6867226000177,346.9885359000182,346.9885359000182,None,347.4880397000816,None,j,1,0.8010760999750346,347.4880397000816,None,None,None,348.305726999999,None,,,,,,,,,,,,,,,,,,,,,12008,2,2,2024_Jun_14_1757,stroop_task_switching2_b,2021.2.3,59.84666087444117,
condition/block_mixed_b,instruction/instr_mixed,instruction/i10_b,黄,yellow,f,diamond,color_mix,颜色,,compatible,2,,,,,,,,0,2,2,2,0,0,0,0,0,30,30,30,,,,,,,,,,,,,,,,,,,,,,,,,,,,,,,,,,,349.3085522999754,349.5086617000634,349.4909786999924,349.79277170007117,349.79277170007117,None,350.29198630002793,None,f,1,0.9091188000747934,350.29198630002793,None,None,None,351.22689639998134,None,,,,,,,,,,,,,,,,,,,,,12008,2,2,2024_Jun_14_1757,stroop_task_switching2_b,2021.2.3,59.84666087444117,
condition/block_mixed_b,instruction/instr_mixed,instruction/i10_b,绿,green,d,square,color_mix,单词,,compatible,2,,,,,,,,0,2,2,2,0,0,0,0,0,31,31,31,,,,,,,,,,,,,,,,,,,,,,,,,,,,,,,,,,,352.22842080006376,352.4287315000547,352.41231829999015,352.71358019998297,352.71358019998297,None,353.21321469999384,None,d,1,0.7642590999603271,353.21321469999384,None,None,None,353.99806070001796,None,,,,,,,,,,,,,,,,,,,,,12008,2,2,2024_Jun_14_1757,stroop_task_switching2_b,2021.2.3,59.84666087444117,
condition/block_mixed_b,instruction/instr_mixed,instruction/i10_b,黄,yellow,f,square,color_mix,单词,,compatible,1,,,,,,,,0,2,2,2,0,0,0,0,0,32,32,32,,,,,,,,,,,,,,,,,,,,,,,,,,,,,,,,,,,355.0001044999808,355.20091200002935,355.1829324000282,355.4834852999775,355.4834852999775,None,355.98397080006544,None,f,1,0.7294208999956027,355.98397080006544,None,None,None,356.73534560005646,None,,,,,,,,,,,,,,,,,,,,,12008,2,2,2024_Jun_14_1757,stroop_task_switching2_b,2021.2.3,59.84666087444117,
condition/block_mixed_b,instruction/instr_mixed,instruction/i10_b,绿,green,d,diamond,color_mix,颜色,,compatible,2,,,,,,,,0,2,2,2,0,0,0,0,0,33,33,33,,,,,,,,,,,,,,,,,,,,,,,,,,,,,,,,,,,357.7373457000358,357.937208599993,357.92057319998275,358.2213157999795,358.2213157999795,None,358.7222024999792,None,d,1,0.863285299972631,358.7222024999792,None,None,None,359.606452899985,None,,,,,,,,,,,,,,,,,,,,,12008,2,2,2024_Jun_14_1757,stroop_task_switching2_b,2021.2.3,59.84666087444117,
condition/block_mixed_b,instruction/instr_mixed,instruction/i10_b,红,red,k,square,color_mix,单词,,compatible,2,,,,,,,,0,2,2,2,0,0,0,0,0,34,34,34,,,,,,,,,,,,,,,,,,,,,,,,,,,,,,,,,,,360.6075036000693,360.80829479999375,360.7923090000404,361.09360450005624,361.09360450005624,None,361.59261819999665,None,k,1,0.992490499978885,361.59261819999665,None,None,None,362.61055670003407,None,,,,,,,,,,,,,,,,,,,,,12008,2,2,2024_Jun_14_1757,stroop_task_switching2_b,2021.2.3,59.84666087444117,
condition/block_mixed_b,instruction/instr_mixed,instruction/i10_b,黄,yellow,f,square,color_mix,单词,,compatible,1,,,,,,,,0,2,2,2,0,0,0,0,0,35,35,35,,,,,,,,,,,,,,,,,,,,,,,,,,,,,,,,,,,363.6124291000888,363.81364579999354,363.7964928000001,364.09746700001415,364.09746700001415,None,364.5970154000679,None,f,1,0.8047032000031322,364.5970154000679,None,None,None,365.4316205000505,None,,,,,,,,,,,,,,,,,,,,,12008,2,2,2024_Jun_14_1757,stroop_task_switching2_b,2021.2.3,59.84666087444117,
condition/block_mixed_b,instruction/instr_mixed,instruction/i10_b,绿,green,d,diamond,color_mix,颜色,,compatible,2,,,,,,,,0,2,2,2,0,0,0,0,0,36,36,36,,,,,,,,,,,,,,,,,,,,,,,,,,,,,,,,,,,366.4340580999851,366.63488350005355,366.61663709999993,366.9172658000607,366.9172658000607,None,367.4180515999906,None,d,1,0.6315164999105036,367.4180515999906,None,None,None,368.06891889998224,None,,,,,,,,,,,,,,,,,,,,,12008,2,2,2024_Jun_14_1757,stroop_task_switching2_b,2021.2.3,59.84666087444117,
condition/block_mixed_b,instruction/instr_mixed,instruction/i10_b,蓝,blue,j,square,color_mix,单词,,compatible,2,,,,,,,,0,2,2,2,0,0,0,0,0,37,37,37,,,,,,,,,,,,,,,,,,,,,,,,,,,,,,,,,,,369.0705330000492,369.2708585000364,369.2551622000756,369.5552598000504,369.5552598000504,None,370.05598509998526,None,j,1,0.689515299978666,370.05598509998526,None,None,None,370.7734377000015,None,,,,,,,,,,,,,,,,,,,,,12008,2,2,2024_Jun_14_1757,stroop_task_switching2_b,2021.2.3,59.84666087444117,
condition/block_mixed_b,instruction/instr_mixed,instruction/i10_b,红,red,k,square,color_mix,单词,,compatible,1,,,,,,,,0,2,2,2,0,0,0,0,0,38,38,38,,,,,,,,,,,,,,,,,,,,,,,,,,,,,,,,,,,371.77451580006164,371.9756665000459,371.9590256999945,372.2588244000217,372.2588244000217,None,372.75935770000797,None,k,1,1.0101625000825152,372.75935770000797,None,None,None,373.7942303000018,None,,,,,,,,,,,,,,,,,,,,,12008,2,2,2024_Jun_14_1757,stroop_task_switching2_b,2021.2.3,59.84666087444117,
condition/block_mixed_b,instruction/instr_mixed,instruction/i10_b,黄,yellow,f,diamond,color_mix,颜色,,compatible,2,,,,,,,,0,2,2,2,0,0,0,0,0,39,39,39,,,,,,,,,,,,,,,,,,,,,,,,,,,,,,,,,,,374.7965449000476,374.99617769999895,374.9799240999855,375.28089130006265,375.28089130006265,None,375.7805347000249,None,f,1,0.6612412000540644,375.7805347000249,None,None,None,376.4651592000155,None,,,,,,,,,,,,,,,,,,,,,12008,2,2,2024_Jun_14_1757,stroop_task_switching2_b,2021.2.3,59.84666087444117,
condition/block_mixed_b,instruction/instr_mixed,instruction/i10_b,黄,yellow,f,square,color_mix,单词,,compatible,2,,,,,,,,0,2,2,2,0,0,0,0,0,40,40,40,,,,,,,,,,,,,,,,,,,,,,,,,,,,,,,,,,,377.46646710007917,377.667341100052,377.6500290000113,377.9516428000061,377.9516428000061,None,378.4512945000315,None,f,1,0.6948379999957979,378.4512945000315,None,None,None,379.1690942000132,None,,,,,,,,,,,,,,,,,,,,,12008,2,2,2024_Jun_14_1757,stroop_task_switching2_b,2021.2.3,59.84666087444117,
condition/block_mixed_b,instruction/instr_mixed,instruction/i10_b,蓝,blue,j,square,color_mix,单词,,compatible,1,,,,,,,,0,2,2,2,0,0,0,0,0,41,41,41,,,,,,,,,,,,,,,,,,,,,,,,,,,,,,,,,,,380.17145810008515,380.37256160005927,380.35420220007654,380.65665920008905,380.65665920008905,None,381.1567128000315,None,j,1,0.6691311000613496,381.1567128000315,None,None,None,381.8565171000082,None,,,,,,,,,,,,,,,,,,,,,12008,2,2,2024_Jun_14_1757,stroop_task_switching2_b,2021.2.3,59.84666087444117,
condition/block_mixed_b,instruction/instr_mixed,instruction/i10_b,蓝,blue,j,diamond,color_mix,颜色,,compatible,2,,,,,,,,0,2,2,2,0,0,0,0,0,42,42,42,,,,,,,,,,,,,,,,,,,,,,,,,,,,,,,,,,,382.85795970004983,383.059544900083,383.0416040000273,383.342960900045,383.342960900045,None,383.84351600008085,None,j,1,0.5825684999581426,383.84351600008085,None,None,None,384.4435612000525,None,,,,,,,,,,,,,,,,,,,,,12008,2,2,2024_Jun_14_1757,stroop_task_switching2_b,2021.2.3,59.84666087444117,
condition/block_mixed_b,instruction/instr_mixed,instruction/i10_b,黄,yellow,f,diamond,color_mix,颜色,,compatible,1,,,,,,,,0,2,2,2,0,0,0,0,0,43,43,43,,,,,,,,,,,,,,,,,,,,,,,,,,,,,,,,,,,385.4456825000234,385.64715720003005,385.6288320000749,385.9297343000071,385.9297343000071,None,386.4298313000472,None,f,1,0.7482208999572322,386.4298313000472,None,None,None,387.1978942999849,None,,,,,,,,,,,,,,,,,,,,,12008,2,2,2024_Jun_14_1757,stroop_task_switching2_b,2021.2.3,59.84666087444117,
condition/block_mixed_b,instruction/instr_mixed,instruction/i10_b,红,red,k,diamond,color_mix,颜色,,compatible,1,,,,,,,,0,2,2,2,0,0,0,0,0,44,44,44,,,,,,,,,,,,,,,,,,,,,,,,,,,,,,,,,,,388.1993487,388.39984510000795,388.3832548999926,388.68360550003126,388.68360550003126,None,389.1840962000424,None,k,1,0.6103629999561235,389.1840962000424,None,None,None,389.81848760007415,None,,,,,,,,,,,,,,,,,,,,,12008,2,2,2024_Jun_14_1757,stroop_task_switching2_b,2021.2.3,59.84666087444117,
condition/block_mixed_b,instruction/instr_mixed,instruction/i10_b,蓝,blue,j,diamond,color_mix,颜色,,compatible,1,,,,,,,,0,2,2,2,0,0,0,0,0,45,45,45,,,,,,,,,,,,,,,,,,,,,,,,,,,,,,,,,,,390.8197774,391.0202819000697,391.0051030999748,391.3039974999847,391.3039974999847,None,391.80544959998224,None,j,1,0.6766884999815375,391.80544959998224,None,None,None,392.5058296000352,None,,,,,,,,,,,,,,,,,,,,,12008,2,2,2024_Jun_14_1757,stroop_task_switching2_b,2021.2.3,59.84666087444117,
condition/block_mixed_b,instruction/instr_mixed,instruction/i10_b,红,red,k,diamond,color_mix,颜色,,compatible,1,,,,,,,,0,2,2,2,0,0,0,0,0,46,46,46,,,,,,,,,,,,,,,,,,,,,,,,,,,,,,,,,,,393.50742889998946,393.7076700000325,393.6919314999832,393.9924721000716,393.9924721000716,None,394.49293659999967,None,k,1,0.7652960000559688,394.49293659999967,None,None,None,395.2769761000527,None,,,,,,,,,,,,,,,,,,,,,12008,2,2,2024_Jun_14_1757,stroop_task_switching2_b,2021.2.3,59.84666087444117,
condition/block_mixed_b,instruction/instr_mixed,instruction/i10_b,红,red,k,square,color_mix,单词,,compatible,2,,,,,,,,0,2,2,2,0,0,0,0,0,47,47,47,,,,,,,,,,,,,,,,,,,,,,,,,,,,,,,,,,,396.27892810001504,396.47939780005254,396.4625281000044,396.7624189000344,396.7624189000344,None,397.26407999999356,None,k,1,0.7622519999276847,397.26407999999356,None,None,None,398.04769430006854,None,,,,,,,,,,,,,,,,,,,,,12008,2,2,2024_Jun_14_1757,stroop_task_switching2_b,2021.2.3,59.84666087444117,
condition/block_mixed_b,instruction/instr_mixed,instruction/i10_b,红,red,k,diamond,color_mix,颜色,,compatible,2,,,,,,,,0,2,2,2,0,0,0,0,0,48,48,48,,,,,,,,,,,,,,,,,,,,,,,,,,,,,,,,,,,399.04910310008563,399.25127520004753,399.23293529998045,399.53521460003685,399.53521460003685,None,400.0339519000845,None,k,1,0.6329587999498472,400.0339519000845,None,None,None,400.6848481000634,None,,,,,,,,,,,,,,,,,,,,,12008,2,2,2024_Jun_14_1757,stroop_task_switching2_b,2021.2.3,59.84666087444117,
condition/block_mixed_b,instruction/instr_mixed,instruction/i10_b,,,,,,,,,,,,,,,,,0,2,2,2,0,0,0,0,,,,,,,,,,,,,,,,,,,,,,,,,,,,,,,,,,,,,,,,,,,,,,,,,,,,,,,,401.6861313000554,None,space,17.036781499977224,401.6861313000554,None,,,,,,,,,,,,,,,12008,2,2,2024_Jun_14_1757,stroop_task_switching2_b,2021.2.3,59.84666087444117,
condition/block_mixed_b,instruction/instr_mixed,instruction/i10_b,,,,,,,,,,,,,,,,,0,2,2,2,,,,,,,,,,,,,,,,,,,,,,,,,,,,,,,,,,,,,,,,,,,,,,,,,,,,,,,,,,,,,,,,,,,,,,,,,,,,,,,,12008,2,2,2024_Jun_14_1757,stroop_task_switching2_b,2021.2.3,59.84666087444117,
,,,红,red,k,square,color_mix,单词,,compatible,0,block_switch1_b,instruction/ready_test.png,instruction/i11.png,,,,,,,,,,,,,,,,,0,0,0,0,0,0,0,0,,,,,,,,,,,,,,,,,,,425.1561753000133,426.1583509000484,426.1583509000484,427.15928060002625,427.15928060002625,None,424.17036370001733,425.17192039999645,428.19454240007326,428.3951877000509,428.37679160002153,428.6771035999991,428.6771035999991,None,429.17773810005747,None,k,1,0.7054742999607697,429.17773810005747,None,None,None,,,,,,,,,418.77868360001594,None,space,5.36846789997071,418.77868360001594,None,,,,,,,,,12008,2,2,2024_Jun_14_1757,stroop_task_switching2_b,2021.2.3,59.84666087444117,
,,,绿,green,d,diamond,color_mix,颜色,,compatible,2,block_switch1_b,instruction/ready_test.png,instruction/i11.png,,,,,,,,,,,,,,,,,0,0,0,0,0,1,1,1,,,,,,,,,,,,,,,,,,,,,,,,,,,429.94580660003703,430.1461341000395,430.1302516000578,430.4305375000695,430.4305375000695,None,430.93107490008697,None,d,1,0.7199235999723896,430.93107490008697,None,None,None,,,,,,,,,,,,,,,,,,,,,,,12008,2,2,2024_Jun_14_1757,stroop_task_switching2_b,2021.2.3,59.84666087444117,
,,,绿,yellow,f,diamond,color_mix,颜色,,incompatible,1,block_switch1_b,instruction/ready_test.png,instruction/i11.png,,,,,,,,,,,,,,,,,0,0,0,0,0,2,2,2,,,,,,,,,,,,,,,,,,,,,,,,,,,431.69836620008573,431.89936100004707,431.86681400006637,432.16586880001705,432.16586880001705,None,432.66647110006306,None,d,0,0.952668400015682,432.66647110006306,None,None,None,,,,,,,,,,,,,,,,,,,,,,,12008,2,2,2024_Jun_14_1757,stroop_task_switching2_b,2021.2.3,59.84666087444117,
,,,蓝,blue,j,diamond,color_mix,颜色,,compatible,1,block_switch1_b,instruction/ready_test.png,instruction/i11.png,,,,,,,,,,,,,,,,,0,0,0,0,0,3,3,3,,,,,,,,,,,,,,,,,,,,,,,,,,,433.6680291000521,433.8699448000407,433.83621840004344,434.135532699991,434.135532699991,None,434.6361119999783,None,j,1,0.9913806000258774,434.6361119999783,None,None,None,,,,,,,,,,,,,,,,,,,,,,,12008,2,2,2024_Jun_14_1757,stroop_task_switching2_b,2021.2.3,59.84666087444117,
,,,绿,green,d,square,color_mix,单词,,compatible,2,block_switch1_b,instruction/ready_test.png,instruction/i11.png,,,,,,,,,,,,,,,,,0,0,0,0,0,4,4,4,,,,,,,,,,,,,,,,,,,,,,,,,,,435.6541473000543,435.8556077000685,435.837906400091,436.1393288000254,436.1393288000254,None,436.6395301000448,None,d,1,0.6837106000166386,436.6395301000448,None,None,None,,,,,,,,,,,,,,,,,,,,,,,12008,2,2,2024_Jun_14_1757,stroop_task_switching2_b,2021.2.3,59.84666087444117,
,,,绿,blue,j,diamond,color_mix,颜色,,incompatible,2,block_switch1_b,instruction/ready_test.png,instruction/i11.png,,,,,,,,,,,,,,,,,0,0,0,0,0,5,5,5,,,,,,,,,,,,,,,,,,,,,,,,,,,437.34006070008036,437.5408944999799,437.5245097000152,437.82424740004353,437.82424740004353,None,438.3254163999809,None,d,0,1.0542515000561252,438.3254163999809,None,None,None,,,,,,,,,,,,,,,,,,,,,,,12008,2,2,2024_Jun_14_1757,stroop_task_switching2_b,2021.2.3,59.84666087444117,
,,,黄,red,f,square,color_mix,单词,,incompatible,2,block_switch1_b,instruction/ready_test.png,instruction/i11.png,,,,,,,,,,,,,,,,,0,0,0,0,0,6,6,6,,,,,,,,,,,,,,,,,,,,,,,,,,,439.39297899999656,439.5952537000412,439.5769330000039,439.87781139998697,439.87781139998697,None,440.3780131000094,None,k,0,2.0020511000184342,440.3780131000094,None,None,None,,,,,,,,,,,,,,,,,,,,,,,12008,2,2,2024_Jun_14_1757,stroop_task_switching2_b,2021.2.3,59.84666087444117,
,,,绿,green,d,square,color_mix,单词,,compatible,1,block_switch1_b,instruction/ready_test.png,instruction/i11.png,,,,,,,,,,,,,,,,,0,0,0,0,0,7,7,7,,,,,,,,,,,,,,,,,,,,,,,,,,,442.39760460006073,442.5985088000307,442.58286010008305,442.88257410004735,442.88257410004735,None,443.3831009999849,None,d,1,0.6855509999440983,443.3831009999849,None,None,None,,,,,,,,,,,,,,,,,,,,,,,12008,2,2,2024_Jun_14_1757,stroop_task_switching2_b,2021.2.3,59.84666087444117,
,,,蓝,blue,j,square,color_mix,单词,,compatible,1,block_switch1_b,instruction/ready_test.png,instruction/i11.png,,,,,,,,,,,,,,,,,0,0,0,0,0,8,8,8,,,,,,,,,,,,,,,,,,,,,,,,,,,444.0834651000332,444.28418720001355,444.26866439997684,444.5685086000012,444.5685086000012,None,445.0696939000627,None,j,1,0.6224249999504536,445.0696939000627,None,None,None,,,,,,,,,,,,,,,,,,,,,,,12008,2,2,2024_Jun_14_1757,stroop_task_switching2_b,2021.2.3,59.84666087444117,
,,,红,red,k,diamond,color_mix,颜色,,compatible,2,block_switch1_b,instruction/ready_test.png,instruction/i11.png,,,,,,,,,,,,,,,,,0,0,0,0,0,9,9,9,,,,,,,,,,,,,,,,,,,,,,,,,,,445.7187781999819,445.9196088000899,445.90306809998583,446.20435670006555,446.20435670006555,None,446.70453830005135,None,k,1,0.9868158999597654,446.70453830005135,None,None,None,,,,,,,,,,,,,,,,,,,,,,,12008,2,2,2024_Jun_14_1757,stroop_task_switching2_b,2021.2.3,59.84666087444117,
,,,黄,yellow,f,diamond,color_mix,颜色,,compatible,1,block_switch1_b,instruction/ready_test.png,instruction/i11.png,,,,,,,,,,,,,,,,,0,0,0,0,0,10,10,10,,,,,,,,,,,,,,,,,,,,,,,,,,,447.7399183000671,447.9395271000685,447.90697220002767,448.2076582000591,448.2076582000591,None,448.7071521000471,None,f,1,0.8171851000515744,448.7071521000471,None,None,None,,,,,,,,,,,,,,,,,,,,,,,12008,2,2,2024_Jun_14_1757,stroop_task_switching2_b,2021.2.3,59.84666087444117,
,,,绿,green,d,square,color_mix,单词,,compatible,2,block_switch1_b,instruction/ready_test.png,instruction/i11.png,,,,,,,,,,,,,,,,,0,0,0,0,0,11,11,11,,,,,,,,,,,,,,,,,,,,,,,,,,,449.54169280000497,449.7425385999959,449.72584099997766,450.0276160000358,450.0276160000358,None,450.5275396000361,None,d,1,0.6602056999690831,450.5275396000361,None,None,None,,,,,,,,,,,,,,,,,,,,,,,12008,2,2,2024_Jun_14_1757,stroop_task_switching2_b,2021.2.3,59.84666087444117,
,,,红,red,k,diamond,color_mix,颜色,,compatible,2,block_switch1_b,instruction/ready_test.png,instruction/i11.png,,,,,,,,,,,,,,,,,0,0,0,0,0,12,12,12,,,,,,,,,,,,,,,,,,,,,,,,,,,451.2109031000873,451.41324380005244,451.39562810002826,451.69567540008575,451.69567540008575,None,452.1959497000789,None,k,1,0.6725985000375658,452.1959497000789,None,None,None,,,,,,,,,,,,,,,,,,,,,,,12008,2,2,2024_Jun_14_1757,stroop_task_switching2_b,2021.2.3,59.84666087444117,
,,,红,red,k,diamond,color_mix,颜色,,compatible,1,block_switch1_b,instruction/ready_test.png,instruction/i11.png,,,,,,,,,,,,,,,,,0,0,0,0,0,13,13,13,,,,,,,,,,,,,,,,,,,,,,,,,,,452.8968952000141,453.09857260005083,453.080733000068,453.3823134000413,453.3823134000413,None,453.88184480008204,None,k,1,0.5860038000391796,453.88184480008204,None,None,None,,,,,,,,,,,,,,,,,,,,,,,12008,2,2,2024_Jun_14_1757,stroop_task_switching2_b,2021.2.3,59.84666087444117,
,,,黄,yellow,f,square,color_mix,单词,,compatible,2,block_switch1_b,instruction/ready_test.png,instruction/i11.png,,,,,,,,,,,,,,,,,0,0,0,0,0,14,14,14,,,,,,,,,,,,,,,,,,,,,,,,,,,454.48243990004994,454.6835042000748,454.6662002999801,454.96721919998527,454.96721919998527,None,455.468464900041,None,f,1,0.8073723000707105,455.468464900041,None,None,None,,,,,,,,,,,,,,,,,,,,,,,12008,2,2,2024_Jun_14_1757,stroop_task_switching2_b,2021.2.3,59.84666087444117,
,,,红,green,d,diamond,color_mix,颜色,,incompatible,2,block_switch1_b,instruction/ready_test.png,instruction/i11.png,,,,,,,,,,,,,,,,,0,0,0,0,0,15,15,15,,,,,,,,,,,,,,,,,,,,,,,,,,,456.30215680005495,456.50270750001073,456.48746770003345,456.80288510001265,456.786036400008,None,457.2868178000208,None,d,1,0.7740185000002384,457.2868178000208,None,None,None,,,,,,,,,,,,,,,,,,,,,,,12008,2,2,2024_Jun_14_1757,stroop_task_switching2_b,2021.2.3,59.84666087444117,
,,,蓝,red,k,diamond,color_mix,颜色,,incompatible,1,block_switch1_b,instruction/ready_test.png,instruction/i11.png,,,,,,,,,,,,,,,,,0,0,0,0,0,16,16,16,,,,,,,,,,,,,,,,,,,,,,,,,,,458.0881594000384,458.288693999988,458.2732936000684,458.5734247000655,458.5734247000655,None,459.07386340002995,None,k,1,1.7227185000665486,459.07386340002995,None,None,None,,,,,,,,,,,,,,,,,,,,,,,12008,2,2,2024_Jun_14_1757,stroop_task_switching2_b,2021.2.3,59.84666087444117,
,,,黄,green,d,diamond,color_mix,颜色,,incompatible,1,block_switch1_b,instruction/ready_test.png,instruction/i11.png,,,,,,,,,,,,,,,,,0,0,0,0,0,17,17,17,,,,,,,,,,,,,,,,,,,,,,,,,,,460.8427551999921,461.0429980000481,461.009647400002,461.31115269998554,461.31115269998554,None,461.8101567000849,None,d,1,0.9380543000297621,461.8101567000849,None,None,None,,,,,,,,,,,,,,,,,,,,,,,12008,2,2,2024_Jun_14_1757,stroop_task_switching2_b,2021.2.3,59.84666087444117,
,,,绿,green,d,diamond,color_mix,颜色,,compatible,1,block_switch1_b,instruction/ready_test.png,instruction/i11.png,,,,,,,,,,,,,,,,,0,0,0,0,0,18,18,18,,,,,,,,,,,,,,,,,,,,,,,,,,,462.79529170005117,462.9970691000344,462.96190029999707,463.26296910003293,463.26296910003293,None,463.76378070004284,None,d,1,0.696459099999629,463.76378070004284,None,None,None,,,,,,,,,,,,,,,,,,,,,,,12008,2,2,2024_Jun_14_1757,stroop_task_switching2_b,2021.2.3,59.84666087444117,
,,,黄,red,k,diamond,color_mix,颜色,,incompatible,1,block_switch1_b,instruction/ready_test.png,instruction/i11.png,,,,,,,,,,,,,,,,,0,0,0,0,0,19,19,19,,,,,,,,,,,,,,,,,,,,,,,,,,,464.4810483000474,464.6838233000599,464.66506190004293,464.966111500049,464.966111500049,None,465.46664050000254,None,k,1,1.145721000037156,465.46664050000254,None,None,None,,,,,,,,,,,,,,,,,,,,,,,12008,2,2,2024_Jun_14_1757,stroop_task_switching2_b,2021.2.3,59.84666087444117,
,,,绿,yellow,d,square,color_mix,单词,,incompatible,2,block_switch1_b,instruction/ready_test.png,instruction/i11.png,,,,,,,,,,,,,,,,,0,0,0,0,0,20,20,20,,,,,,,,,,,,,,,,,,,,,,,,,,,466.63432230008766,466.8345015000086,466.817778000026,467.1184406999964,467.1184406999964,None,467.61914960003924,None,f,0,1.1288122000405565,467.61914960003924,None,None,None,,,,,,,,,,,,,,,,,,,,,,,12008,2,2,2024_Jun_14_1757,stroop_task_switching2_b,2021.2.3,59.84666087444117,
,,,绿,yellow,f,diamond,color_mix,颜色,,incompatible,2,block_switch1_b,instruction/ready_test.png,instruction/i11.png,,,,,,,,,,,,,,,,,0,0,0,0,0,21,21,21,,,,,,,,,,,,,,,,,,,,,,,,,,,468.77080509997904,468.9715925999917,468.95444980007596,469.255854499992,469.255854499992,None,469.75558320002165,None,f,1,1.9288627000059932,469.75558320002165,None,None,None,,,,,,,,,,,,,,,,,,,,,,,12008,2,2,2024_Jun_14_1757,stroop_task_switching2_b,2021.2.3,59.84666087444117,
,,,绿,green,d,square,color_mix,单词,,compatible,2,block_switch1_b,instruction/ready_test.png,instruction/i11.png,,,,,,,,,,,,,,,,,0,0,0,0,0,22,22,22,,,,,,,,,,,,,,,,,,,,,,,,,,,471.7091631999938,471.9086574000539,471.8930056000827,472.19337810005527,472.19337810005527,None,472.6939512999961,None,d,1,2.198515100055374,472.6939512999961,None,None,None,,,,,,,,,,,,,,,,,,,,,,,12008,2,2,2024_Jun_14_1757,stroop_task_switching2_b,2021.2.3,59.84666087444117,
,,,红,red,k,square,color_mix,单词,,compatible,1,block_switch1_b,instruction/ready_test.png,instruction/i11.png,,,,,,,,,,,,,,,,,0,0,0,0,0,23,23,23,,,,,,,,,,,,,,,,,,,,,,,,,,,474.913418799988,475.1151490000775,475.0972487999825,475.3981889000861,475.3981889000861,None,475.8982611000538,None,k,1,2.0505885999882594,475.8982611000538,None,None,None,,,,,,,,,,,,,,,,,,,,,,,12008,2,2,2024_Jun_14_1757,stroop_task_switching2_b,2021.2.3,59.84666087444117,
,,,黄,green,f,square,color_mix,单词,,incompatible,1,block_switch1_b,instruction/ready_test.png,instruction/i11.png,,,,,,,,,,,,,,,,,0,0,0,0,0,24,24,24,,,,,,,,,,,,,,,,,,,,,,,,,,,477.9678730000742,478.1693450000603,478.15246600005776,478.45302890008315,478.45302890008315,None,478.95368989999406,None,d,0,1.1312700000125915,478.95368989999406,None,None,None,,,,,,,,,,,,,,,,,,,,,,,12008,2,2,2024_Jun_14_1757,stroop_task_switching2_b,2021.2.3,59.84666087444117,
,,,红,blue,k,square,color_mix,单词,,incompatible,1,block_switch1_b,instruction/ready_test.png,instruction/i11.png,,,,,,,,,,,,,,,,,0,0,0,0,0,25,25,25,,,,,,,,,,,,,,,,,,,,,,,,,,,480.1046706000343,480.3056354,480.28926780004986,480.5893461999949,480.5893461999949,None,481.09015340008773,None,f,0,1.4027478999923915,481.09015340008773,None,None,None,,,,,,,,,,,,,,,,,,,,,,,12008,2,2,2024_Jun_14_1757,stroop_task_switching2_b,2021.2.3,59.84666087444117,
,,,黄,yellow,f,square,color_mix,单词,,compatible,1,block_switch1_b,instruction/ready_test.png,instruction/i11.png,,,,,,,,,,,,,,,,,0,0,0,0,0,26,26,26,,,,,,,,,,,,,,,,,,,,,,,,,,,482.50822710001376,482.7092817000812,482.6942547999788,483.0090238000266,482.99222360004205,None,483.4929943000898,None,j,0,2.736148099997081,483.4929943000898,None,None,None,,,,,,,,,,,,,,,,,,,,,,,12008,2,2,2024_Jun_14_1757,stroop_task_switching2_b,2021.2.3,59.84666087444117,
,,,蓝,green,j,square,color_mix,单词,,incompatible,1,block_switch1_b,instruction/ready_test.png,instruction/i11.png,,,,,,,,,,,,,,,,,0,0,0,0,0,27,27,27,,,,,,,,,,,,,,,,,,,,,,,,,,,486.2471452000318,486.4492883000057,486.4310678000329,486.7312860999955,486.7312860999955,None,487.2321063000709,None,j,1,1.9969166000373662,487.2321063000709,None,None,None,,,,,,,,,,,,,,,,,,,,,,,12008,2,2,2024_Jun_14_1757,stroop_task_switching2_b,2021.2.3,59.84666087444117,
,,,绿,green,d,diamond,color_mix,颜色,,compatible,2,block_switch1_b,instruction/ready_test.png,instruction/i11.png,,,,,,,,,,,,,,,,,0,0,0,0,0,28,28,28,,,,,,,,,,,,,,,,,,,,,,,,,,,489.25205680006184,489.45271790004335,489.4345639999956,489.7364969999762,489.7364969999762,None,490.2365828000475,None,d,1,0.7528596000047401,490.2365828000475,None,None,None,,,,,,,,,,,,,,,,,,,,,,,12008,2,2,2024_Jun_14_1757,stroop_task_switching2_b,2021.2.3,59.84666087444117,
,,,黄,blue,j,diamond,color_mix,颜色,,incompatible,1,block_switch1_b,instruction/ready_test.png,instruction/i11.png,,,,,,,,,,,,,,,,,0,0,0,0,0,29,29,29,,,,,,,,,,,,,,,,,,,,,,,,,,,491.0043671000749,491.2058833000483,491.18964650004636,491.48964849999174,491.48964849999174,None,491.98913960007485,None,j,1,2.408026900026016,491.98913960007485,None,None,None,,,,,,,,,,,,,,,,,,,,,,,12008,2,2,2024_Jun_14_1757,stroop_task_switching2_b,2021.2.3,59.84666087444117,
,,,绿,green,d,diamond,color_mix,颜色,,compatible,1,block_switch1_b,instruction/ready_test.png,instruction/i11.png,,,,,,,,,,,,,,,,,0,0,0,0,0,30,30,30,,,,,,,,,,,,,,,,,,,,,,,,,,,494.42648560006637,494.6271821000846,494.6111188000068,494.91119020001497,494.91119020001497,None,495.41100910003297,None,d,1,1.6510692000156268,495.41100910003297,None,None,None,,,,,,,,,,,,,,,,,,,,,,,12008,2,2,2024_Jun_14_1757,stroop_task_switching2_b,2021.2.3,59.84666087444117,
,,,蓝,blue,j,square,color_mix,单词,,compatible,2,block_switch1_b,instruction/ready_test.png,instruction/i11.png,,,,,,,,,,,,,,,,,0,0,0,0,0,31,31,31,,,,,,,,,,,,,,,,,,,,,,,,,,,497.080478399992,497.28052829997614,497.2640024999855,497.56467860005796,497.56467860005796,None,498.0649377000518,None,j,1,0.7559764999896288,498.0649377000518,None,None,None,,,,,,,,,,,,,,,,,,,,,,,12008,2,2,2024_Jun_14_1757,stroop_task_switching2_b,2021.2.3,59.84666087444117,
,,,红,red,k,square,color_mix,单词,,compatible,1,block_switch1_b,instruction/ready_test.png,instruction/i11.png,,,,,,,,,,,,,,,,,0,0,0,0,0,32,32,32,,,,,,,,,,,,,,,,,,,,,,,,,,,498.8493593999883,499.04970380000304,499.0342321000062,499.334461200051,499.334461200051,None,499.8347195000388,None,k,1,0.9307141000172123,499.8347195000388,None,None,None,,,,,,,,,,,,,,,,,,,,,,,12008,2,2,2024_Jun_14_1757,stroop_task_switching2_b,2021.2.3,59.84666087444117,
,,,红,green,k,square,color_mix,单词,,incompatible,1,block_switch1_b,instruction/ready_test.png,instruction/i11.png,,,,,,,,,,,,,,,,,0,0,0,0,0,33,33,33,,,,,,,,,,,,,,,,,,,,,,,,,,,500.78607640007976,500.98615210002754,500.9700556000462,501.27176060003694,501.27176060003694,None,501.7713120999979,None,k,1,1.073751899995841,501.7713120999979,None,None,None,,,,,,,,,,,,,,,,,,,,,,,12008,2,2,2024_Jun_14_1757,stroop_task_switching2_b,2021.2.3,59.84666087444117,
,,,黄,yellow,f,diamond,color_mix,颜色,,compatible,2,block_switch1_b,instruction/ready_test.png,instruction/i11.png,,,,,,,,,,,,,,,,,0,0,0,0,0,34,34,34,,,,,,,,,,,,,,,,,,,,,,,,,,,502.87222610006575,503.0744791000616,503.0563128000358,503.3566278000362,503.3566278000362,None,503.85842589999083,None,f,1,0.8588282000273466,503.85842589999083,None,None,None,,,,,,,,,,,,,,,,,,,,,,,12008,2,2,2024_Jun_14_1757,stroop_task_switching2_b,2021.2.3,59.84666087444117,
,,,红,green,d,diamond,color_mix,颜色,,incompatible,1,block_switch1_b,instruction/ready_test.png,instruction/i11.png,,,,,,,,,,,,,,,,,0,0,0,0,0,35,35,35,,,,,,,,,,,,,,,,,,,,,,,,,,,504.7429678000044,504.943044600077,504.92639490007423,505.227224900038,505.227224900038,None,505.72707260004245,508.73109270003624,None,0,,505.72707260004245,508.73109270003624,508.7143379000481,None,,,,,,,,,,,,,,,,,,,,,,,12008,2,2,2024_Jun_14_1757,stroop_task_switching2_b,2021.2.3,59.84666087444117,
,,,黄,yellow,f,square,color_mix,单词,,compatible,2,block_switch1_b,instruction/ready_test.png,instruction/i11.png,,,,,,,,,,,,,,,,,0,0,0,0,0,36,36,36,,,,,,,,,,,,,,,,,,,,,,,,,,,509.39863920002244,509.59904630004894,509.58330120006576,509.8836512999842,509.8836512999842,None,510.38424630009104,None,f,1,0.7017191000049934,510.38424630009104,None,None,None,,,,,,,,,,,,,,,,,,,,,,,12008,2,2,2024_Jun_14_1757,stroop_task_switching2_b,2021.2.3,59.84666087444117,
,,,蓝,blue,j,square,color_mix,单词,,compatible,1,block_switch1_b,instruction/ready_test.png,instruction/i11.png,,,,,,,,,,,,,,,,,0,0,0,0,0,37,37,37,,,,,,,,,,,,,,,,,,,,,,,,,,,511.1013632999966,511.3025562000694,511.2855503000319,511.5853279000148,511.5853279000148,None,512.086100500077,None,j,1,2.1356112000066787,512.086100500077,None,None,None,,,,,,,,,,,,,,,,,,,,,,,12008,2,2,2024_Jun_14_1757,stroop_task_switching2_b,2021.2.3,59.84666087444117,
,,,绿,red,k,diamond,color_mix,颜色,,incompatible,2,block_switch1_b,instruction/ready_test.png,instruction/i11.png,,,,,,,,,,,,,,,,,0,0,0,0,0,38,38,38,,,,,,,,,,,,,,,,,,,,,,,,,,,514.2397639000556,514.4404861000367,514.4235776000423,514.7243388000643,514.7243388000643,None,515.2251847999869,None,k,1,1.8361502999905497,515.2251847999869,None,None,None,,,,,,,,,,,,,,,,,,,,,,,12008,2,2,2024_Jun_14_1757,stroop_task_switching2_b,2021.2.3,59.84666087444117,
,,,黄,yellow,f,diamond,color_mix,颜色,,compatible,1,block_switch1_b,instruction/ready_test.png,instruction/i11.png,,,,,,,,,,,,,,,,,0,0,0,0,0,39,39,39,,,,,,,,,,,,,,,,,,,,,,,,,,,517.0772479000734,517.2784392000176,517.2604672000743,517.5610508000245,517.5610508000245,None,518.0619063000195,None,f,1,1.2238620999269187,518.0619063000195,None,None,None,,,,,,,,,,,,,,,,,,,,,,,12008,2,2,2024_Jun_14_1757,stroop_task_switching2_b,2021.2.3,59.84666087444117,
,,,红,blue,j,diamond,color_mix,颜色,,incompatible,1,block_switch1_b,instruction/ready_test.png,instruction/i11.png,,,,,,,,,,,,,,,,,0,0,0,0,0,40,40,40,,,,,,,,,,,,,,,,,,,,,,,,,,,519.3143272000598,519.5140336999903,519.4994926999789,519.7979568000883,519.7979568000883,None,520.2986682000337,None,j,1,2.338772000046447,520.2986682000337,None,None,None,,,,,,,,,,,,,,,,,,,,,,,12008,2,2,2024_Jun_14_1757,stroop_task_switching2_b,2021.2.3,59.84666087444117,
,,,绿,blue,d,square,color_mix,单词,,incompatible,2,block_switch1_b,instruction/ready_test.png,instruction/i11.png,,,,,,,,,,,,,,,,,0,0,0,0,0,41,41,41,,,,,,,,,,,,,,,,,,,,,,,,,,,522.6688516000286,522.8708868999965,522.8528650000226,523.1544308000011,523.1544308000011,None,523.6535022000317,None,d,1,1.585513100028038,523.6535022000317,None,None,None,,,,,,,,,,,,,,,,,,,,,,,12008,2,2,2024_Jun_14_1757,stroop_task_switching2_b,2021.2.3,59.84666087444117,
,,,蓝,blue,j,diamond,color_mix,颜色,,compatible,2,block_switch1_b,instruction/ready_test.png,instruction/i11.png,,,,,,,,,,,,,,,,,0,0,0,0,0,42,42,42,,,,,,,,,,,,,,,,,,,,,,,,,,,525.2559504000237,525.4572741000447,525.4410306999926,525.740561200073,525.740561200073,None,526.2408862999873,None,j,1,1.0692189999390393,526.2408862999873,None,None,None,,,,,,,,,,,,,,,,,,,,,,,12008,2,2,2024_Jun_14_1757,stroop_task_switching2_b,2021.2.3,59.84666087444117,
,,,红,blue,k,square,color_mix,单词,,incompatible,2,block_switch1_b,instruction/ready_test.png,instruction/i11.png,,,,,,,,,,,,,,,,,0,0,0,0,0,43,43,43,,,,,,,,,,,,,,,,,,,,,,,,,,,527.3256387000438,527.5258903000504,527.5094872000627,527.8098231999902,527.8098231999902,None,528.3105477000354,None,k,1,1.9836094999918714,528.3105477000354,None,None,None,,,,,,,,,,,,,,,,,,,,,,,12008,2,2,2024_Jun_14_1757,stroop_task_switching2_b,2021.2.3,59.84666087444117,
,,,蓝,green,d,diamond,color_mix,颜色,,incompatible,2,block_switch1_b,instruction/ready_test.png,instruction/i11.png,,,,,,,,,,,,,,,,,0,0,0,0,0,44,44,44,,,,,,,,,,,,,,,,,,,,,,,,,,,530.3135942000663,530.5161171000218,530.4972470999928,530.7976706000045,530.7976706000045,None,531.2992402000818,None,d,1,2.610801999922842,531.2992402000818,None,None,None,,,,,,,,,,,,,,,,,,,,,,,12008,2,2,2024_Jun_14_1757,stroop_task_switching2_b,2021.2.3,59.84666087444117,
,,,黄,yellow,f,square,color_mix,单词,,compatible,2,block_switch1_b,instruction/ready_test.png,instruction/i11.png,,,,,,,,,,,,,,,,,0,0,0,0,0,45,45,45,,,,,,,,,,,,,,,,,,,,,,,,,,,533.935734000057,534.1366543000331,534.1192384000169,534.4206093000248,534.4206093000248,None,534.9207637000363,None,f,1,0.9092197000281885,534.9207637000363,None,None,None,,,,,,,,,,,,,,,,,,,,,,,12008,2,2,2024_Jun_14_1757,stroop_task_switching2_b,2021.2.3,59.84666087444117,
,,,黄,yellow,f,diamond,color_mix,颜色,,compatible,2,block_switch1_b,instruction/ready_test.png,instruction/i11.png,,,,,,,,,,,,,,,,,0,0,0,0,0,46,46,46,,,,,,,,,,,,,,,,,,,,,,,,,,,535.8553737000329,536.0559130000183,536.0396527000703,536.3402783999918,536.3402783999918,None,536.8411215000087,None,f,1,0.5170986000448465,536.8411215000087,None,None,None,,,,,,,,,,,,,,,,,,,,,,,12008,2,2,2024_Jun_14_1757,stroop_task_switching2_b,2021.2.3,59.84666087444117,
,,,绿,red,d,square,color_mix,单词,,incompatible,2,block_switch1_b,instruction/ready_test.png,instruction/i11.png,,,,,,,,,,,,,,,,,0,0,0,0,0,47,47,47,,,,,,,,,,,,,,,,,,,,,,,,,,,537.3740656999871,537.5761862000218,537.5579088000813,537.8583473999752,537.8583473999752,None,538.3590206999797,None,k,0,0.7592079000314698,538.3590206999797,None,None,None,,,,,,,,,,,,,,,,,,,,,,,12008,2,2,2024_Jun_14_1757,stroop_task_switching2_b,2021.2.3,59.84666087444117,
,,,红,red,k,diamond,color_mix,颜色,,compatible,2,block_switch1_b,instruction/ready_test.png,instruction/i11.png,,,,,,,,,,,,,,,,,0,0,0,0,0,48,48,48,,,,,,,,,,,,,,,,,,,,,,,,,,,539.1435396000743,539.3439463999821,539.3281177000608,539.6285861000651,539.6285861000651,None,540.1291067000711,None,k,1,1.48589169990737,540.1291067000711,None,None,None,,,,,,,,,,,,,,,,,,,,,,,12008,2,2,2024_Jun_14_1757,stroop_task_switching2_b,2021.2.3,59.84666087444117,
,,,蓝,blue,j,diamond,color_mix,颜色,,compatible,1,block_switch1_b,instruction/ready_test.png,instruction/i11.png,,,,,,,,,,,,,,,,,0,0,0,0,0,49,49,49,,,,,,,,,,,,,,,,,,,,,,,,,,,541.6305469999788,541.8321468000067,541.8156671000179,542.1150213000365,542.1150213000365,None,542.6154953000369,None,j,1,0.6551549000432715,542.6154953000369,None,None,None,,,,,,,,,,,,,,,,,,,,,,,12008,2,2,2024_Jun_14_1757,stroop_task_switching2_b,2021.2.3,59.84666087444117,
,,,黄,yellow,f,diamond,color_mix,颜色,,compatible,1,block_switch1_b,instruction/ready_test.png,instruction/i11.png,,,,,,,,,,,,,,,,,0,0,0,0,0,50,50,50,,,,,,,,,,,,,,,,,,,,,,,,,,,543.2998444000259,543.5004671000643,543.4844693000196,543.785161799984,543.785161799984,None,544.285715200007,None,f,1,1.0649313000030816,544.285715200007,None,None,None,,,,,,,,,,,,,,,,,,,,,,,12008,2,2,2024_Jun_14_1757,stroop_task_switching2_b,2021.2.3,59.84666087444117,
,,,红,blue,j,diamond,color_mix,颜色,,incompatible,1,block_switch1_b,instruction/ready_test.png,instruction/i11.png,,,,,,,,,,,,,,,,,0,0,0,0,0,51,51,51,,,,,,,,,,,,,,,,,,,,,,,,,,,545.3696938999929,545.5699936000165,545.5538387000561,545.8550076000392,545.8550076000392,None,546.355186300003,None,j,1,1.8835775000043213,546.355186300003,None,None,None,,,,,,,,,,,,,,,,,,,,,,,12008,2,2,2024_Jun_14_1757,stroop_task_switching2_b,2021.2.3,59.84666087444117,
,,,蓝,yellow,f,diamond,color_mix,颜色,,incompatible,1,block_switch1_b,instruction/ready_test.png,instruction/i11.png,,,,,,,,,,,,,,,,,0,0,0,0,0,52,52,52,,,,,,,,,,,,,,,,,,,,,,,,,,,548.2573182000779,548.4584552000742,548.4434235000517,548.7578834000742,548.7433592000743,None,549.2421950000571,None,f,1,2.0284805999835953,549.2421950000571,None,None,None,,,,,,,,,,,,,,,,,,,,,,,12008,2,2,2024_Jun_14_1757,stroop_task_switching2_b,2021.2.3,59.84666087444117,
,,,黄,blue,f,square,color_mix,单词,,incompatible,2,block_switch1_b,instruction/ready_test.png,instruction/i11.png,,,,,,,,,,,,,,,,,0,0,0,0,0,53,53,53,,,,,,,,,,,,,,,,,,,,,,,,,,,551.2953331000172,551.4955122000538,551.4800221000332,551.7793842999963,551.7793842999963,None,552.2802062000846,None,f,1,2.4066939000040293,552.2802062000846,None,None,None,,,,,,,,,,,,,,,,,,,,,,,12008,2,2,2024_Jun_14_1757,stroop_task_switching2_b,2021.2.3,59.84666087444117,
,,,蓝,blue,j,diamond,color_mix,颜色,,compatible,2,block_switch1_b,instruction/ready_test.png,instruction/i11.png,,,,,,,,,,,,,,,,,0,0,0,0,0,54,54,54,,,,,,,,,,,,,,,,,,,,,,,,,,,554.7171111999778,554.9186089000432,554.9016765999841,555.2016013000393,555.2016013000393,None,555.7019442000892,None,j,1,1.3285721999127418,555.7019442000892,None,None,None,,,,,,,,,,,,,,,,,,,,,,,12008,2,2,2024_Jun_14_1757,stroop_task_switching2_b,2021.2.3,59.84666087444117,
,,,红,yellow,k,square,color_mix,单词,,incompatible,2,block_switch1_b,instruction/ready_test.png,instruction/i11.png,,,,,,,,,,,,,,,,,0,0,0,0,0,55,55,55,,,,,,,,,,,,,,,,,,,,,,,,,,,557.054048400023,557.2555186999962,557.2376021000091,557.5393327000784,557.5393327000784,None,558.0392919000005,None,f,0,1.5434863000409678,558.0392919000005,None,None,None,,,,,,,,,,,,,,,,,,,,,,,12008,2,2,2024_Jun_14_1757,stroop_task_switching2_b,2021.2.3,59.84666087444117,
,,,蓝,red,j,square,color_mix,单词,,incompatible,1,block_switch1_b,instruction/ready_test.png,instruction/i11.png,,,,,,,,,,,,,,,,,0,0,0,0,0,56,56,56,,,,,,,,,,,,,,,,,,,,,,,,,,,559.6078832000494,559.8090890999883,559.792784600053,560.092983199982,560.092983199982,None,560.5931845000014,None,j,1,1.1341161000309512,560.5931845000014,None,None,None,,,,,,,,,,,,,,,,,,,,,,,12008,2,2,2024_Jun_14_1757,stroop_task_switching2_b,2021.2.3,59.84666087444117,
,,,蓝,blue,j,square,color_mix,单词,,compatible,1,block_switch1_b,instruction/ready_test.png,instruction/i11.png,,,,,,,,,,,,,,,,,0,0,0,0,0,57,57,57,,,,,,,,,,,,,,,,,,,,,,,,,,,561.7446660000132,561.9447145999875,561.9281356000574,562.2290137000382,562.2290137000382,None,562.7294054999948,None,j,1,0.9581015999428928,562.7294054999948,None,None,None,,,,,,,,,,,,,,,,,,,,,,,12008,2,2,2024_Jun_14_1757,stroop_task_switching2_b,2021.2.3,59.84666087444117,
,,,蓝,red,k,diamond,color_mix,颜色,,incompatible,2,block_switch1_b,instruction/ready_test.png,instruction/i11.png,,,,,,,,,,,,,,,,,0,0,0,0,0,58,58,58,,,,,,,,,,,,,,,,,,,,,,,,,,,563.7141048000194,563.91509340005,563.8985724999802,564.197824700037,564.197824700037,None,564.699917800026,None,k,1,1.275064600049518,564.699917800026,None,None,None,,,,,,,,,,,,,,,,,,,,,,,12008,2,2,2024_Jun_14_1757,stroop_task_switching2_b,2021.2.3,59.84666087444117,
,,,绿,green,d,diamond,color_mix,颜色,,compatible,1,block_switch1_b,instruction/ready_test.png,instruction/i11.png,,,,,,,,,,,,,,,,,0,0,0,0,0,59,59,59,,,,,,,,,,,,,,,,,,,,,,,,,,,566.0005601000739,566.2031188000692,566.1842602000106,566.4866378000006,566.4866378000006,None,566.9858451000182,None,d,1,0.8534714999841526,566.9858451000182,None,None,None,,,,,,,,,,,,,,,,,,,,,,,12008,2,2,2024_Jun_14_1757,stroop_task_switching2_b,2021.2.3,59.84666087444117,
,,,蓝,blue,j,diamond,color_mix,颜色,,compatible,1,block_switch1_b,instruction/ready_test.png,instruction/i11.png,,,,,,,,,,,,,,,,,0,0,0,0,0,60,60,60,,,,,,,,,,,,,,,,,,,,,,,,,,,567.8703349999851,568.0717089000391,568.0538757999893,568.3556254000869,568.3556254000869,None,568.8550404000562,None,j,1,0.8239425999345258,568.8550404000562,None,None,None,,,,,,,,,,,,,,,,,,,,,,,12008,2,2,2024_Jun_14_1757,stroop_task_switching2_b,2021.2.3,59.84666087444117,
,,,黄,yellow,f,square,color_mix,单词,,compatible,2,block_switch1_b,instruction/ready_test.png,instruction/i11.png,,,,,,,,,,,,,,,,,0,0,0,0,0,61,61,61,,,,,,,,,,,,,,,,,,,,,,,,,,,569.7063102000393,569.9077922999859,569.8916002999758,570.1911030000774,570.1911030000774,None,570.691135100089,None,f,1,0.8679393000202253,570.691135100089,None,None,None,,,,,,,,,,,,,,,,,,,,,,,12008,2,2,2024_Jun_14_1757,stroop_task_switching2_b,2021.2.3,59.84666087444117,
,,,绿,blue,d,square,color_mix,单词,,incompatible,1,block_switch1_b,instruction/ready_test.png,instruction/i11.png,,,,,,,,,,,,,,,,,0,0,0,0,0,62,62,62,,,,,,,,,,,,,,,,,,,,,,,,,,,571.5757086999947,571.7774131000042,571.7596203000285,572.0613464000635,572.0613464000635,None,572.5605892000021,None,j,0,1.7349100999999791,572.5605892000021,None,None,None,,,,,,,,,,,,,,,,,,,,,,,12008,2,2,2024_Jun_14_1757,stroop_task_switching2_b,2021.2.3,59.84666087444117,
,,,蓝,yellow,j,square,color_mix,单词,,incompatible,1,block_switch1_b,instruction/ready_test.png,instruction/i11.png,,,,,,,,,,,,,,,,,0,0,0,0,0,63,63,63,,,,,,,,,,,,,,,,,,,,,,,,,,,574.3131481000455,574.5149436000502,574.4980945000425,574.797885100008,574.797885100008,None,575.2987606000388,None,j,1,1.2043620999902487,575.2987606000388,None,None,None,,,,,,,,,,,,,,,,,,,,,,,12008,2,2,2024_Jun_14_1757,stroop_task_switching2_b,2021.2.3,59.84666087444117,
,,,黄,yellow,f,diamond,color_mix,颜色,,compatible,2,block_switch1_b,instruction/ready_test.png,instruction/i11.png,,,,,,,,,,,,,,,,,0,0,0,0,0,64,64,64,,,,,,,,,,,,,,,,,,,,,,,,,,,576.5335195000516,576.7347305000294,576.7169332000194,577.018064300064,577.018064300064,None,577.5186888000462,None,f,1,0.8085113998968154,577.5186888000462,None,None,None,,,,,,,,,,,,,,,,,,,,,,,12008,2,2,2024_Jun_14_1757,stroop_task_switching2_b,2021.2.3,59.84666087444117,
,,,蓝,green,d,diamond,color_mix,颜色,,incompatible,1,block_switch1_b,instruction/ready_test.png,instruction/i11.png,,,,,,,,,,,,,,,,,0,0,0,0,0,65,65,65,,,,,,,,,,,,,,,,,,,,,,,,,,,578.3527013000567,578.5529033000348,578.537567500025,578.8383920000633,578.8383920000633,None,579.3374661999987,None,j,0,0.8541611999971792,579.3374661999987,None,None,None,,,,,,,,,,,,,,,,,,,,,,,12008,2,2,2024_Jun_14_1757,stroop_task_switching2_b,2021.2.3,59.84666087444117,
,,,红,red,k,diamond,color_mix,颜色,,compatible,1,block_switch1_b,instruction/ready_test.png,instruction/i11.png,,,,,,,,,,,,,,,,,0,0,0,0,0,66,66,66,,,,,,,,,,,,,,,,,,,,,,,,,,,580.2222747000633,580.4233897000086,580.4064472999889,580.7062157000182,580.7062157000182,None,581.2069943000097,None,k,1,0.6648518000729382,581.2069943000097,None,None,None,,,,,,,,,,,,,,,,,,,,,,,12008,2,2,2024_Jun_14_1757,stroop_task_switching2_b,2021.2.3,59.84666087444117,
,,,蓝,yellow,j,square,color_mix,单词,,incompatible,2,block_switch1_b,instruction/ready_test.png,instruction/i11.png,,,,,,,,,,,,,,,,,0,0,0,0,0,67,67,67,,,,,,,,,,,,,,,,,,,,,,,,,,,581.8914169999771,582.0919866000768,582.0759425000288,582.3758984000888,582.3758984000888,None,582.8759322999977,None,f,0,1.2197595000034198,582.8759322999977,None,None,None,,,,,,,,,,,,,,,,,,,,,,,12008,2,2,2024_Jun_14_1757,stroop_task_switching2_b,2021.2.3,59.84666087444117,
,,,红,yellow,k,square,color_mix,单词,,incompatible,1,block_switch1_b,instruction/ready_test.png,instruction/i11.png,,,,,,,,,,,,,,,,,0,0,0,0,0,68,68,68,,,,,,,,,,,,,,,,,,,,,,,,,,,584.1114554000087,584.3119120000629,584.2951990000438,584.5970275000436,584.5970275000436,None,585.0969405000797,None,k,1,0.75862059998326,585.0969405000797,None,None,None,,,,,,,,,,,,,,,,,,,,,,,12008,2,2,2024_Jun_14_1757,stroop_task_switching2_b,2021.2.3,59.84666087444117,
,,,红,yellow,f,diamond,color_mix,颜色,,incompatible,2,block_switch1_b,instruction/ready_test.png,instruction/i11.png,,,,,,,,,,,,,,,,,0,0,0,0,0,69,69,69,,,,,,,,,,,,,,,,,,,,,,,,,,,585.8806877000025,586.0827120000031,586.064370600041,586.3669404999819,586.3669404999819,None,586.8657031999901,None,k,0,0.8697813999606296,586.8657031999901,None,None,None,,,,,,,,,,,,,,,,,,,,,,,12008,2,2,2024_Jun_14_1757,stroop_task_switching2_b,2021.2.3,59.84666087444117,
,,,蓝,green,j,square,color_mix,单词,,incompatible,2,block_switch1_b,instruction/ready_test.png,instruction/i11.png,,,,,,,,,,,,,,,,,0,0,0,0,0,70,70,70,,,,,,,,,,,,,,,,,,,,,,,,,,,587.7669531999854,587.9692397000035,587.9506773999892,588.2508765000384,588.2508765000384,None,588.7517430000007,None,j,1,1.064413100015372,588.7517430000007,None,None,None,,,,,,,,,,,,,,,,,,,,,,,12008,2,2,2024_Jun_14_1757,stroop_task_switching2_b,2021.2.3,59.84666087444117,
,,,绿,yellow,d,square,color_mix,单词,,incompatible,1,block_switch1_b,instruction/ready_test.png,instruction/i11.png,,,,,,,,,,,,,,,,,0,0,0,0,0,71,71,71,,,,,,,,,,,,,,,,,,,,,,,,,,,589.8367841000436,590.0381384000648,590.0202776000369,590.321595299989,590.321595299989,None,590.8215910000727,None,d,1,1.2419937000377104,590.8215910000727,None,None,None,,,,,,,,,,,,,,,,,,,,,,,12008,2,2,2024_Jun_14_1757,stroop_task_switching2_b,2021.2.3,59.84666087444117,
,,,蓝,yellow,f,diamond,color_mix,颜色,,incompatible,2,block_switch1_b,instruction/ready_test.png,instruction/i11.png,,,,,,,,,,,,,,,,,0,0,0,0,0,72,72,72,,,,,,,,,,,,,,,,,,,,,,,,,,,592.0900822000112,592.2911314000376,592.2748609000118,592.5743746000808,592.5743746000808,None,593.0749944000272,None,f,1,1.4207884999923408,593.0749944000272,None,None,None,,,,,,,,,,,,,,,,,,,,,,,12008,2,2,2024_Jun_14_1757,stroop_task_switching2_b,2021.2.3,59.84666087444117,
,,,红,green,k,square,color_mix,单词,,incompatible,2,block_switch1_b,instruction/ready_test.png,instruction/i11.png,,,,,,,,,,,,,,,,,0,0,0,0,0,73,73,73,,,,,,,,,,,,,,,,,,,,,,,,,,,594.5103361000074,594.7125675000716,594.6939380000113,594.9943767000223,594.9943767000223,None,595.4957928999793,None,k,1,1.6722806999459863,595.4957928999793,None,None,None,,,,,,,,,,,,,,,,,,,,,,,12008,2,2,2024_Jun_14_1757,stroop_task_switching2_b,2021.2.3,59.84666087444117,
,,,绿,blue,j,diamond,color_mix,颜色,,incompatible,2,block_switch1_b,instruction/ready_test.png,instruction/i11.png,,,,,,,,,,,,,,,,,0,0,0,0,0,74,74,74,,,,,,,,,,,,,,,,,,,,,,,,,,,597.1978443000698,597.3995573000284,597.3823558000149,597.6826305000577,597.6826305000577,None,598.1831799000502,None,j,1,2.8885583999799564,598.1831799000502,None,None,None,,,,,,,,,,,,,,,,,,,,,,,12008,2,2,2024_Jun_14_1757,stroop_task_switching2_b,2021.2.3,59.84666087444117,
,,,红,red,k,square,color_mix,单词,,compatible,2,block_switch1_b,instruction/ready_test.png,instruction/i11.png,,,,,,,,,,,,,,,,,0,0,0,0,0,75,75,75,,,,,,,,,,,,,,,,,,,,,,,,,,,601.0869049000321,601.2891951000784,601.2706365999766,601.5719251000555,601.5719251000555,None,602.0722961000865,None,k,1,1.1517554000020027,602.0722961000865,None,None,None,,,,,,,,,,,,,,,,,,,,,,,12008,2,2,2024_Jun_14_1757,stroop_task_switching2_b,2021.2.3,59.84666087444117,
,,,绿,green,d,diamond,color_mix,颜色,,compatible,2,block_switch1_b,instruction/ready_test.png,instruction/i11.png,,,,,,,,,,,,,,,,,0,0,0,0,0,76,76,76,,,,,,,,,,,,,,,,,,,,,,,,,,,603.2401681999909,603.4418501000619,603.4238188000163,603.7243804000318,603.7243804000318,None,604.2250409000553,None,d,1,0.7672475000144914,604.2250409000553,None,None,None,,,,,,,,,,,,,,,,,,,,,,,12008,2,2,2024_Jun_14_1757,stroop_task_switching2_b,2021.2.3,59.84666087444117,
,,,黄,red,f,square,color_mix,单词,,incompatible,2,block_switch1_b,instruction/ready_test.png,instruction/i11.png,,,,,,,,,,,,,,,,,0,0,0,0,0,77,77,77,,,,,,,,,,,,,,,,,,,,,,,,,,,605.0095328000607,605.2097197000403,605.1935023000697,605.4948856000556,605.4948856000556,None,605.9942236000206,None,f,1,1.789744499954395,605.9942236000206,None,None,None,,,,,,,,,,,,,,,,,,,,,,,12008,2,2,2024_Jun_14_1757,stroop_task_switching2_b,2021.2.3,59.84666087444117,
,,,红,red,k,square,color_mix,单词,,compatible,1,block_switch1_b,instruction/ready_test.png,instruction/i11.png,,,,,,,,,,,,,,,,,0,0,0,0,0,78,78,78,,,,,,,,,,,,,,,,,,,,,,,,,,,607.8137843000004,608.0153469999786,607.9993496000534,608.298502300051,608.298502300051,None,608.7994879999897,None,k,1,1.9450160000706092,608.7994879999897,None,None,None,,,,,,,,,,,,,,,,,,,,,,,12008,2,2,2024_Jun_14_1757,stroop_task_switching2_b,2021.2.3,59.84666087444117,
,,,黄,yellow,f,square,color_mix,单词,,compatible,1,block_switch1_b,instruction/ready_test.png,instruction/i11.png,,,,,,,,,,,,,,,,,0,0,0,0,0,79,79,79,,,,,,,,,,,,,,,,,,,,,,,,,,,610.7682561000111,610.9694940000772,610.9526602000697,611.2526372000575,611.2526372000575,None,611.7536297000479,None,f,1,0.7513838999439031,611.7536297000479,None,None,None,,,,,,,,,,,,,,,,,,,,,,,12008,2,2,2024_Jun_14_1757,stroop_task_switching2_b,2021.2.3,59.84666087444117,
,,,红,red,k,diamond,color_mix,颜色,,compatible,2,block_switch1_b,instruction/ready_test.png,instruction/i11.png,,,,,,,,,,,,,,,,,0,0,0,0,0,80,80,80,,,,,,,,,,,,,,,,,,,,,,,,,,,612.5208956000861,612.721801900072,612.7049782000249,613.0063885999843,613.0063885999843,None,613.5056537999772,None,k,1,1.3030585999367759,613.5056537999772,None,None,None,,,,,,,,,,,,,,,,,,,,,,,12008,2,2,2024_Jun_14_1757,stroop_task_switching2_b,2021.2.3,59.84666087444117,
,,,红,red,k,square,color_mix,单词,,compatible,2,block_switch1_b,instruction/ready_test.png,instruction/i11.png,,,,,,,,,,,,,,,,,0,0,0,0,0,81,81,81,,,,,,,,,,,,,,,,,,,,,,,,,,,614.8243355000159,615.0248192000436,615.0094959000126,615.3091221000068,615.3091221000068,None,615.8100449000485,None,k,1,0.8784404000034556,615.8100449000485,None,None,None,,,,,,,,,,,,,,,,,,,,,,,12008,2,2,2024_Jun_14_1757,stroop_task_switching2_b,2021.2.3,59.84666087444117,
,,,黄,blue,j,diamond,color_mix,颜色,,incompatible,2,block_switch1_b,instruction/ready_test.png,instruction/i11.png,,,,,,,,,,,,,,,,,0,0,0,0,0,82,82,82,,,,,,,,,,,,,,,,,,,,,,,,,,,616.7105096000014,616.9125389000401,616.8942121000728,617.1960973000387,617.1960973000387,None,617.6954701000359,None,j,1,1.7609865000704303,617.6954701000359,None,None,None,,,,,,,,,,,,,,,,,,,,,,,12008,2,2,2024_Jun_14_1757,stroop_task_switching2_b,2021.2.3,59.84666087444117,
,,,红,yellow,f,diamond,color_mix,颜色,,incompatible,1,block_switch1_b,instruction/ready_test.png,instruction/i11.png,,,,,,,,,,,,,,,,,0,0,0,0,0,83,83,83,,,,,,,,,,,,,,,,,,,,,,,,,,,619.4813145999797,619.6827145999996,619.6650573000079,619.966721600038,619.966721600038,None,620.4671922000125,None,f,1,1.3179358000634238,620.4671922000125,None,None,None,,,,,,,,,,,,,,,,,,,,,,,12008,2,2,2024_Jun_14_1757,stroop_task_switching2_b,2021.2.3,59.84666087444117,
,,,黄,red,k,diamond,color_mix,颜色,,incompatible,1,block_switch1_b,instruction/ready_test.png,instruction/i11.png,,,,,,,,,,,,,,,,,0,0,0,0,0,84,84,84,,,,,,,,,,,,,,,,,,,,,,,,,,,621.8016803000355,622.0019366000779,621.9868724000407,622.3031063000672,622.2864580000751,None,622.7873387000291,None,k,1,1.4133714999770746,622.7873387000291,None,None,None,,,,,,,,,,,,,,,,,,,,,,,12008,2,2,2024_Jun_14_1757,stroop_task_switching2_b,2021.2.3,59.84666087444117,
,,,蓝,blue,j,square,color_mix,单词,,compatible,2,block_switch1_b,instruction/ready_test.png,instruction/i11.png,,,,,,,,,,,,,,,,,0,0,0,0,0,85,85,85,,,,,,,,,,,,,,,,,,,,,,,,,,,624.2220567000331,624.4241109000286,624.40541700006,624.7059609000571,624.7059609000571,None,625.2074848000193,None,j,1,1.018076500040479,625.2074848000193,None,None,None,,,,,,,,,,,,,,,,,,,,,,,12008,2,2,2024_Jun_14_1757,stroop_task_switching2_b,2021.2.3,59.84666087444117,
,,,绿,green,d,square,color_mix,单词,,compatible,1,block_switch1_b,instruction/ready_test.png,instruction/i11.png,,,,,,,,,,,,,,,,,0,0,0,0,0,86,86,86,,,,,,,,,,,,,,,,,,,,,,,,,,,626.2416906000581,626.4427250000881,626.4260228000348,626.7281450000592,626.7281450000592,None,627.2264848999912,None,d,1,0.8620196999981999,627.2264848999912,None,None,None,,,,,,,,,,,,,,,,,,,,,,,12008,2,2,2024_Jun_14_1757,stroop_task_switching2_b,2021.2.3,59.84666087444117,
,,,红,red,k,square,color_mix,单词,,compatible,1,block_switch1_b,instruction/ready_test.png,instruction/i11.png,,,,,,,,,,,,,,,,,0,0,0,0,0,87,87,87,,,,,,,,,,,,,,,,,,,,,,,,,,,628.11104540003,628.3114318000153,628.294715700089,628.5950388000347,628.5950388000347,None,629.0960896000033,None,f,0,0.8727424000389874,629.0960896000033,None,None,None,,,,,,,,,,,,,,,,,,,,,,,12008,2,2,2024_Jun_14_1757,stroop_task_switching2_b,2021.2.3,59.84666087444117,
,,,黄,green,d,diamond,color_mix,颜色,,incompatible,2,block_switch1_b,instruction/ready_test.png,instruction/i11.png,,,,,,,,,,,,,,,,,0,0,0,0,0,88,88,88,,,,,,,,,,,,,,,,,,,,,,,,,,,629.9973067999817,630.1975559000857,630.1809486000566,630.4827387999976,630.4827387999976,None,630.9821727999952,None,f,0,1.2911330999340862,630.9821727999952,None,None,None,,,,,,,,,,,,,,,,,,,,,,,12008,2,2,2024_Jun_14_1757,stroop_task_switching2_b,2021.2.3,59.84666087444117,
,,,绿,red,d,square,color_mix,单词,,incompatible,2,block_switch1_b,instruction/ready_test.png,instruction/i11.png,,,,,,,,,,,,,,,,,0,0,0,0,0,89,89,89,,,,,,,,,,,,,,,,,,,,,,,,,,,632.3006789999781,632.5020647000056,632.485343300039,632.7845545000164,632.7845545000164,None,633.2856333000818,None,d,1,1.059203099925071,633.2856333000818,None,None,None,,,,,,,,,,,,,,,,,,,,,,,12008,2,2,2024_Jun_14_1757,stroop_task_switching2_b,2021.2.3,59.84666087444117,
,,,黄,green,f,square,color_mix,单词,,incompatible,1,block_switch1_b,instruction/ready_test.png,instruction/i11.png,,,,,,,,,,,,,,,,,0,0,0,0,0,90,90,90,,,,,,,,,,,,,,,,,,,,,,,,,,,634.3705733000534,634.5720410000067,634.5542301000096,634.8552495000185,634.8552495000185,None,635.3553781000664,None,f,1,1.9815488000167534,635.3553781000664,None,None,None,,,,,,,,,,,,,,,,,,,,,,,12008,2,2,2024_Jun_14_1757,stroop_task_switching2_b,2021.2.3,59.84666087444117,
,,,蓝,blue,j,square,color_mix,单词,,compatible,1,block_switch1_b,instruction/ready_test.png,instruction/i11.png,,,,,,,,,,,,,,,,,0,0,0,0,0,91,91,91,,,,,,,,,,,,,,,,,,,,,,,,,,,637.3582474000286,637.5594895000104,637.5432634000899,637.842581700068,637.842581700068,None,638.3432854000712,None,j,1,0.6575362000148743,638.3432854000712,None,None,None,,,,,,,,,,,,,,,,,,,,,,,12008,2,2,2024_Jun_14_1757,stroop_task_switching2_b,2021.2.3,59.84666087444117,
,,,蓝,red,j,square,color_mix,单词,,incompatible,1,block_switch1_b,instruction/ready_test.png,instruction/i11.png,,,,,,,,,,,,,,,,,0,0,0,0,0,92,92,92,,,,,,,,,,,,,,,,,,,,,,,,,,,639.0275125000626,639.2292769000633,639.211154300021,639.5131690000417,639.5131690000417,None,640.0133638000116,None,j,1,1.3319415000732988,640.0133638000116,None,None,None,,,,,,,,,,,,,,,,,,,,,,,12008,2,2,2024_Jun_14_1757,stroop_task_switching2_b,2021.2.3,59.84666087444117,
,,,黄,blue,f,square,color_mix,单词,,incompatible,1,block_switch1_b,instruction/ready_test.png,instruction/i11.png,,,,,,,,,,,,,,,,,0,0,0,0,0,93,93,93,,,,,,,,,,,,,,,,,,,,,,,,,,,641.3643209000584,641.5657167000463,641.5494839000748,641.8493165000109,641.8493165000109,None,642.3492171000689,None,f,1,1.4598842000123113,642.3492171000689,None,None,None,,,,,,,,,,,,,,,,,,,,,,,12008,2,2,2024_Jun_14_1757,stroop_task_switching2_b,2021.2.3,59.84666087444117,
,,,绿,red,k,diamond,color_mix,颜色,,incompatible,2,block_switch1_b,instruction/ready_test.png,instruction/i11.png,,,,,,,,,,,,,,,,,0,0,0,0,0,94,94,94,,,,,,,,,,,,,,,,,,,,,,,,,,,643.8348823999986,644.035124200047,644.0192348000128,644.3206150999758,644.3206150999758,None,644.8196230999893,None,d,0,1.5498125000158325,644.8196230999893,None,None,None,,,,,,,,,,,,,,,,,,,,,,,12008,2,2,2024_Jun_14_1757,stroop_task_switching2_b,2021.2.3,59.84666087444117,
,,,蓝,blue,j,diamond,color_mix,颜色,,compatible,1,block_switch1_b,instruction/ready_test.png,instruction/i11.png,,,,,,,,,,,,,,,,,0,0,0,0,0,95,95,95,,,,,,,,,,,,,,,,,,,,,,,,,,,646.3885168000124,646.5889086000388,646.5737097000238,646.872757300036,646.872757300036,None,647.3735731000779,None,j,1,1.2193723999662325,647.3735731000779,None,None,None,,,,,,,,,,,,,,,,,,,,,,,12008,2,2,2024_Jun_14_1757,stroop_task_switching2_b,2021.2.3,59.84666087444117,
,,,绿,green,d,square,color_mix,单词,,compatible,2,block_switch1_b,instruction/ready_test.png,instruction/i11.png,,,,,,,,,,,,,,,,,0,0,0,0,0,96,96,96,,,,,,,,,,,,,,,,,,,,,,,,,,,648.6089445999824,648.8105479000369,648.7923234000336,649.0928122000769,649.0928122000769,None,649.5937909000786,None,d,1,2.0714943000348285,649.5937909000786,None,None,None,,,,,,,,,,,,,,,,,,,,,,,12008,2,2,2024_Jun_14_1757,stroop_task_switching2_b,2021.2.3,59.84666087444117,
,,,,,,,,,,,,block_switch1_b,instruction/ready_test.png,instruction/i11.png,,,,,,,,,,,,,,,,,0,0,0,0,,,,,,,,,,,,,,,,,,,,,,,,,,,,,,,,,,,,,,,,,,,,,,,,,,,,,,,,,,,,651.6799952000147,None,space,3.337789100012742,651.6799952000147,None,,,12008,2,2,2024_Jun_14_1757,stroop_task_switching2_b,2021.2.3,59.84666087444117,
,,,蓝,blue,j,square,color_mix,单词,,compatible,0,block_switch2_b,instruction/ready_2.png,instruction/i12.png,,,,,,,,,,,,,,,,,0,1,1,1,0,0,0,0,,,,,,,,,,,,,,,,,,,658.7406796000432,659.7427854000125,659.7427854000125,660.7448750999756,660.7448750999756,None,657.755865800078,658.7581149000907,661.7615191000514,661.9630673000356,661.9630673000356,662.2627076000208,662.2627076000208,None,662.763400600059,None,j,1,0.7021952999057248,662.763400600059,None,None,None,,,,,,,,,655.0517305000685,None,space,2.6777656000340357,655.0517305000685,None,,,,,,,,,12008,2,2,2024_Jun_14_1757,stroop_task_switching2_b,2021.2.3,59.84666087444117,
,,,黄,red,k,diamond,color_mix,颜色,,incompatible,2,block_switch2_b,instruction/ready_2.png,instruction/i12.png,,,,,,,,,,,,,,,,,0,1,1,1,0,1,1,1,,,,,,,,,,,,,,,,,,,,,,,,,,,663.5143659000751,663.7149292000104,663.6663554999977,663.9662938000401,663.9662938000401,None,664.4665598000865,None,f,0,1.055252299993299,664.4665598000865,None,None,None,,,,,,,,,,,,,,,,,,,,,,,12008,2,2,2024_Jun_14_1757,stroop_task_switching2_b,2021.2.3,59.84666087444117,
,,,蓝,green,d,diamond,color_mix,颜色,,incompatible,1,block_switch2_b,instruction/ready_2.png,instruction/i12.png,,,,,,,,,,,,,,,,,0,1,1,1,0,2,2,2,,,,,,,,,,,,,,,,,,,,,,,,,,,665.569373400067,665.7683502000291,665.7368665999966,666.0349512000103,666.0349512000103,None,666.535652599996,None,d,1,1.3698781999992207,666.535652599996,None,None,None,,,,,,,,,,,,,,,,,,,,,,,12008,2,2,2024_Jun_14_1757,stroop_task_switching2_b,2021.2.3,59.84666087444117,
,,,红,yellow,f,diamond,color_mix,颜色,,incompatible,1,block_switch2_b,instruction/ready_2.png,instruction/i12.png,,,,,,,,,,,,,,,,,0,1,1,1,0,3,3,3,,,,,,,,,,,,,,,,,,,,,,,,,,,667.9211041000672,668.1228139000013,668.1049677000847,668.4068375000497,668.4068375000497,None,668.9068284999812,None,f,1,1.2233420999255031,668.9068284999812,None,None,None,,,,,,,,,,,,,,,,,,,,,,,12008,2,2,2024_Jun_14_1757,stroop_task_switching2_b,2021.2.3,59.84666087444117,
,,,红,red,k,diamond,color_mix,颜色,,compatible,1,block_switch2_b,instruction/ready_2.png,instruction/i12.png,,,,,,,,,,,,,,,,,0,1,1,1,0,4,4,4,,,,,,,,,,,,,,,,,,,,,,,,,,,670.1579158999957,670.3585845000343,670.3425822000718,670.6427147000795,670.6427147000795,None,671.1438815000001,None,k,1,0.8742041999939829,671.1438815000001,None,None,None,,,,,,,,,,,,,,,,,,,,,,,12008,2,2,2024_Jun_14_1757,stroop_task_switching2_b,2021.2.3,59.84666087444117,
,,,绿,green,d,square,color_mix,单词,,compatible,2,block_switch2_b,instruction/ready_2.png,instruction/i12.png,,,,,,,,,,,,,,,,,0,1,1,1,0,5,5,5,,,,,,,,,,,,,,,,,,,,,,,,,,,672.0439672999782,672.2446401000489,672.2285549000371,672.5282798000844,672.5282798000844,None,673.0287773000309,None,d,1,0.7412248000036925,673.0287773000309,None,None,None,,,,,,,,,,,,,,,,,,,,,,,12008,2,2,2024_Jun_14_1757,stroop_task_switching2_b,2021.2.3,59.84666087444117,
,,,黄,blue,j,diamond,color_mix,颜色,,incompatible,2,block_switch2_b,instruction/ready_2.png,instruction/i12.png,,,,,,,,,,,,,,,,,0,1,1,1,0,6,6,6,,,,,,,,,,,,,,,,,,,,,,,,,,,673.7964657000266,673.9981927999761,673.9802219000412,674.2812787999865,674.2812787999865,None,674.7816898000892,None,j,1,1.85253710008692,674.7816898000892,None,None,None,,,,,,,,,,,,,,,,,,,,,,,12008,2,2,2024_Jun_14_1757,stroop_task_switching2_b,2021.2.3,59.84666087444117,
,,,绿,yellow,d,square,color_mix,单词,,incompatible,2,block_switch2_b,instruction/ready_2.png,instruction/i12.png,,,,,,,,,,,,,,,,,0,1,1,1,0,7,7,7,,,,,,,,,,,,,,,,,,,,,,,,,,,676.6508902000496,676.8525933000492,676.8348240000196,677.1351824000012,677.1351824000012,None,677.6368398000486,None,d,1,1.1328432000009343,677.6368398000486,None,None,None,,,,,,,,,,,,,,,,,,,,,,,12008,2,2,2024_Jun_14_1757,stroop_task_switching2_b,2021.2.3,59.84666087444117,
