b_pra,ins_blocks,ins_blocks2,stim_word,stim_color,corrAns,cue_type,trial_type,task_type,rand,compatibility,switch,b_test,w_pic,w_pic2,trials_instr.thisRepN,trials_instr.thisTrialN,trials_instr.thisN,trials_instr.thisIndex,block_pra.thisRepN,block_pra.thisTrialN,block_pra.thisN,block_pra.thisIndex,trials_rep.thisRepN,trials_rep.thisTrialN,trials_rep.thisN,trials_rep.thisIndex,trials_pra.thisRepN,trials_pra.thisTrialN,trials_pra.thisN,trials_pra.thisIndex,trials_3.thisRepN,trials_3.thisTrialN,trials_3.thisN,trials_3.thisIndex,trials_2.thisRepN,trials_2.thisTrialN,trials_2.thisN,trials_2.thisIndex,instr_image.started,instr_key_resp.started,instr_key_resp.keys,instr_key_resp.rt,instr_pra_image.started,ip_key_resp.started,ip_key_resp.keys,ip_key_resp.rt,block_image.started,ib_key_resp.started,ib_key_resp.keys,ib_key_resp.rt,cd_text.started,cd3.started,cd_text.stopped,cd3.stopped,cd2.started,cd2.stopped,cd1.started,cd1.stopped,text_fix.started,text_2.started,text_fix.stopped,text_2.stopped,text_4.started,text_4.stopped,text_target.started,key_resp.started,key_resp.keys,key_resp.corr,key_resp.rt,text_fb.started,text_fb.stopped,text.started,key_bf.started,key_bf.keys,key_bf.rt,text_target.stopped,key_resp.stopped,sceen_black.started,sceen_black.stopped,instr_test_image.started,instr_exp_key_resp.started,instr_exp_key_resp.keys,instr_exp_key_resp.rt,text_rest.started,key_resp_rest.started,key_resp_rest.keys,key_resp_rest.rt,text_3.started,participant,session,balance,date,expName,psychopyVersion,frameRate,
,,,,,,,,,,,,,,,0,0,0,0,,,,,,,,,,,,,,,,,,,,,39.1122206,39.1122206,right,3.6435253999952693,,,,,,,,,,,,,,,,,,,,,,,,,,,,,,,,,,,,,,,,,,,,,,,12007,2,2,2024-06-14_18h02.08.375,stroop_task_switching2_b,2022.2.4,None,
,,,,,,,,,,,,,,,1,0,1,0,,,,,,,,,,,,,,,,,,,,,42.79008099999919,42.79008099999919,space,32.17698270000983,,,,,,,,,,,,,,,,,,,,,,,,,,,,,,,,,,,,,,,,,,,,,,,12007,2,2,2024-06-14_18h02.08.375,stroop_task_switching2_b,2022.2.4,None,
,,,,,,,,,,,,,,,2,0,2,0,,,,,,,,,,,,,,,,,,,,,74.99820639999234,74.99820639999234,right,2.134599899989553,,,,,,,,,,,,,,,,,,,,,,,,,,,,,,,,,,,,,,,,,,,,,,,12007,2,2,2024-06-14_18h02.08.375,stroop_task_switching2_b,2022.2.4,None,
,,,,,,,,,,,,,,,3,0,3,0,,,,,,,,,,,,,,,,,,,,,77.16465710000193,77.16465710000193,right,20.091606599991792,,,,,,,,,,,,,,,,,,,,,,,,,,,,,,,,,,,,,,,,,,,,,,,12007,2,2,2024-06-14_18h02.08.375,stroop_task_switching2_b,2022.2.4,None,
,,,,,,,,,,,,,,,4,0,4,0,,,,,,,,,,,,,,,,,,,,,97.28669629999786,97.28669629999786,right,13.42517499999667,,,,,,,,,,,,,,,,,,,,,,,,,,,,,,,,,,,,,,,,,,,,,,,12007,2,2,2024-06-14_18h02.08.375,stroop_task_switching2_b,2022.2.4,None,
,,,,,,,,,,,,,,,5,0,5,0,,,,,,,,,,,,,,,,,,,,,110.74556419999863,110.74556419999863,right,21.70764630001213,,,,,,,,,,,,,,,,,,,,,,,,,,,,,,,,,,,,,,,,,,,,,,,12007,2,2,2024-06-14_18h02.08.375,stroop_task_switching2_b,2022.2.4,None,
,,,,,,,,,,,,,,,6,0,6,0,,,,,,,,,,,,,,,,,,,,,132.4789657999936,132.4789657999936,right,4.845438100004685,,,,,,,,,,,,,,,,,,,,,,,,,,,,,,,,,,,,,,,,,,,,,,,12007,2,2,2024-06-14_18h02.08.375,stroop_task_switching2_b,2022.2.4,None,
,,,,,,,,,,,,,,,,,,,,,,,,,,,,,,,,,,,,,,,,,,,137.34434149999288,137.34434149999288,space,1.8580359000043245,,,,,,,,,,,,,,,,,,,,,,,,,,,,,,,,,,,,,,,,,,,12007,2,2,2024-06-14_18h02.08.375,stroop_task_switching2_b,2022.2.4,None,
condition/block_color_b,instruction/instr_color,instruction/i8_b,XX,red,k,diamond,color_single,颜色,,,,,,,,,,,0,0,0,0,0,0,0,0,0,0,0,0,,,,,,,,,,,,,,,,,139.2334802999976,139.2334802999976,space,4.762723599997116,144.0121780999907,144.99766459999955,145.0198653999978,145.99849639998865,145.99849639998865,146.9978606999939,147.0073823999992,148.0145218999969,148.0145218999969,148.1961494999996,148.22046019999834,148.49714719998883,148.49714719998883,149.00895069999387,149.00895069999387,149.00895069999387,k,1,0.874308899990865,149.90050099999644,,,,,,,,,,,,,,,,,,,12007,2,2,2024-06-14_18h02.08.375,stroop_task_switching2_b,2022.2.4,None,
condition/block_color_b,instruction/instr_color,instruction/i8_b,XX,green,d,diamond,color_single,颜色,,,,,,,,,,,0,0,0,0,0,0,0,0,0,1,1,1,,,,,,,,,,,,,,,,,,,,,,,,,,,,,150.9095929999894,151.0962395999959,151.12038789999497,151.39621779999288,151.38597129999835,151.88718769999105,151.89626139999018,151.89626139999018,d,1,0.8910752999945544,152.8097049999924,,,,,,,,,,,,,,,,,,,12007,2,2,2024-06-14_18h02.08.375,stroop_task_switching2_b,2022.2.4,None,
condition/block_color_b,instruction/instr_color,instruction/i8_b,XX,yellow,f,diamond,color_single,颜色,,,,,,,,,,,0,0,0,0,0,0,0,0,0,2,2,2,,,,,,,,,,,,,,,,,,,,,,,,,,,,,153.82074319999083,153.9966182999924,154.02026359998854,154.29598819999956,154.29598819999956,154.79913479999232,154.79913479999232,154.79913479999232,f,1,0.7565356999984942,155.57672539999476,156.57600059999095,,,,,,,,,,,,,,,,,,12007,2,2,2024-06-14_18h02.08.375,stroop_task_switching2_b,2022.2.4,None,
condition/block_color_b,instruction/instr_color,instruction/i8_b,XX,blue,j,diamond,color_single,颜色,,,,,,,,,,,0,0,0,0,0,0,0,0,0,3,3,3,,,,,,,,,,,,,,,,,,,,,,,,,,,,,156.57600059999095,156.7754297999927,156.7754297999927,157.07568359999277,157.07568359999277,157.57640039999387,157.57640039999387,157.57640039999387,j,1,0.4908027000055881,158.08520689999568,159.08544899999106,,,,,,,,,,,,,,,,,,12007,2,2,2024-06-14_18h02.08.375,stroop_task_switching2_b,2022.2.4,None,
condition/block_color_b,instruction/instr_color,instruction/i8_b,XX,green,d,diamond,color_single,颜色,,,,,,,,,,,0,0,0,0,0,0,0,0,0,4,4,4,,,,,,,,,,,,,,,,,,,,,,,,,,,,,159.08544899999106,159.27660820000165,159.2855630999984,159.57663339999272,159.57663339999272,160.0763267000002,160.0763267000002,160.0763267000002,f,0,0.9026306000014301,160.99901739999768,,,,,,,,,,,,,,,,,,,12007,2,2,2024-06-14_18h02.08.375,stroop_task_switching2_b,2022.2.4,None,
condition/block_color_b,instruction/instr_color,instruction/i8_b,XX,yellow,f,diamond,color_single,颜色,,,,,,,,,,,0,0,0,0,0,0,0,0,0,5,5,5,,,,,,,,,,,,,,,,,,,,,,,,,,,,,161.99794299999485,162.18784339999547,162.19880929999636,162.49951739999233,162.48721949999162,,162.9986543999985,162.9986543999985,f,1,0.8604583999986062,163.87522889999673,164.874350699989,,,,,,,,,,,,,,,,,,12007,2,2,2024-06-14_18h02.08.375,stroop_task_switching2_b,2022.2.4,None,
condition/block_color_b,instruction/instr_color,instruction/i8_b,XX,blue,j,diamond,color_single,颜色,,,,,,,,,,,0,0,0,0,0,0,0,0,0,6,6,6,,,,,,,,,,,,,,,,,,,,,,,,,,,,,164.874350699989,165.06480959999317,165.07399559998885,165.3652679999941,165.3652679999941,165.86518759999308,165.86518759999308,165.86518759999308,j,1,0.7459859999944456,166.63244390000182,,,,,,,,,,,,,,,,,,,12007,2,2,2024-06-14_18h02.08.375,stroop_task_switching2_b,2022.2.4,None,
condition/block_color_b,instruction/instr_color,instruction/i8_b,XX,red,k,diamond,color_single,颜色,,,,,,,,,,,0,0,0,0,0,0,0,0,0,7,7,7,,,,,,,,,,,,,,,,,,,,,,,,,,,,,167.6403866999899,167.8312939999887,167.8404850999941,168.13183909999498,168.13183909999498,168.6305185999954,168.6305185999954,168.6305185999954,k,1,0.573146299997461,169.22115659998963,170.2208091999928,,,,,,,,,,,,,,,,,,12007,2,2,2024-06-14_18h02.08.375,stroop_task_switching2_b,2022.2.4,None,
condition/block_color_b,instruction/instr_color,instruction/i8_b,XX,yellow,f,diamond,color_single,颜色,,,,,,,,,,,0,0,0,0,0,0,0,0,0,8,8,8,,,,,,,,,,,,,,,,,,,,,,,,,,,,,170.2208091999928,170.42069709999487,170.42069709999487,170.7202599000011,170.7202599000011,171.22021119999408,171.22021119999408,171.22021119999408,f,1,1.262534699999378,172.4967566999985,173.49588249999215,,,,,,,,,,,,,,,,,,12007,2,2,2024-06-14_18h02.08.375,stroop_task_switching2_b,2022.2.4,None,
condition/block_color_b,instruction/instr_color,instruction/i8_b,XX,blue,j,diamond,color_single,颜色,,,,,,,,,,,0,0,0,0,0,0,0,0,0,9,9,9,,,,,,,,,,,,,,,,,,,,,,,,,,,,,173.49588249999215,173.68736489998992,173.6964239999943,173.98719020000135,173.9965225999913,174.49601629999233,174.49601629999233,174.49601629999233,j,1,0.5553004999965196,175.06434119999176,,,,,,,,,,,,,,,,,,,12007,2,2,2024-06-14_18h02.08.375,stroop_task_switching2_b,2022.2.4,None,
condition/block_color_b,instruction/instr_color,instruction/i8_b,XX,red,k,diamond,color_single,颜色,,,,,,,,,,,0,0,0,0,0,0,0,0,0,10,10,10,,,,,,,,,,,,,,,,,,,,,,,,,,,,,176.07516989999567,176.2521895999962,176.27596719999565,176.55151459999615,176.55151459999615,177.0517045000015,177.0517045000015,177.0517045000015,k,1,0.3994775000028312,177.46495379999396,,,,,,,,,,,,,,,,,,,12007,2,2,2024-06-14_18h02.08.375,stroop_task_switching2_b,2022.2.4,None,
condition/block_color_b,instruction/instr_color,instruction/i8_b,XX,green,d,diamond,color_single,颜色,,,,,,,,,,,0,0,0,0,0,0,0,0,0,11,11,11,,,,,,,,,,,,,,,,,,,,,,,,,,,,,178.4757232999982,178.65249229999608,178.67541949999577,178.9514887999976,178.9514887999976,179.45189189999655,179.45189189999655,179.45189189999655,d,1,1.1593247999990126,180.6314721999952,181.6311496999988,,,,,,,,,,,,,,,,,,12007,2,2,2024-06-14_18h02.08.375,stroop_task_switching2_b,2022.2.4,None,
condition/block_color_b,instruction/instr_color,instruction/i8_b,XX,blue,j,diamond,color_single,颜色,,,,,,,,,,,0,0,0,0,0,0,0,0,0,12,12,12,,,,,,,,,,,,,,,,,,,,,,,,,,,,,181.6311496999988,181.83231719999458,181.83231719999458,182.13221909999265,182.13221909999265,,182.6340610999905,182.6340610999905,j,1,0.46492189999844413,183.1108164999896,184.10754079998878,,,,,,,,,,,,,,,,,,12007,2,2,2024-06-14_18h02.08.375,stroop_task_switching2_b,2022.2.4,None,
condition/block_color_b,instruction/instr_color,instruction/i8_b,XX,red,k,diamond,color_single,颜色,,,,,,,,,,,0,0,0,0,0,0,0,0,0,13,13,13,,,,,,,,,,,,,,,,,,,,,,,,,,,,,184.10754079998878,184.3070960999903,184.3070960999903,184.60738649999257,184.60738649999257,185.10738570000103,185.10738570000103,185.10738570000103,k,1,0.5516337000008207,185.67409979998774,186.67429059999995,,,,,,,,,,,,,,,,,,12007,2,2,2024-06-14_18h02.08.375,stroop_task_switching2_b,2022.2.4,None,
condition/block_color_b,instruction/instr_color,instruction/i8_b,XX,green,d,diamond,color_single,颜色,,,,,,,,,,,0,0,0,0,0,0,0,0,0,14,14,14,,,,,,,,,,,,,,,,,,,,,,,,,,,,,186.67429059999995,186.86415300000226,186.87375859999156,187.16448059999675,187.16448059999675,187.66549990000203,187.66549990000203,187.66549990000203,d,1,0.8576223999989452,188.54304099999717,,,,,,,,,,,,,,,,,,,12007,2,2,2024-06-14_18h02.08.375,stroop_task_switching2_b,2022.2.4,None,
condition/block_color_b,instruction/instr_color,instruction/i8_b,XX,yellow,f,diamond,color_single,颜色,,,,,,,,,,,0,0,0,0,0,0,0,0,0,15,15,15,,,,,,,,,,,,,,,,,,,,,,,,,,,,,189.55422249999538,189.72933619999094,189.75357010000153,190.03024319998804,190.03024319998804,190.52933679999842,190.52933679999842,190.52933679999842,f,1,0.7771365999942645,191.32118509999418,192.3210662999918,,,,,,,,,,,,,,,,,,12007,2,2,2024-06-14_18h02.08.375,stroop_task_switching2_b,2022.2.4,None,
condition/block_color_b,instruction/instr_color,instruction/i8_b,XX,red,k,diamond,color_single,颜色,,,,,,,,,,,0,0,0,0,0,0,0,0,0,16,16,16,,,,,,,,,,,,,,,,,,,,,,,,,,,,,192.3210662999918,192.52039789999253,192.52039789999253,192.82002049998846,192.82002049998846,,193.3219997999986,193.3219997999986,k,1,0.4801369000051636,193.8202719999972,194.82023889999255,,,,,,,,,,,,,,,,,,12007,2,2,2024-06-14_18h02.08.375,stroop_task_switching2_b,2022.2.4,None,
condition/block_color_b,instruction/instr_color,instruction/i8_b,XX,green,d,diamond,color_single,颜色,,,,,,,,,,,0,0,0,0,0,0,0,0,0,17,17,17,,,,,,,,,,,,,,,,,,,,,,,,,,,,,194.82023889999255,195.0201464999991,195.0201464999991,195.31840769998962,195.3090264999919,195.809574599989,195.809574599989,195.809574599989,f,0,0.7853593000036199,196.61274779999803,,,,,,,,,,,,,,,,,,,12007,2,2,2024-06-14_18h02.08.375,stroop_task_switching2_b,2022.2.4,None,
condition/block_color_b,instruction/instr_color,instruction/i8_b,XX,yellow,f,diamond,color_single,颜色,,,,,,,,,,,0,0,0,0,0,0,0,0,0,18,18,18,,,,,,,,,,,,,,,,,,,,,,,,,,,,,197.6185051999928,197.80983549999655,197.81894529999408,198.10929639999813,198.10929639999813,198.60932059999323,198.60932059999323,198.60932059999323,f,1,0.722676399993361,199.36462490000122,,,,,,,,,,,,,,,,,,,12007,2,2,2024-06-14_18h02.08.375,stroop_task_switching2_b,2022.2.4,None,
condition/block_color_b,instruction/instr_color,instruction/i8_b,XX,blue,j,diamond,color_single,颜色,,,,,,,,,,,0,0,0,0,0,0,0,0,0,19,19,19,,,,,,,,,,,,,,,,,,,,,,,,,,,,,200.36429409999982,200.5431988999917,200.56525749999855,200.8424260999891,200.8424260999891,201.34335199999623,201.34335199999623,201.34335199999623,j,1,0.6200946000026306,201.9765883999935,,,,,,,,,,,,,,,,,,,12007,2,2,2024-06-14_18h02.08.375,stroop_task_switching2_b,2022.2.4,None,
condition/block_color_b,instruction/instr_color,instruction/i8_b,XX,green,d,diamond,color_single,颜色,,,,,,,,,,,0,0,0,0,0,0,0,0,0,20,20,20,,,,,,,,,,,,,,,,,,,,,,,,,,,,,202.9866045999952,203.17411239999637,203.19805639999686,203.473679799994,203.473679799994,203.97397629999614,203.97397629999614,203.97397629999614,d,1,1.0762608000077307,205.0668488999945,,,,,,,,,,,,,,,,,,,12007,2,2,2024-06-14_18h02.08.375,stroop_task_switching2_b,2022.2.4,None,
condition/block_color_b,instruction/instr_color,instruction/i8_b,XX,yellow,f,diamond,color_single,颜色,,,,,,,,,,,0,0,0,0,0,0,0,0,0,21,21,21,,,,,,,,,,,,,,,,,,,,,,,,,,,,,206.07458400000178,206.26514889999817,206.27423519999138,206.56546439998783,206.56546439998783,207.06503800000064,207.06503800000064,207.06503800000064,f,1,0.7943360999925062,207.87534959999903,208.87647029999061,,,,,,,,,,,,,,,,,,12007,2,2,2024-06-14_18h02.08.375,stroop_task_switching2_b,2022.2.4,None,
condition/block_color_b,instruction/instr_color,instruction/i8_b,XX,blue,j,diamond,color_single,颜色,,,,,,,,,,,0,0,0,0,0,0,0,0,0,22,22,22,,,,,,,,,,,,,,,,,,,,,,,,,,,,,208.87647029999061,209.07664769999974,209.08779809999396,209.38661739999952,209.375386899992,209.87650459998986,209.87650459998986,209.87650459998986,j,1,0.6786276000057114,210.5760811999935,,,,,,,,,,,,,,,,,,,12007,2,2,2024-06-14_18h02.08.375,stroop_task_switching2_b,2022.2.4,None,
condition/block_color_b,instruction/instr_color,instruction/i8_b,XX,red,k,diamond,color_single,颜色,,,,,,,,,,,0,0,0,0,0,0,0,0,0,23,23,23,,,,,,,,,,,,,,,,,,,,,,,,,,,,,211.58648749999702,211.76302849999047,211.78746739999042,212.0633078999963,212.0633078999963,212.56263449999096,212.56263449999096,212.56263449999096,k,1,0.46420029998989776,213.0421853000007,,,,,,,,,,,,,,,,,,,12007,2,2,2024-06-14_18h02.08.375,stroop_task_switching2_b,2022.2.4,None,
condition/block_color_b,instruction/instr_color,instruction/i8_b,,,,,,,,,,,,,,,,,0,0,0,0,0,0,0,0,,,,,,,,,,,,,,,,,,,,,,,,,,,,,,,,,,,,,,,,,,,,,,214.08612399999402,214.08612399999402,space,4.091899699997157,,,,,,,,,,,,,,12007,2,2,2024-06-14_18h02.08.375,stroop_task_switching2_b,2022.2.4,None,
condition/block_color_b,instruction/instr_color,instruction/i8_b,,,,,,,,,,,,,,,,,0,0,0,0,,,,,,,,,,,,,,,,,,,,,,,,,,,,,,,,,,,,,,,,,,,,,,,,,,,,,,,,,,,,,,,,,,,12007,2,2,2024-06-14_18h02.08.375,stroop_task_switching2_b,2022.2.4,None,
condition/block_word_b,instruction/instr_word,instruction/i9_b,黄,white,f,square,word_single,单词,0.0032461461866890584,,,,,,,,,,0,1,1,1,0,0,0,0,0,0,0,0,,,,,,,,,,,,,,,,,218.22180059998936,218.22180059998936,space,10.199876800004859,228.4458958999894,229.42992830000003,229.45454239999526,230.42998519999674,230.42998519999674,231.42958579999686,231.42958579999686,232.45652100000007,232.45652100000007,232.64188429999922,232.6626982000016,232.94327930000145,232.92989800000214,233.43332969999756,233.43332969999756,233.43332969999756,f,1,1.3218264000024647,234.77600689999235,235.77629719999095,,,,,,,,,,,,,,,,,,12007,2,2,2024-06-14_18h02.08.375,stroop_task_switching2_b,2022.2.4,None,
condition/block_word_b,instruction/instr_word,instruction/i9_b,蓝,white,j,square,word_single,单词,0.060540570646362424,,,,,,,,,,0,1,1,1,0,0,0,0,0,1,1,1,,,,,,,,,,,,,,,,,,,,,,,,,,,,,235.77629719999095,235.9755395999964,235.9755395999964,236.27649360000214,236.27649360000214,236.7900981999992,236.7900981999992,236.7900981999992,j,1,0.7827874000067823,237.58537159999833,238.58503239999118,,,,,,,,,,,,,,,,,,12007,2,2,2024-06-14_18h02.08.375,stroop_task_switching2_b,2022.2.4,None,
condition/block_word_b,instruction/instr_word,instruction/i9_b,黄,white,f,square,word_single,单词,0.06994067193778963,,,,,,,,,,0,1,1,1,0,0,0,0,0,2,2,2,,,,,,,,,,,,,,,,,,,,,,,,,,,,,238.58503239999118,238.78479009999137,238.78479009999137,239.08520339999814,239.08520339999814,239.58443149999948,239.58443149999948,239.58443149999948,f,1,0.6983226999873295,240.2979970000015,,,,,,,,,,,,,,,,,,,12007,2,2,2024-06-14_18h02.08.375,stroop_task_switching2_b,2022.2.4,None,
condition/block_word_b,instruction/instr_word,instruction/i9_b,蓝,white,j,square,word_single,单词,0.08193765152950094,,,,,,,,,,0,1,1,1,0,0,0,0,0,3,3,3,,,,,,,,,,,,,,,,,,,,,,,,,,,,,241.30926259999978,241.48516119999113,241.5092430999939,241.7860345999943,241.7860345999943,242.2852700999938,242.2852700999938,242.2852700999938,j,1,0.5814015000069048,242.88716990000103,,,,,,,,,,,,,,,,,,,12007,2,2,2024-06-14_18h02.08.375,stroop_task_switching2_b,2022.2.4,None,
condition/block_word_b,instruction/instr_word,instruction/i9_b,红,white,k,square,word_single,单词,0.1279694370605574,,,,,,,,,,0,1,1,1,0,0,0,0,0,4,4,4,,,,,,,,,,,,,,,,,,,,,,,,,,,,,243.8984388999961,244.07423109999218,244.09765729999344,244.37378660000104,244.37378660000104,244.87841639999533,244.87841639999533,244.87841639999533,k,1,0.4202132999926107,245.31972229998792,,,,,,,,,,,,,,,,,,,12007,2,2,2024-06-14_18h02.08.375,stroop_task_switching2_b,2022.2.4,None,
condition/block_word_b,instruction/instr_word,instruction/i9_b,红,white,k,square,word_single,单词,0.18345028784879092,,,,,,,,,,0,1,1,1,0,0,0,0,0,5,5,5,,,,,,,,,,,,,,,,,,,,,,,,,,,,,246.33211949998804,246.50810749999073,246.5322232999897,246.80821569998807,246.80821569998807,247.30746899999212,247.30746899999212,247.30746899999212,k,1,0.5926574000041,247.92082039998786,,,,,,,,,,,,,,,,,,,12007,2,2,2024-06-14_18h02.08.375,stroop_task_switching2_b,2022.2.4,None,
condition/block_word_b,instruction/instr_word,instruction/i9_b,蓝,white,j,square,word_single,单词,0.19920386223101294,,,,,,,,,,0,1,1,1,0,0,0,0,0,6,6,6,,,,,,,,,,,,,,,,,,,,,,,,,,,,,248.93206329998793,249.10952459998953,249.1302541999903,249.42091259999142,249.40963850000117,,249.91998449999664,249.91998449999664,j,1,0.6189732999919215,250.55494409998937,251.5550957999949,,,,,,,,,,,,,,,,,,12007,2,2,2024-06-14_18h02.08.375,stroop_task_switching2_b,2022.2.4,None,
condition/block_word_b,instruction/instr_word,instruction/i9_b,蓝,white,j,square,word_single,单词,0.26360599864925405,,,,,,,,,,0,1,1,1,0,0,0,0,0,7,7,7,,,,,,,,,,,,,,,,,,,,,,,,,,,,,251.5550957999949,251.75436669999908,251.76365689998784,252.05477459999383,252.05477459999383,,252.56327769999916,252.56327769999916,j,1,0.6709772999893175,253.25561029999517,254.2555665999971,,,,,,,,,,,,,,,,,,12007,2,2,2024-06-14_18h02.08.375,stroop_task_switching2_b,2022.2.4,None,
condition/block_word_b,instruction/instr_word,instruction/i9_b,蓝,white,j,square,word_single,单词,0.358985675745526,,,,,,,,,,0,1,1,1,0,0,0,0,0,8,8,8,,,,,,,,,,,,,,,,,,,,,,,,,,,,,254.2555665999971,254.45391630000086,254.46273919999658,254.75328160000208,254.75328160000208,,255.2545306999964,255.2545306999964,j,1,0.7242033999937121,255.99977589999617,,,,,,,,,,,,,,,,,,,12007,2,2,2024-06-14_18h02.08.375,stroop_task_switching2_b,2022.2.4,None,
condition/block_word_b,instruction/instr_word,instruction/i9_b,绿,white,d,square,word_single,单词,0.36496733802487347,,,,,,,,,,0,1,1,1,0,0,0,0,0,9,9,9,,,,,,,,,,,,,,,,,,,,,,,,,,,,,257.01010549999774,257.1849566999881,257.20951929999865,257.4854532999889,257.4854532999889,257.986888799991,257.986888799991,257.986888799991,d,1,1.0481602999934694,259.0541860999947,260.05250059999526,,,,,,,,,,,,,,,,,,12007,2,2,2024-06-14_18h02.08.375,stroop_task_switching2_b,2022.2.4,None,
condition/block_word_b,instruction/instr_word,instruction/i9_b,黄,white,f,square,word_single,单词,0.3743513623756727,,,,,,,,,,0,1,1,1,0,0,0,0,0,10,10,10,,,,,,,,,,,,,,,,,,,,,,,,,,,,,260.05250059999526,260.2522498999897,260.2522498999897,260.55190959999163,260.55190959999163,261.06509609999193,261.06509609999193,261.06509609999193,f,1,0.7858059999998659,261.86635149999347,,,,,,,,,,,,,,,,,,,12007,2,2,2024-06-14_18h02.08.375,stroop_task_switching2_b,2022.2.4,None,
condition/block_word_b,instruction/instr_word,instruction/i9_b,红,white,k,square,word_single,单词,0.3894803852598544,,,,,,,,,,0,1,1,1,0,0,0,0,0,11,11,11,,,,,,,,,,,,,,,,,,,,,,,,,,,,,262.87442870000086,263.0649975999986,263.07408649999707,263.36937119999493,263.36937119999493,,263.8677689999895,263.8677689999895,k,1,0.6063147999957437,264.48716439999407,,,,,,,,,,,,,,,,,,,12007,2,2,2024-06-14_18h02.08.375,stroop_task_switching2_b,2022.2.4,None,
condition/block_word_b,instruction/instr_word,instruction/i9_b,绿,white,d,square,word_single,单词,0.5393759672408067,,,,,,,,,,0,1,1,1,0,0,0,0,0,12,12,12,,,,,,,,,,,,,,,,,,,,,,,,,,,,,265.49820799999,265.67377829999896,265.69857090000005,265.97421380000014,265.97421380000014,266.4759436000022,266.4759436000022,266.4759436000022,d,1,1.0306751000025542,267.5220616000006,,,,,,,,,,,,,,,,,,,12007,2,2,2024-06-14_18h02.08.375,stroop_task_switching2_b,2022.2.4,None,
condition/block_word_b,instruction/instr_word,instruction/i9_b,蓝,white,j,square,word_single,单词,0.5995731954831104,,,,,,,,,,0,1,1,1,0,0,0,0,0,13,13,13,,,,,,,,,,,,,,,,,,,,,,,,,,,,,268.53177770000184,268.7197271999903,268.7306921999989,269.030502900001,269.0208464999887,269.5233911999967,269.5233911999967,269.5233911999967,j,1,0.5915963000006741,270.1319950999896,271.13138819999585,,,,,,,,,,,,,,,,,,12007,2,2,2024-06-14_18h02.08.375,stroop_task_switching2_b,2022.2.4,None,
condition/block_word_b,instruction/instr_word,instruction/i9_b,红,white,k,square,word_single,单词,0.6298674479151414,,,,,,,,,,0,1,1,1,0,0,0,0,0,14,14,14,,,,,,,,,,,,,,,,,,,,,,,,,,,,,271.13138819999585,271.3291287999891,271.3291287999891,271.62933599999815,271.62933599999815,272.13166269999056,272.13166269999056,272.13166269999056,k,1,0.38427220001176465,272.5310494000005,273.5297094999987,,,,,,,,,,,,,,,,,,12007,2,2,2024-06-14_18h02.08.375,stroop_task_switching2_b,2022.2.4,None,
condition/block_word_b,instruction/instr_word,instruction/i9_b,红,white,k,square,word_single,单词,0.7389942282348904,,,,,,,,,,0,1,1,1,0,0,0,0,0,15,15,15,,,,,,,,,,,,,,,,,,,,,,,,,,,,,273.5297094999987,273.7311272999941,273.7311272999941,274.0299989999912,274.0299989999912,274.529910799989,274.529910799989,274.529910799989,k,1,0.6650764999940293,275.20978239999386,,,,,,,,,,,,,,,,,,,12007,2,2,2024-06-14_18h02.08.375,stroop_task_switching2_b,2022.2.4,None,
condition/block_word_b,instruction/instr_word,instruction/i9_b,绿,white,d,square,word_single,单词,0.7550853947239682,,,,,,,,,,0,1,1,1,0,0,0,0,0,16,16,16,,,,,,,,,,,,,,,,,,,,,,,,,,,,,276.21915839999565,276.40916959999595,276.4182281999965,276.70992809999734,276.70992809999734,,277.21191919999546,277.21191919999546,d,1,0.7193733000021894,277.9446683999995,,,,,,,,,,,,,,,,,,,12007,2,2,2024-06-14_18h02.08.375,stroop_task_switching2_b,2022.2.4,None,
condition/block_word_b,instruction/instr_word,instruction/i9_b,绿,white,d,square,word_single,单词,0.8019302780428206,,,,,,,,,,0,1,1,1,0,0,0,0,0,17,17,17,,,,,,,,,,,,,,,,,,,,,,,,,,,,,278.95132169999124,279.1424910999922,279.15229509999335,279.44264499998826,279.44264499998826,279.9421141999919,279.9421141999919,279.9421141999919,j,0,0.6604712999978801,280.6200167999923,,,,,,,,,,,,,,,,,,,12007,2,2,2024-06-14_18h02.08.375,stroop_task_switching2_b,2022.2.4,None,
condition/block_word_b,instruction/instr_word,instruction/i9_b,绿,white,d,square,word_single,单词,0.8110702914095343,,,,,,,,,,0,1,1,1,0,0,0,0,0,18,18,18,,,,,,,,,,,,,,,,,,,,,,,,,,,,,281.6195019000006,281.8095190999884,281.8193054000003,282.1089987000014,282.1089987000014,282.6085003999906,282.6179054999957,282.6179054999957,d,1,1.209690399991814,283.84299209999153,284.8405066999985,,,,,,,,,,,,,,,,,,12007,2,2,2024-06-14_18h02.08.375,stroop_task_switching2_b,2022.2.4,None,
condition/block_word_b,instruction/instr_word,instruction/i9_b,黄,white,f,square,word_single,单词,0.8176594937590999,,,,,,,,,,0,1,1,1,0,0,0,0,0,19,19,19,,,,,,,,,,,,,,,,,,,,,,,,,,,,,284.8405066999985,285.04037809999136,285.04037809999136,285.34124679998786,285.34124679998786,285.84113760000037,285.84113760000037,285.84113760000037,f,1,0.9218131999950856,286.77361360000214,287.77415729999484,,,,,,,,,,,,,,,,,,12007,2,2,2024-06-14_18h02.08.375,stroop_task_switching2_b,2022.2.4,None,
condition/block_word_b,instruction/instr_word,instruction/i9_b,红,white,k,square,word_single,单词,0.8955794421104841,,,,,,,,,,0,1,1,1,0,0,0,0,0,20,20,20,,,,,,,,,,,,,,,,,,,,,,,,,,,,,287.77415729999484,287.9646141999983,287.97369319999416,288.26565180000034,288.26565180000034,288.77379959999234,288.77379959999234,288.77379959999234,k,1,0.6286475999950198,289.4206889999914,,,,,,,,,,,,,,,,,,,12007,2,2,2024-06-14_18h02.08.375,stroop_task_switching2_b,2022.2.4,None,
condition/block_word_b,instruction/instr_word,instruction/i9_b,绿,white,d,square,word_single,单词,0.9113598052474129,,,,,,,,,,0,1,1,1,0,0,0,0,0,21,21,21,,,,,,,,,,,,,,,,,,,,,,,,,,,,,290.4197048999922,290.6206904999999,290.6206904999999,290.9199823999952,290.9199823999952,,291.4209850999905,291.4209850999905,d,1,0.7735220000031404,292.2100211999932,,,,,,,,,,,,,,,,,,,12007,2,2,2024-06-14_18h02.08.375,stroop_task_switching2_b,2022.2.4,None,
condition/block_word_b,instruction/instr_word,instruction/i9_b,黄,white,f,square,word_single,单词,0.9215930958042953,,,,,,,,,,0,1,1,1,0,0,0,0,0,22,22,22,,,,,,,,,,,,,,,,,,,,,,,,,,,,,293.2204027999978,293.3964197999885,293.42059470000095,293.69601970000076,293.69601970000076,294.1966739999916,294.1966739999916,294.1966739999916,f,1,0.7332487000094261,294.94280289999733,,,,,,,,,,,,,,,,,,,12007,2,2,2024-06-14_18h02.08.375,stroop_task_switching2_b,2022.2.4,None,
condition/block_word_b,instruction/instr_word,instruction/i9_b,黄,white,f,square,word_single,单词,0.9493525498837774,,,,,,,,,,0,1,1,1,0,0,0,0,0,23,23,23,,,,,,,,,,,,,,,,,,,,,,,,,,,,,295.9538054000004,296.1291639999981,296.15329199998814,296.43100889999187,296.44302909998805,,296.94346729999234,296.94346729999234,f,1,2.395490400012932,299.3544056999963,300.362827799996,,,,,,,,,,,,,,,,,,12007,2,2,2024-06-14_18h02.08.375,stroop_task_switching2_b,2022.2.4,None,
condition/block_word_b,instruction/instr_word,instruction/i9_b,,,,,,,,,,,,,,,,,0,1,1,1,0,0,0,0,,,,,,,,,,,,,,,,,,,,,,,,,,,,,,,,,,,,,,,,,,,,,,300.362827799996,300.362827799996,space,3.0400210000079824,,,,,,,,,,,,,,12007,2,2,2024-06-14_18h02.08.375,stroop_task_switching2_b,2022.2.4,None,
condition/block_word_b,instruction/instr_word,instruction/i9_b,,,,,,,,,,,,,,,,,0,1,1,1,,,,,,,,,,,,,,,,,,,,,,,,,,,,,,,,,,,,,,,,,,,,,,,,,,,,,,,,,,,,,,,,,,,12007,2,2,2024-06-14_18h02.08.375,stroop_task_switching2_b,2022.2.4,None,
condition/block_mixed_b,instruction/instr_mixed,instruction/i10_b,蓝,red,k,diamond,color_mix,颜色,,incompatible,0,,,,,,,,0,2,2,2,0,0,0,0,0,0,0,0,,,,,,,,,,,,,,,,,303.4433499000006,303.4433499000006,space,21.154240300005767,324.6133334999904,325.60702749999473,325.62055369999143,326.60759020000114,326.60759020000114,327.60787029999483,327.60787029999483,328.6310138999979,328.6310138999979,328.8070866999915,328.83090239999,329.10668499999156,329.10668499999156,329.60862749999797,329.60862749999797,329.60862749999797,k,1,0.9549856999947224,330.5866532999935,331.5943008999893,,,,,,,,,,,,,,,,,,12007,2,2,2024-06-14_18h02.08.375,stroop_task_switching2_b,2022.2.4,None,
condition/block_mixed_b,instruction/instr_mixed,instruction/i10_b,绿,yellow,f,diamond,color_mix,颜色,,incompatible,1,,,,,,,,0,2,2,2,0,0,0,0,0,1,1,1,,,,,,,,,,,,,,,,,,,,,,,,,,,,,331.5943008999893,331.7863570999907,331.795664499994,332.0863173999969,332.0863173999969,,332.58756639999046,332.58756639999046,None,0,,336.1550353999919,,,,,,335.5867656999908,335.5867656999908,335.5867656999908,336.1550353999919,,,,,,,,,,12007,2,2,2024-06-14_18h02.08.375,stroop_task_switching2_b,2022.2.4,None,
condition/block_mixed_b,instruction/instr_mixed,instruction/i10_b,红,green,d,diamond,color_mix,颜色,,incompatible,1,,,,,,,,0,2,2,2,0,0,0,0,0,2,2,2,,,,,,,,,,,,,,,,,,,,,,,,,,,,,337.16436090000207,337.3515683000005,337.3751423999929,337.6513161999901,337.6513161999901,338.15367079999123,338.15367079999123,338.15367079999123,d,1,2.425170899994555,340.59983510000166,,,,,,,,,,,,,,,,,,,12007,2,2,2024-06-14_18h02.08.375,stroop_task_switching2_b,2022.2.4,None,
condition/block_mixed_b,instruction/instr_mixed,instruction/i10_b,蓝,red,k,diamond,color_mix,颜色,,incompatible,1,,,,,,,,0,2,2,2,0,0,0,0,0,3,3,3,,,,,,,,,,,,,,,,,,,,,,,,,,,,,341.60954609999317,341.7847114999895,341.8098450999969,342.08541429998877,342.08541429998877,342.58804509999754,342.58804509999754,342.58804509999754,k,1,1.5347454000002472,344.13976549998915,,,,,,,,,,,,,,,,,,,12007,2,2,2024-06-14_18h02.08.375,stroop_task_switching2_b,2022.2.4,None,
condition/block_mixed_b,instruction/instr_mixed,instruction/i10_b,红,blue,j,diamond,color_mix,颜色,,incompatible,1,,,,,,,,0,2,2,2,0,0,0,0,0,4,4,4,,,,,,,,,,,,,,,,,,,,,,,,,,,,,345.14063100000203,345.33190959999047,345.3408352999977,345.63121759999194,345.63121759999194,346.1330377999984,346.1330377999984,346.1330377999984,k,0,0.6931825000065146,346.8428179999901,347.84122429999115,,,,,,,,,,,,,,,,,,12007,2,2,2024-06-14_18h02.08.375,stroop_task_switching2_b,2022.2.4,None,
condition/block_mixed_b,instruction/instr_mixed,instruction/i10_b,红,blue,k,square,color_mix,单词,,incompatible,2,,,,,,,,0,2,2,2,0,0,0,0,0,5,5,5,,,,,,,,,,,,,,,,,,,,,,,,,,,,,347.84122429999115,348.0407724999968,348.0407724999968,348.3399767999945,348.3399767999945,348.8408495999902,348.8408495999902,348.8408495999902,j,0,1.185240300008445,350.042108499998,,,,,,,,,,,,,,,,,,,12007,2,2,2024-06-14_18h02.08.375,stroop_task_switching2_b,2022.2.4,None,
condition/block_mixed_b,instruction/instr_mixed,instruction/i10_b,红,yellow,f,diamond,color_mix,颜色,,incompatible,2,,,,,,,,0,2,2,2,0,0,0,0,0,6,6,6,,,,,,,,,,,,,,,,,,,,,,,,,,,,,351.0527729999885,351.24212309998984,351.25325489998795,351.5535216999997,351.5296862999967,352.0297875999968,352.04217519999656,352.04217519999656,f,1,1.3118908000033116,353.36538299999665,354.36486879999575,,,,,,,,,,,,,,,,,,12007,2,2,2024-06-14_18h02.08.375,stroop_task_switching2_b,2022.2.4,None,
condition/block_mixed_b,instruction/instr_mixed,instruction/i10_b,红,yellow,k,square,color_mix,单词,,incompatible,2,,,,,,,,0,2,2,2,0,0,0,0,0,7,7,7,,,,,,,,,,,,,,,,,,,,,,,,,,,,,354.36486879999575,354.5628190999996,354.5628190999996,354.8629973999923,354.8629973999923,355.3631899999891,355.3631899999891,355.3631899999891,f,0,1.0154527999984566,356.40906389999145,,,,,,,,,,,,,,,,,,,12007,2,2,2024-06-14_18h02.08.375,stroop_task_switching2_b,2022.2.4,None,
condition/block_mixed_b,instruction/instr_mixed,instruction/i10_b,绿,blue,d,square,color_mix,单词,,incompatible,1,,,,,,,,0,2,2,2,0,0,0,0,0,8,8,8,,,,,,,,,,,,,,,,,,,,,,,,,,,,,357.4096839999984,357.59795139999187,357.60826519998955,357.9089060999977,357.89798249999876,,358.4100474000006,358.4100474000006,d,1,1.8320329999987734,360.2529286999925,361.252410599991,,,,,,,,,,,,,,,,,,12007,2,2,2024-06-14_18h02.08.375,stroop_task_switching2_b,2022.2.4,None,
condition/block_mixed_b,instruction/instr_mixed,instruction/i10_b,蓝,green,d,diamond,color_mix,颜色,,incompatible,2,,,,,,,,0,2,2,2,0,0,0,0,0,9,9,9,,,,,,,,,,,,,,,,,,,,,,,,,,,,,361.252410599991,361.45201670000097,361.45201670000097,361.75183539999125,361.74192129999574,362.24347289999423,362.25154009999824,362.25154009999824,d,1,1.7984384000010323,364.0673867000005,,,,,,,,,,,,,,,,,,,12007,2,2,2024-06-14_18h02.08.375,stroop_task_switching2_b,2022.2.4,None,
condition/block_mixed_b,instruction/instr_mixed,instruction/i10_b,蓝,yellow,j,square,color_mix,单词,,incompatible,2,,,,,,,,0,2,2,2,0,0,0,0,0,10,10,10,,,,,,,,,,,,,,,,,,,,,,,,,,,,,365.0751598999923,365.2649900999968,365.2743647999887,365.56517370000074,365.56517370000074,366.064850499999,366.064850499999,366.064850499999,j,1,1.5136752999969758,367.6002451999957,,,,,,,,,,,,,,,,,,,12007,2,2,2024-06-14_18h02.08.375,stroop_task_switching2_b,2022.2.4,None,
condition/block_mixed_b,instruction/instr_mixed,instruction/i10_b,蓝,green,j,square,color_mix,单词,,incompatible,1,,,,,,,,0,2,2,2,0,0,0,0,0,11,11,11,,,,,,,,,,,,,,,,,,,,,,,,,,,,,368.60695529999794,368.798180599988,368.807307199997,369.0980288999999,369.0980288999999,369.5984091999999,369.5984091999999,369.5984091999999,j,1,0.6195162999938475,370.2337240999914,,,,,,,,,,,,,,,,,,,12007,2,2,2024-06-14_18h02.08.375,stroop_task_switching2_b,2022.2.4,None,
condition/block_mixed_b,instruction/instr_mixed,instruction/i10_b,绿,yellow,d,square,color_mix,单词,,incompatible,1,,,,,,,,0,2,2,2,0,0,0,0,0,12,12,12,,,,,,,,,,,,,,,,,,,,,,,,,,,,,371.24229559999367,371.43002119999437,371.4532771999948,371.72901099998853,371.72901099998853,372.2308616999944,372.2308616999944,372.2308616999944,d,1,1.1719897000002675,373.42035279999254,374.42254559999856,,,,,,,,,,,,,,,,,,12007,2,2,2024-06-14_18h02.08.375,stroop_task_switching2_b,2022.2.4,None,
condition/block_mixed_b,instruction/instr_mixed,instruction/i10_b,绿,blue,j,diamond,color_mix,颜色,,incompatible,2,,,,,,,,0,2,2,2,0,0,0,0,0,13,13,13,,,,,,,,,,,,,,,,,,,,,,,,,,,,,374.42254559999856,374.6206751999998,374.62957219999225,374.9197860999993,374.9197860999993,375.41996590000053,375.41996590000053,375.41996590000053,j,1,1.6473540000006324,377.08791059999203,,,,,,,,,,,,,,,,,,,12007,2,2,2024-06-14_18h02.08.375,stroop_task_switching2_b,2022.2.4,None,
condition/block_mixed_b,instruction/instr_mixed,instruction/i10_b,黄,red,f,square,color_mix,单词,,incompatible,2,,,,,,,,0,2,2,2,0,0,0,0,0,14,14,14,,,,,,,,,,,,,,,,,,,,,,,,,,,,,378.09755679999944,378.2760680999927,378.30933409999125,378.575574699993,378.5849098999897,379.08721749999677,379.08721749999677,379.08721749999677,d,0,1.0506944999942789,380.1538913999975,381.1520085999946,,,,,,,,,,,,,,,,,,12007,2,2,2024-06-14_18h02.08.375,stroop_task_switching2_b,2022.2.4,None,
condition/block_mixed_b,instruction/instr_mixed,instruction/i10_b,蓝,yellow,f,diamond,color_mix,颜色,,incompatible,2,,,,,,,,0,2,2,2,0,0,0,0,0,15,15,15,,,,,,,,,,,,,,,,,,,,,,,,,,,,,381.1520085999946,381.35172079999757,381.35172079999757,381.65143699999317,381.64225330000045,382.1420495999919,382.1512928000011,382.1512928000011,None,0,,385.80733979999786,386.8069467999885,,,,,385.1537518999976,385.1537518999976,385.1537518999976,385.80733979999786,,,,,,,,,,12007,2,2,2024-06-14_18h02.08.375,stroop_task_switching2_b,2022.2.4,None,
condition/block_mixed_b,instruction/instr_mixed,instruction/i10_b,黄,red,k,diamond,color_mix,颜色,,incompatible,1,,,,,,,,0,2,2,2,0,0,0,0,0,16,16,16,,,,,,,,,,,,,,,,,,,,,,,,,,,,,386.8069467999885,387.00683669999125,387.00683669999125,387.3078152999951,387.29832799998985,387.80097430000023,387.80097430000023,387.80097430000023,k,1,0.7131448000000091,388.5327427000011,,,,,,,,,,,,,,,,,,,12007,2,2,2024-06-14_18h02.08.375,stroop_task_switching2_b,2022.2.4,None,
condition/block_mixed_b,instruction/instr_mixed,instruction/i10_b,绿,red,d,square,color_mix,单词,,incompatible,2,,,,,,,,0,2,2,2,0,0,0,0,0,17,17,17,,,,,,,,,,,,,,,,,,,,,,,,,,,,,389.5433148000011,389.7316349999892,389.7411105999927,390.03185349999694,390.03185349999694,390.53112990000227,390.53112990000227,390.53112990000227,d,1,0.7924029999994673,391.34269229999336,,,,,,,,,,,,,,,,,,,12007,2,2,2024-06-14_18h02.08.375,stroop_task_switching2_b,2022.2.4,None,
condition/block_mixed_b,instruction/instr_mixed,instruction/i10_b,红,green,k,square,color_mix,单词,,incompatible,1,,,,,,,,0,2,2,2,0,0,0,0,0,18,18,18,,,,,,,,,,,,,,,,,,,,,,,,,,,,,392.3535739999934,392.529392299999,392.5532205999916,392.8300559999916,392.8300559999916,393.331918099997,393.331918099997,393.331918099997,k,1,1.0139357000007294,394.3630891999928,395.3646327999886,,,,,,,,,,,,,,,,,,12007,2,2,2024-06-14_18h02.08.375,stroop_task_switching2_b,2022.2.4,None,
condition/block_mixed_b,instruction/instr_mixed,instruction/i10_b,黄,blue,j,diamond,color_mix,颜色,,incompatible,2,,,,,,,,0,2,2,2,0,0,0,0,0,19,19,19,,,,,,,,,,,,,,,,,,,,,,,,,,,,,395.3646327999886,395.5628301999968,395.5628301999968,395.8621196000022,395.8621196000022,396.3655505999923,396.3655505999923,396.3655505999923,j,1,0.7660074000013992,397.15441519999877,398.1532759999973,,,,,,,,,,,,,,,,,,12007,2,2,2024-06-14_18h02.08.375,stroop_task_switching2_b,2022.2.4,None,
condition/block_mixed_b,instruction/instr_mixed,instruction/i10_b,黄,green,d,diamond,color_mix,颜色,,incompatible,1,,,,,,,,0,2,2,2,0,0,0,0,0,20,20,20,,,,,,,,,,,,,,,,,,,,,,,,,,,,,398.1532759999973,398.3431566999934,398.3518763999891,398.6519316999911,398.6519316999911,399.15104599999904,399.15104599999904,399.15104599999904,d,1,0.8521629000024404,400.02114789999905,,,,,,,,,,,,,,,,,,,12007,2,2,2024-06-14_18h02.08.375,stroop_task_switching2_b,2022.2.4,None,
condition/block_mixed_b,instruction/instr_mixed,instruction/i10_b,黄,green,f,square,color_mix,单词,,incompatible,2,,,,,,,,0,2,2,2,0,0,0,0,0,21,21,21,,,,,,,,,,,,,,,,,,,,,,,,,,,,,401.03086619998794,401.2185332999943,401.24277879999136,401.5185438999906,401.5185438999906,402.01737629999116,402.01737629999116,402.01737629999116,f,1,1.0817295000015292,403.11908689999836,404.1177611999883,,,,,,,,,,,,,,,,,,12007,2,2,2024-06-14_18h02.08.375,stroop_task_switching2_b,2022.2.4,None,
condition/block_mixed_b,instruction/instr_mixed,instruction/i10_b,黄,blue,f,square,color_mix,单词,,incompatible,1,,,,,,,,0,2,2,2,0,0,0,0,0,22,22,22,,,,,,,,,,,,,,,,,,,,,,,,,,,,,404.1177611999883,404.3189585999935,404.3189585999935,404.6208473000006,404.6208473000006,,405.130508199989,405.130508199989,f,1,1.5920082999946317,406.74283309999737,407.7402998999896,,,,,,,,,,,,,,,,,,12007,2,2,2024-06-14_18h02.08.375,stroop_task_switching2_b,2022.2.4,None,
condition/block_mixed_b,instruction/instr_mixed,instruction/i10_b,蓝,red,j,square,color_mix,单词,,incompatible,1,,,,,,,,0,2,2,2,0,0,0,0,0,23,23,23,,,,,,,,,,,,,,,,,,,,,,,,,,,,,407.7402998999896,407.9407049000001,407.9407049000001,408.24071019999974,408.24071019999974,408.74150809999264,408.74150809999264,408.74150809999264,j,1,0.9416200999985449,409.69840860000113,410.7008855999884,,,,,,,,,,,,,,,,,,12007,2,2,2024-06-14_18h02.08.375,stroop_task_switching2_b,2022.2.4,None,
condition/block_mixed_b,instruction/instr_mixed,instruction/i10_b,绿,red,k,diamond,color_mix,颜色,,incompatible,2,,,,,,,,0,2,2,2,0,0,0,0,0,24,24,24,,,,,,,,,,,,,,,,,,,,,,,,,,,,,410.7008855999884,410.898486399994,410.9074224999931,411.1960454999935,411.18732649998856,411.68940809999185,411.68940809999185,411.68940809999185,k,1,0.7683779999933904,412.47622279998905,,,,,,,,,,,,,,,,,,,12007,2,2,2024-06-14_18h02.08.375,stroop_task_switching2_b,2022.2.4,None,
condition/block_mixed_b,instruction/instr_mixed,instruction/i10_b,绿,green,d,diamond,color_mix,颜色,,compatible,1,,,,,,,,0,2,2,2,0,0,0,0,0,25,25,25,,,,,,,,,,,,,,,,,,,,,,,,,,,,,413.4866316999978,413.66255629999796,413.68707039998844,413.9629864999879,413.9629864999879,414.4635794999922,414.4635794999922,414.4635794999922,d,1,0.891841899996507,415.37737579998793,,,,,,,,,,,,,,,,,,,12007,2,2,2024-06-14_18h02.08.375,stroop_task_switching2_b,2022.2.4,None,
condition/block_mixed_b,instruction/instr_mixed,instruction/i10_b,蓝,blue,j,diamond,color_mix,颜色,,compatible,1,,,,,,,,0,2,2,2,0,0,0,0,0,26,26,26,,,,,,,,,,,,,,,,,,,,,,,,,,,,,416.3879117999895,416.56393150000076,416.5873857999977,416.8635471999878,416.8635471999878,417.3651738999906,417.3651738999906,417.3651738999906,j,1,0.6698507999972207,418.05120879999595,,,,,,,,,,,,,,,,,,,12007,2,2,2024-06-14_18h02.08.375,stroop_task_switching2_b,2022.2.4,None,
condition/block_mixed_b,instruction/instr_mixed,instruction/i10_b,绿,green,d,square,color_mix,单词,,compatible,2,,,,,,,,0,2,2,2,0,0,0,0,0,27,27,27,,,,,,,,,,,,,,,,,,,,,,,,,,,,,419.0540997999924,419.2424791999947,419.2511908000015,419.5422045000014,419.5422045000014,420.0429996999883,420.0429996999883,420.0429996999883,d,1,0.8714226000010967,420.93043339998985,421.93086409999523,,,,,,,,,,,,,,,,,,12007,2,2,2024-06-14_18h02.08.375,stroop_task_switching2_b,2022.2.4,None,
condition/block_mixed_b,instruction/instr_mixed,instruction/i10_b,绿,green,d,square,color_mix,单词,,compatible,1,,,,,,,,0,2,2,2,0,0,0,0,0,28,28,28,,,,,,,,,,,,,,,,,,,,,,,,,,,,,421.93086409999523,422.11803189999773,422.1423039999936,422.4180362999905,422.4180362999905,422.91836139999214,422.91836139999214,422.91836139999214,d,1,0.7242111000086879,423.65428959998826,,,,,,,,,,,,,,,,,,,12007,2,2,2024-06-14_18h02.08.375,stroop_task_switching2_b,2022.2.4,None,
condition/block_mixed_b,instruction/instr_mixed,instruction/i10_b,蓝,blue,j,square,color_mix,单词,,compatible,1,,,,,,,,0,2,2,2,0,0,0,0,0,29,29,29,,,,,,,,,,,,,,,,,,,,,,,,,,,,,424.6646420999896,424.8529920000001,424.86421229998814,425.1641643999901,425.15371929999674,,425.6660087999917,425.6660087999917,j,1,0.744434000007459,426.43259379999654,427.4336808999942,,,,,,,,,,,,,,,,,,12007,2,2,2024-06-14_18h02.08.375,stroop_task_switching2_b,2022.2.4,None,
condition/block_mixed_b,instruction/instr_mixed,instruction/i10_b,黄,yellow,f,diamond,color_mix,颜色,,compatible,2,,,,,,,,0,2,2,2,0,0,0,0,0,30,30,30,,,,,,,,,,,,,,,,,,,,,,,,,,,,,427.4336808999942,427.6310630999942,427.64030299999285,427.930554999999,427.930554999999,428.43279269999766,428.43279269999766,428.43279269999766,f,1,0.906798299998627,429.3530892999988,,,,,,,,,,,,,,,,,,,12007,2,2,2024-06-14_18h02.08.375,stroop_task_switching2_b,2022.2.4,None,
condition/block_mixed_b,instruction/instr_mixed,instruction/i10_b,绿,green,d,square,color_mix,单词,,compatible,2,,,,,,,,0,2,2,2,0,0,0,0,0,31,31,31,,,,,,,,,,,,,,,,,,,,,,,,,,,,,430.3654810000007,430.5403865999979,430.5740747999953,430.84048499999335,430.84048499999335,431.34294629999204,431.34294629999204,431.34294629999204,d,1,1.1875347000022884,432.55483779999486,433.55458359999466,,,,,,,,,,,,,,,,,,12007,2,2,2024-06-14_18h02.08.375,stroop_task_switching2_b,2022.2.4,None,
condition/block_mixed_b,instruction/instr_mixed,instruction/i10_b,黄,yellow,f,square,color_mix,单词,,compatible,1,,,,,,,,0,2,2,2,0,0,0,0,0,32,32,32,,,,,,,,,,,,,,,,,,,,,,,,,,,,,433.55458359999466,433.7566719999886,433.7566719999886,434.0628100999893,434.0538528999896,434.5534050999995,434.5534050999995,434.5534050999995,f,1,0.8183002999867313,435.38604430000123,436.3862885999988,,,,,,,,,,,,,,,,,,12007,2,2,2024-06-14_18h02.08.375,stroop_task_switching2_b,2022.2.4,None,
condition/block_mixed_b,instruction/instr_mixed,instruction/i10_b,绿,green,d,diamond,color_mix,颜色,,compatible,2,,,,,,,,0,2,2,2,0,0,0,0,0,33,33,33,,,,,,,,,,,,,,,,,,,,,,,,,,,,,436.3862885999988,436.58651769999415,436.58651769999415,436.8869011999923,436.8869011999923,437.38814699999057,437.38814699999057,437.38814699999057,d,1,0.9741388999973424,438.3776041999954,,,,,,,,,,,,,,,,,,,12007,2,2,2024-06-14_18h02.08.375,stroop_task_switching2_b,2022.2.4,None,
condition/block_mixed_b,instruction/instr_mixed,instruction/i10_b,红,red,k,square,color_mix,单词,,compatible,2,,,,,,,,0,2,2,2,0,0,0,0,0,34,34,34,,,,,,,,,,,,,,,,,,,,,,,,,,,,,439.38579780000146,439.575972599996,439.5852404999896,439.87555349999457,439.87555349999457,440.38363299999037,440.38363299999037,440.38363299999037,k,1,0.788112900001579,441.1870869999984,442.18516100000124,,,,,,,,,,,,,,,,,,12007,2,2,2024-06-14_18h02.08.375,stroop_task_switching2_b,2022.2.4,None,
condition/block_mixed_b,instruction/instr_mixed,instruction/i10_b,黄,yellow,f,square,color_mix,单词,,compatible,1,,,,,,,,0,2,2,2,0,0,0,0,0,35,35,35,,,,,,,,,,,,,,,,,,,,,,,,,,,,,442.18516100000124,442.38482189999195,442.38482189999195,442.6848436,442.6848436,443.1876645000011,443.1876645000011,443.1876645000011,f,1,1.0473323000042,444.2509408999904,445.2538776000001,,,,,,,,,,,,,,,,,,12007,2,2,2024-06-14_18h02.08.375,stroop_task_switching2_b,2022.2.4,None,
condition/block_mixed_b,instruction/instr_mixed,instruction/i10_b,绿,green,d,diamond,color_mix,颜色,,compatible,2,,,,,,,,0,2,2,2,0,0,0,0,0,36,36,36,,,,,,,,,,,,,,,,,,,,,,,,,,,,,445.2538776000001,445.44025429998874,445.46409459999995,445.7411080999882,445.7411080999882,446.25370519999706,446.25370519999706,446.25370519999706,d,1,1.036662200000137,447.30750850000186,448.3100659999909,,,,,,,,,,,,,,,,,,12007,2,2,2024-06-14_18h02.08.375,stroop_task_switching2_b,2022.2.4,None,
condition/block_mixed_b,instruction/instr_mixed,instruction/i10_b,蓝,blue,j,square,color_mix,单词,,compatible,2,,,,,,,,0,2,2,2,0,0,0,0,0,37,37,37,,,,,,,,,,,,,,,,,,,,,,,,,,,,,448.3100659999909,448.49855459999526,448.50747769999725,448.798192199989,448.8073575000017,449.30744859999686,449.30744859999686,449.30744859999686,j,1,0.9832776999974158,450.308753099991,451.3069649999961,,,,,,,,,,,,,,,,,,12007,2,2,2024-06-14_18h02.08.375,stroop_task_switching2_b,2022.2.4,None,
condition/block_mixed_b,instruction/instr_mixed,instruction/i10_b,红,red,k,square,color_mix,单词,,compatible,1,,,,,,,,0,2,2,2,0,0,0,0,0,38,38,38,,,,,,,,,,,,,,,,,,,,,,,,,,,,,451.3069649999961,451.509212799996,451.509212799996,451.8094956999994,451.8006316999963,452.309044499998,452.309044499998,452.309044499998,k,1,0.6611006000021007,452.98678059999656,453.9889123999892,,,,,,,,,,,,,,,,,,12007,2,2,2024-06-14_18h02.08.375,stroop_task_switching2_b,2022.2.4,None,
condition/block_mixed_b,instruction/instr_mixed,instruction/i10_b,黄,yellow,f,diamond,color_mix,颜色,,compatible,2,,,,,,,,0,2,2,2,0,0,0,0,0,39,39,39,,,,,,,,,,,,,,,,,,,,,,,,,,,,,453.9889123999892,454.1873721000011,454.1966259999899,454.48772520000057,454.48772520000057,,454.9969171999983,454.9969171999983,f,1,1.44552449999901,456.46210409999185,,,,,,,,,,,,,,,,,,,12007,2,2,2024-06-14_18h02.08.375,stroop_task_switching2_b,2022.2.4,None,
condition/block_mixed_b,instruction/instr_mixed,instruction/i10_b,黄,yellow,f,square,color_mix,单词,,compatible,2,,,,,,,,0,2,2,2,0,0,0,0,0,40,40,40,,,,,,,,,,,,,,,,,,,,,,,,,,,,,457.4647402999981,457.6538806999888,457.66327989999263,457.9541537999903,457.9541537999903,,458.4652296999993,458.4652296999993,f,1,0.6656115000077989,459.1447819000023,,,,,,,,,,,,,,,,,,,12007,2,2,2024-06-14_18h02.08.375,stroop_task_switching2_b,2022.2.4,None,
condition/block_mixed_b,instruction/instr_mixed,instruction/i10_b,蓝,blue,j,square,color_mix,单词,,compatible,1,,,,,,,,0,2,2,2,0,0,0,0,0,41,41,41,,,,,,,,,,,,,,,,,,,,,,,,,,,,,460.1515057999932,460.341911800002,460.3514576000016,460.6418178999884,460.6418178999884,461.14174019999336,461.14174019999336,461.14174019999336,j,1,0.9000429999869084,462.0515975999879,463.0538078999962,,,,,,,,,,,,,,,,,,12007,2,2,2024-06-14_18h02.08.375,stroop_task_switching2_b,2022.2.4,None,
condition/block_mixed_b,instruction/instr_mixed,instruction/i10_b,蓝,blue,j,diamond,color_mix,颜色,,compatible,2,,,,,,,,0,2,2,2,0,0,0,0,0,42,42,42,,,,,,,,,,,,,,,,,,,,,,,,,,,,,463.0538078999962,463.2522345999896,463.2522345999896,463.5515263999987,463.5515263999987,464.0519392999995,464.0519392999995,464.0519392999995,j,1,0.6695382999896538,464.7419690999959,465.7405235999904,,,,,,,,,,,,,,,,,,12007,2,2,2024-06-14_18h02.08.375,stroop_task_switching2_b,2022.2.4,None,
condition/block_mixed_b,instruction/instr_mixed,instruction/i10_b,黄,yellow,f,diamond,color_mix,颜色,,compatible,1,,,,,,,,0,2,2,2,0,0,0,0,0,43,43,43,,,,,,,,,,,,,,,,,,,,,,,,,,,,,465.7405235999904,465.93092559999786,465.94095350000134,466.2310426999902,466.2310426999902,466.7311439999903,466.7311439999903,466.7311439999903,f,1,0.6630952000123216,467.40664359999937,468.4069806999905,,,,,,,,,,,,,,,,,,12007,2,2,2024-06-14_18h02.08.375,stroop_task_switching2_b,2022.2.4,None,
condition/block_mixed_b,instruction/instr_mixed,instruction/i10_b,红,red,k,diamond,color_mix,颜色,,compatible,1,,,,,,,,0,2,2,2,0,0,0,0,0,44,44,44,,,,,,,,,,,,,,,,,,,,,,,,,,,,,468.4069806999905,468.6073398000008,468.6073398000008,468.90671250000014,468.89731219998794,469.4003801999934,469.4003801999934,469.4003801999934,k,1,0.5864589999982854,469.9996347999986,,,,,,,,,,,,,,,,,,,12007,2,2,2024-06-14_18h02.08.375,stroop_task_switching2_b,2022.2.4,None,
condition/block_mixed_b,instruction/instr_mixed,instruction/i10_b,蓝,blue,j,diamond,color_mix,颜色,,compatible,1,,,,,,,,0,2,2,2,0,0,0,0,0,45,45,45,,,,,,,,,,,,,,,,,,,,,,,,,,,,,471.0067483000021,471.1976062999893,471.2069779000012,471.49766739999177,471.49766739999177,471.99613889999455,471.99613889999455,471.99613889999455,j,1,0.7587551000033272,472.7760558000009,,,,,,,,,,,,,,,,,,,12007,2,2,2024-06-14_18h02.08.375,stroop_task_switching2_b,2022.2.4,None,
condition/block_mixed_b,instruction/instr_mixed,instruction/i10_b,红,red,k,diamond,color_mix,颜色,,compatible,1,,,,,,,,0,2,2,2,0,0,0,0,0,46,46,46,,,,,,,,,,,,,,,,,,,,,,,,,,,,,473.78635699998995,473.96318849999807,473.9873024999979,474.26326769999287,474.26326769999287,474.7644081999897,474.7644081999897,474.7644081999897,k,1,0.590595999994548,475.37581969999883,,,,,,,,,,,,,,,,,,,12007,2,2,2024-06-14_18h02.08.375,stroop_task_switching2_b,2022.2.4,None,
condition/block_mixed_b,instruction/instr_mixed,instruction/i10_b,红,red,k,square,color_mix,单词,,compatible,2,,,,,,,,0,2,2,2,0,0,0,0,0,47,47,47,,,,,,,,,,,,,,,,,,,,,,,,,,,,,476.3885658999934,476.56357410000055,476.5960664000013,476.86242949998996,476.8750966999942,477.37628529999347,477.37628529999347,477.37628529999347,k,1,0.7383425000007264,478.1329188999953,,,,,,,,,,,,,,,,,,,12007,2,2,2024-06-14_18h02.08.375,stroop_task_switching2_b,2022.2.4,None,
condition/block_mixed_b,instruction/instr_mixed,instruction/i10_b,红,red,k,diamond,color_mix,颜色,,compatible,2,,,,,,,,0,2,2,2,0,0,0,0,0,48,48,48,,,,,,,,,,,,,,,,,,,,,,,,,,,,,479.14372629999707,479.33173469999747,479.34236959999544,479.64176719999523,479.63136709999526,,480.1417517999944,480.1417517999944,k,1,0.6127220000053057,480.77510020000045,481.77893029998813,,,,,,,,,,,,,,,,,,12007,2,2,2024-06-14_18h02.08.375,stroop_task_switching2_b,2022.2.4,None,
condition/block_mixed_b,instruction/instr_mixed,instruction/i10_b,,,,,,,,,,,,,,,,,0,2,2,2,0,0,0,0,,,,,,,,,,,,,,,,,,,,,,,,,,,,,,,,,,,,,,,,,,,,,,481.77893029998813,481.77893029998813,space,3.5090563999983715,,,,,,,,,,,,,,12007,2,2,2024-06-14_18h02.08.375,stroop_task_switching2_b,2022.2.4,None,
condition/block_mixed_b,instruction/instr_mixed,instruction/i10_b,,,,,,,,,,,,,,,,,0,2,2,2,,,,,,,,,,,,,,,,,,,,,,,,,,,,,,,,,,,,,,,,,,,,,,,,,,,,,,,,,,,,,,,,,,,12007,2,2,2024-06-14_18h02.08.375,stroop_task_switching2_b,2022.2.4,None,
,,,红,red,k,square,color_mix,单词,,compatible,0,block_switch1_b,instruction/ready_test.png,instruction/i11.png,,,,,,,,,,,,,,,,,0,0,0,0,0,0,0,0,,,,,,,,,,,,,491.3076041000022,492.30871789999946,492.30871789999946,493.3198621999909,493.3086522999947,494.31972689999384,494.3086306999903,,495.34152599998924,495.5075853999879,495.55245599999034,495.80868219998956,495.80868219998956,,496.3210844999994,496.3210844999994,k,1,1.2567899999994552,,,,,,,,,,,485.3415096999961,485.3415096999961,space,5.9461411999945994,,,,,,12007,2,2,2024-06-14_18h02.08.375,stroop_task_switching2_b,2022.2.4,None,
,,,绿,green,d,diamond,color_mix,颜色,,compatible,2,block_switch1_b,instruction/ready_test.png,instruction/i11.png,,,,,,,,,,,,,,,,,0,0,0,0,0,1,1,1,,,,,,,,,,,,,,,,,,,,,497.5973384999961,497.78753549999965,497.79654409999785,498.0878568999906,498.0878568999906,498.597557999994,498.597557999994,498.597557999994,d,1,1.396902599997702,,,,,,,,,,,,,,,,,,,,12007,2,2,2024-06-14_18h02.08.375,stroop_task_switching2_b,2022.2.4,None,
,,,绿,yellow,f,diamond,color_mix,颜色,,incompatible,1,block_switch1_b,instruction/ready_test.png,instruction/i11.png,,,,,,,,,,,,,,,,,0,0,0,0,0,2,2,2,,,,,,,,,,,,,,,,,,,,,500.01115149998805,500.2094417999906,500.21819369999866,500.50940439999977,500.50940439999977,501.00837959999626,501.00837959999626,501.00837959999626,f,1,0.8113959000038449,,,,,,,,,,,,,,,,,,,,12007,2,2,2024-06-14_18h02.08.375,stroop_task_switching2_b,2022.2.4,None,
,,,蓝,blue,j,diamond,color_mix,颜色,,compatible,1,block_switch1_b,instruction/ready_test.png,instruction/i11.png,,,,,,,,,,,,,,,,,0,0,0,0,0,3,3,3,,,,,,,,,,,,,,,,,,,,,501.84307329999865,502.0416717999906,502.0512852999964,502.3419729999878,502.3419729999878,502.84169519999705,502.84169519999705,502.84169519999705,j,1,0.7119431000028271,,,,,,,,,,,,,,,,,,,,12007,2,2,2024-06-14_18h02.08.375,stroop_task_switching2_b,2022.2.4,None,
,,,绿,green,d,square,color_mix,单词,,compatible,2,block_switch1_b,instruction/ready_test.png,instruction/i11.png,,,,,,,,,,,,,,,,,0,0,0,0,0,4,4,4,,,,,,,,,,,,,,,,,,,,,503.5771242999908,503.7750107999891,503.7750107999891,504.07584259999567,504.07584259999567,504.5750268999982,504.5750268999982,504.5750268999982,d,1,0.970596300001489,,,,,,,,,,,,,,,,,,,,12007,2,2,2024-06-14_18h02.08.375,stroop_task_switching2_b,2022.2.4,None,
,,,绿,blue,j,diamond,color_mix,颜色,,incompatible,2,block_switch1_b,instruction/ready_test.png,instruction/i11.png,,,,,,,,,,,,,,,,,0,0,0,0,0,5,5,5,,,,,,,,,,,,,,,,,,,,,505.5643892999942,505.76416239999526,505.76416239999526,506.0650011999969,506.0650011999969,,506.56500279999455,506.56500279999455,j,1,1.6847609000105876,,,,,,,,,,,,,,,,,,,,12007,2,2,2024-06-14_18h02.08.375,stroop_task_switching2_b,2022.2.4,None,
,,,黄,red,f,square,color_mix,单词,,incompatible,2,block_switch1_b,instruction/ready_test.png,instruction/i11.png,,,,,,,,,,,,,,,,,0,0,0,0,0,6,6,6,,,,,,,,,,,,,,,,,,,,,508.2675537999894,508.46496630000183,508.474098199993,508.7652611999947,508.7652611999947,509.2647602999932,509.2647602999932,509.2647602999932,k,0,0.9770217999903252,,,,,,,,,,,,,,,,,,,,12007,2,2,2024-06-14_18h02.08.375,stroop_task_switching2_b,2022.2.4,None,
,,,绿,green,d,square,color_mix,单词,,compatible,1,block_switch1_b,instruction/ready_test.png,instruction/i11.png,,,,,,,,,,,,,,,,,0,0,0,0,0,7,7,7,,,,,,,,,,,,,,,,,,,,,510.264586099991,510.46543749999546,510.46543749999546,510.77380129999074,510.76418929999636,511.2665675999888,511.2665675999888,511.2665675999888,d,1,0.9524759999912931,,,,,,,,,,,,,,,,,,,,12007,2,2,2024-06-14_18h02.08.375,stroop_task_switching2_b,2022.2.4,None,
,,,蓝,blue,j,square,color_mix,单词,,compatible,1,block_switch1_b,instruction/ready_test.png,instruction/i11.png,,,,,,,,,,,,,,,,,0,0,0,0,0,8,8,8,,,,,,,,,,,,,,,,,,,,,512.2335131,512.4295805000002,512.442158299993,512.7289416999993,512.7289416999993,513.2302350999962,513.2302350999962,513.2302350999962,j,1,0.7168361000076402,,,,,,,,,,,,,,,,,,,,12007,2,2,2024-06-14_18h02.08.375,stroop_task_switching2_b,2022.2.4,None,
,,,红,red,k,diamond,color_mix,颜色,,compatible,2,block_switch1_b,instruction/ready_test.png,instruction/i11.png,,,,,,,,,,,,,,,,,0,0,0,0,0,9,9,9,,,,,,,,,,,,,,,,,,,,,513.9642686000007,514.16251129999,514.16251129999,514.4619984999881,514.4619984999881,514.9647840999969,514.9647840999969,514.9647840999969,k,1,0.5897620000032475,,,,,,,,,,,,,,,,,,,,12007,2,2,2024-06-14_18h02.08.375,stroop_task_switching2_b,2022.2.4,None,
,,,黄,yellow,f,diamond,color_mix,颜色,,compatible,1,block_switch1_b,instruction/ready_test.png,instruction/i11.png,,,,,,,,,,,,,,,,,0,0,0,0,0,10,10,10,,,,,,,,,,,,,,,,,,,,,515.5757039000018,515.7620514000009,515.7863524999993,516.0627200999879,516.0627200999879,516.5643909999926,516.5643909999926,516.5643909999926,f,1,0.853619899993646,,,,,,,,,,,,,,,,,,,,12007,2,2,2024-06-14_18h02.08.375,stroop_task_switching2_b,2022.2.4,None,
,,,绿,green,d,square,color_mix,单词,,compatible,2,block_switch1_b,instruction/ready_test.png,instruction/i11.png,,,,,,,,,,,,,,,,,0,0,0,0,0,11,11,11,,,,,,,,,,,,,,,,,,,,,517.4310074999958,517.6289175999991,517.6289175999991,517.9293750999932,517.9293750999932,518.4321438999905,518.4321438999905,518.4321438999905,d,1,0.8901276000106009,,,,,,,,,,,,,,,,,,,,12007,2,2,2024-06-14_18h02.08.375,stroop_task_switching2_b,2022.2.4,None,
,,,红,red,k,diamond,color_mix,颜色,,compatible,2,block_switch1_b,instruction/ready_test.png,instruction/i11.png,,,,,,,,,,,,,,,,,0,0,0,0,0,12,12,12,,,,,,,,,,,,,,,,,,,,,519.3446867999883,519.5416345999984,519.5512024999916,519.8418041999976,519.8418041999976,520.3425487999921,520.3425487999921,520.3425487999921,k,1,0.7962046000029659,,,,,,,,,,,,,,,,,,,,12007,2,2,2024-06-14_18h02.08.375,stroop_task_switching2_b,2022.2.4,None,
,,,红,red,k,diamond,color_mix,颜色,,compatible,1,block_switch1_b,instruction/ready_test.png,instruction/i11.png,,,,,,,,,,,,,,,,,0,0,0,0,0,13,13,13,,,,,,,,,,,,,,,,,,,,,521.15042179999,521.3507866,521.3507866,521.6517922999919,521.6426712999964,522.142654899988,522.142654899988,522.142654899988,k,1,0.5634556000004523,,,,,,,,,,,,,,,,,,,,12007,2,2,2024-06-14_18h02.08.375,stroop_task_switching2_b,2022.2.4,None,
,,,黄,yellow,f,square,color_mix,单词,,compatible,2,block_switch1_b,instruction/ready_test.png,instruction/i11.png,,,,,,,,,,,,,,,,,0,0,0,0,0,14,14,14,,,,,,,,,,,,,,,,,,,,,522.7199113999959,522.9184330999997,522.9184330999997,523.2186218999996,523.2186218999996,523.7314527999988,523.7314527999988,523.7314527999988,f,1,0.6301986999897053,,,,,,,,,,,,,,,,,,,,12007,2,2,2024-06-14_18h02.08.375,stroop_task_switching2_b,2022.2.4,None,
,,,红,green,d,diamond,color_mix,颜色,,incompatible,2,block_switch1_b,instruction/ready_test.png,instruction/i11.png,,,,,,,,,,,,,,,,,0,0,0,0,0,15,15,15,,,,,,,,,,,,,,,,,,,,,524.3833244999987,524.5758255999972,524.5844339999894,524.8755625999911,524.8755625999911,525.3765570999967,525.3765570999967,525.3765570999967,d,1,1.3452608000079636,,,,,,,,,,,,,,,,,,,,12007,2,2,2024-06-14_18h02.08.375,stroop_task_switching2_b,2022.2.4,None,
,,,蓝,red,k,diamond,color_mix,颜色,,incompatible,1,block_switch1_b,instruction/ready_test.png,instruction/i11.png,,,,,,,,,,,,,,,,,0,0,0,0,0,16,16,16,,,,,,,,,,,,,,,,,,,,,526.7402545999939,526.931182299988,526.9407050000009,527.2316214999883,527.2406553999899,527.7422412000014,527.7422412000014,527.7422412000014,k,1,0.9647029000043403,,,,,,,,,,,,,,,,,,,,12007,2,2,2024-06-14_18h02.08.375,stroop_task_switching2_b,2022.2.4,None,
,,,黄,green,d,diamond,color_mix,颜色,,incompatible,1,block_switch1_b,instruction/ready_test.png,instruction/i11.png,,,,,,,,,,,,,,,,,0,0,0,0,0,17,17,17,,,,,,,,,,,,,,,,,,,,,528.7306527999899,528.9316237000021,528.9316237000021,529.2310354999936,529.2310354999936,,529.7334664999944,529.7334664999944,d,1,0.972443699996802,,,,,,,,,,,,,,,,,,,,12007,2,2,2024-06-14_18h02.08.375,stroop_task_switching2_b,2022.2.4,None,
,,,绿,green,d,diamond,color_mix,颜色,,compatible,1,block_switch1_b,instruction/ready_test.png,instruction/i11.png,,,,,,,,,,,,,,,,,0,0,0,0,0,18,18,18,,,,,,,,,,,,,,,,,,,,,530.720236299996,530.90647419999,530.9311859000009,531.2077380999981,531.2077380999981,531.7069300000003,531.7069300000003,531.7069300000003,d,1,0.8946113999991212,,,,,,,,,,,,,,,,,,,,12007,2,2,2024-06-14_18h02.08.375,stroop_task_switching2_b,2022.2.4,None,
,,,黄,red,k,diamond,color_mix,颜色,,incompatible,1,block_switch1_b,instruction/ready_test.png,instruction/i11.png,,,,,,,,,,,,,,,,,0,0,0,0,0,19,19,19,,,,,,,,,,,,,,,,,,,,,532.6225264999957,532.8201107999921,532.8290351999894,533.1203135999967,533.1203135999967,533.6231153999979,533.6231153999979,533.6231153999979,k,1,0.7308062999945832,,,,,,,,,,,,,,,,,,,,12007,2,2,2024-06-14_18h02.08.375,stroop_task_switching2_b,2022.2.4,None,
,,,绿,yellow,d,square,color_mix,单词,,incompatible,2,block_switch1_b,instruction/ready_test.png,instruction/i11.png,,,,,,,,,,,,,,,,,0,0,0,0,0,20,20,20,,,,,,,,,,,,,,,,,,,,,534.3754715999967,534.5629645000008,534.5872339999914,534.8628067999962,534.8628067999962,535.3633054999955,535.3633054999955,535.3633054999955,f,0,1.0865424999938114,,,,,,,,,,,,,,,,,,,,12007,2,2,2024-06-14_18h02.08.375,stroop_task_switching2_b,2022.2.4,None,
,,,绿,yellow,f,diamond,color_mix,颜色,,incompatible,2,block_switch1_b,instruction/ready_test.png,instruction/i11.png,,,,,,,,,,,,,,,,,0,0,0,0,0,21,21,21,,,,,,,,,,,,,,,,,,,,,536.4634129999904,536.6629457999952,536.6629457999952,536.9622165999899,536.9527716000011,537.4526571999886,537.4626507999928,537.4626507999928,f,1,1.85967449999589,,,,,,,,,,,,,,,,,,,,12007,2,2,2024-06-14_18h02.08.375,stroop_task_switching2_b,2022.2.4,None,
,,,绿,green,d,square,color_mix,单词,,compatible,2,block_switch1_b,instruction/ready_test.png,instruction/i11.png,,,,,,,,,,,,,,,,,0,0,0,0,0,22,22,22,,,,,,,,,,,,,,,,,,,,,539.3450651999883,539.5415569999896,539.5510509000014,539.8420255999954,539.8420255999954,540.3417482999939,540.3417482999939,540.3417482999939,d,1,1.8926677999988897,,,,,,,,,,,,,,,,,,,,12007,2,2,2024-06-14_18h02.08.375,stroop_task_switching2_b,2022.2.4,None,
,,,红,red,k,square,color_mix,单词,,compatible,1,block_switch1_b,instruction/ready_test.png,instruction/i11.png,,,,,,,,,,,,,,,,,0,0,0,0,0,23,23,23,,,,,,,,,,,,,,,,,,,,,542.2541569999885,542.4513473999978,542.4513473999978,542.7509839999984,542.7509839999984,543.250890899988,543.250890899988,543.250890899988,k,1,0.7515718999929959,,,,,,,,,,,,,,,,,,,,12007,2,2,2024-06-14_18h02.08.375,stroop_task_switching2_b,2022.2.4,None,
,,,黄,green,f,square,color_mix,单词,,incompatible,1,block_switch1_b,instruction/ready_test.png,instruction/i11.png,,,,,,,,,,,,,,,,,0,0,0,0,0,24,24,24,,,,,,,,,,,,,,,,,,,,,544.0190834999958,544.2186539999966,544.2186539999966,544.5177353999898,544.5177353999898,545.017912899988,545.017912899988,545.017912899988,f,1,1.1998580999934347,,,,,,,,,,,,,,,,,,,,12007,2,2,2024-06-14_18h02.08.375,stroop_task_switching2_b,2022.2.4,None,
,,,红,blue,k,square,color_mix,单词,,incompatible,1,block_switch1_b,instruction/ready_test.png,instruction/i11.png,,,,,,,,,,,,,,,,,0,0,0,0,0,25,25,25,,,,,,,,,,,,,,,,,,,,,546.233346699999,546.4305347999907,546.4400500999909,546.730641999995,546.730641999995,547.2311550000013,547.2311550000013,547.2311550000013,k,1,1.2754756999929668,,,,,,,,,,,,,,,,,,,,12007,2,2,2024-06-14_18h02.08.375,stroop_task_switching2_b,2022.2.4,None,
,,,黄,yellow,f,square,color_mix,单词,,compatible,1,block_switch1_b,instruction/ready_test.png,instruction/i11.png,,,,,,,,,,,,,,,,,0,0,0,0,0,26,26,26,,,,,,,,,,,,,,,,,,,,,548.5194063999952,548.7077838999976,548.7202585999912,549.0065325999894,549.0065325999894,549.506372399992,549.506372399992,549.506372399992,f,1,1.5204329999978654,,,,,,,,,,,,,,,,,,,,12007,2,2,2024-06-14_18h02.08.375,stroop_task_switching2_b,2022.2.4,None,
,,,蓝,green,j,square,color_mix,单词,,incompatible,1,block_switch1_b,instruction/ready_test.png,instruction/i11.png,,,,,,,,,,,,,,,,,0,0,0,0,0,27,27,27,,,,,,,,,,,,,,,,,,,,,551.0399547999987,551.2404386999988,551.2404386999988,551.5398204999947,551.5398204999947,552.0427339000016,552.0427339000016,552.0427339000016,j,1,1.023621500004083,,,,,,,,,,,,,,,,,,,,12007,2,2,2024-06-14_18h02.08.375,stroop_task_switching2_b,2022.2.4,None,
,,,绿,green,d,diamond,color_mix,颜色,,compatible,2,block_switch1_b,instruction/ready_test.png,instruction/i11.png,,,,,,,,,,,,,,,,,0,0,0,0,0,28,28,28,,,,,,,,,,,,,,,,,,,,,553.0889377999993,553.2861848999892,553.2961009999999,553.5864710999886,553.5864710999886,554.0875603999884,554.0875603999884,554.0875603999884,d,1,1.067484200000763,,,,,,,,,,,,,,,,,,,,12007,2,2,2024-06-14_18h02.08.375,stroop_task_switching2_b,2022.2.4,None,
,,,黄,blue,j,diamond,color_mix,颜色,,incompatible,1,block_switch1_b,instruction/ready_test.png,instruction/i11.png,,,,,,,,,,,,,,,,,0,0,0,0,0,29,29,29,,,,,,,,,,,,,,,,,,,,,555.1758159999881,555.3632692999963,555.3868982999993,555.6625132999907,555.6625132999907,556.1647369999991,556.1647369999991,556.1647369999991,f,0,1.317826199985575,,,,,,,,,,,,,,,,,,,,12007,2,2,2024-06-14_18h02.08.375,stroop_task_switching2_b,2022.2.4,None,
,,,绿,green,d,diamond,color_mix,颜色,,compatible,1,block_switch1_b,instruction/ready_test.png,instruction/i11.png,,,,,,,,,,,,,,,,,0,0,0,0,0,30,30,30,,,,,,,,,,,,,,,,,,,,,557.4975670999993,557.6963726999966,557.6963726999966,557.9965708999953,557.9965708999953,558.4977662999881,558.4977662999881,558.4977662999881,d,1,1.0485788000078173,,,,,,,,,,,,,,,,,,,,12007,2,2,2024-06-14_18h02.08.375,stroop_task_switching2_b,2022.2.4,None,
,,,蓝,blue,j,square,color_mix,单词,,compatible,2,block_switch1_b,instruction/ready_test.png,instruction/i11.png,,,,,,,,,,,,,,,,,0,0,0,0,0,31,31,31,,,,,,,,,,,,,,,,,,,,,559.5642760999908,559.7521422999998,559.7763209999976,560.0519948000001,560.0519948000001,560.553121399993,560.553121399993,560.553121399993,j,1,1.1377194000087911,,,,,,,,,,,,,,,,,,,,12007,2,2,2024-06-14_18h02.08.375,stroop_task_switching2_b,2022.2.4,None,
,,,红,red,k,square,color_mix,单词,,compatible,1,block_switch1_b,instruction/ready_test.png,instruction/i11.png,,,,,,,,,,,,,,,,,0,0,0,0,0,32,32,32,,,,,,,,,,,,,,,,,,,,,561.7112352999975,561.9090758999955,561.9182136000018,562.2098349000007,562.2098349000007,,562.7198547000007,562.7198547000007,k,1,1.419463199999882,,,,,,,,,,,,,,,,,,,,12007,2,2,2024-06-14_18h02.08.375,stroop_task_switching2_b,2022.2.4,None,
,,,红,green,k,square,color_mix,单词,,incompatible,1,block_switch1_b,instruction/ready_test.png,instruction/i11.png,,,,,,,,,,,,,,,,,0,0,0,0,0,33,33,33,,,,,,,,,,,,,,,,,,,,,564.1508681999985,564.342636299989,564.3513980999996,564.6513179999893,564.6513179999893,565.1507547999936,565.1507547999936,565.1507547999936,k,1,0.6026574999996228,,,,,,,,,,,,,,,,,,,,12007,2,2,2024-06-14_18h02.08.375,stroop_task_switching2_b,2022.2.4,None,
,,,黄,yellow,f,diamond,color_mix,颜色,,compatible,2,block_switch1_b,instruction/ready_test.png,instruction/i11.png,,,,,,,,,,,,,,,,,0,0,0,0,0,34,34,34,,,,,,,,,,,,,,,,,,,,,565.7776588999986,565.9753945999983,565.9850794999948,566.2742834999954,566.2646640999883,566.7665432999929,566.7665432999929,566.7665432999929,f,1,0.963588599988725,,,,,,,,,,,,,,,,,,,,12007,2,2,2024-06-14_18h02.08.375,stroop_task_switching2_b,2022.2.4,None,
,,,红,green,d,diamond,color_mix,颜色,,incompatible,1,block_switch1_b,instruction/ready_test.png,instruction/i11.png,,,,,,,,,,,,,,,,,0,0,0,0,0,35,35,35,,,,,,,,,,,,,,,,,,,,,567.7432094999967,567.9402629999968,567.9402629999968,568.2406200999976,568.2406200999976,568.7421946999966,568.7421946999966,568.7421946999966,k,0,1.1474591000005603,,,,,,,,,,,,,,,,,,,,12007,2,2,2024-06-14_18h02.08.375,stroop_task_switching2_b,2022.2.4,None,
,,,黄,yellow,f,square,color_mix,单词,,compatible,2,block_switch1_b,instruction/ready_test.png,instruction/i11.png,,,,,,,,,,,,,,,,,0,0,0,0,0,36,36,36,,,,,,,,,,,,,,,,,,,,,569.9112163999962,570.1069571999979,570.12055159999,570.4072298999963,570.4072298999963,570.9086208999943,570.9086208999943,570.9086208999943,f,1,2.2608707000035793,,,,,,,,,,,,,,,,,,,,12007,2,2,2024-06-14_18h02.08.375,stroop_task_switching2_b,2022.2.4,None,
,,,蓝,blue,j,square,color_mix,单词,,compatible,1,block_switch1_b,instruction/ready_test.png,instruction/i11.png,,,,,,,,,,,,,,,,,0,0,0,0,0,37,37,37,,,,,,,,,,,,,,,,,,,,,573.1887781999976,573.3863421999995,573.3959180999955,573.6858647999907,573.6858647999907,574.1864050000004,574.1864050000004,574.1864050000004,j,1,1.08772469998803,,,,,,,,,,,,,,,,,,,,12007,2,2,2024-06-14_18h02.08.375,stroop_task_switching2_b,2022.2.4,None,
,,,绿,red,k,diamond,color_mix,颜色,,incompatible,2,block_switch1_b,instruction/ready_test.png,instruction/i11.png,,,,,,,,,,,,,,,,,0,0,0,0,0,38,38,38,,,,,,,,,,,,,,,,,,,,,575.2894005999988,575.4878303000005,575.4959218000004,575.7957052999991,575.7862594999897,576.2883453999966,576.2883453999966,576.2883453999966,k,1,1.0491795999987517,,,,,,,,,,,,,,,,,,,,12007,2,2,2024-06-14_18h02.08.375,stroop_task_switching2_b,2022.2.4,None,
,,,黄,yellow,f,diamond,color_mix,颜色,,compatible,1,block_switch1_b,instruction/ready_test.png,instruction/i11.png,,,,,,,,,,,,,,,,,0,0,0,0,0,39,39,39,,,,,,,,,,,,,,,,,,,,,577.3522333000001,577.5526131999941,577.5526131999941,577.8531069000019,577.8531069000019,578.3525685999921,578.3525685999921,578.3525685999921,f,1,1.0020532000053208,,,,,,,,,,,,,,,,,,,,12007,2,2,2024-06-14_18h02.08.375,stroop_task_switching2_b,2022.2.4,None,
,,,红,blue,j,diamond,color_mix,颜色,,incompatible,1,block_switch1_b,instruction/ready_test.png,instruction/i11.png,,,,,,,,,,,,,,,,,0,0,0,0,0,40,40,40,,,,,,,,,,,,,,,,,,,,,579.3775084999943,579.574924799992,579.5862174999929,579.8766070999991,579.8766070999991,,580.3875918999984,580.3875918999984,j,1,2.750893600008567,,,,,,,,,,,,,,,,,,,,12007,2,2,2024-06-14_18h02.08.375,stroop_task_switching2_b,2022.2.4,None,
,,,绿,blue,d,square,color_mix,单词,,incompatible,2,block_switch1_b,instruction/ready_test.png,instruction/i11.png,,,,,,,,,,,,,,,,,0,0,0,0,0,41,41,41,,,,,,,,,,,,,,,,,,,,,583.1530114999914,583.3513680999895,583.3513680999895,583.6513906999899,583.6513906999899,584.1545647000021,584.1545647000021,584.1545647000021,d,1,1.7355881999974372,,,,,,,,,,,,,,,,,,,,12007,2,2,2024-06-14_18h02.08.375,stroop_task_switching2_b,2022.2.4,None,
,,,蓝,blue,j,diamond,color_mix,颜色,,compatible,2,block_switch1_b,instruction/ready_test.png,instruction/i11.png,,,,,,,,,,,,,,,,,0,0,0,0,0,42,42,42,,,,,,,,,,,,,,,,,,,,,585.9100675999944,586.1088447999937,586.1180076000019,586.4092468999879,586.3979604999913,586.8971986999968,586.9063756999967,586.9063756999967,j,1,1.2889377999963472,,,,,,,,,,,,,,,,,,,,12007,2,2,2024-06-14_18h02.08.375,stroop_task_switching2_b,2022.2.4,None,
,,,红,blue,k,square,color_mix,单词,,incompatible,2,block_switch1_b,instruction/ready_test.png,instruction/i11.png,,,,,,,,,,,,,,,,,0,0,0,0,0,43,43,43,,,,,,,,,,,,,,,,,,,,,588.2088308999955,588.406734499993,588.406734499993,588.7073504,588.7073504,589.2067528999905,589.2067528999905,589.2067528999905,k,1,0.6753182999964338,,,,,,,,,,,,,,,,,,,,12007,2,2,2024-06-14_18h02.08.375,stroop_task_switching2_b,2022.2.4,None,
,,,蓝,green,d,diamond,color_mix,颜色,,incompatible,2,block_switch1_b,instruction/ready_test.png,instruction/i11.png,,,,,,,,,,,,,,,,,0,0,0,0,0,44,44,44,,,,,,,,,,,,,,,,,,,,,589.899734999999,590.0980129999953,590.1077011999878,590.398031299992,590.398031299992,590.8970430999907,590.8970430999907,590.8970430999907,d,1,2.496948699990753,,,,,,,,,,,,,,,,,,,,12007,2,2,2024-06-14_18h02.08.375,stroop_task_switching2_b,2022.2.4,None,
,,,黄,yellow,f,square,color_mix,单词,,compatible,2,block_switch1_b,instruction/ready_test.png,instruction/i11.png,,,,,,,,,,,,,,,,,0,0,0,0,0,45,45,45,,,,,,,,,,,,,,,,,,,,,593.4081351999921,593.5962030999945,593.6095660999999,593.8960908000008,593.8960908000008,594.3956554999895,594.3956554999895,594.3956554999895,f,1,1.8963864999968791,,,,,,,,,,,,,,,,,,,,12007,2,2,2024-06-14_18h02.08.375,stroop_task_switching2_b,2022.2.4,None,
,,,黄,yellow,f,diamond,color_mix,颜色,,compatible,2,block_switch1_b,instruction/ready_test.png,instruction/i11.png,,,,,,,,,,,,,,,,,0,0,0,0,0,46,46,46,,,,,,,,,,,,,,,,,,,,,596.3082601999922,596.4958588000009,596.519876099992,596.7956605999934,596.7956605999934,597.2953778999945,597.2953778999945,597.2953778999945,f,1,1.1067411999974865,,,,,,,,,,,,,,,,,,,,12007,2,2,2024-06-14_18h02.08.375,stroop_task_switching2_b,2022.2.4,None,
,,,绿,red,d,square,color_mix,单词,,incompatible,2,block_switch1_b,instruction/ready_test.png,instruction/i11.png,,,,,,,,,,,,,,,,,0,0,0,0,0,47,47,47,,,,,,,,,,,,,,,,,,,,,598.421689099996,598.6202730999939,598.6288181999989,598.9198500999919,598.9198500999919,599.4195318999991,599.4195318999991,599.4195318999991,d,1,1.9100411999970675,,,,,,,,,,,,,,,,,,,,12007,2,2,2024-06-14_18h02.08.375,stroop_task_switching2_b,2022.2.4,None,
,,,红,red,k,diamond,color_mix,颜色,,compatible,2,block_switch1_b,instruction/ready_test.png,instruction/i11.png,,,,,,,,,,,,,,,,,0,0,0,0,0,48,48,48,,,,,,,,,,,,,,,,,,,,,601.3444899999886,601.5424506999989,601.5510625999887,601.8417160999961,601.8417160999961,602.3441390999942,602.3441390999942,602.3441390999942,k,1,0.8096252999966964,,,,,,,,,,,,,,,,,,,,12007,2,2,2024-06-14_18h02.08.375,stroop_task_switching2_b,2022.2.4,None,
,,,蓝,blue,j,diamond,color_mix,颜色,,compatible,1,block_switch1_b,instruction/ready_test.png,instruction/i11.png,,,,,,,,,,,,,,,,,0,0,0,0,0,49,49,49,,,,,,,,,,,,,,,,,,,,,603.1776278999896,603.375647599998,603.3847723999934,603.6760680000007,603.6760680000007,604.1766772999981,604.1766772999981,604.1766772999981,j,1,1.4894672999944305,,,,,,,,,,,,,,,,,,,,12007,2,2,2024-06-14_18h02.08.375,stroop_task_switching2_b,2022.2.4,None,
,,,黄,yellow,f,diamond,color_mix,颜色,,compatible,1,block_switch1_b,instruction/ready_test.png,instruction/i11.png,,,,,,,,,,,,,,,,,0,0,0,0,0,50,50,50,,,,,,,,,,,,,,,,,,,,,605.6841883999878,605.8762329999881,605.8850093999936,606.1763046999986,606.1763046999986,606.6868415999925,606.6868415999925,606.6868415999925,f,1,0.8519969999906607,,,,,,,,,,,,,,,,,,,,12007,2,2,2024-06-14_18h02.08.375,stroop_task_switching2_b,2022.2.4,None,
,,,红,blue,j,diamond,color_mix,颜色,,incompatible,1,block_switch1_b,instruction/ready_test.png,instruction/i11.png,,,,,,,,,,,,,,,,,0,0,0,0,0,51,51,51,,,,,,,,,,,,,,,,,,,,,607.5529160000006,607.7404306999961,607.7647156999883,608.0397221000021,608.0397221000021,608.541378199996,608.541378199996,608.541378199996,j,1,2.741907600007835,,,,,,,,,,,,,,,,,,,,12007,2,2,2024-06-14_18h02.08.375,stroop_task_switching2_b,2022.2.4,None,
,,,蓝,yellow,f,diamond,color_mix,颜色,,incompatible,1,block_switch1_b,instruction/ready_test.png,instruction/i11.png,,,,,,,,,,,,,,,,,0,0,0,0,0,52,52,52,,,,,,,,,,,,,,,,,,,,,611.3003667000012,611.498231599995,611.5073565999919,611.8071779999882,611.7977710999985,612.2968953999953,612.2968953999953,612.2968953999953,f,1,2.594021900004009,,,,,,,,,,,,,,,,,,,,12007,2,2,2024-06-14_18h02.08.375,stroop_task_switching2_b,2022.2.4,None,
,,,黄,blue,f,square,color_mix,单词,,incompatible,2,block_switch1_b,instruction/ready_test.png,instruction/i11.png,,,,,,,,,,,,,,,,,0,0,0,0,0,53,53,53,,,,,,,,,,,,,,,,,,,,,614.9077988999925,615.0957290999941,615.109186799993,615.3953619999957,615.3953619999957,615.8958429999911,615.8958429999911,615.8958429999911,f,1,1.0976756000018213,,,,,,,,,,,,,,,,,,,,12007,2,2,2024-06-14_18h02.08.375,stroop_task_switching2_b,2022.2.4,None,
,,,蓝,blue,j,diamond,color_mix,颜色,,compatible,2,block_switch1_b,instruction/ready_test.png,instruction/i11.png,,,,,,,,,,,,,,,,,0,0,0,0,0,54,54,54,,,,,,,,,,,,,,,,,,,,,617.0078082999971,617.1956288999936,617.219326099992,617.4954980999901,617.4954980999901,617.9964208999882,617.9964208999882,617.9964208999882,j,1,1.2378498000034597,,,,,,,,,,,,,,,,,,,,12007,2,2,2024-06-14_18h02.08.375,stroop_task_switching2_b,2022.2.4,None,
,,,红,yellow,k,square,color_mix,单词,,incompatible,2,block_switch1_b,instruction/ready_test.png,instruction/i11.png,,,,,,,,,,,,,,,,,0,0,0,0,0,55,55,55,,,,,,,,,,,,,,,,,,,,,619.256163099999,619.4538704000006,619.4626700999943,619.7532930999878,619.7532930999878,620.2530335999909,620.2530335999909,620.2530335999909,k,1,1.2851749999972526,,,,,,,,,,,,,,,,,,,,12007,2,2,2024-06-14_18h02.08.375,stroop_task_switching2_b,2022.2.4,None,
,,,蓝,red,j,square,color_mix,单词,,incompatible,1,block_switch1_b,instruction/ready_test.png,instruction/i11.png,,,,,,,,,,,,,,,,,0,0,0,0,0,56,56,56,,,,,,,,,,,,,,,,,,,,,621.5518104999937,621.7512184999941,621.7512184999941,622.0513275999983,622.0513275999983,622.5533719999949,622.5533719999949,622.5533719999949,j,1,1.5205437999975402,,,,,,,,,,,,,,,,,,,,12007,2,2,2024-06-14_18h02.08.375,stroop_task_switching2_b,2022.2.4,None,
,,,蓝,blue,j,square,color_mix,单词,,compatible,1,block_switch1_b,instruction/ready_test.png,instruction/i11.png,,,,,,,,,,,,,,,,,0,0,0,0,0,57,57,57,,,,,,,,,,,,,,,,,,,,,624.0878130999918,624.2853361000016,624.2853361000016,624.5851124999899,624.5851124999899,625.0845682999934,625.0845682999934,625.0845682999934,j,1,0.7577607999992324,,,,,,,,,,,,,,,,,,,,12007,2,2,2024-06-14_18h02.08.375,stroop_task_switching2_b,2022.2.4,None,
,,,蓝,red,k,diamond,color_mix,颜色,,incompatible,2,block_switch1_b,instruction/ready_test.png,instruction/i11.png,,,,,,,,,,,,,,,,,0,0,0,0,0,58,58,58,,,,,,,,,,,,,,,,,,,,,625.8540142999991,626.051623899999,626.051623899999,626.3515244000009,626.3515244000009,626.8514005999896,626.8514005999896,626.8514005999896,None,0,,,,,,,,629.8542177999916,629.8542177999916,629.8542177999916,630.3740833999909,,,,,,,,,,12007,2,2,2024-06-14_18h02.08.375,stroop_task_switching2_b,2022.2.4,None,
,,,绿,green,d,diamond,color_mix,颜色,,compatible,1,block_switch1_b,instruction/ready_test.png,instruction/i11.png,,,,,,,,,,,,,,,,,0,0,0,0,0,59,59,59,,,,,,,,,,,,,,,,,,,,,630.3740833999909,630.5728284999932,630.5728284999932,630.8734019999974,630.8734019999974,631.3744033999974,631.3744033999974,631.3744033999974,d,1,1.148043699999107,,,,,,,,,,,,,,,,,,,,12007,2,2,2024-06-14_18h02.08.375,stroop_task_switching2_b,2022.2.4,None,
,,,蓝,blue,j,diamond,color_mix,颜色,,compatible,1,block_switch1_b,instruction/ready_test.png,instruction/i11.png,,,,,,,,,,,,,,,,,0,0,0,0,0,60,60,60,,,,,,,,,,,,,,,,,,,,,632.5526694,632.7399898000003,632.7637711999996,633.0402254999935,633.0402254999935,633.5414128999982,633.5414128999982,633.5414128999982,j,1,1.3739810999977635,,,,,,,,,,,,,,,,,,,,12007,2,2,2024-06-14_18h02.08.375,stroop_task_switching2_b,2022.2.4,None,
,,,黄,yellow,f,square,color_mix,单词,,compatible,2,block_switch1_b,instruction/ready_test.png,instruction/i11.png,,,,,,,,,,,,,,,,,0,0,0,0,0,61,61,61,,,,,,,,,,,,,,,,,,,,,634.9310114999971,635.1200994999963,635.129717799995,635.4200020999997,635.4200020999997,635.9192417000013,635.9285310999985,635.9285310999985,f,1,1.2264201000070898,,,,,,,,,,,,,,,,,,,,12007,2,2,2024-06-14_18h02.08.375,stroop_task_switching2_b,2022.2.4,None,
,,,绿,blue,d,square,color_mix,单词,,incompatible,1,block_switch1_b,instruction/ready_test.png,instruction/i11.png,,,,,,,,,,,,,,,,,0,0,0,0,0,62,62,62,,,,,,,,,,,,,,,,,,,,,637.1752623999928,637.3745532999892,637.3860334999918,637.6762807999912,637.6630282999977,638.1631442999933,638.1749599999894,638.1749599999894,d,1,1.091198499998427,,,,,,,,,,,,,,,,,,,,12007,2,2,2024-06-14_18h02.08.375,stroop_task_switching2_b,2022.2.4,None,
,,,蓝,yellow,j,square,color_mix,单词,,incompatible,1,block_switch1_b,instruction/ready_test.png,instruction/i11.png,,,,,,,,,,,,,,,,,0,0,0,0,0,63,63,63,,,,,,,,,,,,,,,,,,,,,639.2894197999995,639.4868350999895,639.4958418999886,639.7864828999882,639.7864828999882,640.2860224999895,640.2860224999895,640.2860224999895,f,0,2.1968383000057656,,,,,,,,,,,,,,,,,,,,12007,2,2,2024-06-14_18h02.08.375,stroop_task_switching2_b,2022.2.4,None,
,,,黄,yellow,f,diamond,color_mix,颜色,,compatible,2,block_switch1_b,instruction/ready_test.png,instruction/i11.png,,,,,,,,,,,,,,,,,0,0,0,0,0,64,64,64,,,,,,,,,,,,,,,,,,,,,642.4984284999955,642.6840713999991,642.7082622999878,642.984283400001,642.984283400001,643.4864210999949,643.4864210999949,643.4864210999949,f,1,1.4039195999939693,,,,,,,,,,,,,,,,,,,,12007,2,2,2024-06-14_18h02.08.375,stroop_task_switching2_b,2022.2.4,None,
,,,蓝,green,d,diamond,color_mix,颜色,,incompatible,1,block_switch1_b,instruction/ready_test.png,instruction/i11.png,,,,,,,,,,,,,,,,,0,0,0,0,0,65,65,65,,,,,,,,,,,,,,,,,,,,,644.9117797999934,645.1088899999886,645.1185465999879,645.4091991999885,645.4091991999885,,645.9185580999911,645.9185580999911,d,1,1.1884284999978263,,,,,,,,,,,,,,,,,,,,12007,2,2,2024-06-14_18h02.08.375,stroop_task_switching2_b,2022.2.4,None,
,,,红,red,k,diamond,color_mix,颜色,,compatible,1,block_switch1_b,instruction/ready_test.png,instruction/i11.png,,,,,,,,,,,,,,,,,0,0,0,0,0,66,66,66,,,,,,,,,,,,,,,,,,,,,647.1183709999896,647.3198011999921,647.3198011999921,647.6305063999898,647.6202831999981,,648.1307386999979,648.1307386999979,k,1,1.3512058000051184,,,,,,,,,,,,,,,,,,,,12007,2,2,2024-06-14_18h02.08.375,stroop_task_switching2_b,2022.2.4,None,
,,,蓝,yellow,j,square,color_mix,单词,,incompatible,2,block_switch1_b,instruction/ready_test.png,instruction/i11.png,,,,,,,,,,,,,,,,,0,0,0,0,0,67,67,67,,,,,,,,,,,,,,,,,,,,,649.4983170999913,649.6969639999879,649.6969639999879,649.9975541000022,649.9975541000022,650.4969178999891,650.4969178999891,650.4969178999891,j,1,1.3051937999989605,,,,,,,,,,,,,,,,,,,,12007,2,2,2024-06-14_18h02.08.375,stroop_task_switching2_b,2022.2.4,None,
,,,红,yellow,k,square,color_mix,单词,,incompatible,1,block_switch1_b,instruction/ready_test.png,instruction/i11.png,,,,,,,,,,,,,,,,,0,0,0,0,0,68,68,68,,,,,,,,,,,,,,,,,,,,,651.8199937999889,652.0071222999977,652.031462599989,652.3070942999911,652.3070942999911,652.8079542999913,652.8079542999913,652.8079542999913,k,1,0.642018200000166,,,,,,,,,,,,,,,,,,,,12007,2,2,2024-06-14_18h02.08.375,stroop_task_switching2_b,2022.2.4,None,
,,,红,yellow,f,diamond,color_mix,颜色,,incompatible,2,block_switch1_b,instruction/ready_test.png,instruction/i11.png,,,,,,,,,,,,,,,,,0,0,0,0,0,69,69,69,,,,,,,,,,,,,,,,,,,,,653.4665653999982,653.6649055999878,653.6740495999984,653.9625178999995,653.9538317999977,654.4532573999895,654.462792899998,654.462792899998,f,1,2.2271072000003187,,,,,,,,,,,,,,,,,,,,12007,2,2,2024-06-14_18h02.08.375,stroop_task_switching2_b,2022.2.4,None,
,,,蓝,green,j,square,color_mix,单词,,incompatible,2,block_switch1_b,instruction/ready_test.png,instruction/i11.png,,,,,,,,,,,,,,,,,0,0,0,0,0,70,70,70,,,,,,,,,,,,,,,,,,,,,656.7110247999954,656.8968076000019,656.920283399988,657.195487799996,657.195487799996,657.6977093999885,657.6977093999885,657.6977093999885,j,1,2.088437200000044,,,,,,,,,,,,,,,,,,,,12007,2,2,2024-06-14_18h02.08.375,stroop_task_switching2_b,2022.2.4,None,
,,,绿,yellow,d,square,color_mix,单词,,incompatible,1,block_switch1_b,instruction/ready_test.png,instruction/i11.png,,,,,,,,,,,,,,,,,0,0,0,0,0,71,71,71,,,,,,,,,,,,,,,,,,,,,659.798129399991,659.9954905999912,659.9954905999912,660.2955302999908,660.2955302999908,660.7971763999958,660.7971763999958,660.7971763999958,d,1,0.9968426000123145,,,,,,,,,,,,,,,,,,,,12007,2,2,2024-06-14_18h02.08.375,stroop_task_switching2_b,2022.2.4,None,
,,,蓝,yellow,f,diamond,color_mix,颜色,,incompatible,2,block_switch1_b,instruction/ready_test.png,instruction/i11.png,,,,,,,,,,,,,,,,,0,0,0,0,0,72,72,72,,,,,,,,,,,,,,,,,,,,,661.8104488999961,662.0080495000002,662.0181216999918,662.3085244999966,662.3085244999966,662.8114814,662.8114814,662.8114814,f,1,1.0136863999941852,,,,,,,,,,,,,,,,,,,,12007,2,2,2024-06-14_18h02.08.375,stroop_task_switching2_b,2022.2.4,None,
,,,红,green,k,square,color_mix,单词,,incompatible,2,block_switch1_b,instruction/ready_test.png,instruction/i11.png,,,,,,,,,,,,,,,,,0,0,0,0,0,73,73,73,,,,,,,,,,,,,,,,,,,,,663.8434715999902,664.0415739000018,664.0415739000018,664.342089999991,664.342089999991,664.841645499997,664.841645499997,664.841645499997,k,1,0.7055498999980045,,,,,,,,,,,,,,,,,,,,12007,2,2,2024-06-14_18h02.08.375,stroop_task_switching2_b,2022.2.4,None,
,,,绿,blue,j,diamond,color_mix,颜色,,incompatible,2,block_switch1_b,instruction/ready_test.png,instruction/i11.png,,,,,,,,,,,,,,,,,0,0,0,0,0,74,74,74,,,,,,,,,,,,,,,,,,,,,665.5633287999954,665.7513868999959,665.7642900999926,666.0517308999988,666.0517308999988,666.5512302999996,666.5512302999996,666.5512302999996,j,1,0.8988191999960691,,,,,,,,,,,,,,,,,,,,12007,2,2,2024-06-14_18h02.08.375,stroop_task_switching2_b,2022.2.4,None,
,,,红,red,k,square,color_mix,单词,,compatible,2,block_switch1_b,instruction/ready_test.png,instruction/i11.png,,,,,,,,,,,,,,,,,0,0,0,0,0,75,75,75,,,,,,,,,,,,,,,,,,,,,667.4643142999994,667.6646890999982,667.6646890999982,667.9653971999942,667.9541537999903,,668.4660551999987,668.4660551999987,k,1,0.8717999999935273,,,,,,,,,,,,,,,,,,,,12007,2,2,2024-06-14_18h02.08.375,stroop_task_switching2_b,2022.2.4,None,
,,,绿,green,d,diamond,color_mix,颜色,,compatible,2,block_switch1_b,instruction/ready_test.png,instruction/i11.png,,,,,,,,,,,,,,,,,0,0,0,0,0,76,76,76,,,,,,,,,,,,,,,,,,,,,669.3548899000016,669.5400547999889,669.5642323999928,669.8398236999928,669.8398236999928,670.34097379999,670.34097379999,670.34097379999,d,1,0.7728870999999344,,,,,,,,,,,,,,,,,,,,12007,2,2,2024-06-14_18h02.08.375,stroop_task_switching2_b,2022.2.4,None,
,,,黄,red,f,square,color_mix,单词,,incompatible,2,block_switch1_b,instruction/ready_test.png,instruction/i11.png,,,,,,,,,,,,,,,,,0,0,0,0,0,77,77,77,,,,,,,,,,,,,,,,,,,,,671.133600599991,671.3307366999943,671.3399364999932,671.63139889999,671.63139889999,672.1311562999908,672.1311562999908,672.1311562999908,k,0,0.5588851000065915,,,,,,,,,,,,,,,,,,,,12007,2,2,2024-06-14_18h02.08.375,stroop_task_switching2_b,2022.2.4,None,
,,,红,red,k,square,color_mix,单词,,compatible,1,block_switch1_b,instruction/ready_test.png,instruction/i11.png,,,,,,,,,,,,,,,,,0,0,0,0,0,78,78,78,,,,,,,,,,,,,,,,,,,,,672.7096331999928,672.9066015999997,672.9196737999882,673.2073874999915,673.2073874999915,673.7064792000019,673.7064792000019,673.7064792000019,k,1,0.6716336999961641,,,,,,,,,,,,,,,,,,,,12007,2,2,2024-06-14_18h02.08.375,stroop_task_switching2_b,2022.2.4,None,
,,,黄,yellow,f,square,color_mix,单词,,compatible,1,block_switch1_b,instruction/ready_test.png,instruction/i11.png,,,,,,,,,,,,,,,,,0,0,0,0,0,79,79,79,,,,,,,,,,,,,,,,,,,,,674.396997399992,674.5866485000006,674.5962398999982,674.8871511999896,674.896456699993,675.3964575999998,675.3964575999998,675.3964575999998,f,1,0.6776837999932468,,,,,,,,,,,,,,,,,,,,12007,2,2,2024-06-14_18h02.08.375,stroop_task_switching2_b,2022.2.4,None,
,,,红,red,k,diamond,color_mix,颜色,,compatible,2,block_switch1_b,instruction/ready_test.png,instruction/i11.png,,,,,,,,,,,,,,,,,0,0,0,0,0,80,80,80,,,,,,,,,,,,,,,,,,,,,676.0900908999902,676.2867184999923,676.2959521000012,676.5863804999972,676.5863804999972,677.0876615999878,677.0876615999878,677.0876615999878,k,1,0.7780146000004606,,,,,,,,,,,,,,,,,,,,12007,2,2,2024-06-14_18h02.08.375,stroop_task_switching2_b,2022.2.4,None,
,,,红,red,k,square,color_mix,单词,,compatible,2,block_switch1_b,instruction/ready_test.png,instruction/i11.png,,,,,,,,,,,,,,,,,0,0,0,0,0,81,81,81,,,,,,,,,,,,,,,,,,,,,677.886033799994,678.0867288000009,678.0867288000009,678.3861720999994,678.3861720999994,,678.8869703999953,678.8869703999953,k,1,0.8345308999851113,,,,,,,,,,,,,,,,,,,,12007,2,2,2024-06-14_18h02.08.375,stroop_task_switching2_b,2022.2.4,None,
,,,黄,blue,j,diamond,color_mix,颜色,,incompatible,2,block_switch1_b,instruction/ready_test.png,instruction/i11.png,,,,,,,,,,,,,,,,,0,0,0,0,0,82,82,82,,,,,,,,,,,,,,,,,,,,,679.7442658999935,679.9288043999986,679.9528379999974,680.2297073999944,680.2297073999944,680.7286184999975,680.7286184999975,680.7286184999975,j,1,1.6486392999941017,,,,,,,,,,,,,,,,,,,,12007,2,2,2024-06-14_18h02.08.375,stroop_task_switching2_b,2022.2.4,None,
,,,红,yellow,f,diamond,color_mix,颜色,,incompatible,1,block_switch1_b,instruction/ready_test.png,instruction/i11.png,,,,,,,,,,,,,,,,,0,0,0,0,0,83,83,83,,,,,,,,,,,,,,,,,,,,,682.3970274000021,682.5848471999925,682.608347699992,682.8837924999971,682.8837924999971,683.3845437999989,683.3845437999989,683.3845437999989,f,1,0.8338335000007646,,,,,,,,,,,,,,,,,,,,12007,2,2,2024-06-14_18h02.08.375,stroop_task_switching2_b,2022.2.4,None,
,,,黄,red,k,diamond,color_mix,颜色,,incompatible,1,block_switch1_b,instruction/ready_test.png,instruction/i11.png,,,,,,,,,,,,,,,,,0,0,0,0,0,84,84,84,,,,,,,,,,,,,,,,,,,,,684.2308936999907,684.4180786999932,684.4417759999924,684.7179732999939,684.7314947999985,,685.2424167999998,685.2424167999998,k,1,1.767022600004566,,,,,,,,,,,,,,,,,,,,12007,2,2,2024-06-14_18h02.08.375,stroop_task_switching2_b,2022.2.4,None,
,,,蓝,blue,j,square,color_mix,单词,,compatible,2,block_switch1_b,instruction/ready_test.png,instruction/i11.png,,,,,,,,,,,,,,,,,0,0,0,0,0,85,85,85,,,,,,,,,,,,,,,,,,,,,687.0307890999975,687.2177355999884,687.2416041999968,687.5179444999958,687.5179444999958,688.0194599999959,688.0313257999951,688.0313257999951,j,1,1.5552888000092935,,,,,,,,,,,,,,,,,,,,12007,2,2,2024-06-14_18h02.08.375,stroop_task_switching2_b,2022.2.4,None,
,,,绿,green,d,square,color_mix,单词,,compatible,1,block_switch1_b,instruction/ready_test.png,instruction/i11.png,,,,,,,,,,,,,,,,,0,0,0,0,0,86,86,86,,,,,,,,,,,,,,,,,,,,,689.606675899995,689.8071582999983,689.8071582999983,690.1063922999892,690.0970594999962,690.6001763999957,690.6001763999957,690.6001763999957,d,1,0.9056004000012763,,,,,,,,,,,,,,,,,,,,12007,2,2,2024-06-14_18h02.08.375,stroop_task_switching2_b,2022.2.4,None,
,,,红,red,k,square,color_mix,单词,,compatible,1,block_switch1_b,instruction/ready_test.png,instruction/i11.png,,,,,,,,,,,,,,,,,0,0,0,0,0,87,87,87,,,,,,,,,,,,,,,,,,,,,691.5193588999973,691.706611799993,691.7301243999973,692.007203599991,692.007203599991,692.506378799997,692.506378799997,692.506378799997,k,1,0.471556700009387,,,,,,,,,,,,,,,,,,,,12007,2,2,2024-06-14_18h02.08.375,stroop_task_switching2_b,2022.2.4,None,
,,,黄,green,d,diamond,color_mix,颜色,,incompatible,2,block_switch1_b,instruction/ready_test.png,instruction/i11.png,,,,,,,,,,,,,,,,,0,0,0,0,0,88,88,88,,,,,,,,,,,,,,,,,,,,,692.9988732999918,693.1978965000017,693.1978965000017,693.5066855999903,693.4973177999927,693.9969354999921,693.9969354999921,693.9969354999921,d,1,1.3331109999853652,,,,,,,,,,,,,,,,,,,,12007,2,2,2024-06-14_18h02.08.375,stroop_task_switching2_b,2022.2.4,None,
,,,绿,red,d,square,color_mix,单词,,incompatible,2,block_switch1_b,instruction/ready_test.png,instruction/i11.png,,,,,,,,,,,,,,,,,0,0,0,0,0,89,89,89,,,,,,,,,,,,,,,,,,,,,695.3447735999944,695.5421742999897,695.5534899999911,695.8529349000019,695.8422759999958,,696.3531401999935,696.3531401999935,d,1,1.5370713000011165,,,,,,,,,,,,,,,,,,,,12007,2,2,2024-06-14_18h02.08.375,stroop_task_switching2_b,2022.2.4,None,
,,,黄,green,f,square,color_mix,单词,,incompatible,1,block_switch1_b,instruction/ready_test.png,instruction/i11.png,,,,,,,,,,,,,,,,,0,0,0,0,0,90,90,90,,,,,,,,,,,,,,,,,,,,,697.9083238000021,698.0963126999995,698.1088751999923,698.3952344999998,698.3952344999998,698.8965934000007,698.8965934000007,698.8965934000007,f,1,1.0246554000041215,,,,,,,,,,,,,,,,,,,,12007,2,2,2024-06-14_18h02.08.375,stroop_task_switching2_b,2022.2.4,None,
,,,蓝,blue,j,square,color_mix,单词,,compatible,1,block_switch1_b,instruction/ready_test.png,instruction/i11.png,,,,,,,,,,,,,,,,,0,0,0,0,0,91,91,91,,,,,,,,,,,,,,,,,,,,,699.9429785999964,700.1284846999915,700.1528593999974,700.4285400999943,700.4285400999943,700.9285282999917,700.9285282999917,700.9285282999917,j,1,0.7365547000081278,,,,,,,,,,,,,,,,,,,,12007,2,2,2024-06-14_18h02.08.375,stroop_task_switching2_b,2022.2.4,None,
,,,蓝,red,j,square,color_mix,单词,,incompatible,1,block_switch1_b,instruction/ready_test.png,instruction/i11.png,,,,,,,,,,,,,,,,,0,0,0,0,0,92,92,92,,,,,,,,,,,,,,,,,,,,,701.6842708999902,701.8848120999901,701.8848120999901,702.1847081000014,702.1847081000014,702.6841448999912,702.6841448999912,702.6841448999912,j,1,1.806129200005671,,,,,,,,,,,,,,,,,,,,12007,2,2,2024-06-14_18h02.08.375,stroop_task_switching2_b,2022.2.4,None,
,,,黄,blue,f,square,color_mix,单词,,incompatible,1,block_switch1_b,instruction/ready_test.png,instruction/i11.png,,,,,,,,,,,,,,,,,0,0,0,0,0,93,93,93,,,,,,,,,,,,,,,,,,,,,704.5115024999977,704.7094862999948,704.7183282999904,705.0128889999905,705.0128889999905,,705.520016999988,705.520016999988,f,1,1.1133414000069024,,,,,,,,,,,,,,,,,,,,12007,2,2,2024-06-14_18h02.08.375,stroop_task_switching2_b,2022.2.4,None,
,,,绿,red,k,diamond,color_mix,颜色,,incompatible,2,block_switch1_b,instruction/ready_test.png,instruction/i11.png,,,,,,,,,,,,,,,,,0,0,0,0,0,94,94,94,,,,,,,,,,,,,,,,,,,,,706.6536254999955,706.8517537000007,706.8517537000007,707.1510533999972,707.1510533999972,707.6516809000022,707.6516809000022,707.6516809000022,d,0,2.2862782000011066,,,,,,,,,,,,,,,,,,,,12007,2,2,2024-06-14_18h02.08.375,stroop_task_switching2_b,2022.2.4,None,
,,,蓝,blue,j,diamond,color_mix,颜色,,compatible,1,block_switch1_b,instruction/ready_test.png,instruction/i11.png,,,,,,,,,,,,,,,,,0,0,0,0,0,95,95,95,,,,,,,,,,,,,,,,,,,,,709.9531082999893,710.1405401999946,710.1646716999967,710.439519099993,710.439519099993,710.9394744999881,710.9394744999881,710.9394744999881,j,1,1.2377295999904163,,,,,,,,,,,,,,,,,,,,12007,2,2,2024-06-14_18h02.08.375,stroop_task_switching2_b,2022.2.4,None,
,,,绿,green,d,square,color_mix,单词,,compatible,2,block_switch1_b,instruction/ready_test.png,instruction/i11.png,,,,,,,,,,,,,,,,,0,0,0,0,0,96,96,96,,,,,,,,,,,,,,,,,,,,,712.1967166999966,712.3974523999932,712.3974523999932,712.6971003999934,712.6971003999934,,713.2007236999925,713.2007236999925,d,1,1.136975799992797,,,,,,,,,,,,,,,,,,,,12007,2,2,2024-06-14_18h02.08.375,stroop_task_switching2_b,2022.2.4,None,
,,,,,,,,,,,,block_switch1_b,instruction/ready_test.png,instruction/i11.png,,,,,,,,,,,,,,,,,0,0,0,0,,,,,,,,,,,,,,,,,,,,,,,,,,,,,,,,,,,,,,,,,,,,,,,,,,714.3527481999918,714.3527481999918,space,14.961194300005445,,12007,2,2,2024-06-14_18h02.08.375,stroop_task_switching2_b,2022.2.4,None,
,,,蓝,blue,j,square,color_mix,单词,,compatible,0,block_switch2_b,instruction/ready_2.png,instruction/i12.png,,,,,,,,,,,,,,,,,0,1,1,1,0,0,0,0,,,,,,,,,,,,,741.8844226999936,742.8755374999892,742.8836910999962,743.8742500999942,743.8838781999948,744.8836063999915,744.8744774999941,745.9061366999958,745.9061366999958,746.0833189999976,746.1075244999956,746.384548099988,746.384548099988,746.8847288999968,746.8847288999968,746.8847288999968,j,1,1.0690371000091545,,,,,,,,,,,729.3549231999932,729.3549231999932,space,12.510683500004234,,,,,,12007,2,2,2024-06-14_18h02.08.375,stroop_task_switching2_b,2022.2.4,None,
,,,黄,red,k,diamond,color_mix,颜色,,incompatible,2,block_switch2_b,instruction/ready_2.png,instruction/i12.png,,,,,,,,,,,,,,,,,0,1,1,1,0,1,1,1,,,,,,,,,,,,,,,,,,,,,747.976966199989,748.1748922999977,748.1839345999906,748.4737331999931,748.4644006000017,748.9653818999941,748.9745649999968,748.9745649999968,k,1,0.5468472999928053,,,,,,,,,,,,,,,,,,,,12007,2,2,2024-06-14_18h02.08.375,stroop_task_switching2_b,2022.2.4,None,
,,,蓝,green,d,diamond,color_mix,颜色,,incompatible,1,block_switch2_b,instruction/ready_2.png,instruction/i12.png,,,,,,,,,,,,,,,,,0,1,1,1,0,2,2,2,,,,,,,,,,,,,,,,,,,,,749.5399873999995,749.7302780999889,749.7396838999994,750.0313223999983,750.0313223999983,750.5337582999928,750.5337582999928,750.5337582999928,d,1,1.0275428999884753,,,,,,,,,,,,,,,,,,,,12007,2,2,2024-06-14_18h02.08.375,stroop_task_switching2_b,2022.2.4,None,
,,,红,yellow,f,diamond,color_mix,颜色,,incompatible,1,block_switch2_b,instruction/ready_2.png,instruction/i12.png,,,,,,,,,,,,,,,,,0,1,1,1,0,3,3,3,,,,,,,,,,,,,,,,,,,,,751.5741371999902,751.7647347999882,751.7736663999967,752.0646545999916,752.0646545999916,752.5660854000016,752.5660854000016,752.5660854000016,f,1,0.9472244000062346,,,,,,,,,,,,,,,,,,,,12007,2,2,2024-06-14_18h02.08.375,stroop_task_switching2_b,2022.2.4,None,
,,,红,red,k,diamond,color_mix,颜色,,compatible,1,block_switch2_b,instruction/ready_2.png,instruction/i12.png,,,,,,,,,,,,,,,,,0,1,1,1,0,4,4,4,,,,,,,,,,,,,,,,,,,,,753.5301800999878,753.7302746999922,753.7302746999922,754.0304277999967,754.0304277999967,,754.5315109999938,754.5315109999938,k,1,0.6551210999896284,,,,,,,,,,,,,,,,,,,,12007,2,2,2024-06-14_18h02.08.375,stroop_task_switching2_b,2022.2.4,None,
,,,绿,green,d,square,color_mix,单词,,compatible,2,block_switch2_b,instruction/ready_2.png,instruction/i12.png,,,,,,,,,,,,,,,,,0,1,1,1,0,5,5,5,,,,,,,,,,,,,,,,,,,,,755.1988844000007,755.3950409999961,755.4079672999942,755.6951111999952,755.6951111999952,756.1960751000006,756.1960751000006,756.1960751000006,d,1,1.1249811000016052,,,,,,,,,,,,,,,,,,,,12007,2,2,2024-06-14_18h02.08.375,stroop_task_switching2_b,2022.2.4,None,
,,,黄,blue,j,diamond,color_mix,颜色,,incompatible,2,block_switch2_b,instruction/ready_2.png,instruction/i12.png,,,,,,,,,,,,,,,,,0,1,1,1,0,6,6,6,,,,,,,,,,,,,,,,,,,,,757.3406161000021,757.5285054999986,757.5527983999928,757.8289040999953,757.8289040999953,758.3314955999958,758.3314955999958,758.3314955999958,j,1,0.7816136000037659,,,,,,,,,,,,,,,,,,,,12007,2,2,2024-06-14_18h02.08.375,stroop_task_switching2_b,2022.2.4,None,
,,,绿,yellow,d,square,color_mix,单词,,incompatible,2,block_switch2_b,instruction/ready_2.png,instruction/i12.png,,,,,,,,,,,,,,,,,0,1,1,1,0,7,7,7,,,,,,,,,,,,,,,,,,,,,759.1311846999888,759.3202359999996,759.3292264999909,759.6200308999978,759.6291773999983,760.1299855999969,760.1299855999969,760.1299855999969,d,1,1.5209102999942843,,,,,,,,,,,,,,,,,,,,12007,2,2,2024-06-14_18h02.08.375,stroop_task_switching2_b,2022.2.4,None,
,,,红,green,k,square,color_mix,单词,,incompatible,1,block_switch2_b,instruction/ready_2.png,instruction/i12.png,,,,,,,,,,,,,,,,,0,1,1,1,0,8,8,8,,,,,,,,,,,,,,,,,,,,,761.6631970999879,761.8636285999964,761.8636285999964,762.1747997999919,762.1643762999884,,762.6748691999965,762.6748691999965,k,1,1.0640368000022136,,,,,,,,,,,,,,,,,,,,12007,2,2,2024-06-14_18h02.08.375,stroop_task_switching2_b,2022.2.4,None,
,,,黄,yellow,f,square,color_mix,单词,,compatible,1,block_switch2_b,instruction/ready_2.png,instruction/i12.png,,,,,,,,,,,,,,,,,0,1,1,1,0,9,9,9,,,,,,,,,,,,,,,,,,,,,763.7525801000011,763.9517840999906,763.9517840999906,764.2515050999937,764.2515050999937,764.7511883999978,764.7511883999978,764.7511883999978,f,1,1.0582201999932295,,,,,,,,,,,,,,,,,,,,12007,2,2,2024-06-14_18h02.08.375,stroop_task_switching2_b,2022.2.4,None,
,,,蓝,blue,j,square,color_mix,单词,,compatible,1,block_switch2_b,instruction/ready_2.png,instruction/i12.png,,,,,,,,,,,,,,,,,0,1,1,1,0,10,10,10,,,,,,,,,,,,,,,,,,,,,765.8312549999973,766.0175946999952,766.0414541999926,766.3174005999899,766.3174005999899,766.8206051999878,766.8206051999878,766.8206051999878,j,1,0.49245770000561606,,,,,,,,,,,,,,,,,,,,12007,2,2,2024-06-14_18h02.08.375,stroop_task_switching2_b,2022.2.4,None,
,,,绿,red,k,diamond,color_mix,颜色,,incompatible,2,block_switch2_b,instruction/ready_2.png,instruction/i12.png,,,,,,,,,,,,,,,,,0,1,1,1,0,11,11,11,,,,,,,,,,,,,,,,,,,,,767.3311681999912,767.5174489999918,767.5412676999986,767.817755600001,767.817755600001,768.3193315999961,768.3193315999961,768.3193315999961,k,1,0.8026572999951895,,,,,,,,,,,,,,,,,,,,12007,2,2,2024-06-14_18h02.08.375,stroop_task_switching2_b,2022.2.4,None,
,,,黄,red,f,square,color_mix,单词,,incompatible,2,block_switch2_b,instruction/ready_2.png,instruction/i12.png,,,,,,,,,,,,,,,,,0,1,1,1,0,12,12,12,,,,,,,,,,,,,,,,,,,,,769.1417313999991,769.3293384999997,769.3519154999958,769.6304163000023,769.6395358000009,770.1415532999963,770.1415532999963,770.1415532999963,f,1,1.1888008999958402,,,,,,,,,,,,,,,,,,,,12007,2,2,2024-06-14_18h02.08.375,stroop_task_switching2_b,2022.2.4,None,
,,,绿,red,d,square,color_mix,单词,,incompatible,1,block_switch2_b,instruction/ready_2.png,instruction/i12.png,,,,,,,,,,,,,,,,,0,1,1,1,0,13,13,13,,,,,,,,,,,,,,,,,,,,,771.341012799996,771.531070699988,771.5402631999896,771.8308117999986,771.8405264999892,772.3418661999895,772.3418661999895,772.3418661999895,d,1,1.3407043000042904,,,,,,,,,,,,,,,,,,,,12007,2,2,2024-06-14_18h02.08.375,stroop_task_switching2_b,2022.2.4,None,
,,,红,blue,k,square,color_mix,单词,,incompatible,1,block_switch2_b,instruction/ready_2.png,instruction/i12.png,,,,,,,,,,,,,,,,,0,1,1,1,0,14,14,14,,,,,,,,,,,,,,,,,,,,,773.6970561999915,773.8967740999942,773.8967740999942,774.196827599997,774.196827599997,774.6971109000006,774.6971109000006,774.6971109000006,k,1,1.0479613999923458,,,,,,,,,,,,,,,,,,,,12007,2,2,2024-06-14_18h02.08.375,stroop_task_switching2_b,2022.2.4,None,
,,,红,red,k,square,color_mix,单词,,compatible,1,block_switch2_b,instruction/ready_2.png,instruction/i12.png,,,,,,,,,,,,,,,,,0,1,1,1,0,15,15,15,,,,,,,,,,,,,,,,,,,,,775.7620653999911,775.9621012999996,775.9621012999996,776.2623145999969,776.2530220999906,776.7527074999962,776.7624425999966,776.7624425999966,k,1,1.1029180000041379,,,,,,,,,,,,,,,,,,,,12007,2,2,2024-06-14_18h02.08.375,stroop_task_switching2_b,2022.2.4,None,
,,,绿,green,d,square,color_mix,单词,,compatible,1,block_switch2_b,instruction/ready_2.png,instruction/i12.png,,,,,,,,,,,,,,,,,0,1,1,1,0,16,16,16,,,,,,,,,,,,,,,,,,,,,777.8857306999998,778.0860239999893,778.0860239999893,778.3869428999897,778.3869428999897,778.887267099999,778.887267099999,778.887267099999,d,1,0.8178923000086797,,,,,,,,,,,,,,,,,,,,12007,2,2,2024-06-14_18h02.08.375,stroop_task_switching2_b,2022.2.4,None,
,,,黄,yellow,f,diamond,color_mix,颜色,,compatible,2,block_switch2_b,instruction/ready_2.png,instruction/i12.png,,,,,,,,,,,,,,,,,0,1,1,1,0,17,17,17,,,,,,,,,,,,,,,,,,,,,779.7213522999955,779.9198438999883,779.9290795999987,780.2194439000014,780.2194439000014,780.7192689999938,780.7192689999938,780.7192689999938,f,1,1.0021239000052446,,,,,,,,,,,,,,,,,,,,12007,2,2,2024-06-14_18h02.08.375,stroop_task_switching2_b,2022.2.4,None,
,,,蓝,blue,j,diamond,color_mix,颜色,,compatible,1,block_switch2_b,instruction/ready_2.png,instruction/i12.png,,,,,,,,,,,,,,,,,0,1,1,1,0,18,18,18,,,,,,,,,,,,,,,,,,,,,781.7423159999889,781.9288794000022,781.9535692999925,782.2307659999933,782.2419376999896,,782.7416163999878,782.7416163999878,j,1,0.9240495999983978,,,,,,,,,,,,,,,,,,,,12007,2,2,2024-06-14_18h02.08.375,stroop_task_switching2_b,2022.2.4,None,
,,,红,red,k,diamond,color_mix,颜色,,compatible,1,block_switch2_b,instruction/ready_2.png,instruction/i12.png,,,,,,,,,,,,,,,,,0,1,1,1,0,19,19,19,,,,,,,,,,,,,,,,,,,,,783.6872212999879,783.8843487999984,783.8965578999923,784.183976699991,784.183976699991,784.6867630999914,784.6867630999914,784.6867630999914,k,1,0.6745380000065779,,,,,,,,,,,,,,,,,,,,12007,2,2,2024-06-14_18h02.08.375,stroop_task_switching2_b,2022.2.4,None,
