b_pra,ins_blocks,ins_blocks2,stim_word,stim_color,corrAns,cue_type,trial_type,task_type,rand,compatibility,switch,b_test,w_pic,w_pic2,trials_instr.thisRepN,trials_instr.thisTrialN,trials_instr.thisN,trials_instr.thisIndex,block_pra.thisRepN,block_pra.thisTrialN,block_pra.thisN,block_pra.thisIndex,trials_rep.thisRepN,trials_rep.thisTrialN,trials_rep.thisN,trials_rep.thisIndex,trials_pra.thisRepN,trials_pra.thisTrialN,trials_pra.thisN,trials_pra.thisIndex,trials_3.thisRepN,trials_3.thisTrialN,trials_3.thisN,trials_3.thisIndex,trials_2.thisRepN,trials_2.thisTrialN,trials_2.thisN,trials_2.thisIndex,instr_image.started,instr_image.stopped,instr_key_resp.keys,instr_key_resp.rt,instr_key_resp.started,instr_key_resp.stopped,instr_pra_image.started,instr_pra_image.stopped,ip_key_resp.keys,ip_key_resp.rt,ip_key_resp.started,ip_key_resp.stopped,block_image.started,block_image.stopped,ib_key_resp.keys,ib_key_resp.rt,ib_key_resp.started,ib_key_resp.stopped,cd3.started,cd3.stopped,cd2.started,cd2.stopped,cd1.started,cd1.stopped,cd_text.started,cd_text.stopped,text_fix.started,text_fix.stopped,text_2.started,text_2.stopped,text_4.started,text_4.stopped,text_target.started,text_target.stopped,key_resp.keys,key_resp.corr,key_resp.rt,key_resp.started,key_resp.stopped,sceen_black.started,sceen_black.stopped,text_fb.started,text_fb.stopped,text.started,text.stopped,key_bf.keys,key_bf.rt,key_bf.started,key_bf.stopped,instr_test_image.started,instr_test_image.stopped,instr_exp_key_resp.keys,instr_exp_key_resp.rt,instr_exp_key_resp.started,instr_exp_key_resp.stopped,text_rest.started,text_rest.stopped,key_resp_rest.keys,key_resp_rest.rt,key_resp_rest.started,key_resp_rest.stopped,text_3.started,text_3.stopped,participant,session,balance,date,expName,psychopyVersion,frameRate,
,,,,,,,,,,,,,,,0,0,0,0,,,,,,,,,,,,,,,,,,,,,10.768362700007856,None,right,4.23310300000594,10.768362700007856,None,,,,,,,,,,,,,,,,,,,,,,,,,,,,,,,,,,,,,,,,,,,,,,,,,,,,,,,,,,12003,1,2,2024_Jun_09_1440,stroop_task_switching2_b,2021.2.3,60.064713729358736,
,,,,,,,,,,,,,,,1,0,1,0,,,,,,,,,,,,,,,,,,,,,15.040557900007116,None,right,24.18562429997837,15.040557900007116,None,,,,,,,,,,,,,,,,,,,,,,,,,,,,,,,,,,,,,,,,,,,,,,,,,,,,,,,,,,12003,1,2,2024_Jun_09_1440,stroop_task_switching2_b,2021.2.3,60.064713729358736,
,,,,,,,,,,,,,,,2,0,2,0,,,,,,,,,,,,,,,,,,,,,39.26052000001073,None,right,14.045786200003931,39.26052000001073,None,,,,,,,,,,,,,,,,,,,,,,,,,,,,,,,,,,,,,,,,,,,,,,,,,,,,,,,,,,12003,1,2,2024_Jun_09_1440,stroop_task_switching2_b,2021.2.3,60.064713729358736,
,,,,,,,,,,,,,,,3,0,3,0,,,,,,,,,,,,,,,,,,,,,53.34864939999534,None,right,0.37367400000221096,53.34864939999534,None,,,,,,,,,,,,,,,,,,,,,,,,,,,,,,,,,,,,,,,,,,,,,,,,,,,,,,,,,,12003,1,2,2024_Jun_09_1440,stroop_task_switching2_b,2021.2.3,60.064713729358736,
,,,,,,,,,,,,,,,4,0,4,0,,,,,,,,,,,,,,,,,,,,,53.76606530000572,None,right,0.13297840001177974,53.76606530000572,None,,,,,,,,,,,,,,,,,,,,,,,,,,,,,,,,,,,,,,,,,,,,,,,,,,,,,,,,,,12003,1,2,2024_Jun_09_1440,stroop_task_switching2_b,2021.2.3,60.064713729358736,
,,,,,,,,,,,,,,,5,0,5,0,,,,,,,,,,,,,,,,,,,,,53.93265309999697,None,right,0.14186380000319332,53.93265309999697,None,,,,,,,,,,,,,,,,,,,,,,,,,,,,,,,,,,,,,,,,,,,,,,,,,,,,,,,,,,12003,1,2,2024_Jun_09_1440,stroop_task_switching2_b,2021.2.3,60.064713729358736,
,,,,,,,,,,,,,,,,,,,,,,,,,,,,,,,,,,,,,,,,,,,,,54.116615600010846,None,space,1.198648299992783,54.116615600010846,None,,,,,,,,,,,,,,,,,,,,,,,,,,,,,,,,,,,,,,,,,,,,,,,,,,,,12003,1,2,2024_Jun_09_1440,stroop_task_switching2_b,2021.2.3,60.064713729358736,
condition/block_color_b,instruction/instr_color,instruction/i8_b,XX,red,k,diamond,color_single,颜色,,,,,,,,,,,0,0,0,0,0,0,0,0,0,0,0,0,,,,,,,,,,,,,,,,,,,,,55.35157860000618,None,space,5.23939820000669,55.35157860000618,None,61.66257710001082,62.664001400000416,62.664001400000416,63.666252399998484,63.666252399998484,None,60.67651799999294,61.67794809999759,64.63216120001744,64.83386410001549,64.81611070001964,65.11682920000749,65.11682920000749,None,65.6171135000186,None,k,1,1.9457759999786504,65.6171135000186,None,None,None,67.68704079999588,None,,,,,,,,,,,,,,,,,,,,,12003,1,2,2024_Jun_09_1440,stroop_task_switching2_b,2021.2.3,60.064713729358736,
condition/block_color_b,instruction/instr_color,instruction/i8_b,XX,green,d,diamond,color_single,颜色,,,,,,,,,,,0,0,0,0,0,0,0,0,0,1,1,1,,,,,,,,,,,,,,,,,,,,,,,,,,,,,,,,,,,68.60507900000084,68.80582120001782,68.78862770000705,69.09013190001133,69.07239469999331,None,69.57309130000067,None,d,1,1.2859801999875344,69.57309130000067,None,None,None,70.87519930000417,None,,,,,,,,,,,,,,,,,,,,,12003,1,2,2024_Jun_09_1440,stroop_task_switching2_b,2021.2.3,60.064713729358736,
condition/block_color_b,instruction/instr_color,instruction/i8_b,XX,yellow,f,diamond,color_single,颜色,,,,,,,,,,,0,0,0,0,0,0,0,0,0,2,2,2,,,,,,,,,,,,,,,,,,,,,,,,,,,,,,,,,,,71.87669140001526,72.07706440001493,72.06039540001075,72.36194840000826,72.36194840000826,None,72.86277460001293,None,f,1,1.0362930000119377,72.86277460001293,None,None,None,73.94666240000515,None,,,,,,,,,,,,,,,,,,,,,12003,1,2,2024_Jun_09_1440,stroop_task_switching2_b,2021.2.3,60.064713729358736,
condition/block_color_b,instruction/instr_color,instruction/i8_b,XX,blue,j,diamond,color_single,颜色,,,,,,,,,,,0,0,0,0,0,0,0,0,0,3,3,3,,,,,,,,,,,,,,,,,,,,,,,,,,,,,,,,,,,74.9482687000127,75.1481987000152,75.11481190001359,75.41550220001955,75.41550220001955,None,75.91630109999096,None,j,1,0.7827535000105854,75.91630109999096,None,None,None,76.71748110000044,None,,,,,,,,,,,,,,,,,,,,,12003,1,2,2024_Jun_09_1440,stroop_task_switching2_b,2021.2.3,60.064713729358736,
condition/block_color_b,instruction/instr_color,instruction/i8_b,XX,green,d,diamond,color_single,颜色,,,,,,,,,,,0,0,0,0,0,0,0,0,0,4,4,4,,,,,,,,,,,,,,,,,,,,,,,,,,,,,,,,,,,77.71907200000715,77.91976039999281,77.90244199999142,78.20405910001136,78.20405910001136,None,78.70423490001122,None,d,1,0.7067953999794554,78.70423490001122,None,None,None,79.43814050001674,None,,,,,,,,,,,,,,,,,,,,,12003,1,2,2024_Jun_09_1440,stroop_task_switching2_b,2021.2.3,60.064713729358736,
condition/block_color_b,instruction/instr_color,instruction/i8_b,XX,yellow,f,diamond,color_single,颜色,,,,,,,,,,,0,0,0,0,0,0,0,0,0,5,5,5,,,,,,,,,,,,,,,,,,,,,,,,,,,,,,,,,,,80.43948180001462,80.63998110001558,80.62509310001042,80.94138590001967,80.92370710000978,None,81.42475989999366,None,f,1,0.5944958000036422,81.42475989999366,None,None,None,82.04195099999197,None,,,,,,,,,,,,,,,,,,,,,12003,1,2,2024_Jun_09_1440,stroop_task_switching2_b,2021.2.3,60.064713729358736,
condition/block_color_b,instruction/instr_color,instruction/i8_b,XX,blue,j,diamond,color_single,颜色,,,,,,,,,,,0,0,0,0,0,0,0,0,0,6,6,6,,,,,,,,,,,,,,,,,,,,,,,,,,,,,,,,,,,83.04408819999662,83.2442321999988,83.2284287000075,83.52806700000656,83.52806700000656,None,84.0289080000075,None,j,1,0.9990978999994695,84.0289080000075,None,None,None,85.04642530001001,None,,,,,,,,,,,,,,,,,,,,,12003,1,2,2024_Jun_09_1440,stroop_task_switching2_b,2021.2.3,60.064713729358736,
condition/block_color_b,instruction/instr_color,instruction/i8_b,XX,red,k,diamond,color_single,颜色,,,,,,,,,,,0,0,0,0,0,0,0,0,0,7,7,7,,,,,,,,,,,,,,,,,,,,,,,,,,,,,,,,,,,86.04862670000875,86.24876439999207,86.23251210001763,86.53353580000112,86.53353580000112,None,87.03272030001972,None,k,1,0.4185089000093285,87.03272030001972,None,None,None,87.46684919999097,None,,,,,,,,,,,,,,,,,,,,,12003,1,2,2024_Jun_09_1440,stroop_task_switching2_b,2021.2.3,60.064713729358736,
condition/block_color_b,instruction/instr_color,instruction/i8_b,XX,yellow,f,diamond,color_single,颜色,,,,,,,,,,,0,0,0,0,0,0,0,0,0,8,8,8,,,,,,,,,,,,,,,,,,,,,,,,,,,,,,,,,,,88.46886170000653,88.6698189000017,88.65246599999955,88.9528266999987,88.9528266999987,None,89.45327319999342,None,f,1,1.2463930000085384,89.45327319999342,None,None,None,90.72163320000982,None,,,,,,,,,,,,,,,,,,,,,12003,1,2,2024_Jun_09_1440,stroop_task_switching2_b,2021.2.3,60.064713729358736,
condition/block_color_b,instruction/instr_color,instruction/i8_b,XX,blue,j,diamond,color_single,颜色,,,,,,,,,,,0,0,0,0,0,0,0,0,0,9,9,9,,,,,,,,,,,,,,,,,,,,,,,,,,,,,,,,,,,91.72330760001205,91.92455399999744,91.9069315000088,92.20769629999995,92.20769629999995,None,92.70861140001216,None,j,1,0.7515427999896929,92.70861140001216,None,None,None,93.4757007000153,None,,,,,,,,,,,,,,,,,,,,,12003,1,2,2024_Jun_09_1440,stroop_task_switching2_b,2021.2.3,60.064713729358736,
condition/block_color_b,instruction/instr_color,instruction/i8_b,XX,red,k,diamond,color_single,颜色,,,,,,,,,,,0,0,0,0,0,0,0,0,0,10,10,10,,,,,,,,,,,,,,,,,,,,,,,,,,,,,,,,,,,94.47743810000247,94.67771740001626,94.66291590000037,94.96350010001333,94.96350010001333,None,95.46285320000607,None,k,1,0.46068519999971613,95.46285320000607,None,None,None,95.94630330000655,None,,,,,,,,,,,,,,,,,,,,,12003,1,2,2024_Jun_09_1440,stroop_task_switching2_b,2021.2.3,60.064713729358736,
condition/block_color_b,instruction/instr_color,instruction/i8_b,XX,green,d,diamond,color_single,颜色,,,,,,,,,,,0,0,0,0,0,0,0,0,0,11,11,11,,,,,,,,,,,,,,,,,,,,,,,,,,,,,,,,,,,96.94764470000518,97.1483040000021,97.13149900001008,97.43194559999392,97.43194559999392,None,97.93285810001544,None,d,1,0.6630540999758523,97.93285810001544,None,None,None,98.61722899999586,None,,,,,,,,,,,,,,,,,,,,,12003,1,2,2024_Jun_09_1440,stroop_task_switching2_b,2021.2.3,60.064713729358736,
condition/block_color_b,instruction/instr_color,instruction/i8_b,XX,blue,j,diamond,color_single,颜色,,,,,,,,,,,0,0,0,0,0,0,0,0,0,12,12,12,,,,,,,,,,,,,,,,,,,,,,,,,,,,,,,,,,,99.61928300000727,99.82067570000072,99.8021732000052,100.10281860001851,100.10281860001851,None,100.60328680000384,None,j,1,0.888351400004467,100.60328680000384,None,None,None,101.53879340001731,None,,,,,,,,,,,,,,,,,,,,,12003,1,2,2024_Jun_09_1440,stroop_task_switching2_b,2021.2.3,60.064713729358736,
condition/block_color_b,instruction/instr_color,instruction/i8_b,XX,red,k,diamond,color_single,颜色,,,,,,,,,,,0,0,0,0,0,0,0,0,0,13,13,13,,,,,,,,,,,,,,,,,,,,,,,,,,,,,,,,,,,102.5400661000167,102.74163390000467,102.70701420001569,103.00708430001396,103.00708430001396,None,103.50770139999804,None,k,1,0.5524833999807015,103.50770139999804,None,None,None,104.07501440000487,None,,,,,,,,,,,,,,,,,,,,,12003,1,2,2024_Jun_09_1440,stroop_task_switching2_b,2021.2.3,60.064713729358736,
condition/block_color_b,instruction/instr_color,instruction/i8_b,XX,green,d,diamond,color_single,颜色,,,,,,,,,,,0,0,0,0,0,0,0,0,0,14,14,14,,,,,,,,,,,,,,,,,,,,,,,,,,,,,,,,,,,105.0767341000028,105.27769700001227,105.26118800000404,105.56067040000926,105.56067040000926,None,106.0623031000141,None,d,1,0.7415303000016138,106.0623031000141,None,None,None,106.8292621000146,None,,,,,,,,,,,,,,,,,,,,,12003,1,2,2024_Jun_09_1440,stroop_task_switching2_b,2021.2.3,60.064713729358736,
condition/block_color_b,instruction/instr_color,instruction/i8_b,XX,yellow,f,diamond,color_single,颜色,,,,,,,,,,,0,0,0,0,0,0,0,0,0,15,15,15,,,,,,,,,,,,,,,,,,,,,,,,,,,,,,,,,,,107.83113780000713,108.03238029999193,108.01492149999831,108.31588120001834,108.31588120001834,None,108.81581319999532,None,f,1,1.4688098999904469,108.81581319999532,None,None,None,110.30141089999233,None,,,,,,,,,,,,,,,,,,,,,12003,1,2,2024_Jun_09_1440,stroop_task_switching2_b,2021.2.3,60.064713729358736,
condition/block_color_b,instruction/instr_color,instruction/i8_b,XX,red,k,diamond,color_single,颜色,,,,,,,,,,,0,0,0,0,0,0,0,0,0,16,16,16,,,,,,,,,,,,,,,,,,,,,,,,,,,,,,,,,,,111.30278790000011,111.50473320001038,111.48661469999934,111.78676620000624,111.78676620000624,None,112.28766920001362,None,k,1,0.5168851999915205,112.28766920001362,None,None,None,112.82178110000677,None,,,,,,,,,,,,,,,,,,,,,12003,1,2,2024_Jun_09_1440,stroop_task_switching2_b,2021.2.3,60.064713729358736,
condition/block_color_b,instruction/instr_color,instruction/i8_b,XX,green,d,diamond,color_single,颜色,,,,,,,,,,,0,0,0,0,0,0,0,0,0,17,17,17,,,,,,,,,,,,,,,,,,,,,,,,,,,,,,,,,,,113.82331100001466,114.02411120000761,114.00663489999715,114.30856050000875,114.30856050000875,None,114.80869770000572,None,d,1,0.6353364999813493,114.80869770000572,None,None,None,115.45887150001363,None,,,,,,,,,,,,,,,,,,,,,12003,1,2,2024_Jun_09_1440,stroop_task_switching2_b,2021.2.3,60.064713729358736,
condition/block_color_b,instruction/instr_color,instruction/i8_b,XX,yellow,f,diamond,color_single,颜色,,,,,,,,,,,0,0,0,0,0,0,0,0,0,18,18,18,,,,,,,,,,,,,,,,,,,,,,,,,,,,,,,,,,,116.46068049999303,116.66257780001615,116.64417660000618,116.94558739999775,116.94558739999775,None,117.4463254000002,None,j,0,1.9659298000042327,117.4463254000002,None,None,None,119.43166790000396,None,,,,,,,,,,,,,,,,,,,,,12003,1,2,2024_Jun_09_1440,stroop_task_switching2_b,2021.2.3,60.064713729358736,
condition/block_color_b,instruction/instr_color,instruction/i8_b,XX,blue,j,diamond,color_single,颜色,,,,,,,,,,,0,0,0,0,0,0,0,0,0,19,19,19,,,,,,,,,,,,,,,,,,,,,,,,,,,,,,,,,,,120.433909400017,120.63358550000703,120.61921080001048,120.91747939999914,120.91747939999914,None,121.41842140001245,None,j,1,0.850185400020564,121.41842140001245,None,None,None,122.28618009999627,None,,,,,,,,,,,,,,,,,,,,,12003,1,2,2024_Jun_09_1440,stroop_task_switching2_b,2021.2.3,60.064713729358736,
condition/block_color_b,instruction/instr_color,instruction/i8_b,XX,green,d,diamond,color_single,颜色,,,,,,,,,,,0,0,0,0,0,0,0,0,0,20,20,20,,,,,,,,,,,,,,,,,,,,,,,,,,,,,,,,,,,123.28762680001091,123.48789340001531,123.47112600001856,123.77185059999465,123.77185059999465,None,124.27231920001213,None,d,1,0.8761399000068195,124.27231920001213,None,None,None,125.1735800000024,None,,,,,,,,,,,,,,,,,,,,,12003,1,2,2024_Jun_09_1440,stroop_task_switching2_b,2021.2.3,60.064713729358736,
condition/block_color_b,instruction/instr_color,instruction/i8_b,XX,yellow,f,diamond,color_single,颜色,,,,,,,,,,,0,0,0,0,0,0,0,0,0,21,21,21,,,,,,,,,,,,,,,,,,,,,,,,,,,,,,,,,,,126.1751998999971,126.3756807000027,126.35925730000599,126.65990100000636,126.65990100000636,None,127.16029020000133,None,f,1,1.0200936999754049,127.16029020000133,None,None,None,128.2116071000055,None,,,,,,,,,,,,,,,,,,,,,12003,1,2,2024_Jun_09_1440,stroop_task_switching2_b,2021.2.3,60.064713729358736,
condition/block_color_b,instruction/instr_color,instruction/i8_b,XX,blue,j,diamond,color_single,颜色,,,,,,,,,,,0,0,0,0,0,0,0,0,0,22,22,22,,,,,,,,,,,,,,,,,,,,,,,,,,,,,,,,,,,129.2130090999999,129.41484350000974,129.39721480000298,129.69794750001165,129.69794750001165,None,130.19941140001174,None,j,1,0.49297740001929924,130.19941140001174,None,None,None,130.71637790001114,None,,,,,,,,,,,,,,,,,,,,,12003,1,2,2024_Jun_09_1440,stroop_task_switching2_b,2021.2.3,60.064713729358736,
condition/block_color_b,instruction/instr_color,instruction/i8_b,XX,red,k,diamond,color_single,颜色,,,,,,,,,,,0,0,0,0,0,0,0,0,0,23,23,23,,,,,,,,,,,,,,,,,,,,,,,,,,,,,,,,,,,131.71702880001976,131.9180663000152,131.90064690000145,132.20098029999644,132.20098029999644,None,132.70191510001314,None,k,1,0.3428096999996342,132.70191510001314,None,None,None,133.06876310001826,None,,,,,,,,,,,,,,,,,,,,,12003,1,2,2024_Jun_09_1440,stroop_task_switching2_b,2021.2.3,60.064713729358736,
condition/block_color_b,instruction/instr_color,instruction/i8_b,,,,,,,,,,,,,,,,,0,0,0,0,0,0,0,0,,,,,,,,,,,,,,,,,,,,,,,,,,,,,,,,,,,,,,,,,,,,,,,,,,,,,,,,134.0872681000037,None,space,4.36599719998776,134.0872681000037,None,,,,,,,,,,,,,,,12003,1,2,2024_Jun_09_1440,stroop_task_switching2_b,2021.2.3,60.064713729358736,
condition/block_color_b,instruction/instr_color,instruction/i8_b,,,,,,,,,,,,,,,,,0,0,0,0,,,,,,,,,,,,,,,,,,,,,,,,,,,,,,,,,,,,,,,,,,,,,,,,,,,,,,,,,,,,,,,,,,,,,,,,,,,,,,,,12003,1,2,2024_Jun_09_1440,stroop_task_switching2_b,2021.2.3,60.064713729358736,
condition/block_word_b,instruction/instr_word,instruction/i9_b,黄,white,f,square,word_single,单词,0.0032461461866890584,,,,,,,,,,0,1,1,1,0,0,0,0,0,0,0,0,,,,,,,,,,,,,,,,,,,,,138.51106370001798,None,space,4.109685899980832,138.51106370001798,None,143.65239669999573,144.6536480000068,144.6536480000068,145.65614219999406,145.65614219999406,None,142.66751020000083,143.67009970001527,146.67258800001582,146.87422650001827,146.85678210001788,147.15726249999716,147.15726249999716,None,147.65793109999504,150.6631647000031,None,0,,147.65793109999504,150.6631647000031,150.64589610000257,None,151.2964833000151,None,,,,,,,,,,,,,,,,,,,,,12003,1,2,2024_Jun_09_1440,stroop_task_switching2_b,2021.2.3,60.064713729358736,
condition/block_word_b,instruction/instr_word,instruction/i9_b,蓝,white,j,square,word_single,单词,0.060540570646362424,,,,,,,,,,0,1,1,1,0,0,0,0,0,1,1,1,,,,,,,,,,,,,,,,,,,,,,,,,,,,,,,,,,,152.29801299999235,152.50027419999242,152.48240800001076,152.78189869999187,152.78189869999187,None,153.28283189999638,None,j,1,0.8991649000090547,153.28283189999638,None,None,None,154.23464130001958,None,,,,,,,,,,,,,,,,,,,,,12003,1,2,2024_Jun_09_1440,stroop_task_switching2_b,2021.2.3,60.064713729358736,
condition/block_word_b,instruction/instr_word,instruction/i9_b,黄,white,f,square,word_single,单词,0.06994067193778963,,,,,,,,,,0,1,1,1,0,0,0,0,0,2,2,2,,,,,,,,,,,,,,,,,,,,,,,,,,,,,,,,,,,155.21917100000428,155.42109680001158,155.38674529999844,155.68750420000288,155.68750420000288,None,156.18702330000815,None,f,1,1.298658699990483,156.18702330000815,None,None,None,157.50585430001956,None,,,,,,,,,,,,,,,,,,,,,12003,1,2,2024_Jun_09_1440,stroop_task_switching2_b,2021.2.3,60.064713729358736,
condition/block_word_b,instruction/instr_word,instruction/i9_b,蓝,white,j,square,word_single,单词,0.08193765152950094,,,,,,,,,,0,1,1,1,0,0,0,0,0,3,3,3,,,,,,,,,,,,,,,,,,,,,,,,,,,,,,,,,,,158.5073755000194,158.7085905999993,158.69101110001793,158.99120340001537,158.99120340001537,None,159.49215420000837,None,j,1,1.8097540000162553,159.49215420000837,None,None,None,161.32809480000287,None,,,,,,,,,,,,,,,,,,,,,12003,1,2,2024_Jun_09_1440,stroop_task_switching2_b,2021.2.3,60.064713729358736,
condition/block_word_b,instruction/instr_word,instruction/i9_b,红,white,k,square,word_single,单词,0.1279694370605574,,,,,,,,,,0,1,1,1,0,0,0,0,0,4,4,4,,,,,,,,,,,,,,,,,,,,,,,,,,,,,,,,,,,162.32978699999512,162.53099870000733,162.51391530002002,162.81370689999312,162.81370689999312,None,163.31436730001587,None,k,1,1.002976599993417,163.31436730001587,None,None,None,164.3327830999915,None,,,,,,,,,,,,,,,,,,,,,12003,1,2,2024_Jun_09_1440,stroop_task_switching2_b,2021.2.3,60.064713729358736,
condition/block_word_b,instruction/instr_word,instruction/i9_b,红,white,k,square,word_single,单词,0.18345028784879092,,,,,,,,,,0,1,1,1,0,0,0,0,0,5,5,5,,,,,,,,,,,,,,,,,,,,,,,,,,,,,,,,,,,165.3350550000032,165.53442179999547,165.51892649999354,165.81921980000334,165.81921980000334,None,166.31898129999172,None,k,1,0.6307986000028905,166.31898129999172,None,None,None,166.97016900000744,None,,,,,,,,,,,,,,,,,,,,,12003,1,2,2024_Jun_09_1440,stroop_task_switching2_b,2021.2.3,60.064713729358736,
condition/block_word_b,instruction/instr_word,instruction/i9_b,蓝,white,j,square,word_single,单词,0.19920386223101294,,,,,,,,,,0,1,1,1,0,0,0,0,0,6,6,6,,,,,,,,,,,,,,,,,,,,,,,,,,,,,,,,,,,167.971480600012,168.17405990001862,168.15526960001444,168.45660120001412,168.45660120001412,None,168.95647960001952,None,j,1,2.3773171000066213,168.95647960001952,None,None,None,171.3600989000115,None,,,,,,,,,,,,,,,,,,,,,12003,1,2,2024_Jun_09_1440,stroop_task_switching2_b,2021.2.3,60.064713729358736,
condition/block_word_b,instruction/instr_word,instruction/i9_b,蓝,white,j,square,word_single,单词,0.26360599864925405,,,,,,,,,,0,1,1,1,0,0,0,0,0,7,7,7,,,,,,,,,,,,,,,,,,,,,,,,,,,,,,,,,,,172.36153270001523,172.56172190001234,172.54546069999924,172.8466999999946,172.8466999999946,None,173.34693480000715,None,j,1,0.5626215999945998,173.34693480000715,None,None,None,173.9306642000156,None,,,,,,,,,,,,,,,,,,,,,12003,1,2,2024_Jun_09_1440,stroop_task_switching2_b,2021.2.3,60.064713729358736,
condition/block_word_b,instruction/instr_word,instruction/i9_b,蓝,white,j,square,word_single,单词,0.358985675745526,,,,,,,,,,0,1,1,1,0,0,0,0,0,8,8,8,,,,,,,,,,,,,,,,,,,,,,,,,,,,,,,,,,,174.93215249999776,175.1326243999938,175.11730790001457,175.41726459999336,175.41726459999336,None,175.9169049000193,None,j,1,0.4491928000061307,175.9169049000193,None,None,None,176.3841442000121,None,,,,,,,,,,,,,,,,,,,,,12003,1,2,2024_Jun_09_1440,stroop_task_switching2_b,2021.2.3,60.064713729358736,
condition/block_word_b,instruction/instr_word,instruction/i9_b,绿,white,d,square,word_single,单词,0.36496733802487347,,,,,,,,,,0,1,1,1,0,0,0,0,0,9,9,9,,,,,,,,,,,,,,,,,,,,,,,,,,,,,,,,,,,177.386668799998,177.58667190000415,177.57021309999982,177.87023390000104,177.87023390000104,None,178.3704374000081,None,d,1,0.5402335000107996,178.3704374000081,None,None,None,178.9379234999942,None,,,,,,,,,,,,,,,,,,,,,12003,1,2,2024_Jun_09_1440,stroop_task_switching2_b,2021.2.3,60.064713729358736,
condition/block_word_b,instruction/instr_word,instruction/i9_b,黄,white,f,square,word_single,单词,0.3743513623756727,,,,,,,,,,0,1,1,1,0,0,0,0,0,10,10,10,,,,,,,,,,,,,,,,,,,,,,,,,,,,,,,,,,,179.93959220001125,180.1406729000155,180.12401679999311,180.4255290000001,180.4255290000001,None,180.92435919999843,None,f,1,0.5936219999857713,180.92435919999843,None,None,None,181.5419269000122,None,,,,,,,,,,,,,,,,,,,,,12003,1,2,2024_Jun_09_1440,stroop_task_switching2_b,2021.2.3,60.064713729358736,
condition/block_word_b,instruction/instr_word,instruction/i9_b,红,white,k,square,word_single,单词,0.3894803852598544,,,,,,,,,,0,1,1,1,0,0,0,0,0,11,11,11,,,,,,,,,,,,,,,,,,,,,,,,,,,,,,,,,,,182.543694699998,182.74426930001937,182.72720270001446,183.02849319999223,183.02849319999223,None,183.52839540000423,None,k,1,0.6135108000016771,183.52839540000423,None,None,None,184.16262079999433,None,,,,,,,,,,,,,,,,,,,,,12003,1,2,2024_Jun_09_1440,stroop_task_switching2_b,2021.2.3,60.064713729358736,
condition/block_word_b,instruction/instr_word,instruction/i9_b,绿,white,d,square,word_single,单词,0.5393759672408067,,,,,,,,,,0,1,1,1,0,0,0,0,0,12,12,12,,,,,,,,,,,,,,,,,,,,,,,,,,,,,,,,,,,185.1644995000097,185.36490650000633,185.34772109999903,185.64860960000078,185.64860960000078,None,186.14940660001594,None,d,1,0.7608250000048429,186.14940660001594,None,None,None,186.93353179999394,None,,,,,,,,,,,,,,,,,,,,,12003,1,2,2024_Jun_09_1440,stroop_task_switching2_b,2021.2.3,60.064713729358736,
condition/block_word_b,instruction/instr_word,instruction/i9_b,蓝,white,j,square,word_single,单词,0.5995731954831104,,,,,,,,,,0,1,1,1,0,0,0,0,0,13,13,13,,,,,,,,,,,,,,,,,,,,,,,,,,,,,,,,,,,187.935149500001,188.13556210001116,188.1192260000098,188.41945350001333,188.41945350001333,None,188.9199757000024,None,j,1,0.5742373999964911,188.9199757000024,None,None,None,189.52089590000105,None,,,,,,,,,,,,,,,,,,,,,12003,1,2,2024_Jun_09_1440,stroop_task_switching2_b,2021.2.3,60.064713729358736,
condition/block_word_b,instruction/instr_word,instruction/i9_b,红,white,k,square,word_single,单词,0.6298674479151414,,,,,,,,,,0,1,1,1,0,0,0,0,0,14,14,14,,,,,,,,,,,,,,,,,,,,,,,,,,,,,,,,,,,190.5223449000041,190.72298849999788,190.70569860000978,191.0070934999967,191.0070934999967,None,191.50709339999594,None,k,1,0.5793345000129193,191.50709339999594,None,None,None,192.1079902999918,None,,,,,,,,,,,,,,,,,,,,,12003,1,2,2024_Jun_09_1440,stroop_task_switching2_b,2021.2.3,60.064713729358736,
condition/block_word_b,instruction/instr_word,instruction/i9_b,红,white,k,square,word_single,单词,0.7389942282348904,,,,,,,,,,0,1,1,1,0,0,0,0,0,15,15,15,,,,,,,,,,,,,,,,,,,,,,,,,,,,,,,,,,,193.1096458999964,193.31147590000182,193.293113599997,193.5943852000055,193.5943852000055,None,194.09454459999688,None,k,1,0.5681721000000834,194.09454459999688,None,None,None,194.67828330001794,None,,,,,,,,,,,,,,,,,,,,,12003,1,2,2024_Jun_09_1440,stroop_task_switching2_b,2021.2.3,60.064713729358736,
condition/block_word_b,instruction/instr_word,instruction/i9_b,绿,white,d,square,word_single,单词,0.7550853947239682,,,,,,,,,,0,1,1,1,0,0,0,0,0,16,16,16,,,,,,,,,,,,,,,,,,,,,,,,,,,,,,,,,,,195.679987600015,195.88024600001518,195.86377029999858,196.16531830001622,196.16531830001622,None,196.66527890000725,None,d,1,0.3891011999803595,196.66527890000725,None,None,None,197.08199850001256,None,,,,,,,,,,,,,,,,,,,,,12003,1,2,2024_Jun_09_1440,stroop_task_switching2_b,2021.2.3,60.064713729358736,
condition/block_word_b,instruction/instr_word,instruction/i9_b,绿,white,d,square,word_single,单词,0.8019302780428206,,,,,,,,,,0,1,1,1,0,0,0,0,0,17,17,17,,,,,,,,,,,,,,,,,,,,,,,,,,,,,,,,,,,198.08408540001255,198.2840087999939,198.26791510000476,198.57014910000726,198.57014910000726,None,199.0853097999934,None,d,1,0.5930035999917891,199.0853097999934,None,None,None,199.70274380000774,None,,,,,,,,,,,,,,,,,,,,,12003,1,2,2024_Jun_09_1440,stroop_task_switching2_b,2021.2.3,60.064713729358736,
condition/block_word_b,instruction/instr_word,instruction/i9_b,绿,white,d,square,word_single,单词,0.8110702914095343,,,,,,,,,,0,1,1,1,0,0,0,0,0,18,18,18,,,,,,,,,,,,,,,,,,,,,,,,,,,,,,,,,,,200.70428890001494,200.9067403000081,200.8879244000127,201.1903472999984,201.1903472999984,None,201.70583990000887,None,d,1,0.5008307000098284,201.70583990000887,None,None,None,202.22307579999324,None,,,,,,,,,,,,,,,,,,,,,12003,1,2,2024_Jun_09_1440,stroop_task_switching2_b,2021.2.3,60.064713729358736,
condition/block_word_b,instruction/instr_word,instruction/i9_b,黄,white,f,square,word_single,单词,0.8176594937590999,,,,,,,,,,0,1,1,1,0,0,0,0,0,19,19,19,,,,,,,,,,,,,,,,,,,,,,,,,,,,,,,,,,,203.22505140001886,203.42507349999505,203.40929310000502,203.7086043000163,203.7086043000163,None,204.20937200001208,None,f,1,0.501280600001337,204.20937200001208,None,None,None,204.72701259999303,None,,,,,,,,,,,,,,,,,,,,,12003,1,2,2024_Jun_09_1440,stroop_task_switching2_b,2021.2.3,60.064713729358736,
condition/block_word_b,instruction/instr_word,instruction/i9_b,红,white,k,square,word_single,单词,0.8955794421104841,,,,,,,,,,0,1,1,1,0,0,0,0,0,20,20,20,,,,,,,,,,,,,,,,,,,,,,,,,,,,,,,,,,,205.7285754000186,205.93018510000547,205.91227610001806,206.21263560000807,206.21263560000807,None,206.71392599999672,None,k,1,0.47695979999843985,206.71392599999672,None,None,None,207.21407929999987,None,,,,,,,,,,,,,,,,,,,,,12003,1,2,2024_Jun_09_1440,stroop_task_switching2_b,2021.2.3,60.064713729358736,
condition/block_word_b,instruction/instr_word,instruction/i9_b,绿,white,d,square,word_single,单词,0.9113598052474129,,,,,,,,,,0,1,1,1,0,0,0,0,0,21,21,21,,,,,,,,,,,,,,,,,,,,,,,,,,,,,,,,,,,208.21601790000568,208.41678990001674,208.39925620000577,208.70113629999105,208.70113629999105,None,209.200631899992,None,d,1,0.48597979999613017,209.200631899992,None,None,None,209.7176940999925,None,,,,,,,,,,,,,,,,,,,,,12003,1,2,2024_Jun_09_1440,stroop_task_switching2_b,2021.2.3,60.064713729358736,
condition/block_word_b,instruction/instr_word,instruction/i9_b,黄,white,f,square,word_single,单词,0.9215930958042953,,,,,,,,,,0,1,1,1,0,0,0,0,0,22,22,22,,,,,,,,,,,,,,,,,,,,,,,,,,,,,,,,,,,210.71958249999443,210.91972430000897,210.90302050000173,211.20495280000614,211.20495280000614,None,211.70422260000487,None,f,1,1.1428697000083048,211.70422260000487,None,None,None,212.8725565999921,None,,,,,,,,,,,,,,,,,,,,,12003,1,2,2024_Jun_09_1440,stroop_task_switching2_b,2021.2.3,60.064713729358736,
condition/block_word_b,instruction/instr_word,instruction/i9_b,黄,white,f,square,word_single,单词,0.9493525498837774,,,,,,,,,,0,1,1,1,0,0,0,0,0,23,23,23,,,,,,,,,,,,,,,,,,,,,,,,,,,,,,,,,,,213.87410159999854,214.07452840000042,214.05823900000541,214.3601850999985,214.3601850999985,None,214.87552380000125,None,f,1,0.5392603000218514,214.87552380000125,None,None,None,215.4432660000166,None,,,,,,,,,,,,,,,,,,,,,12003,1,2,2024_Jun_09_1440,stroop_task_switching2_b,2021.2.3,60.064713729358736,
condition/block_word_b,instruction/instr_word,instruction/i9_b,,,,,,,,,,,,,,,,,0,1,1,1,0,0,0,0,,,,,,,,,,,,,,,,,,,,,,,,,,,,,,,,,,,,,,,,,,,,,,,,,,,,,,,,216.4443392000103,None,space,2.018667900003493,216.4443392000103,None,,,,,,,,,,,,,,,12003,1,2,2024_Jun_09_1440,stroop_task_switching2_b,2021.2.3,60.064713729358736,
condition/block_word_b,instruction/instr_word,instruction/i9_b,,,,,,,,,,,,,,,,,0,1,1,1,,,,,,,,,,,,,,,,,,,,,,,,,,,,,,,,,,,,,,,,,,,,,,,,,,,,,,,,,,,,,,,,,,,,,,,,,,,,,,,,12003,1,2,2024_Jun_09_1440,stroop_task_switching2_b,2021.2.3,60.064713729358736,
condition/block_mixed_b,instruction/instr_mixed,instruction/i10_b,蓝,red,k,diamond,color_mix,颜色,,incompatible,0,,,,,,,,0,2,2,2,0,0,0,0,0,0,0,0,,,,,,,,,,,,,,,,,,,,,218.5149168999924,None,space,10.308217099984176,218.5149168999924,None,229.85001200000988,230.8506549000158,230.8506549000158,231.851588599995,231.851588599995,None,228.8650667000038,229.86493410001276,232.88753380000708,233.1048904999916,233.06973740001558,233.37009310000576,233.37009310000576,None,233.85418280001613,236.85977529999218,None,0,,233.85418280001613,236.85977529999218,236.82559059999767,None,237.39296190001187,None,,,,,,,,,,,,,,,,,,,,,12003,1,2,2024_Jun_09_1440,stroop_task_switching2_b,2021.2.3,60.064713729358736,
condition/block_mixed_b,instruction/instr_mixed,instruction/i10_b,绿,yellow,f,diamond,color_mix,颜色,,incompatible,1,,,,,,,,0,2,2,2,0,0,0,0,0,1,1,1,,,,,,,,,,,,,,,,,,,,,,,,,,,,,,,,,,,238.39445290001458,238.59494929999346,238.57800500001758,238.8788804000069,238.8788804000069,None,239.37967809999827,None,f,1,1.0919507999788038,239.37967809999827,None,None,None,240.4977623000159,None,,,,,,,,,,,,,,,,,,,,,12003,1,2,2024_Jun_09_1440,stroop_task_switching2_b,2021.2.3,60.064713729358736,
condition/block_mixed_b,instruction/instr_mixed,instruction/i10_b,红,green,d,diamond,color_mix,颜色,,incompatible,1,,,,,,,,0,2,2,2,0,0,0,0,0,2,2,2,,,,,,,,,,,,,,,,,,,,,,,,,,,,,,,,,,,241.49976959999185,241.69959020000533,241.68292059999658,241.98328949999996,241.98328949999996,None,242.48394689999986,None,d,1,0.7556632999912836,242.48394689999986,None,None,None,243.28580730000976,None,,,,,,,,,,,,,,,,,,,,,12003,1,2,2024_Jun_09_1440,stroop_task_switching2_b,2021.2.3,60.064713729358736,
condition/block_mixed_b,instruction/instr_mixed,instruction/i10_b,蓝,red,k,diamond,color_mix,颜色,,incompatible,1,,,,,,,,0,2,2,2,0,0,0,0,0,3,3,3,,,,,,,,,,,,,,,,,,,,,,,,,,,,,,,,,,,244.28677480001352,244.48684510000749,244.47018420000677,244.7708826000162,244.7708826000162,None,245.2715586000122,None,k,1,0.8003693000064231,245.2715586000122,None,None,None,246.08925200000522,None,,,,,,,,,,,,,,,,,,,,,12003,1,2,2024_Jun_09_1440,stroop_task_switching2_b,2021.2.3,60.064713729358736,
condition/block_mixed_b,instruction/instr_mixed,instruction/i10_b,红,blue,j,diamond,color_mix,颜色,,incompatible,1,,,,,,,,0,2,2,2,0,0,0,0,0,4,4,4,,,,,,,,,,,,,,,,,,,,,,,,,,,,,,,,,,,247.0915723000071,247.2913000000117,247.27550700001302,247.57671039999695,247.57671039999695,None,248.07568480001646,None,j,1,0.7799405000114348,248.07568480001646,None,None,None,248.87706790000084,None,,,,,,,,,,,,,,,,,,,,,12003,1,2,2024_Jun_09_1440,stroop_task_switching2_b,2021.2.3,60.064713729358736,
condition/block_mixed_b,instruction/instr_mixed,instruction/i10_b,红,blue,k,square,color_mix,单词,,incompatible,2,,,,,,,,0,2,2,2,0,0,0,0,0,5,5,5,,,,,,,,,,,,,,,,,,,,,,,,,,,,,,,,,,,249.8783320999937,250.0797215999919,250.06294350000098,250.36291080000228,250.36291080000228,None,250.86444589999155,None,k,1,1.2875733000109904,250.86444589999155,None,None,None,252.18170310001005,None,,,,,,,,,,,,,,,,,,,,,12003,1,2,2024_Jun_09_1440,stroop_task_switching2_b,2021.2.3,60.064713729358736,
condition/block_mixed_b,instruction/instr_mixed,instruction/i10_b,红,yellow,f,diamond,color_mix,颜色,,incompatible,2,,,,,,,,0,2,2,2,0,0,0,0,0,6,6,6,,,,,,,,,,,,,,,,,,,,,,,,,,,,,,,,,,,253.1838600000192,253.38486660001217,253.36699120001867,253.66752360001556,253.66752360001556,None,254.16813219999312,None,j,0,0.9997002000163775,254.16813219999312,None,None,None,255.18655600000056,None,,,,,,,,,,,,,,,,,,,,,12003,1,2,2024_Jun_09_1440,stroop_task_switching2_b,2021.2.3,60.064713729358736,
condition/block_mixed_b,instruction/instr_mixed,instruction/i10_b,红,yellow,k,square,color_mix,单词,,incompatible,2,,,,,,,,0,2,2,2,0,0,0,0,0,7,7,7,,,,,,,,,,,,,,,,,,,,,,,,,,,,,,,,,,,256.1879453000147,256.38916130000143,256.3716252000013,256.67208990000654,256.67208990000654,None,257.1728825000173,None,k,1,2.083203299989691,257.1728825000173,None,None,None,259.2762281000032,None,,,,,,,,,,,,,,,,,,,,,12003,1,2,2024_Jun_09_1440,stroop_task_switching2_b,2021.2.3,60.064713729358736,
condition/block_mixed_b,instruction/instr_mixed,instruction/i10_b,绿,blue,d,square,color_mix,单词,,incompatible,1,,,,,,,,0,2,2,2,0,0,0,0,0,8,8,8,,,,,,,,,,,,,,,,,,,,,,,,,,,,,,,,,,,260.2775743000093,260.4777524000092,260.4612715000112,260.7616209000116,260.7616209000116,None,261.2627495000197,None,d,1,1.033610399987083,261.2627495000197,None,None,None,262.31387790001463,None,,,,,,,,,,,,,,,,,,,,,12003,1,2,2024_Jun_09_1440,stroop_task_switching2_b,2021.2.3,60.064713729358736,
condition/block_mixed_b,instruction/instr_mixed,instruction/i10_b,蓝,green,d,diamond,color_mix,颜色,,incompatible,2,,,,,,,,0,2,2,2,0,0,0,0,0,9,9,9,,,,,,,,,,,,,,,,,,,,,,,,,,,,,,,,,,,263.31543149999925,263.5155858999933,263.4996103000012,263.79934880000656,263.79934880000656,None,264.3009796999977,None,d,1,0.7477154000080191,264.3009796999977,None,None,None,265.0680299999949,None,,,,,,,,,,,,,,,,,,,,,12003,1,2,2024_Jun_09_1440,stroop_task_switching2_b,2021.2.3,60.064713729358736,
condition/block_mixed_b,instruction/instr_mixed,instruction/i10_b,蓝,yellow,j,square,color_mix,单词,,incompatible,2,,,,,,,,0,2,2,2,0,0,0,0,0,10,10,10,,,,,,,,,,,,,,,,,,,,,,,,,,,,,,,,,,,266.06948830001056,266.27086950000376,266.25306839999394,266.5541981999995,266.5541981999995,None,267.054931199993,None,f,0,1.033653399994364,267.054931199993,None,None,None,268.10593049999443,None,,,,,,,,,,,,,,,,,,,,,12003,1,2,2024_Jun_09_1440,stroop_task_switching2_b,2021.2.3,60.064713729358736,
condition/block_mixed_b,instruction/instr_mixed,instruction/i10_b,蓝,green,j,square,color_mix,单词,,incompatible,1,,,,,,,,0,2,2,2,0,0,0,0,0,11,11,11,,,,,,,,,,,,,,,,,,,,,,,,,,,,,,,,,,,269.10752910000156,269.3078252999985,269.2930011000135,269.6082527000108,269.5930898000079,None,270.09239800000796,None,j,1,1.1959630000055768,270.09239800000796,None,None,None,271.31102019999526,None,,,,,,,,,,,,,,,,,,,,,12003,1,2,2024_Jun_09_1440,stroop_task_switching2_b,2021.2.3,60.064713729358736,
condition/block_mixed_b,instruction/instr_mixed,instruction/i10_b,绿,yellow,d,square,color_mix,单词,,incompatible,1,,,,,,,,0,2,2,2,0,0,0,0,0,12,12,12,,,,,,,,,,,,,,,,,,,,,,,,,,,,,,,,,,,272.31210270000156,272.5132978000038,272.4969434000086,272.7965860000113,272.7965860000113,None,273.29720790000283,None,d,1,0.655378000024939,273.29720790000283,None,None,None,273.98189009999624,None,,,,,,,,,,,,,,,,,,,,,12003,1,2,2024_Jun_09_1440,stroop_task_switching2_b,2021.2.3,60.064713729358736,
condition/block_mixed_b,instruction/instr_mixed,instruction/i10_b,绿,blue,j,diamond,color_mix,颜色,,incompatible,2,,,,,,,,0,2,2,2,0,0,0,0,0,13,13,13,,,,,,,,,,,,,,,,,,,,,,,,,,,,,,,,,,,274.98305249999976,275.1832116000005,275.1666913999943,275.4671715000004,275.4671715000004,None,275.96775919999345,None,j,1,1.2009217999875546,275.96775919999345,None,None,None,277.18639049999183,None,,,,,,,,,,,,,,,,,,,,,12003,1,2,2024_Jun_09_1440,stroop_task_switching2_b,2021.2.3,60.064713729358736,
condition/block_mixed_b,instruction/instr_mixed,instruction/i10_b,黄,red,f,square,color_mix,单词,,incompatible,2,,,,,,,,0,2,2,2,0,0,0,0,0,14,14,14,,,,,,,,,,,,,,,,,,,,,,,,,,,,,,,,,,,278.18796820001444,278.3881428000168,278.37330810001004,278.6722258999944,278.6722258999944,None,279.17262100000517,None,f,1,0.9718359999824315,279.17262100000517,None,None,None,280.173767100001,None,,,,,,,,,,,,,,,,,,,,,12003,1,2,2024_Jun_09_1440,stroop_task_switching2_b,2021.2.3,60.064713729358736,
condition/block_mixed_b,instruction/instr_mixed,instruction/i10_b,蓝,yellow,f,diamond,color_mix,颜色,,incompatible,2,,,,,,,,0,2,2,2,0,0,0,0,0,15,15,15,,,,,,,,,,,,,,,,,,,,,,,,,,,,,,,,,,,281.175707300019,281.377057900012,281.35929980000947,281.66125100001227,281.66125100001227,None,282.1602516999992,None,f,1,0.7524390000035055,282.1602516999992,None,None,None,282.9443601999956,None,,,,,,,,,,,,,,,,,,,,,12003,1,2,2024_Jun_09_1440,stroop_task_switching2_b,2021.2.3,60.064713729358736,
condition/block_mixed_b,instruction/instr_mixed,instruction/i10_b,黄,red,k,diamond,color_mix,颜色,,incompatible,1,,,,,,,,0,2,2,2,0,0,0,0,0,16,16,16,,,,,,,,,,,,,,,,,,,,,,,,,,,,,,,,,,,283.9464677000069,284.14688889999525,284.13130840001395,284.43065660001594,284.43065660001594,None,284.93126280000433,None,k,1,0.7735291999997571,284.93126280000433,None,None,None,285.7326553000021,None,,,,,,,,,,,,,,,,,,,,,12003,1,2,2024_Jun_09_1440,stroop_task_switching2_b,2021.2.3,60.064713729358736,
condition/block_mixed_b,instruction/instr_mixed,instruction/i10_b,绿,red,d,square,color_mix,单词,,incompatible,2,,,,,,,,0,2,2,2,0,0,0,0,0,17,17,17,,,,,,,,,,,,,,,,,,,,,,,,,,,,,,,,,,,286.7342241000151,286.935112200008,286.91761940001743,287.2179767000198,287.2179767000198,None,287.71931859999313,None,d,1,0.5694446000270545,287.71931859999313,None,None,None,288.31925699999556,None,,,,,,,,,,,,,,,,,,,,,12003,1,2,2024_Jun_09_1440,stroop_task_switching2_b,2021.2.3,60.064713729358736,
condition/block_mixed_b,instruction/instr_mixed,instruction/i10_b,红,green,k,square,color_mix,单词,,incompatible,1,,,,,,,,0,2,2,2,0,0,0,0,0,18,18,18,,,,,,,,,,,,,,,,,,,,,,,,,,,,,,,,,,,289.32143519999227,289.5219299000164,289.5050545000122,289.80671710000024,289.80671710000024,None,290.3068755000131,None,k,1,0.5422075999958906,290.3068755000131,None,None,None,290.8739018999913,None,,,,,,,,,,,,,,,,,,,,,12003,1,2,2024_Jun_09_1440,stroop_task_switching2_b,2021.2.3,60.064713729358736,
condition/block_mixed_b,instruction/instr_mixed,instruction/i10_b,黄,blue,j,diamond,color_mix,颜色,,incompatible,2,,,,,,,,0,2,2,2,0,0,0,0,0,19,19,19,,,,,,,,,,,,,,,,,,,,,,,,,,,,,,,,,,,291.8753032000095,292.0765713000146,292.05931750001037,292.35914050001884,292.35914050001884,None,292.8600722000119,None,j,1,0.7411367000022437,292.8600722000119,None,None,None,293.62782339999103,None,,,,,,,,,,,,,,,,,,,,,12003,1,2,2024_Jun_09_1440,stroop_task_switching2_b,2021.2.3,60.064713729358736,
condition/block_mixed_b,instruction/instr_mixed,instruction/i10_b,黄,green,d,diamond,color_mix,颜色,,incompatible,1,,,,,,,,0,2,2,2,0,0,0,0,0,20,20,20,,,,,,,,,,,,,,,,,,,,,,,,,,,,,,,,,,,294.6293455999985,294.83050390001154,294.81297800000175,295.1132722000184,295.1132722000184,None,295.61407149999286,None,d,1,0.6510360999964178,295.61407149999286,None,None,None,296.2818238000036,None,,,,,,,,,,,,,,,,,,,,,12003,1,2,2024_Jun_09_1440,stroop_task_switching2_b,2021.2.3,60.064713729358736,
condition/block_mixed_b,instruction/instr_mixed,instruction/i10_b,黄,green,f,square,color_mix,单词,,incompatible,2,,,,,,,,0,2,2,2,0,0,0,0,0,21,21,21,,,,,,,,,,,,,,,,,,,,,,,,,,,,,,,,,,,297.28403559999424,297.4850578000187,297.4668731999991,297.7682374000142,297.7682374000142,None,298.268058000016,None,j,0,1.1570695999835152,298.268058000016,None,None,None,299.4529578000074,None,,,,,,,,,,,,,,,,,,,,,12003,1,2,2024_Jun_09_1440,stroop_task_switching2_b,2021.2.3,60.064713729358736,
condition/block_mixed_b,instruction/instr_mixed,instruction/i10_b,黄,blue,f,square,color_mix,单词,,incompatible,1,,,,,,,,0,2,2,2,0,0,0,0,0,22,22,22,,,,,,,,,,,,,,,,,,,,,,,,,,,,,,,,,,,300.4547717999958,300.6559137000004,300.63838479999686,300.94030580000253,300.94030580000253,None,301.43947680000565,None,f,1,2.0259663999895565,301.43947680000565,None,None,None,303.49300600000424,None,,,,,,,,,,,,,,,,,,,,,12003,1,2,2024_Jun_09_1440,stroop_task_switching2_b,2021.2.3,60.064713729358736,
condition/block_mixed_b,instruction/instr_mixed,instruction/i10_b,蓝,red,j,square,color_mix,单词,,incompatible,1,,,,,,,,0,2,2,2,0,0,0,0,0,23,23,23,,,,,,,,,,,,,,,,,,,,,,,,,,,,,,,,,,,304.49412370001664,304.6945332000032,304.67823770001996,304.97928289999254,304.97928289999254,None,305.47884719999274,None,d,0,2.018685999995796,305.47884719999274,None,None,None,307.51535140001215,None,,,,,,,,,,,,,,,,,,,,,12003,1,2,2024_Jun_09_1440,stroop_task_switching2_b,2021.2.3,60.064713729358736,
condition/block_mixed_b,instruction/instr_mixed,instruction/i10_b,绿,red,k,diamond,color_mix,颜色,,incompatible,2,,,,,,,,0,2,2,2,0,0,0,0,0,24,24,24,,,,,,,,,,,,,,,,,,,,,,,,,,,,,,,,,,,308.51683649999904,308.71737349999603,308.7003866000159,309.00243220000993,309.00243220000993,None,309.50159440000425,None,k,1,1.6919639999978244,309.50159440000425,None,None,None,311.2208679000032,None,,,,,,,,,,,,,,,,,,,,,12003,1,2,2024_Jun_09_1440,stroop_task_switching2_b,2021.2.3,60.064713729358736,
condition/block_mixed_b,instruction/instr_mixed,instruction/i10_b,绿,green,d,diamond,color_mix,颜色,,compatible,1,,,,,,,,0,2,2,2,0,0,0,0,0,25,25,25,,,,,,,,,,,,,,,,,,,,,,,,,,,,,,,,,,,312.22263780000503,312.4227009000024,312.40791740000714,312.7232187000045,312.7086887000187,None,313.224115399993,None,d,1,0.8978842999786139,313.224115399993,None,None,None,314.14197329999297,None,,,,,,,,,,,,,,,,,,,,,12003,1,2,2024_Jun_09_1440,stroop_task_switching2_b,2021.2.3,60.064713729358736,
condition/block_mixed_b,instruction/instr_mixed,instruction/i10_b,蓝,blue,j,diamond,color_mix,颜色,,compatible,1,,,,,,,,0,2,2,2,0,0,0,0,0,26,26,26,,,,,,,,,,,,,,,,,,,,,,,,,,,,,,,,,,,315.14345950001734,315.34381200000644,315.3290432000067,315.6275717999961,315.6275717999961,None,316.1283401999972,None,j,1,0.88963820002391,316.1283401999972,None,None,None,317.04618180001853,None,,,,,,,,,,,,,,,,,,,,,12003,1,2,2024_Jun_09_1440,stroop_task_switching2_b,2021.2.3,60.064713729358736,
condition/block_mixed_b,instruction/instr_mixed,instruction/i10_b,绿,green,d,square,color_mix,单词,,compatible,2,,,,,,,,0,2,2,2,0,0,0,0,0,27,27,27,,,,,,,,,,,,,,,,,,,,,,,,,,,,,,,,,,,318.0479100999946,318.2494737000088,318.2314444000076,318.532952700014,318.532952700014,None,319.03317350000725,None,d,1,0.6169343999936245,319.03317350000725,None,None,None,319.6672375999915,None,,,,,,,,,,,,,,,,,,,,,12003,1,2,2024_Jun_09_1440,stroop_task_switching2_b,2021.2.3,60.064713729358736,
condition/block_mixed_b,instruction/instr_mixed,instruction/i10_b,绿,green,d,square,color_mix,单词,,compatible,1,,,,,,,,0,2,2,2,0,0,0,0,0,28,28,28,,,,,,,,,,,,,,,,,,,,,,,,,,,,,,,,,,,320.6693438999937,320.8708668000181,320.85237010000856,321.15259300000616,321.15259300000616,None,321.65339769999264,None,d,1,0.9484722999914084,321.65339769999264,None,None,None,322.62136419999297,None,,,,,,,,,,,,,,,,,,,,,12003,1,2,2024_Jun_09_1440,stroop_task_switching2_b,2021.2.3,60.064713729358736,
condition/block_mixed_b,instruction/instr_mixed,instruction/i10_b,蓝,blue,j,square,color_mix,单词,,compatible,1,,,,,,,,0,2,2,2,0,0,0,0,0,29,29,29,,,,,,,,,,,,,,,,,,,,,,,,,,,,,,,,,,,323.6227646000043,323.82428170001367,323.80653620001976,324.1080370999989,324.1080370999989,None,324.6078495999973,None,j,1,1.290061899984721,324.6078495999973,None,None,None,325.926394900016,None,,,,,,,,,,,,,,,,,,,,,12003,1,2,2024_Jun_09_1440,stroop_task_switching2_b,2021.2.3,60.064713729358736,
condition/block_mixed_b,instruction/instr_mixed,instruction/i10_b,黄,yellow,f,diamond,color_mix,颜色,,compatible,2,,,,,,,,0,2,2,2,0,0,0,0,0,30,30,30,,,,,,,,,,,,,,,,,,,,,,,,,,,,,,,,,,,326.92898699999205,327.12824580000597,327.1125463999924,327.4126669999969,327.4126669999969,None,327.91288590000477,None,f,1,1.7612247999932151,327.91288590000477,None,None,None,329.698741900007,None,,,,,,,,,,,,,,,,,,,,,12003,1,2,2024_Jun_09_1440,stroop_task_switching2_b,2021.2.3,60.064713729358736,
condition/block_mixed_b,instruction/instr_mixed,instruction/i10_b,绿,green,d,square,color_mix,单词,,compatible,2,,,,,,,,0,2,2,2,0,0,0,0,0,31,31,31,,,,,,,,,,,,,,,,,,,,,,,,,,,,,,,,,,,330.7003140000161,330.90063600000576,330.88591010001255,331.1843187000195,331.1843187000195,None,331.68551390001085,None,d,1,0.6446565999940503,331.68551390001085,None,None,None,332.3531073000049,None,,,,,,,,,,,,,,,,,,,,,12003,1,2,2024_Jun_09_1440,stroop_task_switching2_b,2021.2.3,60.064713729358736,
condition/block_mixed_b,instruction/instr_mixed,instruction/i10_b,黄,yellow,f,square,color_mix,单词,,compatible,1,,,,,,,,0,2,2,2,0,0,0,0,0,32,32,32,,,,,,,,,,,,,,,,,,,,,,,,,,,,,,,,,,,333.35413930000504,333.555073800002,333.5377940000035,333.8401087000093,333.8401087000093,None,334.3395175000187,None,f,1,0.5905843999935314,334.3395175000187,None,None,None,334.9567992000084,None,,,,,,,,,,,,,,,,,,,,,12003,1,2,2024_Jun_09_1440,stroop_task_switching2_b,2021.2.3,60.064713729358736,
condition/block_mixed_b,instruction/instr_mixed,instruction/i10_b,绿,green,d,diamond,color_mix,颜色,,compatible,2,,,,,,,,0,2,2,2,0,0,0,0,0,33,33,33,,,,,,,,,,,,,,,,,,,,,,,,,,,,,,,,,,,335.9581681000127,336.15872380000656,336.1430946000037,336.4423039999965,336.4423039999965,None,336.9435071000189,None,d,1,0.6348056999850087,336.9435071000189,None,None,None,337.5940685000096,None,,,,,,,,,,,,,,,,,,,,,12003,1,2,2024_Jun_09_1440,stroop_task_switching2_b,2021.2.3,60.064713729358736,
condition/block_mixed_b,instruction/instr_mixed,instruction/i10_b,红,red,k,square,color_mix,单词,,compatible,2,,,,,,,,0,2,2,2,0,0,0,0,0,34,34,34,,,,,,,,,,,,,,,,,,,,,,,,,,,,,,,,,,,338.59560130001046,338.79811520001385,338.7795781000168,339.0799368000007,339.0799368000007,None,339.5809808000049,None,k,1,0.6373586000117939,339.5809808000049,None,None,None,340.247952900012,None,,,,,,,,,,,,,,,,,,,,,12003,1,2,2024_Jun_09_1440,stroop_task_switching2_b,2021.2.3,60.064713729358736,
condition/block_mixed_b,instruction/instr_mixed,instruction/i10_b,黄,yellow,f,square,color_mix,单词,,compatible,1,,,,,,,,0,2,2,2,0,0,0,0,0,35,35,35,,,,,,,,,,,,,,,,,,,,,,,,,,,,,,,,,,,341.24955880001653,341.45103230001405,341.43300859999727,341.7344976000022,341.7344976000022,None,342.2342999000102,None,j,0,0.9600395000015851,342.2342999000102,None,None,None,343.2192648999917,None,,,,,,,,,,,,,,,,,,,,,12003,1,2,2024_Jun_09_1440,stroop_task_switching2_b,2021.2.3,60.064713729358736,
condition/block_mixed_b,instruction/instr_mixed,instruction/i10_b,绿,green,d,diamond,color_mix,颜色,,compatible,2,,,,,,,,0,2,2,2,0,0,0,0,0,36,36,36,,,,,,,,,,,,,,,,,,,,,,,,,,,,,,,,,,,344.2209870000079,344.4209327000135,344.4056722999958,344.7071097000153,344.7071097000153,None,345.22262660000706,None,d,1,1.1317110999953002,345.22262660000706,None,None,None,346.3738955000008,None,,,,,,,,,,,,,,,,,,,,,12003,1,2,2024_Jun_09_1440,stroop_task_switching2_b,2021.2.3,60.064713729358736,
condition/block_mixed_b,instruction/instr_mixed,instruction/i10_b,蓝,blue,j,square,color_mix,单词,,compatible,2,,,,,,,,0,2,2,2,0,0,0,0,0,37,37,37,,,,,,,,,,,,,,,,,,,,,,,,,,,,,,,,,,,347.37721249999595,347.57571299999836,347.55966170001193,347.8607281000004,347.8607281000004,None,348.36033140000654,None,j,1,1.5148721000005025,348.36033140000654,None,None,None,349.89588610001374,None,,,,,,,,,,,,,,,,,,,,,12003,1,2,2024_Jun_09_1440,stroop_task_switching2_b,2021.2.3,60.064713729358736,
condition/block_mixed_b,instruction/instr_mixed,instruction/i10_b,红,red,k,square,color_mix,单词,,compatible,1,,,,,,,,0,2,2,2,0,0,0,0,0,38,38,38,,,,,,,,,,,,,,,,,,,,,,,,,,,,,,,,,,,350.89753370001563,351.09778549999464,351.0810499000072,351.3823260999925,351.3823260999925,None,351.8823103000177,None,k,1,0.6884488000068814,351.8823103000177,None,None,None,352.59973810001975,None,,,,,,,,,,,,,,,,,,,,,12003,1,2,2024_Jun_09_1440,stroop_task_switching2_b,2021.2.3,60.064713729358736,
condition/block_mixed_b,instruction/instr_mixed,instruction/i10_b,黄,yellow,f,diamond,color_mix,颜色,,compatible,2,,,,,,,,0,2,2,2,0,0,0,0,0,39,39,39,,,,,,,,,,,,,,,,,,,,,,,,,,,,,,,,,,,353.6015863000066,353.8017271000135,353.7854264000198,354.0866847000143,354.0866847000143,None,354.58636119999574,None,f,1,1.008291999984067,354.58636119999574,None,None,None,355.62130030000117,None,,,,,,,,,,,,,,,,,,,,,12003,1,2,2024_Jun_09_1440,stroop_task_switching2_b,2021.2.3,60.064713729358736,
condition/block_mixed_b,instruction/instr_mixed,instruction/i10_b,黄,yellow,f,square,color_mix,单词,,compatible,2,,,,,,,,0,2,2,2,0,0,0,0,0,40,40,40,,,,,,,,,,,,,,,,,,,,,,,,,,,,,,,,,,,356.6234841000114,356.8229085000057,356.8069905000157,357.1073483999935,357.1073483999935,None,357.60739610000746,None,f,1,0.74041609998676,357.60739610000746,None,None,None,358.37531780000427,None,,,,,,,,,,,,,,,,,,,,,12003,1,2,2024_Jun_09_1440,stroop_task_switching2_b,2021.2.3,60.064713729358736,
condition/block_mixed_b,instruction/instr_mixed,instruction/i10_b,蓝,blue,j,square,color_mix,单词,,compatible,1,,,,,,,,0,2,2,2,0,0,0,0,0,41,41,41,,,,,,,,,,,,,,,,,,,,,,,,,,,,,,,,,,,359.37693230001605,359.57877220000955,359.56059770000866,359.86090759999934,359.86090759999934,None,360.3616150000016,None,j,1,2.041387700010091,360.3616150000016,None,None,None,362.43144780001603,None,,,,,,,,,,,,,,,,,,,,,12003,1,2,2024_Jun_09_1440,stroop_task_switching2_b,2021.2.3,60.064713729358736,
condition/block_mixed_b,instruction/instr_mixed,instruction/i10_b,蓝,blue,j,diamond,color_mix,颜色,,compatible,2,,,,,,,,0,2,2,2,0,0,0,0,0,42,42,42,,,,,,,,,,,,,,,,,,,,,,,,,,,,,,,,,,,363.4330338000145,363.63325840001926,363.6165682999999,363.9183359000017,363.9183359000017,None,364.418899900018,None,j,1,1.4011323000013363,364.418899900018,None,None,None,365.83635570001206,None,,,,,,,,,,,,,,,,,,,,,12003,1,2,2024_Jun_09_1440,stroop_task_switching2_b,2021.2.3,60.064713729358736,
condition/block_mixed_b,instruction/instr_mixed,instruction/i10_b,黄,yellow,f,diamond,color_mix,颜色,,compatible,1,,,,,,,,0,2,2,2,0,0,0,0,0,43,43,43,,,,,,,,,,,,,,,,,,,,,,,,,,,,,,,,,,,366.8380932,367.0391360000067,367.02176130001317,367.3222428000008,367.3222428000008,None,367.8230254999944,None,f,1,1.2759237999853212,367.8230254999944,None,None,None,369.12480200000573,None,,,,,,,,,,,,,,,,,,,,,12003,1,2,2024_Jun_09_1440,stroop_task_switching2_b,2021.2.3,60.064713729358736,
condition/block_mixed_b,instruction/instr_mixed,instruction/i10_b,红,red,k,diamond,color_mix,颜色,,compatible,1,,,,,,,,0,2,2,2,0,0,0,0,0,44,44,44,,,,,,,,,,,,,,,,,,,,,,,,,,,,,,,,,,,370.1264241000172,370.328085599991,370.30998270001146,370.61169849999715,370.61169849999715,None,371.11123539999244,None,k,1,0.8358655000047293,371.11123539999244,None,None,None,371.97923060000176,None,,,,,,,,,,,,,,,,,,,,,12003,1,2,2024_Jun_09_1440,stroop_task_switching2_b,2021.2.3,60.064713729358736,
condition/block_mixed_b,instruction/instr_mixed,instruction/i10_b,蓝,blue,j,diamond,color_mix,颜色,,compatible,1,,,,,,,,0,2,2,2,0,0,0,0,0,45,45,45,,,,,,,,,,,,,,,,,,,,,,,,,,,,,,,,,,,372.98064920000616,373.1825844999985,373.1642276000057,373.4653077000112,373.4653077000112,None,373.96570339999744,None,j,1,0.5975773999816738,373.96570339999744,None,None,None,374.5831839000166,None,,,,,,,,,,,,,,,,,,,,,12003,1,2,2024_Jun_09_1440,stroop_task_switching2_b,2021.2.3,60.064713729358736,
condition/block_mixed_b,instruction/instr_mixed,instruction/i10_b,红,red,k,diamond,color_mix,颜色,,compatible,1,,,,,,,,0,2,2,2,0,0,0,0,0,46,46,46,,,,,,,,,,,,,,,,,,,,,,,,,,,,,,,,,,,375.584752499999,375.7855503000028,375.7682567000156,376.0687858000165,376.0687858000165,None,376.5694840000069,None,k,1,0.5620781000179704,376.5694840000069,None,None,None,377.1537607999926,None,,,,,,,,,,,,,,,,,,,,,12003,1,2,2024_Jun_09_1440,stroop_task_switching2_b,2021.2.3,60.064713729358736,
condition/block_mixed_b,instruction/instr_mixed,instruction/i10_b,红,red,k,square,color_mix,单词,,compatible,2,,,,,,,,0,2,2,2,0,0,0,0,0,47,47,47,,,,,,,,,,,,,,,,,,,,,,,,,,,,,,,,,,,378.15561909999815,378.3555658000114,378.34131710001384,378.65717710001627,378.639319000009,None,379.13994680001633,None,k,1,0.6633316999941599,379.13994680001633,None,None,None,379.8242609000008,None,,,,,,,,,,,,,,,,,,,,,12003,1,2,2024_Jun_09_1440,stroop_task_switching2_b,2021.2.3,60.064713729358736,
condition/block_mixed_b,instruction/instr_mixed,instruction/i10_b,红,red,k,diamond,color_mix,颜色,,compatible,2,,,,,,,,0,2,2,2,0,0,0,0,0,48,48,48,,,,,,,,,,,,,,,,,,,,,,,,,,,,,,,,,,,380.82622350001475,381.0267494000145,381.01076470001135,381.3099986000161,381.3099986000161,None,381.81073739999556,None,k,1,0.6086808999825735,381.81073739999556,None,None,None,382.44505490001757,None,,,,,,,,,,,,,,,,,,,,,12003,1,2,2024_Jun_09_1440,stroop_task_switching2_b,2021.2.3,60.064713729358736,
condition/block_mixed_b,instruction/instr_mixed,instruction/i10_b,,,,,,,,,,,,,,,,,0,2,2,2,0,0,0,0,,,,,,,,,,,,,,,,,,,,,,,,,,,,,,,,,,,,,,,,,,,,,,,,,,,,,,,,383.44638949999353,None,space,49.30285310000181,383.44638949999353,None,,,,,,,,,,,,,,,12003,1,2,2024_Jun_09_1440,stroop_task_switching2_b,2021.2.3,60.064713729358736,
condition/block_mixed_b,instruction/instr_mixed,instruction/i10_b,,,,,,,,,,,,,,,,,0,2,2,2,,,,,,,,,,,,,,,,,,,,,,,,,,,,,,,,,,,,,,,,,,,,,,,,,,,,,,,,,,,,,,,,,,,,,,,,,,,,,,,,12003,1,2,2024_Jun_09_1440,stroop_task_switching2_b,2021.2.3,60.064713729358736,
,,,红,red,k,square,color_mix,单词,,compatible,0,block_switch1_b,instruction/ready_test.png,instruction/i11.png,,,,,,,,,,,,,,,,,0,0,0,0,0,0,0,0,,,,,,,,,,,,,,,,,,,438.6461613000138,439.64807049999945,439.64807049999945,440.6508990000002,440.6508990000002,None,437.66166169999633,438.6637910999998,441.6675044000149,441.8679184000066,441.8679184000066,442.1684375000186,442.1684375000186,None,442.6691162000061,None,k,1,0.5439271999930497,442.6691162000061,None,None,None,,,,,,,,,432.80453680001665,None,space,4.8325605999853,432.80453680001665,None,,,,,,,,,12003,1,2,2024_Jun_09_1440,stroop_task_switching2_b,2021.2.3,60.064713729358736,
,,,绿,green,d,diamond,color_mix,颜色,,compatible,2,block_switch1_b,instruction/ready_test.png,instruction/i11.png,,,,,,,,,,,,,,,,,0,0,0,0,0,1,1,1,,,,,,,,,,,,,,,,,,,,,,,,,,,443.26999170001363,443.4721911000088,443.42027910001343,443.7214726000093,443.7214726000093,None,444.2218797999958,None,d,1,0.6393926999880932,444.2218797999958,None,None,None,,,,,,,,,,,,,,,,,,,,,,,12003,1,2,2024_Jun_09_1440,stroop_task_switching2_b,2021.2.3,60.064713729358736,
,,,绿,yellow,f,diamond,color_mix,颜色,,incompatible,1,block_switch1_b,instruction/ready_test.png,instruction/i11.png,,,,,,,,,,,,,,,,,0,0,0,0,0,2,2,2,,,,,,,,,,,,,,,,,,,,,,,,,,,444.88890280001215,445.0895589000138,445.07442119999905,445.37381150000147,445.37381150000147,None,445.87423640000634,None,d,0,0.8270040999923367,445.87423640000634,None,None,None,,,,,,,,,,,,,,,,,,,,,,,12003,1,2,2024_Jun_09_1440,stroop_task_switching2_b,2021.2.3,60.064713729358736,
,,,蓝,blue,j,diamond,color_mix,颜色,,compatible,1,block_switch1_b,instruction/ready_test.png,instruction/i11.png,,,,,,,,,,,,,,,,,0,0,0,0,0,3,3,3,,,,,,,,,,,,,,,,,,,,,,,,,,,446.7252237999928,446.9254374000011,446.9088944999967,447.20942980001564,447.20942980001564,None,447.71003670000937,None,f,0,1.2954216999933124,447.71003670000937,None,None,None,,,,,,,,,,,,,,,,,,,,,,,12003,1,2,2024_Jun_09_1440,stroop_task_switching2_b,2021.2.3,60.064713729358736,
,,,绿,green,d,square,color_mix,单词,,compatible,2,block_switch1_b,instruction/ready_test.png,instruction/i11.png,,,,,,,,,,,,,,,,,0,0,0,0,0,4,4,4,,,,,,,,,,,,,,,,,,,,,,,,,,,449.0288359000115,449.2291642999917,449.21273010000004,449.51266969999415,449.51266969999415,None,450.0134459999972,None,d,1,1.553158099995926,450.0134459999972,None,None,None,,,,,,,,,,,,,,,,,,,,,,,12003,1,2,2024_Jun_09_1440,stroop_task_switching2_b,2021.2.3,60.064713729358736,
,,,绿,blue,j,diamond,color_mix,颜色,,incompatible,2,block_switch1_b,instruction/ready_test.png,instruction/i11.png,,,,,,,,,,,,,,,,,0,0,0,0,0,5,5,5,,,,,,,,,,,,,,,,,,,,,,,,,,,451.58260009999503,451.78485339999315,451.7666059000185,452.0674958000018,452.0674958000018,None,452.5677421000146,None,j,1,1.0455918999796268,452.5677421000146,None,None,None,,,,,,,,,,,,,,,,,,,,,,,12003,1,2,2024_Jun_09_1440,stroop_task_switching2_b,2021.2.3,60.064713729358736,
,,,黄,red,f,square,color_mix,单词,,incompatible,2,block_switch1_b,instruction/ready_test.png,instruction/i11.png,,,,,,,,,,,,,,,,,0,0,0,0,0,6,6,6,,,,,,,,,,,,,,,,,,,,,,,,,,,453.6357920000155,453.8367993000138,453.8193056000164,454.1202765000053,454.1202765000053,None,454.62046830001054,None,f,1,0.7368868000048678,454.62046830001054,None,None,None,,,,,,,,,,,,,,,,,,,,,,,12003,1,2,2024_Jun_09_1440,stroop_task_switching2_b,2021.2.3,60.064713729358736,
,,,绿,green,d,square,color_mix,单词,,compatible,1,block_switch1_b,instruction/ready_test.png,instruction/i11.png,,,,,,,,,,,,,,,,,0,0,0,0,0,7,7,7,,,,,,,,,,,,,,,,,,,,,,,,,,,455.3881981000013,455.5887874000182,455.5719166000199,455.872425700014,455.872425700014,None,456.37330289999954,None,d,1,1.0498100999975577,456.37330289999954,None,None,None,,,,,,,,,,,,,,,,,,,,,,,12003,1,2,2024_Jun_09_1440,stroop_task_switching2_b,2021.2.3,60.064713729358736,
,,,蓝,blue,j,square,color_mix,单词,,compatible,1,block_switch1_b,instruction/ready_test.png,instruction/i11.png,,,,,,,,,,,,,,,,,0,0,0,0,0,8,8,8,,,,,,,,,,,,,,,,,,,,,,,,,,,457.4414265000087,457.6430376000062,457.62527260000934,457.92616970001836,457.92616970001836,None,458.4262873000116,None,f,0,1.5398747000144795,458.4262873000116,None,None,None,,,,,,,,,,,,,,,,,,,,,,,12003,1,2,2024_Jun_09_1440,stroop_task_switching2_b,2021.2.3,60.064713729358736,
,,,红,red,k,diamond,color_mix,颜色,,compatible,2,block_switch1_b,instruction/ready_test.png,instruction/i11.png,,,,,,,,,,,,,,,,,0,0,0,0,0,9,9,9,,,,,,,,,,,,,,,,,,,,,,,,,,,460.0126070000115,460.2121957000054,460.178857699997,460.4814147000143,460.4814147000143,None,460.98111280001467,None,k,1,0.9846195999998599,460.98111280001467,None,None,None,,,,,,,,,,,,,,,,,,,,,,,12003,1,2,2024_Jun_09_1440,stroop_task_switching2_b,2021.2.3,60.064713729358736,
,,,黄,yellow,f,diamond,color_mix,颜色,,compatible,1,block_switch1_b,instruction/ready_test.png,instruction/i11.png,,,,,,,,,,,,,,,,,0,0,0,0,0,10,10,10,,,,,,,,,,,,,,,,,,,,,,,,,,,461.98144820000743,462.1819201000035,462.16585819999455,462.46581819999847,462.46581819999847,None,462.9667555000051,None,f,1,2.0228426000103354,462.9667555000051,None,None,None,,,,,,,,,,,,,,,,,,,,,,,12003,1,2,2024_Jun_09_1440,stroop_task_switching2_b,2021.2.3,60.064713729358736,
,,,绿,green,d,square,color_mix,单词,,compatible,2,block_switch1_b,instruction/ready_test.png,instruction/i11.png,,,,,,,,,,,,,,,,,0,0,0,0,0,11,11,11,,,,,,,,,,,,,,,,,,,,,,,,,,,465.0364222000062,465.23652130001574,465.2033110000193,465.5040261000104,465.5040261000104,None,466.0044268000056,None,d,1,0.7214490000042133,466.0044268000056,None,None,None,,,,,,,,,,,,,,,,,,,,,,,12003,1,2,2024_Jun_09_1440,stroop_task_switching2_b,2021.2.3,60.064713729358736,
,,,红,red,k,diamond,color_mix,颜色,,compatible,2,block_switch1_b,instruction/ready_test.png,instruction/i11.png,,,,,,,,,,,,,,,,,0,0,0,0,0,12,12,12,,,,,,,,,,,,,,,,,,,,,,,,,,,466.75537180001265,466.95598510000855,466.94054040001356,467.239567600016,467.239567600016,None,467.7403731000086,None,k,1,0.5855843999888748,467.7403731000086,None,None,None,,,,,,,,,,,,,,,,,,,,,,,12003,1,2,2024_Jun_09_1440,stroop_task_switching2_b,2021.2.3,60.064713729358736,
,,,红,red,k,diamond,color_mix,颜色,,compatible,1,block_switch1_b,instruction/ready_test.png,instruction/i11.png,,,,,,,,,,,,,,,,,0,0,0,0,0,13,13,13,,,,,,,,,,,,,,,,,,,,,,,,,,,468.34134760001325,468.541599499993,468.52571620000526,468.8259229999967,468.8259229999967,None,469.32715329999337,None,k,1,0.54295319999801,469.32715329999337,None,None,None,,,,,,,,,,,,,,,,,,,,,,,12003,1,2,2024_Jun_09_1440,stroop_task_switching2_b,2021.2.3,60.064713729358736,
,,,黄,yellow,f,square,color_mix,单词,,compatible,2,block_switch1_b,instruction/ready_test.png,instruction/i11.png,,,,,,,,,,,,,,,,,0,0,0,0,0,14,14,14,,,,,,,,,,,,,,,,,,,,,,,,,,,469.893438900006,470.0940141000028,470.07724680000683,470.3777088999923,470.3777088999923,None,470.8793063000194,None,f,1,1.1990231999952812,470.8793063000194,None,None,None,,,,,,,,,,,,,,,,,,,,,,,12003,1,2,2024_Jun_09_1440,stroop_task_switching2_b,2021.2.3,60.064713729358736,
,,,红,green,d,diamond,color_mix,颜色,,incompatible,2,block_switch1_b,instruction/ready_test.png,instruction/i11.png,,,,,,,,,,,,,,,,,0,0,0,0,0,15,15,15,,,,,,,,,,,,,,,,,,,,,,,,,,,472.0967571999936,472.29724020001595,472.2825400000147,472.597534200002,472.58230720000574,None,473.081875200005,None,d,1,1.1562487999908626,473.081875200005,None,None,None,,,,,,,,,,,,,,,,,,,,,,,12003,1,2,2024_Jun_09_1440,stroop_task_switching2_b,2021.2.3,60.064713729358736,
,,,蓝,red,k,diamond,color_mix,颜色,,incompatible,1,block_switch1_b,instruction/ready_test.png,instruction/i11.png,,,,,,,,,,,,,,,,,0,0,0,0,0,16,16,16,,,,,,,,,,,,,,,,,,,,,,,,,,,474.28407339999103,474.4837771000166,474.4511515000195,474.75164200001745,474.75164200001745,None,475.25199799999245,None,k,1,0.9541290999914054,475.25199799999245,None,None,None,,,,,,,,,,,,,,,,,,,,,,,12003,1,2,2024_Jun_09_1440,stroop_task_switching2_b,2021.2.3,60.064713729358736,
,,,黄,green,d,diamond,color_mix,颜色,,incompatible,1,block_switch1_b,instruction/ready_test.png,instruction/i11.png,,,,,,,,,,,,,,,,,0,0,0,0,0,17,17,17,,,,,,,,,,,,,,,,,,,,,,,,,,,476.25416670000413,476.4532887999958,476.42070849999436,476.72136280001723,476.72136280001723,None,477.22112580001703,None,d,1,0.9049145000171848,477.22112580001703,None,None,None,,,,,,,,,,,,,,,,,,,,,,,12003,1,2,2024_Jun_09_1440,stroop_task_switching2_b,2021.2.3,60.064713729358736,
,,,绿,green,d,diamond,color_mix,颜色,,compatible,1,block_switch1_b,instruction/ready_test.png,instruction/i11.png,,,,,,,,,,,,,,,,,0,0,0,0,0,18,18,18,,,,,,,,,,,,,,,,,,,,,,,,,,,478.15587320001214,478.3565391000011,478.3406681000197,478.64002130000154,478.64002130000154,None,479.1408361000067,None,d,1,0.6334585000004154,479.1408361000067,None,None,None,,,,,,,,,,,,,,,,,,,,,,,12003,1,2,2024_Jun_09_1440,stroop_task_switching2_b,2021.2.3,60.064713729358736,
,,,黄,red,k,diamond,color_mix,颜色,,incompatible,1,block_switch1_b,instruction/ready_test.png,instruction/i11.png,,,,,,,,,,,,,,,,,0,0,0,0,0,19,19,19,,,,,,,,,,,,,,,,,,,,,,,,,,,479.79183440000634,479.9931884999969,479.9753413000144,480.2769580000022,480.2769580000022,None,480.7766118000145,None,k,1,0.7654667000169866,480.7766118000145,None,None,None,,,,,,,,,,,,,,,,,,,,,,,12003,1,2,2024_Jun_09_1440,stroop_task_switching2_b,2021.2.3,60.064713729358736,
,,,绿,yellow,d,square,color_mix,单词,,incompatible,2,block_switch1_b,instruction/ready_test.png,instruction/i11.png,,,,,,,,,,,,,,,,,0,0,0,0,0,20,20,20,,,,,,,,,,,,,,,,,,,,,,,,,,,481.56125440000324,481.76149920001626,481.74468590001925,482.0474641000037,482.0474641000037,None,482.56274960000883,None,d,1,0.731371300003957,482.56274960000883,None,None,None,,,,,,,,,,,,,,,,,,,,,,,12003,1,2,2024_Jun_09_1440,stroop_task_switching2_b,2021.2.3,60.064713729358736,
,,,绿,yellow,f,diamond,color_mix,颜色,,incompatible,2,block_switch1_b,instruction/ready_test.png,instruction/i11.png,,,,,,,,,,,,,,,,,0,0,0,0,0,21,21,21,,,,,,,,,,,,,,,,,,,,,,,,,,,483.3137634000159,483.5159682999947,483.49771840000176,483.79933480001637,483.79933480001637,None,484.29853689999436,None,f,1,1.0758258000132628,484.29853689999436,None,None,None,,,,,,,,,,,,,,,,,,,,,,,12003,1,2,2024_Jun_09_1440,stroop_task_switching2_b,2021.2.3,60.064713729358736,
,,,绿,green,d,square,color_mix,单词,,compatible,2,block_switch1_b,instruction/ready_test.png,instruction/i11.png,,,,,,,,,,,,,,,,,0,0,0,0,0,22,22,22,,,,,,,,,,,,,,,,,,,,,,,,,,,485.4002915000019,485.6016649999947,485.58392580001964,485.8850653000118,485.8850653000118,None,486.3861009000102,None,d,1,1.380668500001775,486.3861009000102,None,None,None,,,,,,,,,,,,,,,,,,,,,,,12003,1,2,2024_Jun_09_1440,stroop_task_switching2_b,2021.2.3,60.064713729358736,
,,,红,red,k,square,color_mix,单词,,compatible,1,block_switch1_b,instruction/ready_test.png,instruction/i11.png,,,,,,,,,,,,,,,,,0,0,0,0,0,23,23,23,,,,,,,,,,,,,,,,,,,,,,,,,,,487.78714130001026,487.98730440001236,487.97091850001016,488.27168840001104,488.27168840001104,None,488.7720867000171,None,k,1,1.0909457000088878,488.7720867000171,None,None,None,,,,,,,,,,,,,,,,,,,,,,,12003,1,2,2024_Jun_09_1440,stroop_task_switching2_b,2021.2.3,60.064713729358736,
,,,黄,green,f,square,color_mix,单词,,incompatible,1,block_switch1_b,instruction/ready_test.png,instruction/i11.png,,,,,,,,,,,,,,,,,0,0,0,0,0,24,24,24,,,,,,,,,,,,,,,,,,,,,,,,,,,489.8903571999981,490.091849599994,490.0742418000009,490.37439730000915,490.37439730000915,None,490.87529510000604,None,f,1,2.571196200005943,490.87529510000604,None,None,None,,,,,,,,,,,,,,,,,,,,,,,12003,1,2,2024_Jun_09_1440,stroop_task_switching2_b,2021.2.3,60.064713729358736,
,,,红,blue,k,square,color_mix,单词,,incompatible,1,block_switch1_b,instruction/ready_test.png,instruction/i11.png,,,,,,,,,,,,,,,,,0,0,0,0,0,25,25,25,,,,,,,,,,,,,,,,,,,,,,,,,,,493.4624272999936,493.66255120001733,493.64725650000037,493.9464957000164,493.9464957000164,None,494.44721400001436,None,k,1,1.2798474000010174,494.44721400001436,None,None,None,,,,,,,,,,,,,,,,,,,,,,,12003,1,2,2024_Jun_09_1440,stroop_task_switching2_b,2021.2.3,60.064713729358736,
,,,黄,yellow,f,square,color_mix,单词,,compatible,1,block_switch1_b,instruction/ready_test.png,instruction/i11.png,,,,,,,,,,,,,,,,,0,0,0,0,0,26,26,26,,,,,,,,,,,,,,,,,,,,,,,,,,,495.74945319999824,495.9512492000067,495.933142599999,496.234145800001,496.234145800001,None,496.73396499999217,None,f,1,0.8649863000027835,496.73396499999217,None,None,None,,,,,,,,,,,,,,,,,,,,,,,12003,1,2,2024_Jun_09_1440,stroop_task_switching2_b,2021.2.3,60.064713729358736,
,,,蓝,green,j,square,color_mix,单词,,incompatible,1,block_switch1_b,instruction/ready_test.png,instruction/i11.png,,,,,,,,,,,,,,,,,0,0,0,0,0,27,27,27,,,,,,,,,,,,,,,,,,,,,,,,,,,497.6187879999925,497.8196769999922,497.8023505000165,498.1049017000187,498.1049017000187,None,498.6036282000132,None,j,1,1.6032000000122935,498.6036282000132,None,None,None,,,,,,,,,,,,,,,,,,,,,,,12003,1,2,2024_Jun_09_1440,stroop_task_switching2_b,2021.2.3,60.064713729358736,
,,,绿,green,d,diamond,color_mix,颜色,,compatible,2,block_switch1_b,instruction/ready_test.png,instruction/i11.png,,,,,,,,,,,,,,,,,0,0,0,0,0,28,28,28,,,,,,,,,,,,,,,,,,,,,,,,,,,500.2230755999917,500.4244095000031,500.40685430000303,500.70746239999426,500.70746239999426,None,501.20738189999247,None,d,1,0.7435293000016827,501.20738189999247,None,None,None,,,,,,,,,,,,,,,,,,,,,,,12003,1,2,2024_Jun_09_1440,stroop_task_switching2_b,2021.2.3,60.064713729358736,
,,,黄,blue,j,diamond,color_mix,颜色,,incompatible,1,block_switch1_b,instruction/ready_test.png,instruction/i11.png,,,,,,,,,,,,,,,,,0,0,0,0,0,29,29,29,,,,,,,,,,,,,,,,,,,,,,,,,,,501.97559340001317,502.17574490001425,502.15987000000314,502.46033610001905,502.46033610001905,None,502.9605028000078,505.96501650000573,None,0,,502.9605028000078,505.96501650000573,505.947748400009,None,,,,,,,,,,,,,,,,,,,,,,,12003,1,2,2024_Jun_09_1440,stroop_task_switching2_b,2021.2.3,60.064713729358736,
,,,绿,green,d,diamond,color_mix,颜色,,compatible,1,block_switch1_b,instruction/ready_test.png,instruction/i11.png,,,,,,,,,,,,,,,,,0,0,0,0,0,30,30,30,,,,,,,,,,,,,,,,,,,,,,,,,,,506.53219729999546,506.73447940000915,506.7158480999933,507.0163787000056,507.0163787000056,None,507.51690740001504,None,d,1,0.8741180000070017,507.51690740001504,None,None,None,,,,,,,,,,,,,,,,,,,,,,,12003,1,2,2024_Jun_09_1440,stroop_task_switching2_b,2021.2.3,60.064713729358736,
,,,蓝,blue,j,square,color_mix,单词,,compatible,2,block_switch1_b,instruction/ready_test.png,instruction/i11.png,,,,,,,,,,,,,,,,,0,0,0,0,0,31,31,31,,,,,,,,,,,,,,,,,,,,,,,,,,,508.4184152999951,508.6200111999933,508.6021131000016,508.90228070001467,508.90228070001467,None,509.40318009999464,None,j,1,1.403775599988876,509.40318009999464,None,None,None,,,,,,,,,,,,,,,,,,,,,,,12003,1,2,2024_Jun_09_1440,stroop_task_switching2_b,2021.2.3,60.064713729358736,
,,,红,red,k,square,color_mix,单词,,compatible,1,block_switch1_b,instruction/ready_test.png,instruction/i11.png,,,,,,,,,,,,,,,,,0,0,0,0,0,32,32,32,,,,,,,,,,,,,,,,,,,,,,,,,,,510.8386575000186,511.0404669000127,511.02238380000927,511.32405850000214,511.32405850000214,None,511.82321890001185,None,k,1,2.1119162999966647,511.82321890001185,None,None,None,,,,,,,,,,,,,,,,,,,,,,,12003,1,2,2024_Jun_09_1440,stroop_task_switching2_b,2021.2.3,60.064713729358736,
,,,红,green,k,square,color_mix,单词,,incompatible,1,block_switch1_b,instruction/ready_test.png,instruction/i11.png,,,,,,,,,,,,,,,,,0,0,0,0,0,33,33,33,,,,,,,,,,,,,,,,,,,,,,,,,,,513.9608850000077,514.1615070000116,514.1436210999964,514.4451037000108,514.4451037000108,None,514.9447945000138,None,k,1,1.254220200004056,514.9447945000138,None,None,None,,,,,,,,,,,,,,,,,,,,,,,12003,1,2,2024_Jun_09_1440,stroop_task_switching2_b,2021.2.3,60.064713729358736,
,,,黄,yellow,f,diamond,color_mix,颜色,,compatible,2,block_switch1_b,instruction/ready_test.png,instruction/i11.png,,,,,,,,,,,,,,,,,0,0,0,0,0,34,34,34,,,,,,,,,,,,,,,,,,,,,,,,,,,516.2299679999996,516.4316949000058,516.4135909000179,516.7148601000081,516.7148601000081,None,517.215159400017,None,f,1,1.6085638999938965,517.215159400017,None,None,None,,,,,,,,,,,,,,,,,,,,,,,12003,1,2,2024_Jun_09_1440,stroop_task_switching2_b,2021.2.3,60.064713729358736,
,,,红,green,d,diamond,color_mix,颜色,,incompatible,1,block_switch1_b,instruction/ready_test.png,instruction/i11.png,,,,,,,,,,,,,,,,,0,0,0,0,0,35,35,35,,,,,,,,,,,,,,,,,,,,,,,,,,,518.8509644000151,519.0523434999923,519.0344588000153,519.3346908999956,519.3346908999956,None,519.8356596000085,None,d,1,1.2595550999976695,519.8356596000085,None,None,None,,,,,,,,,,,,,,,,,,,,,,,12003,1,2,2024_Jun_09_1440,stroop_task_switching2_b,2021.2.3,60.064713729358736,
,,,黄,yellow,f,square,color_mix,单词,,compatible,2,block_switch1_b,instruction/ready_test.png,instruction/i11.png,,,,,,,,,,,,,,,,,0,0,0,0,0,36,36,36,,,,,,,,,,,,,,,,,,,,,,,,,,,521.1208459000045,521.3212167000165,521.304547000007,521.6053103000158,521.6053103000158,None,522.1054969000106,None,f,1,2.0217322999960743,522.1054969000106,None,None,None,,,,,,,,,,,,,,,,,,,,,,,12003,1,2,2024_Jun_09_1440,stroop_task_switching2_b,2021.2.3,60.064713729358736,
,,,蓝,blue,j,square,color_mix,单词,,compatible,1,block_switch1_b,instruction/ready_test.png,instruction/i11.png,,,,,,,,,,,,,,,,,0,0,0,0,0,37,37,37,,,,,,,,,,,,,,,,,,,,,,,,,,,524.1586252000125,524.3596937000111,524.3422823000001,524.6438952000171,524.6438952000171,None,525.1438620999979,None,j,1,1.7997527999978047,525.1438620999979,None,None,None,,,,,,,,,,,,,,,,,,,,,,,12003,1,2,2024_Jun_09_1440,stroop_task_switching2_b,2021.2.3,60.064713729358736,
,,,绿,red,k,diamond,color_mix,颜色,,incompatible,2,block_switch1_b,instruction/ready_test.png,instruction/i11.png,,,,,,,,,,,,,,,,,0,0,0,0,0,38,38,38,,,,,,,,,,,,,,,,,,,,,,,,,,,526.9628838000062,527.1635339999921,527.1475174000079,527.4470567000099,527.4470567000099,None,527.9478311999992,None,k,1,0.8994701000046916,527.9478311999992,None,None,None,,,,,,,,,,,,,,,,,,,,,,,12003,1,2,2024_Jun_09_1440,stroop_task_switching2_b,2021.2.3,60.064713729358736,
,,,黄,yellow,f,diamond,color_mix,颜色,,compatible,1,block_switch1_b,instruction/ready_test.png,instruction/i11.png,,,,,,,,,,,,,,,,,0,0,0,0,0,39,39,39,,,,,,,,,,,,,,,,,,,,,,,,,,,528.8662264000159,529.0672247000039,529.049469199992,529.3510992999945,529.3510992999945,None,529.8508230000152,None,f,1,1.084747699991567,529.8508230000152,None,None,None,,,,,,,,,,,,,,,,,,,,,,,12003,1,2,2024_Jun_09_1440,stroop_task_switching2_b,2021.2.3,60.064713729358736,
,,,红,blue,j,diamond,color_mix,颜色,,incompatible,1,block_switch1_b,instruction/ready_test.png,instruction/i11.png,,,,,,,,,,,,,,,,,0,0,0,0,0,40,40,40,,,,,,,,,,,,,,,,,,,,,,,,,,,530.952389300015,531.1527337000007,531.1357289000007,531.4368042999995,531.4368042999995,None,531.9371673999995,None,j,1,1.2063658999977633,531.9371673999995,None,None,None,,,,,,,,,,,,,,,,,,,,,,,12003,1,2,2024_Jun_09_1440,stroop_task_switching2_b,2021.2.3,60.064713729358736,
,,,绿,blue,d,square,color_mix,单词,,incompatible,2,block_switch1_b,instruction/ready_test.png,instruction/i11.png,,,,,,,,,,,,,,,,,0,0,0,0,0,41,41,41,,,,,,,,,,,,,,,,,,,,,,,,,,,533.1722589000128,533.3739075000049,533.3558137000073,533.6568069999921,533.6568069999921,None,534.1570956000069,None,d,1,1.3705310999939684,534.1570956000069,None,None,None,,,,,,,,,,,,,,,,,,,,,,,12003,1,2,2024_Jun_09_1440,stroop_task_switching2_b,2021.2.3,60.064713729358736,
,,,蓝,blue,j,diamond,color_mix,颜色,,compatible,2,block_switch1_b,instruction/ready_test.png,instruction/i11.png,,,,,,,,,,,,,,,,,0,0,0,0,0,42,42,42,,,,,,,,,,,,,,,,,,,,,,,,,,,535.5590946000011,535.7615236999991,535.7431036999915,536.0450228000118,536.0450228000118,None,536.5441284000117,None,j,1,1.2795500000065658,536.5441284000117,None,None,None,,,,,,,,,,,,,,,,,,,,,,,12003,1,2,2024_Jun_09_1440,stroop_task_switching2_b,2021.2.3,60.064713729358736,
,,,红,blue,k,square,color_mix,单词,,incompatible,2,block_switch1_b,instruction/ready_test.png,instruction/i11.png,,,,,,,,,,,,,,,,,0,0,0,0,0,43,43,43,,,,,,,,,,,,,,,,,,,,,,,,,,,537.846063200006,538.0470750000095,538.0304919000191,538.3303897000151,538.3303897000151,None,538.8308106000186,None,k,1,1.3449785000120755,538.8308106000186,None,None,None,,,,,,,,,,,,,,,,,,,,,,,12003,1,2,2024_Jun_09_1440,stroop_task_switching2_b,2021.2.3,60.064713729358736,
,,,蓝,green,d,diamond,color_mix,颜色,,incompatible,2,block_switch1_b,instruction/ready_test.png,instruction/i11.png,,,,,,,,,,,,,,,,,0,0,0,0,0,44,44,44,,,,,,,,,,,,,,,,,,,,,,,,,,,540.1995732999931,540.4007486000191,540.3848854000098,540.6850954999973,540.6850954999973,None,541.1848485000082,None,d,1,0.8635484999977052,541.1848485000082,None,None,None,,,,,,,,,,,,,,,,,,,,,,,12003,1,2,2024_Jun_09_1440,stroop_task_switching2_b,2021.2.3,60.064713729358736,
,,,黄,yellow,f,square,color_mix,单词,,compatible,2,block_switch1_b,instruction/ready_test.png,instruction/i11.png,,,,,,,,,,,,,,,,,0,0,0,0,0,45,45,45,,,,,,,,,,,,,,,,,,,,,,,,,,,542.0691529000178,542.2693435999972,542.2552780999977,542.570350199996,542.5531211000052,None,543.0540484999947,None,f,1,2.8983391000074334,543.0540484999947,None,None,None,,,,,,,,,,,,,,,,,,,,,,,12003,1,2,2024_Jun_09_1440,stroop_task_switching2_b,2021.2.3,60.064713729358736,
,,,黄,yellow,f,diamond,color_mix,颜色,,compatible,2,block_switch1_b,instruction/ready_test.png,instruction/i11.png,,,,,,,,,,,,,,,,,0,0,0,0,0,46,46,46,,,,,,,,,,,,,,,,,,,,,,,,,,,545.9749297999952,546.1767173999979,546.1586272999994,546.4591311000113,546.4591311000113,None,546.9606969000015,None,f,1,0.8872826999868266,546.9606969000015,None,None,None,,,,,,,,,,,,,,,,,,,,,,,12003,1,2,2024_Jun_09_1440,stroop_task_switching2_b,2021.2.3,60.064713729358736,
,,,绿,red,d,square,color_mix,单词,,incompatible,2,block_switch1_b,instruction/ready_test.png,instruction/i11.png,,,,,,,,,,,,,,,,,0,0,0,0,0,47,47,47,,,,,,,,,,,,,,,,,,,,,,,,,,,547.8778751000063,548.079213399993,548.0613804000022,548.3628863000195,548.3628863000195,None,548.862698300014,None,k,0,1.1613945999997668,548.862698300014,None,None,None,,,,,,,,,,,,,,,,,,,,,,,12003,1,2,2024_Jun_09_1440,stroop_task_switching2_b,2021.2.3,60.064713729358736,
,,,红,red,k,diamond,color_mix,颜色,,compatible,2,block_switch1_b,instruction/ready_test.png,instruction/i11.png,,,,,,,,,,,,,,,,,0,0,0,0,0,48,48,48,,,,,,,,,,,,,,,,,,,,,,,,,,,550.0476956999919,550.249404400005,550.231721899996,550.5331216999912,550.5331216999912,None,551.0326744000195,None,k,1,1.2556085000105668,551.0326744000195,None,None,None,,,,,,,,,,,,,,,,,,,,,,,12003,1,2,2024_Jun_09_1440,stroop_task_switching2_b,2021.2.3,60.064713729358736,
,,,蓝,blue,j,diamond,color_mix,颜色,,compatible,1,block_switch1_b,instruction/ready_test.png,instruction/i11.png,,,,,,,,,,,,,,,,,0,0,0,0,0,49,49,49,,,,,,,,,,,,,,,,,,,,,,,,,,,552.3178651999915,552.5194296000118,552.5014423000102,552.8018455000129,552.8018455000129,None,553.302451800002,None,j,1,1.6581542999774683,553.302451800002,None,None,None,,,,,,,,,,,,,,,,,,,,,,,12003,1,2,2024_Jun_09_1440,stroop_task_switching2_b,2021.2.3,60.064713729358736,
,,,黄,yellow,f,diamond,color_mix,颜色,,compatible,1,block_switch1_b,instruction/ready_test.png,instruction/i11.png,,,,,,,,,,,,,,,,,0,0,0,0,0,50,50,50,,,,,,,,,,,,,,,,,,,,,,,,,,,554.9886045000167,555.1889948000025,555.1733826000127,555.4725222999987,555.4725222999987,None,555.974200800003,None,f,1,0.8503133000049274,555.974200800003,None,None,None,,,,,,,,,,,,,,,,,,,,,,,12003,1,2,2024_Jun_09_1440,stroop_task_switching2_b,2021.2.3,60.064713729358736,
,,,红,blue,j,diamond,color_mix,颜色,,incompatible,1,block_switch1_b,instruction/ready_test.png,instruction/i11.png,,,,,,,,,,,,,,,,,0,0,0,0,0,51,51,51,,,,,,,,,,,,,,,,,,,,,,,,,,,556.8413615000027,557.0415865000105,557.0268012000015,557.3263439000002,557.3263439000002,None,557.8263113000139,None,j,1,1.445910999987973,557.8263113000139,None,None,None,,,,,,,,,,,,,,,,,,,,,,,12003,1,2,2024_Jun_09_1440,stroop_task_switching2_b,2021.2.3,60.064713729358736,
,,,蓝,yellow,f,diamond,color_mix,颜色,,incompatible,1,block_switch1_b,instruction/ready_test.png,instruction/i11.png,,,,,,,,,,,,,,,,,0,0,0,0,0,52,52,52,,,,,,,,,,,,,,,,,,,,,,,,,,,559.2954858000157,559.4953393000178,559.4787697000138,559.7800987999944,559.7800987999944,None,560.2800980000175,None,f,1,1.1605324000120163,560.2800980000175,None,None,None,,,,,,,,,,,,,,,,,,,,,,,12003,1,2,2024_Jun_09_1440,stroop_task_switching2_b,2021.2.3,60.064713729358736,
,,,黄,blue,f,square,color_mix,单词,,incompatible,2,block_switch1_b,instruction/ready_test.png,instruction/i11.png,,,,,,,,,,,,,,,,,0,0,0,0,0,53,53,53,,,,,,,,,,,,,,,,,,,,,,,,,,,561.4649327000079,561.6669132999959,561.6486810999922,561.9510745000152,561.9510745000152,None,562.4501783000014,None,f,1,1.486097700020764,562.4501783000014,None,None,None,,,,,,,,,,,,,,,,,,,,,,,12003,1,2,2024_Jun_09_1440,stroop_task_switching2_b,2021.2.3,60.064713729358736,
,,,蓝,blue,j,diamond,color_mix,颜色,,compatible,2,block_switch1_b,instruction/ready_test.png,instruction/i11.png,,,,,,,,,,,,,,,,,0,0,0,0,0,54,54,54,,,,,,,,,,,,,,,,,,,,,,,,,,,563.9689283000189,564.169439099991,564.1525373000186,564.4537907000049,564.4537907000049,None,564.954393699998,None,j,1,1.022215100005269,564.954393699998,None,None,None,,,,,,,,,,,,,,,,,,,,,,,12003,1,2,2024_Jun_09_1440,stroop_task_switching2_b,2021.2.3,60.064713729358736,
,,,红,yellow,k,square,color_mix,单词,,incompatible,2,block_switch1_b,instruction/ready_test.png,instruction/i11.png,,,,,,,,,,,,,,,,,0,0,0,0,0,55,55,55,,,,,,,,,,,,,,,,,,,,,,,,,,,566.005043400015,566.2055420000106,566.1906385000038,566.4891582000128,566.4891582000128,None,566.9905067000072,None,k,1,1.418453899997985,566.9905067000072,None,None,None,,,,,,,,,,,,,,,,,,,,,,,12003,1,2,2024_Jun_09_1440,stroop_task_switching2_b,2021.2.3,60.064713729358736,
,,,蓝,red,j,square,color_mix,单词,,incompatible,1,block_switch1_b,instruction/ready_test.png,instruction/i11.png,,,,,,,,,,,,,,,,,0,0,0,0,0,56,56,56,,,,,,,,,,,,,,,,,,,,,,,,,,,568.4253921000054,568.6267816000036,568.6090298999916,568.9108800000104,568.9108800000104,None,569.4102813999925,572.4149940999923,None,0,,569.4102813999925,572.4149940999923,572.3984243000159,None,,,,,,,,,,,,,,,,,,,,,,,12003,1,2,2024_Jun_09_1440,stroop_task_switching2_b,2021.2.3,60.064713729358736,
,,,蓝,blue,j,square,color_mix,单词,,compatible,1,block_switch1_b,instruction/ready_test.png,instruction/i11.png,,,,,,,,,,,,,,,,,0,0,0,0,0,57,57,57,,,,,,,,,,,,,,,,,,,,,,,,,,,572.9659347000124,573.1679604999954,573.1493833000131,573.4498456000001,573.4498456000001,None,573.950550700014,None,j,1,1.2262871999992058,573.950550700014,None,None,None,,,,,,,,,,,,,,,,,,,,,,,12003,1,2,2024_Jun_09_1440,stroop_task_switching2_b,2021.2.3,60.064713729358736,
,,,蓝,red,k,diamond,color_mix,颜色,,incompatible,2,block_switch1_b,instruction/ready_test.png,instruction/i11.png,,,,,,,,,,,,,,,,,0,0,0,0,0,58,58,58,,,,,,,,,,,,,,,,,,,,,,,,,,,575.2023883000074,575.4026110999985,575.3863035000104,575.687662100012,575.687662100012,None,576.1871854999918,None,k,1,0.7976854000007734,576.1871854999918,None,None,None,,,,,,,,,,,,,,,,,,,,,,,12003,1,2,2024_Jun_09_1440,stroop_task_switching2_b,2021.2.3,60.064713729358736,
,,,绿,green,d,diamond,color_mix,颜色,,compatible,1,block_switch1_b,instruction/ready_test.png,instruction/i11.png,,,,,,,,,,,,,,,,,0,0,0,0,0,59,59,59,,,,,,,,,,,,,,,,,,,,,,,,,,,577.0050628000172,577.2054658000125,577.1900240000105,577.4891501000093,577.4891501000093,None,577.9899981000053,None,d,1,0.8748885999957565,577.9899981000053,None,None,None,,,,,,,,,,,,,,,,,,,,,,,12003,1,2,2024_Jun_09_1440,stroop_task_switching2_b,2021.2.3,60.064713729358736,
,,,蓝,blue,j,diamond,color_mix,颜色,,compatible,1,block_switch1_b,instruction/ready_test.png,instruction/i11.png,,,,,,,,,,,,,,,,,0,0,0,0,0,60,60,60,,,,,,,,,,,,,,,,,,,,,,,,,,,578.8912389000179,579.0915838000074,579.0757765000162,579.3768839999975,579.3768839999975,None,579.8759609000117,None,j,1,1.0768440999963786,579.8759609000117,None,None,None,,,,,,,,,,,,,,,,,,,,,,,12003,1,2,2024_Jun_09_1440,stroop_task_switching2_b,2021.2.3,60.064713729358736,
,,,黄,yellow,f,square,color_mix,单词,,compatible,2,block_switch1_b,instruction/ready_test.png,instruction/i11.png,,,,,,,,,,,,,,,,,0,0,0,0,0,61,61,61,,,,,,,,,,,,,,,,,,,,,,,,,,,580.9781680000015,581.1785795000033,581.1612920000043,581.4638282000087,581.4638282000087,None,581.9624982000096,None,f,1,0.702468699979363,581.9624982000096,None,None,None,,,,,,,,,,,,,,,,,,,,,,,12003,1,2,2024_Jun_09_1440,stroop_task_switching2_b,2021.2.3,60.064713729358736,
,,,绿,blue,d,square,color_mix,单词,,incompatible,1,block_switch1_b,instruction/ready_test.png,instruction/i11.png,,,,,,,,,,,,,,,,,0,0,0,0,0,62,62,62,,,,,,,,,,,,,,,,,,,,,,,,,,,582.680448900006,582.8821478000027,582.8638367000094,583.165324600006,583.165324600006,None,583.6651560000028,None,d,1,0.7438799999945331,583.6651560000028,None,None,None,,,,,,,,,,,,,,,,,,,,,,,12003,1,2,2024_Jun_09_1440,stroop_task_switching2_b,2021.2.3,60.064713729358736,
,,,蓝,yellow,j,square,color_mix,单词,,incompatible,1,block_switch1_b,instruction/ready_test.png,instruction/i11.png,,,,,,,,,,,,,,,,,0,0,0,0,0,63,63,63,,,,,,,,,,,,,,,,,,,,,,,,,,,584.4329495000129,584.6338764000102,584.6166204000183,584.917777900002,584.917777900002,None,585.4177764999913,None,j,1,0.7675365000031888,585.4177764999913,None,None,None,,,,,,,,,,,,,,,,,,,,,,,12003,1,2,2024_Jun_09_1440,stroop_task_switching2_b,2021.2.3,60.064713729358736,
,,,黄,yellow,f,diamond,color_mix,颜色,,compatible,2,block_switch1_b,instruction/ready_test.png,instruction/i11.png,,,,,,,,,,,,,,,,,0,0,0,0,0,64,64,64,,,,,,,,,,,,,,,,,,,,,,,,,,,586.2025700999948,586.403865100001,586.3859831000154,586.6863939000177,586.6863939000177,None,587.187373599998,None,f,1,1.2536300000210758,587.187373599998,None,None,None,,,,,,,,,,,,,,,,,,,,,,,12003,1,2,2024_Jun_09_1440,stroop_task_switching2_b,2021.2.3,60.064713729358736,
,,,蓝,green,d,diamond,color_mix,颜色,,incompatible,1,block_switch1_b,instruction/ready_test.png,instruction/i11.png,,,,,,,,,,,,,,,,,0,0,0,0,0,65,65,65,,,,,,,,,,,,,,,,,,,,,,,,,,,588.4726691000105,588.6736677000008,588.656020800001,588.9562894999981,588.9562894999981,None,589.4575444000075,None,d,1,0.7999683000089135,589.4575444000075,None,None,None,,,,,,,,,,,,,,,,,,,,,,,12003,1,2,2024_Jun_09_1440,stroop_task_switching2_b,2021.2.3,60.064713729358736,
,,,红,red,k,diamond,color_mix,颜色,,compatible,1,block_switch1_b,instruction/ready_test.png,instruction/i11.png,,,,,,,,,,,,,,,,,0,0,0,0,0,66,66,66,,,,,,,,,,,,,,,,,,,,,,,,,,,590.2756498999952,590.4775879000081,590.4590519999911,590.75962170001,590.75962170001,None,591.2597489000182,None,k,1,1.3418982999864966,591.2597489000182,None,None,None,,,,,,,,,,,,,,,,,,,,,,,12003,1,2,2024_Jun_09_1440,stroop_task_switching2_b,2021.2.3,60.064713729358736,
,,,蓝,yellow,j,square,color_mix,单词,,incompatible,2,block_switch1_b,instruction/ready_test.png,instruction/i11.png,,,,,,,,,,,,,,,,,0,0,0,0,0,67,67,67,,,,,,,,,,,,,,,,,,,,,,,,,,,592.6285907000129,592.8290415999945,592.8123826000083,593.1133737000055,593.1133737000055,None,593.613417000015,None,j,1,0.7802890999882948,593.613417000015,None,None,None,,,,,,,,,,,,,,,,,,,,,,,12003,1,2,2024_Jun_09_1440,stroop_task_switching2_b,2021.2.3,60.064713729358736,
,,,红,yellow,k,square,color_mix,单词,,incompatible,1,block_switch1_b,instruction/ready_test.png,instruction/i11.png,,,,,,,,,,,,,,,,,0,0,0,0,0,68,68,68,,,,,,,,,,,,,,,,,,,,,,,,,,,594.4148203000077,594.6147961000097,594.5991350999975,594.8993802000186,594.8993802000186,None,595.3998285999987,None,k,1,0.6018775999837089,595.3998285999987,None,None,None,,,,,,,,,,,,,,,,,,,,,,,12003,1,2,2024_Jun_09_1440,stroop_task_switching2_b,2021.2.3,60.064713729358736,
,,,红,yellow,f,diamond,color_mix,颜色,,incompatible,2,block_switch1_b,instruction/ready_test.png,instruction/i11.png,,,,,,,,,,,,,,,,,0,0,0,0,0,69,69,69,,,,,,,,,,,,,,,,,,,,,,,,,,,596.0171393000055,596.2187844,596.2005699000147,596.5013533000019,596.5013533000019,None,597.0020016000199,None,f,1,1.0713965999893844,597.0020016000199,None,None,None,,,,,,,,,,,,,,,,,,,,,,,12003,1,2,2024_Jun_09_1440,stroop_task_switching2_b,2021.2.3,60.064713729358736,
,,,蓝,green,j,square,color_mix,单词,,incompatible,2,block_switch1_b,instruction/ready_test.png,instruction/i11.png,,,,,,,,,,,,,,,,,0,0,0,0,0,70,70,70,,,,,,,,,,,,,,,,,,,,,,,,,,,598.1036116000032,598.3042658999912,598.288555200008,598.5888822000124,598.5888822000124,None,599.0883948999981,None,j,1,1.873066599975573,599.0883948999981,None,None,None,,,,,,,,,,,,,,,,,,,,,,,12003,1,2,2024_Jun_09_1440,stroop_task_switching2_b,2021.2.3,60.064713729358736,
,,,绿,yellow,d,square,color_mix,单词,,incompatible,1,block_switch1_b,instruction/ready_test.png,instruction/i11.png,,,,,,,,,,,,,,,,,0,0,0,0,0,71,71,71,,,,,,,,,,,,,,,,,,,,,,,,,,,600.9911486000055,601.1920211999968,601.1747017000162,601.4763425000128,601.4763425000128,None,601.9760252000124,None,d,1,1.6415161000040825,601.9760252000124,None,None,None,,,,,,,,,,,,,,,,,,,,,,,12003,1,2,2024_Jun_09_1440,stroop_task_switching2_b,2021.2.3,60.064713729358736,
,,,蓝,yellow,f,diamond,color_mix,颜色,,incompatible,2,block_switch1_b,instruction/ready_test.png,instruction/i11.png,,,,,,,,,,,,,,,,,0,0,0,0,0,72,72,72,,,,,,,,,,,,,,,,,,,,,,,,,,,603.6452142999915,603.8459555000009,603.8298606000026,604.1295700000192,604.1295700000192,None,604.6300149000017,None,f,1,1.3079100000031758,604.6300149000017,None,None,None,,,,,,,,,,,,,,,,,,,,,,,12003,1,2,2024_Jun_09_1440,stroop_task_switching2_b,2021.2.3,60.064713729358736,
,,,红,green,k,square,color_mix,单词,,incompatible,2,block_switch1_b,instruction/ready_test.png,instruction/i11.png,,,,,,,,,,,,,,,,,0,0,0,0,0,73,73,73,,,,,,,,,,,,,,,,,,,,,,,,,,,605.9653157000139,606.1674800000037,606.1489332999918,606.4507148000121,606.4507148000121,None,606.9512779999932,None,k,1,1.266936700005317,606.9512779999932,None,None,None,,,,,,,,,,,,,,,,,,,,,,,12003,1,2,2024_Jun_09_1440,stroop_task_switching2_b,2021.2.3,60.064713729358736,
,,,绿,blue,j,diamond,color_mix,颜色,,incompatible,2,block_switch1_b,instruction/ready_test.png,instruction/i11.png,,,,,,,,,,,,,,,,,0,0,0,0,0,74,74,74,,,,,,,,,,,,,,,,,,,,,,,,,,,608.2351805999933,608.4364146000007,608.4199351000134,608.7199938000122,608.7199938000122,None,609.2202432000195,None,j,1,1.8215048999991268,609.2202432000195,None,None,None,,,,,,,,,,,,,,,,,,,,,,,12003,1,2,2024_Jun_09_1440,stroop_task_switching2_b,2021.2.3,60.064713729358736,
,,,红,red,k,square,color_mix,单词,,compatible,2,block_switch1_b,instruction/ready_test.png,instruction/i11.png,,,,,,,,,,,,,,,,,0,0,0,0,0,75,75,75,,,,,,,,,,,,,,,,,,,,,,,,,,,611.0731556999963,611.2732584000041,611.2569403999951,611.558242900006,611.558242900006,None,612.0582727000001,None,k,1,1.0236066000070423,612.0582727000001,None,None,None,,,,,,,,,,,,,,,,,,,,,,,12003,1,2,2024_Jun_09_1440,stroop_task_switching2_b,2021.2.3,60.064713729358736,
,,,绿,green,d,diamond,color_mix,颜色,,compatible,2,block_switch1_b,instruction/ready_test.png,instruction/i11.png,,,,,,,,,,,,,,,,,0,0,0,0,0,76,76,76,,,,,,,,,,,,,,,,,,,,,,,,,,,613.1093481999997,613.3104131,613.2932204999961,613.5936132000061,613.5936132000061,None,614.0944266000006,None,d,1,0.9956204999762122,614.0944266000006,None,None,None,,,,,,,,,,,,,,,,,,,,,,,12003,1,2,2024_Jun_09_1440,stroop_task_switching2_b,2021.2.3,60.064713729358736,
,,,黄,red,f,square,color_mix,单词,,incompatible,2,block_switch1_b,instruction/ready_test.png,instruction/i11.png,,,,,,,,,,,,,,,,,0,0,0,0,0,77,77,77,,,,,,,,,,,,,,,,,,,,,,,,,,,615.1127460999996,615.3134589999972,615.2973041000078,615.5971823,615.5971823,None,616.0975388000079,None,f,1,1.3604808000090998,616.0975388000079,None,None,None,,,,,,,,,,,,,,,,,,,,,,,12003,1,2,2024_Jun_09_1440,stroop_task_switching2_b,2021.2.3,60.064713729358736,
,,,红,red,k,square,color_mix,单词,,compatible,1,block_switch1_b,instruction/ready_test.png,instruction/i11.png,,,,,,,,,,,,,,,,,0,0,0,0,0,78,78,78,,,,,,,,,,,,,,,,,,,,,,,,,,,617.4831612000125,617.6835741999967,617.6666550000082,617.9669644999958,617.9669644999958,None,618.4678615000157,None,k,1,0.7582150000089314,618.4678615000157,None,None,None,,,,,,,,,,,,,,,,,,,,,,,12003,1,2,2024_Jun_09_1440,stroop_task_switching2_b,2021.2.3,60.064713729358736,
,,,黄,yellow,f,square,color_mix,单词,,compatible,1,block_switch1_b,instruction/ready_test.png,instruction/i11.png,,,,,,,,,,,,,,,,,0,0,0,0,0,79,79,79,,,,,,,,,,,,,,,,,,,,,,,,,,,619.2521579000168,619.452405100019,619.4362399000092,619.7362825000018,619.7362825000018,None,620.2379157000105,None,f,1,1.4922118000104092,620.2379157000105,None,None,None,,,,,,,,,,,,,,,,,,,,,,,12003,1,2,2024_Jun_09_1440,stroop_task_switching2_b,2021.2.3,60.064713729358736,
,,,红,red,k,diamond,color_mix,颜色,,compatible,2,block_switch1_b,instruction/ready_test.png,instruction/i11.png,,,,,,,,,,,,,,,,,0,0,0,0,0,80,80,80,,,,,,,,,,,,,,,,,,,,,,,,,,,621.7560997999972,621.956854100019,621.939772999991,622.2400332000107,622.2400332000107,None,622.7408264999976,None,k,1,0.9093750999891199,622.7408264999976,None,None,None,,,,,,,,,,,,,,,,,,,,,,,12003,1,2,2024_Jun_09_1440,stroop_task_switching2_b,2021.2.3,60.064713729358736,
,,,红,red,k,square,color_mix,单词,,compatible,2,block_switch1_b,instruction/ready_test.png,instruction/i11.png,,,,,,,,,,,,,,,,,0,0,0,0,0,81,81,81,,,,,,,,,,,,,,,,,,,,,,,,,,,623.6755069000064,623.8758139999991,623.8591680999962,624.1595904999995,624.1595904999995,None,624.6602128999948,None,k,1,0.9101197999843862,624.6602128999948,None,None,None,,,,,,,,,,,,,,,,,,,,,,,12003,1,2,2024_Jun_09_1440,stroop_task_switching2_b,2021.2.3,60.064713729358736,
,,,黄,blue,j,diamond,color_mix,颜色,,incompatible,2,block_switch1_b,instruction/ready_test.png,instruction/i11.png,,,,,,,,,,,,,,,,,0,0,0,0,0,82,82,82,,,,,,,,,,,,,,,,,,,,,,,,,,,625.5950704000134,625.7954604999977,625.7791454000107,626.0797251000185,626.0797251000185,None,626.5798368999967,None,j,1,0.9345415999996476,626.5798368999967,None,None,None,,,,,,,,,,,,,,,,,,,,,,,12003,1,2,2024_Jun_09_1440,stroop_task_switching2_b,2021.2.3,60.064713729358736,
,,,红,yellow,f,diamond,color_mix,颜色,,incompatible,1,block_switch1_b,instruction/ready_test.png,instruction/i11.png,,,,,,,,,,,,,,,,,0,0,0,0,0,83,83,83,,,,,,,,,,,,,,,,,,,,,,,,,,,627.5312493999954,627.7334515000111,627.7159720000054,628.0171612999984,628.0171612999984,None,628.5161067000008,None,f,1,2.87822650000453,628.5161067000008,None,None,None,,,,,,,,,,,,,,,,,,,,,,,12003,1,2,2024_Jun_09_1440,stroop_task_switching2_b,2021.2.3,60.064713729358736,
,,,黄,red,k,diamond,color_mix,颜色,,incompatible,1,block_switch1_b,instruction/ready_test.png,instruction/i11.png,,,,,,,,,,,,,,,,,0,0,0,0,0,84,84,84,,,,,,,,,,,,,,,,,,,,,,,,,,,631.420492300007,631.6228409000032,631.6040679000143,631.9045459000045,631.9045459000045,None,632.4051951000001,None,k,1,1.6453165000129957,632.4051951000001,None,None,None,,,,,,,,,,,,,,,,,,,,,,,12003,1,2,2024_Jun_09_1440,stroop_task_switching2_b,2021.2.3,60.064713729358736,
,,,蓝,blue,j,square,color_mix,单词,,compatible,2,block_switch1_b,instruction/ready_test.png,instruction/i11.png,,,,,,,,,,,,,,,,,0,0,0,0,0,85,85,85,,,,,,,,,,,,,,,,,,,,,,,,,,,634.0745621999959,634.276955600013,634.2582923000155,634.5595441000187,634.5595441000187,None,635.059663299995,None,j,1,1.1268608999962453,635.059663299995,None,None,None,,,,,,,,,,,,,,,,,,,,,,,12003,1,2,2024_Jun_09_1440,stroop_task_switching2_b,2021.2.3,60.064713729358736,
,,,绿,green,d,square,color_mix,单词,,compatible,1,block_switch1_b,instruction/ready_test.png,instruction/i11.png,,,,,,,,,,,,,,,,,0,0,0,0,0,86,86,86,,,,,,,,,,,,,,,,,,,,,,,,,,,636.210777100001,636.4113135999942,636.3958391000051,636.6949885000067,636.6949885000067,None,637.1961076000007,None,d,1,1.1824246999749448,637.1961076000007,None,None,None,,,,,,,,,,,,,,,,,,,,,,,12003,1,2,2024_Jun_09_1440,stroop_task_switching2_b,2021.2.3,60.064713729358736,
,,,红,red,k,square,color_mix,单词,,compatible,1,block_switch1_b,instruction/ready_test.png,instruction/i11.png,,,,,,,,,,,,,,,,,0,0,0,0,0,87,87,87,,,,,,,,,,,,,,,,,,,,,,,,,,,638.397532300005,638.5992494999955,638.5815733000054,638.8833005999913,638.8833005999913,None,639.3825137999956,None,k,1,0.5564232999749947,639.3825137999956,None,None,None,,,,,,,,,,,,,,,,,,,,,,,12003,1,2,2024_Jun_09_1440,stroop_task_switching2_b,2021.2.3,60.064713729358736,
,,,黄,green,d,diamond,color_mix,颜色,,incompatible,2,block_switch1_b,instruction/ready_test.png,instruction/i11.png,,,,,,,,,,,,,,,,,0,0,0,0,0,88,88,88,,,,,,,,,,,,,,,,,,,,,,,,,,,639.9666864000028,640.1674105999991,640.1501947999932,640.4523255999957,640.4523255999957,None,640.9521389000001,None,d,1,1.090465800021775,640.9521389000001,None,None,None,,,,,,,,,,,,,,,,,,,,,,,12003,1,2,2024_Jun_09_1440,stroop_task_switching2_b,2021.2.3,60.064713729358736,
,,,绿,red,d,square,color_mix,单词,,incompatible,2,block_switch1_b,instruction/ready_test.png,instruction/i11.png,,,,,,,,,,,,,,,,,0,0,0,0,0,89,89,89,,,,,,,,,,,,,,,,,,,,,,,,,,,642.0700906999991,642.2710798000044,642.253593100002,642.5539639999915,642.5539639999915,None,643.0548352000187,None,d,1,1.4277126000088174,643.0548352000187,None,None,None,,,,,,,,,,,,,,,,,,,,,,,12003,1,2,2024_Jun_09_1440,stroop_task_switching2_b,2021.2.3,60.064713729358736,
,,,黄,green,f,square,color_mix,单词,,incompatible,1,block_switch1_b,instruction/ready_test.png,instruction/i11.png,,,,,,,,,,,,,,,,,0,0,0,0,0,90,90,90,,,,,,,,,,,,,,,,,,,,,,,,,,,644.5067358000088,644.7070904000138,644.6915115000156,644.9913755000161,644.9913755000161,None,645.4916073000059,None,f,1,1.287221300008241,645.4916073000059,None,None,None,,,,,,,,,,,,,,,,,,,,,,,12003,1,2,2024_Jun_09_1440,stroop_task_switching2_b,2021.2.3,60.064713729358736,
,,,蓝,blue,j,square,color_mix,单词,,compatible,1,block_switch1_b,instruction/ready_test.png,instruction/i11.png,,,,,,,,,,,,,,,,,0,0,0,0,0,91,91,91,,,,,,,,,,,,,,,,,,,,,,,,,,,646.7937319000193,646.9948691000172,646.977317700017,647.2798366000061,647.2798366000061,None,647.7785139000043,None,j,1,1.808361999981571,647.7785139000043,None,None,None,,,,,,,,,,,,,,,,,,,,,,,12003,1,2,2024_Jun_09_1440,stroop_task_switching2_b,2021.2.3,60.064713729358736,
,,,蓝,red,j,square,color_mix,单词,,incompatible,1,block_switch1_b,instruction/ready_test.png,instruction/i11.png,,,,,,,,,,,,,,,,,0,0,0,0,0,92,92,92,,,,,,,,,,,,,,,,,,,,,,,,,,,649.614613600017,649.8154206000036,649.7981962000194,650.1010089000047,650.1010089000047,None,650.5994881000079,None,j,1,0.8594273000198882,650.5994881000079,None,None,None,,,,,,,,,,,,,,,,,,,,,,,12003,1,2,2024_Jun_09_1440,stroop_task_switching2_b,2021.2.3,60.064713729358736,
,,,黄,blue,f,square,color_mix,单词,,incompatible,1,block_switch1_b,instruction/ready_test.png,instruction/i11.png,,,,,,,,,,,,,,,,,0,0,0,0,0,93,93,93,,,,,,,,,,,,,,,,,,,,,,,,,,,651.4840893000073,651.6847784999991,651.6676646000124,651.9697212000028,651.9697212000028,None,652.4693603999913,None,f,1,1.214191100007156,652.4693603999913,None,None,None,,,,,,,,,,,,,,,,,,,,,,,12003,1,2,2024_Jun_09_1440,stroop_task_switching2_b,2021.2.3,60.064713729358736,
,,,绿,red,k,diamond,color_mix,颜色,,incompatible,2,block_switch1_b,instruction/ready_test.png,instruction/i11.png,,,,,,,,,,,,,,,,,0,0,0,0,0,94,94,94,,,,,,,,,,,,,,,,,,,,,,,,,,,653.7041125000105,653.904352100013,653.8879364000168,654.1900813000102,654.1900813000102,None,654.689045200008,None,k,1,1.0421106000139844,654.689045200008,None,None,None,,,,,,,,,,,,,,,,,,,,,,,12003,1,2,2024_Jun_09_1440,stroop_task_switching2_b,2021.2.3,60.064713729358736,
,,,蓝,blue,j,diamond,color_mix,颜色,,compatible,1,block_switch1_b,instruction/ready_test.png,instruction/i11.png,,,,,,,,,,,,,,,,,0,0,0,0,0,95,95,95,,,,,,,,,,,,,,,,,,,,,,,,,,,655.7572102000122,655.9574857999978,655.9411727999977,656.2420720999944,656.2420720999944,None,656.7419021000096,None,j,1,2.325237599987304,656.7419021000096,None,None,None,,,,,,,,,,,,,,,,,,,,,,,12003,1,2,2024_Jun_09_1440,stroop_task_switching2_b,2021.2.3,60.064713729358736,
,,,绿,green,d,square,color_mix,单词,,compatible,2,block_switch1_b,instruction/ready_test.png,instruction/i11.png,,,,,,,,,,,,,,,,,0,0,0,0,0,96,96,96,,,,,,,,,,,,,,,,,,,,,,,,,,,659.0955593000108,659.2977211000107,659.2796204000188,659.5798203000159,659.5798203000159,None,660.0806029000087,None,d,1,1.2506384000007529,660.0806029000087,None,None,None,,,,,,,,,,,,,,,,,,,,,,,12003,1,2,2024_Jun_09_1440,stroop_task_switching2_b,2021.2.3,60.064713729358736,
,,,,,,,,,,,,block_switch1_b,instruction/ready_test.png,instruction/i11.png,,,,,,,,,,,,,,,,,0,0,0,0,,,,,,,,,,,,,,,,,,,,,,,,,,,,,,,,,,,,,,,,,,,,,,,,,,,,,,,,,,,,661.3489020999987,None,space,11.526687200006563,661.3489020999987,None,,,12003,1,2,2024_Jun_09_1440,stroop_task_switching2_b,2021.2.3,60.064713729358736,
,,,蓝,blue,j,square,color_mix,单词,,compatible,0,block_switch2_b,instruction/ready_2.png,instruction/i12.png,,,,,,,,,,,,,,,,,0,1,1,1,0,0,0,0,,,,,,,,,,,,,,,,,,,677.5407762000104,678.5421818000032,678.5421818000032,679.543547600013,679.543547600013,None,676.5550716000143,677.5574231999926,680.5791566999978,680.7800218000193,680.7616101000167,681.0621454000066,681.0621454000066,None,681.5631654000026,None,j,1,1.6085938999895006,681.5631654000026,None,None,None,,,,,,,,,672.9163045000168,None,space,3.615238700003829,672.9163045000168,None,,,,,,,,,12003,1,2,2024_Jun_09_1440,stroop_task_switching2_b,2021.2.3,60.064713729358736,
,,,黄,red,k,diamond,color_mix,颜色,,incompatible,2,block_switch2_b,instruction/ready_2.png,instruction/i12.png,,,,,,,,,,,,,,,,,0,1,1,1,0,1,1,1,,,,,,,,,,,,,,,,,,,,,,,,,,,683.2322680999932,683.4323403000017,683.382168400014,683.6825716000167,683.6825716000167,None,684.1833110000007,None,k,1,1.1173822000273503,684.1833110000007,None,None,None,,,,,,,,,,,,,,,,,,,,,,,12003,1,2,2024_Jun_09_1440,stroop_task_switching2_b,2021.2.3,60.064713729358736,
,,,蓝,green,d,diamond,color_mix,颜色,,incompatible,1,block_switch2_b,instruction/ready_2.png,instruction/i12.png,,,,,,,,,,,,,,,,,0,1,1,1,0,2,2,2,,,,,,,,,,,,,,,,,,,,,,,,,,,685.318663300015,685.5198301000055,685.5020406999975,685.8025559000089,685.8025559000089,None,686.3032540999993,None,d,1,0.9651949000253808,686.3032540999993,None,None,None,,,,,,,,,,,,,,,,,,,,,,,12003,1,2,2024_Jun_09_1440,stroop_task_switching2_b,2021.2.3,60.064713729358736,
,,,红,yellow,f,diamond,color_mix,颜色,,incompatible,1,block_switch2_b,instruction/ready_2.png,instruction/i12.png,,,,,,,,,,,,,,,,,0,1,1,1,0,3,3,3,,,,,,,,,,,,,,,,,,,,,,,,,,,687.2883229000145,687.4883391000039,687.4717854000046,687.7723776999919,687.7723776999919,None,688.2728692000092,None,k,0,2.3389620000089053,688.2728692000092,None,None,None,,,,,,,,,,,,,,,,,,,,,,,12003,1,2,2024_Jun_09_1440,stroop_task_switching2_b,2021.2.3,60.064713729358736,
,,,红,red,k,diamond,color_mix,颜色,,compatible,1,block_switch2_b,instruction/ready_2.png,instruction/i12.png,,,,,,,,,,,,,,,,,0,1,1,1,0,4,4,4,,,,,,,,,,,,,,,,,,,,,,,,,,,690.6606006000075,690.8604138999945,690.8277461999969,691.127152400004,691.127152400004,None,691.6280565999914,None,k,1,1.5124415000027511,691.6280565999914,None,None,None,,,,,,,,,,,,,,,,,,,,,,,12003,1,2,2024_Jun_09_1440,stroop_task_switching2_b,2021.2.3,60.064713729358736,
,,,绿,green,d,square,color_mix,单词,,compatible,2,block_switch2_b,instruction/ready_2.png,instruction/i12.png,,,,,,,,,,,,,,,,,0,1,1,1,0,5,5,5,,,,,,,,,,,,,,,,,,,,,,,,,,,693.1635016000073,693.3647588000167,693.3471874000097,693.6500383999955,693.6500383999955,None,694.1650888000149,None,d,1,1.4548698000144213,694.1650888000149,None,None,None,,,,,,,,,,,,,,,,,,,,,,,12003,1,2,2024_Jun_09_1440,stroop_task_switching2_b,2021.2.3,60.064713729358736,
,,,黄,blue,j,diamond,color_mix,颜色,,incompatible,2,block_switch2_b,instruction/ready_2.png,instruction/i12.png,,,,,,,,,,,,,,,,,0,1,1,1,0,6,6,6,,,,,,,,,,,,,,,,,,,,,,,,,,,695.6677906000114,695.8677127000119,695.8342481,696.1347613999969,696.1347613999969,None,696.6357117000152,None,j,1,0.7683575999981258,696.6357117000152,None,None,None,,,,,,,,,,,,,,,,,,,,,,,12003,1,2,2024_Jun_09_1440,stroop_task_switching2_b,2021.2.3,60.064713729358736,
