b_pra,ins_blocks,ins_blocks2,stim_word,stim_color,corrAns,cue_type,trial_type,task_type,rand,compatibility,switch,b_test,w_pic,w_pic2,trials_instr.thisRepN,trials_instr.thisTrialN,trials_instr.thisN,trials_instr.thisIndex,block_pra.thisRepN,block_pra.thisTrialN,block_pra.thisN,block_pra.thisIndex,trials_rep.thisRepN,trials_rep.thisTrialN,trials_rep.thisN,trials_rep.thisIndex,trials_pra.thisRepN,trials_pra.thisTrialN,trials_pra.thisN,trials_pra.thisIndex,trials_3.thisRepN,trials_3.thisTrialN,trials_3.thisN,trials_3.thisIndex,trials_2.thisRepN,trials_2.thisTrialN,trials_2.thisN,trials_2.thisIndex,instr_image.started,instr_image.stopped,instr_key_resp.keys,instr_key_resp.rt,instr_key_resp.started,instr_key_resp.stopped,instr_pra_image.started,instr_pra_image.stopped,ip_key_resp.keys,ip_key_resp.rt,ip_key_resp.started,ip_key_resp.stopped,block_image.started,block_image.stopped,ib_key_resp.keys,ib_key_resp.rt,ib_key_resp.started,ib_key_resp.stopped,cd3.started,cd3.stopped,cd2.started,cd2.stopped,cd1.started,cd1.stopped,cd_text.started,cd_text.stopped,text_fix.started,text_fix.stopped,text_2.started,text_2.stopped,text_4.started,text_4.stopped,text_target.started,text_target.stopped,key_resp.keys,key_resp.corr,key_resp.rt,key_resp.started,key_resp.stopped,sceen_black.started,sceen_black.stopped,text_fb.started,text_fb.stopped,text.started,text.stopped,key_bf.keys,key_bf.rt,key_bf.started,key_bf.stopped,instr_test_image.started,instr_test_image.stopped,instr_exp_key_resp.keys,instr_exp_key_resp.rt,instr_exp_key_resp.started,instr_exp_key_resp.stopped,text_rest.started,text_rest.stopped,key_resp_rest.keys,key_resp_rest.rt,key_resp_rest.started,key_resp_rest.stopped,text_3.started,text_3.stopped,participant,session,balance,date,expName,psychopyVersion,frameRate,
,,,,,,,,,,,,,,,0,0,0,0,,,,,,,,,,,,,,,,,,,,,19.755501300000105,None,right,5.004282599999897,19.755501300000105,None,,,,,,,,,,,,,,,,,,,,,,,,,,,,,,,,,,,,,,,,,,,,,,,,,,,,,,,,,,12009,2,2,2024_Jun_15_1841,stroop_task_switching2_b,2021.2.3,60.22986124232226,
,,,,,,,,,,,,,,,1,0,1,0,,,,,,,,,,,,,,,,,,,,,24.81384590000016,None,right,50.28055360000053,24.81384590000016,None,,,,,,,,,,,,,,,,,,,,,,,,,,,,,,,,,,,,,,,,,,,,,,,,,,,,,,,,,,12009,2,2,2024_Jun_15_1841,stroop_task_switching2_b,2021.2.3,60.22986124232226,
,,,,,,,,,,,,,,,2,0,2,0,,,,,,,,,,,,,,,,,,,,,75.15752340000017,None,right,0.14965859999938402,75.15752340000017,None,,,,,,,,,,,,,,,,,,,,,,,,,,,,,,,,,,,,,,,,,,,,,,,,,,,,,,,,,,12009,2,2,2024_Jun_15_1841,stroop_task_switching2_b,2021.2.3,60.22986124232226,
,,,,,,,,,,,,,,,3,0,3,0,,,,,,,,,,,,,,,,,,,,,75.35743599999932,None,right,0.13753929999984393,75.35743599999932,None,,,,,,,,,,,,,,,,,,,,,,,,,,,,,,,,,,,,,,,,,,,,,,,,,,,,,,,,,,12009,2,2,2024_Jun_15_1841,stroop_task_switching2_b,2021.2.3,60.22986124232226,
,,,,,,,,,,,,,,,4,0,4,0,,,,,,,,,,,,,,,,,,,,,75.53967709999961,None,right,0.11706930000036664,75.53967709999961,None,,,,,,,,,,,,,,,,,,,,,,,,,,,,,,,,,,,,,,,,,,,,,,,,,,,,,,,,,,12009,2,2,2024_Jun_15_1841,stroop_task_switching2_b,2021.2.3,60.22986124232226,
,,,,,,,,,,,,,,,5,0,5,0,,,,,,,,,,,,,,,,,,,,,75.7074948999998,None,right,0.5301001999996515,75.7074948999998,None,,,,,,,,,,,,,,,,,,,,,,,,,,,,,,,,,,,,,,,,,,,,,,,,,,,,,,,,,,12009,2,2,2024_Jun_15_1841,stroop_task_switching2_b,2021.2.3,60.22986124232226,
,,,,,,,,,,,,,,,,,,,,,,,,,,,,,,,,,,,,,,,,,,,,,76.27652630000011,None,space,0.9876238999995621,76.27652630000011,None,,,,,,,,,,,,,,,,,,,,,,,,,,,,,,,,,,,,,,,,,,,,,,,,,,,,12009,2,2,2024_Jun_15_1841,stroop_task_switching2_b,2021.2.3,60.22986124232226,
condition/block_color_b,instruction/instr_color,instruction/i8_b,XX,red,k,diamond,color_single,颜色,,,,,,,,,,,0,0,0,0,0,0,0,0,0,0,0,0,,,,,,,,,,,,,,,,,,,,,77.32655199999954,None,space,9.649504300000444,77.32655199999954,None,88.09334200000012,89.09445030000006,89.09445030000006,90.09571199999937,90.09571199999937,None,87.10767529999976,88.1091851000001,91.03107029999956,91.23019039999963,91.21390009999959,91.51481139999942,91.51481139999942,None,91.99788389999958,None,k,1,1.548311200000171,91.99788389999958,None,None,None,93.66684489999989,None,,,,,,,,,,,,,,,,,,,,,12009,2,2,2024_Jun_15_1841,stroop_task_switching2_b,2021.2.3,60.22986124232226,
condition/block_color_b,instruction/instr_color,instruction/i8_b,XX,green,d,diamond,color_single,颜色,,,,,,,,,,,0,0,0,0,0,0,0,0,0,1,1,1,,,,,,,,,,,,,,,,,,,,,,,,,,,,,,,,,,,94.58502619999945,94.78621209999983,94.76860820000002,95.0701369999997,95.05342010000004,None,95.55395339999995,None,d,1,1.3926524999997127,95.55395339999995,None,None,None,96.9719873999993,None,,,,,,,,,,,,,,,,,,,,,12009,2,2,2024_Jun_15_1841,stroop_task_switching2_b,2021.2.3,60.22986124232226,
condition/block_color_b,instruction/instr_color,instruction/i8_b,XX,yellow,f,diamond,color_single,颜色,,,,,,,,,,,0,0,0,0,0,0,0,0,0,2,2,2,,,,,,,,,,,,,,,,,,,,,,,,,,,,,,,,,,,97.97444009999981,98.17489039999964,98.15818829999989,98.4582405000001,98.4582405000001,None,98.95884579999984,None,f,1,0.8755333999997674,98.95884579999984,None,None,None,99.85963110000012,None,,,,,,,,,,,,,,,,,,,,,12009,2,2,2024_Jun_15_1841,stroop_task_switching2_b,2021.2.3,60.22986124232226,
condition/block_color_b,instruction/instr_color,instruction/i8_b,XX,blue,j,diamond,color_single,颜色,,,,,,,,,,,0,0,0,0,0,0,0,0,0,3,3,3,,,,,,,,,,,,,,,,,,,,,,,,,,,,,,,,,,,100.86234129999957,101.06254489999992,101.04592390000016,101.34654529999989,101.34654529999989,None,101.84702740000012,None,j,1,0.5312071999996988,101.84702740000012,None,None,None,102.39676299999974,None,,,,,,,,,,,,,,,,,,,,,12009,2,2,2024_Jun_15_1841,stroop_task_switching2_b,2021.2.3,60.22986124232226,
condition/block_color_b,instruction/instr_color,instruction/i8_b,XX,green,d,diamond,color_single,颜色,,,,,,,,,,,0,0,0,0,0,0,0,0,0,4,4,4,,,,,,,,,,,,,,,,,,,,,,,,,,,,,,,,,,,103.39835129999938,103.59961440000006,103.58270979999998,103.88348640000004,103.88348640000004,None,104.38418029999957,None,f,0,0.7856343000003108,104.38418029999957,None,None,None,105.20192059999954,None,,,,,,,,,,,,,,,,,,,,,12009,2,2,2024_Jun_15_1841,stroop_task_switching2_b,2021.2.3,60.22986124232226,
condition/block_color_b,instruction/instr_color,instruction/i8_b,XX,yellow,f,diamond,color_single,颜色,,,,,,,,,,,0,0,0,0,0,0,0,0,0,5,5,5,,,,,,,,,,,,,,,,,,,,,,,,,,,,,,,,,,,106.20380539999951,106.40371539999978,106.38686379999945,106.68762979999974,106.68762979999974,None,107.1885328999997,None,f,1,0.8059241999999358,107.1885328999997,None,None,None,108.02196879999974,None,,,,,,,,,,,,,,,,,,,,,12009,2,2,2024_Jun_15_1841,stroop_task_switching2_b,2021.2.3,60.22986124232226,
condition/block_color_b,instruction/instr_color,instruction/i8_b,XX,blue,j,diamond,color_single,颜色,,,,,,,,,,,0,0,0,0,0,0,0,0,0,6,6,6,,,,,,,,,,,,,,,,,,,,,,,,,,,,,,,,,,,109.02415430000019,109.22498600000017,109.20825160000004,109.50768859999971,109.50768859999971,None,110.0091652000001,None,j,1,0.5527528000002349,110.0091652000001,None,None,None,110.59277979999933,None,,,,,,,,,,,,,,,,,,,,,12009,2,2,2024_Jun_15_1841,stroop_task_switching2_b,2021.2.3,60.22986124232226,
condition/block_color_b,instruction/instr_color,instruction/i8_b,XX,red,k,diamond,color_single,颜色,,,,,,,,,,,0,0,0,0,0,0,0,0,0,7,7,7,,,,,,,,,,,,,,,,,,,,,,,,,,,,,,,,,,,111.59518070000013,111.79560949999996,111.7788171000002,112.07824540000001,112.07824540000001,None,112.57990169999994,None,k,1,0.8707543999998961,112.57990169999994,None,None,None,113.49772719999964,None,,,,,,,,,,,,,,,,,,,,,12009,2,2,2024_Jun_15_1841,stroop_task_switching2_b,2021.2.3,60.22986124232226,
condition/block_color_b,instruction/instr_color,instruction/i8_b,XX,yellow,f,diamond,color_single,颜色,,,,,,,,,,,0,0,0,0,0,0,0,0,0,8,8,8,,,,,,,,,,,,,,,,,,,,,,,,,,,,,,,,,,,114.49834499999997,114.70134469999994,114.68201239999962,114.9834922,114.9834922,None,115.48401809999996,None,f,1,1.3584483999993608,115.48401809999996,None,None,None,116.86888429999999,None,,,,,,,,,,,,,,,,,,,,,12009,2,2,2024_Jun_15_1841,stroop_task_switching2_b,2021.2.3,60.22986124232226,
condition/block_color_b,instruction/instr_color,instruction/i8_b,XX,blue,j,diamond,color_single,颜色,,,,,,,,,,,0,0,0,0,0,0,0,0,0,9,9,9,,,,,,,,,,,,,,,,,,,,,,,,,,,,,,,,,,,117.87022179999985,118.07104350000009,118.05444559999978,118.35508429999936,118.35508429999936,None,118.85604449999937,None,j,1,0.5701337999998941,118.85604449999937,None,None,None,119.47295549999944,None,,,,,,,,,,,,,,,,,,,,,12009,2,2,2024_Jun_15_1841,stroop_task_switching2_b,2021.2.3,60.22986124232226,
condition/block_color_b,instruction/instr_color,instruction/i8_b,XX,red,k,diamond,color_single,颜色,,,,,,,,,,,0,0,0,0,0,0,0,0,0,10,10,10,,,,,,,,,,,,,,,,,,,,,,,,,,,,,,,,,,,120.47503849999976,120.67509149999933,120.65865179999946,120.9588647999999,120.94252049999977,None,121.44328119999955,None,k,1,0.5994829999999638,121.44328119999955,None,None,None,122.0598446999993,None,,,,,,,,,,,,,,,,,,,,,12009,2,2,2024_Jun_15_1841,stroop_task_switching2_b,2021.2.3,60.22986124232226,
condition/block_color_b,instruction/instr_color,instruction/i8_b,XX,green,d,diamond,color_single,颜色,,,,,,,,,,,0,0,0,0,0,0,0,0,0,11,11,11,,,,,,,,,,,,,,,,,,,,,,,,,,,,,,,,,,,123.06233479999992,123.26248659999965,123.24570129999938,123.54675889999999,123.54675889999999,None,124.0472565,None,d,1,0.42720620000000054,124.0472565,None,None,None,124.4968914000001,None,,,,,,,,,,,,,,,,,,,,,12009,2,2,2024_Jun_15_1841,stroop_task_switching2_b,2021.2.3,60.22986124232226,
condition/block_color_b,instruction/instr_color,instruction/i8_b,XX,blue,j,diamond,color_single,颜色,,,,,,,,,,,0,0,0,0,0,0,0,0,0,12,12,12,,,,,,,,,,,,,,,,,,,,,,,,,,,,,,,,,,,125.49828339999931,125.70041119999951,125.6819416999997,125.98349439999947,125.98349439999947,None,126.48448689999987,None,j,1,0.4784583000000566,126.48448689999987,None,None,None,126.98386750000009,None,,,,,,,,,,,,,,,,,,,,,12009,2,2,2024_Jun_15_1841,stroop_task_switching2_b,2021.2.3,60.22986124232226,
condition/block_color_b,instruction/instr_color,instruction/i8_b,XX,red,k,diamond,color_single,颜色,,,,,,,,,,,0,0,0,0,0,0,0,0,0,13,13,13,,,,,,,,,,,,,,,,,,,,,,,,,,,,,,,,,,,127.98632349999934,128.18679859999975,128.17000449999978,128.47059549999994,128.47059549999994,None,128.9709154000002,None,k,1,0.7596862999998848,128.9709154000002,None,None,None,129.7548038999994,None,,,,,,,,,,,,,,,,,,,,,12009,2,2,2024_Jun_15_1841,stroop_task_switching2_b,2021.2.3,60.22986124232226,
condition/block_color_b,instruction/instr_color,instruction/i8_b,XX,green,d,diamond,color_single,颜色,,,,,,,,,,,0,0,0,0,0,0,0,0,0,14,14,14,,,,,,,,,,,,,,,,,,,,,,,,,,,,,,,,,,,130.75734349999948,130.95761570000013,130.94100679999974,131.24165549999998,131.24165549999998,None,131.74094719999994,None,d,1,1.1577882999999929,131.74094719999994,None,None,None,132.94309739999971,None,,,,,,,,,,,,,,,,,,,,,12009,2,2,2024_Jun_15_1841,stroop_task_switching2_b,2021.2.3,60.22986124232226,
condition/block_color_b,instruction/instr_color,instruction/i8_b,XX,yellow,f,diamond,color_single,颜色,,,,,,,,,,,0,0,0,0,0,0,0,0,0,15,15,15,,,,,,,,,,,,,,,,,,,,,,,,,,,,,,,,,,,133.94573189999937,134.14661929999966,134.12801369999943,134.42957359999946,134.42957359999946,None,134.9292647000002,None,f,1,0.5214617000001454,134.9292647000002,None,None,None,135.48002019999967,None,,,,,,,,,,,,,,,,,,,,,12009,2,2,2024_Jun_15_1841,stroop_task_switching2_b,2021.2.3,60.22986124232226,
condition/block_color_b,instruction/instr_color,instruction/i8_b,XX,red,k,diamond,color_single,颜色,,,,,,,,,,,0,0,0,0,0,0,0,0,0,16,16,16,,,,,,,,,,,,,,,,,,,,,,,,,,,,,,,,,,,136.48257289999947,136.68275879999965,136.66626180000003,136.96671160000005,136.96671160000005,None,137.4676196999999,None,k,1,0.72721459999957,137.4676196999999,None,None,None,138.2173947000001,None,,,,,,,,,,,,,,,,,,,,,12009,2,2,2024_Jun_15_1841,stroop_task_switching2_b,2021.2.3,60.22986124232226,
condition/block_color_b,instruction/instr_color,instruction/i8_b,XX,green,d,diamond,color_single,颜色,,,,,,,,,,,0,0,0,0,0,0,0,0,0,17,17,17,,,,,,,,,,,,,,,,,,,,,,,,,,,,,,,,,,,139.2198529999996,139.42044979999991,139.4036618,139.70406999999977,139.70406999999977,None,140.20494210000015,None,d,1,0.6302546999995684,140.20494210000015,None,None,None,140.85496289999992,None,,,,,,,,,,,,,,,,,,,,,12009,2,2,2024_Jun_15_1841,stroop_task_switching2_b,2021.2.3,60.22986124232226,
condition/block_color_b,instruction/instr_color,instruction/i8_b,XX,yellow,f,diamond,color_single,颜色,,,,,,,,,,,0,0,0,0,0,0,0,0,0,18,18,18,,,,,,,,,,,,,,,,,,,,,,,,,,,,,,,,,,,141.8567734999997,142.0571734999994,142.04131139999936,142.34130920000007,142.34130920000007,None,142.84194380000008,None,f,1,0.5929815999998027,142.84194380000008,None,None,None,143.4588918999998,None,,,,,,,,,,,,,,,,,,,,,12009,2,2,2024_Jun_15_1841,stroop_task_switching2_b,2021.2.3,60.22986124232226,
condition/block_color_b,instruction/instr_color,instruction/i8_b,XX,blue,j,diamond,color_single,颜色,,,,,,,,,,,0,0,0,0,0,0,0,0,0,19,19,19,,,,,,,,,,,,,,,,,,,,,,,,,,,,,,,,,,,144.46023859999968,144.6606480999999,144.64398960000017,144.94501599999967,144.94501599999967,None,145.4450700999996,None,j,1,0.5507106999993994,145.4450700999996,None,None,None,146.01361559999987,None,,,,,,,,,,,,,,,,,,,,,12009,2,2,2024_Jun_15_1841,stroop_task_switching2_b,2021.2.3,60.22986124232226,
condition/block_color_b,instruction/instr_color,instruction/i8_b,XX,green,d,diamond,color_single,颜色,,,,,,,,,,,0,0,0,0,0,0,0,0,0,20,20,20,,,,,,,,,,,,,,,,,,,,,,,,,,,,,,,,,,,147.01511130000017,147.2153490999999,147.1985982999995,147.49883899999986,147.49883899999986,None,147.9997155000001,None,d,1,0.6836341999996876,147.9997155000001,None,None,None,148.70003180000003,None,,,,,,,,,,,,,,,,,,,,,12009,2,2,2024_Jun_15_1841,stroop_task_switching2_b,2021.2.3,60.22986124232226,
condition/block_color_b,instruction/instr_color,instruction/i8_b,XX,yellow,f,diamond,color_single,颜色,,,,,,,,,,,0,0,0,0,0,0,0,0,0,21,21,21,,,,,,,,,,,,,,,,,,,,,,,,,,,,,,,,,,,149.7025106000001,149.90261459999965,149.88582679999945,150.18689399999948,150.18689399999948,None,150.68717819999983,None,f,1,0.6688947000002372,150.68717819999983,None,None,None,151.38810459999968,None,,,,,,,,,,,,,,,,,,,,,12009,2,2,2024_Jun_15_1841,stroop_task_switching2_b,2021.2.3,60.22986124232226,
condition/block_color_b,instruction/instr_color,instruction/i8_b,XX,blue,j,diamond,color_single,颜色,,,,,,,,,,,0,0,0,0,0,0,0,0,0,22,22,22,,,,,,,,,,,,,,,,,,,,,,,,,,,,,,,,,,,152.3900294999994,152.58996079999997,152.5736356999996,152.87436819999948,152.8574622999995,None,153.35720129999936,None,j,1,0.6306124000002455,153.35720129999936,None,None,None,154.00807859999986,None,,,,,,,,,,,,,,,,,,,,,12009,2,2,2024_Jun_15_1841,stroop_task_switching2_b,2021.2.3,60.22986124232226,
condition/block_color_b,instruction/instr_color,instruction/i8_b,XX,red,k,diamond,color_single,颜色,,,,,,,,,,,0,0,0,0,0,0,0,0,0,23,23,23,,,,,,,,,,,,,,,,,,,,,,,,,,,,,,,,,,,155.00987149999946,155.21082729999944,155.19430620000003,155.49460659999932,155.49460659999932,None,155.99492180000016,None,k,1,0.5923605999996653,155.99492180000016,None,None,None,156.6127262,None,,,,,,,,,,,,,,,,,,,,,12009,2,2,2024_Jun_15_1841,stroop_task_switching2_b,2021.2.3,60.22986124232226,
condition/block_color_b,instruction/instr_color,instruction/i8_b,,,,,,,,,,,,,,,,,0,0,0,0,0,0,0,0,,,,,,,,,,,,,,,,,,,,,,,,,,,,,,,,,,,,,,,,,,,,,,,,,,,,,,,,157.66347869999936,None,space,2.9147602000002735,157.66347869999936,None,,,,,,,,,,,,,,,12009,2,2,2024_Jun_15_1841,stroop_task_switching2_b,2021.2.3,60.22986124232226,
condition/block_color_b,instruction/instr_color,instruction/i8_b,,,,,,,,,,,,,,,,,0,0,0,0,,,,,,,,,,,,,,,,,,,,,,,,,,,,,,,,,,,,,,,,,,,,,,,,,,,,,,,,,,,,,,,,,,,,,,,,,,,,,,,,12009,2,2,2024_Jun_15_1841,stroop_task_switching2_b,2021.2.3,60.22986124232226,
condition/block_word_b,instruction/instr_word,instruction/i9_b,黄,white,f,square,word_single,单词,0.0032461461866890584,,,,,,,,,,0,1,1,1,0,0,0,0,0,0,0,0,,,,,,,,,,,,,,,,,,,,,160.61780970000018,None,space,8.773194399999738,160.61780970000018,None,170.41730909999933,171.41845269999976,171.41845269999976,172.42008979999991,172.42008979999991,None,169.43233799999962,170.43371789999946,173.45399309999993,173.6548256999995,173.6218519999993,173.92232830000012,173.92232830000012,None,174.42259169999943,None,f,1,1.1657357000003685,174.42259169999943,None,None,None,175.64034869999978,None,,,,,,,,,,,,,,,,,,,,,12009,2,2,2024_Jun_15_1841,stroop_task_switching2_b,2021.2.3,60.22986124232226,
condition/block_word_b,instruction/instr_word,instruction/i9_b,蓝,white,j,square,word_single,单词,0.060540570646362424,,,,,,,,,,0,1,1,1,0,0,0,0,0,1,1,1,,,,,,,,,,,,,,,,,,,,,,,,,,,,,,,,,,,176.62645729999986,176.82661279999957,176.81006119999984,177.1100854999995,177.1100854999995,None,177.6438134,None,j,1,1.584566200000154,177.6438134,None,None,None,179.24602969999978,None,,,,,,,,,,,,,,,,,,,,,12009,2,2,2024_Jun_15_1841,stroop_task_switching2_b,2021.2.3,60.22986124232226,
condition/block_word_b,instruction/instr_word,instruction/i9_b,黄,white,f,square,word_single,单词,0.06994067193778963,,,,,,,,,,0,1,1,1,0,0,0,0,0,2,2,2,,,,,,,,,,,,,,,,,,,,,,,,,,,,,,,,,,,180.2476799999995,180.44903049999994,180.43227320000005,180.73277589999998,180.73277589999998,None,181.23346869999932,None,f,1,0.7786494000001767,181.23346869999932,None,None,None,182.0335460999995,None,,,,,,,,,,,,,,,,,,,,,12009,2,2,2024_Jun_15_1841,stroop_task_switching2_b,2021.2.3,60.22986124232226,
condition/block_word_b,instruction/instr_word,instruction/i9_b,蓝,white,j,square,word_single,单词,0.08193765152950094,,,,,,,,,,0,1,1,1,0,0,0,0,0,3,3,3,,,,,,,,,,,,,,,,,,,,,,,,,,,,,,,,,,,183.03564219999953,183.23642219999965,183.21946789999947,183.5192118999994,183.5192118999994,None,184.02075879999938,None,j,1,0.5434580999999525,184.02075879999938,None,None,None,184.5875103999997,None,,,,,,,,,,,,,,,,,,,,,12009,2,2,2024_Jun_15_1841,stroop_task_switching2_b,2021.2.3,60.22986124232226,
condition/block_word_b,instruction/instr_word,instruction/i9_b,红,white,k,square,word_single,单词,0.1279694370605574,,,,,,,,,,0,1,1,1,0,0,0,0,0,4,4,4,,,,,,,,,,,,,,,,,,,,,,,,,,,,,,,,,,,185.5900442000002,185.7902766999996,185.7733546999998,186.07431279999946,186.07431279999946,None,186.57379690000016,None,k,1,0.991103700000167,186.57379690000016,None,None,None,187.5919716999997,None,,,,,,,,,,,,,,,,,,,,,12009,2,2,2024_Jun_15_1841,stroop_task_switching2_b,2021.2.3,60.22986124232226,
condition/block_word_b,instruction/instr_word,instruction/i9_b,红,white,k,square,word_single,单词,0.18345028784879092,,,,,,,,,,0,1,1,1,0,0,0,0,0,5,5,5,,,,,,,,,,,,,,,,,,,,,,,,,,,,,,,,,,,188.59449909999967,188.7940011999999,188.77833969999938,189.0787535999998,189.0787535999998,None,189.5792663000002,None,k,1,0.6014271000003646,189.5792663000002,None,None,None,190.19597969999995,None,,,,,,,,,,,,,,,,,,,,,12009,2,2,2024_Jun_15_1841,stroop_task_switching2_b,2021.2.3,60.22986124232226,
condition/block_word_b,instruction/instr_word,instruction/i9_b,蓝,white,j,square,word_single,单词,0.19920386223101294,,,,,,,,,,0,1,1,1,0,0,0,0,0,6,6,6,,,,,,,,,,,,,,,,,,,,,,,,,,,,,,,,,,,191.19799449999937,191.39835700000003,191.3826240999997,191.68227839999963,191.68227839999963,None,192.1832685999998,None,j,1,1.3411723999997776,192.1832685999998,None,None,None,193.55094519999966,None,,,,,,,,,,,,,,,,,,,,,12009,2,2,2024_Jun_15_1841,stroop_task_switching2_b,2021.2.3,60.22986124232226,
condition/block_word_b,instruction/instr_word,instruction/i9_b,蓝,white,j,square,word_single,单词,0.26360599864925405,,,,,,,,,,0,1,1,1,0,0,0,0,0,7,7,7,,,,,,,,,,,,,,,,,,,,,,,,,,,,,,,,,,,194.55243419999988,194.7529998,194.73760029999994,195.03752769999937,195.03752769999937,None,195.53756989999965,None,j,1,0.6516693000003215,195.53756989999965,None,None,None,196.2050631000002,None,,,,,,,,,,,,,,,,,,,,,12009,2,2,2024_Jun_15_1841,stroop_task_switching2_b,2021.2.3,60.22986124232226,
condition/block_word_b,instruction/instr_word,instruction/i9_b,蓝,white,j,square,word_single,单词,0.358985675745526,,,,,,,,,,0,1,1,1,0,0,0,0,0,8,8,8,,,,,,,,,,,,,,,,,,,,,,,,,,,,,,,,,,,197.20661819999987,197.4079439999996,197.39143289999993,197.69164349999937,197.69164349999937,None,198.19231519999994,None,j,1,0.4441962999999305,198.19231519999994,None,None,None,198.65849350000008,None,,,,,,,,,,,,,,,,,,,,,12009,2,2,2024_Jun_15_1841,stroop_task_switching2_b,2021.2.3,60.22986124232226,
condition/block_word_b,instruction/instr_word,instruction/i9_b,绿,white,d,square,word_single,单词,0.36496733802487347,,,,,,,,,,0,1,1,1,0,0,0,0,0,9,9,9,,,,,,,,,,,,,,,,,,,,,,,,,,,,,,,,,,,199.6609840000001,199.86060129999987,199.84476369999993,200.1449348999995,200.1449348999995,None,200.6450490999996,None,d,1,0.7678544999998849,200.6450490999996,None,None,None,201.4293716000002,None,,,,,,,,,,,,,,,,,,,,,12009,2,2,2024_Jun_15_1841,stroop_task_switching2_b,2021.2.3,60.22986124232226,
condition/block_word_b,instruction/instr_word,instruction/i9_b,黄,white,f,square,word_single,单词,0.3743513623756727,,,,,,,,,,0,1,1,1,0,0,0,0,0,10,10,10,,,,,,,,,,,,,,,,,,,,,,,,,,,,,,,,,,,202.43207809999967,202.6323244999994,202.6154563,202.91622300000017,202.91622300000017,None,203.41608540000016,None,f,1,0.5804951999998593,203.41608540000016,None,None,None,204.01674529999946,None,,,,,,,,,,,,,,,,,,,,,12009,2,2,2024_Jun_15_1841,stroop_task_switching2_b,2021.2.3,60.22986124232226,
condition/block_word_b,instruction/instr_word,instruction/i9_b,红,white,k,square,word_single,单词,0.3894803852598544,,,,,,,,,,0,1,1,1,0,0,0,0,0,11,11,11,,,,,,,,,,,,,,,,,,,,,,,,,,,,,,,,,,,205.01937420000013,205.21958079999968,205.20276729999932,205.50360999999975,205.50360999999975,None,206.00326499999937,None,k,1,0.49779230000058305,206.00326499999937,None,None,None,206.52066409999952,None,,,,,,,,,,,,,,,,,,,,,12009,2,2,2024_Jun_15_1841,stroop_task_switching2_b,2021.2.3,60.22986124232226,
condition/block_word_b,instruction/instr_word,instruction/i9_b,绿,white,d,square,word_single,单词,0.5393759672408067,,,,,,,,,,0,1,1,1,0,0,0,0,0,12,12,12,,,,,,,,,,,,,,,,,,,,,,,,,,,,,,,,,,,207.52203129999998,207.72371119999934,207.7068561999995,208.00685410000006,208.00685410000006,None,208.50749649999943,None,d,1,0.7612656000001152,208.50749649999943,None,None,None,209.29145859999971,None,,,,,,,,,,,,,,,,,,,,,12009,2,2,2024_Jun_15_1841,stroop_task_switching2_b,2021.2.3,60.22986124232226,
condition/block_word_b,instruction/instr_word,instruction/i9_b,蓝,white,j,square,word_single,单词,0.5995731954831104,,,,,,,,,,0,1,1,1,0,0,0,0,0,13,13,13,,,,,,,,,,,,,,,,,,,,,,,,,,,,,,,,,,,210.29289639999934,210.49411559999953,210.4771493999997,210.7775284999998,210.7775284999998,None,211.2786028999999,None,j,1,0.454046500000004,211.2786028999999,None,None,None,211.7790832999999,None,,,,,,,,,,,,,,,,,,,,,12009,2,2,2024_Jun_15_1841,stroop_task_switching2_b,2021.2.3,60.22986124232226,
condition/block_word_b,instruction/instr_word,instruction/i9_b,红,white,k,square,word_single,单词,0.6298674479151414,,,,,,,,,,0,1,1,1,0,0,0,0,0,14,14,14,,,,,,,,,,,,,,,,,,,,,,,,,,,,,,,,,,,212.7807217999998,212.9811510999998,212.96471589999965,213.26498559999982,213.24837260000004,None,213.7481104999997,None,k,1,0.6409083999997165,213.7481104999997,None,None,None,214.41609119999976,None,,,,,,,,,,,,,,,,,,,,,12009,2,2,2024_Jun_15_1841,stroop_task_switching2_b,2021.2.3,60.22986124232226,
condition/block_word_b,instruction/instr_word,instruction/i9_b,红,white,k,square,word_single,单词,0.7389942282348904,,,,,,,,,,0,1,1,1,0,0,0,0,0,15,15,15,,,,,,,,,,,,,,,,,,,,,,,,,,,,,,,,,,,215.4176708999994,215.61857419999978,215.6022664000002,215.90189529999952,215.90189529999952,None,216.40310039999986,None,k,1,0.537910699999884,216.40310039999986,None,None,None,216.98661959999936,None,,,,,,,,,,,,,,,,,,,,,12009,2,2,2024_Jun_15_1841,stroop_task_switching2_b,2021.2.3,60.22986124232226,
condition/block_word_b,instruction/instr_word,instruction/i9_b,绿,white,d,square,word_single,单词,0.7550853947239682,,,,,,,,,,0,1,1,1,0,0,0,0,0,16,16,16,,,,,,,,,,,,,,,,,,,,,,,,,,,,,,,,,,,217.98915849999958,218.18910349999987,218.17281339999954,218.4724972999993,218.4724972999993,None,218.9735099999998,None,d,1,0.9515289999999368,218.9735099999998,None,None,None,219.94070849999935,None,,,,,,,,,,,,,,,,,,,,,12009,2,2,2024_Jun_15_1841,stroop_task_switching2_b,2021.2.3,60.22986124232226,
condition/block_word_b,instruction/instr_word,instruction/i9_b,绿,white,d,square,word_single,单词,0.8019302780428206,,,,,,,,,,0,1,1,1,0,0,0,0,0,17,17,17,,,,,,,,,,,,,,,,,,,,,,,,,,,,,,,,,,,220.94236639999963,221.14253860000008,221.12580759999946,221.42745430000014,221.42745430000014,None,221.92709409999952,None,d,1,0.7266183000001547,221.92709409999952,None,None,None,222.67826609999975,None,,,,,,,,,,,,,,,,,,,,,12009,2,2,2024_Jun_15_1841,stroop_task_switching2_b,2021.2.3,60.22986124232226,
condition/block_word_b,instruction/instr_word,instruction/i9_b,绿,white,d,square,word_single,单词,0.8110702914095343,,,,,,,,,,0,1,1,1,0,0,0,0,0,18,18,18,,,,,,,,,,,,,,,,,,,,,,,,,,,,,,,,,,,223.68059939999966,223.8809709999996,223.8647087999998,224.16458559999955,224.16458559999955,None,224.66559189999953,None,d,1,0.5163830999999846,224.66559189999953,None,None,None,225.1987814999993,None,,,,,,,,,,,,,,,,,,,,,12009,2,2,2024_Jun_15_1841,stroop_task_switching2_b,2021.2.3,60.22986124232226,
condition/block_word_b,instruction/instr_word,instruction/i9_b,黄,white,f,square,word_single,单词,0.8176594937590999,,,,,,,,,,0,1,1,1,0,0,0,0,0,19,19,19,,,,,,,,,,,,,,,,,,,,,,,,,,,,,,,,,,,226.20131729999957,226.4015761999999,226.3850894999996,226.68458680000003,226.68458680000003,None,227.18603110000004,None,f,1,0.6998843999999735,227.18603110000004,None,None,None,227.90265089999957,None,,,,,,,,,,,,,,,,,,,,,12009,2,2,2024_Jun_15_1841,stroop_task_switching2_b,2021.2.3,60.22986124232226,
condition/block_word_b,instruction/instr_word,instruction/i9_b,红,white,k,square,word_single,单词,0.8955794421104841,,,,,,,,,,0,1,1,1,0,0,0,0,0,20,20,20,,,,,,,,,,,,,,,,,,,,,,,,,,,,,,,,,,,228.90508989999944,229.1051424999996,229.08900429999994,229.38913779999984,229.38913779999984,None,229.89026639999975,None,k,1,0.8918088000000353,229.89026639999975,None,None,None,230.8083085999997,None,,,,,,,,,,,,,,,,,,,,,12009,2,2,2024_Jun_15_1841,stroop_task_switching2_b,2021.2.3,60.22986124232226,
condition/block_word_b,instruction/instr_word,instruction/i9_b,绿,white,d,square,word_single,单词,0.9113598052474129,,,,,,,,,,0,1,1,1,0,0,0,0,0,21,21,21,,,,,,,,,,,,,,,,,,,,,,,,,,,,,,,,,,,231.80943079999997,232.00996659999964,231.99303400000008,232.2938693999995,232.2938693999995,None,232.79457509999975,None,d,1,0.6593776999998227,232.79457509999975,None,None,None,233.47763450000002,None,,,,,,,,,,,,,,,,,,,,,12009,2,2,2024_Jun_15_1841,stroop_task_switching2_b,2021.2.3,60.22986124232226,
condition/block_word_b,instruction/instr_word,instruction/i9_b,黄,white,f,square,word_single,单词,0.9215930958042953,,,,,,,,,,0,1,1,1,0,0,0,0,0,22,22,22,,,,,,,,,,,,,,,,,,,,,,,,,,,,,,,,,,,234.48080819999996,234.6803087999997,234.66410600000017,234.96348399999988,234.96348399999988,None,235.46420619999935,None,f,1,0.7502629000000525,235.46420619999935,None,None,None,236.23244629999954,None,,,,,,,,,,,,,,,,,,,,,12009,2,2,2024_Jun_15_1841,stroop_task_switching2_b,2021.2.3,60.22986124232226,
condition/block_word_b,instruction/instr_word,instruction/i9_b,黄,white,f,square,word_single,单词,0.9493525498837774,,,,,,,,,,0,1,1,1,0,0,0,0,0,23,23,23,,,,,,,,,,,,,,,,,,,,,,,,,,,,,,,,,,,237.23470199999974,237.4351698999999,237.41742280000017,237.7186630999995,237.7186630999995,None,238.21913909999967,None,f,1,0.8105077000000165,238.21913909999967,None,None,None,239.05279679999967,None,,,,,,,,,,,,,,,,,,,,,12009,2,2,2024_Jun_15_1841,stroop_task_switching2_b,2021.2.3,60.22986124232226,
condition/block_word_b,instruction/instr_word,instruction/i9_b,,,,,,,,,,,,,,,,,0,1,1,1,0,0,0,0,,,,,,,,,,,,,,,,,,,,,,,,,,,,,,,,,,,,,,,,,,,,,,,,,,,,,,,,240.07264979999945,None,space,2.5060649999995803,240.07264979999945,None,,,,,,,,,,,,,,,12009,2,2,2024_Jun_15_1841,stroop_task_switching2_b,2021.2.3,60.22986124232226,
condition/block_word_b,instruction/instr_word,instruction/i9_b,,,,,,,,,,,,,,,,,0,1,1,1,,,,,,,,,,,,,,,,,,,,,,,,,,,,,,,,,,,,,,,,,,,,,,,,,,,,,,,,,,,,,,,,,,,,,,,,,,,,,,,,12009,2,2,2024_Jun_15_1841,stroop_task_switching2_b,2021.2.3,60.22986124232226,
condition/block_mixed_b,instruction/instr_mixed,instruction/i10_b,蓝,red,k,diamond,color_mix,颜色,,incompatible,0,,,,,,,,0,2,2,2,0,0,0,0,0,0,0,0,,,,,,,,,,,,,,,,,,,,,242.64165009999942,None,space,19.509033499999532,242.64165009999942,None,263.17350519999945,264.1750548,264.1750548,265.1764783999997,265.1764783999997,None,262.1885717999994,263.1903129000002,266.21152359999996,266.4119710999994,266.3950146999996,266.69579410000006,266.69579410000006,None,267.1796900999998,None,k,1,1.2591897000002064,267.1796900999998,None,None,None,268.4970376000001,None,,,,,,,,,,,,,,,,,,,,,12009,2,2,2024_Jun_15_1841,stroop_task_switching2_b,2021.2.3,60.22986124232226,
condition/block_mixed_b,instruction/instr_mixed,instruction/i10_b,绿,yellow,f,diamond,color_mix,颜色,,incompatible,1,,,,,,,,0,2,2,2,0,0,0,0,0,1,1,1,,,,,,,,,,,,,,,,,,,,,,,,,,,,,,,,,,,269.4830118,269.68322569999964,269.66647229999944,269.9672393000001,269.9672393000001,None,270.4678815999996,None,f,1,0.8751830999999584,270.4678815999996,None,None,None,271.36825640000006,None,,,,,,,,,,,,,,,,,,,,,12009,2,2,2024_Jun_15_1841,stroop_task_switching2_b,2021.2.3,60.22986124232226,
condition/block_mixed_b,instruction/instr_mixed,instruction/i10_b,红,green,d,diamond,color_mix,颜色,,incompatible,1,,,,,,,,0,2,2,2,0,0,0,0,0,2,2,2,,,,,,,,,,,,,,,,,,,,,,,,,,,,,,,,,,,272.3709261999993,272.5721939999994,272.5534447,272.85454560000016,272.85454560000016,None,273.3554562999998,None,d,1,0.6991269999998622,273.3554562999998,None,None,None,274.0724449999998,None,,,,,,,,,,,,,,,,,,,,,12009,2,2,2024_Jun_15_1841,stroop_task_switching2_b,2021.2.3,60.22986124232226,
condition/block_mixed_b,instruction/instr_mixed,instruction/i10_b,蓝,red,k,diamond,color_mix,颜色,,incompatible,1,,,,,,,,0,2,2,2,0,0,0,0,0,3,3,3,,,,,,,,,,,,,,,,,,,,,,,,,,,,,,,,,,,275.07478489999994,275.2753649999995,275.2586674999993,275.5584119999994,275.5584119999994,None,276.0591921999994,None,k,1,0.9717100999996546,276.0591921999994,None,None,None,277.0774150999996,None,,,,,,,,,,,,,,,,,,,,,12009,2,2,2024_Jun_15_1841,stroop_task_switching2_b,2021.2.3,60.22986124232226,
condition/block_mixed_b,instruction/instr_mixed,instruction/i10_b,红,blue,j,diamond,color_mix,颜色,,incompatible,1,,,,,,,,0,2,2,2,0,0,0,0,0,4,4,4,,,,,,,,,,,,,,,,,,,,,,,,,,,,,,,,,,,278.07966679999936,278.2813615999994,278.26212399999986,278.5628796000001,278.5628796000001,None,279.06437129999995,None,j,1,0.7102887999999439,279.06437129999995,None,None,None,279.7977695999998,None,,,,,,,,,,,,,,,,,,,,,12009,2,2,2024_Jun_15_1841,stroop_task_switching2_b,2021.2.3,60.22986124232226,
condition/block_mixed_b,instruction/instr_mixed,instruction/i10_b,红,blue,k,square,color_mix,单词,,incompatible,2,,,,,,,,0,2,2,2,0,0,0,0,0,5,5,5,,,,,,,,,,,,,,,,,,,,,,,,,,,,,,,,,,,280.80004819999976,280.99991239999963,280.9835771999997,281.2841540999998,281.2841540999998,None,281.78461379999953,None,k,1,1.2302263000001403,281.78461379999953,None,None,None,283.03588949999994,None,,,,,,,,,,,,,,,,,,,,,12009,2,2,2024_Jun_15_1841,stroop_task_switching2_b,2021.2.3,60.22986124232226,
condition/block_mixed_b,instruction/instr_mixed,instruction/i10_b,红,yellow,f,diamond,color_mix,颜色,,incompatible,2,,,,,,,,0,2,2,2,0,0,0,0,0,6,6,6,,,,,,,,,,,,,,,,,,,,,,,,,,,,,,,,,,,284.0382450999996,284.2387791000001,284.2220621999995,284.52154729999984,284.52154729999984,None,285.02221089999966,None,f,1,0.8729184999992867,285.02221089999966,None,None,None,285.94084549999934,None,,,,,,,,,,,,,,,,,,,,,12009,2,2,2024_Jun_15_1841,stroop_task_switching2_b,2021.2.3,60.22986124232226,
condition/block_mixed_b,instruction/instr_mixed,instruction/i10_b,红,yellow,k,square,color_mix,单词,,incompatible,2,,,,,,,,0,2,2,2,0,0,0,0,0,7,7,7,,,,,,,,,,,,,,,,,,,,,,,,,,,,,,,,,,,286.9429322999995,287.1431676000002,287.12652759999946,287.4271485999998,287.4271485999998,None,287.9275683999995,None,k,1,0.8712399000005462,287.9275683999995,None,None,None,288.8450210000001,None,,,,,,,,,,,,,,,,,,,,,12009,2,2,2024_Jun_15_1841,stroop_task_switching2_b,2021.2.3,60.22986124232226,
condition/block_mixed_b,instruction/instr_mixed,instruction/i10_b,绿,blue,d,square,color_mix,单词,,incompatible,1,,,,,,,,0,2,2,2,0,0,0,0,0,8,8,8,,,,,,,,,,,,,,,,,,,,,,,,,,,,,,,,,,,289.84720169999946,290.0473886,290.0139597999996,290.3144622,290.33135609999954,None,290.83166660000006,None,d,1,0.9116002999999182,290.83166660000006,None,None,None,291.7657780999998,None,,,,,,,,,,,,,,,,,,,,,12009,2,2,2024_Jun_15_1841,stroop_task_switching2_b,2021.2.3,60.22986124232226,
condition/block_mixed_b,instruction/instr_mixed,instruction/i10_b,蓝,green,d,diamond,color_mix,颜色,,incompatible,2,,,,,,,,0,2,2,2,0,0,0,0,0,9,9,9,,,,,,,,,,,,,,,,,,,,,,,,,,,,,,,,,,,292.76813159999983,292.9685437999997,292.95190339999954,293.25236760000007,293.25236760000007,None,293.75287879999996,None,d,1,1.5105022999996436,293.75287879999996,None,None,None,295.28767400000015,None,,,,,,,,,,,,,,,,,,,,,12009,2,2,2024_Jun_15_1841,stroop_task_switching2_b,2021.2.3,60.22986124232226,
condition/block_mixed_b,instruction/instr_mixed,instruction/i10_b,蓝,yellow,j,square,color_mix,单词,,incompatible,2,,,,,,,,0,2,2,2,0,0,0,0,0,10,10,10,,,,,,,,,,,,,,,,,,,,,,,,,,,,,,,,,,,296.2903017999997,296.4903457999999,296.47387679999974,296.7747012,296.7747012,None,297.2749780999993,None,j,1,0.6921615000001111,297.2749780999993,None,None,None,297.9919308999997,None,,,,,,,,,,,,,,,,,,,,,12009,2,2,2024_Jun_15_1841,stroop_task_switching2_b,2021.2.3,60.22986124232226,
condition/block_mixed_b,instruction/instr_mixed,instruction/i10_b,蓝,green,j,square,color_mix,单词,,incompatible,1,,,,,,,,0,2,2,2,0,0,0,0,0,11,11,11,,,,,,,,,,,,,,,,,,,,,,,,,,,,,,,,,,,298.9947607999993,299.1943653999997,299.1783713999994,299.47841569999946,299.47841569999946,None,299.9791841999995,None,j,1,0.5726688999993712,299.9791841999995,None,None,None,300.5790563999999,None,,,,,,,,,,,,,,,,,,,,,12009,2,2,2024_Jun_15_1841,stroop_task_switching2_b,2021.2.3,60.22986124232226,
condition/block_mixed_b,instruction/instr_mixed,instruction/i10_b,绿,yellow,d,square,color_mix,单词,,incompatible,1,,,,,,,,0,2,2,2,0,0,0,0,0,12,12,12,,,,,,,,,,,,,,,,,,,,,,,,,,,,,,,,,,,301.5805156999995,301.78160489999937,301.7644663000001,302.0659684000002,302.0659684000002,None,302.5664117999995,None,d,1,0.729293699999289,302.5664117999995,None,None,None,303.31647559999965,None,,,,,,,,,,,,,,,,,,,,,12009,2,2,2024_Jun_15_1841,stroop_task_switching2_b,2021.2.3,60.22986124232226,
condition/block_mixed_b,instruction/instr_mixed,instruction/i10_b,绿,blue,j,diamond,color_mix,颜色,,incompatible,2,,,,,,,,0,2,2,2,0,0,0,0,0,13,13,13,,,,,,,,,,,,,,,,,,,,,,,,,,,,,,,,,,,304.3190144,304.51860489999945,304.50233169999956,304.8018723999994,304.8018723999994,None,305.30399709999983,None,j,1,1.9518495000002076,305.30399709999983,None,None,None,307.2725153000001,None,,,,,,,,,,,,,,,,,,,,,12009,2,2,2024_Jun_15_1841,stroop_task_switching2_b,2021.2.3,60.22986124232226,
condition/block_mixed_b,instruction/instr_mixed,instruction/i10_b,黄,red,f,square,color_mix,单词,,incompatible,2,,,,,,,,0,2,2,2,0,0,0,0,0,14,14,14,,,,,,,,,,,,,,,,,,,,,,,,,,,,,,,,,,,308.2747593999993,308.4756139000001,308.45860619999985,308.7588273000001,308.7588273000001,None,309.2601937999998,None,f,1,0.9635621999996147,309.2601937999998,None,None,None,310.24369169999954,None,,,,,,,,,,,,,,,,,,,,,12009,2,2,2024_Jun_15_1841,stroop_task_switching2_b,2021.2.3,60.22986124232226,
condition/block_mixed_b,instruction/instr_mixed,instruction/i10_b,蓝,yellow,f,diamond,color_mix,颜色,,incompatible,2,,,,,,,,0,2,2,2,0,0,0,0,0,15,15,15,,,,,,,,,,,,,,,,,,,,,,,,,,,,,,,,,,,311.24620419999974,311.4459591999994,311.4288617000002,311.7292238,311.7292238,None,312.2299266,None,f,1,0.7457938000006834,312.2299266,None,None,None,312.99788480000007,None,,,,,,,,,,,,,,,,,,,,,12009,2,2,2024_Jun_15_1841,stroop_task_switching2_b,2021.2.3,60.22986124232226,
condition/block_mixed_b,instruction/instr_mixed,instruction/i10_b,黄,red,k,diamond,color_mix,颜色,,incompatible,1,,,,,,,,0,2,2,2,0,0,0,0,0,16,16,16,,,,,,,,,,,,,,,,,,,,,,,,,,,,,,,,,,,313.9995352999995,314.2008476000001,314.18397079999977,314.48385139999937,314.48385139999937,None,314.9840224999998,None,k,1,0.8079005999998117,314.9840224999998,None,None,None,315.81865579999976,None,,,,,,,,,,,,,,,,,,,,,12009,2,2,2024_Jun_15_1841,stroop_task_switching2_b,2021.2.3,60.22986124232226,
condition/block_mixed_b,instruction/instr_mixed,instruction/i10_b,绿,red,d,square,color_mix,单词,,incompatible,2,,,,,,,,0,2,2,2,0,0,0,0,0,17,17,17,,,,,,,,,,,,,,,,,,,,,,,,,,,,,,,,,,,316.8211566,317.0215379000001,317.0048004,317.3049721999996,317.3049721999996,None,317.80581489999986,None,d,1,0.7305710999999064,317.80581489999986,None,None,None,318.55605130000004,None,,,,,,,,,,,,,,,,,,,,,12009,2,2,2024_Jun_15_1841,stroop_task_switching2_b,2021.2.3,60.22986124232226,
condition/block_mixed_b,instruction/instr_mixed,instruction/i10_b,红,green,k,square,color_mix,单词,,incompatible,1,,,,,,,,0,2,2,2,0,0,0,0,0,18,18,18,,,,,,,,,,,,,,,,,,,,,,,,,,,,,,,,,,,319.5577153999993,319.75898099999995,319.7416181999997,320.0415489999996,320.0415489999996,None,320.5431262000002,None,k,1,0.6647983000002569,320.5431262000002,None,None,None,321.2268914999995,None,,,,,,,,,,,,,,,,,,,,,12009,2,2,2024_Jun_15_1841,stroop_task_switching2_b,2021.2.3,60.22986124232226,
condition/block_mixed_b,instruction/instr_mixed,instruction/i10_b,黄,blue,j,diamond,color_mix,颜色,,incompatible,2,,,,,,,,0,2,2,2,0,0,0,0,0,19,19,19,,,,,,,,,,,,,,,,,,,,,,,,,,,,,,,,,,,322.22902350000004,322.4297201999998,322.41306369999984,322.7133778999996,322.7133778999996,None,323.21418540000013,None,j,1,1.2736511000002793,323.21418540000013,None,None,None,324.5162167999997,None,,,,,,,,,,,,,,,,,,,,,12009,2,2,2024_Jun_15_1841,stroop_task_switching2_b,2021.2.3,60.22986124232226,
condition/block_mixed_b,instruction/instr_mixed,instruction/i10_b,黄,green,d,diamond,color_mix,颜色,,incompatible,1,,,,,,,,0,2,2,2,0,0,0,0,0,20,20,20,,,,,,,,,,,,,,,,,,,,,,,,,,,,,,,,,,,325.51746550000007,325.7180153999998,325.70131069999934,326.0014666999996,326.0014666999996,None,326.5027774,None,d,1,0.7133800999999949,326.5027774,None,None,None,327.2357327999998,None,,,,,,,,,,,,,,,,,,,,,12009,2,2,2024_Jun_15_1841,stroop_task_switching2_b,2021.2.3,60.22986124232226,
condition/block_mixed_b,instruction/instr_mixed,instruction/i10_b,黄,green,f,square,color_mix,单词,,incompatible,2,,,,,,,,0,2,2,2,0,0,0,0,0,21,21,21,,,,,,,,,,,,,,,,,,,,,,,,,,,,,,,,,,,328.23846869999943,328.43881489999967,328.42208630000005,328.7223229000001,328.7223229000001,None,329.22336989999985,None,f,1,0.968568299999788,329.22336989999985,None,None,None,330.20711669999946,None,,,,,,,,,,,,,,,,,,,,,12009,2,2,2024_Jun_15_1841,stroop_task_switching2_b,2021.2.3,60.22986124232226,
condition/block_mixed_b,instruction/instr_mixed,instruction/i10_b,黄,blue,f,square,color_mix,单词,,incompatible,1,,,,,,,,0,2,2,2,0,0,0,0,0,22,22,22,,,,,,,,,,,,,,,,,,,,,,,,,,,,,,,,,,,331.20980640000016,331.41000369999983,331.3930773000002,331.6936851999999,331.6936851999999,None,332.19391369999994,None,f,1,2.2950301999999283,332.19391369999994,None,None,None,334.51382060000014,None,,,,,,,,,,,,,,,,,,,,,12009,2,2,2024_Jun_15_1841,stroop_task_switching2_b,2021.2.3,60.22986124232226,
condition/block_mixed_b,instruction/instr_mixed,instruction/i10_b,蓝,red,j,square,color_mix,单词,,incompatible,1,,,,,,,,0,2,2,2,0,0,0,0,0,23,23,23,,,,,,,,,,,,,,,,,,,,,,,,,,,,,,,,,,,335.5159673999997,335.71660689999953,335.6986545999998,336.0001930999997,336.0001930999997,None,336.50088439999945,None,j,1,1.339730500000769,336.50088439999945,None,None,None,337.8691740999993,None,,,,,,,,,,,,,,,,,,,,,12009,2,2,2024_Jun_15_1841,stroop_task_switching2_b,2021.2.3,60.22986124232226,
condition/block_mixed_b,instruction/instr_mixed,instruction/i10_b,绿,red,k,diamond,color_mix,颜色,,incompatible,2,,,,,,,,0,2,2,2,0,0,0,0,0,24,24,24,,,,,,,,,,,,,,,,,,,,,,,,,,,,,,,,,,,338.8711229999999,339.0713920999997,339.05467229999977,339.3551475999993,339.3551475999993,None,339.8560102000001,None,k,1,0.7923567000007097,339.8560102000001,None,None,None,340.6724629,None,,,,,,,,,,,,,,,,,,,,,12009,2,2,2024_Jun_15_1841,stroop_task_switching2_b,2021.2.3,60.22986124232226,
condition/block_mixed_b,instruction/instr_mixed,instruction/i10_b,绿,green,d,diamond,color_mix,颜色,,compatible,1,,,,,,,,0,2,2,2,0,0,0,0,0,25,25,25,,,,,,,,,,,,,,,,,,,,,,,,,,,,,,,,,,,341.6755471999995,341.8754192999995,341.85852109999996,342.1595084999999,342.1595084999999,None,342.6600662999999,None,d,1,0.6206103000004077,342.6600662999999,None,None,None,343.31127060000017,None,,,,,,,,,,,,,,,,,,,,,12009,2,2,2024_Jun_15_1841,stroop_task_switching2_b,2021.2.3,60.22986124232226,
condition/block_mixed_b,instruction/instr_mixed,instruction/i10_b,蓝,blue,j,diamond,color_mix,颜色,,compatible,1,,,,,,,,0,2,2,2,0,0,0,0,0,26,26,26,,,,,,,,,,,,,,,,,,,,,,,,,,,,,,,,,,,344.3126794,344.51284419999956,344.49611659999937,344.7967497999998,344.7967497999998,None,345.29707189999954,None,j,1,0.9839898999998695,345.29707189999954,None,None,None,346.2989127000001,None,,,,,,,,,,,,,,,,,,,,,12009,2,2,2024_Jun_15_1841,stroop_task_switching2_b,2021.2.3,60.22986124232226,
condition/block_mixed_b,instruction/instr_mixed,instruction/i10_b,绿,green,d,square,color_mix,单词,,compatible,2,,,,,,,,0,2,2,2,0,0,0,0,0,27,27,27,,,,,,,,,,,,,,,,,,,,,,,,,,,,,,,,,,,347.3005076999998,347.5008263999998,347.48402819999956,347.78495740000017,347.78495740000017,None,348.28538949999984,None,d,1,0.883847699999933,348.28538949999984,None,None,None,349.1864126999999,None,,,,,,,,,,,,,,,,,,,,,12009,2,2,2024_Jun_15_1841,stroop_task_switching2_b,2021.2.3,60.22986124232226,
condition/block_mixed_b,instruction/instr_mixed,instruction/i10_b,绿,green,d,square,color_mix,单词,,compatible,1,,,,,,,,0,2,2,2,0,0,0,0,0,28,28,28,,,,,,,,,,,,,,,,,,,,,,,,,,,,,,,,,,,350.18814459999976,350.38841049999974,350.3717491999996,350.6724591000002,350.6724591000002,None,351.1726748000001,None,d,1,0.7561850000001868,351.1726748000001,None,None,None,351.9572328999993,None,,,,,,,,,,,,,,,,,,,,,12009,2,2,2024_Jun_15_1841,stroop_task_switching2_b,2021.2.3,60.22986124232226,
condition/block_mixed_b,instruction/instr_mixed,instruction/i10_b,蓝,blue,j,square,color_mix,单词,,compatible,1,,,,,,,,0,2,2,2,0,0,0,0,0,29,29,29,,,,,,,,,,,,,,,,,,,,,,,,,,,,,,,,,,,352.9590275999999,353.1593976999993,353.1426115999993,353.4432221999996,353.4432221999996,None,353.9436390999999,None,j,1,0.7210344999994049,353.9436390999999,None,None,None,354.69379039999967,None,,,,,,,,,,,,,,,,,,,,,12009,2,2,2024_Jun_15_1841,stroop_task_switching2_b,2021.2.3,60.22986124232226,
condition/block_mixed_b,instruction/instr_mixed,instruction/i10_b,黄,yellow,f,diamond,color_mix,颜色,,compatible,2,,,,,,,,0,2,2,2,0,0,0,0,0,30,30,30,,,,,,,,,,,,,,,,,,,,,,,,,,,,,,,,,,,355.69647970000005,355.8967944999995,355.87972399999944,356.18060799999967,356.18060799999967,None,356.68136349999986,None,f,1,0.9921973000000435,356.68136349999986,None,None,None,357.69924379999975,None,,,,,,,,,,,,,,,,,,,,,12009,2,2,2024_Jun_15_1841,stroop_task_switching2_b,2021.2.3,60.22986124232226,
condition/block_mixed_b,instruction/instr_mixed,instruction/i10_b,绿,green,d,square,color_mix,单词,,compatible,2,,,,,,,,0,2,2,2,0,0,0,0,0,31,31,31,,,,,,,,,,,,,,,,,,,,,,,,,,,,,,,,,,,358.7007094999999,358.90146430000004,358.8846485999993,359.1849158999994,359.1849158999994,None,359.6860657999996,None,d,1,0.8031788000007509,359.6860657999996,None,None,None,360.5204292999997,None,,,,,,,,,,,,,,,,,,,,,12009,2,2,2024_Jun_15_1841,stroop_task_switching2_b,2021.2.3,60.22986124232226,
condition/block_mixed_b,instruction/instr_mixed,instruction/i10_b,黄,yellow,f,square,color_mix,单词,,compatible,1,,,,,,,,0,2,2,2,0,0,0,0,0,32,32,32,,,,,,,,,,,,,,,,,,,,,,,,,,,,,,,,,,,361.52234769999995,361.72265939999943,361.70581519999996,362.00576739999997,362.00576739999997,None,362.50638660000004,None,f,1,0.9906540000001769,362.50638660000004,None,None,None,363.5238595999999,None,,,,,,,,,,,,,,,,,,,,,12009,2,2,2024_Jun_15_1841,stroop_task_switching2_b,2021.2.3,60.22986124232226,
condition/block_mixed_b,instruction/instr_mixed,instruction/i10_b,绿,green,d,diamond,color_mix,颜色,,compatible,2,,,,,,,,0,2,2,2,0,0,0,0,0,33,33,33,,,,,,,,,,,,,,,,,,,,,,,,,,,,,,,,,,,364.5264972999994,364.7269204999993,364.7101376999999,365.0097704,365.0097704,None,365.5113289000001,None,d,1,1.346175200000289,365.5113289000001,None,None,None,366.87911149999945,None,,,,,,,,,,,,,,,,,,,,,12009,2,2,2024_Jun_15_1841,stroop_task_switching2_b,2021.2.3,60.22986124232226,
condition/block_mixed_b,instruction/instr_mixed,instruction/i10_b,红,red,k,square,color_mix,单词,,compatible,2,,,,,,,,0,2,2,2,0,0,0,0,0,34,34,34,,,,,,,,,,,,,,,,,,,,,,,,,,,,,,,,,,,367.8815816999995,368.0818830999997,368.06507019999935,368.3655775999996,368.3655775999996,None,368.86635359999946,None,k,1,0.9428134999998292,368.86635359999946,None,None,None,369.8336512999995,None,,,,,,,,,,,,,,,,,,,,,12009,2,2,2024_Jun_15_1841,stroop_task_switching2_b,2021.2.3,60.22986124232226,
condition/block_mixed_b,instruction/instr_mixed,instruction/i10_b,黄,yellow,f,square,color_mix,单词,,compatible,1,,,,,,,,0,2,2,2,0,0,0,0,0,35,35,35,,,,,,,,,,,,,,,,,,,,,,,,,,,,,,,,,,,370.8356206999997,371.03630879999946,371.0194722999995,371.3201270999998,371.3201270999998,None,371.82111449999957,None,f,1,0.8125017000002117,371.82111449999957,None,None,None,372.6543320999999,None,,,,,,,,,,,,,,,,,,,,,12009,2,2,2024_Jun_15_1841,stroop_task_switching2_b,2021.2.3,60.22986124232226,
condition/block_mixed_b,instruction/instr_mixed,instruction/i10_b,绿,green,d,diamond,color_mix,颜色,,compatible,2,,,,,,,,0,2,2,2,0,0,0,0,0,36,36,36,,,,,,,,,,,,,,,,,,,,,,,,,,,,,,,,,,,373.65597049999997,373.85727919999954,373.8400778999994,374.1410036999996,374.1410036999996,None,374.6407982999999,None,d,1,0.7930556000001161,374.6407982999999,None,None,None,375.4585261000002,None,,,,,,,,,,,,,,,,,,,,,12009,2,2,2024_Jun_15_1841,stroop_task_switching2_b,2021.2.3,60.22986124232226,
condition/block_mixed_b,instruction/instr_mixed,instruction/i10_b,蓝,blue,j,square,color_mix,单词,,compatible,2,,,,,,,,0,2,2,2,0,0,0,0,0,37,37,37,,,,,,,,,,,,,,,,,,,,,,,,,,,,,,,,,,,376.4611912999999,376.66150599999946,376.6448752999995,376.9447750999998,376.9447750999998,None,377.44458080000004,None,j,1,0.7408642000000327,377.44458080000004,None,None,None,378.2131780999998,None,,,,,,,,,,,,,,,,,,,,,12009,2,2,2024_Jun_15_1841,stroop_task_switching2_b,2021.2.3,60.22986124232226,
condition/block_mixed_b,instruction/instr_mixed,instruction/i10_b,红,red,k,square,color_mix,单词,,compatible,1,,,,,,,,0,2,2,2,0,0,0,0,0,38,38,38,,,,,,,,,,,,,,,,,,,,,,,,,,,,,,,,,,,379.2155979999998,379.41559359999974,379.39906619999965,379.6983841000001,379.6983841000001,None,380.2003407000002,None,k,1,1.5770961000007446,380.2003407000002,None,None,None,381.8026001999997,None,,,,,,,,,,,,,,,,,,,,,12009,2,2,2024_Jun_15_1841,stroop_task_switching2_b,2021.2.3,60.22986124232226,
condition/block_mixed_b,instruction/instr_mixed,instruction/i10_b,黄,yellow,f,diamond,color_mix,颜色,,compatible,2,,,,,,,,0,2,2,2,0,0,0,0,0,39,39,39,,,,,,,,,,,,,,,,,,,,,,,,,,,,,,,,,,,382.8037016999997,383.00434379999933,382.98796739999943,383.28776579999976,383.28776579999976,None,383.78898969999955,None,f,1,0.7333974000002854,383.78898969999955,None,None,None,384.5388019000002,None,,,,,,,,,,,,,,,,,,,,,12009,2,2,2024_Jun_15_1841,stroop_task_switching2_b,2021.2.3,60.22986124232226,
condition/block_mixed_b,instruction/instr_mixed,instruction/i10_b,黄,yellow,f,square,color_mix,单词,,compatible,2,,,,,,,,0,2,2,2,0,0,0,0,0,40,40,40,,,,,,,,,,,,,,,,,,,,,,,,,,,,,,,,,,,385.5412478999997,385.7420510000002,385.72526599999946,386.02530359999946,386.02530359999946,None,386.5263033000001,None,f,1,1.2433589999991455,386.5263033000001,None,None,None,387.7943269999996,None,,,,,,,,,,,,,,,,,,,,,12009,2,2,2024_Jun_15_1841,stroop_task_switching2_b,2021.2.3,60.22986124232226,
condition/block_mixed_b,instruction/instr_mixed,instruction/i10_b,蓝,blue,j,square,color_mix,单词,,compatible,1,,,,,,,,0,2,2,2,0,0,0,0,0,41,41,41,,,,,,,,,,,,,,,,,,,,,,,,,,,,,,,,,,,388.7964855,388.99696609999955,388.97997080000005,389.28025269999944,389.28025269999944,None,389.7815257000002,None,j,1,0.9806564999998955,389.7815257000002,None,None,None,390.7818553999996,None,,,,,,,,,,,,,,,,,,,,,12009,2,2,2024_Jun_15_1841,stroop_task_switching2_b,2021.2.3,60.22986124232226,
condition/block_mixed_b,instruction/instr_mixed,instruction/i10_b,蓝,blue,j,diamond,color_mix,颜色,,compatible,2,,,,,,,,0,2,2,2,0,0,0,0,0,42,42,42,,,,,,,,,,,,,,,,,,,,,,,,,,,,,,,,,,,391.7844755999995,391.9848670000001,391.96796209999957,392.2697197999996,392.2697197999996,None,392.7691384999998,None,j,1,1.649069099999906,392.7691384999998,None,None,None,394.43804269999964,None,,,,,,,,,,,,,,,,,,,,,12009,2,2,2024_Jun_15_1841,stroop_task_switching2_b,2021.2.3,60.22986124232226,
condition/block_mixed_b,instruction/instr_mixed,instruction/i10_b,黄,yellow,f,diamond,color_mix,颜色,,compatible,1,,,,,,,,0,2,2,2,0,0,0,0,0,43,43,43,,,,,,,,,,,,,,,,,,,,,,,,,,,,,,,,,,,395.43938139999955,395.6398075999996,395.6239861999993,395.92397449999953,395.92397449999953,None,396.42442070000016,None,f,1,0.6578291000005265,396.42442070000016,None,None,None,397.1095317999998,None,,,,,,,,,,,,,,,,,,,,,12009,2,2,2024_Jun_15_1841,stroop_task_switching2_b,2021.2.3,60.22986124232226,
condition/block_mixed_b,instruction/instr_mixed,instruction/i10_b,红,red,k,diamond,color_mix,颜色,,compatible,1,,,,,,,,0,2,2,2,0,0,0,0,0,44,44,44,,,,,,,,,,,,,,,,,,,,,,,,,,,,,,,,,,,398.1106178,398.31061469999986,398.29348239999945,398.59490860000005,398.59490860000005,None,399.09528469999987,None,k,1,0.7386980000001131,399.09528469999987,None,None,None,399.86300779999965,None,,,,,,,,,,,,,,,,,,,,,12009,2,2,2024_Jun_15_1841,stroop_task_switching2_b,2021.2.3,60.22986124232226,
condition/block_mixed_b,instruction/instr_mixed,instruction/i10_b,蓝,blue,j,diamond,color_mix,颜色,,compatible,1,,,,,,,,0,2,2,2,0,0,0,0,0,45,45,45,,,,,,,,,,,,,,,,,,,,,,,,,,,,,,,,,,,400.8637697999993,401.0646689999994,401.04777789999935,401.3486589999993,401.3486589999993,None,401.8495578000002,None,j,1,1.8405757999998968,401.8495578000002,None,None,None,403.71905160000006,None,,,,,,,,,,,,,,,,,,,,,12009,2,2,2024_Jun_15_1841,stroop_task_switching2_b,2021.2.3,60.22986124232226,
condition/block_mixed_b,instruction/instr_mixed,instruction/i10_b,红,red,k,diamond,color_mix,颜色,,compatible,1,,,,,,,,0,2,2,2,0,0,0,0,0,46,46,46,,,,,,,,,,,,,,,,,,,,,,,,,,,,,,,,,,,404.7194890999999,404.9197190999994,404.9030759999996,405.20420699999977,405.20420699999977,None,405.7049692999999,None,k,1,1.07319600000028,405.7049692999999,None,None,None,406.8074268999999,None,,,,,,,,,,,,,,,,,,,,,12009,2,2,2024_Jun_15_1841,stroop_task_switching2_b,2021.2.3,60.22986124232226,
condition/block_mixed_b,instruction/instr_mixed,instruction/i10_b,红,red,k,square,color_mix,单词,,compatible,2,,,,,,,,0,2,2,2,0,0,0,0,0,47,47,47,,,,,,,,,,,,,,,,,,,,,,,,,,,,,,,,,,,407.8083908999997,408.0081747999993,407.9918988999998,408.29277060000004,408.29277060000004,None,408.79296710000017,None,k,1,0.5772868000003655,408.79296710000017,None,None,None,409.3935494999996,None,,,,,,,,,,,,,,,,,,,,,12009,2,2,2024_Jun_15_1841,stroop_task_switching2_b,2021.2.3,60.22986124232226,
condition/block_mixed_b,instruction/instr_mixed,instruction/i10_b,红,red,k,diamond,color_mix,颜色,,compatible,2,,,,,,,,0,2,2,2,0,0,0,0,0,48,48,48,,,,,,,,,,,,,,,,,,,,,,,,,,,,,,,,,,,410.3957243999994,410.59589959999994,410.57933520000006,410.8793461999994,410.8793461999994,None,411.3804786999999,None,k,1,0.6219056999998429,411.3804786999999,None,None,None,412.0311978999998,None,,,,,,,,,,,,,,,,,,,,,12009,2,2,2024_Jun_15_1841,stroop_task_switching2_b,2021.2.3,60.22986124232226,
condition/block_mixed_b,instruction/instr_mixed,instruction/i10_b,,,,,,,,,,,,,,,,,0,2,2,2,0,0,0,0,,,,,,,,,,,,,,,,,,,,,,,,,,,,,,,,,,,,,,,,,,,,,,,,,,,,,,,,413.05083169999943,None,space,7.752337599999919,413.05083169999943,None,,,,,,,,,,,,,,,12009,2,2,2024_Jun_15_1841,stroop_task_switching2_b,2021.2.3,60.22986124232226,
condition/block_mixed_b,instruction/instr_mixed,instruction/i10_b,,,,,,,,,,,,,,,,,0,2,2,2,,,,,,,,,,,,,,,,,,,,,,,,,,,,,,,,,,,,,,,,,,,,,,,,,,,,,,,,,,,,,,,,,,,,,,,,,,,,,,,,12009,2,2,2024_Jun_15_1841,stroop_task_switching2_b,2021.2.3,60.22986124232226,
,,,红,red,k,square,color_mix,单词,,compatible,0,block_switch1_b,instruction/ready_test.png,instruction/i11.png,,,,,,,,,,,,,,,,,0,0,0,0,0,0,0,0,,,,,,,,,,,,,,,,,,,438.40483499999937,439.40606039999966,439.40606039999966,440.4076041999997,440.4076041999997,None,437.4193600999997,438.4212358999994,441.4434782999997,441.6427956999996,441.6260865999993,441.9262914000001,441.9262914000001,None,442.42639449999933,None,k,1,0.7853371000001061,442.42639449999933,None,None,None,,,,,,,,,420.87672099999963,None,space,16.518357699999797,420.87672099999963,None,,,,,,,,,12009,2,2,2024_Jun_15_1841,stroop_task_switching2_b,2021.2.3,60.22986124232226,
,,,绿,green,d,diamond,color_mix,颜色,,compatible,2,block_switch1_b,instruction/ready_test.png,instruction/i11.png,,,,,,,,,,,,,,,,,0,0,0,0,0,1,1,1,,,,,,,,,,,,,,,,,,,,,,,,,,,443.2608335999994,443.46202360000007,443.41178799999943,443.7126252999997,443.7126252999997,None,444.21334899999965,None,d,1,0.6218758000004527,444.21334899999965,None,None,None,,,,,,,,,,,,,,,,,,,,,,,12009,2,2,2024_Jun_15_1841,stroop_task_switching2_b,2021.2.3,60.22986124232226,
,,,绿,yellow,f,diamond,color_mix,颜色,,incompatible,1,block_switch1_b,instruction/ready_test.png,instruction/i11.png,,,,,,,,,,,,,,,,,0,0,0,0,0,2,2,2,,,,,,,,,,,,,,,,,,,,,,,,,,,444.88011069999993,445.0812191999994,445.0469637999995,445.34825809999984,445.34825809999984,None,445.84913270000015,None,f,1,0.7704239000004236,445.84913270000015,None,None,None,,,,,,,,,,,,,,,,,,,,,,,12009,2,2,2024_Jun_15_1841,stroop_task_switching2_b,2021.2.3,60.22986124232226,
,,,蓝,blue,j,diamond,color_mix,颜色,,compatible,1,block_switch1_b,instruction/ready_test.png,instruction/i11.png,,,,,,,,,,,,,,,,,0,0,0,0,0,3,3,3,,,,,,,,,,,,,,,,,,,,,,,,,,,446.6660304999996,446.86773339999945,446.8342484999994,447.13405479999983,447.13405479999983,None,447.63493409999955,None,j,1,0.601149200000691,447.63493409999955,None,None,None,,,,,,,,,,,,,,,,,,,,,,,12009,2,2,2024_Jun_15_1841,stroop_task_switching2_b,2021.2.3,60.22986124232226,
,,,绿,green,d,square,color_mix,单词,,compatible,2,block_switch1_b,instruction/ready_test.png,instruction/i11.png,,,,,,,,,,,,,,,,,0,0,0,0,0,4,4,4,,,,,,,,,,,,,,,,,,,,,,,,,,,448.2516790999998,448.453434,448.4365076999993,448.73647230000006,448.73647230000006,None,449.23729379999986,None,d,1,0.6539747999995598,449.23729379999986,None,None,None,,,,,,,,,,,,,,,,,,,,,,,12009,2,2,2024_Jun_15_1841,stroop_task_switching2_b,2021.2.3,60.22986124232226,
,,,绿,blue,j,diamond,color_mix,颜色,,incompatible,2,block_switch1_b,instruction/ready_test.png,instruction/i11.png,,,,,,,,,,,,,,,,,0,0,0,0,0,5,5,5,,,,,,,,,,,,,,,,,,,,,,,,,,,449.9381825999999,450.13858470000014,450.1055276999996,450.40586299999995,450.40586299999995,None,450.90661699999964,None,j,1,0.9209860000000845,450.90661699999964,None,None,None,,,,,,,,,,,,,,,,,,,,,,,12009,2,2,2024_Jun_15_1841,stroop_task_switching2_b,2021.2.3,60.22986124232226,
,,,黄,red,f,square,color_mix,单词,,incompatible,2,block_switch1_b,instruction/ready_test.png,instruction/i11.png,,,,,,,,,,,,,,,,,0,0,0,0,0,6,6,6,,,,,,,,,,,,,,,,,,,,,,,,,,,451.8751621000001,452.07517800000005,452.04141269999946,452.3421746999993,452.3421746999993,None,452.8430269999999,None,f,1,1.824601100000109,452.8430269999999,None,None,None,,,,,,,,,,,,,,,,,,,,,,,12009,2,2,2024_Jun_15_1841,stroop_task_switching2_b,2021.2.3,60.22986124232226,
,,,绿,green,d,square,color_mix,单词,,compatible,1,block_switch1_b,instruction/ready_test.png,instruction/i11.png,,,,,,,,,,,,,,,,,0,0,0,0,0,7,7,7,,,,,,,,,,,,,,,,,,,,,,,,,,,454.6947571999999,454.89599779999935,454.8806134999995,455.17892140000004,455.17892140000004,None,455.6805617,None,d,1,0.6269610999997894,455.6805617,None,None,None,,,,,,,,,,,,,,,,,,,,,,,12009,2,2,2024_Jun_15_1841,stroop_task_switching2_b,2021.2.3,60.22986124232226,
,,,蓝,blue,j,square,color_mix,单词,,compatible,1,block_switch1_b,instruction/ready_test.png,instruction/i11.png,,,,,,,,,,,,,,,,,0,0,0,0,0,8,8,8,,,,,,,,,,,,,,,,,,,,,,,,,,,456.3304371999993,456.53090169999996,456.5145689000001,456.8167722999997,456.8167722999997,None,457.31641369999943,None,j,1,1.1674743000003218,457.31641369999943,None,None,None,,,,,,,,,,,,,,,,,,,,,,,12009,2,2,2024_Jun_15_1841,stroop_task_switching2_b,2021.2.3,60.22986124232226,
,,,红,red,k,diamond,color_mix,颜色,,compatible,2,block_switch1_b,instruction/ready_test.png,instruction/i11.png,,,,,,,,,,,,,,,,,0,0,0,0,0,9,9,9,,,,,,,,,,,,,,,,,,,,,,,,,,,458.50034719999985,458.7016549,458.68514869999944,458.98546389999956,458.98546389999956,None,459.48656089999986,None,k,1,0.9657661000001099,459.48656089999986,None,None,None,,,,,,,,,,,,,,,,,,,,,,,12009,2,2,2024_Jun_15_1841,stroop_task_switching2_b,2021.2.3,60.22986124232226,
,,,黄,yellow,f,diamond,color_mix,颜色,,compatible,1,block_switch1_b,instruction/ready_test.png,instruction/i11.png,,,,,,,,,,,,,,,,,0,0,0,0,0,10,10,10,,,,,,,,,,,,,,,,,,,,,,,,,,,460.4702576999998,460.67159079999965,460.6548374999993,460.9555067000001,460.9555067000001,None,461.4558575000001,None,f,1,0.5881321999995635,461.4558575000001,None,None,None,,,,,,,,,,,,,,,,,,,,,,,12009,2,2,2024_Jun_15_1841,stroop_task_switching2_b,2021.2.3,60.22986124232226,
,,,绿,green,d,square,color_mix,单词,,compatible,2,block_switch1_b,instruction/ready_test.png,instruction/i11.png,,,,,,,,,,,,,,,,,0,0,0,0,0,11,11,11,,,,,,,,,,,,,,,,,,,,,,,,,,,462.08997009999985,462.28969419999976,462.25678999999946,462.55653840000014,462.55653840000014,None,463.05825769999956,None,d,1,1.5614375999994081,463.05825769999956,None,None,None,,,,,,,,,,,,,,,,,,,,,,,12009,2,2,2024_Jun_15_1841,stroop_task_switching2_b,2021.2.3,60.22986124232226,
,,,红,red,k,diamond,color_mix,颜色,,compatible,2,block_switch1_b,instruction/ready_test.png,instruction/i11.png,,,,,,,,,,,,,,,,,0,0,0,0,0,12,12,12,,,,,,,,,,,,,,,,,,,,,,,,,,,464.6430862999996,464.84430859999975,464.8275711999995,465.12815669999964,465.12815669999964,None,465.62890119999975,None,k,1,1.5108251999999993,465.62890119999975,None,None,None,,,,,,,,,,,,,,,,,,,,,,,12009,2,2,2024_Jun_15_1841,stroop_task_switching2_b,2021.2.3,60.22986124232226,
,,,红,red,k,diamond,color_mix,颜色,,compatible,1,block_switch1_b,instruction/ready_test.png,instruction/i11.png,,,,,,,,,,,,,,,,,0,0,0,0,0,13,13,13,,,,,,,,,,,,,,,,,,,,,,,,,,,467.16345360000014,467.365178,467.3482303999999,467.64866729999994,467.64866729999994,None,468.14845049999985,None,k,1,0.7521481000003405,468.14845049999985,None,None,None,,,,,,,,,,,,,,,,,,,,,,,12009,2,2,2024_Jun_15_1841,stroop_task_switching2_b,2021.2.3,60.22986124232226,
,,,黄,yellow,f,square,color_mix,单词,,compatible,2,block_switch1_b,instruction/ready_test.png,instruction/i11.png,,,,,,,,,,,,,,,,,0,0,0,0,0,14,14,14,,,,,,,,,,,,,,,,,,,,,,,,,,,468.91626629999973,469.1171042999995,469.10066539999934,469.4015337000001,469.4015337000001,None,469.90135310000005,None,f,1,0.9267672000005405,469.90135310000005,None,None,None,,,,,,,,,,,,,,,,,,,,,,,12009,2,2,2024_Jun_15_1841,stroop_task_switching2_b,2021.2.3,60.22986124232226,
,,,红,green,d,diamond,color_mix,颜色,,incompatible,2,block_switch1_b,instruction/ready_test.png,instruction/i11.png,,,,,,,,,,,,,,,,,0,0,0,0,0,15,15,15,,,,,,,,,,,,,,,,,,,,,,,,,,,470.8522684999998,471.05408929999976,471.0377208,471.3374689000002,471.3374689000002,None,471.8383464999997,None,d,1,2.261650500000542,471.8383464999997,None,None,None,,,,,,,,,,,,,,,,,,,,,,,12009,2,2,2024_Jun_15_1841,stroop_task_switching2_b,2021.2.3,60.22986124232226,
,,,蓝,red,k,diamond,color_mix,颜色,,incompatible,1,block_switch1_b,instruction/ready_test.png,instruction/i11.png,,,,,,,,,,,,,,,,,0,0,0,0,0,16,16,16,,,,,,,,,,,,,,,,,,,,,,,,,,,474.1240481999994,474.3259038999995,474.3089398000002,474.60836089999975,474.60836089999975,None,475.10884519999945,None,k,1,1.7113494999994145,475.10884519999945,None,None,None,,,,,,,,,,,,,,,,,,,,,,,12009,2,2,2024_Jun_15_1841,stroop_task_switching2_b,2021.2.3,60.22986124232226,
,,,黄,green,d,diamond,color_mix,颜色,,incompatible,1,block_switch1_b,instruction/ready_test.png,instruction/i11.png,,,,,,,,,,,,,,,,,0,0,0,0,0,17,17,17,,,,,,,,,,,,,,,,,,,,,,,,,,,476.8449258999999,477.04620499999965,477.0294973,477.32955649999985,477.32955649999985,None,477.83004100000016,None,d,1,2.262387900000249,477.83004100000016,None,None,None,,,,,,,,,,,,,,,,,,,,,,,12009,2,2,2024_Jun_15_1841,stroop_task_switching2_b,2021.2.3,60.22986124232226,
,,,绿,green,d,diamond,color_mix,颜色,,compatible,1,block_switch1_b,instruction/ready_test.png,instruction/i11.png,,,,,,,,,,,,,,,,,0,0,0,0,0,18,18,18,,,,,,,,,,,,,,,,,,,,,,,,,,,480.11655379999956,480.31784530000004,480.3001577999994,480.6018740999998,480.6018740999998,None,481.1023637999997,None,d,1,1.3589952000002086,481.1023637999997,None,None,None,,,,,,,,,,,,,,,,,,,,,,,12009,2,2,2024_Jun_15_1841,stroop_task_switching2_b,2021.2.3,60.22986124232226,
,,,黄,red,k,diamond,color_mix,颜色,,incompatible,1,block_switch1_b,instruction/ready_test.png,instruction/i11.png,,,,,,,,,,,,,,,,,0,0,0,0,0,19,19,19,,,,,,,,,,,,,,,,,,,,,,,,,,,482.4867653000001,482.68805879999945,482.67123230000016,482.97185759999957,482.97185759999957,None,483.4727581999996,None,k,1,1.3480292000003828,483.4727581999996,None,None,None,,,,,,,,,,,,,,,,,,,,,,,12009,2,2,2024_Jun_15_1841,stroop_task_switching2_b,2021.2.3,60.22986124232226,
,,,绿,yellow,d,square,color_mix,单词,,incompatible,2,block_switch1_b,instruction/ready_test.png,instruction/i11.png,,,,,,,,,,,,,,,,,0,0,0,0,0,20,20,20,,,,,,,,,,,,,,,,,,,,,,,,,,,484.8400836999999,485.0415237999996,485.0247553999998,485.3253297000001,485.3253297000001,None,485.8260418,None,d,1,2.0344935000002806,485.8260418,None,None,None,,,,,,,,,,,,,,,,,,,,,,,12009,2,2,2024_Jun_15_1841,stroop_task_switching2_b,2021.2.3,60.22986124232226,
,,,绿,yellow,f,diamond,color_mix,颜色,,incompatible,2,block_switch1_b,instruction/ready_test.png,instruction/i11.png,,,,,,,,,,,,,,,,,0,0,0,0,0,21,21,21,,,,,,,,,,,,,,,,,,,,,,,,,,,487.87800119999974,488.07914509999955,488.0623431999993,488.36389340000005,488.36389340000005,None,488.86382259999937,None,f,1,1.4607568000001265,488.86382259999937,None,None,None,,,,,,,,,,,,,,,,,,,,,,,12009,2,2,2024_Jun_15_1841,stroop_task_switching2_b,2021.2.3,60.22986124232226,
,,,绿,green,d,square,color_mix,单词,,compatible,2,block_switch1_b,instruction/ready_test.png,instruction/i11.png,,,,,,,,,,,,,,,,,0,0,0,0,0,22,22,22,,,,,,,,,,,,,,,,,,,,,,,,,,,490.34844259999954,490.54991939999945,490.5328862999995,490.83359649999966,490.83359649999966,None,491.3343570999996,None,d,1,1.262266499999896,491.3343570999996,None,None,None,,,,,,,,,,,,,,,,,,,,,,,12009,2,2,2024_Jun_15_1841,stroop_task_switching2_b,2021.2.3,60.22986124232226,
,,,红,red,k,square,color_mix,单词,,compatible,1,block_switch1_b,instruction/ready_test.png,instruction/i11.png,,,,,,,,,,,,,,,,,0,0,0,0,0,23,23,23,,,,,,,,,,,,,,,,,,,,,,,,,,,492.6196166,492.8199421999998,492.8033034,493.1027014000001,493.1027014000001,None,493.60423269999956,None,k,1,0.9362992999995186,493.60423269999956,None,None,None,,,,,,,,,,,,,,,,,,,,,,,12009,2,2,2024_Jun_15_1841,stroop_task_switching2_b,2021.2.3,60.22986124232226,
,,,黄,green,f,square,color_mix,单词,,incompatible,1,block_switch1_b,instruction/ready_test.png,instruction/i11.png,,,,,,,,,,,,,,,,,0,0,0,0,0,24,24,24,,,,,,,,,,,,,,,,,,,,,,,,,,,494.5547502999998,494.7552383000002,494.7384893999997,495.0389366999998,495.0389366999998,None,495.53982799999994,None,f,1,0.9607753999998749,495.53982799999994,None,None,None,,,,,,,,,,,,,,,,,,,,,,,12009,2,2,2024_Jun_15_1841,stroop_task_switching2_b,2021.2.3,60.22986124232226,
,,,红,blue,k,square,color_mix,单词,,incompatible,1,block_switch1_b,instruction/ready_test.png,instruction/i11.png,,,,,,,,,,,,,,,,,0,0,0,0,0,25,25,25,,,,,,,,,,,,,,,,,,,,,,,,,,,496.52501140000004,496.7260888999999,496.70928709999953,497.00979709999956,497.00979709999956,None,497.5096051999999,None,k,1,2.719728600000053,497.5096051999999,None,None,None,,,,,,,,,,,,,,,,,,,,,,,12009,2,2,2024_Jun_15_1841,stroop_task_switching2_b,2021.2.3,60.22986124232226,
,,,黄,yellow,f,square,color_mix,单词,,compatible,1,block_switch1_b,instruction/ready_test.png,instruction/i11.png,,,,,,,,,,,,,,,,,0,0,0,0,0,26,26,26,,,,,,,,,,,,,,,,,,,,,,,,,,,500.24778160000005,500.44806079999944,500.4314467999993,500.7314805999995,500.7314805999995,None,501.23202429999947,None,f,1,0.7812071999996988,501.23202429999947,None,None,None,,,,,,,,,,,,,,,,,,,,,,,12009,2,2,2024_Jun_15_1841,stroop_task_switching2_b,2021.2.3,60.22986124232226,
,,,蓝,green,j,square,color_mix,单词,,incompatible,1,block_switch1_b,instruction/ready_test.png,instruction/i11.png,,,,,,,,,,,,,,,,,0,0,0,0,0,27,27,27,,,,,,,,,,,,,,,,,,,,,,,,,,,502.0327794999994,502.23484180000014,502.2176406999997,502.51788249999936,502.51788249999936,None,503.01865689999977,None,k,0,0.8262015000000247,503.01865689999977,None,None,None,,,,,,,,,,,,,,,,,,,,,,,12009,2,2,2024_Jun_15_1841,stroop_task_switching2_b,2021.2.3,60.22986124232226,
,,,绿,green,d,diamond,color_mix,颜色,,compatible,2,block_switch1_b,instruction/ready_test.png,instruction/i11.png,,,,,,,,,,,,,,,,,0,0,0,0,0,28,28,28,,,,,,,,,,,,,,,,,,,,,,,,,,,503.86881600000015,504.0706304999994,504.0535670999998,504.3539917999997,504.3539917999997,None,504.8540573999999,None,d,1,0.886834999999337,504.8540573999999,None,None,None,,,,,,,,,,,,,,,,,,,,,,,12009,2,2,2024_Jun_15_1841,stroop_task_switching2_b,2021.2.3,60.22986124232226,
,,,黄,blue,j,diamond,color_mix,颜色,,incompatible,1,block_switch1_b,instruction/ready_test.png,instruction/i11.png,,,,,,,,,,,,,,,,,0,0,0,0,0,29,29,29,,,,,,,,,,,,,,,,,,,,,,,,,,,505.7559418999999,505.95643629999995,505.9397522999998,506.24022779999996,506.24022779999996,None,506.7408668999997,None,j,1,0.9281074999998964,506.7408668999997,None,None,None,,,,,,,,,,,,,,,,,,,,,,,12009,2,2,2024_Jun_15_1841,stroop_task_switching2_b,2021.2.3,60.22986124232226,
,,,绿,green,d,diamond,color_mix,颜色,,compatible,1,block_switch1_b,instruction/ready_test.png,instruction/i11.png,,,,,,,,,,,,,,,,,0,0,0,0,0,30,30,30,,,,,,,,,,,,,,,,,,,,,,,,,,,507.6922803999996,507.8927093000002,507.87607919999937,508.1765168000002,508.1765168000002,None,508.67760480000015,None,d,1,1.055409000000509,508.67760480000015,None,None,None,,,,,,,,,,,,,,,,,,,,,,,12009,2,2,2024_Jun_15_1841,stroop_task_switching2_b,2021.2.3,60.22986124232226,
,,,蓝,blue,j,square,color_mix,单词,,compatible,2,block_switch1_b,instruction/ready_test.png,instruction/i11.png,,,,,,,,,,,,,,,,,0,0,0,0,0,31,31,31,,,,,,,,,,,,,,,,,,,,,,,,,,,509.76154809999935,509.9621274000001,509.94553649999943,510.24622289999934,510.24622289999934,None,510.7470661999996,None,j,1,0.6259881000005407,510.7470661999996,None,None,None,,,,,,,,,,,,,,,,,,,,,,,12009,2,2,2024_Jun_15_1841,stroop_task_switching2_b,2021.2.3,60.22986124232226,
,,,红,red,k,square,color_mix,单词,,compatible,1,block_switch1_b,instruction/ready_test.png,instruction/i11.png,,,,,,,,,,,,,,,,,0,0,0,0,0,32,32,32,,,,,,,,,,,,,,,,,,,,,,,,,,,511.39819910000006,511.59866019999936,511.58108859999993,511.88143839999975,511.88143839999975,None,512.3828063999999,None,k,1,0.654595199999676,512.3828063999999,None,None,None,,,,,,,,,,,,,,,,,,,,,,,12009,2,2,2024_Jun_15_1841,stroop_task_switching2_b,2021.2.3,60.22986124232226,
,,,红,green,k,square,color_mix,单词,,incompatible,1,block_switch1_b,instruction/ready_test.png,instruction/i11.png,,,,,,,,,,,,,,,,,0,0,0,0,0,33,33,33,,,,,,,,,,,,,,,,,,,,,,,,,,,513.0668784,513.2667464999995,513.2506274999996,513.5512258999997,513.5512258999997,None,514.0521192999995,None,k,1,0.4179354999996576,514.0521192999995,None,None,None,,,,,,,,,,,,,,,,,,,,,,,12009,2,2,2024_Jun_15_1841,stroop_task_switching2_b,2021.2.3,60.22986124232226,
,,,黄,yellow,f,diamond,color_mix,颜色,,compatible,2,block_switch1_b,instruction/ready_test.png,instruction/i11.png,,,,,,,,,,,,,,,,,0,0,0,0,0,34,34,34,,,,,,,,,,,,,,,,,,,,,,,,,,,514.4848339999999,514.6863120999997,514.6695812999997,514.9699357,514.9699357,None,515.4699131999996,None,f,1,0.7468552000000273,515.4699131999996,None,None,None,,,,,,,,,,,,,,,,,,,,,,,12009,2,2,2024_Jun_15_1841,stroop_task_switching2_b,2021.2.3,60.22986124232226,
,,,红,green,d,diamond,color_mix,颜色,,incompatible,1,block_switch1_b,instruction/ready_test.png,instruction/i11.png,,,,,,,,,,,,,,,,,0,0,0,0,0,35,35,35,,,,,,,,,,,,,,,,,,,,,,,,,,,516.2375584000001,516.4386972000002,516.4222169999994,516.7228334000001,516.7228334000001,None,517.2221979999995,None,d,1,0.7270321999994849,517.2221979999995,None,None,None,,,,,,,,,,,,,,,,,,,,,,,12009,2,2,2024_Jun_15_1841,stroop_task_switching2_b,2021.2.3,60.22986124232226,
,,,黄,yellow,f,square,color_mix,单词,,compatible,2,block_switch1_b,instruction/ready_test.png,instruction/i11.png,,,,,,,,,,,,,,,,,0,0,0,0,0,36,36,36,,,,,,,,,,,,,,,,,,,,,,,,,,,517.9734768999997,518.1749534,518.1583998999995,518.4581689999995,518.4581689999995,None,518.9592269999994,None,f,1,1.4459197000005588,518.9592269999994,None,None,None,,,,,,,,,,,,,,,,,,,,,,,12009,2,2,2024_Jun_15_1841,stroop_task_switching2_b,2021.2.3,60.22986124232226,
,,,蓝,blue,j,square,color_mix,单词,,compatible,1,block_switch1_b,instruction/ready_test.png,instruction/i11.png,,,,,,,,,,,,,,,,,0,0,0,0,0,37,37,37,,,,,,,,,,,,,,,,,,,,,,,,,,,520.4271953999996,520.6275379999997,520.6108661999997,520.9112239999995,520.9112239999995,None,521.4119768999999,None,j,1,0.6414600999996765,521.4119768999999,None,None,None,,,,,,,,,,,,,,,,,,,,,,,12009,2,2,2024_Jun_15_1841,stroop_task_switching2_b,2021.2.3,60.22986124232226,
,,,绿,red,k,diamond,color_mix,颜色,,incompatible,2,block_switch1_b,instruction/ready_test.png,instruction/i11.png,,,,,,,,,,,,,,,,,0,0,0,0,0,38,38,38,,,,,,,,,,,,,,,,,,,,,,,,,,,522.0795834999999,522.2810328999994,522.2642996999994,522.5648661999994,522.5648661999994,None,523.0654503999995,None,k,1,1.0759656999998697,523.0654503999995,None,None,None,,,,,,,,,,,,,,,,,,,,,,,12009,2,2,2024_Jun_15_1841,stroop_task_switching2_b,2021.2.3,60.22986124232226,
,,,黄,yellow,f,diamond,color_mix,颜色,,compatible,1,block_switch1_b,instruction/ready_test.png,instruction/i11.png,,,,,,,,,,,,,,,,,0,0,0,0,0,39,39,39,,,,,,,,,,,,,,,,,,,,,,,,,,,524.1672229999995,524.3675345000001,524.3505701999993,524.6512652000001,524.6512652000001,None,525.1522244999996,None,f,1,2.005224300000009,525.1522244999996,None,None,None,,,,,,,,,,,,,,,,,,,,,,,12009,2,2,2024_Jun_15_1841,stroop_task_switching2_b,2021.2.3,60.22986124232226,
,,,红,blue,j,diamond,color_mix,颜色,,incompatible,1,block_switch1_b,instruction/ready_test.png,instruction/i11.png,,,,,,,,,,,,,,,,,0,0,0,0,0,40,40,40,,,,,,,,,,,,,,,,,,,,,,,,,,,527.1887661000001,527.3884672999993,527.3720862,527.6724878999994,527.6724878999994,None,528.1734022,None,k,0,0.7920554000002085,528.1734022,None,None,None,,,,,,,,,,,,,,,,,,,,,,,12009,2,2,2024_Jun_15_1841,stroop_task_switching2_b,2021.2.3,60.22986124232226,
,,,绿,blue,d,square,color_mix,单词,,incompatible,2,block_switch1_b,instruction/ready_test.png,instruction/i11.png,,,,,,,,,,,,,,,,,0,0,0,0,0,41,41,41,,,,,,,,,,,,,,,,,,,,,,,,,,,528.9901350999999,529.1909657999995,529.1750658000001,529.474142,529.474142,None,529.9759250999996,None,d,1,1.4297364000003654,529.9759250999996,None,None,None,,,,,,,,,,,,,,,,,,,,,,,12009,2,2,2024_Jun_15_1841,stroop_task_switching2_b,2021.2.3,60.22986124232226,
,,,蓝,blue,j,diamond,color_mix,颜色,,compatible,2,block_switch1_b,instruction/ready_test.png,instruction/i11.png,,,,,,,,,,,,,,,,,0,0,0,0,0,42,42,42,,,,,,,,,,,,,,,,,,,,,,,,,,,531.4280596999997,531.6281137999995,531.6117104999994,531.9125822999995,531.9125822999995,None,532.4129198,None,j,1,0.7210039000001416,532.4129198,None,None,None,,,,,,,,,,,,,,,,,,,,,,,12009,2,2,2024_Jun_15_1841,stroop_task_switching2_b,2021.2.3,60.22986124232226,
,,,红,blue,k,square,color_mix,单词,,incompatible,2,block_switch1_b,instruction/ready_test.png,instruction/i11.png,,,,,,,,,,,,,,,,,0,0,0,0,0,43,43,43,,,,,,,,,,,,,,,,,,,,,,,,,,,533.1641138999994,533.3642449999998,533.3473153999994,533.6475657000001,533.6475657000001,None,534.1487434000001,None,k,1,1.937306400000125,534.1487434000001,None,None,None,,,,,,,,,,,,,,,,,,,,,,,12009,2,2,2024_Jun_15_1841,stroop_task_switching2_b,2021.2.3,60.22986124232226,
,,,蓝,green,d,diamond,color_mix,颜色,,incompatible,2,block_switch1_b,instruction/ready_test.png,instruction/i11.png,,,,,,,,,,,,,,,,,0,0,0,0,0,44,44,44,,,,,,,,,,,,,,,,,,,,,,,,,,,536.1005064999999,536.3025176000001,536.2850584999996,536.5856941000002,536.5856941000002,None,537.0857336999998,None,d,1,1.2804266000002826,537.0857336999998,None,None,None,,,,,,,,,,,,,,,,,,,,,,,12009,2,2,2024_Jun_15_1841,stroop_task_switching2_b,2021.2.3,60.22986124232226,
,,,黄,yellow,f,square,color_mix,单词,,compatible,2,block_switch1_b,instruction/ready_test.png,instruction/i11.png,,,,,,,,,,,,,,,,,0,0,0,0,0,45,45,45,,,,,,,,,,,,,,,,,,,,,,,,,,,538.3884493999994,538.5889338999996,538.5726981999996,538.8730283999994,538.8730283999994,None,539.3735424999995,None,f,1,1.4250245000002906,539.3735424999995,None,None,None,,,,,,,,,,,,,,,,,,,,,,,12009,2,2,2024_Jun_15_1841,stroop_task_switching2_b,2021.2.3,60.22986124232226,
,,,黄,yellow,f,diamond,color_mix,颜色,,compatible,2,block_switch1_b,instruction/ready_test.png,instruction/i11.png,,,,,,,,,,,,,,,,,0,0,0,0,0,46,46,46,,,,,,,,,,,,,,,,,,,,,,,,,,,540.8249553999995,541.0260849999995,541.0092659000002,541.3102737999998,541.3102737999998,None,541.8104100999999,None,f,1,0.8114765000000261,541.8104100999999,None,None,None,,,,,,,,,,,,,,,,,,,,,,,12009,2,2,2024_Jun_15_1841,stroop_task_switching2_b,2021.2.3,60.22986124232226,
,,,绿,red,d,square,color_mix,单词,,incompatible,2,block_switch1_b,instruction/ready_test.png,instruction/i11.png,,,,,,,,,,,,,,,,,0,0,0,0,0,47,47,47,,,,,,,,,,,,,,,,,,,,,,,,,,,542.6452690999995,542.8451537000001,542.8285113000002,543.1295323999993,543.1295323999993,None,543.6299647999995,None,d,1,1.2639373000001797,543.6299647999995,None,None,None,,,,,,,,,,,,,,,,,,,,,,,12009,2,2,2024_Jun_15_1841,stroop_task_switching2_b,2021.2.3,60.22986124232226,
,,,红,red,k,diamond,color_mix,颜色,,compatible,2,block_switch1_b,instruction/ready_test.png,instruction/i11.png,,,,,,,,,,,,,,,,,0,0,0,0,0,48,48,48,,,,,,,,,,,,,,,,,,,,,,,,,,,544.9151899999997,545.1143440999995,545.0976159000002,545.3985154000002,545.3985154000002,None,545.8996358999993,None,k,1,0.7943609000003562,545.8996358999993,None,None,None,,,,,,,,,,,,,,,,,,,,,,,12009,2,2,2024_Jun_15_1841,stroop_task_switching2_b,2021.2.3,60.22986124232226,
,,,蓝,blue,j,diamond,color_mix,颜色,,compatible,1,block_switch1_b,instruction/ready_test.png,instruction/i11.png,,,,,,,,,,,,,,,,,0,0,0,0,0,49,49,49,,,,,,,,,,,,,,,,,,,,,,,,,,,546.7178213999996,546.9181859999999,546.9015233999999,547.2019227999999,547.2019227999999,None,547.7024572,None,j,1,0.7677159000004394,547.7024572,None,None,None,,,,,,,,,,,,,,,,,,,,,,,12009,2,2,2024_Jun_15_1841,stroop_task_switching2_b,2021.2.3,60.22986124232226,
,,,黄,yellow,f,diamond,color_mix,颜色,,compatible,1,block_switch1_b,instruction/ready_test.png,instruction/i11.png,,,,,,,,,,,,,,,,,0,0,0,0,0,50,50,50,,,,,,,,,,,,,,,,,,,,,,,,,,,548.4862532999996,548.6874855999995,548.6707974999999,548.9711650999998,548.9711650999998,None,549.4718146999994,None,f,1,1.159039699999994,549.4718146999994,None,None,None,,,,,,,,,,,,,,,,,,,,,,,12009,2,2,2024_Jun_15_1841,stroop_task_switching2_b,2021.2.3,60.22986124232226,
,,,红,blue,j,diamond,color_mix,颜色,,incompatible,1,block_switch1_b,instruction/ready_test.png,instruction/i11.png,,,,,,,,,,,,,,,,,0,0,0,0,0,51,51,51,,,,,,,,,,,,,,,,,,,,,,,,,,,550.6568990999995,550.8577810999996,550.8410815999996,551.1412725999999,551.1412725999999,None,551.6420637000001,None,k,0,0.6924488999993628,551.6420637000001,None,None,None,,,,,,,,,,,,,,,,,,,,,,,12009,2,2,2024_Jun_15_1841,stroop_task_switching2_b,2021.2.3,60.22986124232226,
,,,蓝,yellow,f,diamond,color_mix,颜色,,incompatible,1,block_switch1_b,instruction/ready_test.png,instruction/i11.png,,,,,,,,,,,,,,,,,0,0,0,0,0,52,52,52,,,,,,,,,,,,,,,,,,,,,,,,,,,552.3585932999995,552.5601048999997,552.5431515,552.8442404999996,552.8442404999996,None,553.3445797999993,None,f,1,2.4695894000005865,553.3445797999993,None,None,None,,,,,,,,,,,,,,,,,,,,,,,12009,2,2,2024_Jun_15_1841,stroop_task_switching2_b,2021.2.3,60.22986124232226,
,,,黄,blue,f,square,color_mix,单词,,incompatible,2,block_switch1_b,instruction/ready_test.png,instruction/i11.png,,,,,,,,,,,,,,,,,0,0,0,0,0,53,53,53,,,,,,,,,,,,,,,,,,,,,,,,,,,555.8304644999998,556.0319657999999,556.0151396000001,556.3148147000002,556.3148147000002,None,556.8161914000002,559.8212235999999,None,0,,556.8161914000002,559.8212235999999,559.8044435000002,None,,,,,,,,,,,,,,,,,,,,,,,12009,2,2,2024_Jun_15_1841,stroop_task_switching2_b,2021.2.3,60.22986124232226,
,,,蓝,blue,j,diamond,color_mix,颜色,,compatible,2,block_switch1_b,instruction/ready_test.png,instruction/i11.png,,,,,,,,,,,,,,,,,0,0,0,0,0,54,54,54,,,,,,,,,,,,,,,,,,,,,,,,,,,560.4052443999999,560.6055806999993,560.5881677999996,560.8893110999998,560.8893110999998,None,561.3896543000001,None,j,1,0.9767259000000195,561.3896543000001,None,None,None,,,,,,,,,,,,,,,,,,,,,,,12009,2,2,2024_Jun_15_1841,stroop_task_switching2_b,2021.2.3,60.22986124232226,
,,,红,yellow,k,square,color_mix,单词,,incompatible,2,block_switch1_b,instruction/ready_test.png,instruction/i11.png,,,,,,,,,,,,,,,,,0,0,0,0,0,55,55,55,,,,,,,,,,,,,,,,,,,,,,,,,,,562.3911904999995,562.5910224999998,562.5758378,562.8754244000002,562.8754244000002,None,563.3757103999997,None,k,1,1.0711583000002065,563.3757103999997,None,None,None,,,,,,,,,,,,,,,,,,,,,,,12009,2,2,2024_Jun_15_1841,stroop_task_switching2_b,2021.2.3,60.22986124232226,
,,,蓝,red,j,square,color_mix,单词,,incompatible,1,block_switch1_b,instruction/ready_test.png,instruction/i11.png,,,,,,,,,,,,,,,,,0,0,0,0,0,56,56,56,,,,,,,,,,,,,,,,,,,,,,,,,,,564.4778846999998,564.6784496999999,564.6616921999994,564.9631614,564.9631614,None,565.4627853000002,None,j,1,1.1436843999999837,565.4627853000002,None,None,None,,,,,,,,,,,,,,,,,,,,,,,12009,2,2,2024_Jun_15_1841,stroop_task_switching2_b,2021.2.3,60.22986124232226,
,,,蓝,blue,j,square,color_mix,单词,,compatible,1,block_switch1_b,instruction/ready_test.png,instruction/i11.png,,,,,,,,,,,,,,,,,0,0,0,0,0,57,57,57,,,,,,,,,,,,,,,,,,,,,,,,,,,566.6310170999996,566.8315034999996,566.8153002999998,567.1151990999997,567.1151990999997,None,567.6157929000001,None,j,1,0.5588029000000461,567.6157929000001,None,None,None,,,,,,,,,,,,,,,,,,,,,,,12009,2,2,2024_Jun_15_1841,stroop_task_switching2_b,2021.2.3,60.22986124232226,
,,,蓝,red,k,diamond,color_mix,颜色,,incompatible,2,block_switch1_b,instruction/ready_test.png,instruction/i11.png,,,,,,,,,,,,,,,,,0,0,0,0,0,58,58,58,,,,,,,,,,,,,,,,,,,,,,,,,,,568.1995645999996,568.4007018000002,568.3836616999997,568.6842969999998,568.6842969999998,None,569.1853628999997,None,k,1,1.0377926000001025,569.1853628999997,None,None,None,,,,,,,,,,,,,,,,,,,,,,,12009,2,2,2024_Jun_15_1841,stroop_task_switching2_b,2021.2.3,60.22986124232226,
,,,绿,green,d,diamond,color_mix,颜色,,compatible,1,block_switch1_b,instruction/ready_test.png,instruction/i11.png,,,,,,,,,,,,,,,,,0,0,0,0,0,59,59,59,,,,,,,,,,,,,,,,,,,,,,,,,,,570.2532986999995,570.4538658000001,570.4370239999998,570.7374306000002,570.7374306000002,None,571.2373254999993,None,d,1,1.3454403000005186,571.2373254999993,None,None,None,,,,,,,,,,,,,,,,,,,,,,,12009,2,2,2024_Jun_15_1841,stroop_task_switching2_b,2021.2.3,60.22986124232226,
,,,蓝,blue,j,diamond,color_mix,颜色,,compatible,1,block_switch1_b,instruction/ready_test.png,instruction/i11.png,,,,,,,,,,,,,,,,,0,0,0,0,0,60,60,60,,,,,,,,,,,,,,,,,,,,,,,,,,,572.6065881999994,572.8071166999998,572.7906131,573.0906798999995,573.0906798999995,None,573.5918916,None,j,1,1.0069550999996864,573.5918916,None,None,None,,,,,,,,,,,,,,,,,,,,,,,12009,2,2,2024_Jun_15_1841,stroop_task_switching2_b,2021.2.3,60.22986124232226,
,,,黄,yellow,f,square,color_mix,单词,,compatible,2,block_switch1_b,instruction/ready_test.png,instruction/i11.png,,,,,,,,,,,,,,,,,0,0,0,0,0,61,61,61,,,,,,,,,,,,,,,,,,,,,,,,,,,574.6258354000001,574.8258786999995,574.8099630999995,575.1103721,575.1103721,None,575.6117635999999,None,f,1,2.883471300000565,575.6117635999999,None,None,None,,,,,,,,,,,,,,,,,,,,,,,12009,2,2,2024_Jun_15_1841,stroop_task_switching2_b,2021.2.3,60.22986124232226,
,,,绿,blue,d,square,color_mix,单词,,incompatible,1,block_switch1_b,instruction/ready_test.png,instruction/i11.png,,,,,,,,,,,,,,,,,0,0,0,0,0,62,62,62,,,,,,,,,,,,,,,,,,,,,,,,,,,578.5148961999994,578.7165506000001,578.6996078000002,578.9998252999994,578.9998252999994,None,579.4997499000001,None,d,1,0.8594247000000905,579.4997499000001,None,None,None,,,,,,,,,,,,,,,,,,,,,,,12009,2,2,2024_Jun_15_1841,stroop_task_switching2_b,2021.2.3,60.22986124232226,
,,,蓝,yellow,j,square,color_mix,单词,,incompatible,1,block_switch1_b,instruction/ready_test.png,instruction/i11.png,,,,,,,,,,,,,,,,,0,0,0,0,0,63,63,63,,,,,,,,,,,,,,,,,,,,,,,,,,,580.3852799999995,580.5847095999998,580.5691471999999,580.8691195000001,580.8691195000001,None,581.3702871999994,None,j,1,0.8447296000003917,581.3702871999994,None,None,None,,,,,,,,,,,,,,,,,,,,,,,12009,2,2,2024_Jun_15_1841,stroop_task_switching2_b,2021.2.3,60.22986124232226,
,,,黄,yellow,f,diamond,color_mix,颜色,,compatible,2,block_switch1_b,instruction/ready_test.png,instruction/i11.png,,,,,,,,,,,,,,,,,0,0,0,0,0,64,64,64,,,,,,,,,,,,,,,,,,,,,,,,,,,582.2371985,582.4383090000001,582.4217579999995,582.7222904,582.7222904,None,583.2224644999997,586.2278096999999,None,0,,583.2224644999997,586.2278096999999,586.2109282000001,None,,,,,,,,,,,,,,,,,,,,,,,12009,2,2,2024_Jun_15_1841,stroop_task_switching2_b,2021.2.3,60.22986124232226,
,,,蓝,green,d,diamond,color_mix,颜色,,incompatible,1,block_switch1_b,instruction/ready_test.png,instruction/i11.png,,,,,,,,,,,,,,,,,0,0,0,0,0,65,65,65,,,,,,,,,,,,,,,,,,,,,,,,,,,586.7616966999994,586.9620793999993,586.9460540999999,587.2454865,587.2454865,None,587.7464198999996,None,d,1,1.7498021000001245,587.7464198999996,None,None,None,,,,,,,,,,,,,,,,,,,,,,,12009,2,2,2024_Jun_15_1841,stroop_task_switching2_b,2021.2.3,60.22986124232226,
,,,红,red,k,diamond,color_mix,颜色,,compatible,1,block_switch1_b,instruction/ready_test.png,instruction/i11.png,,,,,,,,,,,,,,,,,0,0,0,0,0,66,66,66,,,,,,,,,,,,,,,,,,,,,,,,,,,589.5147037999996,589.7158681000001,589.6989832999998,589.9997433999997,589.9997433999997,None,590.5001480000001,None,k,1,1.186999100000321,590.5001480000001,None,None,None,,,,,,,,,,,,,,,,,,,,,,,12009,2,2,2024_Jun_15_1841,stroop_task_switching2_b,2021.2.3,60.22986124232226,
,,,蓝,yellow,j,square,color_mix,单词,,incompatible,2,block_switch1_b,instruction/ready_test.png,instruction/i11.png,,,,,,,,,,,,,,,,,0,0,0,0,0,67,67,67,,,,,,,,,,,,,,,,,,,,,,,,,,,591.7193625,591.9197715,591.9028282999998,592.2028743000001,592.2028743000001,None,592.7036235999994,None,j,1,2.079720400000042,592.7036235999994,None,None,None,,,,,,,,,,,,,,,,,,,,,,,12009,2,2,2024_Jun_15_1841,stroop_task_switching2_b,2021.2.3,60.22986124232226,
,,,红,yellow,k,square,color_mix,单词,,incompatible,1,block_switch1_b,instruction/ready_test.png,instruction/i11.png,,,,,,,,,,,,,,,,,0,0,0,0,0,68,68,68,,,,,,,,,,,,,,,,,,,,,,,,,,,594.8072573999998,595.0075778999999,594.9895535999995,595.2910662999993,595.2910662999993,None,595.7920638999994,None,k,1,1.127263600000333,595.7920638999994,None,None,None,,,,,,,,,,,,,,,,,,,,,,,12009,2,2,2024_Jun_15_1841,stroop_task_switching2_b,2021.2.3,60.22986124232226,
,,,红,yellow,f,diamond,color_mix,颜色,,incompatible,2,block_switch1_b,instruction/ready_test.png,instruction/i11.png,,,,,,,,,,,,,,,,,0,0,0,0,0,69,69,69,,,,,,,,,,,,,,,,,,,,,,,,,,,596.9429672999995,597.1440449000002,597.1271031999995,597.4281649999994,597.4281649999994,None,597.9285043999998,None,f,1,1.2949232999999367,597.9285043999998,None,None,None,,,,,,,,,,,,,,,,,,,,,,,12009,2,2,2024_Jun_15_1841,stroop_task_switching2_b,2021.2.3,60.22986124232226,
,,,蓝,green,j,square,color_mix,单词,,incompatible,2,block_switch1_b,instruction/ready_test.png,instruction/i11.png,,,,,,,,,,,,,,,,,0,0,0,0,0,70,70,70,,,,,,,,,,,,,,,,,,,,,,,,,,,599.2653280999994,599.4636585999997,599.4307171,599.7308211999998,599.7308211999998,None,600.2313525,None,j,1,0.9921111000003293,600.2313525,None,None,None,,,,,,,,,,,,,,,,,,,,,,,12009,2,2,2024_Jun_15_1841,stroop_task_switching2_b,2021.2.3,60.22986124232226,
,,,绿,yellow,d,square,color_mix,单词,,incompatible,1,block_switch1_b,instruction/ready_test.png,instruction/i11.png,,,,,,,,,,,,,,,,,0,0,0,0,0,71,71,71,,,,,,,,,,,,,,,,,,,,,,,,,,,601.2498907999998,601.4493978,601.4327462000001,601.733201,601.733201,None,602.2350934999995,None,d,1,1.1244865999997273,602.2350934999995,None,None,None,,,,,,,,,,,,,,,,,,,,,,,12009,2,2,2024_Jun_15_1841,stroop_task_switching2_b,2021.2.3,60.22986124232226,
,,,蓝,yellow,f,diamond,color_mix,颜色,,incompatible,2,block_switch1_b,instruction/ready_test.png,instruction/i11.png,,,,,,,,,,,,,,,,,0,0,0,0,0,72,72,72,,,,,,,,,,,,,,,,,,,,,,,,,,,603.3856209999994,603.5860408999997,603.5696196999997,603.8707661999997,603.8707661999997,None,604.3715106999998,None,f,1,0.7879806999999346,604.3715106999998,None,None,None,,,,,,,,,,,,,,,,,,,,,,,12009,2,2,2024_Jun_15_1841,stroop_task_switching2_b,2021.2.3,60.22986124232226,
,,,红,green,k,square,color_mix,单词,,incompatible,2,block_switch1_b,instruction/ready_test.png,instruction/i11.png,,,,,,,,,,,,,,,,,0,0,0,0,0,73,73,73,,,,,,,,,,,,,,,,,,,,,,,,,,,605.1882654000001,605.3892808,605.3733404999994,605.6732414999997,605.6732414999997,None,606.1736647999996,None,k,1,2.0339844999998604,606.1736647999996,None,None,None,,,,,,,,,,,,,,,,,,,,,,,12009,2,2,2024_Jun_15_1841,stroop_task_switching2_b,2021.2.3,60.22986124232226,
,,,绿,blue,j,diamond,color_mix,颜色,,incompatible,2,block_switch1_b,instruction/ready_test.png,instruction/i11.png,,,,,,,,,,,,,,,,,0,0,0,0,0,74,74,74,,,,,,,,,,,,,,,,,,,,,,,,,,,608.2264316000001,608.4278678999999,608.4106578999999,608.7113748000002,608.7113748000002,None,609.2120574,None,j,1,1.77171670000007,609.2120574,None,None,None,,,,,,,,,,,,,,,,,,,,,,,12009,2,2,2024_Jun_15_1841,stroop_task_switching2_b,2021.2.3,60.22986124232226,
,,,红,red,k,square,color_mix,单词,,compatible,2,block_switch1_b,instruction/ready_test.png,instruction/i11.png,,,,,,,,,,,,,,,,,0,0,0,0,0,75,75,75,,,,,,,,,,,,,,,,,,,,,,,,,,,611.0141862999999,611.2152077999999,611.1986495000001,611.4990521999998,611.4990521999998,None,611.9995669,None,k,1,0.944183200000225,611.9995669,None,None,None,,,,,,,,,,,,,,,,,,,,,,,12009,2,2,2024_Jun_15_1841,stroop_task_switching2_b,2021.2.3,60.22986124232226,
,,,绿,green,d,diamond,color_mix,颜色,,compatible,2,block_switch1_b,instruction/ready_test.png,instruction/i11.png,,,,,,,,,,,,,,,,,0,0,0,0,0,76,76,76,,,,,,,,,,,,,,,,,,,,,,,,,,,612.9668345,613.1681282,613.1512741999995,613.4511047999995,613.4511047999995,None,613.9525945999994,None,d,1,0.8796706000002814,613.9525945999994,None,None,None,,,,,,,,,,,,,,,,,,,,,,,12009,2,2,2024_Jun_15_1841,stroop_task_switching2_b,2021.2.3,60.22986124232226,
,,,黄,red,f,square,color_mix,单词,,incompatible,2,block_switch1_b,instruction/ready_test.png,instruction/i11.png,,,,,,,,,,,,,,,,,0,0,0,0,0,77,77,77,,,,,,,,,,,,,,,,,,,,,,,,,,,614.8529058999993,615.0570909999997,615.0363976999997,615.3370716999998,615.3370716999998,None,615.8383764999999,None,k,0,1.2734418000000005,615.8383764999999,None,None,None,,,,,,,,,,,,,,,,,,,,,,,12009,2,2,2024_Jun_15_1841,stroop_task_switching2_b,2021.2.3,60.22986124232226,
,,,红,red,k,square,color_mix,单词,,compatible,1,block_switch1_b,instruction/ready_test.png,instruction/i11.png,,,,,,,,,,,,,,,,,0,0,0,0,0,78,78,78,,,,,,,,,,,,,,,,,,,,,,,,,,,617.1404400000001,617.3410399999993,617.3243929,617.6249424999996,617.6249424999996,None,618.1254309999995,None,k,1,2.4430083999995986,618.1254309999995,None,None,None,,,,,,,,,,,,,,,,,,,,,,,12009,2,2,2024_Jun_15_1841,stroop_task_switching2_b,2021.2.3,60.22986124232226,
,,,黄,yellow,f,square,color_mix,单词,,compatible,1,block_switch1_b,instruction/ready_test.png,instruction/i11.png,,,,,,,,,,,,,,,,,0,0,0,0,0,79,79,79,,,,,,,,,,,,,,,,,,,,,,,,,,,620.5953646999997,620.7965322,620.7799341999998,621.0788504000002,621.0788504000002,None,621.5799183999998,None,f,1,0.7562871999998606,621.5799183999998,None,None,None,,,,,,,,,,,,,,,,,,,,,,,12009,2,2,2024_Jun_15_1841,stroop_task_switching2_b,2021.2.3,60.22986124232226,
,,,红,red,k,diamond,color_mix,颜色,,compatible,2,block_switch1_b,instruction/ready_test.png,instruction/i11.png,,,,,,,,,,,,,,,,,0,0,0,0,0,80,80,80,,,,,,,,,,,,,,,,,,,,,,,,,,,622.3653224999998,622.5655145999999,622.5479839999998,622.8491635,622.8491635,None,623.3500384999998,None,k,1,1.786061100000552,623.3500384999998,None,None,None,,,,,,,,,,,,,,,,,,,,,,,12009,2,2,2024_Jun_15_1841,stroop_task_switching2_b,2021.2.3,60.22986124232226,
,,,红,red,k,square,color_mix,单词,,compatible,2,block_switch1_b,instruction/ready_test.png,instruction/i11.png,,,,,,,,,,,,,,,,,0,0,0,0,0,81,81,81,,,,,,,,,,,,,,,,,,,,,,,,,,,625.1516928000001,625.3523711999997,625.3364166000001,625.6367258999999,625.6367258999999,None,626.1373531999998,None,k,1,0.9674820999998701,626.1373531999998,None,None,None,,,,,,,,,,,,,,,,,,,,,,,12009,2,2,2024_Jun_15_1841,stroop_task_switching2_b,2021.2.3,60.22986124232226,
,,,黄,blue,j,diamond,color_mix,颜色,,incompatible,2,block_switch1_b,instruction/ready_test.png,instruction/i11.png,,,,,,,,,,,,,,,,,0,0,0,0,0,82,82,82,,,,,,,,,,,,,,,,,,,,,,,,,,,627.1390806999998,627.3395290999997,627.3060188,627.6065140000001,627.6065140000001,None,628.1065692000002,None,j,1,0.7026894999999058,628.1065692000002,None,None,None,,,,,,,,,,,,,,,,,,,,,,,12009,2,2,2024_Jun_15_1841,stroop_task_switching2_b,2021.2.3,60.22986124232226,
,,,红,yellow,f,diamond,color_mix,颜色,,incompatible,1,block_switch1_b,instruction/ready_test.png,instruction/i11.png,,,,,,,,,,,,,,,,,0,0,0,0,0,83,83,83,,,,,,,,,,,,,,,,,,,,,,,,,,,628.8240203999994,629.0249285999998,629.0087629999998,629.3091558999995,629.3091558999995,None,629.8098792999999,None,f,1,0.8626946000003954,629.8098792999999,None,None,None,,,,,,,,,,,,,,,,,,,,,,,12009,2,2,2024_Jun_15_1841,stroop_task_switching2_b,2021.2.3,60.22986124232226,
,,,黄,red,k,diamond,color_mix,颜色,,incompatible,1,block_switch1_b,instruction/ready_test.png,instruction/i11.png,,,,,,,,,,,,,,,,,0,0,0,0,0,84,84,84,,,,,,,,,,,,,,,,,,,,,,,,,,,630.6933857999993,630.8943255999993,630.8776447,631.178422,631.178422,None,631.6795636999996,None,k,1,1.025004699999954,631.6795636999996,None,None,None,,,,,,,,,,,,,,,,,,,,,,,12009,2,2,2024_Jun_15_1841,stroop_task_switching2_b,2021.2.3,60.22986124232226,
,,,蓝,blue,j,square,color_mix,单词,,compatible,2,block_switch1_b,instruction/ready_test.png,instruction/i11.png,,,,,,,,,,,,,,,,,0,0,0,0,0,85,85,85,,,,,,,,,,,,,,,,,,,,,,,,,,,632.7299443000002,632.9308780000001,632.9143115999996,633.2150750999999,633.2150750999999,None,633.7158024999999,None,j,1,0.7569861000001765,633.7158024999999,None,None,None,,,,,,,,,,,,,,,,,,,,,,,12009,2,2,2024_Jun_15_1841,stroop_task_switching2_b,2021.2.3,60.22986124232226,
,,,绿,green,d,square,color_mix,单词,,compatible,1,block_switch1_b,instruction/ready_test.png,instruction/i11.png,,,,,,,,,,,,,,,,,0,0,0,0,0,86,86,86,,,,,,,,,,,,,,,,,,,,,,,,,,,634.5001965000001,634.7007008,634.6844136,634.9837201,634.9837201,None,635.4849872999994,None,d,1,0.7475067000004856,635.4849872999994,None,None,None,,,,,,,,,,,,,,,,,,,,,,,12009,2,2,2024_Jun_15_1841,stroop_task_switching2_b,2021.2.3,60.22986124232226,
,,,红,red,k,square,color_mix,单词,,compatible,1,block_switch1_b,instruction/ready_test.png,instruction/i11.png,,,,,,,,,,,,,,,,,0,0,0,0,0,87,87,87,,,,,,,,,,,,,,,,,,,,,,,,,,,636.2524261999997,636.4532207000002,636.4364949999999,636.7372219999997,636.7372219999997,None,637.2376252999993,None,k,1,0.7472010000001319,637.2376252999993,None,None,None,,,,,,,,,,,,,,,,,,,,,,,12009,2,2,2024_Jun_15_1841,stroop_task_switching2_b,2021.2.3,60.22986124232226,
,,,黄,green,d,diamond,color_mix,颜色,,incompatible,2,block_switch1_b,instruction/ready_test.png,instruction/i11.png,,,,,,,,,,,,,,,,,0,0,0,0,0,88,88,88,,,,,,,,,,,,,,,,,,,,,,,,,,,638.0051372999997,638.2058351999995,638.1890515999994,638.4892823,638.4892823,None,638.99028,None,d,1,0.9541484999999739,638.99028,None,None,None,,,,,,,,,,,,,,,,,,,,,,,12009,2,2,2024_Jun_15_1841,stroop_task_switching2_b,2021.2.3,60.22986124232226,
,,,绿,red,d,square,color_mix,单词,,incompatible,2,block_switch1_b,instruction/ready_test.png,instruction/i11.png,,,,,,,,,,,,,,,,,0,0,0,0,0,89,89,89,,,,,,,,,,,,,,,,,,,,,,,,,,,639.9753843999997,640.1761142999994,640.1577415000002,640.4593435999996,640.4593435999996,None,640.9603465,None,d,1,1.9933217999996486,640.9603465,None,None,None,,,,,,,,,,,,,,,,,,,,,,,12009,2,2,2024_Jun_15_1841,stroop_task_switching2_b,2021.2.3,60.22986124232226,
,,,黄,green,f,square,color_mix,单词,,incompatible,1,block_switch1_b,instruction/ready_test.png,instruction/i11.png,,,,,,,,,,,,,,,,,0,0,0,0,0,90,90,90,,,,,,,,,,,,,,,,,,,,,,,,,,,642.9793432999995,643.1797681999997,643.1636696999994,643.4634915999995,643.4634915999995,None,643.9641753999995,None,f,1,1.6365339000003587,643.9641753999995,None,None,None,,,,,,,,,,,,,,,,,,,,,,,12009,2,2,2024_Jun_15_1841,stroop_task_switching2_b,2021.2.3,60.22986124232226,
,,,蓝,blue,j,square,color_mix,单词,,compatible,1,block_switch1_b,instruction/ready_test.png,instruction/i11.png,,,,,,,,,,,,,,,,,0,0,0,0,0,91,91,91,,,,,,,,,,,,,,,,,,,,,,,,,,,645.6169286999993,645.8172104999994,645.8004817000001,646.1008370999998,646.1008370999998,None,646.6018205,None,j,1,0.5270066999992196,646.6018205,None,None,None,,,,,,,,,,,,,,,,,,,,,,,12009,2,2,2024_Jun_15_1841,stroop_task_switching2_b,2021.2.3,60.22986124232226,
,,,蓝,red,j,square,color_mix,单词,,incompatible,1,block_switch1_b,instruction/ready_test.png,instruction/i11.png,,,,,,,,,,,,,,,,,0,0,0,0,0,92,92,92,,,,,,,,,,,,,,,,,,,,,,,,,,,647.1515688999998,647.3528034999999,647.3358661000002,647.6369042999995,647.6369042999995,None,648.1364945999994,None,j,1,1.3685819000002084,648.1364945999994,None,None,None,,,,,,,,,,,,,,,,,,,,,,,12009,2,2,2024_Jun_15_1841,stroop_task_switching2_b,2021.2.3,60.22986124232226,
,,,黄,blue,f,square,color_mix,单词,,incompatible,1,block_switch1_b,instruction/ready_test.png,instruction/i11.png,,,,,,,,,,,,,,,,,0,0,0,0,0,93,93,93,,,,,,,,,,,,,,,,,,,,,,,,,,,649.5226858999995,649.7227769000001,649.7061764999999,650.0082435999993,650.0082435999993,None,650.5077056999999,None,f,1,1.8451669000005495,650.5077056999999,None,None,None,,,,,,,,,,,,,,,,,,,,,,,12009,2,2,2024_Jun_15_1841,stroop_task_switching2_b,2021.2.3,60.22986124232226,
,,,绿,red,k,diamond,color_mix,颜色,,incompatible,2,block_switch1_b,instruction/ready_test.png,instruction/i11.png,,,,,,,,,,,,,,,,,0,0,0,0,0,94,94,94,,,,,,,,,,,,,,,,,,,,,,,,,,,652.3760794999998,652.5768363999996,652.5604020000001,652.8614122999998,652.8614122999998,None,653.3621334,None,k,1,0.8228740000004109,653.3621334,None,None,None,,,,,,,,,,,,,,,,,,,,,,,12009,2,2,2024_Jun_15_1841,stroop_task_switching2_b,2021.2.3,60.22986124232226,
,,,蓝,blue,j,diamond,color_mix,颜色,,compatible,1,block_switch1_b,instruction/ready_test.png,instruction/i11.png,,,,,,,,,,,,,,,,,0,0,0,0,0,95,95,95,,,,,,,,,,,,,,,,,,,,,,,,,,,654.2131980999993,654.4136170000002,654.3969051999993,654.6970881999996,654.6970881999996,None,655.1971373999995,None,j,1,1.0758772999997746,655.1971373999995,None,None,None,,,,,,,,,,,,,,,,,,,,,,,12009,2,2,2024_Jun_15_1841,stroop_task_switching2_b,2021.2.3,60.22986124232226,
,,,绿,green,d,square,color_mix,单词,,compatible,2,block_switch1_b,instruction/ready_test.png,instruction/i11.png,,,,,,,,,,,,,,,,,0,0,0,0,0,96,96,96,,,,,,,,,,,,,,,,,,,,,,,,,,,656.2986768000001,656.5001099000001,656.4835557999995,656.7834144999997,656.7834144999997,None,657.2841309999994,None,d,1,1.2854236999992281,657.2841309999994,None,None,None,,,,,,,,,,,,,,,,,,,,,,,12009,2,2,2024_Jun_15_1841,stroop_task_switching2_b,2021.2.3,60.22986124232226,
,,,,,,,,,,,,block_switch1_b,instruction/ready_test.png,instruction/i11.png,,,,,,,,,,,,,,,,,0,0,0,0,,,,,,,,,,,,,,,,,,,,,,,,,,,,,,,,,,,,,,,,,,,,,,,,,,,,,,,,,,,,658.5859647999996,None,space,19.49610229999962,658.5859647999996,None,,,12009,2,2,2024_Jun_15_1841,stroop_task_switching2_b,2021.2.3,60.22986124232226,
,,,蓝,blue,j,square,color_mix,单词,,compatible,0,block_switch2_b,instruction/ready_2.png,instruction/i12.png,,,,,,,,,,,,,,,,,0,1,1,1,0,0,0,0,,,,,,,,,,,,,,,,,,,683.5909733999997,684.5932960999999,684.5932960999999,685.5936069999998,685.5936069999998,None,682.6049967999998,683.6070300000001,686.6296197000001,686.8291038999996,686.8126475999998,687.1128755999998,687.1128755999998,None,687.6138279999996,None,j,1,1.500412000000324,687.6138279999996,None,None,None,,,,,,,,,678.1151979999995,None,space,4.4707877999999255,678.1151979999995,None,,,,,,,,,12009,2,2,2024_Jun_15_1841,stroop_task_switching2_b,2021.2.3,60.22986124232226,
,,,黄,red,k,diamond,color_mix,颜色,,incompatible,2,block_switch2_b,instruction/ready_2.png,instruction/i12.png,,,,,,,,,,,,,,,,,0,1,1,1,0,1,1,1,,,,,,,,,,,,,,,,,,,,,,,,,,,689.1825118999996,689.3829971999994,689.3163236999999,689.6157544999996,689.6157544999996,None,690.1165532999994,None,k,1,0.7735870999995313,690.1165532999994,None,None,None,,,,,,,,,,,,,,,,,,,,,,,12009,2,2,2024_Jun_15_1841,stroop_task_switching2_b,2021.2.3,60.22986124232226,
,,,蓝,green,d,diamond,color_mix,颜色,,incompatible,1,block_switch2_b,instruction/ready_2.png,instruction/i12.png,,,,,,,,,,,,,,,,,0,1,1,1,0,2,2,2,,,,,,,,,,,,,,,,,,,,,,,,,,,690.9347081999995,691.1356446999998,691.1022943999997,691.4027104999996,691.4027104999996,None,691.9036195999997,None,d,1,0.8024434999997538,691.9036195999997,None,None,None,,,,,,,,,,,,,,,,,,,,,,,12009,2,2,2024_Jun_15_1841,stroop_task_switching2_b,2021.2.3,60.22986124232226,
,,,红,yellow,f,diamond,color_mix,颜色,,incompatible,1,block_switch2_b,instruction/ready_2.png,instruction/i12.png,,,,,,,,,,,,,,,,,0,1,1,1,0,3,3,3,,,,,,,,,,,,,,,,,,,,,,,,,,,692.7542752999998,692.9548513999998,692.9218075999997,693.2223190999994,693.2223190999994,None,693.7229595999997,None,f,1,0.7759537000001728,693.7229595999997,None,None,None,,,,,,,,,,,,,,,,,,,,,,,12009,2,2,2024_Jun_15_1841,stroop_task_switching2_b,2021.2.3,60.22986124232226,
,,,红,red,k,diamond,color_mix,颜色,,compatible,1,block_switch2_b,instruction/ready_2.png,instruction/i12.png,,,,,,,,,,,,,,,,,0,1,1,1,0,4,4,4,,,,,,,,,,,,,,,,,,,,,,,,,,,694.5229825999995,694.7239725999998,694.7082131999996,695.0090142999998,695.0090142999998,None,695.5083393999994,None,k,1,0.6301696000000447,695.5083393999994,None,None,None,,,,,,,,,,,,,,,,,,,,,,,12009,2,2,2024_Jun_15_1841,stroop_task_switching2_b,2021.2.3,60.22986124232226,
,,,绿,green,d,square,color_mix,单词,,compatible,2,block_switch2_b,instruction/ready_2.png,instruction/i12.png,,,,,,,,,,,,,,,,,0,1,1,1,0,5,5,5,,,,,,,,,,,,,,,,,,,,,,,,,,,696.1586109,696.3606706,696.3440555999996,696.6439745999996,696.6439745999996,None,697.1447530999994,None,d,1,0.6579810999992333,697.1447530999994,None,None,None,,,,,,,,,,,,,,,,,,,,,,,12009,2,2,2024_Jun_15_1841,stroop_task_switching2_b,2021.2.3,60.22986124232226,
,,,黄,blue,j,diamond,color_mix,颜色,,incompatible,2,block_switch2_b,instruction/ready_2.png,instruction/i12.png,,,,,,,,,,,,,,,,,0,1,1,1,0,6,6,6,,,,,,,,,,,,,,,,,,,,,,,,,,,697.8279862999998,698.0291625999998,698.0128025999993,698.3132360999998,698.3132360999998,None,698.8138892999996,None,j,1,0.8846933000004356,698.8138892999996,None,None,None,,,,,,,,,,,,,,,,,,,,,,,12009,2,2,2024_Jun_15_1841,stroop_task_switching2_b,2021.2.3,60.22986124232226,
,,,绿,yellow,d,square,color_mix,单词,,incompatible,2,block_switch2_b,instruction/ready_2.png,instruction/i12.png,,,,,,,,,,,,,,,,,0,1,1,1,0,7,7,7,,,,,,,,,,,,,,,,,,,,,,,,,,,699.7143421999999,699.9155559999999,699.8989387000001,700.1995354999999,700.1995354999999,None,700.7001025,None,d,1,1.5102891999995336,700.7001025,None,None,None,,,,,,,,,,,,,,,,,,,,,,,12009,2,2,2024_Jun_15_1841,stroop_task_switching2_b,2021.2.3,60.22986124232226,
,,,红,green,k,square,color_mix,单词,,incompatible,1,block_switch2_b,instruction/ready_2.png,instruction/i12.png,,,,,,,,,,,,,,,,,0,1,1,1,0,8,8,8,,,,,,,,,,,,,,,,,,,,,,,,,,,702.2347304999994,702.4353869999995,702.4186995999999,702.7199789999995,702.7199789999995,None,703.2206167999993,None,k,1,1.2057972000002337,703.2206167999993,None,None,None,,,,,,,,,,,,,,,,,,,,,,,12009,2,2,2024_Jun_15_1841,stroop_task_switching2_b,2021.2.3,60.22986124232226,
