b_pra,ins_blocks,ins_blocks2,stim_word,stim_color,corrAns,cue_type,trial_type,task_type,rand,compatibility,switch,b_test,w_pic,w_pic2,trials_instr.thisRepN,trials_instr.thisTrialN,trials_instr.thisN,trials_instr.thisIndex,block_pra.thisRepN,block_pra.thisTrialN,block_pra.thisN,block_pra.thisIndex,trials_rep.thisRepN,trials_rep.thisTrialN,trials_rep.thisN,trials_rep.thisIndex,trials_pra.thisRepN,trials_pra.thisTrialN,trials_pra.thisN,trials_pra.thisIndex,trials_3.thisRepN,trials_3.thisTrialN,trials_3.thisN,trials_3.thisIndex,trials_2.thisRepN,trials_2.thisTrialN,trials_2.thisN,trials_2.thisIndex,instr_image.started,instr_image.stopped,instr_key_resp.keys,instr_key_resp.rt,instr_key_resp.started,instr_key_resp.stopped,instr_pra_image.started,instr_pra_image.stopped,ip_key_resp.keys,ip_key_resp.rt,ip_key_resp.started,ip_key_resp.stopped,block_image.started,block_image.stopped,ib_key_resp.keys,ib_key_resp.rt,ib_key_resp.started,ib_key_resp.stopped,cd3.started,cd3.stopped,cd2.started,cd2.stopped,cd1.started,cd1.stopped,cd_text.started,cd_text.stopped,text_fix.started,text_fix.stopped,text_2.started,text_2.stopped,text_4.started,text_4.stopped,text_target.started,text_target.stopped,key_resp.keys,key_resp.corr,key_resp.rt,key_resp.started,key_resp.stopped,sceen_black.started,sceen_black.stopped,text_fb.started,text_fb.stopped,text.started,text.stopped,key_bf.keys,key_bf.rt,key_bf.started,key_bf.stopped,instr_test_image.started,instr_test_image.stopped,instr_exp_key_resp.keys,instr_exp_key_resp.rt,instr_exp_key_resp.started,instr_exp_key_resp.stopped,text_rest.started,text_rest.stopped,key_resp_rest.keys,key_resp_rest.rt,key_resp_rest.started,key_resp_rest.stopped,text_3.started,text_3.stopped,participant,session,balance,date,expName,psychopyVersion,frameRate,
,,,,,,,,,,,,,,,0,0,0,0,,,,,,,,,,,,,,,,,,,,,12.071811700006947,None,right,0.610840100038331,12.071811700006947,None,,,,,,,,,,,,,,,,,,,,,,,,,,,,,,,,,,,,,,,,,,,,,,,,,,,,,,,,,,12014,1,2,2024_Jun_20_1927,stroop_task_switching2_b,2021.2.3,59.81920243081017,
,,,,,,,,,,,,,,,1,0,1,0,,,,,,,,,,,,,,,,,,,,,12.721996999986004,None,right,70.30428069998743,12.721996999986004,None,,,,,,,,,,,,,,,,,,,,,,,,,,,,,,,,,,,,,,,,,,,,,,,,,,,,,,,,,,12014,1,2,2024_Jun_20_1927,stroop_task_switching2_b,2021.2.3,59.81920243081017,
,,,,,,,,,,,,,,,2,0,2,0,,,,,,,,,,,,,,,,,,,,,83.06069760001265,None,right,1.3417144999839365,83.06069760001265,None,,,,,,,,,,,,,,,,,,,,,,,,,,,,,,,,,,,,,,,,,,,,,,,,,,,,,,,,,,12014,1,2,2024_Jun_20_1927,stroop_task_switching2_b,2021.2.3,59.81920243081017,
,,,,,,,,,,,,,,,3,0,3,0,,,,,,,,,,,,,,,,,,,,,84.44660339999245,None,right,0.13544320000801235,84.44660339999245,None,,,,,,,,,,,,,,,,,,,,,,,,,,,,,,,,,,,,,,,,,,,,,,,,,,,,,,,,,,12014,1,2,2024_Jun_20_1927,stroop_task_switching2_b,2021.2.3,59.81920243081017,
,,,,,,,,,,,,,,,4,0,4,0,,,,,,,,,,,,,,,,,,,,,84.6136687999824,None,right,0.1456064999802038,84.6136687999824,None,,,,,,,,,,,,,,,,,,,,,,,,,,,,,,,,,,,,,,,,,,,,,,,,,,,,,,,,,,12014,1,2,2024_Jun_20_1927,stroop_task_switching2_b,2021.2.3,59.81920243081017,
,,,,,,,,,,,,,,,5,0,5,0,,,,,,,,,,,,,,,,,,,,,84.79747119999956,None,right,0.14569030003622174,84.79747119999956,None,,,,,,,,,,,,,,,,,,,,,,,,,,,,,,,,,,,,,,,,,,,,,,,,,,,,,,,,,,12014,1,2,2024_Jun_20_1927,stroop_task_switching2_b,2021.2.3,59.81920243081017,
,,,,,,,,,,,,,,,,,,,,,,,,,,,,,,,,,,,,,,,,,,,,,84.98123029997805,None,space,1.1381052000215277,84.98123029997805,None,,,,,,,,,,,,,,,,,,,,,,,,,,,,,,,,,,,,,,,,,,,,,,,,,,,,12014,1,2,2024_Jun_20_1927,stroop_task_switching2_b,2021.2.3,59.81920243081017,
condition/block_color_b,instruction/instr_color,instruction/i8_b,XX,red,k,diamond,color_single,颜色,,,,,,,,,,,0,0,0,0,0,0,0,0,0,0,0,0,,,,,,,,,,,,,,,,,,,,,86.1661424000049,None,space,16.214843599998858,86.1661424000049,None,103.44311689998722,104.44369129999541,104.44369129999541,105.44736350001767,105.44736350001767,None,102.47400420001941,103.47618950001197,106.4296385999769,106.63232540001627,106.63232540001627,106.94868269999279,106.91416759998538,None,107.41486710001482,None,k,1,1.2739722999976948,107.41486710001482,None,None,None,108.81713889999082,None,,,,,,,,,,,,,,,,,,,,,12014,1,2,2024_Jun_20_1927,stroop_task_switching2_b,2021.2.3,59.81920243081017,
condition/block_color_b,instruction/instr_color,instruction/i8_b,XX,green,d,diamond,color_single,颜色,,,,,,,,,,,0,0,0,0,0,0,0,0,0,1,1,1,,,,,,,,,,,,,,,,,,,,,,,,,,,,,,,,,,,109.73511569999391,109.93571749998955,109.91844849998597,110.21921190002467,110.21921190002467,None,110.72046669997508,None,d,1,1.8879697999800555,110.72046669997508,None,None,None,112.65647149999859,None,,,,,,,,,,,,,,,,,,,,,12014,1,2,2024_Jun_20_1927,stroop_task_switching2_b,2021.2.3,59.81920243081017,
condition/block_color_b,instruction/instr_color,instruction/i8_b,XX,yellow,f,diamond,color_single,颜色,,,,,,,,,,,0,0,0,0,0,0,0,0,0,2,2,2,,,,,,,,,,,,,,,,,,,,,,,,,,,,,,,,,,,113.65837289998308,113.858645899978,113.84132230002433,114.14155050000409,114.14155050000409,None,114.64234660001239,None,f,1,1.3902926000300795,114.64234660001239,None,None,None,116.07896760001313,None,,,,,,,,,,,,,,,,,,,,,12014,1,2,2024_Jun_20_1927,stroop_task_switching2_b,2021.2.3,59.81920243081017,
condition/block_color_b,instruction/instr_color,instruction/i8_b,XX,blue,j,diamond,color_single,颜色,,,,,,,,,,,0,0,0,0,0,0,0,0,0,3,3,3,,,,,,,,,,,,,,,,,,,,,,,,,,,,,,,,,,,117.07959829998435,117.28161639999598,117.24624960002257,117.54740580002544,117.54740580002544,None,118.04754850000609,None,j,1,1.1450227999594063,118.04754850000609,None,None,None,119.21603890002007,None,,,,,,,,,,,,,,,,,,,,,12014,1,2,2024_Jun_20_1927,stroop_task_switching2_b,2021.2.3,59.81920243081017,
condition/block_color_b,instruction/instr_color,instruction/i8_b,XX,green,d,diamond,color_single,颜色,,,,,,,,,,,0,0,0,0,0,0,0,0,0,4,4,4,,,,,,,,,,,,,,,,,,,,,,,,,,,,,,,,,,,120.21774260001257,120.41779460001271,120.40122749999864,120.70251039997675,120.70251039997675,None,121.20335289998911,None,d,1,1.5820738000329584,121.20335289998911,None,None,None,122.80471769999713,None,,,,,,,,,,,,,,,,,,,,,12014,1,2,2024_Jun_20_1927,stroop_task_switching2_b,2021.2.3,59.81920243081017,
condition/block_color_b,instruction/instr_color,instruction/i8_b,XX,yellow,f,diamond,color_single,颜色,,,,,,,,,,,0,0,0,0,0,0,0,0,0,5,5,5,,,,,,,,,,,,,,,,,,,,,,,,,,,,,,,,,,,123.80634549999377,124.00653509999393,123.98999119998189,124.29135650000535,124.29135650000535,None,124.79110289999517,None,f,1,0.6745066999574192,124.79110289999517,None,None,None,125.49193650000961,None,,,,,,,,,,,,,,,,,,,,,12014,1,2,2024_Jun_20_1927,stroop_task_switching2_b,2021.2.3,59.81920243081017,
condition/block_color_b,instruction/instr_color,instruction/i8_b,XX,blue,j,diamond,color_single,颜色,,,,,,,,,,,0,0,0,0,0,0,0,0,0,6,6,6,,,,,,,,,,,,,,,,,,,,,,,,,,,,,,,,,,,126.49441510002362,126.693996099988,126.67897609999636,126.99543489998905,126.97758529998828,None,127.47839329997078,None,j,1,0.778659500007052,127.47839329997078,None,None,None,128.279541899974,None,,,,,,,,,,,,,,,,,,,,,12014,1,2,2024_Jun_20_1927,stroop_task_switching2_b,2021.2.3,59.81920243081017,
condition/block_color_b,instruction/instr_color,instruction/i8_b,XX,red,k,diamond,color_single,颜色,,,,,,,,,,,0,0,0,0,0,0,0,0,0,7,7,7,,,,,,,,,,,,,,,,,,,,,,,,,,,,,,,,,,,129.28124530002242,129.48237330000848,129.465832100017,129.76568979996955,129.76568979996955,None,130.26602959999582,None,k,1,0.4792963999789208,130.26602959999582,None,None,None,130.76695479999762,None,,,,,,,,,,,,,,,,,,,,,12014,1,2,2024_Jun_20_1927,stroop_task_switching2_b,2021.2.3,59.81920243081017,
condition/block_color_b,instruction/instr_color,instruction/i8_b,XX,yellow,f,diamond,color_single,颜色,,,,,,,,,,,0,0,0,0,0,0,0,0,0,8,8,8,,,,,,,,,,,,,,,,,,,,,,,,,,,,,,,,,,,131.76849960000254,131.96874649997335,131.95441299997037,132.2523072999902,132.2523072999902,None,132.75308489997406,None,f,1,0.6560778000275604,132.75308489997406,None,None,None,133.43737800000235,None,,,,,,,,,,,,,,,,,,,,,12014,1,2,2024_Jun_20_1927,stroop_task_switching2_b,2021.2.3,59.81920243081017,
condition/block_color_b,instruction/instr_color,instruction/i8_b,XX,blue,j,diamond,color_single,颜色,,,,,,,,,,,0,0,0,0,0,0,0,0,0,9,9,9,,,,,,,,,,,,,,,,,,,,,,,,,,,,,,,,,,,134.4390469000209,134.6393170999945,134.62331280001672,134.92356379999546,134.92356379999546,None,135.4239091000054,None,j,1,0.5453585999784991,135.4239091000054,None,None,None,135.9913747999817,None,,,,,,,,,,,,,,,,,,,,,12014,1,2,2024_Jun_20_1927,stroop_task_switching2_b,2021.2.3,59.81920243081017,
condition/block_color_b,instruction/instr_color,instruction/i8_b,XX,red,k,diamond,color_single,颜色,,,,,,,,,,,0,0,0,0,0,0,0,0,0,10,10,10,,,,,,,,,,,,,,,,,,,,,,,,,,,,,,,,,,,136.99286030000076,137.1943806000054,137.17636360001052,137.4773731000023,137.4773731000023,None,137.97757629997795,None,k,1,0.5355191000271589,137.97757629997795,None,None,None,138.5630629999796,None,,,,,,,,,,,,,,,,,,,,,12014,1,2,2024_Jun_20_1927,stroop_task_switching2_b,2021.2.3,59.81920243081017,
condition/block_color_b,instruction/instr_color,instruction/i8_b,XX,green,d,diamond,color_single,颜色,,,,,,,,,,,0,0,0,0,0,0,0,0,0,11,11,11,,,,,,,,,,,,,,,,,,,,,,,,,,,,,,,,,,,139.56341359997168,139.76504430000205,139.74726329999976,140.04809529997874,140.04809529997874,None,140.54831769998418,None,d,1,1.0688872000318952,140.54831769998418,None,None,None,141.6331172999926,None,,,,,,,,,,,,,,,,,,,,,12014,1,2,2024_Jun_20_1927,stroop_task_switching2_b,2021.2.3,59.81920243081017,
condition/block_color_b,instruction/instr_color,instruction/i8_b,XX,blue,j,diamond,color_single,颜色,,,,,,,,,,,0,0,0,0,0,0,0,0,0,12,12,12,,,,,,,,,,,,,,,,,,,,,,,,,,,,,,,,,,,142.635403399996,142.83538339997176,142.8185603999882,143.11854940000921,143.11854940000921,None,143.6198586000246,None,j,1,0.5575177000137046,143.6198586000246,None,None,None,144.2035215999931,None,,,,,,,,,,,,,,,,,,,,,12014,1,2,2024_Jun_20_1927,stroop_task_switching2_b,2021.2.3,59.81920243081017,
condition/block_color_b,instruction/instr_color,instruction/i8_b,XX,red,k,diamond,color_single,颜色,,,,,,,,,,,0,0,0,0,0,0,0,0,0,13,13,13,,,,,,,,,,,,,,,,,,,,,,,,,,,,,,,,,,,145.20525890000863,145.40547489997698,145.3888530000113,145.6896811000188,145.6896811000188,None,146.18989079998573,None,k,1,0.3478115000179969,146.18989079998573,None,None,None,146.55735800002003,None,,,,,,,,,,,,,,,,,,,,,12014,1,2,2024_Jun_20_1927,stroop_task_switching2_b,2021.2.3,59.81920243081017,
condition/block_color_b,instruction/instr_color,instruction/i8_b,XX,green,d,diamond,color_single,颜色,,,,,,,,,,,0,0,0,0,0,0,0,0,0,14,14,14,,,,,,,,,,,,,,,,,,,,,,,,,,,,,,,,,,,147.55888179998146,147.75905029999558,147.74258760001976,148.04359159996966,148.04359159996966,None,148.54354849999072,None,f,0,0.7780455000465736,148.54354849999072,None,None,None,149.3445336999721,None,,,,,,,,,,,,,,,,,,,,,12014,1,2,2024_Jun_20_1927,stroop_task_switching2_b,2021.2.3,59.81920243081017,
condition/block_color_b,instruction/instr_color,instruction/i8_b,XX,yellow,f,diamond,color_single,颜色,,,,,,,,,,,0,0,0,0,0,0,0,0,0,15,15,15,,,,,,,,,,,,,,,,,,,,,,,,,,,,,,,,,,,150.3462674000184,150.5480749999988,150.52993289998267,150.8305846999865,150.81354090000968,None,151.31475650001084,None,f,1,0.6474337000399828,151.31475650001084,None,None,None,151.9820617000223,None,,,,,,,,,,,,,,,,,,,,,12014,1,2,2024_Jun_20_1927,stroop_task_switching2_b,2021.2.3,59.81920243081017,
condition/block_color_b,instruction/instr_color,instruction/i8_b,XX,red,k,diamond,color_single,颜色,,,,,,,,,,,0,0,0,0,0,0,0,0,0,16,16,16,,,,,,,,,,,,,,,,,,,,,,,,,,,,,,,,,,,152.98351529997308,153.18436519999523,153.16720660001738,153.46763500000816,153.46763500000816,None,153.9686434000032,None,k,1,0.5453769999439828,153.9686434000032,None,None,None,154.53625900001498,None,,,,,,,,,,,,,,,,,,,,,12014,1,2,2024_Jun_20_1927,stroop_task_switching2_b,2021.2.3,59.81920243081017,
condition/block_color_b,instruction/instr_color,instruction/i8_b,XX,green,d,diamond,color_single,颜色,,,,,,,,,,,0,0,0,0,0,0,0,0,0,17,17,17,,,,,,,,,,,,,,,,,,,,,,,,,,,,,,,,,,,155.5375222999719,155.7376955000218,155.72174870001618,156.02144799998496,156.02144799998496,None,156.5222233000095,None,d,1,0.7756826000404544,156.5222233000095,None,None,None,157.3234392000013,None,,,,,,,,,,,,,,,,,,,,,12014,1,2,2024_Jun_20_1927,stroop_task_switching2_b,2021.2.3,59.81920243081017,
condition/block_color_b,instruction/instr_color,instruction/i8_b,XX,yellow,f,diamond,color_single,颜色,,,,,,,,,,,0,0,0,0,0,0,0,0,0,18,18,18,,,,,,,,,,,,,,,,,,,,,,,,,,,,,,,,,,,158.32474559999537,158.5252111000009,158.50984489999246,158.80960829998367,158.80960829998367,None,159.31110869999975,None,f,1,0.627463600016199,159.31110869999975,None,None,None,159.96093820000533,None,,,,,,,,,,,,,,,,,,,,,12014,1,2,2024_Jun_20_1927,stroop_task_switching2_b,2021.2.3,59.81920243081017,
condition/block_color_b,instruction/instr_color,instruction/i8_b,XX,blue,j,diamond,color_single,颜色,,,,,,,,,,,0,0,0,0,0,0,0,0,0,19,19,19,,,,,,,,,,,,,,,,,,,,,,,,,,,,,,,,,,,160.9623050999944,161.16327239997918,161.14800579997245,161.46473459998379,161.44625809998251,None,161.9471580000245,None,j,1,0.5910311000188813,161.9471580000245,None,None,None,162.56456199998502,None,,,,,,,,,,,,,,,,,,,,,12014,1,2,2024_Jun_20_1927,stroop_task_switching2_b,2021.2.3,59.81920243081017,
condition/block_color_b,instruction/instr_color,instruction/i8_b,XX,green,d,diamond,color_single,颜色,,,,,,,,,,,0,0,0,0,0,0,0,0,0,20,20,20,,,,,,,,,,,,,,,,,,,,,,,,,,,,,,,,,,,163.56618979998166,163.76707419997547,163.75219929998275,164.06680059997598,164.05055729998276,None,164.55162969999947,None,d,1,0.6506870000157505,164.55162969999947,None,None,None,165.21878679998918,None,,,,,,,,,,,,,,,,,,,,,12014,1,2,2024_Jun_20_1927,stroop_task_switching2_b,2021.2.3,59.81920243081017,
condition/block_color_b,instruction/instr_color,instruction/i8_b,XX,yellow,f,diamond,color_single,颜色,,,,,,,,,,,0,0,0,0,0,0,0,0,0,21,21,21,,,,,,,,,,,,,,,,,,,,,,,,,,,,,,,,,,,166.22008930001175,166.42055869998876,166.40456599998288,166.70430510002188,166.70430510002188,None,167.2050442000036,None,f,1,0.589152299973648,167.2050442000036,None,None,None,167.8226237000199,None,,,,,,,,,,,,,,,,,,,,,12014,1,2,2024_Jun_20_1927,stroop_task_switching2_b,2021.2.3,59.81920243081017,
condition/block_color_b,instruction/instr_color,instruction/i8_b,XX,blue,j,diamond,color_single,颜色,,,,,,,,,,,0,0,0,0,0,0,0,0,0,22,22,22,,,,,,,,,,,,,,,,,,,,,,,,,,,,,,,,,,,168.82457300001988,169.02426739997463,169.00877890002448,169.30974340002285,169.30974340002285,None,169.80957759998273,None,j,1,0.560645800025668,169.80957759998273,None,None,None,170.39320649998263,None,,,,,,,,,,,,,,,,,,,,,12014,1,2,2024_Jun_20_1927,stroop_task_switching2_b,2021.2.3,59.81920243081017,
condition/block_color_b,instruction/instr_color,instruction/i8_b,XX,red,k,diamond,color_single,颜色,,,,,,,,,,,0,0,0,0,0,0,0,0,0,23,23,23,,,,,,,,,,,,,,,,,,,,,,,,,,,,,,,,,,,171.39471279998543,171.5951901000226,171.57923249999294,171.8787782000145,171.8787782000145,None,172.38000289996853,None,k,1,0.36656210001092404,172.38000289996853,None,None,None,172.7634095000103,None,,,,,,,,,,,,,,,,,,,,,12014,1,2,2024_Jun_20_1927,stroop_task_switching2_b,2021.2.3,59.81920243081017,
condition/block_color_b,instruction/instr_color,instruction/i8_b,,,,,,,,,,,,,,,,,0,0,0,0,0,0,0,0,,,,,,,,,,,,,,,,,,,,,,,,,,,,,,,,,,,,,,,,,,,,,,,,,,,,,,,,173.79892089997884,None,space,3.883082599961199,173.79892089997884,None,,,,,,,,,,,,,,,12014,1,2,2024_Jun_20_1927,stroop_task_switching2_b,2021.2.3,59.81920243081017,
condition/block_color_b,instruction/instr_color,instruction/i8_b,,,,,,,,,,,,,,,,,0,0,0,0,,,,,,,,,,,,,,,,,,,,,,,,,,,,,,,,,,,,,,,,,,,,,,,,,,,,,,,,,,,,,,,,,,,,,,,,,,,,,,,,12014,1,2,2024_Jun_20_1927,stroop_task_switching2_b,2021.2.3,59.81920243081017,
condition/block_word_b,instruction/instr_word,instruction/i9_b,黄,white,f,square,word_single,单词,0.0032461461866890584,,,,,,,,,,0,1,1,1,0,0,0,0,0,0,0,0,,,,,,,,,,,,,,,,,,,,,177.73759969999082,None,space,7.6596345999860205,177.73759969999082,None,186.41895419999491,187.41899610002292,187.41899610002292,188.42166779999388,188.42166779999388,None,185.43473689997336,186.43524770002114,189.45582670002477,189.65570369997295,189.6415137000149,189.95737159997225,189.93972329999087,None,190.42322160000913,None,f,1,1.491556600027252,190.42322160000913,None,None,None,191.9760633999831,None,,,,,,,,,,,,,,,,,,,,,12014,1,2,2024_Jun_20_1927,stroop_task_switching2_b,2021.2.3,59.81920243081017,
condition/block_word_b,instruction/instr_word,instruction/i9_b,蓝,white,j,square,word_single,单词,0.060540570646362424,,,,,,,,,,0,1,1,1,0,0,0,0,0,1,1,1,,,,,,,,,,,,,,,,,,,,,,,,,,,,,,,,,,,192.97718899999745,193.17735680000624,193.16203760000644,193.46141549997265,193.46141549997265,None,193.96188670000993,None,j,1,0.6647994000231847,193.96188670000993,None,None,None,194.64620720001403,None,,,,,,,,,,,,,,,,,,,,,12014,1,2,2024_Jun_20_1927,stroop_task_switching2_b,2021.2.3,59.81920243081017,
condition/block_word_b,instruction/instr_word,instruction/i9_b,黄,white,f,square,word_single,单词,0.06994067193778963,,,,,,,,,,0,1,1,1,0,0,0,0,0,2,2,2,,,,,,,,,,,,,,,,,,,,,,,,,,,,,,,,,,,195.64799799997127,195.84887829999207,195.83156020002207,196.1319630999933,196.1319630999933,None,196.63272649998544,None,f,1,0.5384772999677807,196.63272649998544,None,None,None,197.2177292999695,None,,,,,,,,,,,,,,,,,,,,,12014,1,2,2024_Jun_20_1927,stroop_task_switching2_b,2021.2.3,59.81920243081017,
condition/block_word_b,instruction/instr_word,instruction/i9_b,蓝,white,j,square,word_single,单词,0.08193765152950094,,,,,,,,,,0,1,1,1,0,0,0,0,0,3,3,3,,,,,,,,,,,,,,,,,,,,,,,,,,,,,,,,,,,198.2185438000015,198.41870290000224,198.40277589997277,198.7037004000158,198.68570889998227,None,199.1867266999907,None,j,1,0.4001869999920018,199.1867266999907,None,None,None,199.60367410001345,None,,,,,,,,,,,,,,,,,,,,,12014,1,2,2024_Jun_20_1927,stroop_task_switching2_b,2021.2.3,59.81920243081017,
condition/block_word_b,instruction/instr_word,instruction/i9_b,红,white,k,square,word_single,单词,0.1279694370605574,,,,,,,,,,0,1,1,1,0,0,0,0,0,4,4,4,,,,,,,,,,,,,,,,,,,,,,,,,,,,,,,,,,,200.6054042999749,200.80593029997544,200.78903759998502,201.0898694000207,201.0898694000207,None,201.59024719998706,None,k,1,0.6769102000398561,201.59024719998706,None,None,None,202.29192799999146,None,,,,,,,,,,,,,,,,,,,,,12014,1,2,2024_Jun_20_1927,stroop_task_switching2_b,2021.2.3,59.81920243081017,
condition/block_word_b,instruction/instr_word,instruction/i9_b,红,white,k,square,word_single,单词,0.18345028784879092,,,,,,,,,,0,1,1,1,0,0,0,0,0,5,5,5,,,,,,,,,,,,,,,,,,,,,,,,,,,,,,,,,,,203.2934874999919,203.49319820001256,203.47634659998585,203.77676580002299,203.77676580002299,None,204.2776254999917,None,k,1,0.6214842000044882,204.2776254999917,None,None,None,204.92845579999266,None,,,,,,,,,,,,,,,,,,,,,12014,1,2,2024_Jun_20_1927,stroop_task_switching2_b,2021.2.3,59.81920243081017,
condition/block_word_b,instruction/instr_word,instruction/i9_b,蓝,white,j,square,word_single,单词,0.19920386223101294,,,,,,,,,,0,1,1,1,0,0,0,0,0,6,6,6,,,,,,,,,,,,,,,,,,,,,,,,,,,,,,,,,,,205.93007679999573,206.13111100002425,206.11379500001203,206.4143559000222,206.4143559000222,None,206.915189500025,None,j,1,0.6080375000019558,206.915189500025,None,None,None,207.5492518999963,None,,,,,,,,,,,,,,,,,,,,,12014,1,2,2024_Jun_20_1927,stroop_task_switching2_b,2021.2.3,59.81920243081017,
condition/block_word_b,instruction/instr_word,instruction/i9_b,蓝,white,j,square,word_single,单词,0.26360599864925405,,,,,,,,,,0,1,1,1,0,0,0,0,0,7,7,7,,,,,,,,,,,,,,,,,,,,,,,,,,,,,,,,,,,208.5509805000038,208.7516535000177,208.73552360001486,209.0349714999902,209.0349714999902,None,209.5353463999927,None,j,1,0.7327083999989554,209.5353463999927,None,None,None,210.2866850999999,None,,,,,,,,,,,,,,,,,,,,,12014,1,2,2024_Jun_20_1927,stroop_task_switching2_b,2021.2.3,59.81920243081017,
condition/block_word_b,instruction/instr_word,instruction/i9_b,蓝,white,j,square,word_single,单词,0.358985675745526,,,,,,,,,,0,1,1,1,0,0,0,0,0,8,8,8,,,,,,,,,,,,,,,,,,,,,,,,,,,,,,,,,,,211.28872870001942,211.48891040001763,211.4718568000244,211.77346950001083,211.77346950001083,None,212.27288549998775,None,j,1,0.5703822000068612,212.27288549998775,None,None,None,212.8907897999743,None,,,,,,,,,,,,,,,,,,,,,12014,1,2,2024_Jun_20_1927,stroop_task_switching2_b,2021.2.3,59.81920243081017,
condition/block_word_b,instruction/instr_word,instruction/i9_b,绿,white,d,square,word_single,单词,0.36496733802487347,,,,,,,,,,0,1,1,1,0,0,0,0,0,9,9,9,,,,,,,,,,,,,,,,,,,,,,,,,,,,,,,,,,,213.89321339997696,214.11054760002298,214.0590741999913,214.36184229998617,214.36184229998617,None,214.86008170002606,None,d,1,0.7276592000271194,214.86008170002606,None,None,None,215.61149199999636,None,,,,,,,,,,,,,,,,,,,,,12014,1,2,2024_Jun_20_1927,stroop_task_switching2_b,2021.2.3,59.81920243081017,
condition/block_word_b,instruction/instr_word,instruction/i9_b,黄,white,f,square,word_single,单词,0.3743513623756727,,,,,,,,,,0,1,1,1,0,0,0,0,0,10,10,10,,,,,,,,,,,,,,,,,,,,,,,,,,,,,,,,,,,216.61291450000135,216.81306279997807,216.79715250001755,217.09723690000828,217.09723690000828,None,217.5977820000262,None,f,1,0.4855131999938749,217.5977820000262,None,None,None,218.13203199999407,None,,,,,,,,,,,,,,,,,,,,,12014,1,2,2024_Jun_20_1927,stroop_task_switching2_b,2021.2.3,59.81920243081017,
condition/block_word_b,instruction/instr_word,instruction/i9_b,红,white,k,square,word_single,单词,0.3894803852598544,,,,,,,,,,0,1,1,1,0,0,0,0,0,11,11,11,,,,,,,,,,,,,,,,,,,,,,,,,,,,,,,,,,,219.1332846999867,219.3343848999939,219.3008578000008,219.60054299997864,219.60054299997864,None,220.1014845999889,None,k,1,0.5580782999750227,220.1014845999889,None,None,None,220.68550199997844,None,,,,,,,,,,,,,,,,,,,,,12014,1,2,2024_Jun_20_1927,stroop_task_switching2_b,2021.2.3,59.81920243081017,
condition/block_word_b,instruction/instr_word,instruction/i9_b,绿,white,d,square,word_single,单词,0.5393759672408067,,,,,,,,,,0,1,1,1,0,0,0,0,0,12,12,12,,,,,,,,,,,,,,,,,,,,,,,,,,,,,,,,,,,221.68810329999542,221.88749739999184,221.87171689997194,222.17308779997984,222.17308779997984,None,222.6720595000079,None,d,1,0.8435069000115618,222.6720595000079,None,None,None,223.54029029997764,None,,,,,,,,,,,,,,,,,,,,,12014,1,2,2024_Jun_20_1927,stroop_task_switching2_b,2021.2.3,59.81920243081017,
condition/block_word_b,instruction/instr_word,instruction/i9_b,蓝,white,j,square,word_single,单词,0.5995731954831104,,,,,,,,,,0,1,1,1,0,0,0,0,0,13,13,13,,,,,,,,,,,,,,,,,,,,,,,,,,,,,,,,,,,224.54137390002143,224.74249999999302,224.72497999999905,225.02562600001693,225.02562600001693,None,225.52646449999884,None,j,1,0.6370712000061758,225.52646449999884,None,None,None,226.2112899000058,None,,,,,,,,,,,,,,,,,,,,,12014,1,2,2024_Jun_20_1927,stroop_task_switching2_b,2021.2.3,59.81920243081017,
condition/block_word_b,instruction/instr_word,instruction/i9_b,红,white,k,square,word_single,单词,0.6298674479151414,,,,,,,,,,0,1,1,1,0,0,0,0,0,14,14,14,,,,,,,,,,,,,,,,,,,,,,,,,,,,,,,,,,,227.21218959998805,227.4129302999936,227.37985789997038,227.67971019999823,227.67971019999823,None,228.18035169999348,None,k,1,0.43956359999720007,228.18035169999348,None,None,None,228.64750670001376,None,,,,,,,,,,,,,,,,,,,,,12014,1,2,2024_Jun_20_1927,stroop_task_switching2_b,2021.2.3,59.81920243081017,
condition/block_word_b,instruction/instr_word,instruction/i9_b,红,white,k,square,word_single,单词,0.7389942282348904,,,,,,,,,,0,1,1,1,0,0,0,0,0,15,15,15,,,,,,,,,,,,,,,,,,,,,,,,,,,,,,,,,,,229.64936340000713,229.85088119999273,229.83263630000874,230.1343659000122,230.1343659000122,None,230.6339988000109,None,k,1,0.5460000000311993,230.6339988000109,None,None,None,231.20148039999185,None,,,,,,,,,,,,,,,,,,,,,12014,1,2,2024_Jun_20_1927,stroop_task_switching2_b,2021.2.3,59.81920243081017,
condition/block_word_b,instruction/instr_word,instruction/i9_b,绿,white,d,square,word_single,单词,0.7550853947239682,,,,,,,,,,0,1,1,1,0,0,0,0,0,16,16,16,,,,,,,,,,,,,,,,,,,,,,,,,,,,,,,,,,,232.20313410001108,232.40433009999106,232.3892102999962,232.70450230001006,232.68719819997204,None,233.18778989999555,None,d,1,0.823973200051114,233.18778989999555,None,None,None,234.03947949997382,None,,,,,,,,,,,,,,,,,,,,,12014,1,2,2024_Jun_20_1927,stroop_task_switching2_b,2021.2.3,59.81920243081017,
condition/block_word_b,instruction/instr_word,instruction/i9_b,绿,white,d,square,word_single,单词,0.8019302780428206,,,,,,,,,,0,1,1,1,0,0,0,0,0,17,17,17,,,,,,,,,,,,,,,,,,,,,,,,,,,,,,,,,,,235.0409089999739,235.24126059998525,235.22423350001918,235.52487000002293,235.52487000002293,None,236.02565199998207,None,d,1,0.6904199999989942,236.02565199998207,None,None,None,236.74316610000096,None,,,,,,,,,,,,,,,,,,,,,12014,1,2,2024_Jun_20_1927,stroop_task_switching2_b,2021.2.3,59.81920243081017,
condition/block_word_b,instruction/instr_word,instruction/i9_b,绿,white,d,square,word_single,单词,0.8110702914095343,,,,,,,,,,0,1,1,1,0,0,0,0,0,18,18,18,,,,,,,,,,,,,,,,,,,,,,,,,,,,,,,,,,,237.74459640000714,237.94589249999262,237.9283164999797,238.2287621999858,238.2287621999858,None,238.72948679997353,None,d,1,0.6666226999950595,238.72948679997353,None,None,None,239.41375529998913,None,,,,,,,,,,,,,,,,,,,,,12014,1,2,2024_Jun_20_1927,stroop_task_switching2_b,2021.2.3,59.81920243081017,
condition/block_word_b,instruction/instr_word,instruction/i9_b,黄,white,f,square,word_single,单词,0.8176594937590999,,,,,,,,,,0,1,1,1,0,0,0,0,0,19,19,19,,,,,,,,,,,,,,,,,,,,,,,,,,,,,,,,,,,240.41558139998233,240.61671440000646,240.5990937000024,240.89943859999767,240.89943859999767,None,241.40041800000472,None,f,1,0.5557235000305809,241.40041800000472,None,None,None,241.98437540000305,None,,,,,,,,,,,,,,,,,,,,,12014,1,2,2024_Jun_20_1927,stroop_task_switching2_b,2021.2.3,59.81920243081017,
condition/block_word_b,instruction/instr_word,instruction/i9_b,红,white,k,square,word_single,单词,0.8955794421104841,,,,,,,,,,0,1,1,1,0,0,0,0,0,20,20,20,,,,,,,,,,,,,,,,,,,,,,,,,,,,,,,,,,,242.98597789998166,243.18683229997987,243.17133779998403,243.47188169998117,243.47188169998117,None,243.9707734999829,None,k,1,0.5932273999787867,243.9707734999829,None,None,None,244.58958690002328,None,,,,,,,,,,,,,,,,,,,,,12014,1,2,2024_Jun_20_1927,stroop_task_switching2_b,2021.2.3,59.81920243081017,
condition/block_word_b,instruction/instr_word,instruction/i9_b,绿,white,d,square,word_single,单词,0.9113598052474129,,,,,,,,,,0,1,1,1,0,0,0,0,0,21,21,21,,,,,,,,,,,,,,,,,,,,,,,,,,,,,,,,,,,245.5907387000043,245.79131429997506,245.773533199972,246.0739841000177,246.0739841000177,None,246.57453530002385,None,d,1,0.5654969000024721,246.57453530002385,None,None,None,247.15899620001437,None,,,,,,,,,,,,,,,,,,,,,12014,1,2,2024_Jun_20_1927,stroop_task_switching2_b,2021.2.3,59.81920243081017,
condition/block_word_b,instruction/instr_word,instruction/i9_b,黄,white,f,square,word_single,单词,0.9215930958042953,,,,,,,,,,0,1,1,1,0,0,0,0,0,22,22,22,,,,,,,,,,,,,,,,,,,,,,,,,,,,,,,,,,,248.16052219999256,248.3614334000158,248.34404330002144,248.64457329997094,248.64457329997094,None,249.14534180000192,None,f,1,0.5870135999866761,249.14534180000192,None,None,None,249.76297029998386,None,,,,,,,,,,,,,,,,,,,,,12014,1,2,2024_Jun_20_1927,stroop_task_switching2_b,2021.2.3,59.81920243081017,
condition/block_word_b,instruction/instr_word,instruction/i9_b,黄,white,f,square,word_single,单词,0.9493525498837774,,,,,,,,,,0,1,1,1,0,0,0,0,0,23,23,23,,,,,,,,,,,,,,,,,,,,,,,,,,,,,,,,,,,250.7643540999852,250.96467880002456,250.94789760001004,251.2500722000259,251.2500722000259,None,251.75045499997213,None,f,1,0.5419814000488259,251.75045499997213,None,None,None,252.31671939999796,None,,,,,,,,,,,,,,,,,,,,,12014,1,2,2024_Jun_20_1927,stroop_task_switching2_b,2021.2.3,59.81920243081017,
condition/block_word_b,instruction/instr_word,instruction/i9_b,,,,,,,,,,,,,,,,,0,1,1,1,0,0,0,0,,,,,,,,,,,,,,,,,,,,,,,,,,,,,,,,,,,,,,,,,,,,,,,,,,,,,,,,253.3360481999698,None,space,2.225564500025939,253.3360481999698,None,,,,,,,,,,,,,,,12014,1,2,2024_Jun_20_1927,stroop_task_switching2_b,2021.2.3,59.81920243081017,
condition/block_word_b,instruction/instr_word,instruction/i9_b,,,,,,,,,,,,,,,,,0,1,1,1,,,,,,,,,,,,,,,,,,,,,,,,,,,,,,,,,,,,,,,,,,,,,,,,,,,,,,,,,,,,,,,,,,,,,,,,,,,,,,,,12014,1,2,2024_Jun_20_1927,stroop_task_switching2_b,2021.2.3,59.81920243081017,
condition/block_mixed_b,instruction/instr_mixed,instruction/i10_b,蓝,red,k,diamond,color_mix,颜色,,incompatible,0,,,,,,,,0,2,2,2,0,0,0,0,0,0,0,0,,,,,,,,,,,,,,,,,,,,,255.62165719998302,None,space,17.633747299958486,255.62165719998302,None,274.28293310001027,275.28637139999773,275.28637139999773,276.28626500000246,276.28626500000246,None,273.2984079999733,274.3005102999741,277.3211942000198,277.52184800000396,277.5048640000168,277.80521979997866,277.80521979997866,None,278.2900376999751,None,k,1,0.9474740999867208,278.2900376999751,None,None,None,279.29069439996965,None,,,,,,,,,,,,,,,,,,,,,12014,1,2,2024_Jun_20_1927,stroop_task_switching2_b,2021.2.3,59.81920243081017,
condition/block_mixed_b,instruction/instr_mixed,instruction/i10_b,绿,yellow,f,diamond,color_mix,颜色,,incompatible,1,,,,,,,,0,2,2,2,0,0,0,0,0,1,1,1,,,,,,,,,,,,,,,,,,,,,,,,,,,,,,,,,,,280.2753942999989,280.4771385000204,280.4591583000147,280.75957090000156,280.7428400000208,None,281.24481970001943,None,f,1,0.7203205000259914,281.24481970001943,None,None,None,282.0118064999697,None,,,,,,,,,,,,,,,,,,,,,12014,1,2,2024_Jun_20_1927,stroop_task_switching2_b,2021.2.3,59.81920243081017,
condition/block_mixed_b,instruction/instr_mixed,instruction/i10_b,红,green,d,diamond,color_mix,颜色,,incompatible,1,,,,,,,,0,2,2,2,0,0,0,0,0,2,2,2,,,,,,,,,,,,,,,,,,,,,,,,,,,,,,,,,,,283.0133163999999,283.2140135000227,283.19746699999087,283.4991977000027,283.4805769000086,None,283.9809020999819,None,d,1,0.8969094000058249,283.9809020999819,None,None,None,284.8991029000026,None,,,,,,,,,,,,,,,,,,,,,12014,1,2,2024_Jun_20_1927,stroop_task_switching2_b,2021.2.3,59.81920243081017,
condition/block_mixed_b,instruction/instr_mixed,instruction/i10_b,蓝,red,k,diamond,color_mix,颜色,,incompatible,1,,,,,,,,0,2,2,2,0,0,0,0,0,3,3,3,,,,,,,,,,,,,,,,,,,,,,,,,,,,,,,,,,,285.90078089997405,286.10095689998707,286.08655210002325,286.38577559997793,286.38577559997793,None,286.885580400005,None,k,1,1.0082200000179,286.885580400005,None,None,None,287.9202937000082,None,,,,,,,,,,,,,,,,,,,,,12014,1,2,2024_Jun_20_1927,stroop_task_switching2_b,2021.2.3,59.81920243081017,
condition/block_mixed_b,instruction/instr_mixed,instruction/i10_b,红,blue,j,diamond,color_mix,颜色,,incompatible,1,,,,,,,,0,2,2,2,0,0,0,0,0,4,4,4,,,,,,,,,,,,,,,,,,,,,,,,,,,,,,,,,,,288.92209449998336,289.1223427000223,289.10624270001426,289.4069813999813,289.4069813999813,None,289.9079582999693,None,j,1,1.9373513999744318,289.9079582999693,None,None,None,291.89315570000326,None,,,,,,,,,,,,,,,,,,,,,12014,1,2,2024_Jun_20_1927,stroop_task_switching2_b,2021.2.3,59.81920243081017,
condition/block_mixed_b,instruction/instr_mixed,instruction/i10_b,红,blue,k,square,color_mix,单词,,incompatible,2,,,,,,,,0,2,2,2,0,0,0,0,0,5,5,5,,,,,,,,,,,,,,,,,,,,,,,,,,,,,,,,,,,292.8946704000118,293.0949470999767,293.078287500015,293.3802973999991,293.3802973999991,None,293.87996479996946,None,j,0,0.8375102000427432,293.87996479996946,None,None,None,294.76448229997186,None,,,,,,,,,,,,,,,,,,,,,12014,1,2,2024_Jun_20_1927,stroop_task_switching2_b,2021.2.3,59.81920243081017,
condition/block_mixed_b,instruction/instr_mixed,instruction/i10_b,红,yellow,f,diamond,color_mix,颜色,,incompatible,2,,,,,,,,0,2,2,2,0,0,0,0,0,6,6,6,,,,,,,,,,,,,,,,,,,,,,,,,,,,,,,,,,,295.76550769997993,295.96629720000783,295.9511744999909,296.2664851999725,296.2498382999911,None,296.751104200026,None,k,0,2.070357699994929,296.751104200026,None,None,None,298.83662479999475,None,,,,,,,,,,,,,,,,,,,,,12014,1,2,2024_Jun_20_1927,stroop_task_switching2_b,2021.2.3,59.81920243081017,
condition/block_mixed_b,instruction/instr_mixed,instruction/i10_b,红,yellow,k,square,color_mix,单词,,incompatible,2,,,,,,,,0,2,2,2,0,0,0,0,0,7,7,7,,,,,,,,,,,,,,,,,,,,,,,,,,,,,,,,,,,299.8384779000189,300.03892710001674,300.02198879997013,300.3225011000177,300.3225011000177,None,300.82331210002303,None,f,0,2.590360000031069,300.82331210002303,None,None,None,303.4611616000184,None,,,,,,,,,,,,,,,,,,,,,12014,1,2,2024_Jun_20_1927,stroop_task_switching2_b,2021.2.3,59.81920243081017,
condition/block_mixed_b,instruction/instr_mixed,instruction/i10_b,绿,blue,d,square,color_mix,单词,,incompatible,1,,,,,,,,0,2,2,2,0,0,0,0,0,8,8,8,,,,,,,,,,,,,,,,,,,,,,,,,,,,,,,,,,,304.46245609998005,304.66286520002177,304.64575650001643,304.9473086000071,304.92955880000954,None,305.43009380000876,None,d,1,1.9599268000456505,305.43009380000876,None,None,None,307.4165377999889,None,,,,,,,,,,,,,,,,,,,,,12014,1,2,2024_Jun_20_1927,stroop_task_switching2_b,2021.2.3,59.81920243081017,
condition/block_mixed_b,instruction/instr_mixed,instruction/i10_b,蓝,green,d,diamond,color_mix,颜色,,incompatible,2,,,,,,,,0,2,2,2,0,0,0,0,0,9,9,9,,,,,,,,,,,,,,,,,,,,,,,,,,,,,,,,,,,308.41814869997324,308.6182379000238,308.60217039997224,308.9020337999682,308.9020337999682,None,309.4029077999876,None,d,1,1.5070450999774039,309.4029077999876,None,None,None,310.9555091999937,None,,,,,,,,,,,,,,,,,,,,,12014,1,2,2024_Jun_20_1927,stroop_task_switching2_b,2021.2.3,59.81920243081017,
condition/block_mixed_b,instruction/instr_mixed,instruction/i10_b,蓝,yellow,j,square,color_mix,单词,,incompatible,2,,,,,,,,0,2,2,2,0,0,0,0,0,10,10,10,,,,,,,,,,,,,,,,,,,,,,,,,,,,,,,,,,,311.95669820002513,312.1582902999944,312.14075159997446,312.44065609999234,312.44065609999234,None,312.9420135000255,None,f,0,0.7521771999890916,312.9420135000255,None,None,None,313.7092763999826,None,,,,,,,,,,,,,,,,,,,,,12014,1,2,2024_Jun_20_1927,stroop_task_switching2_b,2021.2.3,59.81920243081017,
condition/block_mixed_b,instruction/instr_mixed,instruction/i10_b,蓝,green,j,square,color_mix,单词,,incompatible,1,,,,,,,,0,2,2,2,0,0,0,0,0,11,11,11,,,,,,,,,,,,,,,,,,,,,,,,,,,,,,,,,,,314.71219689998543,314.9111773999757,314.8953542999807,315.19602929998655,315.19602929998655,None,315.69563089997973,None,d,0,1.8544195999857038,315.69563089997973,None,None,None,317.5816426000092,None,,,,,,,,,,,,,,,,,,,,,12014,1,2,2024_Jun_20_1927,stroop_task_switching2_b,2021.2.3,59.81920243081017,
condition/block_mixed_b,instruction/instr_mixed,instruction/i10_b,绿,yellow,d,square,color_mix,单词,,incompatible,1,,,,,,,,0,2,2,2,0,0,0,0,0,12,12,12,,,,,,,,,,,,,,,,,,,,,,,,,,,,,,,,,,,318.5833096000133,318.78380689996993,318.76787029998377,319.0677953999839,319.0677953999839,None,319.56808729999466,None,d,1,1.670719799993094,319.56808729999466,None,None,None,321.2541639999836,None,,,,,,,,,,,,,,,,,,,,,12014,1,2,2024_Jun_20_1927,stroop_task_switching2_b,2021.2.3,59.81920243081017,
condition/block_mixed_b,instruction/instr_mixed,instruction/i10_b,绿,blue,j,diamond,color_mix,颜色,,incompatible,2,,,,,,,,0,2,2,2,0,0,0,0,0,13,13,13,,,,,,,,,,,,,,,,,,,,,,,,,,,,,,,,,,,322.2555781999836,322.45589059998747,322.43915370001923,322.74070590001065,322.74070590001065,None,323.2402342999703,None,j,1,1.9506826000288129,323.2402342999703,None,None,None,325.209948099975,None,,,,,,,,,,,,,,,,,,,,,12014,1,2,2024_Jun_20_1927,stroop_task_switching2_b,2021.2.3,59.81920243081017,
condition/block_mixed_b,instruction/instr_mixed,instruction/i10_b,黄,red,f,square,color_mix,单词,,incompatible,2,,,,,,,,0,2,2,2,0,0,0,0,0,14,14,14,,,,,,,,,,,,,,,,,,,,,,,,,,,,,,,,,,,326.2114999999758,326.41180760000134,326.3969028000138,326.7120700000087,326.69570430001477,None,327.19675190001726,None,f,1,2.2338374000391923,327.19675190001726,None,None,None,329.4495184000116,None,,,,,,,,,,,,,,,,,,,,,12014,1,2,2024_Jun_20_1927,stroop_task_switching2_b,2021.2.3,59.81920243081017,
condition/block_mixed_b,instruction/instr_mixed,instruction/i10_b,蓝,yellow,f,diamond,color_mix,颜色,,incompatible,2,,,,,,,,0,2,2,2,0,0,0,0,0,15,15,15,,,,,,,,,,,,,,,,,,,,,,,,,,,,,,,,,,,330.4512786999694,330.6526024999912,330.634903499973,330.9358962000115,330.9358962000115,None,331.43594230001327,None,f,1,0.9227443999843672,331.43594230001327,None,None,None,332.38763610000024,None,,,,,,,,,,,,,,,,,,,,,12014,1,2,2024_Jun_20_1927,stroop_task_switching2_b,2021.2.3,59.81920243081017,
condition/block_mixed_b,instruction/instr_mixed,instruction/i10_b,黄,red,k,diamond,color_mix,颜色,,incompatible,1,,,,,,,,0,2,2,2,0,0,0,0,0,16,16,16,,,,,,,,,,,,,,,,,,,,,,,,,,,,,,,,,,,333.3889451000141,333.5896798999747,333.57278709998354,333.87289880000753,333.87289880000753,None,334.37391059997026,None,k,1,0.649597099982202,334.37391059997026,None,None,None,335.04146440001205,None,,,,,,,,,,,,,,,,,,,,,12014,1,2,2024_Jun_20_1927,stroop_task_switching2_b,2021.2.3,59.81920243081017,
condition/block_mixed_b,instruction/instr_mixed,instruction/i10_b,绿,red,d,square,color_mix,单词,,incompatible,2,,,,,,,,0,2,2,2,0,0,0,0,0,17,17,17,,,,,,,,,,,,,,,,,,,,,,,,,,,,,,,,,,,336.0433660999988,336.24469830002636,336.2265518999775,336.5270762,336.5270762,None,337.0276472999831,None,d,1,1.5791491999989375,337.0276472999831,None,None,None,338.63007169996854,None,,,,,,,,,,,,,,,,,,,,,12014,1,2,2024_Jun_20_1927,stroop_task_switching2_b,2021.2.3,59.81920243081017,
condition/block_mixed_b,instruction/instr_mixed,instruction/i10_b,红,green,k,square,color_mix,单词,,incompatible,1,,,,,,,,0,2,2,2,0,0,0,0,0,18,18,18,,,,,,,,,,,,,,,,,,,,,,,,,,,,,,,,,,,339.6316891000024,339.8319895999739,339.8168542999774,340.1156806999934,340.1156806999934,None,340.6165836,None,k,1,0.566292000003159,340.6165836,None,None,None,341.20059040002525,None,,,,,,,,,,,,,,,,,,,,,12014,1,2,2024_Jun_20_1927,stroop_task_switching2_b,2021.2.3,59.81920243081017,
condition/block_mixed_b,instruction/instr_mixed,instruction/i10_b,黄,blue,j,diamond,color_mix,颜色,,incompatible,2,,,,,,,,0,2,2,2,0,0,0,0,0,19,19,19,,,,,,,,,,,,,,,,,,,,,,,,,,,,,,,,,,,342.20253339997726,342.40371179999784,342.3858800000162,342.6864834000007,342.6864834000007,None,343.1872483000043,None,j,1,1.0278042000136338,343.1872483000043,None,None,None,344.23865140002454,None,,,,,,,,,,,,,,,,,,,,,12014,1,2,2024_Jun_20_1927,stroop_task_switching2_b,2021.2.3,59.81920243081017,
condition/block_mixed_b,instruction/instr_mixed,instruction/i10_b,黄,green,d,diamond,color_mix,颜色,,incompatible,1,,,,,,,,0,2,2,2,0,0,0,0,0,20,20,20,,,,,,,,,,,,,,,,,,,,,,,,,,,,,,,,,,,345.24018219998106,345.44087469996884,345.4238118000212,345.7252838999848,345.7252838999848,None,346.22500869998476,None,d,1,0.782408100028988,346.22500869998476,None,None,None,347.0263724999968,None,,,,,,,,,,,,,,,,,,,,,12014,1,2,2024_Jun_20_1927,stroop_task_switching2_b,2021.2.3,59.81920243081017,
condition/block_mixed_b,instruction/instr_mixed,instruction/i10_b,黄,green,f,square,color_mix,单词,,incompatible,2,,,,,,,,0,2,2,2,0,0,0,0,0,21,21,21,,,,,,,,,,,,,,,,,,,,,,,,,,,,,,,,,,,348.027590600017,348.2279681999935,348.2124526000116,348.51296069996897,348.51296069996897,None,349.0125954999821,None,f,1,1.2265597999794409,349.0125954999821,None,None,None,350.2643746000249,None,,,,,,,,,,,,,,,,,,,,,12014,1,2,2024_Jun_20_1927,stroop_task_switching2_b,2021.2.3,59.81920243081017,
condition/block_mixed_b,instruction/instr_mixed,instruction/i10_b,黄,blue,f,square,color_mix,单词,,incompatible,1,,,,,,,,0,2,2,2,0,0,0,0,0,22,22,22,,,,,,,,,,,,,,,,,,,,,,,,,,,,,,,,,,,351.2662923000171,351.46723060001386,351.44961160002276,351.7518533000257,351.7518533000257,None,352.2508607999771,None,f,1,1.1083712999825366,352.2508607999771,None,None,None,353.3857018999988,None,,,,,,,,,,,,,,,,,,,,,12014,1,2,2024_Jun_20_1927,stroop_task_switching2_b,2021.2.3,59.81920243081017,
condition/block_mixed_b,instruction/instr_mixed,instruction/i10_b,蓝,red,j,square,color_mix,单词,,incompatible,1,,,,,,,,0,2,2,2,0,0,0,0,0,23,23,23,,,,,,,,,,,,,,,,,,,,,,,,,,,,,,,,,,,354.3875517999986,354.58928760001436,354.5709610999911,354.8734438000247,354.8734438000247,None,355.38932319998275,None,d,0,0.9540493999957107,355.38932319998275,None,None,None,356.3569732999895,None,,,,,,,,,,,,,,,,,,,,,12014,1,2,2024_Jun_20_1927,stroop_task_switching2_b,2021.2.3,59.81920243081017,
condition/block_mixed_b,instruction/instr_mixed,instruction/i10_b,绿,red,k,diamond,color_mix,颜色,,incompatible,2,,,,,,,,0,2,2,2,0,0,0,0,0,24,24,24,,,,,,,,,,,,,,,,,,,,,,,,,,,,,,,,,,,357.3591433999827,357.56009530002484,357.5422010999755,357.8437867999892,357.8437867999892,None,358.3432570999721,None,k,1,0.8647375999717042,358.3432570999721,None,None,None,359.2277375999838,None,,,,,,,,,,,,,,,,,,,,,12014,1,2,2024_Jun_20_1927,stroop_task_switching2_b,2021.2.3,59.81920243081017,
condition/block_mixed_b,instruction/instr_mixed,instruction/i10_b,绿,green,d,diamond,color_mix,颜色,,compatible,1,,,,,,,,0,2,2,2,0,0,0,0,0,25,25,25,,,,,,,,,,,,,,,,,,,,,,,,,,,,,,,,,,,360.2297316999757,360.42989759997,360.41402869997546,360.7141871000058,360.7141871000058,None,361.21439159999136,None,d,1,0.8334552999585867,361.21439159999136,None,None,None,362.0658168999944,None,,,,,,,,,,,,,,,,,,,,,12014,1,2,2024_Jun_20_1927,stroop_task_switching2_b,2021.2.3,59.81920243081017,
condition/block_mixed_b,instruction/instr_mixed,instruction/i10_b,蓝,blue,j,diamond,color_mix,颜色,,compatible,1,,,,,,,,0,2,2,2,0,0,0,0,0,26,26,26,,,,,,,,,,,,,,,,,,,,,,,,,,,,,,,,,,,363.0679584000027,363.2674023999716,363.25143120001303,363.5515578999766,363.5515578999766,None,364.0519440000062,None,j,1,1.8196990999858826,364.0519440000062,None,None,None,365.88793359999545,None,,,,,,,,,,,,,,,,,,,,,12014,1,2,2024_Jun_20_1927,stroop_task_switching2_b,2021.2.3,59.81920243081017,
condition/block_mixed_b,instruction/instr_mixed,instruction/i10_b,绿,green,d,square,color_mix,单词,,compatible,2,,,,,,,,0,2,2,2,0,0,0,0,0,27,27,27,,,,,,,,,,,,,,,,,,,,,,,,,,,,,,,,,,,366.8904198000091,367.0906246000086,367.0729553999845,367.3752178999712,367.3752178999712,None,367.87525079998886,None,d,1,1.1886389999999665,367.87525079998886,None,None,None,369.09284850000404,None,,,,,,,,,,,,,,,,,,,,,12014,1,2,2024_Jun_20_1927,stroop_task_switching2_b,2021.2.3,59.81920243081017,
condition/block_mixed_b,instruction/instr_mixed,instruction/i10_b,绿,green,d,square,color_mix,单词,,compatible,1,,,,,,,,0,2,2,2,0,0,0,0,0,28,28,28,,,,,,,,,,,,,,,,,,,,,,,,,,,,,,,,,,,370.0943753999891,370.29547850001836,370.2780217999825,370.578470700013,370.578470700013,None,371.0800070000114,None,d,1,0.9515799999935552,371.0800070000114,None,None,None,372.04719309997745,None,,,,,,,,,,,,,,,,,,,,,12014,1,2,2024_Jun_20_1927,stroop_task_switching2_b,2021.2.3,59.81920243081017,
condition/block_mixed_b,instruction/instr_mixed,instruction/i10_b,蓝,blue,j,square,color_mix,单词,,compatible,1,,,,,,,,0,2,2,2,0,0,0,0,0,29,29,29,,,,,,,,,,,,,,,,,,,,,,,,,,,,,,,,,,,373.0492312000133,373.24909719999414,373.23265169997467,373.53407130000414,373.53407130000414,None,374.0336692999699,None,j,1,1.2941915999981575,374.0336692999699,None,None,None,375.35240969998995,None,,,,,,,,,,,,,,,,,,,,,12014,1,2,2024_Jun_20_1927,stroop_task_switching2_b,2021.2.3,59.81920243081017,
condition/block_mixed_b,instruction/instr_mixed,instruction/i10_b,黄,yellow,f,diamond,color_mix,颜色,,compatible,2,,,,,,,,0,2,2,2,0,0,0,0,0,30,30,30,,,,,,,,,,,,,,,,,,,,,,,,,,,,,,,,,,,376.354001700005,376.55501030001324,376.53749660000904,376.83793839998543,376.83793839998543,None,377.3386708999751,None,f,1,0.7657741000293754,377.3386708999751,None,None,None,378.12295769999037,None,,,,,,,,,,,,,,,,,,,,,12014,1,2,2024_Jun_20_1927,stroop_task_switching2_b,2021.2.3,59.81920243081017,
condition/block_mixed_b,instruction/instr_mixed,instruction/i10_b,绿,green,d,square,color_mix,单词,,compatible,2,,,,,,,,0,2,2,2,0,0,0,0,0,31,31,31,,,,,,,,,,,,,,,,,,,,,,,,,,,,,,,,,,,379.12470310000936,379.3260793000227,379.3081714999862,379.6098008999834,379.6098008999834,None,380.10938109998824,None,d,1,0.7230133000412025,380.10938109998824,None,None,None,380.86045480001485,None,,,,,,,,,,,,,,,,,,,,,12014,1,2,2024_Jun_20_1927,stroop_task_switching2_b,2021.2.3,59.81920243081017,
condition/block_mixed_b,instruction/instr_mixed,instruction/i10_b,黄,yellow,f,square,color_mix,单词,,compatible,1,,,,,,,,0,2,2,2,0,0,0,0,0,32,32,32,,,,,,,,,,,,,,,,,,,,,,,,,,,,,,,,,,,381.862544899981,382.0633954000077,382.04571839998243,382.34741629997734,382.34741629997734,None,382.8467031000182,None,f,1,0.9211024999967776,382.8467031000182,None,None,None,383.7983310999698,None,,,,,,,,,,,,,,,,,,,,,12014,1,2,2024_Jun_20_1927,stroop_task_switching2_b,2021.2.3,59.81920243081017,
condition/block_mixed_b,instruction/instr_mixed,instruction/i10_b,绿,green,d,diamond,color_mix,颜色,,compatible,2,,,,,,,,0,2,2,2,0,0,0,0,0,33,33,33,,,,,,,,,,,,,,,,,,,,,,,,,,,,,,,,,,,384.8005584999919,385.00121359998593,384.9835049000103,385.2851205000188,385.2851205000188,None,385.7847106999834,None,d,1,1.4552093999809586,385.7847106999834,None,None,None,387.2700965999975,None,,,,,,,,,,,,,,,,,,,,,12014,1,2,2024_Jun_20_1927,stroop_task_switching2_b,2021.2.3,59.81920243081017,
condition/block_mixed_b,instruction/instr_mixed,instruction/i10_b,红,red,k,square,color_mix,单词,,compatible,2,,,,,,,,0,2,2,2,0,0,0,0,0,34,34,34,,,,,,,,,,,,,,,,,,,,,,,,,,,,,,,,,,,388.27175150002586,388.4721835000091,388.45548990002135,388.7569328999962,388.7569328999962,None,389.2565881999908,None,k,1,0.9354708999744616,389.2565881999908,None,None,None,390.20807819999754,None,,,,,,,,,,,,,,,,,,,,,12014,1,2,2024_Jun_20_1927,stroop_task_switching2_b,2021.2.3,59.81920243081017,
condition/block_mixed_b,instruction/instr_mixed,instruction/i10_b,黄,yellow,f,square,color_mix,单词,,compatible,1,,,,,,,,0,2,2,2,0,0,0,0,0,35,35,35,,,,,,,,,,,,,,,,,,,,,,,,,,,,,,,,,,,391.2101239999756,391.410944400006,391.3939820000087,391.69373280002037,391.69373280002037,None,392.1941960999975,None,f,1,0.6699072000337765,392.1941960999975,None,None,None,392.895500499988,None,,,,,,,,,,,,,,,,,,,,,12014,1,2,2024_Jun_20_1927,stroop_task_switching2_b,2021.2.3,59.81920243081017,
condition/block_mixed_b,instruction/instr_mixed,instruction/i10_b,绿,green,d,diamond,color_mix,颜色,,compatible,2,,,,,,,,0,2,2,2,0,0,0,0,0,36,36,36,,,,,,,,,,,,,,,,,,,,,,,,,,,,,,,,,,,393.897602299985,394.09719090000726,394.0807523999829,394.3813283999916,394.3813283999916,None,394.8818896000157,None,d,1,0.6465802000020631,394.8818896000157,None,None,None,395.54964089998975,None,,,,,,,,,,,,,,,,,,,,,12014,1,2,2024_Jun_20_1927,stroop_task_switching2_b,2021.2.3,59.81920243081017,
condition/block_mixed_b,instruction/instr_mixed,instruction/i10_b,蓝,blue,j,square,color_mix,单词,,compatible,2,,,,,,,,0,2,2,2,0,0,0,0,0,37,37,37,,,,,,,,,,,,,,,,,,,,,,,,,,,,,,,,,,,396.5513474000036,396.7511287999805,396.7352317000041,397.03484689997276,397.03484689997276,None,397.53562649997184,None,j,1,1.35282059997553,397.53562649997184,None,None,None,398.9043610999943,None,,,,,,,,,,,,,,,,,,,,,12014,1,2,2024_Jun_20_1927,stroop_task_switching2_b,2021.2.3,59.81920243081017,
condition/block_mixed_b,instruction/instr_mixed,instruction/i10_b,红,red,k,square,color_mix,单词,,compatible,1,,,,,,,,0,2,2,2,0,0,0,0,0,38,38,38,,,,,,,,,,,,,,,,,,,,,,,,,,,,,,,,,,,399.9062786999857,400.1068824999966,400.0894389000023,400.3905807000119,400.3905807000119,None,400.89102049998473,None,k,1,0.8301679999567568,400.89102049998473,None,None,None,401.7422231999808,None,,,,,,,,,,,,,,,,,,,,,12014,1,2,2024_Jun_20_1927,stroop_task_switching2_b,2021.2.3,59.81920243081017,
condition/block_mixed_b,instruction/instr_mixed,instruction/i10_b,黄,yellow,f,diamond,color_mix,颜色,,compatible,2,,,,,,,,0,2,2,2,0,0,0,0,0,39,39,39,,,,,,,,,,,,,,,,,,,,,,,,,,,,,,,,,,,402.7435824999702,402.94433229998685,402.928202399984,403.22971809998853,403.22971809998853,None,403.72853520000353,None,f,1,0.6961663999827579,403.72853520000353,None,None,None,404.4473011000082,None,,,,,,,,,,,,,,,,,,,,,12014,1,2,2024_Jun_20_1927,stroop_task_switching2_b,2021.2.3,59.81920243081017,
condition/block_mixed_b,instruction/instr_mixed,instruction/i10_b,黄,yellow,f,square,color_mix,单词,,compatible,2,,,,,,,,0,2,2,2,0,0,0,0,0,40,40,40,,,,,,,,,,,,,,,,,,,,,,,,,,,,,,,,,,,405.4481210000231,405.64789919997565,405.63210450002225,405.93153489998076,405.93153489998076,None,406.43303289997857,None,f,1,0.5757649000152014,406.43303289997857,None,None,None,407.03429769998183,None,,,,,,,,,,,,,,,,,,,,,12014,1,2,2024_Jun_20_1927,stroop_task_switching2_b,2021.2.3,59.81920243081017,
condition/block_mixed_b,instruction/instr_mixed,instruction/i10_b,蓝,blue,j,square,color_mix,单词,,compatible,1,,,,,,,,0,2,2,2,0,0,0,0,0,41,41,41,,,,,,,,,,,,,,,,,,,,,,,,,,,,,,,,,,,408.0348653999972,408.2359462999739,408.21860710001783,408.5208785000141,408.5208785000141,None,409.0198664999916,None,j,1,1.236734299978707,409.0198664999916,None,None,None,410.2888641000027,None,,,,,,,,,,,,,,,,,,,,,12014,1,2,2024_Jun_20_1927,stroop_task_switching2_b,2021.2.3,59.81920243081017,
condition/block_mixed_b,instruction/instr_mixed,instruction/i10_b,蓝,blue,j,diamond,color_mix,颜色,,compatible,2,,,,,,,,0,2,2,2,0,0,0,0,0,42,42,42,,,,,,,,,,,,,,,,,,,,,,,,,,,,,,,,,,,411.290511899977,411.49067069997545,411.47360750002554,411.77401639998425,411.77401639998425,None,412.2746864000219,None,j,1,0.5982306000078097,412.2746864000219,None,None,None,412.89262950001284,None,,,,,,,,,,,,,,,,,,,,,12014,1,2,2024_Jun_20_1927,stroop_task_switching2_b,2021.2.3,59.81920243081017,
condition/block_mixed_b,instruction/instr_mixed,instruction/i10_b,黄,yellow,f,diamond,color_mix,颜色,,compatible,1,,,,,,,,0,2,2,2,0,0,0,0,0,43,43,43,,,,,,,,,,,,,,,,,,,,,,,,,,,,,,,,,,,413.89390239998465,414.0949966000044,414.07713709998643,414.3781691999757,414.3781691999757,None,414.87873669998953,None,f,1,0.8022968000150286,414.87873669998953,None,None,None,415.6965775999706,None,,,,,,,,,,,,,,,,,,,,,12014,1,2,2024_Jun_20_1927,stroop_task_switching2_b,2021.2.3,59.81920243081017,
condition/block_mixed_b,instruction/instr_mixed,instruction/i10_b,红,red,k,diamond,color_mix,颜色,,compatible,1,,,,,,,,0,2,2,2,0,0,0,0,0,44,44,44,,,,,,,,,,,,,,,,,,,,,,,,,,,,,,,,,,,416.6978667000076,416.8985877999803,416.88294849998783,417.18226580001647,417.18226580001647,None,417.68295639997814,None,k,1,0.6940715999808162,417.68295639997814,None,None,None,418.4008986999979,None,,,,,,,,,,,,,,,,,,,,,12014,1,2,2024_Jun_20_1927,stroop_task_switching2_b,2021.2.3,59.81920243081017,
condition/block_mixed_b,instruction/instr_mixed,instruction/i10_b,蓝,blue,j,diamond,color_mix,颜色,,compatible,1,,,,,,,,0,2,2,2,0,0,0,0,0,45,45,45,,,,,,,,,,,,,,,,,,,,,,,,,,,,,,,,,,,419.40188800002215,419.60288650001166,419.5855202000239,419.88803349999944,419.88803349999944,None,420.4037959999987,None,d,0,1.0933260999736376,420.4037959999987,None,None,None,421.5219641000149,None,,,,,,,,,,,,,,,,,,,,,12014,1,2,2024_Jun_20_1927,stroop_task_switching2_b,2021.2.3,59.81920243081017,
condition/block_mixed_b,instruction/instr_mixed,instruction/i10_b,红,red,k,diamond,color_mix,颜色,,compatible,1,,,,,,,,0,2,2,2,0,0,0,0,0,46,46,46,,,,,,,,,,,,,,,,,,,,,,,,,,,,,,,,,,,422.5235344999819,422.72364749998087,422.7071070999955,423.0072474000044,423.0072474000044,None,423.5092282000114,None,k,1,0.7641921999747865,423.5092282000114,None,None,None,424.2924450999708,None,,,,,,,,,,,,,,,,,,,,,12014,1,2,2024_Jun_20_1927,stroop_task_switching2_b,2021.2.3,59.81920243081017,
condition/block_mixed_b,instruction/instr_mixed,instruction/i10_b,红,red,k,square,color_mix,单词,,compatible,2,,,,,,,,0,2,2,2,0,0,0,0,0,47,47,47,,,,,,,,,,,,,,,,,,,,,,,,,,,,,,,,,,,425.2943679000018,425.49445150000975,425.47788830002537,425.77824189997045,425.77824189997045,None,426.27942350000376,None,k,1,0.745860300026834,426.27942350000376,None,None,None,427.0466315000085,None,,,,,,,,,,,,,,,,,,,,,12014,1,2,2024_Jun_20_1927,stroop_task_switching2_b,2021.2.3,59.81920243081017,
condition/block_mixed_b,instruction/instr_mixed,instruction/i10_b,红,red,k,diamond,color_mix,颜色,,compatible,2,,,,,,,,0,2,2,2,0,0,0,0,0,48,48,48,,,,,,,,,,,,,,,,,,,,,,,,,,,,,,,,,,,428.04836850002175,428.25029609998455,428.23207919998094,428.5330307999975,428.5330307999975,None,429.0338187000016,None,k,1,0.6234478999977,429.0338187000016,None,None,None,429.68408570002066,None,,,,,,,,,,,,,,,,,,,,,12014,1,2,2024_Jun_20_1927,stroop_task_switching2_b,2021.2.3,59.81920243081017,
condition/block_mixed_b,instruction/instr_mixed,instruction/i10_b,,,,,,,,,,,,,,,,,0,2,2,2,0,0,0,0,,,,,,,,,,,,,,,,,,,,,,,,,,,,,,,,,,,,,,,,,,,,,,,,,,,,,,,,430.68546060001245,None,space,40.40033209999092,430.68546060001245,None,,,,,,,,,,,,,,,12014,1,2,2024_Jun_20_1927,stroop_task_switching2_b,2021.2.3,59.81920243081017,
condition/block_mixed_b,instruction/instr_mixed,instruction/i10_b,,,,,,,,,,,,,,,,,0,2,2,2,,,,,,,,,,,,,,,,,,,,,,,,,,,,,,,,,,,,,,,,,,,,,,,,,,,,,,,,,,,,,,,,,,,,,,,,,,,,,,,,12014,1,2,2024_Jun_20_1927,stroop_task_switching2_b,2021.2.3,59.81920243081017,
,,,红,red,k,square,color_mix,单词,,compatible,0,block_switch1_b,instruction/ready_test.png,instruction/i11.png,,,,,,,,,,,,,,,,,0,0,0,0,0,0,0,0,,,,,,,,,,,,,,,,,,,501.7761379000149,502.7792680999846,502.7792680999846,503.78135030000703,503.78135030000703,None,500.79140280000865,501.79358569998294,504.814237100014,505.0152942999848,504.9987666999805,505.29902699997183,505.29902699997183,None,505.7988349000225,None,k,1,0.5246392000117339,505.7988349000225,None,None,None,,,,,,,,,471.16363389999606,None,space,29.596296900010202,471.16363389999606,None,,,,,,,,,12014,1,2,2024_Jun_20_1927,stroop_task_switching2_b,2021.2.3,59.81920243081017,
,,,绿,green,d,diamond,color_mix,颜色,,compatible,2,block_switch1_b,instruction/ready_test.png,instruction/i11.png,,,,,,,,,,,,,,,,,0,0,0,0,0,1,1,1,,,,,,,,,,,,,,,,,,,,,,,,,,,506.38391330000013,506.5851688000257,506.5333987000049,506.8338512000046,506.8338512000046,None,507.3347182999714,None,d,1,0.636484400019981,507.3347182999714,None,None,None,,,,,,,,,,,,,,,,,,,,,,,12014,1,2,2024_Jun_20_1927,stroop_task_switching2_b,2021.2.3,59.81920243081017,
,,,绿,yellow,f,diamond,color_mix,颜色,,incompatible,1,block_switch1_b,instruction/ready_test.png,instruction/i11.png,,,,,,,,,,,,,,,,,0,0,0,0,0,2,2,2,,,,,,,,,,,,,,,,,,,,,,,,,,,508.0196970999823,508.22037489997456,508.1860558000044,508.4863320000004,508.4863320000004,None,508.9876996999956,None,d,0,0.6558241000166163,508.9876996999956,None,None,None,,,,,,,,,,,,,,,,,,,,,,,12014,1,2,2024_Jun_20_1927,stroop_task_switching2_b,2021.2.3,59.81920243081017,
,,,蓝,blue,j,diamond,color_mix,颜色,,compatible,1,block_switch1_b,instruction/ready_test.png,instruction/i11.png,,,,,,,,,,,,,,,,,0,0,0,0,0,3,3,3,,,,,,,,,,,,,,,,,,,,,,,,,,,509.6714751999825,509.8718346999958,509.855178400001,510.1566958000185,510.1566958000185,None,510.6571770000155,None,j,1,0.8585307000321336,510.6571770000155,None,None,None,,,,,,,,,,,,,,,,,,,,,,,12014,1,2,2024_Jun_20_1927,stroop_task_switching2_b,2021.2.3,59.81920243081017,
,,,绿,green,d,square,color_mix,单词,,compatible,2,block_switch1_b,instruction/ready_test.png,instruction/i11.png,,,,,,,,,,,,,,,,,0,0,0,0,0,4,4,4,,,,,,,,,,,,,,,,,,,,,,,,,,,511.54099150002,511.74213039997267,511.7246013000258,512.0256754999864,512.0256754999864,None,512.5258502999786,None,d,1,0.9335500999586657,512.5258502999786,None,None,None,,,,,,,,,,,,,,,,,,,,,,,12014,1,2,2024_Jun_20_1927,stroop_task_switching2_b,2021.2.3,59.81920243081017,
,,,绿,blue,j,diamond,color_mix,颜色,,incompatible,2,block_switch1_b,instruction/ready_test.png,instruction/i11.png,,,,,,,,,,,,,,,,,0,0,0,0,0,5,5,5,,,,,,,,,,,,,,,,,,,,,,,,,,,513.4772031999892,513.677569099993,513.6619770000107,513.9612169999746,513.9612169999746,None,514.4620133999852,None,j,1,0.8305700999917462,514.4620133999852,None,None,None,,,,,,,,,,,,,,,,,,,,,,,12014,1,2,2024_Jun_20_1927,stroop_task_switching2_b,2021.2.3,59.81920243081017,
,,,黄,red,f,square,color_mix,单词,,incompatible,2,block_switch1_b,instruction/ready_test.png,instruction/i11.png,,,,,,,,,,,,,,,,,0,0,0,0,0,6,6,6,,,,,,,,,,,,,,,,,,,,,,,,,,,515.313345099974,515.5147505999776,515.4971610999783,515.7979379000026,515.7979379000026,None,516.2984099999885,None,f,1,2.2254707000101916,516.2984099999885,None,None,None,,,,,,,,,,,,,,,,,,,,,,,12014,1,2,2024_Jun_20_1927,stroop_task_switching2_b,2021.2.3,59.81920243081017,
,,,绿,green,d,square,color_mix,单词,,compatible,1,block_switch1_b,instruction/ready_test.png,instruction/i11.png,,,,,,,,,,,,,,,,,0,0,0,0,0,7,7,7,,,,,,,,,,,,,,,,,,,,,,,,,,,518.5516169000184,518.7518734000041,518.7354389000102,519.0362694999785,519.0362694999785,None,519.5362014999846,None,d,1,0.6436151000089012,519.5362014999846,None,None,None,,,,,,,,,,,,,,,,,,,,,,,12014,1,2,2024_Jun_20_1927,stroop_task_switching2_b,2021.2.3,59.81920243081017,
,,,蓝,blue,j,square,color_mix,单词,,compatible,1,block_switch1_b,instruction/ready_test.png,instruction/i11.png,,,,,,,,,,,,,,,,,0,0,0,0,0,8,8,8,,,,,,,,,,,,,,,,,,,,,,,,,,,520.2041031999979,520.405141700001,520.3900234000175,520.7046956999693,520.688665899972,None,521.1888514999882,None,f,0,0.6068393999594264,521.1888514999882,None,None,None,,,,,,,,,,,,,,,,,,,,,,,12014,1,2,2024_Jun_20_1927,stroop_task_switching2_b,2021.2.3,59.81920243081017,
,,,红,red,k,diamond,color_mix,颜色,,compatible,2,block_switch1_b,instruction/ready_test.png,instruction/i11.png,,,,,,,,,,,,,,,,,0,0,0,0,0,9,9,9,,,,,,,,,,,,,,,,,,,,,,,,,,,521.8232290999731,522.0245504999766,522.0069043000112,522.3071974000195,522.3071974000195,None,522.8088181000203,None,k,1,0.6592143000452779,522.8088181000203,None,None,None,,,,,,,,,,,,,,,,,,,,,,,12014,1,2,2024_Jun_20_1927,stroop_task_switching2_b,2021.2.3,59.81920243081017,
,,,黄,yellow,f,diamond,color_mix,颜色,,compatible,1,block_switch1_b,instruction/ready_test.png,instruction/i11.png,,,,,,,,,,,,,,,,,0,0,0,0,0,10,10,10,,,,,,,,,,,,,,,,,,,,,,,,,,,523.4923511000234,523.6927655999898,523.6766439999919,523.9766986999894,523.9766986999894,None,524.4772651999956,None,j,0,1.2156573999673128,524.4772651999956,None,None,None,,,,,,,,,,,,,,,,,,,,,,,12014,1,2,2024_Jun_20_1927,stroop_task_switching2_b,2021.2.3,59.81920243081017,
,,,绿,green,d,square,color_mix,单词,,compatible,2,block_switch1_b,instruction/ready_test.png,instruction/i11.png,,,,,,,,,,,,,,,,,0,0,0,0,0,11,11,11,,,,,,,,,,,,,,,,,,,,,,,,,,,525.7120590999839,525.9138161999872,525.8956672999775,526.1972237000009,526.1972237000009,None,526.6983991999878,None,d,1,1.5537400000030175,526.6983991999878,None,None,None,,,,,,,,,,,,,,,,,,,,,,,12014,1,2,2024_Jun_20_1927,stroop_task_switching2_b,2021.2.3,59.81920243081017,
,,,红,red,k,diamond,color_mix,颜色,,compatible,2,block_switch1_b,instruction/ready_test.png,instruction/i11.png,,,,,,,,,,,,,,,,,0,0,0,0,0,12,12,12,,,,,,,,,,,,,,,,,,,,,,,,,,,528.3007255999837,528.5172528999974,528.4663155999733,528.7670231999946,528.7670231999946,None,529.268877799972,None,k,1,0.43139119999250397,529.268877799972,None,None,None,,,,,,,,,,,,,,,,,,,,,,,12014,1,2,2024_Jun_20_1927,stroop_task_switching2_b,2021.2.3,59.81920243081017,
,,,红,red,k,diamond,color_mix,颜色,,compatible,1,block_switch1_b,instruction/ready_test.png,instruction/i11.png,,,,,,,,,,,,,,,,,0,0,0,0,0,13,13,13,,,,,,,,,,,,,,,,,,,,,,,,,,,529.718480999989,529.919002700015,529.9030742999748,530.2042735000141,530.2042735000141,None,530.719658099988,None,k,1,0.4202371999854222,530.719658099988,None,None,None,,,,,,,,,,,,,,,,,,,,,,,12014,1,2,2024_Jun_20_1927,stroop_task_switching2_b,2021.2.3,59.81920243081017,
,,,黄,yellow,f,square,color_mix,单词,,compatible,2,block_switch1_b,instruction/ready_test.png,instruction/i11.png,,,,,,,,,,,,,,,,,0,0,0,0,0,14,14,14,,,,,,,,,,,,,,,,,,,,,,,,,,,531.1880800999934,531.3884594999836,531.3542519999901,531.6552296999726,531.6552296999726,None,532.1553844999871,None,f,1,0.8567480999627151,532.1553844999871,None,None,None,,,,,,,,,,,,,,,,,,,,,,,12014,1,2,2024_Jun_20_1927,stroop_task_switching2_b,2021.2.3,59.81920243081017,
,,,红,green,d,diamond,color_mix,颜色,,incompatible,2,block_switch1_b,instruction/ready_test.png,instruction/i11.png,,,,,,,,,,,,,,,,,0,0,0,0,0,15,15,15,,,,,,,,,,,,,,,,,,,,,,,,,,,533.0402402000036,533.2416265999782,533.2239942000015,533.5240860999911,533.5240860999911,None,534.0248070000089,None,d,1,0.9872883000061847,534.0248070000089,None,None,None,,,,,,,,,,,,,,,,,,,,,,,12014,1,2,2024_Jun_20_1927,stroop_task_switching2_b,2021.2.3,59.81920243081017,
,,,蓝,red,k,diamond,color_mix,颜色,,incompatible,1,block_switch1_b,instruction/ready_test.png,instruction/i11.png,,,,,,,,,,,,,,,,,0,0,0,0,0,16,16,16,,,,,,,,,,,,,,,,,,,,,,,,,,,535.0601595999906,535.2601231000153,535.2273427000036,535.5275765999686,535.5275765999686,None,536.0279250000021,None,k,1,0.8323745999950916,536.0279250000021,None,None,None,,,,,,,,,,,,,,,,,,,,,,,12014,1,2,2024_Jun_20_1927,stroop_task_switching2_b,2021.2.3,59.81920243081017,
,,,黄,green,d,diamond,color_mix,颜色,,incompatible,1,block_switch1_b,instruction/ready_test.png,instruction/i11.png,,,,,,,,,,,,,,,,,0,0,0,0,0,17,17,17,,,,,,,,,,,,,,,,,,,,,,,,,,,536.8793700999813,537.0795368999825,537.062934799993,537.3634982000221,537.3634982000221,None,537.8642310000141,None,d,1,0.7564818999962881,537.8642310000141,None,None,None,,,,,,,,,,,,,,,,,,,,,,,12014,1,2,2024_Jun_20_1927,stroop_task_switching2_b,2021.2.3,59.81920243081017,
,,,绿,green,d,diamond,color_mix,颜色,,compatible,1,block_switch1_b,instruction/ready_test.png,instruction/i11.png,,,,,,,,,,,,,,,,,0,0,0,0,0,18,18,18,,,,,,,,,,,,,,,,,,,,,,,,,,,538.6484651999781,538.8494952999754,538.8321392000071,539.1328880999936,539.1328880999936,None,539.6334973999765,None,d,1,0.5388501000124961,539.6334973999765,None,None,None,,,,,,,,,,,,,,,,,,,,,,,12014,1,2,2024_Jun_20_1927,stroop_task_switching2_b,2021.2.3,59.81920243081017,
,,,黄,red,k,diamond,color_mix,颜色,,incompatible,1,block_switch1_b,instruction/ready_test.png,instruction/i11.png,,,,,,,,,,,,,,,,,0,0,0,0,0,19,19,19,,,,,,,,,,,,,,,,,,,,,,,,,,,540.2009100000141,540.4022831000038,540.3848326000152,540.6852029999718,540.6852029999718,None,541.1855661000009,None,k,1,0.88283150002826,541.1855661000009,None,None,None,,,,,,,,,,,,,,,,,,,,,,,12014,1,2,2024_Jun_20_1927,stroop_task_switching2_b,2021.2.3,59.81920243081017,
,,,绿,yellow,d,square,color_mix,单词,,incompatible,2,block_switch1_b,instruction/ready_test.png,instruction/i11.png,,,,,,,,,,,,,,,,,0,0,0,0,0,20,20,20,,,,,,,,,,,,,,,,,,,,,,,,,,,542.0869347999687,542.2874939999892,542.2707432999741,542.5711841000011,542.5711841000011,None,543.0718217000249,None,f,0,0.8289228000212461,543.0718217000249,None,None,None,,,,,,,,,,,,,,,,,,,,,,,12014,1,2,2024_Jun_20_1927,stroop_task_switching2_b,2021.2.3,59.81920243081017,
,,,绿,yellow,f,diamond,color_mix,颜色,,incompatible,2,block_switch1_b,instruction/ready_test.png,instruction/i11.png,,,,,,,,,,,,,,,,,0,0,0,0,0,21,21,21,,,,,,,,,,,,,,,,,,,,,,,,,,,543.9229868000257,544.123712599976,544.107848100015,544.408655199979,544.408655199979,None,544.9079597999807,None,f,1,0.872497700038366,544.9079597999807,None,None,None,,,,,,,,,,,,,,,,,,,,,,,12014,1,2,2024_Jun_20_1927,stroop_task_switching2_b,2021.2.3,59.81920243081017,
,,,绿,green,d,square,color_mix,单词,,compatible,2,block_switch1_b,instruction/ready_test.png,instruction/i11.png,,,,,,,,,,,,,,,,,0,0,0,0,0,22,22,22,,,,,,,,,,,,,,,,,,,,,,,,,,,545.8094069000217,546.0106446999707,545.9928879999788,546.2944056999986,546.2944056999986,None,546.7942824999918,None,d,1,0.6424017999670468,546.7942824999918,None,None,None,,,,,,,,,,,,,,,,,,,,,,,12014,1,2,2024_Jun_20_1927,stroop_task_switching2_b,2021.2.3,59.81920243081017,
,,,红,red,k,square,color_mix,单词,,compatible,1,block_switch1_b,instruction/ready_test.png,instruction/i11.png,,,,,,,,,,,,,,,,,0,0,0,0,0,23,23,23,,,,,,,,,,,,,,,,,,,,,,,,,,,547.4618267000187,547.6632375000045,547.6454162999871,547.9459095000057,547.9459095000057,None,548.4466321999789,None,k,1,0.629934900032822,548.4466321999789,None,None,None,,,,,,,,,,,,,,,,,,,,,,,12014,1,2,2024_Jun_20_1927,stroop_task_switching2_b,2021.2.3,59.81920243081017,
,,,黄,green,f,square,color_mix,单词,,incompatible,1,block_switch1_b,instruction/ready_test.png,instruction/i11.png,,,,,,,,,,,,,,,,,0,0,0,0,0,24,24,24,,,,,,,,,,,,,,,,,,,,,,,,,,,549.0977793000056,549.2979431999847,549.283476600016,549.5987020999892,549.5816903000232,None,550.0824138000025,None,d,0,0.6662402999936603,550.0824138000025,None,None,None,,,,,,,,,,,,,,,,,,,,,,,12014,1,2,2024_Jun_20_1927,stroop_task_switching2_b,2021.2.3,59.81920243081017,
,,,红,blue,k,square,color_mix,单词,,incompatible,1,block_switch1_b,instruction/ready_test.png,instruction/i11.png,,,,,,,,,,,,,,,,,0,0,0,0,0,25,25,25,,,,,,,,,,,,,,,,,,,,,,,,,,,550.7669351000222,550.9679118000204,550.9504767999751,551.2517676000134,551.2517676000134,None,551.7525102000218,None,k,1,1.1880912999622524,551.7525102000218,None,None,None,,,,,,,,,,,,,,,,,,,,,,,12014,1,2,2024_Jun_20_1927,stroop_task_switching2_b,2021.2.3,59.81920243081017,
,,,黄,yellow,f,square,color_mix,单词,,compatible,1,block_switch1_b,instruction/ready_test.png,instruction/i11.png,,,,,,,,,,,,,,,,,0,0,0,0,0,26,26,26,,,,,,,,,,,,,,,,,,,,,,,,,,,552.9700527000241,553.1716026000213,553.1537114999956,553.4542216999689,553.4542216999689,None,553.9557280999725,None,f,1,1.032966100028716,553.9557280999725,None,None,None,,,,,,,,,,,,,,,,,,,,,,,12014,1,2,2024_Jun_20_1927,stroop_task_switching2_b,2021.2.3,59.81920243081017,
,,,蓝,green,j,square,color_mix,单词,,incompatible,1,block_switch1_b,instruction/ready_test.png,instruction/i11.png,,,,,,,,,,,,,,,,,0,0,0,0,0,27,27,27,,,,,,,,,,,,,,,,,,,,,,,,,,,555.0066062000114,555.2088879999937,555.1902456000098,555.4905908000073,555.4905908000073,None,555.9912453999859,None,d,0,1.7493052000063471,555.9912453999859,None,None,None,,,,,,,,,,,,,,,,,,,,,,,12014,1,2,2024_Jun_20_1927,stroop_task_switching2_b,2021.2.3,59.81920243081017,
,,,绿,green,d,diamond,color_mix,颜色,,compatible,2,block_switch1_b,instruction/ready_test.png,instruction/i11.png,,,,,,,,,,,,,,,,,0,0,0,0,0,28,28,28,,,,,,,,,,,,,,,,,,,,,,,,,,,557.7610341000254,557.9618510999717,557.944248099986,558.2466038999846,558.2466038999846,None,558.7470494000008,None,d,1,0.7220543000148609,558.7470494000008,None,None,None,,,,,,,,,,,,,,,,,,,,,,,12014,1,2,2024_Jun_20_1927,stroop_task_switching2_b,2021.2.3,59.81920243081017,
,,,黄,blue,j,diamond,color_mix,颜色,,incompatible,1,block_switch1_b,instruction/ready_test.png,instruction/i11.png,,,,,,,,,,,,,,,,,0,0,0,0,0,29,29,29,,,,,,,,,,,,,,,,,,,,,,,,,,,559.4969843999716,559.6983378999867,559.6802151000011,559.981538299995,559.981538299995,None,560.4813607999822,None,j,1,0.8359472000156529,560.4813607999822,None,None,None,,,,,,,,,,,,,,,,,,,,,,,12014,1,2,2024_Jun_20_1927,stroop_task_switching2_b,2021.2.3,59.81920243081017,
,,,绿,green,d,diamond,color_mix,颜色,,compatible,1,block_switch1_b,instruction/ready_test.png,instruction/i11.png,,,,,,,,,,,,,,,,,0,0,0,0,0,30,30,30,,,,,,,,,,,,,,,,,,,,,,,,,,,561.3493489000248,561.5513530999888,561.533014399989,561.8353522000252,561.8353522000252,None,562.3343553000013,None,d,1,1.0067546000354923,562.3343553000013,None,None,None,,,,,,,,,,,,,,,,,,,,,,,12014,1,2,2024_Jun_20_1927,stroop_task_switching2_b,2021.2.3,59.81920243081017,
,,,蓝,blue,j,square,color_mix,单词,,compatible,2,block_switch1_b,instruction/ready_test.png,instruction/i11.png,,,,,,,,,,,,,,,,,0,0,0,0,0,31,31,31,,,,,,,,,,,,,,,,,,,,,,,,,,,563.3689162000082,563.5692894000094,563.5538767999969,563.8531647999771,563.8531647999771,None,564.353907599987,None,j,1,1.1951977999997325,564.353907599987,None,None,None,,,,,,,,,,,,,,,,,,,,,,,12014,1,2,2024_Jun_20_1927,stroop_task_switching2_b,2021.2.3,59.81920243081017,
,,,红,red,k,square,color_mix,单词,,compatible,1,block_switch1_b,instruction/ready_test.png,instruction/i11.png,,,,,,,,,,,,,,,,,0,0,0,0,0,32,32,32,,,,,,,,,,,,,,,,,,,,,,,,,,,565.5723639000207,565.7738114999956,565.7560110000195,566.0566411999753,566.0566411999753,None,566.5573896999704,None,k,1,0.9276818999787793,566.5573896999704,None,None,None,,,,,,,,,,,,,,,,,,,,,,,12014,1,2,2024_Jun_20_1927,stroop_task_switching2_b,2021.2.3,59.81920243081017,
,,,红,green,k,square,color_mix,单词,,incompatible,1,block_switch1_b,instruction/ready_test.png,instruction/i11.png,,,,,,,,,,,,,,,,,0,0,0,0,0,33,33,33,,,,,,,,,,,,,,,,,,,,,,,,,,,567.5087373999995,567.7097779000178,567.6924345999723,567.9931050000014,567.9931050000014,None,568.4936028000084,None,k,1,2.1196603000280447,568.4936028000084,None,None,None,,,,,,,,,,,,,,,,,,,,,,,12014,1,2,2024_Jun_20_1927,stroop_task_switching2_b,2021.2.3,59.81920243081017,
,,,黄,yellow,f,diamond,color_mix,颜色,,compatible,2,block_switch1_b,instruction/ready_test.png,instruction/i11.png,,,,,,,,,,,,,,,,,0,0,0,0,0,34,34,34,,,,,,,,,,,,,,,,,,,,,,,,,,,570.630015200004,570.8315959000029,570.8138682999997,571.1142317000194,571.1142317000194,None,571.6150602999842,None,f,1,0.7261666999547742,571.6150602999842,None,None,None,,,,,,,,,,,,,,,,,,,,,,,12014,1,2,2024_Jun_20_1927,stroop_task_switching2_b,2021.2.3,59.81920243081017,
,,,红,green,d,diamond,color_mix,颜色,,incompatible,1,block_switch1_b,instruction/ready_test.png,instruction/i11.png,,,,,,,,,,,,,,,,,0,0,0,0,0,35,35,35,,,,,,,,,,,,,,,,,,,,,,,,,,,572.3662782000029,572.5663459000061,572.5497543999809,572.8511350000044,572.8511350000044,None,573.3515947000124,None,f,0,1.0295882999780588,573.3515947000124,None,None,None,,,,,,,,,,,,,,,,,,,,,,,12014,1,2,2024_Jun_20_1927,stroop_task_switching2_b,2021.2.3,59.81920243081017,
,,,黄,yellow,f,square,color_mix,单词,,compatible,2,block_switch1_b,instruction/ready_test.png,instruction/i11.png,,,,,,,,,,,,,,,,,0,0,0,0,0,36,36,36,,,,,,,,,,,,,,,,,,,,,,,,,,,574.4026867999928,574.603178600024,574.5860861000256,574.887017800007,574.887017800007,None,575.3879695999785,None,f,1,0.8413676000200212,575.3879695999785,None,None,None,,,,,,,,,,,,,,,,,,,,,,,12014,1,2,2024_Jun_20_1927,stroop_task_switching2_b,2021.2.3,59.81920243081017,
,,,蓝,blue,j,square,color_mix,单词,,compatible,1,block_switch1_b,instruction/ready_test.png,instruction/i11.png,,,,,,,,,,,,,,,,,0,0,0,0,0,37,37,37,,,,,,,,,,,,,,,,,,,,,,,,,,,576.2552752000047,576.4564191999962,576.4406436000136,576.7393324999721,576.7393324999721,None,577.2401173000108,None,j,1,1.085556500009261,577.2401173000108,None,None,None,,,,,,,,,,,,,,,,,,,,,,,12014,1,2,2024_Jun_20_1927,stroop_task_switching2_b,2021.2.3,59.81920243081017,
,,,绿,red,k,diamond,color_mix,颜色,,incompatible,2,block_switch1_b,instruction/ready_test.png,instruction/i11.png,,,,,,,,,,,,,,,,,0,0,0,0,0,38,38,38,,,,,,,,,,,,,,,,,,,,,,,,,,,578.3417820999748,578.5420365000027,578.5259485999704,578.8275555999717,578.8275555999717,None,579.3264075000188,None,k,1,0.3750269000302069,579.3264075000188,None,None,None,,,,,,,,,,,,,,,,,,,,,,,12014,1,2,2024_Jun_20_1927,stroop_task_switching2_b,2021.2.3,59.81920243081017,
,,,黄,yellow,f,diamond,color_mix,颜色,,compatible,1,block_switch1_b,instruction/ready_test.png,instruction/i11.png,,,,,,,,,,,,,,,,,0,0,0,0,0,39,39,39,,,,,,,,,,,,,,,,,,,,,,,,,,,579.727132799977,579.9284841999761,579.9120384000125,580.2129798000096,580.2129798000096,None,580.7120930000092,None,f,1,0.8934921000036411,580.7120930000092,None,None,None,,,,,,,,,,,,,,,,,,,,,,,12014,1,2,2024_Jun_20_1927,stroop_task_switching2_b,2021.2.3,59.81920243081017,
,,,红,blue,j,diamond,color_mix,颜色,,incompatible,1,block_switch1_b,instruction/ready_test.png,instruction/i11.png,,,,,,,,,,,,,,,,,0,0,0,0,0,40,40,40,,,,,,,,,,,,,,,,,,,,,,,,,,,581.6301370000001,581.8305559,581.8141220000107,582.1148300999776,582.1148300999776,None,582.6148031000048,None,j,1,0.974700499966275,582.6148031000048,None,None,None,,,,,,,,,,,,,,,,,,,,,,,12014,1,2,2024_Jun_20_1927,stroop_task_switching2_b,2021.2.3,59.81920243081017,
,,,绿,blue,d,square,color_mix,单词,,incompatible,2,block_switch1_b,instruction/ready_test.png,instruction/i11.png,,,,,,,,,,,,,,,,,0,0,0,0,0,41,41,41,,,,,,,,,,,,,,,,,,,,,,,,,,,583.6163578999694,583.8167265999946,583.8005125999916,584.1015801000176,584.1015801000176,None,584.6009675000096,None,d,1,1.300465999986045,584.6009675000096,None,None,None,,,,,,,,,,,,,,,,,,,,,,,12014,1,2,2024_Jun_20_1927,stroop_task_switching2_b,2021.2.3,59.81920243081017,
,,,蓝,blue,j,diamond,color_mix,颜色,,compatible,2,block_switch1_b,instruction/ready_test.png,instruction/i11.png,,,,,,,,,,,,,,,,,0,0,0,0,0,42,42,42,,,,,,,,,,,,,,,,,,,,,,,,,,,585.9197466999758,586.1200965999742,586.1035626999801,586.4046631000238,586.4046631000238,None,586.9050369000179,None,j,1,1.388789699994959,586.9050369000179,None,None,None,,,,,,,,,,,,,,,,,,,,,,,12014,1,2,2024_Jun_20_1927,stroop_task_switching2_b,2021.2.3,59.81920243081017,
,,,红,blue,k,square,color_mix,单词,,incompatible,2,block_switch1_b,instruction/ready_test.png,instruction/i11.png,,,,,,,,,,,,,,,,,0,0,0,0,0,43,43,43,,,,,,,,,,,,,,,,,,,,,,,,,,,588.3233669999754,588.5244798000203,588.5069227999775,588.8089238000102,588.8089238000102,None,589.3083112000022,None,d,0,1.7694758000434376,589.3083112000022,None,None,None,,,,,,,,,,,,,,,,,,,,,,,12014,1,2,2024_Jun_20_1927,stroop_task_switching2_b,2021.2.3,59.81920243081017,
,,,蓝,green,d,diamond,color_mix,颜色,,incompatible,2,block_switch1_b,instruction/ready_test.png,instruction/i11.png,,,,,,,,,,,,,,,,,0,0,0,0,0,44,44,44,,,,,,,,,,,,,,,,,,,,,,,,,,,591.0943238000036,591.2958624999737,591.2779166999971,591.5802500999998,591.5802500999998,None,592.0791287000175,None,d,1,0.9598272999865003,592.0791287000175,None,None,None,,,,,,,,,,,,,,,,,,,,,,,12014,1,2,2024_Jun_20_1927,stroop_task_switching2_b,2021.2.3,59.81920243081017,
,,,黄,yellow,f,square,color_mix,单词,,compatible,2,block_switch1_b,instruction/ready_test.png,instruction/i11.png,,,,,,,,,,,,,,,,,0,0,0,0,0,45,45,45,,,,,,,,,,,,,,,,,,,,,,,,,,,593.0638111999724,593.2642149999738,593.2482701999834,593.548132499971,593.548132499971,None,594.0486979999696,None,f,1,0.9732116000377573,594.0486979999696,None,None,None,,,,,,,,,,,,,,,,,,,,,,,12014,1,2,2024_Jun_20_1927,stroop_task_switching2_b,2021.2.3,59.81920243081017,
,,,黄,yellow,f,diamond,color_mix,颜色,,compatible,2,block_switch1_b,instruction/ready_test.png,instruction/i11.png,,,,,,,,,,,,,,,,,0,0,0,0,0,46,46,46,,,,,,,,,,,,,,,,,,,,,,,,,,,595.0500816999702,595.2516272999928,595.2338302999851,595.5346862999722,595.5346862999722,None,596.0352207000251,None,f,1,0.6267265000496991,596.0352207000251,None,None,None,,,,,,,,,,,,,,,,,,,,,,,12014,1,2,2024_Jun_20_1927,stroop_task_switching2_b,2021.2.3,59.81920243081017,
,,,绿,red,d,square,color_mix,单词,,incompatible,2,block_switch1_b,instruction/ready_test.png,instruction/i11.png,,,,,,,,,,,,,,,,,0,0,0,0,0,47,47,47,,,,,,,,,,,,,,,,,,,,,,,,,,,596.6859742000233,596.8864554999745,596.8706829000148,597.1706163000199,597.1706163000199,None,597.6714882000233,None,k,0,1.0144844999886118,597.6714882000233,None,None,None,,,,,,,,,,,,,,,,,,,,,,,12014,1,2,2024_Jun_20_1927,stroop_task_switching2_b,2021.2.3,59.81920243081017,
,,,红,red,k,diamond,color_mix,颜色,,compatible,2,block_switch1_b,instruction/ready_test.png,instruction/i11.png,,,,,,,,,,,,,,,,,0,0,0,0,0,48,48,48,,,,,,,,,,,,,,,,,,,,,,,,,,,598.7057547000004,598.907235599996,598.8892098999931,599.1911156999995,599.1911156999995,None,599.6906685999711,None,k,1,1.4991343999863602,599.6906685999711,None,None,None,,,,,,,,,,,,,,,,,,,,,,,12014,1,2,2024_Jun_20_1927,stroop_task_switching2_b,2021.2.3,59.81920243081017,
,,,蓝,blue,j,diamond,color_mix,颜色,,compatible,1,block_switch1_b,instruction/ready_test.png,instruction/i11.png,,,,,,,,,,,,,,,,,0,0,0,0,0,49,49,49,,,,,,,,,,,,,,,,,,,,,,,,,,,601.2099289000034,601.4102611999842,601.3931458999868,601.6941496999934,601.6941496999934,None,602.1946956000174,None,j,1,0.6996659000287764,602.1946956000174,None,None,None,,,,,,,,,,,,,,,,,,,,,,,12014,1,2,2024_Jun_20_1927,stroop_task_switching2_b,2021.2.3,59.81920243081017,
,,,黄,yellow,f,diamond,color_mix,颜色,,compatible,1,block_switch1_b,instruction/ready_test.png,instruction/i11.png,,,,,,,,,,,,,,,,,0,0,0,0,0,50,50,50,,,,,,,,,,,,,,,,,,,,,,,,,,,602.9121332999784,603.1137840999872,603.0967047999729,603.3973867999739,603.3973867999739,None,603.8969936000067,None,f,1,0.49319150001974776,603.8969936000067,None,None,None,,,,,,,,,,,,,,,,,,,,,,,12014,1,2,2024_Jun_20_1927,stroop_task_switching2_b,2021.2.3,59.81920243081017,
,,,红,blue,j,diamond,color_mix,颜色,,incompatible,1,block_switch1_b,instruction/ready_test.png,instruction/i11.png,,,,,,,,,,,,,,,,,0,0,0,0,0,51,51,51,,,,,,,,,,,,,,,,,,,,,,,,,,,604.4141097000102,604.6161621999927,604.5979324000073,604.8988283000072,604.8988283000072,None,605.3991890000179,None,f,0,0.9589677000185475,605.3991890000179,None,None,None,,,,,,,,,,,,,,,,,,,,,,,12014,1,2,2024_Jun_20_1927,stroop_task_switching2_b,2021.2.3,59.81920243081017,
,,,蓝,yellow,f,diamond,color_mix,颜色,,incompatible,1,block_switch1_b,instruction/ready_test.png,instruction/i11.png,,,,,,,,,,,,,,,,,0,0,0,0,0,52,52,52,,,,,,,,,,,,,,,,,,,,,,,,,,,606.3839823000017,606.5843738000258,606.567827699997,606.8685733000166,606.8685733000166,None,607.3687345000217,None,j,0,0.813533800013829,607.3687345000217,None,None,None,,,,,,,,,,,,,,,,,,,,,,,12014,1,2,2024_Jun_20_1927,stroop_task_switching2_b,2021.2.3,59.81920243081017,
,,,黄,blue,f,square,color_mix,单词,,incompatible,2,block_switch1_b,instruction/ready_test.png,instruction/i11.png,,,,,,,,,,,,,,,,,0,0,0,0,0,53,53,53,,,,,,,,,,,,,,,,,,,,,,,,,,,608.2034136999864,608.405777500011,608.3870821999735,608.6880067000166,608.6880067000166,None,609.1889459000085,None,j,0,0.8573727000039071,609.1889459000085,None,None,None,,,,,,,,,,,,,,,,,,,,,,,12014,1,2,2024_Jun_20_1927,stroop_task_switching2_b,2021.2.3,59.81920243081017,
,,,蓝,blue,j,diamond,color_mix,颜色,,compatible,2,block_switch1_b,instruction/ready_test.png,instruction/i11.png,,,,,,,,,,,,,,,,,0,0,0,0,0,54,54,54,,,,,,,,,,,,,,,,,,,,,,,,,,,610.0728352000006,610.2730814000242,610.2568108999985,610.5578570999787,610.5578570999787,None,611.0578661999898,None,j,1,1.8762101999600418,611.0578661999898,None,None,None,,,,,,,,,,,,,,,,,,,,,,,12014,1,2,2024_Jun_20_1927,stroop_task_switching2_b,2021.2.3,59.81920243081017,
,,,红,yellow,k,square,color_mix,单词,,incompatible,2,block_switch1_b,instruction/ready_test.png,instruction/i11.png,,,,,,,,,,,,,,,,,0,0,0,0,0,55,55,55,,,,,,,,,,,,,,,,,,,,,,,,,,,612.9606107000145,613.1616961000254,613.1441126000136,613.4465819000034,613.4465819000034,None,613.9630114000174,None,k,1,1.0433611000189558,613.9630114000174,None,None,None,,,,,,,,,,,,,,,,,,,,,,,12014,1,2,2024_Jun_20_1927,stroop_task_switching2_b,2021.2.3,59.81920243081017,
,,,蓝,red,j,square,color_mix,单词,,incompatible,1,block_switch1_b,instruction/ready_test.png,instruction/i11.png,,,,,,,,,,,,,,,,,0,0,0,0,0,56,56,56,,,,,,,,,,,,,,,,,,,,,,,,,,,615.0303280000226,615.2318944999715,615.2139510000125,615.5147031000233,615.5147031000233,None,616.0153398999828,None,k,0,0.5191558999940753,616.0153398999828,None,None,None,,,,,,,,,,,,,,,,,,,,,,,12014,1,2,2024_Jun_20_1927,stroop_task_switching2_b,2021.2.3,59.81920243081017,
,,,蓝,blue,j,square,color_mix,单词,,compatible,1,block_switch1_b,instruction/ready_test.png,instruction/i11.png,,,,,,,,,,,,,,,,,0,0,0,0,0,57,57,57,,,,,,,,,,,,,,,,,,,,,,,,,,,616.5660597999813,616.7678293000208,616.7503818999976,617.0514429999748,617.0514429999748,None,617.5508057000116,None,j,1,2.040151799970772,617.5508057000116,None,None,None,,,,,,,,,,,,,,,,,,,,,,,12014,1,2,2024_Jun_20_1927,stroop_task_switching2_b,2021.2.3,59.81920243081017,
,,,蓝,red,k,diamond,color_mix,颜色,,incompatible,2,block_switch1_b,instruction/ready_test.png,instruction/i11.png,,,,,,,,,,,,,,,,,0,0,0,0,0,58,58,58,,,,,,,,,,,,,,,,,,,,,,,,,,,619.6207198000047,619.8208082999918,619.804304099991,620.1046316999709,620.1046316999709,None,620.6054169000126,None,k,1,1.176998300012201,620.6054169000126,None,None,None,,,,,,,,,,,,,,,,,,,,,,,12014,1,2,2024_Jun_20_1927,stroop_task_switching2_b,2021.2.3,59.81920243081017,
,,,绿,green,d,diamond,color_mix,颜色,,compatible,1,block_switch1_b,instruction/ready_test.png,instruction/i11.png,,,,,,,,,,,,,,,,,0,0,0,0,0,59,59,59,,,,,,,,,,,,,,,,,,,,,,,,,,,621.8072701999918,622.0088785999687,621.990937399969,622.2913106000051,622.2913106000051,None,622.7921834000153,None,d,1,0.6302422999870032,622.7921834000153,None,None,None,,,,,,,,,,,,,,,,,,,,,,,12014,1,2,2024_Jun_20_1927,stroop_task_switching2_b,2021.2.3,59.81920243081017,
,,,蓝,blue,j,diamond,color_mix,颜色,,compatible,1,block_switch1_b,instruction/ready_test.png,instruction/i11.png,,,,,,,,,,,,,,,,,0,0,0,0,0,60,60,60,,,,,,,,,,,,,,,,,,,,,,,,,,,623.4430527000222,623.6441920999787,623.6267858999781,623.9272458999767,623.9272458999767,None,624.4276760999928,None,j,1,0.6030097999610007,624.4276760999928,None,None,None,,,,,,,,,,,,,,,,,,,,,,,12014,1,2,2024_Jun_20_1927,stroop_task_switching2_b,2021.2.3,59.81920243081017,
,,,黄,yellow,f,square,color_mix,单词,,compatible,2,block_switch1_b,instruction/ready_test.png,instruction/i11.png,,,,,,,,,,,,,,,,,0,0,0,0,0,61,61,61,,,,,,,,,,,,,,,,,,,,,,,,,,,625.0621239999891,625.2626526000095,625.2478755000047,625.5643300000229,625.546176999982,None,626.0466793000232,None,f,1,1.3680019999737851,626.0466793000232,None,None,None,,,,,,,,,,,,,,,,,,,,,,,12014,1,2,2024_Jun_20_1927,stroop_task_switching2_b,2021.2.3,59.81920243081017,
,,,绿,blue,d,square,color_mix,单词,,incompatible,1,block_switch1_b,instruction/ready_test.png,instruction/i11.png,,,,,,,,,,,,,,,,,0,0,0,0,0,62,62,62,,,,,,,,,,,,,,,,,,,,,,,,,,,627.4322731000138,627.6349302000017,627.6159840999753,627.9186020999914,627.9186020999914,None,628.4337821999798,None,d,1,0.9728878000169061,628.4337821999798,None,None,None,,,,,,,,,,,,,,,,,,,,,,,12014,1,2,2024_Jun_20_1927,stroop_task_switching2_b,2021.2.3,59.81920243081017,
,,,蓝,yellow,j,square,color_mix,单词,,incompatible,1,block_switch1_b,instruction/ready_test.png,instruction/i11.png,,,,,,,,,,,,,,,,,0,0,0,0,0,63,63,63,,,,,,,,,,,,,,,,,,,,,,,,,,,629.4355537000229,629.6356649000081,629.6190080000088,629.9204475000151,629.9204475000151,None,630.4201707000029,None,j,1,0.8023616999853402,630.4201707000029,None,None,None,,,,,,,,,,,,,,,,,,,,,,,12014,1,2,2024_Jun_20_1927,stroop_task_switching2_b,2021.2.3,59.81920243081017,
,,,黄,yellow,f,diamond,color_mix,颜色,,compatible,2,block_switch1_b,instruction/ready_test.png,instruction/i11.png,,,,,,,,,,,,,,,,,0,0,0,0,0,64,64,64,,,,,,,,,,,,,,,,,,,,,,,,,,,631.2381013999693,631.4397073999862,631.4216819999856,631.7232858000207,631.7232858000207,None,632.2229662999744,None,f,1,0.5757916999864392,632.2229662999744,None,None,None,,,,,,,,,,,,,,,,,,,,,,,12014,1,2,2024_Jun_20_1927,stroop_task_switching2_b,2021.2.3,59.81920243081017,
,,,蓝,green,d,diamond,color_mix,颜色,,incompatible,1,block_switch1_b,instruction/ready_test.png,instruction/i11.png,,,,,,,,,,,,,,,,,0,0,0,0,0,65,65,65,,,,,,,,,,,,,,,,,,,,,,,,,,,632.8239451000118,633.0240710999933,633.0085534999962,633.3079213000019,633.3079213000019,None,633.8091970999958,None,d,1,0.7736521000042558,633.8091970999958,None,None,None,,,,,,,,,,,,,,,,,,,,,,,12014,1,2,2024_Jun_20_1927,stroop_task_switching2_b,2021.2.3,59.81920243081017,
,,,红,red,k,diamond,color_mix,颜色,,compatible,1,block_switch1_b,instruction/ready_test.png,instruction/i11.png,,,,,,,,,,,,,,,,,0,0,0,0,0,66,66,66,,,,,,,,,,,,,,,,,,,,,,,,,,,634.609778699989,634.8109563000035,634.7944102999754,635.0942220999859,635.0942220999859,None,635.5945441999938,None,k,1,0.6763173999497667,635.5945441999938,None,None,None,,,,,,,,,,,,,,,,,,,,,,,12014,1,2,2024_Jun_20_1927,stroop_task_switching2_b,2021.2.3,59.81920243081017,
,,,蓝,yellow,j,square,color_mix,单词,,incompatible,2,block_switch1_b,instruction/ready_test.png,instruction/i11.png,,,,,,,,,,,,,,,,,0,0,0,0,0,67,67,67,,,,,,,,,,,,,,,,,,,,,,,,,,,636.295806900016,636.4970363000175,636.4796104999841,636.7799329999834,636.7799329999834,None,637.2806237000041,None,d,0,1.374707099981606,637.2806237000041,None,None,None,,,,,,,,,,,,,,,,,,,,,,,12014,1,2,2024_Jun_20_1927,stroop_task_switching2_b,2021.2.3,59.81920243081017,
,,,红,yellow,k,square,color_mix,单词,,incompatible,1,block_switch1_b,instruction/ready_test.png,instruction/i11.png,,,,,,,,,,,,,,,,,0,0,0,0,0,68,68,68,,,,,,,,,,,,,,,,,,,,,,,,,,,638.6827097000205,638.8830343000009,638.8663042000262,639.1680149000022,639.1680149000022,None,639.6675965000177,None,k,1,0.6115619000047445,639.6675965000177,None,None,None,,,,,,,,,,,,,,,,,,,,,,,12014,1,2,2024_Jun_20_1927,stroop_task_switching2_b,2021.2.3,59.81920243081017,
,,,红,yellow,f,diamond,color_mix,颜色,,incompatible,2,block_switch1_b,instruction/ready_test.png,instruction/i11.png,,,,,,,,,,,,,,,,,0,0,0,0,0,69,69,69,,,,,,,,,,,,,,,,,,,,,,,,,,,640.3017461000127,640.502894699981,640.4854654999799,640.7871572999866,640.7871572999866,None,641.2864854999934,None,f,1,0.8493988999980502,641.2864854999934,None,None,None,,,,,,,,,,,,,,,,,,,,,,,12014,1,2,2024_Jun_20_1927,stroop_task_switching2_b,2021.2.3,59.81920243081017,
,,,蓝,green,j,square,color_mix,单词,,incompatible,2,block_switch1_b,instruction/ready_test.png,instruction/i11.png,,,,,,,,,,,,,,,,,0,0,0,0,0,70,70,70,,,,,,,,,,,,,,,,,,,,,,,,,,,642.1546132999938,642.3558730999939,642.3400400999817,642.6400761000114,642.6400761000114,None,643.1403219000204,None,d,0,0.8268160999868996,643.1403219000204,None,None,None,,,,,,,,,,,,,,,,,,,,,,,12014,1,2,2024_Jun_20_1927,stroop_task_switching2_b,2021.2.3,59.81920243081017,
,,,绿,yellow,d,square,color_mix,单词,,incompatible,1,block_switch1_b,instruction/ready_test.png,instruction/i11.png,,,,,,,,,,,,,,,,,0,0,0,0,0,71,71,71,,,,,,,,,,,,,,,,,,,,,,,,,,,643.990702399984,644.1922615999938,644.1743731999886,644.4748269999982,644.4748269999982,None,644.9755703000119,None,d,1,0.7916536999982782,644.9755703000119,None,None,None,,,,,,,,,,,,,,,,,,,,,,,12014,1,2,2024_Jun_20_1927,stroop_task_switching2_b,2021.2.3,59.81920243081017,
,,,蓝,yellow,f,diamond,color_mix,颜色,,incompatible,2,block_switch1_b,instruction/ready_test.png,instruction/i11.png,,,,,,,,,,,,,,,,,0,0,0,0,0,72,72,72,,,,,,,,,,,,,,,,,,,,,,,,,,,645.7937826999696,645.9946930999868,645.9775554999942,646.277486099978,646.277486099978,None,646.7781831999891,None,f,1,0.9173744999570772,646.7781831999891,None,None,None,,,,,,,,,,,,,,,,,,,,,,,12014,1,2,2024_Jun_20_1927,stroop_task_switching2_b,2021.2.3,59.81920243081017,
,,,红,green,k,square,color_mix,单词,,incompatible,2,block_switch1_b,instruction/ready_test.png,instruction/i11.png,,,,,,,,,,,,,,,,,0,0,0,0,0,73,73,73,,,,,,,,,,,,,,,,,,,,,,,,,,,647.712891299976,647.9143801999744,647.8977372000227,648.1978388999705,648.1978388999705,None,648.6976500999881,None,k,1,0.7898431000066921,648.6976500999881,None,None,None,,,,,,,,,,,,,,,,,,,,,,,12014,1,2,2024_Jun_20_1927,stroop_task_switching2_b,2021.2.3,59.81920243081017,
,,,绿,blue,j,diamond,color_mix,颜色,,incompatible,2,block_switch1_b,instruction/ready_test.png,instruction/i11.png,,,,,,,,,,,,,,,,,0,0,0,0,0,74,74,74,,,,,,,,,,,,,,,,,,,,,,,,,,,649.5169598999782,649.7176236999803,649.6993123000138,650.000627100002,650.000627100002,None,650.5004658999969,None,j,1,2.81094719999237,650.5004658999969,None,None,None,,,,,,,,,,,,,,,,,,,,,,,12014,1,2,2024_Jun_20_1927,stroop_task_switching2_b,2021.2.3,59.81920243081017,
,,,红,red,k,square,color_mix,单词,,compatible,2,block_switch1_b,instruction/ready_test.png,instruction/i11.png,,,,,,,,,,,,,,,,,0,0,0,0,0,75,75,75,,,,,,,,,,,,,,,,,,,,,,,,,,,653.3382196999737,653.5398314999766,653.5218272000202,653.8220950000104,653.8220950000104,None,654.3228659000015,None,k,1,0.9966168000246398,654.3228659000015,None,None,None,,,,,,,,,,,,,,,,,,,,,,,12014,1,2,2024_Jun_20_1927,stroop_task_switching2_b,2021.2.3,59.81920243081017,
,,,绿,green,d,diamond,color_mix,颜色,,compatible,2,block_switch1_b,instruction/ready_test.png,instruction/i11.png,,,,,,,,,,,,,,,,,0,0,0,0,0,76,76,76,,,,,,,,,,,,,,,,,,,,,,,,,,,655.341194699984,655.5422798999934,655.5247895999928,655.8263617000193,655.8263617000193,None,656.3258590999758,None,d,1,0.5617908000131138,656.3258590999758,None,None,None,,,,,,,,,,,,,,,,,,,,,,,12014,1,2,2024_Jun_20_1927,stroop_task_switching2_b,2021.2.3,59.81920243081017,
,,,黄,red,f,square,color_mix,单词,,incompatible,2,block_switch1_b,instruction/ready_test.png,instruction/i11.png,,,,,,,,,,,,,,,,,0,0,0,0,0,77,77,77,,,,,,,,,,,,,,,,,,,,,,,,,,,656.9100793999969,657.1124732000171,657.0936261999886,657.3946606999962,657.3946606999962,None,657.895113800012,None,f,1,1.6405858999933116,657.895113800012,None,None,None,,,,,,,,,,,,,,,,,,,,,,,12014,1,2,2024_Jun_20_1927,stroop_task_switching2_b,2021.2.3,59.81920243081017,
,,,红,red,k,square,color_mix,单词,,compatible,1,block_switch1_b,instruction/ready_test.png,instruction/i11.png,,,,,,,,,,,,,,,,,0,0,0,0,0,78,78,78,,,,,,,,,,,,,,,,,,,,,,,,,,,659.5648445999832,659.7653011999791,659.7478662999929,660.0500132999732,660.0500132999732,None,660.5491810999811,None,k,1,0.6745137000107206,660.5491810999811,None,None,None,,,,,,,,,,,,,,,,,,,,,,,12014,1,2,2024_Jun_20_1927,stroop_task_switching2_b,2021.2.3,59.81920243081017,
,,,黄,yellow,f,square,color_mix,单词,,compatible,1,block_switch1_b,instruction/ready_test.png,instruction/i11.png,,,,,,,,,,,,,,,,,0,0,0,0,0,79,79,79,,,,,,,,,,,,,,,,,,,,,,,,,,,661.2501426999806,661.450590100023,661.4336008999962,661.7341658999794,661.7341658999794,None,662.2355688000098,None,f,1,1.5962712000473402,662.2355688000098,None,None,None,,,,,,,,,,,,,,,,,,,,,,,12014,1,2,2024_Jun_20_1927,stroop_task_switching2_b,2021.2.3,59.81920243081017,
,,,红,red,k,diamond,color_mix,颜色,,compatible,2,block_switch1_b,instruction/ready_test.png,instruction/i11.png,,,,,,,,,,,,,,,,,0,0,0,0,0,80,80,80,,,,,,,,,,,,,,,,,,,,,,,,,,,663.854084999999,664.054956100008,664.0378591999761,664.3381292999838,664.3381292999838,None,664.8390939999954,None,f,0,1.64068650000263,664.8390939999954,None,None,None,,,,,,,,,,,,,,,,,,,,,,,12014,1,2,2024_Jun_20_1927,stroop_task_switching2_b,2021.2.3,59.81920243081017,
,,,红,red,k,square,color_mix,单词,,compatible,2,block_switch1_b,instruction/ready_test.png,instruction/i11.png,,,,,,,,,,,,,,,,,0,0,0,0,0,81,81,81,,,,,,,,,,,,,,,,,,,,,,,,,,,666.507941799995,666.7091727000079,666.6919932999881,666.9925963999704,666.9925963999704,None,667.49286389997,None,k,1,0.522897099959664,667.49286389997,None,None,None,,,,,,,,,,,,,,,,,,,,,,,12014,1,2,2024_Jun_20_1927,stroop_task_switching2_b,2021.2.3,59.81920243081017,
,,,黄,blue,j,diamond,color_mix,颜色,,incompatible,2,block_switch1_b,instruction/ready_test.png,instruction/i11.png,,,,,,,,,,,,,,,,,0,0,0,0,0,82,82,82,,,,,,,,,,,,,,,,,,,,,,,,,,,668.0436188000022,668.2449567000149,668.2276052000234,668.5291364999721,668.5291364999721,None,669.0284176999703,None,f,0,1.9796282000024803,669.0284176999703,None,None,None,,,,,,,,,,,,,,,,,,,,,,,12014,1,2,2024_Jun_20_1927,stroop_task_switching2_b,2021.2.3,59.81920243081017,
,,,红,yellow,f,diamond,color_mix,颜色,,incompatible,1,block_switch1_b,instruction/ready_test.png,instruction/i11.png,,,,,,,,,,,,,,,,,0,0,0,0,0,83,83,83,,,,,,,,,,,,,,,,,,,,,,,,,,,671.0315862999996,671.2331188999815,671.2168370999862,671.5322983000078,671.5172292999923,None,672.0166936999885,None,f,1,0.9680967000313103,672.0166936999885,None,None,None,,,,,,,,,,,,,,,,,,,,,,,12014,1,2,2024_Jun_20_1927,stroop_task_switching2_b,2021.2.3,59.81920243081017,
,,,黄,red,k,diamond,color_mix,颜色,,incompatible,1,block_switch1_b,instruction/ready_test.png,instruction/i11.png,,,,,,,,,,,,,,,,,0,0,0,0,0,84,84,84,,,,,,,,,,,,,,,,,,,,,,,,,,,673.0008618999855,673.2023073000018,673.1845205000136,673.4852704000077,673.4852704000077,None,673.9859149999684,None,k,1,0.8059807000099681,673.9859149999684,None,None,None,,,,,,,,,,,,,,,,,,,,,,,12014,1,2,2024_Jun_20_1927,stroop_task_switching2_b,2021.2.3,59.81920243081017,
,,,蓝,blue,j,square,color_mix,单词,,compatible,2,block_switch1_b,instruction/ready_test.png,instruction/i11.png,,,,,,,,,,,,,,,,,0,0,0,0,0,85,85,85,,,,,,,,,,,,,,,,,,,,,,,,,,,674.8205335999955,675.0208102000179,675.0053997000214,675.3055926000234,675.3055926000234,None,675.8052922000061,None,f,0,1.9067069999873638,675.8052922000061,None,None,None,,,,,,,,,,,,,,,,,,,,,,,12014,1,2,2024_Jun_20_1927,stroop_task_switching2_b,2021.2.3,59.81920243081017,
,,,绿,green,d,square,color_mix,单词,,compatible,1,block_switch1_b,instruction/ready_test.png,instruction/i11.png,,,,,,,,,,,,,,,,,0,0,0,0,0,86,86,86,,,,,,,,,,,,,,,,,,,,,,,,,,,677.741631300014,677.9428731999942,677.9253146999981,678.2255868000211,678.2255868000211,None,678.7263834999758,None,d,1,1.0494887999957427,678.7263834999758,None,None,None,,,,,,,,,,,,,,,,,,,,,,,12014,1,2,2024_Jun_20_1927,stroop_task_switching2_b,2021.2.3,59.81920243081017,
,,,红,red,k,square,color_mix,单词,,compatible,1,block_switch1_b,instruction/ready_test.png,instruction/i11.png,,,,,,,,,,,,,,,,,0,0,0,0,0,87,87,87,,,,,,,,,,,,,,,,,,,,,,,,,,,679.7948258999968,679.9969207000104,679.9782237000181,680.2796206999919,680.2796206999919,None,680.7798071000143,None,k,1,0.5803983000223525,680.7798071000143,None,None,None,,,,,,,,,,,,,,,,,,,,,,,12014,1,2,2024_Jun_20_1927,stroop_task_switching2_b,2021.2.3,59.81920243081017,
,,,黄,green,d,diamond,color_mix,颜色,,incompatible,2,block_switch1_b,instruction/ready_test.png,instruction/i11.png,,,,,,,,,,,,,,,,,0,0,0,0,0,88,88,88,,,,,,,,,,,,,,,,,,,,,,,,,,,681.3804707999807,681.5808723000227,681.5646585000213,681.8658622999792,681.8658622999792,None,682.3650680999854,None,f,0,1.0352065999759361,682.3650680999854,None,None,None,,,,,,,,,,,,,,,,,,,,,,,12014,1,2,2024_Jun_20_1927,stroop_task_switching2_b,2021.2.3,59.81920243081017,
,,,绿,red,d,square,color_mix,单词,,incompatible,2,block_switch1_b,instruction/ready_test.png,instruction/i11.png,,,,,,,,,,,,,,,,,0,0,0,0,0,89,89,89,,,,,,,,,,,,,,,,,,,,,,,,,,,683.4173750000191,683.6185671999701,683.6004960999708,683.9029345000163,683.9029345000163,None,684.401600799989,None,k,0,0.942916099971626,684.401600799989,None,None,None,,,,,,,,,,,,,,,,,,,,,,,12014,1,2,2024_Jun_20_1927,stroop_task_switching2_b,2021.2.3,59.81920243081017,
,,,黄,green,f,square,color_mix,单词,,incompatible,1,block_switch1_b,instruction/ready_test.png,instruction/i11.png,,,,,,,,,,,,,,,,,0,0,0,0,0,90,90,90,,,,,,,,,,,,,,,,,,,,,,,,,,,685.3697198000154,685.5707906999742,685.5535454999772,685.8543549000169,685.8543549000169,None,686.3546785999788,None,f,1,1.1334332000114955,686.3546785999788,None,None,None,,,,,,,,,,,,,,,,,,,,,,,12014,1,2,2024_Jun_20_1927,stroop_task_switching2_b,2021.2.3,59.81920243081017,
,,,蓝,blue,j,square,color_mix,单词,,compatible,1,block_switch1_b,instruction/ready_test.png,instruction/i11.png,,,,,,,,,,,,,,,,,0,0,0,0,0,91,91,91,,,,,,,,,,,,,,,,,,,,,,,,,,,687.5063575999811,687.7083567000227,687.6898882000241,687.9904534000088,687.9904534000088,None,688.4910995999817,None,j,1,1.1735007000388578,688.4910995999817,None,None,None,,,,,,,,,,,,,,,,,,,,,,,12014,1,2,2024_Jun_20_1927,stroop_task_switching2_b,2021.2.3,59.81920243081017,
,,,蓝,red,j,square,color_mix,单词,,incompatible,1,block_switch1_b,instruction/ready_test.png,instruction/i11.png,,,,,,,,,,,,,,,,,0,0,0,0,0,92,92,92,,,,,,,,,,,,,,,,,,,,,,,,,,,689.6929842000245,689.894480500021,689.8764757000026,690.1769552999758,690.1769552999758,None,690.6776392000029,None,j,1,1.5229532000375912,690.6776392000029,None,None,None,,,,,,,,,,,,,,,,,,,,,,,12014,1,2,2024_Jun_20_1927,stroop_task_switching2_b,2021.2.3,59.81920243081017,
,,,黄,blue,f,square,color_mix,单词,,incompatible,1,block_switch1_b,instruction/ready_test.png,instruction/i11.png,,,,,,,,,,,,,,,,,0,0,0,0,0,93,93,93,,,,,,,,,,,,,,,,,,,,,,,,,,,692.2300714000012,692.4312863000087,692.4148835000233,692.7149600000121,692.7149600000121,None,693.2148368000053,None,f,1,1.0500582000240684,693.2148368000053,None,None,None,,,,,,,,,,,,,,,,,,,,,,,12014,1,2,2024_Jun_20_1927,stroop_task_switching2_b,2021.2.3,59.81920243081017,
,,,绿,red,k,diamond,color_mix,颜色,,incompatible,2,block_switch1_b,instruction/ready_test.png,instruction/i11.png,,,,,,,,,,,,,,,,,0,0,0,0,0,94,94,94,,,,,,,,,,,,,,,,,,,,,,,,,,,694.2831727999728,694.4842654999811,694.4676531999721,694.7672028000234,694.7672028000234,None,695.2680129000219,None,k,1,2.6927804999868385,695.2680129000219,None,None,None,,,,,,,,,,,,,,,,,,,,,,,12014,1,2,2024_Jun_20_1927,stroop_task_switching2_b,2021.2.3,59.81920243081017,
,,,蓝,blue,j,diamond,color_mix,颜色,,compatible,1,block_switch1_b,instruction/ready_test.png,instruction/i11.png,,,,,,,,,,,,,,,,,0,0,0,0,0,95,95,95,,,,,,,,,,,,,,,,,,,,,,,,,,,697.9887869000086,698.1893512000097,698.1722044000053,698.4734450000105,698.4734450000105,None,698.9734964999952,None,j,1,1.4034873999771662,698.9734964999952,None,None,None,,,,,,,,,,,,,,,,,,,,,,,12014,1,2,2024_Jun_20_1927,stroop_task_switching2_b,2021.2.3,59.81920243081017,
,,,绿,green,d,square,color_mix,单词,,compatible,2,block_switch1_b,instruction/ready_test.png,instruction/i11.png,,,,,,,,,,,,,,,,,0,0,0,0,0,96,96,96,,,,,,,,,,,,,,,,,,,,,,,,,,,700.3923230000073,700.5925442000153,700.5763677000068,700.8771344000124,700.8771344000124,None,701.3773225999903,None,f,0,1.3915601000189781,701.3773225999903,None,None,None,,,,,,,,,,,,,,,,,,,,,,,12014,1,2,2024_Jun_20_1927,stroop_task_switching2_b,2021.2.3,59.81920243081017,
,,,,,,,,,,,,block_switch1_b,instruction/ready_test.png,instruction/i11.png,,,,,,,,,,,,,,,,,0,0,0,0,,,,,,,,,,,,,,,,,,,,,,,,,,,,,,,,,,,,,,,,,,,,,,,,,,,,,,,,,,,,702.7959252999863,None,space,1.4210208000149578,702.7959252999863,None,,,12014,1,2,2024_Jun_20_1927,stroop_task_switching2_b,2021.2.3,59.81920243081017,
,,,蓝,blue,j,square,color_mix,单词,,compatible,0,block_switch2_b,instruction/ready_2.png,instruction/i12.png,,,,,,,,,,,,,,,,,0,1,1,1,0,0,0,0,,,,,,,,,,,,,,,,,,,708.8219856999931,709.8238789999741,709.8238789999741,710.8259717000183,710.8259717000183,None,707.8370741999825,708.8386330999783,711.859738899977,712.0601047999808,712.043521900021,712.3437918999698,712.3437918999698,None,712.8450477999868,None,f,0,1.4119671999942511,712.8450477999868,None,None,None,,,,,,,,,704.2654881000053,None,space,3.5514744999818504,704.2654881000053,None,,,,,,,,,12014,1,2,2024_Jun_20_1927,stroop_task_switching2_b,2021.2.3,59.81920243081017,
,,,黄,red,k,diamond,color_mix,颜色,,incompatible,2,block_switch2_b,instruction/ready_2.png,instruction/i12.png,,,,,,,,,,,,,,,,,0,1,1,1,0,1,1,1,,,,,,,,,,,,,,,,,,,,,,,,,,,714.3134195000166,714.5136508999858,714.4645339999697,714.7642323999899,714.7642323999899,None,715.2650152000133,None,k,1,1.0721515999757685,715.2650152000133,None,None,None,,,,,,,,,,,,,,,,,,,,,,,12014,1,2,2024_Jun_20_1927,stroop_task_switching2_b,2021.2.3,59.81920243081017,
,,,蓝,green,d,diamond,color_mix,颜色,,incompatible,1,block_switch2_b,instruction/ready_2.png,instruction/i12.png,,,,,,,,,,,,,,,,,0,1,1,1,0,2,2,2,,,,,,,,,,,,,,,,,,,,,,,,,,,716.3834538999945,716.5844462999958,716.5503224999993,716.851385099988,716.851385099988,None,717.3512955000042,None,d,1,1.937860300007742,717.3512955000042,None,None,None,,,,,,,,,,,,,,,,,,,,,,,12014,1,2,2024_Jun_20_1927,stroop_task_switching2_b,2021.2.3,59.81920243081017,
,,,红,yellow,f,diamond,color_mix,颜色,,incompatible,1,block_switch2_b,instruction/ready_2.png,instruction/i12.png,,,,,,,,,,,,,,,,,0,1,1,1,0,3,3,3,,,,,,,,,,,,,,,,,,,,,,,,,,,719.3044514000067,719.5060794000165,719.4878907999955,719.7882455000072,719.7882455000072,None,720.2890605999855,None,f,1,1.0079807000001892,720.2890605999855,None,None,None,,,,,,,,,,,,,,,,,,,,,,,12014,1,2,2024_Jun_20_1927,stroop_task_switching2_b,2021.2.3,59.81920243081017,
,,,红,red,k,diamond,color_mix,颜色,,compatible,1,block_switch2_b,instruction/ready_2.png,instruction/i12.png,,,,,,,,,,,,,,,,,0,1,1,1,0,4,4,4,,,,,,,,,,,,,,,,,,,,,,,,,,,721.323881999997,721.5243114000186,721.5076215000008,721.8080019999761,721.8080019999761,None,722.3089106999687,None,k,1,0.6043468000134453,722.3089106999687,None,None,None,,,,,,,,,,,,,,,,,,,,,,,12014,1,2,2024_Jun_20_1927,stroop_task_switching2_b,2021.2.3,59.81920243081017,
,,,绿,green,d,square,color_mix,单词,,compatible,2,block_switch2_b,instruction/ready_2.png,instruction/i12.png,,,,,,,,,,,,,,,,,0,1,1,1,0,5,5,5,,,,,,,,,,,,,,,,,,,,,,,,,,,722.9601867999882,723.1613326999941,723.126645900018,723.4296605999698,723.4296605999698,None,723.9445194000145,None,d,1,1.232991500000935,723.9445194000145,None,None,None,,,,,,,,,,,,,,,,,,,,,,,12014,1,2,2024_Jun_20_1927,stroop_task_switching2_b,2021.2.3,59.81920243081017,
,,,黄,blue,j,diamond,color_mix,颜色,,incompatible,2,block_switch2_b,instruction/ready_2.png,instruction/i12.png,,,,,,,,,,,,,,,,,0,1,1,1,0,6,6,6,,,,,,,,,,,,,,,,,,,,,,,,,,,725.1965418999898,725.396735700022,725.3808384999866,725.6804917000118,725.6804917000118,None,726.1823061999748,None,j,1,1.9472725000232458,726.1823061999748,None,None,None,,,,,,,,,,,,,,,,,,,,,,,12014,1,2,2024_Jun_20_1927,stroop_task_switching2_b,2021.2.3,59.81920243081017,
,,,绿,yellow,d,square,color_mix,单词,,incompatible,2,block_switch2_b,instruction/ready_2.png,instruction/i12.png,,,,,,,,,,,,,,,,,0,1,1,1,0,7,7,7,,,,,,,,,,,,,,,,,,,,,,,,,,,728.151040399971,728.3520841000136,728.3349773000227,728.6356995999813,728.6356995999813,None,729.135663699999,None,f,0,0.9939382000011392,729.135663699999,None,None,None,,,,,,,,,,,,,,,,,,,,,,,12014,1,2,2024_Jun_20_1927,stroop_task_switching2_b,2021.2.3,59.81920243081017,
