b_pra,ins_blocks,ins_blocks2,stim_word,stim_color,corrAns,cue_type,trial_type,task_type,rand,compatibility,switch,b_test,w_pic,w_pic2,trials_instr.thisRepN,trials_instr.thisTrialN,trials_instr.thisN,trials_instr.thisIndex,block_pra.thisRepN,block_pra.thisTrialN,block_pra.thisN,block_pra.thisIndex,trials_rep.thisRepN,trials_rep.thisTrialN,trials_rep.thisN,trials_rep.thisIndex,trials_pra.thisRepN,trials_pra.thisTrialN,trials_pra.thisN,trials_pra.thisIndex,trials_3.thisRepN,trials_3.thisTrialN,trials_3.thisN,trials_3.thisIndex,trials_2.thisRepN,trials_2.thisTrialN,trials_2.thisN,trials_2.thisIndex,instr_image.started,instr_image.stopped,instr_key_resp.keys,instr_key_resp.rt,instr_key_resp.started,instr_key_resp.stopped,instr_pra_image.started,instr_pra_image.stopped,ip_key_resp.keys,ip_key_resp.rt,ip_key_resp.started,ip_key_resp.stopped,block_image.started,block_image.stopped,ib_key_resp.keys,ib_key_resp.rt,ib_key_resp.started,ib_key_resp.stopped,cd3.started,cd3.stopped,cd2.started,cd2.stopped,cd1.started,cd1.stopped,cd_text.started,cd_text.stopped,text_fix.started,text_fix.stopped,text_2.started,text_2.stopped,text_4.started,text_4.stopped,text_target.started,text_target.stopped,key_resp.keys,key_resp.corr,key_resp.rt,key_resp.started,key_resp.stopped,sceen_black.started,sceen_black.stopped,text_fb.started,text_fb.stopped,text.started,text.stopped,key_bf.keys,key_bf.rt,key_bf.started,key_bf.stopped,instr_test_image.started,instr_test_image.stopped,instr_exp_key_resp.keys,instr_exp_key_resp.rt,instr_exp_key_resp.started,instr_exp_key_resp.stopped,text_rest.started,text_rest.stopped,key_resp_rest.keys,key_resp_rest.rt,key_resp_rest.started,key_resp_rest.stopped,text_3.started,text_3.stopped,participant,session,balance,date,expName,psychopyVersion,frameRate,
,,,,,,,,,,,,,,,0,0,0,0,,,,,,,,,,,,,,,,,,,,,11.24978749998263,None,right,1.2261777000094298,11.24978749998263,None,,,,,,,,,,,,,,,,,,,,,,,,,,,,,,,,,,,,,,,,,,,,,,,,,,,,,,,,,,12011,1,1,2024_Jun_17_0854,stroop_task_switching2,2021.2.3,60.114831350442245,
,,,,,,,,,,,,,,,1,0,1,0,,,,,,,,,,,,,,,,,,,,,12.517368700006045,None,right,33.200806700013345,12.517368700006045,None,,,,,,,,,,,,,,,,,,,,,,,,,,,,,,,,,,,,,,,,,,,,,,,,,,,,,,,,,,12011,1,1,2024_Jun_17_0854,stroop_task_switching2,2021.2.3,60.114831350442245,
,,,,,,,,,,,,,,,2,0,2,0,,,,,,,,,,,,,,,,,,,,,45.75057079998078,None,right,0.18257239999365993,45.75057079998078,None,,,,,,,,,,,,,,,,,,,,,,,,,,,,,,,,,,,,,,,,,,,,,,,,,,,,,,,,,,12011,1,1,2024_Jun_17_0854,stroop_task_switching2,2021.2.3,60.114831350442245,
,,,,,,,,,,,,,,,3,0,3,0,,,,,,,,,,,,,,,,,,,,,45.96832029998768,None,right,0.17266660000314005,45.96832029998768,None,,,,,,,,,,,,,,,,,,,,,,,,,,,,,,,,,,,,,,,,,,,,,,,,,,,,,,,,,,12011,1,1,2024_Jun_17_0854,stroop_task_switching2,2021.2.3,60.114831350442245,
,,,,,,,,,,,,,,,4,0,4,0,,,,,,,,,,,,,,,,,,,,,46.18452429998433,None,right,0.11652859998866916,46.18452429998433,None,,,,,,,,,,,,,,,,,,,,,,,,,,,,,,,,,,,,,,,,,,,,,,,,,,,,,,,,,,12011,1,1,2024_Jun_17_0854,stroop_task_switching2,2021.2.3,60.114831350442245,
,,,,,,,,,,,,,,,5,0,5,0,,,,,,,,,,,,,,,,,,,,,46.3354735999892,None,right,0.3499186999979429,46.3354735999892,None,,,,,,,,,,,,,,,,,,,,,,,,,,,,,,,,,,,,,,,,,,,,,,,,,,,,,,,,,,12011,1,1,2024_Jun_17_0854,stroop_task_switching2,2021.2.3,60.114831350442245,
,,,,,,,,,,,,,,,,,,,,,,,,,,,,,,,,,,,,,,,,,,,,,46.721142399997916,None,space,1.7550435999874026,46.721142399997916,None,,,,,,,,,,,,,,,,,,,,,,,,,,,,,,,,,,,,,,,,,,,,,,,,,,,,12011,1,1,2024_Jun_17_0854,stroop_task_switching2,2021.2.3,60.114831350442245,
condition/block_color,instruction/instr_color,instruction/i8,XX,red,d,diamond,color_single,颜色,,,,,,,,,,,0,0,0,0,0,0,0,0,0,0,0,0,,,,,,,,,,,,,,,,,,,,,48.5220616000006,None,space,4.4949164999998175,48.5220616000006,None,54.08048079998116,55.0824834999803,55.0824834999803,56.08538309999858,56.08538309999858,None,53.112549499986926,54.114184300007764,57.08608740000636,57.285160400002496,57.26914719998604,57.56895220000297,57.56895220000297,None,58.05321479999111,None,d,1,0.5850295000127517,58.05321479999111,None,None,None,58.65376539999852,None,,,,,,,,,,,,,,,,,,,,,12011,1,1,2024_Jun_17_0854,stroop_task_switching2,2021.2.3,60.114831350442245,
condition/block_color,instruction/instr_color,instruction/i8,XX,green,k,diamond,color_single,颜色,,,,,,,,,,,0,0,0,0,0,0,0,0,0,1,1,1,,,,,,,,,,,,,,,,,,,,,,,,,,,,,,,,,,,59.655993899999885,59.85598960000789,59.839833000005456,60.139754400006495,60.139754400006495,None,60.64146260000416,None,k,1,0.9477553999749944,60.64146260000416,None,None,None,61.60873670000001,None,,,,,,,,,,,,,,,,,,,,,12011,1,1,2024_Jun_17_0854,stroop_task_switching2,2021.2.3,60.114831350442245,
condition/block_color,instruction/instr_color,instruction/i8,XX,yellow,j,diamond,color_single,颜色,,,,,,,,,,,0,0,0,0,0,0,0,0,0,2,2,2,,,,,,,,,,,,,,,,,,,,,,,,,,,,,,,,,,,62.61007699999027,62.81205740000587,62.79436699999496,63.09589279998909,63.09589279998909,None,63.594835600000806,None,j,1,0.4826185000129044,63.594835600000806,None,None,None,64.09596869998495,None,,,,,,,,,,,,,,,,,,,,,12011,1,1,2024_Jun_17_0854,stroop_task_switching2,2021.2.3,60.114831350442245,
condition/block_color,instruction/instr_color,instruction/i8,XX,blue,f,diamond,color_single,颜色,,,,,,,,,,,0,0,0,0,0,0,0,0,0,3,3,3,,,,,,,,,,,,,,,,,,,,,,,,,,,,,,,,,,,65.09713499998907,65.2972851000086,65.2806883000012,65.5814679999894,65.5814679999894,None,66.08191340000485,None,f,1,0.38764550001360476,66.08191340000485,None,None,None,66.499754199991,None,,,,,,,,,,,,,,,,,,,,,12011,1,1,2024_Jun_17_0854,stroop_task_switching2,2021.2.3,60.114831350442245,
condition/block_color,instruction/instr_color,instruction/i8,XX,green,k,diamond,color_single,颜色,,,,,,,,,,,0,0,0,0,0,0,0,0,0,4,4,4,,,,,,,,,,,,,,,,,,,,,,,,,,,,,,,,,,,67.50070499998401,67.70175939999172,67.68444989999989,67.98507259998587,67.98507259998587,None,68.48549749999074,None,k,1,1.0644796999986283,68.48549749999074,None,None,None,69.5705367999908,None,,,,,,,,,,,,,,,,,,,,,12011,1,1,2024_Jun_17_0854,stroop_task_switching2,2021.2.3,60.114831350442245,
condition/block_color,instruction/instr_color,instruction/i8,XX,yellow,j,diamond,color_single,颜色,,,,,,,,,,,0,0,0,0,0,0,0,0,0,5,5,5,,,,,,,,,,,,,,,,,,,,,,,,,,,,,,,,,,,70.57272500000545,70.77242319998913,70.75604999999632,71.05805960000725,71.05805960000725,None,71.55694999999832,None,j,1,0.4569480000063777,71.55694999999832,None,None,None,72.0408516000025,None,,,,,,,,,,,,,,,,,,,,,12011,1,1,2024_Jun_17_0854,stroop_task_switching2,2021.2.3,60.114831350442245,
condition/block_color,instruction/instr_color,instruction/i8,XX,blue,f,diamond,color_single,颜色,,,,,,,,,,,0,0,0,0,0,0,0,0,0,6,6,6,,,,,,,,,,,,,,,,,,,,,,,,,,,,,,,,,,,73.04236369999126,73.24346309999237,73.22655719998875,73.52646960000857,73.52646960000857,None,74.02721889998065,None,f,1,0.6426611999922898,74.02721889998065,None,None,None,74.69522289998713,None,,,,,,,,,,,,,,,,,,,,,12011,1,1,2024_Jun_17_0854,stroop_task_switching2,2021.2.3,60.114831350442245,
condition/block_color,instruction/instr_color,instruction/i8,XX,red,d,diamond,color_single,颜色,,,,,,,,,,,0,0,0,0,0,0,0,0,0,7,7,7,,,,,,,,,,,,,,,,,,,,,,,,,,,,,,,,,,,75.69632339998498,75.8967862999998,75.87979819998145,76.1810126999917,76.1810126999917,None,76.68251059998875,None,d,1,0.3317185999767389,76.68251059998875,None,None,None,77.03177679999499,None,,,,,,,,,,,,,,,,,,,,,12011,1,1,2024_Jun_17_0854,stroop_task_switching2,2021.2.3,60.114831350442245,
condition/block_color,instruction/instr_color,instruction/i8,XX,yellow,j,diamond,color_single,颜色,,,,,,,,,,,0,0,0,0,0,0,0,0,0,8,8,8,,,,,,,,,,,,,,,,,,,,,,,,,,,,,,,,,,,78.03336609998951,78.23355699999956,78.21733859999222,78.5171193999995,78.5171193999995,None,79.01792579999892,None,j,1,0.9637789000116754,79.01792579999892,None,None,None,80.0029111999902,None,,,,,,,,,,,,,,,,,,,,,12011,1,1,2024_Jun_17_0854,stroop_task_switching2,2021.2.3,60.114831350442245,
condition/block_color,instruction/instr_color,instruction/i8,XX,blue,f,diamond,color_single,颜色,,,,,,,,,,,0,0,0,0,0,0,0,0,0,9,9,9,,,,,,,,,,,,,,,,,,,,,,,,,,,,,,,,,,,81.00450969999656,81.20535179998842,81.19021279999288,81.4886167999939,81.4886167999939,None,81.98933250000118,None,f,1,1.4888359000033233,81.98933250000118,None,None,None,83.50826169998618,None,,,,,,,,,,,,,,,,,,,,,12011,1,1,2024_Jun_17_0854,stroop_task_switching2,2021.2.3,60.114831350442245,
condition/block_color,instruction/instr_color,instruction/i8,XX,red,d,diamond,color_single,颜色,,,,,,,,,,,0,0,0,0,0,0,0,0,0,10,10,10,,,,,,,,,,,,,,,,,,,,,,,,,,,,,,,,,,,84.50968600000488,84.71157359998324,84.69327019999037,84.99422259998391,84.99422259998391,None,85.49450430000434,None,d,1,0.3914840999932494,85.49450430000434,None,None,None,85.91190879998612,None,,,,,,,,,,,,,,,,,,,,,12011,1,1,2024_Jun_17_0854,stroop_task_switching2,2021.2.3,60.114831350442245,
condition/block_color,instruction/instr_color,instruction/i8,XX,green,k,diamond,color_single,颜色,,,,,,,,,,,0,0,0,0,0,0,0,0,0,11,11,11,,,,,,,,,,,,,,,,,,,,,,,,,,,,,,,,,,,86.91317139999592,87.1150442000071,87.09708829998272,87.39803250000114,87.39803250000114,None,87.89816439998685,None,k,1,0.9159896000055596,87.89816439998685,None,None,None,88.83287220000057,None,,,,,,,,,,,,,,,,,,,,,12011,1,1,2024_Jun_17_0854,stroop_task_switching2,2021.2.3,60.114831350442245,
condition/block_color,instruction/instr_color,instruction/i8,XX,blue,f,diamond,color_single,颜色,,,,,,,,,,,0,0,0,0,0,0,0,0,0,12,12,12,,,,,,,,,,,,,,,,,,,,,,,,,,,,,,,,,,,89.8342893999943,90.03558999998495,90.01816330000293,90.31918200000655,90.31918200000655,None,90.81935360000352,None,f,1,0.6510332000034396,90.81935360000352,None,None,None,91.48691360000521,None,,,,,,,,,,,,,,,,,,,,,12011,1,1,2024_Jun_17_0854,stroop_task_switching2,2021.2.3,60.114831350442245,
condition/block_color,instruction/instr_color,instruction/i8,XX,red,d,diamond,color_single,颜色,,,,,,,,,,,0,0,0,0,0,0,0,0,0,13,13,13,,,,,,,,,,,,,,,,,,,,,,,,,,,,,,,,,,,92.48848110000836,92.69100689998595,92.67346799999359,92.98992970000836,92.97308699999121,None,93.47336139998515,None,d,1,0.509082499978831,93.47336139998515,None,None,None,94.00734019998345,None,,,,,,,,,,,,,,,,,,,,,12011,1,1,2024_Jun_17_0854,stroop_task_switching2,2021.2.3,60.114831350442245,
condition/block_color,instruction/instr_color,instruction/i8,XX,green,k,diamond,color_single,颜色,,,,,,,,,,,0,0,0,0,0,0,0,0,0,14,14,14,,,,,,,,,,,,,,,,,,,,,,,,,,,,,,,,,,,95.00897890000488,95.20956859999569,95.1923192999966,95.4930355999968,95.4930355999968,None,95.99362029999611,None,k,1,0.8448314999986906,95.99362029999611,None,None,None,96.86179070000071,None,,,,,,,,,,,,,,,,,,,,,12011,1,1,2024_Jun_17_0854,stroop_task_switching2,2021.2.3,60.114831350442245,
condition/block_color,instruction/instr_color,instruction/i8,XX,yellow,j,diamond,color_single,颜色,,,,,,,,,,,0,0,0,0,0,0,0,0,0,15,15,15,,,,,,,,,,,,,,,,,,,,,,,,,,,,,,,,,,,97.86316989999614,98.06523879998713,98.0469124999945,98.34740559998318,98.34740559998318,None,98.84786879998865,None,j,1,1.1911486000171863,98.84786879998865,None,None,None,100.06652329998906,None,,,,,,,,,,,,,,,,,,,,,12011,1,1,2024_Jun_17_0854,stroop_task_switching2,2021.2.3,60.114831350442245,
condition/block_color,instruction/instr_color,instruction/i8,XX,red,d,diamond,color_single,颜色,,,,,,,,,,,0,0,0,0,0,0,0,0,0,16,16,16,,,,,,,,,,,,,,,,,,,,,,,,,,,,,,,,,,,101.06902799999807,101.26836980000371,101.25161849998403,101.55244219998713,101.55244219998713,None,102.05355069998768,None,d,1,0.38473449999582954,102.05355069998768,None,None,None,102.45340629998827,None,,,,,,,,,,,,,,,,,,,,,12011,1,1,2024_Jun_17_0854,stroop_task_switching2,2021.2.3,60.114831350442245,
condition/block_color,instruction/instr_color,instruction/i8,XX,green,k,diamond,color_single,颜色,,,,,,,,,,,0,0,0,0,0,0,0,0,0,17,17,17,,,,,,,,,,,,,,,,,,,,,,,,,,,,,,,,,,,103.45522849998088,103.65525280000293,103.63835749999271,103.93887119999272,103.93887119999272,None,104.44058910000604,None,k,1,0.7504228999896441,104.44058910000604,None,None,None,105.20756209999672,None,,,,,,,,,,,,,,,,,,,,,12011,1,1,2024_Jun_17_0854,stroop_task_switching2,2021.2.3,60.114831350442245,
condition/block_color,instruction/instr_color,instruction/i8,XX,yellow,j,diamond,color_single,颜色,,,,,,,,,,,0,0,0,0,0,0,0,0,0,18,18,18,,,,,,,,,,,,,,,,,,,,,,,,,,,,,,,,,,,106.2091303000052,106.40944659998058,106.39287769998191,106.69304280000506,106.69304280000506,None,107.19463389998418,None,j,1,0.8441714000073262,107.19463389998418,None,None,None,108.06190709999646,None,,,,,,,,,,,,,,,,,,,,,12011,1,1,2024_Jun_17_0854,stroop_task_switching2,2021.2.3,60.114831350442245,
condition/block_color,instruction/instr_color,instruction/i8,XX,blue,f,diamond,color_single,颜色,,,,,,,,,,,0,0,0,0,0,0,0,0,0,19,19,19,,,,,,,,,,,,,,,,,,,,,,,,,,,,,,,,,,,109.06338469998445,109.26361739999265,109.24852789999568,109.54778530000476,109.54778530000476,None,110.04809470000328,None,f,1,0.7669093000004068,110.04809470000328,None,None,None,110.83257609998691,None,,,,,,,,,,,,,,,,,,,,,12011,1,1,2024_Jun_17_0854,stroop_task_switching2,2021.2.3,60.114831350442245,
condition/block_color,instruction/instr_color,instruction/i8,XX,green,k,diamond,color_single,颜色,,,,,,,,,,,0,0,0,0,0,0,0,0,0,20,20,20,,,,,,,,,,,,,,,,,,,,,,,,,,,,,,,,,,,111.83488969999598,112.03576810000231,112.01804140000604,112.31918849999784,112.31918849999784,None,112.81900069999392,None,k,1,0.7955882000096608,112.81900069999392,None,None,None,113.63689160000649,None,,,,,,,,,,,,,,,,,,,,,12011,1,1,2024_Jun_17_0854,stroop_task_switching2,2021.2.3,60.114831350442245,
condition/block_color,instruction/instr_color,instruction/i8,XX,yellow,j,diamond,color_single,颜色,,,,,,,,,,,0,0,0,0,0,0,0,0,0,21,21,21,,,,,,,,,,,,,,,,,,,,,,,,,,,,,,,,,,,114.63886249999632,114.83990089999861,114.82222090000869,115.12251499999547,115.12251499999547,None,115.62332039998728,None,j,1,0.8396232000086457,115.62332039998728,None,None,None,116.49138870000024,None,,,,,,,,,,,,,,,,,,,,,12011,1,1,2024_Jun_17_0854,stroop_task_switching2,2021.2.3,60.114831350442245,
condition/block_color,instruction/instr_color,instruction/i8,XX,blue,f,diamond,color_single,颜色,,,,,,,,,,,0,0,0,0,0,0,0,0,0,22,22,22,,,,,,,,,,,,,,,,,,,,,,,,,,,,,,,,,,,117.49342089999118,117.69354549999116,117.67636039998615,117.97668349999003,117.97668349999003,None,118.47750809998251,None,f,1,1.2892715000198223,118.47750809998251,None,None,None,119.77946540000266,None,,,,,,,,,,,,,,,,,,,,,12011,1,1,2024_Jun_17_0854,stroop_task_switching2,2021.2.3,60.114831350442245,
condition/block_color,instruction/instr_color,instruction/i8,XX,red,d,diamond,color_single,颜色,,,,,,,,,,,0,0,0,0,0,0,0,0,0,23,23,23,,,,,,,,,,,,,,,,,,,,,,,,,,,,,,,,,,,120.78110120000201,120.98164330000873,120.966592199984,121.26490629999898,121.26490629999898,None,121.76570899999933,None,d,1,0.5774400999944191,121.76570899999933,None,None,None,122.36674460000359,None,,,,,,,,,,,,,,,,,,,,,12011,1,1,2024_Jun_17_0854,stroop_task_switching2,2021.2.3,60.114831350442245,
condition/block_color,instruction/instr_color,instruction/i8,,,,,,,,,,,,,,,,,0,0,0,0,0,0,0,0,,,,,,,,,,,,,,,,,,,,,,,,,,,,,,,,,,,,,,,,,,,,,,,,,,,,,,,,123.40167049999582,None,space,2.6672529999923427,123.40167049999582,None,,,,,,,,,,,,,,,12011,1,1,2024_Jun_17_0854,stroop_task_switching2,2021.2.3,60.114831350442245,
condition/block_color,instruction/instr_color,instruction/i8,,,,,,,,,,,,,,,,,0,0,0,0,,,,,,,,,,,,,,,,,,,,,,,,,,,,,,,,,,,,,,,,,,,,,,,,,,,,,,,,,,,,,,,,,,,,,,,,,,,,,,,,12011,1,1,2024_Jun_17_0854,stroop_task_switching2,2021.2.3,60.114831350442245,
condition/block_word,instruction/instr_word,instruction/i9,黄,white,j,square,word_single,单词,0.0032461461866890584,,,,,,,,,,0,1,1,1,0,0,0,0,0,0,0,0,,,,,,,,,,,,,,,,,,,,,126.1055117000069,None,space,9.143294600013178,126.1055117000069,None,136.2710337000026,137.27271699998528,137.27271699998528,138.27505749999546,138.27505749999546,None,135.28653640000266,136.2888588999922,139.30970089999028,139.5100879999809,139.49338519998128,139.79312149999896,139.79312149999896,None,140.27704549999908,None,j,1,0.7543616000039037,140.27704549999908,None,None,None,141.06157990000793,None,,,,,,,,,,,,,,,,,,,,,12011,1,1,2024_Jun_17_0854,stroop_task_switching2,2021.2.3,60.114831350442245,
condition/block_word,instruction/instr_word,instruction/i9,蓝,white,f,square,word_single,单词,0.060540570646362424,,,,,,,,,,0,1,1,1,0,0,0,0,0,1,1,1,,,,,,,,,,,,,,,,,,,,,,,,,,,,,,,,,,,142.06327469999087,142.26374850000138,142.2474913999904,142.54881370000658,142.54881370000658,None,143.04774959999486,None,f,1,0.6721015000075568,143.04774959999486,None,None,None,143.7489379000035,None,,,,,,,,,,,,,,,,,,,,,12011,1,1,2024_Jun_17_0854,stroop_task_switching2,2021.2.3,60.114831350442245,
condition/block_word,instruction/instr_word,instruction/i9,黄,white,j,square,word_single,单词,0.06994067193778963,,,,,,,,,,0,1,1,1,0,0,0,0,0,2,2,2,,,,,,,,,,,,,,,,,,,,,,,,,,,,,,,,,,,144.75125269999262,144.9508174000075,144.93432369999937,145.23439110000618,145.23439110000618,None,145.73612379998667,None,j,1,1.2958136000088416,145.73612379998667,None,None,None,147.05396309998468,None,,,,,,,,,,,,,,,,,,,,,12011,1,1,2024_Jun_17_0854,stroop_task_switching2,2021.2.3,60.114831350442245,
condition/block_word,instruction/instr_word,instruction/i9,蓝,white,f,square,word_single,单词,0.08193765152950094,,,,,,,,,,0,1,1,1,0,0,0,0,0,3,3,3,,,,,,,,,,,,,,,,,,,,,,,,,,,,,,,,,,,148.0556546000007,148.25660719998996,148.23896059999242,148.54052859998774,148.54052859998774,None,149.0406893999898,None,f,1,0.7909505999996327,149.0406893999898,None,None,None,149.85814289998962,None,,,,,,,,,,,,,,,,,,,,,12011,1,1,2024_Jun_17_0854,stroop_task_switching2,2021.2.3,60.114831350442245,
condition/block_word,instruction/instr_word,instruction/i9,红,white,d,square,word_single,单词,0.1279694370605574,,,,,,,,,,0,1,1,1,0,0,0,0,0,4,4,4,,,,,,,,,,,,,,,,,,,,,,,,,,,,,,,,,,,150.85978189998423,151.06199479999486,151.04335469999933,151.34368910000194,151.34368910000194,None,151.84438450000016,None,d,1,0.32361359999049455,151.84438450000016,None,None,None,152.19523839998874,None,,,,,,,,,,,,,,,,,,,,,12011,1,1,2024_Jun_17_0854,stroop_task_switching2,2021.2.3,60.114831350442245,
condition/block_word,instruction/instr_word,instruction/i9,红,white,d,square,word_single,单词,0.18345028784879092,,,,,,,,,,0,1,1,1,0,0,0,0,0,5,5,5,,,,,,,,,,,,,,,,,,,,,,,,,,,,,,,,,,,153.19711129998905,153.39736879998236,153.38004940000246,153.68117559998063,153.68117559998063,None,154.1829674000037,None,d,1,0.5690338999847881,154.1829674000037,None,None,None,154.78217099999893,None,,,,,,,,,,,,,,,,,,,,,12011,1,1,2024_Jun_17_0854,stroop_task_switching2,2021.2.3,60.114831350442245,
condition/block_word,instruction/instr_word,instruction/i9,蓝,white,f,square,word_single,单词,0.19920386223101294,,,,,,,,,,0,1,1,1,0,0,0,0,0,6,6,6,,,,,,,,,,,,,,,,,,,,,,,,,,,,,,,,,,,155.78377909999108,155.98412109998753,155.96817419998115,156.26795360000688,156.26795360000688,None,156.76852029998554,None,f,1,0.5597749000007752,156.76852029998554,None,None,None,157.35284340000362,None,,,,,,,,,,,,,,,,,,,,,12011,1,1,2024_Jun_17_0854,stroop_task_switching2,2021.2.3,60.114831350442245,
condition/block_word,instruction/instr_word,instruction/i9,蓝,white,f,square,word_single,单词,0.26360599864925405,,,,,,,,,,0,1,1,1,0,0,0,0,0,7,7,7,,,,,,,,,,,,,,,,,,,,,,,,,,,,,,,,,,,158.35490149998805,158.55484460000298,158.53802649999852,158.84014119999483,158.84014119999483,None,159.3404043999908,None,f,1,0.8196114000165835,159.3404043999908,None,None,None,160.19083459998365,None,,,,,,,,,,,,,,,,,,,,,12011,1,1,2024_Jun_17_0854,stroop_task_switching2,2021.2.3,60.114831350442245,
condition/block_word,instruction/instr_word,instruction/i9,蓝,white,f,square,word_single,单词,0.358985675745526,,,,,,,,,,0,1,1,1,0,0,0,0,0,8,8,8,,,,,,,,,,,,,,,,,,,,,,,,,,,,,,,,,,,161.19185469998047,161.39268140000058,161.37646769999992,161.67601679998916,161.67601679998916,None,162.17661890000454,None,f,1,0.7519046000088565,162.17661890000454,None,None,None,162.9446997999912,None,,,,,,,,,,,,,,,,,,,,,12011,1,1,2024_Jun_17_0854,stroop_task_switching2,2021.2.3,60.114831350442245,
condition/block_word,instruction/instr_word,instruction/i9,绿,white,k,square,word_single,单词,0.36496733802487347,,,,,,,,,,0,1,1,1,0,0,0,0,0,9,9,9,,,,,,,,,,,,,,,,,,,,,,,,,,,,,,,,,,,163.94685929999105,164.1467646000092,164.1306753999961,164.43225089999032,164.43225089999032,None,164.9312524999841,None,k,1,0.7013893999974243,164.9312524999841,None,None,None,165.64873909999733,None,,,,,,,,,,,,,,,,,,,,,12011,1,1,2024_Jun_17_0854,stroop_task_switching2,2021.2.3,60.114831350442245,
condition/block_word,instruction/instr_word,instruction/i9,黄,white,j,square,word_single,单词,0.3743513623756727,,,,,,,,,,0,1,1,1,0,0,0,0,0,10,10,10,,,,,,,,,,,,,,,,,,,,,,,,,,,,,,,,,,,166.6503077999805,166.8503645999881,166.8346474999853,167.13421620000736,167.13421620000736,None,167.6349021999922,None,j,1,0.45391720000770874,167.6349021999922,None,None,None,168.1190607000026,None,,,,,,,,,,,,,,,,,,,,,12011,1,1,2024_Jun_17_0854,stroop_task_switching2,2021.2.3,60.114831350442245,
condition/block_word,instruction/instr_word,instruction/i9,红,white,d,square,word_single,单词,0.3894803852598544,,,,,,,,,,0,1,1,1,0,0,0,0,0,11,11,11,,,,,,,,,,,,,,,,,,,,,,,,,,,,,,,,,,,169.12055669998517,169.32093799998984,169.30428419998498,169.6053549000062,169.6053549000062,None,170.10555989999557,None,d,1,0.38340300001436844,170.10555989999557,None,None,None,170.5060106999881,None,,,,,,,,,,,,,,,,,,,,,12011,1,1,2024_Jun_17_0854,stroop_task_switching2,2021.2.3,60.114831350442245,
condition/block_word,instruction/instr_word,instruction/i9,绿,white,k,square,word_single,单词,0.5393759672408067,,,,,,,,,,0,1,1,1,0,0,0,0,0,12,12,12,,,,,,,,,,,,,,,,,,,,,,,,,,,,,,,,,,,171.5076468999905,171.70902350000688,171.69104309999966,171.9939269000024,171.9939269000024,None,172.4923760999809,None,k,1,0.5640858999977354,172.4923760999809,None,None,None,173.0765856000071,None,,,,,,,,,,,,,,,,,,,,,12011,1,1,2024_Jun_17_0854,stroop_task_switching2,2021.2.3,60.114831350442245,
condition/block_word,instruction/instr_word,instruction/i9,蓝,white,f,square,word_single,单词,0.5995731954831104,,,,,,,,,,0,1,1,1,0,0,0,0,0,13,13,13,,,,,,,,,,,,,,,,,,,,,,,,,,,,,,,,,,,174.07811689999653,174.279305700009,174.26238899998134,174.56210229999851,174.56210229999851,None,175.06285200000275,None,f,1,0.529769499989925,175.06285200000275,None,None,None,175.61372979998123,None,,,,,,,,,,,,,,,,,,,,,12011,1,1,2024_Jun_17_0854,stroop_task_switching2,2021.2.3,60.114831350442245,
condition/block_word,instruction/instr_word,instruction/i9,红,white,d,square,word_single,单词,0.6298674479151414,,,,,,,,,,0,1,1,1,0,0,0,0,0,14,14,14,,,,,,,,,,,,,,,,,,,,,,,,,,,,,,,,,,,176.61526429999503,176.8179947999888,176.79894519998925,177.099404699984,177.099404699984,None,177.60004639998078,None,d,1,0.3603747999877669,177.60004639998078,None,None,None,177.9839207000041,None,,,,,,,,,,,,,,,,,,,,,12011,1,1,2024_Jun_17_0854,stroop_task_switching2,2021.2.3,60.114831350442245,
condition/block_word,instruction/instr_word,instruction/i9,红,white,d,square,word_single,单词,0.7389942282348904,,,,,,,,,,0,1,1,1,0,0,0,0,0,15,15,15,,,,,,,,,,,,,,,,,,,,,,,,,,,,,,,,,,,178.98526600000332,179.1858050999872,179.16894450000837,179.47131570000784,179.47131570000784,None,179.98696439998457,None,d,1,0.49354789999779314,179.98696439998457,None,None,None,180.50453119998565,None,,,,,,,,,,,,,,,,,,,,,12011,1,1,2024_Jun_17_0854,stroop_task_switching2,2021.2.3,60.114831350442245,
condition/block_word,instruction/instr_word,instruction/i9,绿,white,k,square,word_single,单词,0.7550853947239682,,,,,,,,,,0,1,1,1,0,0,0,0,0,16,16,16,,,,,,,,,,,,,,,,,,,,,,,,,,,,,,,,,,,181.50612360000378,181.7062387999904,181.69156089998432,181.99065369999153,181.99065369999153,None,182.49076099999365,None,k,1,1.006074200005969,182.49076099999365,None,None,None,183.5258547999838,None,,,,,,,,,,,,,,,,,,,,,12011,1,1,2024_Jun_17_0854,stroop_task_switching2,2021.2.3,60.114831350442245,
condition/block_word,instruction/instr_word,instruction/i9,绿,white,k,square,word_single,单词,0.8019302780428206,,,,,,,,,,0,1,1,1,0,0,0,0,0,17,17,17,,,,,,,,,,,,,,,,,,,,,,,,,,,,,,,,,,,184.52809659999912,184.7285588000086,184.71194360000663,185.0111174999911,185.0111174999911,None,185.51196619999246,None,k,1,0.76090719999047,185.51196619999246,None,None,None,186.2965358000074,None,,,,,,,,,,,,,,,,,,,,,12011,1,1,2024_Jun_17_0854,stroop_task_switching2,2021.2.3,60.114831350442245,
condition/block_word,instruction/instr_word,instruction/i9,绿,white,k,square,word_single,单词,0.8110702914095343,,,,,,,,,,0,1,1,1,0,0,0,0,0,18,18,18,,,,,,,,,,,,,,,,,,,,,,,,,,,,,,,,,,,187.2980619999871,187.4982514999865,187.48262819999945,187.78336909998325,187.78336909998325,None,188.28296569999657,None,k,1,0.6697945999912918,188.28296569999657,None,None,None,188.9671306000091,None,,,,,,,,,,,,,,,,,,,,,12011,1,1,2024_Jun_17_0854,stroop_task_switching2,2021.2.3,60.114831350442245,
condition/block_word,instruction/instr_word,instruction/i9,黄,white,j,square,word_single,单词,0.8176594937590999,,,,,,,,,,0,1,1,1,0,0,0,0,0,19,19,19,,,,,,,,,,,,,,,,,,,,,,,,,,,,,,,,,,,189.96848879999015,190.1688377999817,190.15305379999336,190.45275440000114,190.45275440000114,None,190.95361100000446,None,j,1,0.8473565999884158,190.95361100000446,None,None,None,191.82141319999937,None,,,,,,,,,,,,,,,,,,,,,12011,1,1,2024_Jun_17_0854,stroop_task_switching2,2021.2.3,60.114831350442245,
condition/block_word,instruction/instr_word,instruction/i9,红,white,d,square,word_single,单词,0.8955794421104841,,,,,,,,,,0,1,1,1,0,0,0,0,0,20,20,20,,,,,,,,,,,,,,,,,,,,,,,,,,,,,,,,,,,192.8239690999908,193.02353360000416,193.00648119999096,193.3074162999983,193.3074162999983,None,193.8084486000007,None,d,1,0.32030760002089664,193.8084486000007,None,None,None,194.1583787999989,None,,,,,,,,,,,,,,,,,,,,,12011,1,1,2024_Jun_17_0854,stroop_task_switching2,2021.2.3,60.114831350442245,
condition/block_word,instruction/instr_word,instruction/i9,绿,white,k,square,word_single,单词,0.9113598052474129,,,,,,,,,,0,1,1,1,0,0,0,0,0,21,21,21,,,,,,,,,,,,,,,,,,,,,,,,,,,,,,,,,,,195.15987159998622,195.36062269998365,195.3435393999971,195.64542889999575,195.64542889999575,None,196.14466339998762,None,k,1,0.4405191000259947,196.14466339998762,None,None,None,196.61191239999607,None,,,,,,,,,,,,,,,,,,,,,12011,1,1,2024_Jun_17_0854,stroop_task_switching2,2021.2.3,60.114831350442245,
condition/block_word,instruction/instr_word,instruction/i9,黄,white,j,square,word_single,单词,0.9215930958042953,,,,,,,,,,0,1,1,1,0,0,0,0,0,22,22,22,,,,,,,,,,,,,,,,,,,,,,,,,,,,,,,,,,,197.6139034999942,197.81397689998266,197.79814969998552,198.09814570000162,198.09814570000162,None,198.59845540000242,None,j,1,0.618907299998682,198.59845540000242,None,None,None,199.2325925999903,None,,,,,,,,,,,,,,,,,,,,,12011,1,1,2024_Jun_17_0854,stroop_task_switching2,2021.2.3,60.114831350442245,
condition/block_word,instruction/instr_word,instruction/i9,黄,white,j,square,word_single,单词,0.9493525498837774,,,,,,,,,,0,1,1,1,0,0,0,0,0,23,23,23,,,,,,,,,,,,,,,,,,,,,,,,,,,,,,,,,,,200.23429779999424,200.43447179999202,200.41863699999521,200.71883619998698,200.71883619998698,None,201.2189424999815,None,j,1,0.6702112999919336,201.2189424999815,None,None,None,201.9199769999832,None,,,,,,,,,,,,,,,,,,,,,12011,1,1,2024_Jun_17_0854,stroop_task_switching2,2021.2.3,60.114831350442245,
condition/block_word,instruction/instr_word,instruction/i9,,,,,,,,,,,,,,,,,0,1,1,1,0,0,0,0,,,,,,,,,,,,,,,,,,,,,,,,,,,,,,,,,,,,,,,,,,,,,,,,,,,,,,,,202.93991009998717,None,space,2.6241498999879695,202.93991009998717,None,,,,,,,,,,,,,,,12011,1,1,2024_Jun_17_0854,stroop_task_switching2,2021.2.3,60.114831350442245,
condition/block_word,instruction/instr_word,instruction/i9,,,,,,,,,,,,,,,,,0,1,1,1,,,,,,,,,,,,,,,,,,,,,,,,,,,,,,,,,,,,,,,,,,,,,,,,,,,,,,,,,,,,,,,,,,,,,,,,,,,,,,,,12011,1,1,2024_Jun_17_0854,stroop_task_switching2,2021.2.3,60.114831350442245,
condition/block_mixed,instruction/instr_mixed,instruction/i10,蓝,red,d,diamond,color_mix,颜色,,incompatible,0,,,,,,,,0,2,2,2,0,0,0,0,0,0,0,0,,,,,,,,,,,,,,,,,,,,,205.60882850000053,None,space,12.275750400003744,205.60882850000053,None,218.91240539998398,219.91460339998594,219.91460339998594,220.91714000000502,220.91714000000502,None,217.92841059999773,218.93042920000153,221.95095440000296,222.15257439998095,222.13401049998356,222.43471100000897,222.43471100000897,None,222.91836239999975,None,d,1,0.4674745000083931,222.91836239999975,None,None,None,223.40233230000013,None,,,,,,,,,,,,,,,,,,,,,12011,1,1,2024_Jun_17_0854,stroop_task_switching2,2021.2.3,60.114831350442245,
condition/block_mixed,instruction/instr_mixed,instruction/i10,绿,yellow,j,diamond,color_mix,颜色,,incompatible,1,,,,,,,,0,2,2,2,0,0,0,0,0,1,1,1,,,,,,,,,,,,,,,,,,,,,,,,,,,,,,,,,,,224.40394069999456,224.6049297999998,224.5898307999887,224.90602249998483,224.88815590000013,None,225.39016449998599,None,j,1,0.5559378000034485,225.39016449998599,None,None,None,225.97289849998197,None,,,,,,,,,,,,,,,,,,,,,12011,1,1,2024_Jun_17_0854,stroop_task_switching2,2021.2.3,60.114831350442245,
condition/block_mixed,instruction/instr_mixed,instruction/i10,红,green,k,diamond,color_mix,颜色,,incompatible,1,,,,,,,,0,2,2,2,0,0,0,0,0,2,2,2,,,,,,,,,,,,,,,,,,,,,,,,,,,,,,,,,,,226.97458499998902,227.1759242999833,227.15811079999548,227.45977180000045,227.45977180000045,None,227.96038659999613,None,k,1,0.689760799985379,227.96038659999613,None,None,None,228.67704889999004,None,,,,,,,,,,,,,,,,,,,,,12011,1,1,2024_Jun_17_0854,stroop_task_switching2,2021.2.3,60.114831350442245,
condition/block_mixed,instruction/instr_mixed,instruction/i10,蓝,red,d,diamond,color_mix,颜色,,incompatible,1,,,,,,,,0,2,2,2,0,0,0,0,0,3,3,3,,,,,,,,,,,,,,,,,,,,,,,,,,,,,,,,,,,229.6786698999931,229.8788521999959,229.8640005000052,230.17916430000332,230.16395709998324,None,230.66427760000806,None,d,1,0.6504469999927096,230.66427760000806,None,None,None,231.33099469999433,None,,,,,,,,,,,,,,,,,,,,,12011,1,1,2024_Jun_17_0854,stroop_task_switching2,2021.2.3,60.114831350442245,
condition/block_mixed,instruction/instr_mixed,instruction/i10,红,blue,f,diamond,color_mix,颜色,,incompatible,1,,,,,,,,0,2,2,2,0,0,0,0,0,4,4,4,,,,,,,,,,,,,,,,,,,,,,,,,,,,,,,,,,,232.33263809999335,232.53275049998774,232.5175367000047,232.81860679999227,232.81860679999227,None,233.33426360000158,None,f,1,1.0519620999984909,233.33426360000158,None,None,None,234.4024337999872,None,,,,,,,,,,,,,,,,,,,,,12011,1,1,2024_Jun_17_0854,stroop_task_switching2,2021.2.3,60.114831350442245,
condition/block_mixed,instruction/instr_mixed,instruction/i10,红,blue,d,square,color_mix,单词,,incompatible,2,,,,,,,,0,2,2,2,0,0,0,0,0,5,5,5,,,,,,,,,,,,,,,,,,,,,,,,,,,,,,,,,,,235.40399319998687,235.60526219999883,235.5875350999995,235.88845020000008,235.88845020000008,None,236.3896311999997,None,f,0,0.9810204000095837,236.3896311999997,None,None,None,237.39007200000924,None,,,,,,,,,,,,,,,,,,,,,12011,1,1,2024_Jun_17_0854,stroop_task_switching2,2021.2.3,60.114831350442245,
condition/block_mixed,instruction/instr_mixed,instruction/i10,红,yellow,j,diamond,color_mix,颜色,,incompatible,2,,,,,,,,0,2,2,2,0,0,0,0,0,6,6,6,,,,,,,,,,,,,,,,,,,,,,,,,,,,,,,,,,,238.39179999998305,238.59202939999523,238.57621440000366,238.87575969999307,238.87575969999307,None,239.3766027999809,None,d,0,1.2581248999922536,239.3766027999809,None,None,None,240.66181719998713,None,,,,,,,,,,,,,,,,,,,,,12011,1,1,2024_Jun_17_0854,stroop_task_switching2,2021.2.3,60.114831350442245,
condition/block_mixed,instruction/instr_mixed,instruction/i10,红,yellow,d,square,color_mix,单词,,incompatible,2,,,,,,,,0,2,2,2,0,0,0,0,0,7,7,7,,,,,,,,,,,,,,,,,,,,,,,,,,,,,,,,,,,241.66339949998655,241.86600529999123,241.84718039998552,242.14746310000191,242.14746310000191,None,242.64884179999353,None,j,0,0.9214219000132289,242.64884179999353,None,None,None,243.59969959998853,None,,,,,,,,,,,,,,,,,,,,,12011,1,1,2024_Jun_17_0854,stroop_task_switching2,2021.2.3,60.114831350442245,
condition/block_mixed,instruction/instr_mixed,instruction/i10,绿,blue,k,square,color_mix,单词,,incompatible,1,,,,,,,,0,2,2,2,0,0,0,0,0,8,8,8,,,,,,,,,,,,,,,,,,,,,,,,,,,,,,,,,,,244.6012069999997,244.80238159999135,244.78482729999814,245.0859530000016,245.0859530000016,None,245.58718850000878,248.59131319998414,None,0,,245.58718850000878,248.59131319998414,248.5737686000066,None,249.25930179998977,None,,,,,,,,,,,,,,,,,,,,,12011,1,1,2024_Jun_17_0854,stroop_task_switching2,2021.2.3,60.114831350442245,
condition/block_mixed,instruction/instr_mixed,instruction/i10,蓝,green,k,diamond,color_mix,颜色,,incompatible,2,,,,,,,,0,2,2,2,0,0,0,0,0,9,9,9,,,,,,,,,,,,,,,,,,,,,,,,,,,,,,,,,,,250.2596440000052,250.46087989999796,250.444009800005,250.74413239999558,250.74413239999558,None,251.244323299994,None,k,1,1.0064014999952633,251.244323299994,None,None,None,252.2794406999892,None,,,,,,,,,,,,,,,,,,,,,12011,1,1,2024_Jun_17_0854,stroop_task_switching2,2021.2.3,60.114831350442245,
condition/block_mixed,instruction/instr_mixed,instruction/i10,蓝,yellow,f,square,color_mix,单词,,incompatible,2,,,,,,,,0,2,2,2,0,0,0,0,0,10,10,10,,,,,,,,,,,,,,,,,,,,,,,,,,,,,,,,,,,253.28072029998293,253.4811814999848,253.46453110000584,253.7658575999958,253.7658575999958,None,254.2655473999912,None,f,1,0.9691736999957357,254.2655473999912,None,None,None,255.2504920999927,None,,,,,,,,,,,,,,,,,,,,,12011,1,1,2024_Jun_17_0854,stroop_task_switching2,2021.2.3,60.114831350442245,
condition/block_mixed,instruction/instr_mixed,instruction/i10,蓝,green,f,square,color_mix,单词,,incompatible,1,,,,,,,,0,2,2,2,0,0,0,0,0,11,11,11,,,,,,,,,,,,,,,,,,,,,,,,,,,,,,,,,,,256.2522139000066,256.4523772999819,256.43791330000386,256.7543866999913,256.7359410999925,None,257.2368840999843,None,f,1,0.8061152000154834,257.2368840999843,None,None,None,258.07149840000784,None,,,,,,,,,,,,,,,,,,,,,12011,1,1,2024_Jun_17_0854,stroop_task_switching2,2021.2.3,60.114831350442245,
condition/block_mixed,instruction/instr_mixed,instruction/i10,绿,yellow,k,square,color_mix,单词,,incompatible,1,,,,,,,,0,2,2,2,0,0,0,0,0,12,12,12,,,,,,,,,,,,,,,,,,,,,,,,,,,,,,,,,,,259.07291650000843,259.2734058999922,259.2569955000072,259.55778410000494,259.55778410000494,None,260.0577076000045,None,k,1,1.0819164999993518,260.0577076000045,None,None,None,261.1593695000047,None,,,,,,,,,,,,,,,,,,,,,12011,1,1,2024_Jun_17_0854,stroop_task_switching2,2021.2.3,60.114831350442245,
condition/block_mixed,instruction/instr_mixed,instruction/i10,绿,blue,f,diamond,color_mix,颜色,,incompatible,2,,,,,,,,0,2,2,2,0,0,0,0,0,13,13,13,,,,,,,,,,,,,,,,,,,,,,,,,,,,,,,,,,,262.1609513000003,262.3620732999989,262.3444546999817,262.6449966999935,262.6449966999935,None,263.14733829998295,None,f,1,0.7116343000088818,263.14733829998295,None,None,None,263.8801525000017,None,,,,,,,,,,,,,,,,,,,,,12011,1,1,2024_Jun_17_0854,stroop_task_switching2,2021.2.3,60.114831350442245,
condition/block_mixed,instruction/instr_mixed,instruction/i10,黄,red,j,square,color_mix,单词,,incompatible,2,,,,,,,,0,2,2,2,0,0,0,0,0,14,14,14,,,,,,,,,,,,,,,,,,,,,,,,,,,,,,,,,,,264.8818241999834,265.0832917999942,265.06533759998274,265.3669225999911,265.3669225999911,None,265.86755429999903,None,j,1,1.751577900024131,265.86755429999903,None,None,None,267.63568320000195,None,,,,,,,,,,,,,,,,,,,,,12011,1,1,2024_Jun_17_0854,stroop_task_switching2,2021.2.3,60.114831350442245,
condition/block_mixed,instruction/instr_mixed,instruction/i10,蓝,yellow,j,diamond,color_mix,颜色,,incompatible,2,,,,,,,,0,2,2,2,0,0,0,0,0,15,15,15,,,,,,,,,,,,,,,,,,,,,,,,,,,,,,,,,,,268.6374804000079,268.8384880000085,268.82105440000305,269.12151689999155,269.12151689999155,None,269.622234999988,None,j,1,0.8770350000122562,269.622234999988,None,None,None,270.5234538000077,None,,,,,,,,,,,,,,,,,,,,,12011,1,1,2024_Jun_17_0854,stroop_task_switching2,2021.2.3,60.114831350442245,
condition/block_mixed,instruction/instr_mixed,instruction/i10,黄,red,d,diamond,color_mix,颜色,,incompatible,1,,,,,,,,0,2,2,2,0,0,0,0,0,16,16,16,,,,,,,,,,,,,,,,,,,,,,,,,,,,,,,,,,,271.52505339999334,271.72611109999707,271.7085892999894,272.0092061999894,272.0092061999894,None,272.5097502999997,None,d,1,0.7413489000173286,272.5097502999997,None,None,None,273.2777569000027,None,,,,,,,,,,,,,,,,,,,,,12011,1,1,2024_Jun_17_0854,stroop_task_switching2,2021.2.3,60.114831350442245,
condition/block_mixed,instruction/instr_mixed,instruction/i10,绿,red,k,square,color_mix,单词,,incompatible,2,,,,,,,,0,2,2,2,0,0,0,0,0,17,17,17,,,,,,,,,,,,,,,,,,,,,,,,,,,,,,,,,,,274.2796420000086,274.4819365000003,274.46279530000174,274.76324040000327,274.76324040000327,None,275.2650810999912,None,k,1,1.6023178000177722,275.2650810999912,None,None,None,276.88305430000764,None,,,,,,,,,,,,,,,,,,,,,12011,1,1,2024_Jun_17_0854,stroop_task_switching2,2021.2.3,60.114831350442245,
condition/block_mixed,instruction/instr_mixed,instruction/i10,红,green,d,square,color_mix,单词,,incompatible,1,,,,,,,,0,2,2,2,0,0,0,0,0,18,18,18,,,,,,,,,,,,,,,,,,,,,,,,,,,,,,,,,,,277.8852993999899,278.08502689999295,278.0689105000056,278.3687723999901,278.3687723999901,None,278.87045610000496,None,d,1,0.8770056000212207,278.87045610000496,None,None,None,279.77076709998073,None,,,,,,,,,,,,,,,,,,,,,12011,1,1,2024_Jun_17_0854,stroop_task_switching2,2021.2.3,60.114831350442245,
condition/block_mixed,instruction/instr_mixed,instruction/i10,黄,blue,f,diamond,color_mix,颜色,,incompatible,2,,,,,,,,0,2,2,2,0,0,0,0,0,19,19,19,,,,,,,,,,,,,,,,,,,,,,,,,,,,,,,,,,,280.77231239998946,280.97251540000434,280.9559411999944,281.2571304999874,281.2571304999874,None,281.75851709998096,None,f,1,0.860747500002617,281.75851709998096,None,None,None,282.6415754999907,None,,,,,,,,,,,,,,,,,,,,,12011,1,1,2024_Jun_17_0854,stroop_task_switching2,2021.2.3,60.114831350442245,
condition/block_mixed,instruction/instr_mixed,instruction/i10,黄,green,k,diamond,color_mix,颜色,,incompatible,1,,,,,,,,0,2,2,2,0,0,0,0,0,20,20,20,,,,,,,,,,,,,,,,,,,,,,,,,,,,,,,,,,,283.6433512000076,283.84502589999465,283.8277133000083,284.1282801000052,284.1282801000052,None,284.62811550000333,None,k,1,0.8712524000147823,284.62811550000333,None,None,None,285.5294628999836,None,,,,,,,,,,,,,,,,,,,,,12011,1,1,2024_Jun_17_0854,stroop_task_switching2,2021.2.3,60.114831350442245,
condition/block_mixed,instruction/instr_mixed,instruction/i10,黄,green,j,square,color_mix,单词,,incompatible,2,,,,,,,,0,2,2,2,0,0,0,0,0,21,21,21,,,,,,,,,,,,,,,,,,,,,,,,,,,,,,,,,,,286.5314231000084,286.73263489999226,286.714647899993,287.0159304999979,287.0159304999979,None,287.5157557000057,None,j,1,1.4397966999968048,287.5157557000057,None,None,None,288.98468329999014,None,,,,,,,,,,,,,,,,,,,,,12011,1,1,2024_Jun_17_0854,stroop_task_switching2,2021.2.3,60.114831350442245,
condition/block_mixed,instruction/instr_mixed,instruction/i10,黄,blue,j,square,color_mix,单词,,incompatible,1,,,,,,,,0,2,2,2,0,0,0,0,0,22,22,22,,,,,,,,,,,,,,,,,,,,,,,,,,,,,,,,,,,289.98687470000004,290.1875092999835,290.1696005999984,290.4702103000018,290.4702103000018,None,290.971318099997,None,j,1,0.9522663000097964,290.971318099997,None,None,None,291.9391239999968,None,,,,,,,,,,,,,,,,,,,,,12011,1,1,2024_Jun_17_0854,stroop_task_switching2,2021.2.3,60.114831350442245,
condition/block_mixed,instruction/instr_mixed,instruction/i10,蓝,red,f,square,color_mix,单词,,incompatible,1,,,,,,,,0,2,2,2,0,0,0,0,0,23,23,23,,,,,,,,,,,,,,,,,,,,,,,,,,,,,,,,,,,292.9405404999852,293.1411525000003,293.12428649998037,293.4268180000072,293.4268180000072,None,293.9255950000079,None,f,1,1.3582939000043552,293.9255950000079,None,None,None,295.31079429999227,None,,,,,,,,,,,,,,,,,,,,,12011,1,1,2024_Jun_17_0854,stroop_task_switching2,2021.2.3,60.114831350442245,
condition/block_mixed,instruction/instr_mixed,instruction/i10,绿,red,d,diamond,color_mix,颜色,,incompatible,2,,,,,,,,0,2,2,2,0,0,0,0,0,24,24,24,,,,,,,,,,,,,,,,,,,,,,,,,,,,,,,,,,,296.3132748999924,296.5139986999857,296.4961765999906,296.7984867999912,296.7984867999912,None,297.29709869998624,None,d,1,0.3705695999960881,297.29709869998624,None,None,None,297.69818219999433,None,,,,,,,,,,,,,,,,,,,,,12011,1,1,2024_Jun_17_0854,stroop_task_switching2,2021.2.3,60.114831350442245,
condition/block_mixed,instruction/instr_mixed,instruction/i10,绿,green,k,diamond,color_mix,颜色,,compatible,1,,,,,,,,0,2,2,2,0,0,0,0,0,25,25,25,,,,,,,,,,,,,,,,,,,,,,,,,,,,,,,,,,,298.6993919000088,298.9008523999946,298.8830862999894,299.1840671999962,299.1840671999962,None,299.68405079998774,None,k,1,1.0796596999862231,299.68405079998774,None,None,None,300.78558639998664,None,,,,,,,,,,,,,,,,,,,,,12011,1,1,2024_Jun_17_0854,stroop_task_switching2,2021.2.3,60.114831350442245,
condition/block_mixed,instruction/instr_mixed,instruction/i10,蓝,blue,f,diamond,color_mix,颜色,,compatible,1,,,,,,,,0,2,2,2,0,0,0,0,0,26,26,26,,,,,,,,,,,,,,,,,,,,,,,,,,,,,,,,,,,301.78736439999193,301.9885580999835,301.97087889999966,302.27303449998726,302.27303449998726,None,302.7721414999978,None,f,1,1.9200143000052776,302.7721414999978,None,None,None,304.7084043000068,None,,,,,,,,,,,,,,,,,,,,,12011,1,1,2024_Jun_17_0854,stroop_task_switching2,2021.2.3,60.114831350442245,
condition/block_mixed,instruction/instr_mixed,instruction/i10,绿,green,k,square,color_mix,单词,,compatible,2,,,,,,,,0,2,2,2,0,0,0,0,0,27,27,27,,,,,,,,,,,,,,,,,,,,,,,,,,,,,,,,,,,305.71075729999575,305.91079669998726,305.8934207999846,306.1939977000002,306.1939977000002,None,306.6947492999898,None,k,1,0.989289999997709,306.6947492999898,None,None,None,307.7132038999989,None,,,,,,,,,,,,,,,,,,,,,12011,1,1,2024_Jun_17_0854,stroop_task_switching2,2021.2.3,60.114831350442245,
condition/block_mixed,instruction/instr_mixed,instruction/i10,绿,green,k,square,color_mix,单词,,compatible,1,,,,,,,,0,2,2,2,0,0,0,0,0,28,28,28,,,,,,,,,,,,,,,,,,,,,,,,,,,,,,,,,,,308.71437739999965,308.91507759998785,308.89902159999474,309.19958469999256,309.19958469999256,None,309.69943360000616,None,k,1,0.8727562999993097,309.69943360000616,None,None,None,310.600655599992,None,,,,,,,,,,,,,,,,,,,,,12011,1,1,2024_Jun_17_0854,stroop_task_switching2,2021.2.3,60.114831350442245,
condition/block_mixed,instruction/instr_mixed,instruction/i10,蓝,blue,f,square,color_mix,单词,,compatible,1,,,,,,,,0,2,2,2,0,0,0,0,0,29,29,29,,,,,,,,,,,,,,,,,,,,,,,,,,,,,,,,,,,311.6020460999862,311.8033179999911,311.7857536000083,312.08637820000877,312.08637820000877,None,312.58699919999344,None,f,1,1.1612558000197168,312.58699919999344,None,None,None,313.7720510000072,None,,,,,,,,,,,,,,,,,,,,,12011,1,1,2024_Jun_17_0854,stroop_task_switching2,2021.2.3,60.114831350442245,
condition/block_mixed,instruction/instr_mixed,instruction/i10,黄,yellow,j,diamond,color_mix,颜色,,compatible,2,,,,,,,,0,2,2,2,0,0,0,0,0,30,30,30,,,,,,,,,,,,,,,,,,,,,,,,,,,,,,,,,,,314.7735373000032,314.9748729999992,314.95787330000894,315.2575907999999,315.2575907999999,None,315.7593685000029,None,j,1,0.6452593999856617,315.7593685000029,None,None,None,316.4261014999938,None,,,,,,,,,,,,,,,,,,,,,12011,1,1,2024_Jun_17_0854,stroop_task_switching2,2021.2.3,60.114831350442245,
condition/block_mixed,instruction/instr_mixed,instruction/i10,绿,green,k,square,color_mix,单词,,compatible,2,,,,,,,,0,2,2,2,0,0,0,0,0,31,31,31,,,,,,,,,,,,,,,,,,,,,,,,,,,,,,,,,,,317.4276237000013,317.6295933999936,317.610941299994,317.9118682999979,317.9118682999979,None,318.4123422999983,None,k,1,0.8320262000197545,318.4123422999983,None,None,None,319.26374309998937,None,,,,,,,,,,,,,,,,,,,,,12011,1,1,2024_Jun_17_0854,stroop_task_switching2,2021.2.3,60.114831350442245,
condition/block_mixed,instruction/instr_mixed,instruction/i10,黄,yellow,j,square,color_mix,单词,,compatible,1,,,,,,,,0,2,2,2,0,0,0,0,0,32,32,32,,,,,,,,,,,,,,,,,,,,,,,,,,,,,,,,,,,320.2651527999842,320.465541499987,320.4508479000069,320.7660143999965,320.7510910999845,None,321.2504786000063,None,j,1,0.8742494999896735,321.2504786000063,None,None,None,322.1521385999804,None,,,,,,,,,,,,,,,,,,,,,12011,1,1,2024_Jun_17_0854,stroop_task_switching2,2021.2.3,60.114831350442245,
condition/block_mixed,instruction/instr_mixed,instruction/i10,绿,green,k,diamond,color_mix,颜色,,compatible,2,,,,,,,,0,2,2,2,0,0,0,0,0,33,33,33,,,,,,,,,,,,,,,,,,,,,,,,,,,,,,,,,,,323.1528629999957,323.3540410999849,323.3377904999943,323.6375046999892,323.6375046999892,None,324.1379163999809,None,k,1,0.674683899997035,324.1379163999809,None,None,None,324.8389285999874,None,,,,,,,,,,,,,,,,,,,,,12011,1,1,2024_Jun_17_0854,stroop_task_switching2,2021.2.3,60.114831350442245,
condition/block_mixed,instruction/instr_mixed,instruction/i10,红,red,d,square,color_mix,单词,,compatible,2,,,,,,,,0,2,2,2,0,0,0,0,0,34,34,34,,,,,,,,,,,,,,,,,,,,,,,,,,,,,,,,,,,325.8402558999951,326.0427945999836,326.02450100000715,326.325589199987,326.325589199987,None,326.82488719999674,None,d,1,0.46846410000580363,326.82488719999674,None,None,None,327.3098233999917,None,,,,,,,,,,,,,,,,,,,,,12011,1,1,2024_Jun_17_0854,stroop_task_switching2,2021.2.3,60.114831350442245,
condition/block_mixed,instruction/instr_mixed,instruction/i10,黄,yellow,j,square,color_mix,单词,,compatible,1,,,,,,,,0,2,2,2,0,0,0,0,0,35,35,35,,,,,,,,,,,,,,,,,,,,,,,,,,,,,,,,,,,328.3106697000039,328.5109172000084,328.4943216999818,328.7954397999856,328.7954397999856,None,329.29550229999586,None,j,1,0.9412207999848761,329.29550229999586,None,None,None,330.2635897999862,None,,,,,,,,,,,,,,,,,,,,,12011,1,1,2024_Jun_17_0854,stroop_task_switching2,2021.2.3,60.114831350442245,
condition/block_mixed,instruction/instr_mixed,instruction/i10,绿,green,k,diamond,color_mix,颜色,,compatible,2,,,,,,,,0,2,2,2,0,0,0,0,0,36,36,36,,,,,,,,,,,,,,,,,,,,,,,,,,,,,,,,,,,331.26511390000815,331.46557679999387,331.4495074999868,331.7503943000047,331.7503943000047,None,332.2500486999925,None,k,1,1.2912480999948457,332.2500486999925,None,None,None,333.5687160999805,None,,,,,,,,,,,,,,,,,,,,,12011,1,1,2024_Jun_17_0854,stroop_task_switching2,2021.2.3,60.114831350442245,
condition/block_mixed,instruction/instr_mixed,instruction/i10,蓝,blue,f,square,color_mix,单词,,compatible,2,,,,,,,,0,2,2,2,0,0,0,0,0,37,37,37,,,,,,,,,,,,,,,,,,,,,,,,,,,,,,,,,,,334.5702619999938,334.770325599995,334.7545825999987,335.05416269999114,335.05416269999114,None,335.5562887999986,None,f,1,1.936798299982911,335.5562887999986,None,None,None,337.50787780000246,None,,,,,,,,,,,,,,,,,,,,,12011,1,1,2024_Jun_17_0854,stroop_task_switching2,2021.2.3,60.114831350442245,
condition/block_mixed,instruction/instr_mixed,instruction/i10,红,red,d,square,color_mix,单词,,compatible,1,,,,,,,,0,2,2,2,0,0,0,0,0,38,38,38,,,,,,,,,,,,,,,,,,,,,,,,,,,,,,,,,,,338.50945499999216,338.7096415999986,338.69309719998273,338.9935009999899,338.9935009999899,None,339.49499770000693,None,d,1,0.4628046000143513,339.49499770000693,None,None,None,339.9786594999896,None,,,,,,,,,,,,,,,,,,,,,12011,1,1,2024_Jun_17_0854,stroop_task_switching2,2021.2.3,60.114831350442245,
condition/block_mixed,instruction/instr_mixed,instruction/i10,黄,yellow,j,diamond,color_mix,颜色,,compatible,2,,,,,,,,0,2,2,2,0,0,0,0,0,39,39,39,,,,,,,,,,,,,,,,,,,,,,,,,,,,,,,,,,,340.98088600000483,341.1818988999876,341.1633115999866,341.46445269999094,341.46445269999094,None,341.9654370000062,None,j,1,1.9522833000228275,341.9654370000062,None,None,None,343.93406679999316,None,,,,,,,,,,,,,,,,,,,,,12011,1,1,2024_Jun_17_0854,stroop_task_switching2,2021.2.3,60.114831350442245,
condition/block_mixed,instruction/instr_mixed,instruction/i10,黄,yellow,j,square,color_mix,单词,,compatible,2,,,,,,,,0,2,2,2,0,0,0,0,0,40,40,40,,,,,,,,,,,,,,,,,,,,,,,,,,,,,,,,,,,344.93601320000016,345.1360936999845,345.12004650000017,345.4197029999923,345.4197029999923,None,345.92060250000213,None,j,1,1.1168546999979299,345.92060250000213,None,None,None,347.0555511999992,None,,,,,,,,,,,,,,,,,,,,,12011,1,1,2024_Jun_17_0854,stroop_task_switching2,2021.2.3,60.114831350442245,
condition/block_mixed,instruction/instr_mixed,instruction/i10,蓝,blue,f,square,color_mix,单词,,compatible,1,,,,,,,,0,2,2,2,0,0,0,0,0,41,41,41,,,,,,,,,,,,,,,,,,,,,,,,,,,,,,,,,,,348.05722779998905,348.25757849999354,348.2427728000039,348.5585158999893,348.5428513000079,None,349.04191460000584,None,f,1,0.8191772999998648,349.04191460000584,None,None,None,349.8932160999975,None,,,,,,,,,,,,,,,,,,,,,12011,1,1,2024_Jun_17_0854,stroop_task_switching2,2021.2.3,60.114831350442245,
condition/block_mixed,instruction/instr_mixed,instruction/i10,蓝,blue,f,diamond,color_mix,颜色,,compatible,2,,,,,,,,0,2,2,2,0,0,0,0,0,42,42,42,,,,,,,,,,,,,,,,,,,,,,,,,,,,,,,,,,,350.89472409998416,351.0955062999856,351.07831429998623,351.3789359999937,351.3789359999937,None,351.8796294000058,None,f,1,0.5737713999988046,351.8796294000058,None,None,None,352.4805456000031,None,,,,,,,,,,,,,,,,,,,,,12011,1,1,2024_Jun_17_0854,stroop_task_switching2,2021.2.3,60.114831350442245,
condition/block_mixed,instruction/instr_mixed,instruction/i10,黄,yellow,j,diamond,color_mix,颜色,,compatible,1,,,,,,,,0,2,2,2,0,0,0,0,0,43,43,43,,,,,,,,,,,,,,,,,,,,,,,,,,,,,,,,,,,353.4820234999934,353.68324620000203,353.66560439998284,353.9659536999825,353.9659536999825,None,354.4668959999981,None,j,1,0.8584514000103809,354.4668959999981,None,None,None,355.351488299988,None,,,,,,,,,,,,,,,,,,,,,12011,1,1,2024_Jun_17_0854,stroop_task_switching2,2021.2.3,60.114831350442245,
condition/block_mixed,instruction/instr_mixed,instruction/i10,红,red,d,diamond,color_mix,颜色,,compatible,1,,,,,,,,0,2,2,2,0,0,0,0,0,44,44,44,,,,,,,,,,,,,,,,,,,,,,,,,,,,,,,,,,,356.3529797999945,356.5533604999946,356.5373120000004,356.83778179998626,356.83778179998626,None,357.33794090000447,None,d,1,0.3473568999907002,357.33794090000447,None,None,None,357.7052788999863,None,,,,,,,,,,,,,,,,,,,,,12011,1,1,2024_Jun_17_0854,stroop_task_switching2,2021.2.3,60.114831350442245,
condition/block_mixed,instruction/instr_mixed,instruction/i10,蓝,blue,f,diamond,color_mix,颜色,,compatible,1,,,,,,,,0,2,2,2,0,0,0,0,0,45,45,45,,,,,,,,,,,,,,,,,,,,,,,,,,,,,,,,,,,358.7065241000091,358.90818199998466,358.8901595000061,359.19103170000017,359.19103170000017,None,359.69137759998557,None,f,1,0.6022252999828197,359.69137759998557,None,None,None,360.3093722999911,None,,,,,,,,,,,,,,,,,,,,,12011,1,1,2024_Jun_17_0854,stroop_task_switching2,2021.2.3,60.114831350442245,
condition/block_mixed,instruction/instr_mixed,instruction/i10,红,red,d,diamond,color_mix,颜色,,compatible,1,,,,,,,,0,2,2,2,0,0,0,0,0,46,46,46,,,,,,,,,,,,,,,,,,,,,,,,,,,,,,,,,,,361.31019459999516,361.51213899999857,361.49401679998846,361.7947906999907,361.7947906999907,None,362.2951609999873,None,d,1,0.5662530999979936,362.2951609999873,None,None,None,362.87958989999606,None,,,,,,,,,,,,,,,,,,,,,12011,1,1,2024_Jun_17_0854,stroop_task_switching2,2021.2.3,60.114831350442245,
condition/block_mixed,instruction/instr_mixed,instruction/i10,红,red,d,square,color_mix,单词,,compatible,2,,,,,,,,0,2,2,2,0,0,0,0,0,47,47,47,,,,,,,,,,,,,,,,,,,,,,,,,,,,,,,,,,,363.8808938000002,364.0815637999913,364.0644592999888,364.36558529999456,364.36558529999456,None,364.8658187999972,None,d,1,0.4841788999910932,364.8658187999972,None,None,None,365.3664071999956,None,,,,,,,,,,,,,,,,,,,,,12011,1,1,2024_Jun_17_0854,stroop_task_switching2,2021.2.3,60.114831350442245,
condition/block_mixed,instruction/instr_mixed,instruction/i10,红,red,d,diamond,color_mix,颜色,,compatible,2,,,,,,,,0,2,2,2,0,0,0,0,0,48,48,48,,,,,,,,,,,,,,,,,,,,,,,,,,,,,,,,,,,366.36806989999604,366.56830469999113,366.5520395000058,366.8531188000052,366.8531188000052,None,367.3530583999818,None,d,1,0.32467309999628924,367.3530583999818,None,None,None,367.70351429999573,None,,,,,,,,,,,,,,,,,,,,,12011,1,1,2024_Jun_17_0854,stroop_task_switching2,2021.2.3,60.114831350442245,
condition/block_mixed,instruction/instr_mixed,instruction/i10,,,,,,,,,,,,,,,,,0,2,2,2,0,0,0,0,,,,,,,,,,,,,,,,,,,,,,,,,,,,,,,,,,,,,,,,,,,,,,,,,,,,,,,,368.70453419999103,None,space,11.088815399998566,368.70453419999103,None,,,,,,,,,,,,,,,12011,1,1,2024_Jun_17_0854,stroop_task_switching2,2021.2.3,60.114831350442245,
condition/block_mixed,instruction/instr_mixed,instruction/i10,,,,,,,,,,,,,,,,,0,2,2,2,,,,,,,,,,,,,,,,,,,,,,,,,,,,,,,,,,,,,,,,,,,,,,,,,,,,,,,,,,,,,,,,,,,,,,,,,,,,,,,,12011,1,1,2024_Jun_17_0854,stroop_task_switching2,2021.2.3,60.114831350442245,
,,,红,red,d,square,color_mix,单词,,compatible,0,block_switch1,instruction/ready_test.png,instruction/i11.png,,,,,,,,,,,,,,,,,0,0,0,0,0,0,0,0,,,,,,,,,,,,,,,,,,,387.2497711000033,388.25108439999167,388.25108439999167,389.25305279999156,389.25305279999156,None,386.26475450000726,387.2668800999818,390.2878881999932,390.48839879999286,390.47094279999146,390.7727658000076,390.7727658000076,None,391.27306449998287,None,d,1,0.4774762000015471,391.27306449998287,None,None,None,,,,,,,,,379.85535559998243,None,space,6.3914110000187065,379.85535559998243,None,,,,,,,,,12011,1,1,2024_Jun_17_0854,stroop_task_switching2,2021.2.3,60.114831350442245,
,,,绿,green,k,diamond,color_mix,颜色,,compatible,2,block_switch1,instruction/ready_test.png,instruction/i11.png,,,,,,,,,,,,,,,,,0,0,0,0,0,1,1,1,,,,,,,,,,,,,,,,,,,,,,,,,,,391.77307130000554,391.97327940000105,391.9575898000039,392.25917350000236,392.25917350000236,None,392.7583762999857,None,k,1,1.0403840000217315,392.7583762999857,None,None,None,,,,,,,,,,,,,,,,,,,,,,,12011,1,1,2024_Jun_17_0854,stroop_task_switching2,2021.2.3,60.114831350442245,
,,,绿,yellow,j,diamond,color_mix,颜色,,incompatible,1,block_switch1,instruction/ready_test.png,instruction/i11.png,,,,,,,,,,,,,,,,,0,0,0,0,0,2,2,2,,,,,,,,,,,,,,,,,,,,,,,,,,,393.8260491999972,394.027881099988,394.01095150000765,394.30997390000266,394.30997390000266,None,394.8117404000077,None,j,1,0.770704399998067,394.8117404000077,None,None,None,,,,,,,,,,,,,,,,,,,,,,,12011,1,1,2024_Jun_17_0854,stroop_task_switching2,2021.2.3,60.114831350442245,
,,,蓝,blue,f,diamond,color_mix,颜色,,compatible,1,block_switch1,instruction/ready_test.png,instruction/i11.png,,,,,,,,,,,,,,,,,0,0,0,0,0,3,3,3,,,,,,,,,,,,,,,,,,,,,,,,,,,395.6121164000069,395.8128080999886,395.7960317999823,396.0968651000003,396.0968651000003,None,396.59704629998305,None,f,1,2.073527600005036,396.59704629998305,None,None,None,,,,,,,,,,,,,,,,,,,,,,,12011,1,1,2024_Jun_17_0854,stroop_task_switching2,2021.2.3,60.114831350442245,
,,,绿,green,k,square,color_mix,单词,,compatible,2,block_switch1,instruction/ready_test.png,instruction/i11.png,,,,,,,,,,,,,,,,,0,0,0,0,0,4,4,4,,,,,,,,,,,,,,,,,,,,,,,,,,,398.70042219999596,398.90118610000354,398.8852620999969,399.18468669999857,399.18468669999857,None,399.685136199987,None,k,1,1.1534470999904443,399.685136199987,None,None,None,,,,,,,,,,,,,,,,,,,,,,,12011,1,1,2024_Jun_17_0854,stroop_task_switching2,2021.2.3,60.114831350442245,
,,,绿,blue,f,diamond,color_mix,颜色,,incompatible,2,block_switch1,instruction/ready_test.png,instruction/i11.png,,,,,,,,,,,,,,,,,0,0,0,0,0,5,5,5,,,,,,,,,,,,,,,,,,,,,,,,,,,400.87048690000665,401.07061999998405,401.0538053000055,401.35414009998203,401.35414009998203,None,401.85475140000926,None,f,1,0.9358588999893982,401.85475140000926,None,None,None,,,,,,,,,,,,,,,,,,,,,,,12011,1,1,2024_Jun_17_0854,stroop_task_switching2,2021.2.3,60.114831350442245,
,,,黄,red,j,square,color_mix,单词,,incompatible,2,block_switch1,instruction/ready_test.png,instruction/i11.png,,,,,,,,,,,,,,,,,0,0,0,0,0,6,6,6,,,,,,,,,,,,,,,,,,,,,,,,,,,402.80646510000224,403.00725219998276,402.9898394999909,403.29059509999934,403.29059509999934,None,403.7912517999939,None,d,0,1.2316593000141438,403.7912517999939,None,None,None,,,,,,,,,,,,,,,,,,,,,,,12011,1,1,2024_Jun_17_0854,stroop_task_switching2,2021.2.3,60.114831350442245,
,,,绿,green,k,square,color_mix,单词,,compatible,1,block_switch1,instruction/ready_test.png,instruction/i11.png,,,,,,,,,,,,,,,,,0,0,0,0,0,7,7,7,,,,,,,,,,,,,,,,,,,,,,,,,,,405.0431299000047,405.24400129998685,405.22660789999645,405.5278045999876,405.5278045999876,None,406.02802359999623,None,k,1,1.8510707000095863,406.02802359999623,None,None,None,,,,,,,,,,,,,,,,,,,,,,,12011,1,1,2024_Jun_17_0854,stroop_task_switching2,2021.2.3,60.114831350442245,
,,,蓝,blue,f,square,color_mix,单词,,compatible,1,block_switch1,instruction/ready_test.png,instruction/i11.png,,,,,,,,,,,,,,,,,0,0,0,0,0,8,8,8,,,,,,,,,,,,,,,,,,,,,,,,,,,407.89714059999096,408.0978142999811,408.0823546999891,408.38234740000917,408.38234740000917,None,408.88225689998944,None,f,1,1.5332593999919482,408.88225689998944,None,None,None,,,,,,,,,,,,,,,,,,,,,,,12011,1,1,2024_Jun_17_0854,stroop_task_switching2,2021.2.3,60.114831350442245,
,,,红,red,d,diamond,color_mix,颜色,,compatible,2,block_switch1,instruction/ready_test.png,instruction/i11.png,,,,,,,,,,,,,,,,,0,0,0,0,0,9,9,9,,,,,,,,,,,,,,,,,,,,,,,,,,,410.4345665999863,410.6367806000053,410.61935470000026,410.9184852000035,410.9184852000035,None,411.419393499993,None,d,1,0.33174829999916255,411.419393499993,None,None,None,,,,,,,,,,,,,,,,,,,,,,,12011,1,1,2024_Jun_17_0854,stroop_task_switching2,2021.2.3,60.114831350442245,
,,,黄,yellow,j,diamond,color_mix,颜色,,compatible,1,block_switch1,instruction/ready_test.png,instruction/i11.png,,,,,,,,,,,,,,,,,0,0,0,0,0,10,10,10,,,,,,,,,,,,,,,,,,,,,,,,,,,411.7699151999841,411.97137650000514,411.9535637999943,412.2550717999984,412.2550717999984,None,412.7545921999845,None,j,1,2.3403820999956224,412.7545921999845,None,None,None,,,,,,,,,,,,,,,,,,,,,,,12011,1,1,2024_Jun_17_0854,stroop_task_switching2,2021.2.3,60.114831350442245,
,,,绿,green,k,square,color_mix,单词,,compatible,2,block_switch1,instruction/ready_test.png,instruction/i11.png,,,,,,,,,,,,,,,,,0,0,0,0,0,11,11,11,,,,,,,,,,,,,,,,,,,,,,,,,,,415.12517369998386,415.3252610999916,415.3105219999852,415.6256757999945,415.61027289999765,None,416.10995729998103,None,k,1,1.7134565000014845,416.10995729998103,None,None,None,,,,,,,,,,,,,,,,,,,,,,,12011,1,1,2024_Jun_17_0854,stroop_task_switching2,2021.2.3,60.114831350442245,
,,,红,red,d,diamond,color_mix,颜色,,compatible,2,block_switch1,instruction/ready_test.png,instruction/i11.png,,,,,,,,,,,,,,,,,0,0,0,0,0,12,12,12,,,,,,,,,,,,,,,,,,,,,,,,,,,417.8458296000026,418.0462988000072,418.03036169998813,418.3299066000036,418.3299066000036,None,418.8306135000021,None,d,1,0.5523832000035327,418.8306135000021,None,None,None,,,,,,,,,,,,,,,,,,,,,,,12011,1,1,2024_Jun_17_0854,stroop_task_switching2,2021.2.3,60.114831350442245,
,,,红,red,d,diamond,color_mix,颜色,,compatible,1,block_switch1,instruction/ready_test.png,instruction/i11.png,,,,,,,,,,,,,,,,,0,0,0,0,0,13,13,13,,,,,,,,,,,,,,,,,,,,,,,,,,,419.41465170000447,419.6156417999882,419.59912050000275,419.8993139999802,419.8993139999802,None,420.3995086000068,None,d,1,0.38410470000235364,420.3995086000068,None,None,None,,,,,,,,,,,,,,,,,,,,,,,12011,1,1,2024_Jun_17_0854,stroop_task_switching2,2021.2.3,60.114831350442245,
,,,黄,yellow,j,square,color_mix,单词,,compatible,2,block_switch1,instruction/ready_test.png,instruction/i11.png,,,,,,,,,,,,,,,,,0,0,0,0,0,14,14,14,,,,,,,,,,,,,,,,,,,,,,,,,,,420.800069799996,421.000329100003,420.98361779999686,421.28423009999096,421.28423009999096,None,421.7850288999907,None,j,1,1.3501852999906987,421.7850288999907,None,None,None,,,,,,,,,,,,,,,,,,,,,,,12011,1,1,2024_Jun_17_0854,stroop_task_switching2,2021.2.3,60.114831350442245,
,,,红,green,k,diamond,color_mix,颜色,,incompatible,2,block_switch1,instruction/ready_test.png,instruction/i11.png,,,,,,,,,,,,,,,,,0,0,0,0,0,15,15,15,,,,,,,,,,,,,,,,,,,,,,,,,,,423.1535370000056,423.35562489999575,423.3372747999965,423.6379489999963,423.6379489999963,None,424.13838590000523,None,k,1,1.7733174999884795,424.13838590000523,None,None,None,,,,,,,,,,,,,,,,,,,,,,,12011,1,1,2024_Jun_17_0854,stroop_task_switching2,2021.2.3,60.114831350442245,
,,,蓝,red,d,diamond,color_mix,颜色,,incompatible,1,block_switch1,instruction/ready_test.png,instruction/i11.png,,,,,,,,,,,,,,,,,0,0,0,0,0,16,16,16,,,,,,,,,,,,,,,,,,,,,,,,,,,425.94117689999985,426.14216759998817,426.1247527000087,426.4251723999914,426.4251723999914,None,426.9261512999947,None,d,1,0.4253245999861974,426.9261512999947,None,None,None,,,,,,,,,,,,,,,,,,,,,,,12011,1,1,2024_Jun_17_0854,stroop_task_switching2,2021.2.3,60.114831350442245,
,,,黄,green,k,diamond,color_mix,颜色,,incompatible,1,block_switch1,instruction/ready_test.png,instruction/i11.png,,,,,,,,,,,,,,,,,0,0,0,0,0,17,17,17,,,,,,,,,,,,,,,,,,,,,,,,,,,427.37687229999574,427.5772311000037,427.56117959998664,427.8610189000028,427.8610189000028,None,428.3614782000077,None,k,1,1.3742540999955963,428.3614782000077,None,None,None,,,,,,,,,,,,,,,,,,,,,,,12011,1,1,2024_Jun_17_0854,stroop_task_switching2,2021.2.3,60.114831350442245,
,,,绿,green,k,diamond,color_mix,颜色,,compatible,1,block_switch1,instruction/ready_test.png,instruction/i11.png,,,,,,,,,,,,,,,,,0,0,0,0,0,18,18,18,,,,,,,,,,,,,,,,,,,,,,,,,,,429.7636780999892,429.9648871999816,429.9472986999899,430.24856439998257,430.24856439998257,None,430.74848350000684,None,k,1,0.9233239000022877,430.74848350000684,None,None,None,,,,,,,,,,,,,,,,,,,,,,,12011,1,1,2024_Jun_17_0854,stroop_task_switching2,2021.2.3,60.114831350442245,
,,,黄,red,d,diamond,color_mix,颜色,,incompatible,1,block_switch1,instruction/ready_test.png,instruction/i11.png,,,,,,,,,,,,,,,,,0,0,0,0,0,19,19,19,,,,,,,,,,,,,,,,,,,,,,,,,,,431.69999659998575,431.9003077999805,431.88447879999876,432.1844911999942,432.1844911999942,None,432.6846537000092,None,d,1,1.8033240000077058,432.6846537000092,None,None,None,,,,,,,,,,,,,,,,,,,,,,,12011,1,1,2024_Jun_17_0854,stroop_task_switching2,2021.2.3,60.114831350442245,
,,,绿,yellow,k,square,color_mix,单词,,incompatible,2,block_switch1,instruction/ready_test.png,instruction/i11.png,,,,,,,,,,,,,,,,,0,0,0,0,0,20,20,20,,,,,,,,,,,,,,,,,,,,,,,,,,,434.50410089999787,434.7047537000035,434.68763519998174,434.98830589998397,434.98830589998397,None,435.4888522999827,None,k,1,1.4308323999866843,435.4888522999827,None,None,None,,,,,,,,,,,,,,,,,,,,,,,12011,1,1,2024_Jun_17_0854,stroop_task_switching2,2021.2.3,60.114831350442245,
,,,蓝,blue,f,diamond,color_mix,颜色,,compatible,2,block_switch1,instruction/ready_test.png,instruction/i11.png,,,,,,,,,,,,,,,,,0,0,0,0,0,21,21,21,,,,,,,,,,,,,,,,,,,,,,,,,,,436.94109249999747,437.14152730000205,437.12507149999146,437.42581449999125,437.42581449999125,None,437.9261151999817,None,f,1,2.3376723999972455,437.9261151999817,None,None,None,,,,,,,,,,,,,,,,,,,,,,,12011,1,1,2024_Jun_17_0854,stroop_task_switching2,2021.2.3,60.114831350442245,
,,,绿,green,k,square,color_mix,单词,,compatible,2,block_switch1,instruction/ready_test.png,instruction/i11.png,,,,,,,,,,,,,,,,,0,0,0,0,0,22,22,22,,,,,,,,,,,,,,,,,,,,,,,,,,,440.27950859998236,440.4807460999873,440.4631790999847,440.7636620999838,440.7636620999838,None,441.2650677000056,None,k,1,2.582786299986765,441.2650677000056,None,None,None,,,,,,,,,,,,,,,,,,,,,,,12011,1,1,2024_Jun_17_0854,stroop_task_switching2,2021.2.3,60.114831350442245,
,,,红,red,d,square,color_mix,单词,,compatible,1,block_switch1,instruction/ready_test.png,instruction/i11.png,,,,,,,,,,,,,,,,,0,0,0,0,0,23,23,23,,,,,,,,,,,,,,,,,,,,,,,,,,,443.86824809998507,444.06980759999715,444.05186649999814,444.3537615999812,444.3537615999812,None,444.8531199999852,None,d,1,0.5547278000158258,444.8531199999852,None,None,None,,,,,,,,,,,,,,,,,,,,,,,12011,1,1,2024_Jun_17_0854,stroop_task_switching2,2021.2.3,60.114831350442245,
,,,黄,green,j,square,color_mix,单词,,incompatible,1,block_switch1,instruction/ready_test.png,instruction/i11.png,,,,,,,,,,,,,,,,,0,0,0,0,0,24,24,24,,,,,,,,,,,,,,,,,,,,,,,,,,,445.4372807999898,445.63826710000285,445.6208675999951,445.92299749999074,445.92299749999074,None,446.4387662000081,None,j,1,1.0650835999986157,446.4387662000081,None,None,None,,,,,,,,,,,,,,,,,,,,,,,12011,1,1,2024_Jun_17_0854,stroop_task_switching2,2021.2.3,60.114831350442245,
,,,红,blue,d,square,color_mix,单词,,incompatible,1,block_switch1,instruction/ready_test.png,instruction/i11.png,,,,,,,,,,,,,,,,,0,0,0,0,0,25,25,25,,,,,,,,,,,,,,,,,,,,,,,,,,,447.523626899987,447.7239406000008,447.70792580000125,448.0079878999968,448.0079878999968,None,448.5085007000016,None,d,1,0.49979100000928156,448.5085007000016,None,None,None,,,,,,,,,,,,,,,,,,,,,,,12011,1,1,2024_Jun_17_0854,stroop_task_switching2,2021.2.3,60.114831350442245,
,,,黄,yellow,j,square,color_mix,单词,,compatible,1,block_switch1,instruction/ready_test.png,instruction/i11.png,,,,,,,,,,,,,,,,,0,0,0,0,0,26,26,26,,,,,,,,,,,,,,,,,,,,,,,,,,,449.0261877999874,449.22662090000813,449.21123749998515,449.5100145000033,449.5100145000033,None,450.0109764999943,None,j,1,1.2050582000229042,450.0109764999943,None,None,None,,,,,,,,,,,,,,,,,,,,,,,12011,1,1,2024_Jun_17_0854,stroop_task_switching2,2021.2.3,60.114831350442245,
,,,蓝,green,f,square,color_mix,单词,,incompatible,1,block_switch1,instruction/ready_test.png,instruction/i11.png,,,,,,,,,,,,,,,,,0,0,0,0,0,27,27,27,,,,,,,,,,,,,,,,,,,,,,,,,,,451.24601499998244,451.4469523000007,451.43094580000616,451.7300677000021,451.7300677000021,None,452.2316653000016,None,f,1,0.6804384000133723,452.2316653000016,None,None,None,,,,,,,,,,,,,,,,,,,,,,,12011,1,1,2024_Jun_17_0854,stroop_task_switching2,2021.2.3,60.114831350442245,
,,,绿,green,k,diamond,color_mix,颜色,,compatible,2,block_switch1,instruction/ready_test.png,instruction/i11.png,,,,,,,,,,,,,,,,,0,0,0,0,0,28,28,28,,,,,,,,,,,,,,,,,,,,,,,,,,,452.9319600999879,453.13280590000795,453.1162558000069,453.41731819999404,453.41731819999404,None,453.91665040000225,None,k,1,0.8354296000034083,453.91665040000225,None,None,None,,,,,,,,,,,,,,,,,,,,,,,12011,1,1,2024_Jun_17_0854,stroop_task_switching2,2021.2.3,60.114831350442245,
,,,黄,blue,f,diamond,color_mix,颜色,,incompatible,1,block_switch1,instruction/ready_test.png,instruction/i11.png,,,,,,,,,,,,,,,,,0,0,0,0,0,29,29,29,,,,,,,,,,,,,,,,,,,,,,,,,,,454.76793400000315,454.9691338999837,454.9516008000064,455.25191629998153,455.25191629998153,None,455.75283399998443,None,f,1,2.7193225000228267,455.75283399998443,None,None,None,,,,,,,,,,,,,,,,,,,,,,,12011,1,1,2024_Jun_17_0854,stroop_task_switching2,2021.2.3,60.114831350442245,
,,,绿,green,k,diamond,color_mix,颜色,,compatible,1,block_switch1,instruction/ready_test.png,instruction/i11.png,,,,,,,,,,,,,,,,,0,0,0,0,0,30,30,30,,,,,,,,,,,,,,,,,,,,,,,,,,,458.49048290000064,458.6917531999934,458.67404969999916,458.9743211999885,458.9743211999885,None,459.4749547999818,None,j,0,0.9014082000066992,459.4749547999818,None,None,None,,,,,,,,,,,,,,,,,,,,,,,12011,1,1,2024_Jun_17_0854,stroop_task_switching2,2021.2.3,60.114831350442245,
,,,蓝,blue,f,square,color_mix,单词,,compatible,2,block_switch1,instruction/ready_test.png,instruction/i11.png,,,,,,,,,,,,,,,,,0,0,0,0,0,31,31,31,,,,,,,,,,,,,,,,,,,,,,,,,,,460.3932644999877,460.59400499999174,460.57754219998606,460.8771642000065,460.8771642000065,None,461.37847170000896,None,f,1,1.6298952999932226,461.37847170000896,None,None,None,,,,,,,,,,,,,,,,,,,,,,,12011,1,1,2024_Jun_17_0854,stroop_task_switching2,2021.2.3,60.114831350442245,
,,,红,red,d,square,color_mix,单词,,compatible,1,block_switch1,instruction/ready_test.png,instruction/i11.png,,,,,,,,,,,,,,,,,0,0,0,0,0,32,32,32,,,,,,,,,,,,,,,,,,,,,,,,,,,463.03040930000134,463.23157469998114,463.2141119999869,463.51456149999285,463.51456149999285,None,464.0157060000056,None,d,1,0.4491324000118766,464.0157060000056,None,None,None,,,,,,,,,,,,,,,,,,,,,,,12011,1,1,2024_Jun_17_0854,stroop_task_switching2,2021.2.3,60.114831350442245,
,,,红,green,d,square,color_mix,单词,,incompatible,1,block_switch1,instruction/ready_test.png,instruction/i11.png,,,,,,,,,,,,,,,,,0,0,0,0,0,33,33,33,,,,,,,,,,,,,,,,,,,,,,,,,,,464.4826480000047,464.68397079998977,464.66632910000044,464.9676150000014,464.9676150000014,None,465.46806889999425,None,d,1,0.43645169999217615,465.46806889999425,None,None,None,,,,,,,,,,,,,,,,,,,,,,,12011,1,1,2024_Jun_17_0854,stroop_task_switching2,2021.2.3,60.114831350442245,
,,,黄,yellow,j,diamond,color_mix,颜色,,compatible,2,block_switch1,instruction/ready_test.png,instruction/i11.png,,,,,,,,,,,,,,,,,0,0,0,0,0,34,34,34,,,,,,,,,,,,,,,,,,,,,,,,,,,465.9347718000063,466.1353126000031,466.1196448999981,466.41895689998637,466.41895689998637,None,466.9197252999875,None,f,0,1.2252304999856278,466.9197252999875,None,None,None,,,,,,,,,,,,,,,,,,,,,,,12011,1,1,2024_Jun_17_0854,stroop_task_switching2,2021.2.3,60.114831350442245,
,,,红,green,k,diamond,color_mix,颜色,,incompatible,1,block_switch1,instruction/ready_test.png,instruction/i11.png,,,,,,,,,,,,,,,,,0,0,0,0,0,35,35,35,,,,,,,,,,,,,,,,,,,,,,,,,,,468.17217239999445,468.37191590000293,468.35582259998773,468.656791699992,468.656791699992,None,469.1563385000045,None,d,0,1.3881910000054631,469.1563385000045,None,None,None,,,,,,,,,,,,,,,,,,,,,,,12011,1,1,2024_Jun_17_0854,stroop_task_switching2,2021.2.3,60.114831350442245,
,,,黄,yellow,j,square,color_mix,单词,,compatible,2,block_switch1,instruction/ready_test.png,instruction/i11.png,,,,,,,,,,,,,,,,,0,0,0,0,0,36,36,36,,,,,,,,,,,,,,,,,,,,,,,,,,,470.5757469999953,470.77595809998456,470.7588104000024,471.0607489999966,471.0607489999966,None,471.56009159999667,None,j,1,0.9524291999987327,471.56009159999667,None,None,None,,,,,,,,,,,,,,,,,,,,,,,12011,1,1,2024_Jun_17_0854,stroop_task_switching2,2021.2.3,60.114831350442245,
,,,蓝,blue,f,square,color_mix,单词,,compatible,1,block_switch1,instruction/ready_test.png,instruction/i11.png,,,,,,,,,,,,,,,,,0,0,0,0,0,37,37,37,,,,,,,,,,,,,,,,,,,,,,,,,,,472.5280594000069,472.72836259999895,472.71246260000044,473.013214000006,473.013214000006,None,473.51298850000603,None,f,1,1.40791999999783,473.51298850000603,None,None,None,,,,,,,,,,,,,,,,,,,,,,,12011,1,1,2024_Jun_17_0854,stroop_task_switching2,2021.2.3,60.114831350442245,
,,,绿,red,d,diamond,color_mix,颜色,,incompatible,2,block_switch1,instruction/ready_test.png,instruction/i11.png,,,,,,,,,,,,,,,,,0,0,0,0,0,38,38,38,,,,,,,,,,,,,,,,,,,,,,,,,,,474.948719899985,475.15095869998913,475.1321151999873,475.4331065999868,475.4331065999868,None,475.93320840000524,None,d,1,0.4837011999916285,475.93320840000524,None,None,None,,,,,,,,,,,,,,,,,,,,,,,12011,1,1,2024_Jun_17_0854,stroop_task_switching2,2021.2.3,60.114831350442245,
,,,黄,yellow,j,diamond,color_mix,颜色,,compatible,1,block_switch1,instruction/ready_test.png,instruction/i11.png,,,,,,,,,,,,,,,,,0,0,0,0,0,39,39,39,,,,,,,,,,,,,,,,,,,,,,,,,,,476.43412059999537,476.6343974999909,476.61828199998126,476.9182290000026,476.9182290000026,None,477.42021979999845,None,f,0,0.8128574000147637,477.42021979999845,None,None,None,,,,,,,,,,,,,,,,,,,,,,,12011,1,1,2024_Jun_17_0854,stroop_task_switching2,2021.2.3,60.114831350442245,
,,,红,blue,f,diamond,color_mix,颜色,,incompatible,1,block_switch1,instruction/ready_test.png,instruction/i11.png,,,,,,,,,,,,,,,,,0,0,0,0,0,40,40,40,,,,,,,,,,,,,,,,,,,,,,,,,,,478.2534376999829,478.4546943999885,478.43711669999175,478.7375034999859,478.7375034999859,None,479.2383073999954,None,f,1,2.5548106000060216,479.2383073999954,None,None,None,,,,,,,,,,,,,,,,,,,,,,,12011,1,1,2024_Jun_17_0854,stroop_task_switching2,2021.2.3,60.114831350442245,
,,,绿,blue,k,square,color_mix,单词,,incompatible,2,block_switch1,instruction/ready_test.png,instruction/i11.png,,,,,,,,,,,,,,,,,0,0,0,0,0,41,41,41,,,,,,,,,,,,,,,,,,,,,,,,,,,481.8091373000061,482.0101058,481.9932461999997,482.2929638999922,482.2929638999922,None,482.79371820000233,None,k,1,2.5995392000186257,482.79371820000233,None,None,None,,,,,,,,,,,,,,,,,,,,,,,12011,1,1,2024_Jun_17_0854,stroop_task_switching2,2021.2.3,60.114831350442245,
,,,绿,yellow,j,diamond,color_mix,颜色,,incompatible,2,block_switch1,instruction/ready_test.png,instruction/i11.png,,,,,,,,,,,,,,,,,0,0,0,0,0,42,42,42,,,,,,,,,,,,,,,,,,,,,,,,,,,485.41420259998995,485.615771199984,485.5983508999925,485.8984102999966,485.8984102999966,None,486.39900939998915,None,j,1,1.2901452999794856,486.39900939998915,None,None,None,,,,,,,,,,,,,,,,,,,,,,,12011,1,1,2024_Jun_17_0854,stroop_task_switching2,2021.2.3,60.114831350442245,
,,,红,blue,d,square,color_mix,单词,,incompatible,2,block_switch1,instruction/ready_test.png,instruction/i11.png,,,,,,,,,,,,,,,,,0,0,0,0,0,43,43,43,,,,,,,,,,,,,,,,,,,,,,,,,,,487.7368041999871,487.93505880000885,487.90127070000744,488.2026848999958,488.2026848999958,None,488.70309639998595,None,d,1,1.146082799998112,488.70309639998595,None,None,None,,,,,,,,,,,,,,,,,,,,,,,12011,1,1,2024_Jun_17_0854,stroop_task_switching2,2021.2.3,60.114831350442245,
,,,蓝,green,k,diamond,color_mix,颜色,,incompatible,2,block_switch1,instruction/ready_test.png,instruction/i11.png,,,,,,,,,,,,,,,,,0,0,0,0,0,44,44,44,,,,,,,,,,,,,,,,,,,,,,,,,,,489.8708067999978,490.07113769999705,490.05453699998907,490.35586009998224,490.35586009998224,None,490.85592219998944,None,k,1,1.0501643000170588,490.85592219998944,None,None,None,,,,,,,,,,,,,,,,,,,,,,,12011,1,1,2024_Jun_17_0854,stroop_task_switching2,2021.2.3,60.114831350442245,
,,,黄,yellow,j,square,color_mix,单词,,compatible,2,block_switch1,instruction/ready_test.png,instruction/i11.png,,,,,,,,,,,,,,,,,0,0,0,0,0,45,45,45,,,,,,,,,,,,,,,,,,,,,,,,,,,491.92395530000795,492.1257479999913,492.1077279000019,492.40902319998713,492.40902319998713,None,492.9088628999889,None,j,1,1.4124126000097021,492.9088628999889,None,None,None,,,,,,,,,,,,,,,,,,,,,,,12011,1,1,2024_Jun_17_0854,stroop_task_switching2,2021.2.3,60.114831350442245,
,,,黄,yellow,j,diamond,color_mix,颜色,,compatible,2,block_switch1,instruction/ready_test.png,instruction/i11.png,,,,,,,,,,,,,,,,,0,0,0,0,0,46,46,46,,,,,,,,,,,,,,,,,,,,,,,,,,,494.34425570000894,494.5447133999842,494.52913219999755,494.8295206000039,494.8295206000039,None,495.3300874999841,None,j,1,2.3673887999902945,495.3300874999841,None,None,None,,,,,,,,,,,,,,,,,,,,,,,12011,1,1,2024_Jun_17_0854,stroop_task_switching2,2021.2.3,60.114831350442245,
,,,绿,red,k,square,color_mix,单词,,incompatible,2,block_switch1,instruction/ready_test.png,instruction/i11.png,,,,,,,,,,,,,,,,,0,0,0,0,0,47,47,47,,,,,,,,,,,,,,,,,,,,,,,,,,,497.7164509999857,497.9165426999971,497.9003517999954,498.20048020000104,498.20048020000104,None,498.7009040999983,None,k,1,1.4689350000116974,498.7009040999983,None,None,None,,,,,,,,,,,,,,,,,,,,,,,12011,1,1,2024_Jun_17_0854,stroop_task_switching2,2021.2.3,60.114831350442245,
,,,红,red,d,diamond,color_mix,颜色,,compatible,2,block_switch1,instruction/ready_test.png,instruction/i11.png,,,,,,,,,,,,,,,,,0,0,0,0,0,48,48,48,,,,,,,,,,,,,,,,,,,,,,,,,,,500.18641679998836,500.3872141999891,500.3699829999823,500.6715054999804,500.6715054999804,None,501.1713601000083,None,d,1,1.0539813000068534,501.1713601000083,None,None,None,,,,,,,,,,,,,,,,,,,,,,,12011,1,1,2024_Jun_17_0854,stroop_task_switching2,2021.2.3,60.114831350442245,
,,,蓝,blue,f,diamond,color_mix,颜色,,compatible,1,block_switch1,instruction/ready_test.png,instruction/i11.png,,,,,,,,,,,,,,,,,0,0,0,0,0,49,49,49,,,,,,,,,,,,,,,,,,,,,,,,,,,502.2562382000033,502.4586805999861,502.44044189999113,502.7401913999929,502.7401913999929,None,503.2414226999972,None,f,1,1.75984499999322,503.2414226999972,None,None,None,,,,,,,,,,,,,,,,,,,,,,,12011,1,1,2024_Jun_17_0854,stroop_task_switching2,2021.2.3,60.114831350442245,
,,,黄,yellow,j,diamond,color_mix,颜色,,compatible,1,block_switch1,instruction/ready_test.png,instruction/i11.png,,,,,,,,,,,,,,,,,0,0,0,0,0,50,50,50,,,,,,,,,,,,,,,,,,,,,,,,,,,505.02717240000493,505.22816100000637,505.2108456999995,505.5118123999855,505.5118123999855,None,506.01193409998086,None,j,1,0.8938587000011466,506.01193409998086,None,None,None,,,,,,,,,,,,,,,,,,,,,,,12011,1,1,2024_Jun_17_0854,stroop_task_switching2,2021.2.3,60.114831350442245,
,,,红,blue,f,diamond,color_mix,颜色,,incompatible,1,block_switch1,instruction/ready_test.png,instruction/i11.png,,,,,,,,,,,,,,,,,0,0,0,0,0,51,51,51,,,,,,,,,,,,,,,,,,,,,,,,,,,506.9299968999985,507.1305563999922,507.11452350000036,507.415992299997,507.415992299997,None,507.9148782999837,None,d,0,0.6629040999978315,507.9148782999837,None,None,None,,,,,,,,,,,,,,,,,,,,,,,12011,1,1,2024_Jun_17_0854,stroop_task_switching2,2021.2.3,60.114831350442245,
,,,蓝,yellow,j,diamond,color_mix,颜色,,incompatible,1,block_switch1,instruction/ready_test.png,instruction/i11.png,,,,,,,,,,,,,,,,,0,0,0,0,0,52,52,52,,,,,,,,,,,,,,,,,,,,,,,,,,,508.59900980000384,508.8007788999821,508.782710200001,509.08444740000414,509.08444740000414,None,509.58424549998017,None,j,1,2.0655402000120375,509.58424549998017,None,None,None,,,,,,,,,,,,,,,,,,,,,,,12011,1,1,2024_Jun_17_0854,stroop_task_switching2,2021.2.3,60.114831350442245,
,,,黄,blue,j,square,color_mix,单词,,incompatible,2,block_switch1,instruction/ready_test.png,instruction/i11.png,,,,,,,,,,,,,,,,,0,0,0,0,0,53,53,53,,,,,,,,,,,,,,,,,,,,,,,,,,,511.67055949999485,511.8714670999907,511.8539444000053,512.1561934000056,512.1561934000056,None,512.6553540999885,None,j,1,2.618538200011244,512.6553540999885,None,None,None,,,,,,,,,,,,,,,,,,,,,,,12011,1,1,2024_Jun_17_0854,stroop_task_switching2,2021.2.3,60.114831350442245,
,,,蓝,blue,f,diamond,color_mix,颜色,,compatible,2,block_switch1,instruction/ready_test.png,instruction/i11.png,,,,,,,,,,,,,,,,,0,0,0,0,0,54,54,54,,,,,,,,,,,,,,,,,,,,,,,,,,,515.2926308999886,515.4929879999836,515.4770851999929,515.7767728999897,515.7767728999897,None,516.2774524999841,None,f,1,1.4847219999937806,516.2774524999841,None,None,None,,,,,,,,,,,,,,,,,,,,,,,12011,1,1,2024_Jun_17_0854,stroop_task_switching2,2021.2.3,60.114831350442245,
,,,红,yellow,d,square,color_mix,单词,,incompatible,2,block_switch1,instruction/ready_test.png,instruction/i11.png,,,,,,,,,,,,,,,,,0,0,0,0,0,55,55,55,,,,,,,,,,,,,,,,,,,,,,,,,,,517.7795402999909,517.9800292,517.9636267999886,518.263824499998,518.263824499998,None,518.7647090999817,None,d,1,0.8450114999723155,518.7647090999817,None,None,None,,,,,,,,,,,,,,,,,,,,,,,12011,1,1,2024_Jun_17_0854,stroop_task_switching2,2021.2.3,60.114831350442245,
,,,蓝,red,f,square,color_mix,单词,,incompatible,1,block_switch1,instruction/ready_test.png,instruction/i11.png,,,,,,,,,,,,,,,,,0,0,0,0,0,56,56,56,,,,,,,,,,,,,,,,,,,,,,,,,,,519.6323818999808,519.8332971000054,519.8159255000064,520.1167239999922,520.1167239999922,None,520.6183386000048,None,f,1,2.567494099988835,520.6183386000048,None,None,None,,,,,,,,,,,,,,,,,,,,,,,12011,1,1,2024_Jun_17_0854,stroop_task_switching2,2021.2.3,60.114831350442245,
,,,蓝,blue,f,square,color_mix,单词,,compatible,1,block_switch1,instruction/ready_test.png,instruction/i11.png,,,,,,,,,,,,,,,,,0,0,0,0,0,57,57,57,,,,,,,,,,,,,,,,,,,,,,,,,,,523.2045158999972,523.4050281999807,523.3888035999844,523.6886631000089,523.6886631000089,None,524.1891135000042,None,f,1,0.9251183000160381,524.1891135000042,None,None,None,,,,,,,,,,,,,,,,,,,,,,,12011,1,1,2024_Jun_17_0854,stroop_task_switching2,2021.2.3,60.114831350442245,
,,,蓝,red,d,diamond,color_mix,颜色,,incompatible,2,block_switch1,instruction/ready_test.png,instruction/i11.png,,,,,,,,,,,,,,,,,0,0,0,0,0,58,58,58,,,,,,,,,,,,,,,,,,,,,,,,,,,525.140667700005,525.3428758000082,525.3243120999832,525.6248239999986,525.6248239999986,None,526.125651099981,None,d,1,0.5405752999940887,526.125651099981,None,None,None,,,,,,,,,,,,,,,,,,,,,,,12011,1,1,2024_Jun_17_0854,stroop_task_switching2,2021.2.3,60.114831350442245,
,,,绿,green,k,diamond,color_mix,颜色,,compatible,1,block_switch1,instruction/ready_test.png,instruction/i11.png,,,,,,,,,,,,,,,,,0,0,0,0,0,59,59,59,,,,,,,,,,,,,,,,,,,,,,,,,,,526.6932083999855,526.8948254999996,526.8768817999808,527.1773623999907,527.1773623999907,None,527.6778215999948,None,k,1,1.6604738000023644,527.6778215999948,None,None,None,,,,,,,,,,,,,,,,,,,,,,,12011,1,1,2024_Jun_17_0854,stroop_task_switching2,2021.2.3,60.114831350442245,
,,,蓝,blue,f,diamond,color_mix,颜色,,compatible,1,block_switch1,instruction/ready_test.png,instruction/i11.png,,,,,,,,,,,,,,,,,0,0,0,0,0,60,60,60,,,,,,,,,,,,,,,,,,,,,,,,,,,529.3638864999812,529.564256099984,529.5475626999978,529.848049799999,529.848049799999,None,530.3487271000049,None,f,1,1.0936344000219833,530.3487271000049,None,None,None,,,,,,,,,,,,,,,,,,,,,,,12011,1,1,2024_Jun_17_0854,stroop_task_switching2,2021.2.3,60.114831350442245,
,,,黄,yellow,j,square,color_mix,单词,,compatible,2,block_switch1,instruction/ready_test.png,instruction/i11.png,,,,,,,,,,,,,,,,,0,0,0,0,0,61,61,61,,,,,,,,,,,,,,,,,,,,,,,,,,,531.4670296999975,531.6678443999845,531.6518981999834,531.9528711999883,531.9528711999883,None,532.4517179999966,None,j,1,1.1029826999874786,532.4517179999966,None,None,None,,,,,,,,,,,,,,,,,,,,,,,12011,1,1,2024_Jun_17_0854,stroop_task_switching2,2021.2.3,60.114831350442245,
,,,绿,blue,k,square,color_mix,单词,,incompatible,1,block_switch1,instruction/ready_test.png,instruction/i11.png,,,,,,,,,,,,,,,,,0,0,0,0,0,62,62,62,,,,,,,,,,,,,,,,,,,,,,,,,,,533.570060900005,533.7703656000085,533.7545891999907,534.0556625000027,534.0556625000027,None,534.5549603999825,None,k,1,1.5840000000025611,534.5549603999825,None,None,None,,,,,,,,,,,,,,,,,,,,,,,12011,1,1,2024_Jun_17_0854,stroop_task_switching2,2021.2.3,60.114831350442245,
,,,蓝,yellow,f,square,color_mix,单词,,incompatible,1,block_switch1,instruction/ready_test.png,instruction/i11.png,,,,,,,,,,,,,,,,,0,0,0,0,0,63,63,63,,,,,,,,,,,,,,,,,,,,,,,,,,,536.1572435999988,536.3577641999873,536.3412019999814,536.6434597999905,536.6434597999905,None,537.1423370999983,None,f,1,0.8604887000110466,537.1423370999983,None,None,None,,,,,,,,,,,,,,,,,,,,,,,12011,1,1,2024_Jun_17_0854,stroop_task_switching2,2021.2.3,60.114831350442245,
,,,黄,yellow,j,diamond,color_mix,颜色,,compatible,2,block_switch1,instruction/ready_test.png,instruction/i11.png,,,,,,,,,,,,,,,,,0,0,0,0,0,64,64,64,,,,,,,,,,,,,,,,,,,,,,,,,,,538.0268901999807,538.2287991000048,538.2106231999933,538.5127529999882,538.5127529999882,None,539.0117273000069,None,j,1,2.6873158999951556,539.0117273000069,None,None,None,,,,,,,,,,,,,,,,,,,,,,,12011,1,1,2024_Jun_17_0854,stroop_task_switching2,2021.2.3,60.114831350442245,
,,,蓝,green,k,diamond,color_mix,颜色,,incompatible,1,block_switch1,instruction/ready_test.png,instruction/i11.png,,,,,,,,,,,,,,,,,0,0,0,0,0,65,65,65,,,,,,,,,,,,,,,,,,,,,,,,,,,541.7157982999925,541.9176514999999,541.8995255999907,542.2011136999936,542.2011136999936,None,542.7020076999906,None,k,1,0.8846306000195909,542.7020076999906,None,None,None,,,,,,,,,,,,,,,,,,,,,,,12011,1,1,2024_Jun_17_0854,stroop_task_switching2,2021.2.3,60.114831350442245,
,,,红,red,d,diamond,color_mix,颜色,,compatible,1,block_switch1,instruction/ready_test.png,instruction/i11.png,,,,,,,,,,,,,,,,,0,0,0,0,0,66,66,66,,,,,,,,,,,,,,,,,,,,,,,,,,,543.6021888999967,543.8023169999942,543.7867516999831,544.086713800003,544.086713800003,None,544.587131599983,None,d,1,0.6395035999885295,544.587131599983,None,None,None,,,,,,,,,,,,,,,,,,,,,,,12011,1,1,2024_Jun_17_0854,stroop_task_switching2,2021.2.3,60.114831350442245,
,,,蓝,yellow,f,square,color_mix,单词,,incompatible,2,block_switch1,instruction/ready_test.png,instruction/i11.png,,,,,,,,,,,,,,,,,0,0,0,0,0,67,67,67,,,,,,,,,,,,,,,,,,,,,,,,,,,545.2544951000018,545.4547489999968,545.4383239999879,545.7401485999872,545.7401485999872,None,546.2559773999965,None,f,1,1.0107005000172649,546.2559773999965,None,None,None,,,,,,,,,,,,,,,,,,,,,,,12011,1,1,2024_Jun_17_0854,stroop_task_switching2,2021.2.3,60.114831350442245,
,,,红,yellow,d,square,color_mix,单词,,incompatible,1,block_switch1,instruction/ready_test.png,instruction/i11.png,,,,,,,,,,,,,,,,,0,0,0,0,0,68,68,68,,,,,,,,,,,,,,,,,,,,,,,,,,,547.2907687999832,547.4911269999866,547.4751514999953,547.7759576999815,547.7759576999815,None,548.2756631000084,None,d,1,1.4869989000144415,548.2756631000084,None,None,None,,,,,,,,,,,,,,,,,,,,,,,12011,1,1,2024_Jun_17_0854,stroop_task_switching2,2021.2.3,60.114831350442245,
,,,红,yellow,j,diamond,color_mix,颜色,,incompatible,2,block_switch1,instruction/ready_test.png,instruction/i11.png,,,,,,,,,,,,,,,,,0,0,0,0,0,69,69,69,,,,,,,,,,,,,,,,,,,,,,,,,,,549.7779571999854,549.9782967999927,549.9629361999978,550.2628593999834,550.2628593999834,None,550.7628199000028,None,f,0,0.6719921000185423,550.7628199000028,None,None,None,,,,,,,,,,,,,,,,,,,,,,,12011,1,1,2024_Jun_17_0854,stroop_task_switching2,2021.2.3,60.114831350442245,
,,,蓝,green,f,square,color_mix,单词,,incompatible,2,block_switch1,instruction/ready_test.png,instruction/i11.png,,,,,,,,,,,,,,,,,0,0,0,0,0,70,70,70,,,,,,,,,,,,,,,,,,,,,,,,,,,551.4638158000016,551.6651838999824,551.6483966999804,551.9479011000076,551.9479011000076,None,552.448719899985,None,j,0,1.9539516999793705,552.448719899985,None,None,None,,,,,,,,,,,,,,,,,,,,,,,12011,1,1,2024_Jun_17_0854,stroop_task_switching2,2021.2.3,60.114831350442245,
,,,绿,yellow,k,square,color_mix,单词,,incompatible,1,block_switch1,instruction/ready_test.png,instruction/i11.png,,,,,,,,,,,,,,,,,0,0,0,0,0,71,71,71,,,,,,,,,,,,,,,,,,,,,,,,,,,554.4184092000069,554.6211342999886,554.6030757999979,554.9033794999996,554.9033794999996,None,555.4033105999988,None,k,1,2.463529600005131,555.4033105999988,None,None,None,,,,,,,,,,,,,,,,,,,,,,,12011,1,1,2024_Jun_17_0854,stroop_task_switching2,2021.2.3,60.114831350442245,
,,,蓝,yellow,j,diamond,color_mix,颜色,,incompatible,2,block_switch1,instruction/ready_test.png,instruction/i11.png,,,,,,,,,,,,,,,,,0,0,0,0,0,72,72,72,,,,,,,,,,,,,,,,,,,,,,,,,,,557.8901878999895,558.0907526999945,558.0738803999848,558.3742217999825,558.3742217999825,None,558.8748392999987,None,j,1,1.0484080000023823,558.8748392999987,None,None,None,,,,,,,,,,,,,,,,,,,,,,,12011,1,1,2024_Jun_17_0854,stroop_task_switching2,2021.2.3,60.114831350442245,
,,,红,green,d,square,color_mix,单词,,incompatible,2,block_switch1,instruction/ready_test.png,instruction/i11.png,,,,,,,,,,,,,,,,,0,0,0,0,0,73,73,73,,,,,,,,,,,,,,,,,,,,,,,,,,,559.9430916999991,560.1434948999959,560.1273900999804,560.4281336999848,560.4281336999848,None,560.9280093999987,None,d,1,1.6194142999884207,560.9280093999987,None,None,None,,,,,,,,,,,,,,,,,,,,,,,12011,1,1,2024_Jun_17_0854,stroop_task_switching2,2021.2.3,60.114831350442245,
,,,绿,blue,f,diamond,color_mix,颜色,,incompatible,2,block_switch1,instruction/ready_test.png,instruction/i11.png,,,,,,,,,,,,,,,,,0,0,0,0,0,74,74,74,,,,,,,,,,,,,,,,,,,,,,,,,,,562.5640180000046,562.7653308000008,562.7483046999841,563.0483171000087,563.0483171000087,None,563.5487003999879,None,f,1,0.7988172999757808,563.5487003999879,None,None,None,,,,,,,,,,,,,,,,,,,,,,,12011,1,1,2024_Jun_17_0854,stroop_task_switching2,2021.2.3,60.114831350442245,
,,,红,red,d,square,color_mix,单词,,compatible,2,block_switch1,instruction/ready_test.png,instruction/i11.png,,,,,,,,,,,,,,,,,0,0,0,0,0,75,75,75,,,,,,,,,,,,,,,,,,,,,,,,,,,564.366560399998,564.5682720000041,564.5501671999809,564.8507922999852,564.8507922999852,None,565.3513544999878,None,d,1,0.6683851999987382,565.3513544999878,None,None,None,,,,,,,,,,,,,,,,,,,,,,,12011,1,1,2024_Jun_17_0854,stroop_task_switching2,2021.2.3,60.114831350442245,
,,,绿,green,k,diamond,color_mix,颜色,,compatible,2,block_switch1,instruction/ready_test.png,instruction/i11.png,,,,,,,,,,,,,,,,,0,0,0,0,0,76,76,76,,,,,,,,,,,,,,,,,,,,,,,,,,,566.035659199988,566.2370345999952,566.2192955999926,566.5199733999907,566.5199733999907,None,567.0206063000078,None,k,1,2.422578700003214,567.0206063000078,None,None,None,,,,,,,,,,,,,,,,,,,,,,,12011,1,1,2024_Jun_17_0854,stroop_task_switching2,2021.2.3,60.114831350442245,
,,,黄,red,j,square,color_mix,单词,,incompatible,2,block_switch1,instruction/ready_test.png,instruction/i11.png,,,,,,,,,,,,,,,,,0,0,0,0,0,77,77,77,,,,,,,,,,,,,,,,,,,,,,,,,,,569.4577608999971,569.658540799981,569.6412390999903,569.9431164999842,569.9431164999842,None,570.4424862999876,None,j,1,2.921032699989155,570.4424862999876,None,None,None,,,,,,,,,,,,,,,,,,,,,,,12011,1,1,2024_Jun_17_0854,stroop_task_switching2,2021.2.3,60.114831350442245,
,,,红,red,d,square,color_mix,单词,,compatible,1,block_switch1,instruction/ready_test.png,instruction/i11.png,,,,,,,,,,,,,,,,,0,0,0,0,0,78,78,78,,,,,,,,,,,,,,,,,,,,,,,,,,,573.3802055999986,573.5814940999844,573.5647790000075,573.8646554999868,573.8646554999868,None,574.3654508999898,None,d,1,0.6458432000072207,574.3654508999898,None,None,None,,,,,,,,,,,,,,,,,,,,,,,12011,1,1,2024_Jun_17_0854,stroop_task_switching2,2021.2.3,60.114831350442245,
,,,黄,yellow,j,square,color_mix,单词,,compatible,1,block_switch1,instruction/ready_test.png,instruction/i11.png,,,,,,,,,,,,,,,,,0,0,0,0,0,79,79,79,,,,,,,,,,,,,,,,,,,,,,,,,,,575.032569300005,575.2331997999863,575.2168183999893,575.5168722999806,575.5168722999806,None,576.0179600999982,None,j,1,1.0493478999997023,576.0179600999982,None,None,None,,,,,,,,,,,,,,,,,,,,,,,12011,1,1,2024_Jun_17_0854,stroop_task_switching2,2021.2.3,60.114831350442245,
,,,红,red,d,diamond,color_mix,颜色,,compatible,2,block_switch1,instruction/ready_test.png,instruction/i11.png,,,,,,,,,,,,,,,,,0,0,0,0,0,80,80,80,,,,,,,,,,,,,,,,,,,,,,,,,,,577.0860052999924,577.2871696999937,577.2695901999832,577.5719246999943,577.5719246999943,None,578.0874992999888,None,d,1,1.0521628999849781,578.0874992999888,None,None,None,,,,,,,,,,,,,,,,,,,,,,,12011,1,1,2024_Jun_17_0854,stroop_task_switching2,2021.2.3,60.114831350442245,
,,,红,red,d,square,color_mix,单词,,compatible,2,block_switch1,instruction/ready_test.png,instruction/i11.png,,,,,,,,,,,,,,,,,0,0,0,0,0,81,81,81,,,,,,,,,,,,,,,,,,,,,,,,,,,579.1555978999822,579.3560472999816,579.3399718999863,579.6421567999932,579.6421567999932,None,580.1404094999889,None,d,1,0.87138940001023,580.1404094999889,None,None,None,,,,,,,,,,,,,,,,,,,,,,,12011,1,1,2024_Jun_17_0854,stroop_task_switching2,2021.2.3,60.114831350442245,
,,,黄,blue,f,diamond,color_mix,颜色,,incompatible,2,block_switch1,instruction/ready_test.png,instruction/i11.png,,,,,,,,,,,,,,,,,0,0,0,0,0,82,82,82,,,,,,,,,,,,,,,,,,,,,,,,,,,581.0417984999949,581.2437809999974,581.2253388999961,581.5259378000046,581.5259378000046,None,582.0271752999979,None,f,1,2.169333400001051,582.0271752999979,None,None,None,,,,,,,,,,,,,,,,,,,,,,,12011,1,1,2024_Jun_17_0854,stroop_task_switching2,2021.2.3,60.114831350442245,
,,,红,yellow,j,diamond,color_mix,颜色,,incompatible,1,block_switch1,instruction/ready_test.png,instruction/i11.png,,,,,,,,,,,,,,,,,0,0,0,0,0,83,83,83,,,,,,,,,,,,,,,,,,,,,,,,,,,584.2133352000092,584.414700399997,584.3973575999844,584.6972653999983,584.6972653999983,None,585.1981683000049,None,j,1,0.901900700002443,585.1981683000049,None,None,None,,,,,,,,,,,,,,,,,,,,,,,12011,1,1,2024_Jun_17_0854,stroop_task_switching2,2021.2.3,60.114831350442245,
,,,黄,red,d,diamond,color_mix,颜色,,incompatible,1,block_switch1,instruction/ready_test.png,instruction/i11.png,,,,,,,,,,,,,,,,,0,0,0,0,0,84,84,84,,,,,,,,,,,,,,,,,,,,,,,,,,,586.1161874999816,586.3172731999948,586.2998679000011,586.6020580999902,586.6020580999902,None,587.1007810999872,None,d,1,0.4869209999742452,587.1007810999872,None,None,None,,,,,,,,,,,,,,,,,,,,,,,12011,1,1,2024_Jun_17_0854,stroop_task_switching2,2021.2.3,60.114831350442245,
,,,蓝,blue,f,square,color_mix,单词,,compatible,2,block_switch1,instruction/ready_test.png,instruction/i11.png,,,,,,,,,,,,,,,,,0,0,0,0,0,85,85,85,,,,,,,,,,,,,,,,,,,,,,,,,,,587.6182483999874,587.8208996999892,587.8028264000022,588.1024229000031,588.1024229000031,None,588.6033143999812,None,f,1,1.401417399989441,588.6033143999812,None,None,None,,,,,,,,,,,,,,,,,,,,,,,12011,1,1,2024_Jun_17_0854,stroop_task_switching2,2021.2.3,60.114831350442245,
,,,绿,green,k,square,color_mix,单词,,compatible,1,block_switch1,instruction/ready_test.png,instruction/i11.png,,,,,,,,,,,,,,,,,0,0,0,0,0,86,86,86,,,,,,,,,,,,,,,,,,,,,,,,,,,590.0222729000088,590.2228215000068,590.2055300000065,590.5065955999889,590.5065955999889,None,591.0069570000051,None,k,1,1.717796399985673,591.0069570000051,None,None,None,,,,,,,,,,,,,,,,,,,,,,,12011,1,1,2024_Jun_17_0854,stroop_task_switching2,2021.2.3,60.114831350442245,
,,,红,red,d,square,color_mix,单词,,compatible,1,block_switch1,instruction/ready_test.png,instruction/i11.png,,,,,,,,,,,,,,,,,0,0,0,0,0,87,87,87,,,,,,,,,,,,,,,,,,,,,,,,,,,592.7428264000046,592.944310299994,592.9273948000045,593.2282399999967,593.2282399999967,None,593.7274187000003,None,d,1,1.9165454999892972,593.7274187000003,None,None,None,,,,,,,,,,,,,,,,,,,,,,,12011,1,1,2024_Jun_17_0854,stroop_task_switching2,2021.2.3,60.114831350442245,
,,,黄,green,k,diamond,color_mix,颜色,,incompatible,2,block_switch1,instruction/ready_test.png,instruction/i11.png,,,,,,,,,,,,,,,,,0,0,0,0,0,88,88,88,,,,,,,,,,,,,,,,,,,,,,,,,,,595.6638104000012,595.8647674999957,595.8474954999983,596.1498309999879,596.1498309999879,None,596.6499046999961,None,k,1,2.458513599995058,596.6499046999961,None,None,None,,,,,,,,,,,,,,,,,,,,,,,12011,1,1,2024_Jun_17_0854,stroop_task_switching2,2021.2.3,60.114831350442245,
,,,绿,red,k,square,color_mix,单词,,incompatible,2,block_switch1,instruction/ready_test.png,instruction/i11.png,,,,,,,,,,,,,,,,,0,0,0,0,0,89,89,89,,,,,,,,,,,,,,,,,,,,,,,,,,,599.1362326999952,599.3361963999923,599.320109399996,599.6202612000052,599.6202612000052,None,600.1212970000051,None,k,1,0.9868893999955617,600.1212970000051,None,None,None,,,,,,,,,,,,,,,,,,,,,,,12011,1,1,2024_Jun_17_0854,stroop_task_switching2,2021.2.3,60.114831350442245,
,,,黄,green,j,square,color_mix,单词,,incompatible,1,block_switch1,instruction/ready_test.png,instruction/i11.png,,,,,,,,,,,,,,,,,0,0,0,0,0,90,90,90,,,,,,,,,,,,,,,,,,,,,,,,,,,601.1393183000037,601.3396095999924,601.3240492999903,601.6229610999872,601.6229610999872,None,602.1235259999812,None,j,1,2.62486819998594,602.1235259999812,None,None,None,,,,,,,,,,,,,,,,,,,,,,,12011,1,1,2024_Jun_17_0854,stroop_task_switching2,2021.2.3,60.114831350442245,
,,,蓝,blue,f,square,color_mix,单词,,compatible,1,block_switch1,instruction/ready_test.png,instruction/i11.png,,,,,,,,,,,,,,,,,0,0,0,0,0,91,91,91,,,,,,,,,,,,,,,,,,,,,,,,,,,604.7773779999989,604.9791084000026,604.9612247000041,605.2620003999909,605.2620003999909,None,605.7623041000043,608.7678648000001,None,0,,605.7623041000043,608.7678648000001,608.7500606999965,None,,,,,,,,,,,,,,,,,,,,,,,12011,1,1,2024_Jun_17_0854,stroop_task_switching2,2021.2.3,60.114831350442245,
,,,蓝,red,f,square,color_mix,单词,,incompatible,1,block_switch1,instruction/ready_test.png,instruction/i11.png,,,,,,,,,,,,,,,,,0,0,0,0,0,92,92,92,,,,,,,,,,,,,,,,,,,,,,,,,,,609.3345995999989,609.5349054999824,609.5197031999996,609.8185500999971,609.8185500999971,None,610.3195632999996,None,f,1,1.3648298000043724,610.3195632999996,None,None,None,,,,,,,,,,,,,,,,,,,,,,,12011,1,1,2024_Jun_17_0854,stroop_task_switching2,2021.2.3,60.114831350442245,
,,,黄,blue,j,square,color_mix,单词,,incompatible,1,block_switch1,instruction/ready_test.png,instruction/i11.png,,,,,,,,,,,,,,,,,0,0,0,0,0,93,93,93,,,,,,,,,,,,,,,,,,,,,,,,,,,611.704719500005,611.9050714999903,611.8893642000039,612.1899557999859,612.1899557999859,None,612.6894711999921,None,j,1,2.2751992999983486,612.6894711999921,None,None,None,,,,,,,,,,,,,,,,,,,,,,,12011,1,1,2024_Jun_17_0854,stroop_task_switching2,2021.2.3,60.114831350442245,
,,,绿,red,d,diamond,color_mix,颜色,,incompatible,2,block_switch1,instruction/ready_test.png,instruction/i11.png,,,,,,,,,,,,,,,,,0,0,0,0,0,94,94,94,,,,,,,,,,,,,,,,,,,,,,,,,,,614.9928848999843,615.193803800008,615.1764777000062,615.4771047999966,615.4771047999966,None,615.9790655999968,None,d,1,0.9537409000040498,615.9790655999968,None,None,None,,,,,,,,,,,,,,,,,,,,,,,12011,1,1,2024_Jun_17_0854,stroop_task_switching2,2021.2.3,60.114831350442245,
,,,蓝,blue,f,diamond,color_mix,颜色,,compatible,1,block_switch1,instruction/ready_test.png,instruction/i11.png,,,,,,,,,,,,,,,,,0,0,0,0,0,95,95,95,,,,,,,,,,,,,,,,,,,,,,,,,,,616.9626411999925,617.163968399982,617.1463220999867,617.4468008999829,617.4468008999829,None,617.9474545999838,None,f,1,0.5372019000060391,617.9474545999838,None,None,None,,,,,,,,,,,,,,,,,,,,,,,12011,1,1,2024_Jun_17_0854,stroop_task_switching2,2021.2.3,60.114831350442245,
,,,绿,green,k,square,color_mix,单词,,compatible,2,block_switch1,instruction/ready_test.png,instruction/i11.png,,,,,,,,,,,,,,,,,0,0,0,0,0,96,96,96,,,,,,,,,,,,,,,,,,,,,,,,,,,618.5149275999865,618.7154971999989,618.6996854000026,618.9991607999837,618.9991607999837,None,619.4998132000037,622.504056500009,None,0,,619.4998132000037,622.504056500009,622.4877000999986,None,,,,,,,,,,,,,,,,,,,,,,,12011,1,1,2024_Jun_17_0854,stroop_task_switching2,2021.2.3,60.114831350442245,
,,,,,,,,,,,,block_switch1,instruction/ready_test.png,instruction/i11.png,,,,,,,,,,,,,,,,,0,0,0,0,,,,,,,,,,,,,,,,,,,,,,,,,,,,,,,,,,,,,,,,,,,,,,,,,,,,,,,,,,,,623.0556764999928,None,space,17.93425109999953,623.0556764999928,None,,,12011,1,1,2024_Jun_17_0854,stroop_task_switching2,2021.2.3,60.114831350442245,
,,,蓝,blue,f,square,color_mix,单词,,compatible,0,block_switch2,instruction/ready_2.png,instruction/i12.png,,,,,,,,,,,,,,,,,0,1,1,1,0,0,0,0,,,,,,,,,,,,,,,,,,,643.8372838000068,644.8394168000086,644.8394168000086,645.8400749999855,645.8400749999855,None,642.851399599982,643.8530916000018,646.857425299997,647.0585936999996,647.0416504000023,647.343000599998,647.343000599998,None,647.8434081999876,None,f,1,1.3144010000105482,647.8434081999876,None,None,None,,,,,,,,,641.0324941999861,None,space,1.804949499986833,641.0324941999861,None,,,,,,,,,12011,1,1,2024_Jun_17_0854,stroop_task_switching2,2021.2.3,60.114831350442245,
,,,黄,red,d,diamond,color_mix,颜色,,incompatible,2,block_switch2,instruction/ready_2.png,instruction/i12.png,,,,,,,,,,,,,,,,,0,1,1,1,0,1,1,1,,,,,,,,,,,,,,,,,,,,,,,,,,,649.1778502999805,649.3793356999813,649.3614513000066,649.6617011000053,649.6617011000053,None,650.162748600007,None,d,1,0.38686659999075346,650.162748600007,None,None,None,,,,,,,,,,,,,,,,,,,,,,,12011,1,1,2024_Jun_17_0854,stroop_task_switching2,2021.2.3,60.114831350442245,
,,,蓝,green,k,diamond,color_mix,颜色,,incompatible,1,block_switch2,instruction/ready_2.png,instruction/i12.png,,,,,,,,,,,,,,,,,0,1,1,1,0,2,2,2,,,,,,,,,,,,,,,,,,,,,,,,,,,650.5798764000065,650.7819322999858,650.7636216999963,651.0651016999909,651.0651016999909,None,651.5647292000067,None,k,1,0.6249201000027824,651.5647292000067,None,None,None,,,,,,,,,,,,,,,,,,,,,,,12011,1,1,2024_Jun_17_0854,stroop_task_switching2,2021.2.3,60.114831350442245,
,,,红,yellow,j,diamond,color_mix,颜色,,incompatible,1,block_switch2,instruction/ready_2.png,instruction/i12.png,,,,,,,,,,,,,,,,,0,1,1,1,0,3,3,3,,,,,,,,,,,,,,,,,,,,,,,,,,,652.2155242000008,652.4174697999842,652.3992659999931,652.6999026999983,652.6999026999983,None,653.2007824000029,None,j,1,0.8852111000160221,653.2007824000029,None,None,None,,,,,,,,,,,,,,,,,,,,,,,12011,1,1,2024_Jun_17_0854,stroop_task_switching2,2021.2.3,60.114831350442245,
,,,红,red,d,diamond,color_mix,颜色,,compatible,1,block_switch2,instruction/ready_2.png,instruction/i12.png,,,,,,,,,,,,,,,,,0,1,1,1,0,4,4,4,,,,,,,,,,,,,,,,,,,,,,,,,,,654.101892799983,654.3022356999863,654.2863416000037,654.5877880000044,654.5877880000044,None,655.087654700008,None,d,1,0.46996000001672655,655.087654700008,None,None,None,,,,,,,,,,,,,,,,,,,,,,,12011,1,1,2024_Jun_17_0854,stroop_task_switching2,2021.2.3,60.114831350442245,
,,,绿,green,k,square,color_mix,单词,,compatible,2,block_switch2,instruction/ready_2.png,instruction/i12.png,,,,,,,,,,,,,,,,,0,1,1,1,0,5,5,5,,,,,,,,,,,,,,,,,,,,,,,,,,,655.5876002000005,655.7878942999814,655.7725641999859,656.071661199996,656.071661199996,None,656.5728306999954,None,k,1,0.7368468999920879,656.5728306999954,None,None,None,,,,,,,,,,,,,,,,,,,,,,,12011,1,1,2024_Jun_17_0854,stroop_task_switching2,2021.2.3,60.114831350442245,
,,,黄,blue,f,diamond,color_mix,颜色,,incompatible,2,block_switch2,instruction/ready_2.png,instruction/i12.png,,,,,,,,,,,,,,,,,0,1,1,1,0,6,6,6,,,,,,,,,,,,,,,,,,,,,,,,,,,657.3401420000009,657.5408247000014,657.5236512999982,657.825373700005,657.825373700005,None,658.3251858000003,None,f,1,1.6168055000016466,658.3251858000003,None,None,None,,,,,,,,,,,,,,,,,,,,,,,12011,1,1,2024_Jun_17_0854,stroop_task_switching2,2021.2.3,60.114831350442245,
,,,绿,yellow,k,square,color_mix,单词,,incompatible,2,block_switch2,instruction/ready_2.png,instruction/i12.png,,,,,,,,,,,,,,,,,0,1,1,1,0,7,7,7,,,,,,,,,,,,,,,,,,,,,,,,,,,659.9609621999844,660.1612449999957,660.1453494000016,660.4450019999931,660.4450019999931,None,660.9456997999805,None,k,1,0.5963178999954835,660.9456997999805,None,None,None,,,,,,,,,,,,,,,,,,,,,,,12011,1,1,2024_Jun_17_0854,stroop_task_switching2,2021.2.3,60.114831350442245,
,,,红,green,d,square,color_mix,单词,,incompatible,1,block_switch2,instruction/ready_2.png,instruction/i12.png,,,,,,,,,,,,,,,,,0,1,1,1,0,8,8,8,,,,,,,,,,,,,,,,,,,,,,,,,,,661.5632591999893,661.7634588000074,661.7479827000061,662.0484065999917,662.0484065999917,None,662.5478313000058,None,d,1,1.9062537999998312,662.5478313000058,None,None,None,,,,,,,,,,,,,,,,,,,,,,,12011,1,1,2024_Jun_17_0854,stroop_task_switching2,2021.2.3,60.114831350442245,
,,,黄,yellow,j,square,color_mix,单词,,compatible,1,block_switch2,instruction/ready_2.png,instruction/i12.png,,,,,,,,,,,,,,,,,0,1,1,1,0,9,9,9,,,,,,,,,,,,,,,,,,,,,,,,,,,664.4841744999867,664.6852688000072,664.667905099981,664.9691608999856,664.9691608999856,None,665.4689558999962,None,j,1,0.8969148000178393,665.4689558999962,None,None,None,,,,,,,,,,,,,,,,,,,,,,,12011,1,1,2024_Jun_17_0854,stroop_task_switching2,2021.2.3,60.114831350442245,
