b_pra,ins_blocks,ins_blocks2,stim_word,stim_color,corrAns,cue_type,trial_type,task_type,rand,compatibility,switch,b_test,w_pic,w_pic2,trials_instr.thisRepN,trials_instr.thisTrialN,trials_instr.thisN,trials_instr.thisIndex,block_pra.thisRepN,block_pra.thisTrialN,block_pra.thisN,block_pra.thisIndex,trials_rep.thisRepN,trials_rep.thisTrialN,trials_rep.thisN,trials_rep.thisIndex,trials_pra.thisRepN,trials_pra.thisTrialN,trials_pra.thisN,trials_pra.thisIndex,trials_3.thisRepN,trials_3.thisTrialN,trials_3.thisN,trials_3.thisIndex,trials_2.thisRepN,trials_2.thisTrialN,trials_2.thisN,trials_2.thisIndex,instr_image.started,instr_image.stopped,instr_key_resp.keys,instr_key_resp.rt,instr_key_resp.started,instr_key_resp.stopped,instr_pra_image.started,instr_pra_image.stopped,ip_key_resp.keys,ip_key_resp.rt,ip_key_resp.started,ip_key_resp.stopped,block_image.started,block_image.stopped,ib_key_resp.keys,ib_key_resp.rt,ib_key_resp.started,ib_key_resp.stopped,cd3.started,cd3.stopped,cd2.started,cd2.stopped,cd1.started,cd1.stopped,cd_text.started,cd_text.stopped,text_fix.started,text_fix.stopped,text_2.started,text_2.stopped,text_4.started,text_4.stopped,text_target.started,text_target.stopped,key_resp.keys,key_resp.corr,key_resp.rt,key_resp.started,key_resp.stopped,sceen_black.started,sceen_black.stopped,text_fb.started,text_fb.stopped,text.started,text.stopped,key_bf.keys,key_bf.rt,key_bf.started,key_bf.stopped,instr_test_image.started,instr_test_image.stopped,instr_exp_key_resp.keys,instr_exp_key_resp.rt,instr_exp_key_resp.started,instr_exp_key_resp.stopped,text_rest.started,text_rest.stopped,key_resp_rest.keys,key_resp_rest.rt,key_resp_rest.started,key_resp_rest.stopped,text_3.started,text_3.stopped,participant,session,balance,date,expName,psychopyVersion,frameRate,
,,,,,,,,,,,,,,,0,0,0,0,,,,,,,,,,,,,,,,,,,,,8.194763600000442,None,right,3.8188205000005837,8.194763600000442,None,,,,,,,,,,,,,,,,,,,,,,,,,,,,,,,,,,,,,,,,,,,,,,,,,,,,,,,,,,12010,1,2,2024_Jun_15_1951,stroop_task_switching2_b,2021.2.3,59.716109614806875,
,,,,,,,,,,,,,,,1,0,1,0,,,,,,,,,,,,,,,,,,,,,12.04989569999998,None,right,58.044679200000246,12.04989569999998,None,,,,,,,,,,,,,,,,,,,,,,,,,,,,,,,,,,,,,,,,,,,,,,,,,,,,,,,,,,12010,1,2,2024_Jun_15_1951,stroop_task_switching2_b,2021.2.3,59.716109614806875,
,,,,,,,,,,,,,,,2,0,2,0,,,,,,,,,,,,,,,,,,,,,70.13830750000125,None,right,0.21298019999994722,70.13830750000125,None,,,,,,,,,,,,,,,,,,,,,,,,,,,,,,,,,,,,,,,,,,,,,,,,,,,,,,,,,,12010,1,2,2024_Jun_15_1951,stroop_task_switching2_b,2021.2.3,59.716109614806875,
,,,,,,,,,,,,,,,3,0,3,0,,,,,,,,,,,,,,,,,,,,,70.38901679999981,None,right,0.14546030000019528,70.38901679999981,None,,,,,,,,,,,,,,,,,,,,,,,,,,,,,,,,,,,,,,,,,,,,,,,,,,,,,,,,,,12010,1,2,2024_Jun_15_1951,stroop_task_switching2_b,2021.2.3,59.716109614806875,
,,,,,,,,,,,,,,,4,0,4,0,,,,,,,,,,,,,,,,,,,,,70.57289740000124,None,right,0.37757799999963026,70.57289740000124,None,,,,,,,,,,,,,,,,,,,,,,,,,,,,,,,,,,,,,,,,,,,,,,,,,,,,,,,,,,12010,1,2,2024_Jun_15_1951,stroop_task_switching2_b,2021.2.3,59.716109614806875,
,,,,,,,,,,,,,,,5,0,5,0,,,,,,,,,,,,,,,,,,,,,70.9893731000011,None,right,0.22554909999962547,70.9893731000011,None,,,,,,,,,,,,,,,,,,,,,,,,,,,,,,,,,,,,,,,,,,,,,,,,,,,,,,,,,,12010,1,2,2024_Jun_15_1951,stroop_task_switching2_b,2021.2.3,59.716109614806875,
,,,,,,,,,,,,,,,,,,,,,,,,,,,,,,,,,,,,,,,,,,,,,71.25708889999987,None,space,1.751311899999564,71.25708889999987,None,,,,,,,,,,,,,,,,,,,,,,,,,,,,,,,,,,,,,,,,,,,,,,,,,,,,12010,1,2,2024_Jun_15_1951,stroop_task_switching2_b,2021.2.3,59.716109614806875,
condition/block_color_b,instruction/instr_color,instruction/i8_b,XX,red,k,diamond,color_single,颜色,,,,,,,,,,,0,0,0,0,0,0,0,0,0,0,0,0,,,,,,,,,,,,,,,,,,,,,73.0425148000013,None,space,5.726476199999524,73.0425148000013,None,79.83676569999989,80.83793429999969,80.83793429999969,81.84005460000117,81.84005460000117,None,78.85154030000012,79.85430559999986,82.82437010000103,83.02506110000104,83.00857170000018,83.30959280000025,83.30959280000025,None,83.79198990000077,None,k,1,0.9270111000005272,83.79198990000077,None,None,None,84.82702690000042,None,,,,,,,,,,,,,,,,,,,,,12010,1,2,2024_Jun_15_1951,stroop_task_switching2_b,2021.2.3,59.716109614806875,
condition/block_color_b,instruction/instr_color,instruction/i8_b,XX,green,d,diamond,color_single,颜色,,,,,,,,,,,0,0,0,0,0,0,0,0,0,1,1,1,,,,,,,,,,,,,,,,,,,,,,,,,,,,,,,,,,,85.7623980999997,85.9632959999999,85.92870930000026,86.23039609999978,86.23039609999978,None,86.73065200000019,None,d,1,1.5089382000005571,86.73065200000019,None,None,None,88.2655833000008,None,,,,,,,,,,,,,,,,,,,,,12010,1,2,2024_Jun_15_1951,stroop_task_switching2_b,2021.2.3,59.716109614806875,
condition/block_color_b,instruction/instr_color,instruction/i8_b,XX,yellow,f,diamond,color_single,颜色,,,,,,,,,,,0,0,0,0,0,0,0,0,0,2,2,2,,,,,,,,,,,,,,,,,,,,,,,,,,,,,,,,,,,89.26736429999983,89.46743020000031,89.45086700000138,89.75183920000018,89.75183920000018,None,90.25185910000073,None,f,1,0.44369449999976496,90.25185910000073,None,None,None,90.71937980000075,None,,,,,,,,,,,,,,,,,,,,,12010,1,2,2024_Jun_15_1951,stroop_task_switching2_b,2021.2.3,59.716109614806875,
condition/block_color_b,instruction/instr_color,instruction/i8_b,XX,blue,j,diamond,color_single,颜色,,,,,,,,,,,0,0,0,0,0,0,0,0,0,3,3,3,,,,,,,,,,,,,,,,,,,,,,,,,,,,,,,,,,,91.72194330000093,91.92324840000038,91.90468979999969,92.2070216000011,92.2070216000011,None,92.70628039999974,None,j,1,0.4853355000013835,92.70628039999974,None,None,None,93.20633199999975,None,,,,,,,,,,,,,,,,,,,,,12010,1,2,2024_Jun_15_1951,stroop_task_switching2_b,2021.2.3,59.716109614806875,
condition/block_color_b,instruction/instr_color,instruction/i8_b,XX,green,d,diamond,color_single,颜色,,,,,,,,,,,0,0,0,0,0,0,0,0,0,4,4,4,,,,,,,,,,,,,,,,,,,,,,,,,,,,,,,,,,,94.207953000001,94.40907890000017,94.3916492999997,94.69399950000115,94.69399950000115,None,95.19256160000077,None,f,0,0.790628699998706,95.19256160000077,None,None,None,96.01061570000093,None,,,,,,,,,,,,,,,,,,,,,12010,1,2,2024_Jun_15_1951,stroop_task_switching2_b,2021.2.3,59.716109614806875,
condition/block_color_b,instruction/instr_color,instruction/i8_b,XX,yellow,f,diamond,color_single,颜色,,,,,,,,,,,0,0,0,0,0,0,0,0,0,5,5,5,,,,,,,,,,,,,,,,,,,,,,,,,,,,,,,,,,,97.0123476000008,97.21301970000059,97.19663659999969,97.49705030000041,97.49705030000041,None,97.99737520000053,None,f,1,0.46704460000000836,97.99737520000053,None,None,None,98.48093260000132,None,,,,,,,,,,,,,,,,,,,,,12010,1,2,2024_Jun_15_1951,stroop_task_switching2_b,2021.2.3,59.716109614806875,
condition/block_color_b,instruction/instr_color,instruction/i8_b,XX,blue,j,diamond,color_single,颜色,,,,,,,,,,,0,0,0,0,0,0,0,0,0,6,6,6,,,,,,,,,,,,,,,,,,,,,,,,,,,,,,,,,,,99.4825292000005,99.68287980000059,99.66663210000115,99.9680229000005,99.9680229000005,None,100.46797400000105,None,j,1,0.6834495000002789,100.46797400000105,None,None,None,101.16895180000029,None,,,,,,,,,,,,,,,,,,,,,12010,1,2,2024_Jun_15_1951,stroop_task_switching2_b,2021.2.3,59.716109614806875,
condition/block_color_b,instruction/instr_color,instruction/i8_b,XX,red,k,diamond,color_single,颜色,,,,,,,,,,,0,0,0,0,0,0,0,0,0,7,7,7,,,,,,,,,,,,,,,,,,,,,,,,,,,,,,,,,,,102.17098790000091,102.37288420000004,102.35421810000116,102.65456070000073,102.65456070000073,None,103.15480420000131,None,k,1,0.3011789000011049,103.15480420000131,None,None,None,103.47207590000107,None,,,,,,,,,,,,,,,,,,,,,12010,1,2,2024_Jun_15_1951,stroop_task_switching2_b,2021.2.3,59.716109614806875,
condition/block_color_b,instruction/instr_color,instruction/i8_b,XX,yellow,f,diamond,color_single,颜色,,,,,,,,,,,0,0,0,0,0,0,0,0,0,8,8,8,,,,,,,,,,,,,,,,,,,,,,,,,,,,,,,,,,,104.47542580000118,104.6739075000005,104.6580197000003,104.95743740000034,104.95743740000034,None,105.45820100000128,None,f,1,0.4854509999986476,105.45820100000128,None,None,None,105.95912230000067,None,,,,,,,,,,,,,,,,,,,,,12010,1,2,2024_Jun_15_1951,stroop_task_switching2_b,2021.2.3,59.716109614806875,
condition/block_color_b,instruction/instr_color,instruction/i8_b,XX,blue,j,diamond,color_single,颜色,,,,,,,,,,,0,0,0,0,0,0,0,0,0,9,9,9,,,,,,,,,,,,,,,,,,,,,,,,,,,,,,,,,,,106.96062660000098,107.16109979999965,107.14498269999967,107.44455890000063,107.44455890000063,None,107.94538350000039,None,j,1,1.1102978999988409,107.94538350000039,None,None,None,109.08038280000073,None,,,,,,,,,,,,,,,,,,,,,12010,1,2,2024_Jun_15_1951,stroop_task_switching2_b,2021.2.3,59.716109614806875,
condition/block_color_b,instruction/instr_color,instruction/i8_b,XX,red,k,diamond,color_single,颜色,,,,,,,,,,,0,0,0,0,0,0,0,0,0,10,10,10,,,,,,,,,,,,,,,,,,,,,,,,,,,,,,,,,,,110.08297839999977,110.28384410000035,110.26543250000032,110.56630510000105,110.56630510000105,None,111.06679500000064,None,k,1,0.43752539999877627,111.06679500000064,None,None,None,111.53344730000026,None,,,,,,,,,,,,,,,,,,,,,12010,1,2,2024_Jun_15_1951,stroop_task_switching2_b,2021.2.3,59.716109614806875,
condition/block_color_b,instruction/instr_color,instruction/i8_b,XX,green,d,diamond,color_single,颜色,,,,,,,,,,,0,0,0,0,0,0,0,0,0,11,11,11,,,,,,,,,,,,,,,,,,,,,,,,,,,,,,,,,,,112.53618210000059,112.73730790000081,112.71956430000137,113.02005070000087,113.02005070000087,None,113.52010330000121,None,d,1,0.7039717000006931,113.52010330000121,None,None,None,114.27185600000121,None,,,,,,,,,,,,,,,,,,,,,12010,1,2,2024_Jun_15_1951,stroop_task_switching2_b,2021.2.3,59.716109614806875,
condition/block_color_b,instruction/instr_color,instruction/i8_b,XX,blue,j,diamond,color_single,颜色,,,,,,,,,,,0,0,0,0,0,0,0,0,0,12,12,12,,,,,,,,,,,,,,,,,,,,,,,,,,,,,,,,,,,115.27340600000025,115.47438320000037,115.45673929999975,115.75904559999981,115.74038099999962,None,116.2411291999997,None,j,1,0.783412099999623,116.2411291999997,None,None,None,117.0422737000008,None,,,,,,,,,,,,,,,,,,,,,12010,1,2,2024_Jun_15_1951,stroop_task_switching2_b,2021.2.3,59.716109614806875,
condition/block_color_b,instruction/instr_color,instruction/i8_b,XX,red,k,diamond,color_single,颜色,,,,,,,,,,,0,0,0,0,0,0,0,0,0,13,13,13,,,,,,,,,,,,,,,,,,,,,,,,,,,,,,,,,,,118.04440419999992,118.24531469999965,118.22839770000064,118.5284671999998,118.5284671999998,None,119.02857270000095,None,k,1,0.5395566999995935,119.02857270000095,None,None,None,119.5963853000012,None,,,,,,,,,,,,,,,,,,,,,12010,1,2,2024_Jun_15_1951,stroop_task_switching2_b,2021.2.3,59.716109614806875,
condition/block_color_b,instruction/instr_color,instruction/i8_b,XX,green,d,diamond,color_single,颜色,,,,,,,,,,,0,0,0,0,0,0,0,0,0,14,14,14,,,,,,,,,,,,,,,,,,,,,,,,,,,,,,,,,,,120.59769179999967,120.79807280000023,120.78291790000003,121.08156950000011,121.08156950000011,None,121.58252420000099,None,d,1,0.5616878000000725,121.58252420000099,None,None,None,122.16676990000087,None,,,,,,,,,,,,,,,,,,,,,12010,1,2,2024_Jun_15_1951,stroop_task_switching2_b,2021.2.3,59.716109614806875,
condition/block_color_b,instruction/instr_color,instruction/i8_b,XX,yellow,f,diamond,color_single,颜色,,,,,,,,,,,0,0,0,0,0,0,0,0,0,15,15,15,,,,,,,,,,,,,,,,,,,,,,,,,,,,,,,,,,,123.16829830000097,123.3691061999998,123.35426430000007,123.65310040000077,123.65310040000077,None,124.1541287,None,f,1,0.4540300999997271,124.1541287,None,None,None,124.63688510000065,None,,,,,,,,,,,,,,,,,,,,,12010,1,2,2024_Jun_15_1951,stroop_task_switching2_b,2021.2.3,59.716109614806875,
condition/block_color_b,instruction/instr_color,instruction/i8_b,XX,red,k,diamond,color_single,颜色,,,,,,,,,,,0,0,0,0,0,0,0,0,0,16,16,16,,,,,,,,,,,,,,,,,,,,,,,,,,,,,,,,,,,125.63858390000132,125.84138510000048,125.82286469999963,126.12293280000085,126.12293280000085,None,126.62355560000105,None,k,1,0.656920600000376,126.62355560000105,None,None,None,127.30771129999994,None,,,,,,,,,,,,,,,,,,,,,12010,1,2,2024_Jun_15_1951,stroop_task_switching2_b,2021.2.3,59.716109614806875,
condition/block_color_b,instruction/instr_color,instruction/i8_b,XX,green,d,diamond,color_single,颜色,,,,,,,,,,,0,0,0,0,0,0,0,0,0,17,17,17,,,,,,,,,,,,,,,,,,,,,,,,,,,,,,,,,,,128.30940250000094,128.5103921000009,128.49299070000052,128.7941389000007,128.7941389000007,None,129.29501150000033,None,d,1,0.7614654000008159,129.29501150000033,None,None,None,130.07877019999978,None,,,,,,,,,,,,,,,,,,,,,12010,1,2,2024_Jun_15_1951,stroop_task_switching2_b,2021.2.3,59.716109614806875,
condition/block_color_b,instruction/instr_color,instruction/i8_b,XX,yellow,f,diamond,color_single,颜色,,,,,,,,,,,0,0,0,0,0,0,0,0,0,18,18,18,,,,,,,,,,,,,,,,,,,,,,,,,,,,,,,,,,,131.08123660000092,131.28081790000033,131.26505050000014,131.56454830000075,131.56454830000075,None,132.0657134000012,None,f,1,0.5268094000002748,132.0657134000012,None,None,None,132.61567620000096,None,,,,,,,,,,,,,,,,,,,,,12010,1,2,2024_Jun_15_1951,stroop_task_switching2_b,2021.2.3,59.716109614806875,
condition/block_color_b,instruction/instr_color,instruction/i8_b,XX,blue,j,diamond,color_single,颜色,,,,,,,,,,,0,0,0,0,0,0,0,0,0,19,19,19,,,,,,,,,,,,,,,,,,,,,,,,,,,,,,,,,,,133.6173878999998,133.81817609999962,133.80099359999986,134.1014224999999,134.1014224999999,None,134.60221509999974,None,j,1,0.574366299999383,134.60221509999974,None,None,None,135.2031072000009,None,,,,,,,,,,,,,,,,,,,,,12010,1,2,2024_Jun_15_1951,stroop_task_switching2_b,2021.2.3,59.716109614806875,
condition/block_color_b,instruction/instr_color,instruction/i8_b,XX,green,d,diamond,color_single,颜色,,,,,,,,,,,0,0,0,0,0,0,0,0,0,20,20,20,,,,,,,,,,,,,,,,,,,,,,,,,,,,,,,,,,,136.20498340000086,136.40470070000083,136.3889990000007,136.6908671000001,136.6908671000001,None,137.19034339999962,None,d,1,0.4105102999983501,137.19034339999962,None,None,None,137.6233255999996,None,,,,,,,,,,,,,,,,,,,,,12010,1,2,2024_Jun_15_1951,stroop_task_switching2_b,2021.2.3,59.716109614806875,
condition/block_color_b,instruction/instr_color,instruction/i8_b,XX,yellow,f,diamond,color_single,颜色,,,,,,,,,,,0,0,0,0,0,0,0,0,0,21,21,21,,,,,,,,,,,,,,,,,,,,,,,,,,,,,,,,,,,138.62475770000128,138.8279237000006,138.80947360000027,139.10899510000127,139.10899510000127,None,139.6097600000012,None,f,1,0.5111768000006123,139.6097600000012,None,None,None,140.14386809999996,None,,,,,,,,,,,,,,,,,,,,,12010,1,2,2024_Jun_15_1951,stroop_task_switching2_b,2021.2.3,59.716109614806875,
condition/block_color_b,instruction/instr_color,instruction/i8_b,XX,blue,j,diamond,color_single,颜色,,,,,,,,,,,0,0,0,0,0,0,0,0,0,22,22,22,,,,,,,,,,,,,,,,,,,,,,,,,,,,,,,,,,,141.1472896000014,141.3636189000008,141.32902020000074,141.6295695000008,141.6295695000008,None,142.13009070000044,None,j,1,0.4147696999989421,142.13009070000044,None,None,None,142.56482810000125,None,,,,,,,,,,,,,,,,,,,,,12010,1,2,2024_Jun_15_1951,stroop_task_switching2_b,2021.2.3,59.716109614806875,
condition/block_color_b,instruction/instr_color,instruction/i8_b,XX,red,k,diamond,color_single,颜色,,,,,,,,,,,0,0,0,0,0,0,0,0,0,23,23,23,,,,,,,,,,,,,,,,,,,,,,,,,,,,,,,,,,,143.5656379000011,143.76672409999992,143.74954740000067,144.04976780000106,144.04976780000106,None,144.5505673000007,None,k,1,0.7309583000005659,144.5505673000007,None,None,None,145.30159090000052,None,,,,,,,,,,,,,,,,,,,,,12010,1,2,2024_Jun_15_1951,stroop_task_switching2_b,2021.2.3,59.716109614806875,
condition/block_color_b,instruction/instr_color,instruction/i8_b,,,,,,,,,,,,,,,,,0,0,0,0,0,0,0,0,,,,,,,,,,,,,,,,,,,,,,,,,,,,,,,,,,,,,,,,,,,,,,,,,,,,,,,,146.31980610000028,None,space,2.567014399999607,146.31980610000028,None,,,,,,,,,,,,,,,12010,1,2,2024_Jun_15_1951,stroop_task_switching2_b,2021.2.3,59.716109614806875,
condition/block_color_b,instruction/instr_color,instruction/i8_b,,,,,,,,,,,,,,,,,0,0,0,0,,,,,,,,,,,,,,,,,,,,,,,,,,,,,,,,,,,,,,,,,,,,,,,,,,,,,,,,,,,,,,,,,,,,,,,,,,,,,,,,12010,1,2,2024_Jun_15_1951,stroop_task_switching2_b,2021.2.3,59.716109614806875,
condition/block_word_b,instruction/instr_word,instruction/i9_b,黄,white,f,square,word_single,单词,0.0032461461866890584,,,,,,,,,,0,1,1,1,0,0,0,0,0,0,0,0,,,,,,,,,,,,,,,,,,,,,148.94087089999994,None,space,11.100282899999002,148.94087089999994,None,161.05933200000072,162.06126539999968,162.06126539999968,163.06262930000048,163.06262930000048,None,160.07405800000015,161.07681820000107,164.07997200000136,164.28038209999977,164.26448580000033,164.56392150000102,164.56392150000102,None,165.06542770000124,None,f,1,0.7757799999999406,165.06542770000124,None,None,None,165.90005010000095,None,,,,,,,,,,,,,,,,,,,,,12010,1,2,2024_Jun_15_1951,stroop_task_switching2_b,2021.2.3,59.716109614806875,
condition/block_word_b,instruction/instr_word,instruction/i9_b,蓝,white,j,square,word_single,单词,0.060540570646362424,,,,,,,,,,0,1,1,1,0,0,0,0,0,1,1,1,,,,,,,,,,,,,,,,,,,,,,,,,,,,,,,,,,,166.88517420000062,167.08623950000037,167.05199250000078,167.35230299999967,167.35230299999967,None,167.85213939999994,None,j,1,1.3330599999990227,167.85213939999994,None,None,None,169.20471410000027,None,,,,,,,,,,,,,,,,,,,,,12010,1,2,2024_Jun_15_1951,stroop_task_switching2_b,2021.2.3,59.716109614806875,
condition/block_word_b,instruction/instr_word,instruction/i9_b,黄,white,f,square,word_single,单词,0.06994067193778963,,,,,,,,,,0,1,1,1,0,0,0,0,0,2,2,2,,,,,,,,,,,,,,,,,,,,,,,,,,,,,,,,,,,170.20677869999963,170.40692710000076,170.3913131999998,170.69176920000064,170.69176920000064,None,171.1907241000008,None,f,1,0.7788147999999637,171.1907241000008,None,None,None,171.9920302999999,None,,,,,,,,,,,,,,,,,,,,,12010,1,2,2024_Jun_15_1951,stroop_task_switching2_b,2021.2.3,59.716109614806875,
condition/block_word_b,instruction/instr_word,instruction/i9_b,蓝,white,j,square,word_single,单词,0.08193765152950094,,,,,,,,,,0,1,1,1,0,0,0,0,0,3,3,3,,,,,,,,,,,,,,,,,,,,,,,,,,,,,,,,,,,172.9933531000006,173.19433670000035,173.1788319999996,173.4797653000005,173.4797653000005,None,173.97894580000138,None,j,1,0.5906171000005997,173.97894580000138,None,None,None,174.5959481000009,None,,,,,,,,,,,,,,,,,,,,,12010,1,2,2024_Jun_15_1951,stroop_task_switching2_b,2021.2.3,59.716109614806875,
condition/block_word_b,instruction/instr_word,instruction/i9_b,红,white,k,square,word_single,单词,0.1279694370605574,,,,,,,,,,0,1,1,1,0,0,0,0,0,4,4,4,,,,,,,,,,,,,,,,,,,,,,,,,,,,,,,,,,,175.5972614000002,175.79952810000032,175.78124490000118,176.0814104000001,176.0814104000001,None,176.5821452,None,k,1,0.395463099999688,176.5821452,None,None,None,176.99926779999987,None,,,,,,,,,,,,,,,,,,,,,12010,1,2,2024_Jun_15_1951,stroop_task_switching2_b,2021.2.3,59.716109614806875,
condition/block_word_b,instruction/instr_word,instruction/i9_b,红,white,k,square,word_single,单词,0.18345028784879092,,,,,,,,,,0,1,1,1,0,0,0,0,0,5,5,5,,,,,,,,,,,,,,,,,,,,,,,,,,,,,,,,,,,178.0017609000006,178.2037366000004,178.1849011000013,178.48589710000124,178.48589710000124,None,178.98558200000116,None,k,1,0.6009073000004719,178.98558200000116,None,None,None,179.6032568999999,None,,,,,,,,,,,,,,,,,,,,,12010,1,2,2024_Jun_15_1951,stroop_task_switching2_b,2021.2.3,59.716109614806875,
condition/block_word_b,instruction/instr_word,instruction/i9_b,蓝,white,j,square,word_single,单词,0.19920386223101294,,,,,,,,,,0,1,1,1,0,0,0,0,0,6,6,6,,,,,,,,,,,,,,,,,,,,,,,,,,,,,,,,,,,180.60535429999982,180.8069343999996,180.78941510000004,181.09096080000018,181.09096080000018,None,181.5897573000002,None,j,1,1.003964100000303,181.5897573000002,None,None,None,182.6079430000009,None,,,,,,,,,,,,,,,,,,,,,12010,1,2,2024_Jun_15_1951,stroop_task_switching2_b,2021.2.3,59.716109614806875,
condition/block_word_b,instruction/instr_word,instruction/i9_b,蓝,white,j,square,word_single,单词,0.26360599864925405,,,,,,,,,,0,1,1,1,0,0,0,0,0,7,7,7,,,,,,,,,,,,,,,,,,,,,,,,,,,,,,,,,,,183.6101252999997,183.8096501,183.79290910000054,184.09354940000048,184.09354940000048,None,184.594982300001,None,j,1,0.7991308000000572,184.594982300001,None,None,None,185.41240629999993,None,,,,,,,,,,,,,,,,,,,,,12010,1,2,2024_Jun_15_1951,stroop_task_switching2_b,2021.2.3,59.716109614806875,
condition/block_word_b,instruction/instr_word,instruction/i9_b,蓝,white,j,square,word_single,单词,0.358985675745526,,,,,,,,,,0,1,1,1,0,0,0,0,0,8,8,8,,,,,,,,,,,,,,,,,,,,,,,,,,,,,,,,,,,186.41358740000032,186.6158935000003,186.59751160000087,186.89876139999978,186.89876139999978,None,187.39930450000065,None,j,1,0.5548302000006515,187.39930450000065,None,None,None,187.98307970000133,None,,,,,,,,,,,,,,,,,,,,,12010,1,2,2024_Jun_15_1951,stroop_task_switching2_b,2021.2.3,59.716109614806875,
condition/block_word_b,instruction/instr_word,instruction/i9_b,绿,white,d,square,word_single,单词,0.36496733802487347,,,,,,,,,,0,1,1,1,0,0,0,0,0,9,9,9,,,,,,,,,,,,,,,,,,,,,,,,,,,,,,,,,,,188.98428820000117,189.18549630000052,189.16882820000137,189.46819830000095,189.46819830000095,None,189.96913870000026,None,d,1,0.49669270000049437,189.96913870000026,None,None,None,190.48636570000053,None,,,,,,,,,,,,,,,,,,,,,12010,1,2,2024_Jun_15_1951,stroop_task_switching2_b,2021.2.3,59.716109614806875,
condition/block_word_b,instruction/instr_word,instruction/i9_b,黄,white,f,square,word_single,单词,0.3743513623756727,,,,,,,,,,0,1,1,1,0,0,0,0,0,10,10,10,,,,,,,,,,,,,,,,,,,,,,,,,,,,,,,,,,,191.4895961000002,191.7050106000006,191.67154649999975,191.97290190000058,191.97290190000058,None,192.47389629999998,None,f,1,0.3280984000011813,192.47389629999998,None,None,None,192.82335390000117,None,,,,,,,,,,,,,,,,,,,,,12010,1,2,2024_Jun_15_1951,stroop_task_switching2_b,2021.2.3,59.716109614806875,
condition/block_word_b,instruction/instr_word,instruction/i9_b,红,white,k,square,word_single,单词,0.3894803852598544,,,,,,,,,,0,1,1,1,0,0,0,0,0,11,11,11,,,,,,,,,,,,,,,,,,,,,,,,,,,,,,,,,,,193.82524379999995,194.02611310000066,194.01054600000134,194.31086190000133,194.31086190000133,None,194.80962160000126,None,k,1,0.32032040000012785,194.80962160000126,None,None,None,195.15985999999975,None,,,,,,,,,,,,,,,,,,,,,12010,1,2,2024_Jun_15_1951,stroop_task_switching2_b,2021.2.3,59.716109614806875,
condition/block_word_b,instruction/instr_word,instruction/i9_b,绿,white,d,square,word_single,单词,0.5393759672408067,,,,,,,,,,0,1,1,1,0,0,0,0,0,12,12,12,,,,,,,,,,,,,,,,,,,,,,,,,,,,,,,,,,,196.16195230000085,196.3631032000012,196.3452651000007,196.6467429000004,196.6467429000004,None,197.1464691000001,None,f,0,0.5120932000008906,197.1464691000001,None,None,None,197.6806292000001,None,,,,,,,,,,,,,,,,,,,,,12010,1,2,2024_Jun_15_1951,stroop_task_switching2_b,2021.2.3,59.716109614806875,
condition/block_word_b,instruction/instr_word,instruction/i9_b,蓝,white,j,square,word_single,单词,0.5995731954831104,,,,,,,,,,0,1,1,1,0,0,0,0,0,13,13,13,,,,,,,,,,,,,,,,,,,,,,,,,,,,,,,,,,,198.6833241000004,198.88268960000096,198.86696219999976,199.16731210000034,199.16731210000034,None,199.66773020000073,None,j,1,0.5512478000000556,199.66773020000073,None,None,None,200.2345550000009,None,,,,,,,,,,,,,,,,,,,,,12010,1,2,2024_Jun_15_1951,stroop_task_switching2_b,2021.2.3,59.716109614806875,
condition/block_word_b,instruction/instr_word,instruction/i9_b,红,white,k,square,word_single,单词,0.6298674479151414,,,,,,,,,,0,1,1,1,0,0,0,0,0,14,14,14,,,,,,,,,,,,,,,,,,,,,,,,,,,,,,,,,,,201.23614009999983,201.4361699000001,201.41983400000026,201.72176770000078,201.72176770000078,None,202.22163790000013,None,k,1,0.6364962999996351,202.22163790000013,None,None,None,202.90650920000007,None,,,,,,,,,,,,,,,,,,,,,12010,1,2,2024_Jun_15_1951,stroop_task_switching2_b,2021.2.3,59.716109614806875,
condition/block_word_b,instruction/instr_word,instruction/i9_b,红,white,k,square,word_single,单词,0.7389942282348904,,,,,,,,,,0,1,1,1,0,0,0,0,0,15,15,15,,,,,,,,,,,,,,,,,,,,,,,,,,,,,,,,,,,203.90672330000052,204.10787970000092,204.0913504,204.3913790000006,204.37520600000062,None,204.8745572000007,None,k,1,1.5198037000009208,204.8745572000007,None,None,None,206.41039620000083,None,,,,,,,,,,,,,,,,,,,,,12010,1,2,2024_Jun_15_1951,stroop_task_switching2_b,2021.2.3,59.716109614806875,
condition/block_word_b,instruction/instr_word,instruction/i9_b,绿,white,d,square,word_single,单词,0.7550853947239682,,,,,,,,,,0,1,1,1,0,0,0,0,0,16,16,16,,,,,,,,,,,,,,,,,,,,,,,,,,,,,,,,,,,207.4125227000004,207.61209849999977,207.5957999000002,207.89672849999988,207.89672849999988,None,208.39698230000067,None,d,1,0.5895579000007274,208.39698230000067,None,None,None,209.014376000001,None,,,,,,,,,,,,,,,,,,,,,12010,1,2,2024_Jun_15_1951,stroop_task_switching2_b,2021.2.3,59.716109614806875,
condition/block_word_b,instruction/instr_word,instruction/i9_b,绿,white,d,square,word_single,单词,0.8019302780428206,,,,,,,,,,0,1,1,1,0,0,0,0,0,17,17,17,,,,,,,,,,,,,,,,,,,,,,,,,,,,,,,,,,,210.01752289999968,210.2161640000013,210.20016329999999,210.5000639000009,210.5000639000009,None,211.0013386999999,None,d,1,0.5296299999990879,211.0013386999999,None,None,None,211.5514428000006,None,,,,,,,,,,,,,,,,,,,,,12010,1,2,2024_Jun_15_1951,stroop_task_switching2_b,2021.2.3,59.716109614806875,
condition/block_word_b,instruction/instr_word,instruction/i9_b,绿,white,d,square,word_single,单词,0.8110702914095343,,,,,,,,,,0,1,1,1,0,0,0,0,0,18,18,18,,,,,,,,,,,,,,,,,,,,,,,,,,,,,,,,,,,212.55441710000014,212.7533211000009,212.7387963000001,213.03719290000117,213.03719290000117,None,213.53862240000126,None,d,1,0.632571399999506,213.53862240000126,None,None,None,214.18896870000026,None,,,,,,,,,,,,,,,,,,,,,12010,1,2,2024_Jun_15_1951,stroop_task_switching2_b,2021.2.3,59.716109614806875,
condition/block_word_b,instruction/instr_word,instruction/i9_b,黄,white,f,square,word_single,单词,0.8176594937590999,,,,,,,,,,0,1,1,1,0,0,0,0,0,19,19,19,,,,,,,,,,,,,,,,,,,,,,,,,,,,,,,,,,,215.19018789999973,215.3913229000009,215.3749396000003,215.67561690000002,215.67561690000002,None,216.17535520000092,None,f,1,0.6352728000001662,216.17535520000092,None,None,None,216.82610860000023,None,,,,,,,,,,,,,,,,,,,,,12010,1,2,2024_Jun_15_1951,stroop_task_switching2_b,2021.2.3,59.716109614806875,
condition/block_word_b,instruction/instr_word,instruction/i9_b,红,white,k,square,word_single,单词,0.8955794421104841,,,,,,,,,,0,1,1,1,0,0,0,0,0,20,20,20,,,,,,,,,,,,,,,,,,,,,,,,,,,,,,,,,,,217.82854240000052,218.02874610000072,218.01204119999966,218.314460900001,218.314460900001,None,218.8292323000005,None,k,1,0.5258585999999923,218.8292323000005,None,None,None,219.37989540000126,None,,,,,,,,,,,,,,,,,,,,,12010,1,2,2024_Jun_15_1951,stroop_task_switching2_b,2021.2.3,59.716109614806875,
condition/block_word_b,instruction/instr_word,instruction/i9_b,绿,white,d,square,word_single,单词,0.9113598052474129,,,,,,,,,,0,1,1,1,0,0,0,0,0,21,21,21,,,,,,,,,,,,,,,,,,,,,,,,,,,,,,,,,,,220.3826712000009,220.5818063000006,220.56590380000125,220.86632650000138,220.86632650000138,None,221.36712249999982,None,d,1,1.2437841999999364,221.36712249999982,None,None,None,222.63492530000076,None,,,,,,,,,,,,,,,,,,,,,12010,1,2,2024_Jun_15_1951,stroop_task_switching2_b,2021.2.3,59.716109614806875,
condition/block_word_b,instruction/instr_word,instruction/i9_b,黄,white,f,square,word_single,单词,0.9215930958042953,,,,,,,,,,0,1,1,1,0,0,0,0,0,22,22,22,,,,,,,,,,,,,,,,,,,,,,,,,,,,,,,,,,,223.63715650000086,223.83667480000076,223.82140840000102,224.12118240000018,224.12118240000018,None,224.6222052000012,None,f,1,0.6447318000009545,224.6222052000012,None,None,None,225.28898590000063,None,,,,,,,,,,,,,,,,,,,,,12010,1,2,2024_Jun_15_1951,stroop_task_switching2_b,2021.2.3,59.716109614806875,
condition/block_word_b,instruction/instr_word,instruction/i9_b,黄,white,f,square,word_single,单词,0.9493525498837774,,,,,,,,,,0,1,1,1,0,0,0,0,0,23,23,23,,,,,,,,,,,,,,,,,,,,,,,,,,,,,,,,,,,226.2914391000013,226.49101599999995,226.47406890000093,226.77549440000075,226.77549440000075,None,227.27533530000073,None,f,1,1.9519920000002458,227.27533530000073,None,None,None,229.2447499000009,None,,,,,,,,,,,,,,,,,,,,,12010,1,2,2024_Jun_15_1951,stroop_task_switching2_b,2021.2.3,59.716109614806875,
condition/block_word_b,instruction/instr_word,instruction/i9_b,,,,,,,,,,,,,,,,,0,1,1,1,0,0,0,0,,,,,,,,,,,,,,,,,,,,,,,,,,,,,,,,,,,,,,,,,,,,,,,,,,,,,,,,230.24621370000023,None,space,3.32398220000141,230.24621370000023,None,,,,,,,,,,,,,,,12010,1,2,2024_Jun_15_1951,stroop_task_switching2_b,2021.2.3,59.716109614806875,
condition/block_word_b,instruction/instr_word,instruction/i9_b,,,,,,,,,,,,,,,,,0,1,1,1,,,,,,,,,,,,,,,,,,,,,,,,,,,,,,,,,,,,,,,,,,,,,,,,,,,,,,,,,,,,,,,,,,,,,,,,,,,,,,,,12010,1,2,2024_Jun_15_1951,stroop_task_switching2_b,2021.2.3,59.716109614806875,
condition/block_mixed_b,instruction/instr_mixed,instruction/i10_b,蓝,red,k,diamond,color_mix,颜色,,incompatible,0,,,,,,,,0,2,2,2,0,0,0,0,0,0,0,0,,,,,,,,,,,,,,,,,,,,,233.63482099999965,None,space,25.681042599999273,233.63482099999965,None,260.34176470000057,261.3442965000013,261.3442965000013,262.3460673999998,262.3460673999998,None,259.35851139999977,260.35888220000015,263.3800879999999,263.5799655999999,263.5637803999998,263.8647252999999,263.8647252999999,None,264.3490782000008,None,k,1,0.9187344000001758,264.3490782000008,None,None,None,265.3326801000003,None,,,,,,,,,,,,,,,,,,,,,12010,1,2,2024_Jun_15_1951,stroop_task_switching2_b,2021.2.3,59.716109614806875,
condition/block_mixed_b,instruction/instr_mixed,instruction/i10_b,绿,yellow,f,diamond,color_mix,颜色,,incompatible,1,,,,,,,,0,2,2,2,0,0,0,0,0,1,1,1,,,,,,,,,,,,,,,,,,,,,,,,,,,,,,,,,,,266.33519290000004,266.5344092000014,266.5178265000013,266.81927180000093,266.81927180000093,None,267.3195625999997,None,f,1,0.7408551999997144,267.3195625999997,None,None,None,268.08730450000076,None,,,,,,,,,,,,,,,,,,,,,12010,1,2,2024_Jun_15_1951,stroop_task_switching2_b,2021.2.3,59.716109614806875,
condition/block_mixed_b,instruction/instr_mixed,instruction/i10_b,红,green,d,diamond,color_mix,颜色,,incompatible,1,,,,,,,,0,2,2,2,0,0,0,0,0,2,2,2,,,,,,,,,,,,,,,,,,,,,,,,,,,,,,,,,,,269.08946880000076,269.29051919999984,269.27241649999996,269.5738386000012,269.5562153999999,None,270.0563586999997,None,d,1,1.5719609999996464,270.0563586999997,None,None,None,271.6760540000014,None,,,,,,,,,,,,,,,,,,,,,12010,1,2,2024_Jun_15_1951,stroop_task_switching2_b,2021.2.3,59.716109614806875,
condition/block_mixed_b,instruction/instr_mixed,instruction/i10_b,蓝,red,k,diamond,color_mix,颜色,,incompatible,1,,,,,,,,0,2,2,2,0,0,0,0,0,3,3,3,,,,,,,,,,,,,,,,,,,,,,,,,,,,,,,,,,,272.6793379999999,272.8948118999997,272.8447049000006,273.1450736000006,273.1450736000006,None,273.6450450000011,None,k,1,0.5432424999999057,273.6450450000011,None,None,None,274.21248689999993,None,,,,,,,,,,,,,,,,,,,,,12010,1,2,2024_Jun_15_1951,stroop_task_switching2_b,2021.2.3,59.716109614806875,
condition/block_mixed_b,instruction/instr_mixed,instruction/i10_b,红,blue,j,diamond,color_mix,颜色,,incompatible,1,,,,,,,,0,2,2,2,0,0,0,0,0,4,4,4,,,,,,,,,,,,,,,,,,,,,,,,,,,,,,,,,,,275.21408690000135,275.4151651000011,275.3999961999998,275.69939610000074,275.69939610000074,None,276.19898920000014,None,j,1,1.069901700000628,276.19898920000014,None,None,None,277.2840804999996,None,,,,,,,,,,,,,,,,,,,,,12010,1,2,2024_Jun_15_1951,stroop_task_switching2_b,2021.2.3,59.716109614806875,
condition/block_mixed_b,instruction/instr_mixed,instruction/i10_b,红,blue,k,square,color_mix,单词,,incompatible,2,,,,,,,,0,2,2,2,0,0,0,0,0,5,5,5,,,,,,,,,,,,,,,,,,,,,,,,,,,,,,,,,,,278.28584779999983,278.4864075000005,278.4696254999999,278.7715191999996,278.7715191999996,None,279.2707244000012,None,k,1,0.8215822000001936,279.2707244000012,None,None,None,280.1215255999996,None,,,,,,,,,,,,,,,,,,,,,12010,1,2,2024_Jun_15_1951,stroop_task_switching2_b,2021.2.3,59.716109614806875,
condition/block_mixed_b,instruction/instr_mixed,instruction/i10_b,红,yellow,f,diamond,color_mix,颜色,,incompatible,2,,,,,,,,0,2,2,2,0,0,0,0,0,6,6,6,,,,,,,,,,,,,,,,,,,,,,,,,,,,,,,,,,,281.12376570000015,281.32418900000084,281.30747150000025,281.6075344000001,281.6075344000001,None,282.1078565000007,None,f,1,0.6167069000002812,282.1078565000007,None,None,None,282.74250630000097,None,,,,,,,,,,,,,,,,,,,,,12010,1,2,2024_Jun_15_1951,stroop_task_switching2_b,2021.2.3,59.716109614806875,
condition/block_mixed_b,instruction/instr_mixed,instruction/i10_b,红,yellow,k,square,color_mix,单词,,incompatible,2,,,,,,,,0,2,2,2,0,0,0,0,0,7,7,7,,,,,,,,,,,,,,,,,,,,,,,,,,,,,,,,,,,283.7445652000006,283.9442932000002,283.92840630000137,284.228420200001,284.228420200001,None,284.7287214000007,None,k,1,0.6522136999992654,284.7287214000007,None,None,None,285.3960551,None,,,,,,,,,,,,,,,,,,,,,12010,1,2,2024_Jun_15_1951,stroop_task_switching2_b,2021.2.3,59.716109614806875,
condition/block_mixed_b,instruction/instr_mixed,instruction/i10_b,绿,blue,d,square,color_mix,单词,,incompatible,1,,,,,,,,0,2,2,2,0,0,0,0,0,8,8,8,,,,,,,,,,,,,,,,,,,,,,,,,,,,,,,,,,,286.3985045999998,286.5989679000013,286.58124150000003,286.8830674000001,286.8830674000001,None,287.38319460000093,None,d,1,1.7414678000004642,287.38319460000093,None,None,None,289.1519657000008,None,,,,,,,,,,,,,,,,,,,,,12010,1,2,2024_Jun_15_1951,stroop_task_switching2_b,2021.2.3,59.716109614806875,
condition/block_mixed_b,instruction/instr_mixed,instruction/i10_b,蓝,green,d,diamond,color_mix,颜色,,incompatible,2,,,,,,,,0,2,2,2,0,0,0,0,0,9,9,9,,,,,,,,,,,,,,,,,,,,,,,,,,,,,,,,,,,290.15320410000095,290.35446390000106,290.3385914999999,290.63847910000004,290.63847910000004,None,291.1382719000012,None,d,1,0.7949908999999025,291.1382719000012,None,None,None,291.95646940000006,None,,,,,,,,,,,,,,,,,,,,,12010,1,2,2024_Jun_15_1951,stroop_task_switching2_b,2021.2.3,59.716109614806875,
condition/block_mixed_b,instruction/instr_mixed,instruction/i10_b,蓝,yellow,j,square,color_mix,单词,,incompatible,2,,,,,,,,0,2,2,2,0,0,0,0,0,10,10,10,,,,,,,,,,,,,,,,,,,,,,,,,,,,,,,,,,,292.9578359999996,293.15862709999965,293.1413556000007,293.4419678000013,293.4419678000013,None,293.9424035000011,None,f,0,0.6864879000004294,293.9424035000011,None,None,None,294.64273409999987,None,,,,,,,,,,,,,,,,,,,,,12010,1,2,2024_Jun_15_1951,stroop_task_switching2_b,2021.2.3,59.716109614806875,
condition/block_mixed_b,instruction/instr_mixed,instruction/i10_b,蓝,green,j,square,color_mix,单词,,incompatible,1,,,,,,,,0,2,2,2,0,0,0,0,0,11,11,11,,,,,,,,,,,,,,,,,,,,,,,,,,,,,,,,,,,295.64599850000013,295.84558930000094,295.8284034999997,296.1290366000012,296.1290366000012,None,296.6298508,299.6365799000014,None,0,,296.6298508,299.6365799000014,299.61770609999985,None,300.18597709999995,None,,,,,,,,,,,,,,,,,,,,,12010,1,2,2024_Jun_15_1951,stroop_task_switching2_b,2021.2.3,59.716109614806875,
condition/block_mixed_b,instruction/instr_mixed,instruction/i10_b,绿,yellow,d,square,color_mix,单词,,incompatible,1,,,,,,,,0,2,2,2,0,0,0,0,0,12,12,12,,,,,,,,,,,,,,,,,,,,,,,,,,,,,,,,,,,301.1867202000012,301.38754450000124,301.3712346000011,301.6707518000003,301.6707518000003,None,302.1715572000012,None,d,1,1.1534175999986473,302.1715572000012,None,None,None,303.33999570000015,None,,,,,,,,,,,,,,,,,,,,,12010,1,2,2024_Jun_15_1951,stroop_task_switching2_b,2021.2.3,59.716109614806875,
condition/block_mixed_b,instruction/instr_mixed,instruction/i10_b,绿,blue,j,diamond,color_mix,颜色,,incompatible,2,,,,,,,,0,2,2,2,0,0,0,0,0,13,13,13,,,,,,,,,,,,,,,,,,,,,,,,,,,,,,,,,,,304.34188689999974,304.5425210000012,304.5263341000009,304.8268826000003,304.8268826000003,None,305.3262255999998,None,j,1,0.9907653000009304,305.3262255999998,None,None,None,306.3444034000004,None,,,,,,,,,,,,,,,,,,,,,12010,1,2,2024_Jun_15_1951,stroop_task_switching2_b,2021.2.3,59.716109614806875,
condition/block_mixed_b,instruction/instr_mixed,instruction/i10_b,黄,red,f,square,color_mix,单词,,incompatible,2,,,,,,,,0,2,2,2,0,0,0,0,0,14,14,14,,,,,,,,,,,,,,,,,,,,,,,,,,,,,,,,,,,307.34616710000046,307.54709470000125,307.53052209999987,307.8306236999997,307.8306236999997,None,308.33068620000086,None,f,1,1.562651599999299,308.33068620000086,None,None,None,309.9170730000005,None,,,,,,,,,,,,,,,,,,,,,12010,1,2,2024_Jun_15_1951,stroop_task_switching2_b,2021.2.3,59.716109614806875,
condition/block_mixed_b,instruction/instr_mixed,instruction/i10_b,蓝,yellow,f,diamond,color_mix,颜色,,incompatible,2,,,,,,,,0,2,2,2,0,0,0,0,0,15,15,15,,,,,,,,,,,,,,,,,,,,,,,,,,,,,,,,,,,310.91819600000053,311.11906980000094,311.10160090000136,311.4029867999998,311.4029867999998,None,311.9032774999996,None,f,1,0.6943544000005204,311.9032774999996,None,None,None,312.6209067,None,,,,,,,,,,,,,,,,,,,,,12010,1,2,2024_Jun_15_1951,stroop_task_switching2_b,2021.2.3,59.716109614806875,
condition/block_mixed_b,instruction/instr_mixed,instruction/i10_b,黄,red,k,diamond,color_mix,颜色,,incompatible,1,,,,,,,,0,2,2,2,0,0,0,0,0,16,16,16,,,,,,,,,,,,,,,,,,,,,,,,,,,,,,,,,,,313.6232918000005,313.8223187000003,313.80638720000024,314.10860409999987,314.10860409999987,None,314.60829920000106,None,k,1,1.0456570999995165,314.60829920000106,None,None,None,315.67535640000096,None,,,,,,,,,,,,,,,,,,,,,12010,1,2,2024_Jun_15_1951,stroop_task_switching2_b,2021.2.3,59.716109614806875,
condition/block_mixed_b,instruction/instr_mixed,instruction/i10_b,绿,red,d,square,color_mix,单词,,incompatible,2,,,,,,,,0,2,2,2,0,0,0,0,0,17,17,17,,,,,,,,,,,,,,,,,,,,,,,,,,,,,,,,,,,316.6771349999999,316.87772060000134,316.8612438,317.1615202000012,317.1615202000012,None,317.66138310000133,None,d,1,0.6324829999994108,317.66138310000133,None,None,None,318.3128222000014,None,,,,,,,,,,,,,,,,,,,,,12010,1,2,2024_Jun_15_1951,stroop_task_switching2_b,2021.2.3,59.716109614806875,
condition/block_mixed_b,instruction/instr_mixed,instruction/i10_b,红,green,k,square,color_mix,单词,,incompatible,1,,,,,,,,0,2,2,2,0,0,0,0,0,18,18,18,,,,,,,,,,,,,,,,,,,,,,,,,,,,,,,,,,,319.31505690000085,319.51509609999994,319.4982407000007,319.79915190000065,319.79915190000065,None,320.29939320000085,None,k,1,0.6262640999993891,320.29939320000085,None,None,None,320.9501756999998,None,,,,,,,,,,,,,,,,,,,,,12010,1,2,2024_Jun_15_1951,stroop_task_switching2_b,2021.2.3,59.716109614806875,
condition/block_mixed_b,instruction/instr_mixed,instruction/i10_b,黄,blue,j,diamond,color_mix,颜色,,incompatible,2,,,,,,,,0,2,2,2,0,0,0,0,0,19,19,19,,,,,,,,,,,,,,,,,,,,,,,,,,,,,,,,,,,321.9512711999996,322.15301999999974,322.13490880000063,322.4352153,322.4352153,None,322.93757189999997,None,j,1,0.9482862999993813,322.93757189999997,None,None,None,323.90465700000095,None,,,,,,,,,,,,,,,,,,,,,12010,1,2,2024_Jun_15_1951,stroop_task_switching2_b,2021.2.3,59.716109614806875,
condition/block_mixed_b,instruction/instr_mixed,instruction/i10_b,黄,green,d,diamond,color_mix,颜色,,incompatible,1,,,,,,,,0,2,2,2,0,0,0,0,0,20,20,20,,,,,,,,,,,,,,,,,,,,,,,,,,,,,,,,,,,324.90652500000033,325.1079651,325.08972770000037,325.3901579000012,325.3901579000012,None,325.8906227000007,None,d,1,0.6680703000001813,325.8906227000007,None,None,None,326.57535970000026,None,,,,,,,,,,,,,,,,,,,,,12010,1,2,2024_Jun_15_1951,stroop_task_switching2_b,2021.2.3,59.716109614806875,
condition/block_mixed_b,instruction/instr_mixed,instruction/i10_b,黄,green,f,square,color_mix,单词,,incompatible,2,,,,,,,,0,2,2,2,0,0,0,0,0,21,21,21,,,,,,,,,,,,,,,,,,,,,,,,,,,,,,,,,,,327.5777687000009,327.77819830000044,327.7600691000007,328.0614612999998,328.0614612999998,None,328.56131260000075,None,f,1,1.3408226999999897,328.56131260000075,None,None,None,329.9308976000011,None,,,,,,,,,,,,,,,,,,,,,12010,1,2,2024_Jun_15_1951,stroop_task_switching2_b,2021.2.3,59.716109614806875,
condition/block_mixed_b,instruction/instr_mixed,instruction/i10_b,黄,blue,f,square,color_mix,单词,,incompatible,1,,,,,,,,0,2,2,2,0,0,0,0,0,22,22,22,,,,,,,,,,,,,,,,,,,,,,,,,,,,,,,,,,,330.93163730000015,331.131949300001,331.11608290000004,331.4167550000002,331.4167550000002,None,331.91640130000087,None,f,1,0.953496100000848,331.91640130000087,None,None,None,332.9020932000003,None,,,,,,,,,,,,,,,,,,,,,12010,1,2,2024_Jun_15_1951,stroop_task_switching2_b,2021.2.3,59.716109614806875,
condition/block_mixed_b,instruction/instr_mixed,instruction/i10_b,蓝,red,j,square,color_mix,单词,,incompatible,1,,,,,,,,0,2,2,2,0,0,0,0,0,23,23,23,,,,,,,,,,,,,,,,,,,,,,,,,,,,,,,,,,,333.903021600001,334.10516670000106,334.0871514999999,334.3875239000008,334.3875239000008,None,334.88756020000073,None,j,1,1.6225506999999197,334.88756020000073,None,None,None,336.5399556000011,None,,,,,,,,,,,,,,,,,,,,,12010,1,2,2024_Jun_15_1951,stroop_task_switching2_b,2021.2.3,59.716109614806875,
condition/block_mixed_b,instruction/instr_mixed,instruction/i10_b,绿,red,k,diamond,color_mix,颜色,,incompatible,2,,,,,,,,0,2,2,2,0,0,0,0,0,24,24,24,,,,,,,,,,,,,,,,,,,,,,,,,,,,,,,,,,,337.5417929000014,337.7418250999999,337.7266350000009,338.04393280000113,338.0255562000002,None,338.5269795000004,None,k,1,0.7516200000009121,338.5269795000004,None,None,None,339.294679300001,None,,,,,,,,,,,,,,,,,,,,,12010,1,2,2024_Jun_15_1951,stroop_task_switching2_b,2021.2.3,59.716109614806875,
condition/block_mixed_b,instruction/instr_mixed,instruction/i10_b,绿,green,d,diamond,color_mix,颜色,,compatible,1,,,,,,,,0,2,2,2,0,0,0,0,0,25,25,25,,,,,,,,,,,,,,,,,,,,,,,,,,,,,,,,,,,340.29687960000047,340.49712720000025,340.4792782000004,340.78114670000105,340.78114670000105,None,341.2813676000005,None,d,1,0.7012009999998554,341.2813676000005,None,None,None,341.9988762000012,None,,,,,,,,,,,,,,,,,,,,,12010,1,2,2024_Jun_15_1951,stroop_task_switching2_b,2021.2.3,59.716109614806875,
condition/block_mixed_b,instruction/instr_mixed,instruction/i10_b,蓝,blue,j,diamond,color_mix,颜色,,compatible,1,,,,,,,,0,2,2,2,0,0,0,0,0,26,26,26,,,,,,,,,,,,,,,,,,,,,,,,,,,,,,,,,,,343.00103130000025,343.20171350000055,343.1840252000002,343.4851795000013,343.4851795000013,None,343.9844819000009,None,j,1,1.2376342999996268,343.9844819000009,None,None,None,345.25310940000054,None,,,,,,,,,,,,,,,,,,,,,12010,1,2,2024_Jun_15_1951,stroop_task_switching2_b,2021.2.3,59.716109614806875,
condition/block_mixed_b,instruction/instr_mixed,instruction/i10_b,绿,green,d,square,color_mix,单词,,compatible,2,,,,,,,,0,2,2,2,0,0,0,0,0,27,27,27,,,,,,,,,,,,,,,,,,,,,,,,,,,,,,,,,,,346.2547394000012,346.4573025999998,346.43911409999964,346.739327700001,346.739327700001,None,347.23968849999983,None,d,1,0.7107032000003528,347.23968849999983,None,None,None,347.97387920000074,None,,,,,,,,,,,,,,,,,,,,,12010,1,2,2024_Jun_15_1951,stroop_task_switching2_b,2021.2.3,59.716109614806875,
condition/block_mixed_b,instruction/instr_mixed,instruction/i10_b,绿,green,d,square,color_mix,单词,,compatible,1,,,,,,,,0,2,2,2,0,0,0,0,0,28,28,28,,,,,,,,,,,,,,,,,,,,,,,,,,,,,,,,,,,348.9762939000011,349.1759170000005,349.15939960000105,349.4613375000008,349.4613375000008,None,349.96012750000045,None,d,1,0.5422840000010183,349.96012750000045,None,None,None,350.52763419999974,None,,,,,,,,,,,,,,,,,,,,,12010,1,2,2024_Jun_15_1951,stroop_task_switching2_b,2021.2.3,59.716109614806875,
condition/block_mixed_b,instruction/instr_mixed,instruction/i10_b,蓝,blue,j,square,color_mix,单词,,compatible,1,,,,,,,,0,2,2,2,0,0,0,0,0,29,29,29,,,,,,,,,,,,,,,,,,,,,,,,,,,,,,,,,,,351.5293418000001,351.7295516000013,351.71410079999987,352.0150556000008,352.0150556000008,None,352.5141835000013,None,j,1,0.900286000000051,352.5141835000013,None,None,None,353.43230870000116,None,,,,,,,,,,,,,,,,,,,,,12010,1,2,2024_Jun_15_1951,stroop_task_switching2_b,2021.2.3,59.716109614806875,
condition/block_mixed_b,instruction/instr_mixed,instruction/i10_b,黄,yellow,f,diamond,color_mix,颜色,,compatible,2,,,,,,,,0,2,2,2,0,0,0,0,0,30,30,30,,,,,,,,,,,,,,,,,,,,,,,,,,,,,,,,,,,354.43358199999966,354.63438339999993,354.6182000000008,354.9180819000012,354.9180819000012,None,355.41915320000044,None,f,1,0.5955935999991198,355.41915320000044,None,None,None,356.03584500000034,None,,,,,,,,,,,,,,,,,,,,,12010,1,2,2024_Jun_15_1951,stroop_task_switching2_b,2021.2.3,59.716109614806875,
condition/block_mixed_b,instruction/instr_mixed,instruction/i10_b,绿,green,d,square,color_mix,单词,,compatible,2,,,,,,,,0,2,2,2,0,0,0,0,0,31,31,31,,,,,,,,,,,,,,,,,,,,,,,,,,,,,,,,,,,357.0375796999997,357.24019020000014,357.2215769000013,357.5216001000008,357.5216001000008,None,358.023097700001,None,d,1,1.519485099999656,358.023097700001,None,None,None,359.55831410000064,None,,,,,,,,,,,,,,,,,,,,,12010,1,2,2024_Jun_15_1951,stroop_task_switching2_b,2021.2.3,59.716109614806875,
condition/block_mixed_b,instruction/instr_mixed,instruction/i10_b,黄,yellow,f,square,color_mix,单词,,compatible,1,,,,,,,,0,2,2,2,0,0,0,0,0,32,32,32,,,,,,,,,,,,,,,,,,,,,,,,,,,,,,,,,,,360.5595845000007,360.76060510000025,360.7447123000002,361.0437471000005,361.0437471000005,None,361.5445565000009,None,f,1,0.7033582000003662,361.5445565000009,None,None,None,362.26202100000046,None,,,,,,,,,,,,,,,,,,,,,12010,1,2,2024_Jun_15_1951,stroop_task_switching2_b,2021.2.3,59.716109614806875,
condition/block_mixed_b,instruction/instr_mixed,instruction/i10_b,绿,green,d,diamond,color_mix,颜色,,compatible,2,,,,,,,,0,2,2,2,0,0,0,0,0,33,33,33,,,,,,,,,,,,,,,,,,,,,,,,,,,,,,,,,,,363.26442339999994,363.4656689000003,363.44760289999977,363.7491944000012,363.7491944000012,None,364.24836030000006,None,d,1,0.8542139000001043,364.24836030000006,None,None,None,365.13318849999996,None,,,,,,,,,,,,,,,,,,,,,12010,1,2,2024_Jun_15_1951,stroop_task_switching2_b,2021.2.3,59.716109614806875,
condition/block_mixed_b,instruction/instr_mixed,instruction/i10_b,红,red,k,square,color_mix,单词,,compatible,2,,,,,,,,0,2,2,2,0,0,0,0,0,34,34,34,,,,,,,,,,,,,,,,,,,,,,,,,,,,,,,,,,,366.1354193999996,366.3361762000004,366.3184202000011,366.61935190000077,366.61935190000077,None,367.11960590000126,None,k,1,0.7515732000010757,367.11960590000126,None,None,None,367.88726359999964,None,,,,,,,,,,,,,,,,,,,,,12010,1,2,2024_Jun_15_1951,stroop_task_switching2_b,2021.2.3,59.716109614806875,
condition/block_mixed_b,instruction/instr_mixed,instruction/i10_b,黄,yellow,f,square,color_mix,单词,,compatible,1,,,,,,,,0,2,2,2,0,0,0,0,0,35,35,35,,,,,,,,,,,,,,,,,,,,,,,,,,,,,,,,,,,368.8895723000005,369.08908840000004,369.0733882000004,369.3736643000011,369.3736643000011,None,369.87419109999973,None,f,1,0.5649804999993648,369.87419109999973,None,None,None,370.4578588000004,None,,,,,,,,,,,,,,,,,,,,,12010,1,2,2024_Jun_15_1951,stroop_task_switching2_b,2021.2.3,59.716109614806875,
condition/block_mixed_b,instruction/instr_mixed,instruction/i10_b,绿,green,d,diamond,color_mix,颜色,,compatible,2,,,,,,,,0,2,2,2,0,0,0,0,0,36,36,36,,,,,,,,,,,,,,,,,,,,,,,,,,,,,,,,,,,371.4595061,371.6596391000003,371.6440242999997,371.9437415000011,371.9437415000011,None,372.4443422000004,None,d,1,0.5386803000001237,372.4443422000004,None,None,None,373.01258960000087,None,,,,,,,,,,,,,,,,,,,,,12010,1,2,2024_Jun_15_1951,stroop_task_switching2_b,2021.2.3,59.716109614806875,
condition/block_mixed_b,instruction/instr_mixed,instruction/i10_b,蓝,blue,j,square,color_mix,单词,,compatible,2,,,,,,,,0,2,2,2,0,0,0,0,0,37,37,37,,,,,,,,,,,,,,,,,,,,,,,,,,,,,,,,,,,374.01297820000036,374.21458359999997,374.1977162000003,374.4977305000011,374.4977305000011,None,374.9980327000012,None,j,1,0.5690911999990931,374.9980327000012,None,None,None,375.5822203000007,None,,,,,,,,,,,,,,,,,,,,,12010,1,2,2024_Jun_15_1951,stroop_task_switching2_b,2021.2.3,59.716109614806875,
condition/block_mixed_b,instruction/instr_mixed,instruction/i10_b,红,red,k,square,color_mix,单词,,compatible,1,,,,,,,,0,2,2,2,0,0,0,0,0,38,38,38,,,,,,,,,,,,,,,,,,,,,,,,,,,,,,,,,,,376.5843911000011,376.78422169999976,376.7684296999996,377.06765690000066,377.06765690000066,None,377.56869110000116,None,k,1,0.5670205999995233,377.56869110000116,None,None,None,378.15295810000134,None,,,,,,,,,,,,,,,,,,,,,12010,1,2,2024_Jun_15_1951,stroop_task_switching2_b,2021.2.3,59.716109614806875,
condition/block_mixed_b,instruction/instr_mixed,instruction/i10_b,黄,yellow,f,diamond,color_mix,颜色,,compatible,2,,,,,,,,0,2,2,2,0,0,0,0,0,39,39,39,,,,,,,,,,,,,,,,,,,,,,,,,,,,,,,,,,,379.15563029999976,379.3548066000003,379.33898469999986,379.63971570000103,379.63971570000103,None,380.1396120999998,None,f,1,0.7316026000007696,380.1396120999998,None,None,None,380.89021500000126,None,,,,,,,,,,,,,,,,,,,,,12010,1,2,2024_Jun_15_1951,stroop_task_switching2_b,2021.2.3,59.716109614806875,
condition/block_mixed_b,instruction/instr_mixed,instruction/i10_b,黄,yellow,f,square,color_mix,单词,,compatible,2,,,,,,,,0,2,2,2,0,0,0,0,0,40,40,40,,,,,,,,,,,,,,,,,,,,,,,,,,,,,,,,,,,381.8916343000001,382.0920490999997,382.07533479999984,382.3764656000003,382.3764656000003,None,382.877424100001,None,f,1,0.6259757000007085,382.877424100001,None,None,None,383.52753400000074,None,,,,,,,,,,,,,,,,,,,,,12010,1,2,2024_Jun_15_1951,stroop_task_switching2_b,2021.2.3,59.716109614806875,
condition/block_mixed_b,instruction/instr_mixed,instruction/i10_b,蓝,blue,j,square,color_mix,单词,,compatible,1,,,,,,,,0,2,2,2,0,0,0,0,0,41,41,41,,,,,,,,,,,,,,,,,,,,,,,,,,,,,,,,,,,384.52925460000006,384.73163469999963,384.7138272000011,385.0147840000009,385.0147840000009,None,385.5144584999998,None,j,1,0.6369580999999016,385.5144584999998,None,None,None,386.1816508000011,None,,,,,,,,,,,,,,,,,,,,,12010,1,2,2024_Jun_15_1951,stroop_task_switching2_b,2021.2.3,59.716109614806875,
condition/block_mixed_b,instruction/instr_mixed,instruction/i10_b,蓝,blue,j,diamond,color_mix,颜色,,compatible,2,,,,,,,,0,2,2,2,0,0,0,0,0,42,42,42,,,,,,,,,,,,,,,,,,,,,,,,,,,,,,,,,,,387.1830327000007,387.3844688999998,387.3676475000011,387.66809810000086,387.66809810000086,None,388.16780310000104,None,j,1,0.5521131000004971,388.16780310000104,None,None,None,388.7369601999999,None,,,,,,,,,,,,,,,,,,,,,12010,1,2,2024_Jun_15_1951,stroop_task_switching2_b,2021.2.3,59.716109614806875,
condition/block_mixed_b,instruction/instr_mixed,instruction/i10_b,黄,yellow,f,diamond,color_mix,颜色,,compatible,1,,,,,,,,0,2,2,2,0,0,0,0,0,43,43,43,,,,,,,,,,,,,,,,,,,,,,,,,,,,,,,,,,,389.73779790000117,389.93807150000066,389.92142050000075,390.2219326000013,390.2219326000013,None,390.72189940000135,None,f,1,0.6057648999994854,390.72189940000135,None,None,None,391.3569475000004,None,,,,,,,,,,,,,,,,,,,,,12010,1,2,2024_Jun_15_1951,stroop_task_switching2_b,2021.2.3,59.716109614806875,
condition/block_mixed_b,instruction/instr_mixed,instruction/i10_b,红,red,k,diamond,color_mix,颜色,,compatible,1,,,,,,,,0,2,2,2,0,0,0,0,0,44,44,44,,,,,,,,,,,,,,,,,,,,,,,,,,,,,,,,,,,392.3581436000004,392.55800550000095,392.54237850000027,392.842270000001,392.842270000001,None,393.34349199999997,None,d,0,0.5600133999996615,393.34349199999997,None,None,None,393.9273309,None,,,,,,,,,,,,,,,,,,,,,12010,1,2,2024_Jun_15_1951,stroop_task_switching2_b,2021.2.3,59.716109614806875,
condition/block_mixed_b,instruction/instr_mixed,instruction/i10_b,蓝,blue,j,diamond,color_mix,颜色,,compatible,1,,,,,,,,0,2,2,2,0,0,0,0,0,45,45,45,,,,,,,,,,,,,,,,,,,,,,,,,,,,,,,,,,,394.92843990000074,395.12912810000125,395.11162570000124,395.41305889999967,395.41305889999967,None,395.91289289999986,None,j,1,0.7987727999989147,395.91289289999986,None,None,None,396.7308960999999,None,,,,,,,,,,,,,,,,,,,,,12010,1,2,2024_Jun_15_1951,stroop_task_switching2_b,2021.2.3,59.716109614806875,
condition/block_mixed_b,instruction/instr_mixed,instruction/i10_b,红,red,k,diamond,color_mix,颜色,,compatible,1,,,,,,,,0,2,2,2,0,0,0,0,0,46,46,46,,,,,,,,,,,,,,,,,,,,,,,,,,,,,,,,,,,397.73271620000014,397.9338028000002,397.9165730000004,398.21656540000004,398.21656540000004,None,398.7174511000012,None,k,1,0.6103153999993083,398.7174511000012,None,None,None,399.3514843000012,None,,,,,,,,,,,,,,,,,,,,,12010,1,2,2024_Jun_15_1951,stroop_task_switching2_b,2021.2.3,59.716109614806875,
condition/block_mixed_b,instruction/instr_mixed,instruction/i10_b,红,red,k,square,color_mix,单词,,compatible,2,,,,,,,,0,2,2,2,0,0,0,0,0,47,47,47,,,,,,,,,,,,,,,,,,,,,,,,,,,,,,,,,,,400.3547343000009,400.57089690000066,400.5365780000011,400.83831420000024,400.83831420000024,None,401.33761100000083,None,k,1,0.5823593999994046,401.33761100000083,None,None,None,401.93852570000126,None,,,,,,,,,,,,,,,,,,,,,12010,1,2,2024_Jun_15_1951,stroop_task_switching2_b,2021.2.3,59.716109614806875,
condition/block_mixed_b,instruction/instr_mixed,instruction/i10_b,红,red,k,diamond,color_mix,颜色,,compatible,2,,,,,,,,0,2,2,2,0,0,0,0,0,48,48,48,,,,,,,,,,,,,,,,,,,,,,,,,,,,,,,,,,,402.9402409000013,403.14156320000075,403.12437710000086,403.4250692000005,403.4250692000005,None,403.92505340000025,None,k,1,0.48284269999930984,403.92505340000025,None,None,None,404.4256679000009,None,,,,,,,,,,,,,,,,,,,,,12010,1,2,2024_Jun_15_1951,stroop_task_switching2_b,2021.2.3,59.716109614806875,
condition/block_mixed_b,instruction/instr_mixed,instruction/i10_b,,,,,,,,,,,,,,,,,0,2,2,2,0,0,0,0,,,,,,,,,,,,,,,,,,,,,,,,,,,,,,,,,,,,,,,,,,,,,,,,,,,,,,,,405.42716740000105,None,space,27.661662600001364,405.42716740000105,None,,,,,,,,,,,,,,,12010,1,2,2024_Jun_15_1951,stroop_task_switching2_b,2021.2.3,59.716109614806875,
condition/block_mixed_b,instruction/instr_mixed,instruction/i10_b,,,,,,,,,,,,,,,,,0,2,2,2,,,,,,,,,,,,,,,,,,,,,,,,,,,,,,,,,,,,,,,,,,,,,,,,,,,,,,,,,,,,,,,,,,,,,,,,,,,,,,,,12010,1,2,2024_Jun_15_1951,stroop_task_switching2_b,2021.2.3,59.716109614806875,
,,,红,red,k,square,color_mix,单词,,compatible,0,block_switch1_b,instruction/ready_test.png,instruction/i11.png,,,,,,,,,,,,,,,,,0,0,0,0,0,0,0,0,,,,,,,,,,,,,,,,,,,435.7735302000001,436.7752820000005,436.7752820000005,437.7760765000003,437.7760765000003,None,434.78862800000024,435.7918281000002,438.81272960000024,439.01201220000075,438.99625259999993,439.29582740000114,439.29582740000114,None,439.7964810000012,None,k,1,0.5884506999991572,439.7964810000012,None,None,None,,,,,,,,,433.1524558000001,None,space,1.6082243000000744,433.1524558000001,None,,,,,,,,,12010,1,2,2024_Jun_15_1951,stroop_task_switching2_b,2021.2.3,59.716109614806875,
,,,绿,green,d,diamond,color_mix,颜色,,compatible,2,block_switch1_b,instruction/ready_test.png,instruction/i11.png,,,,,,,,,,,,,,,,,0,0,0,0,0,1,1,1,,,,,,,,,,,,,,,,,,,,,,,,,,,440.446605000001,440.6488382000007,440.5979935000014,440.8986987999997,440.8986987999997,None,441.3980345,None,d,1,0.7387813000004826,441.3980345,None,None,None,,,,,,,,,,,,,,,,,,,,,,,12010,1,2,2024_Jun_15_1951,stroop_task_switching2_b,2021.2.3,59.716109614806875,
,,,绿,yellow,f,diamond,color_mix,颜色,,incompatible,1,block_switch1_b,instruction/ready_test.png,instruction/i11.png,,,,,,,,,,,,,,,,,0,0,0,0,0,2,2,2,,,,,,,,,,,,,,,,,,,,,,,,,,,442.18309320000117,442.3841063,442.3495898000001,442.6502123999999,442.6502123999999,None,443.1507689000009,None,f,1,1.026206500000626,443.1507689000009,None,None,None,,,,,,,,,,,,,,,,,,,,,,,12010,1,2,2024_Jun_15_1951,stroop_task_switching2_b,2021.2.3,59.716109614806875,
,,,蓝,blue,j,diamond,color_mix,颜色,,compatible,1,block_switch1_b,instruction/ready_test.png,instruction/i11.png,,,,,,,,,,,,,,,,,0,0,0,0,0,3,3,3,,,,,,,,,,,,,,,,,,,,,,,,,,,444.2024691000006,444.4027437000004,444.3869261,444.68699410000045,444.68699410000045,None,445.1873747000009,None,j,1,0.5656225999991875,445.1873747000009,None,None,None,,,,,,,,,,,,,,,,,,,,,,,12010,1,2,2024_Jun_15_1951,stroop_task_switching2_b,2021.2.3,59.716109614806875,
,,,绿,green,d,square,color_mix,单词,,compatible,2,block_switch1_b,instruction/ready_test.png,instruction/i11.png,,,,,,,,,,,,,,,,,0,0,0,0,0,4,4,4,,,,,,,,,,,,,,,,,,,,,,,,,,,445.77131270000064,445.973522100001,445.9548921000005,446.25645319999967,446.25645319999967,None,446.75680230000034,None,d,1,1.5723781999986386,446.75680230000034,None,None,None,,,,,,,,,,,,,,,,,,,,,,,12010,1,2,2024_Jun_15_1951,stroop_task_switching2_b,2021.2.3,59.716109614806875,
,,,绿,blue,j,diamond,color_mix,颜色,,incompatible,2,block_switch1_b,instruction/ready_test.png,instruction/i11.png,,,,,,,,,,,,,,,,,0,0,0,0,0,5,5,5,,,,,,,,,,,,,,,,,,,,,,,,,,,448.3760664000001,448.5757166000003,448.5422596999997,448.84411809999983,448.84411809999983,None,449.34435230000054,None,j,1,1.1931423000005452,449.34435230000054,None,None,None,,,,,,,,,,,,,,,,,,,,,,,12010,1,2,2024_Jun_15_1951,stroop_task_switching2_b,2021.2.3,59.716109614806875,
,,,黄,red,f,square,color_mix,单词,,incompatible,2,block_switch1_b,instruction/ready_test.png,instruction/i11.png,,,,,,,,,,,,,,,,,0,0,0,0,0,6,6,6,,,,,,,,,,,,,,,,,,,,,,,,,,,450.5619279000002,450.76429310000094,450.7461733,451.04742570000053,451.04742570000053,None,451.5467958999998,None,f,1,1.630308799998602,451.5467958999998,None,None,None,,,,,,,,,,,,,,,,,,,,,,,12010,1,2,2024_Jun_15_1951,stroop_task_switching2_b,2021.2.3,59.716109614806875,
,,,绿,green,d,square,color_mix,单词,,compatible,1,block_switch1_b,instruction/ready_test.png,instruction/i11.png,,,,,,,,,,,,,,,,,0,0,0,0,0,7,7,7,,,,,,,,,,,,,,,,,,,,,,,,,,,453.1993672000008,453.39947460000076,453.3836775,453.68465300000025,453.68465300000025,None,454.18399560000034,None,d,1,0.8810711999994965,454.18399560000034,None,None,None,,,,,,,,,,,,,,,,,,,,,,,12010,1,2,2024_Jun_15_1951,stroop_task_switching2_b,2021.2.3,59.716109614806875,
,,,蓝,blue,j,square,color_mix,单词,,compatible,1,block_switch1_b,instruction/ready_test.png,instruction/i11.png,,,,,,,,,,,,,,,,,0,0,0,0,0,8,8,8,,,,,,,,,,,,,,,,,,,,,,,,,,,455.0857279000011,455.2859566999996,455.268918400001,455.570576600001,455.570576600001,None,456.07094190000134,None,j,1,0.938517900000079,456.07094190000134,None,None,None,,,,,,,,,,,,,,,,,,,,,,,12010,1,2,2024_Jun_15_1951,stroop_task_switching2_b,2021.2.3,59.716109614806875,
,,,红,red,k,diamond,color_mix,颜色,,compatible,2,block_switch1_b,instruction/ready_test.png,instruction/i11.png,,,,,,,,,,,,,,,,,0,0,0,0,0,9,9,9,,,,,,,,,,,,,,,,,,,,,,,,,,,457.0379016000006,457.2390680999997,457.2245409999996,457.52315590000035,457.52315590000035,None,458.0234354000004,None,k,1,0.9461534999991272,458.0234354000004,None,None,None,,,,,,,,,,,,,,,,,,,,,,,12010,1,2,2024_Jun_15_1951,stroop_task_switching2_b,2021.2.3,59.716109614806875,
,,,黄,yellow,f,diamond,color_mix,颜色,,compatible,1,block_switch1_b,instruction/ready_test.png,instruction/i11.png,,,,,,,,,,,,,,,,,0,0,0,0,0,10,10,10,,,,,,,,,,,,,,,,,,,,,,,,,,,458.9913940000006,459.1922467000004,459.17511750000085,459.47670540000036,459.47670540000036,None,459.9762504999999,None,f,1,0.6892028000002028,459.9762504999999,None,None,None,,,,,,,,,,,,,,,,,,,,,,,12010,1,2,2024_Jun_15_1951,stroop_task_switching2_b,2021.2.3,59.716109614806875,
,,,绿,green,d,square,color_mix,单词,,compatible,2,block_switch1_b,instruction/ready_test.png,instruction/i11.png,,,,,,,,,,,,,,,,,0,0,0,0,0,11,11,11,,,,,,,,,,,,,,,,,,,,,,,,,,,460.7106681000005,460.91154840000127,460.8777210999997,461.17979620000006,461.17979620000006,None,461.6787600000007,None,d,1,0.7627288999992743,461.6787600000007,None,None,None,,,,,,,,,,,,,,,,,,,,,,,12010,1,2,2024_Jun_15_1951,stroop_task_switching2_b,2021.2.3,59.716109614806875,
,,,红,red,k,diamond,color_mix,颜色,,compatible,2,block_switch1_b,instruction/ready_test.png,instruction/i11.png,,,,,,,,,,,,,,,,,0,0,0,0,0,12,12,12,,,,,,,,,,,,,,,,,,,,,,,,,,,462.4631496000002,462.66369459999987,462.64687630000117,462.9482196000008,462.9482196000008,None,463.4480732000011,None,k,1,0.7132251000002725,463.4480732000011,None,None,None,,,,,,,,,,,,,,,,,,,,,,,12010,1,2,2024_Jun_15_1951,stroop_task_switching2_b,2021.2.3,59.716109614806875,
,,,红,red,k,diamond,color_mix,颜色,,compatible,1,block_switch1_b,instruction/ready_test.png,instruction/i11.png,,,,,,,,,,,,,,,,,0,0,0,0,0,13,13,13,,,,,,,,,,,,,,,,,,,,,,,,,,,464.1829751000005,464.3838262999998,464.3666475000009,464.6679167000002,464.6679167000002,None,465.16715450000083,None,k,1,0.5223827999998321,465.16715450000083,None,None,None,,,,,,,,,,,,,,,,,,,,,,,12010,1,2,2024_Jun_15_1951,stroop_task_switching2_b,2021.2.3,59.716109614806875,
,,,黄,yellow,f,square,color_mix,单词,,compatible,2,block_switch1_b,instruction/ready_test.png,instruction/i11.png,,,,,,,,,,,,,,,,,0,0,0,0,0,14,14,14,,,,,,,,,,,,,,,,,,,,,,,,,,,465.73517619999984,465.93643690000135,465.90335140000025,466.2024789999996,466.2024789999996,None,466.7037325000001,None,f,1,0.6981857999999193,466.7037325000001,None,None,None,,,,,,,,,,,,,,,,,,,,,,,12010,1,2,2024_Jun_15_1951,stroop_task_switching2_b,2021.2.3,59.716109614806875,
,,,红,green,d,diamond,color_mix,颜色,,incompatible,2,block_switch1_b,instruction/ready_test.png,instruction/i11.png,,,,,,,,,,,,,,,,,0,0,0,0,0,15,15,15,,,,,,,,,,,,,,,,,,,,,,,,,,,467.42061430000103,467.62184960000013,467.6067509000004,467.92177730000003,467.90573140000015,None,468.4061433000006,None,d,1,1.2996911000009277,468.4061433000006,None,None,None,,,,,,,,,,,,,,,,,,,,,,,12010,1,2,2024_Jun_15_1951,stroop_task_switching2_b,2021.2.3,59.716109614806875,
,,,蓝,red,k,diamond,color_mix,颜色,,incompatible,1,block_switch1_b,instruction/ready_test.png,instruction/i11.png,,,,,,,,,,,,,,,,,0,0,0,0,0,16,16,16,,,,,,,,,,,,,,,,,,,,,,,,,,,469.7246599000009,469.92540030000055,469.9091031000007,470.20879760000025,470.20879760000025,None,470.7095893000005,None,k,1,1.4038629999995464,470.7095893000005,None,None,None,,,,,,,,,,,,,,,,,,,,,,,12010,1,2,2024_Jun_15_1951,stroop_task_switching2_b,2021.2.3,59.716109614806875,
,,,黄,green,d,diamond,color_mix,颜色,,incompatible,1,block_switch1_b,instruction/ready_test.png,instruction/i11.png,,,,,,,,,,,,,,,,,0,0,0,0,0,17,17,17,,,,,,,,,,,,,,,,,,,,,,,,,,,472.1438919000011,472.34500910000133,472.3288306000013,472.63000680000005,472.63000680000005,None,473.1293867000004,None,d,1,0.872108899999148,473.1293867000004,None,None,None,,,,,,,,,,,,,,,,,,,,,,,12010,1,2,2024_Jun_15_1951,stroop_task_switching2_b,2021.2.3,59.716109614806875,
,,,绿,green,d,diamond,color_mix,颜色,,compatible,1,block_switch1_b,instruction/ready_test.png,instruction/i11.png,,,,,,,,,,,,,,,,,0,0,0,0,0,18,18,18,,,,,,,,,,,,,,,,,,,,,,,,,,,474.03056110000034,474.2309873000013,474.21475100000134,474.51467460000094,474.51467460000094,None,475.01586080000015,None,d,1,0.5538534999996045,475.01586080000015,None,None,None,,,,,,,,,,,,,,,,,,,,,,,12010,1,2,2024_Jun_15_1951,stroop_task_switching2_b,2021.2.3,59.716109614806875,
,,,黄,red,k,diamond,color_mix,颜色,,incompatible,1,block_switch1_b,instruction/ready_test.png,instruction/i11.png,,,,,,,,,,,,,,,,,0,0,0,0,0,19,19,19,,,,,,,,,,,,,,,,,,,,,,,,,,,475.616449000001,475.81673220000084,475.7844431000012,476.0845425000007,476.0845425000007,None,476.5847568999998,None,k,1,0.4410948999993707,476.5847568999998,None,None,None,,,,,,,,,,,,,,,,,,,,,,,12010,1,2,2024_Jun_15_1951,stroop_task_switching2_b,2021.2.3,59.716109614806875,
,,,绿,yellow,d,square,color_mix,单词,,incompatible,2,block_switch1_b,instruction/ready_test.png,instruction/i11.png,,,,,,,,,,,,,,,,,0,0,0,0,0,20,20,20,,,,,,,,,,,,,,,,,,,,,,,,,,,477.05178650000016,477.25326459999997,477.23580910000055,477.5365644000012,477.5365644000012,None,478.0367653000012,None,d,1,0.7092377999997552,478.0367653000012,None,None,None,,,,,,,,,,,,,,,,,,,,,,,12010,1,2,2024_Jun_15_1951,stroop_task_switching2_b,2021.2.3,59.716109614806875,
,,,绿,yellow,f,diamond,color_mix,颜色,,incompatible,2,block_switch1_b,instruction/ready_test.png,instruction/i11.png,,,,,,,,,,,,,,,,,0,0,0,0,0,21,21,21,,,,,,,,,,,,,,,,,,,,,,,,,,,478.7712558000003,478.97207549999985,478.9569298000006,479.2736937999998,479.2553375999996,None,479.75676790000034,None,f,1,0.9333353000001807,479.75676790000034,None,None,None,,,,,,,,,,,,,,,,,,,,,,,12010,1,2,2024_Jun_15_1951,stroop_task_switching2_b,2021.2.3,59.716109614806875,
,,,绿,green,d,square,color_mix,单词,,compatible,2,block_switch1_b,instruction/ready_test.png,instruction/i11.png,,,,,,,,,,,,,,,,,0,0,0,0,0,22,22,22,,,,,,,,,,,,,,,,,,,,,,,,,,,480.70783570000094,480.9096690000006,480.89165780000076,481.19138680000106,481.19138680000106,None,481.69231480000053,None,d,1,0.7820391000004747,481.69231480000053,None,None,None,,,,,,,,,,,,,,,,,,,,,,,12010,1,2,2024_Jun_15_1951,stroop_task_switching2_b,2021.2.3,59.716109614806875,
,,,红,red,k,square,color_mix,单词,,compatible,1,block_switch1_b,instruction/ready_test.png,instruction/i11.png,,,,,,,,,,,,,,,,,0,0,0,0,0,23,23,23,,,,,,,,,,,,,,,,,,,,,,,,,,,482.4936858000001,482.6959738000005,482.6770510000006,482.97927700000037,482.97927700000037,None,483.4780299000013,None,k,1,1.172186399999191,483.4780299000013,None,None,None,,,,,,,,,,,,,,,,,,,,,,,12010,1,2,2024_Jun_15_1951,stroop_task_switching2_b,2021.2.3,59.716109614806875,
,,,黄,green,f,square,color_mix,单词,,incompatible,1,block_switch1_b,instruction/ready_test.png,instruction/i11.png,,,,,,,,,,,,,,,,,0,0,0,0,0,24,24,24,,,,,,,,,,,,,,,,,,,,,,,,,,,484.68070570000054,484.88194040000053,484.86410200000137,485.16518410000026,485.16518410000026,None,485.6650014000006,None,f,1,1.9692171000006056,485.6650014000006,None,None,None,,,,,,,,,,,,,,,,,,,,,,,12010,1,2,2024_Jun_15_1951,stroop_task_switching2_b,2021.2.3,59.716109614806875,
,,,红,blue,k,square,color_mix,单词,,incompatible,1,block_switch1_b,instruction/ready_test.png,instruction/i11.png,,,,,,,,,,,,,,,,,0,0,0,0,0,25,25,25,,,,,,,,,,,,,,,,,,,,,,,,,,,487.65125700000135,487.8524257000008,487.8354486999997,488.13616280000133,488.13616280000133,None,488.63712769999984,None,k,1,1.4771609999988868,488.63712769999984,None,None,None,,,,,,,,,,,,,,,,,,,,,,,12010,1,2,2024_Jun_15_1951,stroop_task_switching2_b,2021.2.3,59.716109614806875,
,,,黄,yellow,f,square,color_mix,单词,,compatible,1,block_switch1_b,instruction/ready_test.png,instruction/i11.png,,,,,,,,,,,,,,,,,0,0,0,0,0,26,26,26,,,,,,,,,,,,,,,,,,,,,,,,,,,490.13990920000106,490.33916130000034,490.32299910000074,490.62232250000125,490.62232250000125,None,491.12369630000103,None,f,1,0.83028270000068,491.12369630000103,None,None,None,,,,,,,,,,,,,,,,,,,,,,,12010,1,2,2024_Jun_15_1951,stroop_task_switching2_b,2021.2.3,59.716109614806875,
,,,蓝,green,j,square,color_mix,单词,,incompatible,1,block_switch1_b,instruction/ready_test.png,instruction/i11.png,,,,,,,,,,,,,,,,,0,0,0,0,0,27,27,27,,,,,,,,,,,,,,,,,,,,,,,,,,,491.97429290000036,492.17633730000125,492.15834730000097,492.45851760000005,492.45851760000005,None,492.9593309000011,None,f,0,0.7312213000004704,492.9593309000011,None,None,None,,,,,,,,,,,,,,,,,,,,,,,12010,1,2,2024_Jun_15_1951,stroop_task_switching2_b,2021.2.3,59.716109614806875,
,,,绿,green,d,diamond,color_mix,颜色,,compatible,2,block_switch1_b,instruction/ready_test.png,instruction/i11.png,,,,,,,,,,,,,,,,,0,0,0,0,0,28,28,28,,,,,,,,,,,,,,,,,,,,,,,,,,,493.710454,493.91156840000076,493.8945655999996,494.1953215000012,494.1953215000012,None,494.69644920000064,None,d,1,1.441938800000571,494.69644920000064,None,None,None,,,,,,,,,,,,,,,,,,,,,,,12010,1,2,2024_Jun_15_1951,stroop_task_switching2_b,2021.2.3,59.716109614806875,
,,,黄,blue,j,diamond,color_mix,颜色,,incompatible,1,block_switch1_b,instruction/ready_test.png,instruction/i11.png,,,,,,,,,,,,,,,,,0,0,0,0,0,29,29,29,,,,,,,,,,,,,,,,,,,,,,,,,,,496.1640907000001,496.36422049999965,496.34810430000107,496.6482324999997,496.6482324999997,None,497.1488749,None,f,0,1.3979447999990953,497.1488749,None,None,None,,,,,,,,,,,,,,,,,,,,,,,12010,1,2,2024_Jun_15_1951,stroop_task_switching2_b,2021.2.3,59.716109614806875,
,,,绿,green,d,diamond,color_mix,颜色,,compatible,1,block_switch1_b,instruction/ready_test.png,instruction/i11.png,,,,,,,,,,,,,,,,,0,0,0,0,0,30,30,30,,,,,,,,,,,,,,,,,,,,,,,,,,,498.5676961999998,498.76866210000117,498.7525901000008,499.0531112000008,499.0531112000008,None,499.55294870000034,None,d,1,0.786078399998587,499.55294870000034,None,None,None,,,,,,,,,,,,,,,,,,,,,,,12010,1,2,2024_Jun_15_1951,stroop_task_switching2_b,2021.2.3,59.716109614806875,
,,,蓝,blue,j,square,color_mix,单词,,compatible,2,block_switch1_b,instruction/ready_test.png,instruction/i11.png,,,,,,,,,,,,,,,,,0,0,0,0,0,31,31,31,,,,,,,,,,,,,,,,,,,,,,,,,,,500.3538059000002,500.5557485999998,500.5374840000004,500.83854470000006,500.83854470000006,None,501.33918450000056,None,j,1,2.3516030000009778,501.33918450000056,None,None,None,,,,,,,,,,,,,,,,,,,,,,,12010,1,2,2024_Jun_15_1951,stroop_task_switching2_b,2021.2.3,59.716109614806875,
,,,红,red,k,square,color_mix,单词,,compatible,1,block_switch1_b,instruction/ready_test.png,instruction/i11.png,,,,,,,,,,,,,,,,,0,0,0,0,0,32,32,32,,,,,,,,,,,,,,,,,,,,,,,,,,,503.70870240000113,503.9107643999996,503.89285159999963,504.19410179999977,504.19410179999977,None,504.69442700000036,None,k,1,0.5730335999996896,504.69442700000036,None,None,None,,,,,,,,,,,,,,,,,,,,,,,12010,1,2,2024_Jun_15_1951,stroop_task_switching2_b,2021.2.3,59.716109614806875,
,,,红,green,k,square,color_mix,单词,,incompatible,1,block_switch1_b,instruction/ready_test.png,instruction/i11.png,,,,,,,,,,,,,,,,,0,0,0,0,0,33,33,33,,,,,,,,,,,,,,,,,,,,,,,,,,,505.294543,505.49649800000043,505.4784844000005,505.7791255000011,505.7791255000011,None,506.28056500000093,None,k,1,0.5545095000015863,506.28056500000093,None,None,None,,,,,,,,,,,,,,,,,,,,,,,12010,1,2,2024_Jun_15_1951,stroop_task_switching2_b,2021.2.3,59.716109614806875,
,,,黄,yellow,f,diamond,color_mix,颜色,,compatible,2,block_switch1_b,instruction/ready_test.png,instruction/i11.png,,,,,,,,,,,,,,,,,0,0,0,0,0,34,34,34,,,,,,,,,,,,,,,,,,,,,,,,,,,506.8638552000011,507.0640948,507.0480851000011,507.3484206000012,507.3484206000012,None,507.84838599999966,None,f,1,0.6821601999999984,507.84838599999966,None,None,None,,,,,,,,,,,,,,,,,,,,,,,12010,1,2,2024_Jun_15_1951,stroop_task_switching2_b,2021.2.3,59.716109614806875,
,,,红,green,d,diamond,color_mix,颜色,,incompatible,1,block_switch1_b,instruction/ready_test.png,instruction/i11.png,,,,,,,,,,,,,,,,,0,0,0,0,0,35,35,35,,,,,,,,,,,,,,,,,,,,,,,,,,,508.5495305000004,508.75238040000113,508.7338818999997,509.0342410000012,509.0342410000012,None,509.535019500001,None,d,1,1.5077551000013045,509.535019500001,None,None,None,,,,,,,,,,,,,,,,,,,,,,,12010,1,2,2024_Jun_15_1951,stroop_task_switching2_b,2021.2.3,59.716109614806875,
,,,黄,yellow,f,square,color_mix,单词,,compatible,2,block_switch1_b,instruction/ready_test.png,instruction/i11.png,,,,,,,,,,,,,,,,,0,0,0,0,0,36,36,36,,,,,,,,,,,,,,,,,,,,,,,,,,,511.07025890000114,511.27189240000007,511.2537073000003,511.55389240000113,511.55389240000113,None,512.0548185000007,None,f,1,1.0519801000009465,512.0548185000007,None,None,None,,,,,,,,,,,,,,,,,,,,,,,12010,1,2,2024_Jun_15_1951,stroop_task_switching2_b,2021.2.3,59.716109614806875,
,,,蓝,blue,j,square,color_mix,单词,,compatible,1,block_switch1_b,instruction/ready_test.png,instruction/i11.png,,,,,,,,,,,,,,,,,0,0,0,0,0,37,37,37,,,,,,,,,,,,,,,,,,,,,,,,,,,513.123137300001,513.3242792000001,513.3086584000011,513.608167800001,513.608167800001,None,514.1078068000006,None,j,1,1.1269087000000582,514.1078068000006,None,None,None,,,,,,,,,,,,,,,,,,,,,,,12010,1,2,2024_Jun_15_1951,stroop_task_switching2_b,2021.2.3,59.716109614806875,
,,,绿,red,k,diamond,color_mix,颜色,,incompatible,2,block_switch1_b,instruction/ready_test.png,instruction/i11.png,,,,,,,,,,,,,,,,,0,0,0,0,0,38,38,38,,,,,,,,,,,,,,,,,,,,,,,,,,,515.2594218000013,515.4601192999999,515.4429063999996,515.7446615999997,515.7446615999997,None,516.2446837000007,None,k,1,0.7901813000007678,516.2446837000007,None,None,None,,,,,,,,,,,,,,,,,,,,,,,12010,1,2,2024_Jun_15_1951,stroop_task_switching2_b,2021.2.3,59.716109614806875,
,,,黄,yellow,f,diamond,color_mix,颜色,,compatible,1,block_switch1_b,instruction/ready_test.png,instruction/i11.png,,,,,,,,,,,,,,,,,0,0,0,0,0,39,39,39,,,,,,,,,,,,,,,,,,,,,,,,,,,517.0627674000007,517.2631468,517.2456132000007,517.5464226000004,517.5464226000004,None,518.0486564000003,None,f,1,0.6667968000001565,518.0486564000003,None,None,None,,,,,,,,,,,,,,,,,,,,,,,12010,1,2,2024_Jun_15_1951,stroop_task_switching2_b,2021.2.3,59.716109614806875,
,,,红,blue,j,diamond,color_mix,颜色,,incompatible,1,block_switch1_b,instruction/ready_test.png,instruction/i11.png,,,,,,,,,,,,,,,,,0,0,0,0,0,40,40,40,,,,,,,,,,,,,,,,,,,,,,,,,,,518.7316589000002,518.9320016000001,518.9166956000008,519.2323340000003,519.2176302999997,None,519.7334258999999,None,j,1,0.8698411000004853,519.7334258999999,None,None,None,,,,,,,,,,,,,,,,,,,,,,,12010,1,2,2024_Jun_15_1951,stroop_task_switching2_b,2021.2.3,59.716109614806875,
,,,绿,blue,d,square,color_mix,单词,,incompatible,2,block_switch1_b,instruction/ready_test.png,instruction/i11.png,,,,,,,,,,,,,,,,,0,0,0,0,0,41,41,41,,,,,,,,,,,,,,,,,,,,,,,,,,,520.6175701000011,520.8187685000012,520.8023191000011,521.1026233000011,521.1026233000011,None,521.6023533999996,None,j,0,0.8246780000008584,521.6023533999996,None,None,None,,,,,,,,,,,,,,,,,,,,,,,12010,1,2,2024_Jun_15_1951,stroop_task_switching2_b,2021.2.3,59.716109614806875,
,,,蓝,blue,j,diamond,color_mix,颜色,,compatible,2,block_switch1_b,instruction/ready_test.png,instruction/i11.png,,,,,,,,,,,,,,,,,0,0,0,0,0,42,42,42,,,,,,,,,,,,,,,,,,,,,,,,,,,522.4538991000009,522.6551362000009,522.6373836000002,522.9392339000005,522.9392339000005,None,523.4398333999998,None,j,1,0.763277799998832,523.4398333999998,None,None,None,,,,,,,,,,,,,,,,,,,,,,,12010,1,2,2024_Jun_15_1951,stroop_task_switching2_b,2021.2.3,59.716109614806875,
,,,红,blue,k,square,color_mix,单词,,incompatible,2,block_switch1_b,instruction/ready_test.png,instruction/i11.png,,,,,,,,,,,,,,,,,0,0,0,0,0,43,43,43,,,,,,,,,,,,,,,,,,,,,,,,,,,524.2229144000012,524.4238235000012,524.4073881000004,524.7083877000005,524.7083877000005,None,525.207861500001,None,k,1,0.6357348999990791,525.207861500001,None,None,None,,,,,,,,,,,,,,,,,,,,,,,12010,1,2,2024_Jun_15_1951,stroop_task_switching2_b,2021.2.3,59.716109614806875,
,,,蓝,green,d,diamond,color_mix,颜色,,incompatible,2,block_switch1_b,instruction/ready_test.png,instruction/i11.png,,,,,,,,,,,,,,,,,0,0,0,0,0,44,44,44,,,,,,,,,,,,,,,,,,,,,,,,,,,525.8585941000001,526.0594345999998,526.0426887000012,526.3428354999996,526.3428354999996,None,526.843608000001,None,d,1,0.7755158999989362,526.843608000001,None,None,None,,,,,,,,,,,,,,,,,,,,,,,12010,1,2,2024_Jun_15_1951,stroop_task_switching2_b,2021.2.3,59.716109614806875,
,,,黄,yellow,f,square,color_mix,单词,,compatible,2,block_switch1_b,instruction/ready_test.png,instruction/i11.png,,,,,,,,,,,,,,,,,0,0,0,0,0,45,45,45,,,,,,,,,,,,,,,,,,,,,,,,,,,527.6456548000006,527.8471559000009,527.8289060999996,528.1309787999999,528.1309787999999,None,528.6295883000003,None,f,1,0.6537706999988586,528.6295883000003,None,None,None,,,,,,,,,,,,,,,,,,,,,,,12010,1,2,2024_Jun_15_1951,stroop_task_switching2_b,2021.2.3,59.716109614806875,
,,,黄,yellow,f,diamond,color_mix,颜色,,compatible,2,block_switch1_b,instruction/ready_test.png,instruction/i11.png,,,,,,,,,,,,,,,,,0,0,0,0,0,46,46,46,,,,,,,,,,,,,,,,,,,,,,,,,,,529.3146897000006,529.515897700001,529.4985507000001,529.7991023000013,529.7991023000013,None,530.2989169000011,None,f,1,0.8804471999992529,530.2989169000011,None,None,None,,,,,,,,,,,,,,,,,,,,,,,12010,1,2,2024_Jun_15_1951,stroop_task_switching2_b,2021.2.3,59.716109614806875,
,,,绿,red,d,square,color_mix,单词,,incompatible,2,block_switch1_b,instruction/ready_test.png,instruction/i11.png,,,,,,,,,,,,,,,,,0,0,0,0,0,47,47,47,,,,,,,,,,,,,,,,,,,,,,,,,,,531.2000783000003,531.4003021999997,531.3836982000012,531.6849109000013,531.6849109000013,None,532.1857782999996,None,d,1,2.2094300000007934,532.1857782999996,None,None,None,,,,,,,,,,,,,,,,,,,,,,,12010,1,2,2024_Jun_15_1951,stroop_task_switching2_b,2021.2.3,59.716109614806875,
,,,红,red,k,diamond,color_mix,颜色,,compatible,2,block_switch1_b,instruction/ready_test.png,instruction/i11.png,,,,,,,,,,,,,,,,,0,0,0,0,0,48,48,48,,,,,,,,,,,,,,,,,,,,,,,,,,,534.4216952000006,534.6250510999998,534.6060057000013,534.9058906999999,534.9058906999999,None,535.4064018999998,None,k,1,0.8291502000010951,535.4064018999998,None,None,None,,,,,,,,,,,,,,,,,,,,,,,12010,1,2,2024_Jun_15_1951,stroop_task_switching2_b,2021.2.3,59.716109614806875,
,,,蓝,blue,j,diamond,color_mix,颜色,,compatible,1,block_switch1_b,instruction/ready_test.png,instruction/i11.png,,,,,,,,,,,,,,,,,0,0,0,0,0,49,49,49,,,,,,,,,,,,,,,,,,,,,,,,,,,536.2578990000002,536.4590383000013,536.4425389000007,536.7426199000001,536.7426199000001,None,537.2424456000008,None,j,1,1.2412770000009914,537.2424456000008,None,None,None,,,,,,,,,,,,,,,,,,,,,,,12010,1,2,2024_Jun_15_1951,stroop_task_switching2_b,2021.2.3,59.716109614806875,
,,,黄,yellow,f,diamond,color_mix,颜色,,compatible,1,block_switch1_b,instruction/ready_test.png,instruction/i11.png,,,,,,,,,,,,,,,,,0,0,0,0,0,50,50,50,,,,,,,,,,,,,,,,,,,,,,,,,,,538.5111209000006,538.7124729000006,538.6957382,538.9963434000001,538.9963434000001,None,539.4967715000002,None,f,1,1.026855300000534,539.4967715000002,None,None,None,,,,,,,,,,,,,,,,,,,,,,,12010,1,2,2024_Jun_15_1951,stroop_task_switching2_b,2021.2.3,59.716109614806875,
,,,红,blue,j,diamond,color_mix,颜色,,incompatible,1,block_switch1_b,instruction/ready_test.png,instruction/i11.png,,,,,,,,,,,,,,,,,0,0,0,0,0,51,51,51,,,,,,,,,,,,,,,,,,,,,,,,,,,540.5475657000006,540.7490450000005,540.7321831999998,541.0325518000009,541.0325518000009,None,541.5325051,None,j,1,1.6470095999993646,541.5325051,None,None,None,,,,,,,,,,,,,,,,,,,,,,,12010,1,2,2024_Jun_15_1951,stroop_task_switching2_b,2021.2.3,59.716109614806875,
,,,蓝,yellow,f,diamond,color_mix,颜色,,incompatible,1,block_switch1_b,instruction/ready_test.png,instruction/i11.png,,,,,,,,,,,,,,,,,0,0,0,0,0,52,52,52,,,,,,,,,,,,,,,,,,,,,,,,,,,543.2016291,543.4026792000004,543.3864310000008,543.6866625000002,543.6866625000002,None,544.1864464999999,None,j,0,1.4011943000004976,544.1864464999999,None,None,None,,,,,,,,,,,,,,,,,,,,,,,12010,1,2,2024_Jun_15_1951,stroop_task_switching2_b,2021.2.3,59.716109614806875,
,,,黄,blue,f,square,color_mix,单词,,incompatible,2,block_switch1_b,instruction/ready_test.png,instruction/i11.png,,,,,,,,,,,,,,,,,0,0,0,0,0,53,53,53,,,,,,,,,,,,,,,,,,,,,,,,,,,545.6052959000008,545.8064929000011,545.7893992000008,546.0902724000007,546.0902724000007,None,546.5902762000005,None,f,1,2.2215470999999525,546.5902762000005,None,None,None,,,,,,,,,,,,,,,,,,,,,,,12010,1,2,2024_Jun_15_1951,stroop_task_switching2_b,2021.2.3,59.716109614806875,
,,,蓝,blue,j,diamond,color_mix,颜色,,compatible,2,block_switch1_b,instruction/ready_test.png,instruction/i11.png,,,,,,,,,,,,,,,,,0,0,0,0,0,54,54,54,,,,,,,,,,,,,,,,,,,,,,,,,,,548.8437184000013,549.0458240999997,549.0274202,549.3296805000009,549.3296805000009,None,549.8283084000013,None,j,1,0.6875306000001729,549.8283084000013,None,None,None,,,,,,,,,,,,,,,,,,,,,,,12010,1,2,2024_Jun_15_1951,stroop_task_switching2_b,2021.2.3,59.716109614806875,
,,,红,yellow,k,square,color_mix,单词,,incompatible,2,block_switch1_b,instruction/ready_test.png,instruction/i11.png,,,,,,,,,,,,,,,,,0,0,0,0,0,55,55,55,,,,,,,,,,,,,,,,,,,,,,,,,,,550.5466352000003,550.7471662999997,550.7304033,551.0315764000006,551.0315764000006,None,551.5308455000013,None,k,1,1.2969100000009348,551.5308455000013,None,None,None,,,,,,,,,,,,,,,,,,,,,,,12010,1,2,2024_Jun_15_1951,stroop_task_switching2_b,2021.2.3,59.716109614806875,
,,,蓝,red,j,square,color_mix,单词,,incompatible,1,block_switch1_b,instruction/ready_test.png,instruction/i11.png,,,,,,,,,,,,,,,,,0,0,0,0,0,56,56,56,,,,,,,,,,,,,,,,,,,,,,,,,,,552.8494279000006,553.0497420000011,553.0346577,553.3339589000007,553.3339589000007,None,553.8343151999998,None,j,1,1.2738223999986076,553.8343151999998,None,None,None,,,,,,,,,,,,,,,,,,,,,,,12010,1,2,2024_Jun_15_1951,stroop_task_switching2_b,2021.2.3,59.716109614806875,
,,,蓝,blue,j,square,color_mix,单词,,compatible,1,block_switch1_b,instruction/ready_test.png,instruction/i11.png,,,,,,,,,,,,,,,,,0,0,0,0,0,57,57,57,,,,,,,,,,,,,,,,,,,,,,,,,,,555.1363072000004,555.3367381000007,555.3220772000004,555.6369762000013,555.6214290999997,None,556.1221550999999,None,j,1,0.873684799998955,556.1221550999999,None,None,None,,,,,,,,,,,,,,,,,,,,,,,12010,1,2,2024_Jun_15_1951,stroop_task_switching2_b,2021.2.3,59.716109614806875,
,,,蓝,red,k,diamond,color_mix,颜色,,incompatible,2,block_switch1_b,instruction/ready_test.png,instruction/i11.png,,,,,,,,,,,,,,,,,0,0,0,0,0,58,58,58,,,,,,,,,,,,,,,,,,,,,,,,,,,557.0225265000008,557.2242117000005,557.2072097,557.5066462000013,557.5066462000013,None,558.0082696999998,None,k,1,0.6681427000003168,558.0082696999998,None,None,None,,,,,,,,,,,,,,,,,,,,,,,12010,1,2,2024_Jun_15_1951,stroop_task_switching2_b,2021.2.3,59.716109614806875,
,,,绿,green,d,diamond,color_mix,颜色,,compatible,1,block_switch1_b,instruction/ready_test.png,instruction/i11.png,,,,,,,,,,,,,,,,,0,0,0,0,0,59,59,59,,,,,,,,,,,,,,,,,,,,,,,,,,,558.6915246000008,558.8926207000004,558.8751241999998,559.1769390000009,559.1769390000009,None,559.6774713000013,None,d,1,0.7187513000008039,559.6774713000013,None,None,None,,,,,,,,,,,,,,,,,,,,,,,12010,1,2,2024_Jun_15_1951,stroop_task_switching2_b,2021.2.3,59.716109614806875,
,,,蓝,blue,j,diamond,color_mix,颜色,,compatible,1,block_switch1_b,instruction/ready_test.png,instruction/i11.png,,,,,,,,,,,,,,,,,0,0,0,0,0,60,60,60,,,,,,,,,,,,,,,,,,,,,,,,,,,560.410872800001,560.6115599000004,560.5955561999999,560.8962286000005,560.8962286000005,None,561.3957329000004,None,j,1,0.9044132000017271,561.3957329000004,None,None,None,,,,,,,,,,,,,,,,,,,,,,,12010,1,2,2024_Jun_15_1951,stroop_task_switching2_b,2021.2.3,59.716109614806875,
,,,黄,yellow,f,square,color_mix,单词,,compatible,2,block_switch1_b,instruction/ready_test.png,instruction/i11.png,,,,,,,,,,,,,,,,,0,0,0,0,0,61,61,61,,,,,,,,,,,,,,,,,,,,,,,,,,,562.3305208000002,562.5308995000014,562.5150161000001,562.8147712999998,562.8147712999998,None,563.3167389000009,None,f,1,0.7361264000010124,563.3167389000009,None,None,None,,,,,,,,,,,,,,,,,,,,,,,12010,1,2,2024_Jun_15_1951,stroop_task_switching2_b,2021.2.3,59.716109614806875,
,,,绿,blue,d,square,color_mix,单词,,incompatible,1,block_switch1_b,instruction/ready_test.png,instruction/i11.png,,,,,,,,,,,,,,,,,0,0,0,0,0,62,62,62,,,,,,,,,,,,,,,,,,,,,,,,,,,564.0833093000001,564.2853448000005,564.2670287000001,564.5681166000013,564.5681166000013,None,565.0690185000003,None,d,1,1.119220700000369,565.0690185000003,None,None,None,,,,,,,,,,,,,,,,,,,,,,,12010,1,2,2024_Jun_15_1951,stroop_task_switching2_b,2021.2.3,59.716109614806875,
,,,蓝,yellow,j,square,color_mix,单词,,incompatible,1,block_switch1_b,instruction/ready_test.png,instruction/i11.png,,,,,,,,,,,,,,,,,0,0,0,0,0,63,63,63,,,,,,,,,,,,,,,,,,,,,,,,,,,566.2199411000001,566.4198487000012,566.4044403000007,566.7043491000004,566.7043491000004,None,567.2047872000003,None,j,1,1.2395727999992232,567.2047872000003,None,None,None,,,,,,,,,,,,,,,,,,,,,,,12010,1,2,2024_Jun_15_1951,stroop_task_switching2_b,2021.2.3,59.716109614806875,
,,,黄,yellow,f,diamond,color_mix,颜色,,compatible,2,block_switch1_b,instruction/ready_test.png,instruction/i11.png,,,,,,,,,,,,,,,,,0,0,0,0,0,64,64,64,,,,,,,,,,,,,,,,,,,,,,,,,,,568.473154700001,568.6739338999996,568.6570329000006,568.9578660999996,568.9578660999996,None,569.4583368000003,None,f,1,0.6504659999991418,569.4583368000003,None,None,None,,,,,,,,,,,,,,,,,,,,,,,12010,1,2,2024_Jun_15_1951,stroop_task_switching2_b,2021.2.3,59.716109614806875,
,,,蓝,green,d,diamond,color_mix,颜色,,incompatible,1,block_switch1_b,instruction/ready_test.png,instruction/i11.png,,,,,,,,,,,,,,,,,0,0,0,0,0,65,65,65,,,,,,,,,,,,,,,,,,,,,,,,,,,570.1264121000004,570.3277441999999,570.3092369000005,570.6112781000011,570.6112781000011,None,571.1104756000004,None,d,1,1.669974500000535,571.1104756000004,None,None,None,,,,,,,,,,,,,,,,,,,,,,,12010,1,2,2024_Jun_15_1951,stroop_task_switching2_b,2021.2.3,59.716109614806875,
,,,红,red,k,diamond,color_mix,颜色,,compatible,1,block_switch1_b,instruction/ready_test.png,instruction/i11.png,,,,,,,,,,,,,,,,,0,0,0,0,0,66,66,66,,,,,,,,,,,,,,,,,,,,,,,,,,,572.7963072000002,572.9983494000007,572.9801210000005,573.2803956000007,573.2803956000007,None,573.782208300001,None,k,1,1.142399899999873,573.782208300001,None,None,None,,,,,,,,,,,,,,,,,,,,,,,12010,1,2,2024_Jun_15_1951,stroop_task_switching2_b,2021.2.3,59.716109614806875,
,,,蓝,yellow,j,square,color_mix,单词,,incompatible,2,block_switch1_b,instruction/ready_test.png,instruction/i11.png,,,,,,,,,,,,,,,,,0,0,0,0,0,67,67,67,,,,,,,,,,,,,,,,,,,,,,,,,,,574.9495689000014,575.1512339000001,575.133291600001,575.4348034000013,575.4348034000013,None,575.9343296999996,None,j,1,1.20624990000033,575.9343296999996,None,None,None,,,,,,,,,,,,,,,,,,,,,,,12010,1,2,2024_Jun_15_1951,stroop_task_switching2_b,2021.2.3,59.716109614806875,
,,,红,yellow,k,square,color_mix,单词,,incompatible,1,block_switch1_b,instruction/ready_test.png,instruction/i11.png,,,,,,,,,,,,,,,,,0,0,0,0,0,68,68,68,,,,,,,,,,,,,,,,,,,,,,,,,,,577.1703807000013,577.3708956999999,577.3532814000009,577.6554467000005,577.6554467000005,None,578.1542273000014,None,k,1,0.9945740999992267,578.1542273000014,None,None,None,,,,,,,,,,,,,,,,,,,,,,,12010,1,2,2024_Jun_15_1951,stroop_task_switching2_b,2021.2.3,59.716109614806875,
,,,红,yellow,f,diamond,color_mix,颜色,,incompatible,2,block_switch1_b,instruction/ready_test.png,instruction/i11.png,,,,,,,,,,,,,,,,,0,0,0,0,0,69,69,69,,,,,,,,,,,,,,,,,,,,,,,,,,,579.1726821000011,579.3742069,579.3562189000004,579.657886500001,579.657886500001,None,580.1577871999998,None,f,1,2.0471780999996554,580.1577871999998,None,None,None,,,,,,,,,,,,,,,,,,,,,,,12010,1,2,2024_Jun_15_1951,stroop_task_switching2_b,2021.2.3,59.716109614806875,
,,,蓝,green,j,square,color_mix,单词,,incompatible,2,block_switch1_b,instruction/ready_test.png,instruction/i11.png,,,,,,,,,,,,,,,,,0,0,0,0,0,70,70,70,,,,,,,,,,,,,,,,,,,,,,,,,,,582.2274682999996,582.4279426000012,582.4121379000007,582.711759400001,582.711759400001,None,583.2126580000004,None,d,0,1.4409489999998186,583.2126580000004,None,None,None,,,,,,,,,,,,,,,,,,,,,,,12010,1,2,2024_Jun_15_1951,stroop_task_switching2_b,2021.2.3,59.716109614806875,
,,,绿,yellow,d,square,color_mix,单词,,incompatible,1,block_switch1_b,instruction/ready_test.png,instruction/i11.png,,,,,,,,,,,,,,,,,0,0,0,0,0,71,71,71,,,,,,,,,,,,,,,,,,,,,,,,,,,584.6809434000006,584.883409600001,584.8654411999996,585.1668175000013,585.1668175000013,None,585.6656055000003,None,f,0,1.8035434000012174,585.6656055000003,None,None,None,,,,,,,,,,,,,,,,,,,,,,,12010,1,2,2024_Jun_15_1951,stroop_task_switching2_b,2021.2.3,59.716109614806875,
,,,蓝,yellow,f,diamond,color_mix,颜色,,incompatible,2,block_switch1_b,instruction/ready_test.png,instruction/i11.png,,,,,,,,,,,,,,,,,0,0,0,0,0,72,72,72,,,,,,,,,,,,,,,,,,,,,,,,,,,587.4848890000012,587.6867966999998,587.6709895000004,587.9861969000012,587.9691419999999,None,588.4699051999996,None,f,1,1.9513085999988107,588.4699051999996,None,None,None,,,,,,,,,,,,,,,,,,,,,,,12010,1,2,2024_Jun_15_1951,stroop_task_switching2_b,2021.2.3,59.716109614806875,
,,,红,green,k,square,color_mix,单词,,incompatible,2,block_switch1_b,instruction/ready_test.png,instruction/i11.png,,,,,,,,,,,,,,,,,0,0,0,0,0,73,73,73,,,,,,,,,,,,,,,,,,,,,,,,,,,590.4395252000013,590.6405154000004,590.6231203999996,590.9237229999999,590.9237229999999,None,591.424363600001,None,k,1,1.3327993000002607,591.424363600001,None,None,None,,,,,,,,,,,,,,,,,,,,,,,12010,1,2,2024_Jun_15_1951,stroop_task_switching2_b,2021.2.3,59.716109614806875,
,,,绿,blue,j,diamond,color_mix,颜色,,incompatible,2,block_switch1_b,instruction/ready_test.png,instruction/i11.png,,,,,,,,,,,,,,,,,0,0,0,0,0,74,74,74,,,,,,,,,,,,,,,,,,,,,,,,,,,592.7765353000013,592.976709300001,592.960755600001,593.2611804999997,593.2611804999997,None,593.7612626999999,None,j,1,2.5316117000002123,593.7612626999999,None,None,None,,,,,,,,,,,,,,,,,,,,,,,12010,1,2,2024_Jun_15_1951,stroop_task_switching2_b,2021.2.3,59.716109614806875,
,,,红,red,k,square,color_mix,单词,,compatible,2,block_switch1_b,instruction/ready_test.png,instruction/i11.png,,,,,,,,,,,,,,,,,0,0,0,0,0,75,75,75,,,,,,,,,,,,,,,,,,,,,,,,,,,596.3149616999999,596.5160887000002,596.4985035000009,596.8009043000002,596.8009043000002,None,597.2998040000002,None,k,1,1.0574113000002399,597.2998040000002,None,None,None,,,,,,,,,,,,,,,,,,,,,,,12010,1,2,2024_Jun_15_1951,stroop_task_switching2_b,2021.2.3,59.716109614806875,
,,,绿,green,d,diamond,color_mix,颜色,,compatible,2,block_switch1_b,instruction/ready_test.png,instruction/i11.png,,,,,,,,,,,,,,,,,0,0,0,0,0,76,76,76,,,,,,,,,,,,,,,,,,,,,,,,,,,598.3848579000005,598.5853992000011,598.5688702999996,598.869837100001,598.869837100001,None,599.3696849999997,None,d,1,1.4274793999993562,599.3696849999997,None,None,None,,,,,,,,,,,,,,,,,,,,,,,12010,1,2,2024_Jun_15_1951,stroop_task_switching2_b,2021.2.3,59.716109614806875,
,,,黄,red,f,square,color_mix,单词,,incompatible,2,block_switch1_b,instruction/ready_test.png,instruction/i11.png,,,,,,,,,,,,,,,,,0,0,0,0,0,77,77,77,,,,,,,,,,,,,,,,,,,,,,,,,,,600.8219495000012,601.0223242000011,601.0063281000002,601.3059093000011,601.3059093000011,None,601.8066525000013,None,f,1,2.246822600000087,601.8066525000013,None,None,None,,,,,,,,,,,,,,,,,,,,,,,12010,1,2,2024_Jun_15_1951,stroop_task_switching2_b,2021.2.3,59.716109614806875,
,,,红,red,k,square,color_mix,单词,,compatible,1,block_switch1_b,instruction/ready_test.png,instruction/i11.png,,,,,,,,,,,,,,,,,0,0,0,0,0,78,78,78,,,,,,,,,,,,,,,,,,,,,,,,,,,604.0767892000003,604.2780889000005,604.2604007999998,604.5617183000013,604.5617183000013,None,605.0616956000013,None,k,1,0.6397481000003609,605.0616956000013,None,None,None,,,,,,,,,,,,,,,,,,,,,,,12010,1,2,2024_Jun_15_1951,stroop_task_switching2_b,2021.2.3,59.716109614806875,
,,,黄,yellow,f,square,color_mix,单词,,compatible,1,block_switch1_b,instruction/ready_test.png,instruction/i11.png,,,,,,,,,,,,,,,,,0,0,0,0,0,79,79,79,,,,,,,,,,,,,,,,,,,,,,,,,,,605.7293812000007,605.9304432999998,605.9136099000007,606.2142576000006,606.2142576000006,None,606.7141755000011,None,f,1,0.6912298999995983,606.7141755000011,None,None,None,,,,,,,,,,,,,,,,,,,,,,,12010,1,2,2024_Jun_15_1951,stroop_task_switching2_b,2021.2.3,59.716109614806875,
,,,红,red,k,diamond,color_mix,颜色,,compatible,2,block_switch1_b,instruction/ready_test.png,instruction/i11.png,,,,,,,,,,,,,,,,,0,0,0,0,0,80,80,80,,,,,,,,,,,,,,,,,,,,,,,,,,,607.4318156999998,607.6330416000001,607.6164129999997,607.9159123000009,607.9159123000009,None,608.4165310999997,None,k,1,0.5890851999993174,608.4165310999997,None,None,None,,,,,,,,,,,,,,,,,,,,,,,12010,1,2,2024_Jun_15_1951,stroop_task_switching2_b,2021.2.3,59.716109614806875,
,,,红,red,k,square,color_mix,单词,,compatible,2,block_switch1_b,instruction/ready_test.png,instruction/i11.png,,,,,,,,,,,,,,,,,0,0,0,0,0,81,81,81,,,,,,,,,,,,,,,,,,,,,,,,,,,609.0343286999996,609.2349695000012,609.2180687,609.5192772000009,609.5192772000009,None,610.0194585000008,None,k,1,1.0499201000002358,610.0194585000008,None,None,None,,,,,,,,,,,,,,,,,,,,,,,12010,1,2,2024_Jun_15_1951,stroop_task_switching2_b,2021.2.3,59.716109614806875,
,,,黄,blue,j,diamond,color_mix,颜色,,incompatible,2,block_switch1_b,instruction/ready_test.png,instruction/i11.png,,,,,,,,,,,,,,,,,0,0,0,0,0,82,82,82,,,,,,,,,,,,,,,,,,,,,,,,,,,611.0874053999996,611.2903958000006,611.2716292000005,611.5714231000002,611.5714231000002,None,612.0721075000001,None,j,1,1.3654932000008557,612.0721075000001,None,None,None,,,,,,,,,,,,,,,,,,,,,,,12010,1,2,2024_Jun_15_1951,stroop_task_switching2_b,2021.2.3,59.716109614806875,
,,,红,yellow,f,diamond,color_mix,颜色,,incompatible,1,block_switch1_b,instruction/ready_test.png,instruction/i11.png,,,,,,,,,,,,,,,,,0,0,0,0,0,83,83,83,,,,,,,,,,,,,,,,,,,,,,,,,,,613.457621900001,613.6579714,613.6430821000013,613.9421696999998,613.9421696999998,None,614.4423084999999,None,f,1,1.4836918999990303,614.4423084999999,None,None,None,,,,,,,,,,,,,,,,,,,,,,,12010,1,2,2024_Jun_15_1951,stroop_task_switching2_b,2021.2.3,59.716109614806875,
,,,黄,red,k,diamond,color_mix,颜色,,incompatible,1,block_switch1_b,instruction/ready_test.png,instruction/i11.png,,,,,,,,,,,,,,,,,0,0,0,0,0,84,84,84,,,,,,,,,,,,,,,,,,,,,,,,,,,615.9447213000003,616.1449637000005,616.1295134000011,616.4304241000009,616.4304241000009,None,616.9296001000002,None,k,1,1.0280925000006391,616.9296001000002,None,None,None,,,,,,,,,,,,,,,,,,,,,,,12010,1,2,2024_Jun_15_1951,stroop_task_switching2_b,2021.2.3,59.716109614806875,
,,,蓝,blue,j,square,color_mix,单词,,compatible,2,block_switch1_b,instruction/ready_test.png,instruction/i11.png,,,,,,,,,,,,,,,,,0,0,0,0,0,85,85,85,,,,,,,,,,,,,,,,,,,,,,,,,,,617.9809822000007,618.183272100001,618.1657434000008,618.4653983999997,618.4653983999997,None,618.966772400001,None,j,1,0.9837751000013668,618.966772400001,None,None,None,,,,,,,,,,,,,,,,,,,,,,,12010,1,2,2024_Jun_15_1951,stroop_task_switching2_b,2021.2.3,59.716109614806875,
,,,绿,green,d,square,color_mix,单词,,compatible,1,block_switch1_b,instruction/ready_test.png,instruction/i11.png,,,,,,,,,,,,,,,,,0,0,0,0,0,86,86,86,,,,,,,,,,,,,,,,,,,,,,,,,,,619.9673131,620.1689709000002,620.1510217000014,620.452137100001,620.452137100001,None,620.9535689000004,None,d,1,0.7646733000001404,620.9535689000004,None,None,None,,,,,,,,,,,,,,,,,,,,,,,12010,1,2,2024_Jun_15_1951,stroop_task_switching2_b,2021.2.3,59.716109614806875,
,,,红,red,k,square,color_mix,单词,,compatible,1,block_switch1_b,instruction/ready_test.png,instruction/i11.png,,,,,,,,,,,,,,,,,0,0,0,0,0,87,87,87,,,,,,,,,,,,,,,,,,,,,,,,,,,621.7368225999999,621.9379736999999,621.921350300001,622.2216415000003,622.2216415000003,None,622.7221494000005,None,k,1,1.259794099998544,622.7221494000005,None,None,None,,,,,,,,,,,,,,,,,,,,,,,12010,1,2,2024_Jun_15_1951,stroop_task_switching2_b,2021.2.3,59.716109614806875,
,,,黄,green,d,diamond,color_mix,颜色,,incompatible,2,block_switch1_b,instruction/ready_test.png,instruction/i11.png,,,,,,,,,,,,,,,,,0,0,0,0,0,88,88,88,,,,,,,,,,,,,,,,,,,,,,,,,,,624.006696800001,624.2071226000007,624.1911025999998,624.4914635000005,624.4914635000005,None,624.9925627000011,None,j,0,1.285816800000248,624.9925627000011,None,None,None,,,,,,,,,,,,,,,,,,,,,,,12010,1,2,2024_Jun_15_1951,stroop_task_switching2_b,2021.2.3,59.716109614806875,
,,,绿,red,d,square,color_mix,单词,,incompatible,2,block_switch1_b,instruction/ready_test.png,instruction/i11.png,,,,,,,,,,,,,,,,,0,0,0,0,0,89,89,89,,,,,,,,,,,,,,,,,,,,,,,,,,,626.2935667000002,626.4962886000012,626.477843300001,626.7777358000003,626.7777358000003,None,627.2784689,None,k,0,1.7683432000012544,627.2784689,None,None,None,,,,,,,,,,,,,,,,,,,,,,,12010,1,2,2024_Jun_15_1951,stroop_task_switching2_b,2021.2.3,59.716109614806875,
,,,黄,green,f,square,color_mix,单词,,incompatible,1,block_switch1_b,instruction/ready_test.png,instruction/i11.png,,,,,,,,,,,,,,,,,0,0,0,0,0,90,90,90,,,,,,,,,,,,,,,,,,,,,,,,,,,629.0653904999999,629.2648982999999,629.2489709000001,629.5500143999998,629.5500143999998,None,630.0493232000008,None,f,1,1.92485360000137,630.0493232000008,None,None,None,,,,,,,,,,,,,,,,,,,,,,,12010,1,2,2024_Jun_15_1951,stroop_task_switching2_b,2021.2.3,59.716109614806875,
,,,蓝,blue,j,square,color_mix,单词,,compatible,1,block_switch1_b,instruction/ready_test.png,instruction/i11.png,,,,,,,,,,,,,,,,,0,0,0,0,0,91,91,91,,,,,,,,,,,,,,,,,,,,,,,,,,,632.002209100001,632.2036602999997,632.1862402000006,632.4862117000011,632.4862117000011,None,632.9869798,None,j,1,0.9390341999987868,632.9869798,None,None,None,,,,,,,,,,,,,,,,,,,,,,,12010,1,2,2024_Jun_15_1951,stroop_task_switching2_b,2021.2.3,59.716109614806875,
,,,蓝,red,j,square,color_mix,单词,,incompatible,1,block_switch1_b,instruction/ready_test.png,instruction/i11.png,,,,,,,,,,,,,,,,,0,0,0,0,0,92,92,92,,,,,,,,,,,,,,,,,,,,,,,,,,,633.9551296999998,634.1566440000006,634.1388127000009,634.4392743000008,634.4392743000008,None,634.9407087,None,j,1,1.4342188000009628,634.9407087,None,None,None,,,,,,,,,,,,,,,,,,,,,,,12010,1,2,2024_Jun_15_1951,stroop_task_switching2_b,2021.2.3,59.716109614806875,
,,,黄,blue,f,square,color_mix,单词,,incompatible,1,block_switch1_b,instruction/ready_test.png,instruction/i11.png,,,,,,,,,,,,,,,,,0,0,0,0,0,93,93,93,,,,,,,,,,,,,,,,,,,,,,,,,,,636.3922229,636.5933120999998,636.5757212999997,636.8762346000003,636.8762346000003,None,637.3769766000005,None,f,1,1.4292954000011378,637.3769766000005,None,None,None,,,,,,,,,,,,,,,,,,,,,,,12010,1,2,2024_Jun_15_1951,stroop_task_switching2_b,2021.2.3,59.716109614806875,
,,,绿,red,k,diamond,color_mix,颜色,,incompatible,2,block_switch1_b,instruction/ready_test.png,instruction/i11.png,,,,,,,,,,,,,,,,,0,0,0,0,0,94,94,94,,,,,,,,,,,,,,,,,,,,,,,,,,,638.8291991000006,639.0298290999999,639.0135571999999,639.3148763999998,639.3148763999998,None,639.8150150000001,None,k,1,0.7192759999998088,639.8150150000001,None,None,None,,,,,,,,,,,,,,,,,,,,,,,12010,1,2,2024_Jun_15_1951,stroop_task_switching2_b,2021.2.3,59.716109614806875,
,,,蓝,blue,j,diamond,color_mix,颜色,,compatible,1,block_switch1_b,instruction/ready_test.png,instruction/i11.png,,,,,,,,,,,,,,,,,0,0,0,0,0,95,95,95,,,,,,,,,,,,,,,,,,,,,,,,,,,640.5650719000005,640.7661781000006,640.7493778999997,641.0503531000013,641.0503531000013,None,641.5505962999996,None,j,1,0.9198543999991671,641.5505962999996,None,None,None,,,,,,,,,,,,,,,,,,,,,,,12010,1,2,2024_Jun_15_1951,stroop_task_switching2_b,2021.2.3,59.716109614806875,
,,,绿,green,d,square,color_mix,单词,,compatible,2,block_switch1_b,instruction/ready_test.png,instruction/i11.png,,,,,,,,,,,,,,,,,0,0,0,0,0,96,96,96,,,,,,,,,,,,,,,,,,,,,,,,,,,642.5013713999997,642.7028288000001,642.6851110000007,642.9854855000012,642.9854855000012,None,643.4864534000008,None,d,1,0.7681341999996221,643.4864534000008,None,None,None,,,,,,,,,,,,,,,,,,,,,,,12010,1,2,2024_Jun_15_1951,stroop_task_switching2_b,2021.2.3,59.716109614806875,
,,,,,,,,,,,,block_switch1_b,instruction/ready_test.png,instruction/i11.png,,,,,,,,,,,,,,,,,0,0,0,0,,,,,,,,,,,,,,,,,,,,,,,,,,,,,,,,,,,,,,,,,,,,,,,,,,,,,,,,,,,,644.2706477000011,None,space,5.68015799999921,644.2706477000011,None,,,12010,1,2,2024_Jun_15_1951,stroop_task_switching2_b,2021.2.3,59.716109614806875,
,,,蓝,blue,j,square,color_mix,单词,,compatible,0,block_switch2_b,instruction/ready_2.png,instruction/i12.png,,,,,,,,,,,,,,,,,0,1,1,1,0,0,0,0,,,,,,,,,,,,,,,,,,,653.1855646000004,654.1867421000006,654.1867421000006,655.188273400001,655.188273400001,None,652.1993168000008,653.2023031000008,656.2238299,656.4391749000006,656.4057699000005,656.7077093999997,656.7077093999997,None,657.2069095000006,None,j,1,0.9920519999996031,657.2069095000006,None,None,None,,,,,,,,,649.9960599000005,None,space,2.1869585999993433,649.9960599000005,None,,,,,,,,,12010,1,2,2024_Jun_15_1951,stroop_task_switching2_b,2021.2.3,59.716109614806875,
,,,黄,red,k,diamond,color_mix,颜色,,incompatible,2,block_switch2_b,instruction/ready_2.png,instruction/i12.png,,,,,,,,,,,,,,,,,0,1,1,1,0,1,1,1,,,,,,,,,,,,,,,,,,,,,,,,,,,658.2585216999996,658.4598271000013,658.4086867000005,658.7112643,658.7112643,None,659.2102473000014,None,k,1,0.8765480000001844,659.2102473000014,None,None,None,,,,,,,,,,,,,,,,,,,,,,,12010,1,2,2024_Jun_15_1951,stroop_task_switching2_b,2021.2.3,59.716109614806875,
,,,蓝,green,d,diamond,color_mix,颜色,,incompatible,1,block_switch2_b,instruction/ready_2.png,instruction/i12.png,,,,,,,,,,,,,,,,,0,1,1,1,0,2,2,2,,,,,,,,,,,,,,,,,,,,,,,,,,,660.1113249999999,660.3125797000012,660.2958211000005,660.5953890000001,660.5953890000001,None,661.0962040000013,None,d,1,0.6867467000010947,661.0962040000013,None,None,None,,,,,,,,,,,,,,,,,,,,,,,12010,1,2,2024_Jun_15_1951,stroop_task_switching2_b,2021.2.3,59.716109614806875,
,,,红,yellow,f,diamond,color_mix,颜色,,incompatible,1,block_switch2_b,instruction/ready_2.png,instruction/i12.png,,,,,,,,,,,,,,,,,0,1,1,1,0,3,3,3,,,,,,,,,,,,,,,,,,,,,,,,,,,661.7970490999996,661.9974039999997,661.9816745000007,662.2813002000003,662.2813002000003,None,662.7821863000008,None,f,1,0.7692225999999209,662.7821863000008,None,None,None,,,,,,,,,,,,,,,,,,,,,,,12010,1,2,2024_Jun_15_1951,stroop_task_switching2_b,2021.2.3,59.716109614806875,
,,,红,red,k,diamond,color_mix,颜色,,compatible,1,block_switch2_b,instruction/ready_2.png,instruction/i12.png,,,,,,,,,,,,,,,,,0,1,1,1,0,4,4,4,,,,,,,,,,,,,,,,,,,,,,,,,,,663.5665230000013,663.7677824000002,663.7503152000008,664.051031500001,664.051031500001,None,664.5524278000012,None,k,1,0.4629413000002387,664.5524278000012,None,None,None,,,,,,,,,,,,,,,,,,,,,,,12010,1,2,2024_Jun_15_1951,stroop_task_switching2_b,2021.2.3,59.716109614806875,
,,,绿,green,d,square,color_mix,单词,,compatible,2,block_switch2_b,instruction/ready_2.png,instruction/i12.png,,,,,,,,,,,,,,,,,0,1,1,1,0,5,5,5,,,,,,,,,,,,,,,,,,,,,,,,,,,665.0354552000008,665.2372154000004,665.2195525000006,665.5195635,665.5195635,None,666.0205535000005,None,d,1,0.7707699000002322,666.0205535000005,None,None,None,,,,,,,,,,,,,,,,,,,,,,,12010,1,2,2024_Jun_15_1951,stroop_task_switching2_b,2021.2.3,59.716109614806875,
,,,黄,blue,j,diamond,color_mix,颜色,,incompatible,2,block_switch2_b,instruction/ready_2.png,instruction/i12.png,,,,,,,,,,,,,,,,,0,1,1,1,0,6,6,6,,,,,,,,,,,,,,,,,,,,,,,,,,,666.8385819000014,667.0385517000013,667.0054583000001,667.3065849000013,667.3065849000013,None,667.806741800001,None,j,1,0.928576799999064,667.806741800001,None,None,None,,,,,,,,,,,,,,,,,,,,,,,12010,1,2,2024_Jun_15_1951,stroop_task_switching2_b,2021.2.3,59.716109614806875,
,,,绿,yellow,d,square,color_mix,单词,,incompatible,2,block_switch2_b,instruction/ready_2.png,instruction/i12.png,,,,,,,,,,,,,,,,,0,1,1,1,0,7,7,7,,,,,,,,,,,,,,,,,,,,,,,,,,,668.757474,668.9594402000002,668.9415334000005,669.2437226000002,669.2437226000002,None,669.7432546,None,d,1,1.3121461999999156,669.7432546,None,None,None,,,,,,,,,,,,,,,,,,,,,,,12010,1,2,2024_Jun_15_1951,stroop_task_switching2_b,2021.2.3,59.716109614806875,
