b_pra,ins_blocks,ins_blocks2,stim_word,stim_color,corrAns,cue_type,trial_type,task_type,rand,compatibility,switch,b_test,w_pic,w_pic2,trials_instr.thisRepN,trials_instr.thisTrialN,trials_instr.thisN,trials_instr.thisIndex,block_pra.thisRepN,block_pra.thisTrialN,block_pra.thisN,block_pra.thisIndex,trials_rep.thisRepN,trials_rep.thisTrialN,trials_rep.thisN,trials_rep.thisIndex,trials_pra.thisRepN,trials_pra.thisTrialN,trials_pra.thisN,trials_pra.thisIndex,trials_3.thisRepN,trials_3.thisTrialN,trials_3.thisN,trials_3.thisIndex,trials_2.thisRepN,trials_2.thisTrialN,trials_2.thisN,trials_2.thisIndex,instr_image.started,instr_image.stopped,instr_key_resp.keys,instr_key_resp.rt,instr_key_resp.started,instr_key_resp.stopped,instr_pra_image.started,instr_pra_image.stopped,ip_key_resp.keys,ip_key_resp.rt,ip_key_resp.started,ip_key_resp.stopped,block_image.started,block_image.stopped,ib_key_resp.keys,ib_key_resp.rt,ib_key_resp.started,ib_key_resp.stopped,cd3.started,cd3.stopped,cd2.started,cd2.stopped,cd1.started,cd1.stopped,cd_text.started,cd_text.stopped,text_fix.started,text_fix.stopped,text_2.started,text_2.stopped,text_4.started,text_4.stopped,text_target.started,text_target.stopped,key_resp.keys,key_resp.corr,key_resp.rt,key_resp.started,key_resp.stopped,sceen_black.started,sceen_black.stopped,text_fb.started,text_fb.stopped,text.started,text.stopped,key_bf.keys,key_bf.rt,key_bf.started,key_bf.stopped,instr_test_image.started,instr_test_image.stopped,instr_exp_key_resp.keys,instr_exp_key_resp.rt,instr_exp_key_resp.started,instr_exp_key_resp.stopped,text_rest.started,text_rest.stopped,key_resp_rest.keys,key_resp_rest.rt,key_resp_rest.started,key_resp_rest.stopped,text_3.started,text_3.stopped,participant,session,balance,date,expName,psychopyVersion,frameRate,
,,,,,,,,,,,,,,,0,0,0,0,,,,,,,,,,,,,,,,,,,,,11.307222299976274,None,right,2.5291545999934897,11.307222299976274,None,,,,,,,,,,,,,,,,,,,,,,,,,,,,,,,,,,,,,,,,,,,,,,,,,,,,,,,,,,12012,2,2,2024_Jun_18_1828,stroop_task_switching2_b,2021.2.3,59.995308359099404,
,,,,,,,,,,,,,,,1,0,1,0,,,,,,,,,,,,,,,,,,,,,13.877493700012565,None,right,43.705562499992084,13.877493700012565,None,,,,,,,,,,,,,,,,,,,,,,,,,,,,,,,,,,,,,,,,,,,,,,,,,,,,,,,,,,12012,2,2,2024_Jun_18_1828,stroop_task_switching2_b,2021.2.3,59.995308359099404,
,,,,,,,,,,,,,,,2,0,2,0,,,,,,,,,,,,,,,,,,,,,57.62687590002315,None,right,0.20838309999089688,57.62687590002315,None,,,,,,,,,,,,,,,,,,,,,,,,,,,,,,,,,,,,,,,,,,,,,,,,,,,,,,,,,,12012,2,2,2024_Jun_18_1828,stroop_task_switching2_b,2021.2.3,59.995308359099404,
,,,,,,,,,,,,,,,3,0,3,0,,,,,,,,,,,,,,,,,,,,,57.87726679997286,None,right,0.1718614000128582,57.87726679997286,None,,,,,,,,,,,,,,,,,,,,,,,,,,,,,,,,,,,,,,,,,,,,,,,,,,,,,,,,,,12012,2,2,2024_Jun_18_1828,stroop_task_switching2_b,2021.2.3,59.995308359099404,
,,,,,,,,,,,,,,,4,0,4,0,,,,,,,,,,,,,,,,,,,,,58.094409800018184,None,right,0.416466600028798,58.094409800018184,None,,,,,,,,,,,,,,,,,,,,,,,,,,,,,,,,,,,,,,,,,,,,,,,,,,,,,,,,,,12012,2,2,2024_Jun_18_1828,stroop_task_switching2_b,2021.2.3,59.995308359099404,
,,,,,,,,,,,,,,,5,0,5,0,,,,,,,,,,,,,,,,,,,,,58.54506490001222,None,right,0.4673062000074424,58.54506490001222,None,,,,,,,,,,,,,,,,,,,,,,,,,,,,,,,,,,,,,,,,,,,,,,,,,,,,,,,,,,12012,2,2,2024_Jun_18_1828,stroop_task_switching2_b,2021.2.3,59.995308359099404,
,,,,,,,,,,,,,,,,,,,,,,,,,,,,,,,,,,,,,,,,,,,,,59.045983400021214,None,space,1.1385517999879085,59.045983400021214,None,,,,,,,,,,,,,,,,,,,,,,,,,,,,,,,,,,,,,,,,,,,,,,,,,,,,12012,2,2,2024_Jun_18_1828,stroop_task_switching2_b,2021.2.3,59.995308359099404,
condition/block_color_b,instruction/instr_color,instruction/i8_b,XX,red,k,diamond,color_single,颜色,,,,,,,,,,,0,0,0,0,0,0,0,0,0,0,0,0,,,,,,,,,,,,,,,,,,,,,60.23112359998049,None,space,6.884359500021674,60.23112359998049,None,68.19473859999562,69.19447589997435,69.19447589997435,70.19828720000805,70.19828720000805,None,67.20812109997496,68.21043819998158,71.16362910001772,71.36458439996932,71.34784080000827,71.64848269999493,71.64848269999493,None,72.14941489999183,None,k,1,0.8594418999855407,72.14941489999183,None,None,None,73.11715170001844,None,,,,,,,,,,,,,,,,,,,,,12012,2,2,2024_Jun_18_1828,stroop_task_switching2_b,2021.2.3,59.995308359099404,
condition/block_color_b,instruction/instr_color,instruction/i8_b,XX,green,d,diamond,color_single,颜色,,,,,,,,,,,0,0,0,0,0,0,0,0,0,1,1,1,,,,,,,,,,,,,,,,,,,,,,,,,,,,,,,,,,,74.05194530001609,74.25359639996896,74.21877620002488,74.52099260000978,74.53734749997966,None,75.03719250002177,None,d,1,1.1002425999613479,75.03719250002177,None,None,None,76.1549467999721,None,,,,,,,,,,,,,,,,,,,,,12012,2,2,2024_Jun_18_1828,stroop_task_switching2_b,2021.2.3,59.995308359099404,
condition/block_color_b,instruction/instr_color,instruction/i8_b,XX,yellow,f,diamond,color_single,颜色,,,,,,,,,,,0,0,0,0,0,0,0,0,0,2,2,2,,,,,,,,,,,,,,,,,,,,,,,,,,,,,,,,,,,77.15659660001984,77.35783880000236,77.34235230000922,77.65883739996934,77.64051389996894,None,78.14141679997556,None,f,1,0.6356341999489814,78.14141679997556,None,None,None,78.79231069999514,None,,,,,,,,,,,,,,,,,,,,,12012,2,2,2024_Jun_18_1828,stroop_task_switching2_b,2021.2.3,59.995308359099404,
condition/block_color_b,instruction/instr_color,instruction/i8_b,XX,blue,j,diamond,color_single,颜色,,,,,,,,,,,0,0,0,0,0,0,0,0,0,3,3,3,,,,,,,,,,,,,,,,,,,,,,,,,,,,,,,,,,,79.79405109997606,79.99569060001522,79.97759520000545,80.27887350000674,80.27887350000674,None,80.77860959997633,None,j,1,0.358735500019975,80.77860959997633,None,None,None,81.16294559999369,None,,,,,,,,,,,,,,,,,,,,,12012,2,2,2024_Jun_18_1828,stroop_task_switching2_b,2021.2.3,59.995308359099404,
condition/block_color_b,instruction/instr_color,instruction/i8_b,XX,green,d,diamond,color_single,颜色,,,,,,,,,,,0,0,0,0,0,0,0,0,0,4,4,4,,,,,,,,,,,,,,,,,,,,,,,,,,,,,,,,,,,82.1650867999997,82.36664710001787,82.34798319998663,82.64827940001851,82.64827940001851,None,83.15099960000953,None,d,1,0.5142603000276722,83.15099960000953,None,None,None,83.68300989997806,None,,,,,,,,,,,,,,,,,,,,,12012,2,2,2024_Jun_18_1828,stroop_task_switching2_b,2021.2.3,59.995308359099404,
condition/block_color_b,instruction/instr_color,instruction/i8_b,XX,yellow,f,diamond,color_single,颜色,,,,,,,,,,,0,0,0,0,0,0,0,0,0,5,5,5,,,,,,,,,,,,,,,,,,,,,,,,,,,,,,,,,,,84.68467500002589,84.88564689998748,84.86826219997602,85.17012939997949,85.17012939997949,None,85.6703260000213,None,f,1,0.3711499000201002,85.6703260000213,None,None,None,86.069467000023,None,,,,,,,,,,,,,,,,,,,,,12012,2,2,2024_Jun_18_1828,stroop_task_switching2_b,2021.2.3,59.995308359099404,
condition/block_color_b,instruction/instr_color,instruction/i8_b,XX,blue,j,diamond,color_single,颜色,,,,,,,,,,,0,0,0,0,0,0,0,0,0,6,6,6,,,,,,,,,,,,,,,,,,,,,,,,,,,,,,,,,,,87.07159569999203,87.27260460000252,87.25574200000847,87.55609490000643,87.55609490000643,None,88.05639240000164,None,j,1,0.3291833000257611,88.05639240000164,None,None,None,88.40688670001691,None,,,,,,,,,,,,,,,,,,,,,12012,2,2,2024_Jun_18_1828,stroop_task_switching2_b,2021.2.3,59.995308359099404,
condition/block_color_b,instruction/instr_color,instruction/i8_b,XX,red,k,diamond,color_single,颜色,,,,,,,,,,,0,0,0,0,0,0,0,0,0,7,7,7,,,,,,,,,,,,,,,,,,,,,,,,,,,,,,,,,,,89.40831129997969,89.60941239999374,89.59193639998557,89.89277480001329,89.89277480001329,None,90.39324940001825,None,k,1,0.32004500000039116,90.39324940001825,None,None,None,90.74358890001895,None,,,,,,,,,,,,,,,,,,,,,12012,2,2,2024_Jun_18_1828,stroop_task_switching2_b,2021.2.3,59.995308359099404,
condition/block_color_b,instruction/instr_color,instruction/i8_b,XX,yellow,f,diamond,color_single,颜色,,,,,,,,,,,0,0,0,0,0,0,0,0,0,8,8,8,,,,,,,,,,,,,,,,,,,,,,,,,,,,,,,,,,,91.74575469997944,91.94697529997211,91.92912099999376,92.22977229999378,92.21264520002296,None,92.71328949998133,None,d,0,0.6400887999916449,92.71328949998133,None,None,None,93.38094250002177,None,,,,,,,,,,,,,,,,,,,,,12012,2,2,2024_Jun_18_1828,stroop_task_switching2_b,2021.2.3,59.995308359099404,
condition/block_color_b,instruction/instr_color,instruction/i8_b,XX,blue,j,diamond,color_single,颜色,,,,,,,,,,,0,0,0,0,0,0,0,0,0,9,9,9,,,,,,,,,,,,,,,,,,,,,,,,,,,,,,,,,,,94.38288669998292,94.58334239997203,94.56615309999324,94.86646549997386,94.86646549997386,None,95.36796900001355,None,j,1,0.545553200005088,95.36796900001355,None,None,None,95.93496400001459,None,,,,,,,,,,,,,,,,,,,,,12012,2,2,2024_Jun_18_1828,stroop_task_switching2_b,2021.2.3,59.995308359099404,
condition/block_color_b,instruction/instr_color,instruction/i8_b,XX,red,k,diamond,color_single,颜色,,,,,,,,,,,0,0,0,0,0,0,0,0,0,10,10,10,,,,,,,,,,,,,,,,,,,,,,,,,,,,,,,,,,,96.93650459998753,97.13669070001924,97.1201088000089,97.42144960002042,97.42144960002042,None,97.92119109997293,None,k,1,0.46513620001496747,97.92119109997293,None,None,None,98.40521880000597,None,,,,,,,,,,,,,,,,,,,,,12012,2,2,2024_Jun_18_1828,stroop_task_switching2_b,2021.2.3,59.995308359099404,
condition/block_color_b,instruction/instr_color,instruction/i8_b,XX,green,d,diamond,color_single,颜色,,,,,,,,,,,0,0,0,0,0,0,0,0,0,11,11,11,,,,,,,,,,,,,,,,,,,,,,,,,,,,,,,,,,,99.4068712000153,99.60837069997797,99.59052430000156,99.89089209999656,99.89089209999656,None,100.39190059999237,None,d,1,0.5617638000403531,100.39190059999237,None,None,None,100.97602419997565,None,,,,,,,,,,,,,,,,,,,,,12012,2,2,2024_Jun_18_1828,stroop_task_switching2_b,2021.2.3,59.995308359099404,
condition/block_color_b,instruction/instr_color,instruction/i8_b,XX,blue,j,diamond,color_single,颜色,,,,,,,,,,,0,0,0,0,0,0,0,0,0,12,12,12,,,,,,,,,,,,,,,,,,,,,,,,,,,,,,,,,,,101.97749309998471,102.1777561000199,102.16172889998415,102.46306390000973,102.46306390000973,None,102.96318879997125,None,j,1,0.646442900004331,102.96318879997125,None,None,None,103.62998169998173,None,,,,,,,,,,,,,,,,,,,,,12012,2,2,2024_Jun_18_1828,stroop_task_switching2_b,2021.2.3,59.995308359099404,
condition/block_color_b,instruction/instr_color,instruction/i8_b,XX,red,k,diamond,color_single,颜色,,,,,,,,,,,0,0,0,0,0,0,0,0,0,13,13,13,,,,,,,,,,,,,,,,,,,,,,,,,,,,,,,,,,,104.63249380001798,104.83209959999658,104.81516519997967,105.11735559999943,105.11735559999943,None,105.63380090001738,None,k,1,0.6080583999864757,105.63380090001738,None,None,None,106.26708199997665,None,,,,,,,,,,,,,,,,,,,,,12012,2,2,2024_Jun_18_1828,stroop_task_switching2_b,2021.2.3,59.995308359099404,
condition/block_color_b,instruction/instr_color,instruction/i8_b,XX,green,d,diamond,color_single,颜色,,,,,,,,,,,0,0,0,0,0,0,0,0,0,14,14,14,,,,,,,,,,,,,,,,,,,,,,,,,,,,,,,,,,,107.26880979997804,107.4699157999712,107.45326480001677,107.75396319996798,107.75396319996798,None,108.25349309999729,None,d,1,0.5566256999736652,108.25349309999729,None,None,None,108.8376896000118,None,,,,,,,,,,,,,,,,,,,,,12012,2,2,2024_Jun_18_1828,stroop_task_switching2_b,2021.2.3,59.995308359099404,
condition/block_color_b,instruction/instr_color,instruction/i8_b,XX,yellow,f,diamond,color_single,颜色,,,,,,,,,,,0,0,0,0,0,0,0,0,0,15,15,15,,,,,,,,,,,,,,,,,,,,,,,,,,,,,,,,,,,109.8395109999692,110.04038279998349,110.02341560000787,110.3232378999819,110.3232378999819,None,110.82397620001575,None,f,1,0.37813379999715835,110.82397620001575,None,None,None,111.2246874999837,None,,,,,,,,,,,,,,,,,,,,,12012,2,2,2024_Jun_18_1828,stroop_task_switching2_b,2021.2.3,59.995308359099404,
condition/block_color_b,instruction/instr_color,instruction/i8_b,XX,red,k,diamond,color_single,颜色,,,,,,,,,,,0,0,0,0,0,0,0,0,0,16,16,16,,,,,,,,,,,,,,,,,,,,,,,,,,,,,,,,,,,112.2272665000055,112.42800549999811,112.41003849997651,112.71039069996914,112.71039069996914,None,113.21086839999771,None,k,1,0.5031708999886177,113.21086839999771,None,None,None,113.72847420000471,None,,,,,,,,,,,,,,,,,,,,,12012,2,2,2024_Jun_18_1828,stroop_task_switching2_b,2021.2.3,59.995308359099404,
condition/block_color_b,instruction/instr_color,instruction/i8_b,XX,green,d,diamond,color_single,颜色,,,,,,,,,,,0,0,0,0,0,0,0,0,0,17,17,17,,,,,,,,,,,,,,,,,,,,,,,,,,,,,,,,,,,114.7299103999976,114.93014299997594,114.91499810002279,115.21400410000933,115.21400410000933,None,115.71480359998532,None,d,1,0.551564600027632,115.71480359998532,None,None,None,116.28277360001812,None,,,,,,,,,,,,,,,,,,,,,12012,2,2,2024_Jun_18_1828,stroop_task_switching2_b,2021.2.3,59.995308359099404,
condition/block_color_b,instruction/instr_color,instruction/i8_b,XX,yellow,f,diamond,color_single,颜色,,,,,,,,,,,0,0,0,0,0,0,0,0,0,18,18,18,,,,,,,,,,,,,,,,,,,,,,,,,,,,,,,,,,,117.28401559998747,117.48535749997245,117.4674049000023,117.76927240000805,117.76927240000805,None,118.26894169999287,None,f,1,0.8377645000000484,118.26894169999287,None,None,None,119.15355579997413,None,,,,,,,,,,,,,,,,,,,,,12012,2,2,2024_Jun_18_1828,stroop_task_switching2_b,2021.2.3,59.995308359099404,
condition/block_color_b,instruction/instr_color,instruction/i8_b,XX,blue,j,diamond,color_single,颜色,,,,,,,,,,,0,0,0,0,0,0,0,0,0,19,19,19,,,,,,,,,,,,,,,,,,,,,,,,,,,,,,,,,,,120.15510660002474,120.35610759997508,120.33928249997552,120.63983729999745,120.62216819997411,None,121.12287279998418,None,j,1,0.5114578999928199,121.12287279998418,None,None,None,121.65707969997311,None,,,,,,,,,,,,,,,,,,,,,12012,2,2,2024_Jun_18_1828,stroop_task_switching2_b,2021.2.3,59.995308359099404,
condition/block_color_b,instruction/instr_color,instruction/i8_b,XX,green,d,diamond,color_single,颜色,,,,,,,,,,,0,0,0,0,0,0,0,0,0,20,20,20,,,,,,,,,,,,,,,,,,,,,,,,,,,,,,,,,,,122.65860199998133,122.86069960001623,122.8424072000198,123.14358460000949,123.14358460000949,None,123.64327050000429,None,d,1,0.7430594000034034,123.64327050000429,None,None,None,124.41116050002165,None,,,,,,,,,,,,,,,,,,,,,12012,2,2,2024_Jun_18_1828,stroop_task_switching2_b,2021.2.3,59.995308359099404,
condition/block_color_b,instruction/instr_color,instruction/i8_b,XX,yellow,f,diamond,color_single,颜色,,,,,,,,,,,0,0,0,0,0,0,0,0,0,21,21,21,,,,,,,,,,,,,,,,,,,,,,,,,,,,,,,,,,,125.41286989999935,125.61451380001381,125.59632750001037,125.89721309999004,125.89721309999004,None,126.39800719998311,None,f,1,0.3487085999804549,126.39800719998311,None,None,None,126.76471680001123,None,,,,,,,,,,,,,,,,,,,,,12012,2,2,2024_Jun_18_1828,stroop_task_switching2_b,2021.2.3,59.995308359099404,
condition/block_color_b,instruction/instr_color,instruction/i8_b,XX,blue,j,diamond,color_single,颜色,,,,,,,,,,,0,0,0,0,0,0,0,0,0,22,22,22,,,,,,,,,,,,,,,,,,,,,,,,,,,,,,,,,,,127.76663029997144,127.96652080002241,127.95004389999667,128.2503973999992,128.2503973999992,None,128.75148540001828,None,j,1,0.5868505000253208,128.75148540001828,None,None,None,129.36859440000262,None,,,,,,,,,,,,,,,,,,,,,12012,2,2,2024_Jun_18_1828,stroop_task_switching2_b,2021.2.3,59.995308359099404,
condition/block_color_b,instruction/instr_color,instruction/i8_b,XX,red,k,diamond,color_single,颜色,,,,,,,,,,,0,0,0,0,0,0,0,0,0,23,23,23,,,,,,,,,,,,,,,,,,,,,,,,,,,,,,,,,,,130.370247200015,130.57163969997782,130.55386520002503,130.85435500001768,130.85435500001768,None,131.3548292000196,None,k,1,0.33594270003959537,131.3548292000196,None,None,None,131.70570910000242,None,,,,,,,,,,,,,,,,,,,,,12012,2,2,2024_Jun_18_1828,stroop_task_switching2_b,2021.2.3,59.995308359099404,
condition/block_color_b,instruction/instr_color,instruction/i8_b,,,,,,,,,,,,,,,,,0,0,0,0,0,0,0,0,,,,,,,,,,,,,,,,,,,,,,,,,,,,,,,,,,,,,,,,,,,,,,,,,,,,,,,,132.72380400000839,None,space,2.2231489999685436,132.72380400000839,None,,,,,,,,,,,,,,,12012,2,2,2024_Jun_18_1828,stroop_task_switching2_b,2021.2.3,59.995308359099404,
condition/block_color_b,instruction/instr_color,instruction/i8_b,,,,,,,,,,,,,,,,,0,0,0,0,,,,,,,,,,,,,,,,,,,,,,,,,,,,,,,,,,,,,,,,,,,,,,,,,,,,,,,,,,,,,,,,,,,,,,,,,,,,,,,,12012,2,2,2024_Jun_18_1828,stroop_task_switching2_b,2021.2.3,59.995308359099404,
condition/block_word_b,instruction/instr_word,instruction/i9_b,黄,white,f,square,word_single,单词,0.0032461461866890584,,,,,,,,,,0,1,1,1,0,0,0,0,0,0,0,0,,,,,,,,,,,,,,,,,,,,,134.99381499999436,None,space,4.888774299994111,134.99381499999436,None,140.90381190000335,141.9046062999987,141.9046062999987,142.907195399981,142.907195399981,None,139.91869839996798,140.91928640002152,143.92377230001148,144.12418179999804,144.12418179999804,144.4247545999824,144.4247545999824,None,144.90900159999728,None,f,1,0.7498773000552319,144.90900159999728,None,None,None,145.70998599997256,None,,,,,,,,,,,,,,,,,,,,,12012,2,2,2024_Jun_18_1828,stroop_task_switching2_b,2021.2.3,59.995308359099404,
condition/block_word_b,instruction/instr_word,instruction/i9_b,蓝,white,j,square,word_single,单词,0.060540570646362424,,,,,,,,,,0,1,1,1,0,0,0,0,0,1,1,1,,,,,,,,,,,,,,,,,,,,,,,,,,,,,,,,,,,146.6960403000121,146.896531699982,146.86176870000781,147.16256789996987,147.18019159999676,None,147.68001760001061,None,j,1,0.4747788999811746,147.68001760001061,None,None,None,148.18036439997377,None,,,,,,,,,,,,,,,,,,,,,12012,2,2,2024_Jun_18_1828,stroop_task_switching2_b,2021.2.3,59.995308359099404,
condition/block_word_b,instruction/instr_word,instruction/i9_b,黄,white,f,square,word_single,单词,0.06994067193778963,,,,,,,,,,0,1,1,1,0,0,0,0,0,2,2,2,,,,,,,,,,,,,,,,,,,,,,,,,,,,,,,,,,,149.18173020001268,149.38411360001191,149.3655432999949,149.66702719999012,149.66702719999012,None,150.16698849998647,None,f,1,1.0285321999690495,150.16698849998647,None,None,None,151.2182776000118,None,,,,,,,,,,,,,,,,,,,,,12012,2,2,2024_Jun_18_1828,stroop_task_switching2_b,2021.2.3,59.995308359099404,
condition/block_word_b,instruction/instr_word,instruction/i9_b,蓝,white,j,square,word_single,单词,0.08193765152950094,,,,,,,,,,0,1,1,1,0,0,0,0,0,3,3,3,,,,,,,,,,,,,,,,,,,,,,,,,,,,,,,,,,,152.22040619998006,152.421162499988,152.40351410000585,152.70392210001592,152.70392210001592,None,153.20452869997825,None,j,1,0.6233328999951482,153.20452869997825,None,None,None,153.8558774999692,None,,,,,,,,,,,,,,,,,,,,,12012,2,2,2024_Jun_18_1828,stroop_task_switching2_b,2021.2.3,59.995308359099404,
condition/block_word_b,instruction/instr_word,instruction/i9_b,红,white,k,square,word_single,单词,0.1279694370605574,,,,,,,,,,0,1,1,1,0,0,0,0,0,4,4,4,,,,,,,,,,,,,,,,,,,,,,,,,,,,,,,,,,,154.85704500001157,155.05856229999335,155.04060489998665,155.34286189998966,155.34286189998966,None,155.84193549997872,None,k,1,0.37728379998588935,155.84193549997872,None,None,None,156.24258989997907,None,,,,,,,,,,,,,,,,,,,,,12012,2,2,2024_Jun_18_1828,stroop_task_switching2_b,2021.2.3,59.995308359099404,
condition/block_word_b,instruction/instr_word,instruction/i9_b,红,white,k,square,word_single,单词,0.18345028784879092,,,,,,,,,,0,1,1,1,0,0,0,0,0,5,5,5,,,,,,,,,,,,,,,,,,,,,,,,,,,,,,,,,,,157.24541309999768,157.44443699996918,157.42913319997024,157.72923240001546,157.72923240001546,None,158.22885630000383,None,k,1,0.6863122000358999,158.22885630000383,None,None,None,158.94600370002445,None,,,,,,,,,,,,,,,,,,,,,12012,2,2,2024_Jun_18_1828,stroop_task_switching2_b,2021.2.3,59.995308359099404,
condition/block_word_b,instruction/instr_word,instruction/i9_b,蓝,white,j,square,word_single,单词,0.19920386223101294,,,,,,,,,,0,1,1,1,0,0,0,0,0,6,6,6,,,,,,,,,,,,,,,,,,,,,,,,,,,,,,,,,,,159.94809339998756,160.1482824999839,160.13236150000012,160.43230179999955,160.43230179999955,None,160.93322230002377,None,j,1,0.7263075999799185,160.93322230002377,None,None,None,161.68400190002285,None,,,,,,,,,,,,,,,,,,,,,12012,2,2,2024_Jun_18_1828,stroop_task_switching2_b,2021.2.3,59.995308359099404,
condition/block_word_b,instruction/instr_word,instruction/i9_b,蓝,white,j,square,word_single,单词,0.26360599864925405,,,,,,,,,,0,1,1,1,0,0,0,0,0,7,7,7,,,,,,,,,,,,,,,,,,,,,,,,,,,,,,,,,,,162.68569529999513,162.88591730000917,162.8692304000142,163.17107749998104,163.17107749998104,None,163.6702243000036,None,j,1,0.5734296999871731,163.6702243000036,None,None,None,164.27127650001785,None,,,,,,,,,,,,,,,,,,,,,12012,2,2,2024_Jun_18_1828,stroop_task_switching2_b,2021.2.3,59.995308359099404,
condition/block_word_b,instruction/instr_word,instruction/i9_b,蓝,white,j,square,word_single,单词,0.358985675745526,,,,,,,,,,0,1,1,1,0,0,0,0,0,8,8,8,,,,,,,,,,,,,,,,,,,,,,,,,,,,,,,,,,,165.2729153999826,165.47377430001507,165.4573106999742,165.75696510000853,165.75696510000853,None,166.257937700022,None,j,1,0.44972600002074614,166.257937700022,None,None,None,166.72513789997902,None,,,,,,,,,,,,,,,,,,,,,12012,2,2,2024_Jun_18_1828,stroop_task_switching2_b,2021.2.3,59.995308359099404,
condition/block_word_b,instruction/instr_word,instruction/i9_b,绿,white,d,square,word_single,单词,0.36496733802487347,,,,,,,,,,0,1,1,1,0,0,0,0,0,9,9,9,,,,,,,,,,,,,,,,,,,,,,,,,,,,,,,,,,,167.72662039997522,167.92685849999543,167.91293890000088,168.22715589997824,168.2106756999856,None,168.7113920999691,None,d,1,0.5160109999706037,168.7113920999691,None,None,None,169.2457798999967,None,,,,,,,,,,,,,,,,,,,,,12012,2,2,2024_Jun_18_1828,stroop_task_switching2_b,2021.2.3,59.995308359099404,
condition/block_word_b,instruction/instr_word,instruction/i9_b,黄,white,f,square,word_single,单词,0.3743513623756727,,,,,,,,,,0,1,1,1,0,0,0,0,0,10,10,10,,,,,,,,,,,,,,,,,,,,,,,,,,,,,,,,,,,170.24722499999916,170.44839119998505,170.43185220001033,170.73334789997898,170.73334789997898,None,171.24883300001966,None,f,1,0.4429191999952309,171.24883300001966,None,None,None,171.715655100008,None,,,,,,,,,,,,,,,,,,,,,12012,2,2,2024_Jun_18_1828,stroop_task_switching2_b,2021.2.3,59.995308359099404,
condition/block_word_b,instruction/instr_word,instruction/i9_b,红,white,k,square,word_single,单词,0.3894803852598544,,,,,,,,,,0,1,1,1,0,0,0,0,0,11,11,11,,,,,,,,,,,,,,,,,,,,,,,,,,,,,,,,,,,172.71763339999598,172.9185201000073,172.90106309996918,173.20182919997023,173.20182919997023,None,173.70288419997087,None,k,1,0.5246148000005633,173.70288419997087,None,None,None,174.25320919998921,None,,,,,,,,,,,,,,,,,,,,,12012,2,2,2024_Jun_18_1828,stroop_task_switching2_b,2021.2.3,59.995308359099404,
condition/block_word_b,instruction/instr_word,instruction/i9_b,绿,white,d,square,word_single,单词,0.5393759672408067,,,,,,,,,,0,1,1,1,0,0,0,0,0,12,12,12,,,,,,,,,,,,,,,,,,,,,,,,,,,,,,,,,,,175.25467569998,175.4563283000025,175.4386557000107,175.73916489997646,175.73916489997646,None,176.23945420002565,None,d,1,0.6688209000276402,176.23945420002565,None,None,None,176.923709900002,None,,,,,,,,,,,,,,,,,,,,,12012,2,2,2024_Jun_18_1828,stroop_task_switching2_b,2021.2.3,59.995308359099404,
condition/block_word_b,instruction/instr_word,instruction/i9_b,蓝,white,j,square,word_single,单词,0.5995731954831104,,,,,,,,,,0,1,1,1,0,0,0,0,0,13,13,13,,,,,,,,,,,,,,,,,,,,,,,,,,,,,,,,,,,177.9256519000046,178.1265226000105,178.10894120001467,178.409799200017,178.409799200017,None,178.91024050000124,None,j,1,0.6134488999960013,178.91024050000124,None,None,None,179.54441749997204,None,,,,,,,,,,,,,,,,,,,,,12012,2,2,2024_Jun_18_1828,stroop_task_switching2_b,2021.2.3,59.995308359099404,
condition/block_word_b,instruction/instr_word,instruction/i9_b,红,white,k,square,word_single,单词,0.6298674479151414,,,,,,,,,,0,1,1,1,0,0,0,0,0,14,14,14,,,,,,,,,,,,,,,,,,,,,,,,,,,,,,,,,,,180.5458202000009,180.74673070001882,180.72946549998596,181.03054220002377,181.03054220002377,None,181.53110079996986,None,k,1,0.505069500009995,181.53110079996986,None,None,None,182.0647979999776,None,,,,,,,,,,,,,,,,,,,,,12012,2,2,2024_Jun_18_1828,stroop_task_switching2_b,2021.2.3,59.995308359099404,
condition/block_word_b,instruction/instr_word,instruction/i9_b,红,white,k,square,word_single,单词,0.7389942282348904,,,,,,,,,,0,1,1,1,0,0,0,0,0,15,15,15,,,,,,,,,,,,,,,,,,,,,,,,,,,,,,,,,,,183.06742289999966,183.26642150001135,183.25043730001198,183.5503646999714,183.5503646999714,None,184.0512370999786,None,k,1,0.6006134999915957,184.0512370999786,None,None,None,184.66886969999177,None,,,,,,,,,,,,,,,,,,,,,12012,2,2,2024_Jun_18_1828,stroop_task_switching2_b,2021.2.3,59.995308359099404,
condition/block_word_b,instruction/instr_word,instruction/i9_b,绿,white,d,square,word_single,单词,0.7550853947239682,,,,,,,,,,0,1,1,1,0,0,0,0,0,16,16,16,,,,,,,,,,,,,,,,,,,,,,,,,,,,,,,,,,,185.67011810000986,185.8703793999739,185.85445370001253,186.15442630002508,186.15442630002508,None,186.6549630999798,None,d,1,0.581386299978476,186.6549630999798,None,None,None,187.25600029999623,None,,,,,,,,,,,,,,,,,,,,,12012,2,2,2024_Jun_18_1828,stroop_task_switching2_b,2021.2.3,59.995308359099404,
condition/block_word_b,instruction/instr_word,instruction/i9_b,绿,white,d,square,word_single,单词,0.8019302780428206,,,,,,,,,,0,1,1,1,0,0,0,0,0,17,17,17,,,,,,,,,,,,,,,,,,,,,,,,,,,,,,,,,,,188.25756840000395,188.4578439000179,188.44258089998038,188.7428572999779,188.7428572999779,None,189.24329610000132,None,d,1,0.6247794000082649,189.24329610000132,None,None,None,189.89327210001647,None,,,,,,,,,,,,,,,,,,,,,12012,2,2,2024_Jun_18_1828,stroop_task_switching2_b,2021.2.3,59.995308359099404,
condition/block_word_b,instruction/instr_word,instruction/i9_b,绿,white,d,square,word_single,单词,0.8110702914095343,,,,,,,,,,0,1,1,1,0,0,0,0,0,18,18,18,,,,,,,,,,,,,,,,,,,,,,,,,,,,,,,,,,,190.89554449997377,191.09614699997474,191.0788356999983,191.37907039996935,191.37907039996935,None,191.88044159999117,None,d,1,0.5003583999932744,191.88044159999117,None,None,None,192.39716370002134,None,,,,,,,,,,,,,,,,,,,,,12012,2,2,2024_Jun_18_1828,stroop_task_switching2_b,2021.2.3,59.995308359099404,
condition/block_word_b,instruction/instr_word,instruction/i9_b,黄,white,f,square,word_single,单词,0.8176594937590999,,,,,,,,,,0,1,1,1,0,0,0,0,0,19,19,19,,,,,,,,,,,,,,,,,,,,,,,,,,,,,,,,,,,193.39860690000933,193.5987943999935,193.58267099998193,193.8839042999898,193.8839042999898,None,194.38413620000938,None,f,1,0.6759465999784879,194.38413620000938,None,None,None,195.08435730001656,None,,,,,,,,,,,,,,,,,,,,,12012,2,2,2024_Jun_18_1828,stroop_task_switching2_b,2021.2.3,59.995308359099404,
condition/block_word_b,instruction/instr_word,instruction/i9_b,红,white,k,square,word_single,单词,0.8955794421104841,,,,,,,,,,0,1,1,1,0,0,0,0,0,20,20,20,,,,,,,,,,,,,,,,,,,,,,,,,,,,,,,,,,,196.08673550002277,196.2861846999731,196.27075019996846,196.57116519997362,196.57116519997362,None,197.07182650000323,None,k,1,0.5644099999917671,197.07182650000323,None,None,None,197.65486589999637,None,,,,,,,,,,,,,,,,,,,,,12012,2,2,2024_Jun_18_1828,stroop_task_switching2_b,2021.2.3,59.995308359099404,
condition/block_word_b,instruction/instr_word,instruction/i9_b,绿,white,d,square,word_single,单词,0.9113598052474129,,,,,,,,,,0,1,1,1,0,0,0,0,0,21,21,21,,,,,,,,,,,,,,,,,,,,,,,,,,,,,,,,,,,198.65684229996987,198.85767240001587,198.8401337999967,199.14060759998392,199.14060759998392,None,199.6415954999975,None,d,1,0.5948078999645077,199.6415954999975,None,None,None,200.25892930000555,None,,,,,,,,,,,,,,,,,,,,,12012,2,2,2024_Jun_18_1828,stroop_task_switching2_b,2021.2.3,59.995308359099404,
condition/block_word_b,instruction/instr_word,instruction/i9_b,黄,white,f,square,word_single,单词,0.9215930958042953,,,,,,,,,,0,1,1,1,0,0,0,0,0,22,22,22,,,,,,,,,,,,,,,,,,,,,,,,,,,,,,,,,,,201.26140810002107,201.46277530002408,201.44442459999118,201.74521189997904,201.74521189997904,None,202.2456101999851,None,f,1,0.751251699985005,202.2456101999851,None,None,None,203.01340599998366,None,,,,,,,,,,,,,,,,,,,,,12012,2,2,2024_Jun_18_1828,stroop_task_switching2_b,2021.2.3,59.995308359099404,
condition/block_word_b,instruction/instr_word,instruction/i9_b,黄,white,f,square,word_single,单词,0.9493525498837774,,,,,,,,,,0,1,1,1,0,0,0,0,0,23,23,23,,,,,,,,,,,,,,,,,,,,,,,,,,,,,,,,,,,204.01461850001942,204.21586529997876,204.19847609999124,204.4992681000149,204.4992681000149,None,204.99939409998478,None,f,1,0.51747369999066,204.99939409998478,None,None,None,205.53336260002106,None,,,,,,,,,,,,,,,,,,,,,12012,2,2,2024_Jun_18_1828,stroop_task_switching2_b,2021.2.3,59.995308359099404,
condition/block_word_b,instruction/instr_word,instruction/i9_b,,,,,,,,,,,,,,,,,0,1,1,1,0,0,0,0,,,,,,,,,,,,,,,,,,,,,,,,,,,,,,,,,,,,,,,,,,,,,,,,,,,,,,,,206.5348625999759,None,space,2.3860028999624774,206.5348625999759,None,,,,,,,,,,,,,,,12012,2,2,2024_Jun_18_1828,stroop_task_switching2_b,2021.2.3,59.995308359099404,
condition/block_word_b,instruction/instr_word,instruction/i9_b,,,,,,,,,,,,,,,,,0,1,1,1,,,,,,,,,,,,,,,,,,,,,,,,,,,,,,,,,,,,,,,,,,,,,,,,,,,,,,,,,,,,,,,,,,,,,,,,,,,,,,,,12012,2,2,2024_Jun_18_1828,stroop_task_switching2_b,2021.2.3,59.995308359099404,
condition/block_mixed_b,instruction/instr_mixed,instruction/i10_b,蓝,red,k,diamond,color_mix,颜色,,incompatible,0,,,,,,,,0,2,2,2,0,0,0,0,0,0,0,0,,,,,,,,,,,,,,,,,,,,,208.97253209998598,None,space,19.33507259999169,208.97253209998598,None,229.33586950000608,230.33772499999031,230.33772499999031,231.33966300002066,231.33966300002066,None,228.35158700001193,229.35292769997614,232.37489999999525,232.57439680001698,232.55850149999605,232.85924580000574,232.85924580000574,None,233.34289329999592,None,k,1,0.9182550999685191,233.34289329999592,None,None,None,234.3102195999818,None,,,,,,,,,,,,,,,,,,,,,12012,2,2,2024_Jun_18_1828,stroop_task_switching2_b,2021.2.3,59.995308359099404,
condition/block_mixed_b,instruction/instr_mixed,instruction/i10_b,绿,yellow,f,diamond,color_mix,颜色,,incompatible,1,,,,,,,,0,2,2,2,0,0,0,0,0,1,1,1,,,,,,,,,,,,,,,,,,,,,,,,,,,,,,,,,,,235.29694620001828,235.4961537999916,235.48063130001538,235.79669709998416,235.76256499998271,None,236.26333310001064,None,f,1,0.7019961000187322,236.26333310001064,None,None,None,236.98112030001357,None,,,,,,,,,,,,,,,,,,,,,12012,2,2,2024_Jun_18_1828,stroop_task_switching2_b,2021.2.3,59.995308359099404,
condition/block_mixed_b,instruction/instr_mixed,instruction/i10_b,红,green,d,diamond,color_mix,颜色,,incompatible,1,,,,,,,,0,2,2,2,0,0,0,0,0,2,2,2,,,,,,,,,,,,,,,,,,,,,,,,,,,,,,,,,,,237.9836053000181,238.1833208000171,238.16607440001098,238.46775640000124,238.46775640000124,None,238.96780039998703,None,d,1,0.7095066999900155,238.96780039998703,None,None,None,239.70179690001532,None,,,,,,,,,,,,,,,,,,,,,12012,2,2,2024_Jun_18_1828,stroop_task_switching2_b,2021.2.3,59.995308359099404,
condition/block_mixed_b,instruction/instr_mixed,instruction/i10_b,蓝,red,k,diamond,color_mix,颜色,,incompatible,1,,,,,,,,0,2,2,2,0,0,0,0,0,3,3,3,,,,,,,,,,,,,,,,,,,,,,,,,,,,,,,,,,,240.70331579999765,240.90487660001963,240.88690179999685,241.18924360000528,241.18924360000528,None,241.70466280000983,None,k,1,0.6051887999637984,241.70466280000983,None,None,None,242.3389134000172,None,,,,,,,,,,,,,,,,,,,,,12012,2,2,2024_Jun_18_1828,stroop_task_switching2_b,2021.2.3,59.995308359099404,
condition/block_mixed_b,instruction/instr_mixed,instruction/i10_b,红,blue,j,diamond,color_mix,颜色,,incompatible,1,,,,,,,,0,2,2,2,0,0,0,0,0,4,4,4,,,,,,,,,,,,,,,,,,,,,,,,,,,,,,,,,,,243.34050330001628,243.54174750001403,243.52415999997174,243.82437609997578,243.82437609997578,None,244.3254696999793,None,j,1,0.7120377999963239,244.3254696999793,None,None,None,245.05988469999284,None,,,,,,,,,,,,,,,,,,,,,12012,2,2,2024_Jun_18_1828,stroop_task_switching2_b,2021.2.3,59.995308359099404,
condition/block_mixed_b,instruction/instr_mixed,instruction/i10_b,红,blue,k,square,color_mix,单词,,incompatible,2,,,,,,,,0,2,2,2,0,0,0,0,0,5,5,5,,,,,,,,,,,,,,,,,,,,,,,,,,,,,,,,,,,246.06130320002558,246.2616801999975,246.24519330001203,246.54610019997926,246.54610019997926,None,247.04623899998842,None,j,0,0.4400601999950595,247.04623899998842,None,None,None,247.51363629999105,None,,,,,,,,,,,,,,,,,,,,,12012,2,2,2024_Jun_18_1828,stroop_task_switching2_b,2021.2.3,59.995308359099404,
condition/block_mixed_b,instruction/instr_mixed,instruction/i10_b,红,yellow,f,diamond,color_mix,颜色,,incompatible,2,,,,,,,,0,2,2,2,0,0,0,0,0,6,6,6,,,,,,,,,,,,,,,,,,,,,,,,,,,,,,,,,,,248.51516880001873,248.71601470001042,248.69912960001966,248.99951960000908,248.99951960000908,None,249.49989789997926,None,d,0,0.9298498000134714,249.49989789997926,None,None,None,250.4512231000117,None,,,,,,,,,,,,,,,,,,,,,12012,2,2,2024_Jun_18_1828,stroop_task_switching2_b,2021.2.3,59.995308359099404,
condition/block_mixed_b,instruction/instr_mixed,instruction/i10_b,红,yellow,k,square,color_mix,单词,,incompatible,2,,,,,,,,0,2,2,2,0,0,0,0,0,7,7,7,,,,,,,,,,,,,,,,,,,,,,,,,,,,,,,,,,,251.45327830000315,251.65311259997543,251.6380750000244,251.95344830001704,251.93790790002095,None,252.43765440001152,None,k,1,0.632473099976778,252.43765440001152,None,None,None,253.08862240001326,None,,,,,,,,,,,,,,,,,,,,,12012,2,2,2024_Jun_18_1828,stroop_task_switching2_b,2021.2.3,59.995308359099404,
condition/block_mixed_b,instruction/instr_mixed,instruction/i10_b,绿,blue,d,square,color_mix,单词,,incompatible,1,,,,,,,,0,2,2,2,0,0,0,0,0,8,8,8,,,,,,,,,,,,,,,,,,,,,,,,,,,,,,,,,,,254.09001819998957,254.29063190001762,254.27447200001916,254.57455010002013,254.57455010002013,None,255.07509980001487,None,d,1,0.8107065999647602,255.07509980001487,None,None,None,255.90941199997906,None,,,,,,,,,,,,,,,,,,,,,12012,2,2,2024_Jun_18_1828,stroop_task_switching2_b,2021.2.3,59.995308359099404,
condition/block_mixed_b,instruction/instr_mixed,instruction/i10_b,蓝,green,d,diamond,color_mix,颜色,,incompatible,2,,,,,,,,0,2,2,2,0,0,0,0,0,9,9,9,,,,,,,,,,,,,,,,,,,,,,,,,,,,,,,,,,,256.9109744000016,257.11133859999245,257.0950573000009,257.39510730002075,257.39510730002075,None,257.89580409997143,None,d,1,0.8464990999782458,257.89580409997143,None,None,None,258.7637311000144,None,,,,,,,,,,,,,,,,,,,,,12012,2,2,2024_Jun_18_1828,stroop_task_switching2_b,2021.2.3,59.995308359099404,
condition/block_mixed_b,instruction/instr_mixed,instruction/i10_b,蓝,yellow,j,square,color_mix,单词,,incompatible,2,,,,,,,,0,2,2,2,0,0,0,0,0,10,10,10,,,,,,,,,,,,,,,,,,,,,,,,,,,,,,,,,,,259.76534619997256,259.96664800000144,259.9487410999718,260.24981950002257,260.24981950002257,None,260.7502645999775,None,j,1,1.3196782000013627,260.7502645999775,None,None,None,262.08550009998726,None,,,,,,,,,,,,,,,,,,,,,12012,2,2,2024_Jun_18_1828,stroop_task_switching2_b,2021.2.3,59.995308359099404,
condition/block_mixed_b,instruction/instr_mixed,instruction/i10_b,蓝,green,j,square,color_mix,单词,,incompatible,1,,,,,,,,0,2,2,2,0,0,0,0,0,11,11,11,,,,,,,,,,,,,,,,,,,,,,,,,,,,,,,,,,,263.0884536000085,263.3056475999765,263.2705459999852,263.57204499997897,263.57204499997897,None,264.07182199996896,None,j,1,0.5987086000386626,264.07182199996896,None,None,None,264.68939010001486,None,,,,,,,,,,,,,,,,,,,,,12012,2,2,2024_Jun_18_1828,stroop_task_switching2_b,2021.2.3,59.995308359099404,
condition/block_mixed_b,instruction/instr_mixed,instruction/i10_b,绿,yellow,d,square,color_mix,单词,,incompatible,1,,,,,,,,0,2,2,2,0,0,0,0,0,12,12,12,,,,,,,,,,,,,,,,,,,,,,,,,,,,,,,,,,,265.6912962999777,265.8921008000034,265.8757939999923,266.1757803999935,266.1757803999935,None,266.67588459997205,None,d,1,0.722506100020837,266.67588459997205,None,None,None,267.42658009997103,None,,,,,,,,,,,,,,,,,,,,,12012,2,2,2024_Jun_18_1828,stroop_task_switching2_b,2021.2.3,59.995308359099404,
condition/block_mixed_b,instruction/instr_mixed,instruction/i10_b,绿,blue,j,diamond,color_mix,颜色,,incompatible,2,,,,,,,,0,2,2,2,0,0,0,0,0,13,13,13,,,,,,,,,,,,,,,,,,,,,,,,,,,,,,,,,,,268.4285294999718,268.62977780000074,268.61274219996994,268.91272909997497,268.91272909997497,None,269.4137875000015,None,j,1,0.6487305000191554,269.4137875000015,None,None,None,270.08084130001953,None,,,,,,,,,,,,,,,,,,,,,12012,2,2,2024_Jun_18_1828,stroop_task_switching2_b,2021.2.3,59.995308359099404,
condition/block_mixed_b,instruction/instr_mixed,instruction/i10_b,黄,red,f,square,color_mix,单词,,incompatible,2,,,,,,,,0,2,2,2,0,0,0,0,0,14,14,14,,,,,,,,,,,,,,,,,,,,,,,,,,,,,,,,,,,271.0825716999825,271.2841861000052,271.2664433000027,271.5674792000209,271.5674792000209,None,272.06714140000986,None,f,1,0.6750861000036821,272.06714140000986,None,None,None,272.7684347999748,None,,,,,,,,,,,,,,,,,,,,,12012,2,2,2024_Jun_18_1828,stroop_task_switching2_b,2021.2.3,59.995308359099404,
condition/block_mixed_b,instruction/instr_mixed,instruction/i10_b,蓝,yellow,f,diamond,color_mix,颜色,,incompatible,2,,,,,,,,0,2,2,2,0,0,0,0,0,15,15,15,,,,,,,,,,,,,,,,,,,,,,,,,,,,,,,,,,,273.77004600001965,273.9707019000198,273.95339649997186,274.2545537999831,274.2545537999831,None,274.75521159998607,None,f,1,0.9712441000156105,274.75521159998607,None,None,None,275.7558471999946,None,,,,,,,,,,,,,,,,,,,,,12012,2,2,2024_Jun_18_1828,stroop_task_switching2_b,2021.2.3,59.995308359099404,
condition/block_mixed_b,instruction/instr_mixed,instruction/i10_b,黄,red,k,diamond,color_mix,颜色,,incompatible,1,,,,,,,,0,2,2,2,0,0,0,0,0,16,16,16,,,,,,,,,,,,,,,,,,,,,,,,,,,,,,,,,,,276.7579905000166,276.95802389999153,276.94146719999844,277.2419106999878,277.2419106999878,None,277.74236430000747,None,k,1,0.6241906000068411,277.74236430000747,None,None,None,278.3934517999878,None,,,,,,,,,,,,,,,,,,,,,12012,2,2,2024_Jun_18_1828,stroop_task_switching2_b,2021.2.3,59.995308359099404,
condition/block_mixed_b,instruction/instr_mixed,instruction/i10_b,绿,red,d,square,color_mix,单词,,incompatible,2,,,,,,,,0,2,2,2,0,0,0,0,0,17,17,17,,,,,,,,,,,,,,,,,,,,,,,,,,,,,,,,,,,279.3959335000254,279.5958192999824,279.57838899997296,279.87894209998194,279.87894209998194,None,280.37967739999294,None,d,1,0.5388396000489593,280.37967739999294,None,None,None,280.94750200002454,None,,,,,,,,,,,,,,,,,,,,,12012,2,2,2024_Jun_18_1828,stroop_task_switching2_b,2021.2.3,59.995308359099404,
condition/block_mixed_b,instruction/instr_mixed,instruction/i10_b,红,green,k,square,color_mix,单词,,incompatible,1,,,,,,,,0,2,2,2,0,0,0,0,0,18,18,18,,,,,,,,,,,,,,,,,,,,,,,,,,,,,,,,,,,281.94949440000346,282.1490442000213,282.13260880002053,282.4344495999976,282.4344495999976,None,282.93351319996873,None,k,1,0.8249595999950543,282.93351319996873,None,None,None,283.7850159999798,None,,,,,,,,,,,,,,,,,,,,,12012,2,2,2024_Jun_18_1828,stroop_task_switching2_b,2021.2.3,59.995308359099404,
condition/block_mixed_b,instruction/instr_mixed,instruction/i10_b,黄,blue,j,diamond,color_mix,颜色,,incompatible,2,,,,,,,,0,2,2,2,0,0,0,0,0,19,19,19,,,,,,,,,,,,,,,,,,,,,,,,,,,,,,,,,,,284.7867049999768,284.98715310002444,284.9699260999914,285.27139269997133,285.27139269997133,None,285.7712619000231,None,j,1,0.8037256000097841,285.7712619000231,None,None,None,286.60575709998375,None,,,,,,,,,,,,,,,,,,,,,12012,2,2,2024_Jun_18_1828,stroop_task_switching2_b,2021.2.3,59.995308359099404,
condition/block_mixed_b,instruction/instr_mixed,instruction/i10_b,黄,green,d,diamond,color_mix,颜色,,incompatible,1,,,,,,,,0,2,2,2,0,0,0,0,0,20,20,20,,,,,,,,,,,,,,,,,,,,,,,,,,,,,,,,,,,287.6076510999701,287.8087792000151,287.79121080000186,288.09293689997867,288.09293689997867,None,288.59236670000246,None,d,1,0.6306232999777421,288.59236670000246,None,None,None,289.2431596000097,None,,,,,,,,,,,,,,,,,,,,,12012,2,2,2024_Jun_18_1828,stroop_task_switching2_b,2021.2.3,59.995308359099404,
condition/block_mixed_b,instruction/instr_mixed,instruction/i10_b,黄,green,f,square,color_mix,单词,,incompatible,2,,,,,,,,0,2,2,2,0,0,0,0,0,21,21,21,,,,,,,,,,,,,,,,,,,,,,,,,,,,,,,,,,,290.244774300023,290.44480910000857,290.42826409998816,290.7287573000067,290.7287573000067,None,291.22979770001257,None,f,1,0.8092697000247426,291.22979770001257,None,None,None,292.06461260002106,None,,,,,,,,,,,,,,,,,,,,,12012,2,2,2024_Jun_18_1828,stroop_task_switching2_b,2021.2.3,59.995308359099404,
condition/block_mixed_b,instruction/instr_mixed,instruction/i10_b,黄,blue,f,square,color_mix,单词,,incompatible,1,,,,,,,,0,2,2,2,0,0,0,0,0,22,22,22,,,,,,,,,,,,,,,,,,,,,,,,,,,,,,,,,,,293.0658184000058,293.26791950000916,293.249922899995,293.5507536000223,293.5507536000223,None,294.050311399973,None,f,1,0.612872600031551,294.050311399973,None,None,None,294.68472810002277,None,,,,,,,,,,,,,,,,,,,,,12012,2,2,2024_Jun_18_1828,stroop_task_switching2_b,2021.2.3,59.995308359099404,
condition/block_mixed_b,instruction/instr_mixed,instruction/i10_b,蓝,red,j,square,color_mix,单词,,incompatible,1,,,,,,,,0,2,2,2,0,0,0,0,0,23,23,23,,,,,,,,,,,,,,,,,,,,,,,,,,,,,,,,,,,295.6869071999681,295.887828100007,295.8701399000129,296.170862399973,296.170862399973,None,296.6709416999947,None,j,1,0.7845665999921039,296.6709416999947,None,None,None,297.47211640002206,None,,,,,,,,,,,,,,,,,,,,,12012,2,2,2024_Jun_18_1828,stroop_task_switching2_b,2021.2.3,59.995308359099404,
condition/block_mixed_b,instruction/instr_mixed,instruction/i10_b,绿,red,k,diamond,color_mix,颜色,,incompatible,2,,,,,,,,0,2,2,2,0,0,0,0,0,24,24,24,,,,,,,,,,,,,,,,,,,,,,,,,,,,,,,,,,,298.47362010000506,298.67468519997783,298.6570431999862,298.9587851000251,298.9587851000251,None,299.4586825000006,None,k,1,0.7325332000036724,299.4586825000006,None,None,None,300.20987820002483,None,,,,,,,,,,,,,,,,,,,,,12012,2,2,2024_Jun_18_1828,stroop_task_switching2_b,2021.2.3,59.995308359099404,
condition/block_mixed_b,instruction/instr_mixed,instruction/i10_b,绿,green,d,diamond,color_mix,颜色,,compatible,1,,,,,,,,0,2,2,2,0,0,0,0,0,25,25,25,,,,,,,,,,,,,,,,,,,,,,,,,,,,,,,,,,,301.2109637000249,301.412554599985,301.3946179000195,301.69592219998594,301.69592219998594,None,302.19613799999934,None,d,1,0.6276235999539495,302.19613799999934,None,None,None,302.8484280999983,None,,,,,,,,,,,,,,,,,,,,,12012,2,2,2024_Jun_18_1828,stroop_task_switching2_b,2021.2.3,59.995308359099404,
condition/block_mixed_b,instruction/instr_mixed,instruction/i10_b,蓝,blue,j,diamond,color_mix,颜色,,compatible,1,,,,,,,,0,2,2,2,0,0,0,0,0,26,26,26,,,,,,,,,,,,,,,,,,,,,,,,,,,,,,,,,,,303.8488175999955,304.0493636999745,304.033345200005,304.3323171000229,304.31750409997767,None,304.8168692999752,None,j,1,0.9347858999972232,304.8168692999752,None,None,None,305.7680112000089,None,,,,,,,,,,,,,,,,,,,,,12012,2,2,2024_Jun_18_1828,stroop_task_switching2_b,2021.2.3,59.995308359099404,
condition/block_mixed_b,instruction/instr_mixed,instruction/i10_b,绿,green,d,square,color_mix,单词,,compatible,2,,,,,,,,0,2,2,2,0,0,0,0,0,27,27,27,,,,,,,,,,,,,,,,,,,,,,,,,,,,,,,,,,,306.7699088000227,306.9697138000047,306.95335590001196,307.25343959999736,307.25343959999736,None,307.75445930002024,None,d,1,0.5969493000302464,307.75445930002024,None,None,None,308.37170840002364,None,,,,,,,,,,,,,,,,,,,,,12012,2,2,2024_Jun_18_1828,stroop_task_switching2_b,2021.2.3,59.995308359099404,
condition/block_mixed_b,instruction/instr_mixed,instruction/i10_b,绿,green,d,square,color_mix,单词,,compatible,1,,,,,,,,0,2,2,2,0,0,0,0,0,28,28,28,,,,,,,,,,,,,,,,,,,,,,,,,,,,,,,,,,,309.3734760999796,309.57534979999764,309.5569674000144,309.85816270002397,309.85816270002397,None,310.3597678000224,None,d,1,0.703649899980519,310.3597678000224,None,None,None,311.0928154999856,None,,,,,,,,,,,,,,,,,,,,,12012,2,2,2024_Jun_18_1828,stroop_task_switching2_b,2021.2.3,59.995308359099404,
condition/block_mixed_b,instruction/instr_mixed,instruction/i10_b,蓝,blue,j,square,color_mix,单词,,compatible,1,,,,,,,,0,2,2,2,0,0,0,0,0,29,29,29,,,,,,,,,,,,,,,,,,,,,,,,,,,,,,,,,,,312.0950574000017,312.29586170002585,312.27859850000823,312.57905529998243,312.57905529998243,None,313.0796334000188,None,j,1,0.5918457000516355,313.0796334000188,None,None,None,313.69690560002346,None,,,,,,,,,,,,,,,,,,,,,12012,2,2,2024_Jun_18_1828,stroop_task_switching2_b,2021.2.3,59.995308359099404,
condition/block_mixed_b,instruction/instr_mixed,instruction/i10_b,黄,yellow,f,diamond,color_mix,颜色,,compatible,2,,,,,,,,0,2,2,2,0,0,0,0,0,30,30,30,,,,,,,,,,,,,,,,,,,,,,,,,,,,,,,,,,,314.6980822000187,314.8996618000092,314.8817424000008,315.1829189999844,315.1829189999844,None,315.6830565999844,None,f,1,0.6764579999726266,315.6830565999844,None,None,None,316.38400849996833,None,,,,,,,,,,,,,,,,,,,,,12012,2,2,2024_Jun_18_1828,stroop_task_switching2_b,2021.2.3,59.995308359099404,
condition/block_mixed_b,instruction/instr_mixed,instruction/i10_b,绿,green,d,square,color_mix,单词,,compatible,2,,,,,,,,0,2,2,2,0,0,0,0,0,31,31,31,,,,,,,,,,,,,,,,,,,,,,,,,,,,,,,,,,,317.3854684999678,317.58581680001225,317.57067899999674,317.8712660999736,317.8712660999736,None,318.37033319997136,None,d,1,0.5975416000001132,318.37033319997136,None,None,None,318.987988399982,None,,,,,,,,,,,,,,,,,,,,,12012,2,2,2024_Jun_18_1828,stroop_task_switching2_b,2021.2.3,59.995308359099404,
condition/block_mixed_b,instruction/instr_mixed,instruction/i10_b,黄,yellow,f,square,color_mix,单词,,compatible,1,,,,,,,,0,2,2,2,0,0,0,0,0,32,32,32,,,,,,,,,,,,,,,,,,,,,,,,,,,,,,,,,,,319.98941739997827,320.19031819998054,320.1730187999783,320.47456419997616,320.47456419997616,None,320.97454530000687,None,f,1,0.5209839000017382,320.97454530000687,None,None,None,321.52535840001656,None,,,,,,,,,,,,,,,,,,,,,12012,2,2,2024_Jun_18_1828,stroop_task_switching2_b,2021.2.3,59.995308359099404,
condition/block_mixed_b,instruction/instr_mixed,instruction/i10_b,绿,green,d,diamond,color_mix,颜色,,compatible,2,,,,,,,,0,2,2,2,0,0,0,0,0,33,33,33,,,,,,,,,,,,,,,,,,,,,,,,,,,,,,,,,,,322.52699460001895,322.72798329999205,322.71029339998495,323.0107967000222,323.0107967000222,None,323.51140529999975,None,d,1,0.5205526999779977,323.51140529999975,None,None,None,324.0623859000043,None,,,,,,,,,,,,,,,,,,,,,12012,2,2,2024_Jun_18_1828,stroop_task_switching2_b,2021.2.3,59.995308359099404,
condition/block_mixed_b,instruction/instr_mixed,instruction/i10_b,红,red,k,square,color_mix,单词,,compatible,2,,,,,,,,0,2,2,2,0,0,0,0,0,34,34,34,,,,,,,,,,,,,,,,,,,,,,,,,,,,,,,,,,,325.0641990000149,325.2646133999806,325.24727940000594,325.5491937000188,325.5491937000188,None,326.0486586000188,None,k,1,0.5514243000070564,326.0486586000188,None,None,None,326.6164111000253,None,,,,,,,,,,,,,,,,,,,,,12012,2,2,2024_Jun_18_1828,stroop_task_switching2_b,2021.2.3,59.995308359099404,
condition/block_mixed_b,instruction/instr_mixed,instruction/i10_b,黄,yellow,f,square,color_mix,单词,,compatible,1,,,,,,,,0,2,2,2,0,0,0,0,0,35,35,35,,,,,,,,,,,,,,,,,,,,,,,,,,,,,,,,,,,327.6178417999763,327.8187663999852,327.8021352000069,328.1023411999922,328.1023411999922,None,328.6031989000039,None,f,1,0.5170549000031315,328.6031989000039,None,None,None,329.13652349996846,None,,,,,,,,,,,,,,,,,,,,,12012,2,2,2024_Jun_18_1828,stroop_task_switching2_b,2021.2.3,59.995308359099404,
condition/block_mixed_b,instruction/instr_mixed,instruction/i10_b,绿,green,d,diamond,color_mix,颜色,,compatible,2,,,,,,,,0,2,2,2,0,0,0,0,0,36,36,36,,,,,,,,,,,,,,,,,,,,,,,,,,,,,,,,,,,330.13805289997254,330.3385214000009,330.3230343000032,330.6223601999809,330.6223601999809,None,331.122792500013,None,d,1,0.517383600003086,331.122792500013,None,None,None,331.6571489999769,None,,,,,,,,,,,,,,,,,,,,,12012,2,2,2024_Jun_18_1828,stroop_task_switching2_b,2021.2.3,59.995308359099404,
condition/block_mixed_b,instruction/instr_mixed,instruction/i10_b,蓝,blue,j,square,color_mix,单词,,compatible,2,,,,,,,,0,2,2,2,0,0,0,0,0,37,37,37,,,,,,,,,,,,,,,,,,,,,,,,,,,,,,,,,,,332.65862549998565,332.859260600002,332.8421449000016,333.14333140000235,333.14333140000235,None,333.6435530000017,None,j,1,0.7087028999812901,333.6435530000017,None,None,None,334.3780229999684,None,,,,,,,,,,,,,,,,,,,,,12012,2,2,2024_Jun_18_1828,stroop_task_switching2_b,2021.2.3,59.995308359099404,
condition/block_mixed_b,instruction/instr_mixed,instruction/i10_b,红,red,k,square,color_mix,单词,,compatible,1,,,,,,,,0,2,2,2,0,0,0,0,0,38,38,38,,,,,,,,,,,,,,,,,,,,,,,,,,,,,,,,,,,335.3792607000214,335.57954710000195,335.56293429998914,335.86496520001674,335.86496520001674,None,336.36426529998425,None,k,1,0.4919262999901548,336.36426529998425,None,None,None,336.88159349997295,None,,,,,,,,,,,,,,,,,,,,,12012,2,2,2024_Jun_18_1828,stroop_task_switching2_b,2021.2.3,59.995308359099404,
condition/block_mixed_b,instruction/instr_mixed,instruction/i10_b,黄,yellow,f,diamond,color_mix,颜色,,compatible,2,,,,,,,,0,2,2,2,0,0,0,0,0,39,39,39,,,,,,,,,,,,,,,,,,,,,,,,,,,,,,,,,,,337.8830280000111,338.08334569999715,338.0683236999903,338.3845346000162,338.3678843000089,None,338.8677607999998,None,f,1,0.5883138999924995,338.8677607999998,None,None,None,339.4854986999999,None,,,,,,,,,,,,,,,,,,,,,12012,2,2,2024_Jun_18_1828,stroop_task_switching2_b,2021.2.3,59.995308359099404,
condition/block_mixed_b,instruction/instr_mixed,instruction/i10_b,黄,yellow,f,square,color_mix,单词,,compatible,2,,,,,,,,0,2,2,2,0,0,0,0,0,40,40,40,,,,,,,,,,,,,,,,,,,,,,,,,,,,,,,,,,,340.48702140001114,340.6890084000188,340.6704541000072,340.9717572000227,340.9717572000227,None,341.4722181999823,None,f,1,0.5841305999783799,341.4722181999823,None,None,None,342.0727686000173,None,,,,,,,,,,,,,,,,,,,,,12012,2,2,2024_Jun_18_1828,stroop_task_switching2_b,2021.2.3,59.995308359099404,
condition/block_mixed_b,instruction/instr_mixed,instruction/i10_b,蓝,blue,j,square,color_mix,单词,,compatible,1,,,,,,,,0,2,2,2,0,0,0,0,0,41,41,41,,,,,,,,,,,,,,,,,,,,,,,,,,,,,,,,,,,343.0746490000165,343.27632289996836,343.2578541000257,343.55865620000986,343.55865620000986,None,344.0597856999957,None,j,1,0.4844448000076227,344.0597856999957,None,None,None,344.55980649997946,None,,,,,,,,,,,,,,,,,,,,,12012,2,2,2024_Jun_18_1828,stroop_task_switching2_b,2021.2.3,59.995308359099404,
condition/block_mixed_b,instruction/instr_mixed,instruction/i10_b,蓝,blue,j,diamond,color_mix,颜色,,compatible,2,,,,,,,,0,2,2,2,0,0,0,0,0,42,42,42,,,,,,,,,,,,,,,,,,,,,,,,,,,,,,,,,,,345.56150040001376,345.76177560002543,345.74708920001285,346.0626751999953,346.0455272999825,None,346.5460237999796,None,j,1,0.5986448000185192,346.5460237999796,None,None,None,347.16372060001595,None,,,,,,,,,,,,,,,,,,,,,12012,2,2,2024_Jun_18_1828,stroop_task_switching2_b,2021.2.3,59.995308359099404,
condition/block_mixed_b,instruction/instr_mixed,instruction/i10_b,黄,yellow,f,diamond,color_mix,颜色,,compatible,1,,,,,,,,0,2,2,2,0,0,0,0,0,43,43,43,,,,,,,,,,,,,,,,,,,,,,,,,,,,,,,,,,,348.16509000002407,348.36815320001915,348.3495485999738,348.64999539998826,348.64999539998826,None,349.1499365000054,None,f,1,0.5945286999922246,349.1499365000054,None,None,None,349.76778549997834,None,,,,,,,,,,,,,,,,,,,,,12012,2,2,2024_Jun_18_1828,stroop_task_switching2_b,2021.2.3,59.995308359099404,
condition/block_mixed_b,instruction/instr_mixed,instruction/i10_b,红,red,k,diamond,color_mix,颜色,,compatible,1,,,,,,,,0,2,2,2,0,0,0,0,0,44,44,44,,,,,,,,,,,,,,,,,,,,,,,,,,,,,,,,,,,350.76922349998495,350.9699695999734,350.9526621000259,351.2540935999714,351.2540935999714,None,351.7551313000149,None,k,1,0.6379228999721818,351.7551313000149,None,None,None,352.42178199999034,None,,,,,,,,,,,,,,,,,,,,,12012,2,2,2024_Jun_18_1828,stroop_task_switching2_b,2021.2.3,59.995308359099404,
condition/block_mixed_b,instruction/instr_mixed,instruction/i10_b,蓝,blue,j,diamond,color_mix,颜色,,compatible,1,,,,,,,,0,2,2,2,0,0,0,0,0,45,45,45,,,,,,,,,,,,,,,,,,,,,,,,,,,,,,,,,,,353.42320840002503,353.62441960000433,353.607102399983,353.90840189997107,353.90840189997107,None,354.4081300999969,None,j,1,0.44973960000788793,354.4081300999969,None,None,None,354.8753191999858,None,,,,,,,,,,,,,,,,,,,,,12012,2,2,2024_Jun_18_1828,stroop_task_switching2_b,2021.2.3,59.995308359099404,
condition/block_mixed_b,instruction/instr_mixed,instruction/i10_b,红,red,k,diamond,color_mix,颜色,,compatible,1,,,,,,,,0,2,2,2,0,0,0,0,0,46,46,46,,,,,,,,,,,,,,,,,,,,,,,,,,,,,,,,,,,355.876851900015,356.0784552000114,356.06057420000434,356.36169360001804,356.36169360001804,None,356.8619019999751,None,k,1,0.44352720002643764,356.8619019999751,None,None,None,357.32915250002407,None,,,,,,,,,,,,,,,,,,,,,12012,2,2,2024_Jun_18_1828,stroop_task_switching2_b,2021.2.3,59.995308359099404,
condition/block_mixed_b,instruction/instr_mixed,instruction/i10_b,红,red,k,square,color_mix,单词,,compatible,2,,,,,,,,0,2,2,2,0,0,0,0,0,47,47,47,,,,,,,,,,,,,,,,,,,,,,,,,,,,,,,,,,,358.33072430000175,358.5312106999918,358.5146708000102,358.8157051000162,358.8157051000162,None,359.31553369999165,None,k,1,0.5253108000033535,359.31553369999165,None,None,None,359.86690839997027,None,,,,,,,,,,,,,,,,,,,,,12012,2,2,2024_Jun_18_1828,stroop_task_switching2_b,2021.2.3,59.995308359099404,
condition/block_mixed_b,instruction/instr_mixed,instruction/i10_b,红,red,k,diamond,color_mix,颜色,,compatible,2,,,,,,,,0,2,2,2,0,0,0,0,0,48,48,48,,,,,,,,,,,,,,,,,,,,,,,,,,,,,,,,,,,360.868045900017,361.0700718999724,361.05156950000674,361.35322470002575,361.35322470002575,None,361.8533151000156,None,k,1,0.4195678000105545,361.8533151000156,None,None,None,362.3032463999698,None,,,,,,,,,,,,,,,,,,,,,12012,2,2,2024_Jun_18_1828,stroop_task_switching2_b,2021.2.3,59.995308359099404,
condition/block_mixed_b,instruction/instr_mixed,instruction/i10_b,,,,,,,,,,,,,,,,,0,2,2,2,0,0,0,0,,,,,,,,,,,,,,,,,,,,,,,,,,,,,,,,,,,,,,,,,,,,,,,,,,,,,,,,363.3045335999923,None,space,3.0652846000157297,363.3045335999923,None,,,,,,,,,,,,,,,12012,2,2,2024_Jun_18_1828,stroop_task_switching2_b,2021.2.3,59.995308359099404,
condition/block_mixed_b,instruction/instr_mixed,instruction/i10_b,,,,,,,,,,,,,,,,,0,2,2,2,,,,,,,,,,,,,,,,,,,,,,,,,,,,,,,,,,,,,,,,,,,,,,,,,,,,,,,,,,,,,,,,,,,,,,,,,,,,,,,,12012,2,2,2024_Jun_18_1828,stroop_task_switching2_b,2021.2.3,59.995308359099404,
,,,红,red,k,square,color_mix,单词,,compatible,0,block_switch1_b,instruction/ready_test.png,instruction/i11.png,,,,,,,,,,,,,,,,,0,0,0,0,0,0,0,0,,,,,,,,,,,,,,,,,,,391.0964341000072,392.09885629999917,392.09885629999917,393.1008368000039,393.1008368000039,None,390.111939000024,391.11351270001614,394.1356243999908,394.3349421999883,394.3189323999686,394.61987599998247,394.61987599998247,None,395.1195545999799,None,k,1,0.6986548000131734,395.1195545999799,None,None,None,,,,,,,,,366.4261411000043,None,space,23.65542299998924,366.4261411000043,None,,,,,,,,,12012,2,2,2024_Jun_18_1828,stroop_task_switching2_b,2021.2.3,59.995308359099404,
,,,绿,green,d,diamond,color_mix,颜色,,compatible,2,block_switch1_b,instruction/ready_test.png,instruction/i11.png,,,,,,,,,,,,,,,,,0,0,0,0,0,1,1,1,,,,,,,,,,,,,,,,,,,,,,,,,,,395.8704262999818,396.072976299969,396.021598500025,396.3219463999849,396.3219463999849,None,396.8221385999932,None,d,1,0.5876873999950476,396.8221385999932,None,None,None,,,,,,,,,,,,,,,,,,,,,,,12012,2,2,2024_Jun_18_1828,stroop_task_switching2_b,2021.2.3,59.995308359099404,
,,,绿,yellow,f,diamond,color_mix,颜色,,incompatible,1,block_switch1_b,instruction/ready_test.png,instruction/i11.png,,,,,,,,,,,,,,,,,0,0,0,0,0,2,2,2,,,,,,,,,,,,,,,,,,,,,,,,,,,397.45703450002475,397.65812510001706,397.6231696999748,397.92480209999485,397.92480209999485,None,398.4241877999739,None,d,0,0.5141712999902666,398.4241877999739,None,None,None,,,,,,,,,,,,,,,,,,,,,,,12012,2,2,2024_Jun_18_1828,stroop_task_switching2_b,2021.2.3,59.995308359099404,
,,,蓝,blue,j,diamond,color_mix,颜色,,compatible,1,block_switch1_b,instruction/ready_test.png,instruction/i11.png,,,,,,,,,,,,,,,,,0,0,0,0,0,3,3,3,,,,,,,,,,,,,,,,,,,,,,,,,,,398.95875709998654,399.15938919998007,399.14223409997066,399.44251219998114,399.44251219998114,None,399.94367000000784,None,j,1,0.9302875000284985,399.94367000000784,None,None,None,,,,,,,,,,,,,,,,,,,,,,,12012,2,2,2024_Jun_18_1828,stroop_task_switching2_b,2021.2.3,59.995308359099404,
,,,绿,green,d,square,color_mix,单词,,compatible,2,block_switch1_b,instruction/ready_test.png,instruction/i11.png,,,,,,,,,,,,,,,,,0,0,0,0,0,4,4,4,,,,,,,,,,,,,,,,,,,,,,,,,,,400.8947625000146,401.09650400001556,401.0783536999952,401.37941220001085,401.37941220001085,None,401.880346400023,None,d,1,0.6977250000345521,401.880346400023,None,None,None,,,,,,,,,,,,,,,,,,,,,,,12012,2,2,2024_Jun_18_1828,stroop_task_switching2_b,2021.2.3,59.995308359099404,
,,,绿,blue,j,diamond,color_mix,颜色,,incompatible,2,block_switch1_b,instruction/ready_test.png,instruction/i11.png,,,,,,,,,,,,,,,,,0,0,0,0,0,5,5,5,,,,,,,,,,,,,,,,,,,,,,,,,,,402.59784220001893,402.79849790001754,402.78104059997713,403.0815548999817,403.0815548999817,None,403.58248029998504,None,j,1,0.7798460999620147,403.58248029998504,None,None,None,,,,,,,,,,,,,,,,,,,,,,,12012,2,2,2024_Jun_18_1828,stroop_task_switching2_b,2021.2.3,59.995308359099404,
,,,黄,red,f,square,color_mix,单词,,incompatible,2,block_switch1_b,instruction/ready_test.png,instruction/i11.png,,,,,,,,,,,,,,,,,0,0,0,0,0,6,6,6,,,,,,,,,,,,,,,,,,,,,,,,,,,404.3835966999759,404.5840251999907,404.56692489999114,404.86852909997106,404.86852909997106,None,405.3682524000178,None,f,1,0.7538469000137411,405.3682524000178,None,None,None,,,,,,,,,,,,,,,,,,,,,,,12012,2,2,2024_Jun_18_1828,stroop_task_switching2_b,2021.2.3,59.995308359099404,
,,,绿,green,d,square,color_mix,单词,,compatible,1,block_switch1_b,instruction/ready_test.png,instruction/i11.png,,,,,,,,,,,,,,,,,0,0,0,0,0,7,7,7,,,,,,,,,,,,,,,,,,,,,,,,,,,406.1695521000074,406.3696426000097,406.33671150001464,406.6371169000049,406.6371169000049,None,407.13763790001394,None,d,1,0.5203744000173174,407.13763790001394,None,None,None,,,,,,,,,,,,,,,,,,,,,,,12012,2,2,2024_Jun_18_1828,stroop_task_switching2_b,2021.2.3,59.995308359099404,
,,,蓝,blue,j,square,color_mix,单词,,compatible,1,block_switch1_b,instruction/ready_test.png,instruction/i11.png,,,,,,,,,,,,,,,,,0,0,0,0,0,8,8,8,,,,,,,,,,,,,,,,,,,,,,,,,,,407.68789519998245,407.88860110001406,407.8725725999684,408.1722372000222,408.1722372000222,None,408.6733717999887,None,j,1,0.7047607999993488,408.6733717999887,None,None,None,,,,,,,,,,,,,,,,,,,,,,,12012,2,2,2024_Jun_18_1828,stroop_task_switching2_b,2021.2.3,59.995308359099404,
,,,红,red,k,diamond,color_mix,颜色,,compatible,2,block_switch1_b,instruction/ready_test.png,instruction/i11.png,,,,,,,,,,,,,,,,,0,0,0,0,0,9,9,9,,,,,,,,,,,,,,,,,,,,,,,,,,,409.424691000022,409.62459989998024,409.59136550000403,409.89254899998195,409.89254899998195,None,410.39349390001735,None,k,1,0.7447462000418454,410.39349390001735,None,None,None,,,,,,,,,,,,,,,,,,,,,,,12012,2,2,2024_Jun_18_1828,stroop_task_switching2_b,2021.2.3,59.995308359099404,
,,,黄,yellow,f,diamond,color_mix,颜色,,compatible,1,block_switch1_b,instruction/ready_test.png,instruction/i11.png,,,,,,,,,,,,,,,,,0,0,0,0,0,10,10,10,,,,,,,,,,,,,,,,,,,,,,,,,,,411.1603090999997,411.361766099988,411.3444740999839,411.64445610000985,411.64445610000985,None,412.1451335999882,None,f,1,0.6011693999753334,412.1451335999882,None,None,None,,,,,,,,,,,,,,,,,,,,,,,12012,2,2,2024_Jun_18_1828,stroop_task_switching2_b,2021.2.3,59.995308359099404,
,,,绿,green,d,square,color_mix,单词,,compatible,2,block_switch1_b,instruction/ready_test.png,instruction/i11.png,,,,,,,,,,,,,,,,,0,0,0,0,0,11,11,11,,,,,,,,,,,,,,,,,,,,,,,,,,,412.7625879999832,412.96434659999795,412.9462570999749,413.2479238000233,413.2479238000233,None,413.74781829997664,None,d,1,0.5344683000002988,413.74781829997664,None,None,None,,,,,,,,,,,,,,,,,,,,,,,12012,2,2,2024_Jun_18_1828,stroop_task_switching2_b,2021.2.3,59.995308359099404,
,,,红,red,k,diamond,color_mix,颜色,,compatible,2,block_switch1_b,instruction/ready_test.png,instruction/i11.png,,,,,,,,,,,,,,,,,0,0,0,0,0,12,12,12,,,,,,,,,,,,,,,,,,,,,,,,,,,414.2984037999995,414.4987115000258,414.48200540000107,414.7838875000016,414.7838875000016,None,415.2833548000199,None,k,1,0.5267348000197671,415.2833548000199,None,None,None,,,,,,,,,,,,,,,,,,,,,,,12012,2,2,2024_Jun_18_1828,stroop_task_switching2_b,2021.2.3,59.995308359099404,
,,,红,red,k,diamond,color_mix,颜色,,compatible,1,block_switch1_b,instruction/ready_test.png,instruction/i11.png,,,,,,,,,,,,,,,,,0,0,0,0,0,13,13,13,,,,,,,,,,,,,,,,,,,,,,,,,,,415.83417310001096,416.0343890999793,416.017959800025,416.31809660000727,416.31809660000727,None,416.81896519998554,None,k,1,0.45545840001432225,416.81896519998554,None,None,None,,,,,,,,,,,,,,,,,,,,,,,12012,2,2,2024_Jun_18_1828,stroop_task_switching2_b,2021.2.3,59.995308359099404,
,,,黄,yellow,f,square,color_mix,单词,,compatible,2,block_switch1_b,instruction/ready_test.png,instruction/i11.png,,,,,,,,,,,,,,,,,0,0,0,0,0,14,14,14,,,,,,,,,,,,,,,,,,,,,,,,,,,417.30301859998144,417.5047221999848,417.48688939999556,417.7875533999759,417.7875533999759,None,418.28843419998884,None,f,1,0.5309447000036016,418.28843419998884,None,None,None,,,,,,,,,,,,,,,,,,,,,,,12012,2,2,2024_Jun_18_1828,stroop_task_switching2_b,2021.2.3,59.995308359099404,
,,,红,green,d,diamond,color_mix,颜色,,incompatible,2,block_switch1_b,instruction/ready_test.png,instruction/i11.png,,,,,,,,,,,,,,,,,0,0,0,0,0,15,15,15,,,,,,,,,,,,,,,,,,,,,,,,,,,418.83839679998346,419.0388911999762,419.0223877999815,419.32373170001665,419.32373170001665,None,419.82423389999894,None,d,1,0.8994558000122197,419.82423389999894,None,None,None,,,,,,,,,,,,,,,,,,,,,,,12012,2,2,2024_Jun_18_1828,stroop_task_switching2_b,2021.2.3,59.995308359099404,
,,,蓝,red,k,diamond,color_mix,颜色,,incompatible,1,block_switch1_b,instruction/ready_test.png,instruction/i11.png,,,,,,,,,,,,,,,,,0,0,0,0,0,16,16,16,,,,,,,,,,,,,,,,,,,,,,,,,,,420.7414255000185,420.94183409999823,420.92535089998273,421.2271323999739,421.2271323999739,None,421.7262232999783,None,k,1,0.996421099989675,421.7262232999783,None,None,None,,,,,,,,,,,,,,,,,,,,,,,12012,2,2,2024_Jun_18_1828,stroop_task_switching2_b,2021.2.3,59.995308359099404,
,,,黄,green,d,diamond,color_mix,颜色,,incompatible,1,block_switch1_b,instruction/ready_test.png,instruction/i11.png,,,,,,,,,,,,,,,,,0,0,0,0,0,17,17,17,,,,,,,,,,,,,,,,,,,,,,,,,,,422.74475080001866,422.94504720001714,422.9288570000208,423.2286840999732,423.2286840999732,None,423.7292559000198,None,d,1,1.0653650999884121,423.7292559000198,None,None,None,,,,,,,,,,,,,,,,,,,,,,,12012,2,2,2024_Jun_18_1828,stroop_task_switching2_b,2021.2.3,59.995308359099404,
,,,绿,green,d,diamond,color_mix,颜色,,compatible,1,block_switch1_b,instruction/ready_test.png,instruction/i11.png,,,,,,,,,,,,,,,,,0,0,0,0,0,18,18,18,,,,,,,,,,,,,,,,,,,,,,,,,,,424.8143337999936,425.0158215999836,424.99788789998274,425.3005250999704,425.3005250999704,None,425.79915580002125,None,d,1,0.8273213000502437,425.79915580002125,None,None,None,,,,,,,,,,,,,,,,,,,,,,,12012,2,2,2024_Jun_18_1828,stroop_task_switching2_b,2021.2.3,59.995308359099404,
,,,黄,red,k,diamond,color_mix,颜色,,incompatible,1,block_switch1_b,instruction/ready_test.png,instruction/i11.png,,,,,,,,,,,,,,,,,0,0,0,0,0,19,19,19,,,,,,,,,,,,,,,,,,,,,,,,,,,426.6507044999744,426.8510062000132,426.8347201999859,427.1367945999955,427.1367945999955,None,427.65192679996835,None,k,1,1.1107756000128575,427.65192679996835,None,None,None,,,,,,,,,,,,,,,,,,,,,,,12012,2,2,2024_Jun_18_1828,stroop_task_switching2_b,2021.2.3,59.995308359099404,
,,,绿,yellow,d,square,color_mix,单词,,incompatible,2,block_switch1_b,instruction/ready_test.png,instruction/i11.png,,,,,,,,,,,,,,,,,0,0,0,0,0,20,20,20,,,,,,,,,,,,,,,,,,,,,,,,,,,428.7869097000221,428.9878961999784,428.9704523999826,429.2717501000152,429.2717501000152,None,429.7725765000214,None,f,0,0.9983725000056438,429.7725765000214,None,None,None,,,,,,,,,,,,,,,,,,,,,,,12012,2,2,2024_Jun_18_1828,stroop_task_switching2_b,2021.2.3,59.995308359099404,
,,,绿,yellow,f,diamond,color_mix,颜色,,incompatible,2,block_switch1_b,instruction/ready_test.png,instruction/i11.png,,,,,,,,,,,,,,,,,0,0,0,0,0,21,21,21,,,,,,,,,,,,,,,,,,,,,,,,,,,430.78995599999325,430.99069609999424,430.97356479999144,431.2742020000005,431.2742020000005,None,431.774785400019,None,f,1,0.6198668000288308,431.774785400019,None,None,None,,,,,,,,,,,,,,,,,,,,,,,12012,2,2,2024_Jun_18_1828,stroop_task_switching2_b,2021.2.3,59.995308359099404,
,,,绿,green,d,square,color_mix,单词,,compatible,2,block_switch1_b,instruction/ready_test.png,instruction/i11.png,,,,,,,,,,,,,,,,,0,0,0,0,0,22,22,22,,,,,,,,,,,,,,,,,,,,,,,,,,,432.4256974000018,432.62762799998745,432.60941679996904,432.91051060002064,432.91051060002064,None,433.4113983999705,None,d,1,0.6404592000180855,433.4113983999705,None,None,None,,,,,,,,,,,,,,,,,,,,,,,12012,2,2,2024_Jun_18_1828,stroop_task_switching2_b,2021.2.3,59.995308359099404,
,,,红,red,k,square,color_mix,单词,,compatible,1,block_switch1_b,instruction/ready_test.png,instruction/i11.png,,,,,,,,,,,,,,,,,0,0,0,0,0,23,23,23,,,,,,,,,,,,,,,,,,,,,,,,,,,434.0781091999961,434.278446900018,434.2617174999905,434.56302100000903,434.56302100000903,None,435.06297640001867,None,k,1,0.7959434000076726,435.06297640001867,None,None,None,,,,,,,,,,,,,,,,,,,,,,,12012,2,2,2024_Jun_18_1828,stroop_task_switching2_b,2021.2.3,59.995308359099404,
,,,黄,green,f,square,color_mix,单词,,incompatible,1,block_switch1_b,instruction/ready_test.png,instruction/i11.png,,,,,,,,,,,,,,,,,0,0,0,0,0,24,24,24,,,,,,,,,,,,,,,,,,,,,,,,,,,435.8807438000222,436.0811712999712,436.06549070001347,436.3653450999991,436.3653450999991,None,436.86568789999,None,f,1,0.7858450000057928,436.86568789999,None,None,None,,,,,,,,,,,,,,,,,,,,,,,12012,2,2,2024_Jun_18_1828,stroop_task_switching2_b,2021.2.3,59.995308359099404,
,,,红,blue,k,square,color_mix,单词,,incompatible,1,block_switch1_b,instruction/ready_test.png,instruction/i11.png,,,,,,,,,,,,,,,,,0,0,0,0,0,25,25,25,,,,,,,,,,,,,,,,,,,,,,,,,,,437.6669976999983,437.8680296000093,437.8523196000024,438.1685645999969,438.1509579999838,None,438.6532253000187,None,k,1,0.8937657999922521,438.6532253000187,None,None,None,,,,,,,,,,,,,,,,,,,,,,,12012,2,2,2024_Jun_18_1828,stroop_task_switching2_b,2021.2.3,59.995308359099404,
,,,黄,yellow,f,square,color_mix,单词,,compatible,1,block_switch1_b,instruction/ready_test.png,instruction/i11.png,,,,,,,,,,,,,,,,,0,0,0,0,0,26,26,26,,,,,,,,,,,,,,,,,,,,,,,,,,,439.56992609996814,439.77099709998583,439.7534338000114,440.05393059999915,440.05393059999915,None,440.5546797999996,None,f,1,0.7686449999455363,440.5546797999996,None,None,None,,,,,,,,,,,,,,,,,,,,,,,12012,2,2,2024_Jun_18_1828,stroop_task_switching2_b,2021.2.3,59.995308359099404,
,,,蓝,green,j,square,color_mix,单词,,incompatible,1,block_switch1_b,instruction/ready_test.png,instruction/i11.png,,,,,,,,,,,,,,,,,0,0,0,0,0,27,27,27,,,,,,,,,,,,,,,,,,,,,,,,,,,441.3392437999719,441.5410583000048,441.5242124000215,441.84002960001817,441.82334589998936,None,442.32428770000115,None,j,1,0.4709736999939196,442.32428770000115,None,None,None,,,,,,,,,,,,,,,,,,,,,,,12012,2,2,2024_Jun_18_1828,stroop_task_switching2_b,2021.2.3,59.995308359099404,
,,,绿,green,d,diamond,color_mix,颜色,,compatible,2,block_switch1_b,instruction/ready_test.png,instruction/i11.png,,,,,,,,,,,,,,,,,0,0,0,0,0,28,28,28,,,,,,,,,,,,,,,,,,,,,,,,,,,442.82453869999154,443.0249419999891,443.0091750000138,443.3096676999703,443.3096676999703,None,443.80928180000046,None,d,1,0.5540918000042439,443.80928180000046,None,None,None,,,,,,,,,,,,,,,,,,,,,,,12012,2,2,2024_Jun_18_1828,stroop_task_switching2_b,2021.2.3,59.995308359099404,
,,,黄,blue,j,diamond,color_mix,颜色,,incompatible,1,block_switch1_b,instruction/ready_test.png,instruction/i11.png,,,,,,,,,,,,,,,,,0,0,0,0,0,29,29,29,,,,,,,,,,,,,,,,,,,,,,,,,,,444.3936328999698,444.5955048999749,444.57737559999805,444.8776388000115,444.8776388000115,None,445.3799188999692,None,j,1,0.7591667000087909,445.3799188999692,None,None,None,,,,,,,,,,,,,,,,,,,,,,,12012,2,2,2024_Jun_18_1828,stroop_task_switching2_b,2021.2.3,59.995308359099404,
,,,绿,green,d,diamond,color_mix,颜色,,compatible,1,block_switch1_b,instruction/ready_test.png,instruction/i11.png,,,,,,,,,,,,,,,,,0,0,0,0,0,30,30,30,,,,,,,,,,,,,,,,,,,,,,,,,,,446.1630240000086,446.364215300011,446.34785070002545,446.6473680000054,446.6473680000054,None,447.1479343000101,None,d,1,0.6233363000210375,447.1479343000101,None,None,None,,,,,,,,,,,,,,,,,,,,,,,12012,2,2,2024_Jun_18_1828,stroop_task_switching2_b,2021.2.3,59.995308359099404,
,,,蓝,blue,j,square,color_mix,单词,,compatible,2,block_switch1_b,instruction/ready_test.png,instruction/i11.png,,,,,,,,,,,,,,,,,0,0,0,0,0,31,31,31,,,,,,,,,,,,,,,,,,,,,,,,,,,447.7987923999899,448.00029509997694,447.98256039997796,448.28350229997886,448.28350229997886,None,448.78385319997324,None,j,1,1.4595007000025362,448.78385319997324,None,None,None,,,,,,,,,,,,,,,,,,,,,,,12012,2,2,2024_Jun_18_1828,stroop_task_switching2_b,2021.2.3,59.995308359099404,
,,,红,red,k,square,color_mix,单词,,compatible,1,block_switch1_b,instruction/ready_test.png,instruction/i11.png,,,,,,,,,,,,,,,,,0,0,0,0,0,32,32,32,,,,,,,,,,,,,,,,,,,,,,,,,,,450.2691582000116,450.46964450000087,450.45309229998384,450.75326969998423,450.75326969998423,None,451.25421350001125,None,k,1,0.6299449000507593,451.25421350001125,None,None,None,,,,,,,,,,,,,,,,,,,,,,,12012,2,2,2024_Jun_18_1828,stroop_task_switching2_b,2021.2.3,59.995308359099404,
,,,红,green,k,square,color_mix,单词,,incompatible,1,block_switch1_b,instruction/ready_test.png,instruction/i11.png,,,,,,,,,,,,,,,,,0,0,0,0,0,33,33,33,,,,,,,,,,,,,,,,,,,,,,,,,,,451.90496919996804,452.1062426000135,452.0889146999689,452.39050969999516,452.39050969999516,None,452.89066129998537,None,k,1,0.6246202000183985,452.89066129998537,None,None,None,,,,,,,,,,,,,,,,,,,,,,,12012,2,2,2024_Jun_18_1828,stroop_task_switching2_b,2021.2.3,59.995308359099404,
,,,黄,yellow,f,diamond,color_mix,颜色,,compatible,2,block_switch1_b,instruction/ready_test.png,instruction/i11.png,,,,,,,,,,,,,,,,,0,0,0,0,0,34,34,34,,,,,,,,,,,,,,,,,,,,,,,,,,,453.5411632999894,453.74189920001663,453.7252299999818,454.025971999974,454.025971999974,None,454.5259834000026,None,f,1,0.541481800028123,454.5259834000026,None,None,None,,,,,,,,,,,,,,,,,,,,,,,12012,2,2,2024_Jun_18_1828,stroop_task_switching2_b,2021.2.3,59.995308359099404,
,,,红,green,d,diamond,color_mix,颜色,,incompatible,1,block_switch1_b,instruction/ready_test.png,instruction/i11.png,,,,,,,,,,,,,,,,,0,0,0,0,0,35,35,35,,,,,,,,,,,,,,,,,,,,,,,,,,,455.0930656999699,455.2932405999745,455.2775240999763,455.5772021000157,455.5772021000157,None,456.07805190002546,None,d,1,0.90950760000851,456.07805190002546,None,None,None,,,,,,,,,,,,,,,,,,,,,,,12012,2,2,2024_Jun_18_1828,stroop_task_switching2_b,2021.2.3,59.995308359099404,
,,,黄,yellow,f,square,color_mix,单词,,compatible,2,block_switch1_b,instruction/ready_test.png,instruction/i11.png,,,,,,,,,,,,,,,,,0,0,0,0,0,36,36,36,,,,,,,,,,,,,,,,,,,,,,,,,,,457.0127934999764,457.2141464999877,457.1962713000248,457.4981616999721,457.4981616999721,None,457.9976110999705,None,f,1,0.6621146000106819,457.9976110999705,None,None,None,,,,,,,,,,,,,,,,,,,,,,,12012,2,2,2024_Jun_18_1828,stroop_task_switching2_b,2021.2.3,59.995308359099404,
,,,蓝,blue,j,square,color_mix,单词,,compatible,1,block_switch1_b,instruction/ready_test.png,instruction/i11.png,,,,,,,,,,,,,,,,,0,0,0,0,0,37,37,37,,,,,,,,,,,,,,,,,,,,,,,,,,,458.6821833999711,458.88404159998754,458.86596069997177,459.16738310002256,459.16738310002256,None,459.66683509998256,None,j,1,0.6252285999944434,459.66683509998256,None,None,None,,,,,,,,,,,,,,,,,,,,,,,12012,2,2,2024_Jun_18_1828,stroop_task_switching2_b,2021.2.3,59.995308359099404,
,,,绿,red,k,diamond,color_mix,颜色,,incompatible,2,block_switch1_b,instruction/ready_test.png,instruction/i11.png,,,,,,,,,,,,,,,,,0,0,0,0,0,38,38,38,,,,,,,,,,,,,,,,,,,,,,,,,,,460.3176291999989,460.51979009999195,460.50129869999364,460.8028935000184,460.8028935000184,None,461.30263569997624,None,k,1,0.8372670999960974,461.30263569997624,None,None,None,,,,,,,,,,,,,,,,,,,,,,,12012,2,2,2024_Jun_18_1828,stroop_task_switching2_b,2021.2.3,59.995308359099404,
,,,黄,yellow,f,diamond,color_mix,颜色,,compatible,1,block_switch1_b,instruction/ready_test.png,instruction/i11.png,,,,,,,,,,,,,,,,,0,0,0,0,0,39,39,39,,,,,,,,,,,,,,,,,,,,,,,,,,,462.17068749998,462.37092259997735,462.35497029998805,462.6554212999763,462.6554212999763,None,463.1553582000197,None,f,1,0.8487276000087149,463.1553582000197,None,None,None,,,,,,,,,,,,,,,,,,,,,,,12012,2,2,2024_Jun_18_1828,stroop_task_switching2_b,2021.2.3,59.995308359099404,
,,,红,blue,j,diamond,color_mix,颜色,,incompatible,1,block_switch1_b,instruction/ready_test.png,instruction/i11.png,,,,,,,,,,,,,,,,,0,0,0,0,0,40,40,40,,,,,,,,,,,,,,,,,,,,,,,,,,,464.023274999985,464.223715399974,464.2079367999686,464.5072963999701,464.5072963999701,None,465.00799170002574,None,k,0,0.6755356999929063,465.00799170002574,None,None,None,,,,,,,,,,,,,,,,,,,,,,,12012,2,2,2024_Jun_18_1828,stroop_task_switching2_b,2021.2.3,59.995308359099404,
,,,绿,blue,d,square,color_mix,单词,,incompatible,2,block_switch1_b,instruction/ready_test.png,instruction/i11.png,,,,,,,,,,,,,,,,,0,0,0,0,0,41,41,41,,,,,,,,,,,,,,,,,,,,,,,,,,,465.70923149999,465.91072659997735,465.89287219999824,466.1931779999868,466.1931779999868,None,466.69416780001484,None,j,0,1.0054194999975152,466.69416780001484,None,None,None,,,,,,,,,,,,,,,,,,,,,,,12012,2,2,2024_Jun_18_1828,stroop_task_switching2_b,2021.2.3,59.995308359099404,
,,,蓝,blue,j,diamond,color_mix,颜色,,compatible,2,block_switch1_b,instruction/ready_test.png,instruction/i11.png,,,,,,,,,,,,,,,,,0,0,0,0,0,42,42,42,,,,,,,,,,,,,,,,,,,,,,,,,,,467.729034900025,467.93044570001075,467.9133451000089,468.21444519999204,468.21444519999204,None,468.7137963999994,None,j,1,1.106480400019791,468.7137963999994,None,None,None,,,,,,,,,,,,,,,,,,,,,,,12012,2,2,2024_Jun_18_1828,stroop_task_switching2_b,2021.2.3,59.995308359099404,
,,,红,blue,k,square,color_mix,单词,,incompatible,2,block_switch1_b,instruction/ready_test.png,instruction/i11.png,,,,,,,,,,,,,,,,,0,0,0,0,0,43,43,43,,,,,,,,,,,,,,,,,,,,,,,,,,,469.8489237999893,470.05130529997405,470.0326676000259,470.3326079999679,470.3326079999679,None,470.83369080000557,None,k,1,1.2101824000128545,470.83369080000557,None,None,None,,,,,,,,,,,,,,,,,,,,,,,12012,2,2,2024_Jun_18_1828,stroop_task_switching2_b,2021.2.3,59.995308359099404,
,,,蓝,green,d,diamond,color_mix,颜色,,incompatible,2,block_switch1_b,instruction/ready_test.png,instruction/i11.png,,,,,,,,,,,,,,,,,0,0,0,0,0,44,44,44,,,,,,,,,,,,,,,,,,,,,,,,,,,472.06892950000474,472.2709247000166,472.2524401000119,472.554081499984,472.554081499984,None,473.0536640000064,None,d,1,2.158205000043381,473.0536640000064,None,None,None,,,,,,,,,,,,,,,,,,,,,,,12012,2,2,2024_Jun_18_1828,stroop_task_switching2_b,2021.2.3,59.995308359099404,
,,,黄,yellow,f,square,color_mix,单词,,compatible,2,block_switch1_b,instruction/ready_test.png,instruction/i11.png,,,,,,,,,,,,,,,,,0,0,0,0,0,45,45,45,,,,,,,,,,,,,,,,,,,,,,,,,,,475.24020320002455,475.4416954999906,475.42389340000227,475.7254319000058,475.7254319000058,None,476.2249043000047,None,f,1,1.739005800045561,476.2249043000047,None,None,None,,,,,,,,,,,,,,,,,,,,,,,12012,2,2,2024_Jun_18_1828,stroop_task_switching2_b,2021.2.3,59.995308359099404,
,,,黄,yellow,f,diamond,color_mix,颜色,,compatible,2,block_switch1_b,instruction/ready_test.png,instruction/i11.png,,,,,,,,,,,,,,,,,0,0,0,0,0,46,46,46,,,,,,,,,,,,,,,,,,,,,,,,,,,477.9945167999831,478.19521530001657,478.17888020002283,478.4805292999954,478.4805292999954,None,478.996178100002,None,f,1,0.7685224000015296,478.996178100002,None,None,None,,,,,,,,,,,,,,,,,,,,,,,12012,2,2,2024_Jun_18_1828,stroop_task_switching2_b,2021.2.3,59.995308359099404,
,,,绿,red,d,square,color_mix,单词,,incompatible,2,block_switch1_b,instruction/ready_test.png,instruction/i11.png,,,,,,,,,,,,,,,,,0,0,0,0,0,47,47,47,,,,,,,,,,,,,,,,,,,,,,,,,,,479.7803306999849,479.9808161999681,479.9642732000211,480.26431030000094,480.26431030000094,None,480.76557230000617,None,d,1,1.478594799991697,480.76557230000617,None,None,None,,,,,,,,,,,,,,,,,,,,,,,12012,2,2,2024_Jun_18_1828,stroop_task_switching2_b,2021.2.3,59.995308359099404,
,,,红,red,k,diamond,color_mix,颜色,,compatible,2,block_switch1_b,instruction/ready_test.png,instruction/i11.png,,,,,,,,,,,,,,,,,0,0,0,0,0,48,48,48,,,,,,,,,,,,,,,,,,,,,,,,,,,482.2673173000221,482.46773309999844,482.4524836000055,482.7516873999848,482.7516873999848,None,483.25232809997397,None,k,1,0.7358915000222623,483.25232809997397,None,None,None,,,,,,,,,,,,,,,,,,,,,,,12012,2,2,2024_Jun_18_1828,stroop_task_switching2_b,2021.2.3,59.995308359099404,
,,,蓝,blue,j,diamond,color_mix,颜色,,compatible,1,block_switch1_b,instruction/ready_test.png,instruction/i11.png,,,,,,,,,,,,,,,,,0,0,0,0,0,49,49,49,,,,,,,,,,,,,,,,,,,,,,,,,,,484.0034241999965,484.2042046000133,484.1876249000197,484.4875327000045,484.4875327000045,None,484.98978250002256,None,j,1,0.6624467000365257,484.98978250002256,None,None,None,,,,,,,,,,,,,,,,,,,,,,,12012,2,2,2024_Jun_18_1828,stroop_task_switching2_b,2021.2.3,59.995308359099404,
,,,黄,yellow,f,diamond,color_mix,颜色,,compatible,1,block_switch1_b,instruction/ready_test.png,instruction/i11.png,,,,,,,,,,,,,,,,,0,0,0,0,0,50,50,50,,,,,,,,,,,,,,,,,,,,,,,,,,,485.6726767999935,485.8734987999778,485.85629939998034,486.1571666999953,486.1571666999953,None,486.658843000012,None,f,1,0.4819656000472605,486.658843000012,None,None,None,,,,,,,,,,,,,,,,,,,,,,,12012,2,2,2024_Jun_18_1828,stroop_task_switching2_b,2021.2.3,59.995308359099404,
,,,红,blue,j,diamond,color_mix,颜色,,incompatible,1,block_switch1_b,instruction/ready_test.png,instruction/i11.png,,,,,,,,,,,,,,,,,0,0,0,0,0,51,51,51,,,,,,,,,,,,,,,,,,,,,,,,,,,487.1581843000022,487.3599982999731,487.3428156999871,487.64345219999086,487.64345219999086,None,488.14381769998,None,j,1,0.9327533000032417,488.14381769998,None,None,None,,,,,,,,,,,,,,,,,,,,,,,12012,2,2,2024_Jun_18_1828,stroop_task_switching2_b,2021.2.3,59.995308359099404,
,,,蓝,yellow,f,diamond,color_mix,颜色,,incompatible,1,block_switch1_b,instruction/ready_test.png,instruction/i11.png,,,,,,,,,,,,,,,,,0,0,0,0,0,52,52,52,,,,,,,,,,,,,,,,,,,,,,,,,,,489.0945099000237,489.2949296999723,489.2794660999789,489.5782995999907,489.5782995999907,None,490.0793206000235,None,f,1,0.9330782999750227,490.0793206000235,None,None,None,,,,,,,,,,,,,,,,,,,,,,,12012,2,2,2024_Jun_18_1828,stroop_task_switching2_b,2021.2.3,59.995308359099404,
,,,黄,blue,f,square,color_mix,单词,,incompatible,2,block_switch1_b,instruction/ready_test.png,instruction/i11.png,,,,,,,,,,,,,,,,,0,0,0,0,0,53,53,53,,,,,,,,,,,,,,,,,,,,,,,,,,,491.03069210000103,491.23114749998786,491.2153230999829,491.51575760002015,491.51575760002015,None,492.0172888999805,None,f,1,1.3393538999953307,492.0172888999805,None,None,None,,,,,,,,,,,,,,,,,,,,,,,12012,2,2,2024_Jun_18_1828,stroop_task_switching2_b,2021.2.3,59.995308359099404,
,,,蓝,blue,j,diamond,color_mix,颜色,,compatible,2,block_switch1_b,instruction/ready_test.png,instruction/i11.png,,,,,,,,,,,,,,,,,0,0,0,0,0,54,54,54,,,,,,,,,,,,,,,,,,,,,,,,,,,493.3842347000027,493.58548930002144,493.5698266000254,493.88520640000934,493.86916429997655,None,494.3690065999981,None,j,1,0.9636458999593742,494.3690065999981,None,None,None,,,,,,,,,,,,,,,,,,,,,,,12012,2,2,2024_Jun_18_1828,stroop_task_switching2_b,2021.2.3,59.995308359099404,
,,,红,yellow,k,square,color_mix,单词,,incompatible,2,block_switch1_b,instruction/ready_test.png,instruction/i11.png,,,,,,,,,,,,,,,,,0,0,0,0,0,55,55,55,,,,,,,,,,,,,,,,,,,,,,,,,,,495.3539360999712,495.5547659000149,495.53760440001497,495.8379054000252,495.8379054000252,None,496.33885840000585,None,k,1,1.330223599972669,496.33885840000585,None,None,None,,,,,,,,,,,,,,,,,,,,,,,12012,2,2,2024_Jun_18_1828,stroop_task_switching2_b,2021.2.3,59.995308359099404,
,,,蓝,red,j,square,color_mix,单词,,incompatible,1,block_switch1_b,instruction/ready_test.png,instruction/i11.png,,,,,,,,,,,,,,,,,0,0,0,0,0,56,56,56,,,,,,,,,,,,,,,,,,,,,,,,,,,497.690803400008,497.89220960001694,497.87576309998985,498.1749186000088,498.1749186000088,None,498.67569110001205,None,j,1,1.5448959000059403,498.67569110001205,None,None,None,,,,,,,,,,,,,,,,,,,,,,,12012,2,2,2024_Jun_18_1828,stroop_task_switching2_b,2021.2.3,59.995308359099404,
,,,蓝,blue,j,square,color_mix,单词,,compatible,1,block_switch1_b,instruction/ready_test.png,instruction/i11.png,,,,,,,,,,,,,,,,,0,0,0,0,0,57,57,57,,,,,,,,,,,,,,,,,,,,,,,,,,,500.24457570002414,500.44677370000863,500.42825689999154,500.7296570999897,500.7296570999897,None,501.2294449000037,None,j,1,1.055422900011763,501.2294449000037,None,None,None,,,,,,,,,,,,,,,,,,,,,,,12012,2,2,2024_Jun_18_1828,stroop_task_switching2_b,2021.2.3,59.995308359099404,
,,,蓝,red,k,diamond,color_mix,颜色,,incompatible,2,block_switch1_b,instruction/ready_test.png,instruction/i11.png,,,,,,,,,,,,,,,,,0,0,0,0,0,58,58,58,,,,,,,,,,,,,,,,,,,,,,,,,,,502.31461760000093,502.5161093000206,502.4995979000232,502.79922689998057,502.79922689998057,None,503.2994350999943,None,k,1,1.4173050000099465,503.2994350999943,None,None,None,,,,,,,,,,,,,,,,,,,,,,,12012,2,2,2024_Jun_18_1828,stroop_task_switching2_b,2021.2.3,59.995308359099404,
,,,绿,green,d,diamond,color_mix,颜色,,compatible,1,block_switch1_b,instruction/ready_test.png,instruction/i11.png,,,,,,,,,,,,,,,,,0,0,0,0,0,59,59,59,,,,,,,,,,,,,,,,,,,,,,,,,,,504.7346749000135,504.93665200000396,504.91841649997514,505.21919929998694,505.21919929998694,None,505.71990770002594,None,d,1,0.7572081999969669,505.71990770002594,None,None,None,,,,,,,,,,,,,,,,,,,,,,,12012,2,2,2024_Jun_18_1828,stroop_task_switching2_b,2021.2.3,59.995308359099404,
,,,蓝,blue,j,diamond,color_mix,颜色,,compatible,1,block_switch1_b,instruction/ready_test.png,instruction/i11.png,,,,,,,,,,,,,,,,,0,0,0,0,0,60,60,60,,,,,,,,,,,,,,,,,,,,,,,,,,,506.50391879997915,506.7046200999757,506.6885711000068,506.98999179998646,506.98999179998646,None,507.4888429999701,None,j,1,1.2119950000196695,507.4888429999701,None,None,None,,,,,,,,,,,,,,,,,,,,,,,12012,2,2,2024_Jun_18_1828,stroop_task_switching2_b,2021.2.3,59.995308359099404,
,,,黄,yellow,f,square,color_mix,单词,,compatible,2,block_switch1_b,instruction/ready_test.png,instruction/i11.png,,,,,,,,,,,,,,,,,0,0,0,0,0,61,61,61,,,,,,,,,,,,,,,,,,,,,,,,,,,508.72407579998253,508.9252663999796,508.9077195000136,509.20902750000823,509.20902750000823,None,509.7089658000041,None,f,1,1.0641752000083216,509.7089658000041,None,None,None,,,,,,,,,,,,,,,,,,,,,,,12012,2,2,2024_Jun_18_1828,stroop_task_switching2_b,2021.2.3,59.995308359099404,
,,,绿,blue,d,square,color_mix,单词,,incompatible,1,block_switch1_b,instruction/ready_test.png,instruction/i11.png,,,,,,,,,,,,,,,,,0,0,0,0,0,62,62,62,,,,,,,,,,,,,,,,,,,,,,,,,,,510.79382630001055,510.9942169999704,510.9780571999727,511.27802919998066,511.27802919998066,None,511.77864370000316,None,d,1,1.3784422999597155,511.77864370000316,None,None,None,,,,,,,,,,,,,,,,,,,,,,,12012,2,2,2024_Jun_18_1828,stroop_task_switching2_b,2021.2.3,59.995308359099404,
,,,蓝,yellow,j,square,color_mix,单词,,incompatible,1,block_switch1_b,instruction/ready_test.png,instruction/i11.png,,,,,,,,,,,,,,,,,0,0,0,0,0,63,63,63,,,,,,,,,,,,,,,,,,,,,,,,,,,513.1808583000093,513.3821383999893,513.3644378000172,513.6649359000148,513.6649359000148,None,514.1655709000188,None,j,1,0.9914802000275813,514.1655709000188,None,None,None,,,,,,,,,,,,,,,,,,,,,,,12012,2,2,2024_Jun_18_1828,stroop_task_switching2_b,2021.2.3,59.995308359099404,
,,,黄,yellow,f,diamond,color_mix,颜色,,compatible,2,block_switch1_b,instruction/ready_test.png,instruction/i11.png,,,,,,,,,,,,,,,,,0,0,0,0,0,64,64,64,,,,,,,,,,,,,,,,,,,,,,,,,,,515.1837847999996,515.384651499975,515.3674415000132,515.6680870999699,515.6680870999699,None,516.1688002999872,None,f,1,0.6684363000094891,516.1688002999872,None,None,None,,,,,,,,,,,,,,,,,,,,,,,12012,2,2,2024_Jun_18_1828,stroop_task_switching2_b,2021.2.3,59.995308359099404,
,,,蓝,green,d,diamond,color_mix,颜色,,incompatible,1,block_switch1_b,instruction/ready_test.png,instruction/i11.png,,,,,,,,,,,,,,,,,0,0,0,0,0,65,65,65,,,,,,,,,,,,,,,,,,,,,,,,,,,516.8531547000166,517.0545221000211,517.037513200019,517.338734799996,517.338734799996,None,517.8377118000062,None,d,1,0.8158545999904163,517.8377118000062,None,None,None,,,,,,,,,,,,,,,,,,,,,,,12012,2,2,2024_Jun_18_1828,stroop_task_switching2_b,2021.2.3,59.995308359099404,
,,,红,red,k,diamond,color_mix,颜色,,compatible,1,block_switch1_b,instruction/ready_test.png,instruction/i11.png,,,,,,,,,,,,,,,,,0,0,0,0,0,66,66,66,,,,,,,,,,,,,,,,,,,,,,,,,,,518.6725955000147,518.8735726000159,518.8568448000005,519.156558000017,519.156558000017,None,519.6571644999785,None,k,1,0.7319777000229806,519.6571644999785,None,None,None,,,,,,,,,,,,,,,,,,,,,,,12012,2,2,2024_Jun_18_1828,stroop_task_switching2_b,2021.2.3,59.995308359099404,
,,,蓝,yellow,j,square,color_mix,单词,,incompatible,2,block_switch1_b,instruction/ready_test.png,instruction/i11.png,,,,,,,,,,,,,,,,,0,0,0,0,0,67,67,67,,,,,,,,,,,,,,,,,,,,,,,,,,,520.4081757999957,520.6102116000257,520.5933287999942,520.8932502000243,520.8932502000243,None,521.3930464999867,None,j,1,0.7082001999951899,521.3930464999867,None,None,None,,,,,,,,,,,,,,,,,,,,,,,12012,2,2,2024_Jun_18_1828,stroop_task_switching2_b,2021.2.3,59.995308359099404,
,,,红,yellow,k,square,color_mix,单词,,incompatible,1,block_switch1_b,instruction/ready_test.png,instruction/i11.png,,,,,,,,,,,,,,,,,0,0,0,0,0,68,68,68,,,,,,,,,,,,,,,,,,,,,,,,,,,522.1277428999892,522.3284675999894,522.3112970999791,522.6125270000193,522.6125270000193,None,523.1125525999814,None,k,1,2.484657299995888,523.1125525999814,None,None,None,,,,,,,,,,,,,,,,,,,,,,,12012,2,2,2024_Jun_18_1828,stroop_task_switching2_b,2021.2.3,59.995308359099404,
,,,红,yellow,f,diamond,color_mix,颜色,,incompatible,2,block_switch1_b,instruction/ready_test.png,instruction/i11.png,,,,,,,,,,,,,,,,,0,0,0,0,0,69,69,69,,,,,,,,,,,,,,,,,,,,,,,,,,,525.6165365999914,525.8175060999929,525.7999397999956,526.1006278999848,526.1006278999848,None,526.6017928000074,None,f,1,0.8355950000113808,526.6017928000074,None,None,None,,,,,,,,,,,,,,,,,,,,,,,12012,2,2,2024_Jun_18_1828,stroop_task_switching2_b,2021.2.3,59.995308359099404,
,,,蓝,green,j,square,color_mix,单词,,incompatible,2,block_switch1_b,instruction/ready_test.png,instruction/i11.png,,,,,,,,,,,,,,,,,0,0,0,0,0,70,70,70,,,,,,,,,,,,,,,,,,,,,,,,,,,527.4697653999901,527.6700079999864,527.652826400008,527.9538777999696,527.9538777999696,None,528.4539753000136,None,j,1,0.8316086000413634,528.4539753000136,None,None,None,,,,,,,,,,,,,,,,,,,,,,,12012,2,2,2024_Jun_18_1828,stroop_task_switching2_b,2021.2.3,59.995308359099404,
,,,绿,yellow,d,square,color_mix,单词,,incompatible,1,block_switch1_b,instruction/ready_test.png,instruction/i11.png,,,,,,,,,,,,,,,,,0,0,0,0,0,71,71,71,,,,,,,,,,,,,,,,,,,,,,,,,,,529.3051241000067,529.5057789999992,529.4887238999945,529.7904449999915,529.7904449999915,None,530.2899323999882,None,d,1,0.8753300000098534,530.2899323999882,None,None,None,,,,,,,,,,,,,,,,,,,,,,,12012,2,2,2024_Jun_18_1828,stroop_task_switching2_b,2021.2.3,59.995308359099404,
,,,蓝,yellow,f,diamond,color_mix,颜色,,incompatible,2,block_switch1_b,instruction/ready_test.png,instruction/i11.png,,,,,,,,,,,,,,,,,0,0,0,0,0,72,72,72,,,,,,,,,,,,,,,,,,,,,,,,,,,531.1913315000129,531.3918895000243,531.3754303000169,531.675388899981,531.675388899981,None,532.176154899993,None,f,1,0.6533479000208899,532.176154899993,None,None,None,,,,,,,,,,,,,,,,,,,,,,,12012,2,2,2024_Jun_18_1828,stroop_task_switching2_b,2021.2.3,59.995308359099404,
,,,红,green,k,square,color_mix,单词,,incompatible,2,block_switch1_b,instruction/ready_test.png,instruction/i11.png,,,,,,,,,,,,,,,,,0,0,0,0,0,73,73,73,,,,,,,,,,,,,,,,,,,,,,,,,,,532.8619506999967,533.0627453000052,533.0454145999975,533.3446166000213,533.3446166000213,None,533.8452547999914,None,k,1,1.104286699963268,533.8452547999914,None,None,None,,,,,,,,,,,,,,,,,,,,,,,12012,2,2,2024_Jun_18_1828,stroop_task_switching2_b,2021.2.3,59.995308359099404,
,,,绿,blue,j,diamond,color_mix,颜色,,incompatible,2,block_switch1_b,instruction/ready_test.png,instruction/i11.png,,,,,,,,,,,,,,,,,0,0,0,0,0,74,74,74,,,,,,,,,,,,,,,,,,,,,,,,,,,534.9803625000059,535.1825140999863,535.1641072999919,535.4642586999689,535.4642586999689,None,535.9652238999843,None,j,1,1.0018851999775507,535.9652238999843,None,None,None,,,,,,,,,,,,,,,,,,,,,,,12012,2,2,2024_Jun_18_1828,stroop_task_switching2_b,2021.2.3,59.995308359099404,
,,,红,red,k,square,color_mix,单词,,compatible,2,block_switch1_b,instruction/ready_test.png,instruction/i11.png,,,,,,,,,,,,,,,,,0,0,0,0,0,75,75,75,,,,,,,,,,,,,,,,,,,,,,,,,,,536.9832374000107,537.1836142999819,537.1675476999953,537.467227599991,537.467227599991,None,537.9690432000207,None,k,1,0.8527266000164673,537.9690432000207,None,None,None,,,,,,,,,,,,,,,,,,,,,,,12012,2,2,2024_Jun_18_1828,stroop_task_switching2_b,2021.2.3,59.995308359099404,
,,,绿,green,d,diamond,color_mix,颜色,,compatible,2,block_switch1_b,instruction/ready_test.png,instruction/i11.png,,,,,,,,,,,,,,,,,0,0,0,0,0,76,76,76,,,,,,,,,,,,,,,,,,,,,,,,,,,538.8528636000119,539.0541188999778,539.0364659000188,539.3369385999977,539.3369385999977,None,539.8380991999875,None,d,1,1.0399955000029877,539.8380991999875,None,None,None,,,,,,,,,,,,,,,,,,,,,,,12012,2,2,2024_Jun_18_1828,stroop_task_switching2_b,2021.2.3,59.995308359099404,
,,,黄,red,f,square,color_mix,单词,,incompatible,2,block_switch1_b,instruction/ready_test.png,instruction/i11.png,,,,,,,,,,,,,,,,,0,0,0,0,0,77,77,77,,,,,,,,,,,,,,,,,,,,,,,,,,,540.9059426999884,541.1072643999942,541.0890930999885,541.3917942999979,541.3917942999979,None,541.8914301000186,None,f,1,1.1386120999814011,541.8914301000186,None,None,None,,,,,,,,,,,,,,,,,,,,,,,12012,2,2,2024_Jun_18_1828,stroop_task_switching2_b,2021.2.3,59.995308359099404,
,,,红,red,k,square,color_mix,单词,,compatible,1,block_switch1_b,instruction/ready_test.png,instruction/i11.png,,,,,,,,,,,,,,,,,0,0,0,0,0,78,78,78,,,,,,,,,,,,,,,,,,,,,,,,,,,543.0594782999833,543.2598994,543.2430729999905,543.5441623000079,543.5441623000079,None,544.0442510999856,None,k,1,0.7616734000039287,544.0442510999856,None,None,None,,,,,,,,,,,,,,,,,,,,,,,12012,2,2,2024_Jun_18_1828,stroop_task_switching2_b,2021.2.3,59.995308359099404,
,,,黄,yellow,f,square,color_mix,单词,,compatible,1,block_switch1_b,instruction/ready_test.png,instruction/i11.png,,,,,,,,,,,,,,,,,0,0,0,0,0,79,79,79,,,,,,,,,,,,,,,,,,,,,,,,,,,544.828280900023,545.0306691000005,545.0119629999972,545.3142344999942,545.3142344999942,None,545.8133502000128,None,f,1,0.6885413000127301,545.8133502000128,None,None,None,,,,,,,,,,,,,,,,,,,,,,,12012,2,2,2024_Jun_18_1828,stroop_task_switching2_b,2021.2.3,59.995308359099404,
,,,红,red,k,diamond,color_mix,颜色,,compatible,2,block_switch1_b,instruction/ready_test.png,instruction/i11.png,,,,,,,,,,,,,,,,,0,0,0,0,0,80,80,80,,,,,,,,,,,,,,,,,,,,,,,,,,,546.5310756000108,546.7320856999722,546.7146272999817,547.0150694000185,547.0150694000185,None,547.5160165000125,None,k,1,1.098220299987588,547.5160165000125,None,None,None,,,,,,,,,,,,,,,,,,,,,,,12012,2,2,2024_Jun_18_1828,stroop_task_switching2_b,2021.2.3,59.995308359099404,
,,,红,red,k,square,color_mix,单词,,compatible,2,block_switch1_b,instruction/ready_test.png,instruction/i11.png,,,,,,,,,,,,,,,,,0,0,0,0,0,81,81,81,,,,,,,,,,,,,,,,,,,,,,,,,,,548.6346599999815,548.8354428000166,548.8197271000245,549.1188048999757,549.1188048999757,None,549.6191439999966,None,k,1,0.7071592999855056,549.6191439999966,None,None,None,,,,,,,,,,,,,,,,,,,,,,,12012,2,2,2024_Jun_18_1828,stroop_task_switching2_b,2021.2.3,59.995308359099404,
,,,黄,blue,j,diamond,color_mix,颜色,,incompatible,2,block_switch1_b,instruction/ready_test.png,instruction/i11.png,,,,,,,,,,,,,,,,,0,0,0,0,0,82,82,82,,,,,,,,,,,,,,,,,,,,,,,,,,,550.3535921999719,550.5548758999794,550.5370629000245,550.8392535999883,550.8392535999883,None,551.339426600025,None,j,1,1.7705269000143744,551.339426600025,None,None,None,,,,,,,,,,,,,,,,,,,,,,,12012,2,2,2024_Jun_18_1828,stroop_task_switching2_b,2021.2.3,59.995308359099404,
,,,红,yellow,f,diamond,color_mix,颜色,,incompatible,1,block_switch1_b,instruction/ready_test.png,instruction/i11.png,,,,,,,,,,,,,,,,,0,0,0,0,0,83,83,83,,,,,,,,,,,,,,,,,,,,,,,,,,,553.1410915000015,553.3421011000173,553.3249667999917,553.6258959000115,553.6258959000115,None,554.1257018999895,None,f,1,1.1292028999887407,554.1257018999895,None,None,None,,,,,,,,,,,,,,,,,,,,,,,12012,2,2,2024_Jun_18_1828,stroop_task_switching2_b,2021.2.3,59.995308359099404,
,,,黄,red,k,diamond,color_mix,颜色,,incompatible,1,block_switch1_b,instruction/ready_test.png,instruction/i11.png,,,,,,,,,,,,,,,,,0,0,0,0,0,84,84,84,,,,,,,,,,,,,,,,,,,,,,,,,,,555.2776382999728,555.4780835999991,555.4610771000152,555.7631805000128,555.7631805000128,None,556.2623936000164,None,k,1,1.823954900028184,556.2623936000164,None,None,None,,,,,,,,,,,,,,,,,,,,,,,12012,2,2,2024_Jun_18_1828,stroop_task_switching2_b,2021.2.3,59.995308359099404,
,,,蓝,blue,j,square,color_mix,单词,,compatible,2,block_switch1_b,instruction/ready_test.png,instruction/i11.png,,,,,,,,,,,,,,,,,0,0,0,0,0,85,85,85,,,,,,,,,,,,,,,,,,,,,,,,,,,558.1152939000167,558.3164414999774,558.2994025999797,558.6012837999733,558.6012837999733,None,559.0999250999885,None,j,1,1.130172900040634,559.0999250999885,None,None,None,,,,,,,,,,,,,,,,,,,,,,,12012,2,2,2024_Jun_18_1828,stroop_task_switching2_b,2021.2.3,59.995308359099404,
,,,绿,green,d,square,color_mix,单词,,compatible,1,block_switch1_b,instruction/ready_test.png,instruction/i11.png,,,,,,,,,,,,,,,,,0,0,0,0,0,86,86,86,,,,,,,,,,,,,,,,,,,,,,,,,,,560.251666199998,560.452189899981,560.4365855000215,560.7360168999876,560.7360168999876,None,561.2374494000105,None,d,1,0.769347800000105,561.2374494000105,None,None,None,,,,,,,,,,,,,,,,,,,,,,,12012,2,2,2024_Jun_18_1828,stroop_task_switching2_b,2021.2.3,59.995308359099404,
,,,红,red,k,square,color_mix,单词,,compatible,1,block_switch1_b,instruction/ready_test.png,instruction/i11.png,,,,,,,,,,,,,,,,,0,0,0,0,0,87,87,87,,,,,,,,,,,,,,,,,,,,,,,,,,,562.0377842999878,562.2396300000255,562.222402799991,562.5230522999773,562.5230522999773,None,563.0227090999833,None,k,1,0.6476907000178471,563.0227090999833,None,None,None,,,,,,,,,,,,,,,,,,,,,,,12012,2,2,2024_Jun_18_1828,stroop_task_switching2_b,2021.2.3,59.995308359099404,
,,,黄,green,d,diamond,color_mix,颜色,,incompatible,2,block_switch1_b,instruction/ready_test.png,instruction/i11.png,,,,,,,,,,,,,,,,,0,0,0,0,0,88,88,88,,,,,,,,,,,,,,,,,,,,,,,,,,,563.690405100002,563.8919149999856,563.8740079000127,564.1751712000114,564.1751712000114,None,564.6752295999904,None,d,1,0.7710678000003099,564.6752295999904,None,None,None,,,,,,,,,,,,,,,,,,,,,,,12012,2,2,2024_Jun_18_1828,stroop_task_switching2_b,2021.2.3,59.995308359099404,
,,,绿,red,d,square,color_mix,单词,,incompatible,2,block_switch1_b,instruction/ready_test.png,instruction/i11.png,,,,,,,,,,,,,,,,,0,0,0,0,0,89,89,89,,,,,,,,,,,,,,,,,,,,,,,,,,,565.476308799989,565.676730200008,565.6600059000193,565.9617812000215,565.9617812000215,None,566.461172499985,None,d,1,1.353201599966269,566.461172499985,None,None,None,,,,,,,,,,,,,,,,,,,,,,,12012,2,2,2024_Jun_18_1828,stroop_task_switching2_b,2021.2.3,59.995308359099404,
,,,黄,green,f,square,color_mix,单词,,incompatible,1,block_switch1_b,instruction/ready_test.png,instruction/i11.png,,,,,,,,,,,,,,,,,0,0,0,0,0,90,90,90,,,,,,,,,,,,,,,,,,,,,,,,,,,567.8298171000206,568.0305141999852,568.014434200013,568.3156488999957,568.3156488999957,None,568.8147640000097,None,f,1,0.9279340000357479,568.8147640000097,None,None,None,,,,,,,,,,,,,,,,,,,,,,,12012,2,2,2024_Jun_18_1828,stroop_task_switching2_b,2021.2.3,59.995308359099404,
,,,蓝,blue,j,square,color_mix,单词,,compatible,1,block_switch1_b,instruction/ready_test.png,instruction/i11.png,,,,,,,,,,,,,,,,,0,0,0,0,0,91,91,91,,,,,,,,,,,,,,,,,,,,,,,,,,,569.7660347999772,569.9664580000099,569.9511711000232,570.268110200006,570.2502157000126,None,570.7516835000133,None,j,1,1.7269480000250041,570.7516835000133,None,None,None,,,,,,,,,,,,,,,,,,,,,,,12012,2,2,2024_Jun_18_1828,stroop_task_switching2_b,2021.2.3,59.995308359099404,
,,,蓝,red,j,square,color_mix,单词,,incompatible,1,block_switch1_b,instruction/ready_test.png,instruction/i11.png,,,,,,,,,,,,,,,,,0,0,0,0,0,92,92,92,,,,,,,,,,,,,,,,,,,,,,,,,,,572.5035233999952,572.7047698000097,572.6879697999684,572.9879733999842,572.9879733999842,None,573.488419900008,None,j,1,0.7741756000323221,573.488419900008,None,None,None,,,,,,,,,,,,,,,,,,,,,,,12012,2,2,2024_Jun_18_1828,stroop_task_switching2_b,2021.2.3,59.995308359099404,
,,,黄,blue,f,square,color_mix,单词,,incompatible,1,block_switch1_b,instruction/ready_test.png,instruction/i11.png,,,,,,,,,,,,,,,,,0,0,0,0,0,93,93,93,,,,,,,,,,,,,,,,,,,,,,,,,,,574.289712400001,574.4903944999678,574.4739150999812,574.7739796999958,574.7739796999958,None,575.2743487000116,None,f,1,0.6126280999742448,575.2743487000116,None,None,None,,,,,,,,,,,,,,,,,,,,,,,12012,2,2,2024_Jun_18_1828,stroop_task_switching2_b,2021.2.3,59.995308359099404,
,,,绿,red,k,diamond,color_mix,颜色,,incompatible,2,block_switch1_b,instruction/ready_test.png,instruction/i11.png,,,,,,,,,,,,,,,,,0,0,0,0,0,94,94,94,,,,,,,,,,,,,,,,,,,,,,,,,,,575.9086212000111,576.111441200017,576.0927269000094,576.3926443000091,576.3926443000091,None,576.89328020002,None,k,1,1.1613977000233717,576.89328020002,None,None,None,,,,,,,,,,,,,,,,,,,,,,,12012,2,2,2024_Jun_18_1828,stroop_task_switching2_b,2021.2.3,59.995308359099404,
,,,蓝,blue,j,diamond,color_mix,颜色,,compatible,1,block_switch1_b,instruction/ready_test.png,instruction/i11.png,,,,,,,,,,,,,,,,,0,0,0,0,0,95,95,95,,,,,,,,,,,,,,,,,,,,,,,,,,,578.0788905000081,578.2797064000042,578.2626136000035,578.5638532000012,578.5638532000012,None,579.0639969999902,None,j,1,1.359025300014764,579.0639969999902,None,None,None,,,,,,,,,,,,,,,,,,,,,,,12012,2,2,2024_Jun_18_1828,stroop_task_switching2_b,2021.2.3,59.995308359099404,
,,,绿,green,d,square,color_mix,单词,,compatible,2,block_switch1_b,instruction/ready_test.png,instruction/i11.png,,,,,,,,,,,,,,,,,0,0,0,0,0,96,96,96,,,,,,,,,,,,,,,,,,,,,,,,,,,580.4488317000214,580.6502903000219,580.6329307999695,580.9330922000227,580.9330922000227,None,581.4338005000027,None,f,0,1.4611947000375949,581.4338005000027,None,None,None,,,,,,,,,,,,,,,,,,,,,,,12012,2,2,2024_Jun_18_1828,stroop_task_switching2_b,2021.2.3,59.995308359099404,
,,,,,,,,,,,,block_switch1_b,instruction/ready_test.png,instruction/i11.png,,,,,,,,,,,,,,,,,0,0,0,0,,,,,,,,,,,,,,,,,,,,,,,,,,,,,,,,,,,,,,,,,,,,,,,,,,,,,,,,,,,,582.9193785000243,None,space,39.329085600038525,582.9193785000243,None,,,12012,2,2,2024_Jun_18_1828,stroop_task_switching2_b,2021.2.3,59.995308359099404,
,,,蓝,blue,j,square,color_mix,单词,,compatible,0,block_switch2_b,instruction/ready_2.png,instruction/i12.png,,,,,,,,,,,,,,,,,0,1,1,1,0,0,0,0,,,,,,,,,,,,,,,,,,,628.2227729000151,629.223860499973,629.223860499973,630.2239021999994,630.2239021999994,None,627.2360760999727,628.2377125999774,631.2589161000215,631.4597896999912,631.4423287999816,631.7430323999724,631.7430323999724,None,632.2448412000085,None,j,1,0.6840278000454418,632.2448412000085,None,None,None,,,,,,,,,622.2950988999801,None,space,4.921007199969608,622.2950988999801,None,,,,,,,,,12012,2,2,2024_Jun_18_1828,stroop_task_switching2_b,2021.2.3,59.995308359099404,
,,,黄,red,k,diamond,color_mix,颜色,,incompatible,2,block_switch2_b,instruction/ready_2.png,instruction/i12.png,,,,,,,,,,,,,,,,,0,1,1,1,0,1,1,1,,,,,,,,,,,,,,,,,,,,,,,,,,,632.978072799975,633.1785068999743,633.1304653999978,633.4289632000146,633.4289632000146,None,633.9297952000052,None,k,1,0.7826034000026993,633.9297952000052,None,None,None,,,,,,,,,,,,,,,,,,,,,,,12012,2,2,2024_Jun_18_1828,stroop_task_switching2_b,2021.2.3,59.995308359099404,
,,,蓝,green,d,diamond,color_mix,颜色,,incompatible,1,block_switch2_b,instruction/ready_2.png,instruction/i12.png,,,,,,,,,,,,,,,,,0,1,1,1,0,2,2,2,,,,,,,,,,,,,,,,,,,,,,,,,,,634.73070309998,634.9322066999739,634.9143681999994,635.2155999999959,635.2155999999959,None,635.715557700023,None,d,1,1.028910299995914,635.715557700023,None,None,None,,,,,,,,,,,,,,,,,,,,,,,12012,2,2,2024_Jun_18_1828,stroop_task_switching2_b,2021.2.3,59.995308359099404,
,,,红,yellow,f,diamond,color_mix,颜色,,incompatible,1,block_switch2_b,instruction/ready_2.png,instruction/i12.png,,,,,,,,,,,,,,,,,0,1,1,1,0,3,3,3,,,,,,,,,,,,,,,,,,,,,,,,,,,636.7671568000223,636.9677896000212,636.9524345999816,637.251344999997,637.251344999997,None,637.7526332999696,None,f,1,0.7196808999869972,637.7526332999696,None,None,None,,,,,,,,,,,,,,,,,,,,,,,12012,2,2,2024_Jun_18_1828,stroop_task_switching2_b,2021.2.3,59.995308359099404,
,,,红,red,k,diamond,color_mix,颜色,,compatible,1,block_switch2_b,instruction/ready_2.png,instruction/i12.png,,,,,,,,,,,,,,,,,0,1,1,1,0,4,4,4,,,,,,,,,,,,,,,,,,,,,,,,,,,638.5201823000098,638.7199504000018,638.6870580000104,638.9871818000101,638.9871818000101,None,639.4879328000243,None,k,1,0.7127640999970026,639.4879328000243,None,None,None,,,,,,,,,,,,,,,,,,,,,,,12012,2,2,2024_Jun_18_1828,stroop_task_switching2_b,2021.2.3,59.995308359099404,
,,,绿,green,d,square,color_mix,单词,,compatible,2,block_switch2_b,instruction/ready_2.png,instruction/i12.png,,,,,,,,,,,,,,,,,0,1,1,1,0,5,5,5,,,,,,,,,,,,,,,,,,,,,,,,,,,640.2222899000044,640.4226162999985,640.4058797999751,640.7069209999754,640.7069209999754,None,641.2071371999918,None,d,1,0.7771075000055134,641.2071371999918,None,None,None,,,,,,,,,,,,,,,,,,,,,,,12012,2,2,2024_Jun_18_1828,stroop_task_switching2_b,2021.2.3,59.995308359099404,
,,,黄,blue,j,diamond,color_mix,颜色,,incompatible,2,block_switch2_b,instruction/ready_2.png,instruction/i12.png,,,,,,,,,,,,,,,,,0,1,1,1,0,6,6,6,,,,,,,,,,,,,,,,,,,,,,,,,,,642.0084118000232,642.2097087000147,642.1920114000095,642.4930746000027,642.4930746000027,None,642.9931029999861,None,j,1,0.6001400999957696,642.9931029999861,None,None,None,,,,,,,,,,,,,,,,,,,,,,,12012,2,2,2024_Jun_18_1828,stroop_task_switching2_b,2021.2.3,59.995308359099404,
