b_pra,ins_blocks,ins_blocks2,stim_word,stim_color,corrAns,cue_type,trial_type,task_type,rand,compatibility,switch,b_test,w_pic,w_pic2,trials_instr.thisRepN,trials_instr.thisTrialN,trials_instr.thisN,trials_instr.thisIndex,block_pra.thisRepN,block_pra.thisTrialN,block_pra.thisN,block_pra.thisIndex,trials_rep.thisRepN,trials_rep.thisTrialN,trials_rep.thisN,trials_rep.thisIndex,trials_pra.thisRepN,trials_pra.thisTrialN,trials_pra.thisN,trials_pra.thisIndex,trials_3.thisRepN,trials_3.thisTrialN,trials_3.thisN,trials_3.thisIndex,trials_2.thisRepN,trials_2.thisTrialN,trials_2.thisN,trials_2.thisIndex,instr_image.started,instr_image.stopped,instr_key_resp.keys,instr_key_resp.rt,instr_key_resp.started,instr_key_resp.stopped,instr_pra_image.started,instr_pra_image.stopped,ip_key_resp.keys,ip_key_resp.rt,ip_key_resp.started,ip_key_resp.stopped,block_image.started,block_image.stopped,ib_key_resp.keys,ib_key_resp.rt,ib_key_resp.started,ib_key_resp.stopped,cd3.started,cd3.stopped,cd2.started,cd2.stopped,cd1.started,cd1.stopped,cd_text.started,cd_text.stopped,text_fix.started,text_fix.stopped,text_2.started,text_2.stopped,text_4.started,text_4.stopped,text_target.started,text_target.stopped,key_resp.keys,key_resp.corr,key_resp.rt,key_resp.started,key_resp.stopped,sceen_black.started,sceen_black.stopped,text_fb.started,text_fb.stopped,text.started,text.stopped,key_bf.keys,key_bf.rt,key_bf.started,key_bf.stopped,instr_test_image.started,instr_test_image.stopped,instr_exp_key_resp.keys,instr_exp_key_resp.rt,instr_exp_key_resp.started,instr_exp_key_resp.stopped,text_rest.started,text_rest.stopped,key_resp_rest.keys,key_resp_rest.rt,key_resp_rest.started,key_resp_rest.stopped,text_3.started,text_3.stopped,participant,session,balance,date,expName,psychopyVersion,frameRate,
,,,,,,,,,,,,,,,0,0,0,0,,,,,,,,,,,,,,,,,,,,,8.914074999993318,None,right,8.604591399998753,8.914074999993318,None,,,,,,,,,,,,,,,,,,,,,,,,,,,,,,,,,,,,,,,,,,,,,,,,,,,,,,,,,,12015,1,2,2024_Jun_22_1924,stroop_task_switching2_b,2021.2.3,59.930624306050014,
,,,,,,,,,,,,,,,1,0,1,0,,,,,,,,,,,,,,,,,,,,,17.5591340999963,None,right,85.93831040000077,17.5591340999963,None,,,,,,,,,,,,,,,,,,,,,,,,,,,,,,,,,,,,,,,,,,,,,,,,,,,,,,,,,,12015,1,2,2024_Jun_22_1924,stroop_task_switching2_b,2021.2.3,59.930624306050014,
,,,,,,,,,,,,,,,2,0,2,0,,,,,,,,,,,,,,,,,,,,,103.53926809999393,None,right,0.6939857999968808,103.53926809999393,None,,,,,,,,,,,,,,,,,,,,,,,,,,,,,,,,,,,,,,,,,,,,,,,,,,,,,,,,,,12015,1,2,2024_Jun_22_1924,stroop_task_switching2_b,2021.2.3,59.930624306050014,
,,,,,,,,,,,,,,,3,0,3,0,,,,,,,,,,,,,,,,,,,,,104.27429459999257,None,right,0.20729130000108853,104.27429459999257,None,,,,,,,,,,,,,,,,,,,,,,,,,,,,,,,,,,,,,,,,,,,,,,,,,,,,,,,,,,12015,1,2,2024_Jun_22_1924,stroop_task_switching2_b,2021.2.3,59.930624306050014,
,,,,,,,,,,,,,,,4,0,4,0,,,,,,,,,,,,,,,,,,,,,104.52434579998953,None,right,0.14959500000986736,104.52434579998953,None,,,,,,,,,,,,,,,,,,,,,,,,,,,,,,,,,,,,,,,,,,,,,,,,,,,,,,,,,,12015,1,2,2024_Jun_22_1924,stroop_task_switching2_b,2021.2.3,59.930624306050014,
,,,,,,,,,,,,,,,5,0,5,0,,,,,,,,,,,,,,,,,,,,,104.70831749998615,None,right,0.26109980000182986,104.70831749998615,None,,,,,,,,,,,,,,,,,,,,,,,,,,,,,,,,,,,,,,,,,,,,,,,,,,,,,,,,,,12015,1,2,2024_Jun_22_1924,stroop_task_switching2_b,2021.2.3,59.930624306050014,
,,,,,,,,,,,,,,,,,,,,,,,,,,,,,,,,,,,,,,,,,,,,,105.00951449999411,None,space,1.165655400007381,105.00951449999411,None,,,,,,,,,,,,,,,,,,,,,,,,,,,,,,,,,,,,,,,,,,,,,,,,,,,,12015,1,2,2024_Jun_22_1924,stroop_task_switching2_b,2021.2.3,59.930624306050014,
condition/block_color_b,instruction/instr_color,instruction/i8_b,XX,red,k,diamond,color_single,颜色,,,,,,,,,,,0,0,0,0,0,0,0,0,0,0,0,0,,,,,,,,,,,,,,,,,,,,,106.21034139998665,None,space,9.293530800001463,106.21034139998665,None,116.57661109999754,117.57927849999396,117.57927849999396,118.57929939999303,118.57929939999303,None,115.59226319998561,116.5928555999999,119.56542099999206,119.78114849999838,119.74756069999421,120.0484090999962,120.0484090999962,None,120.53239669998584,None,k,1,1.8858225000003586,120.53239669998584,None,None,None,122.51861629998893,None,,,,,,,,,,,,,,,,,,,,,12015,1,2,2024_Jun_22_1924,stroop_task_switching2_b,2021.2.3,59.930624306050014,
condition/block_color_b,instruction/instr_color,instruction/i8_b,XX,green,d,diamond,color_single,颜色,,,,,,,,,,,0,0,0,0,0,0,0,0,0,1,1,1,,,,,,,,,,,,,,,,,,,,,,,,,,,,,,,,,,,123.4538259999972,123.65387519999058,123.63746269998956,123.93839009999647,123.93839009999647,None,124.43857949999801,None,d,1,0.8593323999957647,124.43857949999801,None,None,None,125.32267789999605,None,,,,,,,,,,,,,,,,,,,,,12015,1,2,2024_Jun_22_1924,stroop_task_switching2_b,2021.2.3,59.930624306050014,
condition/block_color_b,instruction/instr_color,instruction/i8_b,XX,yellow,f,diamond,color_single,颜色,,,,,,,,,,,0,0,0,0,0,0,0,0,0,2,2,2,,,,,,,,,,,,,,,,,,,,,,,,,,,,,,,,,,,126.32417059999716,126.52466879998974,126.50759499998821,126.8089195999928,126.8089195999928,None,127.30930239999725,None,f,1,1.020629300008295,127.30930239999725,None,None,None,128.35993829999643,None,,,,,,,,,,,,,,,,,,,,,12015,1,2,2024_Jun_22_1924,stroop_task_switching2_b,2021.2.3,59.930624306050014,
condition/block_color_b,instruction/instr_color,instruction/i8_b,XX,blue,j,diamond,color_single,颜色,,,,,,,,,,,0,0,0,0,0,0,0,0,0,3,3,3,,,,,,,,,,,,,,,,,,,,,,,,,,,,,,,,,,,129.36252219999733,129.56292529999337,129.54613649999374,129.84775219998846,129.8301466999983,None,130.3303797999979,None,j,1,0.8641797000018414,130.3303797999979,None,None,None,131.21503089999896,None,,,,,,,,,,,,,,,,,,,,,12015,1,2,2024_Jun_22_1924,stroop_task_switching2_b,2021.2.3,59.930624306050014,
condition/block_color_b,instruction/instr_color,instruction/i8_b,XX,green,d,diamond,color_single,颜色,,,,,,,,,,,0,0,0,0,0,0,0,0,0,4,4,4,,,,,,,,,,,,,,,,,,,,,,,,,,,,,,,,,,,132.21647649999068,132.41717929999868,132.40153919998556,132.7010656999919,132.7010656999919,None,133.20160399998713,None,d,1,1.192570600003819,133.20160399998713,None,None,None,134.4196876999922,None,,,,,,,,,,,,,,,,,,,,,12015,1,2,2024_Jun_22_1924,stroop_task_switching2_b,2021.2.3,59.930624306050014,
condition/block_color_b,instruction/instr_color,instruction/i8_b,XX,yellow,f,diamond,color_single,颜色,,,,,,,,,,,0,0,0,0,0,0,0,0,0,5,5,5,,,,,,,,,,,,,,,,,,,,,,,,,,,,,,,,,,,135.422084299993,135.622203299994,135.60652299999492,135.9053838999971,135.9053838999971,None,136.40665119999903,None,f,1,0.7964705000049435,136.40665119999903,None,None,None,137.2239825999859,None,,,,,,,,,,,,,,,,,,,,,12015,1,2,2024_Jun_22_1924,stroop_task_switching2_b,2021.2.3,59.930624306050014,
condition/block_color_b,instruction/instr_color,instruction/i8_b,XX,blue,j,diamond,color_single,颜色,,,,,,,,,,,0,0,0,0,0,0,0,0,0,6,6,6,,,,,,,,,,,,,,,,,,,,,,,,,,,,,,,,,,,138.22543539998878,138.42693339999823,138.40901719999965,138.711201299986,138.711201299986,None,139.21109539999452,None,j,1,0.38364369999908376,139.21109539999452,None,None,None,139.61104059999343,None,,,,,,,,,,,,,,,,,,,,,12015,1,2,2024_Jun_22_1924,stroop_task_switching2_b,2021.2.3,59.930624306050014,
condition/block_color_b,instruction/instr_color,instruction/i8_b,XX,red,k,diamond,color_single,颜色,,,,,,,,,,,0,0,0,0,0,0,0,0,0,7,7,7,,,,,,,,,,,,,,,,,,,,,,,,,,,,,,,,,,,140.61285249999491,140.81265839999833,140.79662399999506,141.09877359999518,141.09877359999518,None,141.59726629999932,None,k,1,0.38982849998865277,141.59726629999932,None,None,None,142.01451449999877,None,,,,,,,,,,,,,,,,,,,,,12015,1,2,2024_Jun_22_1924,stroop_task_switching2_b,2021.2.3,59.930624306050014,
condition/block_color_b,instruction/instr_color,instruction/i8_b,XX,yellow,f,diamond,color_single,颜色,,,,,,,,,,,0,0,0,0,0,0,0,0,0,8,8,8,,,,,,,,,,,,,,,,,,,,,,,,,,,,,,,,,,,143.01599049998913,143.21691389998887,143.19971349999832,143.50190889999794,143.50190889999794,None,144.00118269999803,None,f,1,0.5775300999957835,144.00118269999803,None,None,None,144.60201729999972,None,,,,,,,,,,,,,,,,,,,,,12015,1,2,2024_Jun_22_1924,stroop_task_switching2_b,2021.2.3,59.930624306050014,
condition/block_color_b,instruction/instr_color,instruction/i8_b,XX,blue,j,diamond,color_single,颜色,,,,,,,,,,,0,0,0,0,0,0,0,0,0,9,9,9,,,,,,,,,,,,,,,,,,,,,,,,,,,,,,,,,,,145.60367419999966,145.80367259999912,145.78798429999733,146.08811839998816,146.08811839998816,None,146.58861979999347,None,j,1,0.702038999996148,146.58861979999347,None,None,None,147.30580659999396,None,,,,,,,,,,,,,,,,,,,,,12015,1,2,2024_Jun_22_1924,stroop_task_switching2_b,2021.2.3,59.930624306050014,
condition/block_color_b,instruction/instr_color,instruction/i8_b,XX,red,k,diamond,color_single,颜色,,,,,,,,,,,0,0,0,0,0,0,0,0,0,10,10,10,,,,,,,,,,,,,,,,,,,,,,,,,,,,,,,,,,,148.30776169999444,148.50841129999026,148.4923487999913,148.79147479998937,148.79147479998937,None,149.29218319999927,None,k,1,0.430968100001337,149.29218319999927,None,None,None,149.74301649999688,None,,,,,,,,,,,,,,,,,,,,,12015,1,2,2024_Jun_22_1924,stroop_task_switching2_b,2021.2.3,59.930624306050014,
condition/block_color_b,instruction/instr_color,instruction/i8_b,XX,green,d,diamond,color_single,颜色,,,,,,,,,,,0,0,0,0,0,0,0,0,0,11,11,11,,,,,,,,,,,,,,,,,,,,,,,,,,,,,,,,,,,150.74509829998715,150.9451146999927,150.9288203999895,151.2286177999922,151.2286177999922,None,151.7295987999969,None,f,0,0.7212478000001283,151.7295987999969,None,None,None,152.4977949999884,None,,,,,,,,,,,,,,,,,,,,,12015,1,2,2024_Jun_22_1924,stroop_task_switching2_b,2021.2.3,59.930624306050014,
condition/block_color_b,instruction/instr_color,instruction/i8_b,XX,blue,j,diamond,color_single,颜色,,,,,,,,,,,0,0,0,0,0,0,0,0,0,12,12,12,,,,,,,,,,,,,,,,,,,,,,,,,,,,,,,,,,,153.49962799999048,153.70035319999442,153.6653837999911,153.9677590999927,153.9677590999927,None,154.46708289999515,None,j,1,1.8397976999985985,154.46708289999515,None,None,None,156.3535334999906,None,,,,,,,,,,,,,,,,,,,,,12015,1,2,2024_Jun_22_1924,stroop_task_switching2_b,2021.2.3,59.930624306050014,
condition/block_color_b,instruction/instr_color,instruction/i8_b,XX,red,k,diamond,color_single,颜色,,,,,,,,,,,0,0,0,0,0,0,0,0,0,13,13,13,,,,,,,,,,,,,,,,,,,,,,,,,,,,,,,,,,,157.3547186999931,157.5556338999886,157.53952219999337,157.83948179999425,157.83948179999425,None,158.34004319999076,None,k,1,2.7749641000118572,158.34004319999076,None,None,None,161.1434322999994,None,,,,,,,,,,,,,,,,,,,,,12015,1,2,2024_Jun_22_1924,stroop_task_switching2_b,2021.2.3,59.930624306050014,
condition/block_color_b,instruction/instr_color,instruction/i8_b,XX,green,d,diamond,color_single,颜色,,,,,,,,,,,0,0,0,0,0,0,0,0,0,14,14,14,,,,,,,,,,,,,,,,,,,,,,,,,,,,,,,,,,,162.14522049999505,162.3464818999928,162.32907859999978,162.6289248999965,162.6289248999965,None,163.13042479999422,None,d,1,0.8008782999968389,163.13042479999422,None,None,None,163.94763039999816,None,,,,,,,,,,,,,,,,,,,,,12015,1,2,2024_Jun_22_1924,stroop_task_switching2_b,2021.2.3,59.930624306050014,
condition/block_color_b,instruction/instr_color,instruction/i8_b,XX,yellow,f,diamond,color_single,颜色,,,,,,,,,,,0,0,0,0,0,0,0,0,0,15,15,15,,,,,,,,,,,,,,,,,,,,,,,,,,,,,,,,,,,164.94973879998724,165.15003959999012,165.1346526999987,165.43461549999483,165.43461549999483,None,165.9343319999898,None,f,1,0.9013154999993276,165.9343319999898,None,None,None,166.85196279999218,None,,,,,,,,,,,,,,,,,,,,,12015,1,2,2024_Jun_22_1924,stroop_task_switching2_b,2021.2.3,59.930624306050014,
condition/block_color_b,instruction/instr_color,instruction/i8_b,XX,red,k,diamond,color_single,颜色,,,,,,,,,,,0,0,0,0,0,0,0,0,0,16,16,16,,,,,,,,,,,,,,,,,,,,,,,,,,,,,,,,,,,167.853984699992,168.0546878999885,168.03744859999279,168.33893399999943,168.33893399999943,None,168.83873139999923,None,k,1,1.4855028000019956,168.83873139999923,None,None,None,170.3406449999893,None,,,,,,,,,,,,,,,,,,,,,12015,1,2,2024_Jun_22_1924,stroop_task_switching2_b,2021.2.3,59.930624306050014,
condition/block_color_b,instruction/instr_color,instruction/i8_b,XX,green,d,diamond,color_single,颜色,,,,,,,,,,,0,0,0,0,0,0,0,0,0,17,17,17,,,,,,,,,,,,,,,,,,,,,,,,,,,,,,,,,,,171.3420902999933,171.5425028999889,171.5273986999964,171.82686279999325,171.82686279999325,None,172.32717089999642,None,d,1,0.8688816999929259,172.32717089999642,None,None,None,173.21169629998622,None,,,,,,,,,,,,,,,,,,,,,12015,1,2,2024_Jun_22_1924,stroop_task_switching2_b,2021.2.3,59.930624306050014,
condition/block_color_b,instruction/instr_color,instruction/i8_b,XX,yellow,f,diamond,color_single,颜色,,,,,,,,,,,0,0,0,0,0,0,0,0,0,18,18,18,,,,,,,,,,,,,,,,,,,,,,,,,,,,,,,,,,,174.21354789999896,174.41369309999573,174.39834649999102,174.69779109999945,174.69779109999945,None,175.19831589999376,None,f,1,0.7336371999990661,175.19831589999376,None,None,None,175.94921089999843,None,,,,,,,,,,,,,,,,,,,,,12015,1,2,2024_Jun_22_1924,stroop_task_switching2_b,2021.2.3,59.930624306050014,
condition/block_color_b,instruction/instr_color,instruction/i8_b,XX,blue,j,diamond,color_single,颜色,,,,,,,,,,,0,0,0,0,0,0,0,0,0,19,19,19,,,,,,,,,,,,,,,,,,,,,,,,,,,,,,,,,,,176.95117679999385,177.1512226999912,177.13568749999104,177.43575079999573,177.43575079999573,None,177.93538669998816,None,j,1,0.8202423000038834,177.93538669998816,None,None,None,178.78669999999693,None,,,,,,,,,,,,,,,,,,,,,12015,1,2,2024_Jun_22_1924,stroop_task_switching2_b,2021.2.3,59.930624306050014,
condition/block_color_b,instruction/instr_color,instruction/i8_b,XX,green,d,diamond,color_single,颜色,,,,,,,,,,,0,0,0,0,0,0,0,0,0,20,20,20,,,,,,,,,,,,,,,,,,,,,,,,,,,,,,,,,,,179.7887500999932,179.9895503999869,179.97248519999266,180.27380779999658,180.27380779999658,None,180.77340189999086,None,d,1,2.414294100002735,180.77340189999086,None,None,None,183.21009689998755,None,,,,,,,,,,,,,,,,,,,,,12015,1,2,2024_Jun_22_1924,stroop_task_switching2_b,2021.2.3,59.930624306050014,
condition/block_color_b,instruction/instr_color,instruction/i8_b,XX,yellow,f,diamond,color_single,颜色,,,,,,,,,,,0,0,0,0,0,0,0,0,0,21,21,21,,,,,,,,,,,,,,,,,,,,,,,,,,,,,,,,,,,184.2117731999897,184.4120341999951,184.3954182999878,184.69659129998763,184.69659129998763,None,185.19675939998706,None,f,1,0.8231719000032172,185.19675939998706,None,None,None,186.04790649999632,None,,,,,,,,,,,,,,,,,,,,,12015,1,2,2024_Jun_22_1924,stroop_task_switching2_b,2021.2.3,59.930624306050014,
condition/block_color_b,instruction/instr_color,instruction/i8_b,XX,blue,j,diamond,color_single,颜色,,,,,,,,,,,0,0,0,0,0,0,0,0,0,22,22,22,,,,,,,,,,,,,,,,,,,,,,,,,,,,,,,,,,,187.04919439999503,187.2506066999922,187.23290769998857,187.5343955999997,187.5343955999997,None,188.03411459999916,None,j,1,0.6816683000070043,188.03411459999916,None,None,None,188.73502259999805,None,,,,,,,,,,,,,,,,,,,,,12015,1,2,2024_Jun_22_1924,stroop_task_switching2_b,2021.2.3,59.930624306050014,
condition/block_color_b,instruction/instr_color,instruction/i8_b,XX,red,k,diamond,color_single,颜色,,,,,,,,,,,0,0,0,0,0,0,0,0,0,23,23,23,,,,,,,,,,,,,,,,,,,,,,,,,,,,,,,,,,,189.73717699998815,189.93714409999666,189.92042619999847,190.22141099999135,190.22141099999135,None,190.7215831999929,None,k,1,0.778389099999913,190.7215831999929,None,None,None,191.5227470999962,None,,,,,,,,,,,,,,,,,,,,,12015,1,2,2024_Jun_22_1924,stroop_task_switching2_b,2021.2.3,59.930624306050014,
condition/block_color_b,instruction/instr_color,instruction/i8_b,,,,,,,,,,,,,,,,,0,0,0,0,0,0,0,0,,,,,,,,,,,,,,,,,,,,,,,,,,,,,,,,,,,,,,,,,,,,,,,,,,,,,,,,192.54080339999928,None,space,9.2606461999967,192.54080339999928,None,,,,,,,,,,,,,,,12015,1,2,2024_Jun_22_1924,stroop_task_switching2_b,2021.2.3,59.930624306050014,
condition/block_color_b,instruction/instr_color,instruction/i8_b,,,,,,,,,,,,,,,,,0,0,0,0,,,,,,,,,,,,,,,,,,,,,,,,,,,,,,,,,,,,,,,,,,,,,,,,,,,,,,,,,,,,,,,,,,,,,,,,,,,,,,,,12015,1,2,2024_Jun_22_1924,stroop_task_switching2_b,2021.2.3,59.930624306050014,
condition/block_word_b,instruction/instr_word,instruction/i9_b,黄,white,f,square,word_single,单词,0.0032461461866890584,,,,,,,,,,0,1,1,1,0,0,0,0,0,0,0,0,,,,,,,,,,,,,,,,,,,,,201.85565959999803,None,space,7.0815514999994775,201.85565959999803,None,209.96745479998935,210.969683599993,210.969683599993,211.9710330999951,211.9710330999951,None,208.98344969999744,209.984730199998,212.9878527999972,213.18884659999458,213.18884659999458,213.48998309999297,213.47251129998767,None,213.97366409999086,None,f,1,0.8791488999995636,213.97366409999086,None,None,None,214.90784069999063,None,,,,,,,,,,,,,,,,,,,,,12015,1,2,2024_Jun_22_1924,stroop_task_switching2_b,2021.2.3,59.930624306050014,
condition/block_word_b,instruction/instr_word,instruction/i9_b,蓝,white,j,square,word_single,单词,0.060540570646362424,,,,,,,,,,0,1,1,1,0,0,0,0,0,1,1,1,,,,,,,,,,,,,,,,,,,,,,,,,,,,,,,,,,,215.8933035999944,216.0933989999903,216.07712479999464,216.37822759999835,216.37822759999835,None,216.8777751999878,None,j,1,0.8708780000015395,216.8777751999878,None,None,None,217.79631579999113,None,,,,,,,,,,,,,,,,,,,,,12015,1,2,2024_Jun_22_1924,stroop_task_switching2_b,2021.2.3,59.930624306050014,
condition/block_word_b,instruction/instr_word,instruction/i9_b,黄,white,f,square,word_single,单词,0.06994067193778963,,,,,,,,,,0,1,1,1,0,0,0,0,0,2,2,2,,,,,,,,,,,,,,,,,,,,,,,,,,,,,,,,,,,218.79758139999467,218.99873009999283,218.98120229999768,219.28237629999057,219.28237629999057,None,219.78277649999654,None,d,0,0.646472199994605,219.78277649999654,None,None,None,220.44961499999044,None,,,,,,,,,,,,,,,,,,,,,12015,1,2,2024_Jun_22_1924,stroop_task_switching2_b,2021.2.3,59.930624306050014,
condition/block_word_b,instruction/instr_word,instruction/i9_b,蓝,white,j,square,word_single,单词,0.08193765152950094,,,,,,,,,,0,1,1,1,0,0,0,0,0,3,3,3,,,,,,,,,,,,,,,,,,,,,,,,,,,,,,,,,,,221.451405099986,221.6517012999975,221.63594939999166,221.93669289999525,221.93669289999525,None,222.43642779999936,None,j,1,1.0966273000085494,222.43642779999936,None,None,None,223.5544411999872,None,,,,,,,,,,,,,,,,,,,,,12015,1,2,2024_Jun_22_1924,stroop_task_switching2_b,2021.2.3,59.930624306050014,
condition/block_word_b,instruction/instr_word,instruction/i9_b,红,white,k,square,word_single,单词,0.1279694370605574,,,,,,,,,,0,1,1,1,0,0,0,0,0,4,4,4,,,,,,,,,,,,,,,,,,,,,,,,,,,,,,,,,,,224.55598869999812,224.75725589999638,224.73996979999356,225.04054689999612,225.04054689999612,None,225.5407581999898,None,k,1,0.5364240000053542,225.5407581999898,None,None,None,226.0917128999863,None,,,,,,,,,,,,,,,,,,,,,12015,1,2,2024_Jun_22_1924,stroop_task_switching2_b,2021.2.3,59.930624306050014,
condition/block_word_b,instruction/instr_word,instruction/i9_b,红,white,k,square,word_single,单词,0.18345028784879092,,,,,,,,,,0,1,1,1,0,0,0,0,0,5,5,5,,,,,,,,,,,,,,,,,,,,,,,,,,,,,,,,,,,227.09310479999112,227.29382369999075,227.2769755999907,227.5784616999881,227.5784616999881,None,228.07854719999887,None,k,1,0.6390239000029396,228.07854719999887,None,None,None,228.74563339998713,None,,,,,,,,,,,,,,,,,,,,,12015,1,2,2024_Jun_22_1924,stroop_task_switching2_b,2021.2.3,59.930624306050014,
condition/block_word_b,instruction/instr_word,instruction/i9_b,蓝,white,j,square,word_single,单词,0.19920386223101294,,,,,,,,,,0,1,1,1,0,0,0,0,0,6,6,6,,,,,,,,,,,,,,,,,,,,,,,,,,,,,,,,,,,229.7474283999909,229.9491652999859,229.93114179999975,230.23257219999505,230.23257219999505,None,230.73222219999298,None,j,1,0.9528908999927808,230.73222219999298,None,None,None,231.73596279999765,None,,,,,,,,,,,,,,,,,,,,,12015,1,2,2024_Jun_22_1924,stroop_task_switching2_b,2021.2.3,59.930624306050014,
condition/block_word_b,instruction/instr_word,instruction/i9_b,蓝,white,j,square,word_single,单词,0.26360599864925405,,,,,,,,,,0,1,1,1,0,0,0,0,0,7,7,7,,,,,,,,,,,,,,,,,,,,,,,,,,,,,,,,,,,232.7347984999942,232.93529519998992,232.91854939999757,233.22009659999458,233.22009659999458,None,233.72032059999765,None,j,1,0.645016399997985,233.72032059999765,None,None,None,234.38744839999708,None,,,,,,,,,,,,,,,,,,,,,12015,1,2,2024_Jun_22_1924,stroop_task_switching2_b,2021.2.3,59.930624306050014,
condition/block_word_b,instruction/instr_word,instruction/i9_b,蓝,white,j,square,word_single,单词,0.358985675745526,,,,,,,,,,0,1,1,1,0,0,0,0,0,8,8,8,,,,,,,,,,,,,,,,,,,,,,,,,,,,,,,,,,,235.38959389999218,235.59013539999432,235.57323459998588,235.87346329999855,235.87346329999855,None,236.37386109998624,None,j,1,0.43199290000484325,236.37386109998624,None,None,None,236.82442449999508,None,,,,,,,,,,,,,,,,,,,,,12015,1,2,2024_Jun_22_1924,stroop_task_switching2_b,2021.2.3,59.930624306050014,
condition/block_word_b,instruction/instr_word,instruction/i9_b,绿,white,d,square,word_single,单词,0.36496733802487347,,,,,,,,,,0,1,1,1,0,0,0,0,0,9,9,9,,,,,,,,,,,,,,,,,,,,,,,,,,,,,,,,,,,237.82640989999345,238.02762799999618,238.00973849999718,238.3106032999931,238.3106032999931,None,238.81111879998934,None,d,1,0.8264788000087719,238.81111879998934,None,None,None,239.66217219999817,None,,,,,,,,,,,,,,,,,,,,,12015,1,2,2024_Jun_22_1924,stroop_task_switching2_b,2021.2.3,59.930624306050014,
condition/block_word_b,instruction/instr_word,instruction/i9_b,黄,white,f,square,word_single,单词,0.3743513623756727,,,,,,,,,,0,1,1,1,0,0,0,0,0,10,10,10,,,,,,,,,,,,,,,,,,,,,,,,,,,,,,,,,,,240.66366629999538,240.86381949999486,240.8483991999965,241.14797499999986,241.14797499999986,None,241.648529099999,None,f,1,0.46907639999699313,241.648529099999,None,None,None,242.13268089998746,None,,,,,,,,,,,,,,,,,,,,,12015,1,2,2024_Jun_22_1924,stroop_task_switching2_b,2021.2.3,59.930624306050014,
condition/block_word_b,instruction/instr_word,instruction/i9_b,红,white,k,square,word_single,单词,0.3894803852598544,,,,,,,,,,0,1,1,1,0,0,0,0,0,11,11,11,,,,,,,,,,,,,,,,,,,,,,,,,,,,,,,,,,,243.13410459998704,243.33456139999907,243.31782889999158,243.61925319999864,243.61925319999864,None,244.1191989999934,None,k,1,0.5988017999916337,244.1191989999934,None,None,None,244.73642809999,None,,,,,,,,,,,,,,,,,,,,,12015,1,2,2024_Jun_22_1924,stroop_task_switching2_b,2021.2.3,59.930624306050014,
condition/block_word_b,instruction/instr_word,instruction/i9_b,绿,white,d,square,word_single,单词,0.5393759672408067,,,,,,,,,,0,1,1,1,0,0,0,0,0,12,12,12,,,,,,,,,,,,,,,,,,,,,,,,,,,,,,,,,,,245.73802059999434,245.9384987999947,245.92350089999672,246.22349839999515,246.22349839999515,None,246.72281579999253,None,d,1,0.6587635000032606,246.72281579999253,None,None,None,247.40702619998774,None,,,,,,,,,,,,,,,,,,,,,12015,1,2,2024_Jun_22_1924,stroop_task_switching2_b,2021.2.3,59.930624306050014,
condition/block_word_b,instruction/instr_word,instruction/i9_b,蓝,white,j,square,word_single,单词,0.5995731954831104,,,,,,,,,,0,1,1,1,0,0,0,0,0,13,13,13,,,,,,,,,,,,,,,,,,,,,,,,,,,,,,,,,,,248.40870229998836,248.61073829999077,248.59236729999247,248.89309169999615,248.89309169999615,None,249.39342859998578,None,j,1,0.5322827000054531,249.39342859998578,None,None,None,249.94422049999412,None,,,,,,,,,,,,,,,,,,,,,12015,1,2,2024_Jun_22_1924,stroop_task_switching2_b,2021.2.3,59.930624306050014,
condition/block_word_b,instruction/instr_word,instruction/i9_b,红,white,k,square,word_single,单词,0.6298674479151414,,,,,,,,,,0,1,1,1,0,0,0,0,0,14,14,14,,,,,,,,,,,,,,,,,,,,,,,,,,,,,,,,,,,250.94620939999004,251.14681299999938,251.12969489999523,251.43150869999954,251.43150869999954,None,251.93077599999378,None,k,1,0.6029334000049857,251.93077599999378,None,None,None,252.56463349999103,None,,,,,,,,,,,,,,,,,,,,,12015,1,2,2024_Jun_22_1924,stroop_task_switching2_b,2021.2.3,59.930624306050014,
condition/block_word_b,instruction/instr_word,instruction/i9_b,红,white,k,square,word_single,单词,0.7389942282348904,,,,,,,,,,0,1,1,1,0,0,0,0,0,15,15,15,,,,,,,,,,,,,,,,,,,,,,,,,,,,,,,,,,,253.56655569998838,253.76677509999718,253.7501251999929,254.05068949999986,254.05068949999986,None,254.55189319999772,None,k,1,0.6464025000022957,254.55189319999772,None,None,None,255.2190499999997,None,,,,,,,,,,,,,,,,,,,,,12015,1,2,2024_Jun_22_1924,stroop_task_switching2_b,2021.2.3,59.930624306050014,
condition/block_word_b,instruction/instr_word,instruction/i9_b,绿,white,d,square,word_single,单词,0.7550853947239682,,,,,,,,,,0,1,1,1,0,0,0,0,0,16,16,16,,,,,,,,,,,,,,,,,,,,,,,,,,,,,,,,,,,256.2212523999915,256.4209234999871,256.40557809999154,256.7044079999905,256.7044079999905,None,257.20565249999345,None,d,1,0.6564840000064578,257.20565249999345,None,None,None,257.88965389999794,None,,,,,,,,,,,,,,,,,,,,,12015,1,2,2024_Jun_22_1924,stroop_task_switching2_b,2021.2.3,59.930624306050014,
condition/block_word_b,instruction/instr_word,instruction/i9_b,绿,white,d,square,word_single,单词,0.8019302780428206,,,,,,,,,,0,1,1,1,0,0,0,0,0,17,17,17,,,,,,,,,,,,,,,,,,,,,,,,,,,,,,,,,,,258.8911829999997,259.0915549999918,259.0752371999988,259.37545639999735,259.37545639999735,None,259.87589099998877,None,d,1,0.7623404999903869,259.87589099998877,None,None,None,260.660429999989,None,,,,,,,,,,,,,,,,,,,,,12015,1,2,2024_Jun_22_1924,stroop_task_switching2_b,2021.2.3,59.930624306050014,
condition/block_word_b,instruction/instr_word,instruction/i9_b,绿,white,d,square,word_single,单词,0.8110702914095343,,,,,,,,,,0,1,1,1,0,0,0,0,0,18,18,18,,,,,,,,,,,,,,,,,,,,,,,,,,,,,,,,,,,261.66216839999834,261.8625497999892,261.84697079999023,262.14680929998576,262.14680929998576,None,262.64705929999764,None,d,1,0.5110224999953061,262.64705929999764,None,None,None,263.180884299989,None,,,,,,,,,,,,,,,,,,,,,12015,1,2,2024_Jun_22_1924,stroop_task_switching2_b,2021.2.3,59.930624306050014,
condition/block_word_b,instruction/instr_word,instruction/i9_b,黄,white,f,square,word_single,单词,0.8176594937590999,,,,,,,,,,0,1,1,1,0,0,0,0,0,19,19,19,,,,,,,,,,,,,,,,,,,,,,,,,,,,,,,,,,,264.18299309999566,264.382853099989,264.3676661999925,264.68465659998765,264.6679097999877,None,265.1672402999975,None,f,1,0.671094000004814,265.1672402999975,None,None,None,265.86898409998685,None,,,,,,,,,,,,,,,,,,,,,12015,1,2,2024_Jun_22_1924,stroop_task_switching2_b,2021.2.3,59.930624306050014,
condition/block_word_b,instruction/instr_word,instruction/i9_b,红,white,k,square,word_single,单词,0.8955794421104841,,,,,,,,,,0,1,1,1,0,0,0,0,0,20,20,20,,,,,,,,,,,,,,,,,,,,,,,,,,,,,,,,,,,266.8700675,267.07034409999324,267.05500239999674,267.3543234999961,267.3543234999961,None,267.85472579998896,None,k,1,0.5684006000083173,267.85472579998896,None,None,None,268.4392799999914,None,,,,,,,,,,,,,,,,,,,,,12015,1,2,2024_Jun_22_1924,stroop_task_switching2_b,2021.2.3,59.930624306050014,
condition/block_word_b,instruction/instr_word,instruction/i9_b,绿,white,d,square,word_single,单词,0.9113598052474129,,,,,,,,,,0,1,1,1,0,0,0,0,0,21,21,21,,,,,,,,,,,,,,,,,,,,,,,,,,,,,,,,,,,269.4406556999893,269.64225079999596,269.62434839998605,269.92546789998596,269.92546789998596,None,270.4252157999872,None,d,1,0.7252749999897787,270.4252157999872,None,None,None,271.1764969999931,None,,,,,,,,,,,,,,,,,,,,,12015,1,2,2024_Jun_22_1924,stroop_task_switching2_b,2021.2.3,59.930624306050014,
condition/block_word_b,instruction/instr_word,instruction/i9_b,黄,white,f,square,word_single,单词,0.9215930958042953,,,,,,,,,,0,1,1,1,0,0,0,0,0,22,22,22,,,,,,,,,,,,,,,,,,,,,,,,,,,,,,,,,,,272.17868649998854,272.37966409999353,272.36169529998733,272.66383479999786,272.66383479999786,None,273.16315079999913,None,f,1,0.6592207999929087,273.16315079999913,None,None,None,273.8470576999971,None,,,,,,,,,,,,,,,,,,,,,12015,1,2,2024_Jun_22_1924,stroop_task_switching2_b,2021.2.3,59.930624306050014,
condition/block_word_b,instruction/instr_word,instruction/i9_b,黄,white,f,square,word_single,单词,0.9493525498837774,,,,,,,,,,0,1,1,1,0,0,0,0,0,23,23,23,,,,,,,,,,,,,,,,,,,,,,,,,,,,,,,,,,,274.84863989999576,275.0497366999916,275.03273629999603,275.3333580999897,275.3333580999897,None,275.8334090999997,None,f,1,0.7181649999984074,275.8334090999997,None,None,None,276.5681997999927,None,,,,,,,,,,,,,,,,,,,,,12015,1,2,2024_Jun_22_1924,stroop_task_switching2_b,2021.2.3,59.930624306050014,
condition/block_word_b,instruction/instr_word,instruction/i9_b,,,,,,,,,,,,,,,,,0,1,1,1,0,0,0,0,,,,,,,,,,,,,,,,,,,,,,,,,,,,,,,,,,,,,,,,,,,,,,,,,,,,,,,,277.5691913999908,None,space,2.3766111000004457,277.5691913999908,None,,,,,,,,,,,,,,,12015,1,2,2024_Jun_22_1924,stroop_task_switching2_b,2021.2.3,59.930624306050014,
condition/block_word_b,instruction/instr_word,instruction/i9_b,,,,,,,,,,,,,,,,,0,1,1,1,,,,,,,,,,,,,,,,,,,,,,,,,,,,,,,,,,,,,,,,,,,,,,,,,,,,,,,,,,,,,,,,,,,,,,,,,,,,,,,,12015,1,2,2024_Jun_22_1924,stroop_task_switching2_b,2021.2.3,59.930624306050014,
condition/block_mixed_b,instruction/instr_mixed,instruction/i10_b,蓝,red,k,diamond,color_mix,颜色,,incompatible,0,,,,,,,,0,2,2,2,0,0,0,0,0,0,0,0,,,,,,,,,,,,,,,,,,,,,280.0074836999993,None,space,11.773047499998938,280.0074836999993,None,292.8092217999947,293.8115320999932,293.8115320999932,294.81396239998867,294.81396239998867,None,291.8251270999899,292.8264911999868,295.8476099999971,296.04872109999997,296.0306595999864,296.33142029999,296.33142029999,None,296.8153769999917,None,k,1,2.6718041999993147,296.8153769999917,None,None,None,299.5359219999955,None,,,,,,,,,,,,,,,,,,,,,12015,1,2,2024_Jun_22_1924,stroop_task_switching2_b,2021.2.3,59.930624306050014,
condition/block_mixed_b,instruction/instr_mixed,instruction/i10_b,绿,yellow,f,diamond,color_mix,颜色,,incompatible,1,,,,,,,,0,2,2,2,0,0,0,0,0,1,1,1,,,,,,,,,,,,,,,,,,,,,,,,,,,,,,,,,,,300.52085179999995,300.72201559999667,300.70483849999437,301.0052719999949,301.0052719999949,None,301.50558849998924,None,d,0,2.2059042000037152,301.50558849998924,None,None,None,303.7592573999864,None,,,,,,,,,,,,,,,,,,,,,12015,1,2,2024_Jun_22_1924,stroop_task_switching2_b,2021.2.3,59.930624306050014,
condition/block_mixed_b,instruction/instr_mixed,instruction/i10_b,红,green,d,diamond,color_mix,颜色,,incompatible,1,,,,,,,,0,2,2,2,0,0,0,0,0,2,2,2,,,,,,,,,,,,,,,,,,,,,,,,,,,,,,,,,,,304.76105709999683,304.96132729999954,304.9441694999987,305.2455151999893,305.2278540999978,None,305.72857309998653,None,k,0,1.8156657999934396,305.72857309998653,None,None,None,307.5646526999917,None,,,,,,,,,,,,,,,,,,,,,12015,1,2,2024_Jun_22_1924,stroop_task_switching2_b,2021.2.3,59.930624306050014,
condition/block_mixed_b,instruction/instr_mixed,instruction/i10_b,蓝,red,k,diamond,color_mix,颜色,,incompatible,1,,,,,,,,0,2,2,2,0,0,0,0,0,3,3,3,,,,,,,,,,,,,,,,,,,,,,,,,,,,,,,,,,,308.56665129998873,308.76766569999745,308.75013559999934,309.05067539999436,309.05067539999436,None,309.55121879999933,312.5572637999867,None,0,,309.55121879999933,312.5572637999867,312.5389686999988,None,313.13999749999493,None,,,,,,,,,,,,,,,,,,,,,12015,1,2,2024_Jun_22_1924,stroop_task_switching2_b,2021.2.3,59.930624306050014,
condition/block_mixed_b,instruction/instr_mixed,instruction/i10_b,红,blue,j,diamond,color_mix,颜色,,incompatible,1,,,,,,,,0,2,2,2,0,0,0,0,0,4,4,4,,,,,,,,,,,,,,,,,,,,,,,,,,,,,,,,,,,314.1417902999965,314.34407959999226,314.3257527999958,314.62573939999857,314.62573939999857,None,315.1263174999913,None,j,1,2.4655676999973366,315.1263174999913,None,None,None,317.61336829999345,None,,,,,,,,,,,,,,,,,,,,,12015,1,2,2024_Jun_22_1924,stroop_task_switching2_b,2021.2.3,59.930624306050014,
condition/block_mixed_b,instruction/instr_mixed,instruction/i10_b,红,blue,k,square,color_mix,单词,,incompatible,2,,,,,,,,0,2,2,2,0,0,0,0,0,5,5,5,,,,,,,,,,,,,,,,,,,,,,,,,,,,,,,,,,,318.61497289998806,318.81519569999364,318.7982032,319.10013019999315,319.10013019999315,None,319.5999809999921,None,k,1,1.1519005999871297,319.5999809999921,None,None,None,320.7680990999943,None,,,,,,,,,,,,,,,,,,,,,12015,1,2,2024_Jun_22_1924,stroop_task_switching2_b,2021.2.3,59.930624306050014,
condition/block_mixed_b,instruction/instr_mixed,instruction/i10_b,红,yellow,f,diamond,color_mix,颜色,,incompatible,2,,,,,,,,0,2,2,2,0,0,0,0,0,6,6,6,,,,,,,,,,,,,,,,,,,,,,,,,,,,,,,,,,,321.7699558999884,321.9698788999958,321.95324259999325,322.25477529999625,322.25477529999625,None,322.75420649998705,None,f,1,1.1418735999905039,322.75420649998705,None,None,None,323.92272999999113,None,,,,,,,,,,,,,,,,,,,,,12015,1,2,2024_Jun_22_1924,stroop_task_switching2_b,2021.2.3,59.930624306050014,
condition/block_mixed_b,instruction/instr_mixed,instruction/i10_b,红,yellow,k,square,color_mix,单词,,incompatible,2,,,,,,,,0,2,2,2,0,0,0,0,0,7,7,7,,,,,,,,,,,,,,,,,,,,,,,,,,,,,,,,,,,324.9246174999862,325.1246318999911,325.1079427999939,325.40867209999124,325.40867209999124,None,325.9094112999883,None,f,0,2.4193592999945395,325.9094112999883,None,None,None,328.3460885999957,None,,,,,,,,,,,,,,,,,,,,,12015,1,2,2024_Jun_22_1924,stroop_task_switching2_b,2021.2.3,59.930624306050014,
condition/block_mixed_b,instruction/instr_mixed,instruction/i10_b,绿,blue,d,square,color_mix,单词,,incompatible,1,,,,,,,,0,2,2,2,0,0,0,0,0,8,8,8,,,,,,,,,,,,,,,,,,,,,,,,,,,,,,,,,,,329.3477021999861,329.54892389998713,329.531470899994,329.8319451999996,329.8319451999996,None,330.33266059999005,None,j,0,1.6757712999969954,330.33266059999005,None,None,None,332.03536399999575,None,,,,,,,,,,,,,,,,,,,,,12015,1,2,2024_Jun_22_1924,stroop_task_switching2_b,2021.2.3,59.930624306050014,
condition/block_mixed_b,instruction/instr_mixed,instruction/i10_b,蓝,green,d,diamond,color_mix,颜色,,incompatible,2,,,,,,,,0,2,2,2,0,0,0,0,0,9,9,9,,,,,,,,,,,,,,,,,,,,,,,,,,,,,,,,,,,333.0364211999986,333.23811719998776,333.2207214999944,333.5207037999935,333.5207037999935,None,334.02173709998897,None,d,1,1.8359940999944229,334.02173709998897,None,None,None,335.87413129999186,None,,,,,,,,,,,,,,,,,,,,,12015,1,2,2024_Jun_22_1924,stroop_task_switching2_b,2021.2.3,59.930624306050014,
condition/block_mixed_b,instruction/instr_mixed,instruction/i10_b,蓝,yellow,j,square,color_mix,单词,,incompatible,2,,,,,,,,0,2,2,2,0,0,0,0,0,10,10,10,,,,,,,,,,,,,,,,,,,,,,,,,,,,,,,,,,,336.8757285999891,337.0771323999943,337.0593554999941,337.36102549999487,337.36102549999487,None,337.86087719998613,None,j,1,1.5237376000004588,337.86087719998613,None,None,None,339.4128813999996,None,,,,,,,,,,,,,,,,,,,,,12015,1,2,2024_Jun_22_1924,stroop_task_switching2_b,2021.2.3,59.930624306050014,
condition/block_mixed_b,instruction/instr_mixed,instruction/i10_b,蓝,green,j,square,color_mix,单词,,incompatible,1,,,,,,,,0,2,2,2,0,0,0,0,0,11,11,11,,,,,,,,,,,,,,,,,,,,,,,,,,,,,,,,,,,340.41443839999556,340.6159469999984,340.5985573999933,340.89878289999615,340.89878289999615,None,341.3996797,None,j,1,0.849297500011744,341.3996797,None,None,None,342.26702029998705,None,,,,,,,,,,,,,,,,,,,,,12015,1,2,2024_Jun_22_1924,stroop_task_switching2_b,2021.2.3,59.930624306050014,
condition/block_mixed_b,instruction/instr_mixed,instruction/i10_b,绿,yellow,d,square,color_mix,单词,,incompatible,1,,,,,,,,0,2,2,2,0,0,0,0,0,12,12,12,,,,,,,,,,,,,,,,,,,,,,,,,,,,,,,,,,,343.26866119999613,343.46883899999375,343.45329609999317,343.7540286999865,343.7540286999865,None,344.2535346999939,None,d,1,1.1389993999910075,344.2535346999939,None,None,None,345.42165699999896,None,,,,,,,,,,,,,,,,,,,,,12015,1,2,2024_Jun_22_1924,stroop_task_switching2_b,2021.2.3,59.930624306050014,
condition/block_mixed_b,instruction/instr_mixed,instruction/i10_b,绿,blue,j,diamond,color_mix,颜色,,incompatible,2,,,,,,,,0,2,2,2,0,0,0,0,0,13,13,13,,,,,,,,,,,,,,,,,,,,,,,,,,,,,,,,,,,346.42379939999955,346.6248751999956,346.60762859998795,346.9075187999988,346.9075187999988,None,347.40811789999134,None,k,0,2.1928466000099434,347.40811789999134,None,None,None,349.6282775999862,None,,,,,,,,,,,,,,,,,,,,,12015,1,2,2024_Jun_22_1924,stroop_task_switching2_b,2021.2.3,59.930624306050014,
condition/block_mixed_b,instruction/instr_mixed,instruction/i10_b,黄,red,f,square,color_mix,单词,,incompatible,2,,,,,,,,0,2,2,2,0,0,0,0,0,14,14,14,,,,,,,,,,,,,,,,,,,,,,,,,,,,,,,,,,,350.6302432999946,350.83141699999396,350.81403289998707,351.11391979998734,351.11391979998734,None,351.6148913999932,None,k,0,1.6098968999867793,351.6148913999932,None,None,None,353.2502567999909,None,,,,,,,,,,,,,,,,,,,,,12015,1,2,2024_Jun_22_1924,stroop_task_switching2_b,2021.2.3,59.930624306050014,
condition/block_mixed_b,instruction/instr_mixed,instruction/i10_b,蓝,yellow,f,diamond,color_mix,颜色,,incompatible,2,,,,,,,,0,2,2,2,0,0,0,0,0,15,15,15,,,,,,,,,,,,,,,,,,,,,,,,,,,,,,,,,,,354.25232569999935,354.45323989998724,354.436005999989,354.73593709999113,354.73593709999113,None,355.23692249998567,None,f,1,1.3008393000054639,355.23692249998567,None,None,None,356.5553169999912,None,,,,,,,,,,,,,,,,,,,,,12015,1,2,2024_Jun_22_1924,stroop_task_switching2_b,2021.2.3,59.930624306050014,
condition/block_mixed_b,instruction/instr_mixed,instruction/i10_b,黄,red,k,diamond,color_mix,颜色,,incompatible,1,,,,,,,,0,2,2,2,0,0,0,0,0,16,16,16,,,,,,,,,,,,,,,,,,,,,,,,,,,,,,,,,,,357.5574087999994,357.7590497999918,357.7411582999921,358.0416342999961,358.0416342999961,None,358.5416955999972,None,k,1,0.8914834000024712,358.5416955999972,None,None,None,359.45979519998946,None,,,,,,,,,,,,,,,,,,,,,12015,1,2,2024_Jun_22_1924,stroop_task_switching2_b,2021.2.3,59.930624306050014,
condition/block_mixed_b,instruction/instr_mixed,instruction/i10_b,绿,red,d,square,color_mix,单词,,incompatible,2,,,,,,,,0,2,2,2,0,0,0,0,0,17,17,17,,,,,,,,,,,,,,,,,,,,,,,,,,,,,,,,,,,360.4613105999888,360.6630899999873,360.64517639999394,360.9466798999929,360.9466798999929,None,361.4464527999953,None,d,1,2.820550100004766,361.4464527999953,None,None,None,364.2836677999876,None,,,,,,,,,,,,,,,,,,,,,12015,1,2,2024_Jun_22_1924,stroop_task_switching2_b,2021.2.3,59.930624306050014,
condition/block_mixed_b,instruction/instr_mixed,instruction/i10_b,红,green,k,square,color_mix,单词,,incompatible,1,,,,,,,,0,2,2,2,0,0,0,0,0,18,18,18,,,,,,,,,,,,,,,,,,,,,,,,,,,,,,,,,,,365.2853107999981,365.48739489998843,365.46913759999734,365.77034669999557,365.77034669999557,None,366.2703402999905,None,k,1,0.7950539999874309,366.2703402999905,None,None,None,367.088336899993,None,,,,,,,,,,,,,,,,,,,,,12015,1,2,2024_Jun_22_1924,stroop_task_switching2_b,2021.2.3,59.930624306050014,
condition/block_mixed_b,instruction/instr_mixed,instruction/i10_b,黄,blue,j,diamond,color_mix,颜色,,incompatible,2,,,,,,,,0,2,2,2,0,0,0,0,0,19,19,19,,,,,,,,,,,,,,,,,,,,,,,,,,,,,,,,,,,368.08937349999906,368.29058649999206,368.273349199997,368.5744782999973,368.5744782999973,None,369.0741909999924,None,j,1,1.6954353999899467,369.0741909999924,None,None,None,370.79366209999716,None,,,,,,,,,,,,,,,,,,,,,12015,1,2,2024_Jun_22_1924,stroop_task_switching2_b,2021.2.3,59.930624306050014,
condition/block_mixed_b,instruction/instr_mixed,instruction/i10_b,黄,green,d,diamond,color_mix,颜色,,incompatible,1,,,,,,,,0,2,2,2,0,0,0,0,0,20,20,20,,,,,,,,,,,,,,,,,,,,,,,,,,,,,,,,,,,371.7952423999959,371.99705079999694,371.9794366999995,372.27991219999967,372.27991219999967,None,372.7803494999971,None,d,1,1.3974205999984406,372.7803494999971,None,None,None,374.1990308999957,None,,,,,,,,,,,,,,,,,,,,,12015,1,2,2024_Jun_22_1924,stroop_task_switching2_b,2021.2.3,59.930624306050014,
condition/block_mixed_b,instruction/instr_mixed,instruction/i10_b,黄,green,f,square,color_mix,单词,,incompatible,2,,,,,,,,0,2,2,2,0,0,0,0,0,21,21,21,,,,,,,,,,,,,,,,,,,,,,,,,,,,,,,,,,,375.2016545999941,375.4016396999941,375.3843695999967,375.68545459999586,375.68545459999586,None,376.1854517999891,None,f,1,1.680249700002605,376.1854517999891,None,None,None,377.8876702999987,None,,,,,,,,,,,,,,,,,,,,,12015,1,2,2024_Jun_22_1924,stroop_task_switching2_b,2021.2.3,59.930624306050014,
condition/block_mixed_b,instruction/instr_mixed,instruction/i10_b,黄,blue,f,square,color_mix,单词,,incompatible,1,,,,,,,,0,2,2,2,0,0,0,0,0,22,22,22,,,,,,,,,,,,,,,,,,,,,,,,,,,,,,,,,,,378.889565999998,379.0897627999948,379.0736790999945,379.3733164999867,379.3733164999867,None,379.8741530999978,None,f,1,1.8155129999940982,379.8741530999978,None,None,None,381.71021889999975,None,,,,,,,,,,,,,,,,,,,,,12015,1,2,2024_Jun_22_1924,stroop_task_switching2_b,2021.2.3,59.930624306050014,
condition/block_mixed_b,instruction/instr_mixed,instruction/i10_b,蓝,red,j,square,color_mix,单词,,incompatible,1,,,,,,,,0,2,2,2,0,0,0,0,0,23,23,23,,,,,,,,,,,,,,,,,,,,,,,,,,,,,,,,,,,382.71192119999614,382.9117714999884,382.89571119999164,383.1956532999902,383.1956532999902,None,383.6967217999918,None,j,1,2.7539799000078347,383.6967217999918,None,None,None,386.46714949999296,None,,,,,,,,,,,,,,,,,,,,,12015,1,2,2024_Jun_22_1924,stroop_task_switching2_b,2021.2.3,59.930624306050014,
condition/block_mixed_b,instruction/instr_mixed,instruction/i10_b,绿,red,k,diamond,color_mix,颜色,,incompatible,2,,,,,,,,0,2,2,2,0,0,0,0,0,24,24,24,,,,,,,,,,,,,,,,,,,,,,,,,,,,,,,,,,,387.469514899989,387.6700843999861,387.6524150999903,387.95427079999354,387.95427079999354,None,388.45357479999075,None,k,1,2.7326891999982763,388.45357479999075,None,None,None,391.20805239999027,None,,,,,,,,,,,,,,,,,,,,,12015,1,2,2024_Jun_22_1924,stroop_task_switching2_b,2021.2.3,59.930624306050014,
condition/block_mixed_b,instruction/instr_mixed,instruction/i10_b,绿,green,d,diamond,color_mix,颜色,,compatible,1,,,,,,,,0,2,2,2,0,0,0,0,0,25,25,25,,,,,,,,,,,,,,,,,,,,,,,,,,,,,,,,,,,392.2098379999952,392.4112923999928,392.3933823999978,392.69350329998997,392.69350329998997,None,393.19469919998664,None,d,1,0.9195296999969287,393.19469919998664,None,None,None,394.1456562999956,None,,,,,,,,,,,,,,,,,,,,,12015,1,2,2024_Jun_22_1924,stroop_task_switching2_b,2021.2.3,59.930624306050014,
condition/block_mixed_b,instruction/instr_mixed,instruction/i10_b,蓝,blue,j,diamond,color_mix,颜色,,compatible,1,,,,,,,,0,2,2,2,0,0,0,0,0,26,26,26,,,,,,,,,,,,,,,,,,,,,,,,,,,,,,,,,,,395.14739149999514,395.3478257999959,395.3306687999866,395.6311130999966,395.6311130999966,None,396.13169959999504,None,j,1,1.15892580000218,396.13169959999504,None,None,None,397.3170209999953,None,,,,,,,,,,,,,,,,,,,,,12015,1,2,2024_Jun_22_1924,stroop_task_switching2_b,2021.2.3,59.930624306050014,
condition/block_mixed_b,instruction/instr_mixed,instruction/i10_b,绿,green,d,square,color_mix,单词,,compatible,2,,,,,,,,0,2,2,2,0,0,0,0,0,27,27,27,,,,,,,,,,,,,,,,,,,,,,,,,,,,,,,,,,,398.31851889999234,398.51929109999037,398.5031311999919,398.80318579998857,398.80318579998857,None,399.3034873999859,None,d,1,1.0353163999971002,399.3034873999859,None,None,None,400.3547363999969,None,,,,,,,,,,,,,,,,,,,,,12015,1,2,2024_Jun_22_1924,stroop_task_switching2_b,2021.2.3,59.930624306050014,
condition/block_mixed_b,instruction/instr_mixed,instruction/i10_b,绿,green,d,square,color_mix,单词,,compatible,1,,,,,,,,0,2,2,2,0,0,0,0,0,28,28,28,,,,,,,,,,,,,,,,,,,,,,,,,,,,,,,,,,,401.3565612999955,401.55713649999234,401.5408121999935,401.84189119999064,401.84189119999064,None,402.34158559999196,None,d,1,1.0693005999928573,402.34158559999196,None,None,None,403.42625039999257,None,,,,,,,,,,,,,,,,,,,,,12015,1,2,2024_Jun_22_1924,stroop_task_switching2_b,2021.2.3,59.930624306050014,
condition/block_mixed_b,instruction/instr_mixed,instruction/i10_b,蓝,blue,j,square,color_mix,单词,,compatible,1,,,,,,,,0,2,2,2,0,0,0,0,0,29,29,29,,,,,,,,,,,,,,,,,,,,,,,,,,,,,,,,,,,404.42805869999574,404.62947479999275,404.6115693999891,404.9136940999888,404.9136940999888,None,405.412854299997,None,j,1,1.4777391999959946,405.412854299997,None,None,None,406.9154181999911,None,,,,,,,,,,,,,,,,,,,,,12015,1,2,2024_Jun_22_1924,stroop_task_switching2_b,2021.2.3,59.930624306050014,
condition/block_mixed_b,instruction/instr_mixed,instruction/i10_b,黄,yellow,f,diamond,color_mix,颜色,,compatible,2,,,,,,,,0,2,2,2,0,0,0,0,0,30,30,30,,,,,,,,,,,,,,,,,,,,,,,,,,,,,,,,,,,407.9170260999963,408.1175729999959,408.09987769999134,408.40143599998555,408.40143599998555,None,408.90154849999817,None,f,1,1.1731166999961715,408.90154849999817,None,None,None,410.10303399999975,None,,,,,,,,,,,,,,,,,,,,,12015,1,2,2024_Jun_22_1924,stroop_task_switching2_b,2021.2.3,59.930624306050014,
condition/block_mixed_b,instruction/instr_mixed,instruction/i10_b,绿,green,d,square,color_mix,单词,,compatible,2,,,,,,,,0,2,2,2,0,0,0,0,0,31,31,31,,,,,,,,,,,,,,,,,,,,,,,,,,,,,,,,,,,411.1044600999885,411.30544669998926,411.28837779999594,411.5891391999903,411.5891391999903,None,412.08913239999674,None,d,1,0.9294213999964995,412.08913239999674,None,None,None,413.04064929999004,None,,,,,,,,,,,,,,,,,,,,,12015,1,2,2024_Jun_22_1924,stroop_task_switching2_b,2021.2.3,59.930624306050014,
condition/block_mixed_b,instruction/instr_mixed,instruction/i10_b,黄,yellow,f,square,color_mix,单词,,compatible,1,,,,,,,,0,2,2,2,0,0,0,0,0,32,32,32,,,,,,,,,,,,,,,,,,,,,,,,,,,,,,,,,,,414.0423457999859,414.2446024999954,414.22605709999334,414.52729949999775,414.52729949999775,None,415.0275371999887,None,f,1,1.743357700004708,415.0275371999887,None,None,None,416.7967205999885,None,,,,,,,,,,,,,,,,,,,,,12015,1,2,2024_Jun_22_1924,stroop_task_switching2_b,2021.2.3,59.930624306050014,
condition/block_mixed_b,instruction/instr_mixed,instruction/i10_b,绿,green,d,diamond,color_mix,颜色,,compatible,2,,,,,,,,0,2,2,2,0,0,0,0,0,33,33,33,,,,,,,,,,,,,,,,,,,,,,,,,,,,,,,,,,,417.798094999991,417.99952239998674,417.98219059999974,418.28200389999256,418.28200389999256,None,418.7830917999963,None,d,1,0.5802098000131082,418.7830917999963,None,None,None,419.3836753999931,None,,,,,,,,,,,,,,,,,,,,,12015,1,2,2024_Jun_22_1924,stroop_task_switching2_b,2021.2.3,59.930624306050014,
condition/block_mixed_b,instruction/instr_mixed,instruction/i10_b,红,red,k,square,color_mix,单词,,compatible,2,,,,,,,,0,2,2,2,0,0,0,0,0,34,34,34,,,,,,,,,,,,,,,,,,,,,,,,,,,,,,,,,,,420.3851055999985,420.586475899996,420.56912379999994,420.8697375999909,420.8697375999909,None,421.37060499998915,None,k,1,1.5203679999976885,421.37060499998915,None,None,None,422.92235089998576,None,,,,,,,,,,,,,,,,,,,,,12015,1,2,2024_Jun_22_1924,stroop_task_switching2_b,2021.2.3,59.930624306050014,
condition/block_mixed_b,instruction/instr_mixed,instruction/i10_b,黄,yellow,f,square,color_mix,单词,,compatible,1,,,,,,,,0,2,2,2,0,0,0,0,0,35,35,35,,,,,,,,,,,,,,,,,,,,,,,,,,,,,,,,,,,423.92414659999486,424.12432519999857,424.1078434999945,424.40820949999033,424.40820949999033,None,424.9086105999886,None,f,1,1.0624161000014283,424.9086105999886,None,None,None,425.9938662999921,None,,,,,,,,,,,,,,,,,,,,,12015,1,2,2024_Jun_22_1924,stroop_task_switching2_b,2021.2.3,59.930624306050014,
condition/block_mixed_b,instruction/instr_mixed,instruction/i10_b,绿,green,d,diamond,color_mix,颜色,,compatible,2,,,,,,,,0,2,2,2,0,0,0,0,0,36,36,36,,,,,,,,,,,,,,,,,,,,,,,,,,,,,,,,,,,426.99512109998614,427.1965182999993,427.17901579999307,427.4802651999926,427.4802651999926,None,427.98051699998905,None,d,1,0.5990224999986822,427.98051699998905,None,None,None,428.5975533999881,None,,,,,,,,,,,,,,,,,,,,,12015,1,2,2024_Jun_22_1924,stroop_task_switching2_b,2021.2.3,59.930624306050014,
condition/block_mixed_b,instruction/instr_mixed,instruction/i10_b,蓝,blue,j,square,color_mix,单词,,compatible,2,,,,,,,,0,2,2,2,0,0,0,0,0,37,37,37,,,,,,,,,,,,,,,,,,,,,,,,,,,,,,,,,,,429.5995236999879,429.8003930999985,429.7827535999968,430.0844503999979,430.0844503999979,None,430.5841664999898,None,j,1,0.9391977000050247,430.5841664999898,None,None,None,431.55186979999417,None,,,,,,,,,,,,,,,,,,,,,12015,1,2,2024_Jun_22_1924,stroop_task_switching2_b,2021.2.3,59.930624306050014,
condition/block_mixed_b,instruction/instr_mixed,instruction/i10_b,红,red,k,square,color_mix,单词,,compatible,1,,,,,,,,0,2,2,2,0,0,0,0,0,38,38,38,,,,,,,,,,,,,,,,,,,,,,,,,,,,,,,,,,,432.5539179999905,432.7538965999993,432.7378067999962,433.03884099998686,433.03884099998686,None,433.5383476999996,None,k,1,0.9773414999945089,433.5383476999996,None,None,None,434.5397433999897,None,,,,,,,,,,,,,,,,,,,,,12015,1,2,2024_Jun_22_1924,stroop_task_switching2_b,2021.2.3,59.930624306050014,
condition/block_mixed_b,instruction/instr_mixed,instruction/i10_b,黄,yellow,f,diamond,color_mix,颜色,,compatible,2,,,,,,,,0,2,2,2,0,0,0,0,0,39,39,39,,,,,,,,,,,,,,,,,,,,,,,,,,,,,,,,,,,435.5414652999898,435.74222539999755,435.7261834999954,436.0267232999904,436.0267232999904,None,436.5264070999983,None,f,1,0.9092758999904618,436.5264070999983,None,None,None,437.4610965999891,None,,,,,,,,,,,,,,,,,,,,,12015,1,2,2024_Jun_22_1924,stroop_task_switching2_b,2021.2.3,59.930624306050014,
condition/block_mixed_b,instruction/instr_mixed,instruction/i10_b,黄,yellow,f,square,color_mix,单词,,compatible,2,,,,,,,,0,2,2,2,0,0,0,0,0,40,40,40,,,,,,,,,,,,,,,,,,,,,,,,,,,,,,,,,,,438.4625695999857,438.6639301999967,438.6461857999966,438.9473730999889,438.9473730999889,None,439.4471840999904,None,f,1,0.8922546999965562,439.4471840999904,None,None,None,440.36518879998766,None,,,,,,,,,,,,,,,,,,,,,12015,1,2,2024_Jun_22_1924,stroop_task_switching2_b,2021.2.3,59.930624306050014,
condition/block_mixed_b,instruction/instr_mixed,instruction/i10_b,蓝,blue,j,square,color_mix,单词,,compatible,1,,,,,,,,0,2,2,2,0,0,0,0,0,41,41,41,,,,,,,,,,,,,,,,,,,,,,,,,,,,,,,,,,,441.3672634999966,441.567599099988,441.5520680999907,441.8521155999915,441.8521155999915,None,442.3521262999857,None,j,1,1.5318185999931302,442.3521262999857,None,None,None,443.9042596999934,None,,,,,,,,,,,,,,,,,,,,,12015,1,2,2024_Jun_22_1924,stroop_task_switching2_b,2021.2.3,59.930624306050014,
condition/block_mixed_b,instruction/instr_mixed,instruction/i10_b,蓝,blue,j,diamond,color_mix,颜色,,compatible,2,,,,,,,,0,2,2,2,0,0,0,0,0,42,42,42,,,,,,,,,,,,,,,,,,,,,,,,,,,,,,,,,,,444.9059383999993,445.1069327999867,445.08981119999953,445.3895298999996,445.3895298999996,None,445.8902281999908,None,j,1,0.6017738999944413,445.8902281999908,None,None,None,446.5083176999906,None,,,,,,,,,,,,,,,,,,,,,12015,1,2,2024_Jun_22_1924,stroop_task_switching2_b,2021.2.3,59.930624306050014,
condition/block_mixed_b,instruction/instr_mixed,instruction/i10_b,黄,yellow,f,diamond,color_mix,颜色,,compatible,1,,,,,,,,0,2,2,2,0,0,0,0,0,43,43,43,,,,,,,,,,,,,,,,,,,,,,,,,,,,,,,,,,,447.50975479999033,447.7112679999991,447.6935993999941,447.99411979998695,447.99411979998695,None,448.4945916999859,None,f,1,0.9092882000113605,448.4945916999859,None,None,None,449.4290434999857,None,,,,,,,,,,,,,,,,,,,,,12015,1,2,2024_Jun_22_1924,stroop_task_switching2_b,2021.2.3,59.930624306050014,
condition/block_mixed_b,instruction/instr_mixed,instruction/i10_b,红,red,k,diamond,color_mix,颜色,,compatible,1,,,,,,,,0,2,2,2,0,0,0,0,0,44,44,44,,,,,,,,,,,,,,,,,,,,,,,,,,,,,,,,,,,450.43037089999416,450.6313811,450.6153278999991,450.916229399998,450.916229399998,None,451.41539649998595,None,k,1,0.7007409000070766,451.41539649998595,None,None,None,452.1333651999885,None,,,,,,,,,,,,,,,,,,,,,12015,1,2,2024_Jun_22_1924,stroop_task_switching2_b,2021.2.3,59.930624306050014,
condition/block_mixed_b,instruction/instr_mixed,instruction/i10_b,蓝,blue,j,diamond,color_mix,颜色,,compatible,1,,,,,,,,0,2,2,2,0,0,0,0,0,45,45,45,,,,,,,,,,,,,,,,,,,,,,,,,,,,,,,,,,,453.1353134999954,453.3349210999877,453.318457699992,453.6201430999936,453.6201430999936,None,454.11947549998877,None,j,1,0.8685844999999972,454.11947549998877,None,None,None,455.0044705999899,None,,,,,,,,,,,,,,,,,,,,,12015,1,2,2024_Jun_22_1924,stroop_task_switching2_b,2021.2.3,59.930624306050014,
condition/block_mixed_b,instruction/instr_mixed,instruction/i10_b,红,red,k,diamond,color_mix,颜色,,compatible,1,,,,,,,,0,2,2,2,0,0,0,0,0,46,46,46,,,,,,,,,,,,,,,,,,,,,,,,,,,,,,,,,,,456.0056565999985,456.20671259998926,456.18931599998905,456.49105849998887,456.49105849998887,None,456.99082009999256,None,k,1,0.5896585000009509,456.99082009999256,None,None,None,457.608015299993,None,,,,,,,,,,,,,,,,,,,,,12015,1,2,2024_Jun_22_1924,stroop_task_switching2_b,2021.2.3,59.930624306050014,
condition/block_mixed_b,instruction/instr_mixed,instruction/i10_b,红,red,k,square,color_mix,单词,,compatible,2,,,,,,,,0,2,2,2,0,0,0,0,0,47,47,47,,,,,,,,,,,,,,,,,,,,,,,,,,,,,,,,,,,458.6095662999869,458.81157489999896,458.7936006999953,459.0948847999971,459.0948847999971,None,459.59496209998906,None,k,1,0.5690395999990869,459.59496209998906,None,None,None,460.1956813999859,None,,,,,,,,,,,,,,,,,,,,,12015,1,2,2024_Jun_22_1924,stroop_task_switching2_b,2021.2.3,59.930624306050014,
condition/block_mixed_b,instruction/instr_mixed,instruction/i10_b,红,red,k,diamond,color_mix,颜色,,compatible,2,,,,,,,,0,2,2,2,0,0,0,0,0,48,48,48,,,,,,,,,,,,,,,,,,,,,,,,,,,,,,,,,,,461.1973927999934,461.3983218999929,461.3811708999856,461.68222469999455,461.68222469999455,None,462.1814735999942,None,k,1,0.41538520000176504,462.1814735999942,None,None,None,462.61590779999096,None,,,,,,,,,,,,,,,,,,,,,12015,1,2,2024_Jun_22_1924,stroop_task_switching2_b,2021.2.3,59.930624306050014,
condition/block_mixed_b,instruction/instr_mixed,instruction/i10_b,,,,,,,,,,,,,,,,,0,2,2,2,0,0,0,0,,,,,,,,,,,,,,,,,,,,,,,,,,,,,,,,,,,,,,,,,,,,,,,,,,,,,,,,463.61667849999503,None,space,42.371004300002824,463.61667849999503,None,,,,,,,,,,,,,,,12015,1,2,2024_Jun_22_1924,stroop_task_switching2_b,2021.2.3,59.930624306050014,
condition/block_mixed_b,instruction/instr_mixed,instruction/i10_b,,,,,,,,,,,,,,,,,0,2,2,2,,,,,,,,,,,,,,,,,,,,,,,,,,,,,,,,,,,,,,,,,,,,,,,,,,,,,,,,,,,,,,,,,,,,,,,,,,,,,,,,12015,1,2,2024_Jun_22_1924,stroop_task_switching2_b,2021.2.3,59.930624306050014,
,,,红,red,k,square,color_mix,单词,,compatible,0,block_switch1_b,instruction/ready_test.png,instruction/i11.png,,,,,,,,,,,,,,,,,0,0,0,0,0,0,0,0,,,,,,,,,,,,,,,,,,,510.03728489999776,511.0393128999858,511.0393128999858,512.0406802999933,512.0406802999933,None,509.05243539999356,510.0551526999916,513.0761185999872,513.2773234999913,513.2591354999895,513.5599928999873,513.5599928999873,None,514.0601721999992,None,k,1,1.233959599994705,514.0601721999992,None,None,None,,,,,,,,,506.0473512999888,None,space,2.9742447000026004,506.0473512999888,None,,,,,,,,,12015,1,2,2024_Jun_22_1924,stroop_task_switching2_b,2021.2.3,59.930624306050014,
,,,绿,green,d,diamond,color_mix,颜色,,compatible,2,block_switch1_b,instruction/ready_test.png,instruction/i11.png,,,,,,,,,,,,,,,,,0,0,0,0,0,1,1,1,,,,,,,,,,,,,,,,,,,,,,,,,,,515.3455112999945,515.5467308999941,515.4962736999878,515.7975133999862,515.7975133999862,None,516.2967386999953,None,d,1,0.9495936000021175,516.2967386999953,None,None,None,,,,,,,,,,,,,,,,,,,,,,,12015,1,2,2024_Jun_22_1924,stroop_task_switching2_b,2021.2.3,59.930624306050014,
,,,绿,yellow,f,diamond,color_mix,颜色,,incompatible,1,block_switch1_b,instruction/ready_test.png,instruction/i11.png,,,,,,,,,,,,,,,,,0,0,0,0,0,2,2,2,,,,,,,,,,,,,,,,,,,,,,,,,,,517.2649173999962,517.4664862999925,517.4490903999977,517.7498589999886,517.7498589999886,None,518.2501459999912,None,d,0,1.2195687999919755,518.2501459999912,None,None,None,,,,,,,,,,,,,,,,,,,,,,,12015,1,2,2024_Jun_22_1924,stroop_task_switching2_b,2021.2.3,59.930624306050014,
,,,蓝,blue,j,diamond,color_mix,颜色,,compatible,1,block_switch1_b,instruction/ready_test.png,instruction/i11.png,,,,,,,,,,,,,,,,,0,0,0,0,0,3,3,3,,,,,,,,,,,,,,,,,,,,,,,,,,,519.5183864999999,519.7195117999945,519.6868331999867,519.9857174999925,519.9857174999925,None,520.4863009999972,None,j,1,1.0481587999965996,520.4863009999972,None,None,None,,,,,,,,,,,,,,,,,,,,,,,12015,1,2,2024_Jun_22_1924,stroop_task_switching2_b,2021.2.3,59.930624306050014,
,,,绿,green,d,square,color_mix,单词,,compatible,2,block_switch1_b,instruction/ready_test.png,instruction/i11.png,,,,,,,,,,,,,,,,,0,0,0,0,0,4,4,4,,,,,,,,,,,,,,,,,,,,,,,,,,,521.5545733999897,521.7553373999981,521.7391169999901,522.0391346999968,522.0391346999968,None,522.5394455999922,None,d,1,0.8904776999988826,522.5394455999922,None,None,None,,,,,,,,,,,,,,,,,,,,,,,12015,1,2,2024_Jun_22_1924,stroop_task_switching2_b,2021.2.3,59.930624306050014,
,,,绿,blue,j,diamond,color_mix,颜色,,incompatible,2,block_switch1_b,instruction/ready_test.png,instruction/i11.png,,,,,,,,,,,,,,,,,0,0,0,0,0,5,5,5,,,,,,,,,,,,,,,,,,,,,,,,,,,523.4574495999987,523.6592022999976,523.6410284999874,523.9422618999961,523.9422618999961,None,524.4428630999901,None,j,1,1.5951747000071919,524.4428630999901,None,None,None,,,,,,,,,,,,,,,,,,,,,,,12015,1,2,2024_Jun_22_1924,stroop_task_switching2_b,2021.2.3,59.930624306050014,
,,,黄,red,f,square,color_mix,单词,,incompatible,2,block_switch1_b,instruction/ready_test.png,instruction/i11.png,,,,,,,,,,,,,,,,,0,0,0,0,0,6,6,6,,,,,,,,,,,,,,,,,,,,,,,,,,,526.0614216999966,526.2623909999966,526.2451707999862,526.5467786999943,526.5467786999943,None,527.0463084999938,None,f,1,1.2398936999961734,527.0463084999938,None,None,None,,,,,,,,,,,,,,,,,,,,,,,12015,1,2,2024_Jun_22_1924,stroop_task_switching2_b,2021.2.3,59.930624306050014,
,,,绿,green,d,square,color_mix,单词,,compatible,1,block_switch1_b,instruction/ready_test.png,instruction/i11.png,,,,,,,,,,,,,,,,,0,0,0,0,0,7,7,7,,,,,,,,,,,,,,,,,,,,,,,,,,,528.314953299996,528.5155809999997,528.4984361999959,528.7991672999924,528.7991672999924,None,529.2998566999886,None,d,1,0.7384406000055606,529.2998566999886,None,None,None,,,,,,,,,,,,,,,,,,,,,,,12015,1,2,2024_Jun_22_1924,stroop_task_switching2_b,2021.2.3,59.930624306050014,
,,,蓝,blue,j,square,color_mix,单词,,compatible,1,block_switch1_b,instruction/ready_test.png,instruction/i11.png,,,,,,,,,,,,,,,,,0,0,0,0,0,8,8,8,,,,,,,,,,,,,,,,,,,,,,,,,,,530.067395399994,530.2684471999964,530.2513761999871,530.5516355,530.5516355,None,531.0525869999983,None,j,1,0.7616291999875102,531.0525869999983,None,None,None,,,,,,,,,,,,,,,,,,,,,,,12015,1,2,2024_Jun_22_1924,stroop_task_switching2_b,2021.2.3,59.930624306050014,
,,,红,red,k,diamond,color_mix,颜色,,compatible,2,block_switch1_b,instruction/ready_test.png,instruction/i11.png,,,,,,,,,,,,,,,,,0,0,0,0,0,9,9,9,,,,,,,,,,,,,,,,,,,,,,,,,,,531.8367743999988,532.0372579999967,532.0211779999954,532.3211197999917,532.3211197999917,None,532.8216964999883,None,k,1,0.5607218999939505,532.8216964999883,None,None,None,,,,,,,,,,,,,,,,,,,,,,,12015,1,2,2024_Jun_22_1924,stroop_task_switching2_b,2021.2.3,59.930624306050014,
,,,黄,yellow,f,diamond,color_mix,颜色,,compatible,1,block_switch1_b,instruction/ready_test.png,instruction/i11.png,,,,,,,,,,,,,,,,,0,0,0,0,0,10,10,10,,,,,,,,,,,,,,,,,,,,,,,,,,,533.4058045999991,533.6077452999889,533.5902243999881,533.8906830999913,533.8906830999913,None,534.3909904999891,None,f,1,0.7752909000118962,534.3909904999891,None,None,None,,,,,,,,,,,,,,,,,,,,,,,12015,1,2,2024_Jun_22_1924,stroop_task_switching2_b,2021.2.3,59.930624306050014,
,,,绿,green,d,square,color_mix,单词,,compatible,2,block_switch1_b,instruction/ready_test.png,instruction/i11.png,,,,,,,,,,,,,,,,,0,0,0,0,0,11,11,11,,,,,,,,,,,,,,,,,,,,,,,,,,,535.191865899993,535.3929811999988,535.3761436999921,535.6771364999877,535.6771364999877,None,536.1770371999883,None,d,1,0.5574950000009267,536.1770371999883,None,None,None,,,,,,,,,,,,,,,,,,,,,,,12015,1,2,2024_Jun_22_1924,stroop_task_switching2_b,2021.2.3,59.930624306050014,
,,,红,red,k,diamond,color_mix,颜色,,compatible,2,block_switch1_b,instruction/ready_test.png,instruction/i11.png,,,,,,,,,,,,,,,,,0,0,0,0,0,12,12,12,,,,,,,,,,,,,,,,,,,,,,,,,,,536.7609660999879,536.9626107999939,536.944671099991,537.245763999992,537.245763999992,None,537.7457596999884,None,k,1,0.5975724999880185,537.7457596999884,None,None,None,,,,,,,,,,,,,,,,,,,,,,,12015,1,2,2024_Jun_22_1924,stroop_task_switching2_b,2021.2.3,59.930624306050014,
,,,红,red,k,diamond,color_mix,颜色,,compatible,1,block_switch1_b,instruction/ready_test.png,instruction/i11.png,,,,,,,,,,,,,,,,,0,0,0,0,0,13,13,13,,,,,,,,,,,,,,,,,,,,,,,,,,,538.3634609000001,538.5636543,538.5475158999907,538.8479723999917,538.8479723999917,None,539.3487764999882,None,k,1,0.6015778000000864,539.3487764999882,None,None,None,,,,,,,,,,,,,,,,,,,,,,,12015,1,2,2024_Jun_22_1924,stroop_task_switching2_b,2021.2.3,59.930624306050014,
,,,黄,yellow,f,square,color_mix,单词,,compatible,2,block_switch1_b,instruction/ready_test.png,instruction/i11.png,,,,,,,,,,,,,,,,,0,0,0,0,0,14,14,14,,,,,,,,,,,,,,,,,,,,,,,,,,,539.9656501999998,540.1672507999901,540.1499131999881,540.4507206999988,540.4507206999988,None,540.9509747999982,None,f,1,0.7756304999929853,540.9509747999982,None,None,None,,,,,,,,,,,,,,,,,,,,,,,12015,1,2,2024_Jun_22_1924,stroop_task_switching2_b,2021.2.3,59.930624306050014,
,,,红,green,d,diamond,color_mix,颜色,,incompatible,2,block_switch1_b,instruction/ready_test.png,instruction/i11.png,,,,,,,,,,,,,,,,,0,0,0,0,0,15,15,15,,,,,,,,,,,,,,,,,,,,,,,,,,,541.7520211999945,541.9523232999927,541.935999399997,542.2380116999993,542.2380116999993,None,542.7535512999893,None,d,1,1.044982199993683,542.7535512999893,None,None,None,,,,,,,,,,,,,,,,,,,,,,,12015,1,2,2024_Jun_22_1924,stroop_task_switching2_b,2021.2.3,59.930624306050014,
,,,蓝,red,k,diamond,color_mix,颜色,,incompatible,1,block_switch1_b,instruction/ready_test.png,instruction/i11.png,,,,,,,,,,,,,,,,,0,0,0,0,0,16,16,16,,,,,,,,,,,,,,,,,,,,,,,,,,,543.8223375999951,544.0222102999978,544.0051349999994,544.3058854999981,544.3058854999981,None,544.8069008999882,None,j,0,1.2399548000103096,544.8069008999882,None,None,None,,,,,,,,,,,,,,,,,,,,,,,12015,1,2,2024_Jun_22_1924,stroop_task_switching2_b,2021.2.3,59.930624306050014,
,,,黄,green,d,diamond,color_mix,颜色,,incompatible,1,block_switch1_b,instruction/ready_test.png,instruction/i11.png,,,,,,,,,,,,,,,,,0,0,0,0,0,17,17,17,,,,,,,,,,,,,,,,,,,,,,,,,,,546.0744888999907,546.2755840999889,546.2607170999981,546.5605877999915,546.5605877999915,None,547.0600425999874,None,d,1,1.1468404000042938,547.0600425999874,None,None,None,,,,,,,,,,,,,,,,,,,,,,,12015,1,2,2024_Jun_22_1924,stroop_task_switching2_b,2021.2.3,59.930624306050014,
,,,绿,green,d,diamond,color_mix,颜色,,compatible,1,block_switch1_b,instruction/ready_test.png,instruction/i11.png,,,,,,,,,,,,,,,,,0,0,0,0,0,18,18,18,,,,,,,,,,,,,,,,,,,,,,,,,,,548.2282554999983,548.4291622999881,548.4126749999996,548.7131440999947,548.7131440999947,None,549.2131002999959,None,d,1,0.7619704000098864,549.2131002999959,None,None,None,,,,,,,,,,,,,,,,,,,,,,,12015,1,2,2024_Jun_22_1924,stroop_task_switching2_b,2021.2.3,59.930624306050014,
,,,黄,red,k,diamond,color_mix,颜色,,incompatible,1,block_switch1_b,instruction/ready_test.png,instruction/i11.png,,,,,,,,,,,,,,,,,0,0,0,0,0,19,19,19,,,,,,,,,,,,,,,,,,,,,,,,,,,549.9976188999863,550.1981465999997,550.1820061999897,550.4829011999973,550.4829011999973,None,550.9825019999989,None,k,1,1.272627199999988,550.9825019999989,None,None,None,,,,,,,,,,,,,,,,,,,,,,,12015,1,2,2024_Jun_22_1924,stroop_task_switching2_b,2021.2.3,59.930624306050014,
,,,绿,yellow,d,square,color_mix,单词,,incompatible,2,block_switch1_b,instruction/ready_test.png,instruction/i11.png,,,,,,,,,,,,,,,,,0,0,0,0,0,20,20,20,,,,,,,,,,,,,,,,,,,,,,,,,,,552.2846447999909,552.4862074999983,552.468358099999,552.7694511999871,552.7694511999871,None,553.2697341999883,None,f,0,1.9371755000029225,553.2697341999883,None,None,None,,,,,,,,,,,,,,,,,,,,,,,12015,1,2,2024_Jun_22_1924,stroop_task_switching2_b,2021.2.3,59.930624306050014,
,,,绿,yellow,f,diamond,color_mix,颜色,,incompatible,2,block_switch1_b,instruction/ready_test.png,instruction/i11.png,,,,,,,,,,,,,,,,,0,0,0,0,0,21,21,21,,,,,,,,,,,,,,,,,,,,,,,,,,,555.2222786999919,555.4238093999884,555.4057393999974,555.7076003999973,555.7076003999973,None,556.207361599998,None,d,0,1.207608299999265,556.207361599998,None,None,None,,,,,,,,,,,,,,,,,,,,,,,12015,1,2,2024_Jun_22_1924,stroop_task_switching2_b,2021.2.3,59.930624306050014,
,,,绿,green,d,square,color_mix,单词,,compatible,2,block_switch1_b,instruction/ready_test.png,instruction/i11.png,,,,,,,,,,,,,,,,,0,0,0,0,0,22,22,22,,,,,,,,,,,,,,,,,,,,,,,,,,,557.4422286999907,557.6437498999876,557.626339999988,557.9268315999943,557.9268315999943,None,558.4272891999863,None,d,1,0.5238166999915848,558.4272891999863,None,None,None,,,,,,,,,,,,,,,,,,,,,,,12015,1,2,2024_Jun_22_1924,stroop_task_switching2_b,2021.2.3,59.930624306050014,
,,,红,red,k,square,color_mix,单词,,compatible,1,block_switch1_b,instruction/ready_test.png,instruction/i11.png,,,,,,,,,,,,,,,,,0,0,0,0,0,23,23,23,,,,,,,,,,,,,,,,,,,,,,,,,,,558.9779067999916,559.178537499989,559.163607999988,559.4630922999931,559.4630922999931,None,559.9629746999999,None,k,1,0.5404486000043107,559.9629746999999,None,None,None,,,,,,,,,,,,,,,,,,,,,,,12015,1,2,2024_Jun_22_1924,stroop_task_switching2_b,2021.2.3,59.930624306050014,
,,,黄,green,f,square,color_mix,单词,,incompatible,1,block_switch1_b,instruction/ready_test.png,instruction/i11.png,,,,,,,,,,,,,,,,,0,0,0,0,0,24,24,24,,,,,,,,,,,,,,,,,,,,,,,,,,,560.530371899993,560.7317435999867,560.7142097999895,561.0143735999882,561.0143735999882,None,561.5151288999914,None,f,1,0.9645593000022927,561.5151288999914,None,None,None,,,,,,,,,,,,,,,,,,,,,,,12015,1,2,2024_Jun_22_1924,stroop_task_switching2_b,2021.2.3,59.930624306050014,
,,,红,blue,k,square,color_mix,单词,,incompatible,1,block_switch1_b,instruction/ready_test.png,instruction/i11.png,,,,,,,,,,,,,,,,,0,0,0,0,0,25,25,25,,,,,,,,,,,,,,,,,,,,,,,,,,,562.4998450999992,562.7009808999865,562.6840741999913,562.9847064999922,562.9847064999922,None,563.4849883999996,None,j,0,0.8820700999931432,563.4849883999996,None,None,None,,,,,,,,,,,,,,,,,,,,,,,12015,1,2,2024_Jun_22_1924,stroop_task_switching2_b,2021.2.3,59.930624306050014,
,,,黄,yellow,f,square,color_mix,单词,,compatible,1,block_switch1_b,instruction/ready_test.png,instruction/i11.png,,,,,,,,,,,,,,,,,0,0,0,0,0,26,26,26,,,,,,,,,,,,,,,,,,,,,,,,,,,564.3861681999988,564.5879058999999,564.5698875999951,564.8700213999982,564.8700213999982,None,565.3711407999945,None,f,1,0.6684288999967976,565.3711407999945,None,None,None,,,,,,,,,,,,,,,,,,,,,,,12015,1,2,2024_Jun_22_1924,stroop_task_switching2_b,2021.2.3,59.930624306050014,
,,,蓝,green,j,square,color_mix,单词,,incompatible,1,block_switch1_b,instruction/ready_test.png,instruction/i11.png,,,,,,,,,,,,,,,,,0,0,0,0,0,27,27,27,,,,,,,,,,,,,,,,,,,,,,,,,,,566.0554836999945,566.2556437999883,566.2391056999913,566.5393361999886,566.5393361999886,None,567.0401610999979,None,d,0,0.5751386000047205,567.0401610999979,None,None,None,,,,,,,,,,,,,,,,,,,,,,,12015,1,2,2024_Jun_22_1924,stroop_task_switching2_b,2021.2.3,59.930624306050014,
,,,绿,green,d,diamond,color_mix,颜色,,compatible,2,block_switch1_b,instruction/ready_test.png,instruction/i11.png,,,,,,,,,,,,,,,,,0,0,0,0,0,28,28,28,,,,,,,,,,,,,,,,,,,,,,,,,,,567.6411366999964,567.8426401999895,567.825339899995,568.1255243999913,568.1255243999913,None,568.6264702999906,None,d,1,0.692812999986927,568.6264702999906,None,None,None,,,,,,,,,,,,,,,,,,,,,,,12015,1,2,2024_Jun_22_1924,stroop_task_switching2_b,2021.2.3,59.930624306050014,
,,,黄,blue,j,diamond,color_mix,颜色,,incompatible,1,block_switch1_b,instruction/ready_test.png,instruction/i11.png,,,,,,,,,,,,,,,,,0,0,0,0,0,29,29,29,,,,,,,,,,,,,,,,,,,,,,,,,,,569.3438238999952,569.5452069999883,569.5271820999915,569.8295803999936,569.8295803999936,None,570.3298591999919,None,j,1,0.7415231999912066,570.3298591999919,None,None,None,,,,,,,,,,,,,,,,,,,,,,,12015,1,2,2024_Jun_22_1924,stroop_task_switching2_b,2021.2.3,59.930624306050014,
,,,绿,green,d,diamond,color_mix,颜色,,compatible,1,block_switch1_b,instruction/ready_test.png,instruction/i11.png,,,,,,,,,,,,,,,,,0,0,0,0,0,30,30,30,,,,,,,,,,,,,,,,,,,,,,,,,,,571.0963570999884,571.2977251999982,571.2801564999972,571.5809441999882,571.5809441999882,None,572.0813554999913,None,d,1,0.7906576000095811,572.0813554999913,None,None,None,,,,,,,,,,,,,,,,,,,,,,,12015,1,2,2024_Jun_22_1924,stroop_task_switching2_b,2021.2.3,59.930624306050014,
,,,蓝,blue,j,square,color_mix,单词,,compatible,2,block_switch1_b,instruction/ready_test.png,instruction/i11.png,,,,,,,,,,,,,,,,,0,0,0,0,0,31,31,31,,,,,,,,,,,,,,,,,,,,,,,,,,,572.8993668999901,573.0998898999969,573.0842458999978,573.3835465999873,573.3835465999873,None,573.8835895999946,None,j,1,0.7403343000041787,573.8835895999946,None,None,None,,,,,,,,,,,,,,,,,,,,,,,12015,1,2,2024_Jun_22_1924,stroop_task_switching2_b,2021.2.3,59.930624306050014,
,,,红,red,k,square,color_mix,单词,,compatible,1,block_switch1_b,instruction/ready_test.png,instruction/i11.png,,,,,,,,,,,,,,,,,0,0,0,0,0,32,32,32,,,,,,,,,,,,,,,,,,,,,,,,,,,574.6518101999973,574.8520329999883,574.8365621999983,575.1365191999939,575.1365191999939,None,575.6367202999973,None,k,1,0.5868613000056939,575.6367202999973,None,None,None,,,,,,,,,,,,,,,,,,,,,,,12015,1,2,2024_Jun_22_1924,stroop_task_switching2_b,2021.2.3,59.930624306050014,
,,,红,green,k,square,color_mix,单词,,incompatible,1,block_switch1_b,instruction/ready_test.png,instruction/i11.png,,,,,,,,,,,,,,,,,0,0,0,0,0,33,33,33,,,,,,,,,,,,,,,,,,,,,,,,,,,576.2541944999975,576.4547309999907,576.4395492999902,576.7552013999957,576.7389740999934,None,577.238755399987,None,k,1,0.7528297999961069,577.238755399987,None,None,None,,,,,,,,,,,,,,,,,,,,,,,12015,1,2,2024_Jun_22_1924,stroop_task_switching2_b,2021.2.3,59.930624306050014,
,,,黄,yellow,f,diamond,color_mix,颜色,,compatible,2,block_switch1_b,instruction/ready_test.png,instruction/i11.png,,,,,,,,,,,,,,,,,0,0,0,0,0,34,34,34,,,,,,,,,,,,,,,,,,,,,,,,,,,578.0065825999918,578.2069333999971,578.1912570999993,578.4907227999938,578.4907227999938,None,578.9916455999919,None,f,1,0.6008165999955963,578.9916455999919,None,None,None,,,,,,,,,,,,,,,,,,,,,,,12015,1,2,2024_Jun_22_1924,stroop_task_switching2_b,2021.2.3,59.930624306050014,
,,,红,green,d,diamond,color_mix,颜色,,incompatible,1,block_switch1_b,instruction/ready_test.png,instruction/i11.png,,,,,,,,,,,,,,,,,0,0,0,0,0,35,35,35,,,,,,,,,,,,,,,,,,,,,,,,,,,579.6091793999949,579.810891199988,579.7930149999884,580.0944221999962,580.0944221999962,None,580.5942064999981,None,d,1,0.7180019999941578,580.5942064999981,None,None,None,,,,,,,,,,,,,,,,,,,,,,,12015,1,2,2024_Jun_22_1924,stroop_task_switching2_b,2021.2.3,59.930624306050014,
,,,黄,yellow,f,square,color_mix,单词,,compatible,2,block_switch1_b,instruction/ready_test.png,instruction/i11.png,,,,,,,,,,,,,,,,,0,0,0,0,0,36,36,36,,,,,,,,,,,,,,,,,,,,,,,,,,,581.328379899991,581.5298065999959,581.511950199987,581.812296499993,581.812296499993,None,582.3134593999857,None,f,1,1.182778899994446,582.3134593999857,None,None,None,,,,,,,,,,,,,,,,,,,,,,,12015,1,2,2024_Jun_22_1924,stroop_task_switching2_b,2021.2.3,59.930624306050014,
,,,蓝,blue,j,square,color_mix,单词,,compatible,1,block_switch1_b,instruction/ready_test.png,instruction/i11.png,,,,,,,,,,,,,,,,,0,0,0,0,0,37,37,37,,,,,,,,,,,,,,,,,,,,,,,,,,,583.5154329999932,583.7153701999923,583.6985263999959,584.0001682999864,584.0001682999864,None,584.500023399989,None,j,1,0.6919324999907985,584.500023399989,None,None,None,,,,,,,,,,,,,,,,,,,,,,,12015,1,2,2024_Jun_22_1924,stroop_task_switching2_b,2021.2.3,59.930624306050014,
,,,绿,red,k,diamond,color_mix,颜色,,incompatible,2,block_switch1_b,instruction/ready_test.png,instruction/i11.png,,,,,,,,,,,,,,,,,0,0,0,0,0,38,38,38,,,,,,,,,,,,,,,,,,,,,,,,,,,585.2177073999919,585.4180250999925,585.4033450999996,585.7190975999983,585.7017481999937,None,586.2030180999864,None,k,1,0.6053085000021383,586.2030180999864,None,None,None,,,,,,,,,,,,,,,,,,,,,,,12015,1,2,2024_Jun_22_1924,stroop_task_switching2_b,2021.2.3,59.930624306050014,
,,,黄,yellow,f,diamond,color_mix,颜色,,compatible,1,block_switch1_b,instruction/ready_test.png,instruction/i11.png,,,,,,,,,,,,,,,,,0,0,0,0,0,39,39,39,,,,,,,,,,,,,,,,,,,,,,,,,,,586.8367631999863,587.0374267999869,587.020583599995,587.3213538999989,587.3213538999989,None,587.8214092999988,None,f,1,0.794796200003475,587.8214092999988,None,None,None,,,,,,,,,,,,,,,,,,,,,,,12015,1,2,2024_Jun_22_1924,stroop_task_switching2_b,2021.2.3,59.930624306050014,
,,,红,blue,j,diamond,color_mix,颜色,,incompatible,1,block_switch1_b,instruction/ready_test.png,instruction/i11.png,,,,,,,,,,,,,,,,,0,0,0,0,0,40,40,40,,,,,,,,,,,,,,,,,,,,,,,,,,,588.6396004999988,588.8413994999864,588.8235498999857,589.1245899999922,589.1245899999922,None,589.624256799987,None,j,1,0.8405306000058772,589.624256799987,None,None,None,,,,,,,,,,,,,,,,,,,,,,,12015,1,2,2024_Jun_22_1924,stroop_task_switching2_b,2021.2.3,59.930624306050014,
,,,绿,blue,d,square,color_mix,单词,,incompatible,2,block_switch1_b,instruction/ready_test.png,instruction/i11.png,,,,,,,,,,,,,,,,,0,0,0,0,0,41,41,41,,,,,,,,,,,,,,,,,,,,,,,,,,,590.4921639999957,590.6934623999987,590.6764046999888,590.9764244999969,590.9764244999969,None,591.4771018999891,None,f,0,1.0271417000039946,591.4771018999891,None,None,None,,,,,,,,,,,,,,,,,,,,,,,12015,1,2,2024_Jun_22_1924,stroop_task_switching2_b,2021.2.3,59.930624306050014,
,,,蓝,blue,j,diamond,color_mix,颜色,,compatible,2,block_switch1_b,instruction/ready_test.png,instruction/i11.png,,,,,,,,,,,,,,,,,0,0,0,0,0,42,42,42,,,,,,,,,,,,,,,,,,,,,,,,,,,592.5286562999972,592.7296171999915,592.7123036999983,593.0140481999988,593.0140481999988,None,593.513248599993,None,j,1,0.983424100006232,593.513248599993,None,None,None,,,,,,,,,,,,,,,,,,,,,,,12015,1,2,2024_Jun_22_1924,stroop_task_switching2_b,2021.2.3,59.930624306050014,
,,,红,blue,k,square,color_mix,单词,,incompatible,2,block_switch1_b,instruction/ready_test.png,instruction/i11.png,,,,,,,,,,,,,,,,,0,0,0,0,0,43,43,43,,,,,,,,,,,,,,,,,,,,,,,,,,,594.5149309999979,594.7151946999948,594.7005067999999,595.0155044999992,595.0000736999937,None,595.4996893999923,None,f,0,0.8764735000004293,595.4996893999923,None,None,None,,,,,,,,,,,,,,,,,,,,,,,12015,1,2,2024_Jun_22_1924,stroop_task_switching2_b,2021.2.3,59.930624306050014,
,,,蓝,green,d,diamond,color_mix,颜色,,incompatible,2,block_switch1_b,instruction/ready_test.png,instruction/i11.png,,,,,,,,,,,,,,,,,0,0,0,0,0,44,44,44,,,,,,,,,,,,,,,,,,,,,,,,,,,596.4012194999959,596.6017675999901,596.5852023999905,596.8865954999928,596.8865954999928,None,597.3862112999923,None,d,1,1.0781931999954395,597.3862112999923,None,None,None,,,,,,,,,,,,,,,,,,,,,,,12015,1,2,2024_Jun_22_1924,stroop_task_switching2_b,2021.2.3,59.930624306050014,
,,,黄,yellow,f,square,color_mix,单词,,compatible,2,block_switch1_b,instruction/ready_test.png,instruction/i11.png,,,,,,,,,,,,,,,,,0,0,0,0,0,45,45,45,,,,,,,,,,,,,,,,,,,,,,,,,,,598.4875854999991,598.6893664999952,598.6720191999921,598.9725364999904,598.9725364999904,None,599.4728543999954,None,f,1,0.7434196999965934,599.4728543999954,None,None,None,,,,,,,,,,,,,,,,,,,,,,,12015,1,2,2024_Jun_22_1924,stroop_task_switching2_b,2021.2.3,59.930624306050014,
,,,黄,yellow,f,diamond,color_mix,颜色,,compatible,2,block_switch1_b,instruction/ready_test.png,instruction/i11.png,,,,,,,,,,,,,,,,,0,0,0,0,0,46,46,46,,,,,,,,,,,,,,,,,,,,,,,,,,,600.2405688999861,600.4414876999945,600.4239266999939,600.7247665999894,600.7247665999894,None,601.2256998999947,None,f,1,0.5905848000111291,601.2256998999947,None,None,None,,,,,,,,,,,,,,,,,,,,,,,12015,1,2,2024_Jun_22_1924,stroop_task_switching2_b,2021.2.3,59.930624306050014,
,,,绿,red,d,square,color_mix,单词,,incompatible,2,block_switch1_b,instruction/ready_test.png,instruction/i11.png,,,,,,,,,,,,,,,,,0,0,0,0,0,47,47,47,,,,,,,,,,,,,,,,,,,,,,,,,,,601.8425902999879,602.0437270999973,602.0264961999928,602.3266723999986,602.3266723999986,None,602.8277569999918,None,d,1,0.8287986000068486,602.8277569999918,None,None,None,,,,,,,,,,,,,,,,,,,,,,,12015,1,2,2024_Jun_22_1924,stroop_task_switching2_b,2021.2.3,59.930624306050014,
,,,红,red,k,diamond,color_mix,颜色,,compatible,2,block_switch1_b,instruction/ready_test.png,instruction/i11.png,,,,,,,,,,,,,,,,,0,0,0,0,0,48,48,48,,,,,,,,,,,,,,,,,,,,,,,,,,,603.6787509999995,603.8797401999909,603.8623765999946,604.1633151999995,604.1633151999995,None,604.6639517999865,None,k,1,0.8329302999918582,604.6639517999865,None,None,None,,,,,,,,,,,,,,,,,,,,,,,12015,1,2,2024_Jun_22_1924,stroop_task_switching2_b,2021.2.3,59.930624306050014,
,,,蓝,blue,j,diamond,color_mix,颜色,,compatible,1,block_switch1_b,instruction/ready_test.png,instruction/i11.png,,,,,,,,,,,,,,,,,0,0,0,0,0,49,49,49,,,,,,,,,,,,,,,,,,,,,,,,,,,605.5149703999923,605.7151825999899,605.7001441999892,605.9991074999998,605.9991074999998,None,606.500058199992,None,f,0,0.8365256999968551,606.500058199992,None,None,None,,,,,,,,,,,,,,,,,,,,,,,12015,1,2,2024_Jun_22_1924,stroop_task_switching2_b,2021.2.3,59.930624306050014,
,,,黄,yellow,f,diamond,color_mix,颜色,,compatible,1,block_switch1_b,instruction/ready_test.png,instruction/i11.png,,,,,,,,,,,,,,,,,0,0,0,0,0,50,50,50,,,,,,,,,,,,,,,,,,,,,,,,,,,607.3512021999923,607.5521601999935,607.53464849999,607.8350211999932,607.8350211999932,None,608.3360514999949,None,f,1,0.8887747999979183,608.3360514999949,None,None,None,,,,,,,,,,,,,,,,,,,,,,,12015,1,2,2024_Jun_22_1924,stroop_task_switching2_b,2021.2.3,59.930624306050014,
,,,红,blue,j,diamond,color_mix,颜色,,incompatible,1,block_switch1_b,instruction/ready_test.png,instruction/i11.png,,,,,,,,,,,,,,,,,0,0,0,0,0,51,51,51,,,,,,,,,,,,,,,,,,,,,,,,,,,609.2538882999943,609.4548310999962,609.4373607999878,609.7389466999884,609.7389466999884,None,610.2390203999967,None,j,1,0.99382930000138,610.2390203999967,None,None,None,,,,,,,,,,,,,,,,,,,,,,,12015,1,2,2024_Jun_22_1924,stroop_task_switching2_b,2021.2.3,59.930624306050014,
,,,蓝,yellow,f,diamond,color_mix,颜色,,incompatible,1,block_switch1_b,instruction/ready_test.png,instruction/i11.png,,,,,,,,,,,,,,,,,0,0,0,0,0,52,52,52,,,,,,,,,,,,,,,,,,,,,,,,,,,611.2569255999988,611.4571223999956,611.4405535999977,611.7424165999983,611.7424165999983,None,612.2431133999926,None,j,0,1.045758599997498,612.2431133999926,None,None,None,,,,,,,,,,,,,,,,,,,,,,,12015,1,2,2024_Jun_22_1924,stroop_task_switching2_b,2021.2.3,59.930624306050014,
,,,黄,blue,f,square,color_mix,单词,,incompatible,2,block_switch1_b,instruction/ready_test.png,instruction/i11.png,,,,,,,,,,,,,,,,,0,0,0,0,0,53,53,53,,,,,,,,,,,,,,,,,,,,,,,,,,,613.3098985999968,613.5108784999902,613.4945490999962,613.7952621999866,613.7952621999866,None,614.2947223999945,None,f,1,0.8825265000050422,614.2947223999945,None,None,None,,,,,,,,,,,,,,,,,,,,,,,12015,1,2,2024_Jun_22_1924,stroop_task_switching2_b,2021.2.3,59.930624306050014,
,,,蓝,blue,j,diamond,color_mix,颜色,,compatible,2,block_switch1_b,instruction/ready_test.png,instruction/i11.png,,,,,,,,,,,,,,,,,0,0,0,0,0,54,54,54,,,,,,,,,,,,,,,,,,,,,,,,,,,615.1964631999872,615.3978752999974,615.3797686999897,615.6804181999905,615.6804181999905,None,616.1815422999935,None,f,0,0.7715385999908904,616.1815422999935,None,None,None,,,,,,,,,,,,,,,,,,,,,,,12015,1,2,2024_Jun_22_1924,stroop_task_switching2_b,2021.2.3,59.930624306050014,
,,,红,yellow,k,square,color_mix,单词,,incompatible,2,block_switch1_b,instruction/ready_test.png,instruction/i11.png,,,,,,,,,,,,,,,,,0,0,0,0,0,55,55,55,,,,,,,,,,,,,,,,,,,,,,,,,,,616.9829248999886,617.1830396999867,617.1672031999915,617.4672490999947,617.4672490999947,None,617.9678481999872,None,f,0,0.9293679999973392,617.9678481999872,None,None,None,,,,,,,,,,,,,,,,,,,,,,,12015,1,2,2024_Jun_22_1924,stroop_task_switching2_b,2021.2.3,59.930624306050014,
,,,蓝,red,j,square,color_mix,单词,,incompatible,1,block_switch1_b,instruction/ready_test.png,instruction/i11.png,,,,,,,,,,,,,,,,,0,0,0,0,0,56,56,56,,,,,,,,,,,,,,,,,,,,,,,,,,,618.9184439999954,619.119598099991,619.1037430999859,619.4025213999994,619.4025213999994,None,619.9034791999875,None,j,1,1.257420900001307,619.9034791999875,None,None,None,,,,,,,,,,,,,,,,,,,,,,,12015,1,2,2024_Jun_22_1924,stroop_task_switching2_b,2021.2.3,59.930624306050014,
,,,蓝,blue,j,square,color_mix,单词,,compatible,1,block_switch1_b,instruction/ready_test.png,instruction/i11.png,,,,,,,,,,,,,,,,,0,0,0,0,0,57,57,57,,,,,,,,,,,,,,,,,,,,,,,,,,,621.1886342999933,621.3897706999996,621.3720723999868,621.6730375999905,621.6730375999905,None,622.1733135999966,None,j,1,0.7002336000005016,622.1733135999966,None,None,None,,,,,,,,,,,,,,,,,,,,,,,12015,1,2,2024_Jun_22_1924,stroop_task_switching2_b,2021.2.3,59.930624306050014,
,,,蓝,red,k,diamond,color_mix,颜色,,incompatible,2,block_switch1_b,instruction/ready_test.png,instruction/i11.png,,,,,,,,,,,,,,,,,0,0,0,0,0,58,58,58,,,,,,,,,,,,,,,,,,,,,,,,,,,622.8911707999941,623.0927242999896,623.0746755999862,623.3758914999926,623.3758914999926,None,623.876506399989,None,j,0,0.9967087999975774,623.876506399989,None,None,None,,,,,,,,,,,,,,,,,,,,,,,12015,1,2,2024_Jun_22_1924,stroop_task_switching2_b,2021.2.3,59.930624306050014,
,,,绿,green,d,diamond,color_mix,颜色,,compatible,1,block_switch1_b,instruction/ready_test.png,instruction/i11.png,,,,,,,,,,,,,,,,,0,0,0,0,0,59,59,59,,,,,,,,,,,,,,,,,,,,,,,,,,,624.8940475999989,625.0957741999882,625.0779067999974,625.3791297999996,625.3791297999996,None,625.8789441999979,None,d,1,0.7542575999977998,625.8789441999979,None,None,None,,,,,,,,,,,,,,,,,,,,,,,12015,1,2,2024_Jun_22_1924,stroop_task_switching2_b,2021.2.3,59.930624306050014,
,,,蓝,blue,j,diamond,color_mix,颜色,,compatible,1,block_switch1_b,instruction/ready_test.png,instruction/i11.png,,,,,,,,,,,,,,,,,0,0,0,0,0,60,60,60,,,,,,,,,,,,,,,,,,,,,,,,,,,626.6636741999973,626.8639533999958,626.8477475999971,627.1495905999909,627.1495905999909,None,627.66525369999,None,j,1,1.3763311000075191,627.66525369999,None,None,None,,,,,,,,,,,,,,,,,,,,,,,12015,1,2,2024_Jun_22_1924,stroop_task_switching2_b,2021.2.3,59.930624306050014,
,,,黄,yellow,f,square,color_mix,单词,,compatible,2,block_switch1_b,instruction/ready_test.png,instruction/i11.png,,,,,,,,,,,,,,,,,0,0,0,0,0,61,61,61,,,,,,,,,,,,,,,,,,,,,,,,,,,629.0672002999927,629.2686343999958,629.2517655999982,629.551650399997,629.551650399997,None,630.0517744999961,None,j,0,1.005564900013269,630.0517744999961,None,None,None,,,,,,,,,,,,,,,,,,,,,,,12015,1,2,2024_Jun_22_1924,stroop_task_switching2_b,2021.2.3,59.930624306050014,
,,,绿,blue,d,square,color_mix,单词,,incompatible,1,block_switch1_b,instruction/ready_test.png,instruction/i11.png,,,,,,,,,,,,,,,,,0,0,0,0,0,62,62,62,,,,,,,,,,,,,,,,,,,,,,,,,,,631.087245799994,631.2882880999969,631.2707818999916,631.5717132999998,631.5717132999998,None,632.0721118999936,None,d,1,1.9538518999906955,632.0721118999936,None,None,None,,,,,,,,,,,,,,,,,,,,,,,12015,1,2,2024_Jun_22_1924,stroop_task_switching2_b,2021.2.3,59.930624306050014,
,,,蓝,yellow,j,square,color_mix,单词,,incompatible,1,block_switch1_b,instruction/ready_test.png,instruction/i11.png,,,,,,,,,,,,,,,,,0,0,0,0,0,63,63,63,,,,,,,,,,,,,,,,,,,,,,,,,,,634.0412621999858,634.2414152999991,634.2261746999866,634.5269558999862,634.5269558999862,None,635.0262672999961,None,f,0,0.9518554999958724,635.0262672999961,None,None,None,,,,,,,,,,,,,,,,,,,,,,,12015,1,2,2024_Jun_22_1924,stroop_task_switching2_b,2021.2.3,59.930624306050014,
,,,黄,yellow,f,diamond,color_mix,颜色,,compatible,2,block_switch1_b,instruction/ready_test.png,instruction/i11.png,,,,,,,,,,,,,,,,,0,0,0,0,0,64,64,64,,,,,,,,,,,,,,,,,,,,,,,,,,,635.9947034999932,636.1945822999987,636.1795897999982,636.478379799999,636.478379799999,None,636.9795580999926,None,f,1,0.6221251000097254,636.9795580999926,None,None,None,,,,,,,,,,,,,,,,,,,,,,,12015,1,2,2024_Jun_22_1924,stroop_task_switching2_b,2021.2.3,59.930624306050014,
,,,蓝,green,d,diamond,color_mix,颜色,,incompatible,1,block_switch1_b,instruction/ready_test.png,instruction/i11.png,,,,,,,,,,,,,,,,,0,0,0,0,0,65,65,65,,,,,,,,,,,,,,,,,,,,,,,,,,,637.6304547999898,637.8318091999972,637.8141164999979,638.1143433999969,638.1143433999969,None,638.6148284999945,None,d,1,0.7865335999958916,638.6148284999945,None,None,None,,,,,,,,,,,,,,,,,,,,,,,12015,1,2,2024_Jun_22_1924,stroop_task_switching2_b,2021.2.3,59.930624306050014,
,,,红,red,k,diamond,color_mix,颜色,,compatible,1,block_switch1_b,instruction/ready_test.png,instruction/i11.png,,,,,,,,,,,,,,,,,0,0,0,0,0,66,66,66,,,,,,,,,,,,,,,,,,,,,,,,,,,639.4161867999937,639.6165544999967,639.5996447999933,639.900710899994,639.900710899994,None,640.4013389999891,None,k,1,0.6645721000095364,640.4013389999891,None,None,None,,,,,,,,,,,,,,,,,,,,,,,12015,1,2,2024_Jun_22_1924,stroop_task_switching2_b,2021.2.3,59.930624306050014,
,,,蓝,yellow,j,square,color_mix,单词,,incompatible,2,block_switch1_b,instruction/ready_test.png,instruction/i11.png,,,,,,,,,,,,,,,,,0,0,0,0,0,67,67,67,,,,,,,,,,,,,,,,,,,,,,,,,,,641.0852972999855,641.2864768,641.2688146999863,641.5699144999962,641.5699144999962,None,642.0701474999951,None,f,0,1.0520118999993429,642.0701474999951,None,None,None,,,,,,,,,,,,,,,,,,,,,,,12015,1,2,2024_Jun_22_1924,stroop_task_switching2_b,2021.2.3,59.930624306050014,
,,,红,yellow,k,square,color_mix,单词,,incompatible,1,block_switch1_b,instruction/ready_test.png,instruction/i11.png,,,,,,,,,,,,,,,,,0,0,0,0,0,68,68,68,,,,,,,,,,,,,,,,,,,,,,,,,,,643.1384003999992,643.339143499994,643.3237218999857,643.6227053999901,643.6227053999901,None,644.123088399996,None,f,0,0.8231482999981381,644.123088399996,None,None,None,,,,,,,,,,,,,,,,,,,,,,,12015,1,2,2024_Jun_22_1924,stroop_task_switching2_b,2021.2.3,59.930624306050014,
,,,红,yellow,f,diamond,color_mix,颜色,,incompatible,2,block_switch1_b,instruction/ready_test.png,instruction/i11.png,,,,,,,,,,,,,,,,,0,0,0,0,0,69,69,69,,,,,,,,,,,,,,,,,,,,,,,,,,,644.9745717999904,645.1756513999862,645.1583260999905,645.4593173999892,645.4593173999892,None,645.959526199993,None,f,1,0.6421396000077948,645.959526199993,None,None,None,,,,,,,,,,,,,,,,,,,,,,,12015,1,2,2024_Jun_22_1924,stroop_task_switching2_b,2021.2.3,59.930624306050014,
,,,蓝,green,j,square,color_mix,单词,,incompatible,2,block_switch1_b,instruction/ready_test.png,instruction/i11.png,,,,,,,,,,,,,,,,,0,0,0,0,0,70,70,70,,,,,,,,,,,,,,,,,,,,,,,,,,,646.6269931999996,646.8273476999893,646.8121567999915,647.1117637999996,647.1117637999996,None,647.6119958999916,None,d,0,0.909743600001093,647.6119958999916,None,None,None,,,,,,,,,,,,,,,,,,,,,,,12015,1,2,2024_Jun_22_1924,stroop_task_switching2_b,2021.2.3,59.930624306050014,
,,,绿,yellow,d,square,color_mix,单词,,incompatible,1,block_switch1_b,instruction/ready_test.png,instruction/i11.png,,,,,,,,,,,,,,,,,0,0,0,0,0,71,71,71,,,,,,,,,,,,,,,,,,,,,,,,,,,648.5465501999861,648.7481454999943,648.7300485999876,649.0325788999908,649.0325788999908,None,649.5313565999968,None,d,1,0.9027059000072768,649.5313565999968,None,None,None,,,,,,,,,,,,,,,,,,,,,,,12015,1,2,2024_Jun_22_1924,stroop_task_switching2_b,2021.2.3,59.930624306050014,
,,,蓝,yellow,f,diamond,color_mix,颜色,,incompatible,2,block_switch1_b,instruction/ready_test.png,instruction/i11.png,,,,,,,,,,,,,,,,,0,0,0,0,0,72,72,72,,,,,,,,,,,,,,,,,,,,,,,,,,,650.4498024999921,650.650029499986,650.6338091999933,650.93419,650.93419,None,651.4344176999875,None,f,1,1.1994826000009198,651.4344176999875,None,None,None,,,,,,,,,,,,,,,,,,,,,,,12015,1,2,2024_Jun_22_1924,stroop_task_switching2_b,2021.2.3,59.930624306050014,
,,,红,green,k,square,color_mix,单词,,incompatible,2,block_switch1_b,instruction/ready_test.png,instruction/i11.png,,,,,,,,,,,,,,,,,0,0,0,0,0,73,73,73,,,,,,,,,,,,,,,,,,,,,,,,,,,652.6530285999906,652.8547666999948,652.8374768999929,653.1382530999981,653.1382530999981,None,653.6379251999897,None,f,0,0.9405091000080574,653.6379251999897,None,None,None,,,,,,,,,,,,,,,,,,,,,,,12015,1,2,2024_Jun_22_1924,stroop_task_switching2_b,2021.2.3,59.930624306050014,
,,,绿,blue,j,diamond,color_mix,颜色,,incompatible,2,block_switch1_b,instruction/ready_test.png,instruction/i11.png,,,,,,,,,,,,,,,,,0,0,0,0,0,74,74,74,,,,,,,,,,,,,,,,,,,,,,,,,,,654.6056229999958,654.8063808999868,654.7890955999901,655.0908719999861,655.0908719999861,None,655.5905107999861,None,f,0,0.8921291000006022,655.5905107999861,None,None,None,,,,,,,,,,,,,,,,,,,,,,,12015,1,2,2024_Jun_22_1924,stroop_task_switching2_b,2021.2.3,59.930624306050014,
,,,红,red,k,square,color_mix,单词,,compatible,2,block_switch1_b,instruction/ready_test.png,instruction/i11.png,,,,,,,,,,,,,,,,,0,0,0,0,0,75,75,75,,,,,,,,,,,,,,,,,,,,,,,,,,,656.5086169999995,656.7106169999897,656.6926321999927,656.9930357999983,656.9930357999983,None,657.4936613999889,None,k,1,1.0925781999976607,657.4936613999889,None,None,None,,,,,,,,,,,,,,,,,,,,,,,12015,1,2,2024_Jun_22_1924,stroop_task_switching2_b,2021.2.3,59.930624306050014,
,,,绿,green,d,diamond,color_mix,颜色,,compatible,2,block_switch1_b,instruction/ready_test.png,instruction/i11.png,,,,,,,,,,,,,,,,,0,0,0,0,0,76,76,76,,,,,,,,,,,,,,,,,,,,,,,,,,,658.6118482999882,658.8127850999881,658.7951152999885,659.0974445999891,659.0974445999891,None,659.5967023999983,None,d,1,0.885378099992522,659.5967023999983,None,None,None,,,,,,,,,,,,,,,,,,,,,,,12015,1,2,2024_Jun_22_1924,stroop_task_switching2_b,2021.2.3,59.930624306050014,
,,,黄,red,f,square,color_mix,单词,,incompatible,2,block_switch1_b,instruction/ready_test.png,instruction/i11.png,,,,,,,,,,,,,,,,,0,0,0,0,0,77,77,77,,,,,,,,,,,,,,,,,,,,,,,,,,,660.4980760999897,660.6993931999896,660.681811699993,660.983316599988,660.983316599988,None,661.483263999995,None,d,0,1.4150954999931855,661.483263999995,None,None,None,,,,,,,,,,,,,,,,,,,,,,,12015,1,2,2024_Jun_22_1924,stroop_task_switching2_b,2021.2.3,59.930624306050014,
,,,红,red,k,square,color_mix,单词,,compatible,1,block_switch1_b,instruction/ready_test.png,instruction/i11.png,,,,,,,,,,,,,,,,,0,0,0,0,0,78,78,78,,,,,,,,,,,,,,,,,,,,,,,,,,,662.9184570999932,663.119437699992,663.1020778999955,663.4030661999859,663.4030661999859,None,663.9030749999947,None,k,1,0.7311656999954721,663.9030749999947,None,None,None,,,,,,,,,,,,,,,,,,,,,,,12015,1,2,2024_Jun_22_1924,stroop_task_switching2_b,2021.2.3,59.930624306050014,
,,,黄,yellow,f,square,color_mix,单词,,compatible,1,block_switch1_b,instruction/ready_test.png,instruction/i11.png,,,,,,,,,,,,,,,,,0,0,0,0,0,79,79,79,,,,,,,,,,,,,,,,,,,,,,,,,,,664.6543007999862,664.8553825999988,664.8383578999928,665.1389622999995,665.1389622999995,None,665.6391190999857,None,f,1,0.9714103000005707,665.6391190999857,None,None,None,,,,,,,,,,,,,,,,,,,,,,,12015,1,2,2024_Jun_22_1924,stroop_task_switching2_b,2021.2.3,59.930624306050014,
,,,红,red,k,diamond,color_mix,颜色,,compatible,2,block_switch1_b,instruction/ready_test.png,instruction/i11.png,,,,,,,,,,,,,,,,,0,0,0,0,0,80,80,80,,,,,,,,,,,,,,,,,,,,,,,,,,,666.6406637999899,666.8409241999907,666.8260880999878,667.1247074999992,667.1247074999992,None,667.6256737999938,None,k,1,0.8247822999983327,667.6256737999938,None,None,None,,,,,,,,,,,,,,,,,,,,,,,12015,1,2,2024_Jun_22_1924,stroop_task_switching2_b,2021.2.3,59.930624306050014,
,,,红,red,k,square,color_mix,单词,,compatible,2,block_switch1_b,instruction/ready_test.png,instruction/i11.png,,,,,,,,,,,,,,,,,0,0,0,0,0,81,81,81,,,,,,,,,,,,,,,,,,,,,,,,,,,668.476740699989,668.6777415999968,668.6603862999909,668.9608812999941,668.9608812999941,None,669.4617880999867,None,k,1,0.48474369999894407,669.4617880999867,None,None,None,,,,,,,,,,,,,,,,,,,,,,,12015,1,2,2024_Jun_22_1924,stroop_task_switching2_b,2021.2.3,59.930624306050014,
,,,黄,blue,j,diamond,color_mix,颜色,,incompatible,2,block_switch1_b,instruction/ready_test.png,instruction/i11.png,,,,,,,,,,,,,,,,,0,0,0,0,0,82,82,82,,,,,,,,,,,,,,,,,,,,,,,,,,,669.9623511999962,670.1627058999875,670.1468906999944,670.4475118999981,670.4475118999981,None,670.9470889999939,None,f,0,1.0075344999931986,670.9470889999939,None,None,None,,,,,,,,,,,,,,,,,,,,,,,12015,1,2,2024_Jun_22_1924,stroop_task_switching2_b,2021.2.3,59.930624306050014,
,,,红,yellow,f,diamond,color_mix,颜色,,incompatible,1,block_switch1_b,instruction/ready_test.png,instruction/i11.png,,,,,,,,,,,,,,,,,0,0,0,0,0,83,83,83,,,,,,,,,,,,,,,,,,,,,,,,,,,671.9821051999897,672.1826515999855,672.1671371999983,672.4675598999893,672.4675598999893,None,672.9670984999975,None,f,1,1.1164208000118379,672.9670984999975,None,None,None,,,,,,,,,,,,,,,,,,,,,,,12015,1,2,2024_Jun_22_1924,stroop_task_switching2_b,2021.2.3,59.930624306050014,
,,,黄,red,k,diamond,color_mix,颜色,,incompatible,1,block_switch1_b,instruction/ready_test.png,instruction/i11.png,,,,,,,,,,,,,,,,,0,0,0,0,0,84,84,84,,,,,,,,,,,,,,,,,,,,,,,,,,,674.1017575999867,674.3031608999881,674.2855232999864,674.5858426999912,674.5858426999912,None,675.0874964999966,None,f,0,1.211279099996318,675.0874964999966,None,None,None,,,,,,,,,,,,,,,,,,,,,,,12015,1,2,2024_Jun_22_1924,stroop_task_switching2_b,2021.2.3,59.930624306050014,
,,,蓝,blue,j,square,color_mix,单词,,compatible,2,block_switch1_b,instruction/ready_test.png,instruction/i11.png,,,,,,,,,,,,,,,,,0,0,0,0,0,85,85,85,,,,,,,,,,,,,,,,,,,,,,,,,,,676.3220658999926,676.5237652999931,676.5055298999941,676.8059151999914,676.8059151999914,None,677.3067733999924,None,j,1,0.8241524999903049,677.3067733999924,None,None,None,,,,,,,,,,,,,,,,,,,,,,,12015,1,2,2024_Jun_22_1924,stroop_task_switching2_b,2021.2.3,59.930624306050014,
,,,绿,green,d,square,color_mix,单词,,compatible,1,block_switch1_b,instruction/ready_test.png,instruction/i11.png,,,,,,,,,,,,,,,,,0,0,0,0,0,86,86,86,,,,,,,,,,,,,,,,,,,,,,,,,,,678.1583271999989,678.3597293999919,678.341861199995,678.6440120999905,678.6440120999905,None,679.1598969999905,None,d,1,0.9152126999979373,679.1598969999905,None,None,None,,,,,,,,,,,,,,,,,,,,,,,12015,1,2,2024_Jun_22_1924,stroop_task_switching2_b,2021.2.3,59.930624306050014,
,,,红,red,k,square,color_mix,单词,,compatible,1,block_switch1_b,instruction/ready_test.png,instruction/i11.png,,,,,,,,,,,,,,,,,0,0,0,0,0,87,87,87,,,,,,,,,,,,,,,,,,,,,,,,,,,680.094420399997,680.2957240999967,680.2778184999916,680.57990289999,680.57990289999,None,681.0790434999944,None,k,1,1.0918724999937695,681.0790434999944,None,None,None,,,,,,,,,,,,,,,,,,,,,,,12015,1,2,2024_Jun_22_1924,stroop_task_switching2_b,2021.2.3,59.930624306050014,
,,,黄,green,d,diamond,color_mix,颜色,,incompatible,2,block_switch1_b,instruction/ready_test.png,instruction/i11.png,,,,,,,,,,,,,,,,,0,0,0,0,0,88,88,88,,,,,,,,,,,,,,,,,,,,,,,,,,,682.1973851999937,682.3980404999893,682.3828155999945,682.6827476999897,682.6827476999897,None,683.1828972999938,None,f,0,0.9727640000055544,683.1828972999938,None,None,None,,,,,,,,,,,,,,,,,,,,,,,12015,1,2,2024_Jun_22_1924,stroop_task_switching2_b,2021.2.3,59.930624306050014,
,,,绿,red,d,square,color_mix,单词,,incompatible,2,block_switch1_b,instruction/ready_test.png,instruction/i11.png,,,,,,,,,,,,,,,,,0,0,0,0,0,89,89,89,,,,,,,,,,,,,,,,,,,,,,,,,,,684.183875799994,684.3853692999983,684.3673020999995,684.6680200999981,684.6680200999981,None,685.1687680999894,None,d,1,1.2909914999909233,685.1687680999894,None,None,None,,,,,,,,,,,,,,,,,,,,,,,12015,1,2,2024_Jun_22_1924,stroop_task_switching2_b,2021.2.3,59.930624306050014,
,,,黄,green,f,square,color_mix,单词,,incompatible,1,block_switch1_b,instruction/ready_test.png,instruction/i11.png,,,,,,,,,,,,,,,,,0,0,0,0,0,90,90,90,,,,,,,,,,,,,,,,,,,,,,,,,,,686.4876215999975,686.6885905999952,686.6709355999919,686.9713193999924,686.9713193999924,None,687.4722331999947,None,d,0,0.6992423999909079,687.4722331999947,None,None,None,,,,,,,,,,,,,,,,,,,,,,,12015,1,2,2024_Jun_22_1924,stroop_task_switching2_b,2021.2.3,59.930624306050014,
,,,蓝,blue,j,square,color_mix,单词,,compatible,1,block_switch1_b,instruction/ready_test.png,instruction/i11.png,,,,,,,,,,,,,,,,,0,0,0,0,0,91,91,91,,,,,,,,,,,,,,,,,,,,,,,,,,,688.1898464999977,688.3914277999866,688.3739556999935,688.6741511999862,688.6741511999862,None,689.1747107999981,None,j,1,0.9488073000102304,689.1747107999981,None,None,None,,,,,,,,,,,,,,,,,,,,,,,12015,1,2,2024_Jun_22_1924,stroop_task_switching2_b,2021.2.3,59.930624306050014,
,,,蓝,red,j,square,color_mix,单词,,incompatible,1,block_switch1_b,instruction/ready_test.png,instruction/i11.png,,,,,,,,,,,,,,,,,0,0,0,0,0,92,92,92,,,,,,,,,,,,,,,,,,,,,,,,,,,690.143015499998,690.3437502999877,690.3266678999935,690.6274291999871,690.6274291999871,None,691.1279127999878,None,k,0,1.2033589999919059,691.1279127999878,None,None,None,,,,,,,,,,,,,,,,,,,,,,,12015,1,2,2024_Jun_22_1924,stroop_task_switching2_b,2021.2.3,59.930624306050014,
,,,黄,blue,f,square,color_mix,单词,,incompatible,1,block_switch1_b,instruction/ready_test.png,instruction/i11.png,,,,,,,,,,,,,,,,,0,0,0,0,0,93,93,93,,,,,,,,,,,,,,,,,,,,,,,,,,,692.3627366000001,692.5629259999987,692.5470595999941,692.8468601999921,692.8468601999921,None,693.3477245999966,None,j,0,1.1276495000056457,693.3477245999966,None,None,None,,,,,,,,,,,,,,,,,,,,,,,12015,1,2,2024_Jun_22_1924,stroop_task_switching2_b,2021.2.3,59.930624306050014,
,,,绿,red,k,diamond,color_mix,颜色,,incompatible,2,block_switch1_b,instruction/ready_test.png,instruction/i11.png,,,,,,,,,,,,,,,,,0,0,0,0,0,94,94,94,,,,,,,,,,,,,,,,,,,,,,,,,,,694.4993168999936,694.7007320999983,694.6829596999887,694.9846706999961,694.9846706999961,None,695.4840130999946,None,k,1,1.0476564999989932,695.4840130999946,None,None,None,,,,,,,,,,,,,,,,,,,,,,,12015,1,2,2024_Jun_22_1924,stroop_task_switching2_b,2021.2.3,59.930624306050014,
,,,蓝,blue,j,diamond,color_mix,颜色,,compatible,1,block_switch1_b,instruction/ready_test.png,instruction/i11.png,,,,,,,,,,,,,,,,,0,0,0,0,0,95,95,95,,,,,,,,,,,,,,,,,,,,,,,,,,,696.5524947999947,696.7532980999968,696.736885499995,697.037969699988,697.037969699988,None,697.5374785999884,None,f,0,1.1460345999948913,697.5374785999884,None,None,None,,,,,,,,,,,,,,,,,,,,,,,12015,1,2,2024_Jun_22_1924,stroop_task_switching2_b,2021.2.3,59.930624306050014,
,,,绿,green,d,square,color_mix,单词,,compatible,2,block_switch1_b,instruction/ready_test.png,instruction/i11.png,,,,,,,,,,,,,,,,,0,0,0,0,0,96,96,96,,,,,,,,,,,,,,,,,,,,,,,,,,,698.7057387999957,698.9069325999881,698.8898786999926,699.1900315999956,699.1900315999956,None,699.6905299999926,None,d,1,0.800931000005221,699.6905299999926,None,None,None,,,,,,,,,,,,,,,,,,,,,,,12015,1,2,2024_Jun_22_1924,stroop_task_switching2_b,2021.2.3,59.930624306050014,
,,,,,,,,,,,,block_switch1_b,instruction/ready_test.png,instruction/i11.png,,,,,,,,,,,,,,,,,0,0,0,0,,,,,,,,,,,,,,,,,,,,,,,,,,,,,,,,,,,,,,,,,,,,,,,,,,,,,,,,,,,,700.508299899986,None,space,41.15238549999776,700.508299899986,None,,,12015,1,2,2024_Jun_22_1924,stroop_task_switching2_b,2021.2.3,59.930624306050014,
,,,蓝,blue,j,square,color_mix,单词,,compatible,0,block_switch2_b,instruction/ready_2.png,instruction/i12.png,,,,,,,,,,,,,,,,,0,1,1,1,0,0,0,0,,,,,,,,,,,,,,,,,,,750.9182867999916,751.9199150999921,751.9199150999921,752.9209320999944,752.9209320999944,None,749.9330727999914,750.9355082999973,753.9569560999953,754.156221399986,754.1399226999929,754.4401779999898,754.4401779999898,None,754.9408520999859,None,j,1,1.7443461999937426,754.9408520999859,None,None,None,,,,,,,,,741.7037752999895,None,space,8.213126199989347,741.7037752999895,None,,,,,,,,,12015,1,2,2024_Jun_22_1924,stroop_task_switching2_b,2021.2.3,59.930624306050014,
,,,黄,red,k,diamond,color_mix,颜色,,incompatible,2,block_switch2_b,instruction/ready_2.png,instruction/i12.png,,,,,,,,,,,,,,,,,0,1,1,1,0,1,1,1,,,,,,,,,,,,,,,,,,,,,,,,,,,756.7430874999991,756.9454801999964,756.8941999999952,757.195879299994,757.195879299994,None,757.6947871999873,None,k,1,0.7825410000077682,757.6947871999873,None,None,None,,,,,,,,,,,,,,,,,,,,,,,12015,1,2,2024_Jun_22_1924,stroop_task_switching2_b,2021.2.3,59.930624306050014,
,,,蓝,green,d,diamond,color_mix,颜色,,incompatible,1,block_switch2_b,instruction/ready_2.png,instruction/i12.png,,,,,,,,,,,,,,,,,0,1,1,1,0,2,2,2,,,,,,,,,,,,,,,,,,,,,,,,,,,758.4959431999887,758.6963185999921,758.6801805999858,758.9813370999909,758.9813370999909,None,759.4809141999867,None,d,1,0.7808245000051102,759.4809141999867,None,None,None,,,,,,,,,,,,,,,,,,,,,,,12015,1,2,2024_Jun_22_1924,stroop_task_switching2_b,2021.2.3,59.930624306050014,
,,,红,yellow,f,diamond,color_mix,颜色,,incompatible,1,block_switch2_b,instruction/ready_2.png,instruction/i12.png,,,,,,,,,,,,,,,,,0,1,1,1,0,3,3,3,,,,,,,,,,,,,,,,,,,,,,,,,,,760.2820761999901,760.4836304999917,760.4657289999886,760.7668369999883,760.7668369999883,None,761.2669212999899,None,f,1,0.8104238000087207,761.2669212999899,None,None,None,,,,,,,,,,,,,,,,,,,,,,,12015,1,2,2024_Jun_22_1924,stroop_task_switching2_b,2021.2.3,59.930624306050014,
,,,红,red,k,diamond,color_mix,颜色,,compatible,1,block_switch2_b,instruction/ready_2.png,instruction/i12.png,,,,,,,,,,,,,,,,,0,1,1,1,0,4,4,4,,,,,,,,,,,,,,,,,,,,,,,,,,,762.1013056999946,762.3030257999926,762.2854920999962,762.5865249999915,762.5865249999915,None,763.0862662999862,None,k,1,0.8154461999947671,763.0862662999862,None,None,None,,,,,,,,,,,,,,,,,,,,,,,12015,1,2,2024_Jun_22_1924,stroop_task_switching2_b,2021.2.3,59.930624306050014,
,,,绿,green,d,square,color_mix,单词,,compatible,2,block_switch2_b,instruction/ready_2.png,instruction/i12.png,,,,,,,,,,,,,,,,,0,1,1,1,0,5,5,5,,,,,,,,,,,,,,,,,,,,,,,,,,,763.9207923999929,764.1225991999963,764.1047863999993,764.4067855999892,764.4067855999892,None,764.9057661999977,None,d,1,0.8036535999999614,764.9057661999977,None,None,None,,,,,,,,,,,,,,,,,,,,,,,12015,1,2,2024_Jun_22_1924,stroop_task_switching2_b,2021.2.3,59.930624306050014,
,,,黄,blue,j,diamond,color_mix,颜色,,incompatible,2,block_switch2_b,instruction/ready_2.png,instruction/i12.png,,,,,,,,,,,,,,,,,0,1,1,1,0,6,6,6,,,,,,,,,,,,,,,,,,,,,,,,,,,765.7573883999867,765.9574836999964,765.9238565999985,766.2243076999875,766.2243076999875,None,766.7251618999871,None,j,1,0.8490372999949614,766.7251618999871,None,None,None,,,,,,,,,,,,,,,,,,,,,,,12015,1,2,2024_Jun_22_1924,stroop_task_switching2_b,2021.2.3,59.930624306050014,
,,,绿,yellow,d,square,color_mix,单词,,incompatible,2,block_switch2_b,instruction/ready_2.png,instruction/i12.png,,,,,,,,,,,,,,,,,0,1,1,1,0,7,7,7,,,,,,,,,,,,,,,,,,,,,,,,,,,767.5930620999861,767.7938164999941,767.7781370999874,768.0779353999969,768.0779353999969,None,768.5779091999866,None,f,0,0.8116924000059953,768.5779091999866,None,None,None,,,,,,,,,,,,,,,,,,,,,,,12015,1,2,2024_Jun_22_1924,stroop_task_switching2_b,2021.2.3,59.930624306050014,
