backseq,backinstr,backfile,instruction,Trialtype,back,number,P1,P2,P3,P4,corrAns,trials_practice.thisRepN,trials_practice.thisTrialN,trials_practice.thisN,trials_practice.thisIndex,trials.thisRepN,trials.thisTrialN,trials.thisN,trials.thisIndex,trials_3.thisRepN,trials_3.thisTrialN,trials_3.thisN,trials_3.thisIndex,trials_2.thisRepN,trials_2.thisTrialN,trials_2.thisN,trials_2.thisIndex,trials_4.thisRepN,trials_4.thisTrialN,trials_4.thisN,trials_4.thisIndex,image.started,image.stopped,image_2.started,image_2.stopped,key_resp.keys,key_resp.rt,key_resp.started,key_resp.stopped,image_3.started,image_3.stopped,key_resp_2.keys,key_resp_2.rt,key_resp_2.started,key_resp_2.stopped,image_4.started,image_4.stopped,text.started,text.stopped,H1.started,H1.stopped,H2.started,H2.stopped,H3.started,H3.stopped,H4.started,H4.stopped,key_resp_3.keys,key_resp_3.corr,key_resp_3.rt,key_resp_3.started,key_resp_3.stopped,text_4.started,text_4.stopped,F1.started,F1.stopped,F2.started,F2.stopped,F3.started,F3.stopped,F4.started,F4.stopped,image_7.started,image_7.stopped,text_5.started,text_5.stopped,key_resp_6.keys,key_resp_6.rt,key_resp_6.started,key_resp_6.stopped,image_5.started,image_5.stopped,key_resp_4.keys,key_resp_4.rt,key_resp_4.started,key_resp_4.stopped,key_resp_5.keys,key_resp_5.corr,key_resp_5.rt,key_resp_5.started,key_resp_5.stopped,text_3.started,text_3.stopped,H1_2.started,H1_2.stopped,H2_2.started,H2_2.stopped,H3_2.started,H3_2.stopped,H4_2.started,H4_2.stopped,F1_2.started,F1_2.stopped,F2_2.started,F2_2.stopped,F3_2.started,F3_2.stopped,F4_2.started,F4_2.stopped,image_8.started,image_8.stopped,text_2.started,text_2.stopped,image_6.started,image_6.stopped,participant,session,date,expName,psychopyVersion,frameRate,
,,,,,,,,,,,,,,,,,,,,,,,,,,,,,,,,8.65118700000312,None,9.603307199999108,None,space,7.275534000000334,9.603307199999108,None,,,,,,,,,,,,,,,,,,,,,,,,,,,,,,,,,,,,,,,,,,,,,,,,,,,,,,,,,,,,,,,,,,,,,,,,,,,,,11001,001,2023_Dec_29_1020,nback,2021.2.3,60.33415468144957,
0-back,instructions\back-0.png,conditions\0back-p.xlsx,instructions\0-BACK.png,practice,0,1,stim\yellow.png,stim\gray.png,stim\gray.png,stim\gray.png,up,0,0,0,0,0,0,0,0,0,0,0,0,,,,,,,,,,,,,,,,,17.09730860000127,None,space,73.97366119999788,17.09730860000127,None,91.27329570000438,95.78084550000494,95.74809780000214,None,96.14855940000416,97.14969689999998,96.14855940000416,97.14969689999998,96.14855940000416,97.14969689999998,96.14855940000416,97.14969689999998,up,1,0.75468450000335,96.14855940000416,None,96.14855940000416,None,96.14855940000416,96.6489431000009,96.14855940000416,96.6489431000009,96.14855940000416,96.6489431000009,96.14855940000416,96.6489431000009,96.14855940000416,None,,,,,,,,,,,,,,,,,,,,,,,,,,,,,,,,,,,,,,,,,,11001,001,2023_Dec_29_1020,nback,2021.2.3,60.33415468144957,
0-back,instructions\back-0.png,conditions\0back-p.xlsx,instructions\0-BACK.png,practice,0,2,stim\gray.png,stim\yellow.png,stim\gray.png,stim\gray.png,left,0,0,0,0,0,0,0,0,0,1,1,1,,,,,,,,,,,,,,,,,,,,,,,,,,,97.6176734000037,98.6185345000049,97.6176734000037,98.6185345000049,97.6176734000037,98.6185345000049,97.6176734000037,98.6185345000049,left,1,0.40515799999411684,97.6176734000037,None,97.6176734000037,None,97.6176734000037,98.11785520000558,97.6176734000037,98.11785520000558,97.6176734000037,98.11785520000558,97.6176734000037,98.11785520000558,97.6176734000037,None,,,,,,,,,,,,,,,,,,,,,,,,,,,,,,,,,,,,,,,,,,11001,001,2023_Dec_29_1020,nback,2021.2.3,60.33415468144957,
0-back,instructions\back-0.png,conditions\0back-p.xlsx,instructions\0-BACK.png,practice,0,3,stim\gray.png,stim\gray.png,stim\yellow.png,stim\gray.png,right,0,0,0,0,0,0,0,0,0,2,2,2,,,,,,,,,,,,,,,,,,,,,,,,,,,99.10236240000086,100.10411480000039,99.10236240000086,100.10411480000039,99.10236240000086,100.10411480000039,99.10236240000086,100.10411480000039,right,1,0.3686913999990793,99.10236240000086,None,99.10236240000086,None,99.10236240000086,99.60342279999895,99.10236240000086,99.60342279999895,99.10236240000086,99.60342279999895,99.10236240000086,99.60342279999895,99.10236240000086,None,,,,,,,,,,,,,,,,,,,,,,,,,,,,,,,,,,,,,,,,,,11001,001,2023_Dec_29_1020,nback,2021.2.3,60.33415468144957,
0-back,instructions\back-0.png,conditions\0back-p.xlsx,instructions\0-BACK.png,practice,0,4,stim\gray.png,stim\gray.png,stim\gray.png,stim\yellow.png,down,0,0,0,0,0,0,0,0,0,3,3,3,,,,,,,,,,,,,,,,,,,,,,,,,,,100.62177890000021,101.62302009999985,100.62177890000021,101.62302009999985,100.62177890000021,101.62302009999985,100.62177890000021,101.62302009999985,down,1,0.39296009999816306,100.62177890000021,None,100.62177890000021,None,100.62177890000021,101.15479920000507,100.62177890000021,101.15479920000507,100.62177890000021,101.15479920000507,100.62177890000021,101.15479920000507,100.62177890000021,None,,,,,,,,,,,,,,,,,,,,,,,,,,,,,,,,,,,,,,,,,,11001,001,2023_Dec_29_1020,nback,2021.2.3,60.33415468144957,
0-back,instructions\back-0.png,conditions\0back-p.xlsx,instructions\0-BACK.png,practice,0,2,stim\gray.png,stim\yellow.png,stim\gray.png,stim\gray.png,left,0,0,0,0,0,0,0,0,0,4,4,4,,,,,,,,,,,,,,,,,,,,,,,,,,,102.1059796000045,103.10835619999852,102.1059796000045,103.10835619999852,102.1059796000045,103.10835619999852,102.1059796000045,103.10835619999852,left,1,0.45282070000394015,102.1059796000045,None,102.1059796000045,None,102.1059796000045,102.60783790000278,102.1059796000045,102.60783790000278,102.1059796000045,102.60783790000278,102.1059796000045,102.60783790000278,102.1059796000045,None,,,,,,,,,,,,,,,,,,,,,,,,,,,,,,,,,,,,,,,,,,11001,001,2023_Dec_29_1020,nback,2021.2.3,60.33415468144957,
0-back,instructions\back-0.png,conditions\0back-p.xlsx,instructions\0-BACK.png,practice,0,1,stim\yellow.png,stim\gray.png,stim\gray.png,stim\gray.png,up,0,0,0,0,0,0,0,0,0,5,5,5,,,,,,,,,,,,,,,,,,,,,,,,,,,103.60847180000565,104.61076930000127,103.60847180000565,104.61076930000127,103.60847180000565,104.61076930000127,103.60847180000565,104.61076930000127,up,1,0.41429860000062035,103.60847180000565,None,103.60847180000565,None,103.60847180000565,104.10920669999905,103.60847180000565,104.10920669999905,103.60847180000565,104.10920669999905,103.60847180000565,104.10920669999905,103.60847180000565,None,,,,,,,,,,,,,,,,,,,,,,,,,,,,,,,,,,,,,,,,,,11001,001,2023_Dec_29_1020,nback,2021.2.3,60.33415468144957,
0-back,instructions\back-0.png,conditions\0back-p.xlsx,instructions\0-BACK.png,practice,0,4,stim\gray.png,stim\gray.png,stim\gray.png,stim\yellow.png,down,0,0,0,0,0,0,0,0,0,6,6,6,,,,,,,,,,,,,,,,,,,,,,,,,,,105.11071910000464,106.11311530000239,105.11071910000464,106.11311530000239,105.11071910000464,106.11311530000239,105.11071910000464,106.11311530000239,down,1,0.4323651999948197,105.11071910000464,None,105.11071910000464,None,105.11071910000464,105.61200680000184,105.11071910000464,105.61200680000184,105.11071910000464,105.61200680000184,105.11071910000464,105.61200680000184,105.11071910000464,None,,,,,,,,,,,,,,,,,,,,,,,,,,,,,,,,,,,,,,,,,,11001,001,2023_Dec_29_1020,nback,2021.2.3,60.33415468144957,
0-back,instructions\back-0.png,conditions\0back-p.xlsx,instructions\0-BACK.png,practice,0,3,stim\gray.png,stim\gray.png,stim\yellow.png,stim\gray.png,right,0,0,0,0,0,0,0,0,0,7,7,7,,,,,,,,,,,,,,,,,,,,,,,,,,,106.61452120000467,107.6152360000051,106.61452120000467,107.6152360000051,106.61452120000467,107.6152360000051,106.61452120000467,107.6152360000051,right,1,0.3445434000022942,106.61452120000467,None,106.61452120000467,None,106.61452120000467,107.11450830000103,106.61452120000467,107.11450830000103,106.61452120000467,107.11450830000103,106.61452120000467,107.11450830000103,106.61452120000467,None,,,,,,,,,,,,,,,,,,,,,,,,,,,,,,,,,,,,,,,,,,11001,001,2023_Dec_29_1020,nback,2021.2.3,60.33415468144957,
0-back,instructions\back-0.png,conditions\0back-p.xlsx,instructions\0-BACK.png,practice,0,3,stim\gray.png,stim\gray.png,stim\yellow.png,stim\gray.png,right,0,0,0,0,0,0,0,0,0,8,8,8,,,,,,,,,,,,,,,,,,,,,,,,,,,108.11637290000363,109.11741240000265,108.11637290000363,109.11741240000265,108.11637290000363,109.11741240000265,108.11637290000363,109.11741240000265,right,1,0.3943892999959644,108.11637290000363,None,108.11637290000363,None,108.11637290000363,108.61673380000138,108.11637290000363,108.61673380000138,108.11637290000363,108.61673380000138,108.11637290000363,108.61673380000138,108.11637290000363,None,,,,,,,,,,,,,,,,,,,,,,,,,,,,,,,,,,,,,,,,,,11001,001,2023_Dec_29_1020,nback,2021.2.3,60.33415468144957,
0-back,instructions\back-0.png,conditions\0back-p.xlsx,instructions\0-BACK.png,practice,0,4,stim\gray.png,stim\gray.png,stim\gray.png,stim\yellow.png,down,0,0,0,0,0,0,0,0,0,9,9,9,,,,,,,,,,,,,,,,,,,,,,,,,,,109.60185130000173,110.60272370000166,109.60185130000173,110.60272370000166,109.60185130000173,110.60272370000166,109.60185130000173,110.60272370000166,None,0,,109.60185130000173,None,109.60185130000173,None,109.60185130000173,110.10233510000398,109.60185130000173,110.10233510000398,109.60185130000173,110.10233510000398,109.60185130000173,110.10233510000398,109.60185130000173,None,,,,,,,,,,,,,,,,,,,,,,,,,,,,,,,,,,,,,,,,,,11001,001,2023_Dec_29_1020,nback,2021.2.3,60.33415468144957,
0-back,instructions\back-0.png,conditions\0back-p.xlsx,instructions\0-BACK.png,practice,0,1,stim\yellow.png,stim\gray.png,stim\gray.png,stim\gray.png,up,0,0,0,0,0,0,0,0,0,10,10,10,,,,,,,,,,,,,,,,,,,,,,,,,,,111.10283850000269,112.10452810000425,111.10283850000269,112.10452810000425,111.10283850000269,112.10452810000425,111.10283850000269,112.10452810000425,up,1,0.3198271999935969,111.10283850000269,None,111.10283850000269,None,111.10283850000269,111.60400800000207,111.10283850000269,111.60400800000207,111.10283850000269,111.60400800000207,111.10283850000269,111.60400800000207,111.10283850000269,None,,,,,,,,,,,,,,,,,,,,,,,,,,,,,,,,,,,,,,,,,,11001,001,2023_Dec_29_1020,nback,2021.2.3,60.33415468144957,
0-back,instructions\back-0.png,conditions\0back-p.xlsx,instructions\0-BACK.png,practice,0,2,stim\gray.png,stim\yellow.png,stim\gray.png,stim\gray.png,left,0,0,0,0,0,0,0,0,0,11,11,11,,,,,,,,,,,,,,,,,,,,,,,,,,,112.6234409000026,113.62409290000505,112.6234409000026,113.62409290000505,112.6234409000026,113.62409290000505,112.6234409000026,113.62409290000505,left,1,0.32753129999764496,112.6234409000026,None,112.6234409000026,None,112.6234409000026,113.12303619999875,112.6234409000026,113.12303619999875,112.6234409000026,113.12303619999875,112.6234409000026,113.12303619999875,112.6234409000026,None,,,,,,,,,,,,,,,,,,,,,,,,,,,,,,,,,,,,,,,,,,11001,001,2023_Dec_29_1020,nback,2021.2.3,60.33415468144957,
0-back,instructions\back-0.png,conditions\0back-p.xlsx,instructions\0-BACK.png,practice,0,4,stim\gray.png,stim\gray.png,stim\gray.png,stim\yellow.png,down,0,0,0,0,0,0,0,0,0,12,12,12,,,,,,,,,,,,,,,,,,,,,,,,,,,114.10718890000135,115.10966400000325,114.10718890000135,115.10966400000325,114.10718890000135,115.10966400000325,114.10718890000135,115.10966400000325,down,1,0.29995960000087507,114.10718890000135,None,114.10718890000135,None,114.10718890000135,114.60849299999973,114.10718890000135,114.60849299999973,114.10718890000135,114.60849299999973,114.10718890000135,114.60849299999973,114.10718890000135,None,,,,,,,,,,,,,,,,,,,,,,,,,,,,,,,,,,,,,,,,,,11001,001,2023_Dec_29_1020,nback,2021.2.3,60.33415468144957,
0-back,instructions\back-0.png,conditions\0back-p.xlsx,instructions\0-BACK.png,practice,0,3,stim\gray.png,stim\gray.png,stim\yellow.png,stim\gray.png,right,0,0,0,0,0,0,0,0,0,13,13,13,,,,,,,,,,,,,,,,,,,,,,,,,,,115.62781640000321,116.62851840000076,115.62781640000321,116.62851840000076,115.62781640000321,116.62851840000076,115.62781640000321,116.62851840000076,right,1,0.29194139999890467,115.62781640000321,None,115.62781640000321,None,115.62781640000321,116.12781679999898,115.62781640000321,116.12781679999898,115.62781640000321,116.12781679999898,115.62781640000321,116.12781679999898,115.62781640000321,None,,,,,,,,,,,,,,,,,,,,,,,,,,,,,,,,,,,,,,,,,,11001,001,2023_Dec_29_1020,nback,2021.2.3,60.33415468144957,
0-back,instructions\back-0.png,conditions\0back-p.xlsx,instructions\0-BACK.png,practice,0,1,stim\yellow.png,stim\gray.png,stim\gray.png,stim\gray.png,up,0,0,0,0,0,0,0,0,0,14,14,14,,,,,,,,,,,,,,,,,,,,,,,,,,,117.09546720000071,118.09665880000102,117.09546720000071,118.09665880000102,117.09546720000071,118.09665880000102,117.09546720000071,118.09665880000102,up,1,0.27157480000460055,117.09546720000071,None,117.09546720000071,None,117.09546720000071,117.59667610000179,117.09546720000071,117.59667610000179,117.09546720000071,117.59667610000179,117.09546720000071,117.59667610000179,117.09546720000071,None,,,,,,,,,,,,,,,,,,,,,,,,,,,,,,,,,,,,,,,,,,11001,001,2023_Dec_29_1020,nback,2021.2.3,60.33415468144957,
0-back,instructions\back-0.png,conditions\0back-p.xlsx,instructions\0-BACK.png,practice,0,2,stim\gray.png,stim\yellow.png,stim\gray.png,stim\gray.png,left,0,0,0,0,0,0,0,0,0,15,15,15,,,,,,,,,,,,,,,,,,,,,,,,,,,118.5971978000016,119.59962680000172,118.5971978000016,119.59962680000172,118.5971978000016,119.59962680000172,118.5971978000016,119.59962680000172,left,1,0.2741371000010986,118.5971978000016,None,118.5971978000016,None,118.5971978000016,119.09947430000466,118.5971978000016,119.09947430000466,118.5971978000016,119.09947430000466,118.5971978000016,119.09947430000466,118.5971978000016,None,,,,,,,,,,,,,,,,,,,,,,,,,,,,,,,,,,,,,,,,,,11001,001,2023_Dec_29_1020,nback,2021.2.3,60.33415468144957,
0-back,instructions\back-0.png,conditions\0back-p.xlsx,instructions\0-BACK.png,practice,0,3,stim\gray.png,stim\gray.png,stim\yellow.png,stim\gray.png,right,0,0,0,0,0,0,0,0,0,16,16,16,,,,,,,,,,,,,,,,,,,,,,,,,,,120.09959969999909,121.10194970000157,120.09959969999909,121.10194970000157,120.09959969999909,121.10194970000157,120.09959969999909,121.10194970000157,right,1,0.2837530999968294,120.09959969999909,None,120.09959969999909,None,120.09959969999909,120.60152210000524,120.09959969999909,120.60152210000524,120.09959969999909,120.60152210000524,120.09959969999909,120.60152210000524,120.09959969999909,None,,,,,,,,,,,,,,,,,,,,,,,,,,,,,,,,,,,,,,,,,,11001,001,2023_Dec_29_1020,nback,2021.2.3,60.33415468144957,
0-back,instructions\back-0.png,conditions\0back-p.xlsx,instructions\0-BACK.png,practice,0,1,stim\yellow.png,stim\gray.png,stim\gray.png,stim\gray.png,up,0,0,0,0,0,0,0,0,0,17,17,17,,,,,,,,,,,,,,,,,,,,,,,,,,,121.61950449999858,122.62002470000152,121.61950449999858,122.62002470000152,121.61950449999858,122.62002470000152,121.61950449999858,122.62002470000152,up,1,0.39547329999913927,121.61950449999858,None,121.61950449999858,None,121.61950449999858,122.1198430000004,121.61950449999858,122.1198430000004,121.61950449999858,122.1198430000004,121.61950449999858,122.1198430000004,121.61950449999858,None,,,,,,,,,,,,,,,,,,,,,,,,,,,,,,,,,,,,,,,,,,11001,001,2023_Dec_29_1020,nback,2021.2.3,60.33415468144957,
0-back,instructions\back-0.png,conditions\0back-p.xlsx,instructions\0-BACK.png,practice,0,4,stim\gray.png,stim\gray.png,stim\gray.png,stim\yellow.png,down,0,0,0,0,0,0,0,0,0,18,18,18,,,,,,,,,,,,,,,,,,,,,,,,,,,123.10409880000225,124.106108400003,123.10409880000225,124.106108400003,123.10409880000225,124.106108400003,123.10409880000225,124.106108400003,down,1,0.27110910000192234,123.10409880000225,None,123.10409880000225,None,123.10409880000225,123.60559460000513,123.10409880000225,123.60559460000513,123.10409880000225,123.60559460000513,123.10409880000225,123.60559460000513,123.10409880000225,None,,,,,,,,,,,,,,,,,,,,,,,,,,,,,,,,,,,,,,,,,,11001,001,2023_Dec_29_1020,nback,2021.2.3,60.33415468144957,
0-back,instructions\back-0.png,conditions\0back-p.xlsx,instructions\0-BACK.png,practice,0,2,stim\gray.png,stim\yellow.png,stim\gray.png,stim\gray.png,left,0,0,0,0,0,0,0,0,0,19,19,19,,,,,,,,,,,,,,,,,,,,,,,,,,,124.60623889999988,125.60853700000007,124.60623889999988,125.60853700000007,124.60623889999988,125.60853700000007,124.60623889999988,125.60853700000007,left,1,0.35233299999526935,124.60623889999988,None,124.60623889999988,None,124.60623889999988,125.10827499999868,124.60623889999988,125.10827499999868,124.60623889999988,125.10827499999868,124.60623889999988,125.10827499999868,124.60623889999988,None,,,,,,,,,,,,,,,,,,,,,,,,,,,,,,,,,,,,,,,,,,11001,001,2023_Dec_29_1020,nback,2021.2.3,60.33415468144957,
0-back,instructions\back-0.png,conditions\0back-p.xlsx,instructions\0-BACK.png,,,,,,,,,0,0,0,0,0,0,0,0,,,,,,,,,,,,,,,,,,,,,,,,,,,,,,,,,,,,,,,,,,,,,,,,,,,,,,,,,,,,,,,,,,,,,,,,,,,,,,,,,,,,,,,,,,,,,,,,,11001,001,2023_Dec_29_1020,nback,2021.2.3,60.33415468144957,
1-back,instructions\back-1.png,conditions\1back-p.xlsx,instructions\1-BACK.png,practice,1,1,stim\yellow.png,stim\gray.png,stim\gray.png,stim\gray.png,None,0,0,0,0,0,1,1,1,0,0,0,0,,,,,,,,,,,,,,,,,126.32619189999969,None,space,28.88067140000203,126.32619189999969,None,155.41940189999877,159.9263323999985,159.89219840000442,None,160.27556660000118,161.27811010000005,160.27556660000118,161.27811010000005,160.27556660000118,161.27811010000005,160.27556660000118,161.27811010000005,None,1,,160.27556660000118,None,160.27556660000118,None,160.27556660000118,160.77738859999954,160.27556660000118,160.77738859999954,160.27556660000118,160.77738859999954,160.27556660000118,160.77738859999954,160.27556660000118,None,,,,,,,,,,,,,,,,,,,,,,,,,,,,,,,,,,,,,,,,,,11001,001,2023_Dec_29_1020,nback,2021.2.3,60.33415468144957,
1-back,instructions\back-1.png,conditions\1back-p.xlsx,instructions\1-BACK.png,practice,1,2,stim\gray.png,stim\yellow.png,stim\gray.png,stim\gray.png,up,0,0,0,0,0,1,1,1,0,1,1,1,,,,,,,,,,,,,,,,,,,,,,,,,,,161.762882300005,162.76328400000057,161.762882300005,162.76328400000057,161.762882300005,162.76328400000057,161.762882300005,162.76328400000057,up,1,0.42018580000149086,161.762882300005,None,161.762882300005,None,161.762882300005,162.2629029000018,161.762882300005,162.2629029000018,161.762882300005,162.2629029000018,161.762882300005,162.2629029000018,161.762882300005,None,,,,,,,,,,,,,,,,,,,,,,,,,,,,,,,,,,,,,,,,,,11001,001,2023_Dec_29_1020,nback,2021.2.3,60.33415468144957,
1-back,instructions\back-1.png,conditions\1back-p.xlsx,instructions\1-BACK.png,practice,1,3,stim\gray.png,stim\gray.png,stim\yellow.png,stim\gray.png,left,0,0,0,0,0,1,1,1,0,2,2,2,,,,,,,,,,,,,,,,,,,,,,,,,,,163.2652253999986,164.26583860000392,163.2652253999986,164.26583860000392,163.2652253999986,164.26583860000392,163.2652253999986,164.26583860000392,left,1,0.27789879999909317,163.2652253999986,None,163.2652253999986,None,163.2652253999986,163.76509430000442,163.2652253999986,163.76509430000442,163.2652253999986,163.76509430000442,163.2652253999986,163.76509430000442,163.2652253999986,None,,,,,,,,,,,,,,,,,,,,,,,,,,,,,,,,,,,,,,,,,,11001,001,2023_Dec_29_1020,nback,2021.2.3,60.33415468144957,
1-back,instructions\back-1.png,conditions\1back-p.xlsx,instructions\1-BACK.png,practice,1,4,stim\gray.png,stim\gray.png,stim\gray.png,stim\yellow.png,right,0,0,0,0,0,1,1,1,0,3,3,3,,,,,,,,,,,,,,,,,,,,,,,,,,,164.7671061000001,165.7679386000018,164.7671061000001,165.7679386000018,164.7671061000001,165.7679386000018,164.7671061000001,165.7679386000018,down,0,0.8640166999975918,164.7671061000001,None,164.7671061000001,None,164.7671061000001,165.2673477999997,164.7671061000001,165.2673477999997,164.7671061000001,165.2673477999997,164.7671061000001,165.2673477999997,164.7671061000001,None,,,,,,,,,,,,,,,,,,,,,,,,,,,,,,,,,,,,,,,,,,11001,001,2023_Dec_29_1020,nback,2021.2.3,60.33415468144957,
1-back,instructions\back-1.png,conditions\1back-p.xlsx,instructions\1-BACK.png,practice,1,2,stim\gray.png,stim\yellow.png,stim\gray.png,stim\gray.png,down,0,0,0,0,0,1,1,1,0,4,4,4,,,,,,,,,,,,,,,,,,,,,,,,,,,166.26923499999975,167.2704184000031,166.26923499999975,167.2704184000031,166.26923499999975,167.2704184000031,166.26923499999975,167.2704184000031,None,0,,166.26923499999975,None,166.26923499999975,None,166.26923499999975,166.76916120000533,166.26923499999975,166.76916120000533,166.26923499999975,166.76916120000533,166.26923499999975,166.76916120000533,166.26923499999975,None,,,,,,,,,,,,,,,,,,,,,,,,,,,,,,,,,,,,,,,,,,11001,001,2023_Dec_29_1020,nback,2021.2.3,60.33415468144957,
1-back,instructions\back-1.png,conditions\1back-p.xlsx,instructions\1-BACK.png,practice,1,1,stim\yellow.png,stim\gray.png,stim\gray.png,stim\gray.png,left,0,0,0,0,0,1,1,1,0,5,5,5,,,,,,,,,,,,,,,,,,,,,,,,,,,167.75351110000338,168.7558347000013,167.75351110000338,168.7558347000013,167.75351110000338,168.7558347000013,167.75351110000338,168.7558347000013,left,1,0.8938976999997976,167.75351110000338,None,167.75351110000338,None,167.75351110000338,168.25458600000275,167.75351110000338,168.25458600000275,167.75351110000338,168.25458600000275,167.75351110000338,168.25458600000275,167.75351110000338,None,,,,,,,,,,,,,,,,,,,,,,,,,,,,,,,,,,,,,,,,,,11001,001,2023_Dec_29_1020,nback,2021.2.3,60.33415468144957,
1-back,instructions\back-1.png,conditions\1back-p.xlsx,instructions\1-BACK.png,practice,1,4,stim\gray.png,stim\gray.png,stim\gray.png,stim\yellow.png,up,0,0,0,0,0,1,1,1,0,6,6,6,,,,,,,,,,,,,,,,,,,,,,,,,,,169.2556149000011,170.25811700000486,169.2556149000011,170.25811700000486,169.2556149000011,170.25811700000486,169.2556149000011,170.25811700000486,up,1,0.8633690999995451,169.2556149000011,None,169.2556149000011,None,169.2556149000011,169.75723840000137,169.2556149000011,169.75723840000137,169.2556149000011,169.75723840000137,169.2556149000011,169.75723840000137,169.2556149000011,None,,,,,,,,,,,,,,,,,,,,,,,,,,,,,,,,,,,,,,,,,,11001,001,2023_Dec_29_1020,nback,2021.2.3,60.33415468144957,
1-back,instructions\back-1.png,conditions\1back-p.xlsx,instructions\1-BACK.png,practice,1,3,stim\gray.png,stim\gray.png,stim\yellow.png,stim\gray.png,down,0,0,0,0,0,1,1,1,0,7,7,7,,,,,,,,,,,,,,,,,,,,,,,,,,,170.74152850000246,171.74365460000263,170.74152850000246,171.74365460000263,170.74152850000246,171.74365460000263,170.74152850000246,171.74365460000263,down,1,1.097609399999783,170.74152850000246,None,170.74152850000246,None,170.74152850000246,171.242468000004,170.74152850000246,171.242468000004,170.74152850000246,171.242468000004,170.74152850000246,171.242468000004,170.74152850000246,None,,,,,,,,,,,,,,,,,,,,,,,,,,,,,,,,,,,,,,,,,,11001,001,2023_Dec_29_1020,nback,2021.2.3,60.33415468144957,
1-back,instructions\back-1.png,conditions\1back-p.xlsx,instructions\1-BACK.png,practice,1,3,stim\gray.png,stim\gray.png,stim\yellow.png,stim\gray.png,right,0,0,0,0,0,1,1,1,0,8,8,8,,,,,,,,,,,,,,,,,,,,,,,,,,,172.2615059000018,173.262484400002,172.2615059000018,173.262484400002,172.2615059000018,173.262484400002,172.2615059000018,173.262484400002,None,0,,172.2615059000018,None,172.2615059000018,None,172.2615059000018,172.76197469999897,172.2615059000018,172.76197469999897,172.2615059000018,172.76197469999897,172.2615059000018,172.76197469999897,172.2615059000018,None,,,,,,,,,,,,,,,,,,,,,,,,,,,,,,,,,,,,,,,,,,11001,001,2023_Dec_29_1020,nback,2021.2.3,60.33415468144957,
1-back,instructions\back-1.png,conditions\1back-p.xlsx,instructions\1-BACK.png,practice,1,4,stim\gray.png,stim\gray.png,stim\gray.png,stim\yellow.png,right,0,0,0,0,0,1,1,1,0,9,9,9,,,,,,,,,,,,,,,,,,,,,,,,,,,173.7637332000013,174.76434850000078,173.7637332000013,174.76434850000078,173.7637332000013,174.76434850000078,173.7637332000013,174.76434850000078,None,0,,173.7637332000013,None,173.7637332000013,None,173.7637332000013,174.2637332000013,173.7637332000013,174.2637332000013,173.7637332000013,174.2637332000013,173.7637332000013,174.2637332000013,173.7637332000013,None,,,,,,,,,,,,,,,,,,,,,,,,,,,,,,,,,,,,,,,,,,11001,001,2023_Dec_29_1020,nback,2021.2.3,60.33415468144957,
1-back,instructions\back-1.png,conditions\1back-p.xlsx,instructions\1-BACK.png,practice,1,1,stim\yellow.png,stim\gray.png,stim\gray.png,stim\gray.png,down,0,0,0,0,0,1,1,1,0,10,10,10,,,,,,,,,,,,,,,,,,,,,,,,,,,175.26550190000125,176.26660560000164,175.26550190000125,176.26660560000164,175.26550190000125,176.26660560000164,175.26550190000125,176.26660560000164,None,0,,175.26550190000125,None,175.26550190000125,None,175.26550190000125,175.7661533999999,175.26550190000125,175.7661533999999,175.26550190000125,175.7661533999999,175.26550190000125,175.7661533999999,175.26550190000125,None,,,,,,,,,,,,,,,,,,,,,,,,,,,,,,,,,,,,,,,,,,11001,001,2023_Dec_29_1020,nback,2021.2.3,60.33415468144957,
1-back,instructions\back-1.png,conditions\1back-p.xlsx,instructions\1-BACK.png,practice,1,2,stim\gray.png,stim\yellow.png,stim\gray.png,stim\gray.png,up,0,0,0,0,0,1,1,1,0,11,11,11,,,,,,,,,,,,,,,,,,,,,,,,,,,176.7506882000016,177.75249710000207,176.7506882000016,177.75249710000207,176.7506882000016,177.75249710000207,176.7506882000016,177.75249710000207,up,1,0.5441543999986607,176.7506882000016,None,176.7506882000016,None,176.7506882000016,177.25173229999928,176.7506882000016,177.25173229999928,176.7506882000016,177.25173229999928,176.7506882000016,177.25173229999928,176.7506882000016,None,,,,,,,,,,,,,,,,,,,,,,,,,,,,,,,,,,,,,,,,,,11001,001,2023_Dec_29_1020,nback,2021.2.3,60.33415468144957,
1-back,instructions\back-1.png,conditions\1back-p.xlsx,instructions\1-BACK.png,practice,1,4,stim\gray.png,stim\gray.png,stim\gray.png,stim\yellow.png,left,0,0,0,0,0,1,1,1,0,12,12,12,,,,,,,,,,,,,,,,,,,,,,,,,,,178.25214979999873,179.25484069999948,178.25214979999873,179.25484069999948,178.25214979999873,179.25484069999948,178.25214979999873,179.25484069999948,left,1,0.6513367999941693,178.25214979999873,None,178.25214979999873,None,178.25214979999873,178.75400880000234,178.25214979999873,178.75400880000234,178.25214979999873,178.75400880000234,178.25214979999873,178.75400880000234,178.25214979999873,None,,,,,,,,,,,,,,,,,,,,,,,,,,,,,,,,,,,,,,,,,,11001,001,2023_Dec_29_1020,nback,2021.2.3,60.33415468144957,
1-back,instructions\back-1.png,conditions\1back-p.xlsx,instructions\1-BACK.png,practice,1,3,stim\gray.png,stim\gray.png,stim\yellow.png,stim\gray.png,down,0,0,0,0,0,1,1,1,0,13,13,13,,,,,,,,,,,,,,,,,,,,,,,,,,,179.7546383000008,180.7569555000009,179.7546383000008,180.7569555000009,179.7546383000008,180.7569555000009,179.7546383000008,180.7569555000009,None,0,,179.7546383000008,None,179.7546383000008,None,179.7546383000008,180.25616209999862,179.7546383000008,180.25616209999862,179.7546383000008,180.25616209999862,179.7546383000008,180.25616209999862,179.7546383000008,None,,,,,,,,,,,,,,,,,,,,,,,,,,,,,,,,,,,,,,,,,,11001,001,2023_Dec_29_1020,nback,2021.2.3,60.33415468144957,
1-back,instructions\back-1.png,conditions\1back-p.xlsx,instructions\1-BACK.png,practice,1,1,stim\yellow.png,stim\gray.png,stim\gray.png,stim\gray.png,right,0,0,0,0,0,1,1,1,0,14,14,14,,,,,,,,,,,,,,,,,,,,,,,,,,,181.24090110000543,182.24252680000063,181.24090110000543,182.24252680000063,181.24090110000543,182.24252680000063,181.24090110000543,182.24252680000063,None,0,,181.24090110000543,None,181.24090110000543,None,181.24090110000543,181.7422829999996,181.24090110000543,181.7422829999996,181.24090110000543,181.7422829999996,181.24090110000543,181.7422829999996,181.24090110000543,None,,,,,,,,,,,,,,,,,,,,,,,,,,,,,,,,,,,,,,,,,,11001,001,2023_Dec_29_1020,nback,2021.2.3,60.33415468144957,
1-back,instructions\back-1.png,conditions\1back-p.xlsx,instructions\1-BACK.png,practice,1,2,stim\gray.png,stim\yellow.png,stim\gray.png,stim\gray.png,up,0,0,0,0,0,1,1,1,0,15,15,15,,,,,,,,,,,,,,,,,,,,,,,,,,,182.7422946000006,183.74508649999916,182.7422946000006,183.74508649999916,182.7422946000006,183.74508649999916,182.7422946000006,183.74508649999916,up,1,0.4729014000040479,182.7422946000006,None,182.7422946000006,None,182.7422946000006,183.24321240000427,182.7422946000006,183.24321240000427,182.7422946000006,183.24321240000427,182.7422946000006,183.24321240000427,182.7422946000006,None,,,,,,,,,,,,,,,,,,,,,,,,,,,,,,,,,,,,,,,,,,11001,001,2023_Dec_29_1020,nback,2021.2.3,60.33415468144957,
1-back,instructions\back-1.png,conditions\1back-p.xlsx,instructions\1-BACK.png,practice,1,3,stim\gray.png,stim\gray.png,stim\yellow.png,stim\gray.png,left,0,0,0,0,0,1,1,1,0,16,16,16,,,,,,,,,,,,,,,,,,,,,,,,,,,184.24491750000016,185.2468876999992,184.24491750000016,185.2468876999992,184.24491750000016,185.2468876999992,184.24491750000016,185.2468876999992,left,1,0.6585145999997621,184.24491750000016,None,184.24491750000016,None,184.24491750000016,184.74617969999963,184.24491750000016,184.74617969999963,184.24491750000016,184.74617969999963,184.24491750000016,184.74617969999963,184.24491750000016,None,,,,,,,,,,,,,,,,,,,,,,,,,,,,,,,,,,,,,,,,,,11001,001,2023_Dec_29_1020,nback,2021.2.3,60.33415468144957,
1-back,instructions\back-1.png,conditions\1back-p.xlsx,instructions\1-BACK.png,practice,1,1,stim\yellow.png,stim\gray.png,stim\gray.png,stim\gray.png,right,0,0,0,0,0,1,1,1,0,17,17,17,,,,,,,,,,,,,,,,,,,,,,,,,,,185.74680540000554,186.74915899999905,185.74680540000554,186.74915899999905,185.74680540000554,186.74915899999905,185.74680540000554,186.74915899999905,up,0,0.6921246999991126,185.74680540000554,None,185.74680540000554,None,185.74680540000554,186.24818130000494,185.74680540000554,186.24818130000494,185.74680540000554,186.24818130000494,185.74680540000554,186.24818130000494,185.74680540000554,None,,,,,,,,,,,,,,,,,,,,,,,,,,,,,,,,,,,,,,,,,,11001,001,2023_Dec_29_1020,nback,2021.2.3,60.33415468144957,
1-back,instructions\back-1.png,conditions\1back-p.xlsx,instructions\1-BACK.png,practice,1,4,stim\gray.png,stim\gray.png,stim\gray.png,stim\yellow.png,up,0,0,0,0,0,1,1,1,0,18,18,18,,,,,,,,,,,,,,,,,,,,,,,,,,,187.24905760000547,188.25136580000253,187.24905760000547,188.25136580000253,187.24905760000547,188.25136580000253,187.24905760000547,188.25136580000253,None,0,,187.24905760000547,None,187.24905760000547,None,187.24905760000547,187.75075389999984,187.24905760000547,187.75075389999984,187.24905760000547,187.75075389999984,187.24905760000547,187.75075389999984,187.24905760000547,None,,,,,,,,,,,,,,,,,,,,,,,,,,,,,,,,,,,,,,,,,,11001,001,2023_Dec_29_1020,nback,2021.2.3,60.33415468144957,
1-back,instructions\back-1.png,conditions\1back-p.xlsx,instructions\1-BACK.png,practice,1,2,stim\gray.png,stim\yellow.png,stim\gray.png,stim\gray.png,down,0,0,0,0,0,1,1,1,0,19,19,19,,,,,,,,,,,,,,,,,,,,,,,,,,,188.75202089999948,189.75371940000332,188.75202089999948,189.75371940000332,188.75202089999948,189.75371940000332,188.75202089999948,189.75371940000332,None,0,,188.75202089999948,None,188.75202089999948,None,188.75202089999948,189.2521607000017,188.75202089999948,189.2521607000017,188.75202089999948,189.2521607000017,188.75202089999948,189.2521607000017,188.75202089999948,None,,,,,,,,,,,,,,,,,,,,,,,,,,,,,,,,,,,,,,,,,,11001,001,2023_Dec_29_1020,nback,2021.2.3,60.33415468144957,
1-back,instructions\back-1.png,conditions\1back-p.xlsx,instructions\1-BACK.png,,,,,,,,,0,0,0,0,0,1,1,1,,,,,,,,,,,,,,,,,,,,,,,,,,,,,,,,,,,,,,,,,,,,,,,,,,,,,,,,,,,,,,,,,,,,,,,,,,,,,,,,,,,,,,,,,,,,,,,,,11001,001,2023_Dec_29_1020,nback,2021.2.3,60.33415468144957,
2-back,instructions\back-2.png,conditions\2back-p.xlsx,instructions\2-BACK.png,practice,2,1,stim\yellow.png,stim\gray.png,stim\gray.png,stim\gray.png,None,0,0,0,0,0,2,2,2,0,0,0,0,,,,,,,,,,,,,,,,,190.4201783000026,None,space,30.306936300003144,190.4201783000026,None,220.91618410000228,225.4229755999986,225.38974920000328,None,225.80744570000388,226.80849039999885,225.80744570000388,226.80849039999885,225.80744570000388,226.80849039999885,225.80744570000388,226.80849039999885,None,1,,225.80744570000388,None,225.80744570000388,None,225.80744570000388,226.30777800000214,225.80744570000388,226.30777800000214,225.80744570000388,226.30777800000214,225.80744570000388,226.30777800000214,225.80744570000388,None,,,,,,,,,,,,,,,,,,,,,,,,,,,,,,,,,,,,,,,,,,11001,001,2023_Dec_29_1020,nback,2021.2.3,60.33415468144957,
2-back,instructions\back-2.png,conditions\2back-p.xlsx,instructions\2-BACK.png,practice,2,2,stim\gray.png,stim\yellow.png,stim\gray.png,stim\gray.png,None,0,0,0,0,0,2,2,2,0,1,1,1,,,,,,,,,,,,,,,,,,,,,,,,,,,227.27618140000413,228.27729790000012,227.27618140000413,228.27729790000012,227.27618140000413,228.27729790000012,227.27618140000413,228.27729790000012,None,1,,227.27618140000413,None,227.27618140000413,None,227.27618140000413,227.7766083000024,227.27618140000413,227.7766083000024,227.27618140000413,227.7766083000024,227.27618140000413,227.7766083000024,227.27618140000413,None,,,,,,,,,,,,,,,,,,,,,,,,,,,,,,,,,,,,,,,,,,11001,001,2023_Dec_29_1020,nback,2021.2.3,60.33415468144957,
2-back,instructions\back-2.png,conditions\2back-p.xlsx,instructions\2-BACK.png,practice,2,3,stim\gray.png,stim\gray.png,stim\yellow.png,stim\gray.png,up,0,0,0,0,0,2,2,2,0,2,2,2,,,,,,,,,,,,,,,,,,,,,,,,,,,228.7787965000025,229.77947270000004,228.7787965000025,229.77947270000004,228.7787965000025,229.77947270000004,228.7787965000025,229.77947270000004,up,1,0.3167544999960228,228.7787965000025,None,228.7787965000025,None,228.7787965000025,229.2788303999987,228.7787965000025,229.2788303999987,228.7787965000025,229.2788303999987,228.7787965000025,229.2788303999987,228.7787965000025,None,,,,,,,,,,,,,,,,,,,,,,,,,,,,,,,,,,,,,,,,,,11001,001,2023_Dec_29_1020,nback,2021.2.3,60.33415468144957,
2-back,instructions\back-2.png,conditions\2back-p.xlsx,instructions\2-BACK.png,practice,2,4,stim\gray.png,stim\gray.png,stim\gray.png,stim\yellow.png,left,0,0,0,0,0,2,2,2,0,3,3,3,,,,,,,,,,,,,,,,,,,,,,,,,,,230.28119970000262,231.2815660000051,230.28119970000262,231.2815660000051,230.28119970000262,231.2815660000051,230.28119970000262,231.2815660000051,left,1,0.09396669999841833,230.28119970000262,None,230.28119970000262,None,230.28119970000262,230.78095230000326,230.28119970000262,230.78095230000326,230.28119970000262,230.78095230000326,230.28119970000262,230.78095230000326,230.28119970000262,None,,,,,,,,,,,,,,,,,,,,,,,,,,,,,,,,,,,,,,,,,,11001,001,2023_Dec_29_1020,nback,2021.2.3,60.33415468144957,
2-back,instructions\back-2.png,conditions\2back-p.xlsx,instructions\2-BACK.png,practice,2,2,stim\gray.png,stim\yellow.png,stim\gray.png,stim\gray.png,right,0,0,0,0,0,2,2,2,0,4,4,4,,,,,,,,,,,,,,,,,,,,,,,,,,,231.78287249999994,232.78398340000422,231.78287249999994,232.78398340000422,231.78287249999994,232.78398340000422,231.78287249999994,232.78398340000422,down,0,0.6326298999993014,231.78287249999994,None,231.78287249999994,None,231.78287249999994,232.28316220000124,231.78287249999994,232.28316220000124,231.78287249999994,232.28316220000124,231.78287249999994,232.28316220000124,231.78287249999994,None,,,,,,,,,,,,,,,,,,,,,,,,,,,,,,,,,,,,,,,,,,11001,001,2023_Dec_29_1020,nback,2021.2.3,60.33415468144957,
2-back,instructions\back-2.png,conditions\2back-p.xlsx,instructions\2-BACK.png,practice,2,1,stim\yellow.png,stim\gray.png,stim\gray.png,stim\gray.png,down,0,0,0,0,0,2,2,2,0,5,5,5,,,,,,,,,,,,,,,,,,,,,,,,,,,233.28556319999916,234.28617990000203,233.28556319999916,234.28617990000203,233.28556319999916,234.28617990000203,233.28556319999916,234.28617990000203,None,0,,233.28556319999916,None,233.28556319999916,None,233.28556319999916,233.78543060000084,233.28556319999916,233.78543060000084,233.28556319999916,233.78543060000084,233.28556319999916,233.78543060000084,233.28556319999916,None,,,,,,,,,,,,,,,,,,,,,,,,,,,,,,,,,,,,,,,,,,11001,001,2023_Dec_29_1020,nback,2021.2.3,60.33415468144957,
2-back,instructions\back-2.png,conditions\2back-p.xlsx,instructions\2-BACK.png,practice,2,4,stim\gray.png,stim\gray.png,stim\gray.png,stim\yellow.png,left,0,0,0,0,0,2,2,2,0,6,6,6,,,,,,,,,,,,,,,,,,,,,,,,,,,234.77113710000413,235.771533500003,234.77113710000413,235.771533500003,234.77113710000413,235.771533500003,234.77113710000413,235.771533500003,None,0,,234.77113710000413,None,234.77113710000413,None,234.77113710000413,235.27104780000082,234.77113710000413,235.27104780000082,234.77113710000413,235.27104780000082,234.77113710000413,235.27104780000082,234.77113710000413,None,,,,,,,,,,,,,,,,,,,,,,,,,,,,,,,,,,,,,,,,,,11001,001,2023_Dec_29_1020,nback,2021.2.3,60.33415468144957,
2-back,instructions\back-2.png,conditions\2back-p.xlsx,instructions\2-BACK.png,practice,2,3,stim\gray.png,stim\gray.png,stim\yellow.png,stim\gray.png,up,0,0,0,0,0,2,2,2,0,7,7,7,,,,,,,,,,,,,,,,,,,,,,,,,,,236.27250720000302,237.27397259999998,236.27250720000302,237.27397259999998,236.27250720000302,237.27397259999998,236.27250720000302,237.27397259999998,None,0,,236.27250720000302,None,236.27250720000302,None,236.27250720000302,236.7734006000028,236.27250720000302,236.7734006000028,236.27250720000302,236.7734006000028,236.27250720000302,236.7734006000028,236.27250720000302,None,,,,,,,,,,,,,,,,,,,,,,,,,,,,,,,,,,,,,,,,,,11001,001,2023_Dec_29_1020,nback,2021.2.3,60.33415468144957,
2-back,instructions\back-2.png,conditions\2back-p.xlsx,instructions\2-BACK.png,practice,2,3,stim\gray.png,stim\gray.png,stim\yellow.png,stim\gray.png,down,0,0,0,0,0,2,2,2,0,8,8,8,,,,,,,,,,,,,,,,,,,,,,,,,,,237.75743299999885,238.75955660000182,237.75743299999885,238.75955660000182,237.75743299999885,238.75955660000182,237.75743299999885,238.75955660000182,None,0,,237.75743299999885,None,237.75743299999885,None,237.75743299999885,238.2587629000045,237.75743299999885,238.2587629000045,237.75743299999885,238.2587629000045,237.75743299999885,238.2587629000045,237.75743299999885,None,,,,,,,,,,,,,,,,,,,,,,,,,,,,,,,,,,,,,,,,,,11001,001,2023_Dec_29_1020,nback,2021.2.3,60.33415468144957,
2-back,instructions\back-2.png,conditions\2back-p.xlsx,instructions\2-BACK.png,practice,2,4,stim\gray.png,stim\gray.png,stim\gray.png,stim\yellow.png,right,0,0,0,0,0,2,2,2,0,9,9,9,,,,,,,,,,,,,,,,,,,,,,,,,,,239.2598966000005,240.2619182999988,239.2598966000005,240.2619182999988,239.2598966000005,240.2619182999988,239.2598966000005,240.2619182999988,right,1,1.2196513999952003,239.2598966000005,None,239.2598966000005,None,239.2598966000005,239.76106900000013,239.2598966000005,239.76106900000013,239.2598966000005,239.76106900000013,239.2598966000005,239.76106900000013,239.2598966000005,None,,,,,,,,,,,,,,,,,,,,,,,,,,,,,,,,,,,,,,,,,,11001,001,2023_Dec_29_1020,nback,2021.2.3,60.33415468144957,
2-back,instructions\back-2.png,conditions\2back-p.xlsx,instructions\2-BACK.png,practice,2,1,stim\yellow.png,stim\gray.png,stim\gray.png,stim\gray.png,right,0,0,0,0,0,2,2,2,0,10,10,10,,,,,,,,,,,,,,,,,,,,,,,,,,,240.78004499999952,241.78034850000404,240.78004499999952,241.78034850000404,240.78004499999952,241.78034850000404,240.78004499999952,241.78034850000404,down,0,0.611395400002948,240.78004499999952,None,240.78004499999952,None,240.78004499999952,241.27988529999857,240.78004499999952,241.27988529999857,240.78004499999952,241.27988529999857,240.78004499999952,241.27988529999857,240.78004499999952,None,,,,,,,,,,,,,,,,,,,,,,,,,,,,,,,,,,,,,,,,,,11001,001,2023_Dec_29_1020,nback,2021.2.3,60.33415468144957,
2-back,instructions\back-2.png,conditions\2back-p.xlsx,instructions\2-BACK.png,practice,2,2,stim\gray.png,stim\yellow.png,stim\gray.png,stim\gray.png,down,0,0,0,0,0,2,2,2,0,11,11,11,,,,,,,,,,,,,,,,,,,,,,,,,,,242.28229110000393,243.28259790000448,242.28229110000393,243.28259790000448,242.28229110000393,243.28259790000448,242.28229110000393,243.28259790000448,up,0,0.9417807000063476,242.28229110000393,None,242.28229110000393,None,242.28229110000393,242.78201909999916,242.28229110000393,242.78201909999916,242.28229110000393,242.78201909999916,242.28229110000393,242.78201909999916,242.28229110000393,None,,,,,,,,,,,,,,,,,,,,,,,,,,,,,,,,,,,,,,,,,,11001,001,2023_Dec_29_1020,nback,2021.2.3,60.33415468144957,
2-back,instructions\back-2.png,conditions\2back-p.xlsx,instructions\2-BACK.png,practice,2,4,stim\gray.png,stim\gray.png,stim\gray.png,stim\yellow.png,up,0,0,0,0,0,2,2,2,0,12,12,12,,,,,,,,,,,,,,,,,,,,,,,,,,,243.76601750000555,244.7684642000022,243.76601750000555,244.7684642000022,243.76601750000555,244.7684642000022,243.76601750000555,244.7684642000022,left,0,0.3050355000013951,243.76601750000555,None,243.76601750000555,None,243.76601750000555,244.26757980000548,243.76601750000555,244.26757980000548,243.76601750000555,244.26757980000548,243.76601750000555,244.26757980000548,243.76601750000555,None,,,,,,,,,,,,,,,,,,,,,,,,,,,,,,,,,,,,,,,,,,11001,001,2023_Dec_29_1020,nback,2021.2.3,60.33415468144957,
2-back,instructions\back-2.png,conditions\2back-p.xlsx,instructions\2-BACK.png,practice,2,3,stim\gray.png,stim\gray.png,stim\yellow.png,stim\gray.png,left,0,0,0,0,0,2,2,2,0,13,13,13,,,,,,,,,,,,,,,,,,,,,,,,,,,245.28661030000512,246.28738430000521,245.28661030000512,246.28738430000521,245.28661030000512,246.28738430000521,245.28661030000512,246.28738430000521,None,0,,245.28661030000512,None,245.28661030000512,None,245.28661030000512,245.7866232000015,245.28661030000512,245.7866232000015,245.28661030000512,245.7866232000015,245.28661030000512,245.7866232000015,245.28661030000512,None,,,,,,,,,,,,,,,,,,,,,,,,,,,,,,,,,,,,,,,,,,11001,001,2023_Dec_29_1020,nback,2021.2.3,60.33415468144957,
2-back,instructions\back-2.png,conditions\2back-p.xlsx,instructions\2-BACK.png,practice,2,1,stim\yellow.png,stim\gray.png,stim\gray.png,stim\gray.png,down,0,0,0,0,0,2,2,2,0,14,14,14,,,,,,,,,,,,,,,,,,,,,,,,,,,246.77215409999917,247.77288210000552,246.77215409999917,247.77288210000552,246.77215409999917,247.77288210000552,246.77215409999917,247.77288210000552,None,0,,246.77215409999917,None,246.77215409999917,None,246.77215409999917,247.2721595000039,246.77215409999917,247.2721595000039,246.77215409999917,247.2721595000039,246.77215409999917,247.2721595000039,246.77215409999917,None,,,,,,,,,,,,,,,,,,,,,,,,,,,,,,,,,,,,,,,,,,11001,001,2023_Dec_29_1020,nback,2021.2.3,60.33415468144957,
2-back,instructions\back-2.png,conditions\2back-p.xlsx,instructions\2-BACK.png,practice,2,2,stim\gray.png,stim\yellow.png,stim\gray.png,stim\gray.png,right,0,0,0,0,0,2,2,2,0,15,15,15,,,,,,,,,,,,,,,,,,,,,,,,,,,248.27416190000076,249.27457790000335,248.27416190000076,249.27457790000335,248.27416190000076,249.27457790000335,248.27416190000076,249.27457790000335,up,0,1.3490395999979228,248.27416190000076,None,248.27416190000076,None,248.27416190000076,248.77438800000527,248.27416190000076,248.77438800000527,248.27416190000076,248.77438800000527,248.27416190000076,248.77438800000527,248.27416190000076,None,,,,,,,,,,,,,,,,,,,,,,,,,,,,,,,,,,,,,,,,,,11001,001,2023_Dec_29_1020,nback,2021.2.3,60.33415468144957,
2-back,instructions\back-2.png,conditions\2back-p.xlsx,instructions\2-BACK.png,practice,2,3,stim\gray.png,stim\gray.png,stim\yellow.png,stim\gray.png,up,0,0,0,0,0,2,2,2,0,16,16,16,,,,,,,,,,,,,,,,,,,,,,,,,,,249.7756545000011,250.77730670000165,249.7756545000011,250.77730670000165,249.7756545000011,250.77730670000165,249.7756545000011,250.77730670000165,left,0,0.6391818999982206,249.7756545000011,None,249.7756545000011,None,249.7756545000011,250.27673140000115,249.7756545000011,250.27673140000115,249.7756545000011,250.27673140000115,249.7756545000011,250.27673140000115,249.7756545000011,None,,,,,,,,,,,,,,,,,,,,,,,,,,,,,,,,,,,,,,,,,,11001,001,2023_Dec_29_1020,nback,2021.2.3,60.33415468144957,
2-back,instructions\back-2.png,conditions\2back-p.xlsx,instructions\2-BACK.png,practice,2,1,stim\yellow.png,stim\gray.png,stim\gray.png,stim\gray.png,left,0,0,0,0,0,2,2,2,0,17,17,17,,,,,,,,,,,,,,,,,,,,,,,,,,,251.27876780000224,252.279623800001,251.27876780000224,252.279623800001,251.27876780000224,252.279623800001,251.27876780000224,252.279623800001,up,0,1.0082671999989543,251.27876780000224,None,251.27876780000224,None,251.27876780000224,251.77873430000182,251.27876780000224,251.77873430000182,251.27876780000224,251.77873430000182,251.27876780000224,251.77873430000182,251.27876780000224,None,,,,,,,,,,,,,,,,,,,,,,,,,,,,,,,,,,,,,,,,,,11001,001,2023_Dec_29_1020,nback,2021.2.3,60.33415468144957,
2-back,instructions\back-2.png,conditions\2back-p.xlsx,instructions\2-BACK.png,practice,2,4,stim\gray.png,stim\gray.png,stim\gray.png,stim\yellow.png,right,0,0,0,0,0,2,2,2,0,18,18,18,,,,,,,,,,,,,,,,,,,,,,,,,,,252.78083450000122,253.78183130000252,252.78083450000122,253.78183130000252,252.78083450000122,253.78183130000252,252.78083450000122,253.78183130000252,None,0,,252.78083450000122,None,252.78083450000122,None,252.78083450000122,253.28106860000116,252.78083450000122,253.28106860000116,252.78083450000122,253.28106860000116,252.78083450000122,253.28106860000116,252.78083450000122,None,,,,,,,,,,,,,,,,,,,,,,,,,,,,,,,,,,,,,,,,,,11001,001,2023_Dec_29_1020,nback,2021.2.3,60.33415468144957,
2-back,instructions\back-2.png,conditions\2back-p.xlsx,instructions\2-BACK.png,practice,2,2,stim\gray.png,stim\yellow.png,stim\gray.png,stim\gray.png,up,0,0,0,0,0,2,2,2,0,19,19,19,,,,,,,,,,,,,,,,,,,,,,,,,,,254.28294820000156,255.2839849000011,254.28294820000156,255.2839849000011,254.28294820000156,255.2839849000011,254.28294820000156,255.2839849000011,None,0,,254.28294820000156,None,254.28294820000156,None,254.28294820000156,254.78313799999887,254.28294820000156,254.78313799999887,254.28294820000156,254.78313799999887,254.28294820000156,254.78313799999887,254.28294820000156,None,,,,,,,,,,,,,,,,,,,,,,,,,,,,,,,,,,,,,,,,,,11001,001,2023_Dec_29_1020,nback,2021.2.3,60.33415468144957,
2-back,instructions\back-2.png,conditions\2back-p.xlsx,instructions\2-BACK.png,,,,,,,,,0,0,0,0,0,2,2,2,,,,,,,,,,,,,,,,,,,,,,,,,,,,,,,,,,,,,,,,,,,,,,,,,,,,,,,,,,,,,,,,,,,,,,,,,,,,,,,,,,,,,,,,,,,,,,,,,11001,001,2023_Dec_29_1020,nback,2021.2.3,60.33415468144957,
,,,,,,,,,,,,0,0,0,0,,,,,,,,,,,,,,,,,,,,,,,,,,,,,,,,,,,,,,,,,,,,,,,,,,,,,,,,,,,,255.76724250000552,None,s,2.5449689000015496,255.76724250000552,None,,,,,,,,,,,,,,,,,,,,,,,,,,,,,,,,,,,,11001,001,2023_Dec_29_1020,nback,2021.2.3,60.33415468144957,
0-back,instructions\back-0.png,conditions\0back-p.xlsx,instructions\0-BACK.png,practice,0,1,stim\yellow.png,stim\gray.png,stim\gray.png,stim\gray.png,up,1,0,1,0,0,0,0,0,0,0,0,0,,,,,,,,,,,,,,,,,258.62204490000295,None,space,11.888833700002579,258.62204490000295,None,270.70615720000205,275.21420500000386,275.18031120000524,None,275.5644032000055,276.56554640000104,275.5644032000055,276.56554640000104,275.5644032000055,276.56554640000104,275.5644032000055,276.56554640000104,up,1,0.3628487000023597,275.5644032000055,None,275.5644032000055,None,275.5644032000055,276.0648893000034,275.5644032000055,276.0648893000034,275.5644032000055,276.0648893000034,275.5644032000055,276.0648893000034,275.5644032000055,None,,,,,,,,,,,,,,,,,,,,,,,,,,,,,,,,,,,,,,,,,,11001,001,2023_Dec_29_1020,nback,2021.2.3,60.33415468144957,
0-back,instructions\back-0.png,conditions\0back-p.xlsx,instructions\0-BACK.png,practice,0,2,stim\gray.png,stim\yellow.png,stim\gray.png,stim\gray.png,left,1,0,1,0,0,0,0,0,0,1,1,1,,,,,,,,,,,,,,,,,,,,,,,,,,,277.06663169999956,278.06774530000257,277.06663169999956,278.06774530000257,277.06663169999956,278.06774530000257,277.06663169999956,278.06774530000257,left,1,0.31697430000349414,277.06663169999956,None,277.06663169999956,None,277.06663169999956,277.56707820000156,277.06663169999956,277.56707820000156,277.06663169999956,277.56707820000156,277.06663169999956,277.56707820000156,277.06663169999956,None,,,,,,,,,,,,,,,,,,,,,,,,,,,,,,,,,,,,,,,,,,11001,001,2023_Dec_29_1020,nback,2021.2.3,60.33415468144957,
0-back,instructions\back-0.png,conditions\0back-p.xlsx,instructions\0-BACK.png,practice,0,3,stim\gray.png,stim\gray.png,stim\yellow.png,stim\gray.png,right,1,0,1,0,0,0,0,0,0,2,2,2,,,,,,,,,,,,,,,,,,,,,,,,,,,278.5690493000002,279.5700743999987,278.5690493000002,279.5700743999987,278.5690493000002,279.5700743999987,278.5690493000002,279.5700743999987,right,1,0.43020890000479994,278.5690493000002,None,278.5690493000002,None,278.5690493000002,279.0686277999994,278.5690493000002,279.0686277999994,278.5690493000002,279.0686277999994,278.5690493000002,279.0686277999994,278.5690493000002,None,,,,,,,,,,,,,,,,,,,,,,,,,,,,,,,,,,,,,,,,,,11001,001,2023_Dec_29_1020,nback,2021.2.3,60.33415468144957,
0-back,instructions\back-0.png,conditions\0back-p.xlsx,instructions\0-BACK.png,practice,0,4,stim\gray.png,stim\gray.png,stim\gray.png,stim\yellow.png,down,1,0,1,0,0,0,0,0,0,3,3,3,,,,,,,,,,,,,,,,,,,,,,,,,,,280.0530962000048,281.0556125000003,280.0530962000048,281.0556125000003,280.0530962000048,281.0556125000003,280.0530962000048,281.0556125000003,down,1,0.28991920000407845,280.0530962000048,None,280.0530962000048,None,280.0530962000048,280.5539198000042,280.0530962000048,280.5539198000042,280.0530962000048,280.5539198000042,280.0530962000048,280.5539198000042,280.0530962000048,None,,,,,,,,,,,,,,,,,,,,,,,,,,,,,,,,,,,,,,,,,,11001,001,2023_Dec_29_1020,nback,2021.2.3,60.33415468144957,
0-back,instructions\back-0.png,conditions\0back-p.xlsx,instructions\0-BACK.png,practice,0,2,stim\gray.png,stim\yellow.png,stim\gray.png,stim\gray.png,left,1,0,1,0,0,0,0,0,0,4,4,4,,,,,,,,,,,,,,,,,,,,,,,,,,,281.5555000000022,282.5578819000002,281.5555000000022,282.5578819000002,281.5555000000022,282.5578819000002,281.5555000000022,282.5578819000002,left,1,0.3954931999978726,281.5555000000022,None,281.5555000000022,None,281.5555000000022,282.0572902999993,281.5555000000022,282.0572902999993,281.5555000000022,282.0572902999993,281.5555000000022,282.0572902999993,281.5555000000022,None,,,,,,,,,,,,,,,,,,,,,,,,,,,,,,,,,,,,,,,,,,11001,001,2023_Dec_29_1020,nback,2021.2.3,60.33415468144957,
0-back,instructions\back-0.png,conditions\0back-p.xlsx,instructions\0-BACK.png,practice,0,1,stim\yellow.png,stim\gray.png,stim\gray.png,stim\gray.png,up,1,0,1,0,0,0,0,0,0,5,5,5,,,,,,,,,,,,,,,,,,,,,,,,,,,283.0580199000033,284.06016020000243,283.0580199000033,284.06016020000243,283.0580199000033,284.06016020000243,283.0580199000033,284.06016020000243,up,1,0.38124759999482194,283.0580199000033,None,283.0580199000033,None,283.0580199000033,283.5598905000006,283.0580199000033,283.5598905000006,283.0580199000033,283.5598905000006,283.0580199000033,283.5598905000006,283.0580199000033,None,,,,,,,,,,,,,,,,,,,,,,,,,,,,,,,,,,,,,,,,,,11001,001,2023_Dec_29_1020,nback,2021.2.3,60.33415468144957,
0-back,instructions\back-0.png,conditions\0back-p.xlsx,instructions\0-BACK.png,practice,0,4,stim\gray.png,stim\gray.png,stim\gray.png,stim\yellow.png,down,1,0,1,0,0,0,0,0,0,6,6,6,,,,,,,,,,,,,,,,,,,,,,,,,,,284.54324940000515,285.5462183999989,284.54324940000515,285.5462183999989,284.54324940000515,285.5462183999989,284.54324940000515,285.5462183999989,down,1,0.4001803999999538,284.54324940000515,None,284.54324940000515,None,284.54324940000515,285.044665100002,284.54324940000515,285.044665100002,284.54324940000515,285.044665100002,284.54324940000515,285.044665100002,284.54324940000515,None,,,,,,,,,,,,,,,,,,,,,,,,,,,,,,,,,,,,,,,,,,11001,001,2023_Dec_29_1020,nback,2021.2.3,60.33415468144957,
0-back,instructions\back-0.png,conditions\0back-p.xlsx,instructions\0-BACK.png,practice,0,3,stim\gray.png,stim\gray.png,stim\yellow.png,stim\gray.png,right,1,0,1,0,0,0,0,0,0,7,7,7,,,,,,,,,,,,,,,,,,,,,,,,,,,286.0458892000024,287.04767300000094,286.0458892000024,287.04767300000094,286.0458892000024,287.04767300000094,286.0458892000024,287.04767300000094,right,1,0.22557360000064364,286.0458892000024,None,286.0458892000024,None,286.0458892000024,286.5470448999986,286.0458892000024,286.5470448999986,286.0458892000024,286.5470448999986,286.0458892000024,286.5470448999986,286.0458892000024,None,,,,,,,,,,,,,,,,,,,,,,,,,,,,,,,,,,,,,,,,,,11001,001,2023_Dec_29_1020,nback,2021.2.3,60.33415468144957,
0-back,instructions\back-0.png,conditions\0back-p.xlsx,instructions\0-BACK.png,practice,0,3,stim\gray.png,stim\gray.png,stim\yellow.png,stim\gray.png,right,1,0,1,0,0,0,0,0,0,8,8,8,,,,,,,,,,,,,,,,,,,,,,,,,,,287.54749040000024,288.54967880000186,287.54749040000024,288.54967880000186,287.54749040000024,288.54967880000186,287.54749040000024,288.54967880000186,right,1,0.4275798000016948,287.54749040000024,None,287.54749040000024,None,287.54749040000024,288.0492347000036,287.54749040000024,288.0492347000036,287.54749040000024,288.0492347000036,287.54749040000024,288.0492347000036,287.54749040000024,None,,,,,,,,,,,,,,,,,,,,,,,,,,,,,,,,,,,,,,,,,,11001,001,2023_Dec_29_1020,nback,2021.2.3,60.33415468144957,
0-back,instructions\back-0.png,conditions\0back-p.xlsx,instructions\0-BACK.png,practice,0,4,stim\gray.png,stim\gray.png,stim\gray.png,stim\yellow.png,down,1,0,1,0,0,0,0,0,0,9,9,9,,,,,,,,,,,,,,,,,,,,,,,,,,,289.0680113999988,290.0693272999997,289.0680113999988,290.0693272999997,289.0680113999988,290.0693272999997,289.0680113999988,290.0693272999997,down,1,0.363079499999003,289.0680113999988,None,289.0680113999988,None,289.0680113999988,289.5681199000028,289.0680113999988,289.5681199000028,289.0680113999988,289.5681199000028,289.0680113999988,289.5681199000028,289.0680113999988,None,,,,,,,,,,,,,,,,,,,,,,,,,,,,,,,,,,,,,,,,,,11001,001,2023_Dec_29_1020,nback,2021.2.3,60.33415468144957,
0-back,instructions\back-0.png,conditions\0back-p.xlsx,instructions\0-BACK.png,practice,0,1,stim\yellow.png,stim\gray.png,stim\gray.png,stim\gray.png,up,1,0,1,0,0,0,0,0,0,10,10,10,,,,,,,,,,,,,,,,,,,,,,,,,,,290.5521446999992,291.55450199999905,290.5521446999992,291.55450199999905,290.5521446999992,291.55450199999905,290.5521446999992,291.55450199999905,up,1,0.32682460000069113,290.5521446999992,None,290.5521446999992,None,290.5521446999992,291.0535758000042,290.5521446999992,291.0535758000042,290.5521446999992,291.0535758000042,290.5521446999992,291.0535758000042,290.5521446999992,None,,,,,,,,,,,,,,,,,,,,,,,,,,,,,,,,,,,,,,,,,,11001,001,2023_Dec_29_1020,nback,2021.2.3,60.33415468144957,
0-back,instructions\back-0.png,conditions\0back-p.xlsx,instructions\0-BACK.png,practice,0,2,stim\gray.png,stim\yellow.png,stim\gray.png,stim\gray.png,left,1,0,1,0,0,0,0,0,0,11,11,11,,,,,,,,,,,,,,,,,,,,,,,,,,,292.05410269999993,293.05657860000065,292.05410269999993,293.05657860000065,292.05410269999993,293.05657860000065,292.05410269999993,293.05657860000065,left,1,0.29722779999428894,292.05410269999993,None,292.05410269999993,None,292.05410269999993,292.55610990000423,292.05410269999993,292.55610990000423,292.05410269999993,292.55610990000423,292.05410269999993,292.55610990000423,292.05410269999993,None,,,,,,,,,,,,,,,,,,,,,,,,,,,,,,,,,,,,,,,,,,11001,001,2023_Dec_29_1020,nback,2021.2.3,60.33415468144957,
0-back,instructions\back-0.png,conditions\0back-p.xlsx,instructions\0-BACK.png,practice,0,4,stim\gray.png,stim\gray.png,stim\gray.png,stim\yellow.png,down,1,0,1,0,0,0,0,0,0,12,12,12,,,,,,,,,,,,,,,,,,,,,,,,,,,293.5573876000053,294.55859440000495,293.5573876000053,294.55859440000495,293.5573876000053,294.55859440000495,293.5573876000053,294.55859440000495,down,1,0.3216945000021951,293.5573876000053,None,293.5573876000053,None,293.5573876000053,294.0577412999992,293.5573876000053,294.0577412999992,293.5573876000053,294.0577412999992,293.5573876000053,294.0577412999992,293.5573876000053,None,,,,,,,,,,,,,,,,,,,,,,,,,,,,,,,,,,,,,,,,,,11001,001,2023_Dec_29_1020,nback,2021.2.3,60.33415468144957,
0-back,instructions\back-0.png,conditions\0back-p.xlsx,instructions\0-BACK.png,practice,0,3,stim\gray.png,stim\gray.png,stim\yellow.png,stim\gray.png,right,1,0,1,0,0,0,0,0,0,13,13,13,,,,,,,,,,,,,,,,,,,,,,,,,,,295.0770771000025,296.07754289999866,295.0770771000025,296.07754289999866,295.0770771000025,296.07754289999866,295.0770771000025,296.07754289999866,right,1,0.3378960000045481,295.0770771000025,None,295.0770771000025,None,295.0770771000025,295.5770396000007,295.0770771000025,295.5770396000007,295.0770771000025,295.5770396000007,295.0770771000025,295.5770396000007,295.0770771000025,None,,,,,,,,,,,,,,,,,,,,,,,,,,,,,,,,,,,,,,,,,,11001,001,2023_Dec_29_1020,nback,2021.2.3,60.33415468144957,
0-back,instructions\back-0.png,conditions\0back-p.xlsx,instructions\0-BACK.png,practice,0,1,stim\yellow.png,stim\gray.png,stim\gray.png,stim\gray.png,up,1,0,1,0,0,0,0,0,0,14,14,14,,,,,,,,,,,,,,,,,,,,,,,,,,,296.5623809000026,297.5631721000027,296.5623809000026,297.5631721000027,296.5623809000026,297.5631721000027,296.5623809000026,297.5631721000027,up,1,0.30893689999356866,296.5623809000026,None,296.5623809000026,None,296.5623809000026,297.0627214999986,296.5623809000026,297.0627214999986,296.5623809000026,297.0627214999986,296.5623809000026,297.0627214999986,296.5623809000026,None,,,,,,,,,,,,,,,,,,,,,,,,,,,,,,,,,,,,,,,,,,11001,001,2023_Dec_29_1020,nback,2021.2.3,60.33415468144957,
0-back,instructions\back-0.png,conditions\0back-p.xlsx,instructions\0-BACK.png,practice,0,2,stim\gray.png,stim\yellow.png,stim\gray.png,stim\gray.png,left,1,0,1,0,0,0,0,0,0,15,15,15,,,,,,,,,,,,,,,,,,,,,,,,,,,298.0649191000048,299.0655995000052,298.0649191000048,299.0655995000052,298.0649191000048,299.0655995000052,298.0649191000048,299.0655995000052,left,1,0.25466700000106357,298.0649191000048,None,298.0649191000048,None,298.0649191000048,298.56486340000265,298.0649191000048,298.56486340000265,298.0649191000048,298.56486340000265,298.0649191000048,298.56486340000265,298.0649191000048,None,,,,,,,,,,,,,,,,,,,,,,,,,,,,,,,,,,,,,,,,,,11001,001,2023_Dec_29_1020,nback,2021.2.3,60.33415468144957,
0-back,instructions\back-0.png,conditions\0back-p.xlsx,instructions\0-BACK.png,practice,0,3,stim\gray.png,stim\gray.png,stim\yellow.png,stim\gray.png,right,1,0,1,0,0,0,0,0,0,16,16,16,,,,,,,,,,,,,,,,,,,,,,,,,,,299.56730490000336,300.5677979000029,299.56730490000336,300.5677979000029,299.56730490000336,300.5677979000029,299.56730490000336,300.5677979000029,right,1,0.31163390000438085,299.56730490000336,None,299.56730490000336,None,299.56730490000336,300.067278100003,299.56730490000336,300.067278100003,299.56730490000336,300.067278100003,299.56730490000336,300.067278100003,299.56730490000336,None,,,,,,,,,,,,,,,,,,,,,,,,,,,,,,,,,,,,,,,,,,11001,001,2023_Dec_29_1020,nback,2021.2.3,60.33415468144957,
0-back,instructions\back-0.png,conditions\0back-p.xlsx,instructions\0-BACK.png,practice,0,1,stim\yellow.png,stim\gray.png,stim\gray.png,stim\gray.png,up,1,0,1,0,0,0,0,0,0,17,17,17,,,,,,,,,,,,,,,,,,,,,,,,,,,301.0507925999991,302.05340970000543,301.0507925999991,302.05340970000543,301.0507925999991,302.05340970000543,301.0507925999991,302.05340970000543,up,1,0.4207087999966461,301.0507925999991,None,301.0507925999991,None,301.0507925999991,301.5526855999997,301.0507925999991,301.5526855999997,301.0507925999991,301.5526855999997,301.0507925999991,301.5526855999997,301.0507925999991,None,,,,,,,,,,,,,,,,,,,,,,,,,,,,,,,,,,,,,,,,,,11001,001,2023_Dec_29_1020,nback,2021.2.3,60.33415468144957,
0-back,instructions\back-0.png,conditions\0back-p.xlsx,instructions\0-BACK.png,practice,0,4,stim\gray.png,stim\gray.png,stim\gray.png,stim\yellow.png,down,1,0,1,0,0,0,0,0,0,18,18,18,,,,,,,,,,,,,,,,,,,,,,,,,,,302.55596770000557,303.55557760000374,302.55596770000557,303.55557760000374,302.55596770000557,303.55557760000374,302.55596770000557,303.55557760000374,down,1,0.28343840000161435,302.55596770000557,None,302.55596770000557,None,302.55596770000557,303.0711205000043,302.55596770000557,303.0711205000043,302.55596770000557,303.0711205000043,302.55596770000557,303.0711205000043,302.55596770000557,None,,,,,,,,,,,,,,,,,,,,,,,,,,,,,,,,,,,,,,,,,,11001,001,2023_Dec_29_1020,nback,2021.2.3,60.33415468144957,
0-back,instructions\back-0.png,conditions\0back-p.xlsx,instructions\0-BACK.png,practice,0,2,stim\gray.png,stim\yellow.png,stim\gray.png,stim\gray.png,left,1,0,1,0,0,0,0,0,0,19,19,19,,,,,,,,,,,,,,,,,,,,,,,,,,,304.05554590000247,305.0579463000031,304.05554590000247,305.0579463000031,304.05554590000247,305.0579463000031,304.05554590000247,305.0579463000031,left,1,0.32781290000275476,304.05554590000247,None,304.05554590000247,None,304.05554590000247,304.55668620000506,304.05554590000247,304.55668620000506,304.05554590000247,304.55668620000506,304.05554590000247,304.55668620000506,304.05554590000247,None,,,,,,,,,,,,,,,,,,,,,,,,,,,,,,,,,,,,,,,,,,11001,001,2023_Dec_29_1020,nback,2021.2.3,60.33415468144957,
0-back,instructions\back-0.png,conditions\0back-p.xlsx,instructions\0-BACK.png,,,,,,,,,1,0,1,0,0,0,0,0,,,,,,,,,,,,,,,,,,,,,,,,,,,,,,,,,,,,,,,,,,,,,,,,,,,,,,,,,,,,,,,,,,,,,,,,,,,,,,,,,,,,,,,,,,,,,,,,,11001,001,2023_Dec_29_1020,nback,2021.2.3,60.33415468144957,
1-back,instructions\back-1.png,conditions\1back-p.xlsx,instructions\1-BACK.png,practice,1,1,stim\yellow.png,stim\gray.png,stim\gray.png,stim\gray.png,None,1,0,1,0,0,1,1,1,0,0,0,0,,,,,,,,,,,,,,,,,305.72489000000496,None,space,2.6020919999937178,305.72489000000496,None,308.4788478000046,312.98668100000214,312.96981190000224,None,313.37002790000406,314.37163359999977,313.37002790000406,314.37163359999977,313.37002790000406,314.37163359999977,313.37002790000406,314.37163359999977,None,1,,313.37002790000406,None,313.37002790000406,None,313.37002790000406,313.869972600005,313.37002790000406,313.869972600005,313.37002790000406,313.869972600005,313.37002790000406,313.869972600005,313.37002790000406,None,,,,,,,,,,,,,,,,,,,,,,,,,,,,,,,,,,,,,,,,,,11001,001,2023_Dec_29_1020,nback,2021.2.3,60.33415468144957,
1-back,instructions\back-1.png,conditions\1back-p.xlsx,instructions\1-BACK.png,practice,1,2,stim\gray.png,stim\yellow.png,stim\gray.png,stim\gray.png,up,1,0,1,0,0,1,1,1,0,1,1,1,,,,,,,,,,,,,,,,,,,,,,,,,,,314.8725714000029,315.87327150000056,314.8725714000029,315.87327150000056,314.8725714000029,315.87327150000056,314.8725714000029,315.87327150000056,up,1,0.4707656999962637,314.8725714000029,None,314.8725714000029,None,314.8725714000029,315.3736654000022,314.8725714000029,315.3736654000022,314.8725714000029,315.3736654000022,314.8725714000029,315.3736654000022,314.8725714000029,None,,,,,,,,,,,,,,,,,,,,,,,,,,,,,,,,,,,,,,,,,,11001,001,2023_Dec_29_1020,nback,2021.2.3,60.33415468144957,
1-back,instructions\back-1.png,conditions\1back-p.xlsx,instructions\1-BACK.png,practice,1,3,stim\gray.png,stim\gray.png,stim\yellow.png,stim\gray.png,left,1,0,1,0,0,1,1,1,0,2,2,2,,,,,,,,,,,,,,,,,,,,,,,,,,,316.37505819999933,317.376030899999,316.37505819999933,317.376030899999,316.37505819999933,317.376030899999,316.37505819999933,317.376030899999,left,1,0.5282293999989633,316.37505819999933,None,316.37505819999933,None,316.37505819999933,316.87534009999945,316.37505819999933,316.87534009999945,316.37505819999933,316.87534009999945,316.37505819999933,316.87534009999945,316.37505819999933,None,,,,,,,,,,,,,,,,,,,,,,,,,,,,,,,,,,,,,,,,,,11001,001,2023_Dec_29_1020,nback,2021.2.3,60.33415468144957,
1-back,instructions\back-1.png,conditions\1back-p.xlsx,instructions\1-BACK.png,practice,1,4,stim\gray.png,stim\gray.png,stim\gray.png,stim\yellow.png,right,1,0,1,0,0,1,1,1,0,3,3,3,,,,,,,,,,,,,,,,,,,,,,,,,,,317.8769012000048,318.87819650000165,317.8769012000048,318.87819650000165,317.8769012000048,318.87819650000165,317.8769012000048,318.87819650000165,right,1,0.37066289999347646,317.8769012000048,None,317.8769012000048,None,317.8769012000048,318.3775428000008,317.8769012000048,318.3775428000008,317.8769012000048,318.3775428000008,317.8769012000048,318.3775428000008,317.8769012000048,None,,,,,,,,,,,,,,,,,,,,,,,,,,,,,,,,,,,,,,,,,,11001,001,2023_Dec_29_1020,nback,2021.2.3,60.33415468144957,
1-back,instructions\back-1.png,conditions\1back-p.xlsx,instructions\1-BACK.png,practice,1,2,stim\gray.png,stim\yellow.png,stim\gray.png,stim\gray.png,down,1,0,1,0,0,1,1,1,0,4,4,4,,,,,,,,,,,,,,,,,,,,,,,,,,,319.37987290000456,320.38044770000124,319.37987290000456,320.38044770000124,319.37987290000456,320.38044770000124,319.37987290000456,320.38044770000124,down,1,0.39520859999902314,319.37987290000456,None,319.37987290000456,None,319.37987290000456,319.8797868000038,319.37987290000456,319.8797868000038,319.37987290000456,319.8797868000038,319.37987290000456,319.8797868000038,319.37987290000456,None,,,,,,,,,,,,,,,,,,,,,,,,,,,,,,,,,,,,,,,,,,11001,001,2023_Dec_29_1020,nback,2021.2.3,60.33415468144957,
1-back,instructions\back-1.png,conditions\1back-p.xlsx,instructions\1-BACK.png,practice,1,1,stim\yellow.png,stim\gray.png,stim\gray.png,stim\gray.png,left,1,0,1,0,0,1,1,1,0,5,5,5,,,,,,,,,,,,,,,,,,,,,,,,,,,320.882125600001,321.88265310000133,320.882125600001,321.88265310000133,320.882125600001,321.88265310000133,320.882125600001,321.88265310000133,left,1,0.36557969999557827,320.882125600001,None,320.882125600001,None,320.882125600001,321.3812770000004,320.882125600001,321.3812770000004,320.882125600001,321.3812770000004,320.882125600001,321.3812770000004,320.882125600001,None,,,,,,,,,,,,,,,,,,,,,,,,,,,,,,,,,,,,,,,,,,11001,001,2023_Dec_29_1020,nback,2021.2.3,60.33415468144957,
1-back,instructions\back-1.png,conditions\1back-p.xlsx,instructions\1-BACK.png,practice,1,4,stim\gray.png,stim\gray.png,stim\gray.png,stim\yellow.png,up,1,0,1,0,0,1,1,1,0,6,6,6,,,,,,,,,,,,,,,,,,,,,,,,,,,322.3670188000033,323.3682243000003,322.3670188000033,323.3682243000003,322.3670188000033,323.3682243000003,322.3670188000033,323.3682243000003,up,1,0.38475589999870863,322.3670188000033,None,322.3670188000033,None,322.3670188000033,322.86684550000064,322.3670188000033,322.86684550000064,322.3670188000033,322.86684550000064,322.3670188000033,322.86684550000064,322.3670188000033,None,,,,,,,,,,,,,,,,,,,,,,,,,,,,,,,,,,,,,,,,,,11001,001,2023_Dec_29_1020,nback,2021.2.3,60.33415468144957,
1-back,instructions\back-1.png,conditions\1back-p.xlsx,instructions\1-BACK.png,practice,1,3,stim\gray.png,stim\gray.png,stim\yellow.png,stim\gray.png,down,1,0,1,0,0,1,1,1,0,7,7,7,,,,,,,,,,,,,,,,,,,,,,,,,,,323.86945380000543,324.87008849999984,323.86945380000543,324.87008849999984,323.86945380000543,324.87008849999984,323.86945380000543,324.87008849999984,down,1,0.6342469999945024,323.86945380000543,None,323.86945380000543,None,323.86945380000543,324.36955809999927,323.86945380000543,324.36955809999927,323.86945380000543,324.36955809999927,323.86945380000543,324.36955809999927,323.86945380000543,None,,,,,,,,,,,,,,,,,,,,,,,,,,,,,,,,,,,,,,,,,,11001,001,2023_Dec_29_1020,nback,2021.2.3,60.33415468144957,
1-back,instructions\back-1.png,conditions\1back-p.xlsx,instructions\1-BACK.png,practice,1,3,stim\gray.png,stim\gray.png,stim\yellow.png,stim\gray.png,right,1,0,1,0,0,1,1,1,0,8,8,8,,,,,,,,,,,,,,,,,,,,,,,,,,,325.3719010999994,326.37279090000084,325.3719010999994,326.37279090000084,325.3719010999994,326.37279090000084,325.3719010999994,326.37279090000084,left,0,0.3558961000017007,325.3719010999994,None,325.3719010999994,None,325.3719010999994,325.8717637000009,325.3719010999994,325.8717637000009,325.3719010999994,325.8717637000009,325.3719010999994,325.8717637000009,325.3719010999994,None,,,,,,,,,,,,,,,,,,,,,,,,,,,,,,,,,,,,,,,,,,11001,001,2023_Dec_29_1020,nback,2021.2.3,60.33415468144957,
1-back,instructions\back-1.png,conditions\1back-p.xlsx,instructions\1-BACK.png,practice,1,4,stim\gray.png,stim\gray.png,stim\gray.png,stim\yellow.png,right,1,0,1,0,0,1,1,1,0,9,9,9,,,,,,,,,,,,,,,,,,,,,,,,,,,326.87386680000054,327.87473730000056,326.87386680000054,327.87473730000056,326.87386680000054,327.87473730000056,326.87386680000054,327.87473730000056,down,0,1.02945550000004,326.87386680000054,None,326.87386680000054,None,326.87386680000054,327.3741902000038,326.87386680000054,327.3741902000038,326.87386680000054,327.3741902000038,326.87386680000054,327.3741902000038,326.87386680000054,None,,,,,,,,,,,,,,,,,,,,,,,,,,,,,,,,,,,,,,,,,,11001,001,2023_Dec_29_1020,nback,2021.2.3,60.33415468144957,
1-back,instructions\back-1.png,conditions\1back-p.xlsx,instructions\1-BACK.png,practice,1,1,stim\yellow.png,stim\gray.png,stim\gray.png,stim\gray.png,down,1,0,1,0,0,1,1,1,0,10,10,10,,,,,,,,,,,,,,,,,,,,,,,,,,,328.3756687999994,329.3773734999995,328.3756687999994,329.3773734999995,328.3756687999994,329.3773734999995,328.3756687999994,329.3773734999995,None,0,,328.3756687999994,None,328.3756687999994,None,328.3756687999994,328.8756135000003,328.3756687999994,328.8756135000003,328.3756687999994,328.8756135000003,328.3756687999994,328.8756135000003,328.3756687999994,None,,,,,,,,,,,,,,,,,,,,,,,,,,,,,,,,,,,,,,,,,,11001,001,2023_Dec_29_1020,nback,2021.2.3,60.33415468144957,
1-back,instructions\back-1.png,conditions\1back-p.xlsx,instructions\1-BACK.png,practice,1,2,stim\gray.png,stim\yellow.png,stim\gray.png,stim\gray.png,up,1,0,1,0,0,1,1,1,0,11,11,11,,,,,,,,,,,,,,,,,,,,,,,,,,,329.8787394000028,330.8794135999997,329.8787394000028,330.8794135999997,329.8787394000028,330.8794135999997,329.8787394000028,330.8794135999997,up,1,0.43265059999976074,329.8787394000028,None,329.8787394000028,None,329.8787394000028,330.378652899999,329.8787394000028,330.378652899999,329.8787394000028,330.378652899999,329.8787394000028,330.378652899999,329.8787394000028,None,,,,,,,,,,,,,,,,,,,,,,,,,,,,,,,,,,,,,,,,,,11001,001,2023_Dec_29_1020,nback,2021.2.3,60.33415468144957,
1-back,instructions\back-1.png,conditions\1back-p.xlsx,instructions\1-BACK.png,practice,1,4,stim\gray.png,stim\gray.png,stim\gray.png,stim\yellow.png,left,1,0,1,0,0,1,1,1,0,12,12,12,,,,,,,,,,,,,,,,,,,,,,,,,,,331.36256340000546,332.3642842000045,331.36256340000546,332.3642842000045,331.36256340000546,332.3642842000045,331.36256340000546,332.3642842000045,down,0,1.420984900003532,331.36256340000546,None,331.36256340000546,None,331.36256340000546,331.8642426000006,331.36256340000546,331.8642426000006,331.36256340000546,331.8642426000006,331.36256340000546,331.8642426000006,331.36256340000546,None,,,,,,,,,,,,,,,,,,,,,,,,,,,,,,,,,,,,,,,,,,11001,001,2023_Dec_29_1020,nback,2021.2.3,60.33415468144957,
1-back,instructions\back-1.png,conditions\1back-p.xlsx,instructions\1-BACK.png,practice,1,3,stim\gray.png,stim\gray.png,stim\yellow.png,stim\gray.png,down,1,0,1,0,0,1,1,1,0,13,13,13,,,,,,,,,,,,,,,,,,,,,,,,,,,332.8647207000031,333.86715740000363,332.8647207000031,333.86715740000363,332.8647207000031,333.86715740000363,332.8647207000031,333.86715740000363,left,0,1.078324000001885,332.8647207000031,None,332.8647207000031,None,332.8647207000031,333.3666746000017,332.8647207000031,333.3666746000017,332.8647207000031,333.3666746000017,332.8647207000031,333.3666746000017,332.8647207000031,None,,,,,,,,,,,,,,,,,,,,,,,,,,,,,,,,,,,,,,,,,,11001,001,2023_Dec_29_1020,nback,2021.2.3,60.33415468144957,
1-back,instructions\back-1.png,conditions\1back-p.xlsx,instructions\1-BACK.png,practice,1,1,stim\yellow.png,stim\gray.png,stim\gray.png,stim\gray.png,right,1,0,1,0,0,1,1,1,0,14,14,14,,,,,,,,,,,,,,,,,,,,,,,,,,,334.3505460000015,335.35268240000005,334.3505460000015,335.35268240000005,334.3505460000015,335.35268240000005,334.3505460000015,335.35268240000005,right,1,0.04890660000091884,334.3505460000015,None,334.3505460000015,None,334.3505460000015,334.85232779999933,334.3505460000015,334.85232779999933,334.3505460000015,334.85232779999933,334.3505460000015,334.85232779999933,334.3505460000015,None,,,,,,,,,,,,,,,,,,,,,,,,,,,,,,,,,,,,,,,,,,11001,001,2023_Dec_29_1020,nback,2021.2.3,60.33415468144957,
1-back,instructions\back-1.png,conditions\1back-p.xlsx,instructions\1-BACK.png,practice,1,2,stim\gray.png,stim\yellow.png,stim\gray.png,stim\gray.png,up,1,0,1,0,0,1,1,1,0,15,15,15,,,,,,,,,,,,,,,,,,,,,,,,,,,335.8524613000045,336.85512830000516,335.8524613000045,336.85512830000516,335.8524613000045,336.85512830000516,335.8524613000045,336.85512830000516,None,0,,335.8524613000045,None,335.8524613000045,None,335.8524613000045,336.3540936999998,335.8524613000045,336.3540936999998,335.8524613000045,336.3540936999998,335.8524613000045,336.3540936999998,335.8524613000045,None,,,,,,,,,,,,,,,,,,,,,,,,,,,,,,,,,,,,,,,,,,11001,001,2023_Dec_29_1020,nback,2021.2.3,60.33415468144957,
1-back,instructions\back-1.png,conditions\1back-p.xlsx,instructions\1-BACK.png,practice,1,3,stim\gray.png,stim\gray.png,stim\yellow.png,stim\gray.png,left,1,0,1,0,0,1,1,1,0,16,16,16,,,,,,,,,,,,,,,,,,,,,,,,,,,337.3547000000035,338.35684200000105,337.3547000000035,338.35684200000105,337.3547000000035,338.35684200000105,337.3547000000035,338.35684200000105,None,0,,337.3547000000035,None,337.3547000000035,None,337.3547000000035,337.85642790000566,337.3547000000035,337.85642790000566,337.3547000000035,337.85642790000566,337.3547000000035,337.85642790000566,337.3547000000035,None,,,,,,,,,,,,,,,,,,,,,,,,,,,,,,,,,,,,,,,,,,11001,001,2023_Dec_29_1020,nback,2021.2.3,60.33415468144957,
1-back,instructions\back-1.png,conditions\1back-p.xlsx,instructions\1-BACK.png,practice,1,1,stim\yellow.png,stim\gray.png,stim\gray.png,stim\gray.png,right,1,0,1,0,0,1,1,1,0,17,17,17,,,,,,,,,,,,,,,,,,,,,,,,,,,338.85688279999886,339.85928799999965,338.85688279999886,339.85928799999965,338.85688279999886,339.85928799999965,338.85688279999886,339.85928799999965,right,1,0.7347381999934441,338.85688279999886,None,338.85688279999886,None,338.85688279999886,339.35857950000354,338.85688279999886,339.35857950000354,338.85688279999886,339.35857950000354,338.85688279999886,339.35857950000354,338.85688279999886,None,,,,,,,,,,,,,,,,,,,,,,,,,,,,,,,,,,,,,,,,,,11001,001,2023_Dec_29_1020,nback,2021.2.3,60.33415468144957,
1-back,instructions\back-1.png,conditions\1back-p.xlsx,instructions\1-BACK.png,practice,1,4,stim\gray.png,stim\gray.png,stim\gray.png,stim\yellow.png,up,1,0,1,0,0,1,1,1,0,18,18,18,,,,,,,,,,,,,,,,,,,,,,,,,,,340.37718909999967,341.37812520000443,340.37718909999967,341.37812520000443,340.37718909999967,341.37812520000443,340.37718909999967,341.37812520000443,None,0,,340.37718909999967,None,340.37718909999967,None,340.37718909999967,340.87753489999886,340.37718909999967,340.87753489999886,340.37718909999967,340.87753489999886,340.37718909999967,340.87753489999886,340.37718909999967,None,,,,,,,,,,,,,,,,,,,,,,,,,,,,,,,,,,,,,,,,,,11001,001,2023_Dec_29_1020,nback,2021.2.3,60.33415468144957,
1-back,instructions\back-1.png,conditions\1back-p.xlsx,instructions\1-BACK.png,practice,1,2,stim\gray.png,stim\yellow.png,stim\gray.png,stim\gray.png,down,1,0,1,0,0,1,1,1,0,19,19,19,,,,,,,,,,,,,,,,,,,,,,,,,,,341.87991090000287,342.8804956000022,341.87991090000287,342.8804956000022,341.87991090000287,342.8804956000022,341.87991090000287,342.8804956000022,up,0,0.07941530000243802,341.87991090000287,None,341.87991090000287,None,341.87991090000287,342.37978280000243,341.87991090000287,342.37978280000243,341.87991090000287,342.37978280000243,341.87991090000287,342.37978280000243,341.87991090000287,None,,,,,,,,,,,,,,,,,,,,,,,,,,,,,,,,,,,,,,,,,,11001,001,2023_Dec_29_1020,nback,2021.2.3,60.33415468144957,
1-back,instructions\back-1.png,conditions\1back-p.xlsx,instructions\1-BACK.png,,,,,,,,,1,0,1,0,0,1,1,1,,,,,,,,,,,,,,,,,,,,,,,,,,,,,,,,,,,,,,,,,,,,,,,,,,,,,,,,,,,,,,,,,,,,,,,,,,,,,,,,,,,,,,,,,,,,,,,,,11001,001,2023_Dec_29_1020,nback,2021.2.3,60.33415468144957,
2-back,instructions\back-2.png,conditions\2back-p.xlsx,instructions\2-BACK.png,practice,2,1,stim\yellow.png,stim\gray.png,stim\gray.png,stim\gray.png,None,1,0,1,0,0,2,2,2,0,0,0,0,,,,,,,,,,,,,,,,,343.5139619000038,None,space,11.061011199999484,343.5139619000038,None,354.7472010000056,359.2548137000049,359.22145670000464,None,359.6220472999994,360.62411509999947,359.6220472999994,360.62411509999947,359.6220472999994,360.62411509999947,359.6220472999994,360.62411509999947,None,1,,359.6220472999994,None,359.6220472999994,None,359.6220472999994,360.12273700000515,359.6220472999994,360.12273700000515,359.6220472999994,360.12273700000515,359.6220472999994,360.12273700000515,359.6220472999994,None,,,,,,,,,,,,,,,,,,,,,,,,,,,,,,,,,,,,,,,,,,11001,001,2023_Dec_29_1020,nback,2021.2.3,60.33415468144957,
2-back,instructions\back-2.png,conditions\2back-p.xlsx,instructions\2-BACK.png,practice,2,2,stim\gray.png,stim\yellow.png,stim\gray.png,stim\gray.png,None,1,0,1,0,0,2,2,2,0,1,1,1,,,,,,,,,,,,,,,,,,,,,,,,,,,361.12473039999895,362.12538170000335,361.12473039999895,362.12538170000335,361.12473039999895,362.12538170000335,361.12473039999895,362.12538170000335,None,1,,361.12473039999895,None,361.12473039999895,None,361.12473039999895,361.6249955000021,361.12473039999895,361.6249955000021,361.12473039999895,361.6249955000021,361.12473039999895,361.6249955000021,361.12473039999895,None,,,,,,,,,,,,,,,,,,,,,,,,,,,,,,,,,,,,,,,,,,11001,001,2023_Dec_29_1020,nback,2021.2.3,60.33415468144957,
2-back,instructions\back-2.png,conditions\2back-p.xlsx,instructions\2-BACK.png,practice,2,3,stim\gray.png,stim\gray.png,stim\yellow.png,stim\gray.png,up,1,0,1,0,0,2,2,2,0,2,2,2,,,,,,,,,,,,,,,,,,,,,,,,,,,362.6093087000045,363.61154750000424,362.6093087000045,363.61154750000424,362.6093087000045,363.61154750000424,362.6093087000045,363.61154750000424,up,1,0.19815530000050785,362.6093087000045,None,362.6093087000045,None,362.6093087000045,363.1104209000041,362.6093087000045,363.1104209000041,362.6093087000045,363.1104209000041,362.6093087000045,363.1104209000041,362.6093087000045,None,,,,,,,,,,,,,,,,,,,,,,,,,,,,,,,,,,,,,,,,,,11001,001,2023_Dec_29_1020,nback,2021.2.3,60.33415468144957,
2-back,instructions\back-2.png,conditions\2back-p.xlsx,instructions\2-BACK.png,practice,2,4,stim\gray.png,stim\gray.png,stim\gray.png,stim\yellow.png,left,1,0,1,0,0,2,2,2,0,3,3,3,,,,,,,,,,,,,,,,,,,,,,,,,,,364.11186740000267,365.1134968000042,364.11186740000267,365.1134968000042,364.11186740000267,365.1134968000042,364.11186740000267,365.1134968000042,left,1,0.2315253999986453,364.11186740000267,None,364.11186740000267,None,364.11186740000267,364.61272940000345,364.11186740000267,364.61272940000345,364.11186740000267,364.61272940000345,364.11186740000267,364.61272940000345,364.11186740000267,None,,,,,,,,,,,,,,,,,,,,,,,,,,,,,,,,,,,,,,,,,,11001,001,2023_Dec_29_1020,nback,2021.2.3,60.33415468144957,
2-back,instructions\back-2.png,conditions\2back-p.xlsx,instructions\2-BACK.png,practice,2,2,stim\gray.png,stim\yellow.png,stim\gray.png,stim\gray.png,right,1,0,1,0,0,2,2,2,0,4,4,4,,,,,,,,,,,,,,,,,,,,,,,,,,,365.61364850000245,366.6158016000045,365.61364850000245,366.6158016000045,365.61364850000245,366.6158016000045,365.61364850000245,366.6158016000045,right,1,0.8177500999954646,365.61364850000245,None,365.61364850000245,None,365.61364850000245,366.1148785000041,365.61364850000245,366.1148785000041,365.61364850000245,366.1148785000041,365.61364850000245,366.1148785000041,365.61364850000245,None,,,,,,,,,,,,,,,,,,,,,,,,,,,,,,,,,,,,,,,,,,11001,001,2023_Dec_29_1020,nback,2021.2.3,60.33415468144957,
2-back,instructions\back-2.png,conditions\2back-p.xlsx,instructions\2-BACK.png,practice,2,1,stim\yellow.png,stim\gray.png,stim\gray.png,stim\gray.png,down,1,0,1,0,0,2,2,2,0,5,5,5,,,,,,,,,,,,,,,,,,,,,,,,,,,367.1161745999998,368.11836480000056,367.1161745999998,368.11836480000056,367.1161745999998,368.11836480000056,367.1161745999998,368.11836480000056,down,1,0.6359101999987615,367.1161745999998,None,367.1161745999998,None,367.1161745999998,367.61718790000305,367.1161745999998,367.61718790000305,367.1161745999998,367.61718790000305,367.1161745999998,367.61718790000305,367.1161745999998,None,,,,,,,,,,,,,,,,,,,,,,,,,,,,,,,,,,,,,,,,,,11001,001,2023_Dec_29_1020,nback,2021.2.3,60.33415468144957,
2-back,instructions\back-2.png,conditions\2back-p.xlsx,instructions\2-BACK.png,practice,2,4,stim\gray.png,stim\gray.png,stim\gray.png,stim\yellow.png,left,1,0,1,0,0,2,2,2,0,6,6,6,,,,,,,,,,,,,,,,,,,,,,,,,,,368.6191653999995,369.6194825000057,368.6191653999995,369.6194825000057,368.6191653999995,369.6194825000057,368.6191653999995,369.6194825000057,left,1,0.8439437999986694,368.6191653999995,None,368.6191653999995,None,368.6191653999995,369.1194319999995,368.6191653999995,369.1194319999995,368.6191653999995,369.1194319999995,368.6191653999995,369.1194319999995,368.6191653999995,None,,,,,,,,,,,,,,,,,,,,,,,,,,,,,,,,,,,,,,,,,,11001,001,2023_Dec_29_1020,nback,2021.2.3,60.33415468144957,
2-back,instructions\back-2.png,conditions\2back-p.xlsx,instructions\2-BACK.png,practice,2,3,stim\gray.png,stim\gray.png,stim\yellow.png,stim\gray.png,up,1,0,1,0,0,2,2,2,0,7,7,7,,,,,,,,,,,,,,,,,,,,,,,,,,,370.10351630000514,371.1057686999993,370.10351630000514,371.1057686999993,370.10351630000514,371.1057686999993,370.10351630000514,371.1057686999993,up,1,1.0480360000001383,370.10351630000514,None,370.10351630000514,None,370.10351630000514,370.60497900000337,370.10351630000514,370.60497900000337,370.10351630000514,370.60497900000337,370.10351630000514,370.60497900000337,370.10351630000514,None,,,,,,,,,,,,,,,,,,,,,,,,,,,,,,,,,,,,,,,,,,11001,001,2023_Dec_29_1020,nback,2021.2.3,60.33415468144957,
2-back,instructions\back-2.png,conditions\2back-p.xlsx,instructions\2-BACK.png,practice,2,3,stim\gray.png,stim\gray.png,stim\yellow.png,stim\gray.png,down,1,0,1,0,0,2,2,2,0,8,8,8,,,,,,,,,,,,,,,,,,,,,,,,,,,371.60640720000083,372.6079557000048,371.60640720000083,372.6079557000048,371.60640720000083,372.6079557000048,371.60640720000083,372.6079557000048,down,1,0.9607020000039483,371.60640720000083,None,371.60640720000083,None,371.60640720000083,372.10755079999944,371.60640720000083,372.10755079999944,371.60640720000083,372.10755079999944,371.60640720000083,372.10755079999944,371.60640720000083,None,,,,,,,,,,,,,,,,,,,,,,,,,,,,,,,,,,,,,,,,,,11001,001,2023_Dec_29_1020,nback,2021.2.3,60.33415468144957,
2-back,instructions\back-2.png,conditions\2back-p.xlsx,instructions\2-BACK.png,practice,2,4,stim\gray.png,stim\gray.png,stim\gray.png,stim\yellow.png,right,1,0,1,0,0,2,2,2,0,9,9,9,,,,,,,,,,,,,,,,,,,,,,,,,,,373.1082041000045,374.1091949000038,373.1082041000045,374.1091949000038,373.1082041000045,374.1091949000038,373.1082041000045,374.1091949000038,right,1,1.0429614999957266,373.1082041000045,None,373.1082041000045,None,373.1082041000045,373.6093344000037,373.1082041000045,373.6093344000037,373.1082041000045,373.6093344000037,373.1082041000045,373.6093344000037,373.1082041000045,None,,,,,,,,,,,,,,,,,,,,,,,,,,,,,,,,,,,,,,,,,,11001,001,2023_Dec_29_1020,nback,2021.2.3,60.33415468144957,
2-back,instructions\back-2.png,conditions\2back-p.xlsx,instructions\2-BACK.png,practice,2,1,stim\yellow.png,stim\gray.png,stim\gray.png,stim\gray.png,right,1,0,1,0,0,2,2,2,0,10,10,10,,,,,,,,,,,,,,,,,,,,,,,,,,,374.60992400000396,375.6117751999991,374.60992400000396,375.6117751999991,374.60992400000396,375.6117751999991,374.60992400000396,375.6117751999991,None,0,,374.60992400000396,None,374.60992400000396,None,374.60992400000396,375.1114483000056,374.60992400000396,375.1114483000056,374.60992400000396,375.1114483000056,374.60992400000396,375.1114483000056,374.60992400000396,None,,,,,,,,,,,,,,,,,,,,,,,,,,,,,,,,,,,,,,,,,,11001,001,2023_Dec_29_1020,nback,2021.2.3,60.33415468144957,
2-back,instructions\back-2.png,conditions\2back-p.xlsx,instructions\2-BACK.png,practice,2,2,stim\gray.png,stim\yellow.png,stim\gray.png,stim\gray.png,down,1,0,1,0,0,2,2,2,0,11,11,11,,,,,,,,,,,,,,,,,,,,,,,,,,,376.1120416000049,377.11453650000476,376.1120416000049,377.11453650000476,376.1120416000049,377.11453650000476,376.1120416000049,377.11453650000476,None,0,,376.1120416000049,None,376.1120416000049,None,376.1120416000049,376.6131508000035,376.1120416000049,376.6131508000035,376.1120416000049,376.6131508000035,376.1120416000049,376.6131508000035,376.1120416000049,None,,,,,,,,,,,,,,,,,,,,,,,,,,,,,,,,,,,,,,,,,,11001,001,2023_Dec_29_1020,nback,2021.2.3,60.33415468144957,
2-back,instructions\back-2.png,conditions\2back-p.xlsx,instructions\2-BACK.png,practice,2,4,stim\gray.png,stim\gray.png,stim\gray.png,stim\yellow.png,up,1,0,1,0,0,2,2,2,0,12,12,12,,,,,,,,,,,,,,,,,,,,,,,,,,,377.63209830000415,378.63352390000364,377.63209830000415,378.63352390000364,377.63209830000415,378.63352390000364,377.63209830000415,378.63352390000364,up,1,0.3752909999966505,377.63209830000415,None,377.63209830000415,None,377.63209830000415,378.1326129000008,377.63209830000415,378.1326129000008,377.63209830000415,378.1326129000008,377.63209830000415,378.1326129000008,377.63209830000415,None,,,,,,,,,,,,,,,,,,,,,,,,,,,,,,,,,,,,,,,,,,11001,001,2023_Dec_29_1020,nback,2021.2.3,60.33415468144957,
2-back,instructions\back-2.png,conditions\2back-p.xlsx,instructions\2-BACK.png,practice,2,3,stim\gray.png,stim\gray.png,stim\yellow.png,stim\gray.png,left,1,0,1,0,0,2,2,2,0,13,13,13,,,,,,,,,,,,,,,,,,,,,,,,,,,379.1164824000007,380.11906830000225,379.1164824000007,380.11906830000225,379.1164824000007,380.11906830000225,379.1164824000007,380.11906830000225,down,0,1.4509485000016866,379.1164824000007,None,379.1164824000007,None,379.1164824000007,379.6183566000036,379.1164824000007,379.6183566000036,379.1164824000007,379.6183566000036,379.1164824000007,379.6183566000036,379.1164824000007,None,,,,,,,,,,,,,,,,,,,,,,,,,,,,,,,,,,,,,,,,,,11001,001,2023_Dec_29_1020,nback,2021.2.3,60.33415468144957,
2-back,instructions\back-2.png,conditions\2back-p.xlsx,instructions\2-BACK.png,practice,2,1,stim\yellow.png,stim\gray.png,stim\gray.png,stim\gray.png,down,1,0,1,0,0,2,2,2,0,14,14,14,,,,,,,,,,,,,,,,,,,,,,,,,,,380.60213600000134,381.6042674000055,380.60213600000134,381.6042674000055,380.60213600000134,381.6042674000055,380.60213600000134,381.6042674000055,right,0,1.3012785999962944,380.60213600000134,None,380.60213600000134,None,380.60213600000134,381.1043786000009,380.60213600000134,381.1043786000009,380.60213600000134,381.1043786000009,380.60213600000134,381.1043786000009,380.60213600000134,None,,,,,,,,,,,,,,,,,,,,,,,,,,,,,,,,,,,,,,,,,,11001,001,2023_Dec_29_1020,nback,2021.2.3,60.33415468144957,
2-back,instructions\back-2.png,conditions\2back-p.xlsx,instructions\2-BACK.png,practice,2,2,stim\gray.png,stim\yellow.png,stim\gray.png,stim\gray.png,right,1,0,1,0,0,2,2,2,0,15,15,15,,,,,,,,,,,,,,,,,,,,,,,,,,,382.10513560000254,383.10689339999954,382.10513560000254,383.10689339999954,382.10513560000254,383.10689339999954,382.10513560000254,383.10689339999954,None,0,,382.10513560000254,None,382.10513560000254,None,382.10513560000254,382.6064316000047,382.10513560000254,382.6064316000047,382.10513560000254,382.6064316000047,382.10513560000254,382.6064316000047,382.10513560000254,None,,,,,,,,,,,,,,,,,,,,,,,,,,,,,,,,,,,,,,,,,,11001,001,2023_Dec_29_1020,nback,2021.2.3,60.33415468144957,
2-back,instructions\back-2.png,conditions\2back-p.xlsx,instructions\2-BACK.png,practice,2,3,stim\gray.png,stim\gray.png,stim\yellow.png,stim\gray.png,up,1,0,1,0,0,2,2,2,0,16,16,16,,,,,,,,,,,,,,,,,,,,,,,,,,,383.6072908999995,384.6092955999993,383.6072908999995,384.6092955999993,383.6072908999995,384.6092955999993,383.6072908999995,384.6092955999993,None,0,,383.6072908999995,None,383.6072908999995,None,383.6072908999995,384.1075162999987,383.6072908999995,384.1075162999987,383.6072908999995,384.1075162999987,383.6072908999995,384.1075162999987,383.6072908999995,None,,,,,,,,,,,,,,,,,,,,,,,,,,,,,,,,,,,,,,,,,,11001,001,2023_Dec_29_1020,nback,2021.2.3,60.33415468144957,
2-back,instructions\back-2.png,conditions\2back-p.xlsx,instructions\2-BACK.png,practice,2,1,stim\yellow.png,stim\gray.png,stim\gray.png,stim\gray.png,left,1,0,1,0,0,2,2,2,0,17,17,17,,,,,,,,,,,,,,,,,,,,,,,,,,,385.12695520000125,386.1279504000049,385.12695520000125,386.1279504000049,385.12695520000125,386.1279504000049,385.12695520000125,386.1279504000049,None,0,,385.12695520000125,None,385.12695520000125,None,385.12695520000125,385.62715780000144,385.12695520000125,385.62715780000144,385.12695520000125,385.62715780000144,385.12695520000125,385.62715780000144,385.12695520000125,None,,,,,,,,,,,,,,,,,,,,,,,,,,,,,,,,,,,,,,,,,,11001,001,2023_Dec_29_1020,nback,2021.2.3,60.33415468144957,
2-back,instructions\back-2.png,conditions\2back-p.xlsx,instructions\2-BACK.png,practice,2,4,stim\gray.png,stim\gray.png,stim\gray.png,stim\yellow.png,right,1,0,1,0,0,2,2,2,0,18,18,18,,,,,,,,,,,,,,,,,,,,,,,,,,,386.6285014000023,387.63024589999986,386.6285014000023,387.63024589999986,386.6285014000023,387.63024589999986,386.6285014000023,387.63024589999986,None,0,,386.6285014000023,None,386.6285014000023,None,386.6285014000023,387.1294474000024,386.6285014000023,387.1294474000024,386.6285014000023,387.1294474000024,386.6285014000023,387.1294474000024,386.6285014000023,None,,,,,,,,,,,,,,,,,,,,,,,,,,,,,,,,,,,,,,,,,,11001,001,2023_Dec_29_1020,nback,2021.2.3,60.33415468144957,
2-back,instructions\back-2.png,conditions\2back-p.xlsx,instructions\2-BACK.png,practice,2,2,stim\gray.png,stim\yellow.png,stim\gray.png,stim\gray.png,up,1,0,1,0,0,2,2,2,0,19,19,19,,,,,,,,,,,,,,,,,,,,,,,,,,,388.1136766999989,389.11572150000575,388.1136766999989,389.11572150000575,388.1136766999989,389.11572150000575,388.1136766999989,389.11572150000575,None,0,,388.1136766999989,None,388.1136766999989,None,388.1136766999989,388.6152129000038,388.1136766999989,388.6152129000038,388.1136766999989,388.6152129000038,388.1136766999989,388.6152129000038,388.1136766999989,None,,,,,,,,,,,,,,,,,,,,,,,,,,,,,,,,,,,,,,,,,,11001,001,2023_Dec_29_1020,nback,2021.2.3,60.33415468144957,
2-back,instructions\back-2.png,conditions\2back-p.xlsx,instructions\2-BACK.png,,,,,,,,,1,0,1,0,0,2,2,2,,,,,,,,,,,,,,,,,,,,,,,,,,,,,,,,,,,,,,,,,,,,,,,,,,,,,,,,,,,,,,,,,,,,,,,,,,,,,,,,,,,,,,,,,,,,,,,,,11001,001,2023_Dec_29_1020,nback,2021.2.3,60.33415468144957,
,,,,,,,,,,,,1,0,1,0,,,,,,,,,,,,,,,,,,,,,,,,,,,,,,,,,,,,,,,,,,,,,,,,,,,,,,,,,,,,389.61641619999864,None,space,95.56738310000219,389.61641619999864,None,,,,,,,,,,,,,,,,,,,,,,,,,,,,,,,,,,,,11001,001,2023_Dec_29_1020,nback,2021.2.3,60.33415468144957,
,,,,,,,,,,,,,,,,,,,,,,,,,,,,,,,,,,,,,,,,,,,,,,,,,,,,,,,,,,,,,,,,,,,,,,,,,,,,,,,,,485.20779700000276,None,space,8.55142980000528,485.20779700000276,None,,,,,,,,,,,,,,,,,,,,,,,,,,,,,,11001,001,2023_Dec_29_1020,nback,2021.2.3,60.33415468144957,
0-back,instructions\back-0.png,conditions\00back-e.xlsx,,experiment,0,3,stim\gray.png,stim\gray.png,stim\yellow.png,stim\gray.png,right,,,,,,,,,,,,,0,0,0,0,0,0,0,0,,,,,,,,,,,,,,,493.97031970000535,498.4779449999987,498.44434020000335,None,,,,,,,,,,,,,,,,,,,,,,,,,,,,,,,,,,,,,,right,1,0.3707665000038105,498.84505660000286,None,498.84505660000286,None,498.84505660000286,499.84617750000325,498.84505660000286,499.84617750000325,498.84505660000286,499.84617750000325,498.84505660000286,499.84617750000325,498.84505660000286,499.3457617000022,498.84505660000286,499.3457617000022,498.84505660000286,499.3457617000022,498.84505660000286,499.3457617000022,498.84505660000286,None,,,,,11001,001,2023_Dec_29_1020,nback,2021.2.3,60.33415468144957,
0-back,instructions\back-0.png,conditions\00back-e.xlsx,,experiment,0,4,stim\gray.png,stim\gray.png,stim\gray.png,stim\yellow.png,down,,,,,,,,,,,,,0,0,0,0,0,1,1,1,,,,,,,,,,,,,,,,,,,,,,,,,,,,,,,,,,,,,,,,,,,,,,,,,,,,,,,,down,1,0.37475690000428585,500.3138245000009,None,500.3138245000009,None,500.3138245000009,501.3160121000037,500.3138245000009,501.3160121000037,500.3138245000009,501.3160121000037,500.3138245000009,501.3160121000037,500.3138245000009,500.81455700000515,500.3138245000009,500.81455700000515,500.3138245000009,500.81455700000515,500.3138245000009,500.81455700000515,500.3138245000009,None,,,,,11001,001,2023_Dec_29_1020,nback,2021.2.3,60.33415468144957,
0-back,instructions\back-0.png,conditions\00back-e.xlsx,,experiment,0,1,stim\yellow.png,stim\gray.png,stim\gray.png,stim\gray.png,up,,,,,,,,,,,,,0,0,0,0,0,2,2,2,,,,,,,,,,,,,,,,,,,,,,,,,,,,,,,,,,,,,,,,,,,,,,,,,,,,,,,,up,1,0.35300169999391073,501.79824350000126,None,501.79824350000126,None,501.79824350000126,502.80079300000216,501.79824350000126,502.80079300000216,501.79824350000126,502.80079300000216,501.79824350000126,502.80079300000216,501.79824350000126,502.3001574000009,501.79824350000126,502.3001574000009,501.79824350000126,502.3001574000009,501.79824350000126,502.3001574000009,501.79824350000126,None,,,,,11001,001,2023_Dec_29_1020,nback,2021.2.3,60.33415468144957,
0-back,instructions\back-0.png,conditions\00back-e.xlsx,,experiment,0,2,stim\gray.png,stim\yellow.png,stim\gray.png,stim\gray.png,left,,,,,,,,,,,,,0,0,0,0,0,3,3,3,,,,,,,,,,,,,,,,,,,,,,,,,,,,,,,,,,,,,,,,,,,,,,,,,,,,,,,,left,1,0.26639520000026096,503.30158179999853,None,503.30158179999853,None,503.30158179999853,504.3029316000029,503.30158179999853,504.3029316000029,503.30158179999853,504.3029316000029,503.30158179999853,504.3029316000029,503.30158179999853,503.8023596999992,503.30158179999853,503.8023596999992,503.30158179999853,503.8023596999992,503.30158179999853,503.8023596999992,503.30158179999853,None,,,,,11001,001,2023_Dec_29_1020,nback,2021.2.3,60.33415468144957,
0-back,instructions\back-0.png,conditions\00back-e.xlsx,,experiment,0,2,stim\gray.png,stim\yellow.png,stim\gray.png,stim\gray.png,left,,,,,,,,,,,,,0,0,0,0,0,4,4,4,,,,,,,,,,,,,,,,,,,,,,,,,,,,,,,,,,,,,,,,,,,,,,,,,,,,,,,,left,1,0.3779387999966275,504.821326199999,None,504.821326199999,None,504.821326199999,505.82198790000257,504.821326199999,505.82198790000257,504.821326199999,505.82198790000257,504.821326199999,505.82198790000257,504.821326199999,505.3212420999989,504.821326199999,505.3212420999989,504.821326199999,505.3212420999989,504.821326199999,505.3212420999989,504.821326199999,None,,,,,11001,001,2023_Dec_29_1020,nback,2021.2.3,60.33415468144957,
0-back,instructions\back-0.png,conditions\00back-e.xlsx,,experiment,0,1,stim\yellow.png,stim\gray.png,stim\gray.png,stim\gray.png,up,,,,,,,,,,,,,0,0,0,0,0,5,5,5,,,,,,,,,,,,,,,,,,,,,,,,,,,,,,,,,,,,,,,,,,,,,,,,,,,,,,,,up,1,0.3186682000014116,506.3050446999987,None,506.3050446999987,None,506.3050446999987,507.30754210000305,506.3050446999987,507.30754210000305,506.3050446999987,507.30754210000305,506.3050446999987,507.30754210000305,506.3050446999987,506.8067918000015,506.3050446999987,506.8067918000015,506.3050446999987,506.8067918000015,506.3050446999987,506.8067918000015,506.3050446999987,None,,,,,11001,001,2023_Dec_29_1020,nback,2021.2.3,60.33415468144957,
0-back,instructions\back-0.png,conditions\00back-e.xlsx,,experiment,0,4,stim\gray.png,stim\gray.png,stim\gray.png,stim\yellow.png,down,,,,,,,,,,,,,0,0,0,0,0,6,6,6,,,,,,,,,,,,,,,,,,,,,,,,,,,,,,,,,,,,,,,,,,,,,,,,,,,,,,,,down,1,0.3772895000001881,507.79059560000314,None,507.79059560000314,None,507.79059560000314,508.7930403999999,507.79059560000314,508.7930403999999,507.79059560000314,508.7930403999999,507.79059560000314,508.7930403999999,507.79059560000314,508.29240410000057,507.79059560000314,508.29240410000057,507.79059560000314,508.29240410000057,507.79059560000314,508.29240410000057,507.79059560000314,None,,,,,11001,001,2023_Dec_29_1020,nback,2021.2.3,60.33415468144957,
0-back,instructions\back-0.png,conditions\00back-e.xlsx,,experiment,0,3,stim\gray.png,stim\gray.png,stim\yellow.png,stim\gray.png,right,,,,,,,,,,,,,0,0,0,0,0,7,7,7,,,,,,,,,,,,,,,,,,,,,,,,,,,,,,,,,,,,,,,,,,,,,,,,,,,,,,,,right,1,0.2802315000008093,509.3113422000024,None,509.3113422000024,None,509.3113422000024,510.3117831999989,509.3113422000024,510.3117831999989,509.3113422000024,510.3117831999989,509.3113422000024,510.3117831999989,509.3113422000024,509.8112400000027,509.3113422000024,509.8112400000027,509.3113422000024,509.8112400000027,509.3113422000024,509.8112400000027,509.3113422000024,None,,,,,11001,001,2023_Dec_29_1020,nback,2021.2.3,60.33415468144957,
0-back,instructions\back-0.png,conditions\00back-e.xlsx,,experiment,0,4,stim\gray.png,stim\gray.png,stim\gray.png,stim\yellow.png,down,,,,,,,,,,,,,0,0,0,0,0,8,8,8,,,,,,,,,,,,,,,,,,,,,,,,,,,,,,,,,,,,,,,,,,,,,,,,,,,,,,,,down,1,0.33776890000444837,510.8136264999994,None,510.8136264999994,None,510.8136264999994,511.81391740000254,510.8136264999994,511.81391740000254,510.8136264999994,511.81391740000254,510.8136264999994,511.81391740000254,510.8136264999994,511.31342140000197,510.8136264999994,511.31342140000197,510.8136264999994,511.31342140000197,510.8136264999994,511.31342140000197,510.8136264999994,None,,,,,11001,001,2023_Dec_29_1020,nback,2021.2.3,60.33415468144957,
0-back,instructions\back-0.png,conditions\00back-e.xlsx,,experiment,0,3,stim\gray.png,stim\gray.png,stim\yellow.png,stim\gray.png,right,,,,,,,,,,,,,0,0,0,0,0,9,9,9,,,,,,,,,,,,,,,,,,,,,,,,,,,,,,,,,,,,,,,,,,,,,,,,,,,,,,,,right,1,0.3581144999989192,512.2984454000034,None,512.2984454000034,None,512.2984454000034,513.2997943000009,512.2984454000034,513.2997943000009,512.2984454000034,513.2997943000009,512.2984454000034,513.2997943000009,512.2984454000034,512.7990576000011,512.2984454000034,512.7990576000011,512.2984454000034,512.7990576000011,512.2984454000034,512.7990576000011,512.2984454000034,None,,,,,11001,001,2023_Dec_29_1020,nback,2021.2.3,60.33415468144957,
0-back,instructions\back-0.png,conditions\00back-e.xlsx,,experiment,0,1,stim\yellow.png,stim\gray.png,stim\gray.png,stim\gray.png,up,,,,,,,,,,,,,0,0,0,0,0,10,10,10,,,,,,,,,,,,,,,,,,,,,,,,,,,,,,,,,,,,,,,,,,,,,,,,,,,,,,,,up,1,0.3195962000027066,513.7996948,None,513.7996948,None,513.7996948,514.8019869999989,513.7996948,514.8019869999989,513.7996948,514.8019869999989,513.7996948,514.8019869999989,513.7996948,514.303751899999,513.7996948,514.303751899999,513.7996948,514.303751899999,513.7996948,514.303751899999,513.7996948,None,,,,,11001,001,2023_Dec_29_1020,nback,2021.2.3,60.33415468144957,
0-back,instructions\back-0.png,conditions\00back-e.xlsx,,experiment,0,2,stim\gray.png,stim\yellow.png,stim\gray.png,stim\gray.png,left,,,,,,,,,,,,,0,0,0,0,0,11,11,11,,,,,,,,,,,,,,,,,,,,,,,,,,,,,,,,,,,,,,,,,,,,,,,,,,,,,,,,left,1,0.2714692000008654,515.3198928000056,None,515.3198928000056,None,515.3198928000056,516.3208923999991,515.3198928000056,516.3208923999991,515.3198928000056,516.3208923999991,515.3198928000056,516.3208923999991,515.3198928000056,515.8201514000029,515.3198928000056,515.8201514000029,515.3198928000056,515.8201514000029,515.3198928000056,515.8201514000029,515.3198928000056,None,,,,,11001,001,2023_Dec_29_1020,nback,2021.2.3,60.33415468144957,
0-back,instructions\back-0.png,conditions\00back-e.xlsx,,experiment,0,3,stim\gray.png,stim\gray.png,stim\yellow.png,stim\gray.png,right,,,,,,,,,,,,,0,0,0,0,0,12,12,12,,,,,,,,,,,,,,,,,,,,,,,,,,,,,,,,,,,,,,,,,,,,,,,,,,,,,,,,right,1,0.36136130000522826,516.8218305000046,None,516.8218305000046,None,516.8218305000046,517.8233064000015,516.8218305000046,517.8233064000015,516.8218305000046,517.8233064000015,516.8218305000046,517.8233064000015,516.8218305000046,517.3221661999996,516.8218305000046,517.3221661999996,516.8218305000046,517.3221661999996,516.8218305000046,517.3221661999996,516.8218305000046,None,,,,,11001,001,2023_Dec_29_1020,nback,2021.2.3,60.33415468144957,
0-back,instructions\back-0.png,conditions\00back-e.xlsx,,experiment,0,1,stim\yellow.png,stim\gray.png,stim\gray.png,stim\gray.png,up,,,,,,,,,,,,,0,0,0,0,0,13,13,13,,,,,,,,,,,,,,,,,,,,,,,,,,,,,,,,,,,,,,,,,,,,,,,,,,,,,,,,up,1,0.32581970000319416,518.2896611000033,None,518.2896611000033,None,518.2896611000033,519.2949521000046,518.2896611000033,519.2949521000046,518.2896611000033,519.2949521000046,518.2896611000033,519.2949521000046,518.2896611000033,518.7911724000005,518.2896611000033,518.7911724000005,518.2896611000033,518.7911724000005,518.2896611000033,518.7911724000005,518.2896611000033,None,,,,,11001,001,2023_Dec_29_1020,nback,2021.2.3,60.33415468144957,
0-back,instructions\back-0.png,conditions\00back-e.xlsx,,experiment,0,4,stim\gray.png,stim\gray.png,stim\gray.png,stim\yellow.png,down,,,,,,,,,,,,,0,0,0,0,0,14,14,14,,,,,,,,,,,,,,,,,,,,,,,,,,,,,,,,,,,,,,,,,,,,,,,,,,,,,,,,down,1,0.4135690000039176,519.8099949000025,None,519.8099949000025,None,519.8099949000025,520.8106669000044,519.8099949000025,520.8106669000044,519.8099949000025,520.8106669000044,519.8099949000025,520.8106669000044,519.8099949000025,520.3101791000008,519.8099949000025,520.3101791000008,519.8099949000025,520.3101791000008,519.8099949000025,520.3101791000008,519.8099949000025,None,,,,,11001,001,2023_Dec_29_1020,nback,2021.2.3,60.33415468144957,
0-back,instructions\back-0.png,conditions\00back-e.xlsx,,experiment,0,2,stim\gray.png,stim\yellow.png,stim\gray.png,stim\gray.png,left,,,,,,,,,,,,,0,0,0,0,0,15,15,15,,,,,,,,,,,,,,,,,,,,,,,,,,,,,,,,,,,,,,,,,,,,,,,,,,,,,,,,left,1,0.45530690000305185,521.3120147000009,None,521.3120147000009,None,521.3120147000009,522.312931600005,521.3120147000009,522.312931600005,521.3120147000009,522.312931600005,521.3120147000009,522.312931600005,521.3120147000009,521.8123605000001,521.3120147000009,521.8123605000001,521.3120147000009,521.8123605000001,521.3120147000009,521.8123605000001,521.3120147000009,None,,,,,11001,001,2023_Dec_29_1020,nback,2021.2.3,60.33415468144957,
0-back,instructions\back-0.png,conditions\00back-e.xlsx,,experiment,0,1,stim\yellow.png,stim\gray.png,stim\gray.png,stim\gray.png,up,,,,,,,,,,,,,0,0,0,0,0,16,16,16,,,,,,,,,,,,,,,,,,,,,,,,,,,,,,,,,,,,,,,,,,,,,,,,,,,,,,,,up,1,0.3146454999950947,522.7969266,None,522.7969266,None,522.7969266,523.7986721000052,522.7969266,523.7986721000052,522.7969266,523.7986721000052,522.7969266,523.7986721000052,522.7969266,523.2979664000013,522.7969266,523.2979664000013,522.7969266,523.2979664000013,522.7969266,523.2979664000013,522.7969266,None,,,,,11001,001,2023_Dec_29_1020,nback,2021.2.3,60.33415468144957,
