backseq,backinstr,backfile,instruction,Trialtype,back,number,P1,P2,P3,P4,corrAns,trials_practice.thisRepN,trials_practice.thisTrialN,trials_practice.thisN,trials_practice.thisIndex,trials.thisRepN,trials.thisTrialN,trials.thisN,trials.thisIndex,trials_3.thisRepN,trials_3.thisTrialN,trials_3.thisN,trials_3.thisIndex,trials_2.thisRepN,trials_2.thisTrialN,trials_2.thisN,trials_2.thisIndex,trials_4.thisRepN,trials_4.thisTrialN,trials_4.thisN,trials_4.thisIndex,image.started,image.stopped,image_2.started,image_2.stopped,key_resp.keys,key_resp.rt,key_resp.started,key_resp.stopped,image_3.started,image_3.stopped,key_resp_2.keys,key_resp_2.rt,key_resp_2.started,key_resp_2.stopped,image_4.started,image_4.stopped,text.started,text.stopped,H1.started,H1.stopped,H2.started,H2.stopped,H3.started,H3.stopped,H4.started,H4.stopped,key_resp_3.keys,key_resp_3.corr,key_resp_3.rt,key_resp_3.started,key_resp_3.stopped,text_4.started,text_4.stopped,F1.started,F1.stopped,F2.started,F2.stopped,F3.started,F3.stopped,F4.started,F4.stopped,image_7.started,image_7.stopped,text_5.started,text_5.stopped,key_resp_6.keys,key_resp_6.rt,key_resp_6.started,key_resp_6.stopped,image_5.started,image_5.stopped,key_resp_4.keys,key_resp_4.rt,key_resp_4.started,key_resp_4.stopped,key_resp_5.keys,key_resp_5.corr,key_resp_5.started,key_resp_5.stopped,text_3.started,text_3.stopped,H1_2.started,H1_2.stopped,H2_2.started,H2_2.stopped,H3_2.started,H3_2.stopped,H4_2.started,H4_2.stopped,F1_2.started,F1_2.stopped,F2_2.started,F2_2.stopped,F3_2.started,F3_2.stopped,F4_2.started,F4_2.stopped,image_8.started,image_8.stopped,key_resp_5.rt,text_2.started,text_2.stopped,image_6.started,image_6.stopped,participant,session,date,expName,psychopyVersion,frameRate,
,,,,,,,,,,,,,,,,,,,,,,,,,,,,,,,,9.788211300001421,None,10.706985400000121,None,space,18.107161499996437,10.706985400000121,None,,,,,,,,,,,,,,,,,,,,,,,,,,,,,,,,,,,,,,,,,,,,,,,,,,,,,,,,,,,,,,,,,,,,,,,,,,,,,11004,001,2023_Dec_29_1405,nback,2021.2.3,60.04314700545342,
0-back,instructions\back-0.png,conditions\0back-p.xlsx,instructions\0-BACK.png,practice,0,1,stim\yellow.png,stim\gray.png,stim\gray.png,stim\gray.png,up,0,0,0,0,0,0,0,0,0,0,0,0,,,,,,,,,,,,,,,,,29.000406200000725,None,space,43.045983699994395,29.000406200000725,None,72.23093019999942,76.73848729999736,76.6884807000024,None,77.08863340000244,78.08963290000247,77.08863340000244,78.08963290000247,77.08863340000244,78.08963290000247,77.08863340000244,78.08963290000247,up,1,0.4853900999951293,77.08863340000244,None,77.08863340000244,None,77.08863340000244,77.58881259999907,77.08863340000244,77.58881259999907,77.08863340000244,77.58881259999907,77.08863340000244,77.58881259999907,77.08863340000244,None,,,,,,,,,,,,,,,,,,,,,,,,,,,,,,,,,,,,,,,,,,11004,001,2023_Dec_29_1405,nback,2021.2.3,60.04314700545342,
0-back,instructions\back-0.png,conditions\0back-p.xlsx,instructions\0-BACK.png,practice,0,2,stim\gray.png,stim\yellow.png,stim\gray.png,stim\gray.png,left,0,0,0,0,0,0,0,0,0,1,1,1,,,,,,,,,,,,,,,,,,,,,,,,,,,78.57339130000037,79.57598799999687,78.57339130000037,79.57598799999687,78.57339130000037,79.57598799999687,78.57339130000037,79.57598799999687,left,1,0.440803199999209,78.57339130000037,None,78.57339130000037,None,78.57339130000037,79.07492849999835,78.57339130000037,79.07492849999835,78.57339130000037,79.07492849999835,78.57339130000037,79.07492849999835,78.57339130000037,None,,,,,,,,,,,,,,,,,,,,,,,,,,,,,,,,,,,,,,,,,,11004,001,2023_Dec_29_1405,nback,2021.2.3,60.04314700545342,
0-back,instructions\back-0.png,conditions\0back-p.xlsx,instructions\0-BACK.png,practice,0,3,stim\gray.png,stim\gray.png,stim\yellow.png,stim\gray.png,right,0,0,0,0,0,0,0,0,0,2,2,2,,,,,,,,,,,,,,,,,,,,,,,,,,,80.07566979999683,81.07727689999592,80.07566979999683,81.07727689999592,80.07566979999683,81.07727689999592,80.07566979999683,81.07727689999592,right,1,0.4669833999942057,80.07566979999683,None,80.07566979999683,None,80.07566979999683,80.57734419999906,80.07566979999683,80.57734419999906,80.07566979999683,80.57734419999906,80.07566979999683,80.57734419999906,80.07566979999683,None,,,,,,,,,,,,,,,,,,,,,,,,,,,,,,,,,,,,,,,,,,11004,001,2023_Dec_29_1405,nback,2021.2.3,60.04314700545342,
0-back,instructions\back-0.png,conditions\0back-p.xlsx,instructions\0-BACK.png,practice,0,4,stim\gray.png,stim\gray.png,stim\gray.png,stim\yellow.png,down,0,0,0,0,0,0,0,0,0,3,3,3,,,,,,,,,,,,,,,,,,,,,,,,,,,81.6281650000019,82.63083399999596,81.6281650000019,82.63083399999596,81.6281650000019,82.63083399999596,81.6281650000019,82.63083399999596,down,1,0.6907967000006465,81.6281650000019,None,81.6281650000019,None,81.6281650000019,82.12956169999961,81.6281650000019,82.12956169999961,81.6281650000019,82.12956169999961,81.6281650000019,82.12956169999961,81.6281650000019,None,,,,,,,,,,,,,,,,,,,,,,,,,,,,,,,,,,,,,,,,,,11004,001,2023_Dec_29_1405,nback,2021.2.3,60.04314700545342,
0-back,instructions\back-0.png,conditions\0back-p.xlsx,instructions\0-BACK.png,practice,0,2,stim\gray.png,stim\yellow.png,stim\gray.png,stim\gray.png,left,0,0,0,0,0,0,0,0,0,4,4,4,,,,,,,,,,,,,,,,,,,,,,,,,,,83.0810507999995,84.08273879999615,83.0810507999995,84.08273879999615,83.0810507999995,84.08273879999615,83.0810507999995,84.08273879999615,left,1,0.42082330000266666,83.0810507999995,None,83.0810507999995,None,83.0810507999995,83.58143800000107,83.0810507999995,83.58143800000107,83.0810507999995,83.58143800000107,83.0810507999995,83.58143800000107,83.0810507999995,None,,,,,,,,,,,,,,,,,,,,,,,,,,,,,,,,,,,,,,,,,,11004,001,2023_Dec_29_1405,nback,2021.2.3,60.04314700545342,
0-back,instructions\back-0.png,conditions\0back-p.xlsx,instructions\0-BACK.png,practice,0,1,stim\yellow.png,stim\gray.png,stim\gray.png,stim\gray.png,up,0,0,0,0,0,0,0,0,0,5,5,5,,,,,,,,,,,,,,,,,,,,,,,,,,,84.58238249999704,85.58395739999833,84.58238249999704,85.58395739999833,84.58238249999704,85.58395739999833,84.58238249999704,85.58395739999833,up,1,0.3436507999940659,84.58238249999704,None,84.58238249999704,None,84.58238249999704,85.08389979999629,84.58238249999704,85.08389979999629,84.58238249999704,85.08389979999629,84.58238249999704,85.08389979999629,84.58238249999704,None,,,,,,,,,,,,,,,,,,,,,,,,,,,,,,,,,,,,,,,,,,11004,001,2023_Dec_29_1405,nback,2021.2.3,60.04314700545342,
0-back,instructions\back-0.png,conditions\0back-p.xlsx,instructions\0-BACK.png,practice,0,4,stim\gray.png,stim\gray.png,stim\gray.png,stim\yellow.png,down,0,0,0,0,0,0,0,0,0,6,6,6,,,,,,,,,,,,,,,,,,,,,,,,,,,86.08452229999966,87.08701479999581,86.08452229999966,87.08701479999581,86.08452229999966,87.08701479999581,86.08452229999966,87.08701479999581,down,1,0.7614573000028031,86.08452229999966,None,86.08452229999966,None,86.08452229999966,86.5855442999964,86.08452229999966,86.5855442999964,86.08452229999966,86.5855442999964,86.08452229999966,86.5855442999964,86.08452229999966,None,,,,,,,,,,,,,,,,,,,,,,,,,,,,,,,,,,,,,,,,,,11004,001,2023_Dec_29_1405,nback,2021.2.3,60.04314700545342,
0-back,instructions\back-0.png,conditions\0back-p.xlsx,instructions\0-BACK.png,practice,0,3,stim\gray.png,stim\gray.png,stim\yellow.png,stim\gray.png,right,0,0,0,0,0,0,0,0,0,7,7,7,,,,,,,,,,,,,,,,,,,,,,,,,,,87.57140110000182,88.57234900000185,87.57140110000182,88.57234900000185,87.57140110000182,88.57234900000185,87.57140110000182,88.57234900000185,right,1,0.3865150999990874,87.57140110000182,None,87.57140110000182,None,87.57140110000182,88.07146649999777,87.57140110000182,88.07146649999777,87.57140110000182,88.07146649999777,87.57140110000182,88.07146649999777,87.57140110000182,None,,,,,,,,,,,,,,,,,,,,,,,,,,,,,,,,,,,,,,,,,,11004,001,2023_Dec_29_1405,nback,2021.2.3,60.04314700545342,
0-back,instructions\back-0.png,conditions\0back-p.xlsx,instructions\0-BACK.png,practice,0,3,stim\gray.png,stim\gray.png,stim\yellow.png,stim\gray.png,right,0,0,0,0,0,0,0,0,0,8,8,8,,,,,,,,,,,,,,,,,,,,,,,,,,,89.07269069999893,90.07451030000084,89.07269069999893,90.07451030000084,89.07269069999893,90.07451030000084,89.07269069999893,90.07451030000084,right,1,0.4135863000046811,89.07269069999893,None,89.07269069999893,None,89.07269069999893,89.57355029999599,89.07269069999893,89.57355029999599,89.07269069999893,89.57355029999599,89.07269069999893,89.57355029999599,89.07269069999893,None,,,,,,,,,,,,,,,,,,,,,,,,,,,,,,,,,,,,,,,,,,11004,001,2023_Dec_29_1405,nback,2021.2.3,60.04314700545342,
0-back,instructions\back-0.png,conditions\0back-p.xlsx,instructions\0-BACK.png,practice,0,4,stim\gray.png,stim\gray.png,stim\gray.png,stim\yellow.png,down,0,0,0,0,0,0,0,0,0,9,9,9,,,,,,,,,,,,,,,,,,,,,,,,,,,90.5747760000013,91.57688359999884,90.5747760000013,91.57688359999884,90.5747760000013,91.57688359999884,90.5747760000013,91.57688359999884,down,1,0.6790641999978106,90.5747760000013,None,90.5747760000013,None,90.5747760000013,91.07578880000074,90.5747760000013,91.07578880000074,90.5747760000013,91.07578880000074,90.5747760000013,91.07578880000074,90.5747760000013,None,,,,,,,,,,,,,,,,,,,,,,,,,,,,,,,,,,,,,,,,,,11004,001,2023_Dec_29_1405,nback,2021.2.3,60.04314700545342,
0-back,instructions\back-0.png,conditions\0back-p.xlsx,instructions\0-BACK.png,practice,0,1,stim\yellow.png,stim\gray.png,stim\gray.png,stim\gray.png,up,0,0,0,0,0,0,0,0,0,10,10,10,,,,,,,,,,,,,,,,,,,,,,,,,,,92.07695329999842,93.07846489999793,92.07695329999842,93.07846489999793,92.07695329999842,93.07846489999793,92.07695329999842,93.07846489999793,up,1,0.4568167999968864,92.07695329999842,None,92.07695329999842,None,92.07695329999842,92.57749750000221,92.07695329999842,92.57749750000221,92.07695329999842,92.57749750000221,92.07695329999842,92.57749750000221,92.07695329999842,None,,,,,,,,,,,,,,,,,,,,,,,,,,,,,,,,,,,,,,,,,,11004,001,2023_Dec_29_1405,nback,2021.2.3,60.04314700545342,
0-back,instructions\back-0.png,conditions\0back-p.xlsx,instructions\0-BACK.png,practice,0,2,stim\gray.png,stim\yellow.png,stim\gray.png,stim\gray.png,left,0,0,0,0,0,0,0,0,0,11,11,11,,,,,,,,,,,,,,,,,,,,,,,,,,,93.57895009999629,94.58091939999576,93.57895009999629,94.58091939999576,93.57895009999629,94.58091939999576,93.57895009999629,94.58091939999576,left,1,0.3310587999949348,93.57895009999629,None,93.57895009999629,None,93.57895009999629,94.08032190000085,93.57895009999629,94.08032190000085,93.57895009999629,94.08032190000085,93.57895009999629,94.08032190000085,93.57895009999629,None,,,,,,,,,,,,,,,,,,,,,,,,,,,,,,,,,,,,,,,,,,11004,001,2023_Dec_29_1405,nback,2021.2.3,60.04314700545342,
0-back,instructions\back-0.png,conditions\0back-p.xlsx,instructions\0-BACK.png,practice,0,4,stim\gray.png,stim\gray.png,stim\gray.png,stim\yellow.png,down,0,0,0,0,0,0,0,0,0,12,12,12,,,,,,,,,,,,,,,,,,,,,,,,,,,95.08134369999607,96.08348690000275,95.08134369999607,96.08348690000275,95.08134369999607,96.08348690000275,95.08134369999607,96.08348690000275,down,1,0.6851768999986234,95.08134369999607,None,95.08134369999607,None,95.08134369999607,95.58444569999847,95.08134369999607,95.58444569999847,95.08134369999607,95.58444569999847,95.08134369999607,95.58444569999847,95.08134369999607,None,,,,,,,,,,,,,,,,,,,,,,,,,,,,,,,,,,,,,,,,,,11004,001,2023_Dec_29_1405,nback,2021.2.3,60.04314700545342,
0-back,instructions\back-0.png,conditions\0back-p.xlsx,instructions\0-BACK.png,practice,0,3,stim\gray.png,stim\gray.png,stim\yellow.png,stim\gray.png,right,0,0,0,0,0,0,0,0,0,13,13,13,,,,,,,,,,,,,,,,,,,,,,,,,,,96.58416099999886,97.58571569999913,96.58416099999886,97.58571569999913,96.58416099999886,97.58571569999913,96.58416099999886,97.58571569999913,right,1,0.2780057999989367,96.58416099999886,None,96.58416099999886,None,96.58416099999886,97.08415199999581,96.58416099999886,97.08415199999581,96.58416099999886,97.08415199999581,96.58416099999886,97.08415199999581,96.58416099999886,None,,,,,,,,,,,,,,,,,,,,,,,,,,,,,,,,,,,,,,,,,,11004,001,2023_Dec_29_1405,nback,2021.2.3,60.04314700545342,
0-back,instructions\back-0.png,conditions\0back-p.xlsx,instructions\0-BACK.png,practice,0,1,stim\yellow.png,stim\gray.png,stim\gray.png,stim\gray.png,up,0,0,0,0,0,0,0,0,0,14,14,14,,,,,,,,,,,,,,,,,,,,,,,,,,,98.06971479999629,99.07169679999788,98.06971479999629,99.07169679999788,98.06971479999629,99.07169679999788,98.06971479999629,99.07169679999788,up,1,0.3133677000005264,98.06971479999629,None,98.06971479999629,None,98.06971479999629,98.56990360000054,98.06971479999629,98.56990360000054,98.06971479999629,98.56990360000054,98.06971479999629,98.56990360000054,98.06971479999629,None,,,,,,,,,,,,,,,,,,,,,,,,,,,,,,,,,,,,,,,,,,11004,001,2023_Dec_29_1405,nback,2021.2.3,60.04314700545342,
0-back,instructions\back-0.png,conditions\0back-p.xlsx,instructions\0-BACK.png,practice,0,2,stim\gray.png,stim\yellow.png,stim\gray.png,stim\gray.png,left,0,0,0,0,0,0,0,0,0,15,15,15,,,,,,,,,,,,,,,,,,,,,,,,,,,99.57133729999623,100.57377350000024,99.57133729999623,100.57377350000024,99.57133729999623,100.57377350000024,99.57133729999623,100.57377350000024,left,1,0.3068347999942489,99.57133729999623,None,99.57133729999623,None,99.57133729999623,100.07236559999728,99.57133729999623,100.07236559999728,99.57133729999623,100.07236559999728,99.57133729999623,100.07236559999728,99.57133729999623,None,,,,,,,,,,,,,,,,,,,,,,,,,,,,,,,,,,,,,,,,,,11004,001,2023_Dec_29_1405,nback,2021.2.3,60.04314700545342,
0-back,instructions\back-0.png,conditions\0back-p.xlsx,instructions\0-BACK.png,practice,0,3,stim\gray.png,stim\gray.png,stim\yellow.png,stim\gray.png,right,0,0,0,0,0,0,0,0,0,16,16,16,,,,,,,,,,,,,,,,,,,,,,,,,,,101.07403009999689,102.07509639999626,101.07403009999689,102.07509639999626,101.07403009999689,102.07509639999626,101.07403009999689,102.07509639999626,right,1,0.40402589999575866,101.07403009999689,None,101.07403009999689,None,101.07403009999689,101.574915899997,101.07403009999689,101.574915899997,101.07403009999689,101.574915899997,101.07403009999689,101.574915899997,101.07403009999689,None,,,,,,,,,,,,,,,,,,,,,,,,,,,,,,,,,,,,,,,,,,11004,001,2023_Dec_29_1405,nback,2021.2.3,60.04314700545342,
0-back,instructions\back-0.png,conditions\0back-p.xlsx,instructions\0-BACK.png,practice,0,1,stim\yellow.png,stim\gray.png,stim\gray.png,stim\gray.png,up,0,0,0,0,0,0,0,0,0,17,17,17,,,,,,,,,,,,,,,,,,,,,,,,,,,102.57560289999674,103.57753329999832,102.57560289999674,103.57753329999832,102.57560289999674,103.57753329999832,102.57560289999674,103.57753329999832,up,1,0.3910269999978482,102.57560289999674,None,102.57560289999674,None,102.57560289999674,103.07662290000007,102.57560289999674,103.07662290000007,102.57560289999674,103.07662290000007,102.57560289999674,103.07662290000007,102.57560289999674,None,,,,,,,,,,,,,,,,,,,,,,,,,,,,,,,,,,,,,,,,,,11004,001,2023_Dec_29_1405,nback,2021.2.3,60.04314700545342,
0-back,instructions\back-0.png,conditions\0back-p.xlsx,instructions\0-BACK.png,practice,0,4,stim\gray.png,stim\gray.png,stim\gray.png,stim\yellow.png,down,0,0,0,0,0,0,0,0,0,18,18,18,,,,,,,,,,,,,,,,,,,,,,,,,,,104.07857469999726,105.07956990000093,104.07857469999726,105.07956990000093,104.07857469999726,105.07956990000093,104.07857469999726,105.07956990000093,down,1,0.5677494999981718,104.07857469999726,None,104.07857469999726,None,104.07857469999726,104.57925429999887,104.07857469999726,104.57925429999887,104.07857469999726,104.57925429999887,104.07857469999726,104.57925429999887,104.07857469999726,None,,,,,,,,,,,,,,,,,,,,,,,,,,,,,,,,,,,,,,,,,,11004,001,2023_Dec_29_1405,nback,2021.2.3,60.04314700545342,
0-back,instructions\back-0.png,conditions\0back-p.xlsx,instructions\0-BACK.png,practice,0,2,stim\gray.png,stim\yellow.png,stim\gray.png,stim\gray.png,left,0,0,0,0,0,0,0,0,0,19,19,19,,,,,,,,,,,,,,,,,,,,,,,,,,,105.58141629999591,106.58171779999975,105.58141629999591,106.58171779999975,105.58141629999591,106.58171779999975,105.58141629999591,106.58171779999975,left,1,0.536623599997256,105.58141629999591,None,105.58141629999591,None,105.58141629999591,106.0814481999987,105.58141629999591,106.0814481999987,105.58141629999591,106.0814481999987,105.58141629999591,106.0814481999987,105.58141629999591,None,,,,,,,,,,,,,,,,,,,,,,,,,,,,,,,,,,,,,,,,,,11004,001,2023_Dec_29_1405,nback,2021.2.3,60.04314700545342,
0-back,instructions\back-0.png,conditions\0back-p.xlsx,instructions\0-BACK.png,,,,,,,,,0,0,0,0,0,0,0,0,,,,,,,,,,,,,,,,,,,,,,,,,,,,,,,,,,,,,,,,,,,,,,,,,,,,,,,,,,,,,,,,,,,,,,,,,,,,,,,,,,,,,,,,,,,,,,,,,11004,001,2023_Dec_29_1405,nback,2021.2.3,60.04314700545342,
1-back,instructions\back-1.png,conditions\1back-p.xlsx,instructions\1-BACK.png,practice,1,1,stim\yellow.png,stim\gray.png,stim\gray.png,stim\gray.png,None,0,0,0,0,0,1,1,1,0,0,0,0,,,,,,,,,,,,,,,,,107.28333220000059,None,space,16.58648450000328,107.28333220000059,None,124.05746429999999,128.5652246000027,128.53271239999594,None,128.9158905000004,129.91614069999923,128.9158905000004,129.91614069999923,128.9158905000004,129.91614069999923,128.9158905000004,129.91614069999923,None,1,,128.9158905000004,None,128.9158905000004,None,128.9158905000004,129.41556670000136,128.9158905000004,129.41556670000136,128.9158905000004,129.41556670000136,128.9158905000004,129.41556670000136,128.9158905000004,None,,,,,,,,,,,,,,,,,,,,,,,,,,,,,,,,,,,,,,,,,,11004,001,2023_Dec_29_1405,nback,2021.2.3,60.04314700545342,
1-back,instructions\back-1.png,conditions\1back-p.xlsx,instructions\1-BACK.png,practice,1,2,stim\gray.png,stim\yellow.png,stim\gray.png,stim\gray.png,up,0,0,0,0,0,1,1,1,0,1,1,1,,,,,,,,,,,,,,,,,,,,,,,,,,,130.40042320000066,131.4017684999999,130.40042320000066,131.4017684999999,130.40042320000066,131.4017684999999,130.40042320000066,131.4017684999999,up,1,0.3904894000006607,130.40042320000066,None,130.40042320000066,None,130.40042320000066,130.90127260000008,130.40042320000066,130.90127260000008,130.40042320000066,130.90127260000008,130.40042320000066,130.90127260000008,130.40042320000066,None,,,,,,,,,,,,,,,,,,,,,,,,,,,,,,,,,,,,,,,,,,11004,001,2023_Dec_29_1405,nback,2021.2.3,60.04314700545342,
1-back,instructions\back-1.png,conditions\1back-p.xlsx,instructions\1-BACK.png,practice,1,3,stim\gray.png,stim\gray.png,stim\yellow.png,stim\gray.png,left,0,0,0,0,0,1,1,1,0,2,2,2,,,,,,,,,,,,,,,,,,,,,,,,,,,131.9025849000027,132.90574699999706,131.9025849000027,132.90574699999706,131.9025849000027,132.90574699999706,131.9025849000027,132.90574699999706,left,1,0.29555689999688184,131.9025849000027,None,131.9025849000027,None,131.9025849000027,132.40374719999818,131.9025849000027,132.40374719999818,131.9025849000027,132.40374719999818,131.9025849000027,132.40374719999818,131.9025849000027,None,,,,,,,,,,,,,,,,,,,,,,,,,,,,,,,,,,,,,,,,,,11004,001,2023_Dec_29_1405,nback,2021.2.3,60.04314700545342,
1-back,instructions\back-1.png,conditions\1back-p.xlsx,instructions\1-BACK.png,practice,1,4,stim\gray.png,stim\gray.png,stim\gray.png,stim\yellow.png,right,0,0,0,0,0,1,1,1,0,3,3,3,,,,,,,,,,,,,,,,,,,,,,,,,,,133.40460090000124,134.40705080000043,133.40460090000124,134.40705080000043,133.40460090000124,134.40705080000043,133.40460090000124,134.40705080000043,right,1,0.24937910000153352,133.40460090000124,None,133.40460090000124,None,133.40460090000124,133.90631919999578,133.40460090000124,133.90631919999578,133.40460090000124,133.90631919999578,133.40460090000124,133.90631919999578,133.40460090000124,None,,,,,,,,,,,,,,,,,,,,,,,,,,,,,,,,,,,,,,,,,,11004,001,2023_Dec_29_1405,nback,2021.2.3,60.04314700545342,
1-back,instructions\back-1.png,conditions\1back-p.xlsx,instructions\1-BACK.png,practice,1,2,stim\gray.png,stim\yellow.png,stim\gray.png,stim\gray.png,down,0,0,0,0,0,1,1,1,0,4,4,4,,,,,,,,,,,,,,,,,,,,,,,,,,,134.90819539999939,135.90924899999663,134.90819539999939,135.90924899999663,134.90819539999939,135.90924899999663,134.90819539999939,135.90924899999663,down,1,0.0659047000008286,134.90819539999939,None,134.90819539999939,None,134.90819539999939,135.40771120000136,134.90819539999939,135.40771120000136,134.90819539999939,135.40771120000136,134.90819539999939,135.40771120000136,134.90819539999939,None,,,,,,,,,,,,,,,,,,,,,,,,,,,,,,,,,,,,,,,,,,11004,001,2023_Dec_29_1405,nback,2021.2.3,60.04314700545342,
1-back,instructions\back-1.png,conditions\1back-p.xlsx,instructions\1-BACK.png,practice,1,1,stim\yellow.png,stim\gray.png,stim\gray.png,stim\gray.png,left,0,0,0,0,0,1,1,1,0,5,5,5,,,,,,,,,,,,,,,,,,,,,,,,,,,136.40977729999577,137.41174219999812,136.40977729999577,137.41174219999812,136.40977729999577,137.41174219999812,136.40977729999577,137.41174219999812,left,1,0.09230939999542898,136.40977729999577,None,136.40977729999577,None,136.40977729999577,136.91095710000081,136.40977729999577,136.91095710000081,136.40977729999577,136.91095710000081,136.40977729999577,136.91095710000081,136.40977729999577,None,,,,,,,,,,,,,,,,,,,,,,,,,,,,,,,,,,,,,,,,,,11004,001,2023_Dec_29_1405,nback,2021.2.3,60.04314700545342,
1-back,instructions\back-1.png,conditions\1back-p.xlsx,instructions\1-BACK.png,practice,1,4,stim\gray.png,stim\gray.png,stim\gray.png,stim\yellow.png,up,0,0,0,0,0,1,1,1,0,6,6,6,,,,,,,,,,,,,,,,,,,,,,,,,,,137.89543170000252,138.89609409999684,137.89543170000252,138.89609409999684,137.89543170000252,138.89609409999684,137.89543170000252,138.89609409999684,up,1,0.15052869999635732,137.89543170000252,None,137.89543170000252,None,137.89543170000252,138.39564260000043,137.89543170000252,138.39564260000043,137.89543170000252,138.39564260000043,137.89543170000252,138.39564260000043,137.89543170000252,None,,,,,,,,,,,,,,,,,,,,,,,,,,,,,,,,,,,,,,,,,,11004,001,2023_Dec_29_1405,nback,2021.2.3,60.04314700545342,
1-back,instructions\back-1.png,conditions\1back-p.xlsx,instructions\1-BACK.png,practice,1,3,stim\gray.png,stim\gray.png,stim\yellow.png,stim\gray.png,down,0,0,0,0,0,1,1,1,0,7,7,7,,,,,,,,,,,,,,,,,,,,,,,,,,,139.39704489999713,140.39877110000089,139.39704489999713,140.39877110000089,139.39704489999713,140.39877110000089,139.39704489999713,140.39877110000089,down,1,0.23387039999943227,139.39704489999713,None,139.39704489999713,None,139.39704489999713,139.8983053999982,139.39704489999713,139.8983053999982,139.39704489999713,139.8983053999982,139.39704489999713,139.8983053999982,139.39704489999713,None,,,,,,,,,,,,,,,,,,,,,,,,,,,,,,,,,,,,,,,,,,11004,001,2023_Dec_29_1405,nback,2021.2.3,60.04314700545342,
1-back,instructions\back-1.png,conditions\1back-p.xlsx,instructions\1-BACK.png,practice,1,3,stim\gray.png,stim\gray.png,stim\yellow.png,stim\gray.png,right,0,0,0,0,0,1,1,1,0,8,8,8,,,,,,,,,,,,,,,,,,,,,,,,,,,140.89912029999687,141.90199810000195,140.89912029999687,141.90199810000195,140.89912029999687,141.90199810000195,140.89912029999687,141.90199810000195,right,1,0.18707979999453528,140.89912029999687,None,140.89912029999687,None,140.89912029999687,141.40053069999703,140.89912029999687,141.40053069999703,140.89912029999687,141.40053069999703,140.89912029999687,141.40053069999703,140.89912029999687,None,,,,,,,,,,,,,,,,,,,,,,,,,,,,,,,,,,,,,,,,,,11004,001,2023_Dec_29_1405,nback,2021.2.3,60.04314700545342,
1-back,instructions\back-1.png,conditions\1back-p.xlsx,instructions\1-BACK.png,practice,1,4,stim\gray.png,stim\gray.png,stim\gray.png,stim\yellow.png,right,0,0,0,0,0,1,1,1,0,9,9,9,,,,,,,,,,,,,,,,,,,,,,,,,,,142.40144660000078,143.40350110000145,142.40144660000078,143.40350110000145,142.40144660000078,143.40350110000145,142.40144660000078,143.40350110000145,right,1,0.10874380000313977,142.40144660000078,None,142.40144660000078,None,142.40144660000078,142.90281809999578,142.40144660000078,142.90281809999578,142.40144660000078,142.90281809999578,142.40144660000078,142.90281809999578,142.40144660000078,None,,,,,,,,,,,,,,,,,,,,,,,,,,,,,,,,,,,,,,,,,,11004,001,2023_Dec_29_1405,nback,2021.2.3,60.04314700545342,
1-back,instructions\back-1.png,conditions\1back-p.xlsx,instructions\1-BACK.png,practice,1,1,stim\yellow.png,stim\gray.png,stim\gray.png,stim\gray.png,down,0,0,0,0,0,1,1,1,0,10,10,10,,,,,,,,,,,,,,,,,,,,,,,,,,,143.90362710000045,144.90591909999785,143.90362710000045,144.90591909999785,143.90362710000045,144.90591909999785,143.90362710000045,144.90591909999785,up,0,1.382572499998787,143.90362710000045,None,143.90362710000045,None,143.90362710000045,144.40533380000124,143.90362710000045,144.40533380000124,143.90362710000045,144.40533380000124,143.90362710000045,144.40533380000124,143.90362710000045,None,,,,,,,,,,,,,,,,,,,,,,,,,,,,,,,,,,,,,,,,,,11004,001,2023_Dec_29_1405,nback,2021.2.3,60.04314700545342,
1-back,instructions\back-1.png,conditions\1back-p.xlsx,instructions\1-BACK.png,practice,1,2,stim\gray.png,stim\yellow.png,stim\gray.png,stim\gray.png,up,0,0,0,0,0,1,1,1,0,11,11,11,,,,,,,,,,,,,,,,,,,,,,,,,,,145.4059230999992,146.40826340000058,145.4059230999992,146.40826340000058,145.4059230999992,146.40826340000058,145.4059230999992,146.40826340000058,left,0,1.3440609000026598,145.4059230999992,None,145.4059230999992,None,145.4059230999992,145.90674209999997,145.4059230999992,145.90674209999997,145.4059230999992,145.90674209999997,145.4059230999992,145.90674209999997,145.4059230999992,None,,,,,,,,,,,,,,,,,,,,,,,,,,,,,,,,,,,,,,,,,,11004,001,2023_Dec_29_1405,nback,2021.2.3,60.04314700545342,
1-back,instructions\back-1.png,conditions\1back-p.xlsx,instructions\1-BACK.png,practice,1,4,stim\gray.png,stim\gray.png,stim\gray.png,stim\yellow.png,left,0,0,0,0,0,1,1,1,0,12,12,12,,,,,,,,,,,,,,,,,,,,,,,,,,,146.9081382000004,147.91028050000023,146.9081382000004,147.91028050000023,146.9081382000004,147.91028050000023,146.9081382000004,147.91028050000023,down,0,1.1064475000021048,146.9081382000004,None,146.9081382000004,None,146.9081382000004,147.4096286999993,146.9081382000004,147.4096286999993,146.9081382000004,147.4096286999993,146.9081382000004,147.4096286999993,146.9081382000004,None,,,,,,,,,,,,,,,,,,,,,,,,,,,,,,,,,,,,,,,,,,11004,001,2023_Dec_29_1405,nback,2021.2.3,60.04314700545342,
1-back,instructions\back-1.png,conditions\1back-p.xlsx,instructions\1-BACK.png,practice,1,3,stim\gray.png,stim\gray.png,stim\yellow.png,stim\gray.png,down,0,0,0,0,0,1,1,1,0,13,13,13,,,,,,,,,,,,,,,,,,,,,,,,,,,148.4109466000009,149.4118856999994,148.4109466000009,149.4118856999994,148.4109466000009,149.4118856999994,148.4109466000009,149.4118856999994,right,0,0.8750558000028832,148.4109466000009,None,148.4109466000009,None,148.4109466000009,148.9118815999973,148.4109466000009,148.9118815999973,148.4109466000009,148.9118815999973,148.4109466000009,148.9118815999973,148.4109466000009,None,,,,,,,,,,,,,,,,,,,,,,,,,,,,,,,,,,,,,,,,,,11004,001,2023_Dec_29_1405,nback,2021.2.3,60.04314700545342,
1-back,instructions\back-1.png,conditions\1back-p.xlsx,instructions\1-BACK.png,practice,1,1,stim\yellow.png,stim\gray.png,stim\gray.png,stim\gray.png,right,0,0,0,0,0,1,1,1,0,14,14,14,,,,,,,,,,,,,,,,,,,,,,,,,,,149.8958072999958,150.89735510000173,149.8958072999958,150.89735510000173,149.8958072999958,150.89735510000173,149.8958072999958,150.89735510000173,up,0,1.2942540000003646,149.8958072999958,None,149.8958072999958,None,149.8958072999958,150.39674199999718,149.8958072999958,150.39674199999718,149.8958072999958,150.39674199999718,149.8958072999958,150.39674199999718,149.8958072999958,None,,,,,,,,,,,,,,,,,,,,,,,,,,,,,,,,,,,,,,,,,,11004,001,2023_Dec_29_1405,nback,2021.2.3,60.04314700545342,
1-back,instructions\back-1.png,conditions\1back-p.xlsx,instructions\1-BACK.png,practice,1,2,stim\gray.png,stim\yellow.png,stim\gray.png,stim\gray.png,up,0,0,0,0,0,1,1,1,0,15,15,15,,,,,,,,,,,,,,,,,,,,,,,,,,,151.39815020000242,152.40053369999805,151.39815020000242,152.40053369999805,151.39815020000242,152.40053369999805,151.39815020000242,152.40053369999805,None,0,,151.39815020000242,None,151.39815020000242,None,151.39815020000242,151.89957609999692,151.39815020000242,151.89957609999692,151.39815020000242,151.89957609999692,151.39815020000242,151.89957609999692,151.39815020000242,None,,,,,,,,,,,,,,,,,,,,,,,,,,,,,,,,,,,,,,,,,,11004,001,2023_Dec_29_1405,nback,2021.2.3,60.04314700545342,
1-back,instructions\back-1.png,conditions\1back-p.xlsx,instructions\1-BACK.png,practice,1,3,stim\gray.png,stim\gray.png,stim\yellow.png,stim\gray.png,left,0,0,0,0,0,1,1,1,0,16,16,16,,,,,,,,,,,,,,,,,,,,,,,,,,,152.90056650000042,153.9027927999996,152.90056650000042,153.9027927999996,152.90056650000042,153.9027927999996,152.90056650000042,153.9027927999996,left,1,0.841625799999747,152.90056650000042,None,152.90056650000042,None,152.90056650000042,153.40201030000026,152.90056650000042,153.40201030000026,152.90056650000042,153.40201030000026,152.90056650000042,153.40201030000026,152.90056650000042,None,,,,,,,,,,,,,,,,,,,,,,,,,,,,,,,,,,,,,,,,,,11004,001,2023_Dec_29_1405,nback,2021.2.3,60.04314700545342,
1-back,instructions\back-1.png,conditions\1back-p.xlsx,instructions\1-BACK.png,practice,1,1,stim\yellow.png,stim\gray.png,stim\gray.png,stim\gray.png,right,0,0,0,0,0,1,1,1,0,17,17,17,,,,,,,,,,,,,,,,,,,,,,,,,,,154.40318470000057,155.40476169999602,154.40318470000057,155.40476169999602,154.40318470000057,155.40476169999602,154.40318470000057,155.40476169999602,right,1,1.0187353000001167,154.40318470000057,None,154.40318470000057,None,154.40318470000057,154.9033641999995,154.40318470000057,154.9033641999995,154.40318470000057,154.9033641999995,154.40318470000057,154.9033641999995,154.40318470000057,None,,,,,,,,,,,,,,,,,,,,,,,,,,,,,,,,,,,,,,,,,,11004,001,2023_Dec_29_1405,nback,2021.2.3,60.04314700545342,
1-back,instructions\back-1.png,conditions\1back-p.xlsx,instructions\1-BACK.png,practice,1,4,stim\gray.png,stim\gray.png,stim\gray.png,stim\yellow.png,up,0,0,0,0,0,1,1,1,0,18,18,18,,,,,,,,,,,,,,,,,,,,,,,,,,,155.90547969999898,156.90701380000246,155.90547969999898,156.90701380000246,155.90547969999898,156.90701380000246,155.90547969999898,156.90701380000246,up,1,0.6607838999989326,155.90547969999898,None,155.90547969999898,None,155.90547969999898,156.40560299999925,155.90547969999898,156.40560299999925,155.90547969999898,156.40560299999925,155.90547969999898,156.40560299999925,155.90547969999898,None,,,,,,,,,,,,,,,,,,,,,,,,,,,,,,,,,,,,,,,,,,11004,001,2023_Dec_29_1405,nback,2021.2.3,60.04314700545342,
1-back,instructions\back-1.png,conditions\1back-p.xlsx,instructions\1-BACK.png,practice,1,2,stim\gray.png,stim\yellow.png,stim\gray.png,stim\gray.png,down,0,0,0,0,0,1,1,1,0,19,19,19,,,,,,,,,,,,,,,,,,,,,,,,,,,157.4071036000023,158.40885210000124,157.4071036000023,158.40885210000124,157.4071036000023,158.40885210000124,157.4071036000023,158.40885210000124,down,1,0.6394414000023971,157.4071036000023,None,157.4071036000023,None,157.4071036000023,157.9078393000018,157.4071036000023,157.9078393000018,157.4071036000023,157.9078393000018,157.4071036000023,157.9078393000018,157.4071036000023,None,,,,,,,,,,,,,,,,,,,,,,,,,,,,,,,,,,,,,,,,,,11004,001,2023_Dec_29_1405,nback,2021.2.3,60.04314700545342,
1-back,instructions\back-1.png,conditions\1back-p.xlsx,instructions\1-BACK.png,,,,,,,,,0,0,0,0,0,1,1,1,,,,,,,,,,,,,,,,,,,,,,,,,,,,,,,,,,,,,,,,,,,,,,,,,,,,,,,,,,,,,,,,,,,,,,,,,,,,,,,,,,,,,,,,,,,,,,,,,11004,001,2023_Dec_29_1405,nback,2021.2.3,60.04314700545342,
2-back,instructions\back-2.png,conditions\2back-p.xlsx,instructions\2-BACK.png,practice,2,1,stim\yellow.png,stim\gray.png,stim\gray.png,stim\gray.png,None,0,0,0,0,0,2,2,2,0,0,0,0,,,,,,,,,,,,,,,,,159.1261267000009,None,space,10.432807299999695,159.1261267000009,None,169.75856080000085,174.26767090000067,174.2171296000015,None,174.60017499999958,175.6006503000026,174.60017499999958,175.6006503000026,174.60017499999958,175.6006503000026,174.60017499999958,175.6006503000026,None,1,,174.60017499999958,None,174.60017499999958,None,174.60017499999958,175.10070260000066,174.60017499999958,175.10070260000066,174.60017499999958,175.10070260000066,174.60017499999958,175.10070260000066,174.60017499999958,None,,,,,,,,,,,,,,,,,,,,,,,,,,,,,,,,,,,,,,,,,,11004,001,2023_Dec_29_1405,nback,2021.2.3,60.04314700545342,
2-back,instructions\back-2.png,conditions\2back-p.xlsx,instructions\2-BACK.png,practice,2,2,stim\gray.png,stim\yellow.png,stim\gray.png,stim\gray.png,None,0,0,0,0,0,2,2,2,0,1,1,1,,,,,,,,,,,,,,,,,,,,,,,,,,,176.08471750000172,177.08610970000154,176.08471750000172,177.08610970000154,176.08471750000172,177.08610970000154,176.08471750000172,177.08610970000154,None,1,,176.08471750000172,None,176.08471750000172,None,176.08471750000172,176.58615579999605,176.08471750000172,176.58615579999605,176.08471750000172,176.58615579999605,176.08471750000172,176.58615579999605,176.08471750000172,None,,,,,,,,,,,,,,,,,,,,,,,,,,,,,,,,,,,,,,,,,,11004,001,2023_Dec_29_1405,nback,2021.2.3,60.04314700545342,
2-back,instructions\back-2.png,conditions\2back-p.xlsx,instructions\2-BACK.png,practice,2,3,stim\gray.png,stim\gray.png,stim\yellow.png,stim\gray.png,up,0,0,0,0,0,2,2,2,0,2,2,2,,,,,,,,,,,,,,,,,,,,,,,,,,,177.5868055000028,178.58846959999937,177.5868055000028,178.58846959999937,177.5868055000028,178.58846959999937,177.5868055000028,178.58846959999937,left,0,1.4678653000009945,177.5868055000028,None,177.5868055000028,None,177.5868055000028,178.08770949999598,177.5868055000028,178.08770949999598,177.5868055000028,178.08770949999598,177.5868055000028,178.08770949999598,177.5868055000028,None,,,,,,,,,,,,,,,,,,,,,,,,,,,,,,,,,,,,,,,,,,11004,001,2023_Dec_29_1405,nback,2021.2.3,60.04314700545342,
2-back,instructions\back-2.png,conditions\2back-p.xlsx,instructions\2-BACK.png,practice,2,4,stim\gray.png,stim\gray.png,stim\gray.png,stim\yellow.png,left,0,0,0,0,0,2,2,2,0,3,3,3,,,,,,,,,,,,,,,,,,,,,,,,,,,179.08917259999726,180.09142789999896,179.08917259999726,180.09142789999896,179.08917259999726,180.09142789999896,179.08917259999726,180.09142789999896,None,0,,179.08917259999726,None,179.08917259999726,None,179.08917259999726,179.59108469999774,179.08917259999726,179.59108469999774,179.08917259999726,179.59108469999774,179.08917259999726,179.59108469999774,179.08917259999726,None,,,,,,,,,,,,,,,,,,,,,,,,,,,,,,,,,,,,,,,,,,11004,001,2023_Dec_29_1405,nback,2021.2.3,60.04314700545342,
2-back,instructions\back-2.png,conditions\2back-p.xlsx,instructions\2-BACK.png,practice,2,2,stim\gray.png,stim\yellow.png,stim\gray.png,stim\gray.png,right,0,0,0,0,0,2,2,2,0,4,4,4,,,,,,,,,,,,,,,,,,,,,,,,,,,180.5912745999958,181.593649800001,180.5912745999958,181.593649800001,180.5912745999958,181.593649800001,180.5912745999958,181.593649800001,down,0,1.4071821000034106,180.5912745999958,None,180.5912745999958,None,180.5912745999958,181.09343369999988,180.5912745999958,181.09343369999988,180.5912745999958,181.09343369999988,180.5912745999958,181.09343369999988,180.5912745999958,None,,,,,,,,,,,,,,,,,,,,,,,,,,,,,,,,,,,,,,,,,,11004,001,2023_Dec_29_1405,nback,2021.2.3,60.04314700545342,
2-back,instructions\back-2.png,conditions\2back-p.xlsx,instructions\2-BACK.png,practice,2,1,stim\yellow.png,stim\gray.png,stim\gray.png,stim\gray.png,down,0,0,0,0,0,2,2,2,0,5,5,5,,,,,,,,,,,,,,,,,,,,,,,,,,,182.09361350000108,183.09553030000097,182.09361350000108,183.09553030000097,182.09361350000108,183.09553030000097,182.09361350000108,183.09553030000097,left,0,1.2968522000010125,182.09361350000108,None,182.09361350000108,None,182.09361350000108,182.59515490000194,182.09361350000108,182.59515490000194,182.09361350000108,182.59515490000194,182.09361350000108,182.59515490000194,182.09361350000108,None,,,,,,,,,,,,,,,,,,,,,,,,,,,,,,,,,,,,,,,,,,11004,001,2023_Dec_29_1405,nback,2021.2.3,60.04314700545342,
2-back,instructions\back-2.png,conditions\2back-p.xlsx,instructions\2-BACK.png,practice,2,4,stim\gray.png,stim\gray.png,stim\gray.png,stim\yellow.png,left,0,0,0,0,0,2,2,2,0,6,6,6,,,,,,,,,,,,,,,,,,,,,,,,,,,183.59591979999823,184.598238999999,183.59591979999823,184.598238999999,183.59591979999823,184.598238999999,183.59591979999823,184.598238999999,up,0,1.1306007000021054,183.59591979999823,None,183.59591979999823,None,183.59591979999823,184.09736030000204,183.59591979999823,184.09736030000204,183.59591979999823,184.09736030000204,183.59591979999823,184.09736030000204,183.59591979999823,None,,,,,,,,,,,,,,,,,,,,,,,,,,,,,,,,,,,,,,,,,,11004,001,2023_Dec_29_1405,nback,2021.2.3,60.04314700545342,
2-back,instructions\back-2.png,conditions\2back-p.xlsx,instructions\2-BACK.png,practice,2,3,stim\gray.png,stim\gray.png,stim\yellow.png,stim\gray.png,up,0,0,0,0,0,2,2,2,0,7,7,7,,,,,,,,,,,,,,,,,,,,,,,,,,,185.08141479999904,186.08323440000095,185.08141479999904,186.08323440000095,185.08141479999904,186.08323440000095,185.08141479999904,186.08323440000095,down,0,0.9171484999969834,185.08141479999904,None,185.08141479999904,None,185.08141479999904,185.58270520000224,185.08141479999904,185.58270520000224,185.08141479999904,185.58270520000224,185.08141479999904,185.58270520000224,185.08141479999904,None,,,,,,,,,,,,,,,,,,,,,,,,,,,,,,,,,,,,,,,,,,11004,001,2023_Dec_29_1405,nback,2021.2.3,60.04314700545342,
2-back,instructions\back-2.png,conditions\2back-p.xlsx,instructions\2-BACK.png,practice,2,3,stim\gray.png,stim\gray.png,stim\yellow.png,stim\gray.png,down,0,0,0,0,0,2,2,2,0,8,8,8,,,,,,,,,,,,,,,,,,,,,,,,,,,186.5834296999965,187.58552419999614,186.5834296999965,187.58552419999614,186.5834296999965,187.58552419999614,186.5834296999965,187.58552419999614,None,0,,186.5834296999965,None,186.5834296999965,None,186.5834296999965,187.08483269999851,186.5834296999965,187.08483269999851,186.5834296999965,187.08483269999851,186.5834296999965,187.08483269999851,186.5834296999965,None,,,,,,,,,,,,,,,,,,,,,,,,,,,,,,,,,,,,,,,,,,11004,001,2023_Dec_29_1405,nback,2021.2.3,60.04314700545342,
2-back,instructions\back-2.png,conditions\2back-p.xlsx,instructions\2-BACK.png,practice,2,4,stim\gray.png,stim\gray.png,stim\gray.png,stim\yellow.png,right,0,0,0,0,0,2,2,2,0,9,9,9,,,,,,,,,,,,,,,,,,,,,,,,,,,188.08687449999707,189.08738979999907,188.08687449999707,189.08738979999907,188.08687449999707,189.08738979999907,188.08687449999707,189.08738979999907,down,0,1.2874516000010772,188.08687449999707,None,188.08687449999707,None,188.08687449999707,188.58667440000136,188.08687449999707,188.58667440000136,188.08687449999707,188.58667440000136,188.08687449999707,188.58667440000136,188.08687449999707,None,,,,,,,,,,,,,,,,,,,,,,,,,,,,,,,,,,,,,,,,,,11004,001,2023_Dec_29_1405,nback,2021.2.3,60.04314700545342,
2-back,instructions\back-2.png,conditions\2back-p.xlsx,instructions\2-BACK.png,practice,2,1,stim\yellow.png,stim\gray.png,stim\gray.png,stim\gray.png,right,0,0,0,0,0,2,2,2,0,10,10,10,,,,,,,,,,,,,,,,,,,,,,,,,,,189.5880130000005,190.59068970000226,189.5880130000005,190.59068970000226,189.5880130000005,190.59068970000226,189.5880130000005,190.59068970000226,right,1,1.3780260999992606,189.5880130000005,None,189.5880130000005,None,189.5880130000005,190.08914619999996,189.5880130000005,190.08914619999996,189.5880130000005,190.08914619999996,189.5880130000005,190.08914619999996,189.5880130000005,None,,,,,,,,,,,,,,,,,,,,,,,,,,,,,,,,,,,,,,,,,,11004,001,2023_Dec_29_1405,nback,2021.2.3,60.04314700545342,
2-back,instructions\back-2.png,conditions\2back-p.xlsx,instructions\2-BACK.png,practice,2,2,stim\gray.png,stim\yellow.png,stim\gray.png,stim\gray.png,down,0,0,0,0,0,2,2,2,0,11,11,11,,,,,,,,,,,,,,,,,,,,,,,,,,,191.09079000000202,192.09175500000129,191.09079000000202,192.09175500000129,191.09079000000202,192.09175500000129,191.09079000000202,192.09175500000129,down,1,1.0033265999954892,191.09079000000202,None,191.09079000000202,None,191.09079000000202,191.59110209999926,191.09079000000202,191.59110209999926,191.09079000000202,191.59110209999926,191.09079000000202,191.59110209999926,191.09079000000202,None,,,,,,,,,,,,,,,,,,,,,,,,,,,,,,,,,,,,,,,,,,11004,001,2023_Dec_29_1405,nback,2021.2.3,60.04314700545342,
2-back,instructions\back-2.png,conditions\2back-p.xlsx,instructions\2-BACK.png,practice,2,4,stim\gray.png,stim\gray.png,stim\gray.png,stim\yellow.png,up,0,0,0,0,0,2,2,2,0,12,12,12,,,,,,,,,,,,,,,,,,,,,,,,,,,192.5925702999957,193.59474999999657,192.5925702999957,193.59474999999657,192.5925702999957,193.59474999999657,192.5925702999957,193.59474999999657,up,1,0.6454005000050529,192.5925702999957,None,192.5925702999957,None,192.5925702999957,193.09398099999817,192.5925702999957,193.09398099999817,192.5925702999957,193.09398099999817,192.5925702999957,193.09398099999817,192.5925702999957,None,,,,,,,,,,,,,,,,,,,,,,,,,,,,,,,,,,,,,,,,,,11004,001,2023_Dec_29_1405,nback,2021.2.3,60.04314700545342,
2-back,instructions\back-2.png,conditions\2back-p.xlsx,instructions\2-BACK.png,practice,2,3,stim\gray.png,stim\gray.png,stim\yellow.png,stim\gray.png,left,0,0,0,0,0,2,2,2,0,13,13,13,,,,,,,,,,,,,,,,,,,,,,,,,,,194.09466860000248,195.0963025000019,194.09466860000248,195.0963025000019,194.09466860000248,195.0963025000019,194.09466860000248,195.0963025000019,left,1,0.5913340000042808,194.09466860000248,None,194.09466860000248,None,194.09466860000248,194.5961038999958,194.09466860000248,194.5961038999958,194.09466860000248,194.5961038999958,194.09466860000248,194.5961038999958,194.09466860000248,None,,,,,,,,,,,,,,,,,,,,,,,,,,,,,,,,,,,,,,,,,,11004,001,2023_Dec_29_1405,nback,2021.2.3,60.04314700545342,
2-back,instructions\back-2.png,conditions\2back-p.xlsx,instructions\2-BACK.png,practice,2,1,stim\yellow.png,stim\gray.png,stim\gray.png,stim\gray.png,down,0,0,0,0,0,2,2,2,0,14,14,14,,,,,,,,,,,,,,,,,,,,,,,,,,,195.58016599999974,196.58208559999912,195.58016599999974,196.58208559999912,195.58016599999974,196.58208559999912,195.58016599999974,196.58208559999912,down,1,0.3778740000052494,195.58016599999974,None,195.58016599999974,None,195.58016599999974,196.08165120000194,195.58016599999974,196.08165120000194,195.58016599999974,196.08165120000194,195.58016599999974,196.08165120000194,195.58016599999974,None,,,,,,,,,,,,,,,,,,,,,,,,,,,,,,,,,,,,,,,,,,11004,001,2023_Dec_29_1405,nback,2021.2.3,60.04314700545342,
2-back,instructions\back-2.png,conditions\2back-p.xlsx,instructions\2-BACK.png,practice,2,2,stim\gray.png,stim\yellow.png,stim\gray.png,stim\gray.png,right,0,0,0,0,0,2,2,2,0,15,15,15,,,,,,,,,,,,,,,,,,,,,,,,,,,197.0826412000024,198.08481909999682,197.0826412000024,198.08481909999682,197.0826412000024,198.08481909999682,197.0826412000024,198.08481909999682,right,1,0.30736260000412585,197.0826412000024,None,197.0826412000024,None,197.0826412000024,197.58405479999783,197.0826412000024,197.58405479999783,197.0826412000024,197.58405479999783,197.0826412000024,197.58405479999783,197.0826412000024,None,,,,,,,,,,,,,,,,,,,,,,,,,,,,,,,,,,,,,,,,,,11004,001,2023_Dec_29_1405,nback,2021.2.3,60.04314700545342,
2-back,instructions\back-2.png,conditions\2back-p.xlsx,instructions\2-BACK.png,practice,2,3,stim\gray.png,stim\gray.png,stim\yellow.png,stim\gray.png,up,0,0,0,0,0,2,2,2,0,16,16,16,,,,,,,,,,,,,,,,,,,,,,,,,,,198.58462249999866,199.58610049999697,198.58462249999866,199.58610049999697,198.58462249999866,199.58610049999697,198.58462249999866,199.58610049999697,left,0,1.3735078000026988,198.58462249999866,None,198.58462249999866,None,198.58462249999866,199.08559709999827,198.58462249999866,199.08559709999827,198.58462249999866,199.08559709999827,198.58462249999866,199.08559709999827,198.58462249999866,None,,,,,,,,,,,,,,,,,,,,,,,,,,,,,,,,,,,,,,,,,,11004,001,2023_Dec_29_1405,nback,2021.2.3,60.04314700545342,
2-back,instructions\back-2.png,conditions\2back-p.xlsx,instructions\2-BACK.png,practice,2,1,stim\yellow.png,stim\gray.png,stim\gray.png,stim\gray.png,left,0,0,0,0,0,2,2,2,0,17,17,17,,,,,,,,,,,,,,,,,,,,,,,,,,,200.08694390000164,201.08873689999746,200.08694390000164,201.08873689999746,200.08694390000164,201.08873689999746,200.08694390000164,201.08873689999746,right,0,1.3113016999996034,200.08694390000164,None,200.08694390000164,None,200.08694390000164,200.58760449999681,200.08694390000164,200.58760449999681,200.08694390000164,200.58760449999681,200.08694390000164,200.58760449999681,200.08694390000164,None,,,,,,,,,,,,,,,,,,,,,,,,,,,,,,,,,,,,,,,,,,11004,001,2023_Dec_29_1405,nback,2021.2.3,60.04314700545342,
2-back,instructions\back-2.png,conditions\2back-p.xlsx,instructions\2-BACK.png,practice,2,4,stim\gray.png,stim\gray.png,stim\gray.png,stim\yellow.png,right,0,0,0,0,0,2,2,2,0,18,18,18,,,,,,,,,,,,,,,,,,,,,,,,,,,201.58981649999623,202.59084979999898,201.58981649999623,202.59084979999898,201.58981649999623,202.59084979999898,201.58981649999623,202.59084979999898,up,0,1.032446400000481,201.58981649999623,None,201.58981649999623,None,201.58981649999623,202.0905169999969,201.58981649999623,202.0905169999969,201.58981649999623,202.0905169999969,201.58981649999623,202.0905169999969,201.58981649999623,None,,,,,,,,,,,,,,,,,,,,,,,,,,,,,,,,,,,,,,,,,,11004,001,2023_Dec_29_1405,nback,2021.2.3,60.04314700545342,
2-back,instructions\back-2.png,conditions\2back-p.xlsx,instructions\2-BACK.png,practice,2,2,stim\gray.png,stim\yellow.png,stim\gray.png,stim\gray.png,up,0,0,0,0,0,2,2,2,0,19,19,19,,,,,,,,,,,,,,,,,,,,,,,,,,,203.09211669999786,204.09338630000275,203.09211669999786,204.09338630000275,203.09211669999786,204.09338630000275,203.09211669999786,204.09338630000275,down,0,0.8740637000009883,203.09211669999786,None,203.09211669999786,None,203.09211669999786,203.59223629999906,203.09211669999786,203.59223629999906,203.09211669999786,203.59223629999906,203.09211669999786,203.59223629999906,203.09211669999786,None,,,,,,,,,,,,,,,,,,,,,,,,,,,,,,,,,,,,,,,,,,11004,001,2023_Dec_29_1405,nback,2021.2.3,60.04314700545342,
2-back,instructions\back-2.png,conditions\2back-p.xlsx,instructions\2-BACK.png,,,,,,,,,0,0,0,0,0,2,2,2,,,,,,,,,,,,,,,,,,,,,,,,,,,,,,,,,,,,,,,,,,,,,,,,,,,,,,,,,,,,,,,,,,,,,,,,,,,,,,,,,,,,,,,,,,,,,,,,,11004,001,2023_Dec_29_1405,nback,2021.2.3,60.04314700545342,
,,,,,,,,,,,,0,0,0,0,,,,,,,,,,,,,,,,,,,,,,,,,,,,,,,,,,,,,,,,,,,,,,,,,,,,,,,,,,,,204.59353849999752,None,space,3.3964443000004394,204.59353849999752,None,,,,,,,,,,,,,,,,,,,,,,,,,,,,,,,,,,,,11004,001,2023_Dec_29_1405,nback,2021.2.3,60.04314700545342,
,,,,,,,,,,,,,,,,,,,,,,,,,,,,,,,,,,,,,,,,,,,,,,,,,,,,,,,,,,,,,,,,,,,,,,,,,,,,,,,,,208.0154493000009,None,space,2.91965540000092,208.0154493000009,None,,,,,,,,,,,,,,,,,,,,,,,,,,,,,,11004,001,2023_Dec_29_1405,nback,2021.2.3,60.04314700545342,
1-back,instructions\back-1.png,conditions\11back-e.xlsx,,experiment,1,3,stim\gray.png,stim\gray.png,stim\yellow.png,stim\gray.png,None,,,,,,,,,,,,,0,0,0,5,0,0,0,0,,,,,,,,,,,,,,,211.32024359999923,215.8272954999993,215.71177539999917,None,,,,,,,,,,,,,,,,,,,,,,,,,,,,,,,,,,,,,,None,1,215.976934899998,None,215.976934899998,None,215.976934899998,216.97907770000165,215.976934899998,216.97907770000165,215.976934899998,216.97907770000165,215.976934899998,216.97907770000165,215.976934899998,216.47881570000027,215.976934899998,216.47881570000027,215.976934899998,216.47881570000027,215.976934899998,216.47881570000027,215.976934899998,None,,,,,,11004,001,2023_Dec_29_1405,nback,2021.2.3,60.04314700545342,
1-back,instructions\back-1.png,conditions\11back-e.xlsx,,experiment,1,1,stim\yellow.png,stim\gray.png,stim\gray.png,stim\gray.png,right,,,,,,,,,,,,,0,0,0,5,0,1,1,1,,,,,,,,,,,,,,,,,,,,,,,,,,,,,,,,,,,,,,,,,,,,,,,,,,,,,,,,right,1,217.46282950000023,None,217.46282950000023,None,217.46282950000023,218.46537929999613,217.46282950000023,218.46537929999613,217.46282950000023,218.46537929999613,217.46282950000023,218.46537929999613,217.46282950000023,217.96339989999979,217.46282950000023,217.96339989999979,217.46282950000023,217.96339989999979,217.46282950000023,217.96339989999979,217.46282950000023,None,0.9365717999971821,,,,,11004,001,2023_Dec_29_1405,nback,2021.2.3,60.04314700545342,
1-back,instructions\back-1.png,conditions\11back-e.xlsx,,experiment,1,4,stim\gray.png,stim\gray.png,stim\gray.png,stim\yellow.png,up,,,,,,,,,,,,,0,0,0,5,0,2,2,2,,,,,,,,,,,,,,,,,,,,,,,,,,,,,,,,,,,,,,,,,,,,,,,,,,,,,,,,down,0,218.9649270000009,None,218.9649270000009,None,218.9649270000009,219.9666791999989,218.9649270000009,219.9666791999989,218.9649270000009,219.9666791999989,218.9649270000009,219.9666791999989,218.9649270000009,219.466519900001,218.9649270000009,219.466519900001,218.9649270000009,219.466519900001,218.9649270000009,219.466519900001,218.9649270000009,None,1.441586599998118,,,,,11004,001,2023_Dec_29_1405,nback,2021.2.3,60.04314700545342,
1-back,instructions\back-1.png,conditions\11back-e.xlsx,,experiment,1,2,stim\gray.png,stim\yellow.png,stim\gray.png,stim\gray.png,down,,,,,,,,,,,,,0,0,0,5,0,3,3,3,,,,,,,,,,,,,,,,,,,,,,,,,,,,,,,,,,,,,,,,,,,,,,,,,,,,,,,,left,0,220.46718549999787,None,220.46718549999787,None,220.46718549999787,221.46989729999768,220.46718549999787,221.46989729999768,220.46718549999787,221.46989729999768,220.46718549999787,221.46989729999768,220.46718549999787,220.96866169999703,220.46718549999787,220.96866169999703,220.46718549999787,220.96866169999703,220.46718549999787,220.96866169999703,220.46718549999787,None,0.9469991000005393,,,,,11004,001,2023_Dec_29_1405,nback,2021.2.3,60.04314700545342,
1-back,instructions\back-1.png,conditions\11back-e.xlsx,,experiment,1,1,stim\yellow.png,stim\gray.png,stim\gray.png,stim\gray.png,left,,,,,,,,,,,,,0,0,0,5,0,4,4,4,,,,,,,,,,,,,,,,,,,,,,,,,,,,,,,,,,,,,,,,,,,,,,,,,,,,,,,,None,0,221.96917080000276,None,221.96917080000276,None,221.96917080000276,222.9711698999963,221.96917080000276,222.9711698999963,221.96917080000276,222.9711698999963,221.96917080000276,222.9711698999963,221.96917080000276,222.47095719999925,221.96917080000276,222.47095719999925,221.96917080000276,222.47095719999925,221.96917080000276,222.47095719999925,221.96917080000276,None,,,,,,11004,001,2023_Dec_29_1405,nback,2021.2.3,60.04314700545342,
1-back,instructions\back-1.png,conditions\11back-e.xlsx,,experiment,1,2,stim\gray.png,stim\yellow.png,stim\gray.png,stim\gray.png,up,,,,,,,,,,,,,0,0,0,5,0,5,5,5,,,,,,,,,,,,,,,,,,,,,,,,,,,,,,,,,,,,,,,,,,,,,,,,,,,,,,,,left,0,223.47144580000167,None,223.47144580000167,None,223.47144580000167,224.4738767000017,223.47144580000167,224.4738767000017,223.47144580000167,224.4738767000017,223.47144580000167,224.4738767000017,223.47144580000167,223.97308899999916,223.47144580000167,223.97308899999916,223.47144580000167,223.97308899999916,223.47144580000167,223.97308899999916,223.47144580000167,None,1.0309619000036037,,,,,11004,001,2023_Dec_29_1405,nback,2021.2.3,60.04314700545342,
1-back,instructions\back-1.png,conditions\11back-e.xlsx,,experiment,1,3,stim\gray.png,stim\gray.png,stim\yellow.png,stim\gray.png,left,,,,,,,,,,,,,0,0,0,5,0,6,6,6,,,,,,,,,,,,,,,,,,,,,,,,,,,,,,,,,,,,,,,,,,,,,,,,,,,,,,,,None,0,224.9571087000004,None,224.9571087000004,None,224.9571087000004,225.9587274000005,224.9571087000004,225.9587274000005,224.9571087000004,225.9587274000005,224.9571087000004,225.9587274000005,224.9571087000004,225.4575848999957,224.9571087000004,225.4575848999957,224.9571087000004,225.4575848999957,224.9571087000004,225.4575848999957,224.9571087000004,None,,,,,,11004,001,2023_Dec_29_1405,nback,2021.2.3,60.04314700545342,
1-back,instructions\back-1.png,conditions\11back-e.xlsx,,experiment,1,4,stim\gray.png,stim\gray.png,stim\gray.png,stim\yellow.png,right,,,,,,,,,,,,,0,0,0,5,0,7,7,7,,,,,,,,,,,,,,,,,,,,,,,,,,,,,,,,,,,,,,,,,,,,,,,,,,,,,,,,right,1,226.45951709999645,None,226.45951709999645,None,226.45951709999645,227.46213960000023,226.45951709999645,227.46213960000023,226.45951709999645,227.46213960000023,226.45951709999645,227.46213960000023,226.45951709999645,226.96095509999577,226.45951709999645,226.96095509999577,226.45951709999645,226.96095509999577,226.45951709999645,226.96095509999577,226.45951709999645,None,0.29077150000375696,,,,,11004,001,2023_Dec_29_1405,nback,2021.2.3,60.04314700545342,
1-back,instructions\back-1.png,conditions\11back-e.xlsx,,experiment,1,4,stim\gray.png,stim\gray.png,stim\gray.png,stim\yellow.png,down,,,,,,,,,,,,,0,0,0,5,0,8,8,8,,,,,,,,,,,,,,,,,,,,,,,,,,,,,,,,,,,,,,,,,,,,,,,,,,,,,,,,down,1,227.96221559999685,None,227.96221559999685,None,227.96221559999685,228.96348220000073,227.96221559999685,228.96348220000073,227.96221559999685,228.96348220000073,227.96221559999685,228.96348220000073,227.96221559999685,228.46249979999993,227.96221559999685,228.46249979999993,227.96221559999685,228.46249979999993,227.96221559999685,228.46249979999993,227.96221559999685,None,0.7401362999953562,,,,,11004,001,2023_Dec_29_1405,nback,2021.2.3,60.04314700545342,
1-back,instructions\back-1.png,conditions\11back-e.xlsx,,experiment,1,3,stim\gray.png,stim\gray.png,stim\yellow.png,stim\gray.png,down,,,,,,,,,,,,,0,0,0,5,0,9,9,9,,,,,,,,,,,,,,,,,,,,,,,,,,,,,,,,,,,,,,,,,,,,,,,,,,,,,,,,down,1,229.46390709999832,None,229.46390709999832,None,229.46390709999832,230.46718549999787,229.46390709999832,230.46718549999787,229.46390709999832,230.46718549999787,229.46390709999832,230.46718549999787,229.46390709999832,229.96522610000102,229.46390709999832,229.96522610000102,229.46390709999832,229.96522610000102,229.46390709999832,229.96522610000102,229.46390709999832,None,0.5190605999960098,,,,,11004,001,2023_Dec_29_1405,nback,2021.2.3,60.04314700545342,
1-back,instructions\back-1.png,conditions\11back-e.xlsx,,experiment,1,1,stim\yellow.png,stim\gray.png,stim\gray.png,stim\gray.png,right,,,,,,,,,,,,,0,0,0,5,0,10,10,10,,,,,,,,,,,,,,,,,,,,,,,,,,,,,,,,,,,,,,,,,,,,,,,,,,,,,,,,right,1,230.96599289999722,None,230.96599289999722,None,230.96599289999722,231.96778639999684,230.96599289999722,231.96778639999684,230.96599289999722,231.96778639999684,230.96599289999722,231.96778639999684,230.96599289999722,231.46685869999783,230.96599289999722,231.46685869999783,230.96599289999722,231.46685869999783,230.96599289999722,231.46685869999783,230.96599289999722,None,0.46432719999575056,,,,,11004,001,2023_Dec_29_1405,nback,2021.2.3,60.04314700545342,
1-back,instructions\back-1.png,conditions\11back-e.xlsx,,experiment,1,2,stim\gray.png,stim\yellow.png,stim\gray.png,stim\gray.png,up,,,,,,,,,,,,,0,0,0,5,0,11,11,11,,,,,,,,,,,,,,,,,,,,,,,,,,,,,,,,,,,,,,,,,,,,,,,,,,,,,,,,up,1,232.46862339999643,None,232.46862339999643,None,232.46862339999643,233.47050479999598,232.46862339999643,233.47050479999598,232.46862339999643,233.47050479999598,232.46862339999643,233.47050479999598,232.46862339999643,232.96996209999634,232.46862339999643,232.96996209999634,232.46862339999643,232.96996209999634,232.46862339999643,232.96996209999634,232.46862339999643,None,0.3934324000001652,,,,,11004,001,2023_Dec_29_1405,nback,2021.2.3,60.04314700545342,
1-back,instructions\back-1.png,conditions\11back-e.xlsx,,experiment,1,3,stim\gray.png,stim\gray.png,stim\yellow.png,stim\gray.png,left,,,,,,,,,,,,,0,0,0,5,0,12,12,12,,,,,,,,,,,,,,,,,,,,,,,,,,,,,,,,,,,,,,,,,,,,,,,,,,,,,,,,left,1,233.97082560000126,None,233.97082560000126,None,233.97082560000126,234.9720312999998,233.97082560000126,234.9720312999998,233.97082560000126,234.9720312999998,233.97082560000126,234.9720312999998,233.97082560000126,234.47148619999643,233.97082560000126,234.47148619999643,233.97082560000126,234.47148619999643,233.97082560000126,234.47148619999643,233.97082560000126,None,0.299121500000183,,,,,11004,001,2023_Dec_29_1405,nback,2021.2.3,60.04314700545342,
1-back,instructions\back-1.png,conditions\11back-e.xlsx,,experiment,1,4,stim\gray.png,stim\gray.png,stim\gray.png,stim\yellow.png,right,,,,,,,,,,,,,0,0,0,5,0,13,13,13,,,,,,,,,,,,,,,,,,,,,,,,,,,,,,,,,,,,,,,,,,,,,,,,,,,,,,,,right,1,235.4726972999997,None,235.4726972999997,None,235.4726972999997,236.4747606000019,235.4726972999997,236.4747606000019,235.4726972999997,236.4747606000019,235.4726972999997,236.4747606000019,235.4726972999997,235.97463279999647,235.4726972999997,235.97463279999647,235.4726972999997,235.97463279999647,235.4726972999997,235.97463279999647,235.4726972999997,None,0.35074619999795686,,,,,11004,001,2023_Dec_29_1405,nback,2021.2.3,60.04314700545342,
1-back,instructions\back-1.png,conditions\11back-e.xlsx,,experiment,1,1,stim\yellow.png,stim\gray.png,stim\gray.png,stim\gray.png,down,,,,,,,,,,,,,0,0,0,5,0,14,14,14,,,,,,,,,,,,,,,,,,,,,,,,,,,,,,,,,,,,,,,,,,,,,,,,,,,,,,,,down,1,236.9582603000017,None,236.9582603000017,None,236.9582603000017,237.96039839999867,236.9582603000017,237.96039839999867,236.9582603000017,237.96039839999867,236.9582603000017,237.96039839999867,236.9582603000017,237.4596612999958,236.9582603000017,237.4596612999958,236.9582603000017,237.4596612999958,236.9582603000017,237.4596612999958,236.9582603000017,None,0.2321111999990535,,,,,11004,001,2023_Dec_29_1405,nback,2021.2.3,60.04314700545342,
1-back,instructions\back-1.png,conditions\11back-e.xlsx,,experiment,1,2,stim\gray.png,stim\yellow.png,stim\gray.png,stim\gray.png,up,,,,,,,,,,,,,0,0,0,5,0,15,15,15,,,,,,,,,,,,,,,,,,,,,,,,,,,,,,,,,,,,,,,,,,,,,,,,,,,,,,,,up,1,238.46053859999665,None,238.46053859999665,None,238.46053859999665,239.46464639999613,238.46053859999665,239.46464639999613,238.46053859999665,239.46464639999613,238.46053859999665,239.46464639999613,238.46053859999665,238.96328740000172,238.46053859999665,238.96328740000172,238.46053859999665,238.96328740000172,238.46053859999665,238.96328740000172,238.46053859999665,None,0.025561199996445794,,,,,11004,001,2023_Dec_29_1405,nback,2021.2.3,60.04314700545342,
1-back,instructions\back-1.png,conditions\11back-e.xlsx,,experiment,1,2,stim\gray.png,stim\yellow.png,stim\gray.png,stim\gray.png,left,,,,,,,,,,,,,0,0,0,5,0,16,16,16,,,,,,,,,,,,,,,,,,,,,,,,,,,,,,,,,,,,,,,,,,,,,,,,,,,,,,,,left,1,239.96266740000283,None,239.96266740000283,None,239.96266740000283,240.9648238000009,239.96266740000283,240.9648238000009,239.96266740000283,240.9648238000009,239.96266740000283,240.9648238000009,239.96266740000283,240.4636243999994,239.96266740000283,240.4636243999994,239.96266740000283,240.4636243999994,239.96266740000283,240.4636243999994,239.96266740000283,None,0.21142499999405118,,,,,11004,001,2023_Dec_29_1405,nback,2021.2.3,60.04314700545342,
1-back,instructions\back-1.png,conditions\11back-e.xlsx,,experiment,1,1,stim\yellow.png,stim\gray.png,stim\gray.png,stim\gray.png,left,,,,,,,,,,,,,0,0,0,5,0,17,17,17,,,,,,,,,,,,,,,,,,,,,,,,,,,,,,,,,,,,,,,,,,,,,,,,,,,,,,,,left,1,241.46489329999895,None,241.46489329999895,None,241.46489329999895,242.46701269999903,241.46489329999895,242.46701269999903,241.46489329999895,242.46701269999903,241.46489329999895,242.46701269999903,241.46489329999895,241.96716159999778,241.46489329999895,241.96716159999778,241.46489329999895,241.96716159999778,241.46489329999895,241.96716159999778,241.46489329999895,None,0.18167430000175955,,,,,11004,001,2023_Dec_29_1405,nback,2021.2.3,60.04314700545342,
1-back,instructions\back-1.png,conditions\11back-e.xlsx,,experiment,1,4,stim\gray.png,stim\gray.png,stim\gray.png,stim\yellow.png,up,,,,,,,,,,,,,0,0,0,5,0,18,18,18,,,,,,,,,,,,,,,,,,,,,,,,,,,,,,,,,,,,,,,,,,,,,,,,,,,,,,,,up,1,242.96709900000133,None,242.96709900000133,None,242.96709900000133,243.9685185999988,242.96709900000133,243.9685185999988,242.96709900000133,243.9685185999988,242.96709900000133,243.9685185999988,242.96709900000133,243.46810169999662,242.96709900000133,243.46810169999662,242.96709900000133,243.46810169999662,242.96709900000133,243.46810169999662,242.96709900000133,None,0.3268889000028139,,,,,11004,001,2023_Dec_29_1405,nback,2021.2.3,60.04314700545342,
1-back,instructions\back-1.png,conditions\11back-e.xlsx,,experiment,1,3,stim\gray.png,stim\gray.png,stim\yellow.png,stim\gray.png,down,,,,,,,,,,,,,0,0,0,5,0,19,19,19,,,,,,,,,,,,,,,,,,,,,,,,,,,,,,,,,,,,,,,,,,,,,,,,,,,,,,,,down,1,244.47013239999796,None,244.47013239999796,None,244.47013239999796,245.47094220000145,244.47013239999796,245.47094220000145,244.47013239999796,245.47094220000145,244.47013239999796,245.47094220000145,244.47013239999796,244.97026570000162,244.47013239999796,244.97026570000162,244.47013239999796,244.97026570000162,244.47013239999796,244.97026570000162,244.47013239999796,None,0.37606919999961974,,,,,11004,001,2023_Dec_29_1405,nback,2021.2.3,60.04314700545342,
1-back,instructions\back-1.png,conditions\11back-e.xlsx,,,,,,,,,,,,,,,,,,,,,,0,0,0,5,,,,,,,,,,,,,,,,,,,,,,,,,,,,,,,,,,,,,,,,,,,,,,,,,,,,,,,,,,,,,,,,,,,,,,,,,,,,,,,,,,,,,245.97356109999964,None,,,11004,001,2023_Dec_29_1405,nback,2021.2.3,60.04314700545342,
2-back,instructions\back-2.png,conditions\24back-e.xlsx,,experiment,2,1,stim\yellow.png,stim\gray.png,stim\gray.png,stim\gray.png,None,,,,,,,,,,,,,0,1,1,12,0,0,0,0,,,,,,,,,,,,,,,247.14014090000273,251.64733749999868,251.57994730000064,None,,,,,,,,,,,,,,,,,,,,,,,,,,,,,,,,,,,,,,None,1,251.98068670000066,None,251.98068670000066,None,251.98068670000066,252.98301199999696,251.98068670000066,252.98301199999696,251.98068670000066,252.98301199999696,251.98068670000066,252.98301199999696,251.98068670000066,252.48139699999592,251.98068670000066,252.48139699999592,251.98068670000066,252.48139699999592,251.98068670000066,252.48139699999592,251.98068670000066,None,,,,,,11004,001,2023_Dec_29_1405,nback,2021.2.3,60.04314700545342,
2-back,instructions\back-2.png,conditions\24back-e.xlsx,,experiment,2,2,stim\gray.png,stim\yellow.png,stim\gray.png,stim\gray.png,None,,,,,,,,,,,,,0,1,1,12,0,1,1,1,,,,,,,,,,,,,,,,,,,,,,,,,,,,,,,,,,,,,,,,,,,,,,,,,,,,,,,,None,1,253.4661111999958,None,253.4661111999958,None,253.4661111999958,254.46793649999745,253.4661111999958,254.46793649999745,253.4661111999958,254.46793649999745,253.4661111999958,254.46793649999745,253.4661111999958,253.96672599999874,253.4661111999958,253.96672599999874,253.4661111999958,253.96672599999874,253.4661111999958,253.96672599999874,253.4661111999958,None,,,,,,11004,001,2023_Dec_29_1405,nback,2021.2.3,60.04314700545342,
2-back,instructions\back-2.png,conditions\24back-e.xlsx,,experiment,2,1,stim\yellow.png,stim\gray.png,stim\gray.png,stim\gray.png,up,,,,,,,,,,,,,0,1,1,12,0,2,2,2,,,,,,,,,,,,,,,,,,,,,,,,,,,,,,,,,,,,,,,,,,,,,,,,,,,,,,,,up,1,254.96833579999657,None,254.96833579999657,None,254.96833579999657,255.97103570000036,254.96833579999657,255.97103570000036,254.96833579999657,255.97103570000036,254.96833579999657,255.97103570000036,254.96833579999657,255.4689733999985,254.96833579999657,255.4689733999985,254.96833579999657,255.4689733999985,254.96833579999657,255.4689733999985,254.96833579999657,None,0.9496550000039861,,,,,11004,001,2023_Dec_29_1405,nback,2021.2.3,60.04314700545342,
2-back,instructions\back-2.png,conditions\24back-e.xlsx,,experiment,2,4,stim\gray.png,stim\gray.png,stim\gray.png,stim\yellow.png,left,,,,,,,,,,,,,0,1,1,12,0,3,3,3,,,,,,,,,,,,,,,,,,,,,,,,,,,,,,,,,,,,,,,,,,,,,,,,,,,,,,,,left,1,256.4704072999957,None,256.4704072999957,None,256.4704072999957,257.47198390000267,256.4704072999957,257.47198390000267,256.4704072999957,257.47198390000267,256.4704072999957,257.47198390000267,256.4704072999957,256.97137349999684,256.4704072999957,256.97137349999684,256.4704072999957,256.97137349999684,256.4704072999957,256.97137349999684,256.4704072999957,None,0.45571140000538435,,,,,11004,001,2023_Dec_29_1405,nback,2021.2.3,60.04314700545342,
2-back,instructions\back-2.png,conditions\24back-e.xlsx,,experiment,2,3,stim\gray.png,stim\gray.png,stim\yellow.png,stim\gray.png,up,,,,,,,,,,,,,0,1,1,12,0,4,4,4,,,,,,,,,,,,,,,,,,,,,,,,,,,,,,,,,,,,,,,,,,,,,,,,,,,,,,,,down,0,257.9727791999976,None,257.9727791999976,None,257.9727791999976,258.9747237999982,257.9727791999976,258.9747237999982,257.9727791999976,258.9747237999982,257.9727791999976,258.9747237999982,257.9727791999976,258.4735953999989,257.9727791999976,258.4735953999989,257.9727791999976,258.4735953999989,257.9727791999976,258.4735953999989,257.9727791999976,None,1.3616671999989194,,,,,11004,001,2023_Dec_29_1405,nback,2021.2.3,60.04314700545342,
2-back,instructions\back-2.png,conditions\24back-e.xlsx,,experiment,2,4,stim\gray.png,stim\gray.png,stim\gray.png,stim\yellow.png,down,,,,,,,,,,,,,0,1,1,12,0,5,5,5,,,,,,,,,,,,,,,,,,,,,,,,,,,,,,,,,,,,,,,,,,,,,,,,,,,,,,,,right,0,259.4582128999973,None,259.4582128999973,None,259.4582128999973,260.4603980999964,259.4582128999973,260.4603980999964,259.4582128999973,260.4603980999964,259.4582128999973,260.4603980999964,259.4582128999973,259.96064399999887,259.4582128999973,259.96064399999887,259.4582128999973,259.96064399999887,259.4582128999973,259.96064399999887,259.4582128999973,None,1.1481808000025922,,,,,11004,001,2023_Dec_29_1405,nback,2021.2.3,60.04314700545342,
2-back,instructions\back-2.png,conditions\24back-e.xlsx,,experiment,2,3,stim\gray.png,stim\gray.png,stim\yellow.png,stim\gray.png,right,,,,,,,,,,,,,0,1,1,12,0,6,6,6,,,,,,,,,,,,,,,,,,,,,,,,,,,,,,,,,,,,,,,,,,,,,,,,,,,,,,,,down,0,260.9605336999957,None,260.9605336999957,None,260.9605336999957,261.96196690000215,260.9605336999957,261.96196690000215,260.9605336999957,261.96196690000215,260.9605336999957,261.96196690000215,260.9605336999957,261.46243069999764,260.9605336999957,261.46243069999764,260.9605336999957,261.46243069999764,260.9605336999957,261.46243069999764,260.9605336999957,None,0.7819498000026215,,,,,11004,001,2023_Dec_29_1405,nback,2021.2.3,60.04314700545342,
2-back,instructions\back-2.png,conditions\24back-e.xlsx,,experiment,2,2,stim\gray.png,stim\yellow.png,stim\gray.png,stim\gray.png,down,,,,,,,,,,,,,0,1,1,12,0,7,7,7,,,,,,,,,,,,,,,,,,,,,,,,,,,,,,,,,,,,,,,,,,,,,,,,,,,,,,,,right,0,262.46269870000106,None,262.46269870000106,None,262.46269870000106,263.46422480000183,262.46269870000106,263.46422480000183,262.46269870000106,263.46422480000183,262.46269870000106,263.46422480000183,262.46269870000106,262.96408829999564,262.46269870000106,262.96408829999564,262.46269870000106,262.96408829999564,262.46269870000106,262.96408829999564,262.46269870000106,None,0.8404490000029909,,,,,11004,001,2023_Dec_29_1405,nback,2021.2.3,60.04314700545342,
2-back,instructions\back-2.png,conditions\24back-e.xlsx,,experiment,2,4,stim\gray.png,stim\gray.png,stim\gray.png,stim\yellow.png,right,,,,,,,,,,,,,0,1,1,12,0,8,8,8,,,,,,,,,,,,,,,,,,,,,,,,,,,,,,,,,,,,,,,,,,,,,,,,,,,,,,,,left,0,263.96639879999566,None,263.96639879999566,None,263.96639879999566,264.9672191999998,263.96639879999566,264.9672191999998,263.96639879999566,264.9672191999998,263.96639879999566,264.9672191999998,263.96639879999566,264.4657507000011,263.96639879999566,264.4657507000011,263.96639879999566,264.4657507000011,263.96639879999566,264.4657507000011,263.96639879999566,None,1.2486751999967964,,,,,11004,001,2023_Dec_29_1405,nback,2021.2.3,60.04314700545342,
2-back,instructions\back-2.png,conditions\24back-e.xlsx,,experiment,2,1,stim\yellow.png,stim\gray.png,stim\gray.png,stim\gray.png,left,,,,,,,,,,,,,0,1,1,12,0,9,9,9,,,,,,,,,,,,,,,,,,,,,,,,,,,,,,,,,,,,,,,,,,,,,,,,,,,,,,,,down,0,265.4671677000006,None,265.4671677000006,None,265.4671677000006,266.46906989999843,265.4671677000006,266.46906989999843,265.4671677000006,266.46906989999843,265.4671677000006,266.46906989999843,265.4671677000006,265.96864520000236,265.4671677000006,265.96864520000236,265.4671677000006,265.96864520000236,265.4671677000006,265.96864520000236,265.4671677000006,None,1.019564399997762,,,,,11004,001,2023_Dec_29_1405,nback,2021.2.3,60.04314700545342,
2-back,instructions\back-2.png,conditions\24back-e.xlsx,,experiment,2,3,stim\gray.png,stim\gray.png,stim\yellow.png,stim\gray.png,down,,,,,,,,,,,,,0,1,1,12,0,10,10,10,,,,,,,,,,,,,,,,,,,,,,,,,,,,,,,,,,,,,,,,,,,,,,,,,,,,,,,,up,0,266.970539199996,None,266.970539199996,None,266.970539199996,267.97178690000146,266.970539199996,267.97178690000146,266.970539199996,267.97178690000146,266.970539199996,267.97178690000146,266.970539199996,267.4708821000022,266.970539199996,267.4708821000022,266.970539199996,267.4708821000022,266.970539199996,267.4708821000022,266.970539199996,None,0.8114190999986022,,,,,11004,001,2023_Dec_29_1405,nback,2021.2.3,60.04314700545342,
2-back,instructions\back-2.png,conditions\24back-e.xlsx,,experiment,2,1,stim\yellow.png,stim\gray.png,stim\gray.png,stim\gray.png,up,,,,,,,,,,,,,0,1,1,12,0,11,11,11,,,,,,,,,,,,,,,,,,,,,,,,,,,,,,,,,,,,,,,,,,,,,,,,,,,,,,,,right,0,268.4722297999979,None,268.4722297999979,None,268.4722297999979,269.4737841000024,268.4722297999979,269.4737841000024,268.4722297999979,269.4737841000024,268.4722297999979,269.4737841000024,268.4722297999979,268.9729201000009,268.4722297999979,268.9729201000009,268.4722297999979,268.9729201000009,268.4722297999979,268.9729201000009,268.4722297999979,None,1.0467490999944857,,,,,11004,001,2023_Dec_29_1405,nback,2021.2.3,60.04314700545342,
2-back,instructions\back-2.png,conditions\24back-e.xlsx,,experiment,2,2,stim\gray.png,stim\yellow.png,stim\gray.png,stim\gray.png,right,,,,,,,,,,,,,0,1,1,12,0,12,12,12,,,,,,,,,,,,,,,,,,,,,,,,,,,,,,,,,,,,,,,,,,,,,,,,,,,,,,,,None,0,269.95715349999955,None,269.95715349999955,None,269.95715349999955,270.9584778999997,269.95715349999955,270.9584778999997,269.95715349999955,270.9584778999997,269.95715349999955,270.9584778999997,269.95715349999955,270.4578518999988,269.95715349999955,270.4578518999988,269.95715349999955,270.4578518999988,269.95715349999955,270.4578518999988,269.95715349999955,None,,,,,,11004,001,2023_Dec_29_1405,nback,2021.2.3,60.04314700545342,
2-back,instructions\back-2.png,conditions\24back-e.xlsx,,experiment,2,4,stim\gray.png,stim\gray.png,stim\gray.png,stim\yellow.png,up,,,,,,,,,,,,,0,1,1,12,0,13,13,13,,,,,,,,,,,,,,,,,,,,,,,,,,,,,,,,,,,,,,,,,,,,,,,,,,,,,,,,up,1,271.4594414999956,None,271.4594414999956,None,271.4594414999956,272.46073510000133,271.4594414999956,272.46073510000133,271.4594414999956,272.46073510000133,271.4594414999956,272.46073510000133,271.4594414999956,271.9601962000015,271.4594414999956,271.9601962000015,271.4594414999956,271.9601962000015,271.4594414999956,271.9601962000015,271.4594414999956,None,0.21086600000126055,,,,,11004,001,2023_Dec_29_1405,nback,2021.2.3,60.04314700545342,
2-back,instructions\back-2.png,conditions\24back-e.xlsx,,experiment,2,3,stim\gray.png,stim\gray.png,stim\yellow.png,stim\gray.png,left,,,,,,,,,,,,,0,1,1,12,0,14,14,14,,,,,,,,,,,,,,,,,,,,,,,,,,,,,,,,,,,,,,,,,,,,,,,,,,,,,,,,left,1,272.96165810000093,None,272.96165810000093,None,272.96165810000093,273.96370139999635,272.96165810000093,273.96370139999635,272.96165810000093,273.96370139999635,272.96165810000093,273.96370139999635,272.96165810000093,273.46236379999755,272.96165810000093,273.46236379999755,272.96165810000093,273.46236379999755,272.96165810000093,273.46236379999755,272.96165810000093,None,0.26072520000161603,,,,,11004,001,2023_Dec_29_1405,nback,2021.2.3,60.04314700545342,
2-back,instructions\back-2.png,conditions\24back-e.xlsx,,experiment,2,2,stim\gray.png,stim\yellow.png,stim\gray.png,stim\gray.png,down,,,,,,,,,,,,,0,1,1,12,0,15,15,15,,,,,,,,,,,,,,,,,,,,,,,,,,,,,,,,,,,,,,,,,,,,,,,,,,,,,,,,down,1,274.4638732999956,None,274.4638732999956,None,274.4638732999956,275.4663925999994,274.4638732999956,275.4663925999994,274.4638732999956,275.4663925999994,274.4638732999956,275.4663925999994,274.4638732999956,274.9648060999971,274.4638732999956,274.9648060999971,274.4638732999956,274.9648060999971,274.4638732999956,274.9648060999971,274.4638732999956,None,0.08627580000029411,,,,,11004,001,2023_Dec_29_1405,nback,2021.2.3,60.04314700545342,
2-back,instructions\back-2.png,conditions\24back-e.xlsx,,experiment,2,4,stim\gray.png,stim\gray.png,stim\gray.png,stim\yellow.png,right,,,,,,,,,,,,,0,1,1,12,0,16,16,16,,,,,,,,,,,,,,,,,,,,,,,,,,,,,,,,,,,,,,,,,,,,,,,,,,,,,,,,left,0,275.96613980000257,None,275.96613980000257,None,275.96613980000257,276.9682990000001,275.96613980000257,276.9682990000001,275.96613980000257,276.9682990000001,275.96613980000257,276.9682990000001,275.96613980000257,276.4673793999973,275.96613980000257,276.4673793999973,275.96613980000257,276.4673793999973,275.96613980000257,276.4673793999973,275.96613980000257,None,1.3761980000053882,,,,,11004,001,2023_Dec_29_1405,nback,2021.2.3,60.04314700545342,
2-back,instructions\back-2.png,conditions\24back-e.xlsx,,experiment,2,3,stim\gray.png,stim\gray.png,stim\yellow.png,stim\gray.png,left,,,,,,,,,,,,,0,1,1,12,0,17,17,17,,,,,,,,,,,,,,,,,,,,,,,,,,,,,,,,,,,,,,,,,,,,,,,,,,,,,,,,down,0,277.46830090000003,None,277.46830090000003,None,277.46830090000003,278.4696589000014,277.46830090000003,278.4696589000014,277.46830090000003,278.4696589000014,277.46830090000003,278.4696589000014,277.46830090000003,277.96935179999855,277.46830090000003,277.96935179999855,277.46830090000003,277.96935179999855,277.46830090000003,277.96935179999855,277.46830090000003,None,1.306123700000171,,,,,11004,001,2023_Dec_29_1405,nback,2021.2.3,60.04314700545342,
2-back,instructions\back-2.png,conditions\24back-e.xlsx,,experiment,2,1,stim\yellow.png,stim\gray.png,stim\gray.png,stim\gray.png,down,,,,,,,,,,,,,0,1,1,12,0,18,18,18,,,,,,,,,,,,,,,,,,,,,,,,,,,,,,,,,,,,,,,,,,,,,,,,,,,,,,,,right,0,278.9711629000012,None,278.9711629000012,None,278.9711629000012,279.9729662999962,278.9711629000012,279.9729662999962,278.9711629000012,279.9729662999962,278.9711629000012,279.9729662999962,278.9711629000012,279.471996399996,278.9711629000012,279.471996399996,278.9711629000012,279.471996399996,278.9711629000012,279.471996399996,278.9711629000012,None,1.1951219999973546,,,,,11004,001,2023_Dec_29_1405,nback,2021.2.3,60.04314700545342,
2-back,instructions\back-2.png,conditions\24back-e.xlsx,,experiment,2,2,stim\gray.png,stim\yellow.png,stim\gray.png,stim\gray.png,right,,,,,,,,,,,,,0,1,1,12,0,19,19,19,,,,,,,,,,,,,,,,,,,,,,,,,,,,,,,,,,,,,,,,,,,,,,,,,,,,,,,,None,0,280.4728350000005,None,280.4728350000005,None,280.4728350000005,281.4743094000005,280.4728350000005,281.4743094000005,280.4728350000005,281.4743094000005,280.4728350000005,281.4743094000005,280.4728350000005,280.9738842000006,280.4728350000005,280.9738842000006,280.4728350000005,280.9738842000006,280.4728350000005,280.9738842000006,280.4728350000005,None,,,,,,11004,001,2023_Dec_29_1405,nback,2021.2.3,60.04314700545342,
2-back,instructions\back-2.png,conditions\24back-e.xlsx,,,,,,,,,,,,,,,,,,,,,,0,1,1,12,,,,,,,,,,,,,,,,,,,,,,,,,,,,,,,,,,,,,,,,,,,,,,,,,,,,,,,,,,,,,,,,,,,,,,,,,,,,,,,,,,,,,281.9581900999983,None,,,11004,001,2023_Dec_29_1405,nback,2021.2.3,60.04314700545342,
1-back,instructions\back-1.png,conditions\12back-e.xlsx,,experiment,1,2,stim\gray.png,stim\yellow.png,stim\gray.png,stim\gray.png,None,,,,,,,,,,,,,0,2,2,6,0,0,0,0,,,,,,,,,,,,,,,283.12762870000006,287.6340659999987,287.56739070000185,None,,,,,,,,,,,,,,,,,,,,,,,,,,,,,,,,,,,,,,left,0,287.98516129999916,None,287.98516129999916,None,287.98516129999916,288.98550629999954,287.98516129999916,288.98550629999954,287.98516129999916,288.98550629999954,287.98516129999916,288.98550629999954,287.98516129999916,288.4852516999963,287.98516129999916,288.4852516999963,287.98516129999916,288.4852516999963,287.98516129999916,288.4852516999963,287.98516129999916,None,0.8932030000069062,,,,,11004,001,2023_Dec_29_1405,nback,2021.2.3,60.04314700545342,
1-back,instructions\back-1.png,conditions\12back-e.xlsx,,experiment,1,3,stim\gray.png,stim\gray.png,stim\yellow.png,stim\gray.png,left,,,,,,,,,,,,,0,2,2,6,0,1,1,1,,,,,,,,,,,,,,,,,,,,,,,,,,,,,,,,,,,,,,,,,,,,,,,,,,,,,,,,left,1,289.46927239999786,None,289.46927239999786,None,289.46927239999786,290.47079759999906,289.46927239999786,290.47079759999906,289.46927239999786,290.47079759999906,289.46927239999786,290.47079759999906,289.46927239999786,289.9709753999996,289.46927239999786,289.9709753999996,289.46927239999786,289.9709753999996,289.46927239999786,289.9709753999996,289.46927239999786,None,1.3852987999998732,,,,,11004,001,2023_Dec_29_1405,nback,2021.2.3,60.04314700545342,
1-back,instructions\back-1.png,conditions\12back-e.xlsx,,experiment,1,4,stim\gray.png,stim\gray.png,stim\gray.png,stim\yellow.png,right,,,,,,,,,,,,,0,2,2,6,0,2,2,2,,,,,,,,,,,,,,,,,,,,,,,,,,,,,,,,,,,,,,,,,,,,,,,,,,,,,,,,right,1,290.97167810000246,None,290.97167810000246,None,290.97167810000246,291.97383750000154,290.97167810000246,291.97383750000154,290.97167810000246,291.97383750000154,290.97167810000246,291.97383750000154,290.97167810000246,291.4724623000002,290.97167810000246,291.4724623000002,290.97167810000246,291.4724623000002,290.97167810000246,291.4724623000002,290.97167810000246,None,0.8105785000007018,,,,,11004,001,2023_Dec_29_1405,nback,2021.2.3,60.04314700545342,
1-back,instructions\back-1.png,conditions\12back-e.xlsx,,experiment,1,3,stim\gray.png,stim\gray.png,stim\yellow.png,stim\gray.png,down,,,,,,,,,,,,,0,2,2,6,0,3,3,3,,,,,,,,,,,,,,,,,,,,,,,,,,,,,,,,,,,,,,,,,,,,,,,,,,,,,,,,down,1,292.4570964000013,None,292.4570964000013,None,292.4570964000013,293.4594453999962,292.4570964000013,293.4594453999962,292.4570964000013,293.4594453999962,292.4570964000013,293.4594453999962,292.4570964000013,292.9577958000009,292.4570964000013,292.9577958000009,292.4570964000013,292.9577958000009,292.4570964000013,292.9577958000009,292.4570964000013,None,0.44502120000106515,,,,,11004,001,2023_Dec_29_1405,nback,2021.2.3,60.04314700545342,
1-back,instructions\back-1.png,conditions\12back-e.xlsx,,experiment,1,1,stim\yellow.png,stim\gray.png,stim\gray.png,stim\gray.png,right,,,,,,,,,,,,,0,2,2,6,0,4,4,4,,,,,,,,,,,,,,,,,,,,,,,,,,,,,,,,,,,,,,,,,,,,,,,,,,,,,,,,right,1,293.9593495000008,None,293.9593495000008,None,293.9593495000008,294.9621724999961,293.9593495000008,294.9621724999961,293.9593495000008,294.9621724999961,293.9593495000008,294.9621724999961,293.9593495000008,294.46017330000177,293.9593495000008,294.46017330000177,293.9593495000008,294.46017330000177,293.9593495000008,294.46017330000177,293.9593495000008,None,0.1910989999960293,,,,,11004,001,2023_Dec_29_1405,nback,2021.2.3,60.04314700545342,
1-back,instructions\back-1.png,conditions\12back-e.xlsx,,experiment,1,2,stim\gray.png,stim\yellow.png,stim\gray.png,stim\gray.png,up,,,,,,,,,,,,,0,2,2,6,0,5,5,5,,,,,,,,,,,,,,,,,,,,,,,,,,,,,,,,,,,,,,,,,,,,,,,,,,,,,,,,up,1,295.4616231999971,None,295.4616231999971,None,295.4616231999971,296.4636167999997,295.4616231999971,296.4636167999997,295.4616231999971,296.4636167999997,295.4616231999971,296.4636167999997,295.4616231999971,295.9624765999979,295.4616231999971,295.9624765999979,295.4616231999971,295.9624765999979,295.4616231999971,295.9624765999979,295.4616231999971,None,0.16852140000264626,,,,,11004,001,2023_Dec_29_1405,nback,2021.2.3,60.04314700545342,
1-back,instructions\back-1.png,conditions\12back-e.xlsx,,experiment,1,2,stim\gray.png,stim\yellow.png,stim\gray.png,stim\gray.png,left,,,,,,,,,,,,,0,2,2,6,0,6,6,6,,,,,,,,,,,,,,,,,,,,,,,,,,,,,,,,,,,,,,,,,,,,,,,,,,,,,,,,left,1,296.9639345999967,None,296.9639345999967,None,296.9639345999967,297.9652769000022,296.9639345999967,297.9652769000022,296.9639345999967,297.9652769000022,296.9639345999967,297.9652769000022,296.9639345999967,297.4645672999977,296.9639345999967,297.4645672999977,296.9639345999967,297.4645672999977,296.9639345999967,297.4645672999977,296.9639345999967,None,0.10750689999986207,,,,,11004,001,2023_Dec_29_1405,nback,2021.2.3,60.04314700545342,
1-back,instructions\back-1.png,conditions\12back-e.xlsx,,experiment,1,4,stim\gray.png,stim\gray.png,stim\gray.png,stim\yellow.png,left,,,,,,,,,,,,,0,2,2,6,0,7,7,7,,,,,,,,,,,,,,,,,,,,,,,,,,,,,,,,,,,,,,,,,,,,,,,,,,,,,,,,down,0,298.46595620000153,None,298.46595620000153,None,298.46595620000153,299.46798919999856,298.46595620000153,299.46798919999856,298.46595620000153,299.46798919999856,298.46595620000153,299.46798919999856,298.46595620000153,298.96725929999957,298.46595620000153,298.96725929999957,298.46595620000153,298.96725929999957,298.46595620000153,298.96725929999957,298.46595620000153,None,1.460104699996009,,,,,11004,001,2023_Dec_29_1405,nback,2021.2.3,60.04314700545342,
1-back,instructions\back-1.png,conditions\12back-e.xlsx,,experiment,1,1,stim\yellow.png,stim\gray.png,stim\gray.png,stim\gray.png,down,,,,,,,,,,,,,0,2,2,6,0,8,8,8,,,,,,,,,,,,,,,,,,,,,,,,,,,,,,,,,,,,,,,,,,,,,,,,,,,,,,,,up,0,299.9684560999958,None,299.9684560999958,None,299.9684560999958,300.9704574999996,299.9684560999958,300.9704574999996,299.9684560999958,300.9704574999996,299.9684560999958,300.9704574999996,299.9684560999958,300.4700019000011,299.9684560999958,300.4700019000011,299.9684560999958,300.4700019000011,299.9684560999958,300.4700019000011,299.9684560999958,None,1.4141017000001739,,,,,11004,001,2023_Dec_29_1405,nback,2021.2.3,60.04314700545342,
1-back,instructions\back-1.png,conditions\12back-e.xlsx,,experiment,1,3,stim\gray.png,stim\gray.png,stim\yellow.png,stim\gray.png,up,,,,,,,,,,,,,0,2,2,6,0,9,9,9,,,,,,,,,,,,,,,,,,,,,,,,,,,,,,,,,,,,,,,,,,,,,,,,,,,,,,,,right,0,301.47055179999734,None,301.47055179999734,None,301.47055179999734,302.4728585999983,301.47055179999734,302.4728585999983,301.47055179999734,302.4728585999983,301.47055179999734,302.4728585999983,301.47055179999734,301.97196709999844,301.47055179999734,301.97196709999844,301.47055179999734,301.97196709999844,301.47055179999734,301.97196709999844,301.47055179999734,None,1.3037186000001384,,,,,11004,001,2023_Dec_29_1405,nback,2021.2.3,60.04314700545342,
1-back,instructions\back-1.png,conditions\12back-e.xlsx,,experiment,1,4,stim\gray.png,stim\gray.png,stim\gray.png,stim\yellow.png,right,,,,,,,,,,,,,0,2,2,6,0,10,10,10,,,,,,,,,,,,,,,,,,,,,,,,,,,,,,,,,,,,,,,,,,,,,,,,,,,,,,,,None,0,302.9727857999969,None,302.9727857999969,None,302.9727857999969,303.97505329999694,302.9727857999969,303.97505329999694,302.9727857999969,303.97505329999694,302.9727857999969,303.97505329999694,302.9727857999969,303.4742280999999,302.9727857999969,303.4742280999999,302.9727857999969,303.4742280999999,302.9727857999969,303.4742280999999,302.9727857999969,None,,,,,,11004,001,2023_Dec_29_1405,nback,2021.2.3,60.04314700545342,
1-back,instructions\back-1.png,conditions\12back-e.xlsx,,experiment,1,3,stim\gray.png,stim\gray.png,stim\yellow.png,stim\gray.png,down,,,,,,,,,,,,,0,2,2,6,0,11,11,11,,,,,,,,,,,,,,,,,,,,,,,,,,,,,,,,,,,,,,,,,,,,,,,,,,,,,,,,down,1,304.458318099998,None,304.458318099998,None,304.458318099998,305.45978450000257,304.458318099998,305.45978450000257,304.458318099998,305.45978450000257,304.458318099998,305.45978450000257,304.458318099998,304.9594233000025,304.458318099998,304.9594233000025,304.458318099998,304.9594233000025,304.458318099998,304.9594233000025,304.458318099998,None,0.18007619999843882,,,,,11004,001,2023_Dec_29_1405,nback,2021.2.3,60.04314700545342,
1-back,instructions\back-1.png,conditions\12back-e.xlsx,,experiment,1,1,stim\yellow.png,stim\gray.png,stim\gray.png,stim\gray.png,left,,,,,,,,,,,,,0,2,2,6,0,12,12,12,,,,,,,,,,,,,,,,,,,,,,,,,,,,,,,,,,,,,,,,,,,,,,,,,,,,,,,,right,0,305.96049779999885,None,305.96049779999885,None,305.96049779999885,306.96275700000115,305.96049779999885,306.96275700000115,305.96049779999885,306.96275700000115,305.96049779999885,306.96275700000115,305.96049779999885,306.46195579999767,305.96049779999885,306.46195579999767,305.96049779999885,306.46195579999767,305.96049779999885,306.46195579999767,305.96049779999885,None,0.1257476000027964,,,,,11004,001,2023_Dec_29_1405,nback,2021.2.3,60.04314700545342,
1-back,instructions\back-1.png,conditions\12back-e.xlsx,,experiment,1,4,stim\gray.png,stim\gray.png,stim\gray.png,stim\yellow.png,up,,,,,,,,,,,,,0,2,2,6,0,13,13,13,,,,,,,,,,,,,,,,,,,,,,,,,,,,,,,,,,,,,,,,,,,,,,,,,,,,,,,,up,1,307.4629075999983,None,307.4629075999983,None,307.4629075999983,308.464971399997,307.4629075999983,308.464971399997,307.4629075999983,308.464971399997,307.4629075999983,308.464971399997,307.4629075999983,307.96438409999973,307.4629075999983,307.96438409999973,307.4629075999983,307.96438409999973,307.4629075999983,307.96438409999973,307.4629075999983,None,0.23916800000006333,,,,,11004,001,2023_Dec_29_1405,nback,2021.2.3,60.04314700545342,
1-back,instructions\back-1.png,conditions\12back-e.xlsx,,experiment,1,1,stim\yellow.png,stim\gray.png,stim\gray.png,stim\gray.png,down,,,,,,,,,,,,,0,2,2,6,0,14,14,14,,,,,,,,,,,,,,,,,,,,,,,,,,,,,,,,,,,,,,,,,,,,,,,,,,,,,,,,down,1,308.9649714999978,None,308.9649714999978,None,308.9649714999978,309.9675380999979,308.9649714999978,309.9675380999979,308.9649714999978,309.9675380999979,308.9649714999978,309.9675380999979,308.9649714999978,309.46564200000284,308.9649714999978,309.46564200000284,308.9649714999978,309.46564200000284,308.9649714999978,309.46564200000284,308.9649714999978,None,0.21826709999731975,,,,,11004,001,2023_Dec_29_1405,nback,2021.2.3,60.04314700545342,
1-back,instructions\back-1.png,conditions\12back-e.xlsx,,experiment,1,2,stim\gray.png,stim\yellow.png,stim\gray.png,stim\gray.png,up,,,,,,,,,,,,,0,2,2,6,0,15,15,15,,,,,,,,,,,,,,,,,,,,,,,,,,,,,,,,,,,,,,,,,,,,,,,,,,,,,,,,up,1,310.467450199998,None,310.467450199998,None,310.467450199998,311.4696132999961,310.467450199998,311.4696132999961,310.467450199998,311.4696132999961,310.467450199998,311.4696132999961,310.467450199998,310.96807029999763,310.467450199998,310.96807029999763,310.467450199998,310.96807029999763,310.467450199998,310.96807029999763,310.467450199998,None,0.33933129999786615,,,,,11004,001,2023_Dec_29_1405,nback,2021.2.3,60.04314700545342,
1-back,instructions\back-1.png,conditions\12back-e.xlsx,,experiment,1,1,stim\yellow.png,stim\gray.png,stim\gray.png,stim\gray.png,left,,,,,,,,,,,,,0,2,2,6,0,16,16,16,,,,,,,,,,,,,,,,,,,,,,,,,,,,,,,,,,,,,,,,,,,,,,,,,,,,,,,,left,1,311.96949660000246,None,311.96949660000246,None,311.96949660000246,312.9717573000016,311.96949660000246,312.9717573000016,311.96949660000246,312.9717573000016,311.96949660000246,312.9717573000016,311.96949660000246,312.4708893999996,311.96949660000246,312.4708893999996,311.96949660000246,312.4708893999996,311.96949660000246,312.4708893999996,311.96949660000246,None,0.26876179999817396,,,,,11004,001,2023_Dec_29_1405,nback,2021.2.3,60.04314700545342,
1-back,instructions\back-1.png,conditions\12back-e.xlsx,,experiment,1,3,stim\gray.png,stim\gray.png,stim\yellow.png,stim\gray.png,up,,,,,,,,,,,,,0,2,2,6,0,17,17,17,,,,,,,,,,,,,,,,,,,,,,,,,,,,,,,,,,,,,,,,,,,,,,,,,,,,,,,,up,1,313.47169199999917,None,313.47169199999917,None,313.47169199999917,314.47327740000037,313.47169199999917,314.47327740000037,313.47169199999917,314.47327740000037,313.47169199999917,314.47327740000037,313.47169199999917,313.97299219999695,313.47169199999917,313.97299219999695,313.47169199999917,313.97299219999695,313.47169199999917,313.97299219999695,313.47169199999917,None,0.7827297000039835,,,,,11004,001,2023_Dec_29_1405,nback,2021.2.3,60.04314700545342,
1-back,instructions\back-1.png,conditions\12back-e.xlsx,,experiment,1,2,stim\gray.png,stim\yellow.png,stim\gray.png,stim\gray.png,right,,,,,,,,,,,,,0,2,2,6,0,18,18,18,,,,,,,,,,,,,,,,,,,,,,,,,,,,,,,,,,,,,,,,,,,,,,,,,,,,,,,,right,1,314.9572119000004,None,314.9572119000004,None,314.9572119000004,315.9594800999985,314.9572119000004,315.9594800999985,314.9572119000004,315.9594800999985,314.9572119000004,315.9594800999985,314.9572119000004,315.458569800001,314.9572119000004,315.458569800001,314.9572119000004,315.458569800001,314.9572119000004,315.458569800001,314.9572119000004,None,0.5209889999969164,,,,,11004,001,2023_Dec_29_1405,nback,2021.2.3,60.04314700545342,
1-back,instructions\back-1.png,conditions\12back-e.xlsx,,experiment,1,4,stim\gray.png,stim\gray.png,stim\gray.png,stim\yellow.png,left,,,,,,,,,,,,,0,2,2,6,0,19,19,19,,,,,,,,,,,,,,,,,,,,,,,,,,,,,,,,,,,,,,,,,,,,,,,,,,,,,,,,left,1,316.4592895999958,None,316.4592895999958,None,316.4592895999958,317.46136280000064,316.4592895999958,317.46136280000064,316.4592895999958,317.46136280000064,316.4592895999958,317.46136280000064,316.4592895999958,316.9601859999966,316.4592895999958,316.9601859999966,316.4592895999958,316.9601859999966,316.4592895999958,316.9601859999966,316.4592895999958,None,0.6840562999932445,,,,,11004,001,2023_Dec_29_1405,nback,2021.2.3,60.04314700545342,
1-back,instructions\back-1.png,conditions\12back-e.xlsx,,,,,,,,,,,,,,,,,,,,,,0,2,2,6,,,,,,,,,,,,,,,,,,,,,,,,,,,,,,,,,,,,,,,,,,,,,,,,,,,,,,,,,,,,,,,,,,,,,,,,,,,,,,,,,,,,,317.96333069999673,None,,,11004,001,2023_Dec_29_1405,nback,2021.2.3,60.04314700545342,
0-back,instructions\back-0.png,conditions\02back-e.xlsx,,experiment,0,4,stim\gray.png,stim\gray.png,stim\gray.png,stim\yellow.png,down,,,,,,,,,,,,,0,3,3,7,0,0,0,0,,,,,,,,,,,,,,,319.1635580000002,323.67115779999585,323.63779839999916,None,,,,,,,,,,,,,,,,,,,,,,,,,,,,,,,,,,,,,,down,1,323.9895385999989,None,323.9895385999989,None,323.9895385999989,324.9887336999964,323.9895385999989,324.9887336999964,323.9895385999989,324.9887336999964,323.9895385999989,324.9887336999964,323.9895385999989,324.5045297999968,323.9895385999989,324.5045297999968,323.9895385999989,324.5045297999968,323.9895385999989,324.5045297999968,323.9895385999989,None,0.4655999000024167,,,,,11004,001,2023_Dec_29_1405,nback,2021.2.3,60.04314700545342,
0-back,instructions\back-0.png,conditions\02back-e.xlsx,,experiment,0,2,stim\gray.png,stim\yellow.png,stim\gray.png,stim\gray.png,left,,,,,,,,,,,,,0,3,3,7,0,1,1,1,,,,,,,,,,,,,,,,,,,,,,,,,,,,,,,,,,,,,,,,,,,,,,,,,,,,,,,,left,1,325.4728243999998,None,325.4728243999998,None,325.4728243999998,326.47492259999854,325.4728243999998,326.47492259999854,325.4728243999998,326.47492259999854,325.4728243999998,326.47492259999854,325.4728243999998,325.97359689999575,325.4728243999998,325.97359689999575,325.4728243999998,325.97359689999575,325.4728243999998,325.97359689999575,325.4728243999998,None,0.3341431000008015,,,,,11004,001,2023_Dec_29_1405,nback,2021.2.3,60.04314700545342,
0-back,instructions\back-0.png,conditions\02back-e.xlsx,,experiment,0,1,stim\yellow.png,stim\gray.png,stim\gray.png,stim\gray.png,up,,,,,,,,,,,,,0,3,3,7,0,2,2,2,,,,,,,,,,,,,,,,,,,,,,,,,,,,,,,,,,,,,,,,,,,,,,,,,,,,,,,,up,1,326.95880609999585,None,326.95880609999585,None,326.95880609999585,327.95996359999845,326.95880609999585,327.95996359999845,326.95880609999585,327.95996359999845,326.95880609999585,327.95996359999845,326.95880609999585,327.45974820000265,326.95880609999585,327.45974820000265,326.95880609999585,327.45974820000265,326.95880609999585,327.45974820000265,326.95880609999585,None,0.2001860000018496,,,,,11004,001,2023_Dec_29_1405,nback,2021.2.3,60.04314700545342,
0-back,instructions\back-0.png,conditions\02back-e.xlsx,,experiment,0,2,stim\gray.png,stim\yellow.png,stim\gray.png,stim\gray.png,left,,,,,,,,,,,,,0,3,3,7,0,3,3,3,,,,,,,,,,,,,,,,,,,,,,,,,,,,,,,,,,,,,,,,,,,,,,,,,,,,,,,,left,1,328.4604751000006,None,328.4604751000006,None,328.4604751000006,329.46272540000064,328.4604751000006,329.46272540000064,328.4604751000006,329.46272540000064,328.4604751000006,329.46272540000064,328.4604751000006,328.96111050000036,328.4604751000006,328.96111050000036,328.4604751000006,328.96111050000036,328.4604751000006,328.96111050000036,328.4604751000006,None,0.3538960000005318,,,,,11004,001,2023_Dec_29_1405,nback,2021.2.3,60.04314700545342,
0-back,instructions\back-0.png,conditions\02back-e.xlsx,,experiment,0,3,stim\gray.png,stim\gray.png,stim\yellow.png,stim\gray.png,right,,,,,,,,,,,,,0,3,3,7,0,4,4,4,,,,,,,,,,,,,,,,,,,,,,,,,,,,,,,,,,,,,,,,,,,,,,,,,,,,,,,,right,1,329.96302450000076,None,329.96302450000076,None,329.96302450000076,330.9660307000013,329.96302450000076,330.9660307000013,329.96302450000076,330.9660307000013,329.96302450000076,330.9660307000013,329.96302450000076,330.4656171999959,329.96302450000076,330.4656171999959,329.96302450000076,330.4656171999959,329.96302450000076,330.4656171999959,329.96302450000076,None,0.379362100000435,,,,,11004,001,2023_Dec_29_1405,nback,2021.2.3,60.04314700545342,
0-back,instructions\back-0.png,conditions\02back-e.xlsx,,experiment,0,1,stim\yellow.png,stim\gray.png,stim\gray.png,stim\gray.png,up,,,,,,,,,,,,,0,3,3,7,0,5,5,5,,,,,,,,,,,,,,,,,,,,,,,,,,,,,,,,,,,,,,,,,,,,,,,,,,,,,,,,up,1,331.4649639999989,None,331.4649639999989,None,331.4649639999989,332.46639879999566,331.4649639999989,332.46639879999566,331.4649639999989,332.46639879999566,331.4649639999989,332.46639879999566,331.4649639999989,331.9663994000002,331.4649639999989,331.9663994000002,331.4649639999989,331.9663994000002,331.4649639999989,331.9663994000002,331.4649639999989,None,0.26924899999721674,,,,,11004,001,2023_Dec_29_1405,nback,2021.2.3,60.04314700545342,
0-back,instructions\back-0.png,conditions\02back-e.xlsx,,experiment,0,2,stim\gray.png,stim\yellow.png,stim\gray.png,stim\gray.png,left,,,,,,,,,,,,,0,3,3,7,0,6,6,6,,,,,,,,,,,,,,,,,,,,,,,,,,,,,,,,,,,,,,,,,,,,,,,,,,,,,,,,left,1,332.9679399000015,None,332.9679399000015,None,332.9679399000015,333.96866990000126,332.9679399000015,333.96866990000126,332.9679399000015,333.96866990000126,332.9679399000015,333.96866990000126,332.9679399000015,333.4693522000016,332.9679399000015,333.4693522000016,332.9679399000015,333.4693522000016,332.9679399000015,333.4693522000016,332.9679399000015,None,0.22276930000225548,,,,,11004,001,2023_Dec_29_1405,nback,2021.2.3,60.04314700545342,
0-back,instructions\back-0.png,conditions\02back-e.xlsx,,experiment,0,3,stim\gray.png,stim\gray.png,stim\yellow.png,stim\gray.png,right,,,,,,,,,,,,,0,3,3,7,0,7,7,7,,,,,,,,,,,,,,,,,,,,,,,,,,,,,,,,,,,,,,,,,,,,,,,,,,,,,,,,right,1,334.4699010999975,None,334.4699010999975,None,334.4699010999975,335.4716150000022,334.4699010999975,335.4716150000022,334.4699010999975,335.4716150000022,334.4699010999975,335.4716150000022,334.4699010999975,334.97013499999593,334.4699010999975,334.97013499999593,334.4699010999975,334.97013499999593,334.4699010999975,334.97013499999593,334.4699010999975,None,0.40052819999982603,,,,,11004,001,2023_Dec_29_1405,nback,2021.2.3,60.04314700545342,
0-back,instructions\back-0.png,conditions\02back-e.xlsx,,experiment,0,4,stim\gray.png,stim\gray.png,stim\gray.png,stim\yellow.png,down,,,,,,,,,,,,,0,3,3,7,0,8,8,8,,,,,,,,,,,,,,,,,,,,,,,,,,,,,,,,,,,,,,,,,,,,,,,,,,,,,,,,left,0,335.97107539999706,None,335.97107539999706,None,335.97107539999706,336.9731967999978,335.97107539999706,336.9731967999978,335.97107539999706,336.9731967999978,335.97107539999706,336.9731967999978,335.97107539999706,336.47245100000146,335.97107539999706,336.47245100000146,335.97107539999706,336.47245100000146,335.97107539999706,336.47245100000146,335.97107539999706,None,0.35514340000372613,,,,,11004,001,2023_Dec_29_1405,nback,2021.2.3,60.04314700545342,
0-back,instructions\back-0.png,conditions\02back-e.xlsx,,experiment,0,3,stim\gray.png,stim\gray.png,stim\yellow.png,stim\gray.png,right,,,,,,,,,,,,,0,3,3,7,0,9,9,9,,,,,,,,,,,,,,,,,,,,,,,,,,,,,,,,,,,,,,,,,,,,,,,,,,,,,,,,right,1,337.4579251999967,None,337.4579251999967,None,337.4579251999967,338.45948179999687,337.4579251999967,338.45948179999687,337.4579251999967,338.45948179999687,337.4579251999967,338.45948179999687,337.4579251999967,337.9578330000004,337.4579251999967,337.9578330000004,337.4579251999967,337.9578330000004,337.4579251999967,337.9578330000004,337.4579251999967,None,0.38108639999700245,,,,,11004,001,2023_Dec_29_1405,nback,2021.2.3,60.04314700545342,
0-back,instructions\back-0.png,conditions\02back-e.xlsx,,experiment,0,1,stim\yellow.png,stim\gray.png,stim\gray.png,stim\gray.png,up,,,,,,,,,,,,,0,3,3,7,0,10,10,10,,,,,,,,,,,,,,,,,,,,,,,,,,,,,,,,,,,,,,,,,,,,,,,,,,,,,,,,up,1,338.9594875999974,None,338.9594875999974,None,338.9594875999974,339.9609066999983,338.9594875999974,339.9609066999983,338.9594875999974,339.9609066999983,338.9594875999974,339.9609066999983,338.9594875999974,339.4603575000001,338.9594875999974,339.4603575000001,338.9594875999974,339.4603575000001,338.9594875999974,339.4603575000001,338.9594875999974,None,0.3912363999988884,,,,,11004,001,2023_Dec_29_1405,nback,2021.2.3,60.04314700545342,
0-back,instructions\back-0.png,conditions\02back-e.xlsx,,experiment,0,4,stim\gray.png,stim\gray.png,stim\gray.png,stim\yellow.png,down,,,,,,,,,,,,,0,3,3,7,0,11,11,11,,,,,,,,,,,,,,,,,,,,,,,,,,,,,,,,,,,,,,,,,,,,,,,,,,,,,,,,down,1,340.46234820000245,None,340.46234820000245,None,340.46234820000245,341.4643164000008,340.46234820000245,341.4643164000008,340.46234820000245,341.4643164000008,340.46234820000245,341.4643164000008,340.46234820000245,340.9630012999987,340.46234820000245,340.9630012999987,340.46234820000245,340.9630012999987,340.46234820000245,340.9630012999987,340.46234820000245,None,0.5679100000052131,,,,,11004,001,2023_Dec_29_1405,nback,2021.2.3,60.04314700545342,
0-back,instructions\back-0.png,conditions\02back-e.xlsx,,experiment,0,3,stim\gray.png,stim\gray.png,stim\yellow.png,stim\gray.png,right,,,,,,,,,,,,,0,3,3,7,0,12,12,12,,,,,,,,,,,,,,,,,,,,,,,,,,,,,,,,,,,,,,,,,,,,,,,,,,,,,,,,right,1,341.9647349000006,None,341.9647349000006,None,341.9647349000006,342.9659887000016,341.9647349000006,342.9659887000016,341.9647349000006,342.9659887000016,341.9647349000006,342.9659887000016,341.9647349000006,342.46540190000087,341.9647349000006,342.46540190000087,341.9647349000006,342.46540190000087,341.9647349000006,342.46540190000087,341.9647349000006,None,0.3219429000018863,,,,,11004,001,2023_Dec_29_1405,nback,2021.2.3,60.04314700545342,
0-back,instructions\back-0.png,conditions\02back-e.xlsx,,experiment,0,1,stim\yellow.png,stim\gray.png,stim\gray.png,stim\gray.png,up,,,,,,,,,,,,,0,3,3,7,0,13,13,13,,,,,,,,,,,,,,,,,,,,,,,,,,,,,,,,,,,,,,,,,,,,,,,,,,,,,,,,up,1,343.4661808000019,None,343.4661808000019,None,343.4661808000019,344.46836749999784,343.4661808000019,344.46836749999784,343.4661808000019,344.46836749999784,343.4661808000019,344.46836749999784,343.4661808000019,343.96695799999725,343.4661808000019,343.96695799999725,343.4661808000019,343.96695799999725,343.4661808000019,343.96695799999725,343.4661808000019,None,0.32480370000121184,,,,,11004,001,2023_Dec_29_1405,nback,2021.2.3,60.04314700545342,
0-back,instructions\back-0.png,conditions\02back-e.xlsx,,experiment,0,2,stim\gray.png,stim\yellow.png,stim\gray.png,stim\gray.png,left,,,,,,,,,,,,,0,3,3,7,0,14,14,14,,,,,,,,,,,,,,,,,,,,,,,,,,,,,,,,,,,,,,,,,,,,,,,,,,,,,,,,left,1,344.969723000002,None,344.969723000002,None,344.969723000002,345.96992930000124,344.969723000002,345.96992930000124,344.969723000002,345.96992930000124,344.969723000002,345.96992930000124,344.969723000002,345.46970670000155,344.969723000002,345.46970670000155,344.969723000002,345.46970670000155,344.969723000002,345.46970670000155,344.969723000002,None,0.2607122999979765,,,,,11004,001,2023_Dec_29_1405,nback,2021.2.3,60.04314700545342,
0-back,instructions\back-0.png,conditions\02back-e.xlsx,,experiment,0,1,stim\yellow.png,stim\gray.png,stim\gray.png,stim\gray.png,up,,,,,,,,,,,,,0,3,3,7,0,15,15,15,,,,,,,,,,,,,,,,,,,,,,,,,,,,,,,,,,,,,,,,,,,,,,,,,,,,,,,,up,1,346.4712517000007,None,346.4712517000007,None,346.4712517000007,347.4727101999961,346.4712517000007,347.4727101999961,346.4712517000007,347.4727101999961,346.4712517000007,347.4727101999961,346.4712517000007,346.971913100002,346.4712517000007,346.971913100002,346.4712517000007,346.971913100002,346.4712517000007,346.971913100002,346.4712517000007,None,0.39096929999504937,,,,,11004,001,2023_Dec_29_1405,nback,2021.2.3,60.04314700545342,
0-back,instructions\back-0.png,conditions\02back-e.xlsx,,experiment,0,3,stim\gray.png,stim\gray.png,stim\yellow.png,stim\gray.png,right,,,,,,,,,,,,,0,3,3,7,0,16,16,16,,,,,,,,,,,,,,,,,,,,,,,,,,,,,,,,,,,,,,,,,,,,,,,,,,,,,,,,right,1,347.9732034999979,None,347.9732034999979,None,347.9732034999979,348.9748477999965,347.9732034999979,348.9748477999965,347.9732034999979,348.9748477999965,347.9732034999979,348.9748477999965,347.9732034999979,348.4741802999997,347.9732034999979,348.4741802999997,347.9732034999979,348.4741802999997,347.9732034999979,348.4741802999997,347.9732034999979,None,0.2649768999981461,,,,,11004,001,2023_Dec_29_1405,nback,2021.2.3,60.04314700545342,
0-back,instructions\back-0.png,conditions\02back-e.xlsx,,experiment,0,4,stim\gray.png,stim\gray.png,stim\gray.png,stim\yellow.png,down,,,,,,,,,,,,,0,3,3,7,0,17,17,17,,,,,,,,,,,,,,,,,,,,,,,,,,,,,,,,,,,,,,,,,,,,,,,,,,,,,,,,down,1,349.4581745999967,None,349.4581745999967,None,349.4581745999967,350.46033680000255,349.4581745999967,350.46033680000255,349.4581745999967,350.46033680000255,349.4581745999967,350.46033680000255,349.4581745999967,349.9598412999985,349.4581745999967,349.9598412999985,349.4581745999967,349.9598412999985,349.4581745999967,349.9598412999985,349.4581745999967,None,0.6200086999961059,,,,,11004,001,2023_Dec_29_1405,nback,2021.2.3,60.04314700545342,
0-back,instructions\back-0.png,conditions\02back-e.xlsx,,experiment,0,4,stim\gray.png,stim\gray.png,stim\gray.png,stim\yellow.png,down,,,,,,,,,,,,,0,3,3,7,0,18,18,18,,,,,,,,,,,,,,,,,,,,,,,,,,,,,,,,,,,,,,,,,,,,,,,,,,,,,,,,down,1,350.9607109999997,None,350.9607109999997,None,350.9607109999997,351.96297989999584,350.9607109999997,351.96297989999584,350.9607109999997,351.96297989999584,350.9607109999997,351.96297989999584,350.9607109999997,351.4619875999997,350.9607109999997,351.4619875999997,350.9607109999997,351.4619875999997,350.9607109999997,351.4619875999997,350.9607109999997,None,0.605843699995603,,,,,11004,001,2023_Dec_29_1405,nback,2021.2.3,60.04314700545342,
