backseq,backinstr,backfile,instruction,Trialtype,back,number,P1,P2,P3,P4,corrAns,trials_practice.thisRepN,trials_practice.thisTrialN,trials_practice.thisN,trials_practice.thisIndex,trials.thisRepN,trials.thisTrialN,trials.thisN,trials.thisIndex,trials_3.thisRepN,trials_3.thisTrialN,trials_3.thisN,trials_3.thisIndex,trials_2.thisRepN,trials_2.thisTrialN,trials_2.thisN,trials_2.thisIndex,trials_4.thisRepN,trials_4.thisTrialN,trials_4.thisN,trials_4.thisIndex,image.started,image.stopped,image_2.started,image_2.stopped,key_resp.keys,key_resp.rt,key_resp.started,key_resp.stopped,image_3.started,image_3.stopped,key_resp_2.keys,key_resp_2.rt,key_resp_2.started,key_resp_2.stopped,image_4.started,image_4.stopped,text.started,text.stopped,H1.started,H1.stopped,H2.started,H2.stopped,H3.started,H3.stopped,H4.started,H4.stopped,key_resp_3.keys,key_resp_3.corr,key_resp_3.rt,key_resp_3.started,key_resp_3.stopped,text_4.started,text_4.stopped,F1.started,F1.stopped,F2.started,F2.stopped,F3.started,F3.stopped,F4.started,F4.stopped,image_7.started,image_7.stopped,text_5.started,text_5.stopped,key_resp_6.keys,key_resp_6.rt,key_resp_6.started,key_resp_6.stopped,image_5.started,image_5.stopped,key_resp_4.keys,key_resp_4.rt,key_resp_4.started,key_resp_4.stopped,key_resp_5.keys,key_resp_5.corr,key_resp_5.started,key_resp_5.stopped,text_3.started,text_3.stopped,H1_2.started,H1_2.stopped,H2_2.started,H2_2.stopped,H3_2.started,H3_2.stopped,H4_2.started,H4_2.stopped,F1_2.started,F1_2.stopped,F2_2.started,F2_2.stopped,F3_2.started,F3_2.stopped,F4_2.started,F4_2.stopped,image_8.started,image_8.stopped,key_resp_5.rt,text_2.started,text_2.stopped,image_6.started,image_6.stopped,participant,session,date,expName,psychopyVersion,frameRate,
,,,,,,,,,,,,,,,,,,,,,,,,,,,,,,,,9.212433699998655,None,10.131227599995327,None,space,25.47350830000505,10.131227599995327,None,,,,,,,,,,,,,,,,,,,,,,,,,,,,,,,,,,,,,,,,,,,,,,,,,,,,,,,,,,,,,,,,,,,,,,,,,,,,,11002,001,2023_Dec_29_1307,nback,2021.2.3,60.46976541877763,
0-back,instructions\back-0.png,conditions\0back-p.xlsx,instructions\0-BACK.png,practice,0,1,stim\yellow.png,stim\gray.png,stim\gray.png,stim\gray.png,up,0,0,0,0,0,0,0,0,0,0,0,0,,,,,,,,,,,,,,,,,35.80179510000016,None,space,8.139301299997896,35.80179510000016,None,44.14812749999692,48.655892299997504,48.58867169999576,None,48.989282900001854,49.98967659999471,48.989282900001854,49.98967659999471,48.989282900001854,49.98967659999471,48.989282900001854,49.98967659999471,up,1,0.6157020999962697,48.989282900001854,None,48.989282900001854,None,48.989282900001854,49.48952509999799,48.989282900001854,49.48952509999799,48.989282900001854,49.48952509999799,48.989282900001854,49.48952509999799,48.989282900001854,None,,,,,,,,,,,,,,,,,,,,,,,,,,,,,,,,,,,,,,,,,,11002,001,2023_Dec_29_1307,nback,2021.2.3,60.46976541877763,
0-back,instructions\back-0.png,conditions\0back-p.xlsx,instructions\0-BACK.png,practice,0,2,stim\gray.png,stim\yellow.png,stim\gray.png,stim\gray.png,left,0,0,0,0,0,0,0,0,0,1,1,1,,,,,,,,,,,,,,,,,,,,,,,,,,,50.474243299999216,51.47512409999763,50.474243299999216,51.47512409999763,50.474243299999216,51.47512409999763,50.474243299999216,51.47512409999763,left,1,0.4511133999985759,50.474243299999216,None,50.474243299999216,None,50.474243299999216,50.97567069999786,50.474243299999216,50.97567069999786,50.474243299999216,50.97567069999786,50.474243299999216,50.97567069999786,50.474243299999216,None,,,,,,,,,,,,,,,,,,,,,,,,,,,,,,,,,,,,,,,,,,11002,001,2023_Dec_29_1307,nback,2021.2.3,60.46976541877763,
0-back,instructions\back-0.png,conditions\0back-p.xlsx,instructions\0-BACK.png,practice,0,3,stim\gray.png,stim\gray.png,stim\yellow.png,stim\gray.png,right,0,0,0,0,0,0,0,0,0,2,2,2,,,,,,,,,,,,,,,,,,,,,,,,,,,51.97590779999882,52.97843759999523,51.97590779999882,52.97843759999523,51.97590779999882,52.97843759999523,51.97590779999882,52.97843759999523,right,1,0.4771729999993113,51.97590779999882,None,51.97590779999882,None,51.97590779999882,52.476753299997654,51.97590779999882,52.476753299997654,51.97590779999882,52.476753299997654,51.97590779999882,52.476753299997654,51.97590779999882,None,,,,,,,,,,,,,,,,,,,,,,,,,,,,,,,,,,,,,,,,,,11002,001,2023_Dec_29_1307,nback,2021.2.3,60.46976541877763,
0-back,instructions\back-0.png,conditions\0back-p.xlsx,instructions\0-BACK.png,practice,0,4,stim\gray.png,stim\gray.png,stim\gray.png,stim\yellow.png,down,0,0,0,0,0,0,0,0,0,3,3,3,,,,,,,,,,,,,,,,,,,,,,,,,,,53.5281055000014,54.531285500001104,53.5281055000014,54.531285500001104,53.5281055000014,54.531285500001104,53.5281055000014,54.531285500001104,down,1,0.7488792000003741,53.5281055000014,None,53.5281055000014,None,53.5281055000014,54.0291561999984,53.5281055000014,54.0291561999984,53.5281055000014,54.0291561999984,53.5281055000014,54.0291561999984,53.5281055000014,None,,,,,,,,,,,,,,,,,,,,,,,,,,,,,,,,,,,,,,,,,,11002,001,2023_Dec_29_1307,nback,2021.2.3,60.46976541877763,
0-back,instructions\back-0.png,conditions\0back-p.xlsx,instructions\0-BACK.png,practice,0,2,stim\gray.png,stim\yellow.png,stim\gray.png,stim\gray.png,left,0,0,0,0,0,0,0,0,0,4,4,4,,,,,,,,,,,,,,,,,,,,,,,,,,,54.981117299998004,55.98247899999842,54.981117299998004,55.98247899999842,54.981117299998004,55.98247899999842,54.981117299998004,55.98247899999842,left,1,0.36783009999635397,54.981117299998004,None,54.981117299998004,None,54.981117299998004,55.48186120000173,54.981117299998004,55.48186120000173,54.981117299998004,55.48186120000173,54.981117299998004,55.48186120000173,54.981117299998004,None,,,,,,,,,,,,,,,,,,,,,,,,,,,,,,,,,,,,,,,,,,11002,001,2023_Dec_29_1307,nback,2021.2.3,60.46976541877763,
0-back,instructions\back-0.png,conditions\0back-p.xlsx,instructions\0-BACK.png,practice,0,1,stim\yellow.png,stim\gray.png,stim\gray.png,stim\gray.png,up,0,0,0,0,0,0,0,0,0,5,5,5,,,,,,,,,,,,,,,,,,,,,,,,,,,56.48269009999785,57.4844901999968,56.48269009999785,57.4844901999968,56.48269009999785,57.4844901999968,56.48269009999785,57.4844901999968,up,1,0.27433190000010654,56.48269009999785,None,56.48269009999785,None,56.48269009999785,56.98399879999488,56.48269009999785,56.98399879999488,56.48269009999785,56.98399879999488,56.48269009999785,56.98399879999488,56.48269009999785,None,,,,,,,,,,,,,,,,,,,,,,,,,,,,,,,,,,,,,,,,,,11002,001,2023_Dec_29_1307,nback,2021.2.3,60.46976541877763,
0-back,instructions\back-0.png,conditions\0back-p.xlsx,instructions\0-BACK.png,practice,0,4,stim\gray.png,stim\gray.png,stim\gray.png,stim\yellow.png,down,0,0,0,0,0,0,0,0,0,6,6,6,,,,,,,,,,,,,,,,,,,,,,,,,,,57.968021699998644,58.9708221999972,57.968021699998644,58.9708221999972,57.968021699998644,58.9708221999972,57.968021699998644,58.9708221999972,down,1,0.6929966999960016,57.968021699998644,None,57.968021699998644,None,57.968021699998644,58.469678000001295,57.968021699998644,58.469678000001295,57.968021699998644,58.469678000001295,57.968021699998644,58.469678000001295,57.968021699998644,None,,,,,,,,,,,,,,,,,,,,,,,,,,,,,,,,,,,,,,,,,,11002,001,2023_Dec_29_1307,nback,2021.2.3,60.46976541877763,
0-back,instructions\back-0.png,conditions\0back-p.xlsx,instructions\0-BACK.png,practice,0,3,stim\gray.png,stim\gray.png,stim\yellow.png,stim\gray.png,right,0,0,0,0,0,0,0,0,0,7,7,7,,,,,,,,,,,,,,,,,,,,,,,,,,,59.47034029999486,60.4719139000008,59.47034029999486,60.4719139000008,59.47034029999486,60.4719139000008,59.47034029999486,60.4719139000008,right,1,0.44691880000027595,59.47034029999486,None,59.47034029999486,None,59.47034029999486,59.97116939999978,59.47034029999486,59.97116939999978,59.47034029999486,59.97116939999978,59.47034029999486,59.97116939999978,59.47034029999486,None,,,,,,,,,,,,,,,,,,,,,,,,,,,,,,,,,,,,,,,,,,11002,001,2023_Dec_29_1307,nback,2021.2.3,60.46976541877763,
0-back,instructions\back-0.png,conditions\0back-p.xlsx,instructions\0-BACK.png,practice,0,3,stim\gray.png,stim\gray.png,stim\yellow.png,stim\gray.png,right,0,0,0,0,0,0,0,0,0,8,8,8,,,,,,,,,,,,,,,,,,,,,,,,,,,60.972662899999705,61.974054099999194,60.972662899999705,61.974054099999194,60.972662899999705,61.974054099999194,60.972662899999705,61.974054099999194,right,1,0.46437230000447016,60.972662899999705,None,60.972662899999705,None,60.972662899999705,61.47335089999979,60.972662899999705,61.47335089999979,60.972662899999705,61.47335089999979,60.972662899999705,61.47335089999979,60.972662899999705,None,,,,,,,,,,,,,,,,,,,,,,,,,,,,,,,,,,,,,,,,,,11002,001,2023_Dec_29_1307,nback,2021.2.3,60.46976541877763,
0-back,instructions\back-0.png,conditions\0back-p.xlsx,instructions\0-BACK.png,practice,0,4,stim\gray.png,stim\gray.png,stim\gray.png,stim\yellow.png,down,0,0,0,0,0,0,0,0,0,9,9,9,,,,,,,,,,,,,,,,,,,,,,,,,,,62.47484319999785,63.47699809999904,62.47484319999785,63.47699809999904,62.47484319999785,63.47699809999904,62.47484319999785,63.47699809999904,down,1,0.7465411000011954,62.47484319999785,None,62.47484319999785,None,62.47484319999785,62.97620910000114,62.47484319999785,62.97620910000114,62.47484319999785,62.97620910000114,62.47484319999785,62.97620910000114,62.47484319999785,None,,,,,,,,,,,,,,,,,,,,,,,,,,,,,,,,,,,,,,,,,,11002,001,2023_Dec_29_1307,nback,2021.2.3,60.46976541877763,
0-back,instructions\back-0.png,conditions\0back-p.xlsx,instructions\0-BACK.png,practice,0,1,stim\yellow.png,stim\gray.png,stim\gray.png,stim\gray.png,up,0,0,0,0,0,0,0,0,0,10,10,10,,,,,,,,,,,,,,,,,,,,,,,,,,,63.976956899998186,64.97853809999651,63.976956899998186,64.97853809999651,63.976956899998186,64.97853809999651,63.976956899998186,64.97853809999651,up,1,0.5006981000042288,63.976956899998186,None,63.976956899998186,None,63.976956899998186,64.47829320000164,63.976956899998186,64.47829320000164,63.976956899998186,64.47829320000164,63.976956899998186,64.47829320000164,63.976956899998186,None,,,,,,,,,,,,,,,,,,,,,,,,,,,,,,,,,,,,,,,,,,11002,001,2023_Dec_29_1307,nback,2021.2.3,60.46976541877763,
0-back,instructions\back-0.png,conditions\0back-p.xlsx,instructions\0-BACK.png,practice,0,2,stim\gray.png,stim\yellow.png,stim\gray.png,stim\gray.png,left,0,0,0,0,0,0,0,0,0,11,11,11,,,,,,,,,,,,,,,,,,,,,,,,,,,65.48042609999538,66.48090149999916,65.48042609999538,66.48090149999916,65.48042609999538,66.48090149999916,65.48042609999538,66.48090149999916,left,1,0.3086540999938734,65.48042609999538,None,65.48042609999538,None,65.48042609999538,65.97998619999998,65.48042609999538,65.97998619999998,65.48042609999538,65.97998619999998,65.48042609999538,65.97998619999998,65.48042609999538,None,,,,,,,,,,,,,,,,,,,,,,,,,,,,,,,,,,,,,,,,,,11002,001,2023_Dec_29_1307,nback,2021.2.3,60.46976541877763,
0-back,instructions\back-0.png,conditions\0back-p.xlsx,instructions\0-BACK.png,practice,0,4,stim\gray.png,stim\gray.png,stim\gray.png,stim\yellow.png,down,0,0,0,0,0,0,0,0,0,12,12,12,,,,,,,,,,,,,,,,,,,,,,,,,,,66.98187550000148,67.98366949999763,66.98187550000148,67.98366949999763,66.98187550000148,67.98366949999763,66.98187550000148,67.98366949999763,down,1,0.6476783000034629,66.98187550000148,None,66.98187550000148,None,66.98187550000148,67.48322370000096,66.98187550000148,67.48322370000096,66.98187550000148,67.48322370000096,66.98187550000148,67.48322370000096,66.98187550000148,None,,,,,,,,,,,,,,,,,,,,,,,,,,,,,,,,,,,,,,,,,,11002,001,2023_Dec_29_1307,nback,2021.2.3,60.46976541877763,
0-back,instructions\back-0.png,conditions\0back-p.xlsx,instructions\0-BACK.png,practice,0,3,stim\gray.png,stim\gray.png,stim\yellow.png,stim\gray.png,right,0,0,0,0,0,0,0,0,0,13,13,13,,,,,,,,,,,,,,,,,,,,,,,,,,,68.48372199999721,69.4868720999948,68.48372199999721,69.4868720999948,68.48372199999721,69.4868720999948,68.48372199999721,69.4868720999948,right,1,0.32931989999633515,68.48372199999721,None,68.48372199999721,None,68.48372199999721,68.98440419999679,68.48372199999721,68.98440419999679,68.48372199999721,68.98440419999679,68.48372199999721,68.98440419999679,68.48372199999721,None,,,,,,,,,,,,,,,,,,,,,,,,,,,,,,,,,,,,,,,,,,11002,001,2023_Dec_29_1307,nback,2021.2.3,60.46976541877763,
0-back,instructions\back-0.png,conditions\0back-p.xlsx,instructions\0-BACK.png,practice,0,1,stim\yellow.png,stim\gray.png,stim\gray.png,stim\gray.png,up,0,0,0,0,0,0,0,0,0,14,14,14,,,,,,,,,,,,,,,,,,,,,,,,,,,69.96996460000082,70.97170059999917,69.96996460000082,70.97170059999917,69.96996460000082,70.97170059999917,69.96996460000082,70.97170059999917,up,1,0.2913660000049276,69.96996460000082,None,69.96996460000082,None,69.96996460000082,70.46994799999811,69.96996460000082,70.46994799999811,69.96996460000082,70.46994799999811,69.96996460000082,70.46994799999811,69.96996460000082,None,,,,,,,,,,,,,,,,,,,,,,,,,,,,,,,,,,,,,,,,,,11002,001,2023_Dec_29_1307,nback,2021.2.3,60.46976541877763,
0-back,instructions\back-0.png,conditions\0back-p.xlsx,instructions\0-BACK.png,practice,0,2,stim\gray.png,stim\yellow.png,stim\gray.png,stim\gray.png,left,0,0,0,0,0,0,0,0,0,15,15,15,,,,,,,,,,,,,,,,,,,,,,,,,,,71.47143040000083,72.47385070000018,71.47143040000083,72.47385070000018,71.47143040000083,72.47385070000018,71.47143040000083,72.47385070000018,left,1,0.2936198000024888,71.47143040000083,None,71.47143040000083,None,71.47143040000083,71.97252450000087,71.47143040000083,71.97252450000087,71.47143040000083,71.97252450000087,71.47143040000083,71.97252450000087,71.47143040000083,None,,,,,,,,,,,,,,,,,,,,,,,,,,,,,,,,,,,,,,,,,,11002,001,2023_Dec_29_1307,nback,2021.2.3,60.46976541877763,
0-back,instructions\back-0.png,conditions\0back-p.xlsx,instructions\0-BACK.png,practice,0,3,stim\gray.png,stim\gray.png,stim\yellow.png,stim\gray.png,right,0,0,0,0,0,0,0,0,0,16,16,16,,,,,,,,,,,,,,,,,,,,,,,,,,,72.97361000000092,73.97521089999645,72.97361000000092,73.97521089999645,72.97361000000092,73.97521089999645,72.97361000000092,73.97521089999645,right,1,0.37527169999520993,72.97361000000092,None,72.97361000000092,None,72.97361000000092,73.47523830000137,72.97361000000092,73.47523830000137,72.97361000000092,73.47523830000137,72.97361000000092,73.47523830000137,72.97361000000092,None,,,,,,,,,,,,,,,,,,,,,,,,,,,,,,,,,,,,,,,,,,11002,001,2023_Dec_29_1307,nback,2021.2.3,60.46976541877763,
0-back,instructions\back-0.png,conditions\0back-p.xlsx,instructions\0-BACK.png,practice,0,1,stim\yellow.png,stim\gray.png,stim\gray.png,stim\gray.png,up,0,0,0,0,0,0,0,0,0,17,17,17,,,,,,,,,,,,,,,,,,,,,,,,,,,74.47592710000026,75.47817639999994,74.47592710000026,75.47817639999994,74.47592710000026,75.47817639999994,74.47592710000026,75.47817639999994,up,1,0.3051668000043719,74.47592710000026,None,74.47592710000026,None,74.47592710000026,74.97741400000086,74.47592710000026,74.97741400000086,74.47592710000026,74.97741400000086,74.47592710000026,74.97741400000086,74.47592710000026,None,,,,,,,,,,,,,,,,,,,,,,,,,,,,,,,,,,,,,,,,,,11002,001,2023_Dec_29_1307,nback,2021.2.3,60.46976541877763,
0-back,instructions\back-0.png,conditions\0back-p.xlsx,instructions\0-BACK.png,practice,0,4,stim\gray.png,stim\gray.png,stim\gray.png,stim\yellow.png,down,0,0,0,0,0,0,0,0,0,18,18,18,,,,,,,,,,,,,,,,,,,,,,,,,,,75.97826039999927,76.97972889999801,75.97826039999927,76.97972889999801,75.97826039999927,76.97972889999801,75.97826039999927,76.97972889999801,down,1,0.8990305000043008,75.97826039999927,None,75.97826039999927,None,75.97826039999927,76.48010849999991,75.97826039999927,76.48010849999991,75.97826039999927,76.48010849999991,75.97826039999927,76.48010849999991,75.97826039999927,None,,,,,,,,,,,,,,,,,,,,,,,,,,,,,,,,,,,,,,,,,,11002,001,2023_Dec_29_1307,nback,2021.2.3,60.46976541877763,
0-back,instructions\back-0.png,conditions\0back-p.xlsx,instructions\0-BACK.png,practice,0,2,stim\gray.png,stim\yellow.png,stim\gray.png,stim\gray.png,left,0,0,0,0,0,0,0,0,0,19,19,19,,,,,,,,,,,,,,,,,,,,,,,,,,,77.48073609999847,78.48265439999523,77.48073609999847,78.48265439999523,77.48073609999847,78.48265439999523,77.48073609999847,78.48265439999523,left,1,0.36448099999688566,77.48073609999847,None,77.48073609999847,None,77.48073609999847,77.98138969999854,77.48073609999847,77.98138969999854,77.48073609999847,77.98138969999854,77.48073609999847,77.98138969999854,77.48073609999847,None,,,,,,,,,,,,,,,,,,,,,,,,,,,,,,,,,,,,,,,,,,11002,001,2023_Dec_29_1307,nback,2021.2.3,60.46976541877763,
0-back,instructions\back-0.png,conditions\0back-p.xlsx,instructions\0-BACK.png,,,,,,,,,0,0,0,0,0,0,0,0,,,,,,,,,,,,,,,,,,,,,,,,,,,,,,,,,,,,,,,,,,,,,,,,,,,,,,,,,,,,,,,,,,,,,,,,,,,,,,,,,,,,,,,,,,,,,,,,,11002,001,2023_Dec_29_1307,nback,2021.2.3,60.46976541877763,
1-back,instructions\back-1.png,conditions\1back-p.xlsx,instructions\1-BACK.png,practice,1,1,stim\yellow.png,stim\gray.png,stim\gray.png,stim\gray.png,None,0,0,0,0,0,1,1,1,0,0,0,0,,,,,,,,,,,,,,,,,79.14890239999659,None,space,6.040575799997896,79.14890239999659,None,85.32545050000044,89.83356229999481,89.81560249999893,None,90.23298029999569,91.2347071999975,90.23298029999569,91.2347071999975,90.23298029999569,91.2347071999975,90.23298029999569,91.2347071999975,up,0,0.868630299999495,90.23298029999569,None,90.23298029999569,None,90.23298029999569,90.73377999999502,90.23298029999569,90.73377999999502,90.23298029999569,90.73377999999502,90.23298029999569,90.73377999999502,90.23298029999569,None,,,,,,,,,,,,,,,,,,,,,,,,,,,,,,,,,,,,,,,,,,11002,001,2023_Dec_29_1307,nback,2021.2.3,60.46976541877763,
1-back,instructions\back-1.png,conditions\1back-p.xlsx,instructions\1-BACK.png,practice,1,2,stim\gray.png,stim\yellow.png,stim\gray.png,stim\gray.png,up,0,0,0,0,0,1,1,1,0,1,1,1,,,,,,,,,,,,,,,,,,,,,,,,,,,91.71923080000124,92.72126769999886,91.71923080000124,92.72126769999886,91.71923080000124,92.72126769999886,91.71923080000124,92.72126769999886,up,1,0.5337030999944545,91.71923080000124,None,91.71923080000124,None,91.71923080000124,92.21879239999544,91.71923080000124,92.21879239999544,91.71923080000124,92.21879239999544,91.71923080000124,92.21879239999544,91.71923080000124,None,,,,,,,,,,,,,,,,,,,,,,,,,,,,,,,,,,,,,,,,,,11002,001,2023_Dec_29_1307,nback,2021.2.3,60.46976541877763,
1-back,instructions\back-1.png,conditions\1back-p.xlsx,instructions\1-BACK.png,practice,1,3,stim\gray.png,stim\gray.png,stim\yellow.png,stim\gray.png,left,0,0,0,0,0,1,1,1,0,2,2,2,,,,,,,,,,,,,,,,,,,,,,,,,,,93.22033169999486,94.22260819999792,93.22033169999486,94.22260819999792,93.22033169999486,94.22260819999792,93.22033169999486,94.22260819999792,left,1,0.26493330000084825,93.22033169999486,None,93.22033169999486,None,93.22033169999486,93.720997299999,93.22033169999486,93.720997299999,93.22033169999486,93.720997299999,93.22033169999486,93.720997299999,93.22033169999486,None,,,,,,,,,,,,,,,,,,,,,,,,,,,,,,,,,,,,,,,,,,11002,001,2023_Dec_29_1307,nback,2021.2.3,60.46976541877763,
1-back,instructions\back-1.png,conditions\1back-p.xlsx,instructions\1-BACK.png,practice,1,4,stim\gray.png,stim\gray.png,stim\gray.png,stim\yellow.png,right,0,0,0,0,0,1,1,1,0,3,3,3,,,,,,,,,,,,,,,,,,,,,,,,,,,94.72273689999565,95.72414089999802,94.72273689999565,95.72414089999802,94.72273689999565,95.72414089999802,94.72273689999565,95.72414089999802,right,1,0.3384760999979335,94.72273689999565,None,94.72273689999565,None,94.72273689999565,95.22380219999468,94.72273689999565,95.22380219999468,94.72273689999565,95.22380219999468,94.72273689999565,95.22380219999468,94.72273689999565,None,,,,,,,,,,,,,,,,,,,,,,,,,,,,,,,,,,,,,,,,,,11002,001,2023_Dec_29_1307,nback,2021.2.3,60.46976541877763,
1-back,instructions\back-1.png,conditions\1back-p.xlsx,instructions\1-BACK.png,practice,1,2,stim\gray.png,stim\yellow.png,stim\gray.png,stim\gray.png,down,0,0,0,0,0,1,1,1,0,4,4,4,,,,,,,,,,,,,,,,,,,,,,,,,,,96.22586339999543,97.22637899999972,96.22586339999543,97.22637899999972,96.22586339999543,97.22637899999972,96.22586339999543,97.22637899999972,down,1,0.2671247999969637,96.22586339999543,None,96.22586339999543,None,96.22586339999543,96.72593209999468,96.22586339999543,96.72593209999468,96.22586339999543,96.72593209999468,96.22586339999543,96.72593209999468,96.22586339999543,None,,,,,,,,,,,,,,,,,,,,,,,,,,,,,,,,,,,,,,,,,,11002,001,2023_Dec_29_1307,nback,2021.2.3,60.46976541877763,
1-back,instructions\back-1.png,conditions\1back-p.xlsx,instructions\1-BACK.png,practice,1,1,stim\yellow.png,stim\gray.png,stim\gray.png,stim\gray.png,left,0,0,0,0,0,1,1,1,0,5,5,5,,,,,,,,,,,,,,,,,,,,,,,,,,,97.7269565999959,98.7286798999994,97.7269565999959,98.7286798999994,97.7269565999959,98.7286798999994,97.7269565999959,98.7286798999994,left,1,0.27854349999688566,97.7269565999959,None,97.7269565999959,None,97.7269565999959,98.22872829999687,97.7269565999959,98.22872829999687,97.7269565999959,98.22872829999687,97.7269565999959,98.22872829999687,97.7269565999959,None,,,,,,,,,,,,,,,,,,,,,,,,,,,,,,,,,,,,,,,,,,11002,001,2023_Dec_29_1307,nback,2021.2.3,60.46976541877763,
1-back,instructions\back-1.png,conditions\1back-p.xlsx,instructions\1-BACK.png,practice,1,4,stim\gray.png,stim\gray.png,stim\gray.png,stim\yellow.png,up,0,0,0,0,0,1,1,1,0,6,6,6,,,,,,,,,,,,,,,,,,,,,,,,,,,99.22920429999795,100.23080029999983,99.22920429999795,100.23080029999983,99.22920429999795,100.23080029999983,99.22920429999795,100.23080029999983,up,1,0.40760410000075353,99.22920429999795,None,99.22920429999795,None,99.22920429999795,99.73011350000161,99.22920429999795,99.73011350000161,99.22920429999795,99.73011350000161,99.22920429999795,99.73011350000161,99.22920429999795,None,,,,,,,,,,,,,,,,,,,,,,,,,,,,,,,,,,,,,,,,,,11002,001,2023_Dec_29_1307,nback,2021.2.3,60.46976541877763,
1-back,instructions\back-1.png,conditions\1back-p.xlsx,instructions\1-BACK.png,practice,1,3,stim\gray.png,stim\gray.png,stim\yellow.png,stim\gray.png,down,0,0,0,0,0,1,1,1,0,7,7,7,,,,,,,,,,,,,,,,,,,,,,,,,,,100.71495689999574,101.71629879999819,100.71495689999574,101.71629879999819,100.71495689999574,101.71629879999819,100.71495689999574,101.71629879999819,down,1,0.38602410000021337,100.71495689999574,None,100.71495689999574,None,100.71495689999574,101.21638739999617,100.71495689999574,101.21638739999617,100.71495689999574,101.21638739999617,100.71495689999574,101.21638739999617,100.71495689999574,None,,,,,,,,,,,,,,,,,,,,,,,,,,,,,,,,,,,,,,,,,,11002,001,2023_Dec_29_1307,nback,2021.2.3,60.46976541877763,
1-back,instructions\back-1.png,conditions\1back-p.xlsx,instructions\1-BACK.png,practice,1,3,stim\gray.png,stim\gray.png,stim\yellow.png,stim\gray.png,right,0,0,0,0,0,1,1,1,0,8,8,8,,,,,,,,,,,,,,,,,,,,,,,,,,,102.21707199999946,103.21926099999837,102.21707199999946,103.21926099999837,102.21707199999946,103.21926099999837,102.21707199999946,103.21926099999837,right,1,0.2686647000009543,102.21707199999946,None,102.21707199999946,None,102.21707199999946,102.71939420000126,102.21707199999946,102.71939420000126,102.21707199999946,102.71939420000126,102.21707199999946,102.71939420000126,102.21707199999946,None,,,,,,,,,,,,,,,,,,,,,,,,,,,,,,,,,,,,,,,,,,11002,001,2023_Dec_29_1307,nback,2021.2.3,60.46976541877763,
1-back,instructions\back-1.png,conditions\1back-p.xlsx,instructions\1-BACK.png,practice,1,4,stim\gray.png,stim\gray.png,stim\gray.png,stim\yellow.png,right,0,0,0,0,0,1,1,1,0,9,9,9,,,,,,,,,,,,,,,,,,,,,,,,,,,103.719253999996,104.72156859999814,103.719253999996,104.72156859999814,103.719253999996,104.72156859999814,103.719253999996,104.72156859999814,right,1,0.25362260000110837,103.719253999996,None,103.719253999996,None,103.719253999996,104.22082569999475,103.719253999996,104.22082569999475,103.719253999996,104.22082569999475,103.719253999996,104.22082569999475,103.719253999996,None,,,,,,,,,,,,,,,,,,,,,,,,,,,,,,,,,,,,,,,,,,11002,001,2023_Dec_29_1307,nback,2021.2.3,60.46976541877763,
1-back,instructions\back-1.png,conditions\1back-p.xlsx,instructions\1-BACK.png,practice,1,1,stim\yellow.png,stim\gray.png,stim\gray.png,stim\gray.png,down,0,0,0,0,0,1,1,1,0,10,10,10,,,,,,,,,,,,,,,,,,,,,,,,,,,105.22259689999919,106.22331909999775,105.22259689999919,106.22331909999775,105.22259689999919,106.22331909999775,105.22259689999919,106.22331909999775,down,1,0.462906099994143,105.22259689999919,None,105.22259689999919,None,105.22259689999919,105.72236400000111,105.22259689999919,105.72236400000111,105.22259689999919,105.72236400000111,105.22259689999919,105.72236400000111,105.22259689999919,None,,,,,,,,,,,,,,,,,,,,,,,,,,,,,,,,,,,,,,,,,,11002,001,2023_Dec_29_1307,nback,2021.2.3,60.46976541877763,
1-back,instructions\back-1.png,conditions\1back-p.xlsx,instructions\1-BACK.png,practice,1,2,stim\gray.png,stim\yellow.png,stim\gray.png,stim\gray.png,up,0,0,0,0,0,1,1,1,0,11,11,11,,,,,,,,,,,,,,,,,,,,,,,,,,,106.72355809999863,107.72546259999945,106.72355809999863,107.72546259999945,106.72355809999863,107.72546259999945,106.72355809999863,107.72546259999945,up,1,0.28947369999514194,106.72355809999863,None,106.72355809999863,None,106.72355809999863,107.22466699999495,106.72355809999863,107.22466699999495,106.72355809999863,107.22466699999495,106.72355809999863,107.22466699999495,106.72355809999863,None,,,,,,,,,,,,,,,,,,,,,,,,,,,,,,,,,,,,,,,,,,11002,001,2023_Dec_29_1307,nback,2021.2.3,60.46976541877763,
1-back,instructions\back-1.png,conditions\1back-p.xlsx,instructions\1-BACK.png,practice,1,4,stim\gray.png,stim\gray.png,stim\gray.png,stim\yellow.png,left,0,0,0,0,0,1,1,1,0,12,12,12,,,,,,,,,,,,,,,,,,,,,,,,,,,108.2259544999979,109.22824409999885,108.2259544999979,109.22824409999885,108.2259544999979,109.22824409999885,108.2259544999979,109.22824409999885,left,1,0.22703570000157924,108.2259544999979,None,108.2259544999979,None,108.2259544999979,108.72666290000052,108.2259544999979,108.72666290000052,108.2259544999979,108.72666290000052,108.2259544999979,108.72666290000052,108.2259544999979,None,,,,,,,,,,,,,,,,,,,,,,,,,,,,,,,,,,,,,,,,,,11002,001,2023_Dec_29_1307,nback,2021.2.3,60.46976541877763,
1-back,instructions\back-1.png,conditions\1back-p.xlsx,instructions\1-BACK.png,practice,1,3,stim\gray.png,stim\gray.png,stim\yellow.png,stim\gray.png,down,0,0,0,0,0,1,1,1,0,13,13,13,,,,,,,,,,,,,,,,,,,,,,,,,,,109.72814749999816,110.72972329999902,109.72814749999816,110.72972329999902,109.72814749999816,110.72972329999902,109.72814749999816,110.72972329999902,down,1,0.4928362999999081,109.72814749999816,None,109.72814749999816,None,109.72814749999816,110.23034069999994,109.72814749999816,110.23034069999994,109.72814749999816,110.23034069999994,109.72814749999816,110.23034069999994,109.72814749999816,None,,,,,,,,,,,,,,,,,,,,,,,,,,,,,,,,,,,,,,,,,,11002,001,2023_Dec_29_1307,nback,2021.2.3,60.46976541877763,
1-back,instructions\back-1.png,conditions\1back-p.xlsx,instructions\1-BACK.png,practice,1,1,stim\yellow.png,stim\gray.png,stim\gray.png,stim\gray.png,right,0,0,0,0,0,1,1,1,0,14,14,14,,,,,,,,,,,,,,,,,,,,,,,,,,,111.21415400000114,112.21608339999511,111.21415400000114,112.21608339999511,111.21415400000114,112.21608339999511,111.21415400000114,112.21608339999511,right,1,0.35875210000085644,111.21415400000114,None,111.21415400000114,None,111.21415400000114,111.71447310000076,111.21415400000114,111.71447310000076,111.21415400000114,111.71447310000076,111.21415400000114,111.71447310000076,111.21415400000114,None,,,,,,,,,,,,,,,,,,,,,,,,,,,,,,,,,,,,,,,,,,11002,001,2023_Dec_29_1307,nback,2021.2.3,60.46976541877763,
1-back,instructions\back-1.png,conditions\1back-p.xlsx,instructions\1-BACK.png,practice,1,2,stim\gray.png,stim\yellow.png,stim\gray.png,stim\gray.png,up,0,0,0,0,0,1,1,1,0,15,15,15,,,,,,,,,,,,,,,,,,,,,,,,,,,112.71599079999578,113.71849259999726,112.71599079999578,113.71849259999726,112.71599079999578,113.71849259999726,112.71599079999578,113.71849259999726,up,1,0.8497798000025796,112.71599079999578,None,112.71599079999578,None,112.71599079999578,113.21732569999585,112.71599079999578,113.21732569999585,112.71599079999578,113.21732569999585,112.71599079999578,113.21732569999585,112.71599079999578,None,,,,,,,,,,,,,,,,,,,,,,,,,,,,,,,,,,,,,,,,,,11002,001,2023_Dec_29_1307,nback,2021.2.3,60.46976541877763,
1-back,instructions\back-1.png,conditions\1back-p.xlsx,instructions\1-BACK.png,practice,1,3,stim\gray.png,stim\gray.png,stim\yellow.png,stim\gray.png,left,0,0,0,0,0,1,1,1,0,16,16,16,,,,,,,,,,,,,,,,,,,,,,,,,,,114.21811829999933,115.21958589999849,114.21811829999933,115.21958589999849,114.21811829999933,115.21958589999849,114.21811829999933,115.21958589999849,left,1,0.6835503999973298,114.21811829999933,None,114.21811829999933,None,114.21811829999933,114.7196030999985,114.21811829999933,114.7196030999985,114.21811829999933,114.7196030999985,114.21811829999933,114.7196030999985,114.21811829999933,None,,,,,,,,,,,,,,,,,,,,,,,,,,,,,,,,,,,,,,,,,,11002,001,2023_Dec_29_1307,nback,2021.2.3,60.46976541877763,
1-back,instructions\back-1.png,conditions\1back-p.xlsx,instructions\1-BACK.png,practice,1,1,stim\yellow.png,stim\gray.png,stim\gray.png,stim\gray.png,right,0,0,0,0,0,1,1,1,0,17,17,17,,,,,,,,,,,,,,,,,,,,,,,,,,,115.72035529999994,116.72211129999778,115.72035529999994,116.72211129999778,115.72035529999994,116.72211129999778,115.72035529999994,116.72211129999778,right,1,0.5728749000045354,115.72035529999994,None,115.72035529999994,None,115.72035529999994,116.22315779999917,115.72035529999994,116.22315779999917,115.72035529999994,116.22315779999917,115.72035529999994,116.22315779999917,115.72035529999994,None,,,,,,,,,,,,,,,,,,,,,,,,,,,,,,,,,,,,,,,,,,11002,001,2023_Dec_29_1307,nback,2021.2.3,60.46976541877763,
1-back,instructions\back-1.png,conditions\1back-p.xlsx,instructions\1-BACK.png,practice,1,4,stim\gray.png,stim\gray.png,stim\gray.png,stim\yellow.png,up,0,0,0,0,0,1,1,1,0,18,18,18,,,,,,,,,,,,,,,,,,,,,,,,,,,117.22259579999809,118.22505319999618,117.22259579999809,118.22505319999618,117.22259579999809,118.22505319999618,117.22259579999809,118.22505319999618,up,1,0.4944866000005277,117.22259579999809,None,117.22259579999809,None,117.22259579999809,117.72319739999512,117.22259579999809,117.72319739999512,117.22259579999809,117.72319739999512,117.22259579999809,117.72319739999512,117.22259579999809,None,,,,,,,,,,,,,,,,,,,,,,,,,,,,,,,,,,,,,,,,,,11002,001,2023_Dec_29_1307,nback,2021.2.3,60.46976541877763,
1-back,instructions\back-1.png,conditions\1back-p.xlsx,instructions\1-BACK.png,practice,1,2,stim\gray.png,stim\yellow.png,stim\gray.png,stim\gray.png,down,0,0,0,0,0,1,1,1,0,19,19,19,,,,,,,,,,,,,,,,,,,,,,,,,,,118.72492129999591,119.72698980000132,118.72492129999591,119.72698980000132,118.72492129999591,119.72698980000132,118.72492129999591,119.72698980000132,down,1,0.3280365999962669,118.72492129999591,None,118.72492129999591,None,118.72492129999591,119.22559289999481,118.72492129999591,119.22559289999481,118.72492129999591,119.22559289999481,118.72492129999591,119.22559289999481,118.72492129999591,None,,,,,,,,,,,,,,,,,,,,,,,,,,,,,,,,,,,,,,,,,,11002,001,2023_Dec_29_1307,nback,2021.2.3,60.46976541877763,
1-back,instructions\back-1.png,conditions\1back-p.xlsx,instructions\1-BACK.png,,,,,,,,,0,0,0,0,0,1,1,1,,,,,,,,,,,,,,,,,,,,,,,,,,,,,,,,,,,,,,,,,,,,,,,,,,,,,,,,,,,,,,,,,,,,,,,,,,,,,,,,,,,,,,,,,,,,,,,,,11002,001,2023_Dec_29_1307,nback,2021.2.3,60.46976541877763,
2-back,instructions\back-2.png,conditions\2back-p.xlsx,instructions\2-BACK.png,practice,2,1,stim\yellow.png,stim\gray.png,stim\gray.png,stim\gray.png,None,0,0,0,0,0,2,2,2,0,0,0,0,,,,,,,,,,,,,,,,,120.47738260000187,None,space,7.15978449999966,120.47738260000187,None,127.87161859999469,132.37880790000054,132.27909550000186,None,132.67953009999474,133.680950199996,132.67953009999474,133.680950199996,132.67953009999474,133.680950199996,132.67953009999474,133.680950199996,None,1,,132.67953009999474,None,132.67953009999474,None,132.67953009999474,133.1803490999955,132.67953009999474,133.1803490999955,132.67953009999474,133.1803490999955,132.67953009999474,133.1803490999955,132.67953009999474,None,,,,,,,,,,,,,,,,,,,,,,,,,,,,,,,,,,,,,,,,,,11002,001,2023_Dec_29_1307,nback,2021.2.3,60.46976541877763,
2-back,instructions\back-2.png,conditions\2back-p.xlsx,instructions\2-BACK.png,practice,2,2,stim\gray.png,stim\yellow.png,stim\gray.png,stim\gray.png,None,0,0,0,0,0,2,2,2,0,1,1,1,,,,,,,,,,,,,,,,,,,,,,,,,,,134.16445869999734,135.16735209999752,134.16445869999734,135.16735209999752,134.16445869999734,135.16735209999752,134.16445869999734,135.16735209999752,None,1,,134.16445869999734,None,134.16445869999734,None,134.16445869999734,134.66509119999682,134.16445869999734,134.66509119999682,134.16445869999734,134.66509119999682,134.16445869999734,134.66509119999682,134.16445869999734,None,,,,,,,,,,,,,,,,,,,,,,,,,,,,,,,,,,,,,,,,,,11002,001,2023_Dec_29_1307,nback,2021.2.3,60.46976541877763,
2-back,instructions\back-2.png,conditions\2back-p.xlsx,instructions\2-BACK.png,practice,2,3,stim\gray.png,stim\gray.png,stim\yellow.png,stim\gray.png,up,0,0,0,0,0,2,2,2,0,2,2,2,,,,,,,,,,,,,,,,,,,,,,,,,,,135.66659129999607,136.6684374999968,135.66659129999607,136.6684374999968,135.66659129999607,136.6684374999968,135.66659129999607,136.6684374999968,up,1,1.2509748000011314,135.66659129999607,None,135.66659129999607,None,135.66659129999607,136.1680200999981,135.66659129999607,136.1680200999981,135.66659129999607,136.1680200999981,135.66659129999607,136.1680200999981,135.66659129999607,None,,,,,,,,,,,,,,,,,,,,,,,,,,,,,,,,,,,,,,,,,,11002,001,2023_Dec_29_1307,nback,2021.2.3,60.46976541877763,
2-back,instructions\back-2.png,conditions\2back-p.xlsx,instructions\2-BACK.png,practice,2,4,stim\gray.png,stim\gray.png,stim\gray.png,stim\yellow.png,left,0,0,0,0,0,2,2,2,0,3,3,3,,,,,,,,,,,,,,,,,,,,,,,,,,,137.1686824999997,138.17037569999957,137.1686824999997,138.17037569999957,137.1686824999997,138.17037569999957,137.1686824999997,138.17037569999957,right,0,0.6443322999984957,137.1686824999997,None,137.1686824999997,None,137.1686824999997,137.669667999995,137.1686824999997,137.669667999995,137.1686824999997,137.669667999995,137.1686824999997,137.669667999995,137.1686824999997,None,,,,,,,,,,,,,,,,,,,,,,,,,,,,,,,,,,,,,,,,,,11002,001,2023_Dec_29_1307,nback,2021.2.3,60.46976541877763,
2-back,instructions\back-2.png,conditions\2back-p.xlsx,instructions\2-BACK.png,practice,2,2,stim\gray.png,stim\yellow.png,stim\gray.png,stim\gray.png,right,0,0,0,0,0,2,2,2,0,4,4,4,,,,,,,,,,,,,,,,,,,,,,,,,,,138.67213110000012,139.6734473999968,138.67213110000012,139.6734473999968,138.67213110000012,139.6734473999968,138.67213110000012,139.6734473999968,right,1,0.021392599999671802,138.67213110000012,None,138.67213110000012,None,138.67213110000012,139.172373399997,138.67213110000012,139.172373399997,138.67213110000012,139.172373399997,138.67213110000012,139.172373399997,138.67213110000012,None,,,,,,,,,,,,,,,,,,,,,,,,,,,,,,,,,,,,,,,,,,11002,001,2023_Dec_29_1307,nback,2021.2.3,60.46976541877763,
2-back,instructions\back-2.png,conditions\2back-p.xlsx,instructions\2-BACK.png,practice,2,1,stim\yellow.png,stim\gray.png,stim\gray.png,stim\gray.png,down,0,0,0,0,0,2,2,2,0,5,5,5,,,,,,,,,,,,,,,,,,,,,,,,,,,140.1732780999955,141.1748834999962,140.1732780999955,141.1748834999962,140.1732780999955,141.1748834999962,140.1732780999955,141.1748834999962,left,0,1.1278035000068485,140.1732780999955,None,140.1732780999955,None,140.1732780999955,140.67404149999493,140.1732780999955,140.67404149999493,140.1732780999955,140.67404149999493,140.1732780999955,140.67404149999493,140.1732780999955,None,,,,,,,,,,,,,,,,,,,,,,,,,,,,,,,,,,,,,,,,,,11002,001,2023_Dec_29_1307,nback,2021.2.3,60.46976541877763,
2-back,instructions\back-2.png,conditions\2back-p.xlsx,instructions\2-BACK.png,practice,2,4,stim\gray.png,stim\gray.png,stim\gray.png,stim\yellow.png,left,0,0,0,0,0,2,2,2,0,6,6,6,,,,,,,,,,,,,,,,,,,,,,,,,,,141.6587797999964,142.66047089999483,141.6587797999964,142.66047089999483,141.6587797999964,142.66047089999483,141.6587797999964,142.66047089999483,up,0,0.75425720000203,141.6587797999964,None,141.6587797999964,None,141.6587797999964,142.16085829999793,141.6587797999964,142.16085829999793,141.6587797999964,142.16085829999793,141.6587797999964,142.16085829999793,141.6587797999964,None,,,,,,,,,,,,,,,,,,,,,,,,,,,,,,,,,,,,,,,,,,11002,001,2023_Dec_29_1307,nback,2021.2.3,60.46976541877763,
2-back,instructions\back-2.png,conditions\2back-p.xlsx,instructions\2-BACK.png,practice,2,3,stim\gray.png,stim\gray.png,stim\yellow.png,stim\gray.png,up,0,0,0,0,0,2,2,2,0,7,7,7,,,,,,,,,,,,,,,,,,,,,,,,,,,143.16110520000075,144.16345469999942,143.16110520000075,144.16345469999942,143.16110520000075,144.16345469999942,143.16110520000075,144.16345469999942,right,0,0.8200574000002234,143.16110520000075,None,143.16110520000075,None,143.16110520000075,143.66200549999485,143.16110520000075,143.66200549999485,143.16110520000075,143.66200549999485,143.16110520000075,143.66200549999485,143.16110520000075,None,,,,,,,,,,,,,,,,,,,,,,,,,,,,,,,,,,,,,,,,,,11002,001,2023_Dec_29_1307,nback,2021.2.3,60.46976541877763,
2-back,instructions\back-2.png,conditions\2back-p.xlsx,instructions\2-BACK.png,practice,2,3,stim\gray.png,stim\gray.png,stim\yellow.png,stim\gray.png,down,0,0,0,0,0,2,2,2,0,8,8,8,,,,,,,,,,,,,,,,,,,,,,,,,,,144.66335949999484,145.66522119999718,144.66335949999484,145.66522119999718,144.66335949999484,145.66522119999718,144.66335949999484,145.66522119999718,None,0,,144.66335949999484,None,144.66335949999484,None,144.66335949999484,145.1648576000007,144.66335949999484,145.1648576000007,144.66335949999484,145.1648576000007,144.66335949999484,145.1648576000007,144.66335949999484,None,,,,,,,,,,,,,,,,,,,,,,,,,,,,,,,,,,,,,,,,,,11002,001,2023_Dec_29_1307,nback,2021.2.3,60.46976541877763,
2-back,instructions\back-2.png,conditions\2back-p.xlsx,instructions\2-BACK.png,practice,2,4,stim\gray.png,stim\gray.png,stim\gray.png,stim\yellow.png,right,0,0,0,0,0,2,2,2,0,9,9,9,,,,,,,,,,,,,,,,,,,,,,,,,,,146.16630520000035,147.16799739999988,146.16630520000035,147.16799739999988,146.16630520000035,147.16799739999988,146.16630520000035,147.16799739999988,down,0,0.9510000000009313,146.16630520000035,None,146.16630520000035,None,146.16630520000035,146.66687309999543,146.16630520000035,146.66687309999543,146.16630520000035,146.66687309999543,146.16630520000035,146.66687309999543,146.16630520000035,None,,,,,,,,,,,,,,,,,,,,,,,,,,,,,,,,,,,,,,,,,,11002,001,2023_Dec_29_1307,nback,2021.2.3,60.46976541877763,
2-back,instructions\back-2.png,conditions\2back-p.xlsx,instructions\2-BACK.png,practice,2,1,stim\yellow.png,stim\gray.png,stim\gray.png,stim\gray.png,right,0,0,0,0,0,2,2,2,0,10,10,10,,,,,,,,,,,,,,,,,,,,,,,,,,,147.6690193999966,148.66972479999822,147.6690193999966,148.66972479999822,147.6690193999966,148.66972479999822,147.6690193999966,148.66972479999822,None,0,,147.6690193999966,None,147.6690193999966,None,147.6690193999966,148.168978099995,147.6690193999966,148.168978099995,147.6690193999966,148.168978099995,147.6690193999966,148.168978099995,147.6690193999966,None,,,,,,,,,,,,,,,,,,,,,,,,,,,,,,,,,,,,,,,,,,11002,001,2023_Dec_29_1307,nback,2021.2.3,60.46976541877763,
2-back,instructions\back-2.png,conditions\2back-p.xlsx,instructions\2-BACK.png,practice,2,2,stim\gray.png,stim\yellow.png,stim\gray.png,stim\gray.png,down,0,0,0,0,0,2,2,2,0,11,11,11,,,,,,,,,,,,,,,,,,,,,,,,,,,149.17009519999556,150.17204879999917,149.17009519999556,150.17204879999917,149.17009519999556,150.17204879999917,149.17009519999556,150.17204879999917,down,1,0.4994296000004397,149.17009519999556,None,149.17009519999556,None,149.17009519999556,149.67072519999783,149.17009519999556,149.67072519999783,149.17009519999556,149.67072519999783,149.17009519999556,149.67072519999783,149.17009519999556,None,,,,,,,,,,,,,,,,,,,,,,,,,,,,,,,,,,,,,,,,,,11002,001,2023_Dec_29_1307,nback,2021.2.3,60.46976541877763,
2-back,instructions\back-2.png,conditions\2back-p.xlsx,instructions\2-BACK.png,practice,2,4,stim\gray.png,stim\gray.png,stim\gray.png,stim\yellow.png,up,0,0,0,0,0,2,2,2,0,12,12,12,,,,,,,,,,,,,,,,,,,,,,,,,,,150.67242209999677,151.67413110000052,150.67242209999677,151.67413110000052,150.67242209999677,151.67413110000052,150.67242209999677,151.67413110000052,up,1,0.2525284000003012,150.67242209999677,None,150.67242209999677,None,150.67242209999677,151.17302319999726,150.67242209999677,151.17302319999726,150.67242209999677,151.17302319999726,150.67242209999677,151.17302319999726,150.67242209999677,None,,,,,,,,,,,,,,,,,,,,,,,,,,,,,,,,,,,,,,,,,,11002,001,2023_Dec_29_1307,nback,2021.2.3,60.46976541877763,
2-back,instructions\back-2.png,conditions\2back-p.xlsx,instructions\2-BACK.png,practice,2,3,stim\gray.png,stim\gray.png,stim\yellow.png,stim\gray.png,left,0,0,0,0,0,2,2,2,0,13,13,13,,,,,,,,,,,,,,,,,,,,,,,,,,,152.17449289999786,153.17663940000057,152.17449289999786,153.17663940000057,152.17449289999786,153.17663940000057,152.17449289999786,153.17663940000057,left,1,0.1745429000002332,152.17449289999786,None,152.17449289999786,None,152.17449289999786,152.6760151999988,152.17449289999786,152.6760151999988,152.17449289999786,152.6760151999988,152.17449289999786,152.6760151999988,152.17449289999786,None,,,,,,,,,,,,,,,,,,,,,,,,,,,,,,,,,,,,,,,,,,11002,001,2023_Dec_29_1307,nback,2021.2.3,60.46976541877763,
2-back,instructions\back-2.png,conditions\2back-p.xlsx,instructions\2-BACK.png,practice,2,1,stim\yellow.png,stim\gray.png,stim\gray.png,stim\gray.png,down,0,0,0,0,0,2,2,2,0,14,14,14,,,,,,,,,,,,,,,,,,,,,,,,,,,153.659971699999,154.66187809999974,153.659971699999,154.66187809999974,153.659971699999,154.66187809999974,153.659971699999,154.66187809999974,down,1,0.6570662000012817,153.659971699999,None,153.659971699999,None,153.659971699999,154.16067209999892,153.659971699999,154.16067209999892,153.659971699999,154.16067209999892,153.659971699999,154.16067209999892,153.659971699999,None,,,,,,,,,,,,,,,,,,,,,,,,,,,,,,,,,,,,,,,,,,11002,001,2023_Dec_29_1307,nback,2021.2.3,60.46976541877763,
2-back,instructions\back-2.png,conditions\2back-p.xlsx,instructions\2-BACK.png,practice,2,2,stim\gray.png,stim\yellow.png,stim\gray.png,stim\gray.png,right,0,0,0,0,0,2,2,2,0,15,15,15,,,,,,,,,,,,,,,,,,,,,,,,,,,155.16232489999675,156.16419289999612,155.16232489999675,156.16419289999612,155.16232489999675,156.16419289999612,155.16232489999675,156.16419289999612,right,1,0.7946681999965222,155.16232489999675,None,155.16232489999675,None,155.16232489999675,155.66297040000063,155.16232489999675,155.66297040000063,155.16232489999675,155.66297040000063,155.16232489999675,155.66297040000063,155.16232489999675,None,,,,,,,,,,,,,,,,,,,,,,,,,,,,,,,,,,,,,,,,,,11002,001,2023_Dec_29_1307,nback,2021.2.3,60.46976541877763,
2-back,instructions\back-2.png,conditions\2back-p.xlsx,instructions\2-BACK.png,practice,2,3,stim\gray.png,stim\gray.png,stim\yellow.png,stim\gray.png,up,0,0,0,0,0,2,2,2,0,16,16,16,,,,,,,,,,,,,,,,,,,,,,,,,,,156.6650068999952,157.66683999999805,156.6650068999952,157.66683999999805,156.6650068999952,157.66683999999805,156.6650068999952,157.66683999999805,up,1,0.7725074999980279,156.6650068999952,None,156.6650068999952,None,156.6650068999952,157.16609379999863,156.6650068999952,157.16609379999863,156.6650068999952,157.16609379999863,156.6650068999952,157.16609379999863,156.6650068999952,None,,,,,,,,,,,,,,,,,,,,,,,,,,,,,,,,,,,,,,,,,,11002,001,2023_Dec_29_1307,nback,2021.2.3,60.46976541877763,
2-back,instructions\back-2.png,conditions\2back-p.xlsx,instructions\2-BACK.png,practice,2,1,stim\yellow.png,stim\gray.png,stim\gray.png,stim\gray.png,left,0,0,0,0,0,2,2,2,0,17,17,17,,,,,,,,,,,,,,,,,,,,,,,,,,,158.16660769999726,159.16812550000031,158.16660769999726,159.16812550000031,158.16660769999726,159.16812550000031,158.16660769999726,159.16812550000031,left,1,1.174568200003705,158.16660769999726,None,158.16660769999726,None,158.16660769999726,158.6686924999958,158.16660769999726,158.6686924999958,158.16660769999726,158.6686924999958,158.16660769999726,158.6686924999958,158.16660769999726,None,,,,,,,,,,,,,,,,,,,,,,,,,,,,,,,,,,,,,,,,,,11002,001,2023_Dec_29_1307,nback,2021.2.3,60.46976541877763,
2-back,instructions\back-2.png,conditions\2back-p.xlsx,instructions\2-BACK.png,practice,2,4,stim\gray.png,stim\gray.png,stim\gray.png,stim\yellow.png,right,0,0,0,0,0,2,2,2,0,18,18,18,,,,,,,,,,,,,,,,,,,,,,,,,,,159.66887779999524,160.67173550000007,159.66887779999524,160.67173550000007,159.66887779999524,160.67173550000007,159.66887779999524,160.67173550000007,right,1,1.3281438999983948,159.66887779999524,None,159.66887779999524,None,159.66887779999524,160.17098679999617,159.66887779999524,160.17098679999617,159.66887779999524,160.17098679999617,159.66887779999524,160.17098679999617,159.66887779999524,None,,,,,,,,,,,,,,,,,,,,,,,,,,,,,,,,,,,,,,,,,,11002,001,2023_Dec_29_1307,nback,2021.2.3,60.46976541877763,
2-back,instructions\back-2.png,conditions\2back-p.xlsx,instructions\2-BACK.png,practice,2,2,stim\gray.png,stim\yellow.png,stim\gray.png,stim\gray.png,up,0,0,0,0,0,2,2,2,0,19,19,19,,,,,,,,,,,,,,,,,,,,,,,,,,,161.17178089999652,162.1733424999984,161.17178089999652,162.1733424999984,161.17178089999652,162.1733424999984,161.17178089999652,162.1733424999984,up,1,1.345230699997046,161.17178089999652,None,161.17178089999652,None,161.17178089999652,161.67223759999615,161.17178089999652,161.67223759999615,161.17178089999652,161.67223759999615,161.17178089999652,161.67223759999615,161.17178089999652,None,,,,,,,,,,,,,,,,,,,,,,,,,,,,,,,,,,,,,,,,,,11002,001,2023_Dec_29_1307,nback,2021.2.3,60.46976541877763,
2-back,instructions\back-2.png,conditions\2back-p.xlsx,instructions\2-BACK.png,,,,,,,,,0,0,0,0,0,2,2,2,,,,,,,,,,,,,,,,,,,,,,,,,,,,,,,,,,,,,,,,,,,,,,,,,,,,,,,,,,,,,,,,,,,,,,,,,,,,,,,,,,,,,,,,,,,,,,,,,11002,001,2023_Dec_29_1307,nback,2021.2.3,60.46976541877763,
,,,,,,,,,,,,0,0,0,0,,,,,,,,,,,,,,,,,,,,,,,,,,,,,,,,,,,,,,,,,,,,,,,,,,,,,,,,,,,,162.6732559000011,None,space,5.78806700000132,162.6732559000011,None,,,,,,,,,,,,,,,,,,,,,,,,,,,,,,,,,,,,11002,001,2023_Dec_29_1307,nback,2021.2.3,60.46976541877763,
,,,,,,,,,,,,,,,,,,,,,,,,,,,,,,,,,,,,,,,,,,,,,,,,,,,,,,,,,,,,,,,,,,,,,,,,,,,,,,,,,168.4819776000004,None,space,15.922994999993534,168.4819776000004,None,,,,,,,,,,,,,,,,,,,,,,,,,,,,,,11002,001,2023_Dec_29_1307,nback,2021.2.3,60.46976541877763,
2-back,instructions\back-2.png,conditions\20back-e.xlsx,,experiment,2,2,stim\gray.png,stim\yellow.png,stim\gray.png,stim\gray.png,None,,,,,,,,,,,,,0,0,0,2,0,0,0,0,,,,,,,,,,,,,,,184.57230290000007,189.0807743999976,189.04705609999655,None,,,,,,,,,,,,,,,,,,,,,,,,,,,,,,,,,,,,,,None,1,189.44620710000163,None,189.44620710000163,None,189.44620710000163,190.4477732000014,189.44620710000163,190.4477732000014,189.44620710000163,190.4477732000014,189.44620710000163,190.4477732000014,189.44620710000163,189.94864270000107,189.44620710000163,189.94864270000107,189.44620710000163,189.94864270000107,189.44620710000163,189.94864270000107,189.44620710000163,None,,,,,,11002,001,2023_Dec_29_1307,nback,2021.2.3,60.46976541877763,
2-back,instructions\back-2.png,conditions\20back-e.xlsx,,experiment,2,1,stim\yellow.png,stim\gray.png,stim\gray.png,stim\gray.png,None,,,,,,,,,,,,,0,0,0,2,0,1,1,1,,,,,,,,,,,,,,,,,,,,,,,,,,,,,,,,,,,,,,,,,,,,,,,,,,,,,,,,None,1,190.93206149999605,None,190.93206149999605,None,190.93206149999605,191.93335249999654,190.93206149999605,191.93335249999654,190.93206149999605,191.93335249999654,190.93206149999605,191.93335249999654,190.93206149999605,191.4326829999991,190.93206149999605,191.4326829999991,190.93206149999605,191.4326829999991,190.93206149999605,191.4326829999991,190.93206149999605,None,,,,,,11002,001,2023_Dec_29_1307,nback,2021.2.3,60.46976541877763,
2-back,instructions\back-2.png,conditions\20back-e.xlsx,,experiment,2,4,stim\gray.png,stim\gray.png,stim\gray.png,stim\yellow.png,left,,,,,,,,,,,,,0,0,0,2,0,2,2,2,,,,,,,,,,,,,,,,,,,,,,,,,,,,,,,,,,,,,,,,,,,,,,,,,,,,,,,,left,1,192.43418440000096,None,192.43418440000096,None,192.43418440000096,193.43675919999805,192.43418440000096,193.43675919999805,192.43418440000096,193.43675919999805,192.43418440000096,193.43675919999805,192.43418440000096,192.93595890000142,192.43418440000096,192.93595890000142,192.43418440000096,192.93595890000142,192.43418440000096,192.93595890000142,192.43418440000096,None,1.1311127000008128,,,,,11002,001,2023_Dec_29_1307,nback,2021.2.3,60.46976541877763,
2-back,instructions\back-2.png,conditions\20back-e.xlsx,,experiment,2,3,stim\gray.png,stim\gray.png,stim\yellow.png,stim\gray.png,up,,,,,,,,,,,,,0,0,0,2,0,3,3,3,,,,,,,,,,,,,,,,,,,,,,,,,,,,,,,,,,,,,,,,,,,,,,,,,,,,,,,,up,1,193.9363188999996,None,193.9363188999996,None,193.9363188999996,194.93920219999563,193.9363188999996,194.93920219999563,193.9363188999996,194.93920219999563,193.9363188999996,194.93920219999563,193.9363188999996,194.43712019999657,193.9363188999996,194.43712019999657,193.9363188999996,194.43712019999657,193.9363188999996,194.43712019999657,193.9363188999996,None,0.4855217000003904,,,,,11002,001,2023_Dec_29_1307,nback,2021.2.3,60.46976541877763,
2-back,instructions\back-2.png,conditions\20back-e.xlsx,,experiment,2,1,stim\yellow.png,stim\gray.png,stim\gray.png,stim\gray.png,down,,,,,,,,,,,,,0,0,0,2,0,4,4,4,,,,,,,,,,,,,,,,,,,,,,,,,,,,,,,,,,,,,,,,,,,,,,,,,,,,,,,,right,0,195.4385811999964,None,195.4385811999964,None,195.4385811999964,196.43997780000063,195.4385811999964,196.43997780000063,195.4385811999964,196.43997780000063,195.4385811999964,196.43997780000063,195.4385811999964,195.9392674999981,195.4385811999964,195.9392674999981,195.4385811999964,195.9392674999981,195.4385811999964,195.9392674999981,195.4385811999964,None,1.3033426999973017,,,,,11002,001,2023_Dec_29_1307,nback,2021.2.3,60.46976541877763,
2-back,instructions\back-2.png,conditions\20back-e.xlsx,,experiment,2,2,stim\gray.png,stim\yellow.png,stim\gray.png,stim\gray.png,right,,,,,,,,,,,,,0,0,0,2,0,5,5,5,,,,,,,,,,,,,,,,,,,,,,,,,,,,,,,,,,,,,,,,,,,,,,,,,,,,,,,,None,0,196.9407515999992,None,196.9407515999992,None,196.9407515999992,197.94228279999516,196.9407515999992,197.94228279999516,196.9407515999992,197.94228279999516,196.9407515999992,197.94228279999516,196.9407515999992,197.44157619999896,196.9407515999992,197.44157619999896,196.9407515999992,197.44157619999896,196.9407515999992,197.44157619999896,196.9407515999992,None,,,,,,11002,001,2023_Dec_29_1307,nback,2021.2.3,60.46976541877763,
2-back,instructions\back-2.png,conditions\20back-e.xlsx,,experiment,2,3,stim\gray.png,stim\gray.png,stim\yellow.png,stim\gray.png,up,,,,,,,,,,,,,0,0,0,2,0,6,6,6,,,,,,,,,,,,,,,,,,,,,,,,,,,,,,,,,,,,,,,,,,,,,,,,,,,,,,,,up,1,198.42610350000177,None,198.42610350000177,None,198.42610350000177,199.42807389999507,198.42610350000177,199.42807389999507,198.42610350000177,199.42807389999507,198.42610350000177,199.42807389999507,198.42610350000177,198.92777429999842,198.42610350000177,198.92777429999842,198.42610350000177,198.92777429999842,198.42610350000177,198.92777429999842,198.42610350000177,None,0.5634464000031585,,,,,11002,001,2023_Dec_29_1307,nback,2021.2.3,60.46976541877763,
2-back,instructions\back-2.png,conditions\20back-e.xlsx,,experiment,2,4,stim\gray.png,stim\gray.png,stim\gray.png,stim\yellow.png,left,,,,,,,,,,,,,0,0,0,2,0,7,7,7,,,,,,,,,,,,,,,,,,,,,,,,,,,,,,,,,,,,,,,,,,,,,,,,,,,,,,,,left,1,199.92872019999777,None,199.92872019999777,None,199.92872019999777,200.93083829999523,199.92872019999777,200.93083829999523,199.92872019999777,200.93083829999523,199.92872019999777,200.93083829999523,199.92872019999777,200.42920589999994,199.92872019999777,200.42920589999994,199.92872019999777,200.42920589999994,199.92872019999777,200.42920589999994,199.92872019999777,None,0.3491022000016528,,,,,11002,001,2023_Dec_29_1307,nback,2021.2.3,60.46976541877763,
2-back,instructions\back-2.png,conditions\20back-e.xlsx,,experiment,2,3,stim\gray.png,stim\gray.png,stim\yellow.png,stim\gray.png,right,,,,,,,,,,,,,0,0,0,2,0,8,8,8,,,,,,,,,,,,,,,,,,,,,,,,,,,,,,,,,,,,,,,,,,,,,,,,,,,,,,,,right,1,201.43066610000096,None,201.43066610000096,None,201.43066610000096,202.4334108999974,201.43066610000096,202.4334108999974,201.43066610000096,202.4334108999974,201.43066610000096,202.4334108999974,201.43066610000096,201.93241969999508,201.43066610000096,201.93241969999508,201.43066610000096,201.93241969999508,201.43066610000096,201.93241969999508,201.43066610000096,None,0.4308519999976852,,,,,11002,001,2023_Dec_29_1307,nback,2021.2.3,60.46976541877763,
2-back,instructions\back-2.png,conditions\20back-e.xlsx,,experiment,2,4,stim\gray.png,stim\gray.png,stim\gray.png,stim\yellow.png,down,,,,,,,,,,,,,0,0,0,2,0,9,9,9,,,,,,,,,,,,,,,,,,,,,,,,,,,,,,,,,,,,,,,,,,,,,,,,,,,,,,,,up,0,202.93317450000177,None,202.93317450000177,None,202.93317450000177,203.93543659999705,202.93317450000177,203.93543659999705,202.93317450000177,203.93543659999705,202.93317450000177,203.93543659999705,202.93317450000177,203.43499290000182,202.93317450000177,203.43499290000182,202.93317450000177,203.43499290000182,202.93317450000177,203.43499290000182,202.93317450000177,None,0.5363978999957908,,,,,11002,001,2023_Dec_29_1307,nback,2021.2.3,60.46976541877763,
2-back,instructions\back-2.png,conditions\20back-e.xlsx,,experiment,2,1,stim\yellow.png,stim\gray.png,stim\gray.png,stim\gray.png,right,,,,,,,,,,,,,0,0,0,2,0,10,10,10,,,,,,,,,,,,,,,,,,,,,,,,,,,,,,,,,,,,,,,,,,,,,,,,,,,,,,,,right,1,204.43601119999948,None,204.43601119999948,None,204.43601119999948,205.4367734999978,204.43601119999948,205.4367734999978,204.43601119999948,205.4367734999978,204.43601119999948,205.4367734999978,204.43601119999948,204.93600519999745,204.43601119999948,204.93600519999745,204.43601119999948,204.93600519999745,204.43601119999948,204.93600519999745,204.43601119999948,None,0.47339629999623867,,,,,11002,001,2023_Dec_29_1307,nback,2021.2.3,60.46976541877763,
2-back,instructions\back-2.png,conditions\20back-e.xlsx,,experiment,2,2,stim\gray.png,stim\yellow.png,stim\gray.png,stim\gray.png,down,,,,,,,,,,,,,0,0,0,2,0,11,11,11,,,,,,,,,,,,,,,,,,,,,,,,,,,,,,,,,,,,,,,,,,,,,,,,,,,,,,,,down,1,205.9381543999989,None,205.9381543999989,None,205.9381543999989,206.94130459999724,205.9381543999989,206.94130459999724,205.9381543999989,206.94130459999724,205.9381543999989,206.94130459999724,205.9381543999989,206.4390515999985,205.9381543999989,206.4390515999985,205.9381543999989,206.4390515999985,205.9381543999989,206.4390515999985,205.9381543999989,None,0.41882389999955194,,,,,11002,001,2023_Dec_29_1307,nback,2021.2.3,60.46976541877763,
2-back,instructions\back-2.png,conditions\20back-e.xlsx,,experiment,2,3,stim\gray.png,stim\gray.png,stim\yellow.png,stim\gray.png,up,,,,,,,,,,,,,0,0,0,2,0,12,12,12,,,,,,,,,,,,,,,,,,,,,,,,,,,,,,,,,,,,,,,,,,,,,,,,,,,,,,,,up,1,207.43969849999849,None,207.43969849999849,None,207.43969849999849,208.4420753999948,207.43969849999849,208.4420753999948,207.43969849999849,208.4420753999948,207.43969849999849,208.4420753999948,207.43969849999849,207.9408717999977,207.43969849999849,207.9408717999977,207.43969849999849,207.9408717999977,207.43969849999849,207.9408717999977,207.43969849999849,None,0.3977149999991525,,,,,11002,001,2023_Dec_29_1307,nback,2021.2.3,60.46976541877763,
2-back,instructions\back-2.png,conditions\20back-e.xlsx,,experiment,2,1,stim\yellow.png,stim\gray.png,stim\gray.png,stim\gray.png,left,,,,,,,,,,,,,0,0,0,2,0,13,13,13,,,,,,,,,,,,,,,,,,,,,,,,,,,,,,,,,,,,,,,,,,,,,,,,,,,,,,,,left,1,208.9250252999991,None,208.9250252999991,None,208.9250252999991,209.92647939999733,208.9250252999991,209.92647939999733,208.9250252999991,209.92647939999733,208.9250252999991,209.92647939999733,208.9250252999991,209.42653649999556,208.9250252999991,209.42653649999556,208.9250252999991,209.42653649999556,208.9250252999991,209.42653649999556,208.9250252999991,None,0.5761644999947748,,,,,11002,001,2023_Dec_29_1307,nback,2021.2.3,60.46976541877763,
2-back,instructions\back-2.png,conditions\20back-e.xlsx,,experiment,2,4,stim\gray.png,stim\gray.png,stim\gray.png,stim\yellow.png,right,,,,,,,,,,,,,0,0,0,2,0,14,14,14,,,,,,,,,,,,,,,,,,,,,,,,,,,,,,,,,,,,,,,,,,,,,,,,,,,,,,,,right,1,210.42735869999888,None,210.42735869999888,None,210.42735869999888,211.42928839999513,210.42735869999888,211.42928839999513,210.42735869999888,211.42928839999513,210.42735869999888,211.42928839999513,210.42735869999888,210.9282103000005,210.42735869999888,210.9282103000005,210.42735869999888,210.9282103000005,210.42735869999888,210.9282103000005,210.42735869999888,None,0.4257184999951278,,,,,11002,001,2023_Dec_29_1307,nback,2021.2.3,60.46976541877763,
2-back,instructions\back-2.png,conditions\20back-e.xlsx,,experiment,2,2,stim\gray.png,stim\yellow.png,stim\gray.png,stim\gray.png,up,,,,,,,,,,,,,0,0,0,2,0,15,15,15,,,,,,,,,,,,,,,,,,,,,,,,,,,,,,,,,,,,,,,,,,,,,,,,,,,,,,,,up,1,211.92971479999687,None,211.92971479999687,None,211.92971479999687,212.93112219999603,211.92971479999687,212.93112219999603,211.92971479999687,212.93112219999603,211.92971479999687,212.93112219999603,211.92971479999687,212.43086849999963,211.92971479999687,212.43086849999963,211.92971479999687,212.43086849999963,211.92971479999687,212.43086849999963,211.92971479999687,None,0.395867500003078,,,,,11002,001,2023_Dec_29_1307,nback,2021.2.3,60.46976541877763,
2-back,instructions\back-2.png,conditions\20back-e.xlsx,,experiment,2,4,stim\gray.png,stim\gray.png,stim\gray.png,stim\yellow.png,down,,,,,,,,,,,,,0,0,0,2,0,16,16,16,,,,,,,,,,,,,,,,,,,,,,,,,,,,,,,,,,,,,,,,,,,,,,,,,,,,,,,,down,1,213.43186549999518,None,213.43186549999518,None,213.43186549999518,214.43464629999653,213.43186549999518,214.43464629999653,213.43186549999518,214.43464629999653,213.43186549999518,214.43464629999653,213.43186549999518,213.93266510000103,213.43186549999518,213.93266510000103,213.43186549999518,213.93266510000103,213.43186549999518,213.93266510000103,213.43186549999518,None,0.32538170000043465,,,,,11002,001,2023_Dec_29_1307,nback,2021.2.3,60.46976541877763,
2-back,instructions\back-2.png,conditions\20back-e.xlsx,,experiment,2,3,stim\gray.png,stim\gray.png,stim\yellow.png,stim\gray.png,left,,,,,,,,,,,,,0,0,0,2,0,17,17,17,,,,,,,,,,,,,,,,,,,,,,,,,,,,,,,,,,,,,,,,,,,,,,,,,,,,,,,,left,1,214.93687629999476,None,214.93687629999476,None,214.93687629999476,215.9362439999968,214.93687629999476,215.9362439999968,214.93687629999476,215.9362439999968,214.93687629999476,215.9362439999968,214.93687629999476,215.45203789999505,214.93687629999476,215.45203789999505,214.93687629999476,215.45203789999505,214.93687629999476,215.45203789999505,214.93687629999476,None,0.08475600000383565,,,,,11002,001,2023_Dec_29_1307,nback,2021.2.3,60.46976541877763,
2-back,instructions\back-2.png,conditions\20back-e.xlsx,,experiment,2,1,stim\yellow.png,stim\gray.png,stim\gray.png,stim\gray.png,down,,,,,,,,,,,,,0,0,0,2,0,18,18,18,,,,,,,,,,,,,,,,,,,,,,,,,,,,,,,,,,,,,,,,,,,,,,,,,,,,,,,,right,0,216.43640459999733,None,216.43640459999733,None,216.43640459999733,217.43857410000055,216.43640459999733,217.43857410000055,216.43640459999733,217.43857410000055,216.43640459999733,217.43857410000055,216.43640459999733,216.9371347999986,216.43640459999733,216.9371347999986,216.43640459999733,216.9371347999986,216.43640459999733,216.9371347999986,216.43640459999733,None,1.2810737999971025,,,,,11002,001,2023_Dec_29_1307,nback,2021.2.3,60.46976541877763,
2-back,instructions\back-2.png,conditions\20back-e.xlsx,,experiment,2,2,stim\gray.png,stim\yellow.png,stim\gray.png,stim\gray.png,right,,,,,,,,,,,,,0,0,0,2,0,19,19,19,,,,,,,,,,,,,,,,,,,,,,,,,,,,,,,,,,,,,,,,,,,,,,,,,,,,,,,,up,0,217.93911159999698,None,217.93911159999698,None,217.93911159999698,218.9405334999974,217.93911159999698,218.9405334999974,217.93911159999698,218.9405334999974,217.93911159999698,218.9405334999974,217.93911159999698,218.4397372999956,217.93911159999698,218.4397372999956,217.93911159999698,218.4397372999956,217.93911159999698,218.4397372999956,217.93911159999698,None,1.4181935999949928,,,,,11002,001,2023_Dec_29_1307,nback,2021.2.3,60.46976541877763,
2-back,instructions\back-2.png,conditions\20back-e.xlsx,,,,,,,,,,,,,,,,,,,,,,0,0,0,2,,,,,,,,,,,,,,,,,,,,,,,,,,,,,,,,,,,,,,,,,,,,,,,,,,,,,,,,,,,,,,,,,,,,,,,,,,,,,,,,,,,,,219.4414637000009,None,,,11002,001,2023_Dec_29_1307,nback,2021.2.3,60.46976541877763,
0-back,instructions\back-0.png,conditions\01back-e.xlsx,,experiment,0,2,stim\gray.png,stim\yellow.png,stim\gray.png,stim\gray.png,left,,,,,,,,,,,,,0,1,1,4,0,0,0,0,,,,,,,,,,,,,,,220.64236439999513,225.1501556000003,225.08281839999836,None,,,,,,,,,,,,,,,,,,,,,,,,,,,,,,,,,,,,,,left,1,225.45088450000185,None,225.45088450000185,None,225.45088450000185,226.4512165999986,225.45088450000185,226.4512165999986,225.45088450000185,226.4512165999986,225.45088450000185,226.4512165999986,225.45088450000185,225.95078999999532,225.45088450000185,225.95078999999532,225.45088450000185,225.95078999999532,225.45088450000185,225.95078999999532,225.45088450000185,None,0.666638900001999,,,,,11002,001,2023_Dec_29_1307,nback,2021.2.3,60.46976541877763,
0-back,instructions\back-0.png,conditions\01back-e.xlsx,,experiment,0,4,stim\gray.png,stim\gray.png,stim\gray.png,stim\yellow.png,down,,,,,,,,,,,,,0,1,1,4,0,1,1,1,,,,,,,,,,,,,,,,,,,,,,,,,,,,,,,,,,,,,,,,,,,,,,,,,,,,,,,,down,1,226.93521519999922,None,226.93521519999922,None,226.93521519999922,227.9373145999998,226.93521519999922,227.9373145999998,226.93521519999922,227.9373145999998,226.93521519999922,227.9373145999998,226.93521519999922,227.43586479999794,226.93521519999922,227.43586479999794,226.93521519999922,227.43586479999794,226.93521519999922,227.43586479999794,226.93521519999922,None,0.5825635000001057,,,,,11002,001,2023_Dec_29_1307,nback,2021.2.3,60.46976541877763,
0-back,instructions\back-0.png,conditions\01back-e.xlsx,,experiment,0,1,stim\yellow.png,stim\gray.png,stim\gray.png,stim\gray.png,up,,,,,,,,,,,,,0,1,1,4,0,2,2,2,,,,,,,,,,,,,,,,,,,,,,,,,,,,,,,,,,,,,,,,,,,,,,,,,,,,,,,,up,1,228.4374239999961,None,228.4374239999961,None,228.4374239999961,229.4399315999981,228.4374239999961,229.4399315999981,228.4374239999961,229.4399315999981,228.4374239999961,229.4399315999981,228.4374239999961,228.9382689999984,228.4374239999961,228.9382689999984,228.4374239999961,228.9382689999984,228.4374239999961,228.9382689999984,228.4374239999961,None,0.30370140000013635,,,,,11002,001,2023_Dec_29_1307,nback,2021.2.3,60.46976541877763,
0-back,instructions\back-0.png,conditions\01back-e.xlsx,,experiment,0,2,stim\gray.png,stim\yellow.png,stim\gray.png,stim\gray.png,left,,,,,,,,,,,,,0,1,1,4,0,3,3,3,,,,,,,,,,,,,,,,,,,,,,,,,,,,,,,,,,,,,,,,,,,,,,,,,,,,,,,,left,1,229.94029199999932,None,229.94029199999932,None,229.94029199999932,230.94135670000105,229.94029199999932,230.94135670000105,229.94029199999932,230.94135670000105,229.94029199999932,230.94135670000105,229.94029199999932,230.4407452999949,229.94029199999932,230.4407452999949,229.94029199999932,230.4407452999949,229.94029199999932,230.4407452999949,229.94029199999932,None,0.4177826000013738,,,,,11002,001,2023_Dec_29_1307,nback,2021.2.3,60.46976541877763,
0-back,instructions\back-0.png,conditions\01back-e.xlsx,,experiment,0,3,stim\gray.png,stim\gray.png,stim\yellow.png,stim\gray.png,right,,,,,,,,,,,,,0,1,1,4,0,4,4,4,,,,,,,,,,,,,,,,,,,,,,,,,,,,,,,,,,,,,,,,,,,,,,,,,,,,,,,,right,1,231.44170640000084,None,231.44170640000084,None,231.44170640000084,232.44353409999894,231.44170640000084,232.44353409999894,231.44170640000084,232.44353409999894,231.44170640000084,232.44353409999894,231.44170640000084,231.94338099999732,231.44170640000084,231.94338099999732,231.44170640000084,231.94338099999732,231.44170640000084,231.94338099999732,231.44170640000084,None,0.3399098000008962,,,,,11002,001,2023_Dec_29_1307,nback,2021.2.3,60.46976541877763,
0-back,instructions\back-0.png,conditions\01back-e.xlsx,,experiment,0,1,stim\yellow.png,stim\gray.png,stim\gray.png,stim\gray.png,up,,,,,,,,,,,,,0,1,1,4,0,5,5,5,,,,,,,,,,,,,,,,,,,,,,,,,,,,,,,,,,,,,,,,,,,,,,,,,,,,,,,,up,1,232.92835509999713,None,232.92835509999713,None,232.92835509999713,233.9294574000014,232.92835509999713,233.9294574000014,232.92835509999713,233.9294574000014,232.92835509999713,233.9294574000014,232.92835509999713,233.42929509999522,232.92835509999713,233.42929509999522,232.92835509999713,233.42929509999522,232.92835509999713,233.42929509999522,232.92835509999713,None,0.27699619999475544,,,,,11002,001,2023_Dec_29_1307,nback,2021.2.3,60.46976541877763,
0-back,instructions\back-0.png,conditions\01back-e.xlsx,,experiment,0,4,stim\gray.png,stim\gray.png,stim\gray.png,stim\yellow.png,down,,,,,,,,,,,,,0,1,1,4,0,6,6,6,,,,,,,,,,,,,,,,,,,,,,,,,,,,,,,,,,,,,,,,,,,,,,,,,,,,,,,,down,1,234.4294377999977,None,234.4294377999977,None,234.4294377999977,235.4312030000001,234.4294377999977,235.4312030000001,234.4294377999977,235.4312030000001,234.4294377999977,235.4312030000001,234.4294377999977,234.93116849999933,234.4294377999977,234.93116849999933,234.4294377999977,234.93116849999933,234.4294377999977,234.93116849999933,234.4294377999977,None,0.5117948999977671,,,,,11002,001,2023_Dec_29_1307,nback,2021.2.3,60.46976541877763,
0-back,instructions\back-0.png,conditions\01back-e.xlsx,,experiment,0,3,stim\gray.png,stim\gray.png,stim\yellow.png,stim\gray.png,right,,,,,,,,,,,,,0,1,1,4,0,7,7,7,,,,,,,,,,,,,,,,,,,,,,,,,,,,,,,,,,,,,,,,,,,,,,,,,,,,,,,,right,1,235.93187269999908,None,235.93187269999908,None,235.93187269999908,236.93401579999772,235.93187269999908,236.93401579999772,235.93187269999908,236.93401579999772,235.93187269999908,236.93401579999772,235.93187269999908,236.43264780000027,235.93187269999908,236.43264780000027,235.93187269999908,236.43264780000027,235.93187269999908,236.43264780000027,235.93187269999908,None,0.46528760000364855,,,,,11002,001,2023_Dec_29_1307,nback,2021.2.3,60.46976541877763,
0-back,instructions\back-0.png,conditions\01back-e.xlsx,,experiment,0,4,stim\gray.png,stim\gray.png,stim\gray.png,stim\yellow.png,down,,,,,,,,,,,,,0,1,1,4,0,8,8,8,,,,,,,,,,,,,,,,,,,,,,,,,,,,,,,,,,,,,,,,,,,,,,,,,,,,,,,,down,1,237.43445329999668,None,237.43445329999668,None,237.43445329999668,238.43665209999745,237.43445329999668,238.43665209999745,237.43445329999668,238.43665209999745,237.43445329999668,238.43665209999745,237.43445329999668,237.93500910000148,237.43445329999668,237.93500910000148,237.43445329999668,237.93500910000148,237.43445329999668,237.93500910000148,237.43445329999668,None,0.714884399996663,,,,,11002,001,2023_Dec_29_1307,nback,2021.2.3,60.46976541877763,
0-back,instructions\back-0.png,conditions\01back-e.xlsx,,experiment,0,3,stim\gray.png,stim\gray.png,stim\yellow.png,stim\gray.png,right,,,,,,,,,,,,,0,1,1,4,0,9,9,9,,,,,,,,,,,,,,,,,,,,,,,,,,,,,,,,,,,,,,,,,,,,,,,,,,,,,,,,right,1,238.93687959999806,None,238.93687959999806,None,238.93687959999806,239.93771849999757,238.93687959999806,239.93771849999757,238.93687959999806,239.93771849999757,238.93687959999806,239.93771849999757,238.93687959999806,239.4377941999992,238.93687959999806,239.4377941999992,238.93687959999806,239.4377941999992,238.93687959999806,239.4377941999992,238.93687959999806,None,0.5727057999974932,,,,,11002,001,2023_Dec_29_1307,nback,2021.2.3,60.46976541877763,
0-back,instructions\back-0.png,conditions\01back-e.xlsx,,experiment,0,3,stim\gray.png,stim\gray.png,stim\yellow.png,stim\gray.png,right,,,,,,,,,,,,,0,1,1,4,0,10,10,10,,,,,,,,,,,,,,,,,,,,,,,,,,,,,,,,,,,,,,,,,,,,,,,,,,,,,,,,right,1,240.4388558999999,None,240.4388558999999,None,240.4388558999999,241.4408736999976,240.4388558999999,241.4408736999976,240.4388558999999,241.4408736999976,240.4388558999999,241.4408736999976,240.4388558999999,240.93966389999696,240.4388558999999,240.93966389999696,240.4388558999999,240.93966389999696,240.4388558999999,240.93966389999696,240.4388558999999,None,0.558351899999252,,,,,11002,001,2023_Dec_29_1307,nback,2021.2.3,60.46976541877763,
0-back,instructions\back-0.png,conditions\01back-e.xlsx,,experiment,0,1,stim\yellow.png,stim\gray.png,stim\gray.png,stim\gray.png,up,,,,,,,,,,,,,0,1,1,4,0,11,11,11,,,,,,,,,,,,,,,,,,,,,,,,,,,,,,,,,,,,,,,,,,,,,,,,,,,,,,,,up,1,241.94209899999987,None,241.94209899999987,None,241.94209899999987,242.94263569999748,241.94209899999987,242.94263569999748,241.94209899999987,242.94263569999748,241.94209899999987,242.94263569999748,241.94209899999987,242.4423381000015,241.94209899999987,242.4423381000015,241.94209899999987,242.4423381000015,241.94209899999987,242.4423381000015,241.94209899999987,None,0.3671888999961084,,,,,11002,001,2023_Dec_29_1307,nback,2021.2.3,60.46976541877763,
0-back,instructions\back-0.png,conditions\01back-e.xlsx,,experiment,0,3,stim\gray.png,stim\gray.png,stim\yellow.png,stim\gray.png,right,,,,,,,,,,,,,0,1,1,4,0,12,12,12,,,,,,,,,,,,,,,,,,,,,,,,,,,,,,,,,,,,,,,,,,,,,,,,,,,,,,,,right,1,243.42631840000104,None,243.42631840000104,None,243.42631840000104,244.42877389999921,243.42631840000104,244.42877389999921,243.42631840000104,244.42877389999921,243.42631840000104,244.42877389999921,243.42631840000104,243.92694839999604,243.42631840000104,243.92694839999604,243.42631840000104,243.92694839999604,243.42631840000104,243.92694839999604,243.42631840000104,None,0.5392887999987579,,,,,11002,001,2023_Dec_29_1307,nback,2021.2.3,60.46976541877763,
0-back,instructions\back-0.png,conditions\01back-e.xlsx,,experiment,0,1,stim\yellow.png,stim\gray.png,stim\gray.png,stim\gray.png,up,,,,,,,,,,,,,0,1,1,4,0,13,13,13,,,,,,,,,,,,,,,,,,,,,,,,,,,,,,,,,,,,,,,,,,,,,,,,,,,,,,,,up,1,244.92917499999749,None,244.92917499999749,None,244.92917499999749,245.93080650000047,244.92917499999749,245.93080650000047,244.92917499999749,245.93080650000047,244.92917499999749,245.93080650000047,244.92917499999749,245.4293278999976,244.92917499999749,245.4293278999976,244.92917499999749,245.4293278999976,244.92917499999749,245.4293278999976,244.92917499999749,None,0.3482868999999482,,,,,11002,001,2023_Dec_29_1307,nback,2021.2.3,60.46976541877763,
0-back,instructions\back-0.png,conditions\01back-e.xlsx,,experiment,0,4,stim\gray.png,stim\gray.png,stim\gray.png,stim\yellow.png,down,,,,,,,,,,,,,0,1,1,4,0,14,14,14,,,,,,,,,,,,,,,,,,,,,,,,,,,,,,,,,,,,,,,,,,,,,,,,,,,,,,,,down,1,246.43085189999692,None,246.43085189999692,None,246.43085189999692,247.43249600000127,246.43085189999692,247.43249600000127,246.43085189999692,247.43249600000127,246.43085189999692,247.43249600000127,246.43085189999692,246.93214810000063,246.43085189999692,246.93214810000063,246.43085189999692,246.93214810000063,246.43085189999692,246.93214810000063,246.43085189999692,None,1.087383600002795,,,,,11002,001,2023_Dec_29_1307,nback,2021.2.3,60.46976541877763,
0-back,instructions\back-0.png,conditions\01back-e.xlsx,,experiment,0,2,stim\gray.png,stim\yellow.png,stim\gray.png,stim\gray.png,left,,,,,,,,,,,,,0,1,1,4,0,15,15,15,,,,,,,,,,,,,,,,,,,,,,,,,,,,,,,,,,,,,,,,,,,,,,,,,,,,,,,,left,1,247.9336947999982,None,247.9336947999982,None,247.9336947999982,248.9351577999987,247.9336947999982,248.9351577999987,247.9336947999982,248.9351577999987,247.9336947999982,248.9351577999987,247.9336947999982,248.4345444999999,247.9336947999982,248.4345444999999,247.9336947999982,248.4345444999999,247.9336947999982,248.4345444999999,247.9336947999982,None,0.42369199999666307,,,,,11002,001,2023_Dec_29_1307,nback,2021.2.3,60.46976541877763,
0-back,instructions\back-0.png,conditions\01back-e.xlsx,,experiment,0,1,stim\yellow.png,stim\gray.png,stim\gray.png,stim\gray.png,up,,,,,,,,,,,,,0,1,1,4,0,16,16,16,,,,,,,,,,,,,,,,,,,,,,,,,,,,,,,,,,,,,,,,,,,,,,,,,,,,,,,,up,1,249.43611450000026,None,249.43611450000026,None,249.43611450000026,250.4367454999956,249.43611450000026,250.4367454999956,249.43611450000026,250.4367454999956,249.43611450000026,250.4367454999956,249.43611450000026,249.936958899998,249.43611450000026,249.936958899998,249.43611450000026,249.936958899998,249.43611450000026,249.936958899998,249.43611450000026,None,0.5929785999978776,,,,,11002,001,2023_Dec_29_1307,nback,2021.2.3,60.46976541877763,
0-back,instructions\back-0.png,conditions\01back-e.xlsx,,experiment,0,2,stim\gray.png,stim\yellow.png,stim\gray.png,stim\gray.png,left,,,,,,,,,,,,,0,1,1,4,0,17,17,17,,,,,,,,,,,,,,,,,,,,,,,,,,,,,,,,,,,,,,,,,,,,,,,,,,,,,,,,left,1,250.93754739999713,None,250.93754739999713,None,250.93754739999713,251.9396895999962,250.93754739999713,251.9396895999962,250.93754739999713,251.9396895999962,250.93754739999713,251.9396895999962,250.93754739999713,251.43889349999517,250.93754739999713,251.43889349999517,250.93754739999713,251.43889349999517,250.93754739999713,251.43889349999517,250.93754739999713,None,0.5557445000013104,,,,,11002,001,2023_Dec_29_1307,nback,2021.2.3,60.46976541877763,
0-back,instructions\back-0.png,conditions\01back-e.xlsx,,experiment,0,4,stim\gray.png,stim\gray.png,stim\gray.png,stim\yellow.png,down,,,,,,,,,,,,,0,1,1,4,0,18,18,18,,,,,,,,,,,,,,,,,,,,,,,,,,,,,,,,,,,,,,,,,,,,,,,,,,,,,,,,down,1,252.43976299999485,None,252.43976299999485,None,252.43976299999485,253.44097959999635,252.43976299999485,253.44097959999635,252.43976299999485,253.44097959999635,252.43976299999485,253.44097959999635,252.43976299999485,252.94128120000096,252.43976299999485,252.94128120000096,252.43976299999485,252.94128120000096,252.43976299999485,252.94128120000096,252.43976299999485,None,0.8619937999974354,,,,,11002,001,2023_Dec_29_1307,nback,2021.2.3,60.46976541877763,
0-back,instructions\back-0.png,conditions\01back-e.xlsx,,experiment,0,2,stim\gray.png,stim\yellow.png,stim\gray.png,stim\gray.png,left,,,,,,,,,,,,,0,1,1,4,0,19,19,19,,,,,,,,,,,,,,,,,,,,,,,,,,,,,,,,,,,,,,,,,,,,,,,,,,,,,,,,left,1,253.9252228999976,None,253.9252228999976,None,253.9252228999976,254.92761939999764,253.9252228999976,254.92761939999764,253.9252228999976,254.92761939999764,253.9252228999976,254.92761939999764,253.9252228999976,254.42606919999525,253.9252228999976,254.42606919999525,253.9252228999976,254.42606919999525,253.9252228999976,254.42606919999525,253.9252228999976,None,0.5684576999992714,,,,,11002,001,2023_Dec_29_1307,nback,2021.2.3,60.46976541877763,
0-back,instructions\back-0.png,conditions\01back-e.xlsx,,,,,,,,,,,,,,,,,,,,,,0,1,1,4,,,,,,,,,,,,,,,,,,,,,,,,,,,,,,,,,,,,,,,,,,,,,,,,,,,,,,,,,,,,,,,,,,,,,,,,,,,,,,,,,,,,,255.42893339999864,None,,,11002,001,2023_Dec_29_1307,nback,2021.2.3,60.46976541877763,
0-back,instructions\back-0.png,conditions\03back-e.xlsx,,experiment,0,1,stim\yellow.png,stim\gray.png,stim\gray.png,stim\gray.png,up,,,,,,,,,,,,,0,2,2,11,0,0,0,0,,,,,,,,,,,,,,,256.56173090000084,261.0691074999995,261.0534923000014,None,,,,,,,,,,,,,,,,,,,,,,,,,,,,,,,,,,,,,,up,1,261.45318119999865,None,261.45318119999865,None,261.45318119999865,262.45503059999464,261.45318119999865,262.45503059999464,261.45318119999865,262.45503059999464,261.45318119999865,262.45503059999464,261.45318119999865,261.95370040000125,261.45318119999865,261.95370040000125,261.45318119999865,261.95370040000125,261.45318119999865,261.95370040000125,261.45318119999865,None,0.7358747000034782,,,,,11002,001,2023_Dec_29_1307,nback,2021.2.3,60.46976541877763,
0-back,instructions\back-0.png,conditions\03back-e.xlsx,,experiment,0,2,stim\gray.png,stim\yellow.png,stim\gray.png,stim\gray.png,left,,,,,,,,,,,,,0,2,2,11,0,1,1,1,,,,,,,,,,,,,,,,,,,,,,,,,,,,,,,,,,,,,,,,,,,,,,,,,,,,,,,,left,1,262.9386209000004,None,262.9386209000004,None,262.9386209000004,263.9412306999948,262.9386209000004,263.9412306999948,262.9386209000004,263.9412306999948,262.9386209000004,263.9412306999948,262.9386209000004,263.4399740000008,262.9386209000004,263.4399740000008,262.9386209000004,263.4399740000008,262.9386209000004,263.4399740000008,262.9386209000004,None,0.45860139999422245,,,,,11002,001,2023_Dec_29_1307,nback,2021.2.3,60.46976541877763,
0-back,instructions\back-0.png,conditions\03back-e.xlsx,,experiment,0,4,stim\gray.png,stim\gray.png,stim\gray.png,stim\yellow.png,down,,,,,,,,,,,,,0,2,2,11,0,2,2,2,,,,,,,,,,,,,,,,,,,,,,,,,,,,,,,,,,,,,,,,,,,,,,,,,,,,,,,,down,1,264.4408384999988,None,264.4408384999988,None,264.4408384999988,265.4425132999968,264.4408384999988,265.4425132999968,264.4408384999988,265.4425132999968,264.4408384999988,265.4425132999968,264.4408384999988,264.9419274999964,264.4408384999988,264.9419274999964,264.4408384999988,264.9419274999964,264.4408384999988,264.9419274999964,264.4408384999988,None,0.7730506999942008,,,,,11002,001,2023_Dec_29_1307,nback,2021.2.3,60.46976541877763,
0-back,instructions\back-0.png,conditions\03back-e.xlsx,,experiment,0,3,stim\gray.png,stim\gray.png,stim\yellow.png,stim\gray.png,right,,,,,,,,,,,,,0,2,2,11,0,3,3,3,,,,,,,,,,,,,,,,,,,,,,,,,,,,,,,,,,,,,,,,,,,,,,,,,,,,,,,,right,1,265.9261273000011,None,265.9261273000011,None,265.9261273000011,266.9287752999953,265.9261273000011,266.9287752999953,265.9261273000011,266.9287752999953,265.9261273000011,266.9287752999953,265.9261273000011,266.42764629999874,265.9261273000011,266.42764629999874,265.9261273000011,266.42764629999874,265.9261273000011,266.42764629999874,265.9261273000011,None,0.3994206999996095,,,,,11002,001,2023_Dec_29_1307,nback,2021.2.3,60.46976541877763,
0-back,instructions\back-0.png,conditions\03back-e.xlsx,,experiment,0,3,stim\gray.png,stim\gray.png,stim\yellow.png,stim\gray.png,right,,,,,,,,,,,,,0,2,2,11,0,4,4,4,,,,,,,,,,,,,,,,,,,,,,,,,,,,,,,,,,,,,,,,,,,,,,,,,,,,,,,,right,1,267.4297019000005,None,267.4297019000005,None,267.4297019000005,268.4308366999976,267.4297019000005,268.4308366999976,267.4297019000005,268.4308366999976,267.4297019000005,268.4308366999976,267.4297019000005,267.92998239999724,267.4297019000005,267.92998239999724,267.4297019000005,267.92998239999724,267.4297019000005,267.92998239999724,267.4297019000005,None,0.6643925000025774,,,,,11002,001,2023_Dec_29_1307,nback,2021.2.3,60.46976541877763,
0-back,instructions\back-0.png,conditions\03back-e.xlsx,,experiment,0,1,stim\yellow.png,stim\gray.png,stim\gray.png,stim\gray.png,up,,,,,,,,,,,,,0,2,2,11,0,5,5,5,,,,,,,,,,,,,,,,,,,,,,,,,,,,,,,,,,,,,,,,,,,,,,,,,,,,,,,,up,1,268.931373899999,None,268.931373899999,None,268.931373899999,269.93305249999685,268.931373899999,269.93305249999685,268.931373899999,269.93305249999685,268.931373899999,269.93305249999685,268.931373899999,269.43225800000073,268.931373899999,269.43225800000073,268.931373899999,269.43225800000073,268.931373899999,269.43225800000073,268.931373899999,None,0.3777616000006674,,,,,11002,001,2023_Dec_29_1307,nback,2021.2.3,60.46976541877763,
0-back,instructions\back-0.png,conditions\03back-e.xlsx,,experiment,0,2,stim\gray.png,stim\yellow.png,stim\gray.png,stim\gray.png,left,,,,,,,,,,,,,0,2,2,11,0,6,6,6,,,,,,,,,,,,,,,,,,,,,,,,,,,,,,,,,,,,,,,,,,,,,,,,,,,,,,,,left,1,270.4336247999963,None,270.4336247999963,None,270.4336247999963,271.43493899999885,270.4336247999963,271.43493899999885,270.4336247999963,271.43493899999885,270.4336247999963,271.43493899999885,270.4336247999963,270.9339527999982,270.4336247999963,270.9339527999982,270.4336247999963,270.9339527999982,270.4336247999963,270.9339527999982,270.4336247999963,None,0.3316867999965325,,,,,11002,001,2023_Dec_29_1307,nback,2021.2.3,60.46976541877763,
0-back,instructions\back-0.png,conditions\03back-e.xlsx,,experiment,0,3,stim\gray.png,stim\gray.png,stim\yellow.png,stim\gray.png,right,,,,,,,,,,,,,0,2,2,11,0,7,7,7,,,,,,,,,,,,,,,,,,,,,,,,,,,,,,,,,,,,,,,,,,,,,,,,,,,,,,,,right,1,271.9352627999979,None,271.9352627999979,None,271.9352627999979,272.9383883999981,271.9352627999979,272.9383883999981,271.9352627999979,272.9383883999981,271.9352627999979,272.9383883999981,271.9352627999979,272.43597969999973,271.9352627999979,272.43597969999973,271.9352627999979,272.43597969999973,271.9352627999979,272.43597969999973,271.9352627999979,None,0.5418840999991517,,,,,11002,001,2023_Dec_29_1307,nback,2021.2.3,60.46976541877763,
0-back,instructions\back-0.png,conditions\03back-e.xlsx,,experiment,0,4,stim\gray.png,stim\gray.png,stim\gray.png,stim\yellow.png,down,,,,,,,,,,,,,0,2,2,11,0,8,8,8,,,,,,,,,,,,,,,,,,,,,,,,,,,,,,,,,,,,,,,,,,,,,,,,,,,,,,,,down,1,273.43760699999984,None,273.43760699999984,None,273.43760699999984,274.43963059999805,273.43760699999984,274.43963059999805,273.43760699999984,274.43963059999805,273.43760699999984,274.43963059999805,273.43760699999984,273.93832489999477,273.43760699999984,273.93832489999477,273.43760699999984,273.93832489999477,273.43760699999984,273.93832489999477,273.43760699999984,None,0.7124629999962053,,,,,11002,001,2023_Dec_29_1307,nback,2021.2.3,60.46976541877763,
0-back,instructions\back-0.png,conditions\03back-e.xlsx,,experiment,0,4,stim\gray.png,stim\gray.png,stim\gray.png,stim\yellow.png,down,,,,,,,,,,,,,0,2,2,11,0,9,9,9,,,,,,,,,,,,,,,,,,,,,,,,,,,,,,,,,,,,,,,,,,,,,,,,,,,,,,,,down,1,274.94060799999716,None,274.94060799999716,None,274.94060799999716,275.94148969999515,274.94060799999716,275.94148969999515,274.94060799999716,275.94148969999515,274.94060799999716,275.94148969999515,274.94060799999716,275.4402665999951,274.94060799999716,275.4402665999951,274.94060799999716,275.4402665999951,274.94060799999716,275.4402665999951,274.94060799999716,None,0.6647272999980487,,,,,11002,001,2023_Dec_29_1307,nback,2021.2.3,60.46976541877763,
0-back,instructions\back-0.png,conditions\03back-e.xlsx,,experiment,0,1,stim\yellow.png,stim\gray.png,stim\gray.png,stim\gray.png,up,,,,,,,,,,,,,0,2,2,11,0,10,10,10,,,,,,,,,,,,,,,,,,,,,,,,,,,,,,,,,,,,,,,,,,,,,,,,,,,,,,,,up,1,276.4251820999998,None,276.4251820999998,None,276.4251820999998,277.427065099997,276.4251820999998,277.427065099997,276.4251820999998,277.427065099997,276.4251820999998,277.427065099997,276.4251820999998,276.92594349999854,276.4251820999998,276.92594349999854,276.4251820999998,276.92594349999854,276.4251820999998,276.92594349999854,276.4251820999998,None,0.3324464000033913,,,,,11002,001,2023_Dec_29_1307,nback,2021.2.3,60.46976541877763,
0-back,instructions\back-0.png,conditions\03back-e.xlsx,,experiment,0,4,stim\gray.png,stim\gray.png,stim\gray.png,stim\yellow.png,down,,,,,,,,,,,,,0,2,2,11,0,11,11,11,,,,,,,,,,,,,,,,,,,,,,,,,,,,,,,,,,,,,,,,,,,,,,,,,,,,,,,,down,1,277.92743959999643,None,277.92743959999643,None,277.92743959999643,278.92952589999913,277.92743959999643,278.92952589999913,277.92743959999643,278.92952589999913,277.92743959999643,278.92952589999913,277.92743959999643,278.4293191999968,277.92743959999643,278.4293191999968,277.92743959999643,278.4293191999968,277.92743959999643,278.4293191999968,277.92743959999643,None,0.9257001000005403,,,,,11002,001,2023_Dec_29_1307,nback,2021.2.3,60.46976541877763,
0-back,instructions\back-0.png,conditions\03back-e.xlsx,,experiment,0,3,stim\gray.png,stim\gray.png,stim\yellow.png,stim\gray.png,right,,,,,,,,,,,,,0,2,2,11,0,12,12,12,,,,,,,,,,,,,,,,,,,,,,,,,,,,,,,,,,,,,,,,,,,,,,,,,,,,,,,,right,1,279.42968149999797,None,279.42968149999797,None,279.42968149999797,280.43208429999504,279.42968149999797,280.43208429999504,279.42968149999797,280.43208429999504,279.42968149999797,280.43208429999504,279.42968149999797,279.93042859999696,279.42968149999797,279.93042859999696,279.42968149999797,279.93042859999696,279.42968149999797,279.93042859999696,279.42968149999797,None,0.5437474999998813,,,,,11002,001,2023_Dec_29_1307,nback,2021.2.3,60.46976541877763,
0-back,instructions\back-0.png,conditions\03back-e.xlsx,,experiment,0,1,stim\yellow.png,stim\gray.png,stim\gray.png,stim\gray.png,up,,,,,,,,,,,,,0,2,2,11,0,13,13,13,,,,,,,,,,,,,,,,,,,,,,,,,,,,,,,,,,,,,,,,,,,,,,,,,,,,,,,,up,1,280.9324833999999,None,280.9324833999999,None,280.9324833999999,281.9345293000006,280.9324833999999,281.9345293000006,280.9324833999999,281.9345293000006,280.9324833999999,281.9345293000006,280.9324833999999,281.432564499999,280.9324833999999,281.432564499999,280.9324833999999,281.432564499999,280.9324833999999,281.432564499999,280.9324833999999,None,0.33701660000224365,,,,,11002,001,2023_Dec_29_1307,nback,2021.2.3,60.46976541877763,
0-back,instructions\back-0.png,conditions\03back-e.xlsx,,experiment,0,2,stim\gray.png,stim\yellow.png,stim\gray.png,stim\gray.png,left,,,,,,,,,,,,,0,2,2,11,0,14,14,14,,,,,,,,,,,,,,,,,,,,,,,,,,,,,,,,,,,,,,,,,,,,,,,,,,,,,,,,left,1,282.43395410000085,None,282.43395410000085,None,282.43395410000085,283.4358057999998,282.43395410000085,283.4358057999998,282.43395410000085,283.4358057999998,282.43395410000085,283.4358057999998,282.43395410000085,282.93555840000045,282.43395410000085,282.93555840000045,282.43395410000085,282.93555840000045,282.43395410000085,282.93555840000045,282.43395410000085,None,0.24334640000597574,,,,,11002,001,2023_Dec_29_1307,nback,2021.2.3,60.46976541877763,
0-back,instructions\back-0.png,conditions\03back-e.xlsx,,experiment,0,1,stim\yellow.png,stim\gray.png,stim\gray.png,stim\gray.png,up,,,,,,,,,,,,,0,2,2,11,0,15,15,15,,,,,,,,,,,,,,,,,,,,,,,,,,,,,,,,,,,,,,,,,,,,,,,,,,,,,,,,up,1,283.937405699995,None,283.937405699995,None,283.937405699995,284.9386063999991,283.937405699995,284.9386063999991,283.937405699995,284.9386063999991,283.937405699995,284.9386063999991,283.937405699995,284.43776439999783,283.937405699995,284.43776439999783,283.937405699995,284.43776439999783,283.937405699995,284.43776439999783,283.937405699995,None,0.4517370999965351,,,,,11002,001,2023_Dec_29_1307,nback,2021.2.3,60.46976541877763,
0-back,instructions\back-0.png,conditions\03back-e.xlsx,,experiment,0,3,stim\gray.png,stim\gray.png,stim\yellow.png,stim\gray.png,right,,,,,,,,,,,,,0,2,2,11,0,16,16,16,,,,,,,,,,,,,,,,,,,,,,,,,,,,,,,,,,,,,,,,,,,,,,,,,,,,,,,,right,1,285.43866100000014,None,285.43866100000014,None,285.43866100000014,286.4409295000005,285.43866100000014,286.4409295000005,285.43866100000014,286.4409295000005,285.43866100000014,286.4409295000005,285.43866100000014,285.93949019999854,285.43866100000014,285.93949019999854,285.43866100000014,285.93949019999854,285.43866100000014,285.93949019999854,285.43866100000014,None,0.3987261000002036,,,,,11002,001,2023_Dec_29_1307,nback,2021.2.3,60.46976541877763,
0-back,instructions\back-0.png,conditions\03back-e.xlsx,,experiment,0,4,stim\gray.png,stim\gray.png,stim\gray.png,stim\yellow.png,down,,,,,,,,,,,,,0,2,2,11,0,17,17,17,,,,,,,,,,,,,,,,,,,,,,,,,,,,,,,,,,,,,,,,,,,,,,,,,,,,,,,,down,1,286.94080609999946,None,286.94080609999946,None,286.94080609999946,287.9438764000006,286.94080609999946,287.9438764000006,286.94080609999946,287.9438764000006,286.94080609999946,287.9438764000006,286.94080609999946,287.44179579999764,286.94080609999946,287.44179579999764,286.94080609999946,287.44179579999764,286.94080609999946,287.44179579999764,286.94080609999946,None,0.3603962999986834,,,,,11002,001,2023_Dec_29_1307,nback,2021.2.3,60.46976541877763,
0-back,instructions\back-0.png,conditions\03back-e.xlsx,,experiment,0,2,stim\gray.png,stim\yellow.png,stim\gray.png,stim\gray.png,left,,,,,,,,,,,,,0,2,2,11,0,18,18,18,,,,,,,,,,,,,,,,,,,,,,,,,,,,,,,,,,,,,,,,,,,,,,,,,,,,,,,,left,1,288.42637169999944,None,288.42637169999944,None,288.42637169999944,289.4277213999958,288.42637169999944,289.4277213999958,288.42637169999944,289.4277213999958,288.42637169999944,289.4277213999958,288.42637169999944,288.92719809999835,288.42637169999944,288.92719809999835,288.42637169999944,288.92719809999835,288.42637169999944,288.92719809999835,288.42637169999944,None,0.3392013000047882,,,,,11002,001,2023_Dec_29_1307,nback,2021.2.3,60.46976541877763,
0-back,instructions\back-0.png,conditions\03back-e.xlsx,,experiment,0,2,stim\gray.png,stim\yellow.png,stim\gray.png,stim\gray.png,left,,,,,,,,,,,,,0,2,2,11,0,19,19,19,,,,,,,,,,,,,,,,,,,,,,,,,,,,,,,,,,,,,,,,,,,,,,,,,,,,,,,,left,1,289.9291054999994,None,289.9291054999994,None,289.9291054999994,290.9312385999947,289.9291054999994,290.9312385999947,289.9291054999994,290.9312385999947,289.9291054999994,290.9312385999947,289.9291054999994,290.42981619999773,289.9291054999994,290.42981619999773,289.9291054999994,290.42981619999773,289.9291054999994,290.42981619999773,289.9291054999994,None,0.5081170999983442,,,,,11002,001,2023_Dec_29_1307,nback,2021.2.3,60.46976541877763,
0-back,instructions\back-0.png,conditions\03back-e.xlsx,,,,,,,,,,,,,,,,,,,,,,0,2,2,11,,,,,,,,,,,,,,,,,,,,,,,,,,,,,,,,,,,,,,,,,,,,,,,,,,,,,,,,,,,,,,,,,,,,,,,,,,,,,,,,,,,,,291.4314999999988,None,,,11002,001,2023_Dec_29_1307,nback,2021.2.3,60.46976541877763,
2-back,instructions\back-2.png,conditions\24back-e.xlsx,,experiment,2,1,stim\yellow.png,stim\gray.png,stim\gray.png,stim\gray.png,None,,,,,,,,,,,,,0,3,3,12,0,0,0,0,,,,,,,,,,,,,,,292.59911999999895,297.10662919999595,297.0392795000007,None,,,,,,,,,,,,,,,,,,,,,,,,,,,,,,,,,,,,,,None,1,297.45739859999594,None,297.45739859999594,None,297.45739859999594,298.45869179999863,297.45739859999594,298.45869179999863,297.45739859999594,298.45869179999863,297.45739859999594,298.45869179999863,297.45739859999594,297.95775460000004,297.45739859999594,297.95775460000004,297.45739859999594,297.95775460000004,297.45739859999594,297.95775460000004,297.45739859999594,None,,,,,,11002,001,2023_Dec_29_1307,nback,2021.2.3,60.46976541877763,
2-back,instructions\back-2.png,conditions\24back-e.xlsx,,experiment,2,2,stim\gray.png,stim\yellow.png,stim\gray.png,stim\gray.png,None,,,,,,,,,,,,,0,3,3,12,0,1,1,1,,,,,,,,,,,,,,,,,,,,,,,,,,,,,,,,,,,,,,,,,,,,,,,,,,,,,,,,None,1,298.9417736999967,None,298.9417736999967,None,298.9417736999967,299.94384549999813,298.9417736999967,299.94384549999813,298.9417736999967,299.94384549999813,298.9417736999967,299.94384549999813,298.9417736999967,299.4434007999953,298.9417736999967,299.4434007999953,298.9417736999967,299.4434007999953,298.9417736999967,299.4434007999953,298.9417736999967,None,,,,,,11002,001,2023_Dec_29_1307,nback,2021.2.3,60.46976541877763,
2-back,instructions\back-2.png,conditions\24back-e.xlsx,,experiment,2,1,stim\yellow.png,stim\gray.png,stim\gray.png,stim\gray.png,up,,,,,,,,,,,,,0,3,3,12,0,2,2,2,,,,,,,,,,,,,,,,,,,,,,,,,,,,,,,,,,,,,,,,,,,,,,,,,,,,,,,,up,1,300.4273766999977,None,300.4273766999977,None,300.4273766999977,301.42893639999966,300.4273766999977,301.42893639999966,300.4273766999977,301.42893639999966,300.4273766999977,301.42893639999966,300.4273766999977,300.92889209999703,300.4273766999977,300.92889209999703,300.4273766999977,300.92889209999703,300.4273766999977,300.92889209999703,300.4273766999977,None,0.5303300999948988,,,,,11002,001,2023_Dec_29_1307,nback,2021.2.3,60.46976541877763,
2-back,instructions\back-2.png,conditions\24back-e.xlsx,,experiment,2,4,stim\gray.png,stim\gray.png,stim\gray.png,stim\yellow.png,left,,,,,,,,,,,,,0,3,3,12,0,3,3,3,,,,,,,,,,,,,,,,,,,,,,,,,,,,,,,,,,,,,,,,,,,,,,,,,,,,,,,,left,1,301.9295903999955,None,301.9295903999955,None,301.9295903999955,302.9319082000002,301.9295903999955,302.9319082000002,301.9295903999955,302.9319082000002,301.9295903999955,302.9319082000002,301.9295903999955,302.4311123000007,301.9295903999955,302.4311123000007,301.9295903999955,302.4311123000007,301.9295903999955,302.4311123000007,301.9295903999955,None,0.7881161000041175,,,,,11002,001,2023_Dec_29_1307,nback,2021.2.3,60.46976541877763,
2-back,instructions\back-2.png,conditions\24back-e.xlsx,,experiment,2,3,stim\gray.png,stim\gray.png,stim\yellow.png,stim\gray.png,up,,,,,,,,,,,,,0,3,3,12,0,4,4,4,,,,,,,,,,,,,,,,,,,,,,,,,,,,,,,,,,,,,,,,,,,,,,,,,,,,,,,,up,1,303.4318803999995,None,303.4318803999995,None,303.4318803999995,304.43333079999866,303.4318803999995,304.43333079999866,303.4318803999995,304.43333079999866,303.4318803999995,304.43333079999866,303.4318803999995,303.93271249999816,303.4318803999995,303.93271249999816,303.4318803999995,303.93271249999816,303.4318803999995,303.93271249999816,303.4318803999995,None,0.39772870000160765,,,,,11002,001,2023_Dec_29_1307,nback,2021.2.3,60.46976541877763,
2-back,instructions\back-2.png,conditions\24back-e.xlsx,,experiment,2,4,stim\gray.png,stim\gray.png,stim\gray.png,stim\yellow.png,down,,,,,,,,,,,,,0,3,3,12,0,5,5,5,,,,,,,,,,,,,,,,,,,,,,,,,,,,,,,,,,,,,,,,,,,,,,,,,,,,,,,,down,1,304.9341826000018,None,304.9341826000018,None,304.9341826000018,305.9363280999969,304.9341826000018,305.9363280999969,304.9341826000018,305.9363280999969,304.9341826000018,305.9363280999969,304.9341826000018,305.4353103999965,304.9341826000018,305.4353103999965,304.9341826000018,305.4353103999965,304.9341826000018,305.4353103999965,304.9341826000018,None,0.3430845000038971,,,,,11002,001,2023_Dec_29_1307,nback,2021.2.3,60.46976541877763,
2-back,instructions\back-2.png,conditions\24back-e.xlsx,,experiment,2,3,stim\gray.png,stim\gray.png,stim\yellow.png,stim\gray.png,right,,,,,,,,,,,,,0,3,3,12,0,6,6,6,,,,,,,,,,,,,,,,,,,,,,,,,,,,,,,,,,,,,,,,,,,,,,,,,,,,,,,,right,1,306.43644420000055,None,306.43644420000055,None,306.43644420000055,307.4384176999956,306.43644420000055,307.4384176999956,306.43644420000055,307.4384176999956,306.43644420000055,307.4384176999956,306.43644420000055,306.9374089999983,306.43644420000055,306.9374089999983,306.43644420000055,306.9374089999983,306.43644420000055,306.9374089999983,306.43644420000055,None,0.265391399996588,,,,,11002,001,2023_Dec_29_1307,nback,2021.2.3,60.46976541877763,
2-back,instructions\back-2.png,conditions\24back-e.xlsx,,experiment,2,2,stim\gray.png,stim\yellow.png,stim\gray.png,stim\gray.png,down,,,,,,,,,,,,,0,3,3,12,0,7,7,7,,,,,,,,,,,,,,,,,,,,,,,,,,,,,,,,,,,,,,,,,,,,,,,,,,,,,,,,down,1,307.93850640000164,None,307.93850640000164,None,307.93850640000164,308.94005359999574,307.93850640000164,308.94005359999574,307.93850640000164,308.94005359999574,307.93850640000164,308.94005359999574,307.93850640000164,308.44013229999837,307.93850640000164,308.44013229999837,307.93850640000164,308.44013229999837,307.93850640000164,308.44013229999837,307.93850640000164,None,0.5870051000019885,,,,,11002,001,2023_Dec_29_1307,nback,2021.2.3,60.46976541877763,
2-back,instructions\back-2.png,conditions\24back-e.xlsx,,experiment,2,4,stim\gray.png,stim\gray.png,stim\gray.png,stim\yellow.png,right,,,,,,,,,,,,,0,3,3,12,0,8,8,8,,,,,,,,,,,,,,,,,,,,,,,,,,,,,,,,,,,,,,,,,,,,,,,,,,,,,,,,left,0,309.4408212999988,None,309.4408212999988,None,309.4408212999988,310.4432831000013,309.4408212999988,310.4432831000013,309.4408212999988,310.4432831000013,309.4408212999988,310.4432831000013,309.4408212999988,309.94221010000183,309.4408212999988,309.94221010000183,309.4408212999988,309.94221010000183,309.4408212999988,309.94221010000183,309.4408212999988,None,0.3803893000003882,,,,,11002,001,2023_Dec_29_1307,nback,2021.2.3,60.46976541877763,
2-back,instructions\back-2.png,conditions\24back-e.xlsx,,experiment,2,1,stim\yellow.png,stim\gray.png,stim\gray.png,stim\gray.png,left,,,,,,,,,,,,,0,3,3,12,0,9,9,9,,,,,,,,,,,,,,,,,,,,,,,,,,,,,,,,,,,,,,,,,,,,,,,,,,,,,,,,left,1,310.92626670000027,None,310.92626670000027,None,310.92626670000027,311.9282157999987,310.92626670000027,311.9282157999987,310.92626670000027,311.9282157999987,310.92626670000027,311.9282157999987,310.92626670000027,311.4270082000003,310.92626670000027,311.4270082000003,310.92626670000027,311.4270082000003,310.92626670000027,311.4270082000003,310.92626670000027,None,0.567689600000449,,,,,11002,001,2023_Dec_29_1307,nback,2021.2.3,60.46976541877763,
2-back,instructions\back-2.png,conditions\24back-e.xlsx,,experiment,2,3,stim\gray.png,stim\gray.png,stim\yellow.png,stim\gray.png,down,,,,,,,,,,,,,0,3,3,12,0,10,10,10,,,,,,,,,,,,,,,,,,,,,,,,,,,,,,,,,,,,,,,,,,,,,,,,,,,,,,,,down,1,312.4285541999998,None,312.4285541999998,None,312.4285541999998,313.4307903000008,312.4285541999998,313.4307903000008,312.4285541999998,313.4307903000008,312.4285541999998,313.4307903000008,312.4285541999998,312.93004089999886,312.4285541999998,312.93004089999886,312.4285541999998,312.93004089999886,312.4285541999998,312.93004089999886,312.4285541999998,None,1.032932800000708,,,,,11002,001,2023_Dec_29_1307,nback,2021.2.3,60.46976541877763,
2-back,instructions\back-2.png,conditions\24back-e.xlsx,,experiment,2,1,stim\yellow.png,stim\gray.png,stim\gray.png,stim\gray.png,up,,,,,,,,,,,,,0,3,3,12,0,11,11,11,,,,,,,,,,,,,,,,,,,,,,,,,,,,,,,,,,,,,,,,,,,,,,,,,,,,,,,,up,1,313.93082819999836,None,313.93082819999836,None,313.93082819999836,314.9324484999961,313.93082819999836,314.9324484999961,313.93082819999836,314.9324484999961,313.93082819999836,314.9324484999961,313.93082819999836,314.4322144999969,313.93082819999836,314.4322144999969,313.93082819999836,314.4322144999969,313.93082819999836,314.4322144999969,313.93082819999836,None,0.7066526999988127,,,,,11002,001,2023_Dec_29_1307,nback,2021.2.3,60.46976541877763,
2-back,instructions\back-2.png,conditions\24back-e.xlsx,,experiment,2,2,stim\gray.png,stim\yellow.png,stim\gray.png,stim\gray.png,right,,,,,,,,,,,,,0,3,3,12,0,12,12,12,,,,,,,,,,,,,,,,,,,,,,,,,,,,,,,,,,,,,,,,,,,,,,,,,,,,,,,,right,1,315.43307249999634,None,315.43307249999634,None,315.43307249999634,316.435762000001,315.43307249999634,316.435762000001,315.43307249999634,316.435762000001,315.43307249999634,316.435762000001,315.43307249999634,315.9345598,315.43307249999634,315.9345598,315.43307249999634,315.9345598,315.43307249999634,315.9345598,315.43307249999634,None,0.9485573999991175,,,,,11002,001,2023_Dec_29_1307,nback,2021.2.3,60.46976541877763,
2-back,instructions\back-2.png,conditions\24back-e.xlsx,,experiment,2,4,stim\gray.png,stim\gray.png,stim\gray.png,stim\yellow.png,up,,,,,,,,,,,,,0,3,3,12,0,13,13,13,,,,,,,,,,,,,,,,,,,,,,,,,,,,,,,,,,,,,,,,,,,,,,,,,,,,,,,,up,1,316.93619200000103,None,316.93619200000103,None,316.93619200000103,317.9368265000012,316.93619200000103,317.9368265000012,316.93619200000103,317.9368265000012,316.93619200000103,317.9368265000012,316.93619200000103,317.4365344999969,316.93619200000103,317.4365344999969,316.93619200000103,317.4365344999969,316.93619200000103,317.4365344999969,316.93619200000103,None,0.8611498000027495,,,,,11002,001,2023_Dec_29_1307,nback,2021.2.3,60.46976541877763,
2-back,instructions\back-2.png,conditions\24back-e.xlsx,,experiment,2,3,stim\gray.png,stim\gray.png,stim\yellow.png,stim\gray.png,left,,,,,,,,,,,,,0,3,3,12,0,14,14,14,,,,,,,,,,,,,,,,,,,,,,,,,,,,,,,,,,,,,,,,,,,,,,,,,,,,,,,,left,1,318.4373814999999,None,318.4373814999999,None,318.4373814999999,319.4397586999985,318.4373814999999,319.4397586999985,318.4373814999999,319.4397586999985,318.4373814999999,319.4397586999985,318.4373814999999,318.93907860000036,318.4373814999999,318.93907860000036,318.4373814999999,318.93907860000036,318.4373814999999,318.93907860000036,318.4373814999999,None,0.5200410000034026,,,,,11002,001,2023_Dec_29_1307,nback,2021.2.3,60.46976541877763,
2-back,instructions\back-2.png,conditions\24back-e.xlsx,,experiment,2,2,stim\gray.png,stim\yellow.png,stim\gray.png,stim\gray.png,down,,,,,,,,,,,,,0,3,3,12,0,15,15,15,,,,,,,,,,,,,,,,,,,,,,,,,,,,,,,,,,,,,,,,,,,,,,,,,,,,,,,,down,1,319.9395846999978,None,319.9395846999978,None,319.9395846999978,320.9411728999985,319.9395846999978,320.9411728999985,319.9395846999978,320.9411728999985,319.9395846999978,320.9411728999985,319.9395846999978,320.4407194999949,319.9395846999978,320.4407194999949,319.9395846999978,320.4407194999949,319.9395846999978,320.4407194999949,319.9395846999978,None,0.8182338999977219,,,,,11002,001,2023_Dec_29_1307,nback,2021.2.3,60.46976541877763,
2-back,instructions\back-2.png,conditions\24back-e.xlsx,,experiment,2,4,stim\gray.png,stim\gray.png,stim\gray.png,stim\yellow.png,right,,,,,,,,,,,,,0,3,3,12,0,16,16,16,,,,,,,,,,,,,,,,,,,,,,,,,,,,,,,,,,,,,,,,,,,,,,,,,,,,,,,,right,1,321.44206629999826,None,321.44206629999826,None,321.44206629999826,322.4435244999986,321.44206629999826,322.4435244999986,321.44206629999826,322.4435244999986,321.44206629999826,322.4435244999986,321.44206629999826,321.943374399998,321.44206629999826,321.943374399998,321.44206629999826,321.943374399998,321.44206629999826,321.943374399998,321.44206629999826,None,1.2431176000027335,,,,,11002,001,2023_Dec_29_1307,nback,2021.2.3,60.46976541877763,
2-back,instructions\back-2.png,conditions\24back-e.xlsx,,experiment,2,3,stim\gray.png,stim\gray.png,stim\yellow.png,stim\gray.png,left,,,,,,,,,,,,,0,3,3,12,0,17,17,17,,,,,,,,,,,,,,,,,,,,,,,,,,,,,,,,,,,,,,,,,,,,,,,,,,,,,,,,None,0,322.927466000001,None,322.927466000001,None,322.927466000001,323.92943709999963,322.927466000001,323.92943709999963,322.927466000001,323.92943709999963,322.927466000001,323.92943709999963,322.927466000001,323.4282819,322.927466000001,323.4282819,322.927466000001,323.4282819,322.927466000001,323.4282819,322.927466000001,None,,,,,,11002,001,2023_Dec_29_1307,nback,2021.2.3,60.46976541877763,
2-back,instructions\back-2.png,conditions\24back-e.xlsx,,experiment,2,1,stim\yellow.png,stim\gray.png,stim\gray.png,stim\gray.png,down,,,,,,,,,,,,,0,3,3,12,0,18,18,18,,,,,,,,,,,,,,,,,,,,,,,,,,,,,,,,,,,,,,,,,,,,,,,,,,,,,,,,down,1,324.429507199995,None,324.429507199995,None,324.429507199995,325.4321204000007,324.429507199995,325.4321204000007,324.429507199995,325.4321204000007,324.429507199995,325.4321204000007,324.429507199995,324.9310514999961,324.429507199995,324.9310514999961,324.429507199995,324.9310514999961,324.429507199995,324.9310514999961,324.429507199995,None,1.1437165000024834,,,,,11002,001,2023_Dec_29_1307,nback,2021.2.3,60.46976541877763,
