backseq,backinstr,backfile,instruction,Trialtype,back,number,P1,P2,P3,P4,corrAns,trials_practice.thisRepN,trials_practice.thisTrialN,trials_practice.thisN,trials_practice.thisIndex,trials.thisRepN,trials.thisTrialN,trials.thisN,trials.thisIndex,trials_3.thisRepN,trials_3.thisTrialN,trials_3.thisN,trials_3.thisIndex,trials_2.thisRepN,trials_2.thisTrialN,trials_2.thisN,trials_2.thisIndex,trials_4.thisRepN,trials_4.thisTrialN,trials_4.thisN,trials_4.thisIndex,image.started,image.stopped,image_2.started,image_2.stopped,key_resp.keys,key_resp.rt,key_resp.started,key_resp.stopped,image_3.started,image_3.stopped,key_resp_2.keys,key_resp_2.rt,key_resp_2.started,key_resp_2.stopped,image_4.started,image_4.stopped,text.started,text.stopped,H1.started,H1.stopped,H2.started,H2.stopped,H3.started,H3.stopped,H4.started,H4.stopped,key_resp_3.keys,key_resp_3.corr,key_resp_3.rt,key_resp_3.started,key_resp_3.stopped,text_4.started,text_4.stopped,F1.started,F1.stopped,F2.started,F2.stopped,F3.started,F3.stopped,F4.started,F4.stopped,image_7.started,image_7.stopped,text_5.started,text_5.stopped,key_resp_6.keys,key_resp_6.rt,key_resp_6.started,key_resp_6.stopped,image_5.started,image_5.stopped,key_resp_4.keys,key_resp_4.rt,key_resp_4.started,key_resp_4.stopped,key_resp_5.keys,key_resp_5.corr,key_resp_5.rt,key_resp_5.started,key_resp_5.stopped,text_3.started,text_3.stopped,H1_2.started,H1_2.stopped,H2_2.started,H2_2.stopped,H3_2.started,H3_2.stopped,H4_2.started,H4_2.stopped,F1_2.started,F1_2.stopped,F2_2.started,F2_2.stopped,F3_2.started,F3_2.stopped,F4_2.started,F4_2.stopped,image_8.started,image_8.stopped,text_2.started,text_2.stopped,image_6.started,image_6.stopped,participant,session,date,expName,psychopyVersion,frameRate,
,,,,,,,,,,,,,,,,,,,,,,,,,,,,,,,,10.21248350001406,None,11.18086319998838,None,space,11.521342200052459,11.18086319998838,None,,,,,,,,,,,,,,,,,,,,,,,,,,,,,,,,,,,,,,,,,,,,,,,,,,,,,,,,,,,,,,,,,,,,,,,,,,,,,11005,001,2024_Jan_01_0936,nback,2021.2.3,59.820240174438375,
0-back,instructions\back-0.png,conditions\0back-p.xlsx,instructions\0-BACK.png,practice,0,1,stim\yellow.png,stim\gray.png,stim\gray.png,stim\gray.png,up,0,0,0,0,0,0,0,0,0,0,0,0,,,,,,,,,,,,,,,,,22.78151300002355,None,space,63.25731840002118,22.78151300002355,None,86.20908900001086,90.71585779997986,90.68176230002427,None,91.08321730000898,92.08476679999148,91.08321730000898,92.08476679999148,91.08321730000898,92.08476679999148,91.08321730000898,92.08476679999148,up,1,1.1232107999967411,91.08321730000898,None,91.08321730000898,None,91.08321730000898,91.5832989999908,91.08321730000898,91.5832989999908,91.08321730000898,91.5832989999908,91.08321730000898,91.5832989999908,91.08321730000898,None,,,,,,,,,,,,,,,,,,,,,,,,,,,,,,,,,,,,,,,,,,11005,001,2024_Jan_01_0936,nback,2021.2.3,59.820240174438375,
0-back,instructions\back-0.png,conditions\0back-p.xlsx,instructions\0-BACK.png,practice,0,2,stim\gray.png,stim\yellow.png,stim\gray.png,stim\gray.png,left,0,0,0,0,0,0,0,0,0,1,1,1,,,,,,,,,,,,,,,,,,,,,,,,,,,92.56904799997574,93.57003860000987,92.56904799997574,93.57003860000987,92.56904799997574,93.57003860000987,92.56904799997574,93.57003860000987,left,1,0.469014199974481,92.56904799997574,None,92.56904799997574,None,92.56904799997574,93.06932220002636,92.56904799997574,93.06932220002636,92.56904799997574,93.06932220002636,92.56904799997574,93.06932220002636,92.56904799997574,None,,,,,,,,,,,,,,,,,,,,,,,,,,,,,,,,,,,,,,,,,,11005,001,2024_Jan_01_0936,nback,2021.2.3,59.820240174438375,
0-back,instructions\back-0.png,conditions\0back-p.xlsx,instructions\0-BACK.png,practice,0,3,stim\gray.png,stim\gray.png,stim\yellow.png,stim\gray.png,right,0,0,0,0,0,0,0,0,0,2,2,2,,,,,,,,,,,,,,,,,,,,,,,,,,,94.07024620001903,95.07262360001914,94.07024620001903,95.07262360001914,94.07024620001903,95.07262360001914,94.07024620001903,95.07262360001914,right,1,0.30396690004272386,94.07024620001903,None,94.07024620001903,None,94.07024620001903,94.5716420999961,94.07024620001903,94.5716420999961,94.07024620001903,94.5716420999961,94.07024620001903,94.5716420999961,94.07024620001903,None,,,,,,,,,,,,,,,,,,,,,,,,,,,,,,,,,,,,,,,,,,11005,001,2024_Jan_01_0936,nback,2021.2.3,59.820240174438375,
0-back,instructions\back-0.png,conditions\0back-p.xlsx,instructions\0-BACK.png,practice,0,4,stim\gray.png,stim\gray.png,stim\gray.png,stim\yellow.png,down,0,0,0,0,0,0,0,0,0,3,3,3,,,,,,,,,,,,,,,,,,,,,,,,,,,95.62228870001854,96.6251022000215,95.62228870001854,96.6251022000215,95.62228870001854,96.6251022000215,95.62228870001854,96.6251022000215,down,1,0.2878467999980785,95.62228870001854,None,95.62228870001854,None,95.62228870001854,96.12404999998398,95.62228870001854,96.12404999998398,95.62228870001854,96.12404999998398,95.62228870001854,96.12404999998398,95.62228870001854,None,,,,,,,,,,,,,,,,,,,,,,,,,,,,,,,,,,,,,,,,,,11005,001,2024_Jan_01_0936,nback,2021.2.3,59.820240174438375,
0-back,instructions\back-0.png,conditions\0back-p.xlsx,instructions\0-BACK.png,practice,0,2,stim\gray.png,stim\yellow.png,stim\gray.png,stim\gray.png,left,0,0,0,0,0,0,0,0,0,4,4,4,,,,,,,,,,,,,,,,,,,,,,,,,,,97.07473110000137,98.0761203999864,97.07473110000137,98.0761203999864,97.07473110000137,98.0761203999864,97.07473110000137,98.0761203999864,left,1,0.3155430000042543,97.07473110000137,None,97.07473110000137,None,97.07473110000137,97.57570759998634,97.07473110000137,97.57570759998634,97.07473110000137,97.57570759998634,97.07473110000137,97.57570759998634,97.07473110000137,None,,,,,,,,,,,,,,,,,,,,,,,,,,,,,,,,,,,,,,,,,,11005,001,2024_Jan_01_0936,nback,2021.2.3,59.820240174438375,
0-back,instructions\back-0.png,conditions\0back-p.xlsx,instructions\0-BACK.png,practice,0,1,stim\yellow.png,stim\gray.png,stim\gray.png,stim\gray.png,up,0,0,0,0,0,0,0,0,0,5,5,5,,,,,,,,,,,,,,,,,,,,,,,,,,,98.57701499998802,99.57927470002323,98.57701499998802,99.57927470002323,98.57701499998802,99.57927470002323,98.57701499998802,99.57927470002323,up,1,0.34133189998101443,98.57701499998802,None,98.57701499998802,None,98.57701499998802,99.07845869997982,98.57701499998802,99.07845869997982,98.57701499998802,99.07845869997982,98.57701499998802,99.07845869997982,98.57701499998802,None,,,,,,,,,,,,,,,,,,,,,,,,,,,,,,,,,,,,,,,,,,11005,001,2024_Jan_01_0936,nback,2021.2.3,59.820240174438375,
0-back,instructions\back-0.png,conditions\0back-p.xlsx,instructions\0-BACK.png,practice,0,4,stim\gray.png,stim\gray.png,stim\gray.png,stim\yellow.png,down,0,0,0,0,0,0,0,0,0,6,6,6,,,,,,,,,,,,,,,,,,,,,,,,,,,100.07928160001757,101.08140500000445,100.07928160001757,101.08140500000445,100.07928160001757,101.08140500000445,100.07928160001757,101.08140500000445,down,1,0.33535219996701926,100.07928160001757,None,100.07928160001757,None,100.07928160001757,100.58059720002348,100.07928160001757,100.58059720002348,100.07928160001757,100.58059720002348,100.07928160001757,100.58059720002348,100.07928160001757,None,,,,,,,,,,,,,,,,,,,,,,,,,,,,,,,,,,,,,,,,,,11005,001,2024_Jan_01_0936,nback,2021.2.3,59.820240174438375,
0-back,instructions\back-0.png,conditions\0back-p.xlsx,instructions\0-BACK.png,practice,0,3,stim\gray.png,stim\gray.png,stim\yellow.png,stim\gray.png,right,0,0,0,0,0,0,0,0,0,7,7,7,,,,,,,,,,,,,,,,,,,,,,,,,,,101.56461140001193,102.5664686000091,101.56461140001193,102.5664686000091,101.56461140001193,102.5664686000091,101.56461140001193,102.5664686000091,right,1,0.3218376000295393,101.56461140001193,None,101.56461140001193,None,101.56461140001193,102.06617359997472,101.56461140001193,102.06617359997472,101.56461140001193,102.06617359997472,101.56461140001193,102.06617359997472,101.56461140001193,None,,,,,,,,,,,,,,,,,,,,,,,,,,,,,,,,,,,,,,,,,,11005,001,2024_Jan_01_0936,nback,2021.2.3,59.820240174438375,
0-back,instructions\back-0.png,conditions\0back-p.xlsx,instructions\0-BACK.png,practice,0,3,stim\gray.png,stim\gray.png,stim\yellow.png,stim\gray.png,right,0,0,0,0,0,0,0,0,0,8,8,8,,,,,,,,,,,,,,,,,,,,,,,,,,,103.06755769997835,104.06935010000598,103.06755769997835,104.06935010000598,103.06755769997835,104.06935010000598,103.06755769997835,104.06935010000598,right,1,0.3552203999715857,103.06755769997835,None,103.06755769997835,None,103.06755769997835,103.56747210002504,103.06755769997835,103.56747210002504,103.06755769997835,103.56747210002504,103.06755769997835,103.56747210002504,103.06755769997835,None,,,,,,,,,,,,,,,,,,,,,,,,,,,,,,,,,,,,,,,,,,11005,001,2024_Jan_01_0936,nback,2021.2.3,59.820240174438375,
0-back,instructions\back-0.png,conditions\0back-p.xlsx,instructions\0-BACK.png,practice,0,4,stim\gray.png,stim\gray.png,stim\gray.png,stim\yellow.png,down,0,0,0,0,0,0,0,0,0,9,9,9,,,,,,,,,,,,,,,,,,,,,,,,,,,104.56887700001244,105.57109600002877,104.56887700001244,105.57109600002877,104.56887700001244,105.57109600002877,104.56887700001244,105.57109600002877,down,1,0.3414687999757007,104.56887700001244,None,104.56887700001244,None,104.56887700001244,105.0707010999904,104.56887700001244,105.0707010999904,104.56887700001244,105.0707010999904,104.56887700001244,105.0707010999904,104.56887700001244,None,,,,,,,,,,,,,,,,,,,,,,,,,,,,,,,,,,,,,,,,,,11005,001,2024_Jan_01_0936,nback,2021.2.3,59.820240174438375,
0-back,instructions\back-0.png,conditions\0back-p.xlsx,instructions\0-BACK.png,practice,0,1,stim\yellow.png,stim\gray.png,stim\gray.png,stim\gray.png,up,0,0,0,0,0,0,0,0,0,10,10,10,,,,,,,,,,,,,,,,,,,,,,,,,,,106.07138410001062,107.07369430002291,106.07138410001062,107.07369430002291,106.07138410001062,107.07369430002291,106.07138410001062,107.07369430002291,up,1,0.3107840000302531,106.07138410001062,None,106.07138410001062,None,106.07138410001062,106.57256719999714,106.07138410001062,106.57256719999714,106.07138410001062,106.57256719999714,106.07138410001062,106.57256719999714,106.07138410001062,None,,,,,,,,,,,,,,,,,,,,,,,,,,,,,,,,,,,,,,,,,,11005,001,2024_Jan_01_0936,nback,2021.2.3,59.820240174438375,
0-back,instructions\back-0.png,conditions\0back-p.xlsx,instructions\0-BACK.png,practice,0,2,stim\gray.png,stim\yellow.png,stim\gray.png,stim\gray.png,left,0,0,0,0,0,0,0,0,0,11,11,11,,,,,,,,,,,,,,,,,,,,,,,,,,,107.57424200000241,108.57708660000935,107.57424200000241,108.57708660000935,107.57424200000241,108.57708660000935,107.57424200000241,108.57708660000935,left,1,0.5919933000113815,107.57424200000241,None,107.57424200000241,None,107.57424200000241,108.07497529999819,107.57424200000241,108.07497529999819,107.57424200000241,108.07497529999819,107.57424200000241,108.07497529999819,107.57424200000241,None,,,,,,,,,,,,,,,,,,,,,,,,,,,,,,,,,,,,,,,,,,11005,001,2024_Jan_01_0936,nback,2021.2.3,59.820240174438375,
0-back,instructions\back-0.png,conditions\0back-p.xlsx,instructions\0-BACK.png,practice,0,4,stim\gray.png,stim\gray.png,stim\gray.png,stim\yellow.png,down,0,0,0,0,0,0,0,0,0,12,12,12,,,,,,,,,,,,,,,,,,,,,,,,,,,109.07652170001529,110.07756170001812,109.07652170001529,110.07756170001812,109.07652170001529,110.07756170001812,109.07652170001529,110.07756170001812,down,1,0.4736844000290148,109.07652170001529,None,109.07652170001529,None,109.07652170001529,109.57681529998081,109.07652170001529,109.57681529998081,109.07652170001529,109.57681529998081,109.07652170001529,109.57681529998081,109.07652170001529,None,,,,,,,,,,,,,,,,,,,,,,,,,,,,,,,,,,,,,,,,,,11005,001,2024_Jan_01_0936,nback,2021.2.3,59.820240174438375,
0-back,instructions\back-0.png,conditions\0back-p.xlsx,instructions\0-BACK.png,practice,0,3,stim\gray.png,stim\gray.png,stim\yellow.png,stim\gray.png,right,0,0,0,0,0,0,0,0,0,13,13,13,,,,,,,,,,,,,,,,,,,,,,,,,,,110.57943250000244,111.58014700002968,110.57943250000244,111.58014700002968,110.57943250000244,111.58014700002968,110.57943250000244,111.58014700002968,right,1,0.32284370000706986,110.57943250000244,None,110.57943250000244,None,110.57943250000244,111.07964780001203,110.57943250000244,111.07964780001203,110.57943250000244,111.07964780001203,110.57943250000244,111.07964780001203,110.57943250000244,None,,,,,,,,,,,,,,,,,,,,,,,,,,,,,,,,,,,,,,,,,,11005,001,2024_Jan_01_0936,nback,2021.2.3,59.820240174438375,
0-back,instructions\back-0.png,conditions\0back-p.xlsx,instructions\0-BACK.png,practice,0,1,stim\yellow.png,stim\gray.png,stim\gray.png,stim\gray.png,up,0,0,0,0,0,0,0,0,0,14,14,14,,,,,,,,,,,,,,,,,,,,,,,,,,,112.06385879998561,113.06514130003052,112.06385879998561,113.06514130003052,112.06385879998561,113.06514130003052,112.06385879998561,113.06514130003052,up,1,0.2862685000291094,112.06385879998561,None,112.06385879998561,None,112.06385879998561,112.5651358999894,112.06385879998561,112.5651358999894,112.06385879998561,112.5651358999894,112.06385879998561,112.5651358999894,112.06385879998561,None,,,,,,,,,,,,,,,,,,,,,,,,,,,,,,,,,,,,,,,,,,11005,001,2024_Jan_01_0936,nback,2021.2.3,59.820240174438375,
0-back,instructions\back-0.png,conditions\0back-p.xlsx,instructions\0-BACK.png,practice,0,2,stim\gray.png,stim\yellow.png,stim\gray.png,stim\gray.png,left,0,0,0,0,0,0,0,0,0,15,15,15,,,,,,,,,,,,,,,,,,,,,,,,,,,113.56592820002697,114.56710260000546,113.56592820002697,114.56710260000546,113.56592820002697,114.56710260000546,113.56592820002697,114.56710260000546,left,1,0.5045575000112876,113.56592820002697,None,113.56592820002697,None,113.56592820002697,114.0667431000038,113.56592820002697,114.0667431000038,113.56592820002697,114.0667431000038,113.56592820002697,114.0667431000038,113.56592820002697,None,,,,,,,,,,,,,,,,,,,,,,,,,,,,,,,,,,,,,,,,,,11005,001,2024_Jan_01_0936,nback,2021.2.3,59.820240174438375,
0-back,instructions\back-0.png,conditions\0back-p.xlsx,instructions\0-BACK.png,practice,0,3,stim\gray.png,stim\gray.png,stim\yellow.png,stim\gray.png,right,0,0,0,0,0,0,0,0,0,16,16,16,,,,,,,,,,,,,,,,,,,,,,,,,,,115.06873679999262,116.07067310001003,115.06873679999262,116.07067310001003,115.06873679999262,116.07067310001003,115.06873679999262,116.07067310001003,left,0,0.7537888999795541,115.06873679999262,None,115.06873679999262,None,115.06873679999262,115.56943209999008,115.06873679999262,115.56943209999008,115.06873679999262,115.56943209999008,115.06873679999262,115.56943209999008,115.06873679999262,None,,,,,,,,,,,,,,,,,,,,,,,,,,,,,,,,,,,,,,,,,,11005,001,2024_Jan_01_0936,nback,2021.2.3,59.820240174438375,
0-back,instructions\back-0.png,conditions\0back-p.xlsx,instructions\0-BACK.png,practice,0,1,stim\yellow.png,stim\gray.png,stim\gray.png,stim\gray.png,up,0,0,0,0,0,0,0,0,0,17,17,17,,,,,,,,,,,,,,,,,,,,,,,,,,,116.57027710002149,117.57232600002317,116.57027710002149,117.57232600002317,116.57027710002149,117.57232600002317,116.57027710002149,117.57232600002317,up,1,0.41210750001482666,116.57027710002149,None,116.57027710002149,None,116.57027710002149,117.0717015999835,116.57027710002149,117.0717015999835,116.57027710002149,117.0717015999835,116.57027710002149,117.0717015999835,116.57027710002149,None,,,,,,,,,,,,,,,,,,,,,,,,,,,,,,,,,,,,,,,,,,11005,001,2024_Jan_01_0936,nback,2021.2.3,59.820240174438375,
0-back,instructions\back-0.png,conditions\0back-p.xlsx,instructions\0-BACK.png,practice,0,4,stim\gray.png,stim\gray.png,stim\gray.png,stim\yellow.png,down,0,0,0,0,0,0,0,0,0,18,18,18,,,,,,,,,,,,,,,,,,,,,,,,,,,118.0730642999988,119.0745074999868,118.0730642999988,119.0745074999868,118.0730642999988,119.0745074999868,118.0730642999988,119.0745074999868,down,1,0.5341042000218295,118.0730642999988,None,118.0730642999988,None,118.0730642999988,118.57389709999552,118.0730642999988,118.57389709999552,118.0730642999988,118.57389709999552,118.0730642999988,118.57389709999552,118.0730642999988,None,,,,,,,,,,,,,,,,,,,,,,,,,,,,,,,,,,,,,,,,,,11005,001,2024_Jan_01_0936,nback,2021.2.3,59.820240174438375,
0-back,instructions\back-0.png,conditions\0back-p.xlsx,instructions\0-BACK.png,practice,0,2,stim\gray.png,stim\yellow.png,stim\gray.png,stim\gray.png,left,0,0,0,0,0,0,0,0,0,19,19,19,,,,,,,,,,,,,,,,,,,,,,,,,,,119.57508260000031,120.57619330001762,119.57508260000031,120.57619330001762,119.57508260000031,120.57619330001762,119.57508260000031,120.57619330001762,left,1,0.3270147999865003,119.57508260000031,None,119.57508260000031,None,119.57508260000031,120.07558780000545,119.57508260000031,120.07558780000545,119.57508260000031,120.07558780000545,119.57508260000031,120.07558780000545,119.57508260000031,None,,,,,,,,,,,,,,,,,,,,,,,,,,,,,,,,,,,,,,,,,,11005,001,2024_Jan_01_0936,nback,2021.2.3,59.820240174438375,
0-back,instructions\back-0.png,conditions\0back-p.xlsx,instructions\0-BACK.png,,,,,,,,,0,0,0,0,0,0,0,0,,,,,,,,,,,,,,,,,,,,,,,,,,,,,,,,,,,,,,,,,,,,,,,,,,,,,,,,,,,,,,,,,,,,,,,,,,,,,,,,,,,,,,,,,,,,,,,,,11005,001,2024_Jan_01_0936,nback,2021.2.3,59.820240174438375,
1-back,instructions\back-1.png,conditions\1back-p.xlsx,instructions\1-BACK.png,practice,1,1,stim\yellow.png,stim\gray.png,stim\gray.png,stim\gray.png,None,0,0,0,0,0,1,1,1,0,0,0,0,,,,,,,,,,,,,,,,,121.21144189999904,None,space,22.290454700007103,121.21144189999904,None,143.64434589998564,148.15185429999838,148.1194179999875,None,148.55204550002236,149.55296609998913,148.55204550002236,149.55296609998913,148.55204550002236,149.55296609998913,148.55204550002236,149.55296609998913,None,1,,148.55204550002236,None,148.55204550002236,None,148.55204550002236,149.0521225000266,148.55204550002236,149.0521225000266,148.55204550002236,149.0521225000266,148.55204550002236,149.0521225000266,148.55204550002236,None,,,,,,,,,,,,,,,,,,,,,,,,,,,,,,,,,,,,,,,,,,11005,001,2024_Jan_01_0936,nback,2021.2.3,59.820240174438375,
1-back,instructions\back-1.png,conditions\1back-p.xlsx,instructions\1-BACK.png,practice,1,2,stim\gray.png,stim\yellow.png,stim\gray.png,stim\gray.png,up,0,0,0,0,0,1,1,1,0,1,1,1,,,,,,,,,,,,,,,,,,,,,,,,,,,150.0378971999744,151.03891850000946,150.0378971999744,151.03891850000946,150.0378971999744,151.03891850000946,150.0378971999744,151.03891850000946,up,1,0.5681828999659047,150.0378971999744,None,150.0378971999744,None,150.0378971999744,150.53723479999462,150.0378971999744,150.53723479999462,150.0378971999744,150.53723479999462,150.0378971999744,150.53723479999462,150.0378971999744,None,,,,,,,,,,,,,,,,,,,,,,,,,,,,,,,,,,,,,,,,,,11005,001,2024_Jan_01_0936,nback,2021.2.3,59.820240174438375,
1-back,instructions\back-1.png,conditions\1back-p.xlsx,instructions\1-BACK.png,practice,1,3,stim\gray.png,stim\gray.png,stim\yellow.png,stim\gray.png,left,0,0,0,0,0,1,1,1,0,2,2,2,,,,,,,,,,,,,,,,,,,,,,,,,,,151.538710599998,152.5413367000292,151.538710599998,152.5413367000292,151.538710599998,152.5413367000292,151.538710599998,152.5413367000292,left,1,0.4846646999940276,151.538710599998,None,151.538710599998,None,151.538710599998,152.04064520000247,151.538710599998,152.04064520000247,151.538710599998,152.04064520000247,151.538710599998,152.04064520000247,151.538710599998,None,,,,,,,,,,,,,,,,,,,,,,,,,,,,,,,,,,,,,,,,,,11005,001,2024_Jan_01_0936,nback,2021.2.3,59.820240174438375,
1-back,instructions\back-1.png,conditions\1back-p.xlsx,instructions\1-BACK.png,practice,1,4,stim\gray.png,stim\gray.png,stim\gray.png,stim\yellow.png,right,0,0,0,0,0,1,1,1,0,3,3,3,,,,,,,,,,,,,,,,,,,,,,,,,,,153.04096770001343,154.04352150001796,153.04096770001343,154.04352150001796,153.04096770001343,154.04352150001796,153.04096770001343,154.04352150001796,right,1,0.3021302000270225,153.04096770001343,None,153.04096770001343,None,153.04096770001343,153.54176460002782,153.04096770001343,153.54176460002782,153.04096770001343,153.54176460002782,153.04096770001343,153.54176460002782,153.04096770001343,None,,,,,,,,,,,,,,,,,,,,,,,,,,,,,,,,,,,,,,,,,,11005,001,2024_Jan_01_0936,nback,2021.2.3,59.820240174438375,
1-back,instructions\back-1.png,conditions\1back-p.xlsx,instructions\1-BACK.png,practice,1,2,stim\gray.png,stim\yellow.png,stim\gray.png,stim\gray.png,down,0,0,0,0,0,1,1,1,0,4,4,4,,,,,,,,,,,,,,,,,,,,,,,,,,,154.54333930002758,155.54533140000422,154.54333930002758,155.54533140000422,154.54333930002758,155.54533140000422,154.54333930002758,155.54533140000422,down,1,0.19972069998038933,154.54333930002758,None,154.54333930002758,None,154.54333930002758,155.04460289998678,154.54333930002758,155.04460289998678,154.54333930002758,155.04460289998678,154.54333930002758,155.04460289998678,154.54333930002758,None,,,,,,,,,,,,,,,,,,,,,,,,,,,,,,,,,,,,,,,,,,11005,001,2024_Jan_01_0936,nback,2021.2.3,59.820240174438375,
1-back,instructions\back-1.png,conditions\1back-p.xlsx,instructions\1-BACK.png,practice,1,1,stim\yellow.png,stim\gray.png,stim\gray.png,stim\gray.png,left,0,0,0,0,0,1,1,1,0,5,5,5,,,,,,,,,,,,,,,,,,,,,,,,,,,156.04617909999797,157.0477305999957,156.04617909999797,157.0477305999957,156.04617909999797,157.0477305999957,156.04617909999797,157.0477305999957,up,0,1.4482606999808922,156.04617909999797,None,156.04617909999797,None,156.04617909999797,156.54601849999744,156.04617909999797,156.54601849999744,156.04617909999797,156.54601849999744,156.04617909999797,156.54601849999744,156.04617909999797,None,,,,,,,,,,,,,,,,,,,,,,,,,,,,,,,,,,,,,,,,,,11005,001,2024_Jan_01_0936,nback,2021.2.3,59.820240174438375,
1-back,instructions\back-1.png,conditions\1back-p.xlsx,instructions\1-BACK.png,practice,1,4,stim\gray.png,stim\gray.png,stim\gray.png,stim\yellow.png,up,0,0,0,0,0,1,1,1,0,6,6,6,,,,,,,,,,,,,,,,,,,,,,,,,,,157.53085159999318,158.53334299998824,157.53085159999318,158.53334299998824,157.53085159999318,158.53334299998824,157.53085159999318,158.53334299998824,down,0,1.4522195999743417,157.53085159999318,None,157.53085159999318,None,157.53085159999318,158.03239569999278,157.53085159999318,158.03239569999278,157.53085159999318,158.03239569999278,157.53085159999318,158.03239569999278,157.53085159999318,None,,,,,,,,,,,,,,,,,,,,,,,,,,,,,,,,,,,,,,,,,,11005,001,2024_Jan_01_0936,nback,2021.2.3,59.820240174438375,
1-back,instructions\back-1.png,conditions\1back-p.xlsx,instructions\1-BACK.png,practice,1,3,stim\gray.png,stim\gray.png,stim\yellow.png,stim\gray.png,down,0,0,0,0,0,1,1,1,0,7,7,7,,,,,,,,,,,,,,,,,,,,,,,,,,,159.0332669999916,160.03528100001859,159.0332669999916,160.03528100001859,159.0332669999916,160.03528100001859,159.0332669999916,160.03528100001859,right,0,1.3254415999981575,159.0332669999916,None,159.0332669999916,None,159.0332669999916,159.53416260000085,159.0332669999916,159.53416260000085,159.0332669999916,159.53416260000085,159.0332669999916,159.53416260000085,159.0332669999916,None,,,,,,,,,,,,,,,,,,,,,,,,,,,,,,,,,,,,,,,,,,11005,001,2024_Jan_01_0936,nback,2021.2.3,59.820240174438375,
1-back,instructions\back-1.png,conditions\1back-p.xlsx,instructions\1-BACK.png,practice,1,3,stim\gray.png,stim\gray.png,stim\yellow.png,stim\gray.png,right,0,0,0,0,0,1,1,1,0,8,8,8,,,,,,,,,,,,,,,,,,,,,,,,,,,160.53545840003062,161.5379161000019,160.53545840003062,161.5379161000019,160.53545840003062,161.5379161000019,160.53545840003062,161.5379161000019,right,1,1.2469217999605462,160.53545840003062,None,160.53545840003062,None,160.53545840003062,161.03695989999687,160.53545840003062,161.03695989999687,160.53545840003062,161.03695989999687,160.53545840003062,161.03695989999687,160.53545840003062,None,,,,,,,,,,,,,,,,,,,,,,,,,,,,,,,,,,,,,,,,,,11005,001,2024_Jan_01_0936,nback,2021.2.3,59.820240174438375,
1-back,instructions\back-1.png,conditions\1back-p.xlsx,instructions\1-BACK.png,practice,1,4,stim\gray.png,stim\gray.png,stim\gray.png,stim\yellow.png,right,0,0,0,0,0,1,1,1,0,9,9,9,,,,,,,,,,,,,,,,,,,,,,,,,,,162.03846309997607,163.04019109997898,162.03846309997607,163.04019109997898,162.03846309997607,163.04019109997898,162.03846309997607,163.04019109997898,down,0,1.1841098999720998,162.03846309997607,None,162.03846309997607,None,162.03846309997607,162.53901270002825,162.03846309997607,162.53901270002825,162.03846309997607,162.53901270002825,162.03846309997607,162.53901270002825,162.03846309997607,None,,,,,,,,,,,,,,,,,,,,,,,,,,,,,,,,,,,,,,,,,,11005,001,2024_Jan_01_0936,nback,2021.2.3,59.820240174438375,
1-back,instructions\back-1.png,conditions\1back-p.xlsx,instructions\1-BACK.png,practice,1,1,stim\yellow.png,stim\gray.png,stim\gray.png,stim\gray.png,down,0,0,0,0,0,1,1,1,0,10,10,10,,,,,,,,,,,,,,,,,,,,,,,,,,,163.54022149997763,164.54199120000703,163.54022149997763,164.54199120000703,163.54022149997763,164.54199120000703,163.54022149997763,164.54199120000703,None,0,,163.54022149997763,None,163.54022149997763,None,163.54022149997763,164.0415628000046,163.54022149997763,164.0415628000046,163.54022149997763,164.0415628000046,163.54022149997763,164.0415628000046,163.54022149997763,None,,,,,,,,,,,,,,,,,,,,,,,,,,,,,,,,,,,,,,,,,,11005,001,2024_Jan_01_0936,nback,2021.2.3,59.820240174438375,
1-back,instructions\back-1.png,conditions\1back-p.xlsx,instructions\1-BACK.png,practice,1,2,stim\gray.png,stim\yellow.png,stim\gray.png,stim\gray.png,up,0,0,0,0,0,1,1,1,0,11,11,11,,,,,,,,,,,,,,,,,,,,,,,,,,,165.0430720000295,166.0443808999844,165.0430720000295,166.0443808999844,165.0430720000295,166.0443808999844,165.0430720000295,166.0443808999844,None,0,,165.0430720000295,None,165.0430720000295,None,165.0430720000295,165.54366750002373,165.0430720000295,165.54366750002373,165.0430720000295,165.54366750002373,165.0430720000295,165.54366750002373,165.0430720000295,None,,,,,,,,,,,,,,,,,,,,,,,,,,,,,,,,,,,,,,,,,,11005,001,2024_Jan_01_0936,nback,2021.2.3,59.820240174438375,
1-back,instructions\back-1.png,conditions\1back-p.xlsx,instructions\1-BACK.png,practice,1,4,stim\gray.png,stim\gray.png,stim\gray.png,stim\yellow.png,left,0,0,0,0,0,1,1,1,0,12,12,12,,,,,,,,,,,,,,,,,,,,,,,,,,,166.54488240001956,167.54687130003003,166.54488240001956,167.54687130003003,166.54488240001956,167.54687130003003,166.54488240001956,167.54687130003003,left,1,0.4699028999893926,166.54488240001956,None,166.54488240001956,None,166.54488240001956,167.04531040001893,166.54488240001956,167.04531040001893,166.54488240001956,167.04531040001893,166.54488240001956,167.04531040001893,166.54488240001956,None,,,,,,,,,,,,,,,,,,,,,,,,,,,,,,,,,,,,,,,,,,11005,001,2024_Jan_01_0936,nback,2021.2.3,59.820240174438375,
1-back,instructions\back-1.png,conditions\1back-p.xlsx,instructions\1-BACK.png,practice,1,3,stim\gray.png,stim\gray.png,stim\yellow.png,stim\gray.png,down,0,0,0,0,0,1,1,1,0,13,13,13,,,,,,,,,,,,,,,,,,,,,,,,,,,168.02980570000364,169.03124209999805,168.02980570000364,169.03124209999805,168.02980570000364,169.03124209999805,168.02980570000364,169.03124209999805,down,1,0.3443517000414431,168.02980570000364,None,168.02980570000364,None,168.02980570000364,168.53070220001973,168.02980570000364,168.53070220001973,168.02980570000364,168.53070220001973,168.02980570000364,168.53070220001973,168.02980570000364,None,,,,,,,,,,,,,,,,,,,,,,,,,,,,,,,,,,,,,,,,,,11005,001,2024_Jan_01_0936,nback,2021.2.3,59.820240174438375,
1-back,instructions\back-1.png,conditions\1back-p.xlsx,instructions\1-BACK.png,practice,1,1,stim\yellow.png,stim\gray.png,stim\gray.png,stim\gray.png,right,0,0,0,0,0,1,1,1,0,14,14,14,,,,,,,,,,,,,,,,,,,,,,,,,,,169.532080999983,170.53430469997693,169.532080999983,170.53430469997693,169.532080999983,170.53430469997693,169.532080999983,170.53430469997693,right,1,0.3143735000048764,169.532080999983,None,169.532080999983,None,169.532080999983,170.03339810000034,169.532080999983,170.03339810000034,169.532080999983,170.03339810000034,169.532080999983,170.03339810000034,169.532080999983,None,,,,,,,,,,,,,,,,,,,,,,,,,,,,,,,,,,,,,,,,,,11005,001,2024_Jan_01_0936,nback,2021.2.3,59.820240174438375,
1-back,instructions\back-1.png,conditions\1back-p.xlsx,instructions\1-BACK.png,practice,1,2,stim\gray.png,stim\yellow.png,stim\gray.png,stim\gray.png,up,0,0,0,0,0,1,1,1,0,15,15,15,,,,,,,,,,,,,,,,,,,,,,,,,,,171.03439029998844,172.03654439997626,171.03439029998844,172.03654439997626,171.03439029998844,172.03654439997626,171.03439029998844,172.03654439997626,up,1,0.3080212000058964,171.03439029998844,None,171.03439029998844,None,171.03439029998844,171.53561249998165,171.03439029998844,171.53561249998165,171.03439029998844,171.53561249998165,171.03439029998844,171.53561249998165,171.03439029998844,None,,,,,,,,,,,,,,,,,,,,,,,,,,,,,,,,,,,,,,,,,,11005,001,2024_Jan_01_0936,nback,2021.2.3,59.820240174438375,
1-back,instructions\back-1.png,conditions\1back-p.xlsx,instructions\1-BACK.png,practice,1,3,stim\gray.png,stim\gray.png,stim\yellow.png,stim\gray.png,left,0,0,0,0,0,1,1,1,0,16,16,16,,,,,,,,,,,,,,,,,,,,,,,,,,,172.53726160002407,173.5386404999881,172.53726160002407,173.5386404999881,172.53726160002407,173.5386404999881,172.53726160002407,173.5386404999881,left,1,0.37320079997880384,172.53726160002407,None,172.53726160002407,None,172.53726160002407,173.03829489997588,172.53726160002407,173.03829489997588,172.53726160002407,173.03829489997588,172.53726160002407,173.03829489997588,172.53726160002407,None,,,,,,,,,,,,,,,,,,,,,,,,,,,,,,,,,,,,,,,,,,11005,001,2024_Jan_01_0936,nback,2021.2.3,59.820240174438375,
1-back,instructions\back-1.png,conditions\1back-p.xlsx,instructions\1-BACK.png,practice,1,1,stim\yellow.png,stim\gray.png,stim\gray.png,stim\gray.png,right,0,0,0,0,0,1,1,1,0,17,17,17,,,,,,,,,,,,,,,,,,,,,,,,,,,174.0387915999745,175.0409370000125,174.0387915999745,175.0409370000125,174.0387915999745,175.0409370000125,174.0387915999745,175.0409370000125,right,1,0.3203980000107549,174.0387915999745,None,174.0387915999745,None,174.0387915999745,174.54057770001236,174.0387915999745,174.54057770001236,174.0387915999745,174.54057770001236,174.0387915999745,174.54057770001236,174.0387915999745,None,,,,,,,,,,,,,,,,,,,,,,,,,,,,,,,,,,,,,,,,,,11005,001,2024_Jan_01_0936,nback,2021.2.3,59.820240174438375,
1-back,instructions\back-1.png,conditions\1back-p.xlsx,instructions\1-BACK.png,practice,1,4,stim\gray.png,stim\gray.png,stim\gray.png,stim\yellow.png,up,0,0,0,0,0,1,1,1,0,18,18,18,,,,,,,,,,,,,,,,,,,,,,,,,,,175.5410436000093,176.5435814000084,175.5410436000093,176.5435814000084,175.5410436000093,176.5435814000084,175.5410436000093,176.5435814000084,up,1,0.3851679000072181,175.5410436000093,None,175.5410436000093,None,175.5410436000093,176.04252409999026,175.5410436000093,176.04252409999026,175.5410436000093,176.04252409999026,175.5410436000093,176.04252409999026,175.5410436000093,None,,,,,,,,,,,,,,,,,,,,,,,,,,,,,,,,,,,,,,,,,,11005,001,2024_Jan_01_0936,nback,2021.2.3,59.820240174438375,
1-back,instructions\back-1.png,conditions\1back-p.xlsx,instructions\1-BACK.png,practice,1,2,stim\gray.png,stim\yellow.png,stim\gray.png,stim\gray.png,down,0,0,0,0,0,1,1,1,0,19,19,19,,,,,,,,,,,,,,,,,,,,,,,,,,,177.04382760002045,178.04605050000828,177.04382760002045,178.04605050000828,177.04382760002045,178.04605050000828,177.04382760002045,178.04605050000828,down,1,0.20230830000946298,177.04382760002045,None,177.04382760002045,None,177.04382760002045,177.54468739998993,177.04382760002045,177.54468739998993,177.04382760002045,177.54468739998993,177.04382760002045,177.54468739998993,177.04382760002045,None,,,,,,,,,,,,,,,,,,,,,,,,,,,,,,,,,,,,,,,,,,11005,001,2024_Jan_01_0936,nback,2021.2.3,59.820240174438375,
1-back,instructions\back-1.png,conditions\1back-p.xlsx,instructions\1-BACK.png,,,,,,,,,0,0,0,0,0,1,1,1,,,,,,,,,,,,,,,,,,,,,,,,,,,,,,,,,,,,,,,,,,,,,,,,,,,,,,,,,,,,,,,,,,,,,,,,,,,,,,,,,,,,,,,,,,,,,,,,,11005,001,2024_Jan_01_0936,nback,2021.2.3,59.820240174438375,
2-back,instructions\back-2.png,conditions\2back-p.xlsx,instructions\2-BACK.png,practice,2,1,stim\yellow.png,stim\gray.png,stim\gray.png,stim\gray.png,None,0,0,0,0,0,2,2,2,0,0,0,0,,,,,,,,,,,,,,,,,178.67916250001872,None,space,9.583156100008637,178.67916250001872,None,188.3932924999972,192.90198299998883,192.86733759997878,None,193.30187600001227,194.30319780000718,193.30187600001227,194.30319780000718,193.30187600001227,194.30319780000718,193.30187600001227,194.30319780000718,None,1,,193.30187600001227,None,193.30187600001227,None,193.30187600001227,193.80126360000577,193.30187600001227,193.80126360000577,193.30187600001227,193.80126360000577,193.30187600001227,193.80126360000577,193.30187600001227,None,,,,,,,,,,,,,,,,,,,,,,,,,,,,,,,,,,,,,,,,,,11005,001,2024_Jan_01_0936,nback,2021.2.3,59.820240174438375,
2-back,instructions\back-2.png,conditions\2back-p.xlsx,instructions\2-BACK.png,practice,2,2,stim\gray.png,stim\yellow.png,stim\gray.png,stim\gray.png,None,0,0,0,0,0,2,2,2,0,1,1,1,,,,,,,,,,,,,,,,,,,,,,,,,,,194.78692109999247,195.7884878999903,194.78692109999247,195.7884878999903,194.78692109999247,195.7884878999903,194.78692109999247,195.7884878999903,None,1,,194.78692109999247,None,194.78692109999247,None,194.78692109999247,195.28684180002892,194.78692109999247,195.28684180002892,194.78692109999247,195.28684180002892,194.78692109999247,195.28684180002892,194.78692109999247,None,,,,,,,,,,,,,,,,,,,,,,,,,,,,,,,,,,,,,,,,,,11005,001,2024_Jan_01_0936,nback,2021.2.3,59.820240174438375,
2-back,instructions\back-2.png,conditions\2back-p.xlsx,instructions\2-BACK.png,practice,2,3,stim\gray.png,stim\gray.png,stim\yellow.png,stim\gray.png,up,0,0,0,0,0,2,2,2,0,2,2,2,,,,,,,,,,,,,,,,,,,,,,,,,,,196.28842019999865,197.2909638999845,196.28842019999865,197.2909638999845,196.28842019999865,197.2909638999845,196.28842019999865,197.2909638999845,up,1,0.6059189000516199,196.28842019999865,None,196.28842019999865,None,196.28842019999865,196.78935929998988,196.28842019999865,196.78935929998988,196.28842019999865,196.78935929998988,196.28842019999865,196.78935929998988,196.28842019999865,None,,,,,,,,,,,,,,,,,,,,,,,,,,,,,,,,,,,,,,,,,,11005,001,2024_Jan_01_0936,nback,2021.2.3,59.820240174438375,
2-back,instructions\back-2.png,conditions\2back-p.xlsx,instructions\2-BACK.png,practice,2,4,stim\gray.png,stim\gray.png,stim\gray.png,stim\yellow.png,left,0,0,0,0,0,2,2,2,0,3,3,3,,,,,,,,,,,,,,,,,,,,,,,,,,,197.7906647999771,198.79300130001502,197.7906647999771,198.79300130001502,197.7906647999771,198.79300130001502,197.7906647999771,198.79300130001502,left,1,0.3275747000006959,197.7906647999771,None,197.7906647999771,None,197.7906647999771,198.29236419999506,197.7906647999771,198.29236419999506,197.7906647999771,198.29236419999506,197.7906647999771,198.29236419999506,197.7906647999771,None,,,,,,,,,,,,,,,,,,,,,,,,,,,,,,,,,,,,,,,,,,11005,001,2024_Jan_01_0936,nback,2021.2.3,59.820240174438375,
2-back,instructions\back-2.png,conditions\2back-p.xlsx,instructions\2-BACK.png,practice,2,2,stim\gray.png,stim\yellow.png,stim\gray.png,stim\gray.png,right,0,0,0,0,0,2,2,2,0,4,4,4,,,,,,,,,,,,,,,,,,,,,,,,,,,199.29346000001533,200.29534110001987,199.29346000001533,200.29534110001987,199.29346000001533,200.29534110001987,199.29346000001533,200.29534110001987,right,1,0.46602079999865964,199.29346000001533,None,199.29346000001533,None,199.29346000001533,199.79412899998715,199.29346000001533,199.79412899998715,199.29346000001533,199.79412899998715,199.29346000001533,199.79412899998715,199.29346000001533,None,,,,,,,,,,,,,,,,,,,,,,,,,,,,,,,,,,,,,,,,,,11005,001,2024_Jan_01_0936,nback,2021.2.3,59.820240174438375,
2-back,instructions\back-2.png,conditions\2back-p.xlsx,instructions\2-BACK.png,practice,2,1,stim\yellow.png,stim\gray.png,stim\gray.png,stim\gray.png,down,0,0,0,0,0,2,2,2,0,5,5,5,,,,,,,,,,,,,,,,,,,,,,,,,,,200.79489770001965,201.79665269999532,200.79489770001965,201.79665269999532,200.79489770001965,201.79665269999532,200.79489770001965,201.79665269999532,None,0,,200.79489770001965,None,200.79489770001965,None,200.79489770001965,201.29613360000076,200.79489770001965,201.29613360000076,200.79489770001965,201.29613360000076,200.79489770001965,201.29613360000076,200.79489770001965,None,,,,,,,,,,,,,,,,,,,,,,,,,,,,,,,,,,,,,,,,,,11005,001,2024_Jan_01_0936,nback,2021.2.3,59.820240174438375,
2-back,instructions\back-2.png,conditions\2back-p.xlsx,instructions\2-BACK.png,practice,2,4,stim\gray.png,stim\gray.png,stim\gray.png,stim\yellow.png,left,0,0,0,0,0,2,2,2,0,6,6,6,,,,,,,,,,,,,,,,,,,,,,,,,,,202.281262399978,203.28207259997725,202.281262399978,203.28207259997725,202.281262399978,203.28207259997725,202.281262399978,203.28207259997725,None,0,,202.281262399978,None,202.281262399978,None,202.281262399978,202.78191020002123,202.281262399978,202.78191020002123,202.281262399978,202.78191020002123,202.281262399978,202.78191020002123,202.281262399978,None,,,,,,,,,,,,,,,,,,,,,,,,,,,,,,,,,,,,,,,,,,11005,001,2024_Jan_01_0936,nback,2021.2.3,59.820240174438375,
2-back,instructions\back-2.png,conditions\2back-p.xlsx,instructions\2-BACK.png,practice,2,3,stim\gray.png,stim\gray.png,stim\yellow.png,stim\gray.png,up,0,0,0,0,0,2,2,2,0,7,7,7,,,,,,,,,,,,,,,,,,,,,,,,,,,203.78293960000155,204.78492180001922,203.78293960000155,204.78492180001922,203.78293960000155,204.78492180001922,203.78293960000155,204.78492180001922,up,1,0.32734100002562627,203.78293960000155,None,203.78293960000155,None,203.78293960000155,204.28435879998142,203.78293960000155,204.28435879998142,203.78293960000155,204.28435879998142,203.78293960000155,204.28435879998142,203.78293960000155,None,,,,,,,,,,,,,,,,,,,,,,,,,,,,,,,,,,,,,,,,,,11005,001,2024_Jan_01_0936,nback,2021.2.3,59.820240174438375,
2-back,instructions\back-2.png,conditions\2back-p.xlsx,instructions\2-BACK.png,practice,2,3,stim\gray.png,stim\gray.png,stim\yellow.png,stim\gray.png,down,0,0,0,0,0,2,2,2,0,8,8,8,,,,,,,,,,,,,,,,,,,,,,,,,,,205.2850455000298,206.28716669999994,205.2850455000298,206.28716669999994,205.2850455000298,206.28716669999994,205.2850455000298,206.28716669999994,None,0,,205.2850455000298,None,205.2850455000298,None,205.2850455000298,205.7865565000102,205.2850455000298,205.7865565000102,205.2850455000298,205.7865565000102,205.2850455000298,205.7865565000102,205.2850455000298,None,,,,,,,,,,,,,,,,,,,,,,,,,,,,,,,,,,,,,,,,,,11005,001,2024_Jan_01_0936,nback,2021.2.3,59.820240174438375,
2-back,instructions\back-2.png,conditions\2back-p.xlsx,instructions\2-BACK.png,practice,2,4,stim\gray.png,stim\gray.png,stim\gray.png,stim\yellow.png,right,0,0,0,0,0,2,2,2,0,9,9,9,,,,,,,,,,,,,,,,,,,,,,,,,,,206.78810310002882,207.78979070001515,206.78810310002882,207.78979070001515,206.78810310002882,207.78979070001515,206.78810310002882,207.78979070001515,None,0,,206.78810310002882,None,206.78810310002882,None,206.78810310002882,207.2886607000255,206.78810310002882,207.2886607000255,206.78810310002882,207.2886607000255,206.78810310002882,207.2886607000255,206.78810310002882,None,,,,,,,,,,,,,,,,,,,,,,,,,,,,,,,,,,,,,,,,,,11005,001,2024_Jan_01_0936,nback,2021.2.3,59.820240174438375,
2-back,instructions\back-2.png,conditions\2back-p.xlsx,instructions\2-BACK.png,practice,2,1,stim\yellow.png,stim\gray.png,stim\gray.png,stim\gray.png,right,0,0,0,0,0,2,2,2,0,10,10,10,,,,,,,,,,,,,,,,,,,,,,,,,,,208.28939150000224,209.29099150002003,208.28939150000224,209.29099150002003,208.28939150000224,209.29099150002003,208.28939150000224,209.29099150002003,None,0,,208.28939150000224,None,208.28939150000224,None,208.28939150000224,208.79090419999557,208.28939150000224,208.79090419999557,208.28939150000224,208.79090419999557,208.28939150000224,208.79090419999557,208.28939150000224,None,,,,,,,,,,,,,,,,,,,,,,,,,,,,,,,,,,,,,,,,,,11005,001,2024_Jan_01_0936,nback,2021.2.3,59.820240174438375,
2-back,instructions\back-2.png,conditions\2back-p.xlsx,instructions\2-BACK.png,practice,2,2,stim\gray.png,stim\yellow.png,stim\gray.png,stim\gray.png,down,0,0,0,0,0,2,2,2,0,11,11,11,,,,,,,,,,,,,,,,,,,,,,,,,,,209.7917961999774,210.7938232999877,209.7917961999774,210.7938232999877,209.7917961999774,210.7938232999877,209.7917961999774,210.7938232999877,None,0,,209.7917961999774,None,209.7917961999774,None,209.7917961999774,210.2936065000249,209.7917961999774,210.2936065000249,209.7917961999774,210.2936065000249,209.7917961999774,210.2936065000249,209.7917961999774,None,,,,,,,,,,,,,,,,,,,,,,,,,,,,,,,,,,,,,,,,,,11005,001,2024_Jan_01_0936,nback,2021.2.3,59.820240174438375,
2-back,instructions\back-2.png,conditions\2back-p.xlsx,instructions\2-BACK.png,practice,2,4,stim\gray.png,stim\gray.png,stim\gray.png,stim\yellow.png,up,0,0,0,0,0,2,2,2,0,12,12,12,,,,,,,,,,,,,,,,,,,,,,,,,,,211.29407459998038,212.29640480002854,211.29407459998038,212.29640480002854,211.29407459998038,212.29640480002854,211.29407459998038,212.29640480002854,up,1,0.4246298999642022,211.29407459998038,None,211.29407459998038,None,211.29407459998038,211.795433900028,211.29407459998038,211.795433900028,211.29407459998038,211.795433900028,211.29407459998038,211.795433900028,211.29407459998038,None,,,,,,,,,,,,,,,,,,,,,,,,,,,,,,,,,,,,,,,,,,11005,001,2024_Jan_01_0936,nback,2021.2.3,59.820240174438375,
2-back,instructions\back-2.png,conditions\2back-p.xlsx,instructions\2-BACK.png,practice,2,3,stim\gray.png,stim\gray.png,stim\yellow.png,stim\gray.png,left,0,0,0,0,0,2,2,2,0,13,13,13,,,,,,,,,,,,,,,,,,,,,,,,,,,212.7967753999983,213.79886139999144,212.7967753999983,213.79886139999144,212.7967753999983,213.79886139999144,212.7967753999983,213.79886139999144,left,1,0.23377170000458136,212.7967753999983,None,212.7967753999983,None,212.7967753999983,213.29763480002293,212.7967753999983,213.29763480002293,212.7967753999983,213.29763480002293,212.7967753999983,213.29763480002293,212.7967753999983,None,,,,,,,,,,,,,,,,,,,,,,,,,,,,,,,,,,,,,,,,,,11005,001,2024_Jan_01_0936,nback,2021.2.3,59.820240174438375,
2-back,instructions\back-2.png,conditions\2back-p.xlsx,instructions\2-BACK.png,practice,2,1,stim\yellow.png,stim\gray.png,stim\gray.png,stim\gray.png,down,0,0,0,0,0,2,2,2,0,14,14,14,,,,,,,,,,,,,,,,,,,,,,,,,,,214.2817283999757,215.2836343999952,214.2817283999757,215.2836343999952,214.2817283999757,215.2836343999952,214.2817283999757,215.2836343999952,right,0,1.2926292999763973,214.2817283999757,None,214.2817283999757,None,214.2817283999757,214.78332919999957,214.2817283999757,214.78332919999957,214.2817283999757,214.78332919999957,214.2817283999757,214.78332919999957,214.2817283999757,None,,,,,,,,,,,,,,,,,,,,,,,,,,,,,,,,,,,,,,,,,,11005,001,2024_Jan_01_0936,nback,2021.2.3,59.820240174438375,
2-back,instructions\back-2.png,conditions\2back-p.xlsx,instructions\2-BACK.png,practice,2,2,stim\gray.png,stim\yellow.png,stim\gray.png,stim\gray.png,right,0,0,0,0,0,2,2,2,0,15,15,15,,,,,,,,,,,,,,,,,,,,,,,,,,,215.7840272000176,216.78611909999745,215.7840272000176,216.78611909999745,215.7840272000176,216.78611909999745,215.7840272000176,216.78611909999745,up,0,1.2224005999742076,215.7840272000176,None,215.7840272000176,None,215.7840272000176,216.28524280001875,215.7840272000176,216.28524280001875,215.7840272000176,216.28524280001875,215.7840272000176,216.28524280001875,215.7840272000176,None,,,,,,,,,,,,,,,,,,,,,,,,,,,,,,,,,,,,,,,,,,11005,001,2024_Jan_01_0936,nback,2021.2.3,59.820240174438375,
2-back,instructions\back-2.png,conditions\2back-p.xlsx,instructions\2-BACK.png,practice,2,3,stim\gray.png,stim\gray.png,stim\yellow.png,stim\gray.png,up,0,0,0,0,0,2,2,2,0,16,16,16,,,,,,,,,,,,,,,,,,,,,,,,,,,217.28657810000004,218.2881174000213,217.28657810000004,218.2881174000213,217.28657810000004,218.2881174000213,217.28657810000004,218.2881174000213,left,0,1.0326738000148907,217.28657810000004,None,217.28657810000004,None,217.28657810000004,217.78759880003054,217.28657810000004,217.78759880003054,217.28657810000004,217.78759880003054,217.28657810000004,217.78759880003054,217.28657810000004,None,,,,,,,,,,,,,,,,,,,,,,,,,,,,,,,,,,,,,,,,,,11005,001,2024_Jan_01_0936,nback,2021.2.3,59.820240174438375,
2-back,instructions\back-2.png,conditions\2back-p.xlsx,instructions\2-BACK.png,practice,2,1,stim\yellow.png,stim\gray.png,stim\gray.png,stim\gray.png,left,0,0,0,0,0,2,2,2,0,17,17,17,,,,,,,,,,,,,,,,,,,,,,,,,,,218.7883844000171,219.7905173000181,218.7883844000171,219.7905173000181,218.7883844000171,219.7905173000181,218.7883844000171,219.7905173000181,right,0,1.2344317000242881,218.7883844000171,None,218.7883844000171,None,218.7883844000171,219.28991739999037,218.7883844000171,219.28991739999037,218.7883844000171,219.28991739999037,218.7883844000171,219.28991739999037,218.7883844000171,None,,,,,,,,,,,,,,,,,,,,,,,,,,,,,,,,,,,,,,,,,,11005,001,2024_Jan_01_0936,nback,2021.2.3,59.820240174438375,
2-back,instructions\back-2.png,conditions\2back-p.xlsx,instructions\2-BACK.png,practice,2,4,stim\gray.png,stim\gray.png,stim\gray.png,stim\yellow.png,right,0,0,0,0,0,2,2,2,0,18,18,18,,,,,,,,,,,,,,,,,,,,,,,,,,,220.29072520002956,221.2928241000045,220.29072520002956,221.2928241000045,220.29072520002956,221.2928241000045,220.29072520002956,221.2928241000045,None,0,,220.29072520002956,None,220.29072520002956,None,220.29072520002956,220.79202819999773,220.29072520002956,220.79202819999773,220.29072520002956,220.79202819999773,220.29072520002956,220.79202819999773,220.29072520002956,None,,,,,,,,,,,,,,,,,,,,,,,,,,,,,,,,,,,,,,,,,,11005,001,2024_Jan_01_0936,nback,2021.2.3,59.820240174438375,
2-back,instructions\back-2.png,conditions\2back-p.xlsx,instructions\2-BACK.png,practice,2,2,stim\gray.png,stim\yellow.png,stim\gray.png,stim\gray.png,up,0,0,0,0,0,2,2,2,0,19,19,19,,,,,,,,,,,,,,,,,,,,,,,,,,,221.79286310001044,222.79524820001097,221.79286310001044,222.79524820001097,221.79286310001044,222.79524820001097,221.79286310001044,222.79524820001097,None,0,,221.79286310001044,None,221.79286310001044,None,221.79286310001044,222.29479409998748,221.79286310001044,222.29479409998748,221.79286310001044,222.29479409998748,221.79286310001044,222.29479409998748,221.79286310001044,None,,,,,,,,,,,,,,,,,,,,,,,,,,,,,,,,,,,,,,,,,,11005,001,2024_Jan_01_0936,nback,2021.2.3,59.820240174438375,
2-back,instructions\back-2.png,conditions\2back-p.xlsx,instructions\2-BACK.png,,,,,,,,,0,0,0,0,0,2,2,2,,,,,,,,,,,,,,,,,,,,,,,,,,,,,,,,,,,,,,,,,,,,,,,,,,,,,,,,,,,,,,,,,,,,,,,,,,,,,,,,,,,,,,,,,,,,,,,,,11005,001,2024_Jan_01_0936,nback,2021.2.3,59.820240174438375,
,,,,,,,,,,,,0,0,0,0,,,,,,,,,,,,,,,,,,,,,,,,,,,,,,,,,,,,,,,,,,,,,,,,,,,,,,,,,,,,223.29574730002787,None,space,14.431174199969973,223.29574730002787,None,,,,,,,,,,,,,,,,,,,,,,,,,,,,,,,,,,,,11005,001,2024_Jan_01_0936,nback,2021.2.3,59.820240174438375,
,,,,,,,,,,,,,,,,,,,,,,,,,,,,,,,,,,,,,,,,,,,,,,,,,,,,,,,,,,,,,,,,,,,,,,,,,,,,,,,,,237.74984340002993,None,space,17.440710800001398,237.74984340002993,None,,,,,,,,,,,,,,,,,,,,,,,,,,,,,,11005,001,2024_Jan_01_0936,nback,2021.2.3,59.820240174438375,
0-back,instructions\back-0.png,conditions\04back-e.xlsx,,experiment,0,3,stim\gray.png,stim\gray.png,stim\yellow.png,stim\gray.png,right,,,,,,,,,,,,,0,0,0,13,0,0,0,0,,,,,,,,,,,,,,,255.34252629999537,259.8500475999899,259.8165880999877,None,,,,,,,,,,,,,,,,,,,,,,,,,,,,,,,,,,,,,,right,1,0.44514189998153597,260.2331033999799,None,260.2331033999799,None,260.2331033999799,261.2355521999998,260.2331033999799,261.2355521999998,260.2331033999799,261.2355521999998,260.2331033999799,261.2355521999998,260.2331033999799,260.73381810000865,260.2331033999799,260.73381810000865,260.2331033999799,260.73381810000865,260.2331033999799,260.73381810000865,260.2331033999799,None,,,,,11005,001,2024_Jan_01_0936,nback,2021.2.3,59.820240174438375,
0-back,instructions\back-0.png,conditions\04back-e.xlsx,,experiment,0,1,stim\yellow.png,stim\gray.png,stim\gray.png,stim\gray.png,up,,,,,,,,,,,,,0,0,0,13,0,1,1,1,,,,,,,,,,,,,,,,,,,,,,,,,,,,,,,,,,,,,,,,,,,,,,,,,,,,,,,,up,1,0.30347330000950024,261.7190665000235,None,261.7190665000235,None,261.7190665000235,262.72082950000186,261.7190665000235,262.72082950000186,261.7190665000235,262.72082950000186,261.7190665000235,262.72082950000186,261.7190665000235,262.2198379000183,261.7190665000235,262.2198379000183,261.7190665000235,262.2198379000183,261.7190665000235,262.2198379000183,261.7190665000235,None,,,,,11005,001,2024_Jan_01_0936,nback,2021.2.3,59.820240174438375,
0-back,instructions\back-0.png,conditions\04back-e.xlsx,,experiment,0,2,stim\gray.png,stim\yellow.png,stim\gray.png,stim\gray.png,left,,,,,,,,,,,,,0,0,0,13,0,2,2,2,,,,,,,,,,,,,,,,,,,,,,,,,,,,,,,,,,,,,,,,,,,,,,,,,,,,,,,,left,1,0.2740120000089519,263.2208219000022,None,263.2208219000022,None,263.2208219000022,264.223546800029,263.2208219000022,264.223546800029,263.2208219000022,264.223546800029,263.2208219000022,264.223546800029,263.2208219000022,263.72297330002766,263.2208219000022,263.72297330002766,263.2208219000022,263.72297330002766,263.2208219000022,263.72297330002766,263.2208219000022,None,,,,,11005,001,2024_Jan_01_0936,nback,2021.2.3,59.820240174438375,
0-back,instructions\back-0.png,conditions\04back-e.xlsx,,experiment,0,3,stim\gray.png,stim\gray.png,stim\yellow.png,stim\gray.png,right,,,,,,,,,,,,,0,0,0,13,0,3,3,3,,,,,,,,,,,,,,,,,,,,,,,,,,,,,,,,,,,,,,,,,,,,,,,,,,,,,,,,right,1,0.33179500000551343,264.72296739998274,None,264.72296739998274,None,264.72296739998274,265.7257339999778,264.72296739998274,265.7257339999778,264.72296739998274,265.7257339999778,264.72296739998274,265.7257339999778,264.72296739998274,265.22470159997465,264.72296739998274,265.22470159997465,264.72296739998274,265.22470159997465,264.72296739998274,265.22470159997465,264.72296739998274,None,,,,,11005,001,2024_Jan_01_0936,nback,2021.2.3,59.820240174438375,
0-back,instructions\back-0.png,conditions\04back-e.xlsx,,experiment,0,3,stim\gray.png,stim\gray.png,stim\yellow.png,stim\gray.png,right,,,,,,,,,,,,,0,0,0,13,0,4,4,4,,,,,,,,,,,,,,,,,,,,,,,,,,,,,,,,,,,,,,,,,,,,,,,,,,,,,,,,right,1,0.3250116999843158,266.22541600000113,None,266.22541600000113,None,266.22541600000113,267.2298726000008,266.22541600000113,267.2298726000008,266.22541600000113,267.2298726000008,266.22541600000113,267.2298726000008,266.22541600000113,266.72674299997743,266.22541600000113,266.72674299997743,266.22541600000113,266.72674299997743,266.22541600000113,266.72674299997743,266.22541600000113,None,,,,,11005,001,2024_Jan_01_0936,nback,2021.2.3,59.820240174438375,
0-back,instructions\back-0.png,conditions\04back-e.xlsx,,experiment,0,2,stim\gray.png,stim\yellow.png,stim\gray.png,stim\gray.png,left,,,,,,,,,,,,,0,0,0,13,0,5,5,5,,,,,,,,,,,,,,,,,,,,,,,,,,,,,,,,,,,,,,,,,,,,,,,,,,,,,,,,left,1,0.31966759997885674,267.72739389998605,None,267.72739389998605,None,267.72739389998605,268.7298418999999,267.72739389998605,268.7298418999999,267.72739389998605,268.7298418999999,267.72739389998605,268.7298418999999,267.72739389998605,268.2290475000045,267.72739389998605,268.2290475000045,267.72739389998605,268.2290475000045,267.72739389998605,268.2290475000045,267.72739389998605,None,,,,,11005,001,2024_Jan_01_0936,nback,2021.2.3,59.820240174438375,
0-back,instructions\back-0.png,conditions\04back-e.xlsx,,experiment,0,2,stim\gray.png,stim\yellow.png,stim\gray.png,stim\gray.png,left,,,,,,,,,,,,,0,0,0,13,0,6,6,6,,,,,,,,,,,,,,,,,,,,,,,,,,,,,,,,,,,,,,,,,,,,,,,,,,,,,,,,left,1,0.34538370004156604,269.21318730001803,None,269.21318730001803,None,269.21318730001803,270.21540039998945,269.21318730001803,270.21540039998945,269.21318730001803,270.21540039998945,269.21318730001803,270.21540039998945,269.21318730001803,269.7149402999785,269.21318730001803,269.7149402999785,269.21318730001803,269.7149402999785,269.21318730001803,269.7149402999785,269.21318730001803,None,,,,,11005,001,2024_Jan_01_0936,nback,2021.2.3,59.820240174438375,
0-back,instructions\back-0.png,conditions\04back-e.xlsx,,experiment,0,1,stim\yellow.png,stim\gray.png,stim\gray.png,stim\gray.png,up,,,,,,,,,,,,,0,0,0,13,0,7,7,7,,,,,,,,,,,,,,,,,,,,,,,,,,,,,,,,,,,,,,,,,,,,,,,,,,,,,,,,up,1,0.4104733999702148,270.7160488999798,None,270.7160488999798,None,270.7160488999798,271.71719799999846,270.7160488999798,271.71719799999846,270.7160488999798,271.71719799999846,270.7160488999798,271.71719799999846,270.7160488999798,271.21636489999946,270.7160488999798,271.21636489999946,270.7160488999798,271.21636489999946,270.7160488999798,271.21636489999946,270.7160488999798,None,,,,,11005,001,2024_Jan_01_0936,nback,2021.2.3,59.820240174438375,
0-back,instructions\back-0.png,conditions\04back-e.xlsx,,experiment,0,4,stim\gray.png,stim\gray.png,stim\gray.png,stim\yellow.png,down,,,,,,,,,,,,,0,0,0,13,0,8,8,8,,,,,,,,,,,,,,,,,,,,,,,,,,,,,,,,,,,,,,,,,,,,,,,,,,,,,,,,down,1,0.24406310002086684,272.21821770002134,None,272.21821770002134,None,272.21821770002134,273.2198735999991,272.21821770002134,273.2198735999991,272.21821770002134,273.2198735999991,272.21821770002134,273.2198735999991,272.21821770002134,272.71941660001175,272.21821770002134,272.71941660001175,272.21821770002134,272.71941660001175,272.21821770002134,272.71941660001175,272.21821770002134,None,,,,,11005,001,2024_Jan_01_0936,nback,2021.2.3,59.820240174438375,
0-back,instructions\back-0.png,conditions\04back-e.xlsx,,experiment,0,4,stim\gray.png,stim\gray.png,stim\gray.png,stim\yellow.png,down,,,,,,,,,,,,,0,0,0,13,0,9,9,9,,,,,,,,,,,,,,,,,,,,,,,,,,,,,,,,,,,,,,,,,,,,,,,,,,,,,,,,down,1,0.41437640000367537,273.7204499000218,None,273.7204499000218,None,273.7204499000218,274.7215297999792,273.7204499000218,274.7215297999792,273.7204499000218,274.7215297999792,273.7204499000218,274.7215297999792,273.7204499000218,274.2204391999985,273.7204499000218,274.2204391999985,273.7204499000218,274.2204391999985,273.7204499000218,274.2204391999985,273.7204499000218,None,,,,,11005,001,2024_Jan_01_0936,nback,2021.2.3,59.820240174438375,
0-back,instructions\back-0.png,conditions\04back-e.xlsx,,experiment,0,1,stim\yellow.png,stim\gray.png,stim\gray.png,stim\gray.png,up,,,,,,,,,,,,,0,0,0,13,0,10,10,10,,,,,,,,,,,,,,,,,,,,,,,,,,,,,,,,,,,,,,,,,,,,,,,,,,,,,,,,up,1,0.3197027999558486,275.2228062999784,None,275.2228062999784,None,275.2228062999784,276.2237964000087,275.2228062999784,276.2237964000087,275.2228062999784,276.2237964000087,275.2228062999784,276.2237964000087,275.2228062999784,275.723379699979,275.2228062999784,275.723379699979,275.2228062999784,275.723379699979,275.2228062999784,275.723379699979,275.2228062999784,None,,,,,11005,001,2024_Jan_01_0936,nback,2021.2.3,59.820240174438375,
0-back,instructions\back-0.png,conditions\04back-e.xlsx,,experiment,0,4,stim\gray.png,stim\gray.png,stim\gray.png,stim\yellow.png,down,,,,,,,,,,,,,0,0,0,13,0,11,11,11,,,,,,,,,,,,,,,,,,,,,,,,,,,,,,,,,,,,,,,,,,,,,,,,,,,,,,,,down,1,0.4992259999853559,276.72407779999776,None,276.72407779999776,None,276.72407779999776,277.72628140001325,276.72407779999776,277.72628140001325,276.72407779999776,277.72628140001325,276.72407779999776,277.72628140001325,276.72407779999776,277.22525110002607,276.72407779999776,277.22525110002607,276.72407779999776,277.22525110002607,276.72407779999776,277.22525110002607,276.72407779999776,None,,,,,11005,001,2024_Jan_01_0936,nback,2021.2.3,59.820240174438375,
0-back,instructions\back-0.png,conditions\04back-e.xlsx,,experiment,0,1,stim\yellow.png,stim\gray.png,stim\gray.png,stim\gray.png,up,,,,,,,,,,,,,0,0,0,13,0,12,12,12,,,,,,,,,,,,,,,,,,,,,,,,,,,,,,,,,,,,,,,,,,,,,,,,,,,,,,,,up,1,0.2997713000513613,278.2266254000133,None,278.2266254000133,None,278.2266254000133,279.22809920000145,278.2266254000133,279.22809920000145,278.2266254000133,279.22809920000145,278.2266254000133,279.22809920000145,278.2266254000133,278.7279453999945,278.2266254000133,278.7279453999945,278.2266254000133,278.7279453999945,278.2266254000133,278.7279453999945,278.2266254000133,None,,,,,11005,001,2024_Jan_01_0936,nback,2021.2.3,59.820240174438375,
0-back,instructions\back-0.png,conditions\04back-e.xlsx,,experiment,0,3,stim\gray.png,stim\gray.png,stim\yellow.png,stim\gray.png,right,,,,,,,,,,,,,0,0,0,13,0,13,13,13,,,,,,,,,,,,,,,,,,,,,,,,,,,,,,,,,,,,,,,,,,,,,,,,,,,,,,,,right,1,0.2776969999540597,279.71271659998456,None,279.71271659998456,None,279.71271659998456,280.7137662000023,279.71271659998456,280.7137662000023,279.71271659998456,280.7137662000023,279.71271659998456,280.7137662000023,279.71271659998456,280.2129872000078,279.71271659998456,280.2129872000078,279.71271659998456,280.2129872000078,279.71271659998456,280.2129872000078,279.71271659998456,None,,,,,11005,001,2024_Jan_01_0936,nback,2021.2.3,59.820240174438375,
0-back,instructions\back-0.png,conditions\04back-e.xlsx,,experiment,0,4,stim\gray.png,stim\gray.png,stim\gray.png,stim\yellow.png,down,,,,,,,,,,,,,0,0,0,13,0,14,14,14,,,,,,,,,,,,,,,,,,,,,,,,,,,,,,,,,,,,,,,,,,,,,,,,,,,,,,,,down,1,0.375749500002712,281.21474660001695,None,281.21474660001695,None,281.21474660001695,282.2167358000297,281.21474660001695,282.2167358000297,281.21474660001695,282.2167358000297,281.21474660001695,282.2167358000297,281.21474660001695,281.7152300000307,281.21474660001695,281.7152300000307,281.21474660001695,281.7152300000307,281.21474660001695,281.7152300000307,281.21474660001695,None,,,,,11005,001,2024_Jan_01_0936,nback,2021.2.3,59.820240174438375,
0-back,instructions\back-0.png,conditions\04back-e.xlsx,,experiment,0,1,stim\yellow.png,stim\gray.png,stim\gray.png,stim\gray.png,up,,,,,,,,,,,,,0,0,0,13,0,15,15,15,,,,,,,,,,,,,,,,,,,,,,,,,,,,,,,,,,,,,,,,,,,,,,,,,,,,,,,,up,1,0.34534580004401505,282.7171462000115,None,282.7171462000115,None,282.7171462000115,283.71894440002507,282.7171462000115,283.71894440002507,282.7171462000115,283.71894440002507,282.7171462000115,283.71894440002507,282.7171462000115,283.21795379999094,282.7171462000115,283.21795379999094,282.7171462000115,283.21795379999094,282.7171462000115,283.21795379999094,282.7171462000115,None,,,,,11005,001,2024_Jan_01_0936,nback,2021.2.3,59.820240174438375,
0-back,instructions\back-0.png,conditions\04back-e.xlsx,,experiment,0,2,stim\gray.png,stim\yellow.png,stim\gray.png,stim\gray.png,left,,,,,,,,,,,,,0,0,0,13,0,16,16,16,,,,,,,,,,,,,,,,,,,,,,,,,,,,,,,,,,,,,,,,,,,,,,,,,,,,,,,,left,1,0.25957609998295084,284.2190003999858,None,284.2190003999858,None,284.2190003999858,285.2209751000046,284.2190003999858,285.2209751000046,284.2190003999858,285.2209751000046,284.2190003999858,285.2209751000046,284.2190003999858,284.72007709997706,284.2190003999858,284.72007709997706,284.2190003999858,284.72007709997706,284.2190003999858,284.72007709997706,284.2190003999858,None,,,,,11005,001,2024_Jan_01_0936,nback,2021.2.3,59.820240174438375,
0-back,instructions\back-0.png,conditions\04back-e.xlsx,,experiment,0,3,stim\gray.png,stim\gray.png,stim\yellow.png,stim\gray.png,right,,,,,,,,,,,,,0,0,0,13,0,17,17,17,,,,,,,,,,,,,,,,,,,,,,,,,,,,,,,,,,,,,,,,,,,,,,,,,,,,,,,,right,1,0.24980290001258254,285.72448999999324,None,285.72448999999324,None,285.72448999999324,286.7396152000292,285.72448999999324,286.7396152000292,285.72448999999324,286.7396152000292,285.72448999999324,286.7396152000292,285.72448999999324,286.23839620000217,285.72448999999324,286.23839620000217,285.72448999999324,286.23839620000217,285.72448999999324,286.23839620000217,285.72448999999324,None,,,,,11005,001,2024_Jan_01_0936,nback,2021.2.3,59.820240174438375,
0-back,instructions\back-0.png,conditions\04back-e.xlsx,,experiment,0,2,stim\gray.png,stim\yellow.png,stim\gray.png,stim\gray.png,left,,,,,,,,,,,,,0,0,0,13,0,18,18,18,,,,,,,,,,,,,,,,,,,,,,,,,,,,,,,,,,,,,,,,,,,,,,,,,,,,,,,,left,1,0.2713260999880731,287.223236299993,None,287.223236299993,None,287.223236299993,288.2253892000299,287.223236299993,288.2253892000299,287.223236299993,288.2253892000299,287.223236299993,288.2253892000299,287.223236299993,287.7248203000054,287.223236299993,287.7248203000054,287.223236299993,287.7248203000054,287.223236299993,287.7248203000054,287.223236299993,None,,,,,11005,001,2024_Jan_01_0936,nback,2021.2.3,59.820240174438375,
0-back,instructions\back-0.png,conditions\04back-e.xlsx,,experiment,0,4,stim\gray.png,stim\gray.png,stim\gray.png,stim\yellow.png,down,,,,,,,,,,,,,0,0,0,13,0,19,19,19,,,,,,,,,,,,,,,,,,,,,,,,,,,,,,,,,,,,,,,,,,,,,,,,,,,,,,,,down,1,0.3456525999936275,288.72538409999106,None,288.72538409999106,None,288.72538409999106,289.72723090002546,288.72538409999106,289.72723090002546,288.72538409999106,289.72723090002546,288.72538409999106,289.72723090002546,288.72538409999106,289.22600949998014,288.72538409999106,289.22600949998014,288.72538409999106,289.22600949998014,288.72538409999106,289.22600949998014,288.72538409999106,None,,,,,11005,001,2024_Jan_01_0936,nback,2021.2.3,59.820240174438375,
0-back,instructions\back-0.png,conditions\04back-e.xlsx,,,,,,,,,,,,,,,,,,,,,,0,0,0,13,,,,,,,,,,,,,,,,,,,,,,,,,,,,,,,,,,,,,,,,,,,,,,,,,,,,,,,,,,,,,,,,,,,,,,,,,,,,,,,,,,,,,290.22763709997525,None,,,11005,001,2024_Jan_01_0936,nback,2021.2.3,59.820240174438375,
2-back,instructions\back-2.png,conditions\24back-e.xlsx,,experiment,2,1,stim\yellow.png,stim\gray.png,stim\gray.png,stim\gray.png,None,,,,,,,,,,,,,0,1,1,12,0,0,0,0,,,,,,,,,,,,,,,291.32915930001764,295.8377369000227,295.80335160001414,None,,,,,,,,,,,,,,,,,,,,,,,,,,,,,,,,,,,,,,None,1,,296.2378964999807,None,296.2378964999807,None,296.2378964999807,297.2381050999975,296.2378964999807,297.2381050999975,296.2378964999807,297.2381050999975,296.2378964999807,297.2381050999975,296.2378964999807,296.7379563000286,296.2378964999807,296.7379563000286,296.2378964999807,296.7379563000286,296.2378964999807,296.7379563000286,296.2378964999807,None,,,,,11005,001,2024_Jan_01_0936,nback,2021.2.3,59.820240174438375,
2-back,instructions\back-2.png,conditions\24back-e.xlsx,,experiment,2,2,stim\gray.png,stim\yellow.png,stim\gray.png,stim\gray.png,None,,,,,,,,,,,,,0,1,1,12,0,1,1,1,,,,,,,,,,,,,,,,,,,,,,,,,,,,,,,,,,,,,,,,,,,,,,,,,,,,,,,,None,1,,297.72211999999126,None,297.72211999999126,None,297.72211999999126,298.72417719999794,297.72211999999126,298.72417719999794,297.72211999999126,298.72417719999794,297.72211999999126,298.72417719999794,297.72211999999126,298.2235855999752,297.72211999999126,298.2235855999752,297.72211999999126,298.2235855999752,297.72211999999126,298.2235855999752,297.72211999999126,None,,,,,11005,001,2024_Jan_01_0936,nback,2021.2.3,59.820240174438375,
2-back,instructions\back-2.png,conditions\24back-e.xlsx,,experiment,2,1,stim\yellow.png,stim\gray.png,stim\gray.png,stim\gray.png,up,,,,,,,,,,,,,0,1,1,12,0,2,2,2,,,,,,,,,,,,,,,,,,,,,,,,,,,,,,,,,,,,,,,,,,,,,,,,,,,,,,,,up,1,0.3262821999960579,299.22419690003153,None,299.22419690003153,None,299.22419690003153,300.2267343000276,299.22419690003153,300.2267343000276,299.22419690003153,300.2267343000276,299.22419690003153,300.2267343000276,299.22419690003153,299.72530130000087,299.22419690003153,299.72530130000087,299.22419690003153,299.72530130000087,299.22419690003153,299.72530130000087,299.22419690003153,None,,,,,11005,001,2024_Jan_01_0936,nback,2021.2.3,59.820240174438375,
2-back,instructions\back-2.png,conditions\24back-e.xlsx,,experiment,2,4,stim\gray.png,stim\gray.png,stim\gray.png,stim\yellow.png,left,,,,,,,,,,,,,0,1,1,12,0,3,3,3,,,,,,,,,,,,,,,,,,,,,,,,,,,,,,,,,,,,,,,,,,,,,,,,,,,,,,,,left,1,0.8073967000236735,300.72714350000024,None,300.72714350000024,None,300.72714350000024,301.7279507999774,300.72714350000024,301.7279507999774,300.72714350000024,301.7279507999774,300.72714350000024,301.7279507999774,300.72714350000024,301.2281510999892,300.72714350000024,301.2281510999892,300.72714350000024,301.2281510999892,300.72714350000024,301.2281510999892,300.72714350000024,None,,,,,11005,001,2024_Jan_01_0936,nback,2021.2.3,59.820240174438375,
2-back,instructions\back-2.png,conditions\24back-e.xlsx,,experiment,2,3,stim\gray.png,stim\gray.png,stim\yellow.png,stim\gray.png,up,,,,,,,,,,,,,0,1,1,12,0,4,4,4,,,,,,,,,,,,,,,,,,,,,,,,,,,,,,,,,,,,,,,,,,,,,,,,,,,,,,,,up,1,0.30603769997833297,302.22856409999076,None,302.22856409999076,None,302.22856409999076,303.2308335999842,302.22856409999076,303.2308335999842,302.22856409999076,303.2308335999842,302.22856409999076,303.2308335999842,302.22856409999076,302.73049170000013,302.22856409999076,302.73049170000013,302.22856409999076,302.73049170000013,302.22856409999076,302.73049170000013,302.22856409999076,None,,,,,11005,001,2024_Jan_01_0936,nback,2021.2.3,59.820240174438375,
2-back,instructions\back-2.png,conditions\24back-e.xlsx,,experiment,2,4,stim\gray.png,stim\gray.png,stim\gray.png,stim\yellow.png,down,,,,,,,,,,,,,0,1,1,12,0,5,5,5,,,,,,,,,,,,,,,,,,,,,,,,,,,,,,,,,,,,,,,,,,,,,,,,,,,,,,,,down,1,0.21937240002444014,303.7152217000257,None,303.7152217000257,None,303.7152217000257,304.7165536999819,303.7152217000257,304.7165536999819,303.7152217000257,304.7165536999819,303.7152217000257,304.7165536999819,303.7152217000257,304.2149294000119,303.7152217000257,304.2149294000119,303.7152217000257,304.2149294000119,303.7152217000257,304.2149294000119,303.7152217000257,None,,,,,11005,001,2024_Jan_01_0936,nback,2021.2.3,59.820240174438375,
2-back,instructions\back-2.png,conditions\24back-e.xlsx,,experiment,2,3,stim\gray.png,stim\gray.png,stim\yellow.png,stim\gray.png,right,,,,,,,,,,,,,0,1,1,12,0,6,6,6,,,,,,,,,,,,,,,,,,,,,,,,,,,,,,,,,,,,,,,,,,,,,,,,,,,,,,,,right,1,0.17334159999154508,305.2168053999776,None,305.2168053999776,None,305.2168053999776,306.2183151000063,305.2168053999776,306.2183151000063,305.2168053999776,306.2183151000063,305.2168053999776,306.2183151000063,305.2168053999776,305.71801970002707,305.2168053999776,305.71801970002707,305.2168053999776,305.71801970002707,305.2168053999776,305.71801970002707,305.2168053999776,None,,,,,11005,001,2024_Jan_01_0936,nback,2021.2.3,59.820240174438375,
2-back,instructions\back-2.png,conditions\24back-e.xlsx,,experiment,2,2,stim\gray.png,stim\yellow.png,stim\gray.png,stim\gray.png,down,,,,,,,,,,,,,0,1,1,12,0,7,7,7,,,,,,,,,,,,,,,,,,,,,,,,,,,,,,,,,,,,,,,,,,,,,,,,,,,,,,,,down,1,0.1520001000026241,306.71874989999924,None,306.71874989999924,None,306.71874989999924,307.72087560000364,306.71874989999924,307.72087560000364,306.71874989999924,307.72087560000364,306.71874989999924,307.72087560000364,306.71874989999924,307.22079589997884,306.71874989999924,307.22079589997884,306.71874989999924,307.22079589997884,306.71874989999924,307.22079589997884,306.71874989999924,None,,,,,11005,001,2024_Jan_01_0936,nback,2021.2.3,59.820240174438375,
2-back,instructions\back-2.png,conditions\24back-e.xlsx,,experiment,2,4,stim\gray.png,stim\gray.png,stim\gray.png,stim\yellow.png,right,,,,,,,,,,,,,0,1,1,12,0,8,8,8,,,,,,,,,,,,,,,,,,,,,,,,,,,,,,,,,,,,,,,,,,,,,,,,,,,,,,,,left,0,0.24146560003282502,308.22104580001906,None,308.22104580001906,None,308.22104580001906,309.2230207999819,308.22104580001906,309.2230207999819,308.22104580001906,309.2230207999819,308.22104580001906,309.2230207999819,308.22104580001906,308.7224923999747,308.22104580001906,308.7224923999747,308.22104580001906,308.7224923999747,308.22104580001906,308.7224923999747,308.22104580001906,None,,,,,11005,001,2024_Jan_01_0936,nback,2021.2.3,59.820240174438375,
2-back,instructions\back-2.png,conditions\24back-e.xlsx,,experiment,2,1,stim\yellow.png,stim\gray.png,stim\gray.png,stim\gray.png,left,,,,,,,,,,,,,0,1,1,12,0,9,9,9,,,,,,,,,,,,,,,,,,,,,,,,,,,,,,,,,,,,,,,,,,,,,,,,,,,,,,,,down,0,0.36313460004748777,309.7235343999928,None,309.7235343999928,None,309.7235343999928,310.7251464999863,309.7235343999928,310.7251464999863,309.7235343999928,310.7251464999863,309.7235343999928,310.7251464999863,309.7235343999928,310.22468220000155,309.7235343999928,310.22468220000155,309.7235343999928,310.22468220000155,309.7235343999928,310.22468220000155,309.7235343999928,None,,,,,11005,001,2024_Jan_01_0936,nback,2021.2.3,59.820240174438375,
2-back,instructions\back-2.png,conditions\24back-e.xlsx,,experiment,2,3,stim\gray.png,stim\gray.png,stim\yellow.png,stim\gray.png,down,,,,,,,,,,,,,0,1,1,12,0,10,10,10,,,,,,,,,,,,,,,,,,,,,,,,,,,,,,,,,,,,,,,,,,,,,,,,,,,,,,,,None,0,,311.2266875000205,None,311.2266875000205,None,311.2266875000205,312.22728729998926,311.2266875000205,312.22728729998926,311.2266875000205,312.22728729998926,311.2266875000205,312.22728729998926,311.2266875000205,311.72636259999126,311.2266875000205,311.72636259999126,311.2266875000205,311.72636259999126,311.2266875000205,311.72636259999126,311.2266875000205,None,,,,,11005,001,2024_Jan_01_0936,nback,2021.2.3,59.820240174438375,
2-back,instructions\back-2.png,conditions\24back-e.xlsx,,experiment,2,1,stim\yellow.png,stim\gray.png,stim\gray.png,stim\gray.png,up,,,,,,,,,,,,,0,1,1,12,0,11,11,11,,,,,,,,,,,,,,,,,,,,,,,,,,,,,,,,,,,,,,,,,,,,,,,,,,,,,,,,up,1,0.3020610000239685,312.72818299999926,None,312.72818299999926,None,312.72818299999926,313.7299232999794,312.72818299999926,313.7299232999794,312.72818299999926,313.7299232999794,312.72818299999926,313.7299232999794,312.72818299999926,313.22886939998716,312.72818299999926,313.22886939998716,312.72818299999926,313.22886939998716,312.72818299999926,313.22886939998716,312.72818299999926,None,,,,,11005,001,2024_Jan_01_0936,nback,2021.2.3,59.820240174438375,
2-back,instructions\back-2.png,conditions\24back-e.xlsx,,experiment,2,2,stim\gray.png,stim\yellow.png,stim\gray.png,stim\gray.png,right,,,,,,,,,,,,,0,1,1,12,0,12,12,12,,,,,,,,,,,,,,,,,,,,,,,,,,,,,,,,,,,,,,,,,,,,,,,,,,,,,,,,right,1,0.2969944999786094,314.21377839997876,None,314.21377839997876,None,314.21377839997876,315.21533859998453,314.21377839997876,315.21533859998453,314.21377839997876,315.21533859998453,314.21377839997876,315.21533859998453,314.21377839997876,314.7141081999871,314.21377839997876,314.7141081999871,314.21377839997876,314.7141081999871,314.21377839997876,314.7141081999871,314.21377839997876,None,,,,,11005,001,2024_Jan_01_0936,nback,2021.2.3,59.820240174438375,
2-back,instructions\back-2.png,conditions\24back-e.xlsx,,experiment,2,4,stim\gray.png,stim\gray.png,stim\gray.png,stim\yellow.png,up,,,,,,,,,,,,,0,1,1,12,0,13,13,13,,,,,,,,,,,,,,,,,,,,,,,,,,,,,,,,,,,,,,,,,,,,,,,,,,,,,,,,up,1,0.22687710000900552,315.7154132000287,None,315.7154132000287,None,315.7154132000287,316.71711760002654,315.7154132000287,316.71711760002654,315.7154132000287,316.71711760002654,315.7154132000287,316.71711760002654,315.7154132000287,316.21685550000984,315.7154132000287,316.21685550000984,315.7154132000287,316.21685550000984,315.7154132000287,316.21685550000984,315.7154132000287,None,,,,,11005,001,2024_Jan_01_0936,nback,2021.2.3,59.820240174438375,
2-back,instructions\back-2.png,conditions\24back-e.xlsx,,experiment,2,3,stim\gray.png,stim\gray.png,stim\yellow.png,stim\gray.png,left,,,,,,,,,,,,,0,1,1,12,0,14,14,14,,,,,,,,,,,,,,,,,,,,,,,,,,,,,,,,,,,,,,,,,,,,,,,,,,,,,,,,left,1,0.37271540000801906,317.21821590000764,None,317.21821590000764,None,317.21821590000764,318.2194283999852,317.21821590000764,318.2194283999852,317.21821590000764,318.2194283999852,317.21821590000764,318.2194283999852,317.21821590000764,317.7190871000057,317.21821590000764,317.7190871000057,317.21821590000764,317.7190871000057,317.21821590000764,317.7190871000057,317.21821590000764,None,,,,,11005,001,2024_Jan_01_0936,nback,2021.2.3,59.820240174438375,
2-back,instructions\back-2.png,conditions\24back-e.xlsx,,experiment,2,2,stim\gray.png,stim\yellow.png,stim\gray.png,stim\gray.png,down,,,,,,,,,,,,,0,1,1,12,0,15,15,15,,,,,,,,,,,,,,,,,,,,,,,,,,,,,,,,,,,,,,,,,,,,,,,,,,,,,,,,down,1,0.29350030003115535,318.7208297000034,None,318.7208297000034,None,318.7208297000034,319.7216000999906,318.7208297000034,319.7216000999906,318.7208297000034,319.7216000999906,318.7208297000034,319.7216000999906,318.7208297000034,319.2212372000213,318.7208297000034,319.2212372000213,318.7208297000034,319.2212372000213,318.7208297000034,319.2212372000213,318.7208297000034,None,,,,,11005,001,2024_Jan_01_0936,nback,2021.2.3,59.820240174438375,
2-back,instructions\back-2.png,conditions\24back-e.xlsx,,experiment,2,4,stim\gray.png,stim\gray.png,stim\gray.png,stim\yellow.png,right,,,,,,,,,,,,,0,1,1,12,0,16,16,16,,,,,,,,,,,,,,,,,,,,,,,,,,,,,,,,,,,,,,,,,,,,,,,,,,,,,,,,right,1,0.30501700000604615,320.2219120999798,None,320.2219120999798,None,320.2219120999798,321.22463980002794,320.2219120999798,321.22463980002794,320.2219120999798,321.22463980002794,320.2219120999798,321.22463980002794,320.2219120999798,320.7229111000197,320.2219120999798,320.7229111000197,320.2219120999798,320.7229111000197,320.2219120999798,320.7229111000197,320.2219120999798,None,,,,,11005,001,2024_Jan_01_0936,nback,2021.2.3,59.820240174438375,
2-back,instructions\back-2.png,conditions\24back-e.xlsx,,experiment,2,3,stim\gray.png,stim\gray.png,stim\yellow.png,stim\gray.png,left,,,,,,,,,,,,,0,1,1,12,0,17,17,17,,,,,,,,,,,,,,,,,,,,,,,,,,,,,,,,,,,,,,,,,,,,,,,,,,,,,,,,left,1,0.23476370004937053,321.72464179998497,None,321.72464179998497,None,321.72464179998497,322.72611579997465,321.72464179998497,322.72611579997465,321.72464179998497,322.72611579997465,321.72464179998497,322.72611579997465,321.72464179998497,322.22577269998146,321.72464179998497,322.22577269998146,321.72464179998497,322.22577269998146,321.72464179998497,322.22577269998146,321.72464179998497,None,,,,,11005,001,2024_Jan_01_0936,nback,2021.2.3,59.820240174438375,
2-back,instructions\back-2.png,conditions\24back-e.xlsx,,experiment,2,1,stim\yellow.png,stim\gray.png,stim\gray.png,stim\gray.png,down,,,,,,,,,,,,,0,1,1,12,0,18,18,18,,,,,,,,,,,,,,,,,,,,,,,,,,,,,,,,,,,,,,,,,,,,,,,,,,,,,,,,down,1,0.2517652999958955,323.2265076999902,None,323.2265076999902,None,323.2265076999902,324.2283914000145,323.2265076999902,324.2283914000145,323.2265076999902,324.2283914000145,323.2265076999902,324.2283914000145,323.2265076999902,323.72735900001135,323.2265076999902,323.72735900001135,323.2265076999902,323.72735900001135,323.2265076999902,323.72735900001135,323.2265076999902,None,,,,,11005,001,2024_Jan_01_0936,nback,2021.2.3,59.820240174438375,
2-back,instructions\back-2.png,conditions\24back-e.xlsx,,experiment,2,2,stim\gray.png,stim\yellow.png,stim\gray.png,stim\gray.png,right,,,,,,,,,,,,,0,1,1,12,0,19,19,19,,,,,,,,,,,,,,,,,,,,,,,,,,,,,,,,,,,,,,,,,,,,,,,,,,,,,,,,right,1,0.20526049996260554,324.7294983000029,None,324.7294983000029,None,324.7294983000029,325.7311310999794,324.7294983000029,325.7311310999794,324.7294983000029,325.7311310999794,324.7294983000029,325.7311310999794,324.7294983000029,325.23008080001455,324.7294983000029,325.23008080001455,324.7294983000029,325.23008080001455,324.7294983000029,325.23008080001455,324.7294983000029,None,,,,,11005,001,2024_Jan_01_0936,nback,2021.2.3,59.820240174438375,
2-back,instructions\back-2.png,conditions\24back-e.xlsx,,,,,,,,,,,,,,,,,,,,,,0,1,1,12,,,,,,,,,,,,,,,,,,,,,,,,,,,,,,,,,,,,,,,,,,,,,,,,,,,,,,,,,,,,,,,,,,,,,,,,,,,,,,,,,,,,,326.2146104000276,None,,,11005,001,2024_Jan_01_0936,nback,2021.2.3,59.820240174438375,
2-back,instructions\back-2.png,conditions\22back-e.xlsx,,experiment,2,2,stim\gray.png,stim\yellow.png,stim\gray.png,stim\gray.png,None,,,,,,,,,,,,,0,2,2,8,0,0,0,0,,,,,,,,,,,,,,,327.3158047000179,331.8230503000086,331.79189029999543,None,,,,,,,,,,,,,,,,,,,,,,,,,,,,,,,,,,,,,,None,1,,332.2407376000192,None,332.2407376000192,None,332.2407376000192,333.2426268000272,332.2407376000192,333.2426268000272,332.2407376000192,333.2426268000272,332.2407376000192,333.2426268000272,332.2407376000192,332.74139929999365,332.2407376000192,332.74139929999365,332.2407376000192,332.74139929999365,332.2407376000192,332.74139929999365,332.2407376000192,None,,,,,11005,001,2024_Jan_01_0936,nback,2021.2.3,59.820240174438375,
2-back,instructions\back-2.png,conditions\22back-e.xlsx,,experiment,2,3,stim\gray.png,stim\gray.png,stim\yellow.png,stim\gray.png,None,,,,,,,,,,,,,0,2,2,8,0,1,1,1,,,,,,,,,,,,,,,,,,,,,,,,,,,,,,,,,,,,,,,,,,,,,,,,,,,,,,,,None,1,,333.7253488000133,None,333.7253488000133,None,333.7253488000133,334.72837209998397,333.7253488000133,334.72837209998397,333.7253488000133,334.72837209998397,333.7253488000133,334.72837209998397,333.7253488000133,334.22669899999164,333.7253488000133,334.22669899999164,333.7253488000133,334.22669899999164,333.7253488000133,334.22669899999164,333.7253488000133,None,,,,,11005,001,2024_Jan_01_0936,nback,2021.2.3,59.820240174438375,
2-back,instructions\back-2.png,conditions\22back-e.xlsx,,experiment,2,1,stim\yellow.png,stim\gray.png,stim\gray.png,stim\gray.png,left,,,,,,,,,,,,,0,2,2,8,0,2,2,2,,,,,,,,,,,,,,,,,,,,,,,,,,,,,,,,,,,,,,,,,,,,,,,,,,,,,,,,left,1,0.2271513000014238,335.22741689998657,None,335.22741689998657,None,335.22741689998657,336.2292095000157,335.22741689998657,336.2292095000157,335.22741689998657,336.2292095000157,335.22741689998657,336.2292095000157,335.22741689998657,335.7285176999867,335.22741689998657,335.7285176999867,335.22741689998657,335.7285176999867,335.22741689998657,335.7285176999867,335.22741689998657,None,,,,,11005,001,2024_Jan_01_0936,nback,2021.2.3,59.820240174438375,
2-back,instructions\back-2.png,conditions\22back-e.xlsx,,experiment,2,2,stim\gray.png,stim\yellow.png,stim\gray.png,stim\gray.png,right,,,,,,,,,,,,,0,2,2,8,0,3,3,3,,,,,,,,,,,,,,,,,,,,,,,,,,,,,,,,,,,,,,,,,,,,,,,,,,,,,,,,right,1,0.17391379998298362,336.7129711000016,None,336.7129711000016,None,336.7129711000016,337.71510339999804,336.7129711000016,337.71510339999804,336.7129711000016,337.71510339999804,336.7129711000016,337.71510339999804,336.7129711000016,337.21470160002355,336.7129711000016,337.21470160002355,336.7129711000016,337.21470160002355,336.7129711000016,337.21470160002355,336.7129711000016,None,,,,,11005,001,2024_Jan_01_0936,nback,2021.2.3,59.820240174438375,
2-back,instructions\back-2.png,conditions\22back-e.xlsx,,experiment,2,1,stim\yellow.png,stim\gray.png,stim\gray.png,stim\gray.png,up,,,,,,,,,,,,,0,2,2,8,0,4,4,4,,,,,,,,,,,,,,,,,,,,,,,,,,,,,,,,,,,,,,,,,,,,,,,,,,,,,,,,up,1,0.15917360002640635,338.21532199997455,None,338.21532199997455,None,338.21532199997455,339.2178517000284,338.21532199997455,339.2178517000284,338.21532199997455,339.2178517000284,338.21532199997455,339.2178517000284,338.21532199997455,338.7163048000075,338.21532199997455,338.7163048000075,338.21532199997455,338.7163048000075,338.21532199997455,338.7163048000075,338.21532199997455,None,,,,,11005,001,2024_Jan_01_0936,nback,2021.2.3,59.820240174438375,
2-back,instructions\back-2.png,conditions\22back-e.xlsx,,experiment,2,4,stim\gray.png,stim\gray.png,stim\gray.png,stim\yellow.png,left,,,,,,,,,,,,,0,2,2,8,0,5,5,5,,,,,,,,,,,,,,,,,,,,,,,,,,,,,,,,,,,,,,,,,,,,,,,,,,,,,,,,left,1,0.20873150002444163,339.7178646000102,None,339.7178646000102,None,339.7178646000102,340.71986060001655,339.7178646000102,340.71986060001655,339.7178646000102,340.71986060001655,339.7178646000102,340.71986060001655,339.7178646000102,340.21840369998245,339.7178646000102,340.21840369998245,339.7178646000102,340.21840369998245,339.7178646000102,340.21840369998245,339.7178646000102,None,,,,,11005,001,2024_Jan_01_0936,nback,2021.2.3,59.820240174438375,
2-back,instructions\back-2.png,conditions\22back-e.xlsx,,experiment,2,3,stim\gray.png,stim\gray.png,stim\yellow.png,stim\gray.png,up,,,,,,,,,,,,,0,2,2,8,0,6,6,6,,,,,,,,,,,,,,,,,,,,,,,,,,,,,,,,,,,,,,,,,,,,,,,,,,,,,,,,up,1,0.21860239998204634,341.2202841999824,None,341.2202841999824,None,341.2202841999824,342.22155890002614,341.2202841999824,342.22155890002614,341.2202841999824,342.22155890002614,341.2202841999824,342.22155890002614,341.2202841999824,341.7208112999797,341.2202841999824,341.7208112999797,341.2202841999824,341.7208112999797,341.2202841999824,341.7208112999797,341.2202841999824,None,,,,,11005,001,2024_Jan_01_0936,nback,2021.2.3,59.820240174438375,
2-back,instructions\back-2.png,conditions\22back-e.xlsx,,experiment,2,1,stim\yellow.png,stim\gray.png,stim\gray.png,stim\gray.png,down,,,,,,,,,,,,,0,2,2,8,0,7,7,7,,,,,,,,,,,,,,,,,,,,,,,,,,,,,,,,,,,,,,,,,,,,,,,,,,,,,,,,down,1,0.19677079998655245,342.7220311000128,None,342.7220311000128,None,342.7220311000128,343.72508689999813,342.7220311000128,343.72508689999813,342.7220311000128,343.72508689999813,342.7220311000128,343.72508689999813,342.7220311000128,343.2233750000014,342.7220311000128,343.2233750000014,342.7220311000128,343.2233750000014,342.7220311000128,343.2233750000014,342.7220311000128,None,,,,,11005,001,2024_Jan_01_0936,nback,2021.2.3,59.820240174438375,
2-back,instructions\back-2.png,conditions\22back-e.xlsx,,experiment,2,2,stim\gray.png,stim\yellow.png,stim\gray.png,stim\gray.png,right,,,,,,,,,,,,,0,2,2,8,0,8,8,8,,,,,,,,,,,,,,,,,,,,,,,,,,,,,,,,,,,,,,,,,,,,,,,,,,,,,,,,right,1,0.20606250001583248,344.22477540001273,None,344.22477540001273,None,344.22477540001273,345.2258244000259,344.22477540001273,345.2258244000259,344.22477540001273,345.2258244000259,344.22477540001273,345.2258244000259,344.22477540001273,344.72525349998614,344.22477540001273,344.72525349998614,344.22477540001273,344.72525349998614,344.22477540001273,344.72525349998614,344.22477540001273,None,,,,,11005,001,2024_Jan_01_0936,nback,2021.2.3,59.820240174438375,
2-back,instructions\back-2.png,conditions\22back-e.xlsx,,experiment,2,1,stim\yellow.png,stim\gray.png,stim\gray.png,stim\gray.png,up,,,,,,,,,,,,,0,2,2,8,0,9,9,9,,,,,,,,,,,,,,,,,,,,,,,,,,,,,,,,,,,,,,,,,,,,,,,,,,,,,,,,up,1,0.19190150004578754,345.72665780002717,None,345.72665780002717,None,345.72665780002717,346.72870590002276,345.72665780002717,346.72870590002276,345.72665780002717,346.72870590002276,345.72665780002717,346.72870590002276,345.72665780002717,346.22719110001344,345.72665780002717,346.22719110001344,345.72665780002717,346.22719110001344,345.72665780002717,346.22719110001344,345.72665780002717,None,,,,,11005,001,2024_Jan_01_0936,nback,2021.2.3,59.820240174438375,
2-back,instructions\back-2.png,conditions\22back-e.xlsx,,experiment,2,4,stim\gray.png,stim\gray.png,stim\gray.png,stim\yellow.png,left,,,,,,,,,,,,,0,2,2,8,0,10,10,10,,,,,,,,,,,,,,,,,,,,,,,,,,,,,,,,,,,,,,,,,,,,,,,,,,,,,,,,left,1,0.14608209999278188,347.22891060000984,None,347.22891060000984,None,347.22891060000984,348.23075039999094,347.22891060000984,348.23075039999094,347.22891060000984,348.23075039999094,347.22891060000984,348.23075039999094,347.22891060000984,347.730053199979,347.22891060000984,347.730053199979,347.22891060000984,347.730053199979,347.22891060000984,347.730053199979,347.22891060000984,None,,,,,11005,001,2024_Jan_01_0936,nback,2021.2.3,59.820240174438375,
2-back,instructions\back-2.png,conditions\22back-e.xlsx,,experiment,2,2,stim\gray.png,stim\yellow.png,stim\gray.png,stim\gray.png,up,,,,,,,,,,,,,0,2,2,8,0,11,11,11,,,,,,,,,,,,,,,,,,,,,,,,,,,,,,,,,,,,,,,,,,,,,,,,,,,,,,,,down,0,0.3011007999884896,348.7143424000242,None,348.7143424000242,None,348.7143424000242,349.71686970000155,348.7143424000242,349.71686970000155,348.7143424000242,349.71686970000155,348.7143424000242,349.71686970000155,348.7143424000242,349.2161422999925,348.7143424000242,349.2161422999925,348.7143424000242,349.2161422999925,348.7143424000242,349.2161422999925,348.7143424000242,None,,,,,11005,001,2024_Jan_01_0936,nback,2021.2.3,59.820240174438375,
2-back,instructions\back-2.png,conditions\22back-e.xlsx,,experiment,2,4,stim\gray.png,stim\gray.png,stim\gray.png,stim\yellow.png,down,,,,,,,,,,,,,0,2,2,8,0,12,12,12,,,,,,,,,,,,,,,,,,,,,,,,,,,,,,,,,,,,,,,,,,,,,,,,,,,,,,,,left,0,1.2935211000149138,350.2169960999745,None,350.2169960999745,None,350.2169960999745,351.21840369998245,350.2169960999745,351.21840369998245,350.2169960999745,351.21840369998245,350.2169960999745,351.21840369998245,350.2169960999745,350.7179310999927,350.2169960999745,350.7179310999927,350.2169960999745,350.7179310999927,350.2169960999745,350.7179310999927,350.2169960999745,None,,,,,11005,001,2024_Jan_01_0936,nback,2021.2.3,59.820240174438375,
2-back,instructions\back-2.png,conditions\22back-e.xlsx,,experiment,2,3,stim\gray.png,stim\gray.png,stim\yellow.png,stim\gray.png,left,,,,,,,,,,,,,0,2,2,8,0,13,13,13,,,,,,,,,,,,,,,,,,,,,,,,,,,,,,,,,,,,,,,,,,,,,,,,,,,,,,,,left,1,0.31974589999299496,351.71868079999695,None,351.71868079999695,None,351.71868079999695,352.7213507000124,351.71868079999695,352.7213507000124,351.71868079999695,352.7213507000124,351.71868079999695,352.7213507000124,351.71868079999695,352.22023570002057,351.71868079999695,352.22023570002057,351.71868079999695,352.22023570002057,351.71868079999695,352.22023570002057,351.71868079999695,None,,,,,11005,001,2024_Jan_01_0936,nback,2021.2.3,59.820240174438375,
2-back,instructions\back-2.png,conditions\22back-e.xlsx,,experiment,2,3,stim\gray.png,stim\gray.png,stim\yellow.png,stim\gray.png,down,,,,,,,,,,,,,0,2,2,8,0,14,14,14,,,,,,,,,,,,,,,,,,,,,,,,,,,,,,,,,,,,,,,,,,,,,,,,,,,,,,,,down,1,0.27280190004967153,353.22176530002616,None,353.22176530002616,None,353.22176530002616,354.2231045999797,353.22176530002616,354.2231045999797,353.22176530002616,354.2231045999797,353.22176530002616,354.2231045999797,353.22176530002616,353.72240520000923,353.22176530002616,353.72240520000923,353.22176530002616,353.72240520000923,353.22176530002616,353.72240520000923,353.22176530002616,None,,,,,11005,001,2024_Jan_01_0936,nback,2021.2.3,59.820240174438375,
2-back,instructions\back-2.png,conditions\22back-e.xlsx,,experiment,2,4,stim\gray.png,stim\gray.png,stim\gray.png,stim\yellow.png,right,,,,,,,,,,,,,0,2,2,8,0,15,15,15,,,,,,,,,,,,,,,,,,,,,,,,,,,,,,,,,,,,,,,,,,,,,,,,,,,,,,,,right,1,0.2667079000384547,354.72381060000043,None,354.72381060000043,None,354.72381060000043,355.7254042000277,354.72381060000043,355.7254042000277,354.72381060000043,355.7254042000277,354.72381060000043,355.7254042000277,354.72381060000043,355.2242782000103,354.72381060000043,355.2242782000103,354.72381060000043,355.2242782000103,354.72381060000043,355.2242782000103,354.72381060000043,None,,,,,11005,001,2024_Jan_01_0936,nback,2021.2.3,59.820240174438375,
2-back,instructions\back-2.png,conditions\22back-e.xlsx,,experiment,2,2,stim\gray.png,stim\yellow.png,stim\gray.png,stim\gray.png,right,,,,,,,,,,,,,0,2,2,8,0,16,16,16,,,,,,,,,,,,,,,,,,,,,,,,,,,,,,,,,,,,,,,,,,,,,,,,,,,,,,,,right,1,0.3010546999867074,356.2255804000306,None,356.2255804000306,None,356.2255804000306,357.22797339997487,356.2255804000306,357.22797339997487,356.2255804000306,357.22797339997487,356.2255804000306,357.22797339997487,356.2255804000306,356.7260388000286,356.2255804000306,356.7260388000286,356.2255804000306,356.7260388000286,356.2255804000306,356.7260388000286,356.2255804000306,None,,,,,11005,001,2024_Jan_01_0936,nback,2021.2.3,59.820240174438375,
2-back,instructions\back-2.png,conditions\22back-e.xlsx,,experiment,2,1,stim\yellow.png,stim\gray.png,stim\gray.png,stim\gray.png,down,,,,,,,,,,,,,0,2,2,8,0,17,17,17,,,,,,,,,,,,,,,,,,,,,,,,,,,,,,,,,,,,,,,,,,,,,,,,,,,,,,,,down,1,0.21466910000890493,357.72825570002897,None,357.72825570002897,None,357.72825570002897,358.7288721000077,357.72825570002897,358.7288721000077,357.72825570002897,358.7288721000077,357.72825570002897,358.7288721000077,357.72825570002897,358.2282337999786,357.72825570002897,358.2282337999786,357.72825570002897,358.2282337999786,357.72825570002897,358.2282337999786,357.72825570002897,None,,,,,11005,001,2024_Jan_01_0936,nback,2021.2.3,59.820240174438375,
2-back,instructions\back-2.png,conditions\22back-e.xlsx,,experiment,2,4,stim\gray.png,stim\gray.png,stim\gray.png,stim\yellow.png,left,,,,,,,,,,,,,0,2,2,8,0,18,18,18,,,,,,,,,,,,,,,,,,,,,,,,,,,,,,,,,,,,,,,,,,,,,,,,,,,,,,,,left,1,0.2251436000224203,359.2131306999945,None,359.2131306999945,None,359.2131306999945,360.2144495000248,359.2131306999945,360.2144495000248,359.2131306999945,360.2144495000248,359.2131306999945,360.2144495000248,359.2131306999945,359.71381599997403,359.2131306999945,359.71381599997403,359.2131306999945,359.71381599997403,359.2131306999945,359.71381599997403,359.2131306999945,None,,,,,11005,001,2024_Jan_01_0936,nback,2021.2.3,59.820240174438375,
2-back,instructions\back-2.png,conditions\22back-e.xlsx,,experiment,2,3,stim\gray.png,stim\gray.png,stim\yellow.png,stim\gray.png,up,,,,,,,,,,,,,0,2,2,8,0,19,19,19,,,,,,,,,,,,,,,,,,,,,,,,,,,,,,,,,,,,,,,,,,,,,,,,,,,,,,,,up,1,0.17904030001955107,360.71537170000374,None,360.71537170000374,None,360.71537170000374,361.71677430003183,360.71537170000374,361.71677430003183,360.71537170000374,361.71677430003183,360.71537170000374,361.71677430003183,360.71537170000374,361.21611290000146,360.71537170000374,361.21611290000146,360.71537170000374,361.21611290000146,360.71537170000374,361.21611290000146,360.71537170000374,None,,,,,11005,001,2024_Jan_01_0936,nback,2021.2.3,59.820240174438375,
2-back,instructions\back-2.png,conditions\22back-e.xlsx,,,,,,,,,,,,,,,,,,,,,,0,2,2,8,,,,,,,,,,,,,,,,,,,,,,,,,,,,,,,,,,,,,,,,,,,,,,,,,,,,,,,,,,,,,,,,,,,,,,,,,,,,,,,,,,,,,362.218783600023,None,,,11005,001,2024_Jan_01_0936,nback,2021.2.3,59.820240174438375,
2-back,instructions\back-2.png,conditions\21back-e.xlsx,,experiment,2,3,stim\gray.png,stim\gray.png,stim\yellow.png,stim\gray.png,None,,,,,,,,,,,,,0,3,3,3,0,0,0,0,,,,,,,,,,,,,,,363.3189882999868,367.8269178000046,367.7926110000117,None,,,,,,,,,,,,,,,,,,,,,,,,,,,,,,,,,,,,,,None,1,,368.24371459998656,None,368.24371459998656,None,368.24371459998656,369.2453667999944,368.24371459998656,369.2453667999944,368.24371459998656,369.2453667999944,368.24371459998656,369.2453667999944,368.24371459998656,368.74512749997666,368.24371459998656,368.74512749997666,368.24371459998656,368.74512749997666,368.24371459998656,368.74512749997666,368.24371459998656,None,,,,,11005,001,2024_Jan_01_0936,nback,2021.2.3,59.820240174438375,
2-back,instructions\back-2.png,conditions\21back-e.xlsx,,experiment,2,4,stim\gray.png,stim\gray.png,stim\gray.png,stim\yellow.png,None,,,,,,,,,,,,,0,3,3,3,0,1,1,1,,,,,,,,,,,,,,,,,,,,,,,,,,,,,,,,,,,,,,,,,,,,,,,,,,,,,,,,None,1,,369.7120680999942,None,369.7120680999942,None,369.7120680999942,370.7142872000113,369.7120680999942,370.7142872000113,369.7120680999942,370.7142872000113,369.7120680999942,370.7142872000113,369.7120680999942,370.2138393999776,369.7120680999942,370.2138393999776,369.7120680999942,370.2138393999776,369.7120680999942,370.2138393999776,369.7120680999942,None,,,,,11005,001,2024_Jan_01_0936,nback,2021.2.3,59.820240174438375,
2-back,instructions\back-2.png,conditions\21back-e.xlsx,,experiment,2,1,stim\yellow.png,stim\gray.png,stim\gray.png,stim\gray.png,right,,,,,,,,,,,,,0,3,3,3,0,2,2,2,,,,,,,,,,,,,,,,,,,,,,,,,,,,,,,,,,,,,,,,,,,,,,,,,,,,,,,,right,1,0.319701400003396,371.2147142000031,None,371.2147142000031,None,371.2147142000031,372.2161103999824,371.2147142000031,372.2161103999824,371.2147142000031,372.2161103999824,371.2147142000031,372.2161103999824,371.2147142000031,371.716254799976,371.2147142000031,371.716254799976,371.2147142000031,371.716254799976,371.2147142000031,371.716254799976,371.2147142000031,None,,,,,11005,001,2024_Jan_01_0936,nback,2021.2.3,59.820240174438375,
2-back,instructions\back-2.png,conditions\21back-e.xlsx,,experiment,2,2,stim\gray.png,stim\yellow.png,stim\gray.png,stim\gray.png,down,,,,,,,,,,,,,0,3,3,3,0,3,3,3,,,,,,,,,,,,,,,,,,,,,,,,,,,,,,,,,,,,,,,,,,,,,,,,,,,,,,,,down,1,0.2509788000024855,372.716477399983,None,372.716477399983,None,372.716477399983,373.71833930001594,372.716477399983,373.71833930001594,372.716477399983,373.71833930001594,372.716477399983,373.71833930001594,372.716477399983,373.217277400021,372.716477399983,373.217277400021,372.716477399983,373.217277400021,372.716477399983,373.217277400021,372.716477399983,None,,,,,11005,001,2024_Jan_01_0936,nback,2021.2.3,59.820240174438375,
2-back,instructions\back-2.png,conditions\21back-e.xlsx,,experiment,2,1,stim\yellow.png,stim\gray.png,stim\gray.png,stim\gray.png,up,,,,,,,,,,,,,0,3,3,3,0,4,4,4,,,,,,,,,,,,,,,,,,,,,,,,,,,,,,,,,,,,,,,,,,,,,,,,,,,,,,,,up,1,0.2758222999982536,374.21867969998857,None,374.21867969998857,None,374.21867969998857,375.2210741000017,374.21867969998857,375.2210741000017,374.21867969998857,375.2210741000017,374.21867969998857,375.2210741000017,374.21867969998857,374.721099700022,374.21867969998857,374.721099700022,374.21867969998857,374.721099700022,374.21867969998857,374.721099700022,374.21867969998857,None,,,,,11005,001,2024_Jan_01_0936,nback,2021.2.3,59.820240174438375,
2-back,instructions\back-2.png,conditions\21back-e.xlsx,,experiment,2,2,stim\gray.png,stim\yellow.png,stim\gray.png,stim\gray.png,left,,,,,,,,,,,,,0,3,3,3,0,5,5,5,,,,,,,,,,,,,,,,,,,,,,,,,,,,,,,,,,,,,,,,,,,,,,,,,,,,,,,,left,1,0.27744999999413267,375.72103419998894,None,375.72103419998894,None,375.72103419998894,376.7239357000217,375.72103419998894,376.7239357000217,375.72103419998894,376.7239357000217,375.72103419998894,376.7239357000217,375.72103419998894,376.22222070000134,375.72103419998894,376.22222070000134,375.72103419998894,376.22222070000134,375.72103419998894,376.22222070000134,375.72103419998894,None,,,,,11005,001,2024_Jan_01_0936,nback,2021.2.3,59.820240174438375,
2-back,instructions\back-2.png,conditions\21back-e.xlsx,,experiment,2,3,stim\gray.png,stim\gray.png,stim\yellow.png,stim\gray.png,up,,,,,,,,,,,,,0,3,3,3,0,6,6,6,,,,,,,,,,,,,,,,,,,,,,,,,,,,,,,,,,,,,,,,,,,,,,,,,,,,,,,,up,1,0.31094320002011955,377.22355669998797,None,377.22355669998797,None,377.22355669998797,378.2253180000116,377.22355669998797,378.2253180000116,377.22355669998797,378.2253180000116,377.22355669998797,378.2253180000116,377.22355669998797,377.72454219998326,377.22355669998797,377.72454219998326,377.22355669998797,377.72454219998326,377.22355669998797,377.72454219998326,377.22355669998797,None,,,,,11005,001,2024_Jan_01_0936,nback,2021.2.3,59.820240174438375,
2-back,instructions\back-2.png,conditions\21back-e.xlsx,,experiment,2,4,stim\gray.png,stim\gray.png,stim\gray.png,stim\yellow.png,left,,,,,,,,,,,,,0,3,3,3,0,7,7,7,,,,,,,,,,,,,,,,,,,,,,,,,,,,,,,,,,,,,,,,,,,,,,,,,,,,,,,,left,1,0.2408539999742061,378.72564229997806,None,378.72564229997806,None,378.72564229997806,379.727957999974,378.72564229997806,379.727957999974,378.72564229997806,379.727957999974,378.72564229997806,379.727957999974,378.72564229997806,379.22718619997613,378.72564229997806,379.22718619997613,378.72564229997806,379.22718619997613,378.72564229997806,379.22718619997613,378.72564229997806,None,,,,,11005,001,2024_Jan_01_0936,nback,2021.2.3,59.820240174438375,
2-back,instructions\back-2.png,conditions\21back-e.xlsx,,experiment,2,3,stim\gray.png,stim\gray.png,stim\yellow.png,stim\gray.png,right,,,,,,,,,,,,,0,3,3,3,0,8,8,8,,,,,,,,,,,,,,,,,,,,,,,,,,,,,,,,,,,,,,,,,,,,,,,,,,,,,,,,right,1,0.10691610001958907,380.22761689999606,None,380.22761689999606,None,380.22761689999606,381.2291994999978,380.22761689999606,381.2291994999978,380.22761689999606,381.2291994999978,380.22761689999606,381.2291994999978,380.22761689999606,380.7292390000075,380.22761689999606,380.7292390000075,380.22761689999606,380.7292390000075,380.22761689999606,380.7292390000075,380.22761689999606,None,,,,,11005,001,2024_Jan_01_0936,nback,2021.2.3,59.820240174438375,
2-back,instructions\back-2.png,conditions\21back-e.xlsx,,experiment,2,1,stim\yellow.png,stim\gray.png,stim\gray.png,stim\gray.png,down,,,,,,,,,,,,,0,3,3,3,0,9,9,9,,,,,,,,,,,,,,,,,,,,,,,,,,,,,,,,,,,,,,,,,,,,,,,,,,,,,,,,down,1,0.17395200004102662,381.7131400000071,None,381.7131400000071,None,381.7131400000071,382.71572430001106,381.7131400000071,382.71572430001106,381.7131400000071,382.71572430001106,381.7131400000071,382.71572430001106,381.7131400000071,382.2147567999782,381.7131400000071,382.2147567999782,381.7131400000071,382.2147567999782,381.7131400000071,382.2147567999782,381.7131400000071,None,,,,,11005,001,2024_Jan_01_0936,nback,2021.2.3,59.820240174438375,
2-back,instructions\back-2.png,conditions\21back-e.xlsx,,experiment,2,4,stim\gray.png,stim\gray.png,stim\gray.png,stim\yellow.png,right,,,,,,,,,,,,,0,3,3,3,0,10,10,10,,,,,,,,,,,,,,,,,,,,,,,,,,,,,,,,,,,,,,,,,,,,,,,,,,,,,,,,right,1,0.24735379999037832,383.21539030002896,None,383.21539030002896,None,383.21539030002896,384.2168596999836,383.21539030002896,384.2168596999836,383.21539030002896,384.2168596999836,383.21539030002896,384.2168596999836,383.21539030002896,383.7167846999946,383.21539030002896,383.7167846999946,383.21539030002896,383.7167846999946,383.21539030002896,383.7167846999946,383.21539030002896,None,,,,,11005,001,2024_Jan_01_0936,nback,2021.2.3,59.820240174438375,
2-back,instructions\back-2.png,conditions\21back-e.xlsx,,experiment,2,2,stim\gray.png,stim\yellow.png,stim\gray.png,stim\gray.png,up,,,,,,,,,,,,,0,3,3,3,0,11,11,11,,,,,,,,,,,,,,,,,,,,,,,,,,,,,,,,,,,,,,,,,,,,,,,,,,,,,,,,up,1,0.23369910003384575,384.7177117000101,None,384.7177117000101,None,384.7177117000101,385.72002429998247,384.7177117000101,385.72002429998247,384.7177117000101,385.72002429998247,384.7177117000101,385.72002429998247,384.7177117000101,385.219079100003,384.7177117000101,385.219079100003,384.7177117000101,385.219079100003,384.7177117000101,385.219079100003,384.7177117000101,None,,,,,11005,001,2024_Jan_01_0936,nback,2021.2.3,59.820240174438375,
2-back,instructions\back-2.png,conditions\21back-e.xlsx,,experiment,2,4,stim\gray.png,stim\gray.png,stim\gray.png,stim\yellow.png,down,,,,,,,,,,,,,0,3,3,3,0,12,12,12,,,,,,,,,,,,,,,,,,,,,,,,,,,,,,,,,,,,,,,,,,,,,,,,,,,,,,,,down,1,0.27473920001648366,386.2196840000106,None,386.2196840000106,None,386.2196840000106,387.2220202999888,386.2196840000106,387.2220202999888,386.2196840000106,387.2220202999888,386.2196840000106,387.2220202999888,386.2196840000106,386.72122459998354,386.2196840000106,386.72122459998354,386.2196840000106,386.72122459998354,386.2196840000106,386.72122459998354,386.2196840000106,None,,,,,11005,001,2024_Jan_01_0936,nback,2021.2.3,59.820240174438375,
2-back,instructions\back-2.png,conditions\21back-e.xlsx,,experiment,2,3,stim\gray.png,stim\gray.png,stim\yellow.png,stim\gray.png,left,,,,,,,,,,,,,0,3,3,3,0,13,13,13,,,,,,,,,,,,,,,,,,,,,,,,,,,,,,,,,,,,,,,,,,,,,,,,,,,,,,,,left,1,0.2600436999928206,387.7229165000026,None,387.7229165000026,None,387.7229165000026,388.72413450002205,387.7229165000026,388.72413450002205,387.7229165000026,388.72413450002205,387.7229165000026,388.72413450002205,387.7229165000026,388.22352729999693,387.7229165000026,388.22352729999693,387.7229165000026,388.22352729999693,387.7229165000026,388.22352729999693,387.7229165000026,None,,,,,11005,001,2024_Jan_01_0936,nback,2021.2.3,59.820240174438375,
2-back,instructions\back-2.png,conditions\21back-e.xlsx,,experiment,2,1,stim\yellow.png,stim\gray.png,stim\gray.png,stim\gray.png,down,,,,,,,,,,,,,0,3,3,3,0,14,14,14,,,,,,,,,,,,,,,,,,,,,,,,,,,,,,,,,,,,,,,,,,,,,,,,,,,,,,,,down,1,0.19891440001083538,389.22455929999705,None,389.22455929999705,None,389.22455929999705,390.22654890001286,389.22455929999705,390.22654890001286,389.22455929999705,390.22654890001286,389.22455929999705,390.22654890001286,389.22455929999705,389.7259144000127,389.22455929999705,389.7259144000127,389.22455929999705,389.7259144000127,389.22455929999705,389.7259144000127,389.22455929999705,None,,,,,11005,001,2024_Jan_01_0936,nback,2021.2.3,59.820240174438375,
2-back,instructions\back-2.png,conditions\21back-e.xlsx,,experiment,2,2,stim\gray.png,stim\yellow.png,stim\gray.png,stim\gray.png,right,,,,,,,,,,,,,0,3,3,3,0,15,15,15,,,,,,,,,,,,,,,,,,,,,,,,,,,,,,,,,,,,,,,,,,,,,,,,,,,,,,,,right,1,0.2564249000279233,390.72655279998435,None,390.72655279998435,None,390.72655279998435,391.7279317000066,390.72655279998435,391.7279317000066,390.72655279998435,391.7279317000066,390.72655279998435,391.7279317000066,390.72655279998435,391.22810000000754,390.72655279998435,391.22810000000754,390.72655279998435,391.22810000000754,390.72655279998435,391.22810000000754,390.72655279998435,None,,,,,11005,001,2024_Jan_01_0936,nback,2021.2.3,59.820240174438375,
2-back,instructions\back-2.png,conditions\21back-e.xlsx,,experiment,2,2,stim\gray.png,stim\yellow.png,stim\gray.png,stim\gray.png,up,,,,,,,,,,,,,0,3,3,3,0,16,16,16,,,,,,,,,,,,,,,,,,,,,,,,,,,,,,,,,,,,,,,,,,,,,,,,,,,,,,,,up,1,0.2183882999815978,392.2290298999869,None,392.2290298999869,None,392.2290298999869,393.2313701999956,392.2290298999869,393.2313701999956,392.2290298999869,393.2313701999956,392.2290298999869,393.2313701999956,392.2290298999869,392.72997520002536,392.2290298999869,392.72997520002536,392.2290298999869,392.72997520002536,392.2290298999869,392.72997520002536,392.2290298999869,None,,,,,11005,001,2024_Jan_01_0936,nback,2021.2.3,59.820240174438375,
2-back,instructions\back-2.png,conditions\21back-e.xlsx,,experiment,2,1,stim\yellow.png,stim\gray.png,stim\gray.png,stim\gray.png,left,,,,,,,,,,,,,0,3,3,3,0,17,17,17,,,,,,,,,,,,,,,,,,,,,,,,,,,,,,,,,,,,,,,,,,,,,,,,,,,,,,,,left,1,0.20400430000154302,393.71484309999505,None,393.71484309999505,None,393.71484309999505,394.71646329999203,393.71484309999505,394.71646329999203,393.71484309999505,394.71646329999203,393.71484309999505,394.71646329999203,393.71484309999505,394.21558930003084,393.71484309999505,394.21558930003084,393.71484309999505,394.21558930003084,393.71484309999505,394.21558930003084,393.71484309999505,None,,,,,11005,001,2024_Jan_01_0936,nback,2021.2.3,59.820240174438375,
