backseq,backinstr,backfile,instruction,size_in,Trialtype,back,number,P1,P2,P3,P4,corrAns,trials_practice.thisRepN,trials_practice.thisTrialN,trials_practice.thisN,trials_practice.thisIndex,trials.thisRepN,trials.thisTrialN,trials.thisN,trials.thisIndex,trials_3.thisRepN,trials_3.thisTrialN,trials_3.thisN,trials_3.thisIndex,trials_2.thisRepN,trials_2.thisTrialN,trials_2.thisN,trials_2.thisIndex,trials_4.thisRepN,trials_4.thisTrialN,trials_4.thisN,trials_4.thisIndex,image.started,image.stopped,image_2.started,image_2.stopped,key_resp.keys,key_resp.rt,key_resp.started,key_resp.stopped,image_3.started,image_3.stopped,key_resp_2.keys,key_resp_2.rt,key_resp_2.started,key_resp_2.stopped,image_4.started,image_4.stopped,text.started,text.stopped,H1.started,H1.stopped,H2.started,H2.stopped,H3.started,H3.stopped,H4.started,H4.stopped,key_resp_3.keys,key_resp_3.corr,key_resp_3.rt,key_resp_3.started,key_resp_3.stopped,text_4.started,text_4.stopped,F1.started,F1.stopped,F2.started,F2.stopped,F3.started,F3.stopped,F4.started,F4.stopped,image_7.started,image_7.stopped,text_5.started,text_5.stopped,key_resp_6.keys,key_resp_6.rt,key_resp_6.started,key_resp_6.stopped,image_5.started,image_5.stopped,key_resp_4.keys,key_resp_4.rt,key_resp_4.started,key_resp_4.stopped,key_resp_5.keys,key_resp_5.corr,key_resp_5.rt,key_resp_5.started,key_resp_5.stopped,text_3.started,text_3.stopped,H1_2.started,H1_2.stopped,H2_2.started,H2_2.stopped,H3_2.started,H3_2.stopped,H4_2.started,H4_2.stopped,F1_2.started,F1_2.stopped,F2_2.started,F2_2.stopped,F3_2.started,F3_2.stopped,F4_2.started,F4_2.stopped,image_8.started,image_8.stopped,text_2.started,text_2.stopped,image_6.started,image_6.stopped,participant,session,date,expName,psychopyVersion,frameRate,
,,,,,,,,,,,,,,,,,,,,,,,,,,,,,,,,,12.275171100045554,None,13.143956100044306,None,space,24.219996300002094,13.143956100044306,None,,,,,,,,,,,,,,,,,,,,,,,,,,,,,,,,,,,,,,,,,,,,,,,,,,,,,,,,,,,,,,,,,,,,,,,,,,,,,11007,001,2024_Jan_01_1443,nback,2021.2.3,59.65316458232454,
0-back,instructions\back-0.png,conditions\0back-p.xlsx,instructions\0-BACK.png,"(15, 8)",practice,0,1,stim\yellow.png,stim\gray.png,stim\gray.png,stim\gray.png,up,0,0,0,0,0,0,0,0,0,0,0,0,,,,,,,,,,,,,,,,,37.42994430003455,None,space,65.18162540002959,37.42994430003455,None,102.79179899999872,107.3003585000406,107.26656580000417,None,107.66659949999303,108.66796750004869,107.66659949999303,108.66796750004869,107.66659949999303,108.66796750004869,107.66659949999303,108.66796750004869,up,1,0.7370849999715574,107.66659949999303,None,107.66659949999303,None,107.66659949999303,108.16783230000874,107.66659949999303,108.16783230000874,107.66659949999303,108.16783230000874,107.66659949999303,108.16783230000874,107.66659949999303,None,,,,,,,,,,,,,,,,,,,,,,,,,,,,,,,,,,,,,,,,,,11007,001,2024_Jan_01_1443,nback,2021.2.3,59.65316458232454,
0-back,instructions\back-0.png,conditions\0back-p.xlsx,instructions\0-BACK.png,"(15, 8)",practice,0,2,stim\gray.png,stim\yellow.png,stim\gray.png,stim\gray.png,left,0,0,0,0,0,0,0,0,0,1,1,1,,,,,,,,,,,,,,,,,,,,,,,,,,,109.15188030002173,110.15414739999687,109.15188030002173,110.15414739999687,109.15188030002173,110.15414739999687,109.15188030002173,110.15414739999687,left,1,0.4280933000263758,109.15188030002173,None,109.15188030002173,None,109.15188030002173,109.65307530004065,109.15188030002173,109.65307530004065,109.15188030002173,109.65307530004065,109.15188030002173,109.65307530004065,109.15188030002173,None,,,,,,,,,,,,,,,,,,,,,,,,,,,,,,,,,,,,,,,,,,11007,001,2024_Jan_01_1443,nback,2021.2.3,59.65316458232454,
0-back,instructions\back-0.png,conditions\0back-p.xlsx,instructions\0-BACK.png,"(15, 8)",practice,0,3,stim\gray.png,stim\gray.png,stim\yellow.png,stim\gray.png,right,0,0,0,0,0,0,0,0,0,2,2,2,,,,,,,,,,,,,,,,,,,,,,,,,,,110.65422830003081,111.65642870002193,110.65422830003081,111.65642870002193,110.65422830003081,111.65642870002193,110.65422830003081,111.65642870002193,right,1,0.3095801000017673,110.65422830003081,None,110.65422830003081,None,110.65422830003081,111.15572320000501,110.65422830003081,111.15572320000501,110.65422830003081,111.15572320000501,110.65422830003081,111.15572320000501,110.65422830003081,None,,,,,,,,,,,,,,,,,,,,,,,,,,,,,,,,,,,,,,,,,,11007,001,2024_Jan_01_1443,nback,2021.2.3,59.65316458232454,
0-back,instructions\back-0.png,conditions\0back-p.xlsx,instructions\0-BACK.png,"(15, 8)",practice,0,4,stim\gray.png,stim\gray.png,stim\gray.png,stim\yellow.png,down,0,0,0,0,0,0,0,0,0,3,3,3,,,,,,,,,,,,,,,,,,,,,,,,,,,112.156454400043,113.1587356000091,112.156454400043,113.1587356000091,112.156454400043,113.1587356000091,112.156454400043,113.1587356000091,down,1,0.5033371999743395,112.156454400043,None,112.156454400043,None,112.156454400043,112.65728300000774,112.156454400043,112.65728300000774,112.156454400043,112.65728300000774,112.156454400043,112.65728300000774,112.156454400043,None,,,,,,,,,,,,,,,,,,,,,,,,,,,,,,,,,,,,,,,,,,11007,001,2024_Jan_01_1443,nback,2021.2.3,59.65316458232454,
0-back,instructions\back-0.png,conditions\0back-p.xlsx,instructions\0-BACK.png,"(15, 8)",practice,0,2,stim\gray.png,stim\yellow.png,stim\gray.png,stim\gray.png,left,0,0,0,0,0,0,0,0,0,4,4,4,,,,,,,,,,,,,,,,,,,,,,,,,,,113.65903239999898,114.6601358000189,113.65903239999898,114.6601358000189,113.65903239999898,114.6601358000189,113.65903239999898,114.6601358000189,left,1,0.3767881999956444,113.65903239999898,None,113.65903239999898,None,113.65903239999898,114.1606912999996,113.65903239999898,114.1606912999996,113.65903239999898,114.1606912999996,113.65903239999898,114.1606912999996,113.65903239999898,None,,,,,,,,,,,,,,,,,,,,,,,,,,,,,,,,,,,,,,,,,,11007,001,2024_Jan_01_1443,nback,2021.2.3,59.65316458232454,
0-back,instructions\back-0.png,conditions\0back-p.xlsx,instructions\0-BACK.png,"(15, 8)",practice,0,1,stim\yellow.png,stim\gray.png,stim\gray.png,stim\gray.png,up,0,0,0,0,0,0,0,0,0,5,5,5,,,,,,,,,,,,,,,,,,,,,,,,,,,115.16165010002442,116.16346880001947,115.16165010002442,116.16346880001947,115.16165010002442,116.16346880001947,115.16165010002442,116.16346880001947,up,1,0.39406680001411587,115.16165010002442,None,115.16165010002442,None,115.16165010002442,115.66181350004626,115.16165010002442,115.66181350004626,115.16165010002442,115.66181350004626,115.16165010002442,115.66181350004626,115.16165010002442,None,,,,,,,,,,,,,,,,,,,,,,,,,,,,,,,,,,,,,,,,,,11007,001,2024_Jan_01_1443,nback,2021.2.3,59.65316458232454,
0-back,instructions\back-0.png,conditions\0back-p.xlsx,instructions\0-BACK.png,"(15, 8)",practice,0,4,stim\gray.png,stim\gray.png,stim\gray.png,stim\yellow.png,down,0,0,0,0,0,0,0,0,0,6,6,6,,,,,,,,,,,,,,,,,,,,,,,,,,,116.64764720003586,117.64805880002677,116.64764720003586,117.64805880002677,116.64764720003586,117.64805880002677,116.64764720003586,117.64805880002677,down,1,0.39661070000147447,116.64764720003586,None,116.64764720003586,None,116.64764720003586,117.14723230001982,116.64764720003586,117.14723230001982,116.64764720003586,117.14723230001982,116.64764720003586,117.14723230001982,116.64764720003586,None,,,,,,,,,,,,,,,,,,,,,,,,,,,,,,,,,,,,,,,,,,11007,001,2024_Jan_01_1443,nback,2021.2.3,59.65316458232454,
0-back,instructions\back-0.png,conditions\0back-p.xlsx,instructions\0-BACK.png,"(15, 8)",practice,0,3,stim\gray.png,stim\gray.png,stim\yellow.png,stim\gray.png,right,0,0,0,0,0,0,0,0,0,7,7,7,,,,,,,,,,,,,,,,,,,,,,,,,,,118.14865010004723,119.15074830001686,118.14865010004723,119.15074830001686,118.14865010004723,119.15074830001686,118.14865010004723,119.15074830001686,right,1,0.3674957000184804,118.14865010004723,None,118.14865010004723,None,118.14865010004723,118.65047980000963,118.14865010004723,118.65047980000963,118.14865010004723,118.65047980000963,118.14865010004723,118.65047980000963,118.14865010004723,None,,,,,,,,,,,,,,,,,,,,,,,,,,,,,,,,,,,,,,,,,,11007,001,2024_Jan_01_1443,nback,2021.2.3,59.65316458232454,
0-back,instructions\back-0.png,conditions\0back-p.xlsx,instructions\0-BACK.png,"(15, 8)",practice,0,3,stim\gray.png,stim\gray.png,stim\yellow.png,stim\gray.png,right,0,0,0,0,0,0,0,0,0,8,8,8,,,,,,,,,,,,,,,,,,,,,,,,,,,119.651001500024,120.65283720003208,119.651001500024,120.65283720003208,119.651001500024,120.65283720003208,119.651001500024,120.65283720003208,right,1,0.35289490001741797,119.651001500024,None,119.651001500024,None,119.651001500024,120.15205309999874,119.651001500024,120.15205309999874,119.651001500024,120.15205309999874,119.651001500024,120.15205309999874,119.651001500024,None,,,,,,,,,,,,,,,,,,,,,,,,,,,,,,,,,,,,,,,,,,11007,001,2024_Jan_01_1443,nback,2021.2.3,59.65316458232454,
0-back,instructions\back-0.png,conditions\0back-p.xlsx,instructions\0-BACK.png,"(15, 8)",practice,0,4,stim\gray.png,stim\gray.png,stim\gray.png,stim\yellow.png,down,0,0,0,0,0,0,0,0,0,9,9,9,,,,,,,,,,,,,,,,,,,,,,,,,,,121.15342620003503,122.15579089999665,121.15342620003503,122.15579089999665,121.15342620003503,122.15579089999665,121.15342620003503,122.15579089999665,down,1,0.4835600000224076,121.15342620003503,None,121.15342620003503,None,121.15342620003503,121.65481700003147,121.15342620003503,121.65481700003147,121.15342620003503,121.65481700003147,121.15342620003503,121.65481700003147,121.15342620003503,None,,,,,,,,,,,,,,,,,,,,,,,,,,,,,,,,,,,,,,,,,,11007,001,2024_Jan_01_1443,nback,2021.2.3,59.65316458232454,
0-back,instructions\back-0.png,conditions\0back-p.xlsx,instructions\0-BACK.png,"(15, 8)",practice,0,1,stim\yellow.png,stim\gray.png,stim\gray.png,stim\gray.png,up,0,0,0,0,0,0,0,0,0,10,10,10,,,,,,,,,,,,,,,,,,,,,,,,,,,122.65541920001851,123.65762430004543,122.65541920001851,123.65762430004543,122.65541920001851,123.65762430004543,122.65541920001851,123.65762430004543,up,1,0.31699490000028163,122.65541920001851,None,122.65541920001851,None,122.65541920001851,123.15625240001827,122.65541920001851,123.15625240001827,122.65541920001851,123.15625240001827,122.65541920001851,123.15625240001827,122.65541920001851,None,,,,,,,,,,,,,,,,,,,,,,,,,,,,,,,,,,,,,,,,,,11007,001,2024_Jan_01_1443,nback,2021.2.3,59.65316458232454,
0-back,instructions\back-0.png,conditions\0back-p.xlsx,instructions\0-BACK.png,"(15, 8)",practice,0,2,stim\gray.png,stim\yellow.png,stim\gray.png,stim\gray.png,left,0,0,0,0,0,0,0,0,0,11,11,11,,,,,,,,,,,,,,,,,,,,,,,,,,,124.15839500003494,125.15980510000372,124.15839500003494,125.15980510000372,124.15839500003494,125.15980510000372,124.15839500003494,125.15980510000372,left,1,0.3013189000193961,124.15839500003494,None,124.15839500003494,None,124.15839500003494,124.6593669000431,124.15839500003494,124.6593669000431,124.15839500003494,124.6593669000431,124.15839500003494,124.6593669000431,124.15839500003494,None,,,,,,,,,,,,,,,,,,,,,,,,,,,,,,,,,,,,,,,,,,11007,001,2024_Jan_01_1443,nback,2021.2.3,59.65316458232454,
0-back,instructions\back-0.png,conditions\0back-p.xlsx,instructions\0-BACK.png,"(15, 8)",practice,0,4,stim\gray.png,stim\gray.png,stim\gray.png,stim\yellow.png,down,0,0,0,0,0,0,0,0,0,12,12,12,,,,,,,,,,,,,,,,,,,,,,,,,,,125.6598983000149,126.66137970000273,125.6598983000149,126.66137970000273,125.6598983000149,126.66137970000273,125.6598983000149,126.66137970000273,down,1,0.432280000008177,125.6598983000149,None,125.6598983000149,None,125.6598983000149,126.1611917000264,125.6598983000149,126.1611917000264,125.6598983000149,126.1611917000264,125.6598983000149,126.1611917000264,125.6598983000149,None,,,,,,,,,,,,,,,,,,,,,,,,,,,,,,,,,,,,,,,,,,11007,001,2024_Jan_01_1443,nback,2021.2.3,59.65316458232454,
0-back,instructions\back-0.png,conditions\0back-p.xlsx,instructions\0-BACK.png,"(15, 8)",practice,0,3,stim\gray.png,stim\gray.png,stim\yellow.png,stim\gray.png,right,0,0,0,0,0,0,0,0,0,13,13,13,,,,,,,,,,,,,,,,,,,,,,,,,,,127.14614760002587,128.14760950003983,127.14614760002587,128.14760950003983,127.14614760002587,128.14760950003983,127.14614760002587,128.14760950003983,right,1,0.31473169999662787,127.14614760002587,None,127.14614760002587,None,127.14614760002587,127.6471373999957,127.14614760002587,127.6471373999957,127.14614760002587,127.6471373999957,127.14614760002587,127.6471373999957,127.14614760002587,None,,,,,,,,,,,,,,,,,,,,,,,,,,,,,,,,,,,,,,,,,,11007,001,2024_Jan_01_1443,nback,2021.2.3,59.65316458232454,
0-back,instructions\back-0.png,conditions\0back-p.xlsx,instructions\0-BACK.png,"(15, 8)",practice,0,1,stim\yellow.png,stim\gray.png,stim\gray.png,stim\gray.png,up,0,0,0,0,0,0,0,0,0,14,14,14,,,,,,,,,,,,,,,,,,,,,,,,,,,128.64759140001843,129.64959879999515,128.64759140001843,129.64959879999515,128.64759140001843,129.64959879999515,128.64759140001843,129.64959879999515,up,1,0.32470150000881404,128.64759140001843,None,128.64759140001843,None,128.64759140001843,129.1482882000273,128.64759140001843,129.1482882000273,128.64759140001843,129.1482882000273,128.64759140001843,129.1482882000273,128.64759140001843,None,,,,,,,,,,,,,,,,,,,,,,,,,,,,,,,,,,,,,,,,,,11007,001,2024_Jan_01_1443,nback,2021.2.3,59.65316458232454,
0-back,instructions\back-0.png,conditions\0back-p.xlsx,instructions\0-BACK.png,"(15, 8)",practice,0,2,stim\gray.png,stim\yellow.png,stim\gray.png,stim\gray.png,left,0,0,0,0,0,0,0,0,0,15,15,15,,,,,,,,,,,,,,,,,,,,,,,,,,,130.15040630003205,131.1513836000231,130.15040630003205,131.1513836000231,130.15040630003205,131.1513836000231,130.15040630003205,131.1513836000231,left,1,0.3181711999932304,130.15040630003205,None,130.15040630003205,None,130.15040630003205,130.6512312000268,130.15040630003205,130.6512312000268,130.15040630003205,130.6512312000268,130.15040630003205,130.6512312000268,130.15040630003205,None,,,,,,,,,,,,,,,,,,,,,,,,,,,,,,,,,,,,,,,,,,11007,001,2024_Jan_01_1443,nback,2021.2.3,59.65316458232454,
0-back,instructions\back-0.png,conditions\0back-p.xlsx,instructions\0-BACK.png,"(15, 8)",practice,0,3,stim\gray.png,stim\gray.png,stim\yellow.png,stim\gray.png,right,0,0,0,0,0,0,0,0,0,16,16,16,,,,,,,,,,,,,,,,,,,,,,,,,,,131.6526501000044,132.65349709999282,131.6526501000044,132.65349709999282,131.6526501000044,132.65349709999282,131.6526501000044,132.65349709999282,right,1,0.39138059999095276,131.6526501000044,None,131.6526501000044,None,131.6526501000044,132.15283390000695,131.6526501000044,132.15283390000695,131.6526501000044,132.15283390000695,131.6526501000044,132.15283390000695,131.6526501000044,None,,,,,,,,,,,,,,,,,,,,,,,,,,,,,,,,,,,,,,,,,,11007,001,2024_Jan_01_1443,nback,2021.2.3,59.65316458232454,
0-back,instructions\back-0.png,conditions\0back-p.xlsx,instructions\0-BACK.png,"(15, 8)",practice,0,1,stim\yellow.png,stim\gray.png,stim\gray.png,stim\gray.png,up,0,0,0,0,0,0,0,0,0,17,17,17,,,,,,,,,,,,,,,,,,,,,,,,,,,133.15437080000993,134.15614249999635,133.15437080000993,134.15614249999635,133.15437080000993,134.15614249999635,133.15437080000993,134.15614249999635,up,1,0.3616234000073746,133.15437080000993,None,133.15437080000993,None,133.15437080000993,133.6557553000166,133.15437080000993,133.6557553000166,133.15437080000993,133.6557553000166,133.15437080000993,133.6557553000166,133.15437080000993,None,,,,,,,,,,,,,,,,,,,,,,,,,,,,,,,,,,,,,,,,,,11007,001,2024_Jan_01_1443,nback,2021.2.3,59.65316458232454,
0-back,instructions\back-0.png,conditions\0back-p.xlsx,instructions\0-BACK.png,"(15, 8)",practice,0,4,stim\gray.png,stim\gray.png,stim\gray.png,stim\yellow.png,down,0,0,0,0,0,0,0,0,0,18,18,18,,,,,,,,,,,,,,,,,,,,,,,,,,,134.65639429999283,135.6583729000413,134.65639429999283,135.6583729000413,134.65639429999283,135.6583729000413,134.65639429999283,135.6583729000413,down,1,0.4040875000064261,134.65639429999283,None,134.65639429999283,None,134.65639429999283,135.15831389999948,134.65639429999283,135.15831389999948,134.65639429999283,135.15831389999948,134.65639429999283,135.15831389999948,134.65639429999283,None,,,,,,,,,,,,,,,,,,,,,,,,,,,,,,,,,,,,,,,,,,11007,001,2024_Jan_01_1443,nback,2021.2.3,59.65316458232454,
0-back,instructions\back-0.png,conditions\0back-p.xlsx,instructions\0-BACK.png,"(15, 8)",practice,0,2,stim\gray.png,stim\yellow.png,stim\gray.png,stim\gray.png,left,0,0,0,0,0,0,0,0,0,19,19,19,,,,,,,,,,,,,,,,,,,,,,,,,,,136.15880460001063,137.1602820000262,136.15880460001063,137.1602820000262,136.15880460001063,137.1602820000262,136.15880460001063,137.1602820000262,left,1,0.3250467999605462,136.15880460001063,None,136.15880460001063,None,136.15880460001063,136.66036100004567,136.15880460001063,136.66036100004567,136.15880460001063,136.66036100004567,136.15880460001063,136.66036100004567,136.15880460001063,None,,,,,,,,,,,,,,,,,,,,,,,,,,,,,,,,,,,,,,,,,,11007,001,2024_Jan_01_1443,nback,2021.2.3,59.65316458232454,
0-back,instructions\back-0.png,conditions\0back-p.xlsx,instructions\0-BACK.png,"(15, 8)",,,,,,,,,0,0,0,0,0,0,0,0,,,,,,,,,,,,,,,,,,,,,,,,,,,,,,,,,,,,,,,,,,,,,,,,,,,,,,,,,,,,,,,,,,,,,,,,,,,,,,,,,,,,,,,,,,,,,,,,,11007,001,2024_Jan_01_1443,nback,2021.2.3,59.65316458232454,
1-back,instructions\back-1.png,conditions\1back-p.xlsx,instructions\1-BACK.png,"(25, 15)",practice,1,1,stim\yellow.png,stim\gray.png,stim\gray.png,stim\gray.png,None,0,0,0,0,0,1,1,1,0,0,0,0,,,,,,,,,,,,,,,,,137.82826790004037,None,space,10.328205700032413,137.82826790004037,None,148.32647930004168,152.83385410002666,152.8012335000094,None,153.20089560002089,154.20281460002298,153.20089560002089,154.20281460002298,153.20089560002089,154.20281460002298,153.20089560002089,154.20281460002298,None,1,,153.20089560002089,None,153.20089560002089,None,153.20089560002089,153.7017043000087,153.20089560002089,153.7017043000087,153.20089560002089,153.7017043000087,153.20089560002089,153.7017043000087,153.20089560002089,None,,,,,,,,,,,,,,,,,,,,,,,,,,,,,,,,,,,,,,,,,,11007,001,2024_Jan_01_1443,nback,2021.2.3,59.65316458232454,
1-back,instructions\back-1.png,conditions\1back-p.xlsx,instructions\1-BACK.png,"(25, 15)",practice,1,2,stim\gray.png,stim\yellow.png,stim\gray.png,stim\gray.png,up,0,0,0,0,0,1,1,1,0,1,1,1,,,,,,,,,,,,,,,,,,,,,,,,,,,154.68641110003227,155.68780000001425,154.68641110003227,155.68780000001425,154.68641110003227,155.68780000001425,154.68641110003227,155.68780000001425,up,1,0.37359499995363876,154.68641110003227,None,154.68641110003227,None,154.68641110003227,155.18684110004688,154.68641110003227,155.18684110004688,154.68641110003227,155.18684110004688,154.68641110003227,155.18684110004688,154.68641110003227,None,,,,,,,,,,,,,,,,,,,,,,,,,,,,,,,,,,,,,,,,,,11007,001,2024_Jan_01_1443,nback,2021.2.3,59.65316458232454,
1-back,instructions\back-1.png,conditions\1back-p.xlsx,instructions\1-BACK.png,"(25, 15)",practice,1,3,stim\gray.png,stim\gray.png,stim\yellow.png,stim\gray.png,left,0,0,0,0,0,1,1,1,0,2,2,2,,,,,,,,,,,,,,,,,,,,,,,,,,,156.18909640004858,157.1901393000153,156.18909640004858,157.1901393000153,156.18909640004858,157.1901393000153,156.18909640004858,157.1901393000153,left,1,0.038815799984149635,156.18909640004858,None,156.18909640004858,None,156.18909640004858,156.69016739999643,156.18909640004858,156.69016739999643,156.18909640004858,156.69016739999643,156.18909640004858,156.69016739999643,156.18909640004858,None,,,,,,,,,,,,,,,,,,,,,,,,,,,,,,,,,,,,,,,,,,11007,001,2024_Jan_01_1443,nback,2021.2.3,59.65316458232454,
1-back,instructions\back-1.png,conditions\1back-p.xlsx,instructions\1-BACK.png,"(25, 15)",practice,1,4,stim\gray.png,stim\gray.png,stim\gray.png,stim\yellow.png,right,0,0,0,0,0,1,1,1,0,3,3,3,,,,,,,,,,,,,,,,,,,,,,,,,,,157.69132179999724,158.692492400005,157.69132179999724,158.692492400005,157.69132179999724,158.692492400005,157.69132179999724,158.692492400005,right,1,0.24060020002070814,157.69132179999724,None,157.69132179999724,None,157.69132179999724,158.19198390003294,157.69132179999724,158.19198390003294,157.69132179999724,158.19198390003294,157.69132179999724,158.19198390003294,157.69132179999724,None,,,,,,,,,,,,,,,,,,,,,,,,,,,,,,,,,,,,,,,,,,11007,001,2024_Jan_01_1443,nback,2021.2.3,59.65316458232454,
1-back,instructions\back-1.png,conditions\1back-p.xlsx,instructions\1-BACK.png,"(25, 15)",practice,1,2,stim\gray.png,stim\yellow.png,stim\gray.png,stim\gray.png,down,0,0,0,0,0,1,1,1,0,4,4,4,,,,,,,,,,,,,,,,,,,,,,,,,,,159.19323530001566,160.19443500001216,159.19323530001566,160.19443500001216,159.19323530001566,160.19443500001216,159.19323530001566,160.19443500001216,down,1,0.3149610999971628,159.19323530001566,None,159.19323530001566,None,159.19323530001566,159.69361850002315,159.19323530001566,159.69361850002315,159.19323530001566,159.69361850002315,159.19323530001566,159.69361850002315,159.19323530001566,None,,,,,,,,,,,,,,,,,,,,,,,,,,,,,,,,,,,,,,,,,,11007,001,2024_Jan_01_1443,nback,2021.2.3,59.65316458232454,
1-back,instructions\back-1.png,conditions\1back-p.xlsx,instructions\1-BACK.png,"(25, 15)",practice,1,1,stim\yellow.png,stim\gray.png,stim\gray.png,stim\gray.png,left,0,0,0,0,0,1,1,1,0,5,5,5,,,,,,,,,,,,,,,,,,,,,,,,,,,160.6956926000421,161.69740050000837,160.6956926000421,161.69740050000837,160.6956926000421,161.69740050000837,160.6956926000421,161.69740050000837,left,1,0.4361259999568574,160.6956926000421,None,160.6956926000421,None,160.6956926000421,161.19618329999503,160.6956926000421,161.19618329999503,160.6956926000421,161.19618329999503,160.6956926000421,161.19618329999503,160.6956926000421,None,,,,,,,,,,,,,,,,,,,,,,,,,,,,,,,,,,,,,,,,,,11007,001,2024_Jan_01_1443,nback,2021.2.3,59.65316458232454,
1-back,instructions\back-1.png,conditions\1back-p.xlsx,instructions\1-BACK.png,"(25, 15)",practice,1,4,stim\gray.png,stim\gray.png,stim\gray.png,stim\yellow.png,up,0,0,0,0,0,1,1,1,0,6,6,6,,,,,,,,,,,,,,,,,,,,,,,,,,,162.1813234000001,163.18271359999198,162.1813234000001,163.18271359999198,162.1813234000001,163.18271359999198,162.1813234000001,163.18271359999198,up,1,0.3830960000050254,162.1813234000001,None,162.1813234000001,None,162.1813234000001,162.68151220004074,162.1813234000001,162.68151220004074,162.1813234000001,162.68151220004074,162.1813234000001,162.68151220004074,162.1813234000001,None,,,,,,,,,,,,,,,,,,,,,,,,,,,,,,,,,,,,,,,,,,11007,001,2024_Jan_01_1443,nback,2021.2.3,59.65316458232454,
1-back,instructions\back-1.png,conditions\1back-p.xlsx,instructions\1-BACK.png,"(25, 15)",practice,1,3,stim\gray.png,stim\gray.png,stim\yellow.png,stim\gray.png,down,0,0,0,0,0,1,1,1,0,7,7,7,,,,,,,,,,,,,,,,,,,,,,,,,,,163.68318900000304,164.68441790004726,163.68318900000304,164.68441790004726,163.68318900000304,164.68441790004726,163.68318900000304,164.68441790004726,down,1,0.3605514000519179,163.68318900000304,None,163.68318900000304,None,163.68318900000304,164.18429160001688,163.68318900000304,164.18429160001688,163.68318900000304,164.18429160001688,163.68318900000304,164.18429160001688,163.68318900000304,None,,,,,,,,,,,,,,,,,,,,,,,,,,,,,,,,,,,,,,,,,,11007,001,2024_Jan_01_1443,nback,2021.2.3,59.65316458232454,
1-back,instructions\back-1.png,conditions\1back-p.xlsx,instructions\1-BACK.png,"(25, 15)",practice,1,3,stim\gray.png,stim\gray.png,stim\yellow.png,stim\gray.png,right,0,0,0,0,0,1,1,1,0,8,8,8,,,,,,,,,,,,,,,,,,,,,,,,,,,165.1851208000444,166.18719090003287,165.1851208000444,166.18719090003287,165.1851208000444,166.18719090003287,165.1851208000444,166.18719090003287,right,1,0.4266794000286609,165.1851208000444,None,165.1851208000444,None,165.1851208000444,165.68681460001972,165.1851208000444,165.68681460001972,165.1851208000444,165.68681460001972,165.1851208000444,165.68681460001972,165.1851208000444,None,,,,,,,,,,,,,,,,,,,,,,,,,,,,,,,,,,,,,,,,,,11007,001,2024_Jan_01_1443,nback,2021.2.3,59.65316458232454,
1-back,instructions\back-1.png,conditions\1back-p.xlsx,instructions\1-BACK.png,"(25, 15)",practice,1,4,stim\gray.png,stim\gray.png,stim\gray.png,stim\yellow.png,right,0,0,0,0,0,1,1,1,0,9,9,9,,,,,,,,,,,,,,,,,,,,,,,,,,,166.68818800000008,167.6898029000149,166.68818800000008,167.6898029000149,166.68818800000008,167.6898029000149,166.68818800000008,167.6898029000149,right,1,0.3320819999789819,166.68818800000008,None,166.68818800000008,None,166.68818800000008,167.1881188999978,166.68818800000008,167.1881188999978,166.68818800000008,167.1881188999978,166.68818800000008,167.1881188999978,166.68818800000008,None,,,,,,,,,,,,,,,,,,,,,,,,,,,,,,,,,,,,,,,,,,11007,001,2024_Jan_01_1443,nback,2021.2.3,59.65316458232454,
1-back,instructions\back-1.png,conditions\1back-p.xlsx,instructions\1-BACK.png,"(25, 15)",practice,1,1,stim\yellow.png,stim\gray.png,stim\gray.png,stim\gray.png,down,0,0,0,0,0,1,1,1,0,10,10,10,,,,,,,,,,,,,,,,,,,,,,,,,,,168.18961230001878,169.19171460001962,168.18961230001878,169.19171460001962,168.18961230001878,169.19171460001962,168.18961230001878,169.19171460001962,down,1,0.3351873000501655,168.18961230001878,None,168.18961230001878,None,168.18961230001878,168.6908655000152,168.18961230001878,168.6908655000152,168.18961230001878,168.6908655000152,168.18961230001878,168.6908655000152,168.18961230001878,None,,,,,,,,,,,,,,,,,,,,,,,,,,,,,,,,,,,,,,,,,,11007,001,2024_Jan_01_1443,nback,2021.2.3,59.65316458232454,
1-back,instructions\back-1.png,conditions\1back-p.xlsx,instructions\1-BACK.png,"(25, 15)",practice,1,2,stim\gray.png,stim\yellow.png,stim\gray.png,stim\gray.png,up,0,0,0,0,0,1,1,1,0,11,11,11,,,,,,,,,,,,,,,,,,,,,,,,,,,169.69158800004516,170.69383540004492,169.69158800004516,170.69383540004492,169.69158800004516,170.69383540004492,169.69158800004516,170.69383540004492,up,1,0.3446873999782838,169.69158800004516,None,169.69158800004516,None,169.69158800004516,170.19276990002254,169.69158800004516,170.19276990002254,169.69158800004516,170.19276990002254,169.69158800004516,170.19276990002254,169.69158800004516,None,,,,,,,,,,,,,,,,,,,,,,,,,,,,,,,,,,,,,,,,,,11007,001,2024_Jan_01_1443,nback,2021.2.3,59.65316458232454,
1-back,instructions\back-1.png,conditions\1back-p.xlsx,instructions\1-BACK.png,"(25, 15)",practice,1,4,stim\gray.png,stim\gray.png,stim\gray.png,stim\yellow.png,left,0,0,0,0,0,1,1,1,0,12,12,12,,,,,,,,,,,,,,,,,,,,,,,,,,,171.19506210001418,172.19610250002006,171.19506210001418,172.19610250002006,171.19506210001418,172.19610250002006,171.19506210001418,172.19610250002006,left,1,0.4089009999879636,171.19506210001418,None,171.19506210001418,None,171.19506210001418,171.6948398000095,171.19506210001418,171.6948398000095,171.19506210001418,171.6948398000095,171.19506210001418,171.6948398000095,171.19506210001418,None,,,,,,,,,,,,,,,,,,,,,,,,,,,,,,,,,,,,,,,,,,11007,001,2024_Jan_01_1443,nback,2021.2.3,59.65316458232454,
1-back,instructions\back-1.png,conditions\1back-p.xlsx,instructions\1-BACK.png,"(25, 15)",practice,1,3,stim\gray.png,stim\gray.png,stim\yellow.png,stim\gray.png,down,0,0,0,0,0,1,1,1,0,13,13,13,,,,,,,,,,,,,,,,,,,,,,,,,,,172.69625060004182,173.69887640001252,172.69625060004182,173.69887640001252,172.69625060004182,173.69887640001252,172.69625060004182,173.69887640001252,down,1,0.4356907000183128,172.69625060004182,None,172.69625060004182,None,172.69625060004182,173.19780930003617,172.69625060004182,173.19780930003617,172.69625060004182,173.19780930003617,172.69625060004182,173.19780930003617,172.69625060004182,None,,,,,,,,,,,,,,,,,,,,,,,,,,,,,,,,,,,,,,,,,,11007,001,2024_Jan_01_1443,nback,2021.2.3,59.65316458232454,
1-back,instructions\back-1.png,conditions\1back-p.xlsx,instructions\1-BACK.png,"(25, 15)",practice,1,1,stim\yellow.png,stim\gray.png,stim\gray.png,stim\gray.png,right,0,0,0,0,0,1,1,1,0,14,14,14,,,,,,,,,,,,,,,,,,,,,,,,,,,174.18240730004618,175.18381040001987,174.18240730004618,175.18381040001987,174.18240730004618,175.18381040001987,174.18240730004618,175.18381040001987,right,1,0.48556250002002344,174.18240730004618,None,174.18240730004618,None,174.18240730004618,174.6825000999961,174.18240730004618,174.6825000999961,174.18240730004618,174.6825000999961,174.18240730004618,174.6825000999961,174.18240730004618,None,,,,,,,,,,,,,,,,,,,,,,,,,,,,,,,,,,,,,,,,,,11007,001,2024_Jan_01_1443,nback,2021.2.3,59.65316458232454,
1-back,instructions\back-1.png,conditions\1back-p.xlsx,instructions\1-BACK.png,"(25, 15)",practice,1,2,stim\gray.png,stim\yellow.png,stim\gray.png,stim\gray.png,up,0,0,0,0,0,1,1,1,0,15,15,15,,,,,,,,,,,,,,,,,,,,,,,,,,,175.68402720004087,176.68606840004213,175.68402720004087,176.68606840004213,175.68402720004087,176.68606840004213,175.68402720004087,176.68606840004213,up,1,0.48873089998960495,175.68402720004087,None,175.68402720004087,None,175.68402720004087,176.18531730002724,175.68402720004087,176.18531730002724,175.68402720004087,176.18531730002724,175.68402720004087,176.18531730002724,175.68402720004087,None,,,,,,,,,,,,,,,,,,,,,,,,,,,,,,,,,,,,,,,,,,11007,001,2024_Jan_01_1443,nback,2021.2.3,59.65316458232454,
1-back,instructions\back-1.png,conditions\1back-p.xlsx,instructions\1-BACK.png,"(25, 15)",practice,1,3,stim\gray.png,stim\gray.png,stim\yellow.png,stim\gray.png,left,0,0,0,0,0,1,1,1,0,16,16,16,,,,,,,,,,,,,,,,,,,,,,,,,,,177.1868910000194,178.18807940004626,177.1868910000194,178.18807940004626,177.1868910000194,178.18807940004626,177.1868910000194,178.18807940004626,left,1,0.3691263999789953,177.1868910000194,None,177.1868910000194,None,177.1868910000194,177.68840520002414,177.1868910000194,177.68840520002414,177.1868910000194,177.68840520002414,177.1868910000194,177.68840520002414,177.1868910000194,None,,,,,,,,,,,,,,,,,,,,,,,,,,,,,,,,,,,,,,,,,,11007,001,2024_Jan_01_1443,nback,2021.2.3,59.65316458232454,
1-back,instructions\back-1.png,conditions\1back-p.xlsx,instructions\1-BACK.png,"(25, 15)",practice,1,1,stim\yellow.png,stim\gray.png,stim\gray.png,stim\gray.png,right,0,0,0,0,0,1,1,1,0,17,17,17,,,,,,,,,,,,,,,,,,,,,,,,,,,178.68824290001066,179.6903491000412,178.68824290001066,179.6903491000412,178.68824290001066,179.6903491000412,178.68824290001066,179.6903491000412,right,1,0.41167569998651743,178.68824290001066,None,178.68824290001066,None,178.68824290001066,179.19032290001633,178.68824290001066,179.19032290001633,178.68824290001066,179.19032290001633,178.68824290001066,179.19032290001633,178.68824290001066,None,,,,,,,,,,,,,,,,,,,,,,,,,,,,,,,,,,,,,,,,,,11007,001,2024_Jan_01_1443,nback,2021.2.3,59.65316458232454,
1-back,instructions\back-1.png,conditions\1back-p.xlsx,instructions\1-BACK.png,"(25, 15)",practice,1,4,stim\gray.png,stim\gray.png,stim\gray.png,stim\yellow.png,up,0,0,0,0,0,1,1,1,0,18,18,18,,,,,,,,,,,,,,,,,,,,,,,,,,,180.19083229999524,181.1931705000461,180.19083229999524,181.1931705000461,180.19083229999524,181.1931705000461,180.19083229999524,181.1931705000461,up,1,0.261151599988807,180.19083229999524,None,180.19083229999524,None,180.19083229999524,180.69126690004487,180.19083229999524,180.69126690004487,180.19083229999524,180.69126690004487,180.19083229999524,180.69126690004487,180.19083229999524,None,,,,,,,,,,,,,,,,,,,,,,,,,,,,,,,,,,,,,,,,,,11007,001,2024_Jan_01_1443,nback,2021.2.3,59.65316458232454,
1-back,instructions\back-1.png,conditions\1back-p.xlsx,instructions\1-BACK.png,"(25, 15)",practice,1,2,stim\gray.png,stim\yellow.png,stim\gray.png,stim\gray.png,down,0,0,0,0,0,1,1,1,0,19,19,19,,,,,,,,,,,,,,,,,,,,,,,,,,,181.69327290001092,182.6942388000316,181.69327290001092,182.6942388000316,181.69327290001092,182.6942388000316,181.69327290001092,182.6942388000316,down,1,0.16715679998742417,181.69327290001092,None,181.69327290001092,None,181.69327290001092,182.19439080002485,181.69327290001092,182.19439080002485,181.69327290001092,182.19439080002485,181.69327290001092,182.19439080002485,181.69327290001092,None,,,,,,,,,,,,,,,,,,,,,,,,,,,,,,,,,,,,,,,,,,11007,001,2024_Jan_01_1443,nback,2021.2.3,59.65316458232454,
1-back,instructions\back-1.png,conditions\1back-p.xlsx,instructions\1-BACK.png,"(25, 15)",,,,,,,,,0,0,0,0,0,1,1,1,,,,,,,,,,,,,,,,,,,,,,,,,,,,,,,,,,,,,,,,,,,,,,,,,,,,,,,,,,,,,,,,,,,,,,,,,,,,,,,,,,,,,,,,,,,,,,,,,11007,001,2024_Jan_01_1443,nback,2021.2.3,59.65316458232454,
2-back,instructions\back-2.png,conditions\2back-p.xlsx,instructions\2-BACK.png,"(25, 15)",practice,2,1,stim\yellow.png,stim\gray.png,stim\gray.png,stim\gray.png,None,0,0,0,0,0,2,2,2,0,0,0,0,,,,,,,,,,,,,,,,,183.34525030001532,None,space,9.818467400036752,183.34525030001532,None,193.343225300021,197.85191210004268,197.8004602000001,None,198.20146380004007,199.20217490004143,198.20146380004007,199.20217490004143,198.20146380004007,199.20217490004143,198.20146380004007,199.20217490004143,None,1,,198.20146380004007,None,198.20146380004007,None,198.20146380004007,198.70207550004125,198.20146380004007,198.70207550004125,198.20146380004007,198.70207550004125,198.20146380004007,198.70207550004125,198.20146380004007,None,,,,,,,,,,,,,,,,,,,,,,,,,,,,,,,,,,,,,,,,,,11007,001,2024_Jan_01_1443,nback,2021.2.3,59.65316458232454,
2-back,instructions\back-2.png,conditions\2back-p.xlsx,instructions\2-BACK.png,"(25, 15)",practice,2,2,stim\gray.png,stim\yellow.png,stim\gray.png,stim\gray.png,None,0,0,0,0,0,2,2,2,0,1,1,1,,,,,,,,,,,,,,,,,,,,,,,,,,,199.6862897000392,200.6884265000117,199.6862897000392,200.6884265000117,199.6862897000392,200.6884265000117,199.6862897000392,200.6884265000117,None,1,,199.6862897000392,None,199.6862897000392,None,199.6862897000392,200.18766650004545,199.6862897000392,200.18766650004545,199.6862897000392,200.18766650004545,199.6862897000392,200.18766650004545,199.6862897000392,None,,,,,,,,,,,,,,,,,,,,,,,,,,,,,,,,,,,,,,,,,,11007,001,2024_Jan_01_1443,nback,2021.2.3,59.65316458232454,
2-back,instructions\back-2.png,conditions\2back-p.xlsx,instructions\2-BACK.png,"(25, 15)",practice,2,3,stim\gray.png,stim\gray.png,stim\yellow.png,stim\gray.png,up,0,0,0,0,0,2,2,2,0,2,2,2,,,,,,,,,,,,,,,,,,,,,,,,,,,201.18839970004046,202.19038720004028,201.18839970004046,202.19038720004028,201.18839970004046,202.19038720004028,201.18839970004046,202.19038720004028,up,1,0.33599639998283237,201.18839970004046,None,201.18839970004046,None,201.18839970004046,201.68919530004496,201.18839970004046,201.68919530004496,201.18839970004046,201.68919530004496,201.18839970004046,201.68919530004496,201.18839970004046,None,,,,,,,,,,,,,,,,,,,,,,,,,,,,,,,,,,,,,,,,,,11007,001,2024_Jan_01_1443,nback,2021.2.3,59.65316458232454,
2-back,instructions\back-2.png,conditions\2back-p.xlsx,instructions\2-BACK.png,"(25, 15)",practice,2,4,stim\gray.png,stim\gray.png,stim\gray.png,stim\yellow.png,left,0,0,0,0,0,2,2,2,0,3,3,3,,,,,,,,,,,,,,,,,,,,,,,,,,,202.69073420000495,203.69212910003262,202.69073420000495,203.69212910003262,202.69073420000495,203.69212910003262,202.69073420000495,203.69212910003262,left,1,0.03330599999753758,202.69073420000495,None,202.69073420000495,None,202.69073420000495,203.1918826000183,202.69073420000495,203.1918826000183,202.69073420000495,203.1918826000183,202.69073420000495,203.1918826000183,202.69073420000495,None,,,,,,,,,,,,,,,,,,,,,,,,,,,,,,,,,,,,,,,,,,11007,001,2024_Jan_01_1443,nback,2021.2.3,59.65316458232454,
2-back,instructions\back-2.png,conditions\2back-p.xlsx,instructions\2-BACK.png,"(25, 15)",practice,2,2,stim\gray.png,stim\yellow.png,stim\gray.png,stim\gray.png,right,0,0,0,0,0,2,2,2,0,4,4,4,,,,,,,,,,,,,,,,,,,,,,,,,,,204.19276260002516,205.19478750001872,204.19276260002516,205.19478750001872,204.19276260002516,205.19478750001872,204.19276260002516,205.19478750001872,right,1,1.4272600000258535,204.19276260002516,None,204.19276260002516,None,204.19276260002516,204.69401199999265,204.19276260002516,204.69401199999265,204.19276260002516,204.69401199999265,204.19276260002516,204.69401199999265,204.19276260002516,None,,,,,,,,,,,,,,,,,,,,,,,,,,,,,,,,,,,,,,,,,,11007,001,2024_Jan_01_1443,nback,2021.2.3,59.65316458232454,
2-back,instructions\back-2.png,conditions\2back-p.xlsx,instructions\2-BACK.png,"(25, 15)",practice,2,1,stim\yellow.png,stim\gray.png,stim\gray.png,stim\gray.png,down,0,0,0,0,0,2,2,2,0,5,5,5,,,,,,,,,,,,,,,,,,,,,,,,,,,205.69547520001652,206.6974325000192,205.69547520001652,206.6974325000192,205.69547520001652,206.6974325000192,205.69547520001652,206.6974325000192,down,1,1.2854369999840856,205.69547520001652,None,205.69547520001652,None,205.69547520001652,206.196322600008,205.69547520001652,206.196322600008,205.69547520001652,206.196322600008,205.69547520001652,206.196322600008,205.69547520001652,None,,,,,,,,,,,,,,,,,,,,,,,,,,,,,,,,,,,,,,,,,,11007,001,2024_Jan_01_1443,nback,2021.2.3,59.65316458232454,
2-back,instructions\back-2.png,conditions\2back-p.xlsx,instructions\2-BACK.png,"(25, 15)",practice,2,4,stim\gray.png,stim\gray.png,stim\gray.png,stim\yellow.png,left,0,0,0,0,0,2,2,2,0,6,6,6,,,,,,,,,,,,,,,,,,,,,,,,,,,207.1979108999949,208.1990770000266,207.1979108999949,208.1990770000266,207.1979108999949,208.1990770000266,207.1979108999949,208.1990770000266,left,1,1.1100787000032142,207.1979108999949,None,207.1979108999949,None,207.1979108999949,207.69934930000454,207.1979108999949,207.69934930000454,207.1979108999949,207.69934930000454,207.1979108999949,207.69934930000454,207.1979108999949,None,,,,,,,,,,,,,,,,,,,,,,,,,,,,,,,,,,,,,,,,,,11007,001,2024_Jan_01_1443,nback,2021.2.3,59.65316458232454,
2-back,instructions\back-2.png,conditions\2back-p.xlsx,instructions\2-BACK.png,"(25, 15)",practice,2,3,stim\gray.png,stim\gray.png,stim\yellow.png,stim\gray.png,up,0,0,0,0,0,2,2,2,0,7,7,7,,,,,,,,,,,,,,,,,,,,,,,,,,,208.68347099999664,209.68470230000094,208.68347099999664,209.68470230000094,208.68347099999664,209.68470230000094,208.68347099999664,209.68470230000094,up,1,0.9206871000351384,208.68347099999664,None,208.68347099999664,None,208.68347099999664,209.18432679999387,208.68347099999664,209.18432679999387,208.68347099999664,209.18432679999387,208.68347099999664,209.18432679999387,208.68347099999664,None,,,,,,,,,,,,,,,,,,,,,,,,,,,,,,,,,,,,,,,,,,11007,001,2024_Jan_01_1443,nback,2021.2.3,59.65316458232454,
2-back,instructions\back-2.png,conditions\2back-p.xlsx,instructions\2-BACK.png,"(25, 15)",practice,2,3,stim\gray.png,stim\gray.png,stim\yellow.png,stim\gray.png,down,0,0,0,0,0,2,2,2,0,8,8,8,,,,,,,,,,,,,,,,,,,,,,,,,,,210.1856043000007,211.18711910001002,210.1856043000007,211.18711910001002,210.1856043000007,211.18711910001002,210.1856043000007,211.18711910001002,right,0,1.1943170999875292,210.1856043000007,None,210.1856043000007,None,210.1856043000007,210.68693850003183,210.1856043000007,210.68693850003183,210.1856043000007,210.68693850003183,210.1856043000007,210.68693850003183,210.1856043000007,None,,,,,,,,,,,,,,,,,,,,,,,,,,,,,,,,,,,,,,,,,,11007,001,2024_Jan_01_1443,nback,2021.2.3,59.65316458232454,
2-back,instructions\back-2.png,conditions\2back-p.xlsx,instructions\2-BACK.png,"(25, 15)",practice,2,4,stim\gray.png,stim\gray.png,stim\gray.png,stim\yellow.png,right,0,0,0,0,0,2,2,2,0,9,9,9,,,,,,,,,,,,,,,,,,,,,,,,,,,211.68729800003348,212.6890410000342,211.68729800003348,212.6890410000342,211.68729800003348,212.6890410000342,211.68729800003348,212.6890410000342,right,1,1.3726741000427864,211.68729800003348,None,211.68729800003348,None,211.68729800003348,212.18857440003194,211.68729800003348,212.18857440003194,211.68729800003348,212.18857440003194,211.68729800003348,212.18857440003194,211.68729800003348,None,,,,,,,,,,,,,,,,,,,,,,,,,,,,,,,,,,,,,,,,,,11007,001,2024_Jan_01_1443,nback,2021.2.3,59.65316458232454,
2-back,instructions\back-2.png,conditions\2back-p.xlsx,instructions\2-BACK.png,"(25, 15)",practice,2,1,stim\yellow.png,stim\gray.png,stim\gray.png,stim\gray.png,right,0,0,0,0,0,2,2,2,0,10,10,10,,,,,,,,,,,,,,,,,,,,,,,,,,,213.18961760000093,214.19129800004885,213.18961760000093,214.19129800004885,213.18961760000093,214.19129800004885,213.18961760000093,214.19129800004885,None,0,,213.18961760000093,None,213.18961760000093,None,213.18961760000093,213.69116550002946,213.18961760000093,213.69116550002946,213.18961760000093,213.69116550002946,213.18961760000093,213.69116550002946,213.18961760000093,None,,,,,,,,,,,,,,,,,,,,,,,,,,,,,,,,,,,,,,,,,,11007,001,2024_Jan_01_1443,nback,2021.2.3,59.65316458232454,
2-back,instructions\back-2.png,conditions\2back-p.xlsx,instructions\2-BACK.png,"(25, 15)",practice,2,2,stim\gray.png,stim\yellow.png,stim\gray.png,stim\gray.png,down,0,0,0,0,0,2,2,2,0,11,11,11,,,,,,,,,,,,,,,,,,,,,,,,,,,214.69207580003422,215.69376570003806,214.69207580003422,215.69376570003806,214.69207580003422,215.69376570003806,214.69207580003422,215.69376570003806,left,0,0.11209599999710917,214.69207580003422,None,214.69207580003422,None,214.69207580003422,215.19240790000185,214.69207580003422,215.19240790000185,214.69207580003422,215.19240790000185,214.69207580003422,215.19240790000185,214.69207580003422,None,,,,,,,,,,,,,,,,,,,,,,,,,,,,,,,,,,,,,,,,,,11007,001,2024_Jan_01_1443,nback,2021.2.3,59.65316458232454,
2-back,instructions\back-2.png,conditions\2back-p.xlsx,instructions\2-BACK.png,"(25, 15)",practice,2,4,stim\gray.png,stim\gray.png,stim\gray.png,stim\yellow.png,up,0,0,0,0,0,2,2,2,0,12,12,12,,,,,,,,,,,,,,,,,,,,,,,,,,,216.19467340002302,217.19628060003743,216.19467340002302,217.19628060003743,216.19467340002302,217.19628060003743,216.19467340002302,217.19628060003743,left,0,1.2491704000276513,216.19467340002302,None,216.19467340002302,None,216.19467340002302,216.69477270002244,216.19467340002302,216.69477270002244,216.19467340002302,216.69477270002244,216.19467340002302,216.69477270002244,216.19467340002302,None,,,,,,,,,,,,,,,,,,,,,,,,,,,,,,,,,,,,,,,,,,11007,001,2024_Jan_01_1443,nback,2021.2.3,59.65316458232454,
2-back,instructions\back-2.png,conditions\2back-p.xlsx,instructions\2-BACK.png,"(25, 15)",practice,2,3,stim\gray.png,stim\gray.png,stim\yellow.png,stim\gray.png,left,0,0,0,0,0,2,2,2,0,13,13,13,,,,,,,,,,,,,,,,,,,,,,,,,,,217.69636780000292,218.69796560000395,217.69636780000292,218.69796560000395,217.69636780000292,218.69796560000395,217.69636780000292,218.69796560000395,None,0,,217.69636780000292,None,217.69636780000292,None,217.69636780000292,218.19716640003026,217.69636780000292,218.19716640003026,217.69636780000292,218.19716640003026,217.69636780000292,218.19716640003026,217.69636780000292,None,,,,,,,,,,,,,,,,,,,,,,,,,,,,,,,,,,,,,,,,,,11007,001,2024_Jan_01_1443,nback,2021.2.3,59.65316458232454,
2-back,instructions\back-2.png,conditions\2back-p.xlsx,instructions\2-BACK.png,"(25, 15)",practice,2,1,stim\yellow.png,stim\gray.png,stim\gray.png,stim\gray.png,down,0,0,0,0,0,2,2,2,0,14,14,14,,,,,,,,,,,,,,,,,,,,,,,,,,,219.19849090004573,220.19981090002693,219.19849090004573,220.19981090002693,219.19849090004573,220.19981090002693,219.19849090004573,220.19981090002693,up,0,0.26941020000958815,219.19849090004573,None,219.19849090004573,None,219.19849090004573,219.70006360003026,219.19849090004573,219.70006360003026,219.19849090004573,219.70006360003026,219.19849090004573,219.70006360003026,219.19849090004573,None,,,,,,,,,,,,,,,,,,,,,,,,,,,,,,,,,,,,,,,,,,11007,001,2024_Jan_01_1443,nback,2021.2.3,59.65316458232454,
2-back,instructions\back-2.png,conditions\2back-p.xlsx,instructions\2-BACK.png,"(25, 15)",practice,2,2,stim\gray.png,stim\yellow.png,stim\gray.png,stim\gray.png,right,0,0,0,0,0,2,2,2,0,15,15,15,,,,,,,,,,,,,,,,,,,,,,,,,,,220.6848504000227,221.68559700000333,220.6848504000227,221.68559700000333,220.6848504000227,221.68559700000333,220.6848504000227,221.68559700000333,right,1,0.9516146999667399,220.6848504000227,None,220.6848504000227,None,220.6848504000227,221.1857796999975,220.6848504000227,221.1857796999975,220.6848504000227,221.1857796999975,220.6848504000227,221.1857796999975,220.6848504000227,None,,,,,,,,,,,,,,,,,,,,,,,,,,,,,,,,,,,,,,,,,,11007,001,2024_Jan_01_1443,nback,2021.2.3,59.65316458232454,
2-back,instructions\back-2.png,conditions\2back-p.xlsx,instructions\2-BACK.png,"(25, 15)",practice,2,3,stim\gray.png,stim\gray.png,stim\yellow.png,stim\gray.png,up,0,0,0,0,0,2,2,2,0,16,16,16,,,,,,,,,,,,,,,,,,,,,,,,,,,222.18736219999846,223.188587200013,222.18736219999846,223.188587200013,222.18736219999846,223.188587200013,222.18736219999846,223.188587200013,None,0,,222.18736219999846,None,222.18736219999846,None,222.18736219999846,222.6879973000032,222.18736219999846,222.6879973000032,222.18736219999846,222.6879973000032,222.18736219999846,222.6879973000032,222.18736219999846,None,,,,,,,,,,,,,,,,,,,,,,,,,,,,,,,,,,,,,,,,,,11007,001,2024_Jan_01_1443,nback,2021.2.3,59.65316458232454,
2-back,instructions\back-2.png,conditions\2back-p.xlsx,instructions\2-BACK.png,"(25, 15)",practice,2,1,stim\yellow.png,stim\gray.png,stim\gray.png,stim\gray.png,left,0,0,0,0,0,2,2,2,0,17,17,17,,,,,,,,,,,,,,,,,,,,,,,,,,,223.688424699998,224.6901491000317,223.688424699998,224.6901491000317,223.688424699998,224.6901491000317,223.688424699998,224.6901491000317,left,1,0.5953421000158414,223.688424699998,None,223.688424699998,None,223.688424699998,224.18941530003212,223.688424699998,224.18941530003212,223.688424699998,224.18941530003212,223.688424699998,224.18941530003212,223.688424699998,None,,,,,,,,,,,,,,,,,,,,,,,,,,,,,,,,,,,,,,,,,,11007,001,2024_Jan_01_1443,nback,2021.2.3,59.65316458232454,
2-back,instructions\back-2.png,conditions\2back-p.xlsx,instructions\2-BACK.png,"(25, 15)",practice,2,4,stim\gray.png,stim\gray.png,stim\gray.png,stim\yellow.png,right,0,0,0,0,0,2,2,2,0,18,18,18,,,,,,,,,,,,,,,,,,,,,,,,,,,225.19070730003295,226.19299730000785,225.19070730003295,226.19299730000785,225.19070730003295,226.19299730000785,225.19070730003295,226.19299730000785,up,0,0.6855363000067882,225.19070730003295,None,225.19070730003295,None,225.19070730003295,225.6922551000025,225.19070730003295,225.6922551000025,225.19070730003295,225.6922551000025,225.19070730003295,225.6922551000025,225.19070730003295,None,,,,,,,,,,,,,,,,,,,,,,,,,,,,,,,,,,,,,,,,,,11007,001,2024_Jan_01_1443,nback,2021.2.3,59.65316458232454,
2-back,instructions\back-2.png,conditions\2back-p.xlsx,instructions\2-BACK.png,"(25, 15)",practice,2,2,stim\gray.png,stim\yellow.png,stim\gray.png,stim\gray.png,up,0,0,0,0,0,2,2,2,0,19,19,19,,,,,,,,,,,,,,,,,,,,,,,,,,,226.6929262999911,227.69525420002174,226.6929262999911,227.69525420002174,226.6929262999911,227.69525420002174,226.6929262999911,227.69525420002174,right,0,0.567835699999705,226.6929262999911,None,226.6929262999911,None,226.6929262999911,227.19375750003383,226.6929262999911,227.19375750003383,226.6929262999911,227.19375750003383,226.6929262999911,227.19375750003383,226.6929262999911,None,,,,,,,,,,,,,,,,,,,,,,,,,,,,,,,,,,,,,,,,,,11007,001,2024_Jan_01_1443,nback,2021.2.3,59.65316458232454,
2-back,instructions\back-2.png,conditions\2back-p.xlsx,instructions\2-BACK.png,"(25, 15)",,,,,,,,,0,0,0,0,0,2,2,2,,,,,,,,,,,,,,,,,,,,,,,,,,,,,,,,,,,,,,,,,,,,,,,,,,,,,,,,,,,,,,,,,,,,,,,,,,,,,,,,,,,,,,,,,,,,,,,,,11007,001,2024_Jan_01_1443,nback,2021.2.3,59.65316458232454,
,,,,,,,,,,,,,0,0,0,0,,,,,,,,,,,,,,,,,,,,,,,,,,,,,,,,,,,,,,,,,,,,,,,,,,,,,,,,,,,,228.19584450003458,None,s,11.368419100006577,228.19584450003458,None,,,,,,,,,,,,,,,,,,,,,,,,,,,,,,,,,,,,11007,001,2024_Jan_01_1443,nback,2021.2.3,59.65316458232454,
0-back,instructions\back-0.png,conditions\0back-p.xlsx,instructions\0-BACK.png,"(15, 8)",practice,0,1,stim\yellow.png,stim\gray.png,stim\gray.png,stim\gray.png,up,1,0,1,0,0,0,0,0,0,0,0,0,,,,,,,,,,,,,,,,,239.7452648000326,None,space,5.282512000005227,239.7452648000326,None,245.25360310001997,249.76191890001064,249.6954535000259,None,250.07950250001159,251.07908739999402,250.07950250001159,251.07908739999402,250.07950250001159,251.07908739999402,250.07950250001159,251.07908739999402,up,1,0.40439050004351884,250.07950250001159,None,250.07950250001159,None,250.07950250001159,250.57924540003296,250.07950250001159,250.57924540003296,250.07950250001159,250.57924540003296,250.07950250001159,250.57924540003296,250.07950250001159,None,,,,,,,,,,,,,,,,,,,,,,,,,,,,,,,,,,,,,,,,,,11007,001,2024_Jan_01_1443,nback,2021.2.3,59.65316458232454,
0-back,instructions\back-0.png,conditions\0back-p.xlsx,instructions\0-BACK.png,"(15, 8)",practice,0,2,stim\gray.png,stim\yellow.png,stim\gray.png,stim\gray.png,left,1,0,1,0,0,0,0,0,0,1,1,1,,,,,,,,,,,,,,,,,,,,,,,,,,,251.56319670000812,252.56528380000964,251.56319670000812,252.56528380000964,251.56319670000812,252.56528380000964,251.56319670000812,252.56528380000964,left,1,0.33676780003588647,251.56319670000812,None,251.56319670000812,None,251.56319670000812,252.06464880000567,251.56319670000812,252.06464880000567,251.56319670000812,252.06464880000567,251.56319670000812,252.06464880000567,251.56319670000812,None,,,,,,,,,,,,,,,,,,,,,,,,,,,,,,,,,,,,,,,,,,11007,001,2024_Jan_01_1443,nback,2021.2.3,59.65316458232454,
0-back,instructions\back-0.png,conditions\0back-p.xlsx,instructions\0-BACK.png,"(15, 8)",practice,0,3,stim\gray.png,stim\gray.png,stim\yellow.png,stim\gray.png,right,1,0,1,0,0,0,0,0,0,2,2,2,,,,,,,,,,,,,,,,,,,,,,,,,,,253.06553340004757,254.0669361000182,253.06553340004757,254.0669361000182,253.06553340004757,254.0669361000182,253.06553340004757,254.0669361000182,right,1,0.29038979997858405,253.06553340004757,None,253.06553340004757,None,253.06553340004757,253.56617579999147,253.06553340004757,253.56617579999147,253.06553340004757,253.56617579999147,253.06553340004757,253.56617579999147,253.06553340004757,None,,,,,,,,,,,,,,,,,,,,,,,,,,,,,,,,,,,,,,,,,,11007,001,2024_Jan_01_1443,nback,2021.2.3,59.65316458232454,
0-back,instructions\back-0.png,conditions\0back-p.xlsx,instructions\0-BACK.png,"(15, 8)",practice,0,4,stim\gray.png,stim\gray.png,stim\gray.png,stim\yellow.png,down,1,0,1,0,0,0,0,0,0,3,3,3,,,,,,,,,,,,,,,,,,,,,,,,,,,254.5675889000413,255.56898969999747,254.5675889000413,255.56898969999747,254.5675889000413,255.56898969999747,254.5675889000413,255.56898969999747,down,1,0.42853129998547956,254.5675889000413,None,254.5675889000413,None,254.5675889000413,255.06851210002787,254.5675889000413,255.06851210002787,254.5675889000413,255.06851210002787,254.5675889000413,255.06851210002787,254.5675889000413,None,,,,,,,,,,,,,,,,,,,,,,,,,,,,,,,,,,,,,,,,,,11007,001,2024_Jan_01_1443,nback,2021.2.3,59.65316458232454,
0-back,instructions\back-0.png,conditions\0back-p.xlsx,instructions\0-BACK.png,"(15, 8)",practice,0,2,stim\gray.png,stim\yellow.png,stim\gray.png,stim\gray.png,left,1,0,1,0,0,0,0,0,0,4,4,4,,,,,,,,,,,,,,,,,,,,,,,,,,,256.0696988000418,257.0716995000257,256.0696988000418,257.0716995000257,256.0696988000418,257.0716995000257,256.0696988000418,257.0716995000257,left,1,0.3022783999913372,256.0696988000418,None,256.0696988000418,None,256.0696988000418,256.5709829000407,256.0696988000418,256.5709829000407,256.0696988000418,256.5709829000407,256.0696988000418,256.5709829000407,256.0696988000418,None,,,,,,,,,,,,,,,,,,,,,,,,,,,,,,,,,,,,,,,,,,11007,001,2024_Jan_01_1443,nback,2021.2.3,59.65316458232454,
0-back,instructions\back-0.png,conditions\0back-p.xlsx,instructions\0-BACK.png,"(15, 8)",practice,0,1,stim\yellow.png,stim\gray.png,stim\gray.png,stim\gray.png,up,1,0,1,0,0,0,0,0,0,5,5,5,,,,,,,,,,,,,,,,,,,,,,,,,,,257.5727249000338,258.57581290003145,257.5727249000338,258.57581290003145,257.5727249000338,258.57581290003145,257.5727249000338,258.57581290003145,up,1,0.33506200002739206,257.5727249000338,None,257.5727249000338,None,257.5727249000338,258.07342250004876,257.5727249000338,258.07342250004876,257.5727249000338,258.07342250004876,257.5727249000338,258.07342250004876,257.5727249000338,None,,,,,,,,,,,,,,,,,,,,,,,,,,,,,,,,,,,,,,,,,,11007,001,2024_Jan_01_1443,nback,2021.2.3,59.65316458232454,
0-back,instructions\back-0.png,conditions\0back-p.xlsx,instructions\0-BACK.png,"(15, 8)",practice,0,4,stim\gray.png,stim\gray.png,stim\gray.png,stim\yellow.png,down,1,0,1,0,0,0,0,0,0,6,6,6,,,,,,,,,,,,,,,,,,,,,,,,,,,259.0748188000289,260.076794099994,259.0748188000289,260.076794099994,259.0748188000289,260.076794099994,259.0748188000289,260.076794099994,down,1,0.4500664999941364,259.0748188000289,None,259.0748188000289,None,259.0748188000289,259.5749558000243,259.0748188000289,259.5749558000243,259.0748188000289,259.5749558000243,259.0748188000289,259.5749558000243,259.0748188000289,None,,,,,,,,,,,,,,,,,,,,,,,,,,,,,,,,,,,,,,,,,,11007,001,2024_Jan_01_1443,nback,2021.2.3,59.65316458232454,
0-back,instructions\back-0.png,conditions\0back-p.xlsx,instructions\0-BACK.png,"(15, 8)",practice,0,3,stim\gray.png,stim\gray.png,stim\yellow.png,stim\gray.png,right,1,0,1,0,0,0,0,0,0,7,7,7,,,,,,,,,,,,,,,,,,,,,,,,,,,260.56016100000124,261.56207869999344,260.56016100000124,261.56207869999344,260.56016100000124,261.56207869999344,260.56016100000124,261.56207869999344,right,1,0.30803580000065267,260.56016100000124,None,260.56016100000124,None,260.56016100000124,261.0614403000218,260.56016100000124,261.0614403000218,260.56016100000124,261.0614403000218,260.56016100000124,261.0614403000218,260.56016100000124,None,,,,,,,,,,,,,,,,,,,,,,,,,,,,,,,,,,,,,,,,,,11007,001,2024_Jan_01_1443,nback,2021.2.3,59.65316458232454,
0-back,instructions\back-0.png,conditions\0back-p.xlsx,instructions\0-BACK.png,"(15, 8)",practice,0,3,stim\gray.png,stim\gray.png,stim\yellow.png,stim\gray.png,right,1,0,1,0,0,0,0,0,0,8,8,8,,,,,,,,,,,,,,,,,,,,,,,,,,,262.0620069000288,263.0644629000453,262.0620069000288,263.0644629000453,262.0620069000288,263.0644629000453,262.0620069000288,263.0644629000453,right,1,0.35817190003581345,262.0620069000288,None,262.0620069000288,None,262.0620069000288,262.5626986999996,262.0620069000288,262.5626986999996,262.0620069000288,262.5626986999996,262.0620069000288,262.5626986999996,262.0620069000288,None,,,,,,,,,,,,,,,,,,,,,,,,,,,,,,,,,,,,,,,,,,11007,001,2024_Jan_01_1443,nback,2021.2.3,59.65316458232454,
0-back,instructions\back-0.png,conditions\0back-p.xlsx,instructions\0-BACK.png,"(15, 8)",practice,0,4,stim\gray.png,stim\gray.png,stim\gray.png,stim\yellow.png,down,1,0,1,0,0,0,0,0,0,9,9,9,,,,,,,,,,,,,,,,,,,,,,,,,,,263.56458050000947,264.5665193000459,263.56458050000947,264.5665193000459,263.56458050000947,264.5665193000459,263.56458050000947,264.5665193000459,down,1,0.45563169999513775,263.56458050000947,None,263.56458050000947,None,263.56458050000947,264.0657632999937,263.56458050000947,264.0657632999937,263.56458050000947,264.0657632999937,263.56458050000947,264.0657632999937,263.56458050000947,None,,,,,,,,,,,,,,,,,,,,,,,,,,,,,,,,,,,,,,,,,,11007,001,2024_Jan_01_1443,nback,2021.2.3,59.65316458232454,
0-back,instructions\back-0.png,conditions\0back-p.xlsx,instructions\0-BACK.png,"(15, 8)",practice,0,1,stim\yellow.png,stim\gray.png,stim\gray.png,stim\gray.png,up,1,0,1,0,0,0,0,0,0,10,10,10,,,,,,,,,,,,,,,,,,,,,,,,,,,265.0673028000165,266.06874990003416,265.0673028000165,266.06874990003416,265.0673028000165,266.06874990003416,265.0673028000165,266.06874990003416,up,1,0.2805704000056721,265.0673028000165,None,265.0673028000165,None,265.0673028000165,265.567317500012,265.0673028000165,265.567317500012,265.0673028000165,265.567317500012,265.0673028000165,265.567317500012,265.0673028000165,None,,,,,,,,,,,,,,,,,,,,,,,,,,,,,,,,,,,,,,,,,,11007,001,2024_Jan_01_1443,nback,2021.2.3,59.65316458232454,
0-back,instructions\back-0.png,conditions\0back-p.xlsx,instructions\0-BACK.png,"(15, 8)",practice,0,2,stim\gray.png,stim\yellow.png,stim\gray.png,stim\gray.png,left,1,0,1,0,0,0,0,0,0,11,11,11,,,,,,,,,,,,,,,,,,,,,,,,,,,266.5689733000472,267.5706519000232,266.5689733000472,267.5706519000232,266.5689733000472,267.5706519000232,266.5689733000472,267.5706519000232,left,1,0.2679614999797195,266.5689733000472,None,266.5689733000472,None,266.5689733000472,267.070127300045,266.5689733000472,267.070127300045,266.5689733000472,267.070127300045,266.5689733000472,267.070127300045,266.5689733000472,None,,,,,,,,,,,,,,,,,,,,,,,,,,,,,,,,,,,,,,,,,,11007,001,2024_Jan_01_1443,nback,2021.2.3,59.65316458232454,
0-back,instructions\back-0.png,conditions\0back-p.xlsx,instructions\0-BACK.png,"(15, 8)",practice,0,4,stim\gray.png,stim\gray.png,stim\gray.png,stim\yellow.png,down,1,0,1,0,0,0,0,0,0,12,12,12,,,,,,,,,,,,,,,,,,,,,,,,,,,268.071010100015,269.0732786000008,268.071010100015,269.0732786000008,268.071010100015,269.0732786000008,268.071010100015,269.0732786000008,down,1,0.4290757999988273,268.071010100015,None,268.071010100015,None,268.071010100015,268.5726193000446,268.071010100015,268.5726193000446,268.071010100015,268.5726193000446,268.071010100015,268.5726193000446,268.071010100015,None,,,,,,,,,,,,,,,,,,,,,,,,,,,,,,,,,,,,,,,,,,11007,001,2024_Jan_01_1443,nback,2021.2.3,59.65316458232454,
0-back,instructions\back-0.png,conditions\0back-p.xlsx,instructions\0-BACK.png,"(15, 8)",practice,0,3,stim\gray.png,stim\gray.png,stim\yellow.png,stim\gray.png,right,1,0,1,0,0,0,0,0,0,13,13,13,,,,,,,,,,,,,,,,,,,,,,,,,,,269.57314410002436,270.57464420003816,269.57314410002436,270.57464420003816,269.57314410002436,270.57464420003816,269.57314410002436,270.57464420003816,right,1,0.2789164000423625,269.57314410002436,None,269.57314410002436,None,269.57314410002436,270.0750734000467,269.57314410002436,270.0750734000467,269.57314410002436,270.0750734000467,269.57314410002436,270.0750734000467,269.57314410002436,None,,,,,,,,,,,,,,,,,,,,,,,,,,,,,,,,,,,,,,,,,,11007,001,2024_Jan_01_1443,nback,2021.2.3,59.65316458232454,
0-back,instructions\back-0.png,conditions\0back-p.xlsx,instructions\0-BACK.png,"(15, 8)",practice,0,1,stim\yellow.png,stim\gray.png,stim\gray.png,stim\gray.png,up,1,0,1,0,0,0,0,0,0,14,14,14,,,,,,,,,,,,,,,,,,,,,,,,,,,271.05917270004284,272.0603492000373,271.05917270004284,272.0603492000373,271.05917270004284,272.0603492000373,271.05917270004284,272.0603492000373,up,1,0.2969990000128746,271.05917270004284,None,271.05917270004284,None,271.05917270004284,271.5595922000357,271.05917270004284,271.5595922000357,271.05917270004284,271.5595922000357,271.05917270004284,271.5595922000357,271.05917270004284,None,,,,,,,,,,,,,,,,,,,,,,,,,,,,,,,,,,,,,,,,,,11007,001,2024_Jan_01_1443,nback,2021.2.3,59.65316458232454,
0-back,instructions\back-0.png,conditions\0back-p.xlsx,instructions\0-BACK.png,"(15, 8)",practice,0,2,stim\gray.png,stim\yellow.png,stim\gray.png,stim\gray.png,left,1,0,1,0,0,0,0,0,0,15,15,15,,,,,,,,,,,,,,,,,,,,,,,,,,,272.5609712000005,273.56374120002147,272.5609712000005,273.56374120002147,272.5609712000005,273.56374120002147,272.5609712000005,273.56374120002147,left,1,0.29970869998214766,272.5609712000005,None,272.5609712000005,None,272.5609712000005,273.06223909999244,272.5609712000005,273.06223909999244,272.5609712000005,273.06223909999244,272.5609712000005,273.06223909999244,272.5609712000005,None,,,,,,,,,,,,,,,,,,,,,,,,,,,,,,,,,,,,,,,,,,11007,001,2024_Jan_01_1443,nback,2021.2.3,59.65316458232454,
0-back,instructions\back-0.png,conditions\0back-p.xlsx,instructions\0-BACK.png,"(15, 8)",practice,0,3,stim\gray.png,stim\gray.png,stim\yellow.png,stim\gray.png,right,1,0,1,0,0,0,0,0,0,16,16,16,,,,,,,,,,,,,,,,,,,,,,,,,,,274.0629437000025,275.06617090001237,274.0629437000025,275.06617090001237,274.0629437000025,275.06617090001237,274.0629437000025,275.06617090001237,right,1,0.39717160002328455,274.0629437000025,None,274.0629437000025,None,274.0629437000025,274.5644258999964,274.0629437000025,274.5644258999964,274.0629437000025,274.5644258999964,274.0629437000025,274.5644258999964,274.0629437000025,None,,,,,,,,,,,,,,,,,,,,,,,,,,,,,,,,,,,,,,,,,,11007,001,2024_Jan_01_1443,nback,2021.2.3,59.65316458232454,
0-back,instructions\back-0.png,conditions\0back-p.xlsx,instructions\0-BACK.png,"(15, 8)",practice,0,1,stim\yellow.png,stim\gray.png,stim\gray.png,stim\gray.png,up,1,0,1,0,0,0,0,0,0,17,17,17,,,,,,,,,,,,,,,,,,,,,,,,,,,275.5653343000449,276.5674631000147,275.5653343000449,276.5674631000147,275.5653343000449,276.5674631000147,275.5653343000449,276.5674631000147,up,1,0.27865470002871007,275.5653343000449,None,275.5653343000449,None,275.5653343000449,276.0665789000341,275.5653343000449,276.0665789000341,275.5653343000449,276.0665789000341,275.5653343000449,276.0665789000341,275.5653343000449,None,,,,,,,,,,,,,,,,,,,,,,,,,,,,,,,,,,,,,,,,,,11007,001,2024_Jan_01_1443,nback,2021.2.3,59.65316458232454,
0-back,instructions\back-0.png,conditions\0back-p.xlsx,instructions\0-BACK.png,"(15, 8)",practice,0,4,stim\gray.png,stim\gray.png,stim\gray.png,stim\yellow.png,down,1,0,1,0,0,0,0,0,0,18,18,18,,,,,,,,,,,,,,,,,,,,,,,,,,,277.0675379000022,278.07020910002757,277.0675379000022,278.07020910002757,277.0675379000022,278.07020910002757,277.0675379000022,278.07020910002757,down,1,0.2653285000124015,277.0675379000022,None,277.0675379000022,None,277.0675379000022,277.5683839000412,277.0675379000022,277.5683839000412,277.0675379000022,277.5683839000412,277.0675379000022,277.5683839000412,277.0675379000022,None,,,,,,,,,,,,,,,,,,,,,,,,,,,,,,,,,,,,,,,,,,11007,001,2024_Jan_01_1443,nback,2021.2.3,59.65316458232454,
0-back,instructions\back-0.png,conditions\0back-p.xlsx,instructions\0-BACK.png,"(15, 8)",practice,0,2,stim\gray.png,stim\yellow.png,stim\gray.png,stim\gray.png,left,1,0,1,0,0,0,0,0,0,19,19,19,,,,,,,,,,,,,,,,,,,,,,,,,,,278.56986839999445,279.571160099993,278.56986839999445,279.571160099993,278.56986839999445,279.571160099993,278.56986839999445,279.571160099993,left,1,0.32319720002124086,278.56986839999445,None,278.56986839999445,None,278.56986839999445,279.0713131999946,278.56986839999445,279.0713131999946,278.56986839999445,279.0713131999946,278.56986839999445,279.0713131999946,278.56986839999445,None,,,,,,,,,,,,,,,,,,,,,,,,,,,,,,,,,,,,,,,,,,11007,001,2024_Jan_01_1443,nback,2021.2.3,59.65316458232454,
0-back,instructions\back-0.png,conditions\0back-p.xlsx,instructions\0-BACK.png,"(15, 8)",,,,,,,,,1,0,1,0,0,0,0,0,,,,,,,,,,,,,,,,,,,,,,,,,,,,,,,,,,,,,,,,,,,,,,,,,,,,,,,,,,,,,,,,,,,,,,,,,,,,,,,,,,,,,,,,,,,,,,,,,11007,001,2024_Jan_01_1443,nback,2021.2.3,59.65316458232454,
1-back,instructions\back-1.png,conditions\1back-p.xlsx,instructions\1-BACK.png,"(25, 15)",practice,1,1,stim\yellow.png,stim\gray.png,stim\gray.png,stim\gray.png,None,1,0,1,0,0,1,1,1,0,0,0,0,,,,,,,,,,,,,,,,,280.25573530001566,None,space,1.6119753999519162,280.25573530001566,None,282.0079112999956,286.51556870003697,286.48289179999847,None,286.91588720004074,287.91764780000085,286.91588720004074,287.91764780000085,286.91588720004074,287.91764780000085,286.91588720004074,287.91764780000085,None,1,,286.91588720004074,None,286.91588720004074,None,286.91588720004074,287.4171791000408,286.91588720004074,287.4171791000408,286.91588720004074,287.4171791000408,286.91588720004074,287.4171791000408,286.91588720004074,None,,,,,,,,,,,,,,,,,,,,,,,,,,,,,,,,,,,,,,,,,,11007,001,2024_Jan_01_1443,nback,2021.2.3,59.65316458232454,
1-back,instructions\back-1.png,conditions\1back-p.xlsx,instructions\1-BACK.png,"(25, 15)",practice,1,2,stim\gray.png,stim\yellow.png,stim\gray.png,stim\gray.png,up,1,0,1,0,0,1,1,1,0,1,1,1,,,,,,,,,,,,,,,,,,,,,,,,,,,288.4009551000199,289.40256250003586,288.4009551000199,289.40256250003586,288.4009551000199,289.40256250003586,288.4009551000199,289.40256250003586,up,1,0.3075749999843538,288.4009551000199,None,288.4009551000199,None,288.4009551000199,288.90220180002507,288.4009551000199,288.90220180002507,288.4009551000199,288.90220180002507,288.4009551000199,288.90220180002507,288.4009551000199,None,,,,,,,,,,,,,,,,,,,,,,,,,,,,,,,,,,,,,,,,,,11007,001,2024_Jan_01_1443,nback,2021.2.3,59.65316458232454,
1-back,instructions\back-1.png,conditions\1back-p.xlsx,instructions\1-BACK.png,"(25, 15)",practice,1,3,stim\gray.png,stim\gray.png,stim\yellow.png,stim\gray.png,left,1,0,1,0,0,1,1,1,0,2,2,2,,,,,,,,,,,,,,,,,,,,,,,,,,,289.90326059999643,290.90552440000465,289.90326059999643,290.90552440000465,289.90326059999643,290.90552440000465,289.90326059999643,290.90552440000465,left,1,0.2926713000051677,289.90326059999643,None,289.90326059999643,None,289.90326059999643,290.4038972000126,289.90326059999643,290.4038972000126,289.90326059999643,290.4038972000126,289.90326059999643,290.4038972000126,289.90326059999643,None,,,,,,,,,,,,,,,,,,,,,,,,,,,,,,,,,,,,,,,,,,11007,001,2024_Jan_01_1443,nback,2021.2.3,59.65316458232454,
1-back,instructions\back-1.png,conditions\1back-p.xlsx,instructions\1-BACK.png,"(25, 15)",practice,1,4,stim\gray.png,stim\gray.png,stim\gray.png,stim\yellow.png,right,1,0,1,0,0,1,1,1,0,3,3,3,,,,,,,,,,,,,,,,,,,,,,,,,,,291.4059838000103,292.4078062000335,291.4059838000103,292.4078062000335,291.4059838000103,292.4078062000335,291.4059838000103,292.4078062000335,right,1,0.3099694999982603,291.4059838000103,None,291.4059838000103,None,291.4059838000103,291.90609830000903,291.4059838000103,291.90609830000903,291.4059838000103,291.90609830000903,291.4059838000103,291.90609830000903,291.4059838000103,None,,,,,,,,,,,,,,,,,,,,,,,,,,,,,,,,,,,,,,,,,,11007,001,2024_Jan_01_1443,nback,2021.2.3,59.65316458232454,
1-back,instructions\back-1.png,conditions\1back-p.xlsx,instructions\1-BACK.png,"(25, 15)",practice,1,2,stim\gray.png,stim\yellow.png,stim\gray.png,stim\gray.png,down,1,0,1,0,0,1,1,1,0,4,4,4,,,,,,,,,,,,,,,,,,,,,,,,,,,292.90773010003613,293.91011060000164,292.90773010003613,293.91011060000164,292.90773010003613,293.91011060000164,292.90773010003613,293.91011060000164,down,1,0.232903299969621,292.90773010003613,None,292.90773010003613,None,292.90773010003613,293.40910280001117,292.90773010003613,293.40910280001117,292.90773010003613,293.40910280001117,292.90773010003613,293.40910280001117,292.90773010003613,None,,,,,,,,,,,,,,,,,,,,,,,,,,,,,,,,,,,,,,,,,,11007,001,2024_Jan_01_1443,nback,2021.2.3,59.65316458232454,
1-back,instructions\back-1.png,conditions\1back-p.xlsx,instructions\1-BACK.png,"(25, 15)",practice,1,1,stim\yellow.png,stim\gray.png,stim\gray.png,stim\gray.png,left,1,0,1,0,0,1,1,1,0,5,5,5,,,,,,,,,,,,,,,,,,,,,,,,,,,294.4097658999963,295.4118761999998,294.4097658999963,295.4118761999998,294.4097658999963,295.4118761999998,294.4097658999963,295.4118761999998,up,0,1.450859499978833,294.4097658999963,None,294.4097658999963,None,294.4097658999963,294.9113128000172,294.4097658999963,294.9113128000172,294.4097658999963,294.9113128000172,294.4097658999963,294.9113128000172,294.4097658999963,None,,,,,,,,,,,,,,,,,,,,,,,,,,,,,,,,,,,,,,,,,,11007,001,2024_Jan_01_1443,nback,2021.2.3,59.65316458232454,
1-back,instructions\back-1.png,conditions\1back-p.xlsx,instructions\1-BACK.png,"(25, 15)",practice,1,4,stim\gray.png,stim\gray.png,stim\gray.png,stim\yellow.png,up,1,0,1,0,0,1,1,1,0,6,6,6,,,,,,,,,,,,,,,,,,,,,,,,,,,295.89534480002476,296.89819810003974,295.89534480002476,296.89819810003974,295.89534480002476,296.89819810003974,295.89534480002476,296.89819810003974,None,0,,295.89534480002476,None,295.89534480002476,None,295.89534480002476,296.39632120000897,295.89534480002476,296.39632120000897,295.89534480002476,296.39632120000897,295.89534480002476,296.39632120000897,295.89534480002476,None,,,,,,,,,,,,,,,,,,,,,,,,,,,,,,,,,,,,,,,,,,11007,001,2024_Jan_01_1443,nback,2021.2.3,59.65316458232454,
1-back,instructions\back-1.png,conditions\1back-p.xlsx,instructions\1-BACK.png,"(25, 15)",practice,1,3,stim\gray.png,stim\gray.png,stim\yellow.png,stim\gray.png,down,1,0,1,0,0,1,1,1,0,7,7,7,,,,,,,,,,,,,,,,,,,,,,,,,,,297.3977872999967,298.39922990003834,297.3977872999967,298.39922990003834,297.3977872999967,298.39922990003834,297.3977872999967,298.39922990003834,down,1,0.08623740001348779,297.3977872999967,None,297.3977872999967,None,297.3977872999967,297.8985260000336,297.3977872999967,297.8985260000336,297.3977872999967,297.8985260000336,297.3977872999967,297.8985260000336,297.3977872999967,None,,,,,,,,,,,,,,,,,,,,,,,,,,,,,,,,,,,,,,,,,,11007,001,2024_Jan_01_1443,nback,2021.2.3,59.65316458232454,
1-back,instructions\back-1.png,conditions\1back-p.xlsx,instructions\1-BACK.png,"(25, 15)",practice,1,3,stim\gray.png,stim\gray.png,stim\yellow.png,stim\gray.png,right,1,0,1,0,0,1,1,1,0,8,8,8,,,,,,,,,,,,,,,,,,,,,,,,,,,298.899960300012,299.9019710000139,298.899960300012,299.9019710000139,298.899960300012,299.9019710000139,298.899960300012,299.9019710000139,right,1,1.448314399982337,298.899960300012,None,298.899960300012,None,298.899960300012,299.4019960000296,298.899960300012,299.4019960000296,298.899960300012,299.4019960000296,298.899960300012,299.4019960000296,298.899960300012,None,,,,,,,,,,,,,,,,,,,,,,,,,,,,,,,,,,,,,,,,,,11007,001,2024_Jan_01_1443,nback,2021.2.3,59.65316458232454,
1-back,instructions\back-1.png,conditions\1back-p.xlsx,instructions\1-BACK.png,"(25, 15)",practice,1,4,stim\gray.png,stim\gray.png,stim\gray.png,stim\yellow.png,right,1,0,1,0,0,1,1,1,0,9,9,9,,,,,,,,,,,,,,,,,,,,,,,,,,,300.40214100002777,301.40431250003166,300.40214100002777,301.40431250003166,300.40214100002777,301.40431250003166,300.40214100002777,301.40431250003166,None,0,,300.40214100002777,None,300.40214100002777,None,300.40214100002777,300.9032289000461,300.40214100002777,300.9032289000461,300.40214100002777,300.9032289000461,300.40214100002777,300.9032289000461,300.40214100002777,None,,,,,,,,,,,,,,,,,,,,,,,,,,,,,,,,,,,,,,,,,,11007,001,2024_Jan_01_1443,nback,2021.2.3,59.65316458232454,
1-back,instructions\back-1.png,conditions\1back-p.xlsx,instructions\1-BACK.png,"(25, 15)",practice,1,1,stim\yellow.png,stim\gray.png,stim\gray.png,stim\gray.png,down,1,0,1,0,0,1,1,1,0,10,10,10,,,,,,,,,,,,,,,,,,,,,,,,,,,301.9044808000326,302.90656730002956,301.9044808000326,302.90656730002956,301.9044808000326,302.90656730002956,301.9044808000326,302.90656730002956,down,1,0.00358989997766912,301.9044808000326,None,301.9044808000326,None,301.9044808000326,302.4056780000101,301.9044808000326,302.4056780000101,301.9044808000326,302.4056780000101,301.9044808000326,302.4056780000101,301.9044808000326,None,,,,,,,,,,,,,,,,,,,,,,,,,,,,,,,,,,,,,,,,,,11007,001,2024_Jan_01_1443,nback,2021.2.3,59.65316458232454,
1-back,instructions\back-1.png,conditions\1back-p.xlsx,instructions\1-BACK.png,"(25, 15)",practice,1,2,stim\gray.png,stim\yellow.png,stim\gray.png,stim\gray.png,up,1,0,1,0,0,1,1,1,0,11,11,11,,,,,,,,,,,,,,,,,,,,,,,,,,,303.4063550000428,304.40855700004613,303.4063550000428,304.40855700004613,303.4063550000428,304.40855700004613,303.4063550000428,304.40855700004613,left,0,1.470718799973838,303.4063550000428,None,303.4063550000428,None,303.4063550000428,303.90815570001723,303.4063550000428,303.90815570001723,303.4063550000428,303.90815570001723,303.4063550000428,303.90815570001723,303.4063550000428,None,,,,,,,,,,,,,,,,,,,,,,,,,,,,,,,,,,,,,,,,,,11007,001,2024_Jan_01_1443,nback,2021.2.3,59.65316458232454,
1-back,instructions\back-1.png,conditions\1back-p.xlsx,instructions\1-BACK.png,"(25, 15)",practice,1,4,stim\gray.png,stim\gray.png,stim\gray.png,stim\yellow.png,left,1,0,1,0,0,1,1,1,0,12,12,12,,,,,,,,,,,,,,,,,,,,,,,,,,,304.90874580002856,305.9113392000436,304.90874580002856,305.9113392000436,304.90874580002856,305.9113392000436,304.90874580002856,305.9113392000436,None,0,,304.90874580002856,None,304.90874580002856,None,304.90874580002856,305.4102034000098,304.90874580002856,305.4102034000098,304.90874580002856,305.4102034000098,304.90874580002856,305.4102034000098,304.90874580002856,None,,,,,,,,,,,,,,,,,,,,,,,,,,,,,,,,,,,,,,,,,,11007,001,2024_Jan_01_1443,nback,2021.2.3,59.65316458232454,
1-back,instructions\back-1.png,conditions\1back-p.xlsx,instructions\1-BACK.png,"(25, 15)",practice,1,3,stim\gray.png,stim\gray.png,stim\yellow.png,stim\gray.png,down,1,0,1,0,0,1,1,1,0,13,13,13,,,,,,,,,,,,,,,,,,,,,,,,,,,306.39468170003965,307.39651920000324,306.39468170003965,307.39651920000324,306.39468170003965,307.39651920000324,306.39468170003965,307.39651920000324,down,1,0.08155250002164394,306.39468170003965,None,306.39468170003965,None,306.39468170003965,306.895369600039,306.39468170003965,306.895369600039,306.39468170003965,306.895369600039,306.39468170003965,306.895369600039,306.39468170003965,None,,,,,,,,,,,,,,,,,,,,,,,,,,,,,,,,,,,,,,,,,,11007,001,2024_Jan_01_1443,nback,2021.2.3,59.65316458232454,
1-back,instructions\back-1.png,conditions\1back-p.xlsx,instructions\1-BACK.png,"(25, 15)",practice,1,1,stim\yellow.png,stim\gray.png,stim\gray.png,stim\gray.png,right,1,0,1,0,0,1,1,1,0,14,14,14,,,,,,,,,,,,,,,,,,,,,,,,,,,307.8965843000333,308.8982644000207,307.8965843000333,308.8982644000207,307.8965843000333,308.8982644000207,307.8965843000333,308.8982644000207,right,1,0.9234866999904625,307.8965843000333,None,307.8965843000333,None,307.8965843000333,308.39788709999993,307.8965843000333,308.39788709999993,307.8965843000333,308.39788709999993,307.8965843000333,308.39788709999993,307.8965843000333,None,,,,,,,,,,,,,,,,,,,,,,,,,,,,,,,,,,,,,,,,,,11007,001,2024_Jan_01_1443,nback,2021.2.3,59.65316458232454,
1-back,instructions\back-1.png,conditions\1back-p.xlsx,instructions\1-BACK.png,"(25, 15)",practice,1,2,stim\gray.png,stim\yellow.png,stim\gray.png,stim\gray.png,up,1,0,1,0,0,1,1,1,0,15,15,15,,,,,,,,,,,,,,,,,,,,,,,,,,,309.39887590002036,310.4011754000094,309.39887590002036,310.4011754000094,309.39887590002036,310.4011754000094,309.39887590002036,310.4011754000094,up,1,0.8215836000163108,309.39887590002036,None,309.39887590002036,None,309.39887590002036,309.8998652000446,309.39887590002036,309.8998652000446,309.39887590002036,309.8998652000446,309.39887590002036,309.8998652000446,309.39887590002036,None,,,,,,,,,,,,,,,,,,,,,,,,,,,,,,,,,,,,,,,,,,11007,001,2024_Jan_01_1443,nback,2021.2.3,59.65316458232454,
1-back,instructions\back-1.png,conditions\1back-p.xlsx,instructions\1-BACK.png,"(25, 15)",practice,1,3,stim\gray.png,stim\gray.png,stim\yellow.png,stim\gray.png,left,1,0,1,0,0,1,1,1,0,16,16,16,,,,,,,,,,,,,,,,,,,,,,,,,,,310.90111930004787,311.90339280001353,310.90111930004787,311.90339280001353,310.90111930004787,311.90339280001353,310.90111930004787,311.90339280001353,left,1,1.1988973999978043,310.90111930004787,None,310.90111930004787,None,310.90111930004787,311.4022212999989,310.90111930004787,311.4022212999989,310.90111930004787,311.4022212999989,310.90111930004787,311.4022212999989,310.90111930004787,None,,,,,,,,,,,,,,,,,,,,,,,,,,,,,,,,,,,,,,,,,,11007,001,2024_Jan_01_1443,nback,2021.2.3,59.65316458232454,
1-back,instructions\back-1.png,conditions\1back-p.xlsx,instructions\1-BACK.png,"(25, 15)",practice,1,1,stim\yellow.png,stim\gray.png,stim\gray.png,stim\gray.png,right,1,0,1,0,0,1,1,1,0,17,17,17,,,,,,,,,,,,,,,,,,,,,,,,,,,312.40305429999717,313.4053624999942,312.40305429999717,313.4053624999942,312.40305429999717,313.4053624999942,312.40305429999717,313.4053624999942,up,0,1.3129399999743327,312.40305429999717,None,312.40305429999717,None,312.40305429999717,312.90411490004044,312.40305429999717,312.90411490004044,312.40305429999717,312.90411490004044,312.40305429999717,312.90411490004044,312.40305429999717,None,,,,,,,,,,,,,,,,,,,,,,,,,,,,,,,,,,,,,,,,,,11007,001,2024_Jan_01_1443,nback,2021.2.3,59.65316458232454,
1-back,instructions\back-1.png,conditions\1back-p.xlsx,instructions\1-BACK.png,"(25, 15)",practice,1,4,stim\gray.png,stim\gray.png,stim\gray.png,stim\yellow.png,up,1,0,1,0,0,1,1,1,0,18,18,18,,,,,,,,,,,,,,,,,,,,,,,,,,,313.905600099999,314.90768270002445,313.905600099999,314.90768270002445,313.905600099999,314.90768270002445,313.905600099999,314.90768270002445,None,0,,313.905600099999,None,313.905600099999,None,313.905600099999,314.406687300012,313.905600099999,314.406687300012,313.905600099999,314.406687300012,313.905600099999,314.406687300012,313.905600099999,None,,,,,,,,,,,,,,,,,,,,,,,,,,,,,,,,,,,,,,,,,,11007,001,2024_Jan_01_1443,nback,2021.2.3,59.65316458232454,
1-back,instructions\back-1.png,conditions\1back-p.xlsx,instructions\1-BACK.png,"(25, 15)",practice,1,2,stim\gray.png,stim\yellow.png,stim\gray.png,stim\gray.png,down,1,0,1,0,0,1,1,1,0,19,19,19,,,,,,,,,,,,,,,,,,,,,,,,,,,315.40846820001025,316.41009250003844,315.40846820001025,316.41009250003844,315.40846820001025,316.41009250003844,315.40846820001025,316.41009250003844,left,0,1.3400006999727339,315.40846820001025,None,315.40846820001025,None,315.40846820001025,315.9092341000214,315.40846820001025,315.9092341000214,315.40846820001025,315.9092341000214,315.40846820001025,315.9092341000214,315.40846820001025,None,,,,,,,,,,,,,,,,,,,,,,,,,,,,,,,,,,,,,,,,,,11007,001,2024_Jan_01_1443,nback,2021.2.3,59.65316458232454,
1-back,instructions\back-1.png,conditions\1back-p.xlsx,instructions\1-BACK.png,"(25, 15)",,,,,,,,,1,0,1,0,0,1,1,1,,,,,,,,,,,,,,,,,,,,,,,,,,,,,,,,,,,,,,,,,,,,,,,,,,,,,,,,,,,,,,,,,,,,,,,,,,,,,,,,,,,,,,,,,,,,,,,,,11007,001,2024_Jan_01_1443,nback,2021.2.3,59.65316458232454,
2-back,instructions\back-2.png,conditions\2back-p.xlsx,instructions\2-BACK.png,"(25, 15)",practice,2,1,stim\yellow.png,stim\gray.png,stim\gray.png,stim\gray.png,None,1,0,1,0,0,2,2,2,0,0,0,0,,,,,,,,,,,,,,,,,317.0604397000279,None,space,1.4956793999881484,317.0604397000279,None,318.71250040002633,323.22052289999556,323.16991759999655,None,323.6049314000411,324.60473429999547,323.6049314000411,324.60473429999547,323.6049314000411,324.60473429999547,323.6049314000411,324.60473429999547,None,1,,323.6049314000411,None,323.6049314000411,None,323.6049314000411,324.1050625999924,323.6049314000411,324.1050625999924,323.6049314000411,324.1050625999924,323.6049314000411,324.1050625999924,323.6049314000411,None,,,,,,,,,,,,,,,,,,,,,,,,,,,,,,,,,,,,,,,,,,11007,001,2024_Jan_01_1443,nback,2021.2.3,59.65316458232454,
2-back,instructions\back-2.png,conditions\2back-p.xlsx,instructions\2-BACK.png,"(25, 15)",practice,2,2,stim\gray.png,stim\yellow.png,stim\gray.png,stim\gray.png,None,1,0,1,0,0,2,2,2,0,1,1,1,,,,,,,,,,,,,,,,,,,,,,,,,,,325.0887033000472,326.0903677000315,325.0887033000472,326.0903677000315,325.0887033000472,326.0903677000315,325.0887033000472,326.0903677000315,None,1,,325.0887033000472,None,325.0887033000472,None,325.0887033000472,325.5893913000473,325.0887033000472,325.5893913000473,325.0887033000472,325.5893913000473,325.0887033000472,325.5893913000473,325.0887033000472,None,,,,,,,,,,,,,,,,,,,,,,,,,,,,,,,,,,,,,,,,,,11007,001,2024_Jan_01_1443,nback,2021.2.3,59.65316458232454,
2-back,instructions\back-2.png,conditions\2back-p.xlsx,instructions\2-BACK.png,"(25, 15)",practice,2,3,stim\gray.png,stim\gray.png,stim\yellow.png,stim\gray.png,up,1,0,1,0,0,2,2,2,0,2,2,2,,,,,,,,,,,,,,,,,,,,,,,,,,,326.5909054999938,327.59248779999325,326.5909054999938,327.59248779999325,326.5909054999938,327.59248779999325,326.5909054999938,327.59248779999325,left,0,1.3651167000061832,326.5909054999938,None,326.5909054999938,None,326.5909054999938,327.0916395999957,326.5909054999938,327.0916395999957,326.5909054999938,327.0916395999957,326.5909054999938,327.0916395999957,326.5909054999938,None,,,,,,,,,,,,,,,,,,,,,,,,,,,,,,,,,,,,,,,,,,11007,001,2024_Jan_01_1443,nback,2021.2.3,59.65316458232454,
2-back,instructions\back-2.png,conditions\2back-p.xlsx,instructions\2-BACK.png,"(25, 15)",practice,2,4,stim\gray.png,stim\gray.png,stim\gray.png,stim\yellow.png,left,1,0,1,0,0,2,2,2,0,3,3,3,,,,,,,,,,,,,,,,,,,,,,,,,,,328.09345290000783,329.09609080001246,328.09345290000783,329.09609080001246,328.09345290000783,329.09609080001246,328.09345290000783,329.09609080001246,None,0,,328.09345290000783,None,328.09345290000783,None,328.09345290000783,328.59398010000587,328.09345290000783,328.59398010000587,328.09345290000783,328.59398010000587,328.09345290000783,328.59398010000587,328.09345290000783,None,,,,,,,,,,,,,,,,,,,,,,,,,,,,,,,,,,,,,,,,,,11007,001,2024_Jan_01_1443,nback,2021.2.3,59.65316458232454,
2-back,instructions\back-2.png,conditions\2back-p.xlsx,instructions\2-BACK.png,"(25, 15)",practice,2,2,stim\gray.png,stim\yellow.png,stim\gray.png,stim\gray.png,right,1,0,1,0,0,2,2,2,0,4,4,4,,,,,,,,,,,,,,,,,,,,,,,,,,,329.5954592000344,330.5977600000333,329.5954592000344,330.5977600000333,329.5954592000344,330.5977600000333,329.5954592000344,330.5977600000333,right,1,0.056744700006674975,329.5954592000344,None,329.5954592000344,None,329.5954592000344,330.0973481000401,329.5954592000344,330.0973481000401,329.5954592000344,330.0973481000401,329.5954592000344,330.0973481000401,329.5954592000344,None,,,,,,,,,,,,,,,,,,,,,,,,,,,,,,,,,,,,,,,,,,11007,001,2024_Jan_01_1443,nback,2021.2.3,59.65316458232454,
2-back,instructions\back-2.png,conditions\2back-p.xlsx,instructions\2-BACK.png,"(25, 15)",practice,2,1,stim\yellow.png,stim\gray.png,stim\gray.png,stim\gray.png,down,1,0,1,0,0,2,2,2,0,5,5,5,,,,,,,,,,,,,,,,,,,,,,,,,,,331.09831480000867,332.09937050001463,331.09831480000867,332.09937050001463,331.09831480000867,332.09937050001463,331.09831480000867,332.09937050001463,down,1,0.057784800010267645,331.09831480000867,None,331.09831480000867,None,331.09831480000867,331.5984327000333,331.09831480000867,331.5984327000333,331.09831480000867,331.5984327000333,331.09831480000867,331.5984327000333,331.09831480000867,None,,,,,,,,,,,,,,,,,,,,,,,,,,,,,,,,,,,,,,,,,,11007,001,2024_Jan_01_1443,nback,2021.2.3,59.65316458232454,
2-back,instructions\back-2.png,conditions\2back-p.xlsx,instructions\2-BACK.png,"(25, 15)",practice,2,4,stim\gray.png,stim\gray.png,stim\gray.png,stim\yellow.png,left,1,0,1,0,0,2,2,2,0,6,6,6,,,,,,,,,,,,,,,,,,,,,,,,,,,332.5998081000289,333.6015407000086,332.5998081000289,333.6015407000086,332.5998081000289,333.6015407000086,332.5998081000289,333.6015407000086,left,1,0.07621990004554391,332.5998081000289,None,332.5998081000289,None,332.5998081000289,333.10122400004184,332.5998081000289,333.10122400004184,332.5998081000289,333.10122400004184,332.5998081000289,333.10122400004184,332.5998081000289,None,,,,,,,,,,,,,,,,,,,,,,,,,,,,,,,,,,,,,,,,,,11007,001,2024_Jan_01_1443,nback,2021.2.3,59.65316458232454,
2-back,instructions\back-2.png,conditions\2back-p.xlsx,instructions\2-BACK.png,"(25, 15)",practice,2,3,stim\gray.png,stim\gray.png,stim\yellow.png,stim\gray.png,up,1,0,1,0,0,2,2,2,0,7,7,7,,,,,,,,,,,,,,,,,,,,,,,,,,,334.0860847000149,335.0876252000453,334.0860847000149,335.0876252000453,334.0860847000149,335.0876252000453,334.0860847000149,335.0876252000453,up,1,0.606443400029093,334.0860847000149,None,334.0860847000149,None,334.0860847000149,334.5861310000182,334.0860847000149,334.5861310000182,334.0860847000149,334.5861310000182,334.0860847000149,334.5861310000182,334.0860847000149,None,,,,,,,,,,,,,,,,,,,,,,,,,,,,,,,,,,,,,,,,,,11007,001,2024_Jan_01_1443,nback,2021.2.3,59.65316458232454,
2-back,instructions\back-2.png,conditions\2back-p.xlsx,instructions\2-BACK.png,"(25, 15)",practice,2,3,stim\gray.png,stim\gray.png,stim\yellow.png,stim\gray.png,down,1,0,1,0,0,2,2,2,0,8,8,8,,,,,,,,,,,,,,,,,,,,,,,,,,,335.5875541000278,336.58972280001035,335.5875541000278,336.58972280001035,335.5875541000278,336.58972280001035,335.5875541000278,336.58972280001035,left,0,0.9364960000384599,335.5875541000278,None,335.5875541000278,None,335.5875541000278,336.08959630003665,335.5875541000278,336.08959630003665,335.5875541000278,336.08959630003665,335.5875541000278,336.08959630003665,335.5875541000278,None,,,,,,,,,,,,,,,,,,,,,,,,,,,,,,,,,,,,,,,,,,11007,001,2024_Jan_01_1443,nback,2021.2.3,59.65316458232454,
2-back,instructions\back-2.png,conditions\2back-p.xlsx,instructions\2-BACK.png,"(25, 15)",practice,2,4,stim\gray.png,stim\gray.png,stim\gray.png,stim\yellow.png,right,1,0,1,0,0,2,2,2,0,9,9,9,,,,,,,,,,,,,,,,,,,,,,,,,,,337.09034270001575,338.09196390002035,337.09034270001575,338.09196390002035,337.09034270001575,338.09196390002035,337.09034270001575,338.09196390002035,right,1,0.874391499964986,337.09034270001575,None,337.09034270001575,None,337.09034270001575,337.5904958000174,337.09034270001575,337.5904958000174,337.09034270001575,337.5904958000174,337.09034270001575,337.5904958000174,337.09034270001575,None,,,,,,,,,,,,,,,,,,,,,,,,,,,,,,,,,,,,,,,,,,11007,001,2024_Jan_01_1443,nback,2021.2.3,59.65316458232454,
2-back,instructions\back-2.png,conditions\2back-p.xlsx,instructions\2-BACK.png,"(25, 15)",practice,2,1,stim\yellow.png,stim\gray.png,stim\gray.png,stim\gray.png,right,1,0,1,0,0,2,2,2,0,10,10,10,,,,,,,,,,,,,,,,,,,,,,,,,,,338.59285110002384,339.5942762999912,338.59285110002384,339.5942762999912,338.59285110002384,339.5942762999912,338.59285110002384,339.5942762999912,right,1,1.1795662000076845,338.59285110002384,None,338.59285110002384,None,338.59285110002384,339.09337550000055,338.59285110002384,339.09337550000055,338.59285110002384,339.09337550000055,338.59285110002384,339.09337550000055,338.59285110002384,None,,,,,,,,,,,,,,,,,,,,,,,,,,,,,,,,,,,,,,,,,,11007,001,2024_Jan_01_1443,nback,2021.2.3,59.65316458232454,
2-back,instructions\back-2.png,conditions\2back-p.xlsx,instructions\2-BACK.png,"(25, 15)",practice,2,2,stim\gray.png,stim\yellow.png,stim\gray.png,stim\gray.png,down,1,0,1,0,0,2,2,2,0,11,11,11,,,,,,,,,,,,,,,,,,,,,,,,,,,340.0945439999923,341.0967349000275,340.0945439999923,341.0967349000275,340.0945439999923,341.0967349000275,340.0945439999923,341.0967349000275,right,0,1.4697986000101082,340.0945439999923,None,340.0945439999923,None,340.0945439999923,340.59560880000936,340.0945439999923,340.59560880000936,340.0945439999923,340.59560880000936,340.0945439999923,340.59560880000936,340.0945439999923,None,,,,,,,,,,,,,,,,,,,,,,,,,,,,,,,,,,,,,,,,,,11007,001,2024_Jan_01_1443,nback,2021.2.3,59.65316458232454,
2-back,instructions\back-2.png,conditions\2back-p.xlsx,instructions\2-BACK.png,"(25, 15)",practice,2,4,stim\gray.png,stim\gray.png,stim\gray.png,stim\yellow.png,up,1,0,1,0,0,2,2,2,0,12,12,12,,,,,,,,,,,,,,,,,,,,,,,,,,,341.5966834000428,342.59875669999747,341.5966834000428,342.59875669999747,341.5966834000428,342.59875669999747,341.5966834000428,342.59875669999747,None,0,,341.5966834000428,None,341.5966834000428,None,341.5966834000428,342.09726390003925,341.5966834000428,342.09726390003925,341.5966834000428,342.09726390003925,341.5966834000428,342.09726390003925,341.5966834000428,None,,,,,,,,,,,,,,,,,,,,,,,,,,,,,,,,,,,,,,,,,,11007,001,2024_Jan_01_1443,nback,2021.2.3,59.65316458232454,
2-back,instructions\back-2.png,conditions\2back-p.xlsx,instructions\2-BACK.png,"(25, 15)",practice,2,3,stim\gray.png,stim\gray.png,stim\yellow.png,stim\gray.png,left,1,0,1,0,0,2,2,2,0,13,13,13,,,,,,,,,,,,,,,,,,,,,,,,,,,343.0989532000385,344.10033760004444,343.0989532000385,344.10033760004444,343.0989532000385,344.10033760004444,343.0989532000385,344.10033760004444,None,0,,343.0989532000385,None,343.0989532000385,None,343.0989532000385,343.5994254000252,343.0989532000385,343.5994254000252,343.0989532000385,343.5994254000252,343.0989532000385,343.5994254000252,343.0989532000385,None,,,,,,,,,,,,,,,,,,,,,,,,,,,,,,,,,,,,,,,,,,11007,001,2024_Jan_01_1443,nback,2021.2.3,59.65316458232454,
2-back,instructions\back-2.png,conditions\2back-p.xlsx,instructions\2-BACK.png,"(25, 15)",practice,2,1,stim\yellow.png,stim\gray.png,stim\gray.png,stim\gray.png,down,1,0,1,0,0,2,2,2,0,14,14,14,,,,,,,,,,,,,,,,,,,,,,,,,,,344.58429960004287,345.5858852000092,344.58429960004287,345.5858852000092,344.58429960004287,345.5858852000092,344.58429960004287,345.5858852000092,None,0,,344.58429960004287,None,344.58429960004287,None,344.58429960004287,345.08611740003107,344.58429960004287,345.08611740003107,344.58429960004287,345.08611740003107,344.58429960004287,345.08611740003107,344.58429960004287,None,,,,,,,,,,,,,,,,,,,,,,,,,,,,,,,,,,,,,,,,,,11007,001,2024_Jan_01_1443,nback,2021.2.3,59.65316458232454,
2-back,instructions\back-2.png,conditions\2back-p.xlsx,instructions\2-BACK.png,"(25, 15)",practice,2,2,stim\gray.png,stim\yellow.png,stim\gray.png,stim\gray.png,right,1,0,1,0,0,2,2,2,0,15,15,15,,,,,,,,,,,,,,,,,,,,,,,,,,,346.08655390003696,347.08919730002526,346.08655390003696,347.08919730002526,346.08655390003696,347.08919730002526,346.08655390003696,347.08919730002526,right,1,0.09353399998508394,346.08655390003696,None,346.08655390003696,None,346.08655390003696,346.58784570003627,346.08655390003696,346.58784570003627,346.08655390003696,346.58784570003627,346.08655390003696,346.58784570003627,346.08655390003696,None,,,,,,,,,,,,,,,,,,,,,,,,,,,,,,,,,,,,,,,,,,11007,001,2024_Jan_01_1443,nback,2021.2.3,59.65316458232454,
2-back,instructions\back-2.png,conditions\2back-p.xlsx,instructions\2-BACK.png,"(25, 15)",practice,2,3,stim\gray.png,stim\gray.png,stim\yellow.png,stim\gray.png,up,1,0,1,0,0,2,2,2,0,16,16,16,,,,,,,,,,,,,,,,,,,,,,,,,,,347.5887489000452,348.59024000004865,347.5887489000452,348.59024000004865,347.5887489000452,348.59024000004865,347.5887489000452,348.59024000004865,left,0,1.3916921999771148,347.5887489000452,None,347.5887489000452,None,347.5887489000452,348.09024230000796,347.5887489000452,348.09024230000796,347.5887489000452,348.09024230000796,347.5887489000452,348.09024230000796,347.5887489000452,None,,,,,,,,,,,,,,,,,,,,,,,,,,,,,,,,,,,,,,,,,,11007,001,2024_Jan_01_1443,nback,2021.2.3,59.65316458232454,
2-back,instructions\back-2.png,conditions\2back-p.xlsx,instructions\2-BACK.png,"(25, 15)",practice,2,1,stim\yellow.png,stim\gray.png,stim\gray.png,stim\gray.png,left,1,0,1,0,0,2,2,2,0,17,17,17,,,,,,,,,,,,,,,,,,,,,,,,,,,349.0910060000024,350.0925889000064,349.0910060000024,350.0925889000064,349.0910060000024,350.0925889000064,349.0910060000024,350.0925889000064,down,0,1.4339978000498377,349.0910060000024,None,349.0910060000024,None,349.0910060000024,349.5924781000358,349.0910060000024,349.5924781000358,349.0910060000024,349.5924781000358,349.0910060000024,349.5924781000358,349.0910060000024,None,,,,,,,,,,,,,,,,,,,,,,,,,,,,,,,,,,,,,,,,,,11007,001,2024_Jan_01_1443,nback,2021.2.3,59.65316458232454,
2-back,instructions\back-2.png,conditions\2back-p.xlsx,instructions\2-BACK.png,"(25, 15)",practice,2,4,stim\gray.png,stim\gray.png,stim\gray.png,stim\yellow.png,right,1,0,1,0,0,2,2,2,0,18,18,18,,,,,,,,,,,,,,,,,,,,,,,,,,,350.59327740001027,351.5954687000485,350.59327740001027,351.5954687000485,350.59327740001027,351.5954687000485,350.59327740001027,351.5954687000485,None,0,,350.59327740001027,None,350.59327740001027,None,350.59327740001027,351.0946506000473,350.59327740001027,351.0946506000473,350.59327740001027,351.0946506000473,350.59327740001027,351.0946506000473,350.59327740001027,None,,,,,,,,,,,,,,,,,,,,,,,,,,,,,,,,,,,,,,,,,,11007,001,2024_Jan_01_1443,nback,2021.2.3,59.65316458232454,
2-back,instructions\back-2.png,conditions\2back-p.xlsx,instructions\2-BACK.png,"(25, 15)",practice,2,2,stim\gray.png,stim\yellow.png,stim\gray.png,stim\gray.png,up,1,0,1,0,0,2,2,2,0,19,19,19,,,,,,,,,,,,,,,,,,,,,,,,,,,352.09541400003945,353.09697260003304,352.09541400003945,353.09697260003304,352.09541400003945,353.09697260003304,352.09541400003945,353.09697260003304,right,0,0.42869740002788603,352.09541400003945,None,352.09541400003945,None,352.09541400003945,352.59600860002683,352.09541400003945,352.59600860002683,352.09541400003945,352.59600860002683,352.09541400003945,352.59600860002683,352.09541400003945,None,,,,,,,,,,,,,,,,,,,,,,,,,,,,,,,,,,,,,,,,,,11007,001,2024_Jan_01_1443,nback,2021.2.3,59.65316458232454,
2-back,instructions\back-2.png,conditions\2back-p.xlsx,instructions\2-BACK.png,"(25, 15)",,,,,,,,,1,0,1,0,0,2,2,2,,,,,,,,,,,,,,,,,,,,,,,,,,,,,,,,,,,,,,,,,,,,,,,,,,,,,,,,,,,,,,,,,,,,,,,,,,,,,,,,,,,,,,,,,,,,,,,,,11007,001,2024_Jan_01_1443,nback,2021.2.3,59.65316458232454,
,,,,,,,,,,,,,1,0,1,0,,,,,,,,,,,,,,,,,,,,,,,,,,,,,,,,,,,,,,,,,,,,,,,,,,,,,,,,,,,,353.59759300004225,None,space,2.2866723999613896,353.59759300004225,None,,,,,,,,,,,,,,,,,,,,,,,,,,,,,,,,,,,,11007,001,2024_Jan_01_1443,nback,2021.2.3,59.65316458232454,
,,,,,,,,,,,,,,,,,,,,,,,,,,,,,,,,,,,,,,,,,,,,,,,,,,,,,,,,,,,,,,,,,,,,,,,,,,,,,,,,,,355.9009779000189,None,space,13.806808700028341,355.9009779000189,None,,,,,,,,,,,,,,,,,,,,,,,,,,,,,,11007,001,2024_Jan_01_1443,nback,2021.2.3,59.65316458232454,
0-back,instructions\back-0.png,conditions\04back-e.xlsx,,,experiment,0,3,stim\gray.png,stim\gray.png,stim\yellow.png,stim\gray.png,right,,,,,,,,,,,,,0,0,0,13,0,0,0,0,,,,,,,,,,,,,,,369.9220639000414,374.4289559000172,374.3616914000013,None,,,,,,,,,,,,,,,,,,,,,,,,,,,,,,,,,,,,,,right,1,0.4579447000287473,374.76222130004317,None,374.76222130004317,None,374.76222130004317,375.7638188000419,374.76222130004317,375.7638188000419,374.76222130004317,375.7638188000419,374.76222130004317,375.7638188000419,374.76222130004317,375.2640858000377,374.76222130004317,375.2640858000377,374.76222130004317,375.2640858000377,374.76222130004317,375.2640858000377,374.76222130004317,None,,,,,11007,001,2024_Jan_01_1443,nback,2021.2.3,59.65316458232454,
0-back,instructions\back-0.png,conditions\04back-e.xlsx,,,experiment,0,1,stim\yellow.png,stim\gray.png,stim\gray.png,stim\gray.png,up,,,,,,,,,,,,,0,0,0,13,0,1,1,1,,,,,,,,,,,,,,,,,,,,,,,,,,,,,,,,,,,,,,,,,,,,,,,,,,,,,,,,up,1,0.3085194999584928,376.2477882000385,None,376.2477882000385,None,376.2477882000385,377.24975670001004,376.2477882000385,377.24975670001004,376.2477882000385,377.24975670001004,376.2477882000385,377.24975670001004,376.2477882000385,376.7498067000415,376.2477882000385,376.7498067000415,376.2477882000385,376.7498067000415,376.2477882000385,376.7498067000415,376.2477882000385,None,,,,,11007,001,2024_Jan_01_1443,nback,2021.2.3,59.65316458232454,
0-back,instructions\back-0.png,conditions\04back-e.xlsx,,,experiment,0,2,stim\gray.png,stim\yellow.png,stim\gray.png,stim\gray.png,left,,,,,,,,,,,,,0,0,0,13,0,2,2,2,,,,,,,,,,,,,,,,,,,,,,,,,,,,,,,,,,,,,,,,,,,,,,,,,,,,,,,,left,1,0.3024853999959305,377.75021020002896,None,377.75021020002896,None,377.75021020002896,378.7524939000141,377.75021020002896,378.7524939000141,377.75021020002896,378.7524939000141,377.75021020002896,378.7524939000141,377.75021020002896,378.2514862000244,377.75021020002896,378.2514862000244,377.75021020002896,378.2514862000244,377.75021020002896,378.2514862000244,377.75021020002896,None,,,,,11007,001,2024_Jan_01_1443,nback,2021.2.3,59.65316458232454,
0-back,instructions\back-0.png,conditions\04back-e.xlsx,,,experiment,0,3,stim\gray.png,stim\gray.png,stim\yellow.png,stim\gray.png,right,,,,,,,,,,,,,0,0,0,13,0,3,3,3,,,,,,,,,,,,,,,,,,,,,,,,,,,,,,,,,,,,,,,,,,,,,,,,,,,,,,,,right,1,0.2798016000306234,379.2522732000216,None,379.2522732000216,None,379.2522732000216,380.2549673000467,379.2522732000216,380.2549673000467,379.2522732000216,380.2549673000467,379.2522732000216,380.2549673000467,379.2522732000216,379.7530026000459,379.2522732000216,379.7530026000459,379.2522732000216,379.7530026000459,379.2522732000216,379.7530026000459,379.2522732000216,None,,,,,11007,001,2024_Jan_01_1443,nback,2021.2.3,59.65316458232454,
0-back,instructions\back-0.png,conditions\04back-e.xlsx,,,experiment,0,3,stim\gray.png,stim\gray.png,stim\yellow.png,stim\gray.png,right,,,,,,,,,,,,,0,0,0,13,0,4,4,4,,,,,,,,,,,,,,,,,,,,,,,,,,,,,,,,,,,,,,,,,,,,,,,,,,,,,,,,right,1,0.35350790002848953,380.7545694000437,None,380.7545694000437,None,380.7545694000437,381.7559334000107,380.7545694000437,381.7559334000107,380.7545694000437,381.7559334000107,380.7545694000437,381.7559334000107,380.7545694000437,381.25526080001146,380.7545694000437,381.25526080001146,380.7545694000437,381.25526080001146,380.7545694000437,381.25526080001146,380.7545694000437,None,,,,,11007,001,2024_Jan_01_1443,nback,2021.2.3,59.65316458232454,
0-back,instructions\back-0.png,conditions\04back-e.xlsx,,,experiment,0,2,stim\gray.png,stim\yellow.png,stim\gray.png,stim\gray.png,left,,,,,,,,,,,,,0,0,0,13,0,5,5,5,,,,,,,,,,,,,,,,,,,,,,,,,,,,,,,,,,,,,,,,,,,,,,,,,,,,,,,,left,1,0.32338409998919815,382.25688120000996,None,382.25688120000996,None,382.25688120000996,383.25831120001385,382.25688120000996,383.25831120001385,382.25688120000996,383.25831120001385,382.25688120000996,383.25831120001385,382.25688120000996,382.75802250002744,382.25688120000996,382.75802250002744,382.25688120000996,382.75802250002744,382.25688120000996,382.75802250002744,382.25688120000996,None,,,,,11007,001,2024_Jan_01_1443,nback,2021.2.3,59.65316458232454,
0-back,instructions\back-0.png,conditions\04back-e.xlsx,,,experiment,0,2,stim\gray.png,stim\yellow.png,stim\gray.png,stim\gray.png,left,,,,,,,,,,,,,0,0,0,13,0,6,6,6,,,,,,,,,,,,,,,,,,,,,,,,,,,,,,,,,,,,,,,,,,,,,,,,,,,,,,,,left,1,0.33413189998827875,383.7428411000292,None,383.7428411000292,None,383.7428411000292,384.7444475000375,383.7428411000292,384.7444475000375,383.7428411000292,384.7444475000375,383.7428411000292,384.7444475000375,383.7428411000292,384.2438734000316,383.7428411000292,384.2438734000316,383.7428411000292,384.2438734000316,383.7428411000292,384.2438734000316,383.7428411000292,None,,,,,11007,001,2024_Jan_01_1443,nback,2021.2.3,59.65316458232454,
0-back,instructions\back-0.png,conditions\04back-e.xlsx,,,experiment,0,1,stim\yellow.png,stim\gray.png,stim\gray.png,stim\gray.png,up,,,,,,,,,,,,,0,0,0,13,0,7,7,7,,,,,,,,,,,,,,,,,,,,,,,,,,,,,,,,,,,,,,,,,,,,,,,,,,,,,,,,up,1,0.335340499994345,385.2448534000432,None,385.2448534000432,None,385.2448534000432,386.24670730001526,385.2448534000432,386.24670730001526,385.2448534000432,386.24670730001526,385.2448534000432,386.24670730001526,385.2448534000432,385.74535939999623,385.2448534000432,385.74535939999623,385.2448534000432,385.74535939999623,385.2448534000432,385.74535939999623,385.2448534000432,None,,,,,11007,001,2024_Jan_01_1443,nback,2021.2.3,59.65316458232454,
0-back,instructions\back-0.png,conditions\04back-e.xlsx,,,experiment,0,4,stim\gray.png,stim\gray.png,stim\gray.png,stim\yellow.png,down,,,,,,,,,,,,,0,0,0,13,0,8,8,8,,,,,,,,,,,,,,,,,,,,,,,,,,,,,,,,,,,,,,,,,,,,,,,,,,,,,,,,down,1,0.481681999983266,386.7467118999921,None,386.7467118999921,None,386.7467118999921,387.7491912000114,386.7467118999921,387.7491912000114,386.7467118999921,387.7491912000114,386.7467118999921,387.7491912000114,386.7467118999921,387.24743950000266,386.7467118999921,387.24743950000266,386.7467118999921,387.24743950000266,386.7467118999921,387.24743950000266,386.7467118999921,None,,,,,11007,001,2024_Jan_01_1443,nback,2021.2.3,59.65316458232454,
0-back,instructions\back-0.png,conditions\04back-e.xlsx,,,experiment,0,4,stim\gray.png,stim\gray.png,stim\gray.png,stim\yellow.png,down,,,,,,,,,,,,,0,0,0,13,0,9,9,9,,,,,,,,,,,,,,,,,,,,,,,,,,,,,,,,,,,,,,,,,,,,,,,,,,,,,,,,down,1,0.4590330999926664,388.2490865000291,None,388.2490865000291,None,388.2490865000291,389.25162520003505,388.2490865000291,389.25162520003505,388.2490865000291,389.25162520003505,388.2490865000291,389.25162520003505,388.2490865000291,388.7504619000247,388.2490865000291,388.7504619000247,388.2490865000291,388.7504619000247,388.2490865000291,388.7504619000247,388.2490865000291,None,,,,,11007,001,2024_Jan_01_1443,nback,2021.2.3,59.65316458232454,
0-back,instructions\back-0.png,conditions\04back-e.xlsx,,,experiment,0,1,stim\yellow.png,stim\gray.png,stim\gray.png,stim\gray.png,up,,,,,,,,,,,,,0,0,0,13,0,10,10,10,,,,,,,,,,,,,,,,,,,,,,,,,,,,,,,,,,,,,,,,,,,,,,,,,,,,,,,,up,1,0.3248087000101805,389.75128140003653,None,389.75128140003653,None,389.75128140003653,390.7535709000076,389.75128140003653,390.7535709000076,389.75128140003653,390.7535709000076,389.75128140003653,390.7535709000076,389.75128140003653,390.25270900002215,389.75128140003653,390.25270900002215,389.75128140003653,390.25270900002215,389.75128140003653,390.25270900002215,389.75128140003653,None,,,,,11007,001,2024_Jan_01_1443,nback,2021.2.3,59.65316458232454,
0-back,instructions\back-0.png,conditions\04back-e.xlsx,,,experiment,0,4,stim\gray.png,stim\gray.png,stim\gray.png,stim\yellow.png,down,,,,,,,,,,,,,0,0,0,13,0,11,11,11,,,,,,,,,,,,,,,,,,,,,,,,,,,,,,,,,,,,,,,,,,,,,,,,,,,,,,,,down,1,0.43954170000506565,391.2527997000143,None,391.2527997000143,None,391.2527997000143,392.25568360002944,391.2527997000143,392.25568360002944,391.2527997000143,392.25568360002944,391.2527997000143,392.25568360002944,391.2527997000143,391.7551096000243,391.2527997000143,391.7551096000243,391.2527997000143,391.7551096000243,391.2527997000143,391.7551096000243,391.2527997000143,None,,,,,11007,001,2024_Jan_01_1443,nback,2021.2.3,59.65316458232454,
0-back,instructions\back-0.png,conditions\04back-e.xlsx,,,experiment,0,1,stim\yellow.png,stim\gray.png,stim\gray.png,stim\gray.png,up,,,,,,,,,,,,,0,0,0,13,0,12,12,12,,,,,,,,,,,,,,,,,,,,,,,,,,,,,,,,,,,,,,,,,,,,,,,,,,,,,,,,up,1,0.3198598999879323,392.7562581000384,None,392.7562581000384,None,392.7562581000384,393.7578365000081,392.7562581000384,393.7578365000081,392.7562581000384,393.7578365000081,392.7562581000384,393.7578365000081,392.7562581000384,393.25644220004324,392.7562581000384,393.25644220004324,392.7562581000384,393.25644220004324,392.7562581000384,393.25644220004324,392.7562581000384,None,,,,,11007,001,2024_Jan_01_1443,nback,2021.2.3,59.65316458232454,
0-back,instructions\back-0.png,conditions\04back-e.xlsx,,,experiment,0,3,stim\gray.png,stim\gray.png,stim\yellow.png,stim\gray.png,right,,,,,,,,,,,,,0,0,0,13,0,13,13,13,,,,,,,,,,,,,,,,,,,,,,,,,,,,,,,,,,,,,,,,,,,,,,,,,,,,,,,,right,1,0.28274910000618547,394.2579343999969,None,394.2579343999969,None,394.2579343999969,395.260357799998,394.2579343999969,395.260357799998,394.2579343999969,395.260357799998,394.2579343999969,395.260357799998,394.2579343999969,394.75863850000314,394.2579343999969,394.75863850000314,394.2579343999969,394.75863850000314,394.2579343999969,394.75863850000314,394.2579343999969,None,,,,,11007,001,2024_Jan_01_1443,nback,2021.2.3,59.65316458232454,
