backseq,backinstr,backfile,instruction,size_in,Trialtype,back,number,P1,P2,P3,P4,corrAns,trials_practice.thisRepN,trials_practice.thisTrialN,trials_practice.thisN,trials_practice.thisIndex,trials.thisRepN,trials.thisTrialN,trials.thisN,trials.thisIndex,trials_3.thisRepN,trials_3.thisTrialN,trials_3.thisN,trials_3.thisIndex,trials_2.thisRepN,trials_2.thisTrialN,trials_2.thisN,trials_2.thisIndex,trials_4.thisRepN,trials_4.thisTrialN,trials_4.thisN,trials_4.thisIndex,image.started,image.stopped,image_2.started,image_2.stopped,key_resp.keys,key_resp.rt,key_resp.started,key_resp.stopped,image_3.started,image_3.stopped,key_resp_2.keys,key_resp_2.rt,key_resp_2.started,key_resp_2.stopped,image_4.started,image_4.stopped,text.started,text.stopped,H1.started,H1.stopped,H2.started,H2.stopped,H3.started,H3.stopped,H4.started,H4.stopped,key_resp_3.keys,key_resp_3.corr,key_resp_3.rt,key_resp_3.started,key_resp_3.stopped,text_4.started,text_4.stopped,F1.started,F1.stopped,F2.started,F2.stopped,F3.started,F3.stopped,F4.started,F4.stopped,image_7.started,image_7.stopped,text_5.started,text_5.stopped,key_resp_6.keys,key_resp_6.rt,key_resp_6.started,key_resp_6.stopped,image_5.started,image_5.stopped,key_resp_4.keys,key_resp_4.rt,key_resp_4.started,key_resp_4.stopped,key_resp_5.keys,key_resp_5.corr,key_resp_5.started,key_resp_5.stopped,text_3.started,text_3.stopped,H1_2.started,H1_2.stopped,H2_2.started,H2_2.stopped,H3_2.started,H3_2.stopped,H4_2.started,H4_2.stopped,F1_2.started,F1_2.stopped,F2_2.started,F2_2.stopped,F3_2.started,F3_2.stopped,F4_2.started,F4_2.stopped,image_8.started,image_8.stopped,key_resp_5.rt,text_2.started,text_2.stopped,image_6.started,image_6.stopped,participant,session,date,expName,psychopyVersion,frameRate,
,,,,,,,,,,,,,,,,,,,,,,,,,,,,,,,,,9.75164059997769,None,10.721575299976394,None,space,20.08569420001004,10.721575299976394,None,,,,,,,,,,,,,,,,,,,,,,,,,,,,,,,,,,,,,,,,,,,,,,,,,,,,,,,,,,,,,,,,,,,,,,,,,,,,,11008,001,2024_Jan_01_1545,nback,2021.2.3,59.81426473744339,
0-back,instructions\back-0.png,conditions\0back-p.xlsx,instructions\0-BACK.png,"(15, 8)",practice,0,1,stim\yellow.png,stim\gray.png,stim\gray.png,stim\gray.png,up,0,0,0,0,0,0,0,0,0,0,0,0,,,,,,,,,,,,,,,,,30.883954899967648,None,space,138.13966960000107,30.883954899967648,None,169.222092699958,173.73114539997187,173.6636712999898,None,174.06318419997115,175.06420709996019,174.06318419997115,175.06420709996019,174.06318419997115,175.06420709996019,174.06318419997115,175.06420709996019,up,1,0.944352499966044,174.06318419997115,None,174.06318419997115,None,174.06318419997115,174.56409989995882,174.06318419997115,174.56409989995882,174.06318419997115,174.56409989995882,174.06318419997115,174.56409989995882,174.06318419997115,None,,,,,,,,,,,,,,,,,,,,,,,,,,,,,,,,,,,,,,,,,,11008,001,2024_Jan_01_1545,nback,2021.2.3,59.81426473744339,
0-back,instructions\back-0.png,conditions\0back-p.xlsx,instructions\0-BACK.png,"(15, 8)",practice,0,2,stim\gray.png,stim\yellow.png,stim\gray.png,stim\gray.png,left,0,0,0,0,0,0,0,0,0,1,1,1,,,,,,,,,,,,,,,,,,,,,,,,,,,175.54819219995989,176.54994259995874,175.54819219995989,176.54994259995874,175.54819219995989,176.54994259995874,175.54819219995989,176.54994259995874,left,1,0.48364109999965876,175.54819219995989,None,175.54819219995989,None,175.54819219995989,176.04921119997744,175.54819219995989,176.04921119997744,175.54819219995989,176.04921119997744,175.54819219995989,176.04921119997744,175.54819219995989,None,,,,,,,,,,,,,,,,,,,,,,,,,,,,,,,,,,,,,,,,,,11008,001,2024_Jan_01_1545,nback,2021.2.3,59.81426473744339,
0-back,instructions\back-0.png,conditions\0back-p.xlsx,instructions\0-BACK.png,"(15, 8)",practice,0,3,stim\gray.png,stim\gray.png,stim\yellow.png,stim\gray.png,right,0,0,0,0,0,0,0,0,0,2,2,2,,,,,,,,,,,,,,,,,,,,,,,,,,,177.051059099962,178.05179069994483,177.051059099962,178.05179069994483,177.051059099962,178.05179069994483,177.051059099962,178.05179069994483,right,1,0.38057480001589283,177.051059099962,None,177.051059099962,None,177.051059099962,177.55142589996103,177.051059099962,177.55142589996103,177.051059099962,177.55142589996103,177.051059099962,177.55142589996103,177.051059099962,None,,,,,,,,,,,,,,,,,,,,,,,,,,,,,,,,,,,,,,,,,,11008,001,2024_Jan_01_1545,nback,2021.2.3,59.81426473744339,
0-back,instructions\back-0.png,conditions\0back-p.xlsx,instructions\0-BACK.png,"(15, 8)",practice,0,4,stim\gray.png,stim\gray.png,stim\gray.png,stim\yellow.png,down,0,0,0,0,0,0,0,0,0,3,3,3,,,,,,,,,,,,,,,,,,,,,,,,,,,178.55276419996517,179.55414429999655,178.55276419996517,179.55414429999655,178.55276419996517,179.55414429999655,178.55276419996517,179.55414429999655,down,1,0.4552557999850251,178.55276419996517,None,178.55276419996517,None,178.55276419996517,179.05339689995162,178.55276419996517,179.05339689995162,178.55276419996517,179.05339689995162,178.55276419996517,179.05339689995162,178.55276419996517,None,,,,,,,,,,,,,,,,,,,,,,,,,,,,,,,,,,,,,,,,,,11008,001,2024_Jan_01_1545,nback,2021.2.3,59.81426473744339,
0-back,instructions\back-0.png,conditions\0back-p.xlsx,instructions\0-BACK.png,"(15, 8)",practice,0,2,stim\gray.png,stim\yellow.png,stim\gray.png,stim\gray.png,left,0,0,0,0,0,0,0,0,0,4,4,4,,,,,,,,,,,,,,,,,,,,,,,,,,,180.05478419997962,181.05635869997786,180.05478419997962,181.05635869997786,180.05478419997962,181.05635869997786,180.05478419997962,181.05635869997786,left,1,0.3607495999895036,180.05478419997962,None,180.05478419997962,None,180.05478419997962,180.55555329995696,180.05478419997962,180.55555329995696,180.05478419997962,180.55555329995696,180.05478419997962,180.55555329995696,180.05478419997962,None,,,,,,,,,,,,,,,,,,,,,,,,,,,,,,,,,,,,,,,,,,11008,001,2024_Jan_01_1545,nback,2021.2.3,59.81426473744339,
0-back,instructions\back-0.png,conditions\0back-p.xlsx,instructions\0-BACK.png,"(15, 8)",practice,0,1,stim\yellow.png,stim\gray.png,stim\gray.png,stim\gray.png,up,0,0,0,0,0,0,0,0,0,5,5,5,,,,,,,,,,,,,,,,,,,,,,,,,,,181.5569670999539,182.55903079995187,181.5569670999539,182.55903079995187,181.5569670999539,182.55903079995187,181.5569670999539,182.55903079995187,up,1,0.37056750000920147,181.5569670999539,None,181.5569670999539,None,181.5569670999539,182.05874989996664,181.5569670999539,182.05874989996664,181.5569670999539,182.05874989996664,181.5569670999539,182.05874989996664,181.5569670999539,None,,,,,,,,,,,,,,,,,,,,,,,,,,,,,,,,,,,,,,,,,,11008,001,2024_Jan_01_1545,nback,2021.2.3,59.81426473744339,
0-back,instructions\back-0.png,conditions\0back-p.xlsx,instructions\0-BACK.png,"(15, 8)",practice,0,4,stim\gray.png,stim\gray.png,stim\gray.png,stim\yellow.png,down,0,0,0,0,0,0,0,0,0,6,6,6,,,,,,,,,,,,,,,,,,,,,,,,,,,183.05949399998644,184.06115919997683,183.05949399998644,184.06115919997683,183.05949399998644,184.06115919997683,183.05949399998644,184.06115919997683,down,1,0.38044599996646866,183.05949399998644,None,183.05949399998644,None,183.05949399998644,183.56006749998778,183.05949399998644,183.56006749998778,183.05949399998644,183.56006749998778,183.05949399998644,183.56006749998778,183.05949399998644,None,,,,,,,,,,,,,,,,,,,,,,,,,,,,,,,,,,,,,,,,,,11008,001,2024_Jan_01_1545,nback,2021.2.3,59.81426473744339,
0-back,instructions\back-0.png,conditions\0back-p.xlsx,instructions\0-BACK.png,"(15, 8)",practice,0,3,stim\gray.png,stim\gray.png,stim\yellow.png,stim\gray.png,right,0,0,0,0,0,0,0,0,0,7,7,7,,,,,,,,,,,,,,,,,,,,,,,,,,,184.54483989998698,185.54719569999725,184.54483989998698,185.54719569999725,184.54483989998698,185.54719569999725,184.54483989998698,185.54719569999725,right,1,0.3347399000194855,184.54483989998698,None,184.54483989998698,None,184.54483989998698,185.0463960999623,184.54483989998698,185.0463960999623,184.54483989998698,185.0463960999623,184.54483989998698,185.0463960999623,184.54483989998698,None,,,,,,,,,,,,,,,,,,,,,,,,,,,,,,,,,,,,,,,,,,11008,001,2024_Jan_01_1545,nback,2021.2.3,59.81426473744339,
0-back,instructions\back-0.png,conditions\0back-p.xlsx,instructions\0-BACK.png,"(15, 8)",practice,0,3,stim\gray.png,stim\gray.png,stim\yellow.png,stim\gray.png,right,0,0,0,0,0,0,0,0,0,8,8,8,,,,,,,,,,,,,,,,,,,,,,,,,,,186.04712149995612,187.04848389996914,186.04712149995612,187.04848389996914,186.04712149995612,187.04848389996914,186.04712149995612,187.04848389996914,right,1,0.36040579999098554,186.04712149995612,None,186.04712149995612,None,186.04712149995612,186.548336799955,186.04712149995612,186.548336799955,186.04712149995612,186.548336799955,186.04712149995612,186.548336799955,186.04712149995612,None,,,,,,,,,,,,,,,,,,,,,,,,,,,,,,,,,,,,,,,,,,11008,001,2024_Jan_01_1545,nback,2021.2.3,59.81426473744339,
0-back,instructions\back-0.png,conditions\0back-p.xlsx,instructions\0-BACK.png,"(15, 8)",practice,0,4,stim\gray.png,stim\gray.png,stim\gray.png,stim\yellow.png,down,0,0,0,0,0,0,0,0,0,9,9,9,,,,,,,,,,,,,,,,,,,,,,,,,,,187.54918029997498,188.5509511999553,187.54918029997498,188.5509511999553,187.54918029997498,188.5509511999553,187.54918029997498,188.5509511999553,down,1,0.5064808000461198,187.54918029997498,None,187.54918029997498,None,187.54918029997498,188.05055339995306,187.54918029997498,188.05055339995306,187.54918029997498,188.05055339995306,187.54918029997498,188.05055339995306,187.54918029997498,None,,,,,,,,,,,,,,,,,,,,,,,,,,,,,,,,,,,,,,,,,,11008,001,2024_Jan_01_1545,nback,2021.2.3,59.81426473744339,
0-back,instructions\back-0.png,conditions\0back-p.xlsx,instructions\0-BACK.png,"(15, 8)",practice,0,1,stim\yellow.png,stim\gray.png,stim\gray.png,stim\gray.png,up,0,0,0,0,0,0,0,0,0,10,10,10,,,,,,,,,,,,,,,,,,,,,,,,,,,189.05169279995607,190.05316909996327,189.05169279995607,190.05316909996327,189.05169279995607,190.05316909996327,189.05169279995607,190.05316909996327,up,1,0.3720896999584511,189.05169279995607,None,189.05169279995607,None,189.05169279995607,189.55266779998783,189.05169279995607,189.55266779998783,189.05169279995607,189.55266779998783,189.05169279995607,189.55266779998783,189.05169279995607,None,,,,,,,,,,,,,,,,,,,,,,,,,,,,,,,,,,,,,,,,,,11008,001,2024_Jan_01_1545,nback,2021.2.3,59.81426473744339,
0-back,instructions\back-0.png,conditions\0back-p.xlsx,instructions\0-BACK.png,"(15, 8)",practice,0,2,stim\gray.png,stim\yellow.png,stim\gray.png,stim\gray.png,left,0,0,0,0,0,0,0,0,0,11,11,11,,,,,,,,,,,,,,,,,,,,,,,,,,,190.55384979996597,191.5556623999728,190.55384979996597,191.5556623999728,190.55384979996597,191.5556623999728,190.55384979996597,191.5556623999728,left,1,0.341866199974902,190.55384979996597,None,190.55384979996597,None,190.55384979996597,191.05604769999627,190.55384979996597,191.05604769999627,190.55384979996597,191.05604769999627,190.55384979996597,191.05604769999627,190.55384979996597,None,,,,,,,,,,,,,,,,,,,,,,,,,,,,,,,,,,,,,,,,,,11008,001,2024_Jan_01_1545,nback,2021.2.3,59.81426473744339,
0-back,instructions\back-0.png,conditions\0back-p.xlsx,instructions\0-BACK.png,"(15, 8)",practice,0,4,stim\gray.png,stim\gray.png,stim\gray.png,stim\yellow.png,down,0,0,0,0,0,0,0,0,0,12,12,12,,,,,,,,,,,,,,,,,,,,,,,,,,,192.05632849998074,193.0576045999769,192.05632849998074,193.0576045999769,192.05632849998074,193.0576045999769,192.05632849998074,193.0576045999769,down,1,0.5111419000313617,192.05632849998074,None,192.05632849998074,None,192.05632849998074,192.55751659994712,192.05632849998074,192.55751659994712,192.05632849998074,192.55751659994712,192.05632849998074,192.55751659994712,192.05632849998074,None,,,,,,,,,,,,,,,,,,,,,,,,,,,,,,,,,,,,,,,,,,11008,001,2024_Jan_01_1545,nback,2021.2.3,59.81426473744339,
0-back,instructions\back-0.png,conditions\0back-p.xlsx,instructions\0-BACK.png,"(15, 8)",practice,0,3,stim\gray.png,stim\gray.png,stim\yellow.png,stim\gray.png,right,0,0,0,0,0,0,0,0,0,13,13,13,,,,,,,,,,,,,,,,,,,,,,,,,,,193.558194799989,194.56053309998242,193.558194799989,194.56053309998242,193.558194799989,194.56053309998242,193.558194799989,194.56053309998242,right,1,0.39342099998611957,193.558194799989,None,193.558194799989,None,193.558194799989,194.05930269998498,193.558194799989,194.05930269998498,193.558194799989,194.05930269998498,193.558194799989,194.05930269998498,193.558194799989,None,,,,,,,,,,,,,,,,,,,,,,,,,,,,,,,,,,,,,,,,,,11008,001,2024_Jan_01_1545,nback,2021.2.3,59.81426473744339,
0-back,instructions\back-0.png,conditions\0back-p.xlsx,instructions\0-BACK.png,"(15, 8)",practice,0,1,stim\yellow.png,stim\gray.png,stim\gray.png,stim\gray.png,up,0,0,0,0,0,0,0,0,0,14,14,14,,,,,,,,,,,,,,,,,,,,,,,,,,,195.0437585999607,196.04515359998913,195.0437585999607,196.04515359998913,195.0437585999607,196.04515359998913,195.0437585999607,196.04515359998913,up,1,0.4197207999532111,195.0437585999607,None,195.0437585999607,None,195.0437585999607,195.54512009996688,195.0437585999607,195.54512009996688,195.0437585999607,195.54512009996688,195.0437585999607,195.54512009996688,195.0437585999607,None,,,,,,,,,,,,,,,,,,,,,,,,,,,,,,,,,,,,,,,,,,11008,001,2024_Jan_01_1545,nback,2021.2.3,59.81426473744339,
0-back,instructions\back-0.png,conditions\0back-p.xlsx,instructions\0-BACK.png,"(15, 8)",practice,0,2,stim\gray.png,stim\yellow.png,stim\gray.png,stim\gray.png,left,0,0,0,0,0,0,0,0,0,15,15,15,,,,,,,,,,,,,,,,,,,,,,,,,,,196.54637989995535,197.54759989999002,196.54637989995535,197.54759989999002,196.54637989995535,197.54759989999002,196.54637989995535,197.54759989999002,left,1,0.3091405000304803,196.54637989995535,None,196.54637989995535,None,196.54637989995535,197.04671339999186,196.54637989995535,197.04671339999186,196.54637989995535,197.04671339999186,196.54637989995535,197.04671339999186,196.54637989995535,None,,,,,,,,,,,,,,,,,,,,,,,,,,,,,,,,,,,,,,,,,,11008,001,2024_Jan_01_1545,nback,2021.2.3,59.81426473744339,
0-back,instructions\back-0.png,conditions\0back-p.xlsx,instructions\0-BACK.png,"(15, 8)",practice,0,3,stim\gray.png,stim\gray.png,stim\yellow.png,stim\gray.png,right,0,0,0,0,0,0,0,0,0,16,16,16,,,,,,,,,,,,,,,,,,,,,,,,,,,198.04819000000134,199.05033859994728,198.04819000000134,199.05033859994728,198.04819000000134,199.05033859994728,198.04819000000134,199.05033859994728,right,1,0.4395956000080332,198.04819000000134,None,198.04819000000134,None,198.04819000000134,198.54981969995424,198.04819000000134,198.54981969995424,198.04819000000134,198.54981969995424,198.04819000000134,198.54981969995424,198.04819000000134,None,,,,,,,,,,,,,,,,,,,,,,,,,,,,,,,,,,,,,,,,,,11008,001,2024_Jan_01_1545,nback,2021.2.3,59.81426473744339,
0-back,instructions\back-0.png,conditions\0back-p.xlsx,instructions\0-BACK.png,"(15, 8)",practice,0,1,stim\yellow.png,stim\gray.png,stim\gray.png,stim\gray.png,up,0,0,0,0,0,0,0,0,0,17,17,17,,,,,,,,,,,,,,,,,,,,,,,,,,,199.55062399996677,200.5519467999693,199.55062399996677,200.5519467999693,199.55062399996677,200.5519467999693,199.55062399996677,200.5519467999693,up,1,0.48088449996430427,199.55062399996677,None,199.55062399996677,None,199.55062399996677,200.05105609999737,199.55062399996677,200.05105609999737,199.55062399996677,200.05105609999737,199.55062399996677,200.05105609999737,199.55062399996677,None,,,,,,,,,,,,,,,,,,,,,,,,,,,,,,,,,,,,,,,,,,11008,001,2024_Jan_01_1545,nback,2021.2.3,59.81426473744339,
0-back,instructions\back-0.png,conditions\0back-p.xlsx,instructions\0-BACK.png,"(15, 8)",practice,0,4,stim\gray.png,stim\gray.png,stim\gray.png,stim\yellow.png,down,0,0,0,0,0,0,0,0,0,18,18,18,,,,,,,,,,,,,,,,,,,,,,,,,,,201.0526189999655,202.05390809994424,201.0526189999655,202.05390809994424,201.0526189999655,202.05390809994424,201.0526189999655,202.05390809994424,down,1,0.45885049999924377,201.0526189999655,None,201.0526189999655,None,201.0526189999655,201.5534093999886,201.0526189999655,201.5534093999886,201.0526189999655,201.5534093999886,201.0526189999655,201.5534093999886,201.0526189999655,None,,,,,,,,,,,,,,,,,,,,,,,,,,,,,,,,,,,,,,,,,,11008,001,2024_Jan_01_1545,nback,2021.2.3,59.81426473744339,
0-back,instructions\back-0.png,conditions\0back-p.xlsx,instructions\0-BACK.png,"(15, 8)",practice,0,2,stim\gray.png,stim\yellow.png,stim\gray.png,stim\gray.png,left,0,0,0,0,0,0,0,0,0,19,19,19,,,,,,,,,,,,,,,,,,,,,,,,,,,202.5555435999995,203.55731679999735,202.5555435999995,203.55731679999735,202.5555435999995,203.55731679999735,202.5555435999995,203.55731679999735,left,1,0.30020579998381436,202.5555435999995,None,202.5555435999995,None,202.5555435999995,203.05621389998123,202.5555435999995,203.05621389998123,202.5555435999995,203.05621389998123,202.5555435999995,203.05621389998123,202.5555435999995,None,,,,,,,,,,,,,,,,,,,,,,,,,,,,,,,,,,,,,,,,,,11008,001,2024_Jan_01_1545,nback,2021.2.3,59.81426473744339,
0-back,instructions\back-0.png,conditions\0back-p.xlsx,instructions\0-BACK.png,"(15, 8)",,,,,,,,,0,0,0,0,0,0,0,0,,,,,,,,,,,,,,,,,,,,,,,,,,,,,,,,,,,,,,,,,,,,,,,,,,,,,,,,,,,,,,,,,,,,,,,,,,,,,,,,,,,,,,,,,,,,,,,,,11008,001,2024_Jan_01_1545,nback,2021.2.3,59.81426473744339,
1-back,instructions\back-1.png,conditions\1back-p.xlsx,instructions\1-BACK.png,"(25, 15)",practice,1,1,stim\yellow.png,stim\gray.png,stim\gray.png,stim\gray.png,None,0,0,0,0,0,1,1,1,0,0,0,0,,,,,,,,,,,,,,,,,204.22397689998616,None,space,12.104172600025777,204.22397689998616,None,216.59219729999313,221.10146369994618,221.0831957999617,None,221.38365459995111,222.38521229999606,221.38365459995111,222.38521229999606,221.38365459995111,222.38521229999606,221.38365459995111,222.38521229999606,None,1,,221.38365459995111,None,221.38365459995111,None,221.38365459995111,221.88334619998932,221.38365459995111,221.88334619998932,221.38365459995111,221.88334619998932,221.38365459995111,221.88334619998932,221.38365459995111,None,,,,,,,,,,,,,,,,,,,,,,,,,,,,,,,,,,,,,,,,,,11008,001,2024_Jan_01_1545,nback,2021.2.3,59.81426473744339,
1-back,instructions\back-1.png,conditions\1back-p.xlsx,instructions\1-BACK.png,"(25, 15)",practice,1,2,stim\gray.png,stim\yellow.png,stim\gray.png,stim\gray.png,up,0,0,0,0,0,1,1,1,0,1,1,1,,,,,,,,,,,,,,,,,,,,,,,,,,,222.86835579999024,223.8699048999697,222.86835579999024,223.8699048999697,222.86835579999024,223.8699048999697,222.86835579999024,223.8699048999697,up,1,1.3550705999950878,222.86835579999024,None,222.86835579999024,None,222.86835579999024,223.36936119996244,222.86835579999024,223.36936119996244,222.86835579999024,223.36936119996244,222.86835579999024,223.36936119996244,222.86835579999024,None,,,,,,,,,,,,,,,,,,,,,,,,,,,,,,,,,,,,,,,,,,11008,001,2024_Jan_01_1545,nback,2021.2.3,59.81426473744339,
1-back,instructions\back-1.png,conditions\1back-p.xlsx,instructions\1-BACK.png,"(25, 15)",practice,1,3,stim\gray.png,stim\gray.png,stim\yellow.png,stim\gray.png,left,0,0,0,0,0,1,1,1,0,2,2,2,,,,,,,,,,,,,,,,,,,,,,,,,,,224.3706230999669,225.37333969998872,224.3706230999669,225.37333969998872,224.3706230999669,225.37333969998872,224.3706230999669,225.37333969998872,None,0,,224.3706230999669,None,224.3706230999669,None,224.3706230999669,224.87154799996642,224.3706230999669,224.87154799996642,224.3706230999669,224.87154799996642,224.3706230999669,224.87154799996642,224.3706230999669,None,,,,,,,,,,,,,,,,,,,,,,,,,,,,,,,,,,,,,,,,,,11008,001,2024_Jan_01_1545,nback,2021.2.3,59.81426473744339,
1-back,instructions\back-1.png,conditions\1back-p.xlsx,instructions\1-BACK.png,"(25, 15)",practice,1,4,stim\gray.png,stim\gray.png,stim\gray.png,stim\yellow.png,right,0,0,0,0,0,1,1,1,0,3,3,3,,,,,,,,,,,,,,,,,,,,,,,,,,,225.8728351999889,226.87414269999135,225.8728351999889,226.87414269999135,225.8728351999889,226.87414269999135,225.8728351999889,226.87414269999135,right,1,0.9745797999785282,225.8728351999889,None,225.8728351999889,None,225.8728351999889,226.37400359997991,225.8728351999889,226.37400359997991,225.8728351999889,226.37400359997991,225.8728351999889,226.37400359997991,225.8728351999889,None,,,,,,,,,,,,,,,,,,,,,,,,,,,,,,,,,,,,,,,,,,11008,001,2024_Jan_01_1545,nback,2021.2.3,59.81426473744339,
1-back,instructions\back-1.png,conditions\1back-p.xlsx,instructions\1-BACK.png,"(25, 15)",practice,1,2,stim\gray.png,stim\yellow.png,stim\gray.png,stim\gray.png,down,0,0,0,0,0,1,1,1,0,4,4,4,,,,,,,,,,,,,,,,,,,,,,,,,,,227.3748260999564,228.37651679996634,227.3748260999564,228.37651679996634,227.3748260999564,228.37651679996634,227.3748260999564,228.37651679996634,None,0,,227.3748260999564,None,227.3748260999564,None,227.3748260999564,227.87613639998017,227.3748260999564,227.87613639998017,227.3748260999564,227.87613639998017,227.3748260999564,227.87613639998017,227.3748260999564,None,,,,,,,,,,,,,,,,,,,,,,,,,,,,,,,,,,,,,,,,,,11008,001,2024_Jan_01_1545,nback,2021.2.3,59.81426473744339,
1-back,instructions\back-1.png,conditions\1back-p.xlsx,instructions\1-BACK.png,"(25, 15)",practice,1,1,stim\yellow.png,stim\gray.png,stim\gray.png,stim\gray.png,left,0,0,0,0,0,1,1,1,0,5,5,5,,,,,,,,,,,,,,,,,,,,,,,,,,,228.87738729995908,229.8787201999803,228.87738729995908,229.8787201999803,228.87738729995908,229.8787201999803,228.87738729995908,229.8787201999803,up,0,0.6262464000028558,228.87738729995908,None,228.87738729995908,None,228.87738729995908,229.37952969997423,228.87738729995908,229.37952969997423,228.87738729995908,229.37952969997423,228.87738729995908,229.37952969997423,228.87738729995908,None,,,,,,,,,,,,,,,,,,,,,,,,,,,,,,,,,,,,,,,,,,11008,001,2024_Jan_01_1545,nback,2021.2.3,59.81426473744339,
1-back,instructions\back-1.png,conditions\1back-p.xlsx,instructions\1-BACK.png,"(25, 15)",practice,1,4,stim\gray.png,stim\gray.png,stim\gray.png,stim\yellow.png,up,0,0,0,0,0,1,1,1,0,6,6,6,,,,,,,,,,,,,,,,,,,,,,,,,,,230.38015059998725,231.38086330000078,230.38015059998725,231.38086330000078,230.38015059998725,231.38086330000078,230.38015059998725,231.38086330000078,None,0,,230.38015059998725,None,230.38015059998725,None,230.38015059998725,230.87993669998832,230.38015059998725,230.87993669998832,230.38015059998725,230.87993669998832,230.38015059998725,230.87993669998832,230.38015059998725,None,,,,,,,,,,,,,,,,,,,,,,,,,,,,,,,,,,,,,,,,,,11008,001,2024_Jan_01_1545,nback,2021.2.3,59.81426473744339,
1-back,instructions\back-1.png,conditions\1back-p.xlsx,instructions\1-BACK.png,"(25, 15)",practice,1,3,stim\gray.png,stim\gray.png,stim\yellow.png,stim\gray.png,down,0,0,0,0,0,1,1,1,0,7,7,7,,,,,,,,,,,,,,,,,,,,,,,,,,,231.86499639996327,232.867670299951,231.86499639996327,232.867670299951,231.86499639996327,232.867670299951,231.86499639996327,232.867670299951,down,1,0.9024846999673173,231.86499639996327,None,231.86499639996327,None,231.86499639996327,232.36571719998028,231.86499639996327,232.36571719998028,231.86499639996327,232.36571719998028,231.86499639996327,232.36571719998028,231.86499639996327,None,,,,,,,,,,,,,,,,,,,,,,,,,,,,,,,,,,,,,,,,,,11008,001,2024_Jan_01_1545,nback,2021.2.3,59.81426473744339,
1-back,instructions\back-1.png,conditions\1back-p.xlsx,instructions\1-BACK.png,"(25, 15)",practice,1,3,stim\gray.png,stim\gray.png,stim\yellow.png,stim\gray.png,right,0,0,0,0,0,1,1,1,0,8,8,8,,,,,,,,,,,,,,,,,,,,,,,,,,,233.36721969995415,234.36893719999352,233.36721969995415,234.36893719999352,233.36721969995415,234.36893719999352,233.36721969995415,234.36893719999352,None,0,,233.36721969995415,None,233.36721969995415,None,233.36721969995415,233.86820339999394,233.36721969995415,233.86820339999394,233.36721969995415,233.86820339999394,233.36721969995415,233.86820339999394,233.36721969995415,None,,,,,,,,,,,,,,,,,,,,,,,,,,,,,,,,,,,,,,,,,,11008,001,2024_Jan_01_1545,nback,2021.2.3,59.81426473744339,
1-back,instructions\back-1.png,conditions\1back-p.xlsx,instructions\1-BACK.png,"(25, 15)",practice,1,4,stim\gray.png,stim\gray.png,stim\gray.png,stim\yellow.png,right,0,0,0,0,0,1,1,1,0,9,9,9,,,,,,,,,,,,,,,,,,,,,,,,,,,234.86945429997286,235.87084519997006,234.86945429997286,235.87084519997006,234.86945429997286,235.87084519997006,234.86945429997286,235.87084519997006,right,1,0.6423506999853998,234.86945429997286,None,234.86945429997286,None,234.86945429997286,235.37061969999922,234.86945429997286,235.37061969999922,234.86945429997286,235.37061969999922,234.86945429997286,235.37061969999922,234.86945429997286,None,,,,,,,,,,,,,,,,,,,,,,,,,,,,,,,,,,,,,,,,,,11008,001,2024_Jan_01_1545,nback,2021.2.3,59.81426473744339,
1-back,instructions\back-1.png,conditions\1back-p.xlsx,instructions\1-BACK.png,"(25, 15)",practice,1,1,stim\yellow.png,stim\gray.png,stim\gray.png,stim\gray.png,down,0,0,0,0,0,1,1,1,0,10,10,10,,,,,,,,,,,,,,,,,,,,,,,,,,,236.37163039995357,237.37374769995222,236.37163039995357,237.37374769995222,236.37163039995357,237.37374769995222,236.37163039995357,237.37374769995222,None,0,,236.37163039995357,None,236.37163039995357,None,236.37163039995357,236.87230109999655,236.37163039995357,236.87230109999655,236.37163039995357,236.87230109999655,236.37163039995357,236.87230109999655,236.37163039995357,None,,,,,,,,,,,,,,,,,,,,,,,,,,,,,,,,,,,,,,,,,,11008,001,2024_Jan_01_1545,nback,2021.2.3,59.81426473744339,
1-back,instructions\back-1.png,conditions\1back-p.xlsx,instructions\1-BACK.png,"(25, 15)",practice,1,2,stim\gray.png,stim\yellow.png,stim\gray.png,stim\gray.png,up,0,0,0,0,0,1,1,1,0,11,11,11,,,,,,,,,,,,,,,,,,,,,,,,,,,237.87421849998645,238.8780472999788,237.87421849998645,238.8780472999788,237.87421849998645,238.8780472999788,237.87421849998645,238.8780472999788,up,1,0.49351299996487796,237.87421849998645,None,237.87421849998645,None,237.87421849998645,238.37444439996034,237.87421849998645,238.37444439996034,237.87421849998645,238.37444439996034,237.87421849998645,238.37444439996034,237.87421849998645,None,,,,,,,,,,,,,,,,,,,,,,,,,,,,,,,,,,,,,,,,,,11008,001,2024_Jan_01_1545,nback,2021.2.3,59.81426473744339,
1-back,instructions\back-1.png,conditions\1back-p.xlsx,instructions\1-BACK.png,"(25, 15)",practice,1,4,stim\gray.png,stim\gray.png,stim\gray.png,stim\yellow.png,left,0,0,0,0,0,1,1,1,0,12,12,12,,,,,,,,,,,,,,,,,,,,,,,,,,,239.37658139999257,240.37793669995153,239.37658139999257,240.37793669995153,239.37658139999257,240.37793669995153,239.37658139999257,240.37793669995153,None,0,,239.37658139999257,None,239.37658139999257,None,239.37658139999257,239.87704939994728,239.37658139999257,239.87704939994728,239.37658139999257,239.87704939994728,239.37658139999257,239.87704939994728,239.37658139999257,None,,,,,,,,,,,,,,,,,,,,,,,,,,,,,,,,,,,,,,,,,,11008,001,2024_Jan_01_1545,nback,2021.2.3,59.81426473744339,
1-back,instructions\back-1.png,conditions\1back-p.xlsx,instructions\1-BACK.png,"(25, 15)",practice,1,3,stim\gray.png,stim\gray.png,stim\yellow.png,stim\gray.png,down,0,0,0,0,0,1,1,1,0,13,13,13,,,,,,,,,,,,,,,,,,,,,,,,,,,240.87835789995734,241.88021059997845,240.87835789995734,241.88021059997845,240.87835789995734,241.88021059997845,240.87835789995734,241.88021059997845,right,0,0.6973113000276498,240.87835789995734,None,240.87835789995734,None,240.87835789995734,241.3796536999871,240.87835789995734,241.3796536999871,240.87835789995734,241.3796536999871,240.87835789995734,241.3796536999871,240.87835789995734,None,,,,,,,,,,,,,,,,,,,,,,,,,,,,,,,,,,,,,,,,,,11008,001,2024_Jan_01_1545,nback,2021.2.3,59.81426473744339,
1-back,instructions\back-1.png,conditions\1back-p.xlsx,instructions\1-BACK.png,"(25, 15)",practice,1,1,stim\yellow.png,stim\gray.png,stim\gray.png,stim\gray.png,right,0,0,0,0,0,1,1,1,0,14,14,14,,,,,,,,,,,,,,,,,,,,,,,,,,,242.36394449998625,243.3661887999624,242.36394449998625,243.3661887999624,242.36394449998625,243.3661887999624,242.36394449998625,243.3661887999624,None,0,,242.36394449998625,None,242.36394449998625,None,242.36394449998625,242.86450409999816,242.36394449998625,242.86450409999816,242.36394449998625,242.86450409999816,242.36394449998625,242.86450409999816,242.36394449998625,None,,,,,,,,,,,,,,,,,,,,,,,,,,,,,,,,,,,,,,,,,,11008,001,2024_Jan_01_1545,nback,2021.2.3,59.81426473744339,
1-back,instructions\back-1.png,conditions\1back-p.xlsx,instructions\1-BACK.png,"(25, 15)",practice,1,2,stim\gray.png,stim\yellow.png,stim\gray.png,stim\gray.png,up,0,0,0,0,0,1,1,1,0,15,15,15,,,,,,,,,,,,,,,,,,,,,,,,,,,243.86614289996214,244.86778639996191,243.86614289996214,244.86778639996191,243.86614289996214,244.86778639996191,243.86614289996214,244.86778639996191,None,0,,243.86614289996214,None,243.86614289996214,None,243.86614289996214,244.36684809997678,243.86614289996214,244.36684809997678,243.86614289996214,244.36684809997678,243.86614289996214,244.36684809997678,243.86614289996214,None,,,,,,,,,,,,,,,,,,,,,,,,,,,,,,,,,,,,,,,,,,11008,001,2024_Jan_01_1545,nback,2021.2.3,59.81426473744339,
1-back,instructions\back-1.png,conditions\1back-p.xlsx,instructions\1-BACK.png,"(25, 15)",practice,1,3,stim\gray.png,stim\gray.png,stim\yellow.png,stim\gray.png,left,0,0,0,0,0,1,1,1,0,16,16,16,,,,,,,,,,,,,,,,,,,,,,,,,,,245.36823829996865,246.37050989997806,245.36823829996865,246.37050989997806,245.36823829996865,246.37050989997806,245.36823829996865,246.37050989997806,None,0,,245.36823829996865,None,245.36823829996865,None,245.36823829996865,245.86911699996563,245.36823829996865,245.86911699996563,245.36823829996865,245.86911699996563,245.36823829996865,245.86911699996563,245.36823829996865,None,,,,,,,,,,,,,,,,,,,,,,,,,,,,,,,,,,,,,,,,,,11008,001,2024_Jan_01_1545,nback,2021.2.3,59.81426473744339,
1-back,instructions\back-1.png,conditions\1back-p.xlsx,instructions\1-BACK.png,"(25, 15)",practice,1,1,stim\yellow.png,stim\gray.png,stim\gray.png,stim\gray.png,right,0,0,0,0,0,1,1,1,0,17,17,17,,,,,,,,,,,,,,,,,,,,,,,,,,,246.87053889996605,247.87210829998367,246.87053889996605,247.87210829998367,246.87053889996605,247.87210829998367,246.87053889996605,247.87210829998367,None,0,,246.87053889996605,None,246.87053889996605,None,246.87053889996605,247.37148599996,246.87053889996605,247.37148599996,246.87053889996605,247.37148599996,246.87053889996605,247.37148599996,246.87053889996605,None,,,,,,,,,,,,,,,,,,,,,,,,,,,,,,,,,,,,,,,,,,11008,001,2024_Jan_01_1545,nback,2021.2.3,59.81426473744339,
1-back,instructions\back-1.png,conditions\1back-p.xlsx,instructions\1-BACK.png,"(25, 15)",practice,1,4,stim\gray.png,stim\gray.png,stim\gray.png,stim\yellow.png,up,0,0,0,0,0,1,1,1,0,18,18,18,,,,,,,,,,,,,,,,,,,,,,,,,,,248.3728333999752,249.3739647999755,248.3728333999752,249.3739647999755,248.3728333999752,249.3739647999755,248.3728333999752,249.3739647999755,None,0,,248.3728333999752,None,248.3728333999752,None,248.3728333999752,248.87359499995364,248.3728333999752,248.87359499995364,248.3728333999752,248.87359499995364,248.3728333999752,248.87359499995364,248.3728333999752,None,,,,,,,,,,,,,,,,,,,,,,,,,,,,,,,,,,,,,,,,,,11008,001,2024_Jan_01_1545,nback,2021.2.3,59.81426473744339,
1-back,instructions\back-1.png,conditions\1back-p.xlsx,instructions\1-BACK.png,"(25, 15)",practice,1,2,stim\gray.png,stim\yellow.png,stim\gray.png,stim\gray.png,down,0,0,0,0,0,1,1,1,0,19,19,19,,,,,,,,,,,,,,,,,,,,,,,,,,,249.87507229996845,250.87649109994527,249.87507229996845,250.87649109994527,249.87507229996845,250.87649109994527,249.87507229996845,250.87649109994527,None,0,,249.87507229996845,None,249.87507229996845,None,249.87507229996845,250.37560519995168,249.87507229996845,250.37560519995168,249.87507229996845,250.37560519995168,249.87507229996845,250.37560519995168,249.87507229996845,None,,,,,,,,,,,,,,,,,,,,,,,,,,,,,,,,,,,,,,,,,,11008,001,2024_Jan_01_1545,nback,2021.2.3,59.81426473744339,
1-back,instructions\back-1.png,conditions\1back-p.xlsx,instructions\1-BACK.png,"(25, 15)",,,,,,,,,0,0,0,0,0,1,1,1,,,,,,,,,,,,,,,,,,,,,,,,,,,,,,,,,,,,,,,,,,,,,,,,,,,,,,,,,,,,,,,,,,,,,,,,,,,,,,,,,,,,,,,,,,,,,,,,,11008,001,2024_Jan_01_1545,nback,2021.2.3,59.81426473744339,
2-back,instructions\back-2.png,conditions\2back-p.xlsx,instructions\2-BACK.png,"(25, 15)",practice,2,1,stim\yellow.png,stim\gray.png,stim\gray.png,stim\gray.png,None,0,0,0,0,0,2,2,2,0,0,0,0,,,,,,,,,,,,,,,,,251.6109622999793,None,space,19.45260200003395,251.6109622999793,None,271.27324249997037,275.7808021999663,275.7306145999464,None,276.11461099999724,277.11574029998155,276.11461099999724,277.11574029998155,276.11461099999724,277.11574029998155,276.11461099999724,277.11574029998155,None,1,,276.11461099999724,None,276.11461099999724,None,276.11461099999724,276.6150852999999,276.11461099999724,276.6150852999999,276.11461099999724,276.6150852999999,276.11461099999724,276.6150852999999,276.11461099999724,None,,,,,,,,,,,,,,,,,,,,,,,,,,,,,,,,,,,,,,,,,,11008,001,2024_Jan_01_1545,nback,2021.2.3,59.81426473744339,
2-back,instructions\back-2.png,conditions\2back-p.xlsx,instructions\2-BACK.png,"(25, 15)",practice,2,2,stim\gray.png,stim\yellow.png,stim\gray.png,stim\gray.png,None,0,0,0,0,0,2,2,2,0,1,1,1,,,,,,,,,,,,,,,,,,,,,,,,,,,277.5998991999659,278.60099009994883,277.5998991999659,278.60099009994883,277.5998991999659,278.60099009994883,277.5998991999659,278.60099009994883,None,1,,277.5998991999659,None,277.5998991999659,None,277.5998991999659,278.10031869995873,277.5998991999659,278.10031869995873,277.5998991999659,278.10031869995873,277.5998991999659,278.10031869995873,277.5998991999659,None,,,,,,,,,,,,,,,,,,,,,,,,,,,,,,,,,,,,,,,,,,11008,001,2024_Jan_01_1545,nback,2021.2.3,59.81426473744339,
2-back,instructions\back-2.png,conditions\2back-p.xlsx,instructions\2-BACK.png,"(25, 15)",practice,2,3,stim\gray.png,stim\gray.png,stim\yellow.png,stim\gray.png,up,0,0,0,0,0,2,2,2,0,2,2,2,,,,,,,,,,,,,,,,,,,,,,,,,,,279.10189999995055,280.10361349995947,279.10189999995055,280.10361349995947,279.10189999995055,280.10361349995947,279.10189999995055,280.10361349995947,up,1,0.7857883999822661,279.10189999995055,None,279.10189999995055,None,279.10189999995055,279.60313949995907,279.10189999995055,279.60313949995907,279.10189999995055,279.60313949995907,279.10189999995055,279.60313949995907,279.10189999995055,None,,,,,,,,,,,,,,,,,,,,,,,,,,,,,,,,,,,,,,,,,,11008,001,2024_Jan_01_1545,nback,2021.2.3,59.81426473744339,
2-back,instructions\back-2.png,conditions\2back-p.xlsx,instructions\2-BACK.png,"(25, 15)",practice,2,4,stim\gray.png,stim\gray.png,stim\gray.png,stim\yellow.png,left,0,0,0,0,0,2,2,2,0,3,3,3,,,,,,,,,,,,,,,,,,,,,,,,,,,280.60382829996524,281.6060676999623,280.60382829996524,281.6060676999623,280.60382829996524,281.6060676999623,280.60382829996524,281.6060676999623,None,0,,280.60382829996524,None,280.60382829996524,None,280.60382829996524,281.1046358999447,280.60382829996524,281.1046358999447,280.60382829996524,281.1046358999447,280.60382829996524,281.1046358999447,280.60382829996524,None,,,,,,,,,,,,,,,,,,,,,,,,,,,,,,,,,,,,,,,,,,11008,001,2024_Jan_01_1545,nback,2021.2.3,59.81426473744339,
2-back,instructions\back-2.png,conditions\2back-p.xlsx,instructions\2-BACK.png,"(25, 15)",practice,2,2,stim\gray.png,stim\yellow.png,stim\gray.png,stim\gray.png,right,0,0,0,0,0,2,2,2,0,4,4,4,,,,,,,,,,,,,,,,,,,,,,,,,,,282.1061227999744,283.10811019997345,282.1061227999744,283.10811019997345,282.1061227999744,283.10811019997345,282.1061227999744,283.10811019997345,None,0,,282.1061227999744,None,282.1061227999744,None,282.1061227999744,282.6075574999559,282.1061227999744,282.6075574999559,282.1061227999744,282.6075574999559,282.1061227999744,282.6075574999559,282.1061227999744,None,,,,,,,,,,,,,,,,,,,,,,,,,,,,,,,,,,,,,,,,,,11008,001,2024_Jan_01_1545,nback,2021.2.3,59.81426473744339,
2-back,instructions\back-2.png,conditions\2back-p.xlsx,instructions\2-BACK.png,"(25, 15)",practice,2,1,stim\yellow.png,stim\gray.png,stim\gray.png,stim\gray.png,down,0,0,0,0,0,2,2,2,0,5,5,5,,,,,,,,,,,,,,,,,,,,,,,,,,,283.5921259999741,284.5939286999637,283.5921259999741,284.5939286999637,283.5921259999741,284.5939286999637,283.5921259999741,284.5939286999637,None,0,,283.5921259999741,None,283.5921259999741,None,283.5921259999741,284.0935199999949,283.5921259999741,284.0935199999949,283.5921259999741,284.0935199999949,283.5921259999741,284.0935199999949,283.5921259999741,None,,,,,,,,,,,,,,,,,,,,,,,,,,,,,,,,,,,,,,,,,,11008,001,2024_Jan_01_1545,nback,2021.2.3,59.81426473744339,
2-back,instructions\back-2.png,conditions\2back-p.xlsx,instructions\2-BACK.png,"(25, 15)",practice,2,4,stim\gray.png,stim\gray.png,stim\gray.png,stim\yellow.png,left,0,0,0,0,0,2,2,2,0,6,6,6,,,,,,,,,,,,,,,,,,,,,,,,,,,285.09387509996304,286.0961486999877,285.09387509996304,286.0961486999877,285.09387509996304,286.0961486999877,285.09387509996304,286.0961486999877,None,0,,285.09387509996304,None,285.09387509996304,None,285.09387509996304,285.5949147999636,285.09387509996304,285.5949147999636,285.09387509996304,285.5949147999636,285.09387509996304,285.5949147999636,285.09387509996304,None,,,,,,,,,,,,,,,,,,,,,,,,,,,,,,,,,,,,,,,,,,11008,001,2024_Jan_01_1545,nback,2021.2.3,59.81426473744339,
2-back,instructions\back-2.png,conditions\2back-p.xlsx,instructions\2-BACK.png,"(25, 15)",practice,2,3,stim\gray.png,stim\gray.png,stim\yellow.png,stim\gray.png,up,0,0,0,0,0,2,2,2,0,7,7,7,,,,,,,,,,,,,,,,,,,,,,,,,,,286.59713629999897,287.5977144999779,286.59713629999897,287.5977144999779,286.59713629999897,287.5977144999779,286.59713629999897,287.5977144999779,None,0,,286.59713629999897,None,286.59713629999897,None,286.59713629999897,287.09862869995413,286.59713629999897,287.09862869995413,286.59713629999897,287.09862869995413,286.59713629999897,287.09862869995413,286.59713629999897,None,,,,,,,,,,,,,,,,,,,,,,,,,,,,,,,,,,,,,,,,,,11008,001,2024_Jan_01_1545,nback,2021.2.3,59.81426473744339,
2-back,instructions\back-2.png,conditions\2back-p.xlsx,instructions\2-BACK.png,"(25, 15)",practice,2,3,stim\gray.png,stim\gray.png,stim\yellow.png,stim\gray.png,down,0,0,0,0,0,2,2,2,0,8,8,8,,,,,,,,,,,,,,,,,,,,,,,,,,,288.09824959997786,289.0999446999631,288.09824959997786,289.0999446999631,288.09824959997786,289.0999446999631,288.09824959997786,289.0999446999631,None,0,,288.09824959997786,None,288.09824959997786,None,288.09824959997786,288.59914919995936,288.09824959997786,288.59914919995936,288.09824959997786,288.59914919995936,288.09824959997786,288.59914919995936,288.09824959997786,None,,,,,,,,,,,,,,,,,,,,,,,,,,,,,,,,,,,,,,,,,,11008,001,2024_Jan_01_1545,nback,2021.2.3,59.81426473744339,
2-back,instructions\back-2.png,conditions\2back-p.xlsx,instructions\2-BACK.png,"(25, 15)",practice,2,4,stim\gray.png,stim\gray.png,stim\gray.png,stim\yellow.png,right,0,0,0,0,0,2,2,2,0,9,9,9,,,,,,,,,,,,,,,,,,,,,,,,,,,289.60062969999854,290.6020591999986,289.60062969999854,290.6020591999986,289.60062969999854,290.6020591999986,289.60062969999854,290.6020591999986,None,0,,289.60062969999854,None,289.60062969999854,None,289.60062969999854,290.1011301999679,289.60062969999854,290.1011301999679,289.60062969999854,290.1011301999679,289.60062969999854,290.1011301999679,289.60062969999854,None,,,,,,,,,,,,,,,,,,,,,,,,,,,,,,,,,,,,,,,,,,11008,001,2024_Jan_01_1545,nback,2021.2.3,59.81426473744339,
2-back,instructions\back-2.png,conditions\2back-p.xlsx,instructions\2-BACK.png,"(25, 15)",practice,2,1,stim\yellow.png,stim\gray.png,stim\gray.png,stim\gray.png,right,0,0,0,0,0,2,2,2,0,10,10,10,,,,,,,,,,,,,,,,,,,,,,,,,,,291.1026821999694,292.1042280999827,291.1026821999694,292.1042280999827,291.1026821999694,292.1042280999827,291.1026821999694,292.1042280999827,None,0,,291.1026821999694,None,291.1026821999694,None,291.1026821999694,291.6044738999917,291.1026821999694,291.6044738999917,291.1026821999694,291.6044738999917,291.1026821999694,291.6044738999917,291.1026821999694,None,,,,,,,,,,,,,,,,,,,,,,,,,,,,,,,,,,,,,,,,,,11008,001,2024_Jan_01_1545,nback,2021.2.3,59.81426473744339,
2-back,instructions\back-2.png,conditions\2back-p.xlsx,instructions\2-BACK.png,"(25, 15)",practice,2,2,stim\gray.png,stim\yellow.png,stim\gray.png,stim\gray.png,down,0,0,0,0,0,2,2,2,0,11,11,11,,,,,,,,,,,,,,,,,,,,,,,,,,,292.6049934999901,293.6069726999849,292.6049934999901,293.6069726999849,292.6049934999901,293.6069726999849,292.6049934999901,293.6069726999849,None,0,,292.6049934999901,None,292.6049934999901,None,292.6049934999901,293.10602849995485,292.6049934999901,293.10602849995485,292.6049934999901,293.10602849995485,292.6049934999901,293.10602849995485,292.6049934999901,None,,,,,,,,,,,,,,,,,,,,,,,,,,,,,,,,,,,,,,,,,,11008,001,2024_Jan_01_1545,nback,2021.2.3,59.81426473744339,
2-back,instructions\back-2.png,conditions\2back-p.xlsx,instructions\2-BACK.png,"(25, 15)",practice,2,4,stim\gray.png,stim\gray.png,stim\gray.png,stim\yellow.png,up,0,0,0,0,0,2,2,2,0,12,12,12,,,,,,,,,,,,,,,,,,,,,,,,,,,294.1078582999762,295.1095770999673,294.1078582999762,295.1095770999673,294.1078582999762,295.1095770999673,294.1078582999762,295.1095770999673,None,0,,294.1078582999762,None,294.1078582999762,None,294.1078582999762,294.60850889998255,294.1078582999762,294.60850889998255,294.1078582999762,294.60850889998255,294.1078582999762,294.60850889998255,294.1078582999762,None,,,,,,,,,,,,,,,,,,,,,,,,,,,,,,,,,,,,,,,,,,11008,001,2024_Jan_01_1545,nback,2021.2.3,59.81426473744339,
2-back,instructions\back-2.png,conditions\2back-p.xlsx,instructions\2-BACK.png,"(25, 15)",practice,2,3,stim\gray.png,stim\gray.png,stim\yellow.png,stim\gray.png,left,0,0,0,0,0,2,2,2,0,13,13,13,,,,,,,,,,,,,,,,,,,,,,,,,,,295.6099805999547,296.6109407999902,295.6099805999547,296.6109407999902,295.6099805999547,296.6109407999902,295.6099805999547,296.6109407999902,None,0,,295.6099805999547,None,295.6099805999547,None,295.6099805999547,296.1102708999533,295.6099805999547,296.1102708999533,295.6099805999547,296.1102708999533,295.6099805999547,296.1102708999533,295.6099805999547,None,,,,,,,,,,,,,,,,,,,,,,,,,,,,,,,,,,,,,,,,,,11008,001,2024_Jan_01_1545,nback,2021.2.3,59.81426473744339,
2-back,instructions\back-2.png,conditions\2back-p.xlsx,instructions\2-BACK.png,"(25, 15)",practice,2,1,stim\yellow.png,stim\gray.png,stim\gray.png,stim\gray.png,down,0,0,0,0,0,2,2,2,0,14,14,14,,,,,,,,,,,,,,,,,,,,,,,,,,,297.09484330000123,298.0964530999772,297.09484330000123,298.0964530999772,297.09484330000123,298.0964530999772,297.09484330000123,298.0964530999772,None,0,,297.09484330000123,None,297.09484330000123,None,297.09484330000123,297.59564009995665,297.09484330000123,297.59564009995665,297.09484330000123,297.59564009995665,297.09484330000123,297.59564009995665,297.09484330000123,None,,,,,,,,,,,,,,,,,,,,,,,,,,,,,,,,,,,,,,,,,,11008,001,2024_Jan_01_1545,nback,2021.2.3,59.81426473744339,
2-back,instructions\back-2.png,conditions\2back-p.xlsx,instructions\2-BACK.png,"(25, 15)",practice,2,2,stim\gray.png,stim\yellow.png,stim\gray.png,stim\gray.png,right,0,0,0,0,0,2,2,2,0,15,15,15,,,,,,,,,,,,,,,,,,,,,,,,,,,298.59729959996184,299.59876349999104,298.59729959996184,299.59876349999104,298.59729959996184,299.59876349999104,298.59729959996184,299.59876349999104,None,0,,298.59729959996184,None,298.59729959996184,None,298.59729959996184,299.0977956999559,298.59729959996184,299.0977956999559,298.59729959996184,299.0977956999559,298.59729959996184,299.0977956999559,298.59729959996184,None,,,,,,,,,,,,,,,,,,,,,,,,,,,,,,,,,,,,,,,,,,11008,001,2024_Jan_01_1545,nback,2021.2.3,59.81426473744339,
2-back,instructions\back-2.png,conditions\2back-p.xlsx,instructions\2-BACK.png,"(25, 15)",practice,2,3,stim\gray.png,stim\gray.png,stim\yellow.png,stim\gray.png,up,0,0,0,0,0,2,2,2,0,16,16,16,,,,,,,,,,,,,,,,,,,,,,,,,,,300.0993345999741,301.1014359999681,300.0993345999741,301.1014359999681,300.0993345999741,301.1014359999681,300.0993345999741,301.1014359999681,None,0,,300.0993345999741,None,300.0993345999741,None,300.0993345999741,300.60139109997544,300.0993345999741,300.60139109997544,300.0993345999741,300.60139109997544,300.0993345999741,300.60139109997544,300.0993345999741,None,,,,,,,,,,,,,,,,,,,,,,,,,,,,,,,,,,,,,,,,,,11008,001,2024_Jan_01_1545,nback,2021.2.3,59.81426473744339,
2-back,instructions\back-2.png,conditions\2back-p.xlsx,instructions\2-BACK.png,"(25, 15)",practice,2,1,stim\yellow.png,stim\gray.png,stim\gray.png,stim\gray.png,left,0,0,0,0,0,2,2,2,0,17,17,17,,,,,,,,,,,,,,,,,,,,,,,,,,,301.60169689997565,302.60355329996673,301.60169689997565,302.60355329996673,301.60169689997565,302.60355329996673,301.60169689997565,302.60355329996673,None,0,,301.60169689997565,None,301.60169689997565,None,301.60169689997565,302.1032454999513,301.60169689997565,302.1032454999513,301.60169689997565,302.1032454999513,301.60169689997565,302.1032454999513,301.60169689997565,None,,,,,,,,,,,,,,,,,,,,,,,,,,,,,,,,,,,,,,,,,,11008,001,2024_Jan_01_1545,nback,2021.2.3,59.81426473744339,
2-back,instructions\back-2.png,conditions\2back-p.xlsx,instructions\2-BACK.png,"(25, 15)",practice,2,4,stim\gray.png,stim\gray.png,stim\gray.png,stim\yellow.png,right,0,0,0,0,0,2,2,2,0,18,18,18,,,,,,,,,,,,,,,,,,,,,,,,,,,303.1038705999963,304.1055665999884,303.1038705999963,304.1055665999884,303.1038705999963,304.1055665999884,303.1038705999963,304.1055665999884,None,0,,303.1038705999963,None,303.1038705999963,None,303.1038705999963,303.6047183999908,303.1038705999963,303.6047183999908,303.1038705999963,303.6047183999908,303.1038705999963,303.6047183999908,303.1038705999963,None,,,,,,,,,,,,,,,,,,,,,,,,,,,,,,,,,,,,,,,,,,11008,001,2024_Jan_01_1545,nback,2021.2.3,59.81426473744339,
2-back,instructions\back-2.png,conditions\2back-p.xlsx,instructions\2-BACK.png,"(25, 15)",practice,2,2,stim\gray.png,stim\yellow.png,stim\gray.png,stim\gray.png,up,0,0,0,0,0,2,2,2,0,19,19,19,,,,,,,,,,,,,,,,,,,,,,,,,,,304.60604220000096,305.6080632999656,304.60604220000096,305.6080632999656,304.60604220000096,305.6080632999656,304.60604220000096,305.6080632999656,None,0,,304.60604220000096,None,304.60604220000096,None,304.60604220000096,305.1069682999514,304.60604220000096,305.1069682999514,304.60604220000096,305.1069682999514,304.60604220000096,305.1069682999514,304.60604220000096,None,,,,,,,,,,,,,,,,,,,,,,,,,,,,,,,,,,,,,,,,,,11008,001,2024_Jan_01_1545,nback,2021.2.3,59.81426473744339,
2-back,instructions\back-2.png,conditions\2back-p.xlsx,instructions\2-BACK.png,"(25, 15)",,,,,,,,,0,0,0,0,0,2,2,2,,,,,,,,,,,,,,,,,,,,,,,,,,,,,,,,,,,,,,,,,,,,,,,,,,,,,,,,,,,,,,,,,,,,,,,,,,,,,,,,,,,,,,,,,,,,,,,,,11008,001,2024_Jan_01_1545,nback,2021.2.3,59.81426473744339,
,,,,,,,,,,,,,0,0,0,0,,,,,,,,,,,,,,,,,,,,,,,,,,,,,,,,,,,,,,,,,,,,,,,,,,,,,,,,,,,,306.1095470999717,None,s,1.9461163000087254,306.1095470999717,None,,,,,,,,,,,,,,,,,,,,,,,,,,,,,,,,,,,,11008,001,2024_Jan_01_1545,nback,2021.2.3,59.81426473744339,
0-back,instructions\back-0.png,conditions\0back-p.xlsx,instructions\0-BACK.png,"(15, 8)",practice,0,1,stim\yellow.png,stim\gray.png,stim\gray.png,stim\gray.png,up,1,0,1,0,0,0,0,0,0,0,0,0,,,,,,,,,,,,,,,,,308.19474079995416,None,space,3.0609128000214696,308.19474079995416,None,311.465956799977,315.97319839999545,315.90672769997036,None,316.30684829998063,317.3085939999437,316.30684829998063,317.3085939999437,316.30684829998063,317.3085939999437,316.30684829998063,317.3085939999437,up,1,0.41279889998259023,316.30684829998063,None,316.30684829998063,None,316.30684829998063,316.8081248999806,316.30684829998063,316.8081248999806,316.30684829998063,316.8081248999806,316.30684829998063,316.8081248999806,316.30684829998063,None,,,,,,,,,,,,,,,,,,,,,,,,,,,,,,,,,,,,,,,,,,11008,001,2024_Jan_01_1545,nback,2021.2.3,59.81426473744339,
0-back,instructions\back-0.png,conditions\0back-p.xlsx,instructions\0-BACK.png,"(15, 8)",practice,0,2,stim\gray.png,stim\yellow.png,stim\gray.png,stim\gray.png,left,1,0,1,0,0,0,0,0,0,1,1,1,,,,,,,,,,,,,,,,,,,,,,,,,,,317.79208479996305,318.79400840000017,317.79208479996305,318.79400840000017,317.79208479996305,318.79400840000017,317.79208479996305,318.79400840000017,left,1,0.3196499000187032,317.79208479996305,None,317.79208479996305,None,317.79208479996305,318.2930460999487,317.79208479996305,318.2930460999487,317.79208479996305,318.2930460999487,317.79208479996305,318.2930460999487,317.79208479996305,None,,,,,,,,,,,,,,,,,,,,,,,,,,,,,,,,,,,,,,,,,,11008,001,2024_Jan_01_1545,nback,2021.2.3,59.81426473744339,
0-back,instructions\back-0.png,conditions\0back-p.xlsx,instructions\0-BACK.png,"(15, 8)",practice,0,3,stim\gray.png,stim\gray.png,stim\yellow.png,stim\gray.png,right,1,0,1,0,0,0,0,0,0,2,2,2,,,,,,,,,,,,,,,,,,,,,,,,,,,319.2945515999454,320.29665049997857,319.2945515999454,320.29665049997857,319.2945515999454,320.29665049997857,319.2945515999454,320.29665049997857,right,1,0.2653934999834746,319.2945515999454,None,319.2945515999454,None,319.2945515999454,319.7956110999803,319.2945515999454,319.7956110999803,319.2945515999454,319.7956110999803,319.2945515999454,319.7956110999803,319.2945515999454,None,,,,,,,,,,,,,,,,,,,,,,,,,,,,,,,,,,,,,,,,,,11008,001,2024_Jan_01_1545,nback,2021.2.3,59.81426473744339,
0-back,instructions\back-0.png,conditions\0back-p.xlsx,instructions\0-BACK.png,"(15, 8)",practice,0,4,stim\gray.png,stim\gray.png,stim\gray.png,stim\yellow.png,down,1,0,1,0,0,0,0,0,0,3,3,3,,,,,,,,,,,,,,,,,,,,,,,,,,,320.7968516999972,321.7982956999913,320.7968516999972,321.7982956999913,320.7968516999972,321.7982956999913,320.7968516999972,321.7982956999913,down,1,0.29936039994936436,320.7968516999972,None,320.7968516999972,None,320.7968516999972,321.2986197999562,320.7968516999972,321.2986197999562,320.7968516999972,321.2986197999562,320.7968516999972,321.2986197999562,320.7968516999972,None,,,,,,,,,,,,,,,,,,,,,,,,,,,,,,,,,,,,,,,,,,11008,001,2024_Jan_01_1545,nback,2021.2.3,59.81426473744339,
0-back,instructions\back-0.png,conditions\0back-p.xlsx,instructions\0-BACK.png,"(15, 8)",practice,0,2,stim\gray.png,stim\yellow.png,stim\gray.png,stim\gray.png,left,1,0,1,0,0,0,0,0,0,4,4,4,,,,,,,,,,,,,,,,,,,,,,,,,,,322.299015699944,323.3003600999946,322.299015699944,323.3003600999946,322.299015699944,323.3003600999946,322.299015699944,323.3003600999946,left,1,0.3491169000044465,322.299015699944,None,322.299015699944,None,322.299015699944,322.7999610999832,322.299015699944,322.7999610999832,322.299015699944,322.7999610999832,322.299015699944,322.7999610999832,322.299015699944,None,,,,,,,,,,,,,,,,,,,,,,,,,,,,,,,,,,,,,,,,,,11008,001,2024_Jan_01_1545,nback,2021.2.3,59.81426473744339,
0-back,instructions\back-0.png,conditions\0back-p.xlsx,instructions\0-BACK.png,"(15, 8)",practice,0,1,stim\yellow.png,stim\gray.png,stim\gray.png,stim\gray.png,up,1,0,1,0,0,0,0,0,0,5,5,5,,,,,,,,,,,,,,,,,,,,,,,,,,,323.80125949997455,324.80273759999545,323.80125949997455,324.80273759999545,323.80125949997455,324.80273759999545,323.80125949997455,324.80273759999545,up,1,0.35845310002332553,323.80125949997455,None,323.80125949997455,None,323.80125949997455,324.3027433999814,323.80125949997455,324.3027433999814,323.80125949997455,324.3027433999814,323.80125949997455,324.3027433999814,323.80125949997455,None,,,,,,,,,,,,,,,,,,,,,,,,,,,,,,,,,,,,,,,,,,11008,001,2024_Jan_01_1545,nback,2021.2.3,59.81426473744339,
0-back,instructions\back-0.png,conditions\0back-p.xlsx,instructions\0-BACK.png,"(15, 8)",practice,0,4,stim\gray.png,stim\gray.png,stim\gray.png,stim\yellow.png,down,1,0,1,0,0,0,0,0,0,6,6,6,,,,,,,,,,,,,,,,,,,,,,,,,,,325.28679079998983,326.2882533999509,325.28679079998983,326.2882533999509,325.28679079998983,326.2882533999509,325.28679079998983,326.2882533999509,down,1,0.37690869998186827,325.28679079998983,None,325.28679079998983,None,325.28679079998983,325.788083499996,325.28679079998983,325.788083499996,325.28679079998983,325.788083499996,325.28679079998983,325.788083499996,325.28679079998983,None,,,,,,,,,,,,,,,,,,,,,,,,,,,,,,,,,,,,,,,,,,11008,001,2024_Jan_01_1545,nback,2021.2.3,59.81426473744339,
0-back,instructions\back-0.png,conditions\0back-p.xlsx,instructions\0-BACK.png,"(15, 8)",practice,0,3,stim\gray.png,stim\gray.png,stim\yellow.png,stim\gray.png,right,1,0,1,0,0,0,0,0,0,7,7,7,,,,,,,,,,,,,,,,,,,,,,,,,,,326.78876409999793,327.7910442999564,326.78876409999793,327.7910442999564,326.78876409999793,327.7910442999564,326.78876409999793,327.7910442999564,right,1,0.2270019999705255,326.78876409999793,None,326.78876409999793,None,326.78876409999793,327.29023699997924,326.78876409999793,327.29023699997924,326.78876409999793,327.29023699997924,326.78876409999793,327.29023699997924,326.78876409999793,None,,,,,,,,,,,,,,,,,,,,,,,,,,,,,,,,,,,,,,,,,,11008,001,2024_Jan_01_1545,nback,2021.2.3,59.81426473744339,
0-back,instructions\back-0.png,conditions\0back-p.xlsx,instructions\0-BACK.png,"(15, 8)",practice,0,3,stim\gray.png,stim\gray.png,stim\yellow.png,stim\gray.png,right,1,0,1,0,0,0,0,0,0,8,8,8,,,,,,,,,,,,,,,,,,,,,,,,,,,328.2912091999897,329.29347729997244,328.2912091999897,329.29347729997244,328.2912091999897,329.29347729997244,328.2912091999897,329.29347729997244,right,1,0.3646904999623075,328.2912091999897,None,328.2912091999897,None,328.2912091999897,328.7919837999507,328.2912091999897,328.7919837999507,328.2912091999897,328.7919837999507,328.2912091999897,328.7919837999507,328.2912091999897,None,,,,,,,,,,,,,,,,,,,,,,,,,,,,,,,,,,,,,,,,,,11008,001,2024_Jan_01_1545,nback,2021.2.3,59.81426473744339,
0-back,instructions\back-0.png,conditions\0back-p.xlsx,instructions\0-BACK.png,"(15, 8)",practice,0,4,stim\gray.png,stim\gray.png,stim\gray.png,stim\yellow.png,down,1,0,1,0,0,0,0,0,0,9,9,9,,,,,,,,,,,,,,,,,,,,,,,,,,,329.7934907999588,330.79575669998303,329.7934907999588,330.79575669998303,329.7934907999588,330.79575669998303,329.7934907999588,330.79575669998303,down,1,0.4701687000342645,329.7934907999588,None,329.7934907999588,None,329.7934907999588,330.2940719999606,329.7934907999588,330.2940719999606,329.7934907999588,330.2940719999606,329.7934907999588,330.2940719999606,329.7934907999588,None,,,,,,,,,,,,,,,,,,,,,,,,,,,,,,,,,,,,,,,,,,11008,001,2024_Jan_01_1545,nback,2021.2.3,59.81426473744339,
0-back,instructions\back-0.png,conditions\0back-p.xlsx,instructions\0-BACK.png,"(15, 8)",practice,0,1,stim\yellow.png,stim\gray.png,stim\gray.png,stim\gray.png,up,1,0,1,0,0,0,0,0,0,10,10,10,,,,,,,,,,,,,,,,,,,,,,,,,,,331.29618999996455,332.29735089995665,331.29618999996455,332.29735089995665,331.29618999996455,332.29735089995665,331.29618999996455,332.29735089995665,up,1,0.3354132999666035,331.29618999996455,None,331.29618999996455,None,331.29618999996455,331.7963010999956,331.29618999996455,331.7963010999956,331.29618999996455,331.7963010999956,331.29618999996455,331.7963010999956,331.29618999996455,None,,,,,,,,,,,,,,,,,,,,,,,,,,,,,,,,,,,,,,,,,,11008,001,2024_Jan_01_1545,nback,2021.2.3,59.81426473744339,
0-back,instructions\back-0.png,conditions\0back-p.xlsx,instructions\0-BACK.png,"(15, 8)",practice,0,2,stim\gray.png,stim\yellow.png,stim\gray.png,stim\gray.png,left,1,0,1,0,0,0,0,0,0,11,11,11,,,,,,,,,,,,,,,,,,,,,,,,,,,332.7979776999564,333.8000516999746,332.7979776999564,333.8000516999746,332.7979776999564,333.8000516999746,332.7979776999564,333.8000516999746,left,1,0.25799860002007335,332.7979776999564,None,332.7979776999564,None,332.7979776999564,333.2990234999452,332.7979776999564,333.2990234999452,332.7979776999564,333.2990234999452,332.7979776999564,333.2990234999452,332.7979776999564,None,,,,,,,,,,,,,,,,,,,,,,,,,,,,,,,,,,,,,,,,,,11008,001,2024_Jan_01_1545,nback,2021.2.3,59.81426473744339,
0-back,instructions\back-0.png,conditions\0back-p.xlsx,instructions\0-BACK.png,"(15, 8)",practice,0,4,stim\gray.png,stim\gray.png,stim\gray.png,stim\yellow.png,down,1,0,1,0,0,0,0,0,0,12,12,12,,,,,,,,,,,,,,,,,,,,,,,,,,,334.3001087999437,335.30157459998736,334.3001087999437,335.30157459998736,334.3001087999437,335.30157459998736,334.3001087999437,335.30157459998736,down,1,0.4364218999980949,334.3001087999437,None,334.3001087999437,None,334.3001087999437,334.8012109999545,334.3001087999437,334.8012109999545,334.3001087999437,334.8012109999545,334.3001087999437,334.8012109999545,334.3001087999437,None,,,,,,,,,,,,,,,,,,,,,,,,,,,,,,,,,,,,,,,,,,11008,001,2024_Jan_01_1545,nback,2021.2.3,59.81426473744339,
0-back,instructions\back-0.png,conditions\0back-p.xlsx,instructions\0-BACK.png,"(15, 8)",practice,0,3,stim\gray.png,stim\gray.png,stim\yellow.png,stim\gray.png,right,1,0,1,0,0,0,0,0,0,13,13,13,,,,,,,,,,,,,,,,,,,,,,,,,,,335.802431899996,336.8042396999663,335.802431899996,336.8042396999663,335.802431899996,336.8042396999663,335.802431899996,336.8042396999663,right,1,0.30932090000715107,335.802431899996,None,335.802431899996,None,335.802431899996,336.30379139998695,335.802431899996,336.30379139998695,335.802431899996,336.30379139998695,335.802431899996,336.30379139998695,335.802431899996,None,,,,,,,,,,,,,,,,,,,,,,,,,,,,,,,,,,,,,,,,,,11008,001,2024_Jan_01_1545,nback,2021.2.3,59.81426473744339,
0-back,instructions\back-0.png,conditions\0back-p.xlsx,instructions\0-BACK.png,"(15, 8)",practice,0,1,stim\yellow.png,stim\gray.png,stim\gray.png,stim\gray.png,up,1,0,1,0,0,0,0,0,0,14,14,14,,,,,,,,,,,,,,,,,,,,,,,,,,,337.2876761999796,338.2894323999644,337.2876761999796,338.2894323999644,337.2876761999796,338.2894323999644,337.2876761999796,338.2894323999644,up,1,0.3202191000455059,337.2876761999796,None,337.2876761999796,None,337.2876761999796,337.78986619994976,337.2876761999796,337.78986619994976,337.2876761999796,337.78986619994976,337.2876761999796,337.78986619994976,337.2876761999796,None,,,,,,,,,,,,,,,,,,,,,,,,,,,,,,,,,,,,,,,,,,11008,001,2024_Jan_01_1545,nback,2021.2.3,59.81426473744339,
0-back,instructions\back-0.png,conditions\0back-p.xlsx,instructions\0-BACK.png,"(15, 8)",practice,0,2,stim\gray.png,stim\yellow.png,stim\gray.png,stim\gray.png,left,1,0,1,0,0,0,0,0,0,15,15,15,,,,,,,,,,,,,,,,,,,,,,,,,,,338.79030239995336,339.7916140999878,338.79030239995336,339.7916140999878,338.79030239995336,339.7916140999878,338.79030239995336,339.7916140999878,left,1,0.3214027999783866,338.79030239995336,None,338.79030239995336,None,338.79030239995336,339.29070969996974,338.79030239995336,339.29070969996974,338.79030239995336,339.29070969996974,338.79030239995336,339.29070969996974,338.79030239995336,None,,,,,,,,,,,,,,,,,,,,,,,,,,,,,,,,,,,,,,,,,,11008,001,2024_Jan_01_1545,nback,2021.2.3,59.81426473744339,
0-back,instructions\back-0.png,conditions\0back-p.xlsx,instructions\0-BACK.png,"(15, 8)",practice,0,3,stim\gray.png,stim\gray.png,stim\yellow.png,stim\gray.png,right,1,0,1,0,0,0,0,0,0,16,16,16,,,,,,,,,,,,,,,,,,,,,,,,,,,340.29232539999066,341.29380899999524,340.29232539999066,341.29380899999524,340.29232539999066,341.29380899999524,340.29232539999066,341.29380899999524,right,1,0.33951919997343794,340.29232539999066,None,340.29232539999066,None,340.29232539999066,340.7932587999967,340.29232539999066,340.7932587999967,340.29232539999066,340.7932587999967,340.29232539999066,340.7932587999967,340.29232539999066,None,,,,,,,,,,,,,,,,,,,,,,,,,,,,,,,,,,,,,,,,,,11008,001,2024_Jan_01_1545,nback,2021.2.3,59.81426473744339,
0-back,instructions\back-0.png,conditions\0back-p.xlsx,instructions\0-BACK.png,"(15, 8)",practice,0,1,stim\yellow.png,stim\gray.png,stim\gray.png,stim\gray.png,up,1,0,1,0,0,0,0,0,0,17,17,17,,,,,,,,,,,,,,,,,,,,,,,,,,,341.79460269998526,342.79590329999337,341.79460269998526,342.79590329999337,341.79460269998526,342.79590329999337,341.79460269998526,342.79590329999337,up,1,0.30121819995110855,341.79460269998526,None,341.79460269998526,None,341.79460269998526,342.2988433999708,341.79460269998526,342.2988433999708,341.79460269998526,342.2988433999708,341.79460269998526,342.2988433999708,341.79460269998526,None,,,,,,,,,,,,,,,,,,,,,,,,,,,,,,,,,,,,,,,,,,11008,001,2024_Jan_01_1545,nback,2021.2.3,59.81426473744339,
0-back,instructions\back-0.png,conditions\0back-p.xlsx,instructions\0-BACK.png,"(15, 8)",practice,0,4,stim\gray.png,stim\gray.png,stim\gray.png,stim\yellow.png,down,1,0,1,0,0,0,0,0,0,18,18,18,,,,,,,,,,,,,,,,,,,,,,,,,,,343.29672819998814,344.29884219996165,343.29672819998814,344.29884219996165,343.29672819998814,344.29884219996165,343.29672819998814,344.29884219996165,down,1,0.44713370001409203,343.29672819998814,None,343.29672819998814,None,343.29672819998814,343.79752629995346,343.29672819998814,343.79752629995346,343.29672819998814,343.79752629995346,343.29672819998814,343.79752629995346,343.29672819998814,None,,,,,,,,,,,,,,,,,,,,,,,,,,,,,,,,,,,,,,,,,,11008,001,2024_Jan_01_1545,nback,2021.2.3,59.81426473744339,
0-back,instructions\back-0.png,conditions\0back-p.xlsx,instructions\0-BACK.png,"(15, 8)",practice,0,2,stim\gray.png,stim\yellow.png,stim\gray.png,stim\gray.png,left,1,0,1,0,0,0,0,0,0,19,19,19,,,,,,,,,,,,,,,,,,,,,,,,,,,344.7989253999549,345.8008968999493,344.7989253999549,345.8008968999493,344.7989253999549,345.8008968999493,344.7989253999549,345.8008968999493,left,1,0.2731093000038527,344.7989253999549,None,344.7989253999549,None,344.7989253999549,345.3002086999477,344.7989253999549,345.3002086999477,344.7989253999549,345.3002086999477,344.7989253999549,345.3002086999477,344.7989253999549,None,,,,,,,,,,,,,,,,,,,,,,,,,,,,,,,,,,,,,,,,,,11008,001,2024_Jan_01_1545,nback,2021.2.3,59.81426473744339,
0-back,instructions\back-0.png,conditions\0back-p.xlsx,instructions\0-BACK.png,"(15, 8)",,,,,,,,,1,0,1,0,0,0,0,0,,,,,,,,,,,,,,,,,,,,,,,,,,,,,,,,,,,,,,,,,,,,,,,,,,,,,,,,,,,,,,,,,,,,,,,,,,,,,,,,,,,,,,,,,,,,,,,,,11008,001,2024_Jan_01_1545,nback,2021.2.3,59.81426473744339,
1-back,instructions\back-1.png,conditions\1back-p.xlsx,instructions\1-BACK.png,"(25, 15)",practice,1,1,stim\yellow.png,stim\gray.png,stim\gray.png,stim\gray.png,None,1,0,1,0,0,1,1,1,0,0,0,0,,,,,,,,,,,,,,,,,346.4679780000006,None,space,2.2115850999834947,346.4679780000006,None,348.8209478999488,353.32833289995324,353.2952845999971,None,353.7293942999677,354.73044919996755,353.7293942999677,354.73044919996755,353.7293942999677,354.73044919996755,353.7293942999677,354.73044919996755,None,1,,353.7293942999677,None,353.7293942999677,None,353.7293942999677,354.229750999948,353.7293942999677,354.229750999948,353.7293942999677,354.229750999948,353.7293942999677,354.229750999948,353.7293942999677,None,,,,,,,,,,,,,,,,,,,,,,,,,,,,,,,,,,,,,,,,,,11008,001,2024_Jan_01_1545,nback,2021.2.3,59.81426473744339,
1-back,instructions\back-1.png,conditions\1back-p.xlsx,instructions\1-BACK.png,"(25, 15)",practice,1,2,stim\gray.png,stim\yellow.png,stim\gray.png,stim\gray.png,up,1,0,1,0,0,1,1,1,0,1,1,1,,,,,,,,,,,,,,,,,,,,,,,,,,,355.2150007999735,356.2164902999648,355.2150007999735,356.2164902999648,355.2150007999735,356.2164902999648,355.2150007999735,356.2164902999648,up,1,0.5367072999943048,355.2150007999735,None,355.2150007999735,None,355.2150007999735,355.71583619999,355.2150007999735,355.71583619999,355.2150007999735,355.71583619999,355.2150007999735,355.71583619999,355.2150007999735,None,,,,,,,,,,,,,,,,,,,,,,,,,,,,,,,,,,,,,,,,,,11008,001,2024_Jan_01_1545,nback,2021.2.3,59.81426473744339,
1-back,instructions\back-1.png,conditions\1back-p.xlsx,instructions\1-BACK.png,"(25, 15)",practice,1,3,stim\gray.png,stim\gray.png,stim\yellow.png,stim\gray.png,left,1,0,1,0,0,1,1,1,0,2,2,2,,,,,,,,,,,,,,,,,,,,,,,,,,,356.71687179995934,357.7185149999568,356.71687179995934,357.7185149999568,356.71687179995934,357.7185149999568,356.71687179995934,357.7185149999568,left,1,0.6269431000109762,356.71687179995934,None,356.71687179995934,None,356.71687179995934,357.2173797999858,356.71687179995934,357.2173797999858,356.71687179995934,357.2173797999858,356.71687179995934,357.2173797999858,356.71687179995934,None,,,,,,,,,,,,,,,,,,,,,,,,,,,,,,,,,,,,,,,,,,11008,001,2024_Jan_01_1545,nback,2021.2.3,59.81426473744339,
1-back,instructions\back-1.png,conditions\1back-p.xlsx,instructions\1-BACK.png,"(25, 15)",practice,1,4,stim\gray.png,stim\gray.png,stim\gray.png,stim\yellow.png,right,1,0,1,0,0,1,1,1,0,3,3,3,,,,,,,,,,,,,,,,,,,,,,,,,,,358.2190070999786,359.22073489998,358.2190070999786,359.22073489998,358.2190070999786,359.22073489998,358.2190070999786,359.22073489998,right,1,0.45292310003424063,358.2190070999786,None,358.2190070999786,None,358.2190070999786,358.7194761999999,358.2190070999786,358.7194761999999,358.2190070999786,358.7194761999999,358.2190070999786,358.7194761999999,358.2190070999786,None,,,,,,,,,,,,,,,,,,,,,,,,,,,,,,,,,,,,,,,,,,11008,001,2024_Jan_01_1545,nback,2021.2.3,59.81426473744339,
1-back,instructions\back-1.png,conditions\1back-p.xlsx,instructions\1-BACK.png,"(25, 15)",practice,1,2,stim\gray.png,stim\yellow.png,stim\gray.png,stim\gray.png,down,1,0,1,0,0,1,1,1,0,4,4,4,,,,,,,,,,,,,,,,,,,,,,,,,,,359.7210433,360.72256549994927,359.7210433,360.72256549994927,359.7210433,360.72256549994927,359.7210433,360.72256549994927,down,1,0.48666230001254007,359.7210433,None,359.7210433,None,359.7210433,360.22174329997506,359.7210433,360.22174329997506,359.7210433,360.22174329997506,359.7210433,360.22174329997506,359.7210433,None,,,,,,,,,,,,,,,,,,,,,,,,,,,,,,,,,,,,,,,,,,11008,001,2024_Jan_01_1545,nback,2021.2.3,59.81426473744339,
1-back,instructions\back-1.png,conditions\1back-p.xlsx,instructions\1-BACK.png,"(25, 15)",practice,1,1,stim\yellow.png,stim\gray.png,stim\gray.png,stim\gray.png,left,1,0,1,0,0,1,1,1,0,5,5,5,,,,,,,,,,,,,,,,,,,,,,,,,,,361.2233712999732,362.2254256999586,361.2233712999732,362.2254256999586,361.2233712999732,362.2254256999586,361.2233712999732,362.2254256999586,left,1,0.36029829998733476,361.2233712999732,None,361.2233712999732,None,361.2233712999732,361.724025399948,361.2233712999732,361.724025399948,361.2233712999732,361.724025399948,361.2233712999732,361.724025399948,361.2233712999732,None,,,,,,,,,,,,,,,,,,,,,,,,,,,,,,,,,,,,,,,,,,11008,001,2024_Jan_01_1545,nback,2021.2.3,59.81426473744339,
1-back,instructions\back-1.png,conditions\1back-p.xlsx,instructions\1-BACK.png,"(25, 15)",practice,1,4,stim\gray.png,stim\gray.png,stim\gray.png,stim\yellow.png,up,1,0,1,0,0,1,1,1,0,6,6,6,,,,,,,,,,,,,,,,,,,,,,,,,,,362.7253218999831,363.72706969996216,362.7253218999831,363.72706969996216,362.7253218999831,363.72706969996216,362.7253218999831,363.72706969996216,up,1,0.34645050001563504,362.7253218999831,None,362.7253218999831,None,362.7253218999831,363.22638899995945,362.7253218999831,363.22638899995945,362.7253218999831,363.22638899995945,362.7253218999831,363.22638899995945,362.7253218999831,None,,,,,,,,,,,,,,,,,,,,,,,,,,,,,,,,,,,,,,,,,,11008,001,2024_Jan_01_1545,nback,2021.2.3,59.81426473744339,
1-back,instructions\back-1.png,conditions\1back-p.xlsx,instructions\1-BACK.png,"(25, 15)",practice,1,3,stim\gray.png,stim\gray.png,stim\yellow.png,stim\gray.png,down,1,0,1,0,0,1,1,1,0,7,7,7,,,,,,,,,,,,,,,,,,,,,,,,,,,364.21105089999037,365.2126276999479,364.21105089999037,365.2126276999479,364.21105089999037,365.2126276999479,364.21105089999037,365.2126276999479,down,1,0.34060509997652844,364.21105089999037,None,364.21105089999037,None,364.21105089999037,364.71194999996806,364.21105089999037,364.71194999996806,364.21105089999037,364.71194999996806,364.21105089999037,364.71194999996806,364.21105089999037,None,,,,,,,,,,,,,,,,,,,,,,,,,,,,,,,,,,,,,,,,,,11008,001,2024_Jan_01_1545,nback,2021.2.3,59.81426473744339,
1-back,instructions\back-1.png,conditions\1back-p.xlsx,instructions\1-BACK.png,"(25, 15)",practice,1,3,stim\gray.png,stim\gray.png,stim\yellow.png,stim\gray.png,right,1,0,1,0,0,1,1,1,0,8,8,8,,,,,,,,,,,,,,,,,,,,,,,,,,,365.7132134999847,366.7153782999958,365.7132134999847,366.7153782999958,365.7132134999847,366.7153782999958,365.7132134999847,366.7153782999958,right,1,0.31068360002245754,365.7132134999847,None,365.7132134999847,None,365.7132134999847,366.2138913999661,365.7132134999847,366.2138913999661,365.7132134999847,366.2138913999661,365.7132134999847,366.2138913999661,365.7132134999847,None,,,,,,,,,,,,,,,,,,,,,,,,,,,,,,,,,,,,,,,,,,11008,001,2024_Jan_01_1545,nback,2021.2.3,59.81426473744339,
1-back,instructions\back-1.png,conditions\1back-p.xlsx,instructions\1-BACK.png,"(25, 15)",practice,1,4,stim\gray.png,stim\gray.png,stim\gray.png,stim\yellow.png,right,1,0,1,0,0,1,1,1,0,9,9,9,,,,,,,,,,,,,,,,,,,,,,,,,,,367.2156348999706,368.21714109997265,367.2156348999706,368.21714109997265,367.2156348999706,368.21714109997265,367.2156348999706,368.21714109997265,right,1,0.3841484999866225,367.2156348999706,None,367.2156348999706,None,367.2156348999706,367.7162314999732,367.2156348999706,367.7162314999732,367.2156348999706,367.7162314999732,367.2156348999706,367.7162314999732,367.2156348999706,None,,,,,,,,,,,,,,,,,,,,,,,,,,,,,,,,,,,,,,,,,,11008,001,2024_Jan_01_1545,nback,2021.2.3,59.81426473744339,
1-back,instructions\back-1.png,conditions\1back-p.xlsx,instructions\1-BACK.png,"(25, 15)",practice,1,1,stim\yellow.png,stim\gray.png,stim\gray.png,stim\gray.png,down,1,0,1,0,0,1,1,1,0,10,10,10,,,,,,,,,,,,,,,,,,,,,,,,,,,368.71782079996774,369.719493099954,368.71782079996774,369.719493099954,368.71782079996774,369.719493099954,368.71782079996774,369.719493099954,down,1,0.5058262000093237,368.71782079996774,None,368.71782079996774,None,368.71782079996774,369.21974569995655,368.71782079996774,369.21974569995655,368.71782079996774,369.21974569995655,368.71782079996774,369.21974569995655,368.71782079996774,None,,,,,,,,,,,,,,,,,,,,,,,,,,,,,,,,,,,,,,,,,,11008,001,2024_Jan_01_1545,nback,2021.2.3,59.81426473744339,
1-back,instructions\back-1.png,conditions\1back-p.xlsx,instructions\1-BACK.png,"(25, 15)",practice,1,2,stim\gray.png,stim\yellow.png,stim\gray.png,stim\gray.png,up,1,0,1,0,0,1,1,1,0,11,11,11,,,,,,,,,,,,,,,,,,,,,,,,,,,370.2199718999909,371.22281059995294,370.2199718999909,371.22281059995294,370.2199718999909,371.22281059995294,370.2199718999909,371.22281059995294,up,1,0.4839104000129737,370.2199718999909,None,370.2199718999909,None,370.2199718999909,370.72124789998634,370.2199718999909,370.72124789998634,370.2199718999909,370.72124789998634,370.2199718999909,370.72124789998634,370.2199718999909,None,,,,,,,,,,,,,,,,,,,,,,,,,,,,,,,,,,,,,,,,,,11008,001,2024_Jan_01_1545,nback,2021.2.3,59.81426473744339,
1-back,instructions\back-1.png,conditions\1back-p.xlsx,instructions\1-BACK.png,"(25, 15)",practice,1,4,stim\gray.png,stim\gray.png,stim\gray.png,stim\yellow.png,left,1,0,1,0,0,1,1,1,0,12,12,12,,,,,,,,,,,,,,,,,,,,,,,,,,,371.72203849995276,372.72428869997384,371.72203849995276,372.72428869997384,371.72203849995276,372.72428869997384,371.72203849995276,372.72428869997384,left,1,0.41377580002881587,371.72203849995276,None,371.72203849995276,None,371.72203849995276,372.22375799994916,371.72203849995276,372.22375799994916,371.72203849995276,372.22375799994916,371.72203849995276,372.22375799994916,371.72203849995276,None,,,,,,,,,,,,,,,,,,,,,,,,,,,,,,,,,,,,,,,,,,11008,001,2024_Jan_01_1545,nback,2021.2.3,59.81426473744339,
1-back,instructions\back-1.png,conditions\1back-p.xlsx,instructions\1-BACK.png,"(25, 15)",practice,1,3,stim\gray.png,stim\gray.png,stim\yellow.png,stim\gray.png,down,1,0,1,0,0,1,1,1,0,13,13,13,,,,,,,,,,,,,,,,,,,,,,,,,,,373.2244356999872,374.226531399996,373.2244356999872,374.226531399996,373.2244356999872,374.226531399996,373.2244356999872,374.226531399996,down,1,0.38376090000383556,373.2244356999872,None,373.2244356999872,None,373.2244356999872,373.72511269996176,373.2244356999872,373.72511269996176,373.2244356999872,373.72511269996176,373.2244356999872,373.72511269996176,373.2244356999872,None,,,,,,,,,,,,,,,,,,,,,,,,,,,,,,,,,,,,,,,,,,11008,001,2024_Jan_01_1545,nback,2021.2.3,59.81426473744339,
1-back,instructions\back-1.png,conditions\1back-p.xlsx,instructions\1-BACK.png,"(25, 15)",practice,1,1,stim\yellow.png,stim\gray.png,stim\gray.png,stim\gray.png,right,1,0,1,0,0,1,1,1,0,14,14,14,,,,,,,,,,,,,,,,,,,,,,,,,,,374.7099772999645,375.7120937999571,374.7099772999645,375.7120937999571,374.7099772999645,375.7120937999571,374.7099772999645,375.7120937999571,right,1,0.33812039997428656,374.7099772999645,None,374.7099772999645,None,374.7099772999645,375.21120069996687,374.7099772999645,375.21120069996687,374.7099772999645,375.21120069996687,374.7099772999645,375.21120069996687,374.7099772999645,None,,,,,,,,,,,,,,,,,,,,,,,,,,,,,,,,,,,,,,,,,,11008,001,2024_Jan_01_1545,nback,2021.2.3,59.81426473744339,
1-back,instructions\back-1.png,conditions\1back-p.xlsx,instructions\1-BACK.png,"(25, 15)",practice,1,2,stim\gray.png,stim\yellow.png,stim\gray.png,stim\gray.png,up,1,0,1,0,0,1,1,1,0,15,15,15,,,,,,,,,,,,,,,,,,,,,,,,,,,376.21225119999144,377.21461569995154,376.21225119999144,377.21461569995154,376.21225119999144,377.21461569995154,376.21225119999144,377.21461569995154,up,1,0.3475859999889508,376.21225119999144,None,376.21225119999144,None,376.21225119999144,376.71344500000123,376.21225119999144,376.71344500000123,376.21225119999144,376.71344500000123,376.21225119999144,376.71344500000123,376.21225119999144,None,,,,,,,,,,,,,,,,,,,,,,,,,,,,,,,,,,,,,,,,,,11008,001,2024_Jan_01_1545,nback,2021.2.3,59.81426473744339,
1-back,instructions\back-1.png,conditions\1back-p.xlsx,instructions\1-BACK.png,"(25, 15)",practice,1,3,stim\gray.png,stim\gray.png,stim\yellow.png,stim\gray.png,left,1,0,1,0,0,1,1,1,0,16,16,16,,,,,,,,,,,,,,,,,,,,,,,,,,,377.7150392999756,378.71581279998645,377.7150392999756,378.71581279998645,377.7150392999756,378.71581279998645,377.7150392999756,378.71581279998645,left,1,0.35713489999761805,377.7150392999756,None,377.7150392999756,None,377.7150392999756,378.2159559999709,377.7150392999756,378.2159559999709,377.7150392999756,378.2159559999709,377.7150392999756,378.2159559999709,377.7150392999756,None,,,,,,,,,,,,,,,,,,,,,,,,,,,,,,,,,,,,,,,,,,11008,001,2024_Jan_01_1545,nback,2021.2.3,59.81426473744339,
1-back,instructions\back-1.png,conditions\1back-p.xlsx,instructions\1-BACK.png,"(25, 15)",practice,1,1,stim\yellow.png,stim\gray.png,stim\gray.png,stim\gray.png,right,1,0,1,0,0,1,1,1,0,17,17,17,,,,,,,,,,,,,,,,,,,,,,,,,,,379.2166568999528,380.21844089997467,379.2166568999528,380.21844089997467,379.2166568999528,380.21844089997467,379.2166568999528,380.21844089997467,right,1,0.3514472999959253,379.2166568999528,None,379.2166568999528,None,379.2166568999528,379.71742489997996,379.2166568999528,379.71742489997996,379.2166568999528,379.71742489997996,379.2166568999528,379.71742489997996,379.2166568999528,None,,,,,,,,,,,,,,,,,,,,,,,,,,,,,,,,,,,,,,,,,,11008,001,2024_Jan_01_1545,nback,2021.2.3,59.81426473744339,
1-back,instructions\back-1.png,conditions\1back-p.xlsx,instructions\1-BACK.png,"(25, 15)",practice,1,4,stim\gray.png,stim\gray.png,stim\gray.png,stim\yellow.png,up,1,0,1,0,0,1,1,1,0,18,18,18,,,,,,,,,,,,,,,,,,,,,,,,,,,380.7188368999632,381.72062249999726,380.7188368999632,381.72062249999726,380.7188368999632,381.72062249999726,380.7188368999632,381.72062249999726,up,1,0.3529606000520289,380.7188368999632,None,380.7188368999632,None,380.7188368999632,381.21991359995445,380.7188368999632,381.21991359995445,380.7188368999632,381.21991359995445,380.7188368999632,381.21991359995445,380.7188368999632,None,,,,,,,,,,,,,,,,,,,,,,,,,,,,,,,,,,,,,,,,,,11008,001,2024_Jan_01_1545,nback,2021.2.3,59.81426473744339,
1-back,instructions\back-1.png,conditions\1back-p.xlsx,instructions\1-BACK.png,"(25, 15)",practice,1,2,stim\gray.png,stim\yellow.png,stim\gray.png,stim\gray.png,down,1,0,1,0,0,1,1,1,0,19,19,19,,,,,,,,,,,,,,,,,,,,,,,,,,,382.22120459994767,383.22310599999037,382.22120459994767,383.22310599999037,382.22120459994767,383.22310599999037,382.22120459994767,383.22310599999037,down,1,0.33134719997178763,382.22120459994767,None,382.22120459994767,None,382.22120459994767,382.7219539999496,382.22120459994767,382.7219539999496,382.22120459994767,382.7219539999496,382.22120459994767,382.7219539999496,382.22120459994767,None,,,,,,,,,,,,,,,,,,,,,,,,,,,,,,,,,,,,,,,,,,11008,001,2024_Jan_01_1545,nback,2021.2.3,59.81426473744339,
1-back,instructions\back-1.png,conditions\1back-p.xlsx,instructions\1-BACK.png,"(25, 15)",,,,,,,,,1,0,1,0,0,1,1,1,,,,,,,,,,,,,,,,,,,,,,,,,,,,,,,,,,,,,,,,,,,,,,,,,,,,,,,,,,,,,,,,,,,,,,,,,,,,,,,,,,,,,,,,,,,,,,,,,11008,001,2024_Jan_01_1545,nback,2021.2.3,59.81426473744339,
2-back,instructions\back-2.png,conditions\2back-p.xlsx,instructions\2-BACK.png,"(25, 15)",practice,2,1,stim\yellow.png,stim\gray.png,stim\gray.png,stim\gray.png,None,1,0,1,0,0,2,2,2,0,0,0,0,,,,,,,,,,,,,,,,,383.8744387999759,None,space,2.085635600029491,383.8744387999759,None,386.0934531999519,390.60108189994935,390.55084679997526,None,391.0014322999632,392.0026174999657,391.0014322999632,392.0026174999657,391.0014322999632,392.0026174999657,391.0014322999632,392.0026174999657,None,1,,391.0014322999632,None,391.0014322999632,None,391.0014322999632,391.5019104999956,391.0014322999632,391.5019104999956,391.0014322999632,391.5019104999956,391.0014322999632,391.5019104999956,391.0014322999632,None,,,,,,,,,,,,,,,,,,,,,,,,,,,,,,,,,,,,,,,,,,11008,001,2024_Jan_01_1545,nback,2021.2.3,59.81426473744339,
2-back,instructions\back-2.png,conditions\2back-p.xlsx,instructions\2-BACK.png,"(25, 15)",practice,2,2,stim\gray.png,stim\yellow.png,stim\gray.png,stim\gray.png,None,1,0,1,0,0,2,2,2,0,1,1,1,,,,,,,,,,,,,,,,,,,,,,,,,,,392.48629819997586,393.48865449998993,392.48629819997586,393.48865449998993,392.48629819997586,393.48865449998993,392.48629819997586,393.48865449998993,None,1,,392.48629819997586,None,392.48629819997586,None,392.48629819997586,392.98812969995197,392.48629819997586,392.98812969995197,392.48629819997586,392.98812969995197,392.48629819997586,392.98812969995197,392.48629819997586,None,,,,,,,,,,,,,,,,,,,,,,,,,,,,,,,,,,,,,,,,,,11008,001,2024_Jan_01_1545,nback,2021.2.3,59.81426473744339,
2-back,instructions\back-2.png,conditions\2back-p.xlsx,instructions\2-BACK.png,"(25, 15)",practice,2,3,stim\gray.png,stim\gray.png,stim\yellow.png,stim\gray.png,up,1,0,1,0,0,2,2,2,0,2,2,2,,,,,,,,,,,,,,,,,,,,,,,,,,,393.98877089994494,394.9900997999939,393.98877089994494,394.9900997999939,393.98877089994494,394.9900997999939,393.98877089994494,394.9900997999939,up,1,0.651805899979081,393.98877089994494,None,393.98877089994494,None,393.98877089994494,394.48952579998877,393.98877089994494,394.48952579998877,393.98877089994494,394.48952579998877,393.98877089994494,394.48952579998877,393.98877089994494,None,,,,,,,,,,,,,,,,,,,,,,,,,,,,,,,,,,,,,,,,,,11008,001,2024_Jan_01_1545,nback,2021.2.3,59.81426473744339,
2-back,instructions\back-2.png,conditions\2back-p.xlsx,instructions\2-BACK.png,"(25, 15)",practice,2,4,stim\gray.png,stim\gray.png,stim\gray.png,stim\yellow.png,left,1,0,1,0,0,2,2,2,0,3,3,3,,,,,,,,,,,,,,,,,,,,,,,,,,,395.4907626999775,396.4932720999932,395.4907626999775,396.4932720999932,395.4907626999775,396.4932720999932,395.4907626999775,396.4932720999932,None,0,,395.4907626999775,None,395.4907626999775,None,395.4907626999775,395.9919711999828,395.4907626999775,395.9919711999828,395.4907626999775,395.9919711999828,395.4907626999775,395.9919711999828,395.4907626999775,None,,,,,,,,,,,,,,,,,,,,,,,,,,,,,,,,,,,,,,,,,,11008,001,2024_Jan_01_1545,nback,2021.2.3,59.81426473744339,
2-back,instructions\back-2.png,conditions\2back-p.xlsx,instructions\2-BACK.png,"(25, 15)",practice,2,2,stim\gray.png,stim\yellow.png,stim\gray.png,stim\gray.png,right,1,0,1,0,0,2,2,2,0,4,4,4,,,,,,,,,,,,,,,,,,,,,,,,,,,396.9930332999793,397.9952923999517,396.9930332999793,397.9952923999517,396.9930332999793,397.9952923999517,396.9930332999793,397.9952923999517,right,1,0.4152800999581814,396.9930332999793,None,396.9930332999793,None,396.9930332999793,397.4940422999789,396.9930332999793,397.4940422999789,396.9930332999793,397.4940422999789,396.9930332999793,397.4940422999789,396.9930332999793,None,,,,,,,,,,,,,,,,,,,,,,,,,,,,,,,,,,,,,,,,,,11008,001,2024_Jan_01_1545,nback,2021.2.3,59.81426473744339,
2-back,instructions\back-2.png,conditions\2back-p.xlsx,instructions\2-BACK.png,"(25, 15)",practice,2,1,stim\yellow.png,stim\gray.png,stim\gray.png,stim\gray.png,down,1,0,1,0,0,2,2,2,0,5,5,5,,,,,,,,,,,,,,,,,,,,,,,,,,,398.49507189996075,399.496727699996,398.49507189996075,399.496727699996,398.49507189996075,399.496727699996,398.49507189996075,399.496727699996,None,0,,398.49507189996075,None,398.49507189996075,None,398.49507189996075,398.9971800999483,398.49507189996075,398.9971800999483,398.49507189996075,398.9971800999483,398.49507189996075,398.9971800999483,398.49507189996075,None,,,,,,,,,,,,,,,,,,,,,,,,,,,,,,,,,,,,,,,,,,11008,001,2024_Jan_01_1545,nback,2021.2.3,59.81426473744339,
2-back,instructions\back-2.png,conditions\2back-p.xlsx,instructions\2-BACK.png,"(25, 15)",practice,2,4,stim\gray.png,stim\gray.png,stim\gray.png,stim\yellow.png,left,1,0,1,0,0,2,2,2,0,6,6,6,,,,,,,,,,,,,,,,,,,,,,,,,,,399.98070739995455,400.98318270000163,399.98070739995455,400.98318270000163,399.98070739995455,400.98318270000163,399.98070739995455,400.98318270000163,left,1,0.427032700041309,399.98070739995455,None,399.98070739995455,None,399.98070739995455,400.4821198999998,399.98070739995455,400.4821198999998,399.98070739995455,400.4821198999998,399.98070739995455,400.4821198999998,399.98070739995455,None,,,,,,,,,,,,,,,,,,,,,,,,,,,,,,,,,,,,,,,,,,11008,001,2024_Jan_01_1545,nback,2021.2.3,59.81426473744339,
2-back,instructions\back-2.png,conditions\2back-p.xlsx,instructions\2-BACK.png,"(25, 15)",practice,2,3,stim\gray.png,stim\gray.png,stim\yellow.png,stim\gray.png,up,1,0,1,0,0,2,2,2,0,7,7,7,,,,,,,,,,,,,,,,,,,,,,,,,,,401.48286910000024,402.48514069995144,401.48286910000024,402.48514069995144,401.48286910000024,402.48514069995144,401.48286910000024,402.48514069995144,None,0,,401.48286910000024,None,401.48286910000024,None,401.48286910000024,401.9840106999618,401.48286910000024,401.9840106999618,401.48286910000024,401.9840106999618,401.48286910000024,401.9840106999618,401.48286910000024,None,,,,,,,,,,,,,,,,,,,,,,,,,,,,,,,,,,,,,,,,,,11008,001,2024_Jan_01_1545,nback,2021.2.3,59.81426473744339,
2-back,instructions\back-2.png,conditions\2back-p.xlsx,instructions\2-BACK.png,"(25, 15)",practice,2,3,stim\gray.png,stim\gray.png,stim\yellow.png,stim\gray.png,down,1,0,1,0,0,2,2,2,0,8,8,8,,,,,,,,,,,,,,,,,,,,,,,,,,,402.98542059998726,403.9865705999546,402.98542059998726,403.9865705999546,402.98542059998726,403.9865705999546,402.98542059998726,403.9865705999546,down,1,0.6543593999813311,402.98542059998726,None,402.98542059998726,None,402.98542059998726,403.48622809996596,402.98542059998726,403.48622809996596,402.98542059998726,403.48622809996596,402.98542059998726,403.48622809996596,402.98542059998726,None,,,,,,,,,,,,,,,,,,,,,,,,,,,,,,,,,,,,,,,,,,11008,001,2024_Jan_01_1545,nback,2021.2.3,59.81426473744339,
2-back,instructions\back-2.png,conditions\2back-p.xlsx,instructions\2-BACK.png,"(25, 15)",practice,2,4,stim\gray.png,stim\gray.png,stim\gray.png,stim\yellow.png,right,1,0,1,0,0,2,2,2,0,9,9,9,,,,,,,,,,,,,,,,,,,,,,,,,,,404.4880033999798,405.48875479999697,404.4880033999798,405.48875479999697,404.4880033999798,405.48875479999697,404.4880033999798,405.48875479999697,None,0,,404.4880033999798,None,404.4880033999798,None,404.4880033999798,404.9884786999901,404.4880033999798,404.9884786999901,404.4880033999798,404.9884786999901,404.4880033999798,404.9884786999901,404.4880033999798,None,,,,,,,,,,,,,,,,,,,,,,,,,,,,,,,,,,,,,,,,,,11008,001,2024_Jan_01_1545,nback,2021.2.3,59.81426473744339,
2-back,instructions\back-2.png,conditions\2back-p.xlsx,instructions\2-BACK.png,"(25, 15)",practice,2,1,stim\yellow.png,stim\gray.png,stim\gray.png,stim\gray.png,right,1,0,1,0,0,2,2,2,0,10,10,10,,,,,,,,,,,,,,,,,,,,,,,,,,,405.9897109999438,406.9931931999745,405.9897109999438,406.9931931999745,405.9897109999438,406.9931931999745,405.9897109999438,406.9931931999745,up,0,0.6421508999774233,405.9897109999438,None,405.9897109999438,None,405.9897109999438,406.49039339995943,405.9897109999438,406.49039339995943,405.9897109999438,406.49039339995943,405.9897109999438,406.49039339995943,405.9897109999438,None,,,,,,,,,,,,,,,,,,,,,,,,,,,,,,,,,,,,,,,,,,11008,001,2024_Jan_01_1545,nback,2021.2.3,59.81426473744339,
2-back,instructions\back-2.png,conditions\2back-p.xlsx,instructions\2-BACK.png,"(25, 15)",practice,2,2,stim\gray.png,stim\yellow.png,stim\gray.png,stim\gray.png,down,1,0,1,0,0,2,2,2,0,11,11,11,,,,,,,,,,,,,,,,,,,,,,,,,,,407.49183269997593,408.4936487999512,407.49183269997593,408.4936487999512,407.49183269997593,408.4936487999512,407.49183269997593,408.4936487999512,None,0,,407.49183269997593,None,407.49183269997593,None,407.49183269997593,407.9926845000009,407.49183269997593,407.9926845000009,407.49183269997593,407.9926845000009,407.49183269997593,407.9926845000009,407.49183269997593,None,,,,,,,,,,,,,,,,,,,,,,,,,,,,,,,,,,,,,,,,,,11008,001,2024_Jan_01_1545,nback,2021.2.3,59.81426473744339,
2-back,instructions\back-2.png,conditions\2back-p.xlsx,instructions\2-BACK.png,"(25, 15)",practice,2,4,stim\gray.png,stim\gray.png,stim\gray.png,stim\yellow.png,up,1,0,1,0,0,2,2,2,0,12,12,12,,,,,,,,,,,,,,,,,,,,,,,,,,,408.9940753999981,409.99630939995404,408.9940753999981,409.99630939995404,408.9940753999981,409.99630939995404,408.9940753999981,409.99630939995404,left,0,0.42967899999348447,408.9940753999981,None,408.9940753999981,None,408.9940753999981,409.4956150999642,408.9940753999981,409.4956150999642,408.9940753999981,409.4956150999642,408.9940753999981,409.4956150999642,408.9940753999981,None,,,,,,,,,,,,,,,,,,,,,,,,,,,,,,,,,,,,,,,,,,11008,001,2024_Jan_01_1545,nback,2021.2.3,59.81426473744339,
2-back,instructions\back-2.png,conditions\2back-p.xlsx,instructions\2-BACK.png,"(25, 15)",practice,2,3,stim\gray.png,stim\gray.png,stim\yellow.png,stim\gray.png,left,1,0,1,0,0,2,2,2,0,13,13,13,,,,,,,,,,,,,,,,,,,,,,,,,,,410.4965378999477,411.49842009996064,410.4965378999477,411.49842009996064,410.4965378999477,411.49842009996064,410.4965378999477,411.49842009996064,None,0,,410.4965378999477,None,410.4965378999477,None,410.4965378999477,410.9994155999739,410.4965378999477,410.9994155999739,410.4965378999477,410.9994155999739,410.4965378999477,410.9994155999739,410.4965378999477,None,,,,,,,,,,,,,,,,,,,,,,,,,,,,,,,,,,,,,,,,,,11008,001,2024_Jan_01_1545,nback,2021.2.3,59.81426473744339,
2-back,instructions\back-2.png,conditions\2back-p.xlsx,instructions\2-BACK.png,"(25, 15)",practice,2,1,stim\yellow.png,stim\gray.png,stim\gray.png,stim\gray.png,down,1,0,1,0,0,2,2,2,0,14,14,14,,,,,,,,,,,,,,,,,,,,,,,,,,,411.9818815999897,412.98357459995896,411.9818815999897,412.98357459995896,411.9818815999897,412.98357459995896,411.9818815999897,412.98357459995896,right,0,0.16212430002633482,411.9818815999897,None,411.9818815999897,None,411.9818815999897,412.48376069997903,411.9818815999897,412.48376069997903,411.9818815999897,412.48376069997903,411.9818815999897,412.48376069997903,411.9818815999897,None,,,,,,,,,,,,,,,,,,,,,,,,,,,,,,,,,,,,,,,,,,11008,001,2024_Jan_01_1545,nback,2021.2.3,59.81426473744339,
2-back,instructions\back-2.png,conditions\2back-p.xlsx,instructions\2-BACK.png,"(25, 15)",practice,2,2,stim\gray.png,stim\yellow.png,stim\gray.png,stim\gray.png,right,1,0,1,0,0,2,2,2,0,15,15,15,,,,,,,,,,,,,,,,,,,,,,,,,,,413.48419379995903,414.4855958999833,413.48419379995903,414.4855958999833,413.48419379995903,414.4855958999833,413.48419379995903,414.4855958999833,left,0,0.5477527999901213,413.48419379995903,None,413.48419379995903,None,413.48419379995903,413.9851071999874,413.48419379995903,413.9851071999874,413.48419379995903,413.9851071999874,413.48419379995903,413.9851071999874,413.48419379995903,None,,,,,,,,,,,,,,,,,,,,,,,,,,,,,,,,,,,,,,,,,,11008,001,2024_Jan_01_1545,nback,2021.2.3,59.81426473744339,
2-back,instructions\back-2.png,conditions\2back-p.xlsx,instructions\2-BACK.png,"(25, 15)",practice,2,3,stim\gray.png,stim\gray.png,stim\yellow.png,stim\gray.png,up,1,0,1,0,0,2,2,2,0,16,16,16,,,,,,,,,,,,,,,,,,,,,,,,,,,414.98637649999,415.9877619999461,414.98637649999,415.9877619999461,414.98637649999,415.9877619999461,414.98637649999,415.9877619999461,None,0,,414.98637649999,None,414.98637649999,None,414.98637649999,415.4876928999438,414.98637649999,415.4876928999438,414.98637649999,415.4876928999438,414.98637649999,415.4876928999438,414.98637649999,None,,,,,,,,,,,,,,,,,,,,,,,,,,,,,,,,,,,,,,,,,,11008,001,2024_Jan_01_1545,nback,2021.2.3,59.81426473744339,
2-back,instructions\back-2.png,conditions\2back-p.xlsx,instructions\2-BACK.png,"(25, 15)",practice,2,1,stim\yellow.png,stim\gray.png,stim\gray.png,stim\gray.png,left,1,0,1,0,0,2,2,2,0,17,17,17,,,,,,,,,,,,,,,,,,,,,,,,,,,416.4884226999711,417.49017939995974,416.4884226999711,417.49017939995974,416.4884226999711,417.49017939995974,416.4884226999711,417.49017939995974,up,0,0.5514598999870941,416.4884226999711,None,416.4884226999711,None,416.4884226999711,416.98936469998443,416.4884226999711,416.98936469998443,416.4884226999711,416.98936469998443,416.4884226999711,416.98936469998443,416.4884226999711,None,,,,,,,,,,,,,,,,,,,,,,,,,,,,,,,,,,,,,,,,,,11008,001,2024_Jan_01_1545,nback,2021.2.3,59.81426473744339,
2-back,instructions\back-2.png,conditions\2back-p.xlsx,instructions\2-BACK.png,"(25, 15)",practice,2,4,stim\gray.png,stim\gray.png,stim\gray.png,stim\yellow.png,right,1,0,1,0,0,2,2,2,0,18,18,18,,,,,,,,,,,,,,,,,,,,,,,,,,,417.9907494999934,418.9923085999908,417.9907494999934,418.9923085999908,417.9907494999934,418.9923085999908,417.9907494999934,418.9923085999908,left,0,0.8496404999750666,417.9907494999934,None,417.9907494999934,None,417.9907494999934,418.49129889998585,417.9907494999934,418.49129889998585,417.9907494999934,418.49129889998585,417.9907494999934,418.49129889998585,417.9907494999934,None,,,,,,,,,,,,,,,,,,,,,,,,,,,,,,,,,,,,,,,,,,11008,001,2024_Jan_01_1545,nback,2021.2.3,59.81426473744339,
2-back,instructions\back-2.png,conditions\2back-p.xlsx,instructions\2-BACK.png,"(25, 15)",practice,2,2,stim\gray.png,stim\yellow.png,stim\gray.png,stim\gray.png,up,1,0,1,0,0,2,2,2,0,19,19,19,,,,,,,,,,,,,,,,,,,,,,,,,,,419.4929874999798,420.49537619994953,419.4929874999798,420.49537619994953,419.4929874999798,420.49537619994953,419.4929874999798,420.49537619994953,None,0,,419.4929874999798,None,419.4929874999798,None,419.4929874999798,419.9938257999602,419.4929874999798,419.9938257999602,419.4929874999798,419.9938257999602,419.4929874999798,419.9938257999602,419.4929874999798,None,,,,,,,,,,,,,,,,,,,,,,,,,,,,,,,,,,,,,,,,,,11008,001,2024_Jan_01_1545,nback,2021.2.3,59.81426473744339,
2-back,instructions\back-2.png,conditions\2back-p.xlsx,instructions\2-BACK.png,"(25, 15)",,,,,,,,,1,0,1,0,0,2,2,2,,,,,,,,,,,,,,,,,,,,,,,,,,,,,,,,,,,,,,,,,,,,,,,,,,,,,,,,,,,,,,,,,,,,,,,,,,,,,,,,,,,,,,,,,,,,,,,,,11008,001,2024_Jan_01_1545,nback,2021.2.3,59.81426473744339,
,,,,,,,,,,,,,1,0,1,0,,,,,,,,,,,,,,,,,,,,,,,,,,,,,,,,,,,,,,,,,,,,,,,,,,,,,,,,,,,,420.9958959999494,None,space,12.308015799964778,420.9958959999494,None,,,,,,,,,,,,,,,,,,,,,,,,,,,,,,,,,,,,11008,001,2024_Jan_01_1545,nback,2021.2.3,59.81426473744339,
,,,,,,,,,,,,,,,,,,,,,,,,,,,,,,,,,,,,,,,,,,,,,,,,,,,,,,,,,,,,,,,,,,,,,,,,,,,,,,,,,,433.33021099999314,None,space,46.72565510001732,433.33021099999314,None,,,,,,,,,,,,,,,,,,,,,,,,,,,,,,11008,001,2024_Jan_01_1545,nback,2021.2.3,59.81426473744339,
2-back,instructions\back-2.png,conditions\24back-e.xlsx,,,experiment,2,1,stim\yellow.png,stim\gray.png,stim\gray.png,stim\gray.png,None,,,,,,,,,,,,,0,0,0,12,0,0,0,0,,,,,,,,,,,,,,,480.23293759999797,484.74114049994387,484.72377149999375,None,,,,,,,,,,,,,,,,,,,,,,,,,,,,,,,,,,,,,,None,1,485.1067799999728,None,485.1067799999728,None,485.1067799999728,486.10886149998987,485.1067799999728,486.10886149998987,485.1067799999728,486.10886149998987,485.1067799999728,486.10886149998987,485.1067799999728,485.6077374999877,485.1067799999728,485.6077374999877,485.1067799999728,485.6077374999877,485.1067799999728,485.6077374999877,485.1067799999728,None,,,,,,11008,001,2024_Jan_01_1545,nback,2021.2.3,59.81426473744339,
2-back,instructions\back-2.png,conditions\24back-e.xlsx,,,experiment,2,2,stim\gray.png,stim\yellow.png,stim\gray.png,stim\gray.png,None,,,,,,,,,,,,,0,0,0,12,0,1,1,1,,,,,,,,,,,,,,,,,,,,,,,,,,,,,,,,,,,,,,,,,,,,,,,,,,,,,,,,None,1,486.59250509995036,None,486.59250509995036,None,486.59250509995036,487.59647419996327,486.59250509995036,487.59647419996327,486.59250509995036,487.59647419996327,486.59250509995036,487.59647419996327,486.59250509995036,487.0934280999936,486.59250509995036,487.0934280999936,486.59250509995036,487.0934280999936,486.59250509995036,487.0934280999936,486.59250509995036,None,,,,,,11008,001,2024_Jan_01_1545,nback,2021.2.3,59.81426473744339,
2-back,instructions\back-2.png,conditions\24back-e.xlsx,,,experiment,2,1,stim\yellow.png,stim\gray.png,stim\gray.png,stim\gray.png,up,,,,,,,,,,,,,0,0,0,12,0,2,2,2,,,,,,,,,,,,,,,,,,,,,,,,,,,,,,,,,,,,,,,,,,,,,,,,,,,,,,,,up,1,488.09467609995045,None,488.09467609995045,None,488.09467609995045,489.09613639995223,488.09467609995045,489.09613639995223,488.09467609995045,489.09613639995223,488.09467609995045,489.09613639995223,488.09467609995045,488.59566959994845,488.09467609995045,488.59566959994845,488.09467609995045,488.59566959994845,488.09467609995045,488.59566959994845,488.09467609995045,None,0.6333330000052229,,,,,11008,001,2024_Jan_01_1545,nback,2021.2.3,59.81426473744339,
2-back,instructions\back-2.png,conditions\24back-e.xlsx,,,experiment,2,4,stim\gray.png,stim\gray.png,stim\gray.png,stim\yellow.png,left,,,,,,,,,,,,,0,0,0,12,0,3,3,3,,,,,,,,,,,,,,,,,,,,,,,,,,,,,,,,,,,,,,,,,,,,,,,,,,,,,,,,None,0,489.5968582999776,None,489.5968582999776,None,489.5968582999776,490.59910959994886,489.5968582999776,490.59910959994886,489.5968582999776,490.59910959994886,489.5968582999776,490.59910959994886,489.5968582999776,490.0979064999847,489.5968582999776,490.0979064999847,489.5968582999776,490.0979064999847,489.5968582999776,490.0979064999847,489.5968582999776,None,,,,,,11008,001,2024_Jan_01_1545,nback,2021.2.3,59.81426473744339,
2-back,instructions\back-2.png,conditions\24back-e.xlsx,,,experiment,2,3,stim\gray.png,stim\gray.png,stim\yellow.png,stim\gray.png,up,,,,,,,,,,,,,0,0,0,12,0,4,4,4,,,,,,,,,,,,,,,,,,,,,,,,,,,,,,,,,,,,,,,,,,,,,,,,,,,,,,,,None,0,491.09916759998305,None,491.09916759998305,None,491.09916759998305,492.1005388999474,491.09916759998305,492.1005388999474,491.09916759998305,492.1005388999474,491.09916759998305,492.1005388999474,491.09916759998305,491.60045989998616,491.09916759998305,491.60045989998616,491.09916759998305,491.60045989998616,491.09916759998305,491.60045989998616,491.09916759998305,None,,,,,,11008,001,2024_Jan_01_1545,nback,2021.2.3,59.81426473744339,
2-back,instructions\back-2.png,conditions\24back-e.xlsx,,,experiment,2,4,stim\gray.png,stim\gray.png,stim\gray.png,stim\yellow.png,down,,,,,,,,,,,,,0,0,0,12,0,5,5,5,,,,,,,,,,,,,,,,,,,,,,,,,,,,,,,,,,,,,,,,,,,,,,,,,,,,,,,,down,1,492.6013525999733,None,492.6013525999733,None,492.6013525999733,493.60292149998713,492.6013525999733,493.60292149998713,492.6013525999733,493.60292149998713,492.6013525999733,493.60292149998713,492.6013525999733,493.1022032999899,492.6013525999733,493.1022032999899,492.6013525999733,493.1022032999899,492.6013525999733,493.1022032999899,492.6013525999733,None,0.3675148999900557,,,,,11008,001,2024_Jan_01_1545,nback,2021.2.3,59.81426473744339,
2-back,instructions\back-2.png,conditions\24back-e.xlsx,,,experiment,2,3,stim\gray.png,stim\gray.png,stim\yellow.png,stim\gray.png,right,,,,,,,,,,,,,0,0,0,12,0,6,6,6,,,,,,,,,,,,,,,,,,,,,,,,,,,,,,,,,,,,,,,,,,,,,,,,,,,,,,,,None,0,494.10377239994705,None,494.10377239994705,None,494.10377239994705,495.10513619997073,494.10377239994705,495.10513619997073,494.10377239994705,495.10513619997073,494.10377239994705,495.10513619997073,494.10377239994705,494.6042535000015,494.10377239994705,494.6042535000015,494.10377239994705,494.6042535000015,494.10377239994705,494.6042535000015,494.10377239994705,None,,,,,,11008,001,2024_Jan_01_1545,nback,2021.2.3,59.81426473744339,
2-back,instructions\back-2.png,conditions\24back-e.xlsx,,,experiment,2,2,stim\gray.png,stim\yellow.png,stim\gray.png,stim\gray.png,down,,,,,,,,,,,,,0,0,0,12,0,7,7,7,,,,,,,,,,,,,,,,,,,,,,,,,,,,,,,,,,,,,,,,,,,,,,,,,,,,,,,,down,1,495.5892892999691,None,495.5892892999691,None,495.5892892999691,496.5913914999692,495.5892892999691,496.5913914999692,495.5892892999691,496.5913914999692,495.5892892999691,496.5913914999692,495.5892892999691,496.09009999997215,495.5892892999691,496.09009999997215,495.5892892999691,496.09009999997215,495.5892892999691,496.09009999997215,495.5892892999691,None,0.699633999960497,,,,,11008,001,2024_Jan_01_1545,nback,2021.2.3,59.81426473744339,
2-back,instructions\back-2.png,conditions\24back-e.xlsx,,,experiment,2,4,stim\gray.png,stim\gray.png,stim\gray.png,stim\yellow.png,right,,,,,,,,,,,,,0,0,0,12,0,8,8,8,,,,,,,,,,,,,,,,,,,,,,,,,,,,,,,,,,,,,,,,,,,,,,,,,,,,,,,,None,0,497.09146399999736,None,497.09146399999736,None,497.09146399999736,498.0935333999805,497.09146399999736,498.0935333999805,497.09146399999736,498.0935333999805,497.09146399999736,498.0935333999805,497.09146399999736,497.5920389999519,497.09146399999736,497.5920389999519,497.09146399999736,497.5920389999519,497.09146399999736,497.5920389999519,497.09146399999736,None,,,,,,11008,001,2024_Jan_01_1545,nback,2021.2.3,59.81426473744339,
2-back,instructions\back-2.png,conditions\24back-e.xlsx,,,experiment,2,1,stim\yellow.png,stim\gray.png,stim\gray.png,stim\gray.png,left,,,,,,,,,,,,,0,0,0,12,0,9,9,9,,,,,,,,,,,,,,,,,,,,,,,,,,,,,,,,,,,,,,,,,,,,,,,,,,,,,,,,None,0,498.59346529998584,None,498.59346529998584,None,498.59346529998584,499.5961141999578,498.59346529998584,499.5961141999578,498.59346529998584,499.5961141999578,498.59346529998584,499.5961141999578,498.59346529998584,499.0943273999728,498.59346529998584,499.0943273999728,498.59346529998584,499.0943273999728,498.59346529998584,499.0943273999728,498.59346529998584,None,,,,,,11008,001,2024_Jan_01_1545,nback,2021.2.3,59.81426473744339,
2-back,instructions\back-2.png,conditions\24back-e.xlsx,,,experiment,2,3,stim\gray.png,stim\gray.png,stim\yellow.png,stim\gray.png,down,,,,,,,,,,,,,0,0,0,12,0,10,10,10,,,,,,,,,,,,,,,,,,,,,,,,,,,,,,,,,,,,,,,,,,,,,,,,,,,,,,,,down,1,500.09588589996565,None,500.09588589996565,None,500.09588589996565,501.0979358999757,500.09588589996565,501.0979358999757,500.09588589996565,501.0979358999757,500.09588589996565,501.0979358999757,500.09588589996565,500.5966590999742,500.09588589996565,500.5966590999742,500.09588589996565,500.5966590999742,500.09588589996565,500.5966590999742,500.09588589996565,None,0.35210219997679815,,,,,11008,001,2024_Jan_01_1545,nback,2021.2.3,59.81426473744339,
2-back,instructions\back-2.png,conditions\24back-e.xlsx,,,experiment,2,1,stim\yellow.png,stim\gray.png,stim\gray.png,stim\gray.png,up,,,,,,,,,,,,,0,0,0,12,0,11,11,11,,,,,,,,,,,,,,,,,,,,,,,,,,,,,,,,,,,,,,,,,,,,,,,,,,,,,,,,None,0,501.59861190000083,None,501.59861190000083,None,501.59861190000083,502.59880659997,501.59861190000083,502.59880659997,501.59861190000083,502.59880659997,501.59861190000083,502.59880659997,501.59861190000083,502.0988942999975,501.59861190000083,502.0988942999975,501.59861190000083,502.0988942999975,501.59861190000083,502.0988942999975,501.59861190000083,None,,,,,,11008,001,2024_Jan_01_1545,nback,2021.2.3,59.81426473744339,
2-back,instructions\back-2.png,conditions\24back-e.xlsx,,,experiment,2,2,stim\gray.png,stim\yellow.png,stim\gray.png,stim\gray.png,right,,,,,,,,,,,,,0,0,0,12,0,12,12,12,,,,,,,,,,,,,,,,,,,,,,,,,,,,,,,,,,,,,,,,,,,,,,,,,,,,,,,,right,1,503.1003567999578,None,503.1003567999578,None,503.1003567999578,504.102222699963,503.1003567999578,504.102222699963,503.1003567999578,504.102222699963,503.1003567999578,504.102222699963,503.1003567999578,503.6021742000012,503.1003567999578,503.6021742000012,503.1003567999578,503.6021742000012,503.1003567999578,503.6021742000012,503.1003567999578,None,0.8034688999759965,,,,,11008,001,2024_Jan_01_1545,nback,2021.2.3,59.81426473744339,
2-back,instructions\back-2.png,conditions\24back-e.xlsx,,,experiment,2,4,stim\gray.png,stim\gray.png,stim\gray.png,stim\yellow.png,up,,,,,,,,,,,,,0,0,0,12,0,13,13,13,,,,,,,,,,,,,,,,,,,,,,,,,,,,,,,,,,,,,,,,,,,,,,,,,,,,,,,,None,0,504.60249919997295,None,504.60249919997295,None,504.60249919997295,505.6048735999502,504.60249919997295,505.6048735999502,504.60249919997295,505.6048735999502,504.60249919997295,505.6048735999502,504.60249919997295,505.10332189995097,504.60249919997295,505.10332189995097,504.60249919997295,505.10332189995097,504.60249919997295,505.10332189995097,504.60249919997295,None,,,,,,11008,001,2024_Jan_01_1545,nback,2021.2.3,59.81426473744339,
2-back,instructions\back-2.png,conditions\24back-e.xlsx,,,experiment,2,3,stim\gray.png,stim\gray.png,stim\yellow.png,stim\gray.png,left,,,,,,,,,,,,,0,0,0,12,0,14,14,14,,,,,,,,,,,,,,,,,,,,,,,,,,,,,,,,,,,,,,,,,,,,,,,,,,,,,,,,left,1,506.0884910999448,None,506.0884910999448,None,506.0884910999448,507.09017549996497,506.0884910999448,507.09017549996497,506.0884910999448,507.09017549996497,506.0884910999448,507.09017549996497,506.0884910999448,506.58945269999094,506.0884910999448,506.58945269999094,506.0884910999448,506.58945269999094,506.0884910999448,506.58945269999094,506.0884910999448,None,0.5193972999695688,,,,,11008,001,2024_Jan_01_1545,nback,2021.2.3,59.81426473744339,
