backseq,backinstr,backfile,instruction,size_in,Trialtype,back,number,P1,P2,P3,P4,corrAns,trials_practice.thisRepN,trials_practice.thisTrialN,trials_practice.thisN,trials_practice.thisIndex,trials.thisRepN,trials.thisTrialN,trials.thisN,trials.thisIndex,trials_3.thisRepN,trials_3.thisTrialN,trials_3.thisN,trials_3.thisIndex,trials_2.thisRepN,trials_2.thisTrialN,trials_2.thisN,trials_2.thisIndex,trials_4.thisRepN,trials_4.thisTrialN,trials_4.thisN,trials_4.thisIndex,image.started,image.stopped,image_2.started,image_2.stopped,key_resp.keys,key_resp.rt,key_resp.started,key_resp.stopped,image_3.started,image_3.stopped,key_resp_2.keys,key_resp_2.rt,key_resp_2.started,key_resp_2.stopped,image_4.started,image_4.stopped,text.started,text.stopped,H1.started,H1.stopped,H2.started,H2.stopped,H3.started,H3.stopped,H4.started,H4.stopped,key_resp_3.keys,key_resp_3.corr,key_resp_3.rt,key_resp_3.started,key_resp_3.stopped,text_4.started,text_4.stopped,F1.started,F1.stopped,F2.started,F2.stopped,F3.started,F3.stopped,F4.started,F4.stopped,image_7.started,image_7.stopped,text_5.started,text_5.stopped,key_resp_6.keys,key_resp_6.rt,key_resp_6.started,key_resp_6.stopped,image_5.started,image_5.stopped,key_resp_4.keys,key_resp_4.rt,key_resp_4.started,key_resp_4.stopped,key_resp_5.keys,key_resp_5.corr,key_resp_5.started,key_resp_5.stopped,text_3.started,text_3.stopped,H1_2.started,H1_2.stopped,H2_2.started,H2_2.stopped,H3_2.started,H3_2.stopped,H4_2.started,H4_2.stopped,F1_2.started,F1_2.stopped,F2_2.started,F2_2.stopped,F3_2.started,F3_2.stopped,F4_2.started,F4_2.stopped,image_8.started,image_8.stopped,key_resp_5.rt,text_2.started,text_2.stopped,image_6.started,image_6.stopped,participant,session,date,expName,psychopyVersion,frameRate,
,,,,,,,,,,,,,,,,,,,,,,,,,,,,,,,,,13.861640800023451,None,14.813451600028202,None,space,33.69274670002051,14.813451600028202,None,,,,,,,,,,,,,,,,,,,,,,,,,,,,,,,,,,,,,,,,,,,,,,,,,,,,,,,,,,,,,,,,,,,,,,,,,,,,,11012,001,2024_Jan_02_1141,nback,2021.2.3,59.5886121356273,
0-back,instructions\back-0.png,conditions\0back-p.xlsx,instructions\0-BACK.png,"(15, 8)",practice,0,1,stim\yellow.png,stim\gray.png,stim\gray.png,stim\gray.png,up,0,0,0,0,0,0,0,0,0,0,0,0,,,,,,,,,,,,,,,,,48.58012940001208,None,space,108.42312270001275,48.58012940001208,None,157.19131449999986,161.69979169999715,161.64840160001768,None,162.0497068000259,163.04993740003556,162.0497068000259,163.04993740003556,162.0497068000259,163.04993740003556,162.0497068000259,163.04993740003556,up,1,1.00105010002153,162.0497068000259,None,162.0497068000259,None,162.0497068000259,162.54972740000812,162.0497068000259,162.54972740000812,162.0497068000259,162.54972740000812,162.0497068000259,162.54972740000812,162.0497068000259,None,,,,,,,,,,,,,,,,,,,,,,,,,,,,,,,,,,,,,,,,,,11012,001,2024_Jan_02_1141,nback,2021.2.3,59.5886121356273,
0-back,instructions\back-0.png,conditions\0back-p.xlsx,instructions\0-BACK.png,"(15, 8)",practice,0,2,stim\gray.png,stim\yellow.png,stim\gray.png,stim\gray.png,left,0,0,0,0,0,0,0,0,0,1,1,1,,,,,,,,,,,,,,,,,,,,,,,,,,,163.53338209999492,164.53615970001556,163.53338209999492,164.53615970001556,163.53338209999492,164.53615970001556,163.53338209999492,164.53615970001556,left,1,0.6056997000123374,163.53338209999492,None,163.53338209999492,None,163.53338209999492,164.03457740001613,163.53338209999492,164.03457740001613,163.53338209999492,164.03457740001613,163.53338209999492,164.03457740001613,163.53338209999492,None,,,,,,,,,,,,,,,,,,,,,,,,,,,,,,,,,,,,,,,,,,11012,001,2024_Jan_02_1141,nback,2021.2.3,59.5886121356273,
0-back,instructions\back-0.png,conditions\0back-p.xlsx,instructions\0-BACK.png,"(15, 8)",practice,0,3,stim\gray.png,stim\gray.png,stim\yellow.png,stim\gray.png,right,0,0,0,0,0,0,0,0,0,2,2,2,,,,,,,,,,,,,,,,,,,,,,,,,,,165.03597420000006,166.0382372000022,165.03597420000006,166.0382372000022,165.03597420000006,166.0382372000022,165.03597420000006,166.0382372000022,right,1,0.4784268999937922,165.03597420000006,None,165.03597420000006,None,165.03597420000006,165.53677599999355,165.03597420000006,165.53677599999355,165.03597420000006,165.53677599999355,165.03597420000006,165.53677599999355,165.03597420000006,None,,,,,,,,,,,,,,,,,,,,,,,,,,,,,,,,,,,,,,,,,,11012,001,2024_Jan_02_1141,nback,2021.2.3,59.5886121356273,
0-back,instructions\back-0.png,conditions\0back-p.xlsx,instructions\0-BACK.png,"(15, 8)",practice,0,4,stim\gray.png,stim\gray.png,stim\gray.png,stim\yellow.png,down,0,0,0,0,0,0,0,0,0,3,3,3,,,,,,,,,,,,,,,,,,,,,,,,,,,166.53819310001563,167.54030729999067,166.53819310001563,167.54030729999067,166.53819310001563,167.54030729999067,166.53819310001563,167.54030729999067,down,1,0.31297509995056316,166.53819310001563,None,166.53819310001563,None,166.53819310001563,167.03960770001868,166.53819310001563,167.03960770001868,166.53819310001563,167.03960770001868,166.53819310001563,167.03960770001868,166.53819310001563,None,,,,,,,,,,,,,,,,,,,,,,,,,,,,,,,,,,,,,,,,,,11012,001,2024_Jan_02_1141,nback,2021.2.3,59.5886121356273,
0-back,instructions\back-0.png,conditions\0back-p.xlsx,instructions\0-BACK.png,"(15, 8)",practice,0,2,stim\gray.png,stim\yellow.png,stim\gray.png,stim\gray.png,left,0,0,0,0,0,0,0,0,0,4,4,4,,,,,,,,,,,,,,,,,,,,,,,,,,,168.04040510003688,169.04287160001695,168.04040510003688,169.04287160001695,168.04040510003688,169.04287160001695,168.04040510003688,169.04287160001695,left,1,0.3538770999875851,168.04040510003688,None,168.04040510003688,None,168.04040510003688,168.54232470004354,168.04040510003688,168.54232470004354,168.04040510003688,168.54232470004354,168.04040510003688,168.54232470004354,168.04040510003688,None,,,,,,,,,,,,,,,,,,,,,,,,,,,,,,,,,,,,,,,,,,11012,001,2024_Jan_02_1141,nback,2021.2.3,59.5886121356273,
0-back,instructions\back-0.png,conditions\0back-p.xlsx,instructions\0-BACK.png,"(15, 8)",practice,0,1,stim\yellow.png,stim\gray.png,stim\gray.png,stim\gray.png,up,0,0,0,0,0,0,0,0,0,5,5,5,,,,,,,,,,,,,,,,,,,,,,,,,,,169.54289129999233,170.54482990002725,169.54289129999233,170.54482990002725,169.54289129999233,170.54482990002725,169.54289129999233,170.54482990002725,up,1,0.35558059997856617,169.54289129999233,None,169.54289129999233,None,169.54289129999233,170.0434804999968,169.54289129999233,170.0434804999968,169.54289129999233,170.0434804999968,169.54289129999233,170.0434804999968,169.54289129999233,None,,,,,,,,,,,,,,,,,,,,,,,,,,,,,,,,,,,,,,,,,,11012,001,2024_Jan_02_1141,nback,2021.2.3,59.5886121356273,
0-back,instructions\back-0.png,conditions\0back-p.xlsx,instructions\0-BACK.png,"(15, 8)",practice,0,4,stim\gray.png,stim\gray.png,stim\gray.png,stim\yellow.png,down,0,0,0,0,0,0,0,0,0,6,6,6,,,,,,,,,,,,,,,,,,,,,,,,,,,171.02821970003424,172.0296764000086,171.02821970003424,172.0296764000086,171.02821970003424,172.0296764000086,171.02821970003424,172.0296764000086,down,1,0.5660643000155687,171.02821970003424,None,171.02821970003424,None,171.02821970003424,171.52947320003295,171.02821970003424,171.52947320003295,171.02821970003424,171.52947320003295,171.02821970003424,171.52947320003295,171.02821970003424,None,,,,,,,,,,,,,,,,,,,,,,,,,,,,,,,,,,,,,,,,,,11012,001,2024_Jan_02_1141,nback,2021.2.3,59.5886121356273,
0-back,instructions\back-0.png,conditions\0back-p.xlsx,instructions\0-BACK.png,"(15, 8)",practice,0,3,stim\gray.png,stim\gray.png,stim\yellow.png,stim\gray.png,right,0,0,0,0,0,0,0,0,0,7,7,7,,,,,,,,,,,,,,,,,,,,,,,,,,,172.53038990002824,173.53191860002698,172.53038990002824,173.53191860002698,172.53038990002824,173.53191860002698,172.53038990002824,173.53191860002698,right,1,0.31978540000272915,172.53038990002824,None,172.53038990002824,None,172.53038990002824,173.03159200004302,172.53038990002824,173.03159200004302,172.53038990002824,173.03159200004302,172.53038990002824,173.03159200004302,172.53038990002824,None,,,,,,,,,,,,,,,,,,,,,,,,,,,,,,,,,,,,,,,,,,11012,001,2024_Jan_02_1141,nback,2021.2.3,59.5886121356273,
0-back,instructions\back-0.png,conditions\0back-p.xlsx,instructions\0-BACK.png,"(15, 8)",practice,0,3,stim\gray.png,stim\gray.png,stim\yellow.png,stim\gray.png,right,0,0,0,0,0,0,0,0,0,8,8,8,,,,,,,,,,,,,,,,,,,,,,,,,,,174.032712300017,175.03466589999152,174.032712300017,175.03466589999152,174.032712300017,175.03466589999152,174.032712300017,175.03466589999152,right,1,0.35361899994313717,174.032712300017,None,174.032712300017,None,174.032712300017,174.53424020000966,174.032712300017,174.53424020000966,174.032712300017,174.53424020000966,174.032712300017,174.53424020000966,174.032712300017,None,,,,,,,,,,,,,,,,,,,,,,,,,,,,,,,,,,,,,,,,,,11012,001,2024_Jan_02_1141,nback,2021.2.3,59.5886121356273,
0-back,instructions\back-0.png,conditions\0back-p.xlsx,instructions\0-BACK.png,"(15, 8)",practice,0,4,stim\gray.png,stim\gray.png,stim\gray.png,stim\yellow.png,down,0,0,0,0,0,0,0,0,0,9,9,9,,,,,,,,,,,,,,,,,,,,,,,,,,,175.53458850004245,176.5371761000133,175.53458850004245,176.5371761000133,175.53458850004245,176.5371761000133,175.53458850004245,176.5371761000133,down,1,0.5716829999582842,175.53458850004245,None,175.53458850004245,None,175.53458850004245,176.03642570000375,175.53458850004245,176.03642570000375,175.53458850004245,176.03642570000375,175.53458850004245,176.03642570000375,175.53458850004245,None,,,,,,,,,,,,,,,,,,,,,,,,,,,,,,,,,,,,,,,,,,11012,001,2024_Jan_02_1141,nback,2021.2.3,59.5886121356273,
0-back,instructions\back-0.png,conditions\0back-p.xlsx,instructions\0-BACK.png,"(15, 8)",practice,0,1,stim\yellow.png,stim\gray.png,stim\gray.png,stim\gray.png,up,0,0,0,0,0,0,0,0,0,10,10,10,,,,,,,,,,,,,,,,,,,,,,,,,,,177.0377210000297,178.03930679999758,177.0377210000297,178.03930679999758,177.0377210000297,178.03930679999758,177.0377210000297,178.03930679999758,up,1,0.42087070003617555,177.0377210000297,None,177.0377210000297,None,177.0377210000297,177.53909550001845,177.0377210000297,177.53909550001845,177.0377210000297,177.53909550001845,177.0377210000297,177.53909550001845,177.0377210000297,None,,,,,,,,,,,,,,,,,,,,,,,,,,,,,,,,,,,,,,,,,,11012,001,2024_Jan_02_1141,nback,2021.2.3,59.5886121356273,
0-back,instructions\back-0.png,conditions\0back-p.xlsx,instructions\0-BACK.png,"(15, 8)",practice,0,2,stim\gray.png,stim\yellow.png,stim\gray.png,stim\gray.png,left,0,0,0,0,0,0,0,0,0,11,11,11,,,,,,,,,,,,,,,,,,,,,,,,,,,178.54005230002804,179.5417987999972,178.54005230002804,179.5417987999972,178.54005230002804,179.5417987999972,178.54005230002804,179.5417987999972,left,1,0.3262117999838665,178.54005230002804,None,178.54005230002804,None,178.54005230002804,179.04076270002406,178.54005230002804,179.04076270002406,178.54005230002804,179.04076270002406,178.54005230002804,179.04076270002406,178.54005230002804,None,,,,,,,,,,,,,,,,,,,,,,,,,,,,,,,,,,,,,,,,,,11012,001,2024_Jan_02_1141,nback,2021.2.3,59.5886121356273,
0-back,instructions\back-0.png,conditions\0back-p.xlsx,instructions\0-BACK.png,"(15, 8)",practice,0,4,stim\gray.png,stim\gray.png,stim\gray.png,stim\yellow.png,down,0,0,0,0,0,0,0,0,0,12,12,12,,,,,,,,,,,,,,,,,,,,,,,,,,,180.04182770004263,181.04512170003727,180.04182770004263,181.04512170003727,180.04182770004263,181.04512170003727,180.04182770004263,181.04512170003727,down,1,0.512677300022915,180.04182770004263,None,180.04182770004263,None,180.04182770004263,180.54294220003067,180.04182770004263,180.54294220003067,180.04182770004263,180.54294220003067,180.04182770004263,180.54294220003067,180.04182770004263,None,,,,,,,,,,,,,,,,,,,,,,,,,,,,,,,,,,,,,,,,,,11012,001,2024_Jan_02_1141,nback,2021.2.3,59.5886121356273,
0-back,instructions\back-0.png,conditions\0back-p.xlsx,instructions\0-BACK.png,"(15, 8)",practice,0,3,stim\gray.png,stim\gray.png,stim\yellow.png,stim\gray.png,right,0,0,0,0,0,0,0,0,0,13,13,13,,,,,,,,,,,,,,,,,,,,,,,,,,,181.54378020000877,182.5459250000422,181.54378020000877,182.5459250000422,181.54378020000877,182.5459250000422,181.54378020000877,182.5459250000422,right,1,0.38643980002962053,181.54378020000877,None,181.54378020000877,None,181.54378020000877,182.04448790004244,181.54378020000877,182.04448790004244,181.54378020000877,182.04448790004244,181.54378020000877,182.04448790004244,181.54378020000877,None,,,,,,,,,,,,,,,,,,,,,,,,,,,,,,,,,,,,,,,,,,11012,001,2024_Jan_02_1141,nback,2021.2.3,59.5886121356273,
0-back,instructions\back-0.png,conditions\0back-p.xlsx,instructions\0-BACK.png,"(15, 8)",practice,0,1,stim\yellow.png,stim\gray.png,stim\gray.png,stim\gray.png,up,0,0,0,0,0,0,0,0,0,14,14,14,,,,,,,,,,,,,,,,,,,,,,,,,,,183.0303887000191,184.0315477999975,183.0303887000191,184.0315477999975,183.0303887000191,184.0315477999975,183.0303887000191,184.0315477999975,up,1,0.3882230000454001,183.0303887000191,None,183.0303887000191,None,183.0303887000191,183.5307895000442,183.0303887000191,183.5307895000442,183.0303887000191,183.5307895000442,183.0303887000191,183.5307895000442,183.0303887000191,None,,,,,,,,,,,,,,,,,,,,,,,,,,,,,,,,,,,,,,,,,,11012,001,2024_Jan_02_1141,nback,2021.2.3,59.5886121356273,
0-back,instructions\back-0.png,conditions\0back-p.xlsx,instructions\0-BACK.png,"(15, 8)",practice,0,2,stim\gray.png,stim\yellow.png,stim\gray.png,stim\gray.png,left,0,0,0,0,0,0,0,0,0,15,15,15,,,,,,,,,,,,,,,,,,,,,,,,,,,184.5321100000292,185.5333365999977,184.5321100000292,185.5333365999977,184.5321100000292,185.5333365999977,184.5321100000292,185.5333365999977,left,1,0.31024710001656786,184.5321100000292,None,184.5321100000292,None,184.5321100000292,185.03275920002488,184.5321100000292,185.03275920002488,184.5321100000292,185.03275920002488,184.5321100000292,185.03275920002488,184.5321100000292,None,,,,,,,,,,,,,,,,,,,,,,,,,,,,,,,,,,,,,,,,,,11012,001,2024_Jan_02_1141,nback,2021.2.3,59.5886121356273,
0-back,instructions\back-0.png,conditions\0back-p.xlsx,instructions\0-BACK.png,"(15, 8)",practice,0,3,stim\gray.png,stim\gray.png,stim\yellow.png,stim\gray.png,right,0,0,0,0,0,0,0,0,0,16,16,16,,,,,,,,,,,,,,,,,,,,,,,,,,,186.03412319999188,187.03585179999936,186.03412319999188,187.03585179999936,186.03412319999188,187.03585179999936,186.03412319999188,187.03585179999936,right,1,0.43281349999597296,186.03412319999188,None,186.03412319999188,None,186.03412319999188,186.5345445999992,186.03412319999188,186.5345445999992,186.03412319999188,186.5345445999992,186.03412319999188,186.5345445999992,186.03412319999188,None,,,,,,,,,,,,,,,,,,,,,,,,,,,,,,,,,,,,,,,,,,11012,001,2024_Jan_02_1141,nback,2021.2.3,59.5886121356273,
0-back,instructions\back-0.png,conditions\0back-p.xlsx,instructions\0-BACK.png,"(15, 8)",practice,0,1,stim\yellow.png,stim\gray.png,stim\gray.png,stim\gray.png,up,0,0,0,0,0,0,0,0,0,17,17,17,,,,,,,,,,,,,,,,,,,,,,,,,,,187.53622930002166,188.5381817999878,187.53622930002166,188.5381817999878,187.53622930002166,188.5381817999878,187.53622930002166,188.5381817999878,up,1,0.3863112000399269,187.53622930002166,None,187.53622930002166,None,187.53622930002166,188.03762590000406,187.53622930002166,188.03762590000406,187.53622930002166,188.03762590000406,187.53622930002166,188.03762590000406,187.53622930002166,None,,,,,,,,,,,,,,,,,,,,,,,,,,,,,,,,,,,,,,,,,,11012,001,2024_Jan_02_1141,nback,2021.2.3,59.5886121356273,
0-back,instructions\back-0.png,conditions\0back-p.xlsx,instructions\0-BACK.png,"(15, 8)",practice,0,4,stim\gray.png,stim\gray.png,stim\gray.png,stim\yellow.png,down,0,0,0,0,0,0,0,0,0,18,18,18,,,,,,,,,,,,,,,,,,,,,,,,,,,189.03804770001443,190.04035790002672,189.03804770001443,190.04035790002672,189.03804770001443,190.04035790002672,189.03804770001443,190.04035790002672,down,1,0.3643367000040598,189.03804770001443,None,189.03804770001443,None,189.03804770001443,189.53995290002786,189.03804770001443,189.53995290002786,189.03804770001443,189.53995290002786,189.03804770001443,189.53995290002786,189.03804770001443,None,,,,,,,,,,,,,,,,,,,,,,,,,,,,,,,,,,,,,,,,,,11012,001,2024_Jan_02_1141,nback,2021.2.3,59.5886121356273,
0-back,instructions\back-0.png,conditions\0back-p.xlsx,instructions\0-BACK.png,"(15, 8)",practice,0,2,stim\gray.png,stim\yellow.png,stim\gray.png,stim\gray.png,left,0,0,0,0,0,0,0,0,0,19,19,19,,,,,,,,,,,,,,,,,,,,,,,,,,,190.5403837999911,191.54290570004378,190.5403837999911,191.54290570004378,190.5403837999911,191.54290570004378,190.5403837999911,191.54290570004378,left,1,0.3585268000024371,190.5403837999911,None,190.5403837999911,None,190.5403837999911,191.04212550004013,190.5403837999911,191.04212550004013,190.5403837999911,191.04212550004013,190.5403837999911,191.04212550004013,190.5403837999911,None,,,,,,,,,,,,,,,,,,,,,,,,,,,,,,,,,,,,,,,,,,11012,001,2024_Jan_02_1141,nback,2021.2.3,59.5886121356273,
0-back,instructions\back-0.png,conditions\0back-p.xlsx,instructions\0-BACK.png,"(15, 8)",,,,,,,,,0,0,0,0,0,0,0,0,,,,,,,,,,,,,,,,,,,,,,,,,,,,,,,,,,,,,,,,,,,,,,,,,,,,,,,,,,,,,,,,,,,,,,,,,,,,,,,,,,,,,,,,,,,,,,,,,11012,001,2024_Jan_02_1141,nback,2021.2.3,59.5886121356273,
1-back,instructions\back-1.png,conditions\1back-p.xlsx,instructions\1-BACK.png,"(25, 15)",practice,1,1,stim\yellow.png,stim\gray.png,stim\gray.png,stim\gray.png,None,0,0,0,0,0,1,1,1,0,0,0,0,,,,,,,,,,,,,,,,,192.1932365000248,None,space,17.31341360002989,192.1932365000248,None,209.6687271000119,214.1778503000387,214.14289230003487,None,214.56108830001904,215.56133320002118,214.56108830001904,215.56133320002118,214.56108830001904,215.56133320002118,214.56108830001904,215.56133320002118,None,1,,214.56108830001904,None,214.56108830001904,None,214.56108830001904,215.06085260002874,214.56108830001904,215.06085260002874,214.56108830001904,215.06085260002874,214.56108830001904,215.06085260002874,214.56108830001904,None,,,,,,,,,,,,,,,,,,,,,,,,,,,,,,,,,,,,,,,,,,11012,001,2024_Jan_02_1141,nback,2021.2.3,59.5886121356273,
1-back,instructions\back-1.png,conditions\1back-p.xlsx,instructions\1-BACK.png,"(25, 15)",practice,1,2,stim\gray.png,stim\yellow.png,stim\gray.png,stim\gray.png,up,0,0,0,0,0,1,1,1,0,1,1,1,,,,,,,,,,,,,,,,,,,,,,,,,,,216.04497739998624,217.04695099999662,216.04497739998624,217.04695099999662,216.04497739998624,217.04695099999662,216.04497739998624,217.04695099999662,left,0,1.2774137000087649,216.04497739998624,None,216.04497739998624,None,216.04497739998624,216.54651860002195,216.04497739998624,216.54651860002195,216.04497739998624,216.54651860002195,216.04497739998624,216.54651860002195,216.04497739998624,None,,,,,,,,,,,,,,,,,,,,,,,,,,,,,,,,,,,,,,,,,,11012,001,2024_Jan_02_1141,nback,2021.2.3,59.5886121356273,
1-back,instructions\back-1.png,conditions\1back-p.xlsx,instructions\1-BACK.png,"(25, 15)",practice,1,3,stim\gray.png,stim\gray.png,stim\yellow.png,stim\gray.png,left,0,0,0,0,0,1,1,1,0,2,2,2,,,,,,,,,,,,,,,,,,,,,,,,,,,217.5470859000343,218.54930449998938,217.5470859000343,218.54930449998938,217.5470859000343,218.54930449998938,217.5470859000343,218.54930449998938,right,0,0.9114754000329413,217.5470859000343,None,217.5470859000343,None,217.5470859000343,218.04889989999356,217.5470859000343,218.04889989999356,217.5470859000343,218.04889989999356,217.5470859000343,218.04889989999356,217.5470859000343,None,,,,,,,,,,,,,,,,,,,,,,,,,,,,,,,,,,,,,,,,,,11012,001,2024_Jan_02_1141,nback,2021.2.3,59.5886121356273,
1-back,instructions\back-1.png,conditions\1back-p.xlsx,instructions\1-BACK.png,"(25, 15)",practice,1,4,stim\gray.png,stim\gray.png,stim\gray.png,stim\yellow.png,right,0,0,0,0,0,1,1,1,0,3,3,3,,,,,,,,,,,,,,,,,,,,,,,,,,,219.04952370002866,220.05078500002855,219.04952370002866,220.05078500002855,219.04952370002866,220.05078500002855,219.04952370002866,220.05078500002855,None,0,,219.04952370002866,None,219.04952370002866,None,219.04952370002866,219.55147020000732,219.04952370002866,219.55147020000732,219.04952370002866,219.55147020000732,219.04952370002866,219.55147020000732,219.04952370002866,None,,,,,,,,,,,,,,,,,,,,,,,,,,,,,,,,,,,,,,,,,,11012,001,2024_Jan_02_1141,nback,2021.2.3,59.5886121356273,
1-back,instructions\back-1.png,conditions\1back-p.xlsx,instructions\1-BACK.png,"(25, 15)",practice,1,2,stim\gray.png,stim\yellow.png,stim\gray.png,stim\gray.png,down,0,0,0,0,0,1,1,1,0,4,4,4,,,,,,,,,,,,,,,,,,,,,,,,,,,220.5516290999949,221.55429460003506,220.5516290999949,221.55429460003506,220.5516290999949,221.55429460003506,220.5516290999949,221.55429460003506,down,1,0.7547188000171445,220.5516290999949,None,220.5516290999949,None,220.5516290999949,221.05304790002992,220.5516290999949,221.05304790002992,220.5516290999949,221.05304790002992,220.5516290999949,221.05304790002992,220.5516290999949,None,,,,,,,,,,,,,,,,,,,,,,,,,,,,,,,,,,,,,,,,,,11012,001,2024_Jan_02_1141,nback,2021.2.3,59.5886121356273,
1-back,instructions\back-1.png,conditions\1back-p.xlsx,instructions\1-BACK.png,"(25, 15)",practice,1,1,stim\yellow.png,stim\gray.png,stim\gray.png,stim\gray.png,left,0,0,0,0,0,1,1,1,0,5,5,5,,,,,,,,,,,,,,,,,,,,,,,,,,,222.05453389999457,223.0553165000165,222.05453389999457,223.0553165000165,222.05453389999457,223.0553165000165,222.05453389999457,223.0553165000165,left,1,0.24381710001034662,222.05453389999457,None,222.05453389999457,None,222.05453389999457,222.55501599999843,222.05453389999457,222.55501599999843,222.05453389999457,222.55501599999843,222.05453389999457,222.55501599999843,222.05453389999457,None,,,,,,,,,,,,,,,,,,,,,,,,,,,,,,,,,,,,,,,,,,11012,001,2024_Jan_02_1141,nback,2021.2.3,59.5886121356273,
1-back,instructions\back-1.png,conditions\1back-p.xlsx,instructions\1-BACK.png,"(25, 15)",practice,1,4,stim\gray.png,stim\gray.png,stim\gray.png,stim\yellow.png,up,0,0,0,0,0,1,1,1,0,6,6,6,,,,,,,,,,,,,,,,,,,,,,,,,,,223.54017280001426,224.54114210000262,223.54017280001426,224.54114210000262,223.54017280001426,224.54114210000262,223.54017280001426,224.54114210000262,up,1,0.5823106000316329,223.54017280001426,None,223.54017280001426,None,223.54017280001426,224.04081630002474,223.54017280001426,224.04081630002474,223.54017280001426,224.04081630002474,223.54017280001426,224.04081630002474,223.54017280001426,None,,,,,,,,,,,,,,,,,,,,,,,,,,,,,,,,,,,,,,,,,,11012,001,2024_Jan_02_1141,nback,2021.2.3,59.5886121356273,
1-back,instructions\back-1.png,conditions\1back-p.xlsx,instructions\1-BACK.png,"(25, 15)",practice,1,3,stim\gray.png,stim\gray.png,stim\yellow.png,stim\gray.png,down,0,0,0,0,0,1,1,1,0,7,7,7,,,,,,,,,,,,,,,,,,,,,,,,,,,225.0427376999869,226.04320750001352,225.0427376999869,226.04320750001352,225.0427376999869,226.04320750001352,225.0427376999869,226.04320750001352,down,1,0.48802180000348017,225.0427376999869,None,225.0427376999869,None,225.0427376999869,225.54228789999615,225.0427376999869,225.54228789999615,225.0427376999869,225.54228789999615,225.0427376999869,225.54228789999615,225.0427376999869,None,,,,,,,,,,,,,,,,,,,,,,,,,,,,,,,,,,,,,,,,,,11012,001,2024_Jan_02_1141,nback,2021.2.3,59.5886121356273,
1-back,instructions\back-1.png,conditions\1back-p.xlsx,instructions\1-BACK.png,"(25, 15)",practice,1,3,stim\gray.png,stim\gray.png,stim\yellow.png,stim\gray.png,right,0,0,0,0,0,1,1,1,0,8,8,8,,,,,,,,,,,,,,,,,,,,,,,,,,,226.54394589998992,227.54614470002707,226.54394589998992,227.54614470002707,226.54394589998992,227.54614470002707,226.54394589998992,227.54614470002707,right,1,1.2104558999999426,226.54394589998992,None,226.54394589998992,None,226.54394589998992,227.04491659998894,226.54394589998992,227.04491659998894,226.54394589998992,227.04491659998894,226.54394589998992,227.04491659998894,226.54394589998992,None,,,,,,,,,,,,,,,,,,,,,,,,,,,,,,,,,,,,,,,,,,11012,001,2024_Jan_02_1141,nback,2021.2.3,59.5886121356273,
1-back,instructions\back-1.png,conditions\1back-p.xlsx,instructions\1-BACK.png,"(25, 15)",practice,1,4,stim\gray.png,stim\gray.png,stim\gray.png,stim\yellow.png,right,0,0,0,0,0,1,1,1,0,9,9,9,,,,,,,,,,,,,,,,,,,,,,,,,,,228.04604149999795,229.04852200002642,228.04604149999795,229.04852200002642,228.04604149999795,229.04852200002642,228.04604149999795,229.04852200002642,None,0,,228.04604149999795,None,228.04604149999795,None,228.04604149999795,228.54757110000355,228.04604149999795,228.54757110000355,228.04604149999795,228.54757110000355,228.04604149999795,228.54757110000355,228.04604149999795,None,,,,,,,,,,,,,,,,,,,,,,,,,,,,,,,,,,,,,,,,,,11012,001,2024_Jan_02_1141,nback,2021.2.3,59.5886121356273,
1-back,instructions\back-1.png,conditions\1back-p.xlsx,instructions\1-BACK.png,"(25, 15)",practice,1,1,stim\yellow.png,stim\gray.png,stim\gray.png,stim\gray.png,down,0,0,0,0,0,1,1,1,0,10,10,10,,,,,,,,,,,,,,,,,,,,,,,,,,,229.54858629999217,230.55022919998737,229.54858629999217,230.55022919998737,229.54858629999217,230.55022919998737,229.54858629999217,230.55022919998737,down,1,1.4458178999484517,229.54858629999217,None,229.54858629999217,None,229.54858629999217,230.04899430001387,229.54858629999217,230.04899430001387,229.54858629999217,230.04899430001387,229.54858629999217,230.04899430001387,229.54858629999217,None,,,,,,,,,,,,,,,,,,,,,,,,,,,,,,,,,,,,,,,,,,11012,001,2024_Jan_02_1141,nback,2021.2.3,59.5886121356273,
1-back,instructions\back-1.png,conditions\1back-p.xlsx,instructions\1-BACK.png,"(25, 15)",practice,1,2,stim\gray.png,stim\yellow.png,stim\gray.png,stim\gray.png,up,0,0,0,0,0,1,1,1,0,11,11,11,,,,,,,,,,,,,,,,,,,,,,,,,,,231.05026240000734,232.0522226000321,231.05026240000734,232.0522226000321,231.05026240000734,232.0522226000321,231.05026240000734,232.0522226000321,left,0,1.0880849999957718,231.05026240000734,None,231.05026240000734,None,231.05026240000734,231.55167030001758,231.05026240000734,231.55167030001758,231.05026240000734,231.55167030001758,231.05026240000734,231.55167030001758,231.05026240000734,None,,,,,,,,,,,,,,,,,,,,,,,,,,,,,,,,,,,,,,,,,,11012,001,2024_Jan_02_1141,nback,2021.2.3,59.5886121356273,
1-back,instructions\back-1.png,conditions\1back-p.xlsx,instructions\1-BACK.png,"(25, 15)",practice,1,4,stim\gray.png,stim\gray.png,stim\gray.png,stim\yellow.png,left,0,0,0,0,0,1,1,1,0,12,12,12,,,,,,,,,,,,,,,,,,,,,,,,,,,232.55287240003236,233.55440100003034,232.55287240003236,233.55440100003034,232.55287240003236,233.55440100003034,232.55287240003236,233.55440100003034,down,0,1.3297995000029914,232.55287240003236,None,232.55287240003236,None,232.55287240003236,233.05430210003396,232.55287240003236,233.05430210003396,232.55287240003236,233.05430210003396,232.55287240003236,233.05430210003396,232.55287240003236,None,,,,,,,,,,,,,,,,,,,,,,,,,,,,,,,,,,,,,,,,,,11012,001,2024_Jan_02_1141,nback,2021.2.3,59.5886121356273,
1-back,instructions\back-1.png,conditions\1back-p.xlsx,instructions\1-BACK.png,"(25, 15)",practice,1,3,stim\gray.png,stim\gray.png,stim\yellow.png,stim\gray.png,down,0,0,0,0,0,1,1,1,0,13,13,13,,,,,,,,,,,,,,,,,,,,,,,,,,,234.05515720002586,235.05654840002535,234.05515720002586,235.05654840002535,234.05515720002586,235.05654840002535,234.05515720002586,235.05654840002535,right,0,1.2193378999945708,234.05515720002586,None,234.05515720002586,None,234.05515720002586,234.55654200003482,234.05515720002586,234.55654200003482,234.05515720002586,234.55654200003482,234.05515720002586,234.55654200003482,234.05515720002586,None,,,,,,,,,,,,,,,,,,,,,,,,,,,,,,,,,,,,,,,,,,11012,001,2024_Jan_02_1141,nback,2021.2.3,59.5886121356273,
1-back,instructions\back-1.png,conditions\1back-p.xlsx,instructions\1-BACK.png,"(25, 15)",practice,1,1,stim\yellow.png,stim\gray.png,stim\gray.png,stim\gray.png,right,0,0,0,0,0,1,1,1,0,14,14,14,,,,,,,,,,,,,,,,,,,,,,,,,,,235.5404298999929,236.54285610001534,235.5404298999929,236.54285610001534,235.5404298999929,236.54285610001534,235.5404298999929,236.54285610001534,None,0,,235.5404298999929,None,235.5404298999929,None,235.5404298999929,236.04229070001747,235.5404298999929,236.04229070001747,235.5404298999929,236.04229070001747,235.5404298999929,236.04229070001747,235.5404298999929,None,,,,,,,,,,,,,,,,,,,,,,,,,,,,,,,,,,,,,,,,,,11012,001,2024_Jan_02_1141,nback,2021.2.3,59.5886121356273,
1-back,instructions\back-1.png,conditions\1back-p.xlsx,instructions\1-BACK.png,"(25, 15)",practice,1,2,stim\gray.png,stim\yellow.png,stim\gray.png,stim\gray.png,up,0,0,0,0,0,1,1,1,0,15,15,15,,,,,,,,,,,,,,,,,,,,,,,,,,,237.042745200044,238.04537649999838,237.042745200044,238.04537649999838,237.042745200044,238.04537649999838,237.042745200044,238.04537649999838,None,0,,237.042745200044,None,237.042745200044,None,237.042745200044,237.54424880002625,237.042745200044,237.54424880002625,237.042745200044,237.54424880002625,237.042745200044,237.54424880002625,237.042745200044,None,,,,,,,,,,,,,,,,,,,,,,,,,,,,,,,,,,,,,,,,,,11012,001,2024_Jan_02_1141,nback,2021.2.3,59.5886121356273,
1-back,instructions\back-1.png,conditions\1back-p.xlsx,instructions\1-BACK.png,"(25, 15)",practice,1,3,stim\gray.png,stim\gray.png,stim\yellow.png,stim\gray.png,left,0,0,0,0,0,1,1,1,0,16,16,16,,,,,,,,,,,,,,,,,,,,,,,,,,,238.5455906999996,239.54740630002925,238.5455906999996,239.54740630002925,238.5455906999996,239.54740630002925,238.5455906999996,239.54740630002925,None,0,,238.5455906999996,None,238.5455906999996,None,238.5455906999996,239.0463728000177,238.5455906999996,239.0463728000177,238.5455906999996,239.0463728000177,238.5455906999996,239.0463728000177,238.5455906999996,None,,,,,,,,,,,,,,,,,,,,,,,,,,,,,,,,,,,,,,,,,,11012,001,2024_Jan_02_1141,nback,2021.2.3,59.5886121356273,
1-back,instructions\back-1.png,conditions\1back-p.xlsx,instructions\1-BACK.png,"(25, 15)",practice,1,1,stim\yellow.png,stim\gray.png,stim\gray.png,stim\gray.png,right,0,0,0,0,0,1,1,1,0,17,17,17,,,,,,,,,,,,,,,,,,,,,,,,,,,240.04774190002354,241.05007580004167,240.04774190002354,241.05007580004167,240.04774190002354,241.05007580004167,240.04774190002354,241.05007580004167,right,1,0.3150387000059709,240.04774190002354,None,240.04774190002354,None,240.04774190002354,240.54778230004013,240.04774190002354,240.54778230004013,240.04774190002354,240.54778230004013,240.04774190002354,240.54778230004013,240.04774190002354,None,,,,,,,,,,,,,,,,,,,,,,,,,,,,,,,,,,,,,,,,,,11012,001,2024_Jan_02_1141,nback,2021.2.3,59.5886121356273,
1-back,instructions\back-1.png,conditions\1back-p.xlsx,instructions\1-BACK.png,"(25, 15)",practice,1,4,stim\gray.png,stim\gray.png,stim\gray.png,stim\yellow.png,up,0,0,0,0,0,1,1,1,0,18,18,18,,,,,,,,,,,,,,,,,,,,,,,,,,,241.54945310001494,242.55153970001265,241.54945310001494,242.55153970001265,241.54945310001494,242.55153970001265,241.54945310001494,242.55153970001265,up,1,0.7013742999988608,241.54945310001494,None,241.54945310001494,None,241.54945310001494,242.05040460004238,241.54945310001494,242.05040460004238,241.54945310001494,242.05040460004238,241.54945310001494,242.05040460004238,241.54945310001494,None,,,,,,,,,,,,,,,,,,,,,,,,,,,,,,,,,,,,,,,,,,11012,001,2024_Jan_02_1141,nback,2021.2.3,59.5886121356273,
1-back,instructions\back-1.png,conditions\1back-p.xlsx,instructions\1-BACK.png,"(25, 15)",practice,1,2,stim\gray.png,stim\yellow.png,stim\gray.png,stim\gray.png,down,0,0,0,0,0,1,1,1,0,19,19,19,,,,,,,,,,,,,,,,,,,,,,,,,,,243.0518497999874,244.05394140002318,243.0518497999874,244.05394140002318,243.0518497999874,244.05394140002318,243.0518497999874,244.05394140002318,down,1,0.4864598999847658,243.0518497999874,None,243.0518497999874,None,243.0518497999874,243.55230989999836,243.0518497999874,243.55230989999836,243.0518497999874,243.55230989999836,243.0518497999874,243.55230989999836,243.0518497999874,None,,,,,,,,,,,,,,,,,,,,,,,,,,,,,,,,,,,,,,,,,,11012,001,2024_Jan_02_1141,nback,2021.2.3,59.5886121356273,
1-back,instructions\back-1.png,conditions\1back-p.xlsx,instructions\1-BACK.png,"(25, 15)",,,,,,,,,0,0,0,0,0,1,1,1,,,,,,,,,,,,,,,,,,,,,,,,,,,,,,,,,,,,,,,,,,,,,,,,,,,,,,,,,,,,,,,,,,,,,,,,,,,,,,,,,,,,,,,,,,,,,,,,,11012,001,2024_Jan_02_1141,nback,2021.2.3,59.5886121356273,
2-back,instructions\back-2.png,conditions\2back-p.xlsx,instructions\2-BACK.png,"(25, 15)",practice,2,1,stim\yellow.png,stim\gray.png,stim\gray.png,stim\gray.png,None,0,0,0,0,0,2,2,2,0,0,0,0,,,,,,,,,,,,,,,,,244.7039439000073,None,space,15.714661100006197,244.7039439000073,None,260.6274465000024,265.1345622999943,265.0850521000102,None,265.4688387000351,266.4694721000269,265.4688387000351,266.4694721000269,265.4688387000351,266.4694721000269,265.4688387000351,266.4694721000269,None,1,,265.4688387000351,None,265.4688387000351,None,265.4688387000351,265.96962749998784,265.4688387000351,265.96962749998784,265.4688387000351,265.96962749998784,265.4688387000351,265.96962749998784,265.4688387000351,None,,,,,,,,,,,,,,,,,,,,,,,,,,,,,,,,,,,,,,,,,,11012,001,2024_Jan_02_1141,nback,2021.2.3,59.5886121356273,
2-back,instructions\back-2.png,conditions\2back-p.xlsx,instructions\2-BACK.png,"(25, 15)",practice,2,2,stim\gray.png,stim\yellow.png,stim\gray.png,stim\gray.png,None,0,0,0,0,0,2,2,2,0,1,1,1,,,,,,,,,,,,,,,,,,,,,,,,,,,266.953662600019,267.95594630000414,266.953662600019,267.95594630000414,266.953662600019,267.95594630000414,266.953662600019,267.95594630000414,None,1,,266.953662600019,None,266.953662600019,None,266.953662600019,267.454378800001,266.953662600019,267.454378800001,266.953662600019,267.454378800001,266.953662600019,267.454378800001,266.953662600019,None,,,,,,,,,,,,,,,,,,,,,,,,,,,,,,,,,,,,,,,,,,11012,001,2024_Jan_02_1141,nback,2021.2.3,59.5886121356273,
2-back,instructions\back-2.png,conditions\2back-p.xlsx,instructions\2-BACK.png,"(25, 15)",practice,2,3,stim\gray.png,stim\gray.png,stim\yellow.png,stim\gray.png,up,0,0,0,0,0,2,2,2,0,2,2,2,,,,,,,,,,,,,,,,,,,,,,,,,,,268.45621380000375,269.45766449999064,268.45621380000375,269.45766449999064,268.45621380000375,269.45766449999064,268.45621380000375,269.45766449999064,up,1,1.4027295999694616,268.45621380000375,None,268.45621380000375,None,268.45621380000375,268.95768260001205,268.45621380000375,268.95768260001205,268.45621380000375,268.95768260001205,268.45621380000375,268.95768260001205,268.45621380000375,None,,,,,,,,,,,,,,,,,,,,,,,,,,,,,,,,,,,,,,,,,,11012,001,2024_Jan_02_1141,nback,2021.2.3,59.5886121356273,
2-back,instructions\back-2.png,conditions\2back-p.xlsx,instructions\2-BACK.png,"(25, 15)",practice,2,4,stim\gray.png,stim\gray.png,stim\gray.png,stim\yellow.png,left,0,0,0,0,0,2,2,2,0,3,3,3,,,,,,,,,,,,,,,,,,,,,,,,,,,269.9583120000316,270.9605196000193,269.9583120000316,270.9605196000193,269.9583120000316,270.9605196000193,269.9583120000316,270.9605196000193,left,1,0.4124186999979429,269.9583120000316,None,269.9583120000316,None,269.9583120000316,270.4597129999893,269.9583120000316,270.4597129999893,269.9583120000316,270.4597129999893,269.9583120000316,270.4597129999893,269.9583120000316,None,,,,,,,,,,,,,,,,,,,,,,,,,,,,,,,,,,,,,,,,,,11012,001,2024_Jan_02_1141,nback,2021.2.3,59.5886121356273,
2-back,instructions\back-2.png,conditions\2back-p.xlsx,instructions\2-BACK.png,"(25, 15)",practice,2,2,stim\gray.png,stim\yellow.png,stim\gray.png,stim\gray.png,right,0,0,0,0,0,2,2,2,0,4,4,4,,,,,,,,,,,,,,,,,,,,,,,,,,,271.46091070002876,272.4627815000131,271.46091070002876,272.4627815000131,271.46091070002876,272.4627815000131,271.46091070002876,272.4627815000131,right,1,1.0853428000118583,271.46091070002876,None,271.46091070002876,None,271.46091070002876,271.9618718000129,271.46091070002876,271.9618718000129,271.46091070002876,271.9618718000129,271.46091070002876,271.9618718000129,271.46091070002876,None,,,,,,,,,,,,,,,,,,,,,,,,,,,,,,,,,,,,,,,,,,11012,001,2024_Jan_02_1141,nback,2021.2.3,59.5886121356273,
2-back,instructions\back-2.png,conditions\2back-p.xlsx,instructions\2-BACK.png,"(25, 15)",practice,2,1,stim\yellow.png,stim\gray.png,stim\gray.png,stim\gray.png,down,0,0,0,0,0,2,2,2,0,5,5,5,,,,,,,,,,,,,,,,,,,,,,,,,,,272.96255290001864,273.96498200000497,272.96255290001864,273.96498200000497,272.96255290001864,273.96498200000497,272.96255290001864,273.96498200000497,down,1,1.1118192000431009,272.96255290001864,None,272.96255290001864,None,272.96255290001864,273.4633612000034,272.96255290001864,273.4633612000034,272.96255290001864,273.4633612000034,272.96255290001864,273.4633612000034,272.96255290001864,None,,,,,,,,,,,,,,,,,,,,,,,,,,,,,,,,,,,,,,,,,,11012,001,2024_Jan_02_1141,nback,2021.2.3,59.5886121356273,
2-back,instructions\back-2.png,conditions\2back-p.xlsx,instructions\2-BACK.png,"(25, 15)",practice,2,4,stim\gray.png,stim\gray.png,stim\gray.png,stim\yellow.png,left,0,0,0,0,0,2,2,2,0,6,6,6,,,,,,,,,,,,,,,,,,,,,,,,,,,274.4481468999875,275.4503699000343,274.4481468999875,275.4503699000343,274.4481468999875,275.4503699000343,274.4481468999875,275.4503699000343,left,1,0.15476419997867197,274.4481468999875,None,274.4481468999875,None,274.4481468999875,274.9502058000071,274.4481468999875,274.9502058000071,274.4481468999875,274.9502058000071,274.4481468999875,274.9502058000071,274.4481468999875,None,,,,,,,,,,,,,,,,,,,,,,,,,,,,,,,,,,,,,,,,,,11012,001,2024_Jan_02_1141,nback,2021.2.3,59.5886121356273,
2-back,instructions\back-2.png,conditions\2back-p.xlsx,instructions\2-BACK.png,"(25, 15)",practice,2,3,stim\gray.png,stim\gray.png,stim\yellow.png,stim\gray.png,up,0,0,0,0,0,2,2,2,0,7,7,7,,,,,,,,,,,,,,,,,,,,,,,,,,,275.9503121000016,276.9529889000114,275.9503121000016,276.9529889000114,275.9503121000016,276.9529889000114,275.9503121000016,276.9529889000114,None,0,,275.9503121000016,None,275.9503121000016,None,275.9503121000016,276.45139120001113,275.9503121000016,276.45139120001113,275.9503121000016,276.45139120001113,275.9503121000016,276.45139120001113,275.9503121000016,None,,,,,,,,,,,,,,,,,,,,,,,,,,,,,,,,,,,,,,,,,,11012,001,2024_Jan_02_1141,nback,2021.2.3,59.5886121356273,
2-back,instructions\back-2.png,conditions\2back-p.xlsx,instructions\2-BACK.png,"(25, 15)",practice,2,3,stim\gray.png,stim\gray.png,stim\yellow.png,stim\gray.png,down,0,0,0,0,0,2,2,2,0,8,8,8,,,,,,,,,,,,,,,,,,,,,,,,,,,277.4524609000073,278.4540841000271,277.4524609000073,278.4540841000271,277.4524609000073,278.4540841000271,277.4524609000073,278.4540841000271,None,0,,277.4524609000073,None,277.4524609000073,None,277.4524609000073,277.95392609998817,277.4524609000073,277.95392609998817,277.4524609000073,277.95392609998817,277.4524609000073,277.95392609998817,277.4524609000073,None,,,,,,,,,,,,,,,,,,,,,,,,,,,,,,,,,,,,,,,,,,11012,001,2024_Jan_02_1141,nback,2021.2.3,59.5886121356273,
2-back,instructions\back-2.png,conditions\2back-p.xlsx,instructions\2-BACK.png,"(25, 15)",practice,2,4,stim\gray.png,stim\gray.png,stim\gray.png,stim\yellow.png,right,0,0,0,0,0,2,2,2,0,9,9,9,,,,,,,,,,,,,,,,,,,,,,,,,,,278.95483840000816,279.9564798999927,278.95483840000816,279.9564798999927,278.95483840000816,279.9564798999927,278.95483840000816,279.9564798999927,right,1,0.6718882999848574,278.95483840000816,None,278.95483840000816,None,278.95483840000816,279.4561633000267,278.95483840000816,279.4561633000267,278.95483840000816,279.4561633000267,278.95483840000816,279.4561633000267,278.95483840000816,None,,,,,,,,,,,,,,,,,,,,,,,,,,,,,,,,,,,,,,,,,,11012,001,2024_Jan_02_1141,nback,2021.2.3,59.5886121356273,
2-back,instructions\back-2.png,conditions\2back-p.xlsx,instructions\2-BACK.png,"(25, 15)",practice,2,1,stim\yellow.png,stim\gray.png,stim\gray.png,stim\gray.png,right,0,0,0,0,0,2,2,2,0,10,10,10,,,,,,,,,,,,,,,,,,,,,,,,,,,280.4571062999894,281.45923340000445,280.4571062999894,281.45923340000445,280.4571062999894,281.45923340000445,280.4571062999894,281.45923340000445,None,0,,280.4571062999894,None,280.4571062999894,None,280.4571062999894,280.95871909998823,280.4571062999894,280.95871909998823,280.4571062999894,280.95871909998823,280.4571062999894,280.95871909998823,280.4571062999894,None,,,,,,,,,,,,,,,,,,,,,,,,,,,,,,,,,,,,,,,,,,11012,001,2024_Jan_02_1141,nback,2021.2.3,59.5886121356273,
2-back,instructions\back-2.png,conditions\2back-p.xlsx,instructions\2-BACK.png,"(25, 15)",practice,2,2,stim\gray.png,stim\yellow.png,stim\gray.png,stim\gray.png,down,0,0,0,0,0,2,2,2,0,11,11,11,,,,,,,,,,,,,,,,,,,,,,,,,,,281.95970629999647,282.9619140000432,281.95970629999647,282.9619140000432,281.95970629999647,282.9619140000432,281.95970629999647,282.9619140000432,right,0,0.9388604999985546,281.95970629999647,None,281.95970629999647,None,281.95970629999647,282.46046289999504,281.95970629999647,282.46046289999504,281.95970629999647,282.46046289999504,281.95970629999647,282.46046289999504,281.95970629999647,None,,,,,,,,,,,,,,,,,,,,,,,,,,,,,,,,,,,,,,,,,,11012,001,2024_Jan_02_1141,nback,2021.2.3,59.5886121356273,
2-back,instructions\back-2.png,conditions\2back-p.xlsx,instructions\2-BACK.png,"(25, 15)",practice,2,4,stim\gray.png,stim\gray.png,stim\gray.png,stim\yellow.png,up,0,0,0,0,0,2,2,2,0,12,12,12,,,,,,,,,,,,,,,,,,,,,,,,,,,283.46155370003544,284.4646142999991,283.46155370003544,284.4646142999991,283.46155370003544,284.4646142999991,283.46155370003544,284.4646142999991,up,1,1.4530951000051573,283.46155370003544,None,283.46155370003544,None,283.46155370003544,283.9624890999985,283.46155370003544,283.9624890999985,283.46155370003544,283.9624890999985,283.46155370003544,283.9624890999985,283.46155370003544,None,,,,,,,,,,,,,,,,,,,,,,,,,,,,,,,,,,,,,,,,,,11012,001,2024_Jan_02_1141,nback,2021.2.3,59.5886121356273,
2-back,instructions\back-2.png,conditions\2back-p.xlsx,instructions\2-BACK.png,"(25, 15)",practice,2,3,stim\gray.png,stim\gray.png,stim\yellow.png,stim\gray.png,left,0,0,0,0,0,2,2,2,0,13,13,13,,,,,,,,,,,,,,,,,,,,,,,,,,,284.96378849999746,285.9657415000256,284.96378849999746,285.9657415000256,284.96378849999746,285.9657415000256,284.96378849999746,285.9657415000256,left,1,0.9585962999844924,284.96378849999746,None,284.96378849999746,None,284.96378849999746,285.46523219998926,284.96378849999746,285.46523219998926,284.96378849999746,285.46523219998926,284.96378849999746,285.46523219998926,284.96378849999746,None,,,,,,,,,,,,,,,,,,,,,,,,,,,,,,,,,,,,,,,,,,11012,001,2024_Jan_02_1141,nback,2021.2.3,59.5886121356273,
2-back,instructions\back-2.png,conditions\2back-p.xlsx,instructions\2-BACK.png,"(25, 15)",practice,2,1,stim\yellow.png,stim\gray.png,stim\gray.png,stim\gray.png,down,0,0,0,0,0,2,2,2,0,14,14,14,,,,,,,,,,,,,,,,,,,,,,,,,,,286.44904060004046,287.4511010000133,286.44904060004046,287.4511010000133,286.44904060004046,287.4511010000133,286.44904060004046,287.4511010000133,None,0,,286.44904060004046,None,286.44904060004046,None,286.44904060004046,286.95085480000125,286.44904060004046,286.95085480000125,286.44904060004046,286.95085480000125,286.44904060004046,286.95085480000125,286.44904060004046,None,,,,,,,,,,,,,,,,,,,,,,,,,,,,,,,,,,,,,,,,,,11012,001,2024_Jan_02_1141,nback,2021.2.3,59.5886121356273,
2-back,instructions\back-2.png,conditions\2back-p.xlsx,instructions\2-BACK.png,"(25, 15)",practice,2,2,stim\gray.png,stim\yellow.png,stim\gray.png,stim\gray.png,right,0,0,0,0,0,2,2,2,0,15,15,15,,,,,,,,,,,,,,,,,,,,,,,,,,,287.9514516000054,288.9537960999878,287.9514516000054,288.9537960999878,287.9514516000054,288.9537960999878,287.9514516000054,288.9537960999878,up,0,0.41121980000752956,287.9514516000054,None,287.9514516000054,None,287.9514516000054,288.45451890002005,287.9514516000054,288.45451890002005,287.9514516000054,288.45451890002005,287.9514516000054,288.45451890002005,287.9514516000054,None,,,,,,,,,,,,,,,,,,,,,,,,,,,,,,,,,,,,,,,,,,11012,001,2024_Jan_02_1141,nback,2021.2.3,59.5886121356273,
2-back,instructions\back-2.png,conditions\2back-p.xlsx,instructions\2-BACK.png,"(25, 15)",practice,2,3,stim\gray.png,stim\gray.png,stim\yellow.png,stim\gray.png,up,0,0,0,0,0,2,2,2,0,16,16,16,,,,,,,,,,,,,,,,,,,,,,,,,,,289.4543943000026,290.4559844000032,289.4543943000026,290.4559844000032,289.4543943000026,290.4559844000032,289.4543943000026,290.4559844000032,None,0,,289.4543943000026,None,289.4543943000026,None,289.4543943000026,289.95452040003147,289.4543943000026,289.95452040003147,289.4543943000026,289.95452040003147,289.4543943000026,289.95452040003147,289.4543943000026,None,,,,,,,,,,,,,,,,,,,,,,,,,,,,,,,,,,,,,,,,,,11012,001,2024_Jan_02_1141,nback,2021.2.3,59.5886121356273,
2-back,instructions\back-2.png,conditions\2back-p.xlsx,instructions\2-BACK.png,"(25, 15)",practice,2,1,stim\yellow.png,stim\gray.png,stim\gray.png,stim\gray.png,left,0,0,0,0,0,2,2,2,0,17,17,17,,,,,,,,,,,,,,,,,,,,,,,,,,,290.9557449000422,291.9572526999982,290.9557449000422,291.9572526999982,290.9557449000422,291.9572526999982,290.9557449000422,291.9572526999982,None,0,,290.9557449000422,None,290.9557449000422,None,290.9557449000422,291.4568700999953,290.9557449000422,291.4568700999953,290.9557449000422,291.4568700999953,290.9557449000422,291.4568700999953,290.9557449000422,None,,,,,,,,,,,,,,,,,,,,,,,,,,,,,,,,,,,,,,,,,,11012,001,2024_Jan_02_1141,nback,2021.2.3,59.5886121356273,
2-back,instructions\back-2.png,conditions\2back-p.xlsx,instructions\2-BACK.png,"(25, 15)",practice,2,4,stim\gray.png,stim\gray.png,stim\gray.png,stim\yellow.png,right,0,0,0,0,0,2,2,2,0,18,18,18,,,,,,,,,,,,,,,,,,,,,,,,,,,292.45956640003715,293.459567300044,292.45956640003715,293.459567300044,292.45956640003715,293.459567300044,292.45956640003715,293.459567300044,None,0,,292.45956640003715,None,292.45956640003715,None,292.45956640003715,292.95938580000075,292.45956640003715,292.95938580000075,292.45956640003715,292.95938580000075,292.45956640003715,292.95938580000075,292.45956640003715,None,,,,,,,,,,,,,,,,,,,,,,,,,,,,,,,,,,,,,,,,,,11012,001,2024_Jan_02_1141,nback,2021.2.3,59.5886121356273,
2-back,instructions\back-2.png,conditions\2back-p.xlsx,instructions\2-BACK.png,"(25, 15)",practice,2,2,stim\gray.png,stim\yellow.png,stim\gray.png,stim\gray.png,up,0,0,0,0,0,2,2,2,0,19,19,19,,,,,,,,,,,,,,,,,,,,,,,,,,,293.9602237000363,294.9628363000229,293.9602237000363,294.9628363000229,293.9602237000363,294.9628363000229,293.9602237000363,294.9628363000229,None,0,,293.9602237000363,None,293.9602237000363,None,293.9602237000363,294.4618356000283,293.9602237000363,294.4618356000283,293.9602237000363,294.4618356000283,293.9602237000363,294.4618356000283,293.9602237000363,None,,,,,,,,,,,,,,,,,,,,,,,,,,,,,,,,,,,,,,,,,,11012,001,2024_Jan_02_1141,nback,2021.2.3,59.5886121356273,
2-back,instructions\back-2.png,conditions\2back-p.xlsx,instructions\2-BACK.png,"(25, 15)",,,,,,,,,0,0,0,0,0,2,2,2,,,,,,,,,,,,,,,,,,,,,,,,,,,,,,,,,,,,,,,,,,,,,,,,,,,,,,,,,,,,,,,,,,,,,,,,,,,,,,,,,,,,,,,,,,,,,,,,,11012,001,2024_Jan_02_1141,nback,2021.2.3,59.5886121356273,
,,,,,,,,,,,,,0,0,0,0,,,,,,,,,,,,,,,,,,,,,,,,,,,,,,,,,,,,,,,,,,,,,,,,,,,,,,,,,,,,295.4630818000296,None,s,5.787805399973877,295.4630818000296,None,,,,,,,,,,,,,,,,,,,,,,,,,,,,,,,,,,,,11012,001,2024_Jan_02_1141,nback,2021.2.3,59.5886121356273,
0-back,instructions\back-0.png,conditions\0back-p.xlsx,instructions\0-BACK.png,"(15, 8)",practice,0,1,stim\yellow.png,stim\gray.png,stim\gray.png,stim\gray.png,up,1,0,1,0,0,0,0,0,0,0,0,0,,,,,,,,,,,,,,,,,301.37067860004026,None,space,2.5046146999811754,301.37067860004026,None,304.05834779998986,308.5659449000377,308.5167311000405,None,308.91677670000354,309.91808870004024,308.91677670000354,309.91808870004024,308.91677670000354,309.91808870004024,308.91677670000354,309.91808870004024,up,1,0.678098299948033,308.91677670000354,None,308.91677670000354,None,308.91677670000354,309.4167664000415,308.91677670000354,309.4167664000415,308.91677670000354,309.4167664000415,308.91677670000354,309.4167664000415,308.91677670000354,None,,,,,,,,,,,,,,,,,,,,,,,,,,,,,,,,,,,,,,,,,,11012,001,2024_Jan_02_1141,nback,2021.2.3,59.5886121356273,
0-back,instructions\back-0.png,conditions\0back-p.xlsx,instructions\0-BACK.png,"(15, 8)",practice,0,2,stim\gray.png,stim\yellow.png,stim\gray.png,stim\gray.png,left,1,0,1,0,0,0,0,0,0,1,1,1,,,,,,,,,,,,,,,,,,,,,,,,,,,310.40142960002413,311.40291950001847,310.40142960002413,311.40291950001847,310.40142960002413,311.40291950001847,310.40142960002413,311.40291950001847,left,1,0.7130877000163309,310.40142960002413,None,310.40142960002413,None,310.40142960002413,310.90284920000704,310.40142960002413,310.90284920000704,310.40142960002413,310.90284920000704,310.40142960002413,310.90284920000704,310.40142960002413,None,,,,,,,,,,,,,,,,,,,,,,,,,,,,,,,,,,,,,,,,,,11012,001,2024_Jan_02_1141,nback,2021.2.3,59.5886121356273,
0-back,instructions\back-0.png,conditions\0back-p.xlsx,instructions\0-BACK.png,"(15, 8)",practice,0,3,stim\gray.png,stim\gray.png,stim\yellow.png,stim\gray.png,right,1,0,1,0,0,0,0,0,0,2,2,2,,,,,,,,,,,,,,,,,,,,,,,,,,,311.90370090003125,312.90641550003784,311.90370090003125,312.90641550003784,311.90370090003125,312.90641550003784,311.90370090003125,312.90641550003784,right,1,0.5630314000300132,311.90370090003125,None,311.90370090003125,None,311.90370090003125,312.4050944999908,311.90370090003125,312.4050944999908,311.90370090003125,312.4050944999908,311.90370090003125,312.4050944999908,311.90370090003125,None,,,,,,,,,,,,,,,,,,,,,,,,,,,,,,,,,,,,,,,,,,11012,001,2024_Jan_02_1141,nback,2021.2.3,59.5886121356273,
0-back,instructions\back-0.png,conditions\0back-p.xlsx,instructions\0-BACK.png,"(15, 8)",practice,0,4,stim\gray.png,stim\gray.png,stim\gray.png,stim\yellow.png,down,1,0,1,0,0,0,0,0,0,3,3,3,,,,,,,,,,,,,,,,,,,,,,,,,,,313.40563380002277,314.4080505000311,313.40563380002277,314.4080505000311,313.40563380002277,314.4080505000311,313.40563380002277,314.4080505000311,down,1,0.7087390000233427,313.40563380002277,None,313.40563380002277,None,313.40563380002277,313.90675590001047,313.40563380002277,313.90675590001047,313.40563380002277,313.90675590001047,313.40563380002277,313.90675590001047,313.40563380002277,None,,,,,,,,,,,,,,,,,,,,,,,,,,,,,,,,,,,,,,,,,,11012,001,2024_Jan_02_1141,nback,2021.2.3,59.5886121356273,
0-back,instructions\back-0.png,conditions\0back-p.xlsx,instructions\0-BACK.png,"(15, 8)",practice,0,2,stim\gray.png,stim\yellow.png,stim\gray.png,stim\gray.png,left,1,0,1,0,0,0,0,0,0,4,4,4,,,,,,,,,,,,,,,,,,,,,,,,,,,314.90813049999997,315.90956490003737,314.90813049999997,315.90956490003737,314.90813049999997,315.90956490003737,314.90813049999997,315.90956490003737,left,1,0.3423713999800384,314.90813049999997,None,314.90813049999997,None,314.90813049999997,315.40891290002037,314.90813049999997,315.40891290002037,314.90813049999997,315.40891290002037,314.90813049999997,315.40891290002037,314.90813049999997,None,,,,,,,,,,,,,,,,,,,,,,,,,,,,,,,,,,,,,,,,,,11012,001,2024_Jan_02_1141,nback,2021.2.3,59.5886121356273,
0-back,instructions\back-0.png,conditions\0back-p.xlsx,instructions\0-BACK.png,"(15, 8)",practice,0,1,stim\yellow.png,stim\gray.png,stim\gray.png,stim\gray.png,up,1,0,1,0,0,0,0,0,0,5,5,5,,,,,,,,,,,,,,,,,,,,,,,,,,,316.4103875000146,317.41201170004206,316.4103875000146,317.41201170004206,316.4103875000146,317.41201170004206,316.4103875000146,317.41201170004206,up,1,0.3282366000348702,316.4103875000146,None,316.4103875000146,None,316.4103875000146,316.91201590001583,316.4103875000146,316.91201590001583,316.4103875000146,316.91201590001583,316.4103875000146,316.91201590001583,316.4103875000146,None,,,,,,,,,,,,,,,,,,,,,,,,,,,,,,,,,,,,,,,,,,11012,001,2024_Jan_02_1141,nback,2021.2.3,59.5886121356273,
0-back,instructions\back-0.png,conditions\0back-p.xlsx,instructions\0-BACK.png,"(15, 8)",practice,0,4,stim\gray.png,stim\gray.png,stim\gray.png,stim\yellow.png,down,1,0,1,0,0,0,0,0,0,6,6,6,,,,,,,,,,,,,,,,,,,,,,,,,,,317.89576990000205,318.8972637000261,317.89576990000205,318.8972637000261,317.89576990000205,318.8972637000261,317.89576990000205,318.8972637000261,down,1,0.6350891999900341,317.89576990000205,None,317.89576990000205,None,317.89576990000205,318.39708840003004,317.89576990000205,318.39708840003004,317.89576990000205,318.39708840003004,317.89576990000205,318.39708840003004,317.89576990000205,None,,,,,,,,,,,,,,,,,,,,,,,,,,,,,,,,,,,,,,,,,,11012,001,2024_Jan_02_1141,nback,2021.2.3,59.5886121356273,
0-back,instructions\back-0.png,conditions\0back-p.xlsx,instructions\0-BACK.png,"(15, 8)",practice,0,3,stim\gray.png,stim\gray.png,stim\yellow.png,stim\gray.png,right,1,0,1,0,0,0,0,0,0,7,7,7,,,,,,,,,,,,,,,,,,,,,,,,,,,319.3980973000289,320.40000419999706,319.3980973000289,320.40000419999706,319.3980973000289,320.40000419999706,319.3980973000289,320.40000419999706,right,1,0.317151700030081,319.3980973000289,None,319.3980973000289,None,319.3980973000289,319.89913540001726,319.3980973000289,319.89913540001726,319.3980973000289,319.89913540001726,319.3980973000289,319.89913540001726,319.3980973000289,None,,,,,,,,,,,,,,,,,,,,,,,,,,,,,,,,,,,,,,,,,,11012,001,2024_Jan_02_1141,nback,2021.2.3,59.5886121356273,
0-back,instructions\back-0.png,conditions\0back-p.xlsx,instructions\0-BACK.png,"(15, 8)",practice,0,3,stim\gray.png,stim\gray.png,stim\yellow.png,stim\gray.png,right,1,0,1,0,0,0,0,0,0,8,8,8,,,,,,,,,,,,,,,,,,,,,,,,,,,320.90027169999667,321.90189340000506,320.90027169999667,321.90189340000506,320.90027169999667,321.90189340000506,320.90027169999667,321.90189340000506,right,1,0.3586269000079483,320.90027169999667,None,320.90027169999667,None,320.90027169999667,321.40111650002655,320.90027169999667,321.40111650002655,320.90027169999667,321.40111650002655,320.90027169999667,321.40111650002655,320.90027169999667,None,,,,,,,,,,,,,,,,,,,,,,,,,,,,,,,,,,,,,,,,,,11012,001,2024_Jan_02_1141,nback,2021.2.3,59.5886121356273,
0-back,instructions\back-0.png,conditions\0back-p.xlsx,instructions\0-BACK.png,"(15, 8)",practice,0,4,stim\gray.png,stim\gray.png,stim\gray.png,stim\yellow.png,down,1,0,1,0,0,0,0,0,0,9,9,9,,,,,,,,,,,,,,,,,,,,,,,,,,,322.40239850000944,323.40466130001005,322.40239850000944,323.40466130001005,322.40239850000944,323.40466130001005,322.40239850000944,323.40466130001005,down,1,0.5046863999450579,322.40239850000944,None,322.40239850000944,None,322.40239850000944,322.9034387000138,322.40239850000944,322.9034387000138,322.40239850000944,322.9034387000138,322.40239850000944,322.9034387000138,322.40239850000944,None,,,,,,,,,,,,,,,,,,,,,,,,,,,,,,,,,,,,,,,,,,11012,001,2024_Jan_02_1141,nback,2021.2.3,59.5886121356273,
0-back,instructions\back-0.png,conditions\0back-p.xlsx,instructions\0-BACK.png,"(15, 8)",practice,0,1,stim\yellow.png,stim\gray.png,stim\gray.png,stim\gray.png,up,1,0,1,0,0,0,0,0,0,10,10,10,,,,,,,,,,,,,,,,,,,,,,,,,,,323.90539319999516,324.907574700017,323.90539319999516,324.907574700017,323.90539319999516,324.907574700017,323.90539319999516,324.907574700017,up,1,0.3617228999501094,323.90539319999516,None,323.90539319999516,None,323.90539319999516,324.40595360001316,323.90539319999516,324.40595360001316,323.90539319999516,324.40595360001316,323.90539319999516,324.40595360001316,323.90539319999516,None,,,,,,,,,,,,,,,,,,,,,,,,,,,,,,,,,,,,,,,,,,11012,001,2024_Jan_02_1141,nback,2021.2.3,59.5886121356273,
0-back,instructions\back-0.png,conditions\0back-p.xlsx,instructions\0-BACK.png,"(15, 8)",practice,0,2,stim\gray.png,stim\yellow.png,stim\gray.png,stim\gray.png,left,1,0,1,0,0,0,0,0,0,11,11,11,,,,,,,,,,,,,,,,,,,,,,,,,,,325.40694580000127,326.4084179000347,325.40694580000127,326.4084179000347,325.40694580000127,326.4084179000347,325.40694580000127,326.4084179000347,left,1,0.33184599998639897,325.40694580000127,None,325.40694580000127,None,325.40694580000127,325.90767000004416,325.40694580000127,325.90767000004416,325.40694580000127,325.90767000004416,325.40694580000127,325.90767000004416,325.40694580000127,None,,,,,,,,,,,,,,,,,,,,,,,,,,,,,,,,,,,,,,,,,,11012,001,2024_Jan_02_1141,nback,2021.2.3,59.5886121356273,
0-back,instructions\back-0.png,conditions\0back-p.xlsx,instructions\0-BACK.png,"(15, 8)",practice,0,4,stim\gray.png,stim\gray.png,stim\gray.png,stim\yellow.png,down,1,0,1,0,0,0,0,0,0,12,12,12,,,,,,,,,,,,,,,,,,,,,,,,,,,326.9092149999924,327.9106382000027,326.9092149999924,327.9106382000027,326.9092149999924,327.9106382000027,326.9092149999924,327.9106382000027,down,1,0.5023741999757476,326.9092149999924,None,326.9092149999924,None,326.9092149999924,327.4105625000084,326.9092149999924,327.4105625000084,326.9092149999924,327.4105625000084,326.9092149999924,327.4105625000084,326.9092149999924,None,,,,,,,,,,,,,,,,,,,,,,,,,,,,,,,,,,,,,,,,,,11012,001,2024_Jan_02_1141,nback,2021.2.3,59.5886121356273,
0-back,instructions\back-0.png,conditions\0back-p.xlsx,instructions\0-BACK.png,"(15, 8)",practice,0,3,stim\gray.png,stim\gray.png,stim\yellow.png,stim\gray.png,right,1,0,1,0,0,0,0,0,0,13,13,13,,,,,,,,,,,,,,,,,,,,,,,,,,,328.41222230001586,329.4141903000418,328.41222230001586,329.4141903000418,328.41222230001586,329.4141903000418,328.41222230001586,329.4141903000418,right,1,0.3185403000097722,328.41222230001586,None,328.41222230001586,None,328.41222230001586,328.91282379999757,328.41222230001586,328.91282379999757,328.41222230001586,328.91282379999757,328.41222230001586,328.91282379999757,328.41222230001586,None,,,,,,,,,,,,,,,,,,,,,,,,,,,,,,,,,,,,,,,,,,11012,001,2024_Jan_02_1141,nback,2021.2.3,59.5886121356273,
0-back,instructions\back-0.png,conditions\0back-p.xlsx,instructions\0-BACK.png,"(15, 8)",practice,0,1,stim\yellow.png,stim\gray.png,stim\gray.png,stim\gray.png,up,1,0,1,0,0,0,0,0,0,14,14,14,,,,,,,,,,,,,,,,,,,,,,,,,,,329.8976129000075,330.89927130000433,329.8976129000075,330.89927130000433,329.8976129000075,330.89927130000433,329.8976129000075,330.89927130000433,up,1,0.34530300000915304,329.8976129000075,None,329.8976129000075,None,329.8976129000075,330.39836719998857,329.8976129000075,330.39836719998857,329.8976129000075,330.39836719998857,329.8976129000075,330.39836719998857,329.8976129000075,None,,,,,,,,,,,,,,,,,,,,,,,,,,,,,,,,,,,,,,,,,,11012,001,2024_Jan_02_1141,nback,2021.2.3,59.5886121356273,
0-back,instructions\back-0.png,conditions\0back-p.xlsx,instructions\0-BACK.png,"(15, 8)",practice,0,2,stim\gray.png,stim\yellow.png,stim\gray.png,stim\gray.png,left,1,0,1,0,0,0,0,0,0,15,15,15,,,,,,,,,,,,,,,,,,,,,,,,,,,331.3990755000268,332.4015922000399,331.3990755000268,332.4015922000399,331.3990755000268,332.4015922000399,331.3990755000268,332.4015922000399,left,1,0.2600710000260733,331.3990755000268,None,331.3990755000268,None,331.3990755000268,331.90089910000097,331.3990755000268,331.90089910000097,331.3990755000268,331.90089910000097,331.3990755000268,331.90089910000097,331.3990755000268,None,,,,,,,,,,,,,,,,,,,,,,,,,,,,,,,,,,,,,,,,,,11012,001,2024_Jan_02_1141,nback,2021.2.3,59.5886121356273,
0-back,instructions\back-0.png,conditions\0back-p.xlsx,instructions\0-BACK.png,"(15, 8)",practice,0,3,stim\gray.png,stim\gray.png,stim\yellow.png,stim\gray.png,right,1,0,1,0,0,0,0,0,0,16,16,16,,,,,,,,,,,,,,,,,,,,,,,,,,,332.90270530001726,333.9039271000074,332.90270530001726,333.9039271000074,332.90270530001726,333.9039271000074,332.90270530001726,333.9039271000074,right,1,0.35588680004002526,332.90270530001726,None,332.90270530001726,None,332.90270530001726,333.40335159999086,332.90270530001726,333.40335159999086,332.90270530001726,333.40335159999086,332.90270530001726,333.40335159999086,332.90270530001726,None,,,,,,,,,,,,,,,,,,,,,,,,,,,,,,,,,,,,,,,,,,11012,001,2024_Jan_02_1141,nback,2021.2.3,59.5886121356273,
0-back,instructions\back-0.png,conditions\0back-p.xlsx,instructions\0-BACK.png,"(15, 8)",practice,0,1,stim\yellow.png,stim\gray.png,stim\gray.png,stim\gray.png,up,1,0,1,0,0,0,0,0,0,17,17,17,,,,,,,,,,,,,,,,,,,,,,,,,,,334.40367060003337,335.4056902999873,334.40367060003337,335.4056902999873,334.40367060003337,335.4056902999873,334.40367060003337,335.4056902999873,up,1,0.4148678000201471,334.40367060003337,None,334.40367060003337,None,334.40367060003337,334.90557490003994,334.40367060003337,334.90557490003994,334.40367060003337,334.90557490003994,334.40367060003337,334.90557490003994,334.40367060003337,None,,,,,,,,,,,,,,,,,,,,,,,,,,,,,,,,,,,,,,,,,,11012,001,2024_Jan_02_1141,nback,2021.2.3,59.5886121356273,
0-back,instructions\back-0.png,conditions\0back-p.xlsx,instructions\0-BACK.png,"(15, 8)",practice,0,4,stim\gray.png,stim\gray.png,stim\gray.png,stim\yellow.png,down,1,0,1,0,0,0,0,0,0,18,18,18,,,,,,,,,,,,,,,,,,,,,,,,,,,335.90669570001774,336.90759910002816,335.90669570001774,336.90759910002816,335.90669570001774,336.90759910002816,335.90669570001774,336.90759910002816,down,1,0.4003169000498019,335.90669570001774,None,335.90669570001774,None,335.90669570001774,336.40702839998994,335.90669570001774,336.40702839998994,335.90669570001774,336.40702839998994,335.90669570001774,336.40702839998994,335.90669570001774,None,,,,,,,,,,,,,,,,,,,,,,,,,,,,,,,,,,,,,,,,,,11012,001,2024_Jan_02_1141,nback,2021.2.3,59.5886121356273,
0-back,instructions\back-0.png,conditions\0back-p.xlsx,instructions\0-BACK.png,"(15, 8)",practice,0,2,stim\gray.png,stim\yellow.png,stim\gray.png,stim\gray.png,left,1,0,1,0,0,0,0,0,0,19,19,19,,,,,,,,,,,,,,,,,,,,,,,,,,,337.4080960000283,338.4103594000335,337.4080960000283,338.4103594000335,337.4080960000283,338.4103594000335,337.4080960000283,338.4103594000335,left,1,0.33060590003151447,337.4080960000283,None,337.4080960000283,None,337.4080960000283,337.9088448000257,337.4080960000283,337.9088448000257,337.4080960000283,337.9088448000257,337.4080960000283,337.9088448000257,337.4080960000283,None,,,,,,,,,,,,,,,,,,,,,,,,,,,,,,,,,,,,,,,,,,11012,001,2024_Jan_02_1141,nback,2021.2.3,59.5886121356273,
0-back,instructions\back-0.png,conditions\0back-p.xlsx,instructions\0-BACK.png,"(15, 8)",,,,,,,,,1,0,1,0,0,0,0,0,,,,,,,,,,,,,,,,,,,,,,,,,,,,,,,,,,,,,,,,,,,,,,,,,,,,,,,,,,,,,,,,,,,,,,,,,,,,,,,,,,,,,,,,,,,,,,,,,11012,001,2024_Jan_02_1141,nback,2021.2.3,59.5886121356273,
1-back,instructions\back-1.png,conditions\1back-p.xlsx,instructions\1-BACK.png,"(25, 15)",practice,1,1,stim\yellow.png,stim\gray.png,stim\gray.png,stim\gray.png,None,1,0,1,0,0,1,1,1,0,0,0,0,,,,,,,,,,,,,,,,,339.1103898000438,None,space,2.0209641000255942,339.1103898000438,None,341.281278999988,345.78779930004384,345.75389839999843,None,346.1722382000298,347.1733867999865,346.1722382000298,347.1733867999865,346.1722382000298,347.1733867999865,346.1722382000298,347.1733867999865,None,1,,346.1722382000298,None,346.1722382000298,None,346.1722382000298,346.67174090002663,346.1722382000298,346.67174090002663,346.1722382000298,346.67174090002663,346.1722382000298,346.67174090002663,346.1722382000298,None,,,,,,,,,,,,,,,,,,,,,,,,,,,,,,,,,,,,,,,,,,11012,001,2024_Jan_02_1141,nback,2021.2.3,59.5886121356273,
1-back,instructions\back-1.png,conditions\1back-p.xlsx,instructions\1-BACK.png,"(25, 15)",practice,1,2,stim\gray.png,stim\yellow.png,stim\gray.png,stim\gray.png,up,1,0,1,0,0,1,1,1,0,1,1,1,,,,,,,,,,,,,,,,,,,,,,,,,,,347.6566335000098,348.6581336000236,347.6566335000098,348.6581336000236,347.6566335000098,348.6581336000236,347.6566335000098,348.6581336000236,left,0,0.28231869998853654,347.6566335000098,None,347.6566335000098,None,347.6566335000098,348.15800200001104,347.6566335000098,348.15800200001104,347.6566335000098,348.15800200001104,347.6566335000098,348.15800200001104,347.6566335000098,None,,,,,,,,,,,,,,,,,,,,,,,,,,,,,,,,,,,,,,,,,,11012,001,2024_Jan_02_1141,nback,2021.2.3,59.5886121356273,
1-back,instructions\back-1.png,conditions\1back-p.xlsx,instructions\1-BACK.png,"(25, 15)",practice,1,3,stim\gray.png,stim\gray.png,stim\yellow.png,stim\gray.png,left,1,0,1,0,0,1,1,1,0,2,2,2,,,,,,,,,,,,,,,,,,,,,,,,,,,349.15969579998637,350.1617412000196,349.15969579998637,350.1617412000196,349.15969579998637,350.1617412000196,349.15969579998637,350.1617412000196,None,0,,349.15969579998637,None,349.15969579998637,None,349.15969579998637,349.6603160999948,349.15969579998637,349.6603160999948,349.15969579998637,349.6603160999948,349.15969579998637,349.6603160999948,349.15969579998637,None,,,,,,,,,,,,,,,,,,,,,,,,,,,,,,,,,,,,,,,,,,11012,001,2024_Jan_02_1141,nback,2021.2.3,59.5886121356273,
1-back,instructions\back-1.png,conditions\1back-p.xlsx,instructions\1-BACK.png,"(25, 15)",practice,1,4,stim\gray.png,stim\gray.png,stim\gray.png,stim\yellow.png,right,1,0,1,0,0,1,1,1,0,3,3,3,,,,,,,,,,,,,,,,,,,,,,,,,,,350.6608946000342,351.66332190000685,350.6608946000342,351.66332190000685,350.6608946000342,351.66332190000685,350.6608946000342,351.66332190000685,None,0,,350.6608946000342,None,350.6608946000342,None,350.6608946000342,351.1624833000242,350.6608946000342,351.1624833000242,350.6608946000342,351.1624833000242,350.6608946000342,351.1624833000242,350.6608946000342,None,,,,,,,,,,,,,,,,,,,,,,,,,,,,,,,,,,,,,,,,,,11012,001,2024_Jan_02_1141,nback,2021.2.3,59.5886121356273,
1-back,instructions\back-1.png,conditions\1back-p.xlsx,instructions\1-BACK.png,"(25, 15)",practice,1,2,stim\gray.png,stim\yellow.png,stim\gray.png,stim\gray.png,down,1,0,1,0,0,1,1,1,0,4,4,4,,,,,,,,,,,,,,,,,,,,,,,,,,,352.16364560002694,353.1657806999865,352.16364560002694,353.1657806999865,352.16364560002694,353.1657806999865,352.16364560002694,353.1657806999865,None,0,,352.16364560002694,None,352.16364560002694,None,352.16364560002694,352.66384809999727,352.16364560002694,352.66384809999727,352.16364560002694,352.66384809999727,352.16364560002694,352.66384809999727,352.16364560002694,None,,,,,,,,,,,,,,,,,,,,,,,,,,,,,,,,,,,,,,,,,,11012,001,2024_Jan_02_1141,nback,2021.2.3,59.5886121356273,
1-back,instructions\back-1.png,conditions\1back-p.xlsx,instructions\1-BACK.png,"(25, 15)",practice,1,1,stim\yellow.png,stim\gray.png,stim\gray.png,stim\gray.png,left,1,0,1,0,0,1,1,1,0,5,5,5,,,,,,,,,,,,,,,,,,,,,,,,,,,353.6654082000023,354.6673268000013,353.6654082000023,354.6673268000013,353.6654082000023,354.6673268000013,353.6654082000023,354.6673268000013,left,1,0.4657586999819614,353.6654082000023,None,353.6654082000023,None,353.6654082000023,354.16740870004287,353.6654082000023,354.16740870004287,353.6654082000023,354.16740870004287,353.6654082000023,354.16740870004287,353.6654082000023,None,,,,,,,,,,,,,,,,,,,,,,,,,,,,,,,,,,,,,,,,,,11012,001,2024_Jan_02_1141,nback,2021.2.3,59.5886121356273,
1-back,instructions\back-1.png,conditions\1back-p.xlsx,instructions\1-BACK.png,"(25, 15)",practice,1,4,stim\gray.png,stim\gray.png,stim\gray.png,stim\yellow.png,up,1,0,1,0,0,1,1,1,0,6,6,6,,,,,,,,,,,,,,,,,,,,,,,,,,,355.16780320002,356.17044310003985,355.16780320002,356.17044310003985,355.16780320002,356.17044310003985,355.16780320002,356.17044310003985,up,1,0.410989600000903,355.16780320002,None,355.16780320002,None,355.16780320002,355.66905860003317,355.16780320002,355.66905860003317,355.16780320002,355.66905860003317,355.16780320002,355.66905860003317,355.16780320002,None,,,,,,,,,,,,,,,,,,,,,,,,,,,,,,,,,,,,,,,,,,11012,001,2024_Jan_02_1141,nback,2021.2.3,59.5886121356273,
1-back,instructions\back-1.png,conditions\1back-p.xlsx,instructions\1-BACK.png,"(25, 15)",practice,1,3,stim\gray.png,stim\gray.png,stim\yellow.png,stim\gray.png,down,1,0,1,0,0,1,1,1,0,7,7,7,,,,,,,,,,,,,,,,,,,,,,,,,,,356.65332079998916,357.6560970999999,356.65332079998916,357.6560970999999,356.65332079998916,357.6560970999999,356.65332079998916,357.6560970999999,down,1,0.3817331999889575,356.65332079998916,None,356.65332079998916,None,356.65332079998916,357.1546700000181,356.65332079998916,357.1546700000181,356.65332079998916,357.1546700000181,356.65332079998916,357.1546700000181,356.65332079998916,None,,,,,,,,,,,,,,,,,,,,,,,,,,,,,,,,,,,,,,,,,,11012,001,2024_Jan_02_1141,nback,2021.2.3,59.5886121356273,
1-back,instructions\back-1.png,conditions\1back-p.xlsx,instructions\1-BACK.png,"(25, 15)",practice,1,3,stim\gray.png,stim\gray.png,stim\yellow.png,stim\gray.png,right,1,0,1,0,0,1,1,1,0,8,8,8,,,,,,,,,,,,,,,,,,,,,,,,,,,358.1562453000224,359.1575812000083,358.1562453000224,359.1575812000083,358.1562453000224,359.1575812000083,358.1562453000224,359.1575812000083,right,1,0.5262541000265628,358.1562453000224,None,358.1562453000224,None,358.1562453000224,358.65682239999296,358.1562453000224,358.65682239999296,358.1562453000224,358.65682239999296,358.1562453000224,358.65682239999296,358.1562453000224,None,,,,,,,,,,,,,,,,,,,,,,,,,,,,,,,,,,,,,,,,,,11012,001,2024_Jan_02_1141,nback,2021.2.3,59.5886121356273,
1-back,instructions\back-1.png,conditions\1back-p.xlsx,instructions\1-BACK.png,"(25, 15)",practice,1,4,stim\gray.png,stim\gray.png,stim\gray.png,stim\yellow.png,right,1,0,1,0,0,1,1,1,0,9,9,9,,,,,,,,,,,,,,,,,,,,,,,,,,,359.65771530003985,360.6599575,359.65771530003985,360.6599575,359.65771530003985,360.6599575,359.65771530003985,360.6599575,right,1,0.3767281000036746,359.65771530003985,None,359.65771530003985,None,359.65771530003985,360.15855180000653,359.65771530003985,360.15855180000653,359.65771530003985,360.15855180000653,359.65771530003985,360.15855180000653,359.65771530003985,None,,,,,,,,,,,,,,,,,,,,,,,,,,,,,,,,,,,,,,,,,,11012,001,2024_Jan_02_1141,nback,2021.2.3,59.5886121356273,
1-back,instructions\back-1.png,conditions\1back-p.xlsx,instructions\1-BACK.png,"(25, 15)",practice,1,1,stim\yellow.png,stim\gray.png,stim\gray.png,stim\gray.png,down,1,0,1,0,0,1,1,1,0,10,10,10,,,,,,,,,,,,,,,,,,,,,,,,,,,361.16006090003066,362.1616900000372,361.16006090003066,362.1616900000372,361.16006090003066,362.1616900000372,361.16006090003066,362.1616900000372,down,1,0.3225993000087328,361.16006090003066,None,361.16006090003066,None,361.16006090003066,361.66122930002166,361.16006090003066,361.66122930002166,361.16006090003066,361.66122930002166,361.16006090003066,361.66122930002166,361.16006090003066,None,,,,,,,,,,,,,,,,,,,,,,,,,,,,,,,,,,,,,,,,,,11012,001,2024_Jan_02_1141,nback,2021.2.3,59.5886121356273,
1-back,instructions\back-1.png,conditions\1back-p.xlsx,instructions\1-BACK.png,"(25, 15)",practice,1,2,stim\gray.png,stim\yellow.png,stim\gray.png,stim\gray.png,up,1,0,1,0,0,1,1,1,0,11,11,11,,,,,,,,,,,,,,,,,,,,,,,,,,,362.66213770001195,363.6648214000161,362.66213770001195,363.6648214000161,362.66213770001195,363.6648214000161,362.66213770001195,363.6648214000161,up,1,0.34067700000014156,362.66213770001195,None,362.66213770001195,None,362.66213770001195,363.163802199997,362.66213770001195,363.163802199997,362.66213770001195,363.163802199997,362.66213770001195,363.163802199997,362.66213770001195,None,,,,,,,,,,,,,,,,,,,,,,,,,,,,,,,,,,,,,,,,,,11012,001,2024_Jan_02_1141,nback,2021.2.3,59.5886121356273,
1-back,instructions\back-1.png,conditions\1back-p.xlsx,instructions\1-BACK.png,"(25, 15)",practice,1,4,stim\gray.png,stim\gray.png,stim\gray.png,stim\yellow.png,left,1,0,1,0,0,1,1,1,0,12,12,12,,,,,,,,,,,,,,,,,,,,,,,,,,,364.16429470002186,365.1670076000155,364.16429470002186,365.1670076000155,364.16429470002186,365.1670076000155,364.16429470002186,365.1670076000155,left,1,0.367048500047531,364.16429470002186,None,364.16429470002186,None,364.16429470002186,364.6651489000069,364.16429470002186,364.6651489000069,364.16429470002186,364.6651489000069,364.16429470002186,364.6651489000069,364.16429470002186,None,,,,,,,,,,,,,,,,,,,,,,,,,,,,,,,,,,,,,,,,,,11012,001,2024_Jan_02_1141,nback,2021.2.3,59.5886121356273,
1-back,instructions\back-1.png,conditions\1back-p.xlsx,instructions\1-BACK.png,"(25, 15)",practice,1,3,stim\gray.png,stim\gray.png,stim\yellow.png,stim\gray.png,down,1,0,1,0,0,1,1,1,0,13,13,13,,,,,,,,,,,,,,,,,,,,,,,,,,,365.6669813999906,366.6685409999918,365.6669813999906,366.6685409999918,365.6669813999906,366.6685409999918,365.6669813999906,366.6685409999918,down,1,0.3275675000040792,365.6669813999906,None,365.6669813999906,None,365.6669813999906,366.1678299999912,365.6669813999906,366.1678299999912,365.6669813999906,366.1678299999912,365.6669813999906,366.1678299999912,365.6669813999906,None,,,,,,,,,,,,,,,,,,,,,,,,,,,,,,,,,,,,,,,,,,11012,001,2024_Jan_02_1141,nback,2021.2.3,59.5886121356273,
1-back,instructions\back-1.png,conditions\1back-p.xlsx,instructions\1-BACK.png,"(25, 15)",practice,1,1,stim\yellow.png,stim\gray.png,stim\gray.png,stim\gray.png,right,1,0,1,0,0,1,1,1,0,14,14,14,,,,,,,,,,,,,,,,,,,,,,,,,,,367.1523689000169,368.15485039999476,367.1523689000169,368.15485039999476,367.1523689000169,368.15485039999476,367.1523689000169,368.15485039999476,right,1,0.3868865000549704,367.1523689000169,None,367.1523689000169,None,367.1523689000169,367.65296330000274,367.1523689000169,367.65296330000274,367.1523689000169,367.65296330000274,367.1523689000169,367.65296330000274,367.1523689000169,None,,,,,,,,,,,,,,,,,,,,,,,,,,,,,,,,,,,,,,,,,,11012,001,2024_Jan_02_1141,nback,2021.2.3,59.5886121356273,
1-back,instructions\back-1.png,conditions\1back-p.xlsx,instructions\1-BACK.png,"(25, 15)",practice,1,2,stim\gray.png,stim\yellow.png,stim\gray.png,stim\gray.png,up,1,0,1,0,0,1,1,1,0,15,15,15,,,,,,,,,,,,,,,,,,,,,,,,,,,368.65447110001696,369.6565774999908,368.65447110001696,369.6565774999908,368.65447110001696,369.6565774999908,368.65447110001696,369.6565774999908,up,1,0.4850838000420481,368.65447110001696,None,368.65447110001696,None,368.65447110001696,369.1557051000418,368.65447110001696,369.1557051000418,368.65447110001696,369.1557051000418,368.65447110001696,369.1557051000418,368.65447110001696,None,,,,,,,,,,,,,,,,,,,,,,,,,,,,,,,,,,,,,,,,,,11012,001,2024_Jan_02_1141,nback,2021.2.3,59.5886121356273,
1-back,instructions\back-1.png,conditions\1back-p.xlsx,instructions\1-BACK.png,"(25, 15)",practice,1,3,stim\gray.png,stim\gray.png,stim\yellow.png,stim\gray.png,left,1,0,1,0,0,1,1,1,0,16,16,16,,,,,,,,,,,,,,,,,,,,,,,,,,,370.1565659000189,371.1582093000179,370.1565659000189,371.1582093000179,370.1565659000189,371.1582093000179,370.1565659000189,371.1582093000179,left,1,0.44627860002219677,370.1565659000189,None,370.1565659000189,None,370.1565659000189,370.6575620000367,370.1565659000189,370.6575620000367,370.1565659000189,370.6575620000367,370.1565659000189,370.6575620000367,370.1565659000189,None,,,,,,,,,,,,,,,,,,,,,,,,,,,,,,,,,,,,,,,,,,11012,001,2024_Jan_02_1141,nback,2021.2.3,59.5886121356273,
1-back,instructions\back-1.png,conditions\1back-p.xlsx,instructions\1-BACK.png,"(25, 15)",practice,1,1,stim\yellow.png,stim\gray.png,stim\gray.png,stim\gray.png,right,1,0,1,0,0,1,1,1,0,17,17,17,,,,,,,,,,,,,,,,,,,,,,,,,,,371.6588673000224,372.66054449998774,371.6588673000224,372.66054449998774,371.6588673000224,372.66054449998774,371.6588673000224,372.66054449998774,right,1,0.35969930002465844,371.6588673000224,None,371.6588673000224,None,371.6588673000224,372.16078690002905,371.6588673000224,372.16078690002905,371.6588673000224,372.16078690002905,371.6588673000224,372.16078690002905,371.6588673000224,None,,,,,,,,,,,,,,,,,,,,,,,,,,,,,,,,,,,,,,,,,,11012,001,2024_Jan_02_1141,nback,2021.2.3,59.5886121356273,
1-back,instructions\back-1.png,conditions\1back-p.xlsx,instructions\1-BACK.png,"(25, 15)",practice,1,4,stim\gray.png,stim\gray.png,stim\gray.png,stim\yellow.png,up,1,0,1,0,0,1,1,1,0,18,18,18,,,,,,,,,,,,,,,,,,,,,,,,,,,373.1611519000144,374.16230850003194,373.1611519000144,374.16230850003194,373.1611519000144,374.16230850003194,373.1611519000144,374.16230850003194,up,1,0.4414934000233188,373.1611519000144,None,373.1611519000144,None,373.1611519000144,373.6625761000323,373.1611519000144,373.6625761000323,373.1611519000144,373.6625761000323,373.1611519000144,373.6625761000323,373.1611519000144,None,,,,,,,,,,,,,,,,,,,,,,,,,,,,,,,,,,,,,,,,,,11012,001,2024_Jan_02_1141,nback,2021.2.3,59.5886121356273,
1-back,instructions\back-1.png,conditions\1back-p.xlsx,instructions\1-BACK.png,"(25, 15)",practice,1,2,stim\gray.png,stim\yellow.png,stim\gray.png,stim\gray.png,down,1,0,1,0,0,1,1,1,0,19,19,19,,,,,,,,,,,,,,,,,,,,,,,,,,,374.66312159999507,375.6656273000408,374.66312159999507,375.6656273000408,374.66312159999507,375.6656273000408,374.66312159999507,375.6656273000408,down,1,0.2916092000086792,374.66312159999507,None,374.66312159999507,None,374.66312159999507,375.1650640000007,374.66312159999507,375.1650640000007,374.66312159999507,375.1650640000007,374.66312159999507,375.1650640000007,374.66312159999507,None,,,,,,,,,,,,,,,,,,,,,,,,,,,,,,,,,,,,,,,,,,11012,001,2024_Jan_02_1141,nback,2021.2.3,59.5886121356273,
1-back,instructions\back-1.png,conditions\1back-p.xlsx,instructions\1-BACK.png,"(25, 15)",,,,,,,,,1,0,1,0,0,1,1,1,,,,,,,,,,,,,,,,,,,,,,,,,,,,,,,,,,,,,,,,,,,,,,,,,,,,,,,,,,,,,,,,,,,,,,,,,,,,,,,,,,,,,,,,,,,,,,,,,11012,001,2024_Jan_02_1141,nback,2021.2.3,59.5886121356273,
2-back,instructions\back-2.png,conditions\2back-p.xlsx,instructions\2-BACK.png,"(25, 15)",practice,2,1,stim\yellow.png,stim\gray.png,stim\gray.png,stim\gray.png,None,1,0,1,0,0,2,2,2,0,0,0,0,,,,,,,,,,,,,,,,,376.3155562999891,None,space,2.4949185000150464,376.3155562999891,None,378.9695597999962,383.4782419000403,383.4271059000166,None,383.8618686000118,384.8623041000101,383.8618686000118,384.8623041000101,383.8618686000118,384.8623041000101,383.8618686000118,384.8623041000101,None,1,,383.8618686000118,None,383.8618686000118,None,383.8618686000118,384.3616536000045,383.8618686000118,384.3616536000045,383.8618686000118,384.3616536000045,383.8618686000118,384.3616536000045,383.8618686000118,None,,,,,,,,,,,,,,,,,,,,,,,,,,,,,,,,,,,,,,,,,,11012,001,2024_Jan_02_1141,nback,2021.2.3,59.5886121356273,
2-back,instructions\back-2.png,conditions\2back-p.xlsx,instructions\2-BACK.png,"(25, 15)",practice,2,2,stim\gray.png,stim\yellow.png,stim\gray.png,stim\gray.png,None,1,0,1,0,0,2,2,2,0,1,1,1,,,,,,,,,,,,,,,,,,,,,,,,,,,385.3459073000122,386.3482400000212,385.3459073000122,386.3482400000212,385.3459073000122,386.3482400000212,385.3459073000122,386.3482400000212,None,1,,385.3459073000122,None,385.3459073000122,None,385.3459073000122,385.84742510004435,385.3459073000122,385.84742510004435,385.3459073000122,385.84742510004435,385.3459073000122,385.84742510004435,385.3459073000122,None,,,,,,,,,,,,,,,,,,,,,,,,,,,,,,,,,,,,,,,,,,11012,001,2024_Jan_02_1141,nback,2021.2.3,59.5886121356273,
2-back,instructions\back-2.png,conditions\2back-p.xlsx,instructions\2-BACK.png,"(25, 15)",practice,2,3,stim\gray.png,stim\gray.png,stim\yellow.png,stim\gray.png,up,1,0,1,0,0,2,2,2,0,2,2,2,,,,,,,,,,,,,,,,,,,,,,,,,,,386.84793990000617,387.85016400000313,386.84793990000617,387.85016400000313,386.84793990000617,387.85016400000313,386.84793990000617,387.85016400000313,up,1,0.9947852999903262,386.84793990000617,None,386.84793990000617,None,386.84793990000617,387.35016860003816,386.84793990000617,387.35016860003816,386.84793990000617,387.35016860003816,386.84793990000617,387.35016860003816,386.84793990000617,None,,,,,,,,,,,,,,,,,,,,,,,,,,,,,,,,,,,,,,,,,,11012,001,2024_Jan_02_1141,nback,2021.2.3,59.5886121356273,
2-back,instructions\back-2.png,conditions\2back-p.xlsx,instructions\2-BACK.png,"(25, 15)",practice,2,4,stim\gray.png,stim\gray.png,stim\gray.png,stim\yellow.png,left,1,0,1,0,0,2,2,2,0,3,3,3,,,,,,,,,,,,,,,,,,,,,,,,,,,388.3511079000309,389.35296079999534,388.3511079000309,389.35296079999534,388.3511079000309,389.35296079999534,388.3511079000309,389.35296079999534,right,0,1.0515061999903992,388.3511079000309,None,388.3511079000309,None,388.3511079000309,388.85098590003327,388.3511079000309,388.85098590003327,388.3511079000309,388.85098590003327,388.3511079000309,388.85098590003327,388.3511079000309,None,,,,,,,,,,,,,,,,,,,,,,,,,,,,,,,,,,,,,,,,,,11012,001,2024_Jan_02_1141,nback,2021.2.3,59.5886121356273,
2-back,instructions\back-2.png,conditions\2back-p.xlsx,instructions\2-BACK.png,"(25, 15)",practice,2,2,stim\gray.png,stim\yellow.png,stim\gray.png,stim\gray.png,right,1,0,1,0,0,2,2,2,0,4,4,4,,,,,,,,,,,,,,,,,,,,,,,,,,,389.8532527000061,390.8552025000099,389.8532527000061,390.8552025000099,389.8532527000061,390.8552025000099,389.8532527000061,390.8552025000099,down,0,0.27732079999987036,389.8532527000061,None,389.8532527000061,None,389.8532527000061,390.35477700002957,389.8532527000061,390.35477700002957,389.8532527000061,390.35477700002957,389.8532527000061,390.35477700002957,389.8532527000061,None,,,,,,,,,,,,,,,,,,,,,,,,,,,,,,,,,,,,,,,,,,11012,001,2024_Jan_02_1141,nback,2021.2.3,59.5886121356273,
2-back,instructions\back-2.png,conditions\2back-p.xlsx,instructions\2-BACK.png,"(25, 15)",practice,2,1,stim\yellow.png,stim\gray.png,stim\gray.png,stim\gray.png,down,1,0,1,0,0,2,2,2,0,5,5,5,,,,,,,,,,,,,,,,,,,,,,,,,,,391.3546944000409,392.356950699992,391.3546944000409,392.356950699992,391.3546944000409,392.356950699992,391.3546944000409,392.356950699992,None,0,,391.3546944000409,None,391.3546944000409,None,391.3546944000409,391.85645750002004,391.3546944000409,391.85645750002004,391.3546944000409,391.85645750002004,391.3546944000409,391.85645750002004,391.3546944000409,None,,,,,,,,,,,,,,,,,,,,,,,,,,,,,,,,,,,,,,,,,,11012,001,2024_Jan_02_1141,nback,2021.2.3,59.5886121356273,
2-back,instructions\back-2.png,conditions\2back-p.xlsx,instructions\2-BACK.png,"(25, 15)",practice,2,4,stim\gray.png,stim\gray.png,stim\gray.png,stim\yellow.png,left,1,0,1,0,0,2,2,2,0,6,6,6,,,,,,,,,,,,,,,,,,,,,,,,,,,392.8401790999924,393.842444000009,392.8401790999924,393.842444000009,392.8401790999924,393.842444000009,392.8401790999924,393.842444000009,None,0,,392.8401790999924,None,392.8401790999924,None,392.8401790999924,393.3418826000416,392.8401790999924,393.3418826000416,392.8401790999924,393.3418826000416,392.8401790999924,393.3418826000416,392.8401790999924,None,,,,,,,,,,,,,,,,,,,,,,,,,,,,,,,,,,,,,,,,,,11012,001,2024_Jan_02_1141,nback,2021.2.3,59.5886121356273,
2-back,instructions\back-2.png,conditions\2back-p.xlsx,instructions\2-BACK.png,"(25, 15)",practice,2,3,stim\gray.png,stim\gray.png,stim\yellow.png,stim\gray.png,up,1,0,1,0,0,2,2,2,0,7,7,7,,,,,,,,,,,,,,,,,,,,,,,,,,,394.3422709000297,395.34468800004106,394.3422709000297,395.34468800004106,394.3422709000297,395.34468800004106,394.3422709000297,395.34468800004106,None,0,,394.3422709000297,None,394.3422709000297,None,394.3422709000297,394.84401840000646,394.3422709000297,394.84401840000646,394.3422709000297,394.84401840000646,394.3422709000297,394.84401840000646,394.3422709000297,None,,,,,,,,,,,,,,,,,,,,,,,,,,,,,,,,,,,,,,,,,,11012,001,2024_Jan_02_1141,nback,2021.2.3,59.5886121356273,
2-back,instructions\back-2.png,conditions\2back-p.xlsx,instructions\2-BACK.png,"(25, 15)",practice,2,3,stim\gray.png,stim\gray.png,stim\yellow.png,stim\gray.png,down,1,0,1,0,0,2,2,2,0,8,8,8,,,,,,,,,,,,,,,,,,,,,,,,,,,395.84528770000907,396.84650350001175,395.84528770000907,396.84650350001175,395.84528770000907,396.84650350001175,395.84528770000907,396.84650350001175,None,0,,395.84528770000907,None,395.84528770000907,None,395.84528770000907,396.346372400003,395.84528770000907,396.346372400003,395.84528770000907,396.346372400003,395.84528770000907,396.346372400003,395.84528770000907,None,,,,,,,,,,,,,,,,,,,,,,,,,,,,,,,,,,,,,,,,,,11012,001,2024_Jan_02_1141,nback,2021.2.3,59.5886121356273,
2-back,instructions\back-2.png,conditions\2back-p.xlsx,instructions\2-BACK.png,"(25, 15)",practice,2,4,stim\gray.png,stim\gray.png,stim\gray.png,stim\yellow.png,right,1,0,1,0,0,2,2,2,0,9,9,9,,,,,,,,,,,,,,,,,,,,,,,,,,,397.34703830000944,398.34949930000585,397.34703830000944,398.34949930000585,397.34703830000944,398.34949930000585,397.34703830000944,398.34949930000585,None,0,,397.34703830000944,None,397.34703830000944,None,397.34703830000944,397.84820460004266,397.34703830000944,397.84820460004266,397.34703830000944,397.84820460004266,397.34703830000944,397.84820460004266,397.34703830000944,None,,,,,,,,,,,,,,,,,,,,,,,,,,,,,,,,,,,,,,,,,,11012,001,2024_Jan_02_1141,nback,2021.2.3,59.5886121356273,
2-back,instructions\back-2.png,conditions\2back-p.xlsx,instructions\2-BACK.png,"(25, 15)",practice,2,1,stim\yellow.png,stim\gray.png,stim\gray.png,stim\gray.png,right,1,0,1,0,0,2,2,2,0,10,10,10,,,,,,,,,,,,,,,,,,,,,,,,,,,398.849192099995,399.85140560002765,398.849192099995,399.85140560002765,398.849192099995,399.85140560002765,398.849192099995,399.85140560002765,up,0,0.6662190000060946,398.849192099995,None,398.849192099995,None,398.849192099995,399.3505385000026,398.849192099995,399.3505385000026,398.849192099995,399.3505385000026,398.849192099995,399.3505385000026,398.849192099995,None,,,,,,,,,,,,,,,,,,,,,,,,,,,,,,,,,,,,,,,,,,11012,001,2024_Jan_02_1141,nback,2021.2.3,59.5886121356273,
2-back,instructions\back-2.png,conditions\2back-p.xlsx,instructions\2-BACK.png,"(25, 15)",practice,2,2,stim\gray.png,stim\yellow.png,stim\gray.png,stim\gray.png,down,1,0,1,0,0,2,2,2,0,11,11,11,,,,,,,,,,,,,,,,,,,,,,,,,,,400.3514232999878,401.35368210001616,400.3514232999878,401.35368210001616,400.3514232999878,401.35368210001616,400.3514232999878,401.35368210001616,None,0,,400.3514232999878,None,400.3514232999878,None,400.3514232999878,400.8529055000399,400.3514232999878,400.8529055000399,400.3514232999878,400.8529055000399,400.3514232999878,400.8529055000399,400.3514232999878,None,,,,,,,,,,,,,,,,,,,,,,,,,,,,,,,,,,,,,,,,,,11012,001,2024_Jan_02_1141,nback,2021.2.3,59.5886121356273,
2-back,instructions\back-2.png,conditions\2back-p.xlsx,instructions\2-BACK.png,"(25, 15)",practice,2,4,stim\gray.png,stim\gray.png,stim\gray.png,stim\yellow.png,up,1,0,1,0,0,2,2,2,0,12,12,12,,,,,,,,,,,,,,,,,,,,,,,,,,,401.8546589000034,402.8555295999977,401.8546589000034,402.8555295999977,401.8546589000034,402.8555295999977,401.8546589000034,402.8555295999977,None,0,,401.8546589000034,None,401.8546589000034,None,401.8546589000034,402.3544090000214,401.8546589000034,402.3544090000214,401.8546589000034,402.3544090000214,401.8546589000034,402.3544090000214,401.8546589000034,None,,,,,,,,,,,,,,,,,,,,,,,,,,,,,,,,,,,,,,,,,,11012,001,2024_Jan_02_1141,nback,2021.2.3,59.5886121356273,
2-back,instructions\back-2.png,conditions\2back-p.xlsx,instructions\2-BACK.png,"(25, 15)",practice,2,3,stim\gray.png,stim\gray.png,stim\yellow.png,stim\gray.png,left,1,0,1,0,0,2,2,2,0,13,13,13,,,,,,,,,,,,,,,,,,,,,,,,,,,403.35658040002454,404.3577755000442,403.35658040002454,404.3577755000442,403.35658040002454,404.3577755000442,403.35658040002454,404.3577755000442,None,0,,403.35658040002454,None,403.35658040002454,None,403.35658040002454,403.8575129000237,403.35658040002454,403.8575129000237,403.35658040002454,403.8575129000237,403.35658040002454,403.8575129000237,403.35658040002454,None,,,,,,,,,,,,,,,,,,,,,,,,,,,,,,,,,,,,,,,,,,11012,001,2024_Jan_02_1141,nback,2021.2.3,59.5886121356273,
2-back,instructions\back-2.png,conditions\2back-p.xlsx,instructions\2-BACK.png,"(25, 15)",practice,2,1,stim\yellow.png,stim\gray.png,stim\gray.png,stim\gray.png,down,1,0,1,0,0,2,2,2,0,14,14,14,,,,,,,,,,,,,,,,,,,,,,,,,,,404.84132850001333,405.8440429000184,404.84132850001333,405.8440429000184,404.84132850001333,405.8440429000184,404.84132850001333,405.8440429000184,None,0,,404.84132850001333,None,404.84132850001333,None,404.84132850001333,405.3433182000299,404.84132850001333,405.3433182000299,404.84132850001333,405.3433182000299,404.84132850001333,405.3433182000299,404.84132850001333,None,,,,,,,,,,,,,,,,,,,,,,,,,,,,,,,,,,,,,,,,,,11012,001,2024_Jan_02_1141,nback,2021.2.3,59.5886121356273,
2-back,instructions\back-2.png,conditions\2back-p.xlsx,instructions\2-BACK.png,"(25, 15)",practice,2,2,stim\gray.png,stim\yellow.png,stim\gray.png,stim\gray.png,right,1,0,1,0,0,2,2,2,0,15,15,15,,,,,,,,,,,,,,,,,,,,,,,,,,,406.3435960999923,407.34522280003875,406.3435960999923,407.34522280003875,406.3435960999923,407.34522280003875,406.3435960999923,407.34522280003875,right,1,1.0431864999700338,406.3435960999923,None,406.3435960999923,None,406.3435960999923,406.8445592999924,406.3435960999923,406.8445592999924,406.3435960999923,406.8445592999924,406.3435960999923,406.8445592999924,406.3435960999923,None,,,,,,,,,,,,,,,,,,,,,,,,,,,,,,,,,,,,,,,,,,11012,001,2024_Jan_02_1141,nback,2021.2.3,59.5886121356273,
2-back,instructions\back-2.png,conditions\2back-p.xlsx,instructions\2-BACK.png,"(25, 15)",practice,2,3,stim\gray.png,stim\gray.png,stim\yellow.png,stim\gray.png,up,1,0,1,0,0,2,2,2,0,16,16,16,,,,,,,,,,,,,,,,,,,,,,,,,,,407.84585560002597,408.8478013999993,407.84585560002597,408.8478013999993,407.84585560002597,408.8478013999993,407.84585560002597,408.8478013999993,up,1,0.6446906999917701,407.84585560002597,None,407.84585560002597,None,407.84585560002597,408.34670630004257,407.84585560002597,408.34670630004257,407.84585560002597,408.34670630004257,407.84585560002597,408.34670630004257,407.84585560002597,None,,,,,,,,,,,,,,,,,,,,,,,,,,,,,,,,,,,,,,,,,,11012,001,2024_Jan_02_1141,nback,2021.2.3,59.5886121356273,
2-back,instructions\back-2.png,conditions\2back-p.xlsx,instructions\2-BACK.png,"(25, 15)",practice,2,1,stim\yellow.png,stim\gray.png,stim\gray.png,stim\gray.png,left,1,0,1,0,0,2,2,2,0,17,17,17,,,,,,,,,,,,,,,,,,,,,,,,,,,409.34796919999644,410.350321200036,409.34796919999644,410.350321200036,409.34796919999644,410.350321200036,409.34796919999644,410.350321200036,right,0,0.7425252999528311,409.34796919999644,None,409.34796919999644,None,409.34796919999644,409.84963330003666,409.34796919999644,409.84963330003666,409.34796919999644,409.84963330003666,409.34796919999644,409.84963330003666,409.34796919999644,None,,,,,,,,,,,,,,,,,,,,,,,,,,,,,,,,,,,,,,,,,,11012,001,2024_Jan_02_1141,nback,2021.2.3,59.5886121356273,
2-back,instructions\back-2.png,conditions\2back-p.xlsx,instructions\2-BACK.png,"(25, 15)",practice,2,4,stim\gray.png,stim\gray.png,stim\gray.png,stim\yellow.png,right,1,0,1,0,0,2,2,2,0,18,18,18,,,,,,,,,,,,,,,,,,,,,,,,,,,410.8510027999873,411.85234859999036,410.8510027999873,411.85234859999036,410.8510027999873,411.85234859999036,410.8510027999873,411.85234859999036,up,0,0.3595390999689698,410.8510027999873,None,410.8510027999873,None,410.8510027999873,411.35126670001773,410.8510027999873,411.35126670001773,410.8510027999873,411.35126670001773,410.8510027999873,411.35126670001773,410.8510027999873,None,,,,,,,,,,,,,,,,,,,,,,,,,,,,,,,,,,,,,,,,,,11012,001,2024_Jan_02_1141,nback,2021.2.3,59.5886121356273,
2-back,instructions\back-2.png,conditions\2back-p.xlsx,instructions\2-BACK.png,"(25, 15)",practice,2,2,stim\gray.png,stim\yellow.png,stim\gray.png,stim\gray.png,up,1,0,1,0,0,2,2,2,0,19,19,19,,,,,,,,,,,,,,,,,,,,,,,,,,,412.3524543000385,413.3539580000215,412.3524543000385,413.3539580000215,412.3524543000385,413.3539580000215,412.3524543000385,413.3539580000215,None,0,,412.3524543000385,None,412.3524543000385,None,412.3524543000385,412.8537718000007,412.3524543000385,412.8537718000007,412.3524543000385,412.8537718000007,412.3524543000385,412.8537718000007,412.3524543000385,None,,,,,,,,,,,,,,,,,,,,,,,,,,,,,,,,,,,,,,,,,,11012,001,2024_Jan_02_1141,nback,2021.2.3,59.5886121356273,
2-back,instructions\back-2.png,conditions\2back-p.xlsx,instructions\2-BACK.png,"(25, 15)",,,,,,,,,1,0,1,0,0,2,2,2,,,,,,,,,,,,,,,,,,,,,,,,,,,,,,,,,,,,,,,,,,,,,,,,,,,,,,,,,,,,,,,,,,,,,,,,,,,,,,,,,,,,,,,,,,,,,,,,,11012,001,2024_Jan_02_1141,nback,2021.2.3,59.5886121356273,
,,,,,,,,,,,,,1,0,1,0,,,,,,,,,,,,,,,,,,,,,,,,,,,,,,,,,,,,,,,,,,,,,,,,,,,,,,,,,,,,413.85547690000385,None,s,5.307664099964313,413.85547690000385,None,,,,,,,,,,,,,,,,,,,,,,,,,,,,,,,,,,,,11012,001,2024_Jan_02_1141,nback,2021.2.3,59.5886121356273,
0-back,instructions\back-0.png,conditions\0back-p.xlsx,instructions\0-BACK.png,"(15, 8)",practice,0,1,stim\yellow.png,stim\gray.png,stim\gray.png,stim\gray.png,up,2,0,2,0,0,0,0,0,0,0,0,0,,,,,,,,,,,,,,,,,419.2457766000298,None,space,12.524911999993492,419.2457766000298,None,431.9647188000381,436.4721436999971,436.42224019998685,None,436.8225197000429,437.8243582000141,436.8225197000429,437.8243582000141,436.8225197000429,437.8243582000141,436.8225197000429,437.8243582000141,up,1,0.6361349999788217,436.8225197000429,None,436.8225197000429,None,436.8225197000429,437.3232742000255,436.8225197000429,437.3232742000255,436.8225197000429,437.3232742000255,436.8225197000429,437.3232742000255,436.8225197000429,None,,,,,,,,,,,,,,,,,,,,,,,,,,,,,,,,,,,,,,,,,,11012,001,2024_Jan_02_1141,nback,2021.2.3,59.5886121356273,
0-back,instructions\back-0.png,conditions\0back-p.xlsx,instructions\0-BACK.png,"(15, 8)",practice,0,2,stim\gray.png,stim\yellow.png,stim\gray.png,stim\gray.png,left,2,0,2,0,0,0,0,0,0,1,1,1,,,,,,,,,,,,,,,,,,,,,,,,,,,438.30843760003336,439.3091254000319,438.30843760003336,439.3091254000319,438.30843760003336,439.3091254000319,438.30843760003336,439.3091254000319,left,1,0.30211079999571666,438.30843760003336,None,438.30843760003336,None,438.30843760003336,438.8083549000439,438.30843760003336,438.8083549000439,438.30843760003336,438.8083549000439,438.30843760003336,438.8083549000439,438.30843760003336,None,,,,,,,,,,,,,,,,,,,,,,,,,,,,,,,,,,,,,,,,,,11012,001,2024_Jan_02_1141,nback,2021.2.3,59.5886121356273,
0-back,instructions\back-0.png,conditions\0back-p.xlsx,instructions\0-BACK.png,"(15, 8)",practice,0,3,stim\gray.png,stim\gray.png,stim\yellow.png,stim\gray.png,right,2,0,2,0,0,0,0,0,0,2,2,2,,,,,,,,,,,,,,,,,,,,,,,,,,,439.80973099998664,440.81193850003183,439.80973099998664,440.81193850003183,439.80973099998664,440.81193850003183,439.80973099998664,440.81193850003183,right,1,0.3048479999997653,439.80973099998664,None,439.80973099998664,None,439.80973099998664,440.3105643999879,439.80973099998664,440.3105643999879,439.80973099998664,440.3105643999879,439.80973099998664,440.3105643999879,439.80973099998664,None,,,,,,,,,,,,,,,,,,,,,,,,,,,,,,,,,,,,,,,,,,11012,001,2024_Jan_02_1141,nback,2021.2.3,59.5886121356273,
0-back,instructions\back-0.png,conditions\0back-p.xlsx,instructions\0-BACK.png,"(15, 8)",practice,0,4,stim\gray.png,stim\gray.png,stim\gray.png,stim\yellow.png,down,2,0,2,0,0,0,0,0,0,3,3,3,,,,,,,,,,,,,,,,,,,,,,,,,,,441.3121780999936,442.3150528999977,441.3121780999936,442.3150528999977,441.3121780999936,442.3150528999977,441.3121780999936,442.3150528999977,down,1,0.2828431999660097,441.3121780999936,None,441.3121780999936,None,441.3121780999936,441.8128665999975,441.3121780999936,441.8128665999975,441.3121780999936,441.8128665999975,441.3121780999936,441.8128665999975,441.3121780999936,None,,,,,,,,,,,,,,,,,,,,,,,,,,,,,,,,,,,,,,,,,,11012,001,2024_Jan_02_1141,nback,2021.2.3,59.5886121356273,
0-back,instructions\back-0.png,conditions\0back-p.xlsx,instructions\0-BACK.png,"(15, 8)",practice,0,2,stim\gray.png,stim\yellow.png,stim\gray.png,stim\gray.png,left,2,0,2,0,0,0,0,0,0,4,4,4,,,,,,,,,,,,,,,,,,,,,,,,,,,442.81428970000707,443.81571039999835,442.81428970000707,443.81571039999835,442.81428970000707,443.81571039999835,442.81428970000707,443.81571039999835,left,1,0.29254699999000877,442.81428970000707,None,442.81428970000707,None,442.81428970000707,443.31598880002275,442.81428970000707,443.31598880002275,442.81428970000707,443.31598880002275,442.81428970000707,443.31598880002275,442.81428970000707,None,,,,,,,,,,,,,,,,,,,,,,,,,,,,,,,,,,,,,,,,,,11012,001,2024_Jan_02_1141,nback,2021.2.3,59.5886121356273,
0-back,instructions\back-0.png,conditions\0back-p.xlsx,instructions\0-BACK.png,"(15, 8)",practice,0,1,stim\yellow.png,stim\gray.png,stim\gray.png,stim\gray.png,up,2,0,2,0,0,0,0,0,0,5,5,5,,,,,,,,,,,,,,,,,,,,,,,,,,,444.31654430000344,445.3192188999965,444.31654430000344,445.3192188999965,444.31654430000344,445.3192188999965,444.31654430000344,445.3192188999965,up,1,0.29399129998637363,444.31654430000344,None,444.31654430000344,None,444.31654430000344,444.81732620002003,444.31654430000344,444.81732620002003,444.31654430000344,444.81732620002003,444.31654430000344,444.81732620002003,444.31654430000344,None,,,,,,,,,,,,,,,,,,,,,,,,,,,,,,,,,,,,,,,,,,11012,001,2024_Jan_02_1141,nback,2021.2.3,59.5886121356273,
0-back,instructions\back-0.png,conditions\0back-p.xlsx,instructions\0-BACK.png,"(15, 8)",practice,0,4,stim\gray.png,stim\gray.png,stim\gray.png,stim\yellow.png,down,2,0,2,0,0,0,0,0,0,6,6,6,,,,,,,,,,,,,,,,,,,,,,,,,,,445.8192605000222,446.8209929000004,445.8192605000222,446.8209929000004,445.8192605000222,446.8209929000004,445.8192605000222,446.8209929000004,down,1,0.6394094999996014,445.8192605000222,None,445.8192605000222,None,445.8192605000222,446.3198377999943,445.8192605000222,446.3198377999943,445.8192605000222,446.3198377999943,445.8192605000222,446.3198377999943,445.8192605000222,None,,,,,,,,,,,,,,,,,,,,,,,,,,,,,,,,,,,,,,,,,,11012,001,2024_Jan_02_1141,nback,2021.2.3,59.5886121356273,
0-back,instructions\back-0.png,conditions\0back-p.xlsx,instructions\0-BACK.png,"(15, 8)",practice,0,3,stim\gray.png,stim\gray.png,stim\yellow.png,stim\gray.png,right,2,0,2,0,0,0,0,0,0,7,7,7,,,,,,,,,,,,,,,,,,,,,,,,,,,447.3040793000255,448.30592720001005,447.3040793000255,448.30592720001005,447.3040793000255,448.30592720001005,447.3040793000255,448.30592720001005,right,1,0.37865279999095947,447.3040793000255,None,447.3040793000255,None,447.3040793000255,447.8057433000067,447.3040793000255,447.8057433000067,447.3040793000255,447.8057433000067,447.3040793000255,447.8057433000067,447.3040793000255,None,,,,,,,,,,,,,,,,,,,,,,,,,,,,,,,,,,,,,,,,,,11012,001,2024_Jan_02_1141,nback,2021.2.3,59.5886121356273,
0-back,instructions\back-0.png,conditions\0back-p.xlsx,instructions\0-BACK.png,"(15, 8)",practice,0,3,stim\gray.png,stim\gray.png,stim\yellow.png,stim\gray.png,right,2,0,2,0,0,0,0,0,0,8,8,8,,,,,,,,,,,,,,,,,,,,,,,,,,,448.80756310001016,449.80848730000434,448.80756310001016,449.80848730000434,448.80756310001016,449.80848730000434,448.80756310001016,449.80848730000434,right,1,0.6032314000185579,448.80756310001016,None,448.80756310001016,None,448.80756310001016,449.30751030001557,448.80756310001016,449.30751030001557,448.80756310001016,449.30751030001557,448.80756310001016,449.30751030001557,448.80756310001016,None,,,,,,,,,,,,,,,,,,,,,,,,,,,,,,,,,,,,,,,,,,11012,001,2024_Jan_02_1141,nback,2021.2.3,59.5886121356273,
0-back,instructions\back-0.png,conditions\0back-p.xlsx,instructions\0-BACK.png,"(15, 8)",practice,0,4,stim\gray.png,stim\gray.png,stim\gray.png,stim\yellow.png,down,2,0,2,0,0,0,0,0,0,9,9,9,,,,,,,,,,,,,,,,,,,,,,,,,,,450.30884330003755,451.3109526000335,450.30884330003755,451.3109526000335,450.30884330003755,451.3109526000335,450.30884330003755,451.3109526000335,down,1,0.509837299992796,450.30884330003755,None,450.30884330003755,None,450.30884330003755,450.8098311999929,450.30884330003755,450.8098311999929,450.30884330003755,450.8098311999929,450.30884330003755,450.8098311999929,450.30884330003755,None,,,,,,,,,,,,,,,,,,,,,,,,,,,,,,,,,,,,,,,,,,11012,001,2024_Jan_02_1141,nback,2021.2.3,59.5886121356273,
0-back,instructions\back-0.png,conditions\0back-p.xlsx,instructions\0-BACK.png,"(15, 8)",practice,0,1,stim\yellow.png,stim\gray.png,stim\gray.png,stim\gray.png,up,2,0,2,0,0,0,0,0,0,10,10,10,,,,,,,,,,,,,,,,,,,,,,,,,,,451.8109798000078,452.8131683000247,451.8109798000078,452.8131683000247,451.8109798000078,452.8131683000247,451.8109798000078,452.8131683000247,up,1,0.4479570999974385,451.8109798000078,None,451.8109798000078,None,451.8109798000078,452.31223000003956,451.8109798000078,452.31223000003956,451.8109798000078,452.31223000003956,451.8109798000078,452.31223000003956,451.8109798000078,None,,,,,,,,,,,,,,,,,,,,,,,,,,,,,,,,,,,,,,,,,,11012,001,2024_Jan_02_1141,nback,2021.2.3,59.5886121356273,
0-back,instructions\back-0.png,conditions\0back-p.xlsx,instructions\0-BACK.png,"(15, 8)",practice,0,2,stim\gray.png,stim\yellow.png,stim\gray.png,stim\gray.png,left,2,0,2,0,0,0,0,0,0,11,11,11,,,,,,,,,,,,,,,,,,,,,,,,,,,453.31328659999417,454.31469600001583,453.31328659999417,454.31469600001583,453.31328659999417,454.31469600001583,453.31328659999417,454.31469600001583,left,1,0.32955399999627843,453.31328659999417,None,453.31328659999417,None,453.31328659999417,453.8146430000197,453.31328659999417,453.8146430000197,453.31328659999417,453.8146430000197,453.31328659999417,453.8146430000197,453.31328659999417,None,,,,,,,,,,,,,,,,,,,,,,,,,,,,,,,,,,,,,,,,,,11012,001,2024_Jan_02_1141,nback,2021.2.3,59.5886121356273,
0-back,instructions\back-0.png,conditions\0back-p.xlsx,instructions\0-BACK.png,"(15, 8)",practice,0,4,stim\gray.png,stim\gray.png,stim\gray.png,stim\yellow.png,down,2,0,2,0,0,0,0,0,0,12,12,12,,,,,,,,,,,,,,,,,,,,,,,,,,,454.816175999993,455.81755360000534,454.816175999993,455.81755360000534,454.816175999993,455.81755360000534,454.816175999993,455.81755360000534,down,1,0.40244249999523163,454.816175999993,None,454.816175999993,None,454.816175999993,455.31620589998784,454.816175999993,455.31620589998784,454.816175999993,455.31620589998784,454.816175999993,455.31620589998784,454.816175999993,None,,,,,,,,,,,,,,,,,,,,,,,,,,,,,,,,,,,,,,,,,,11012,001,2024_Jan_02_1141,nback,2021.2.3,59.5886121356273,
0-back,instructions\back-0.png,conditions\0back-p.xlsx,instructions\0-BACK.png,"(15, 8)",practice,0,3,stim\gray.png,stim\gray.png,stim\yellow.png,stim\gray.png,right,2,0,2,0,0,0,0,0,0,13,13,13,,,,,,,,,,,,,,,,,,,,,,,,,,,456.31765680003446,457.31988419999834,456.31765680003446,457.31988419999834,456.31765680003446,457.31988419999834,456.31765680003446,457.31988419999834,right,1,0.27694359997985885,456.31765680003446,None,456.31765680003446,None,456.31765680003446,456.8185383999953,456.31765680003446,456.8185383999953,456.31765680003446,456.8185383999953,456.31765680003446,456.8185383999953,456.31765680003446,None,,,,,,,,,,,,,,,,,,,,,,,,,,,,,,,,,,,,,,,,,,11012,001,2024_Jan_02_1141,nback,2021.2.3,59.5886121356273,
