backseq,backinstr,backfile,instruction,size_in,Trialtype,back,number,P1,P2,P3,P4,corrAns,trials_practice.thisRepN,trials_practice.thisTrialN,trials_practice.thisN,trials_practice.thisIndex,trials.thisRepN,trials.thisTrialN,trials.thisN,trials.thisIndex,trials_3.thisRepN,trials_3.thisTrialN,trials_3.thisN,trials_3.thisIndex,trials_2.thisRepN,trials_2.thisTrialN,trials_2.thisN,trials_2.thisIndex,trials_4.thisRepN,trials_4.thisTrialN,trials_4.thisN,trials_4.thisIndex,image.started,image.stopped,image_2.started,image_2.stopped,key_resp.keys,key_resp.rt,key_resp.started,key_resp.stopped,image_3.started,image_3.stopped,key_resp_2.keys,key_resp_2.rt,key_resp_2.started,key_resp_2.stopped,image_4.started,image_4.stopped,text.started,text.stopped,H1.started,H1.stopped,H2.started,H2.stopped,H3.started,H3.stopped,H4.started,H4.stopped,key_resp_3.keys,key_resp_3.corr,key_resp_3.rt,key_resp_3.started,key_resp_3.stopped,text_4.started,text_4.stopped,F1.started,F1.stopped,F2.started,F2.stopped,F3.started,F3.stopped,F4.started,F4.stopped,image_7.started,image_7.stopped,text_5.started,text_5.stopped,key_resp_6.keys,key_resp_6.rt,key_resp_6.started,key_resp_6.stopped,image_5.started,image_5.stopped,key_resp_4.keys,key_resp_4.rt,key_resp_4.started,key_resp_4.stopped,key_resp_5.keys,key_resp_5.corr,key_resp_5.rt,key_resp_5.started,key_resp_5.stopped,text_3.started,text_3.stopped,H1_2.started,H1_2.stopped,H2_2.started,H2_2.stopped,H3_2.started,H3_2.stopped,H4_2.started,H4_2.stopped,F1_2.started,F1_2.stopped,F2_2.started,F2_2.stopped,F3_2.started,F3_2.stopped,F4_2.started,F4_2.stopped,image_8.started,image_8.stopped,text_2.started,text_2.stopped,image_6.started,image_6.stopped,participant,session,date,expName,psychopyVersion,frameRate,
,,,,,,,,,,,,,,,,,,,,,,,,,,,,,,,,,9.429613500018604,None,10.399282300029881,None,space,10.837691500084475,10.399282300029881,None,,,,,,,,,,,,,,,,,,,,,,,,,,,,,,,,,,,,,,,,,,,,,,,,,,,,,,,,,,,,,,,,,,,,,,,,,,,,,11014,001,2024_Jan_04_1032,nback,2021.2.3,59.85780179641349,
0-back,instructions\back-0.png,conditions\0back-p.xlsx,instructions\0-BACK.png,"(15, 8)",practice,0,1,stim\yellow.png,stim\gray.png,stim\gray.png,stim\gray.png,up,0,0,0,0,0,0,0,0,0,0,0,0,,,,,,,,,,,,,,,,,21.314594399998896,None,space,55.88258139998652,21.314594399998896,None,77.3302956999978,81.83803580002859,81.80483839998487,None,82.23874499998055,83.23967150005046,82.23874499998055,83.23967150005046,82.23874499998055,83.23967150005046,82.23874499998055,83.23967150005046,up,1,0.8468421000288799,82.23874499998055,None,82.23874499998055,None,82.23874499998055,82.738830300048,82.23874499998055,82.738830300048,82.23874499998055,82.738830300048,82.23874499998055,82.738830300048,82.23874499998055,None,,,,,,,,,,,,,,,,,,,,,,,,,,,,,,,,,,,,,,,,,,11014,001,2024_Jan_04_1032,nback,2021.2.3,59.85780179641349,
0-back,instructions\back-0.png,conditions\0back-p.xlsx,instructions\0-BACK.png,"(15, 8)",practice,0,2,stim\gray.png,stim\yellow.png,stim\gray.png,stim\gray.png,left,0,0,0,0,0,0,0,0,0,1,1,1,,,,,,,,,,,,,,,,,,,,,,,,,,,83.72348539996892,84.72514550003689,83.72348539996892,84.72514550003689,83.72348539996892,84.72514550003689,83.72348539996892,84.72514550003689,left,1,0.45785310002975166,83.72348539996892,None,83.72348539996892,None,83.72348539996892,84.22418080002535,83.72348539996892,84.22418080002535,83.72348539996892,84.22418080002535,83.72348539996892,84.22418080002535,83.72348539996892,None,,,,,,,,,,,,,,,,,,,,,,,,,,,,,,,,,,,,,,,,,,11014,001,2024_Jan_04_1032,nback,2021.2.3,59.85780179641349,
0-back,instructions\back-0.png,conditions\0back-p.xlsx,instructions\0-BACK.png,"(15, 8)",practice,0,3,stim\gray.png,stim\gray.png,stim\yellow.png,stim\gray.png,right,0,0,0,0,0,0,0,0,0,2,2,2,,,,,,,,,,,,,,,,,,,,,,,,,,,85.22564209997654,86.22896380000748,85.22564209997654,86.22896380000748,85.22564209997654,86.22896380000748,85.22564209997654,86.22896380000748,right,1,0.4114179000025615,85.22564209997654,None,85.22564209997654,None,85.22564209997654,85.7271317000268,85.22564209997654,85.7271317000268,85.22564209997654,85.7271317000268,85.22564209997654,85.7271317000268,85.22564209997654,None,,,,,,,,,,,,,,,,,,,,,,,,,,,,,,,,,,,,,,,,,,11014,001,2024_Jan_04_1032,nback,2021.2.3,59.85780179641349,
0-back,instructions\back-0.png,conditions\0back-p.xlsx,instructions\0-BACK.png,"(15, 8)",practice,0,4,stim\gray.png,stim\gray.png,stim\gray.png,stim\yellow.png,down,0,0,0,0,0,0,0,0,0,3,3,3,,,,,,,,,,,,,,,,,,,,,,,,,,,86.72897419997025,87.72952549997717,86.72897419997025,87.72952549997717,86.72897419997025,87.72952549997717,86.72897419997025,87.72952549997717,down,1,0.5163815000560135,86.72897419997025,None,86.72897419997025,None,86.72897419997025,87.22927380003966,86.72897419997025,87.22927380003966,86.72897419997025,87.22927380003966,86.72897419997025,87.22927380003966,86.72897419997025,None,,,,,,,,,,,,,,,,,,,,,,,,,,,,,,,,,,,,,,,,,,11014,001,2024_Jan_04_1032,nback,2021.2.3,59.85780179641349,
0-back,instructions\back-0.png,conditions\0back-p.xlsx,instructions\0-BACK.png,"(15, 8)",practice,0,2,stim\gray.png,stim\yellow.png,stim\gray.png,stim\gray.png,left,0,0,0,0,0,0,0,0,0,4,4,4,,,,,,,,,,,,,,,,,,,,,,,,,,,88.2305491999723,89.232296400005,88.2305491999723,89.232296400005,88.2305491999723,89.232296400005,88.2305491999723,89.232296400005,left,1,0.3908405000111088,88.2305491999723,None,88.2305491999723,None,88.2305491999723,88.73079359997064,88.2305491999723,88.73079359997064,88.2305491999723,88.73079359997064,88.2305491999723,88.73079359997064,88.2305491999723,None,,,,,,,,,,,,,,,,,,,,,,,,,,,,,,,,,,,,,,,,,,11014,001,2024_Jan_04_1032,nback,2021.2.3,59.85780179641349,
0-back,instructions\back-0.png,conditions\0back-p.xlsx,instructions\0-BACK.png,"(15, 8)",practice,0,1,stim\yellow.png,stim\gray.png,stim\gray.png,stim\gray.png,up,0,0,0,0,0,0,0,0,0,5,5,5,,,,,,,,,,,,,,,,,,,,,,,,,,,89.73310289997607,90.73436949995812,89.73310289997607,90.73436949995812,89.73310289997607,90.73436949995812,89.73310289997607,90.73436949995812,up,1,0.34460349997971207,89.73310289997607,None,89.73310289997607,None,89.73310289997607,90.23355670005549,89.73310289997607,90.23355670005549,89.73310289997607,90.23355670005549,89.73310289997607,90.23355670005549,89.73310289997607,None,,,,,,,,,,,,,,,,,,,,,,,,,,,,,,,,,,,,,,,,,,11014,001,2024_Jan_04_1032,nback,2021.2.3,59.85780179641349,
0-back,instructions\back-0.png,conditions\0back-p.xlsx,instructions\0-BACK.png,"(15, 8)",practice,0,4,stim\gray.png,stim\gray.png,stim\gray.png,stim\yellow.png,down,0,0,0,0,0,0,0,0,0,6,6,6,,,,,,,,,,,,,,,,,,,,,,,,,,,91.2179552000016,92.21934339997824,91.2179552000016,92.21934339997824,91.2179552000016,92.21934339997824,91.2179552000016,92.21934339997824,down,1,0.5391136000398546,91.2179552000016,None,91.2179552000016,None,91.2179552000016,91.7192839999916,91.2179552000016,91.7192839999916,91.2179552000016,91.7192839999916,91.2179552000016,91.7192839999916,91.2179552000016,None,,,,,,,,,,,,,,,,,,,,,,,,,,,,,,,,,,,,,,,,,,11014,001,2024_Jan_04_1032,nback,2021.2.3,59.85780179641349,
0-back,instructions\back-0.png,conditions\0back-p.xlsx,instructions\0-BACK.png,"(15, 8)",practice,0,3,stim\gray.png,stim\gray.png,stim\yellow.png,stim\gray.png,right,0,0,0,0,0,0,0,0,0,7,7,7,,,,,,,,,,,,,,,,,,,,,,,,,,,92.72155480005313,93.72200189996511,92.72155480005313,93.72200189996511,92.72155480005313,93.72200189996511,92.72155480005313,93.72200189996511,right,1,0.3485637999838218,92.72155480005313,None,92.72155480005313,None,92.72155480005313,93.22150159999728,92.72155480005313,93.22150159999728,92.72155480005313,93.22150159999728,92.72155480005313,93.22150159999728,92.72155480005313,None,,,,,,,,,,,,,,,,,,,,,,,,,,,,,,,,,,,,,,,,,,11014,001,2024_Jan_04_1032,nback,2021.2.3,59.85780179641349,
0-back,instructions\back-0.png,conditions\0back-p.xlsx,instructions\0-BACK.png,"(15, 8)",practice,0,3,stim\gray.png,stim\gray.png,stim\yellow.png,stim\gray.png,right,0,0,0,0,0,0,0,0,0,8,8,8,,,,,,,,,,,,,,,,,,,,,,,,,,,94.22238489997108,95.22415290004574,94.22238489997108,95.22415290004574,94.22238489997108,95.22415290004574,94.22238489997108,95.22415290004574,right,1,0.383499100105837,94.22238489997108,None,94.22238489997108,None,94.22238489997108,94.72363430005498,94.22238489997108,94.72363430005498,94.22238489997108,94.72363430005498,94.22238489997108,94.72363430005498,94.22238489997108,None,,,,,,,,,,,,,,,,,,,,,,,,,,,,,,,,,,,,,,,,,,11014,001,2024_Jan_04_1032,nback,2021.2.3,59.85780179641349,
0-back,instructions\back-0.png,conditions\0back-p.xlsx,instructions\0-BACK.png,"(15, 8)",practice,0,4,stim\gray.png,stim\gray.png,stim\gray.png,stim\yellow.png,down,0,0,0,0,0,0,0,0,0,9,9,9,,,,,,,,,,,,,,,,,,,,,,,,,,,95.72571909998078,96.72673140000552,95.72571909998078,96.72673140000552,95.72571909998078,96.72673140000552,95.72571909998078,96.72673140000552,down,1,0.44776980008464307,95.72571909998078,None,95.72571909998078,None,95.72571909998078,96.25853520003147,95.72571909998078,96.25853520003147,95.72571909998078,96.25853520003147,95.72571909998078,96.25853520003147,95.72571909998078,None,,,,,,,,,,,,,,,,,,,,,,,,,,,,,,,,,,,,,,,,,,11014,001,2024_Jan_04_1032,nback,2021.2.3,59.85780179641349,
0-back,instructions\back-0.png,conditions\0back-p.xlsx,instructions\0-BACK.png,"(15, 8)",practice,0,1,stim\yellow.png,stim\gray.png,stim\gray.png,stim\gray.png,up,0,0,0,0,0,0,0,0,0,10,10,10,,,,,,,,,,,,,,,,,,,,,,,,,,,97.22675110003911,98.22918510006275,97.22675110003911,98.22918510006275,97.22675110003911,98.22918510006275,97.22675110003911,98.22918510006275,up,1,0.3623884000116959,97.22675110003911,None,97.22675110003911,None,97.22675110003911,97.72850349999499,97.22675110003911,97.72850349999499,97.22675110003911,97.72850349999499,97.22675110003911,97.72850349999499,97.22675110003911,None,,,,,,,,,,,,,,,,,,,,,,,,,,,,,,,,,,,,,,,,,,11014,001,2024_Jan_04_1032,nback,2021.2.3,59.85780179641349,
0-back,instructions\back-0.png,conditions\0back-p.xlsx,instructions\0-BACK.png,"(15, 8)",practice,0,2,stim\gray.png,stim\yellow.png,stim\gray.png,stim\gray.png,left,0,0,0,0,0,0,0,0,0,11,11,11,,,,,,,,,,,,,,,,,,,,,,,,,,,98.72949319996405,99.7304707999574,98.72949319996405,99.7304707999574,98.72949319996405,99.7304707999574,98.72949319996405,99.7304707999574,left,1,0.29191379994153976,98.72949319996405,None,98.72949319996405,None,98.72949319996405,99.23055530001875,98.72949319996405,99.23055530001875,98.72949319996405,99.23055530001875,98.72949319996405,99.23055530001875,98.72949319996405,None,,,,,,,,,,,,,,,,,,,,,,,,,,,,,,,,,,,,,,,,,,11014,001,2024_Jan_04_1032,nback,2021.2.3,59.85780179641349,
0-back,instructions\back-0.png,conditions\0back-p.xlsx,instructions\0-BACK.png,"(15, 8)",practice,0,4,stim\gray.png,stim\gray.png,stim\gray.png,stim\yellow.png,down,0,0,0,0,0,0,0,0,0,12,12,12,,,,,,,,,,,,,,,,,,,,,,,,,,,100.23216670006514,101.23271220002789,100.23216670006514,101.23271220002789,100.23216670006514,101.23271220002789,100.23216670006514,101.23271220002789,down,1,0.34950769995339215,100.23216670006514,None,100.23216670006514,None,100.23216670006514,100.7320761999581,100.23216670006514,100.7320761999581,100.23216670006514,100.7320761999581,100.23216670006514,100.7320761999581,100.23216670006514,None,,,,,,,,,,,,,,,,,,,,,,,,,,,,,,,,,,,,,,,,,,11014,001,2024_Jan_04_1032,nback,2021.2.3,59.85780179641349,
0-back,instructions\back-0.png,conditions\0back-p.xlsx,instructions\0-BACK.png,"(15, 8)",practice,0,3,stim\gray.png,stim\gray.png,stim\yellow.png,stim\gray.png,right,0,0,0,0,0,0,0,0,0,13,13,13,,,,,,,,,,,,,,,,,,,,,,,,,,,101.71748650004156,102.71828699996695,101.71748650004156,102.71828699996695,101.71748650004156,102.71828699996695,101.71748650004156,102.71828699996695,right,1,0.2801451999694109,101.71748650004156,None,101.71748650004156,None,101.71748650004156,102.21825959999114,101.71748650004156,102.21825959999114,101.71748650004156,102.21825959999114,101.71748650004156,102.21825959999114,101.71748650004156,None,,,,,,,,,,,,,,,,,,,,,,,,,,,,,,,,,,,,,,,,,,11014,001,2024_Jan_04_1032,nback,2021.2.3,59.85780179641349,
0-back,instructions\back-0.png,conditions\0back-p.xlsx,instructions\0-BACK.png,"(15, 8)",practice,0,1,stim\yellow.png,stim\gray.png,stim\gray.png,stim\gray.png,up,0,0,0,0,0,0,0,0,0,14,14,14,,,,,,,,,,,,,,,,,,,,,,,,,,,103.21895919996314,104.22062889998779,103.21895919996314,104.22062889998779,103.21895919996314,104.22062889998779,103.21895919996314,104.22062889998779,up,1,0.31481800007168204,103.21895919996314,None,103.21895919996314,None,103.21895919996314,103.72052820003591,103.21895919996314,103.72052820003591,103.21895919996314,103.72052820003591,103.21895919996314,103.72052820003591,103.21895919996314,None,,,,,,,,,,,,,,,,,,,,,,,,,,,,,,,,,,,,,,,,,,11014,001,2024_Jan_04_1032,nback,2021.2.3,59.85780179641349,
0-back,instructions\back-0.png,conditions\0back-p.xlsx,instructions\0-BACK.png,"(15, 8)",practice,0,2,stim\gray.png,stim\yellow.png,stim\gray.png,stim\gray.png,left,0,0,0,0,0,0,0,0,0,15,15,15,,,,,,,,,,,,,,,,,,,,,,,,,,,104.72133059997577,105.72324580000713,104.72133059997577,105.72324580000713,104.72133059997577,105.72324580000713,104.72133059997577,105.72324580000713,left,1,0.30773349991068244,104.72133059997577,None,104.72133059997577,None,104.72133059997577,105.22243169997819,104.72133059997577,105.22243169997819,104.72133059997577,105.22243169997819,104.72133059997577,105.22243169997819,104.72133059997577,None,,,,,,,,,,,,,,,,,,,,,,,,,,,,,,,,,,,,,,,,,,11014,001,2024_Jan_04_1032,nback,2021.2.3,59.85780179641349,
0-back,instructions\back-0.png,conditions\0back-p.xlsx,instructions\0-BACK.png,"(15, 8)",practice,0,3,stim\gray.png,stim\gray.png,stim\yellow.png,stim\gray.png,right,0,0,0,0,0,0,0,0,0,16,16,16,,,,,,,,,,,,,,,,,,,,,,,,,,,106.22344440000597,107.2248073000228,106.22344440000597,107.2248073000228,106.22344440000597,107.2248073000228,106.22344440000597,107.2248073000228,right,1,0.38981159997638315,106.22344440000597,None,106.22344440000597,None,106.22344440000597,106.72489429998677,106.22344440000597,106.72489429998677,106.22344440000597,106.72489429998677,106.22344440000597,106.72489429998677,106.22344440000597,None,,,,,,,,,,,,,,,,,,,,,,,,,,,,,,,,,,,,,,,,,,11014,001,2024_Jan_04_1032,nback,2021.2.3,59.85780179641349,
0-back,instructions\back-0.png,conditions\0back-p.xlsx,instructions\0-BACK.png,"(15, 8)",practice,0,1,stim\yellow.png,stim\gray.png,stim\gray.png,stim\gray.png,up,0,0,0,0,0,0,0,0,0,17,17,17,,,,,,,,,,,,,,,,,,,,,,,,,,,107.72639710002113,108.72829420003109,107.72639710002113,108.72829420003109,107.72639710002113,108.72829420003109,107.72639710002113,108.72829420003109,up,1,0.29468050005380064,107.72639710002113,None,107.72639710002113,None,107.72639710002113,108.22665430000052,107.72639710002113,108.22665430000052,107.72639710002113,108.22665430000052,107.72639710002113,108.22665430000052,107.72639710002113,None,,,,,,,,,,,,,,,,,,,,,,,,,,,,,,,,,,,,,,,,,,11014,001,2024_Jan_04_1032,nback,2021.2.3,59.85780179641349,
0-back,instructions\back-0.png,conditions\0back-p.xlsx,instructions\0-BACK.png,"(15, 8)",practice,0,4,stim\gray.png,stim\gray.png,stim\gray.png,stim\yellow.png,down,0,0,0,0,0,0,0,0,0,18,18,18,,,,,,,,,,,,,,,,,,,,,,,,,,,109.22871970001142,110.22949369996786,109.22871970001142,110.22949369996786,109.22871970001142,110.22949369996786,109.22871970001142,110.22949369996786,down,1,0.28844660008326173,109.22871970001142,None,109.22871970001142,None,109.22871970001142,109.72956080001313,109.22871970001142,109.72956080001313,109.22871970001142,109.72956080001313,109.22871970001142,109.72956080001313,109.22871970001142,None,,,,,,,,,,,,,,,,,,,,,,,,,,,,,,,,,,,,,,,,,,11014,001,2024_Jan_04_1032,nback,2021.2.3,59.85780179641349,
0-back,instructions\back-0.png,conditions\0back-p.xlsx,instructions\0-BACK.png,"(15, 8)",practice,0,2,stim\gray.png,stim\yellow.png,stim\gray.png,stim\gray.png,left,0,0,0,0,0,0,0,0,0,19,19,19,,,,,,,,,,,,,,,,,,,,,,,,,,,110.7300169999944,111.73230809997767,110.7300169999944,111.73230809997767,110.7300169999944,111.73230809997767,110.7300169999944,111.73230809997767,left,1,0.2995028999866918,110.7300169999944,None,110.7300169999944,None,110.7300169999944,111.2310210999567,110.7300169999944,111.2310210999567,110.7300169999944,111.2310210999567,110.7300169999944,111.2310210999567,110.7300169999944,None,,,,,,,,,,,,,,,,,,,,,,,,,,,,,,,,,,,,,,,,,,11014,001,2024_Jan_04_1032,nback,2021.2.3,59.85780179641349,
0-back,instructions\back-0.png,conditions\0back-p.xlsx,instructions\0-BACK.png,"(15, 8)",,,,,,,,,0,0,0,0,0,0,0,0,,,,,,,,,,,,,,,,,,,,,,,,,,,,,,,,,,,,,,,,,,,,,,,,,,,,,,,,,,,,,,,,,,,,,,,,,,,,,,,,,,,,,,,,,,,,,,,,,11014,001,2024_Jan_04_1032,nback,2021.2.3,59.85780179641349,
1-back,instructions\back-1.png,conditions\1back-p.xlsx,instructions\1-BACK.png,"(25, 15)",practice,1,1,stim\yellow.png,stim\gray.png,stim\gray.png,stim\gray.png,None,0,0,0,0,0,1,1,1,0,0,0,0,,,,,,,,,,,,,,,,,112.36604800005443,None,space,6.62385160010308,112.36604800005443,None,119.10922500002198,123.61661170003936,123.59938859997783,None,124.03419489995576,125.03529000002891,124.03419489995576,125.03529000002891,124.03419489995576,125.03529000002891,124.03419489995576,125.03529000002891,None,1,,124.03419489995576,None,124.03419489995576,None,124.03419489995576,124.53429830004461,124.03419489995576,124.53429830004461,124.03419489995576,124.53429830004461,124.03419489995576,124.53429830004461,124.03419489995576,None,,,,,,,,,,,,,,,,,,,,,,,,,,,,,,,,,,,,,,,,,,11014,001,2024_Jan_04_1032,nback,2021.2.3,59.85780179641349,
1-back,instructions\back-1.png,conditions\1back-p.xlsx,instructions\1-BACK.png,"(25, 15)",practice,1,2,stim\gray.png,stim\yellow.png,stim\gray.png,stim\gray.png,up,0,0,0,0,0,1,1,1,0,1,1,1,,,,,,,,,,,,,,,,,,,,,,,,,,,125.51885220000986,126.52020520006772,125.51885220000986,126.52020520006772,125.51885220000986,126.52020520006772,125.51885220000986,126.52020520006772,up,1,0.3509051000000909,125.51885220000986,None,125.51885220000986,None,125.51885220000986,126.01982980000321,125.51885220000986,126.01982980000321,125.51885220000986,126.01982980000321,125.51885220000986,126.01982980000321,125.51885220000986,None,,,,,,,,,,,,,,,,,,,,,,,,,,,,,,,,,,,,,,,,,,11014,001,2024_Jan_04_1032,nback,2021.2.3,59.85780179641349,
1-back,instructions\back-1.png,conditions\1back-p.xlsx,instructions\1-BACK.png,"(25, 15)",practice,1,3,stim\gray.png,stim\gray.png,stim\yellow.png,stim\gray.png,left,0,0,0,0,0,1,1,1,0,2,2,2,,,,,,,,,,,,,,,,,,,,,,,,,,,127.02089070004877,128.02293730003294,127.02089070004877,128.02293730003294,127.02089070004877,128.02293730003294,127.02089070004877,128.02293730003294,left,1,0.4566110000014305,127.02089070004877,None,127.02089070004877,None,127.02089070004877,127.52243480004836,127.02089070004877,127.52243480004836,127.02089070004877,127.52243480004836,127.02089070004877,127.52243480004836,127.02089070004877,None,,,,,,,,,,,,,,,,,,,,,,,,,,,,,,,,,,,,,,,,,,11014,001,2024_Jan_04_1032,nback,2021.2.3,59.85780179641349,
1-back,instructions\back-1.png,conditions\1back-p.xlsx,instructions\1-BACK.png,"(25, 15)",practice,1,4,stim\gray.png,stim\gray.png,stim\gray.png,stim\yellow.png,right,0,0,0,0,0,1,1,1,0,3,3,3,,,,,,,,,,,,,,,,,,,,,,,,,,,128.52305369998794,129.52472990006208,128.52305369998794,129.52472990006208,128.52305369998794,129.52472990006208,128.52305369998794,129.52472990006208,right,1,0.30613020004238933,128.52305369998794,None,128.52305369998794,None,128.52305369998794,129.02404359995853,128.52305369998794,129.02404359995853,128.52305369998794,129.02404359995853,128.52305369998794,129.02404359995853,128.52305369998794,None,,,,,,,,,,,,,,,,,,,,,,,,,,,,,,,,,,,,,,,,,,11014,001,2024_Jan_04_1032,nback,2021.2.3,59.85780179641349,
1-back,instructions\back-1.png,conditions\1back-p.xlsx,instructions\1-BACK.png,"(25, 15)",practice,1,2,stim\gray.png,stim\yellow.png,stim\gray.png,stim\gray.png,down,0,0,0,0,0,1,1,1,0,4,4,4,,,,,,,,,,,,,,,,,,,,,,,,,,,130.02548930002376,131.02786939998623,130.02548930002376,131.02786939998623,130.02548930002376,131.02786939998623,130.02548930002376,131.02786939998623,down,1,0.14770229998975992,130.02548930002376,None,130.02548930002376,None,130.02548930002376,130.5271603000583,130.02548930002376,130.5271603000583,130.02548930002376,130.5271603000583,130.02548930002376,130.5271603000583,130.02548930002376,None,,,,,,,,,,,,,,,,,,,,,,,,,,,,,,,,,,,,,,,,,,11014,001,2024_Jan_04_1032,nback,2021.2.3,59.85780179641349,
1-back,instructions\back-1.png,conditions\1back-p.xlsx,instructions\1-BACK.png,"(25, 15)",practice,1,1,stim\yellow.png,stim\gray.png,stim\gray.png,stim\gray.png,left,0,0,0,0,0,1,1,1,0,5,5,5,,,,,,,,,,,,,,,,,,,,,,,,,,,131.5276131000137,132.52973329997621,131.5276131000137,132.52973329997621,131.5276131000137,132.52973329997621,131.5276131000137,132.52973329997621,left,1,0.5975669000763446,131.5276131000137,None,131.5276131000137,None,131.5276131000137,132.02851039997768,131.5276131000137,132.02851039997768,131.5276131000137,132.02851039997768,131.5276131000137,132.02851039997768,131.5276131000137,None,,,,,,,,,,,,,,,,,,,,,,,,,,,,,,,,,,,,,,,,,,11014,001,2024_Jan_04_1032,nback,2021.2.3,59.85780179641349,
1-back,instructions\back-1.png,conditions\1back-p.xlsx,instructions\1-BACK.png,"(25, 15)",practice,1,4,stim\gray.png,stim\gray.png,stim\gray.png,stim\yellow.png,up,0,0,0,0,0,1,1,1,0,6,6,6,,,,,,,,,,,,,,,,,,,,,,,,,,,133.02989230002277,134.03215650003403,133.02989230002277,134.03215650003403,133.02989230002277,134.03215650003403,133.02989230002277,134.03215650003403,up,1,0.5997941000387073,133.02989230002277,None,133.02989230002277,None,133.02989230002277,133.53073240001686,133.02989230002277,133.53073240001686,133.02989230002277,133.53073240001686,133.02989230002277,133.53073240001686,133.02989230002277,None,,,,,,,,,,,,,,,,,,,,,,,,,,,,,,,,,,,,,,,,,,11014,001,2024_Jan_04_1032,nback,2021.2.3,59.85780179641349,
1-back,instructions\back-1.png,conditions\1back-p.xlsx,instructions\1-BACK.png,"(25, 15)",practice,1,3,stim\gray.png,stim\gray.png,stim\yellow.png,stim\gray.png,down,0,0,0,0,0,1,1,1,0,7,7,7,,,,,,,,,,,,,,,,,,,,,,,,,,,134.51577329996508,135.51754919998348,134.51577329996508,135.51754919998348,134.51577329996508,135.51754919998348,134.51577329996508,135.51754919998348,down,1,0.3454961999086663,134.51577329996508,None,134.51577329996508,None,134.51577329996508,135.01686970004812,134.51577329996508,135.01686970004812,134.51577329996508,135.01686970004812,134.51577329996508,135.01686970004812,134.51577329996508,None,,,,,,,,,,,,,,,,,,,,,,,,,,,,,,,,,,,,,,,,,,11014,001,2024_Jan_04_1032,nback,2021.2.3,59.85780179641349,
1-back,instructions\back-1.png,conditions\1back-p.xlsx,instructions\1-BACK.png,"(25, 15)",practice,1,3,stim\gray.png,stim\gray.png,stim\yellow.png,stim\gray.png,right,0,0,0,0,0,1,1,1,0,8,8,8,,,,,,,,,,,,,,,,,,,,,,,,,,,136.01831710000988,137.01962809998076,136.01831710000988,137.01962809998076,136.01831710000988,137.01962809998076,136.01831710000988,137.01962809998076,right,1,1.4675191000569612,136.01831710000988,None,136.01831710000988,None,136.01831710000988,136.51849060005043,136.01831710000988,136.51849060005043,136.01831710000988,136.51849060005043,136.01831710000988,136.51849060005043,136.01831710000988,None,,,,,,,,,,,,,,,,,,,,,,,,,,,,,,,,,,,,,,,,,,11014,001,2024_Jan_04_1032,nback,2021.2.3,59.85780179641349,
1-back,instructions\back-1.png,conditions\1back-p.xlsx,instructions\1-BACK.png,"(25, 15)",practice,1,4,stim\gray.png,stim\gray.png,stim\gray.png,stim\yellow.png,right,0,0,0,0,0,1,1,1,0,9,9,9,,,,,,,,,,,,,,,,,,,,,,,,,,,137.51979549997486,138.52138689998537,137.51979549997486,138.52138689998537,137.51979549997486,138.52138689998537,137.51979549997486,138.52138689998537,None,0,,137.51979549997486,None,137.51979549997486,None,137.51979549997486,138.0204717000015,137.51979549997486,138.0204717000015,137.51979549997486,138.0204717000015,137.51979549997486,138.0204717000015,137.51979549997486,None,,,,,,,,,,,,,,,,,,,,,,,,,,,,,,,,,,,,,,,,,,11014,001,2024_Jan_04_1032,nback,2021.2.3,59.85780179641349,
1-back,instructions\back-1.png,conditions\1back-p.xlsx,instructions\1-BACK.png,"(25, 15)",practice,1,1,stim\yellow.png,stim\gray.png,stim\gray.png,stim\gray.png,down,0,0,0,0,0,1,1,1,0,10,10,10,,,,,,,,,,,,,,,,,,,,,,,,,,,139.02224339998793,140.0244420999661,139.02224339998793,140.0244420999661,139.02224339998793,140.0244420999661,139.02224339998793,140.0244420999661,down,1,0.05495020002126694,139.02224339998793,None,139.02224339998793,None,139.02224339998793,139.52495760004967,139.02224339998793,139.52495760004967,139.02224339998793,139.52495760004967,139.02224339998793,139.52495760004967,139.02224339998793,None,,,,,,,,,,,,,,,,,,,,,,,,,,,,,,,,,,,,,,,,,,11014,001,2024_Jan_04_1032,nback,2021.2.3,59.85780179641349,
1-back,instructions\back-1.png,conditions\1back-p.xlsx,instructions\1-BACK.png,"(25, 15)",practice,1,2,stim\gray.png,stim\yellow.png,stim\gray.png,stim\gray.png,up,0,0,0,0,0,1,1,1,0,11,11,11,,,,,,,,,,,,,,,,,,,,,,,,,,,140.52435540000442,141.52619080001023,140.52435540000442,141.52619080001023,140.52435540000442,141.52619080001023,140.52435540000442,141.52619080001023,up,1,0.09709679998923093,140.52435540000442,None,140.52435540000442,None,140.52435540000442,141.0250447000144,140.52435540000442,141.0250447000144,140.52435540000442,141.0250447000144,140.52435540000442,141.0250447000144,140.52435540000442,None,,,,,,,,,,,,,,,,,,,,,,,,,,,,,,,,,,,,,,,,,,11014,001,2024_Jan_04_1032,nback,2021.2.3,59.85780179641349,
1-back,instructions\back-1.png,conditions\1back-p.xlsx,instructions\1-BACK.png,"(25, 15)",practice,1,4,stim\gray.png,stim\gray.png,stim\gray.png,stim\yellow.png,left,0,0,0,0,0,1,1,1,0,12,12,12,,,,,,,,,,,,,,,,,,,,,,,,,,,142.02659480005968,143.0281141999876,142.02659480005968,143.0281141999876,142.02659480005968,143.0281141999876,142.02659480005968,143.0281141999876,left,1,1.3866018999833614,142.02659480005968,None,142.02659480005968,None,142.02659480005968,142.52724720002152,142.02659480005968,142.52724720002152,142.02659480005968,142.52724720002152,142.02659480005968,142.52724720002152,142.02659480005968,None,,,,,,,,,,,,,,,,,,,,,,,,,,,,,,,,,,,,,,,,,,11014,001,2024_Jan_04_1032,nback,2021.2.3,59.85780179641349,
1-back,instructions\back-1.png,conditions\1back-p.xlsx,instructions\1-BACK.png,"(25, 15)",practice,1,3,stim\gray.png,stim\gray.png,stim\yellow.png,stim\gray.png,down,0,0,0,0,0,1,1,1,0,13,13,13,,,,,,,,,,,,,,,,,,,,,,,,,,,143.52954670006875,144.53174190002028,143.52954670006875,144.53174190002028,143.52954670006875,144.53174190002028,143.52954670006875,144.53174190002028,down,1,1.2200750999618322,143.52954670006875,None,143.52954670006875,None,143.52954670006875,144.02955360000487,143.52954670006875,144.02955360000487,143.52954670006875,144.02955360000487,143.52954670006875,144.02955360000487,143.52954670006875,None,,,,,,,,,,,,,,,,,,,,,,,,,,,,,,,,,,,,,,,,,,11014,001,2024_Jan_04_1032,nback,2021.2.3,59.85780179641349,
1-back,instructions\back-1.png,conditions\1back-p.xlsx,instructions\1-BACK.png,"(25, 15)",practice,1,1,stim\yellow.png,stim\gray.png,stim\gray.png,stim\gray.png,right,0,0,0,0,0,1,1,1,0,14,14,14,,,,,,,,,,,,,,,,,,,,,,,,,,,145.0142659000121,146.01663079997525,145.0142659000121,146.01663079997525,145.0142659000121,146.01663079997525,145.0142659000121,146.01663079997525,right,1,0.83113730000332,145.0142659000121,None,145.0142659000121,None,145.0142659000121,145.5151160999667,145.0142659000121,145.5151160999667,145.0142659000121,145.5151160999667,145.0142659000121,145.5151160999667,145.0142659000121,None,,,,,,,,,,,,,,,,,,,,,,,,,,,,,,,,,,,,,,,,,,11014,001,2024_Jan_04_1032,nback,2021.2.3,59.85780179641349,
1-back,instructions\back-1.png,conditions\1back-p.xlsx,instructions\1-BACK.png,"(25, 15)",practice,1,2,stim\gray.png,stim\yellow.png,stim\gray.png,stim\gray.png,up,0,0,0,0,0,1,1,1,0,15,15,15,,,,,,,,,,,,,,,,,,,,,,,,,,,146.5164413000457,147.51896340004168,146.5164413000457,147.51896340004168,146.5164413000457,147.51896340004168,146.5164413000457,147.51896340004168,up,1,0.592746099922806,146.5164413000457,None,146.5164413000457,None,146.5164413000457,147.01805640000384,146.5164413000457,147.01805640000384,146.5164413000457,147.01805640000384,146.5164413000457,147.01805640000384,146.5164413000457,None,,,,,,,,,,,,,,,,,,,,,,,,,,,,,,,,,,,,,,,,,,11014,001,2024_Jan_04_1032,nback,2021.2.3,59.85780179641349,
1-back,instructions\back-1.png,conditions\1back-p.xlsx,instructions\1-BACK.png,"(25, 15)",practice,1,3,stim\gray.png,stim\gray.png,stim\yellow.png,stim\gray.png,left,0,0,0,0,0,1,1,1,0,16,16,16,,,,,,,,,,,,,,,,,,,,,,,,,,,148.01910599996336,149.02058859996032,148.01910599996336,149.02058859996032,148.01910599996336,149.02058859996032,148.01910599996336,149.02058859996032,left,1,0.2102611999725923,148.01910599996336,None,148.01910599996336,None,148.01910599996336,148.51953419996426,148.01910599996336,148.51953419996426,148.01910599996336,148.51953419996426,148.01910599996336,148.51953419996426,148.01910599996336,None,,,,,,,,,,,,,,,,,,,,,,,,,,,,,,,,,,,,,,,,,,11014,001,2024_Jan_04_1032,nback,2021.2.3,59.85780179641349,
1-back,instructions\back-1.png,conditions\1back-p.xlsx,instructions\1-BACK.png,"(25, 15)",practice,1,1,stim\yellow.png,stim\gray.png,stim\gray.png,stim\gray.png,right,0,0,0,0,0,1,1,1,0,17,17,17,,,,,,,,,,,,,,,,,,,,,,,,,,,149.52097930002492,150.5229629999958,149.52097930002492,150.5229629999958,149.52097930002492,150.5229629999958,149.52097930002492,150.5229629999958,right,1,0.34915360005106777,149.52097930002492,None,149.52097930002492,None,149.52097930002492,150.02183820004575,149.52097930002492,150.02183820004575,149.52097930002492,150.02183820004575,149.52097930002492,150.02183820004575,149.52097930002492,None,,,,,,,,,,,,,,,,,,,,,,,,,,,,,,,,,,,,,,,,,,11014,001,2024_Jan_04_1032,nback,2021.2.3,59.85780179641349,
1-back,instructions\back-1.png,conditions\1back-p.xlsx,instructions\1-BACK.png,"(25, 15)",practice,1,4,stim\gray.png,stim\gray.png,stim\gray.png,stim\yellow.png,up,0,0,0,0,0,1,1,1,0,18,18,18,,,,,,,,,,,,,,,,,,,,,,,,,,,151.023297799984,152.02571650000755,151.023297799984,152.02571650000755,151.023297799984,152.02571650000755,151.023297799984,152.02571650000755,up,1,0.302043900010176,151.023297799984,None,151.023297799984,None,151.023297799984,151.524199699983,151.023297799984,151.524199699983,151.023297799984,151.524199699983,151.023297799984,151.524199699983,151.023297799984,None,,,,,,,,,,,,,,,,,,,,,,,,,,,,,,,,,,,,,,,,,,11014,001,2024_Jan_04_1032,nback,2021.2.3,59.85780179641349,
1-back,instructions\back-1.png,conditions\1back-p.xlsx,instructions\1-BACK.png,"(25, 15)",practice,1,2,stim\gray.png,stim\yellow.png,stim\gray.png,stim\gray.png,down,0,0,0,0,0,1,1,1,0,19,19,19,,,,,,,,,,,,,,,,,,,,,,,,,,,152.5253076000372,153.527621599962,152.5253076000372,153.527621599962,152.5253076000372,153.527621599962,152.5253076000372,153.527621599962,down,1,0.2800697999773547,152.5253076000372,None,152.5253076000372,None,152.5253076000372,153.02628160000313,152.5253076000372,153.02628160000313,152.5253076000372,153.02628160000313,152.5253076000372,153.02628160000313,152.5253076000372,None,,,,,,,,,,,,,,,,,,,,,,,,,,,,,,,,,,,,,,,,,,11014,001,2024_Jan_04_1032,nback,2021.2.3,59.85780179641349,
1-back,instructions\back-1.png,conditions\1back-p.xlsx,instructions\1-BACK.png,"(25, 15)",,,,,,,,,0,0,0,0,0,1,1,1,,,,,,,,,,,,,,,,,,,,,,,,,,,,,,,,,,,,,,,,,,,,,,,,,,,,,,,,,,,,,,,,,,,,,,,,,,,,,,,,,,,,,,,,,,,,,,,,,11014,001,2024_Jan_04_1032,nback,2021.2.3,59.85780179641349,
2-back,instructions\back-2.png,conditions\2back-p.xlsx,instructions\2-BACK.png,"(25, 15)",practice,2,1,stim\yellow.png,stim\gray.png,stim\gray.png,stim\gray.png,None,0,0,0,0,0,2,2,2,0,0,0,0,,,,,,,,,,,,,,,,,154.1444587999722,None,space,7.684744500089437,154.1444587999722,None,161.97271150001325,166.48147490003612,166.44687560002785,None,166.88083549996372,167.88155459996779,166.88083549996372,167.88155459996779,166.88083549996372,167.88155459996779,166.88083549996372,167.88155459996779,None,1,,166.88083549996372,None,166.88083549996372,None,166.88083549996372,167.3810060999822,166.88083549996372,167.3810060999822,166.88083549996372,167.3810060999822,166.88083549996372,167.3810060999822,166.88083549996372,None,,,,,,,,,,,,,,,,,,,,,,,,,,,,,,,,,,,,,,,,,,11014,001,2024_Jan_04_1032,nback,2021.2.3,59.85780179641349,
2-back,instructions\back-2.png,conditions\2back-p.xlsx,instructions\2-BACK.png,"(25, 15)",practice,2,2,stim\gray.png,stim\yellow.png,stim\gray.png,stim\gray.png,None,0,0,0,0,0,2,2,2,0,1,1,1,,,,,,,,,,,,,,,,,,,,,,,,,,,168.36568329995498,169.3679967999924,168.36568329995498,169.3679967999924,168.36568329995498,169.3679967999924,168.36568329995498,169.3679967999924,None,1,,168.36568329995498,None,168.36568329995498,None,168.36568329995498,168.86619520001113,168.36568329995498,168.86619520001113,168.36568329995498,168.86619520001113,168.36568329995498,168.86619520001113,168.36568329995498,None,,,,,,,,,,,,,,,,,,,,,,,,,,,,,,,,,,,,,,,,,,11014,001,2024_Jan_04_1032,nback,2021.2.3,59.85780179641349,
2-back,instructions\back-2.png,conditions\2back-p.xlsx,instructions\2-BACK.png,"(25, 15)",practice,2,3,stim\gray.png,stim\gray.png,stim\yellow.png,stim\gray.png,up,0,0,0,0,0,2,2,2,0,2,2,2,,,,,,,,,,,,,,,,,,,,,,,,,,,169.86788949999027,170.8700524000451,169.86788949999027,170.8700524000451,169.86788949999027,170.8700524000451,169.86788949999027,170.8700524000451,up,1,0.3932844999944791,169.86788949999027,None,169.86788949999027,None,169.86788949999027,170.3686394999968,169.86788949999027,170.3686394999968,169.86788949999027,170.3686394999968,169.86788949999027,170.3686394999968,169.86788949999027,None,,,,,,,,,,,,,,,,,,,,,,,,,,,,,,,,,,,,,,,,,,11014,001,2024_Jan_04_1032,nback,2021.2.3,59.85780179641349,
2-back,instructions\back-2.png,conditions\2back-p.xlsx,instructions\2-BACK.png,"(25, 15)",practice,2,4,stim\gray.png,stim\gray.png,stim\gray.png,stim\yellow.png,left,0,0,0,0,0,2,2,2,0,3,3,3,,,,,,,,,,,,,,,,,,,,,,,,,,,171.37063590006437,172.37220460001845,171.37063590006437,172.37220460001845,171.37063590006437,172.37220460001845,171.37063590006437,172.37220460001845,left,1,0.37054999999236315,171.37063590006437,None,171.37063590006437,None,171.37063590006437,171.8707207000116,171.37063590006437,171.8707207000116,171.37063590006437,171.8707207000116,171.37063590006437,171.8707207000116,171.37063590006437,None,,,,,,,,,,,,,,,,,,,,,,,,,,,,,,,,,,,,,,,,,,11014,001,2024_Jan_04_1032,nback,2021.2.3,59.85780179641349,
2-back,instructions\back-2.png,conditions\2back-p.xlsx,instructions\2-BACK.png,"(25, 15)",practice,2,2,stim\gray.png,stim\yellow.png,stim\gray.png,stim\gray.png,right,0,0,0,0,0,2,2,2,0,4,4,4,,,,,,,,,,,,,,,,,,,,,,,,,,,172.8721763000358,173.87538950005546,172.8721763000358,173.87538950005546,172.8721763000358,173.87538950005546,172.8721763000358,173.87538950005546,right,1,0.2611262999707833,172.8721763000358,None,172.8721763000358,None,172.8721763000358,173.37337919999845,172.8721763000358,173.37337919999845,172.8721763000358,173.37337919999845,172.8721763000358,173.37337919999845,172.8721763000358,None,,,,,,,,,,,,,,,,,,,,,,,,,,,,,,,,,,,,,,,,,,11014,001,2024_Jan_04_1032,nback,2021.2.3,59.85780179641349,
2-back,instructions\back-2.png,conditions\2back-p.xlsx,instructions\2-BACK.png,"(25, 15)",practice,2,1,stim\yellow.png,stim\gray.png,stim\gray.png,stim\gray.png,down,0,0,0,0,0,2,2,2,0,5,5,5,,,,,,,,,,,,,,,,,,,,,,,,,,,174.37528489995748,175.37609989999328,174.37528489995748,175.37609989999328,174.37528489995748,175.37609989999328,174.37528489995748,175.37609989999328,down,1,0.47803820006083697,174.37528489995748,None,174.37528489995748,None,174.37528489995748,174.87517070001923,174.37528489995748,174.87517070001923,174.37528489995748,174.87517070001923,174.37528489995748,174.87517070001923,174.37528489995748,None,,,,,,,,,,,,,,,,,,,,,,,,,,,,,,,,,,,,,,,,,,11014,001,2024_Jan_04_1032,nback,2021.2.3,59.85780179641349,
2-back,instructions\back-2.png,conditions\2back-p.xlsx,instructions\2-BACK.png,"(25, 15)",practice,2,4,stim\gray.png,stim\gray.png,stim\gray.png,stim\yellow.png,left,0,0,0,0,0,2,2,2,0,6,6,6,,,,,,,,,,,,,,,,,,,,,,,,,,,175.85993819998112,176.8616857000161,175.85993819998112,176.8616857000161,175.85993819998112,176.8616857000161,175.85993819998112,176.8616857000161,up,0,1.1372527000494301,175.85993819998112,None,175.85993819998112,None,175.85993819998112,176.36075420002453,175.85993819998112,176.36075420002453,175.85993819998112,176.36075420002453,175.85993819998112,176.36075420002453,175.85993819998112,None,,,,,,,,,,,,,,,,,,,,,,,,,,,,,,,,,,,,,,,,,,11014,001,2024_Jan_04_1032,nback,2021.2.3,59.85780179641349,
2-back,instructions\back-2.png,conditions\2back-p.xlsx,instructions\2-BACK.png,"(25, 15)",practice,2,3,stim\gray.png,stim\gray.png,stim\yellow.png,stim\gray.png,up,0,0,0,0,0,2,2,2,0,7,7,7,,,,,,,,,,,,,,,,,,,,,,,,,,,177.36235690000467,178.36380819999613,177.36235690000467,178.36380819999613,177.36235690000467,178.36380819999613,177.36235690000467,178.36380819999613,None,0,,177.36235690000467,None,177.36235690000467,None,177.36235690000467,177.86288779997267,177.36235690000467,177.86288779997267,177.36235690000467,177.86288779997267,177.36235690000467,177.86288779997267,177.36235690000467,None,,,,,,,,,,,,,,,,,,,,,,,,,,,,,,,,,,,,,,,,,,11014,001,2024_Jan_04_1032,nback,2021.2.3,59.85780179641349,
2-back,instructions\back-2.png,conditions\2back-p.xlsx,instructions\2-BACK.png,"(25, 15)",practice,2,3,stim\gray.png,stim\gray.png,stim\yellow.png,stim\gray.png,down,0,0,0,0,0,2,2,2,0,8,8,8,,,,,,,,,,,,,,,,,,,,,,,,,,,178.86448810005095,179.8666155000683,178.86448810005095,179.8666155000683,178.86448810005095,179.8666155000683,178.86448810005095,179.8666155000683,left,0,0.9727394999936223,178.86448810005095,None,178.86448810005095,None,178.86448810005095,179.36531260004267,178.86448810005095,179.36531260004267,178.86448810005095,179.36531260004267,178.86448810005095,179.36531260004267,178.86448810005095,None,,,,,,,,,,,,,,,,,,,,,,,,,,,,,,,,,,,,,,,,,,11014,001,2024_Jan_04_1032,nback,2021.2.3,59.85780179641349,
2-back,instructions\back-2.png,conditions\2back-p.xlsx,instructions\2-BACK.png,"(25, 15)",practice,2,4,stim\gray.png,stim\gray.png,stim\gray.png,stim\yellow.png,right,0,0,0,0,0,2,2,2,0,9,9,9,,,,,,,,,,,,,,,,,,,,,,,,,,,180.36676150001585,181.36927450005896,180.36676150001585,181.36927450005896,180.36676150001585,181.36927450005896,180.36676150001585,181.36927450005896,down,0,0.5514581999741495,180.36676150001585,None,180.36676150001585,None,180.36676150001585,180.8680304000154,180.36676150001585,180.8680304000154,180.36676150001585,180.8680304000154,180.36676150001585,180.8680304000154,180.36676150001585,None,,,,,,,,,,,,,,,,,,,,,,,,,,,,,,,,,,,,,,,,,,11014,001,2024_Jan_04_1032,nback,2021.2.3,59.85780179641349,
2-back,instructions\back-2.png,conditions\2back-p.xlsx,instructions\2-BACK.png,"(25, 15)",practice,2,1,stim\yellow.png,stim\gray.png,stim\gray.png,stim\gray.png,right,0,0,0,0,0,2,2,2,0,10,10,10,,,,,,,,,,,,,,,,,,,,,,,,,,,181.86963460000698,182.8707141999621,181.86963460000698,182.8707141999621,181.86963460000698,182.8707141999621,181.86963460000698,182.8707141999621,None,0,,181.86963460000698,None,181.86963460000698,None,181.86963460000698,182.37065429997165,181.86963460000698,182.37065429997165,181.86963460000698,182.37065429997165,181.86963460000698,182.37065429997165,181.86963460000698,None,,,,,,,,,,,,,,,,,,,,,,,,,,,,,,,,,,,,,,,,,,11014,001,2024_Jan_04_1032,nback,2021.2.3,59.85780179641349,
2-back,instructions\back-2.png,conditions\2back-p.xlsx,instructions\2-BACK.png,"(25, 15)",practice,2,2,stim\gray.png,stim\yellow.png,stim\gray.png,stim\gray.png,down,0,0,0,0,0,2,2,2,0,11,11,11,,,,,,,,,,,,,,,,,,,,,,,,,,,183.37197840004228,184.3733156999806,183.37197840004228,184.3733156999806,183.37197840004228,184.3733156999806,183.37197840004228,184.3733156999806,None,0,,183.37197840004228,None,183.37197840004228,None,183.37197840004228,183.87198910000734,183.37197840004228,183.87198910000734,183.37197840004228,183.87198910000734,183.37197840004228,183.87198910000734,183.37197840004228,None,,,,,,,,,,,,,,,,,,,,,,,,,,,,,,,,,,,,,,,,,,11014,001,2024_Jan_04_1032,nback,2021.2.3,59.85780179641349,
2-back,instructions\back-2.png,conditions\2back-p.xlsx,instructions\2-BACK.png,"(25, 15)",practice,2,4,stim\gray.png,stim\gray.png,stim\gray.png,stim\yellow.png,up,0,0,0,0,0,2,2,2,0,12,12,12,,,,,,,,,,,,,,,,,,,,,,,,,,,184.87327320000622,185.87509330001194,184.87327320000622,185.87509330001194,184.87327320000622,185.87509330001194,184.87327320000622,185.87509330001194,left,0,1.3641093000769615,184.87327320000622,None,184.87327320000622,None,184.87327320000622,185.3740378000075,184.87327320000622,185.3740378000075,184.87327320000622,185.3740378000075,184.87327320000622,185.3740378000075,184.87327320000622,None,,,,,,,,,,,,,,,,,,,,,,,,,,,,,,,,,,,,,,,,,,11014,001,2024_Jan_04_1032,nback,2021.2.3,59.85780179641349,
2-back,instructions\back-2.png,conditions\2back-p.xlsx,instructions\2-BACK.png,"(25, 15)",practice,2,3,stim\gray.png,stim\gray.png,stim\yellow.png,stim\gray.png,left,0,0,0,0,0,2,2,2,0,13,13,13,,,,,,,,,,,,,,,,,,,,,,,,,,,186.35948660003487,187.36067940003704,186.35948660003487,187.36067940003704,186.35948660003487,187.36067940003704,186.35948660003487,187.36067940003704,None,0,,186.35948660003487,None,186.35948660003487,None,186.35948660003487,186.85959200002253,186.35948660003487,186.85959200002253,186.35948660003487,186.85959200002253,186.35948660003487,186.85959200002253,186.35948660003487,None,,,,,,,,,,,,,,,,,,,,,,,,,,,,,,,,,,,,,,,,,,11014,001,2024_Jan_04_1032,nback,2021.2.3,59.85780179641349,
2-back,instructions\back-2.png,conditions\2back-p.xlsx,instructions\2-BACK.png,"(25, 15)",practice,2,1,stim\yellow.png,stim\gray.png,stim\gray.png,stim\gray.png,down,0,0,0,0,0,2,2,2,0,14,14,14,,,,,,,,,,,,,,,,,,,,,,,,,,,187.86109969997779,188.86350249999668,187.86109969997779,188.86350249999668,187.86109969997779,188.86350249999668,187.86109969997779,188.86350249999668,None,0,,187.86109969997779,None,187.86109969997779,None,187.86109969997779,188.36197139997967,187.86109969997779,188.36197139997967,187.86109969997779,188.36197139997967,187.86109969997779,188.36197139997967,187.86109969997779,None,,,,,,,,,,,,,,,,,,,,,,,,,,,,,,,,,,,,,,,,,,11014,001,2024_Jan_04_1032,nback,2021.2.3,59.85780179641349,
2-back,instructions\back-2.png,conditions\2back-p.xlsx,instructions\2-BACK.png,"(25, 15)",practice,2,2,stim\gray.png,stim\yellow.png,stim\gray.png,stim\gray.png,right,0,0,0,0,0,2,2,2,0,15,15,15,,,,,,,,,,,,,,,,,,,,,,,,,,,189.36340240004938,190.3648398000514,189.36340240004938,190.3648398000514,189.36340240004938,190.3648398000514,189.36340240004938,190.3648398000514,None,0,,189.36340240004938,None,189.36340240004938,None,189.36340240004938,189.86417289997917,189.36340240004938,189.86417289997917,189.36340240004938,189.86417289997917,189.36340240004938,189.86417289997917,189.36340240004938,None,,,,,,,,,,,,,,,,,,,,,,,,,,,,,,,,,,,,,,,,,,11014,001,2024_Jan_04_1032,nback,2021.2.3,59.85780179641349,
2-back,instructions\back-2.png,conditions\2back-p.xlsx,instructions\2-BACK.png,"(25, 15)",practice,2,3,stim\gray.png,stim\gray.png,stim\yellow.png,stim\gray.png,up,0,0,0,0,0,2,2,2,0,16,16,16,,,,,,,,,,,,,,,,,,,,,,,,,,,190.86546500003897,191.86760009999853,190.86546500003897,191.86760009999853,190.86546500003897,191.86760009999853,190.86546500003897,191.86760009999853,up,1,0.05182549997698516,190.86546500003897,None,190.86546500003897,None,190.86546500003897,191.36642900004517,190.86546500003897,191.36642900004517,190.86546500003897,191.36642900004517,190.86546500003897,191.36642900004517,190.86546500003897,None,,,,,,,,,,,,,,,,,,,,,,,,,,,,,,,,,,,,,,,,,,11014,001,2024_Jan_04_1032,nback,2021.2.3,59.85780179641349,
2-back,instructions\back-2.png,conditions\2back-p.xlsx,instructions\2-BACK.png,"(25, 15)",practice,2,1,stim\yellow.png,stim\gray.png,stim\gray.png,stim\gray.png,left,0,0,0,0,0,2,2,2,0,17,17,17,,,,,,,,,,,,,,,,,,,,,,,,,,,192.36790559999645,193.37033119995613,192.36790559999645,193.37033119995613,192.36790559999645,193.37033119995613,192.36790559999645,193.37033119995613,up,0,0.23014900006819516,192.36790559999645,None,192.36790559999645,None,192.36790559999645,192.86867220001295,192.36790559999645,192.86867220001295,192.36790559999645,192.86867220001295,192.36790559999645,192.86867220001295,192.36790559999645,None,,,,,,,,,,,,,,,,,,,,,,,,,,,,,,,,,,,,,,,,,,11014,001,2024_Jan_04_1032,nback,2021.2.3,59.85780179641349,
2-back,instructions\back-2.png,conditions\2back-p.xlsx,instructions\2-BACK.png,"(25, 15)",practice,2,4,stim\gray.png,stim\gray.png,stim\gray.png,stim\yellow.png,right,0,0,0,0,0,2,2,2,0,18,18,18,,,,,,,,,,,,,,,,,,,,,,,,,,,193.87000510003418,194.87166219996288,193.87000510003418,194.87166219996288,193.87000510003418,194.87166219996288,193.87000510003418,194.87166219996288,None,0,,193.87000510003418,None,193.87000510003418,None,193.87000510003418,194.37139660003595,193.87000510003418,194.37139660003595,193.87000510003418,194.37139660003595,193.87000510003418,194.37139660003595,193.87000510003418,None,,,,,,,,,,,,,,,,,,,,,,,,,,,,,,,,,,,,,,,,,,11014,001,2024_Jan_04_1032,nback,2021.2.3,59.85780179641349,
2-back,instructions\back-2.png,conditions\2back-p.xlsx,instructions\2-BACK.png,"(25, 15)",practice,2,2,stim\gray.png,stim\yellow.png,stim\gray.png,stim\gray.png,up,0,0,0,0,0,2,2,2,0,19,19,19,,,,,,,,,,,,,,,,,,,,,,,,,,,195.37228450004477,196.37444210005924,195.37228450004477,196.37444210005924,195.37228450004477,196.37444210005924,195.37228450004477,196.37444210005924,right,0,0.05722680001053959,195.37228450004477,None,195.37228450004477,None,195.37228450004477,195.87296609999612,195.37228450004477,195.87296609999612,195.37228450004477,195.87296609999612,195.37228450004477,195.87296609999612,195.37228450004477,None,,,,,,,,,,,,,,,,,,,,,,,,,,,,,,,,,,,,,,,,,,11014,001,2024_Jan_04_1032,nback,2021.2.3,59.85780179641349,
2-back,instructions\back-2.png,conditions\2back-p.xlsx,instructions\2-BACK.png,"(25, 15)",,,,,,,,,0,0,0,0,0,2,2,2,,,,,,,,,,,,,,,,,,,,,,,,,,,,,,,,,,,,,,,,,,,,,,,,,,,,,,,,,,,,,,,,,,,,,,,,,,,,,,,,,,,,,,,,,,,,,,,,,11014,001,2024_Jan_04_1032,nback,2021.2.3,59.85780179641349,
,,,,,,,,,,,,,0,0,0,0,,,,,,,,,,,,,,,,,,,,,,,,,,,,,,,,,,,,,,,,,,,,,,,,,,,,,,,,,,,,196.87467699998524,None,s,10.93159489997197,196.87467699998524,None,,,,,,,,,,,,,,,,,,,,,,,,,,,,,,,,,,,,11014,001,2024_Jan_04_1032,nback,2021.2.3,59.85780179641349,
0-back,instructions\back-0.png,conditions\0back-p.xlsx,instructions\0-BACK.png,"(15, 8)",practice,0,1,stim\yellow.png,stim\gray.png,stim\gray.png,stim\gray.png,up,1,0,1,0,0,0,0,0,0,0,0,0,,,,,,,,,,,,,,,,,207.94082170003094,None,space,2.2489051000447944,207.94082170003094,None,210.34529039997142,214.85292760003358,214.80108380003367,None,215.23754820006434,216.253797100042,215.23754820006434,216.253797100042,215.23754820006434,216.253797100042,215.23754820006434,216.253797100042,up,1,0.40789599996060133,215.23754820006434,None,215.23754820006434,None,215.23754820006434,215.7524331000168,215.23754820006434,215.7524331000168,215.23754820006434,215.7524331000168,215.23754820006434,215.7524331000168,215.23754820006434,None,,,,,,,,,,,,,,,,,,,,,,,,,,,,,,,,,,,,,,,,,,11014,001,2024_Jan_04_1032,nback,2021.2.3,59.85780179641349,
0-back,instructions\back-0.png,conditions\0back-p.xlsx,instructions\0-BACK.png,"(15, 8)",practice,0,2,stim\gray.png,stim\yellow.png,stim\gray.png,stim\gray.png,left,1,0,1,0,0,0,0,0,0,1,1,1,,,,,,,,,,,,,,,,,,,,,,,,,,,216.72110900003463,217.72215170005802,216.72110900003463,217.72215170005802,216.72110900003463,217.72215170005802,216.72110900003463,217.72215170005802,left,1,0.3487621999811381,216.72110900003463,None,216.72110900003463,None,216.72110900003463,217.22212050005328,216.72110900003463,217.22212050005328,216.72110900003463,217.22212050005328,216.72110900003463,217.22212050005328,216.72110900003463,None,,,,,,,,,,,,,,,,,,,,,,,,,,,,,,,,,,,,,,,,,,11014,001,2024_Jan_04_1032,nback,2021.2.3,59.85780179641349,
0-back,instructions\back-0.png,conditions\0back-p.xlsx,instructions\0-BACK.png,"(15, 8)",practice,0,3,stim\gray.png,stim\gray.png,stim\yellow.png,stim\gray.png,right,1,0,1,0,0,0,0,0,0,2,2,2,,,,,,,,,,,,,,,,,,,,,,,,,,,218.22266289999243,219.2251513999654,218.22266289999243,219.2251513999654,218.22266289999243,219.2251513999654,218.22266289999243,219.2251513999654,right,1,0.310834200005047,218.22266289999243,None,218.22266289999243,None,218.22266289999243,218.7245333000319,218.22266289999243,218.7245333000319,218.22266289999243,218.7245333000319,218.22266289999243,218.7245333000319,218.22266289999243,None,,,,,,,,,,,,,,,,,,,,,,,,,,,,,,,,,,,,,,,,,,11014,001,2024_Jan_04_1032,nback,2021.2.3,59.85780179641349,
0-back,instructions\back-0.png,conditions\0back-p.xlsx,instructions\0-BACK.png,"(15, 8)",practice,0,4,stim\gray.png,stim\gray.png,stim\gray.png,stim\yellow.png,down,1,0,1,0,0,0,0,0,0,3,3,3,,,,,,,,,,,,,,,,,,,,,,,,,,,219.72503510001116,220.72683980001602,219.72503510001116,220.72683980001602,219.72503510001116,220.72683980001602,219.72503510001116,220.72683980001602,down,1,0.28062620002310723,219.72503510001116,None,219.72503510001116,None,219.72503510001116,220.22561850002967,219.72503510001116,220.22561850002967,219.72503510001116,220.22561850002967,219.72503510001116,220.22561850002967,219.72503510001116,None,,,,,,,,,,,,,,,,,,,,,,,,,,,,,,,,,,,,,,,,,,11014,001,2024_Jan_04_1032,nback,2021.2.3,59.85780179641349,
0-back,instructions\back-0.png,conditions\0back-p.xlsx,instructions\0-BACK.png,"(15, 8)",practice,0,2,stim\gray.png,stim\yellow.png,stim\gray.png,stim\gray.png,left,1,0,1,0,0,0,0,0,0,4,4,4,,,,,,,,,,,,,,,,,,,,,,,,,,,221.22788450005464,222.22892629995476,221.22788450005464,222.22892629995476,221.22788450005464,222.22892629995476,221.22788450005464,222.22892629995476,left,1,0.3536635999334976,221.22788450005464,None,221.22788450005464,None,221.22788450005464,221.7279991999967,221.22788450005464,221.7279991999967,221.22788450005464,221.7279991999967,221.22788450005464,221.7279991999967,221.22788450005464,None,,,,,,,,,,,,,,,,,,,,,,,,,,,,,,,,,,,,,,,,,,11014,001,2024_Jan_04_1032,nback,2021.2.3,59.85780179641349,
0-back,instructions\back-0.png,conditions\0back-p.xlsx,instructions\0-BACK.png,"(15, 8)",practice,0,1,stim\yellow.png,stim\gray.png,stim\gray.png,stim\gray.png,up,1,0,1,0,0,0,0,0,0,5,5,5,,,,,,,,,,,,,,,,,,,,,,,,,,,222.73011810006574,223.73201270005666,222.73011810006574,223.73201270005666,222.73011810006574,223.73201270005666,222.73011810006574,223.73201270005666,up,1,0.3473508999450132,222.73011810006574,None,222.73011810006574,None,222.73011810006574,223.23014230001718,222.73011810006574,223.23014230001718,222.73011810006574,223.23014230001718,222.73011810006574,223.23014230001718,222.73011810006574,None,,,,,,,,,,,,,,,,,,,,,,,,,,,,,,,,,,,,,,,,,,11014,001,2024_Jan_04_1032,nback,2021.2.3,59.85780179641349,
0-back,instructions\back-0.png,conditions\0back-p.xlsx,instructions\0-BACK.png,"(15, 8)",practice,0,4,stim\gray.png,stim\gray.png,stim\gray.png,stim\yellow.png,down,1,0,1,0,0,0,0,0,0,6,6,6,,,,,,,,,,,,,,,,,,,,,,,,,,,224.2316312000621,225.2343776000198,224.2316312000621,225.2343776000198,224.2316312000621,225.2343776000198,224.2316312000621,225.2343776000198,down,1,0.45359349995851517,224.2316312000621,None,224.2316312000621,None,224.2316312000621,224.73269890004303,224.2316312000621,224.73269890004303,224.2316312000621,224.73269890004303,224.2316312000621,224.73269890004303,224.2316312000621,None,,,,,,,,,,,,,,,,,,,,,,,,,,,,,,,,,,,,,,,,,,11014,001,2024_Jan_04_1032,nback,2021.2.3,59.85780179641349,
0-back,instructions\back-0.png,conditions\0back-p.xlsx,instructions\0-BACK.png,"(15, 8)",practice,0,3,stim\gray.png,stim\gray.png,stim\yellow.png,stim\gray.png,right,1,0,1,0,0,0,0,0,0,7,7,7,,,,,,,,,,,,,,,,,,,,,,,,,,,225.71716000000015,226.71880400006194,225.71716000000015,226.71880400006194,225.71716000000015,226.71880400006194,225.71716000000015,226.71880400006194,right,1,0.34415380004793406,225.71716000000015,None,225.71716000000015,None,225.71716000000015,226.21847009996418,225.71716000000015,226.21847009996418,225.71716000000015,226.21847009996418,225.71716000000015,226.21847009996418,225.71716000000015,None,,,,,,,,,,,,,,,,,,,,,,,,,,,,,,,,,,,,,,,,,,11014,001,2024_Jan_04_1032,nback,2021.2.3,59.85780179641349,
0-back,instructions\back-0.png,conditions\0back-p.xlsx,instructions\0-BACK.png,"(15, 8)",practice,0,3,stim\gray.png,stim\gray.png,stim\yellow.png,stim\gray.png,right,1,0,1,0,0,0,0,0,0,8,8,8,,,,,,,,,,,,,,,,,,,,,,,,,,,227.2194695000071,228.22158690006472,227.2194695000071,228.22158690006472,227.2194695000071,228.22158690006472,227.2194695000071,228.22158690006472,right,1,0.4017795000690967,227.2194695000071,None,227.2194695000071,None,227.2194695000071,227.72153670003172,227.2194695000071,227.72153670003172,227.2194695000071,227.72153670003172,227.2194695000071,227.72153670003172,227.2194695000071,None,,,,,,,,,,,,,,,,,,,,,,,,,,,,,,,,,,,,,,,,,,11014,001,2024_Jan_04_1032,nback,2021.2.3,59.85780179641349,
0-back,instructions\back-0.png,conditions\0back-p.xlsx,instructions\0-BACK.png,"(15, 8)",practice,0,4,stim\gray.png,stim\gray.png,stim\gray.png,stim\yellow.png,down,1,0,1,0,0,0,0,0,0,9,9,9,,,,,,,,,,,,,,,,,,,,,,,,,,,228.7216810999671,229.72367760003544,228.7216810999671,229.72367760003544,228.7216810999671,229.72367760003544,228.7216810999671,229.72367760003544,down,1,0.4916990000056103,228.7216810999671,None,228.7216810999671,None,228.7216810999671,229.22242300002836,228.7216810999671,229.22242300002836,228.7216810999671,229.22242300002836,228.7216810999671,229.22242300002836,228.7216810999671,None,,,,,,,,,,,,,,,,,,,,,,,,,,,,,,,,,,,,,,,,,,11014,001,2024_Jan_04_1032,nback,2021.2.3,59.85780179641349,
0-back,instructions\back-0.png,conditions\0back-p.xlsx,instructions\0-BACK.png,"(15, 8)",practice,0,1,stim\yellow.png,stim\gray.png,stim\gray.png,stim\gray.png,up,1,0,1,0,0,0,0,0,0,10,10,10,,,,,,,,,,,,,,,,,,,,,,,,,,,230.22385449998546,231.2260769000277,230.22385449998546,231.2260769000277,230.22385449998546,231.2260769000277,230.22385449998546,231.2260769000277,up,1,0.421646700007841,230.22385449998546,None,230.22385449998546,None,230.22385449998546,230.7255474999547,230.22385449998546,230.7255474999547,230.22385449998546,230.7255474999547,230.22385449998546,230.7255474999547,230.22385449998546,None,,,,,,,,,,,,,,,,,,,,,,,,,,,,,,,,,,,,,,,,,,11014,001,2024_Jan_04_1032,nback,2021.2.3,59.85780179641349,
0-back,instructions\back-0.png,conditions\0back-p.xlsx,instructions\0-BACK.png,"(15, 8)",practice,0,2,stim\gray.png,stim\yellow.png,stim\gray.png,stim\gray.png,left,1,0,1,0,0,0,0,0,0,11,11,11,,,,,,,,,,,,,,,,,,,,,,,,,,,231.7261956000002,232.72765719995368,231.7261956000002,232.72765719995368,231.7261956000002,232.72765719995368,231.7261956000002,232.72765719995368,left,1,0.29513199999928474,231.7261956000002,None,231.7261956000002,None,231.7261956000002,232.22749710001517,231.7261956000002,232.22749710001517,231.7261956000002,232.22749710001517,231.7261956000002,232.22749710001517,231.7261956000002,None,,,,,,,,,,,,,,,,,,,,,,,,,,,,,,,,,,,,,,,,,,11014,001,2024_Jan_04_1032,nback,2021.2.3,59.85780179641349,
0-back,instructions\back-0.png,conditions\0back-p.xlsx,instructions\0-BACK.png,"(15, 8)",practice,0,4,stim\gray.png,stim\gray.png,stim\gray.png,stim\yellow.png,down,1,0,1,0,0,0,0,0,0,12,12,12,,,,,,,,,,,,,,,,,,,,,,,,,,,233.2284147000173,234.22982000000775,233.2284147000173,234.22982000000775,233.2284147000173,234.22982000000775,233.2284147000173,234.22982000000775,down,1,0.3051093000685796,233.2284147000173,None,233.2284147000173,None,233.2284147000173,233.72964529995807,233.2284147000173,233.72964529995807,233.2284147000173,233.72964529995807,233.2284147000173,233.72964529995807,233.2284147000173,None,,,,,,,,,,,,,,,,,,,,,,,,,,,,,,,,,,,,,,,,,,11014,001,2024_Jan_04_1032,nback,2021.2.3,59.85780179641349,
0-back,instructions\back-0.png,conditions\0back-p.xlsx,instructions\0-BACK.png,"(15, 8)",practice,0,3,stim\gray.png,stim\gray.png,stim\yellow.png,stim\gray.png,right,1,0,1,0,0,0,0,0,0,13,13,13,,,,,,,,,,,,,,,,,,,,,,,,,,,234.73044169996865,235.73267900000792,234.73044169996865,235.73267900000792,234.73044169996865,235.73267900000792,234.73044169996865,235.73267900000792,right,1,0.25167160003911704,234.73044169996865,None,234.73044169996865,None,234.73044169996865,235.23184250004124,234.73044169996865,235.23184250004124,234.73044169996865,235.23184250004124,234.73044169996865,235.23184250004124,234.73044169996865,None,,,,,,,,,,,,,,,,,,,,,,,,,,,,,,,,,,,,,,,,,,11014,001,2024_Jan_04_1032,nback,2021.2.3,59.85780179641349,
0-back,instructions\back-0.png,conditions\0back-p.xlsx,instructions\0-BACK.png,"(15, 8)",practice,0,1,stim\yellow.png,stim\gray.png,stim\gray.png,stim\gray.png,up,1,0,1,0,0,0,0,0,0,14,14,14,,,,,,,,,,,,,,,,,,,,,,,,,,,236.21600220003165,237.2180556000676,236.21600220003165,237.2180556000676,236.21600220003165,237.2180556000676,236.21600220003165,237.2180556000676,up,1,0.3092550999717787,236.21600220003165,None,236.21600220003165,None,236.21600220003165,236.71695040003397,236.21600220003165,236.71695040003397,236.21600220003165,236.71695040003397,236.21600220003165,236.71695040003397,236.21600220003165,None,,,,,,,,,,,,,,,,,,,,,,,,,,,,,,,,,,,,,,,,,,11014,001,2024_Jan_04_1032,nback,2021.2.3,59.85780179641349,
0-back,instructions\back-0.png,conditions\0back-p.xlsx,instructions\0-BACK.png,"(15, 8)",practice,0,2,stim\gray.png,stim\yellow.png,stim\gray.png,stim\gray.png,left,1,0,1,0,0,0,0,0,0,15,15,15,,,,,,,,,,,,,,,,,,,,,,,,,,,237.71903919999022,238.7203262000112,237.71903919999022,238.7203262000112,237.71903919999022,238.7203262000112,237.71903919999022,238.7203262000112,left,1,0.24662750004790723,237.71903919999022,None,237.71903919999022,None,237.71903919999022,238.22036949999165,237.71903919999022,238.22036949999165,237.71903919999022,238.22036949999165,237.71903919999022,238.22036949999165,237.71903919999022,None,,,,,,,,,,,,,,,,,,,,,,,,,,,,,,,,,,,,,,,,,,11014,001,2024_Jan_04_1032,nback,2021.2.3,59.85780179641349,
0-back,instructions\back-0.png,conditions\0back-p.xlsx,instructions\0-BACK.png,"(15, 8)",practice,0,3,stim\gray.png,stim\gray.png,stim\yellow.png,stim\gray.png,right,1,0,1,0,0,0,0,0,0,16,16,16,,,,,,,,,,,,,,,,,,,,,,,,,,,239.22127069998533,240.22276989999227,239.22127069998533,240.22276989999227,239.22127069998533,240.22276989999227,239.22127069998533,240.22276989999227,right,1,0.36001770000439137,239.22127069998533,None,239.22127069998533,None,239.22127069998533,239.72219110000879,239.22127069998533,239.72219110000879,239.22127069998533,239.72219110000879,239.22127069998533,239.72219110000879,239.22127069998533,None,,,,,,,,,,,,,,,,,,,,,,,,,,,,,,,,,,,,,,,,,,11014,001,2024_Jan_04_1032,nback,2021.2.3,59.85780179641349,
0-back,instructions\back-0.png,conditions\0back-p.xlsx,instructions\0-BACK.png,"(15, 8)",practice,0,1,stim\yellow.png,stim\gray.png,stim\gray.png,stim\gray.png,up,1,0,1,0,0,0,0,0,0,17,17,17,,,,,,,,,,,,,,,,,,,,,,,,,,,240.72361920005642,241.72555209998973,240.72361920005642,241.72555209998973,240.72361920005642,241.72555209998973,240.72361920005642,241.72555209998973,up,1,0.4338529999367893,240.72361920005642,None,240.72361920005642,None,240.72361920005642,241.22396810003556,240.72361920005642,241.22396810003556,240.72361920005642,241.22396810003556,240.72361920005642,241.22396810003556,240.72361920005642,None,,,,,,,,,,,,,,,,,,,,,,,,,,,,,,,,,,,,,,,,,,11014,001,2024_Jan_04_1032,nback,2021.2.3,59.85780179641349,
0-back,instructions\back-0.png,conditions\0back-p.xlsx,instructions\0-BACK.png,"(15, 8)",practice,0,4,stim\gray.png,stim\gray.png,stim\gray.png,stim\yellow.png,down,1,0,1,0,0,0,0,0,0,18,18,18,,,,,,,,,,,,,,,,,,,,,,,,,,,242.2251496000681,243.2273251999868,242.2251496000681,243.2273251999868,242.2251496000681,243.2273251999868,242.2251496000681,243.2273251999868,down,1,0.30069509998429567,242.2251496000681,None,242.2251496000681,None,242.2251496000681,242.72592070000246,242.2251496000681,242.72592070000246,242.2251496000681,242.72592070000246,242.2251496000681,242.72592070000246,242.2251496000681,None,,,,,,,,,,,,,,,,,,,,,,,,,,,,,,,,,,,,,,,,,,11014,001,2024_Jan_04_1032,nback,2021.2.3,59.85780179641349,
0-back,instructions\back-0.png,conditions\0back-p.xlsx,instructions\0-BACK.png,"(15, 8)",practice,0,2,stim\gray.png,stim\yellow.png,stim\gray.png,stim\gray.png,left,1,0,1,0,0,0,0,0,0,19,19,19,,,,,,,,,,,,,,,,,,,,,,,,,,,243.72732790000737,244.72975169995334,243.72732790000737,244.72975169995334,243.72732790000737,244.72975169995334,243.72732790000737,244.72975169995334,left,1,0.3420545000117272,243.72732790000737,None,243.72732790000737,None,243.72732790000737,244.2289903999772,243.72732790000737,244.2289903999772,243.72732790000737,244.2289903999772,243.72732790000737,244.2289903999772,243.72732790000737,None,,,,,,,,,,,,,,,,,,,,,,,,,,,,,,,,,,,,,,,,,,11014,001,2024_Jan_04_1032,nback,2021.2.3,59.85780179641349,
0-back,instructions\back-0.png,conditions\0back-p.xlsx,instructions\0-BACK.png,"(15, 8)",,,,,,,,,1,0,1,0,0,0,0,0,,,,,,,,,,,,,,,,,,,,,,,,,,,,,,,,,,,,,,,,,,,,,,,,,,,,,,,,,,,,,,,,,,,,,,,,,,,,,,,,,,,,,,,,,,,,,,,,,11014,001,2024_Jan_04_1032,nback,2021.2.3,59.85780179641349,
1-back,instructions\back-1.png,conditions\1back-p.xlsx,instructions\1-BACK.png,"(25, 15)",practice,1,1,stim\yellow.png,stim\gray.png,stim\gray.png,stim\gray.png,None,1,0,1,0,0,1,1,1,0,0,0,0,,,,,,,,,,,,,,,,,245.3462846999755,None,space,2.843187000020407,245.3462846999755,None,248.31746869999915,252.82483830000274,252.80789990001358,None,253.24276030005421,254.24444300006144,253.24276030005421,254.24444300006144,253.24276030005421,254.24444300006144,253.24276030005421,254.24444300006144,None,1,,253.24276030005421,None,253.24276030005421,None,253.24276030005421,253.74212970002554,253.24276030005421,253.74212970002554,253.24276030005421,253.74212970002554,253.24276030005421,253.74212970002554,253.24276030005421,None,,,,,,,,,,,,,,,,,,,,,,,,,,,,,,,,,,,,,,,,,,11014,001,2024_Jan_04_1032,nback,2021.2.3,59.85780179641349,
1-back,instructions\back-1.png,conditions\1back-p.xlsx,instructions\1-BACK.png,"(25, 15)",practice,1,2,stim\gray.png,stim\yellow.png,stim\gray.png,stim\gray.png,up,1,0,1,0,0,1,1,1,0,1,1,1,,,,,,,,,,,,,,,,,,,,,,,,,,,254.72677299997304,255.72912050003652,254.72677299997304,255.72912050003652,254.72677299997304,255.72912050003652,254.72677299997304,255.72912050003652,up,1,0.30271319998428226,254.72677299997304,None,254.72677299997304,None,254.72677299997304,255.2276615999872,254.72677299997304,255.2276615999872,254.72677299997304,255.2276615999872,254.72677299997304,255.2276615999872,254.72677299997304,None,,,,,,,,,,,,,,,,,,,,,,,,,,,,,,,,,,,,,,,,,,11014,001,2024_Jan_04_1032,nback,2021.2.3,59.85780179641349,
1-back,instructions\back-1.png,conditions\1back-p.xlsx,instructions\1-BACK.png,"(25, 15)",practice,1,3,stim\gray.png,stim\gray.png,stim\yellow.png,stim\gray.png,left,1,0,1,0,0,1,1,1,0,2,2,2,,,,,,,,,,,,,,,,,,,,,,,,,,,256.22920760000125,257.23110279999673,256.22920760000125,257.23110279999673,256.22920760000125,257.23110279999673,256.22920760000125,257.23110279999673,left,1,0.21704230003524572,256.22920760000125,None,256.22920760000125,None,256.22920760000125,256.73033180006314,256.22920760000125,256.73033180006314,256.22920760000125,256.73033180006314,256.22920760000125,256.73033180006314,256.22920760000125,None,,,,,,,,,,,,,,,,,,,,,,,,,,,,,,,,,,,,,,,,,,11014,001,2024_Jan_04_1032,nback,2021.2.3,59.85780179641349,
1-back,instructions\back-1.png,conditions\1back-p.xlsx,instructions\1-BACK.png,"(25, 15)",practice,1,4,stim\gray.png,stim\gray.png,stim\gray.png,stim\yellow.png,right,1,0,1,0,0,1,1,1,0,3,3,3,,,,,,,,,,,,,,,,,,,,,,,,,,,257.7313089000527,258.73281369998585,257.7313089000527,258.73281369998585,257.7313089000527,258.73281369998585,257.7313089000527,258.73281369998585,right,1,0.23453509993851185,257.7313089000527,None,257.7313089000527,None,257.7313089000527,258.2321290000109,257.7313089000527,258.2321290000109,257.7313089000527,258.2321290000109,257.7313089000527,258.2321290000109,257.7313089000527,None,,,,,,,,,,,,,,,,,,,,,,,,,,,,,,,,,,,,,,,,,,11014,001,2024_Jan_04_1032,nback,2021.2.3,59.85780179641349,
1-back,instructions\back-1.png,conditions\1back-p.xlsx,instructions\1-BACK.png,"(25, 15)",practice,1,2,stim\gray.png,stim\yellow.png,stim\gray.png,stim\gray.png,down,1,0,1,0,0,1,1,1,0,4,4,4,,,,,,,,,,,,,,,,,,,,,,,,,,,259.233681099955,260.2366883000359,259.233681099955,260.2366883000359,259.233681099955,260.2366883000359,259.233681099955,260.2366883000359,right,0,0.36426100006792694,259.233681099955,None,259.233681099955,None,259.233681099955,259.7349033000646,259.233681099955,259.7349033000646,259.233681099955,259.7349033000646,259.233681099955,259.7349033000646,259.233681099955,None,,,,,,,,,,,,,,,,,,,,,,,,,,,,,,,,,,,,,,,,,,11014,001,2024_Jan_04_1032,nback,2021.2.3,59.85780179641349,
1-back,instructions\back-1.png,conditions\1back-p.xlsx,instructions\1-BACK.png,"(25, 15)",practice,1,1,stim\yellow.png,stim\gray.png,stim\gray.png,stim\gray.png,left,1,0,1,0,0,1,1,1,0,5,5,5,,,,,,,,,,,,,,,,,,,,,,,,,,,260.735791199957,261.7380655000452,260.735791199957,261.7380655000452,260.735791199957,261.7380655000452,260.735791199957,261.7380655000452,None,0,,260.735791199957,None,260.735791199957,None,260.735791199957,261.2371511000674,260.735791199957,261.2371511000674,260.735791199957,261.2371511000674,260.735791199957,261.2371511000674,260.735791199957,None,,,,,,,,,,,,,,,,,,,,,,,,,,,,,,,,,,,,,,,,,,11014,001,2024_Jan_04_1032,nback,2021.2.3,59.85780179641349,
1-back,instructions\back-1.png,conditions\1back-p.xlsx,instructions\1-BACK.png,"(25, 15)",practice,1,4,stim\gray.png,stim\gray.png,stim\gray.png,stim\yellow.png,up,1,0,1,0,0,1,1,1,0,6,6,6,,,,,,,,,,,,,,,,,,,,,,,,,,,262.2379535000073,263.2401028999593,262.2379535000073,263.2401028999593,262.2379535000073,263.2401028999593,262.2379535000073,263.2401028999593,down,0,0.1839830999961123,262.2379535000073,None,262.2379535000073,None,262.2379535000073,262.7396988000255,262.2379535000073,262.7396988000255,262.2379535000073,262.7396988000255,262.2379535000073,262.7396988000255,262.2379535000073,None,,,,,,,,,,,,,,,,,,,,,,,,,,,,,,,,,,,,,,,,,,11014,001,2024_Jan_04_1032,nback,2021.2.3,59.85780179641349,
1-back,instructions\back-1.png,conditions\1back-p.xlsx,instructions\1-BACK.png,"(25, 15)",practice,1,3,stim\gray.png,stim\gray.png,stim\yellow.png,stim\gray.png,down,1,0,1,0,0,1,1,1,0,7,7,7,,,,,,,,,,,,,,,,,,,,,,,,,,,263.7235161999706,264.72498030005954,263.7235161999706,264.72498030005954,263.7235161999706,264.72498030005954,263.7235161999706,264.72498030005954,down,1,0.9216336999088526,263.7235161999706,None,263.7235161999706,None,263.7235161999706,264.22435719997156,263.7235161999706,264.22435719997156,263.7235161999706,264.22435719997156,263.7235161999706,264.22435719997156,263.7235161999706,None,,,,,,,,,,,,,,,,,,,,,,,,,,,,,,,,,,,,,,,,,,11014,001,2024_Jan_04_1032,nback,2021.2.3,59.85780179641349,
1-back,instructions\back-1.png,conditions\1back-p.xlsx,instructions\1-BACK.png,"(25, 15)",practice,1,3,stim\gray.png,stim\gray.png,stim\yellow.png,stim\gray.png,right,1,0,1,0,0,1,1,1,0,8,8,8,,,,,,,,,,,,,,,,,,,,,,,,,,,265.22603540006094,266.2279553000117,265.22603540006094,266.2279553000117,265.22603540006094,266.2279553000117,265.22603540006094,266.2279553000117,left,0,0.7004001999739558,265.22603540006094,None,265.22603540006094,None,265.22603540006094,265.727310199989,265.22603540006094,265.727310199989,265.22603540006094,265.727310199989,265.22603540006094,265.727310199989,265.22603540006094,None,,,,,,,,,,,,,,,,,,,,,,,,,,,,,,,,,,,,,,,,,,11014,001,2024_Jan_04_1032,nback,2021.2.3,59.85780179641349,
1-back,instructions\back-1.png,conditions\1back-p.xlsx,instructions\1-BACK.png,"(25, 15)",practice,1,4,stim\gray.png,stim\gray.png,stim\gray.png,stim\yellow.png,right,1,0,1,0,0,1,1,1,0,9,9,9,,,,,,,,,,,,,,,,,,,,,,,,,,,266.72876570001245,267.7293938000221,266.72876570001245,267.7293938000221,266.72876570001245,267.7293938000221,266.72876570001245,267.7293938000221,right,1,0.6288166999584064,266.72876570001245,None,266.72876570001245,None,266.72876570001245,267.2289113999577,266.72876570001245,267.2289113999577,266.72876570001245,267.2289113999577,266.72876570001245,267.2289113999577,266.72876570001245,None,,,,,,,,,,,,,,,,,,,,,,,,,,,,,,,,,,,,,,,,,,11014,001,2024_Jan_04_1032,nback,2021.2.3,59.85780179641349,
1-back,instructions\back-1.png,conditions\1back-p.xlsx,instructions\1-BACK.png,"(25, 15)",practice,1,1,stim\yellow.png,stim\gray.png,stim\gray.png,stim\gray.png,down,1,0,1,0,0,1,1,1,0,10,10,10,,,,,,,,,,,,,,,,,,,,,,,,,,,268.2307068000082,269.2318515999941,268.2307068000082,269.2318515999941,268.2307068000082,269.2318515999941,268.2307068000082,269.2318515999941,down,1,0.35080680006649345,268.2307068000082,None,268.2307068000082,None,268.2307068000082,268.73151049995795,268.2307068000082,268.73151049995795,268.2307068000082,268.73151049995795,268.2307068000082,268.73151049995795,268.2307068000082,None,,,,,,,,,,,,,,,,,,,,,,,,,,,,,,,,,,,,,,,,,,11014,001,2024_Jan_04_1032,nback,2021.2.3,59.85780179641349,
1-back,instructions\back-1.png,conditions\1back-p.xlsx,instructions\1-BACK.png,"(25, 15)",practice,1,2,stim\gray.png,stim\yellow.png,stim\gray.png,stim\gray.png,up,1,0,1,0,0,1,1,1,0,11,11,11,,,,,,,,,,,,,,,,,,,,,,,,,,,269.7325313000474,270.7347153000301,269.7325313000474,270.7347153000301,269.7325313000474,270.7347153000301,269.7325313000474,270.7347153000301,up,1,0.29721679992508143,269.7325313000474,None,269.7325313000474,None,269.7325313000474,270.23333449999336,269.7325313000474,270.23333449999336,269.7325313000474,270.23333449999336,269.7325313000474,270.23333449999336,269.7325313000474,None,,,,,,,,,,,,,,,,,,,,,,,,,,,,,,,,,,,,,,,,,,11014,001,2024_Jan_04_1032,nback,2021.2.3,59.85780179641349,
1-back,instructions\back-1.png,conditions\1back-p.xlsx,instructions\1-BACK.png,"(25, 15)",practice,1,4,stim\gray.png,stim\gray.png,stim\gray.png,stim\yellow.png,left,1,0,1,0,0,1,1,1,0,12,12,12,,,,,,,,,,,,,,,,,,,,,,,,,,,271.2357054000022,272.2366153000621,271.2357054000022,272.2366153000621,271.2357054000022,272.2366153000621,271.2357054000022,272.2366153000621,left,1,0.24975269997958094,271.2357054000022,None,271.2357054000022,None,271.2357054000022,271.7355735000456,271.2357054000022,271.7355735000456,271.2357054000022,271.7355735000456,271.2357054000022,271.7355735000456,271.2357054000022,None,,,,,,,,,,,,,,,,,,,,,,,,,,,,,,,,,,,,,,,,,,11014,001,2024_Jan_04_1032,nback,2021.2.3,59.85780179641349,
1-back,instructions\back-1.png,conditions\1back-p.xlsx,instructions\1-BACK.png,"(25, 15)",practice,1,3,stim\gray.png,stim\gray.png,stim\yellow.png,stim\gray.png,down,1,0,1,0,0,1,1,1,0,13,13,13,,,,,,,,,,,,,,,,,,,,,,,,,,,272.73752049996983,273.73854220006615,272.73752049996983,273.73854220006615,272.73752049996983,273.73854220006615,272.73752049996983,273.73854220006615,down,1,0.2119644999038428,272.73752049996983,None,272.73752049996983,None,272.73752049996983,273.2378757999977,272.73752049996983,273.2378757999977,272.73752049996983,273.2378757999977,272.73752049996983,273.2378757999977,272.73752049996983,None,,,,,,,,,,,,,,,,,,,,,,,,,,,,,,,,,,,,,,,,,,11014,001,2024_Jan_04_1032,nback,2021.2.3,59.85780179641349,
1-back,instructions\back-1.png,conditions\1back-p.xlsx,instructions\1-BACK.png,"(25, 15)",practice,1,1,stim\yellow.png,stim\gray.png,stim\gray.png,stim\gray.png,right,1,0,1,0,0,1,1,1,0,14,14,14,,,,,,,,,,,,,,,,,,,,,,,,,,,274.22246209997684,275.22443050006405,274.22246209997684,275.22443050006405,274.22246209997684,275.22443050006405,274.22246209997684,275.22443050006405,right,1,1.4553916999138892,274.22246209997684,None,274.22246209997684,None,274.22246209997684,274.72440800000913,274.22246209997684,274.72440800000913,274.22246209997684,274.72440800000913,274.22246209997684,274.72440800000913,274.22246209997684,None,,,,,,,,,,,,,,,,,,,,,,,,,,,,,,,,,,,,,,,,,,11014,001,2024_Jan_04_1032,nback,2021.2.3,59.85780179641349,
1-back,instructions\back-1.png,conditions\1back-p.xlsx,instructions\1-BACK.png,"(25, 15)",practice,1,2,stim\gray.png,stim\yellow.png,stim\gray.png,stim\gray.png,up,1,0,1,0,0,1,1,1,0,15,15,15,,,,,,,,,,,,,,,,,,,,,,,,,,,275.7247705999762,276.7259825000074,275.7247705999762,276.7259825000074,275.7247705999762,276.7259825000074,275.7247705999762,276.7259825000074,None,0,,275.7247705999762,None,275.7247705999762,None,275.7247705999762,276.22564419999253,275.7247705999762,276.22564419999253,275.7247705999762,276.22564419999253,275.7247705999762,276.22564419999253,275.7247705999762,None,,,,,,,,,,,,,,,,,,,,,,,,,,,,,,,,,,,,,,,,,,11014,001,2024_Jan_04_1032,nback,2021.2.3,59.85780179641349,
1-back,instructions\back-1.png,conditions\1back-p.xlsx,instructions\1-BACK.png,"(25, 15)",practice,1,3,stim\gray.png,stim\gray.png,stim\yellow.png,stim\gray.png,left,1,0,1,0,0,1,1,1,0,16,16,16,,,,,,,,,,,,,,,,,,,,,,,,,,,277.2276930999942,278.2284038000507,277.2276930999942,278.2284038000507,277.2276930999942,278.2284038000507,277.2276930999942,278.2284038000507,left,1,0.7139856000430882,277.2276930999942,None,277.2276930999942,None,277.2276930999942,277.728339400026,277.2276930999942,277.728339400026,277.2276930999942,277.728339400026,277.2276930999942,277.728339400026,277.2276930999942,None,,,,,,,,,,,,,,,,,,,,,,,,,,,,,,,,,,,,,,,,,,11014,001,2024_Jan_04_1032,nback,2021.2.3,59.85780179641349,
1-back,instructions\back-1.png,conditions\1back-p.xlsx,instructions\1-BACK.png,"(25, 15)",practice,1,1,stim\yellow.png,stim\gray.png,stim\gray.png,stim\gray.png,right,1,0,1,0,0,1,1,1,0,17,17,17,,,,,,,,,,,,,,,,,,,,,,,,,,,278.72914549999405,279.7312668999657,278.72914549999405,279.7312668999657,278.72914549999405,279.7312668999657,278.72914549999405,279.7312668999657,down,0,0.4681582000339404,278.72914549999405,None,278.72914549999405,None,278.72914549999405,279.2298891999526,278.72914549999405,279.2298891999526,278.72914549999405,279.2298891999526,278.72914549999405,279.2298891999526,278.72914549999405,None,,,,,,,,,,,,,,,,,,,,,,,,,,,,,,,,,,,,,,,,,,11014,001,2024_Jan_04_1032,nback,2021.2.3,59.85780179641349,
1-back,instructions\back-1.png,conditions\1back-p.xlsx,instructions\1-BACK.png,"(25, 15)",practice,1,4,stim\gray.png,stim\gray.png,stim\gray.png,stim\yellow.png,up,1,0,1,0,0,1,1,1,0,18,18,18,,,,,,,,,,,,,,,,,,,,,,,,,,,280.2312849999871,281.2338236999931,280.2312849999871,281.2338236999931,280.2312849999871,281.2338236999931,280.2312849999871,281.2338236999931,up,1,1.1353971000062302,280.2312849999871,None,280.2312849999871,None,280.2312849999871,280.7320503999945,280.2312849999871,280.7320503999945,280.2312849999871,280.7320503999945,280.2312849999871,280.7320503999945,280.2312849999871,None,,,,,,,,,,,,,,,,,,,,,,,,,,,,,,,,,,,,,,,,,,11014,001,2024_Jan_04_1032,nback,2021.2.3,59.85780179641349,
1-back,instructions\back-1.png,conditions\1back-p.xlsx,instructions\1-BACK.png,"(25, 15)",practice,1,2,stim\gray.png,stim\yellow.png,stim\gray.png,stim\gray.png,down,1,0,1,0,0,1,1,1,0,19,19,19,,,,,,,,,,,,,,,,,,,,,,,,,,,281.73367550002877,282.7357434000587,281.73367550002877,282.7357434000587,281.73367550002877,282.7357434000587,281.73367550002877,282.7357434000587,down,1,1.0081940999953076,281.73367550002877,None,281.73367550002877,None,281.73367550002877,282.23427170002833,281.73367550002877,282.23427170002833,281.73367550002877,282.23427170002833,281.73367550002877,282.23427170002833,281.73367550002877,None,,,,,,,,,,,,,,,,,,,,,,,,,,,,,,,,,,,,,,,,,,11014,001,2024_Jan_04_1032,nback,2021.2.3,59.85780179641349,
1-back,instructions\back-1.png,conditions\1back-p.xlsx,instructions\1-BACK.png,"(25, 15)",,,,,,,,,1,0,1,0,0,1,1,1,,,,,,,,,,,,,,,,,,,,,,,,,,,,,,,,,,,,,,,,,,,,,,,,,,,,,,,,,,,,,,,,,,,,,,,,,,,,,,,,,,,,,,,,,,,,,,,,,11014,001,2024_Jan_04_1032,nback,2021.2.3,59.85780179641349,
2-back,instructions\back-2.png,conditions\2back-p.xlsx,instructions\2-BACK.png,"(25, 15)",practice,2,1,stim\yellow.png,stim\gray.png,stim\gray.png,stim\gray.png,None,1,0,1,0,0,2,2,2,0,0,0,0,,,,,,,,,,,,,,,,,283.35273469996173,None,space,3.420821800013073,283.35273469996173,None,286.9080433000345,291.4157357000513,291.36539900000207,None,291.81682990002446,292.81766509998124,291.81682990002446,292.81766509998124,291.81682990002446,292.81766509998124,291.81682990002446,292.81766509998124,None,1,,291.81682990002446,None,291.81682990002446,None,291.81682990002446,292.3166692999657,291.81682990002446,292.3166692999657,291.81682990002446,292.3166692999657,291.81682990002446,292.3166692999657,291.81682990002446,None,,,,,,,,,,,,,,,,,,,,,,,,,,,,,,,,,,,,,,,,,,11014,001,2024_Jan_04_1032,nback,2021.2.3,59.85780179641349,
2-back,instructions\back-2.png,conditions\2back-p.xlsx,instructions\2-BACK.png,"(25, 15)",practice,2,2,stim\gray.png,stim\yellow.png,stim\gray.png,stim\gray.png,None,1,0,1,0,0,2,2,2,0,1,1,1,,,,,,,,,,,,,,,,,,,,,,,,,,,293.3008032999933,294.3028510999866,293.3008032999933,294.3028510999866,293.3008032999933,294.3028510999866,293.3008032999933,294.3028510999866,None,1,,293.3008032999933,None,293.3008032999933,None,293.3008032999933,293.8014777000062,293.3008032999933,293.8014777000062,293.3008032999933,293.8014777000062,293.3008032999933,293.8014777000062,293.3008032999933,None,,,,,,,,,,,,,,,,,,,,,,,,,,,,,,,,,,,,,,,,,,11014,001,2024_Jan_04_1032,nback,2021.2.3,59.85780179641349,
2-back,instructions\back-2.png,conditions\2back-p.xlsx,instructions\2-BACK.png,"(25, 15)",practice,2,3,stim\gray.png,stim\gray.png,stim\yellow.png,stim\gray.png,up,1,0,1,0,0,2,2,2,0,2,2,2,,,,,,,,,,,,,,,,,,,,,,,,,,,294.80296240001917,295.80524680006783,294.80296240001917,295.80524680006783,294.80296240001917,295.80524680006783,294.80296240001917,295.80524680006783,left,0,0.9225549000548199,294.80296240001917,None,294.80296240001917,None,294.80296240001917,295.30454300006386,294.80296240001917,295.30454300006386,294.80296240001917,295.30454300006386,294.80296240001917,295.30454300006386,294.80296240001917,None,,,,,,,,,,,,,,,,,,,,,,,,,,,,,,,,,,,,,,,,,,11014,001,2024_Jan_04_1032,nback,2021.2.3,59.85780179641349,
2-back,instructions\back-2.png,conditions\2back-p.xlsx,instructions\2-BACK.png,"(25, 15)",practice,2,4,stim\gray.png,stim\gray.png,stim\gray.png,stim\yellow.png,left,1,0,1,0,0,2,2,2,0,3,3,3,,,,,,,,,,,,,,,,,,,,,,,,,,,296.3059428000124,297.3076132000424,296.3059428000124,297.3076132000424,296.3059428000124,297.3076132000424,296.3059428000124,297.3076132000424,left,1,0.3954741000197828,296.3059428000124,None,296.3059428000124,None,296.3059428000124,296.80588790006004,296.3059428000124,296.80588790006004,296.3059428000124,296.80588790006004,296.3059428000124,296.80588790006004,296.3059428000124,None,,,,,,,,,,,,,,,,,,,,,,,,,,,,,,,,,,,,,,,,,,11014,001,2024_Jan_04_1032,nback,2021.2.3,59.85780179641349,
2-back,instructions\back-2.png,conditions\2back-p.xlsx,instructions\2-BACK.png,"(25, 15)",practice,2,2,stim\gray.png,stim\yellow.png,stim\gray.png,stim\gray.png,right,1,0,1,0,0,2,2,2,0,4,4,4,,,,,,,,,,,,,,,,,,,,,,,,,,,297.8081736000022,298.8089231000049,297.8081736000022,298.8089231000049,297.8081736000022,298.8089231000049,297.8081736000022,298.8089231000049,right,1,0.30106660001911223,297.8081736000022,None,297.8081736000022,None,297.8081736000022,298.3086714000674,297.8081736000022,298.3086714000674,297.8081736000022,298.3086714000674,297.8081736000022,298.3086714000674,297.8081736000022,None,,,,,,,,,,,,,,,,,,,,,,,,,,,,,,,,,,,,,,,,,,11014,001,2024_Jan_04_1032,nback,2021.2.3,59.85780179641349,
2-back,instructions\back-2.png,conditions\2back-p.xlsx,instructions\2-BACK.png,"(25, 15)",practice,2,1,stim\yellow.png,stim\gray.png,stim\gray.png,stim\gray.png,down,1,0,1,0,0,2,2,2,0,5,5,5,,,,,,,,,,,,,,,,,,,,,,,,,,,299.3096808999544,300.31127069995273,299.3096808999544,300.31127069995273,299.3096808999544,300.31127069995273,299.3096808999544,300.31127069995273,down,1,0.15174269990529865,299.3096808999544,None,299.3096808999544,None,299.3096808999544,299.8113924000645,299.3096808999544,299.8113924000645,299.3096808999544,299.8113924000645,299.3096808999544,299.8113924000645,299.3096808999544,None,,,,,,,,,,,,,,,,,,,,,,,,,,,,,,,,,,,,,,,,,,11014,001,2024_Jan_04_1032,nback,2021.2.3,59.85780179641349,
2-back,instructions\back-2.png,conditions\2back-p.xlsx,instructions\2-BACK.png,"(25, 15)",practice,2,4,stim\gray.png,stim\gray.png,stim\gray.png,stim\yellow.png,left,1,0,1,0,0,2,2,2,0,6,6,6,,,,,,,,,,,,,,,,,,,,,,,,,,,300.8119185999967,301.8140266999835,300.8119185999967,301.8140266999835,300.8119185999967,301.8140266999835,300.8119185999967,301.8140266999835,left,1,0.21775930002331734,300.8119185999967,None,300.8119185999967,None,300.8119185999967,301.3133331000572,300.8119185999967,301.3133331000572,300.8119185999967,301.3133331000572,300.8119185999967,301.3133331000572,300.8119185999967,None,,,,,,,,,,,,,,,,,,,,,,,,,,,,,,,,,,,,,,,,,,11014,001,2024_Jan_04_1032,nback,2021.2.3,59.85780179641349,
2-back,instructions\back-2.png,conditions\2back-p.xlsx,instructions\2-BACK.png,"(25, 15)",practice,2,3,stim\gray.png,stim\gray.png,stim\yellow.png,stim\gray.png,up,1,0,1,0,0,2,2,2,0,7,7,7,,,,,,,,,,,,,,,,,,,,,,,,,,,302.297453999985,303.2989264000207,302.297453999985,303.2989264000207,302.297453999985,303.2989264000207,302.297453999985,303.2989264000207,down,0,0.8439607999753207,302.297453999985,None,302.297453999985,None,302.297453999985,302.7982790999813,302.297453999985,302.7982790999813,302.297453999985,302.7982790999813,302.297453999985,302.7982790999813,302.297453999985,None,,,,,,,,,,,,,,,,,,,,,,,,,,,,,,,,,,,,,,,,,,11014,001,2024_Jan_04_1032,nback,2021.2.3,59.85780179641349,
2-back,instructions\back-2.png,conditions\2back-p.xlsx,instructions\2-BACK.png,"(25, 15)",practice,2,3,stim\gray.png,stim\gray.png,stim\yellow.png,stim\gray.png,down,1,0,1,0,0,2,2,2,0,8,8,8,,,,,,,,,,,,,,,,,,,,,,,,,,,303.8002174999565,304.8021851000376,303.8002174999565,304.8021851000376,303.8002174999565,304.8021851000376,303.8002174999565,304.8021851000376,down,1,0.9892352999886498,303.8002174999565,None,303.8002174999565,None,303.8002174999565,304.30042360001244,303.8002174999565,304.30042360001244,303.8002174999565,304.30042360001244,303.8002174999565,304.30042360001244,303.8002174999565,None,,,,,,,,,,,,,,,,,,,,,,,,,,,,,,,,,,,,,,,,,,11014,001,2024_Jan_04_1032,nback,2021.2.3,59.85780179641349,
2-back,instructions\back-2.png,conditions\2back-p.xlsx,instructions\2-BACK.png,"(25, 15)",practice,2,4,stim\gray.png,stim\gray.png,stim\gray.png,stim\yellow.png,right,1,0,1,0,0,2,2,2,0,9,9,9,,,,,,,,,,,,,,,,,,,,,,,,,,,305.3018922000192,306.3034865000518,305.3018922000192,306.3034865000518,305.3018922000192,306.3034865000518,305.3018922000192,306.3034865000518,right,1,1.4634502000408247,305.3018922000192,None,305.3018922000192,None,305.3018922000192,305.80267959996127,305.3018922000192,305.80267959996127,305.3018922000192,305.80267959996127,305.3018922000192,305.80267959996127,305.3018922000192,None,,,,,,,,,,,,,,,,,,,,,,,,,,,,,,,,,,,,,,,,,,11014,001,2024_Jan_04_1032,nback,2021.2.3,59.85780179641349,
2-back,instructions\back-2.png,conditions\2back-p.xlsx,instructions\2-BACK.png,"(25, 15)",practice,2,1,stim\yellow.png,stim\gray.png,stim\gray.png,stim\gray.png,right,1,0,1,0,0,2,2,2,0,10,10,10,,,,,,,,,,,,,,,,,,,,,,,,,,,306.804895499954,307.80797189997975,306.804895499954,307.80797189997975,306.804895499954,307.80797189997975,306.804895499954,307.80797189997975,down,0,0.9365746999392286,306.804895499954,None,306.804895499954,None,306.804895499954,307.304851999972,306.804895499954,307.304851999972,306.804895499954,307.304851999972,306.804895499954,307.304851999972,306.804895499954,None,,,,,,,,,,,,,,,,,,,,,,,,,,,,,,,,,,,,,,,,,,11014,001,2024_Jan_04_1032,nback,2021.2.3,59.85780179641349,
2-back,instructions\back-2.png,conditions\2back-p.xlsx,instructions\2-BACK.png,"(25, 15)",practice,2,2,stim\gray.png,stim\yellow.png,stim\gray.png,stim\gray.png,down,1,0,1,0,0,2,2,2,0,11,11,11,,,,,,,,,,,,,,,,,,,,,,,,,,,308.30748780001886,309.3079312000191,308.30748780001886,309.3079312000191,308.30748780001886,309.3079312000191,308.30748780001886,309.3079312000191,down,1,1.2346833000192419,308.30748780001886,None,308.30748780001886,None,308.30748780001886,308.8077006000094,308.30748780001886,308.8077006000094,308.30748780001886,308.8077006000094,308.30748780001886,308.8077006000094,308.30748780001886,None,,,,,,,,,,,,,,,,,,,,,,,,,,,,,,,,,,,,,,,,,,11014,001,2024_Jan_04_1032,nback,2021.2.3,59.85780179641349,
2-back,instructions\back-2.png,conditions\2back-p.xlsx,instructions\2-BACK.png,"(25, 15)",practice,2,4,stim\gray.png,stim\gray.png,stim\gray.png,stim\yellow.png,up,1,0,1,0,0,2,2,2,0,12,12,12,,,,,,,,,,,,,,,,,,,,,,,,,,,309.8089680999983,310.80999259999953,309.8089680999983,310.80999259999953,309.8089680999983,310.80999259999953,309.8089680999983,310.80999259999953,up,1,0.6524703000904992,309.8089680999983,None,309.8089680999983,None,309.8089680999983,310.30913850001525,309.8089680999983,310.30913850001525,309.8089680999983,310.30913850001525,309.8089680999983,310.30913850001525,309.8089680999983,None,,,,,,,,,,,,,,,,,,,,,,,,,,,,,,,,,,,,,,,,,,11014,001,2024_Jan_04_1032,nback,2021.2.3,59.85780179641349,
2-back,instructions\back-2.png,conditions\2back-p.xlsx,instructions\2-BACK.png,"(25, 15)",practice,2,3,stim\gray.png,stim\gray.png,stim\yellow.png,stim\gray.png,left,1,0,1,0,0,2,2,2,0,13,13,13,,,,,,,,,,,,,,,,,,,,,,,,,,,311.3114772000117,312.31319690006785,311.3114772000117,312.31319690006785,311.3114772000117,312.31319690006785,311.3114772000117,312.31319690006785,left,1,0.6060550999827683,311.3114772000117,None,311.3114772000117,None,311.3114772000117,311.8130573000526,311.3114772000117,311.8130573000526,311.3114772000117,311.8130573000526,311.3114772000117,311.8130573000526,311.3114772000117,None,,,,,,,,,,,,,,,,,,,,,,,,,,,,,,,,,,,,,,,,,,11014,001,2024_Jan_04_1032,nback,2021.2.3,59.85780179641349,
2-back,instructions\back-2.png,conditions\2back-p.xlsx,instructions\2-BACK.png,"(25, 15)",practice,2,1,stim\yellow.png,stim\gray.png,stim\gray.png,stim\gray.png,down,1,0,1,0,0,2,2,2,0,14,14,14,,,,,,,,,,,,,,,,,,,,,,,,,,,312.79637160000857,313.79776770004537,312.79637160000857,313.79776770004537,312.79637160000857,313.79776770004537,312.79637160000857,313.79776770004537,down,1,0.6734705000417307,312.79637160000857,None,312.79637160000857,None,312.79637160000857,313.2974497000687,312.79637160000857,313.2974497000687,312.79637160000857,313.2974497000687,312.79637160000857,313.2974497000687,312.79637160000857,None,,,,,,,,,,,,,,,,,,,,,,,,,,,,,,,,,,,,,,,,,,11014,001,2024_Jan_04_1032,nback,2021.2.3,59.85780179641349,
2-back,instructions\back-2.png,conditions\2back-p.xlsx,instructions\2-BACK.png,"(25, 15)",practice,2,2,stim\gray.png,stim\yellow.png,stim\gray.png,stim\gray.png,right,1,0,1,0,0,2,2,2,0,15,15,15,,,,,,,,,,,,,,,,,,,,,,,,,,,314.29855429998133,315.29993670003023,314.29855429998133,315.29993670003023,314.29855429998133,315.29993670003023,314.29855429998133,315.29993670003023,down,0,0.8912568000378087,314.29855429998133,None,314.29855429998133,None,314.29855429998133,314.7993509999942,314.29855429998133,314.7993509999942,314.29855429998133,314.7993509999942,314.29855429998133,314.7993509999942,314.29855429998133,None,,,,,,,,,,,,,,,,,,,,,,,,,,,,,,,,,,,,,,,,,,11014,001,2024_Jan_04_1032,nback,2021.2.3,59.85780179641349,
2-back,instructions\back-2.png,conditions\2back-p.xlsx,instructions\2-BACK.png,"(25, 15)",practice,2,3,stim\gray.png,stim\gray.png,stim\yellow.png,stim\gray.png,up,1,0,1,0,0,2,2,2,0,16,16,16,,,,,,,,,,,,,,,,,,,,,,,,,,,315.80069730000105,316.8027281999821,315.80069730000105,316.8027281999821,315.80069730000105,316.8027281999821,315.80069730000105,316.8027281999821,left,0,0.7088671000674367,315.80069730000105,None,315.80069730000105,None,315.80069730000105,316.3015524999937,315.80069730000105,316.3015524999937,315.80069730000105,316.3015524999937,315.80069730000105,316.3015524999937,315.80069730000105,None,,,,,,,,,,,,,,,,,,,,,,,,,,,,,,,,,,,,,,,,,,11014,001,2024_Jan_04_1032,nback,2021.2.3,59.85780179641349,
2-back,instructions\back-2.png,conditions\2back-p.xlsx,instructions\2-BACK.png,"(25, 15)",practice,2,1,stim\yellow.png,stim\gray.png,stim\gray.png,stim\gray.png,left,1,0,1,0,0,2,2,2,0,17,17,17,,,,,,,,,,,,,,,,,,,,,,,,,,,317.30297800002154,318.30536140000913,317.30297800002154,318.30536140000913,317.30297800002154,318.30536140000913,317.30297800002154,318.30536140000913,None,0,,317.30297800002154,None,317.30297800002154,None,317.30297800002154,317.8045392000349,317.30297800002154,317.8045392000349,317.30297800002154,317.8045392000349,317.30297800002154,317.8045392000349,317.30297800002154,None,,,,,,,,,,,,,,,,,,,,,,,,,,,,,,,,,,,,,,,,,,11014,001,2024_Jan_04_1032,nback,2021.2.3,59.85780179641349,
2-back,instructions\back-2.png,conditions\2back-p.xlsx,instructions\2-BACK.png,"(25, 15)",practice,2,4,stim\gray.png,stim\gray.png,stim\gray.png,stim\yellow.png,right,1,0,1,0,0,2,2,2,0,18,18,18,,,,,,,,,,,,,,,,,,,,,,,,,,,318.80577330000233,319.80664149997756,318.80577330000233,319.80664149997756,318.80577330000233,319.80664149997756,318.80577330000233,319.80664149997756,None,0,,318.80577330000233,None,318.80577330000233,None,318.80577330000233,319.3060557000572,318.80577330000233,319.3060557000572,318.80577330000233,319.3060557000572,318.80577330000233,319.3060557000572,318.80577330000233,None,,,,,,,,,,,,,,,,,,,,,,,,,,,,,,,,,,,,,,,,,,11014,001,2024_Jan_04_1032,nback,2021.2.3,59.85780179641349,
2-back,instructions\back-2.png,conditions\2back-p.xlsx,instructions\2-BACK.png,"(25, 15)",practice,2,2,stim\gray.png,stim\yellow.png,stim\gray.png,stim\gray.png,up,1,0,1,0,0,2,2,2,0,19,19,19,,,,,,,,,,,,,,,,,,,,,,,,,,,320.30815769999754,321.3097555000568,320.30815769999754,321.3097555000568,320.30815769999754,321.3097555000568,320.30815769999754,321.3097555000568,down,0,1.465275999973528,320.30815769999754,None,320.30815769999754,None,320.30815769999754,320.8081980999559,320.30815769999754,320.8081980999559,320.30815769999754,320.8081980999559,320.30815769999754,320.8081980999559,320.30815769999754,None,,,,,,,,,,,,,,,,,,,,,,,,,,,,,,,,,,,,,,,,,,11014,001,2024_Jan_04_1032,nback,2021.2.3,59.85780179641349,
2-back,instructions\back-2.png,conditions\2back-p.xlsx,instructions\2-BACK.png,"(25, 15)",,,,,,,,,1,0,1,0,0,2,2,2,,,,,,,,,,,,,,,,,,,,,,,,,,,,,,,,,,,,,,,,,,,,,,,,,,,,,,,,,,,,,,,,,,,,,,,,,,,,,,,,,,,,,,,,,,,,,,,,,11014,001,2024_Jan_04_1032,nback,2021.2.3,59.85780179641349,
,,,,,,,,,,,,,1,0,1,0,,,,,,,,,,,,,,,,,,,,,,,,,,,,,,,,,,,,,,,,,,,,,,,,,,,,,,,,,,,,321.8103687999537,None,space,5.7950091999955475,321.8103687999537,None,,,,,,,,,,,,,,,,,,,,,,,,,,,,,,,,,,,,11014,001,2024_Jan_04_1032,nback,2021.2.3,59.85780179641349,
,,,,,,,,,,,,,,,,,,,,,,,,,,,,,,,,,,,,,,,,,,,,,,,,,,,,,,,,,,,,,,,,,,,,,,,,,,,,,,,,,,327.6349927999545,None,space,15.402345899958163,327.6349927999545,None,,,,,,,,,,,,,,,,,,,,,,,,,,,,,,11014,001,2024_Jan_04_1032,nback,2021.2.3,59.85780179641349,
0-back,instructions\back-0.png,conditions\04back-e.xlsx,,,experiment,0,3,stim\gray.png,stim\gray.png,stim\yellow.png,stim\gray.png,right,,,,,,,,,,,,,0,0,0,13,0,0,0,0,,,,,,,,,,,,,,,343.1915379000129,347.69937539997045,347.64872870000545,None,,,,,,,,,,,,,,,,,,,,,,,,,,,,,,,,,,,,,,right,1,0.44335670000873506,348.08210360002704,None,348.08210360002704,None,348.08210360002704,349.0838254999835,348.08210360002704,349.0838254999835,348.08210360002704,349.0838254999835,348.08210360002704,349.0838254999835,348.08210360002704,348.583850700059,348.08210360002704,348.583850700059,348.08210360002704,348.583850700059,348.08210360002704,348.583850700059,348.08210360002704,None,,,,,11014,001,2024_Jan_04_1032,nback,2021.2.3,59.85780179641349,
0-back,instructions\back-0.png,conditions\04back-e.xlsx,,,experiment,0,1,stim\yellow.png,stim\gray.png,stim\gray.png,stim\gray.png,up,,,,,,,,,,,,,0,0,0,13,0,1,1,1,,,,,,,,,,,,,,,,,,,,,,,,,,,,,,,,,,,,,,,,,,,,,,,,,,,,,,,,up,1,0.37426690000575036,349.56731870002113,None,349.56731870002113,None,349.56731870002113,350.56986010004766,349.56731870002113,350.56986010004766,349.56731870002113,350.56986010004766,349.56731870002113,350.56986010004766,349.56731870002113,350.0687265000306,349.56731870002113,350.0687265000306,349.56731870002113,350.0687265000306,349.56731870002113,350.0687265000306,349.56731870002113,None,,,,,11014,001,2024_Jan_04_1032,nback,2021.2.3,59.85780179641349,
0-back,instructions\back-0.png,conditions\04back-e.xlsx,,,experiment,0,2,stim\gray.png,stim\yellow.png,stim\gray.png,stim\gray.png,left,,,,,,,,,,,,,0,0,0,13,0,2,2,2,,,,,,,,,,,,,,,,,,,,,,,,,,,,,,,,,,,,,,,,,,,,,,,,,,,,,,,,left,1,0.37569799995981157,351.06972609995864,None,351.06972609995864,None,351.06972609995864,352.0712188000325,351.06972609995864,352.0712188000325,351.06972609995864,352.0712188000325,351.06972609995864,352.0712188000325,351.06972609995864,351.57150169997476,351.06972609995864,351.57150169997476,351.06972609995864,351.57150169997476,351.06972609995864,351.57150169997476,351.06972609995864,None,,,,,11014,001,2024_Jan_04_1032,nback,2021.2.3,59.85780179641349,
0-back,instructions\back-0.png,conditions\04back-e.xlsx,,,experiment,0,3,stim\gray.png,stim\gray.png,stim\yellow.png,stim\gray.png,right,,,,,,,,,,,,,0,0,0,13,0,3,3,3,,,,,,,,,,,,,,,,,,,,,,,,,,,,,,,,,,,,,,,,,,,,,,,,,,,,,,,,right,1,0.2897394000319764,352.5719047000166,None,352.5719047000166,None,352.5719047000166,353.573343200027,352.5719047000166,353.573343200027,352.5719047000166,353.573343200027,352.5719047000166,353.573343200027,352.5719047000166,353.07260750001296,352.5719047000166,353.07260750001296,352.5719047000166,353.07260750001296,352.5719047000166,353.07260750001296,352.5719047000166,None,,,,,11014,001,2024_Jan_04_1032,nback,2021.2.3,59.85780179641349,
0-back,instructions\back-0.png,conditions\04back-e.xlsx,,,experiment,0,3,stim\gray.png,stim\gray.png,stim\yellow.png,stim\gray.png,right,,,,,,,,,,,,,0,0,0,13,0,4,4,4,,,,,,,,,,,,,,,,,,,,,,,,,,,,,,,,,,,,,,,,,,,,,,,,,,,,,,,,right,1,0.3554863999597728,354.074140700046,None,354.074140700046,None,354.074140700046,355.0756855000509,354.074140700046,355.0756855000509,354.074140700046,355.0756855000509,354.074140700046,355.0756855000509,354.074140700046,354.5751178000355,354.074140700046,354.5751178000355,354.074140700046,354.5751178000355,354.074140700046,354.5751178000355,354.074140700046,None,,,,,11014,001,2024_Jan_04_1032,nback,2021.2.3,59.85780179641349,
0-back,instructions\back-0.png,conditions\04back-e.xlsx,,,experiment,0,2,stim\gray.png,stim\yellow.png,stim\gray.png,stim\gray.png,left,,,,,,,,,,,,,0,0,0,13,0,5,5,5,,,,,,,,,,,,,,,,,,,,,,,,,,,,,,,,,,,,,,,,,,,,,,,,,,,,,,,,left,1,0.3488599000265822,355.5767400000477,None,355.5767400000477,None,355.5767400000477,356.57792770001106,355.5767400000477,356.57792770001106,355.5767400000477,356.57792770001106,355.5767400000477,356.57792770001106,355.5767400000477,356.0777485000435,355.5767400000477,356.0777485000435,355.5767400000477,356.0777485000435,355.5767400000477,356.0777485000435,355.5767400000477,None,,,,,11014,001,2024_Jan_04_1032,nback,2021.2.3,59.85780179641349,
0-back,instructions\back-0.png,conditions\04back-e.xlsx,,,experiment,0,2,stim\gray.png,stim\yellow.png,stim\gray.png,stim\gray.png,left,,,,,,,,,,,,,0,0,0,13,0,6,6,6,,,,,,,,,,,,,,,,,,,,,,,,,,,,,,,,,,,,,,,,,,,,,,,,,,,,,,,,left,1,0.318840799969621,357.0625929000089,None,357.0625929000089,None,357.0625929000089,358.06346930004656,357.0625929000089,358.06346930004656,357.0625929000089,358.06346930004656,357.0625929000089,358.06346930004656,357.0625929000089,357.56272339995485,357.0625929000089,357.56272339995485,357.0625929000089,357.56272339995485,357.0625929000089,357.56272339995485,357.0625929000089,None,,,,,11014,001,2024_Jan_04_1032,nback,2021.2.3,59.85780179641349,
0-back,instructions\back-0.png,conditions\04back-e.xlsx,,,experiment,0,1,stim\yellow.png,stim\gray.png,stim\gray.png,stim\gray.png,up,,,,,,,,,,,,,0,0,0,13,0,7,7,7,,,,,,,,,,,,,,,,,,,,,,,,,,,,,,,,,,,,,,,,,,,,,,,,,,,,,,,,up,1,0.36941729998216033,358.564047700027,None,358.564047700027,None,358.564047700027,359.565859299968,358.564047700027,359.565859299968,358.564047700027,359.565859299968,358.564047700027,359.565859299968,358.564047700027,359.0657628000481,358.564047700027,359.0657628000481,358.564047700027,359.0657628000481,358.564047700027,359.0657628000481,358.564047700027,None,,,,,11014,001,2024_Jan_04_1032,nback,2021.2.3,59.85780179641349,
0-back,instructions\back-0.png,conditions\04back-e.xlsx,,,experiment,0,4,stim\gray.png,stim\gray.png,stim\gray.png,stim\yellow.png,down,,,,,,,,,,,,,0,0,0,13,0,8,8,8,,,,,,,,,,,,,,,,,,,,,,,,,,,,,,,,,,,,,,,,,,,,,,,,,,,,,,,,down,1,0.2840903999749571,360.06632460001856,None,360.06632460001856,None,360.06632460001856,361.06778949999716,360.06632460001856,361.06778949999716,360.06632460001856,361.06778949999716,360.06632460001856,361.06778949999716,360.06632460001856,360.5671293999767,360.06632460001856,360.5671293999767,360.06632460001856,360.5671293999767,360.06632460001856,360.5671293999767,360.06632460001856,None,,,,,11014,001,2024_Jan_04_1032,nback,2021.2.3,59.85780179641349,
0-back,instructions\back-0.png,conditions\04back-e.xlsx,,,experiment,0,4,stim\gray.png,stim\gray.png,stim\gray.png,stim\yellow.png,down,,,,,,,,,,,,,0,0,0,13,0,9,9,9,,,,,,,,,,,,,,,,,,,,,,,,,,,,,,,,,,,,,,,,,,,,,,,,,,,,,,,,down,1,0.44445709988940507,361.568991899956,None,361.568991899956,None,361.568991899956,362.5707993999822,361.568991899956,362.5707993999822,361.568991899956,362.5707993999822,361.568991899956,362.5707993999822,361.568991899956,362.0693300999701,361.568991899956,362.0693300999701,361.568991899956,362.0693300999701,361.568991899956,362.0693300999701,361.568991899956,None,,,,,11014,001,2024_Jan_04_1032,nback,2021.2.3,59.85780179641349,
0-back,instructions\back-0.png,conditions\04back-e.xlsx,,,experiment,0,1,stim\yellow.png,stim\gray.png,stim\gray.png,stim\gray.png,up,,,,,,,,,,,,,0,0,0,13,0,10,10,10,,,,,,,,,,,,,,,,,,,,,,,,,,,,,,,,,,,,,,,,,,,,,,,,,,,,,,,,up,1,0.39081660006195307,363.07087789999787,None,363.07087789999787,None,363.07087789999787,364.07232759997714,363.07087789999787,364.07232759997714,363.07087789999787,364.07232759997714,363.07087789999787,364.07232759997714,363.07087789999787,363.57149270002265,363.07087789999787,363.57149270002265,363.07087789999787,363.57149270002265,363.07087789999787,363.57149270002265,363.07087789999787,None,,,,,11014,001,2024_Jan_04_1032,nback,2021.2.3,59.85780179641349,
0-back,instructions\back-0.png,conditions\04back-e.xlsx,,,experiment,0,4,stim\gray.png,stim\gray.png,stim\gray.png,stim\yellow.png,down,,,,,,,,,,,,,0,0,0,13,0,11,11,11,,,,,,,,,,,,,,,,,,,,,,,,,,,,,,,,,,,,,,,,,,,,,,,,,,,,,,,,down,1,0.42491709999740124,364.5727871999843,None,364.5727871999843,None,364.5727871999843,365.57539120002184,364.5727871999843,365.57539120002184,364.5727871999843,365.57539120002184,364.5727871999843,365.57539120002184,364.5727871999843,365.0738296000054,364.5727871999843,365.0738296000054,364.5727871999843,365.0738296000054,364.5727871999843,365.0738296000054,364.5727871999843,None,,,,,11014,001,2024_Jan_04_1032,nback,2021.2.3,59.85780179641349,
0-back,instructions\back-0.png,conditions\04back-e.xlsx,,,experiment,0,1,stim\yellow.png,stim\gray.png,stim\gray.png,stim\gray.png,up,,,,,,,,,,,,,0,0,0,13,0,12,12,12,,,,,,,,,,,,,,,,,,,,,,,,,,,,,,,,,,,,,,,,,,,,,,,,,,,,,,,,up,1,0.34678400005213916,366.0751623000251,None,366.0751623000251,None,366.0751623000251,367.0772870000219,366.0751623000251,367.0772870000219,366.0751623000251,367.0772870000219,366.0751623000251,367.0772870000219,366.0751623000251,366.57603930006735,366.0751623000251,366.57603930006735,366.0751623000251,366.57603930006735,366.0751623000251,366.57603930006735,366.0751623000251,None,,,,,11014,001,2024_Jan_04_1032,nback,2021.2.3,59.85780179641349,
0-back,instructions\back-0.png,conditions\04back-e.xlsx,,,experiment,0,3,stim\gray.png,stim\gray.png,stim\yellow.png,stim\gray.png,right,,,,,,,,,,,,,0,0,0,13,0,13,13,13,,,,,,,,,,,,,,,,,,,,,,,,,,,,,,,,,,,,,,,,,,,,,,,,,,,,,,,,right,1,0.29191129992250353,367.56160000001546,None,367.56160000001546,None,367.56160000001546,368.56320049997885,367.56160000001546,368.56320049997885,367.56160000001546,368.56320049997885,367.56160000001546,368.56320049997885,367.56160000001546,368.0623049000278,367.56160000001546,368.0623049000278,367.56160000001546,368.0623049000278,367.56160000001546,368.0623049000278,367.56160000001546,None,,,,,11014,001,2024_Jan_04_1032,nback,2021.2.3,59.85780179641349,
